elapsed_ms,acc_x_g,acc_y_g,acc_z_g,gyro_x_dps,gyro_y_dps,gyro_z_dps,angle_x_deg,angle_y_deg,angle_z_deg
0,0.6479,-0.2969,-0.5776,-4.883,1.221,1.16,-153.853,-48.917,84.831
20,0.6167,-0.291,-0.5645,-22.888,-7.568,-0.793,-154.27,-48.741,84.886
40,0.6167,-0.291,-0.5645,-32.043,-15.015,-6.531,-155.089,-48.505,85.199
60,0.7432,-0.2627,-0.5664,-32.471,-22.644,-10.803,-156.143,-48.246,85.737
80,0.8428,-0.2563,-0.5791,-26.123,-21.973,-3.479,-157.011,-48.005,86.177
100,0.8628,-0.2749,-0.5659,-15.32,-17.273,10.986,-157.302,-47.714,86.182
120,0.7891,-0.3018,-0.561,-6.592,-10.315,10.742,-157.22,-47.472,85.995
129,0.7891,-0.3018,-0.561,-6.958,-2.93,4.578,-157.203,-47.45,85.952
150,0.8765,-0.3037,-0.7051,-10.681,5.981,-2.441,-157.434,-47.703,85.979
169,0.9346,-0.2466,-0.7803,-12.878,20.752,-10.681,-157.846,-48.17,86.05
199,0.8911,-0.2061,-0.7876,3.357,19.958,-5.554,-157.885,-48.768,85.952
230,0.8037,-0.2378,-0.7349,25.33,34.485,-5.005,-157.148,-49.537,85.649
239,0.8037,-0.2378,-0.7349,25.391,38.574,-4.211,-156.802,-49.867,85.479
249,0.7769,-0.2622,-0.7202,25.513,40.283,-3.174,-156.429,-50.197,85.276
270,0.7769,-0.2622,-0.7202,25.391,39.185,-1.953,-155.676,-50.795,84.836
279,0.7769,-0.2622,-0.7202,25.391,39.185,-1.953,-155.385,-51.015,84.639
299,0.7769,-0.2622,-0.7202,11.047,29.968,0.977,-154.935,-51.471,84.194
309,0.7046,-0.1826,-0.6455,11.047,29.968,0.977,-154.819,-51.625,84.018
339,0.6807,-0.1987,-0.6157,3.723,-3.967,-3.113,-154.869,-51.597,83.969
348,0.6807,-0.1987,-0.6157,3.723,-3.967,-3.113,-154.973,-51.515,84.078
359,0.6807,-0.1987,-0.6157,4.333,-15.869,-0.122,-155.039,-51.372,84.188
388,0.7383,-0.2485,-0.479,8.972,-30.09,6.104,-155.006,-50.587,84.529
409,0.7461,-0.2397,-0.4653,4.333,-31.128,5.554,-155.127,-50.037,84.836
428,0.7451,-0.2402,-0.4741,4.333,-31.128,5.554,-155.599,-49.323,85.364
449,0.7612,-0.2534,-0.5376,-19.226,-49.194,-4.333,-156.456,-48.538,86.056
479,0.7886,-0.2681,-0.6187,-20.935,-50.415,-5.249,-157.906,-47.175,87.193
508,0.8174,-0.3828,-0.7632,-14.16,-41.626,-2.014,-158.906,-45.95,88.028
518,0.793,-0.3555,-0.7632,-14.16,-41.626,-2.014,-159.088,-45.533,88.226
538,0.7651,-0.3242,-0.771,-14.16,-41.626,-2.014,-159.214,-44.819,88.358
548,0.7651,-0.3242,-0.771,14.832,-29.541,9.827,-159.148,-44.445,88.38
568,0.7397,-0.3022,-0.7725,14.832,-29.541,9.827,-158.571,-43.797,88.484
588,0.8149,-0.3716,-0.7832,40.894,-28.687,10.01,-157.731,-43.193,88.583
608,0.814,-0.3057,-0.7036,40.894,-28.687,10.01,-156.709,-42.643,88.209
618,0.7837,-0.314,-0.6611,38.391,-26.489,42.175,-156.05,-42.281,87.825
647,0.7915,-0.3262,-0.6431,48.889,-33.875,68.359,-153.457,-40.902,86.188
677,0.6377,-0.3477,-0.585,46.753,-45.959,87.097,-150.562,-38.568,84.029
698,0.416,-0.3452,-0.6021,48.279,-61.401,92.224,-148.887,-36.519,82.859
738,0.6406,-0.3647,-0.666,15.076,-66.65,80.688,-147.074,-33.206,81.2
747,0.6406,-0.3647,-0.666,15.076,-66.65,80.688,-146.827,-32.064,80.837
757,0.6406,-0.3647,-0.666,2.197,-94.849,93.445,-146.684,-30.751,80.524
787,0.2422,-0.3135,-0.7583,-21.423,-99.976,56.58,-147.244,-26.763,80.338
807,0.252,-0.3154,-0.7974,-34.912,-85.938,26.611,-148.261,-24.725,80.799
847,0.3525,-0.5024,-0.9927,-55.969,-80.627,5.066,-151.084,-21.649,82.282
856,0.3003,-0.4683,-1.0234,-55.969,-80.627,5.066,-151.902,-20.715,82.766
877,0.2451,-0.3979,-1.0322,-61.401,-97.961,-2.808,-153.567,-18.99,83.831
896,0.2822,-0.4009,-1.0005,-61.401,-97.961,-2.808,-154.869,-17.82,84.963
907,0.2822,-0.4009,-1.0005,-33.508,-56.396,-26.062,-155.314,-17.452,85.463
917,0.4307,-0.5415,-0.8345,-33.508,-56.396,-26.062,-155.605,-17.232,85.858
946,0.4487,-0.5942,-0.812,-24.536,-47.119,-3.113,-156.138,-16.32,86.682
957,0.4487,-0.5942,-0.812,-30.396,-33.752,-3.662,-156.429,-16.117,86.858
966,0.4487,-0.5942,-0.812,-30.396,-33.752,-3.662,-156.841,-16.062,86.962
976,0.4487,-0.5942,-0.812,-35.645,-4.639,1.77,-157.269,-16.1,86.962
986,0.5039,-0.2285,-1.1987,-35.645,-4.639,1.77,-157.615,-16.095,86.858
1006,0.3755,-0.1929,-1.1797,-35.645,-4.639,1.77,-157.626,-15.238,86.578
1016,0.1167,-0.292,-0.9355,-35.645,-4.639,1.77,-157.203,-14.409,86.506
1026,0.1167,-0.292,-0.9355,55.908,-69.519,31.372,-156.638,-13.541,86.49
1046,0.064,-0.4536,-0.6411,55.908,-69.519,31.372,-155.473,-12.244,86.506
1076,0.1396,-0.4932,-0.5996,28.259,-26.672,10.986,-154.88,-11.464,86.671
1086,0.1396,-0.4932,-0.5996,-26.184,-25.818,-6.226,-155.078,-11.255,86.841
1115,0.2305,-0.3359,-1.0937,-40.466,-18.738,-23.987,-156.434,-10.964,87.589
1136,0.3857,-0.3096,-1.2266,-32.471,-12.634,-31.433,-157.236,-11.168,88.292
1155,0.4521,-0.4932,-1.127,21.301,-2.014,-29.48,-157.148,-11.585,88.907
1176,0.3066,-0.5527,-0.9385,42.175,-19.287,-9.094,-156.352,-11.536,89.291
1185,0.3066,-0.5527,-0.9385,42.175,-19.287,-9.094,-155.803,-11.343,89.396
1195,0.1079,-0.5083,-0.7124,51.575,-21.79,2.258,-155.193,-11.091,89.467
1206,0.1079,-0.5083,-0.7124,51.575,-21.79,2.258,-154.528,-10.833,89.544
1225,0.0557,-0.6772,-0.5986,51.575,-21.79,2.258,-153.446,-10.723,89.857
1246,0.1895,-0.7041,-0.75,1.465,26.794,-36.255,-153.572,-11.887,90.242
1275,0.6221,-0.2847,-1.5283,-16.541,54.199,-6.287,-154.715,-14.299,90.071
1295,0.1504,0.0093,-1.271,26.184,6.531,12.39,179.385,-14.052,89.72
1305,0.1035,-0.1416,-0.9712,26.184,6.531,12.39,-171.7,-13.727,89.572
1315,0.0913,-0.3838,-0.6675,140.991,-23.01,3.967,-170.288,-13.491,89.566
1324,0.0913,-0.3838,-0.6675,138.428,-7.202,-3.052,-168.915,-13.425,89.604
1335,0.0913,-0.3838,-0.6675,119.324,4.028,-5.432,-167.734,-13.475,89.654
1345,0.1631,-0.8042,-0.1294,89.539,3.357,-4.517,-166.849,-13.519,89.692
1354,0.1631,-0.8042,-0.1294,89.539,3.357,-4.517,-166.371,-13.557,89.714
1385,0.4424,-0.4424,-0.9263,-39.368,23.254,-23.193,-167.558,-14.529,90.22
1394,0.4424,-0.4424,-0.9263,-39.368,23.254,-23.193,-168.42,-15.276,90.516
1404,0.4424,-0.4424,-0.9263,-39.368,23.254,-23.193,-169.102,-15.82,90.742
1434,0.1792,-0.3115,-1.1113,-30.212,7.263,-14.343,-168.777,-15.09,90.895
1444,0.1792,-0.3115,-1.1113,76.172,-41.077,12.878,-168.003,-14.661,90.846
1474,0.1284,-0.6504,-0.5088,76.172,-41.077,12.878,-166.135,-14.381,90.901
1494,0.1357,-0.6885,-0.585,-14.954,-1.77,-30.579,-166.262,-14.464,91.401
1543,0.5649,-0.3735,-1.144,-49.316,22.156,-50.293,-169.266,-15.76,93.68
1554,0.4312,-0.395,-1.0933,5.432,-17.395,-8.789,-169.244,-15.606,93.807
1604,0.2427,-0.5684,-0.8501,31.494,6.775,-0.61,-167.64,-15.205,93.697
1623,0.4146,-0.5884,-0.835,31.494,6.775,-0.61,-167.558,-15.485,93.928
1634,0.333,-0.458,-0.7925,-0.549,-6.958,-1.892,-167.574,-15.419,93.961
1653,0.2017,-0.4189,-0.7661,7.507,-23.56,9.399,-167.454,-14.969,93.884
1663,0.1069,-0.4731,-0.7168,9.827,-20.386,0.793,-167.366,-14.771,93.922
1674,0.1069,-0.4731,-0.7168,6.348,-8.85,-13.367,-167.344,-14.711,94.076
1693,0.4644,-0.5972,-0.7603,6.348,-8.85,-13.367,-167.602,-14.991,94.603
1713,0.5635,-0.5503,-0.918,-19.226,11.414,-28.87,-168.157,-15.298,95.081
1773,0.3638,-0.4619,-0.8804,26.428,4.211,-0.61,-167.986,-15.551,95.158
1793,0.2603,-0.5332,-0.6626,25.879,-0.061,2.014,-166.943,-15.628,95.125
1803,0.2603,-0.5332,-0.6626,25.879,-0.061,2.014,-166.476,-15.562,95.125
1813,0.1431,-0.5059,-0.5708,9.705,-10.925,-2.563,-166.113,-15.414,95.18
1823,0.1431,-0.5059,-0.5708,-2.38,-14.771,-8.85,-165.883,-15.222,95.306
1863,0.293,-0.5273,-0.7842,-43.091,-6.287,-34.851,-166.597,-15.167,96.526
1912,0.457,-0.4028,-1.1528,-10.62,-5.981,-11.902,-167.487,-15.315,97.619
1922,0.457,-0.4028,-1.1528,17.273,-17.7,-2.502,-167.195,-15.156,97.685
1952,0.2734,-0.5762,-0.7773,26.794,-9.583,-11.719,-165.756,-14.799,98.031
1962,0.3291,-0.6172,-0.6602,26.794,-9.583,-11.719,-165.328,-14.881,98.163
1973,0.3291,-0.6172,-0.6602,5.432,5.554,-11.414,-165.004,-15.029,98.262
1992,0.3311,-0.5967,-0.6104,-15.381,1.648,-10.193,-164.702,-15.249,98.443
2022,0.2422,-0.4751,-0.9541,-38.208,7.08,-22.095,-165.251,-15.452,98.915
2032,0.3057,-0.4365,-1.1392,-38.208,7.08,-22.095,-165.679,-15.667,99.174
2042,0.3887,-0.396,-1.3008,-38.208,7.08,-22.095,-166.124,-15.98,99.465
2062,0.457,-0.3599,-1.396,-38.208,7.08,-22.095,-166.624,-16.589,100.052
2082,0.521,-0.377,-1.334,41.687,6.165,-19.043,-166.069,-16.979,100.475
2102,0.4458,-0.4604,-0.9644,41.687,6.165,-19.043,-164.647,-17.32,100.536
2131,0.2935,-0.4888,-0.6738,71.045,11.597,12.146,-161.801,-17.715,100.091
2152,0.1455,-0.5127,-0.4316,57.251,-2.136,2.014,-159.84,-17.534,99.976
2171,0.1665,-0.6094,-0.3384,22.644,10.376,-23.499,-158.456,-17.617,100.261
2181,0.2896,-0.6265,-0.4297,-3.723,25.879,-36.865,-158.231,-18.023,100.519
2192,0.2896,-0.6265,-0.4297,-29.297,40.283,-45.837,-158.373,-18.671,100.811
2211,0.6416,-0.5,-1.0972,-50.293,48.95,-34.058,-159.307,-20.083,101.206
2241,0.479,-0.3115,-1.3188,20.081,13.184,8.24,-159.708,-20.764,101.019
2261,0.269,-0.2974,-1.0723,20.081,13.184,8.24,-158.621,-20.737,100.75
2301,0.2588,-0.4033,-0.6704,53.833,-2.441,0.183,-155.825,-21.0,100.492
2310,0.2588,-0.4033,-0.6704,53.833,-2.441,0.183,-155.308,-20.841,100.596
2321,0.2588,-0.4033,-0.6704,29.48,-16.785,-13.916,-154.951,-20.698,100.805
2350,0.311,-0.4497,-0.5508,-17.883,-5.615,-35.95,-154.957,-20.962,101.821
2361,0.4736,-0.5088,-0.6294,-28.259,-8.24,-35.095,-155.231,-21.132,102.2
2371,0.5176,-0.5088,-0.6909,-28.259,-8.24,-35.095,-155.566,-21.22,102.568
2390,0.5454,-0.4736,-0.7681,-31.616,-26.062,-14.587,-156.319,-21.121,103.156
2411,0.5225,-0.377,-0.9067,-27.405,-22.034,2.808,-157.011,-20.814,103.392
2420,0.5225,-0.377,-0.9067,-27.405,-22.034,2.808,-157.286,-20.643,103.387
2430,0.5225,-0.377,-0.9067,-27.405,-22.034,2.808,-157.538,-20.522,103.332
2460,0.4487,-0.3325,-1.1255,-19.592,-12.329,21.362,-158.247,-20.165,102.947
2480,0.3711,-0.311,-0.9819,11.902,-28.87,31.189,-158.093,-19.49,102.568
2500,0.209,-0.4932,-0.3047,48.645,-49.866,33.691,-156.693,-18.391,102.277
2530,0.2354,-0.6719,0.0176,41.138,-44.617,24.719,-153.644,-16.963,102.151
2540,0.2354,-0.6719,0.0176,-12.512,-29.297,7.996,-153.188,-16.705,102.211
2570,0.5034,-0.7715,-0.6895,-51.758,-9.888,-1.526,-155.363,-17.298,102.409
2590,0.6597,-0.1709,-1.6167,-127.319,43.091,-10.01,-158.082,-18.171,102.349
2599,0.6597,-0.1709,-1.6167,-84.045,21.79,5.188,-158.879,-18.353,102.211
2620,0.2559,-0.1226,-1.3296,16.602,-33.447,29.724,-158.939,-17.759,101.893
2639,0.2559,-0.1226,-1.3296,70.435,-26.428,26.611,-157.615,-16.963,101.569
2660,0.1943,-0.5967,-0.5049,57.617,-6.653,8.85,-156.292,-16.677,101.393
2679,0.1943,-0.5967,-0.5049,17.578,-18.677,-2.625,-155.742,-16.414,101.519
2700,0.3877,-0.7212,-0.8003,-61.89,0.0,-16.663,-156.627,-16.337,101.843
2709,0.3877,-0.7212,-0.8003,-100.098,35.645,-21.484,-157.643,-16.749,101.898
2719,0.3877,-0.7212,-0.8003,-100.098,35.645,-21.484,-158.741,-17.232,101.904
2749,0.5063,-0.2095,-1.5513,9.583,-6.348,22.156,-159.791,-17.776,101.453
2760,0.2603,-0.3193,-1.1147,9.583,-6.348,22.156,-159.214,-17.353,101.272
2789,0.2783,-0.6016,-0.4941,64.514,-15.686,20.142,-156.824,-16.232,100.811
2809,0.3931,-0.7544,-0.5479,8.301,2.38,0.671,-156.33,-16.194,100.712
2829,0.6255,-0.5859,-1.0034,-43.64,15.442,0.244,-156.973,-16.392,100.662
2839,0.6553,-0.3833,-1.2241,-43.64,15.442,0.244,-157.412,-16.584,100.453
2878,0.2173,-0.1851,-1.0586,-43.64,15.442,0.244,-156.088,-15.908,98.844
2888,0.2173,-0.1851,-1.0586,95.215,-47.974,37.231,-155.094,-15.32,98.696
2898,0.0142,-0.5225,-0.438,95.215,-47.974,37.231,-154.248,-14.886,98.696
2908,0.0879,-0.6646,-0.396,95.215,-47.974,37.231,-153.765,-14.722,98.784
2938,0.1934,-0.7734,-0.499,-38.269,28.503,-29.907,-154.847,-15.727,99.201
2948,0.6182,-0.5522,-1.167,-38.269,28.503,-29.907,-155.5,-16.111,99.267
2958,0.5239,-0.3228,-1.2515,-38.269,28.503,-29.907,-155.918,-16.243,99.201
2968,0.5239,-0.3228,-1.2515,-38.269,28.503,-29.907,-155.995,-16.057,99.031
2978,0.1655,-0.2026,-1.0811,-38.269,28.503,-29.907,-155.676,-15.623,98.806
3018,0.147,-0.7202,-0.5181,53.162,-39.917,2.93,-153.737,-14.052,98.998
3038,0.2349,-0.7607,-0.5967,-37.964,5.676,-28.687,-154.308,-14.244,99.525
3048,0.2349,-0.7607,-0.5967,-37.964,5.676,-28.687,-154.946,-14.518,99.641
3058,0.4409,-0.3892,-1.0342,-37.964,5.676,-28.687,-155.583,-14.733,99.641
3077,0.3413,-0.2725,-1.0977,-22.583,-21.729,6.104,-156.297,-14.524,99.646
3088,0.1387,-0.2837,-1.0771,-22.583,-21.729,6.104,-156.292,-14.128,99.811
3117,0.1719,-0.3882,-1.0068,-22.583,-21.729,6.104,-155.814,-13.343,100.657
3147,0.3511,-0.625,-0.666,-13.123,10.254,-12.39,-156.248,-13.491,101.03
3157,0.3511,-0.625,-0.666,-34.546,-3.235,-8.057,-156.61,-13.491,101.124
3168,0.3408,-0.4629,-0.9077,-34.546,-3.235,-8.057,-157.022,-13.568,101.173
3227,0.1792,-0.5103,-0.7441,27.222,-2.319,-0.732,-157.33,-13.997,100.816
3247,0.2476,-0.5342,-0.7827,-0.793,37.781,-9.949,-156.951,-14.573,100.767
3258,0.4307,-0.5171,-0.9531,-0.793,37.781,-9.949,-157.039,-15.238,100.607
3267,0.4307,-0.5171,-0.9531,-0.793,37.781,-9.949,-157.242,-15.936,100.371
3287,0.2915,-0.3623,-0.8867,-15.503,40.527,3.601,-157.549,-16.853,99.921
3297,0.2378,-0.3389,-0.8159,1.099,24.902,1.709,-157.505,-17.056,99.805
3307,0.2378,-0.3389,-0.8159,12.085,19.287,-1.465,-157.335,-17.238,99.745
3317,0.2939,-0.4131,-0.7495,12.085,19.287,-1.465,-157.115,-17.49,99.684
3337,0.3433,-0.541,-0.7402,-7.324,30.518,-11.475,-156.879,-18.155,99.619
3357,0.3496,-0.5781,-0.7363,-39.062,21.423,-23.682,-157.253,-18.803,99.811
3406,0.5752,-0.1885,-1.1245,-76.782,26.917,-39.917,-160.884,-20.77,100.497
3427,0.3052,-0.3721,-0.939,1.465,-7.019,20.569,-160.455,-20.237,100.146
3446,0.3052,-0.5127,-0.8628,1.465,-7.019,20.569,-159.302,-19.616,99.987
3467,0.3052,-0.5127,-0.8628,14.893,0.488,7.813,-158.928,-19.748,99.783
3486,0.4004,-0.4478,-0.8623,-27.344,-2.441,10.315,-159.269,-19.748,99.547
3506,0.272,-0.3477,-0.8589,-11.414,-20.325,-1.892,-159.609,-19.314,99.651
3526,0.272,-0.3477,-0.8589,-5.249,5.188,-7.751,-159.692,-19.347,99.822
3556,0.436,-0.3779,-0.8989,-9.155,20.813,-1.526,-159.747,-19.995,99.311
3585,0.1279,-0.2393,-0.9399,-6.47,10.071,-11.108,-160.027,-19.841,99.069
3596,0.1279,-0.2393,-0.9399,-5.493,20.386,-28.748,-160.192,-20.116,99.283
3616,0.1279,-0.2393,-0.9399,3.601,32.166,-22.4,-160.291,-21.033,99.635
3636,0.1279,-0.2393,-0.9399,3.601,32.166,-22.4,-159.406,-21.193,99.201
3655,0.1807,-0.3188,-0.4517,3.601,32.166,-22.4,-157.659,-19.973,98.624
3695,0.4922,-0.7168,-0.7993,-17.883,22.583,-45.105,-157.83,-20.511,99.531
3705,0.7275,-0.4141,-1.4849,-17.883,22.583,-45.105,-158.423,-21.077,99.641
3715,0.7275,-0.4141,-1.4849,-26.611,33.142,-3.357,-158.654,-21.396,99.547
3755,0.1953,-0.5601,-0.3872,110.046,-50.537,39.062,-176.935,-19.863,98.218
3765,0.1953,-0.5601,-0.3872,74.768,-58.777,7.202,-176.171,-19.276,98.174
3785,0.1431,-0.7954,-0.5322,16.296,-38.208,-18.066,-176.605,-18.831,98.817
3804,0.3345,-0.6514,-0.7354,-74.524,10.986,-53.894,-178.627,-19.243,99.959
3815,0.3345,-0.6514,-0.7354,-74.524,10.986,-53.894,-179.654,-19.418,100.448
3825,0.626,-0.2168,-0.8828,-74.524,10.986,-53.894,179.599,-19.243,100.75
3835,0.4604,-0.2021,-0.9687,-74.524,10.986,-53.894,179.209,-18.732,100.849
3865,0.2896,-0.4805,-1.1167,2.563,-5.493,-2.441,179.231,-17.639,100.778
3895,0.4453,-0.4077,-0.9331,-23.315,12.512,-13.184,178.511,-17.908,101.135
3914,0.3848,-0.3789,-0.7988,-21.729,-15.32,-4.028,178.182,-17.485,101.14
3924,0.3848,-0.3789,-0.7988,-21.729,-15.32,-4.028,178.22,-17.232,101.069
3945,0.3828,-0.5293,-0.877,6.47,0.61,2.625,178.401,-17.089,100.975
3964,0.4712,-0.5151,-1.2031,-1.77,17.09,0.916,178.308,-17.54,100.953
3974,0.4712,-0.5151,-1.2031,-8.545,33.447,7.202,178.242,-17.88,100.887
3984,0.4712,-0.5151,-1.2031,-8.545,33.447,7.202,178.292,-18.182,100.756
3994,0.4712,-0.5151,-1.2031,18.25,14.893,18.311,178.533,-18.336,100.569
4004,0.2837,-0.293,-0.8711,18.25,14.893,18.311,178.973,-18.336,100.349
4014,0.2334,-0.3735,-0.7119,50.293,-10.376,19.714,179.539,-18.237,100.14
4024,0.2334,-0.3735,-0.7119,51.208,-14.526,14.771,-179.896,-18.094,99.981
4034,0.2334,-0.3735,-0.7119,51.208,-14.526,14.771,-179.517,-17.952,99.937
4054,0.3633,-0.5908,-0.7715,-16.296,12.634,-17.212,-179.637,-18.056,100.195
4064,0.3633,-0.5908,-0.7715,-40.527,26.123,-20.386,179.89,-18.32,100.41
4074,0.521,-0.3071,-1.0117,-50.415,32.104,-14.709,179.335,-18.638,100.563
4084,0.521,-0.3071,-1.0117,-44.678,23.132,-6.287,178.868,-18.869,100.635
4103,0.2974,-0.1289,-1.0693,-3.052,-5.737,2.747,178.561,-18.875,100.602
4133,0.2241,-0.4321,-0.7998,37.048,-18.799,-4.272,179.478,-18.347,100.745
4143,0.2241,-0.4321,-0.7998,22.156,-14.526,-15.564,179.648,-18.199,100.909
4183,0.3618,-0.3931,-1.0083,-35.828,5.31,-9.888,178.528,-18.287,101.398
4194,0.3618,-0.3931,-1.0083,-36.865,17.273,-10.498,178.121,-18.457,101.514
4203,0.3618,-0.3931,-1.0083,-20.02,25.635,-9.094,177.891,-18.71,101.618
4213,0.3618,-0.3931,-1.0083,0.977,26.978,-4.944,177.88,-18.979,101.678
4283,0.188,-0.5854,-0.4487,-32.288,9.399,-14.587,-177.308,-18.193,101.157
4293,0.188,-0.5854,-0.4487,-61.279,41.443,-21.057,-177.792,-18.666,101.36
4303,0.6406,-0.2593,-1.3501,-61.279,41.443,-21.057,-178.423,-19.325,101.53
4323,0.5122,-0.1099,-1.3325,-61.279,41.443,-21.057,-178.923,-19.973,101.547
4343,0.2466,-0.3003,-0.8076,74.829,-38.818,23.743,-177.643,-19.402,101.129
4363,0.2466,-0.3003,-0.8076,64.392,-33.203,7.568,-176.089,-18.611,100.876
4373,0.27,-0.6733,-0.2388,64.392,-33.203,7.568,-175.803,-18.484,100.948
4392,0.333,-0.708,-0.3389,64.392,-33.203,7.568,-176.413,-18.726,101.343
4402,0.333,-0.708,-0.3389,64.392,-33.203,7.568,-177.111,-19.045,101.552
4413,0.5342,-0.5811,-0.98,64.392,-33.203,7.568,-177.808,-19.363,101.766
4432,0.5986,-0.0781,-1.5532,-55.847,46.692,-0.183,-179.105,-20.264,101.893
4462,0.4258,0.0532,-1.2642,17.761,13.916,28.259,-172.315,-20.616,101.069
4472,0.1357,-0.3687,-0.5957,17.761,13.916,28.259,-171.601,-20.11,100.893
4482,0.1357,-0.3687,-0.5957,53.955,-55.054,2.197,-171.079,-19.561,100.959
4502,0.1626,-0.6782,-0.3379,53.955,-55.054,2.197,-171.151,-19.078,101.602
4522,0.4409,-0.6743,-0.4966,-63.538,19.226,-37.537,-172.485,-19.435,102.382
4552,0.4839,-0.2061,-1.3794,-52.246,14.343,-10.803,-174.029,-19.902,102.673
4571,0.3784,-0.208,-1.3647,-52.246,14.343,-10.803,-173.622,-19.858,102.36
4582,0.3784,-0.208,-1.3647,38.452,-9.46,12.878,-173.199,-19.748,102.233
4592,0.3096,-0.4438,-0.7188,38.452,-9.46,12.878,-172.848,-19.589,102.189
4611,0.3359,-0.5313,-0.4873,2.258,-17.944,-3.052,-172.656,-19.248,102.255
4632,0.311,-0.5298,-0.5029,-21.667,-20.935,-10.803,-173.068,-18.853,102.497
4651,0.4673,-0.2793,-1.188,-26.55,5.005,-8.789,-173.688,-18.814,102.733
4681,0.4536,-0.186,-1.1606,14.587,-3.296,13.184,-173.622,-19.017,102.469
4691,0.4536,-0.186,-1.1606,24.475,-21.912,9.155,-173.353,-18.787,102.404
4721,0.3242,-0.5342,-0.6743,-0.488,-8.179,-13.794,-173.068,-18.237,102.7
4741,0.4072,-0.5332,-0.7163,-28.503,4.456,-15.32,-173.611,-18.325,103.024
4761,0.4619,-0.3799,-0.8472,-33.691,-2.563,-3.296,-174.353,-18.336,103.167
4791,0.2866,-0.2808,-0.8657,-3.784,-25.452,-3.54,-174.792,-17.908,103.211
4801,0.2778,-0.4316,-0.6787,-2.502,-32.959,-11.963,-174.869,-17.595,103.365
4811,0.3105,-0.4795,-0.6191,-2.502,-32.959,-11.963,-175.029,-17.26,103.601
4831,0.3179,-0.4741,-0.6484,-36.865,-35.278,-25.513,-175.781,-16.589,104.189
4851,0.3242,-0.4287,-0.7798,-65.002,12.756,-16.541,-177.089,-16.518,104.606
4860,0.3242,-0.4287,-0.7798,-58.655,41.931,-7.935,-177.693,-16.941,104.667
4870,0.3242,-0.4287,-0.7798,-37.231,55.359,3.235,-178.05,-17.49,104.606
4910,0.4146,-0.0767,-1.3701,17.09,23.132,22.4,-176.814,-17.765,103.744
4921,0.4146,-0.0767,-1.3701,50.354,-33.508,9.705,-176.287,-17.424,103.662
4940,0.1733,-0.5366,-0.4976,15.564,1.77,-11.658,-175.787,-17.254,103.826
4950,0.1733,-0.5366,-0.4976,15.564,1.77,-11.658,-175.93,-17.474,103.964
4961,0.4263,-0.5293,-0.5073,15.564,1.77,-11.658,-176.259,-17.803,104.079
4980,0.5693,-0.3574,-1.1035,-33.447,46.814,-1.099,-176.979,-18.66,104.128
5010,0.541,-0.1909,-1.4927,10.437,53.284,19.226,-176.946,-20.27,103.563
5030,0.3701,-0.2197,-0.9067,10.437,53.284,19.226,-176.232,-20.72,103.162
5040,0.2944,-0.3149,-0.6333,41.138,-11.719,15.93,-175.759,-20.594,103.002
5070,0.229,-0.4639,-0.4839,16.174,-26.428,9.094,-175.32,-19.973,102.816
5090,0.3555,-0.4438,-0.7095,-42.786,14.587,-12.939,-176.418,-20.511,103.107
5110,0.5762,-0.1475,-1.1704,-24.231,32.715,1.526,-177.155,-21.319,103.156
5130,0.5762,-0.1475,-1.1704,22.827,-16.785,19.531,-176.787,-21.204,102.799
5159,0.2012,-0.502,-0.5264,26.245,-39.795,3.723,-176.116,-20.187,102.761
5169,0.3857,-0.5234,-0.8032,-17.761,-7.446,-19.714,-176.369,-20.127,102.975
5180,0.5562,-0.4482,-1.0815,-17.761,-7.446,-19.714,-176.77,-20.226,103.217
5189,0.6641,-0.2856,-1.2974,-17.761,-7.446,-19.714,-177.1,-20.451,103.376
5229,0.3228,-0.1187,-1.1655,33.203,-27.588,17.212,-176.462,-20.056,102.898
5260,0.417,-0.5469,-0.6494,12.573,-6.348,-8.545,-175.814,-19.605,102.964
5269,0.417,-0.5469,-0.6494,12.573,-6.348,-8.545,-175.847,-19.616,103.041
5289,0.4385,-0.4795,-0.5806,-13.916,-7.263,-3.906,-176.325,-19.523,103.09
5309,0.4468,-0.3882,-0.7881,-37.415,29.236,7.324,-177.045,-19.957,102.936
5329,0.4468,-0.3882,-0.7881,-1.282,41.687,14.16,-177.198,-20.737,102.629
5349,0.4468,-0.3882,-0.7881,30.457,14.587,20.447,-176.556,-21.215,102.2
5378,0.1704,-0.4824,-0.5884,46.265,-54.871,7.141,-174.985,-19.764,101.882
5389,0.1646,-0.542,-0.3745,25.818,-26.062,0.305,-174.732,-19.506,101.904
5409,0.4258,-0.4541,-0.6846,25.818,-26.062,0.305,-175.188,-20.001,102.107
5439,0.6431,-0.1592,-1.2017,-24.048,39.429,-6.409,-176.473,-21.544,102.409
5458,0.6431,-0.1592,-1.2017,-24.048,39.429,-6.409,-176.138,-21.934,102.228
5479,0.356,-0.3564,-0.687,32.41,26.611,18.86,-175.309,-22.352,101.816
5488,0.356,-0.3564,-0.687,32.41,26.611,18.86,-175.023,-22.736,101.596
5498,0.356,-0.3564,-0.687,32.41,26.611,18.86,-174.924,-23.214,101.453
5528,0.418,-0.2515,-0.9648,-8.545,7.141,-10.132,-175.325,-24.093,101.552
5538,0.418,-0.2515,-0.9648,2.869,-20.447,-11.658,-175.353,-23.895,101.695
5548,0.4033,-0.4155,-0.9531,2.869,-20.447,-11.658,-175.314,-23.483,101.871
5568,0.4033,-0.4844,-0.9331,17.7,-50.659,-12.268,-175.106,-22.429,102.233
5588,0.4976,-0.5625,-0.8887,4.272,-56.58,-6.958,-175.051,-21.281,102.535
5628,0.3428,-0.3667,-0.9331,-4.395,-25.818,10.01,-175.287,-19.819,102.448
5637,0.2769,-0.3511,-0.8525,0.671,-15.381,9.888,-175.248,-19.655,102.354
5648,0.2769,-0.3511,-0.8525,5.676,-6.897,7.568,-175.166,-19.583,102.283
5658,0.2573,-0.3413,-0.7305,5.676,-6.897,7.568,-175.089,-19.6,102.239
5677,0.3477,-0.3521,-0.8032,4.639,11.841,-0.183,-175.045,-19.896,102.272
5698,0.4336,-0.3579,-0.9238,-4.639,28.992,-12.878,-175.188,-20.424,102.475
5717,0.5669,-0.3232,-1.1587,-4.639,28.992,-12.878,-175.166,-21.165,102.552
5738,0.4858,-0.3267,-0.9331,30.212,53.833,17.7,-174.534,-22.132,102.189
5757,0.3022,-0.3989,-0.6333,37.476,58.105,24.963,-173.557,-23.318,101.519
5767,0.2515,-0.4077,-0.5825,37.476,58.105,24.963,-173.221,-24.049,101.228
5787,0.312,-0.4219,-0.6733,2.869,79.895,6.47,-173.221,-25.681,101.003
5797,0.5161,-0.4067,-0.7954,2.869,79.895,6.47,-173.414,-26.494,101.058
5807,0.5161,-0.4067,-0.7954,-12.634,62.195,-14.648,-173.578,-27.131,101.14
5818,0.5161,-0.4067,-0.7954,-12.634,62.195,-14.648,-173.617,-27.548,101.179
5837,0.604,-0.251,-1.2666,23.132,28.259,11.047,-173.123,-28.087,100.948
5857,0.3687,-0.3794,-0.9043,36.865,27.649,15.137,-171.782,-28.46,100.53
5867,0.3687,-0.3794,-0.9043,36.865,27.649,15.137,-170.629,-28.779,100.333
5907,0.4258,-0.5825,-0.4277,58.777,40.039,11.658,-166.322,-30.317,99.564
5936,0.6694,-0.4497,-1.1001,-16.663,62.256,-11.414,-166.262,-32.036,99.36
5976,0.7446,-0.3066,-1.2993,89.172,74.402,31.372,-163.185,-34.64,97.674
6006,0.3003,-0.6104,-0.2524,89.172,74.402,31.372,-160.609,-36.068,96.619
6016,0.3003,-0.6104,-0.2524,2.136,28.809,-17.639,-160.637,-36.398,96.707
6027,0.7549,-0.5029,-0.5488,2.136,28.809,-17.639,-161.032,-36.519,96.96
6066,0.6709,-0.3984,-0.7749,-17.09,-31.189,20.203,-162.537,-35.305,97.284
6086,0.4976,-0.5361,-0.7231,-10.498,-24.475,18.188,-162.57,-34.662,97.009
6116,0.5366,-0.4136,-0.729,-22.766,-8.362,4.333,-163.158,-34.332,96.938
6126,0.542,-0.3999,-0.5757,-15.015,-5.432,-1.709,-163.328,-34.288,96.976
6136,0.5483,-0.4609,-0.5313,-15.015,-5.432,-1.709,-163.416,-34.255,96.987
6156,0.5786,-0.5142,-0.5684,-6.592,-1.892,9.46,-163.449,-34.173,96.839
6166,0.7065,-0.54,-0.7842,-9.46,-6.958,15.564,-163.455,-34.063,96.68
6176,0.7573,-0.5371,-0.8862,-9.46,-6.958,15.564,-163.455,-33.827,96.482
6216,0.585,-0.4604,-0.6172,22.949,-25.024,58.167,-162.4,-32.272,94.883
6225,0.585,-0.4604,-0.6172,22.949,-25.024,58.167,-161.735,-31.816,94.202
6235,0.4033,-0.5176,-0.502,22.949,-25.024,58.167,-161.087,-31.322,93.461
6246,0.4033,-0.5176,-0.502,22.949,-25.024,58.167,-160.587,-30.811,92.763
6265,0.4033,-0.5176,-0.502,22.949,-25.024,58.167,-160.225,-29.938,91.791
6286,0.4292,-0.3906,-0.7002,-23.865,-20.874,27.588,-160.587,-29.405,91.428
6305,0.5845,-0.3501,-0.7739,-29.724,-43.579,37.231,-161.01,-28.515,91.011
6335,0.3062,-0.394,-0.9097,-2.075,-52.246,31.494,-161.01,-26.548,90.357
6345,0.3062,-0.394,-0.9097,-2.075,-52.246,31.494,-161.032,-26.12,90.363
6375,0.3242,-0.6567,-0.5605,-4.944,-31.128,-3.601,-161.417,-25.197,90.78
6385,0.3242,-0.6567,-0.5605,-23.987,-40.955,-0.488,-161.719,-24.813,90.928
6395,0.2998,-0.5747,-0.6196,-23.987,-40.955,-0.488,-162.136,-24.467,91.066
6415,0.3633,-0.5381,-0.7471,-47.668,-23.01,-5.432,-163.169,-24.011,91.335
6435,0.5156,-0.5264,-1.0464,-24.353,-27.283,1.16,-163.894,-23.533,91.522
6455,0.5547,-0.5386,-1.1997,9.277,-31.494,20.142,-163.674,-22.852,91.395
6465,0.3535,-0.4717,-0.9478,24.902,-36.56,29.907,-163.251,-22.379,91.192
6475,0.3535,-0.4717,-0.9478,30.701,-37.476,30.884,-162.724,-21.89,90.989
6524,0.3252,-0.5444,-0.5459,-23.621,-38.269,2.38,-161.911,-20.099,91.049
6534,0.3252,-0.5444,-0.5459,-52.673,-20.874,0.061,-162.318,-19.968,91.115
6564,0.5205,-0.4072,-1.2856,-16.174,-33.142,39.124,-163.13,-19.116,90.56
6604,0.1294,-0.2964,-1.1221,28.748,-35.278,-1.587,-162.164,-16.891,90.132
6625,0.1294,-0.2964,-1.1221,21.362,-33.508,-32.532,-161.104,-16.348,90.857
6665,0.7583,-0.7402,-1.1221,-62.622,22.827,-8.606,-161.334,-16.76,92.148
6674,0.6992,-0.5591,-1.4102,-62.561,29.846,16.724,-161.884,-16.985,91.884
6703,0.4497,-0.333,-1.499,30.518,-0.671,36.865,-161.757,-16.782,90.72
6714,0.4497,-0.333,-1.499,62.683,-3.601,33.203,-161.038,-16.639,90.401
6724,0.0781,-0.3838,-0.5298,62.683,-3.601,33.203,-160.159,-16.425,90.115
6764,-0.0483,-0.5513,-0.1465,-23.865,-22.339,-21.301,-159.066,-15.244,90.319
6783,0.5186,-0.6392,-0.729,-23.865,-22.339,-21.301,-160.494,-15.93,90.549
6794,0.6152,-0.4131,-1.4033,-23.865,-22.339,-21.301,-161.109,-16.188,90.324
6804,0.6152,-0.4131,-1.4033,-33.875,13.489,38.94,-161.329,-16.194,89.896
6813,0.6152,-0.4131,-1.4033,3.052,-7.324,54.199,-161.153,-15.947,89.385
6853,-0.0796,-0.4619,-0.647,28.809,-22.461,-17.029,-159.521,-14.315,89.171
6863,0.1733,-0.6792,-0.6011,0.183,-7.019,-30.396,-159.598,-14.359,89.495
6884,0.4487,-0.564,-0.8813,-48.279,16.418,-17.578,-160.477,-14.766,89.879
6893,0.4487,-0.564,-0.8813,-48.279,16.418,-17.578,-160.928,-14.81,89.857
6913,0.2471,-0.4346,-0.9873,-4.211,-8.85,13.489,-161.191,-14.568,89.676
6933,0.1597,-0.5508,-0.959,-4.211,-8.85,13.489,-161.016,-14.562,89.615
6943,0.1597,-0.5508,-0.959,-4.211,-8.85,13.489,-161.021,-14.744,89.604
6953,0.1597,-0.5508,-0.959,-7.019,11.047,-2.686,-161.087,-14.859,89.594
6973,0.1597,-0.5508,-0.959,1.831,-17.7,6.958,-161.125,-14.623,89.572
6983,0.0542,-0.3291,-0.8472,1.831,-17.7,6.958,-161.005,-14.387,89.594
7002,0.0542,-0.376,-0.8174,18.311,-3.357,-13.794,-160.67,-14.266,89.802
7013,0.2559,-0.4961,-0.7803,7.568,6.104,-24.902,-160.648,-14.403,90.022
7042,0.3638,-0.5352,-0.7476,-22.4,-9.399,-24.048,-161.307,-14.65,90.84
7053,0.3296,-0.5459,-0.8398,-21.362,-12.817,-18.311,-161.576,-14.584,91.06
7063,0.3296,-0.5459,-0.8398,-21.362,-12.817,-18.311,-161.801,-14.546,91.214
7073,0.3989,-0.4634,-1.0166,-21.362,-12.817,-18.311,-161.938,-14.573,91.269
7082,0.3989,-0.4634,-1.0166,-6.653,7.568,1.343,-161.999,-14.645,91.23
7112,0.1772,-0.3662,-0.8989,-7.263,5.127,6.409,-162.23,-14.453,91.154
7122,0.0879,-0.3936,-0.8589,-9.521,-11.047,-9.766,-162.361,-14.376,91.285
7132,0.1509,-0.4409,-0.8408,-9.521,-11.047,-9.766,-162.504,-14.376,91.483
7172,0.3394,-0.6074,-0.8027,-5.249,-2.93,-10.193,-162.867,-14.458,92.011
7192,0.3115,-0.6606,-0.8999,-5.188,-2.441,8.301,-162.9,-14.315,91.906
7301,0.5254,-0.5801,-1.1714,-6.592,-7.324,-18.066,-163.713,-14.771,92.23
7322,0.5254,-0.5801,-1.1714,17.578,-4.333,20.874,-163.581,-14.733,91.862
7362,-0.0723,-0.458,-0.5366,21.79,-9.644,-26.245,-161.45,-13.337,92.17
7381,-0.0723,-0.458,-0.5366,-33.386,23.987,-41.748,-161.554,-13.986,92.862
7402,0.5747,-0.5264,-1.1045,-39.551,16.846,-11.475,-162.394,-14.777,93.109
7431,0.5747,-0.5264,-1.1045,49.072,-21.484,20.63,-161.829,-14.304,92.703
7471,0.1118,-0.5107,-0.2544,-36.255,-11.292,-49.133,-161.312,-13.733,93.856
7501,0.2974,-0.1641,-1.6294,-36.255,-11.292,-49.133,-163.993,-14.529,94.801
7521,0.019,-0.1372,-1.1938,-36.255,-11.292,-49.133,-163.735,-14.453,95.142
7531,-0.001,-0.3052,-0.8325,81.848,-24.17,-26.245,-162.999,-14.293,95.471
7541,-0.001,-0.3052,-0.8325,81.848,-24.17,-26.245,-162.345,-14.145,96.026
7561,0.1699,-0.6201,-0.478,28.809,-16.663,-85.999,-161.878,-14.183,97.707
7581,0.8096,-1.0347,-1.0698,28.809,-16.663,-85.999,-162.631,-14.859,99.113
7600,0.8525,-0.7832,-1.2285,-42.969,27.771,-33.264,-163.345,-15.386,99.305
7621,0.623,-0.5063,-1.0176,35.522,10.681,54.749,-162.636,-15.353,98.399
7630,0.623,-0.5063,-1.0176,36.133,-6.836,59.631,-162.125,-15.112,97.828
7680,0.4609,-0.4224,-0.9678,-18.494,13.428,-27.649,-162.933,-15.76,98.465
7691,0.5542,-0.4351,-1.1221,-18.494,13.428,-27.649,-163.306,-16.007,98.784
7710,0.459,-0.4438,-1.3677,-18.494,13.428,-27.649,-163.619,-16.078,98.893
7730,0.1826,-0.334,-1.0215,21.851,4.7,14.099,-163.262,-16.095,98.591
7741,0.127,-0.4121,-0.6914,34.302,-1.099,5.676,-162.905,-16.073,98.536
7790,0.2407,-0.5308,-0.2886,-62.927,-7.08,-18.799,-163.696,-15.568,99.432
7800,0.4492,-0.458,-1.2891,-62.927,-7.08,-18.799,-164.41,-15.732,99.58
7860,0.2842,-0.2393,-1.0996,31.738,11.292,9.827,-163.812,-16.276,99.327
7880,0.0596,-0.4375,-0.3013,1.77,-18.25,-23.682,-163.63,-15.919,99.789
7899,0.0596,-0.4375,-0.3013,-43.884,5.432,-32.654,-164.498,-16.089,100.448
7920,0.6333,-0.4829,-1.3916,-46.448,15.686,-2.441,-165.531,-16.43,100.618
7929,0.5503,-0.3501,-1.5303,-46.448,15.686,-2.441,-165.762,-16.562,100.382
7990,0.0581,-0.3237,-0.5806,19.531,-21.362,-12.573,-164.993,-16.106,99.948
8009,0.3877,-0.4224,-0.9883,-41.687,12.817,-12.146,-165.751,-16.271,100.228
8039,0.3696,-0.3125,-1.0059,-21.118,10.132,0.61,-166.328,-16.545,100.173
8049,0.3696,-0.3125,-1.0059,-21.118,10.132,0.61,-166.174,-16.463,100.168
8059,0.332,-0.498,-0.9849,-21.118,10.132,0.61,-165.998,-16.359,100.173
8119,0.3721,-0.457,-0.6123,-4.822,17.334,-7.324,-165.899,-16.935,100.327
8148,0.3662,-0.4585,-0.7212,-1.465,-9.277,-4.761,-166.047,-16.815,100.536
8159,0.3662,-0.4585,-0.7212,-1.465,-9.277,-4.761,-166.421,-16.93,100.58
8169,0.3662,-0.4585,-0.7212,-1.465,-9.277,-4.761,-166.849,-17.1,100.712
8188,0.3486,-0.3936,-1.0605,-19.409,13.855,-19.592,-167.487,-17.485,101.069
8198,0.3486,-0.3936,-1.0605,-19.409,13.855,-19.592,-167.574,-17.545,101.168
8209,0.3486,-0.3936,-1.0605,5.371,-5.554,-3.54,-167.536,-17.496,101.217
8218,0.3486,-0.3936,-1.0605,5.371,-5.554,-3.54,-167.393,-17.441,101.283
8228,0.3486,-0.3936,-1.0605,22.644,-4.028,-16.296,-167.217,-17.435,101.459
8249,0.4004,-0.4956,-0.6694,17.09,6.531,-33.325,-166.998,-17.672,102.074
8338,0.354,-0.4502,-0.4902,34.668,8.179,-7.568,-166.443,-17.721,102.475
8348,0.3267,-0.4888,-0.4038,34.668,8.179,-7.568,-166.289,-17.501,102.629
8358,0.3267,-0.4888,-0.4038,-6.775,-36.987,-8.362,-166.41,-17.161,102.81
8388,0.4565,-0.3281,-1.3101,-55.969,-13.855,-24.475,-168.008,-16.985,103.563
8407,0.5806,-0.3179,-1.4092,-15.808,24.109,-20.935,-168.102,-17.457,103.793
8418,0.5806,-0.3179,-1.4092,34.851,5.615,3.174,-167.745,-17.507,103.749
8447,0.0845,-0.4395,-0.7378,11.292,-13.184,12.573,-166.833,-16.924,103.403
8468,0.1045,-0.3931,-0.7852,-4.761,2.686,0.671,-167.042,-17.133,103.475
8508,0.4941,-0.394,-0.9487,11.902,-6.104,8.667,-167.206,-17.556,103.645
8517,0.4941,-0.394,-0.9487,12.878,-8.179,15.686,-167.036,-17.446,103.508
8527,0.4941,-0.394,-0.9487,7.019,-12.146,11.475,-166.937,-17.298,103.42
8537,0.1758,-0.3306,-0.9238,7.019,-12.146,11.475,-166.91,-17.238,103.425
8548,0.2847,-0.3257,-0.896,3.113,6.47,-11.475,-166.91,-17.325,103.53
8557,0.2847,-0.3257,-0.896,5.615,11.047,-17.822,-166.899,-17.474,103.683
8567,0.2847,-0.3257,-0.896,5.188,4.639,-14.648,-166.888,-17.551,103.821
8597,0.3745,-0.4355,-0.7397,-26.794,-19.348,15.991,-167.289,-17.122,103.689
8626,0.1646,-0.2246,-1.1733,-26.794,-19.348,15.991,-168.041,-17.095,103.777
8637,0.4609,-0.2935,-1.2495,-26.794,-19.348,15.991,-168.036,-17.364,103.931
8647,0.5176,-0.3604,-1.1406,-26.794,-19.348,15.991,-167.871,-17.584,104.041
8657,0.4302,-0.3999,-0.9175,27.649,5.615,-2.747,-167.602,-17.644,104.057
8677,0.4302,-0.3999,-0.9175,26.123,-16.907,12.329,-166.992,-17.336,103.909
8687,0.1724,-0.437,-0.4775,26.123,-16.907,12.329,-166.882,-17.166,103.881
8706,0.3516,-0.3994,-0.6699,26.123,-16.907,12.329,-167.322,-17.029,104.139
8727,0.5254,-0.3652,-0.9678,26.123,-16.907,12.329,-168.168,-17.133,104.502
8737,0.5107,-0.3975,-1.106,-32.898,-5.737,-8.85,-168.525,-17.095,104.601
8746,0.5107,-0.3975,-1.106,-26.672,-6.897,-2.075,-168.799,-17.029,104.639
8757,0.3516,-0.3184,-1.2979,-26.672,-6.897,-2.075,-168.964,-16.996,104.623
8776,0.333,-0.2783,-1.2715,-26.672,-6.897,-2.075,-168.81,-17.122,104.524
8786,0.333,-0.2783,-1.2715,21.423,10.681,1.953,-168.585,-17.227,104.48
8816,0.2393,-0.3379,-0.6987,16.479,5.066,-1.587,-168.124,-17.364,104.513
8836,0.3213,-0.4507,-0.6372,16.479,5.066,-1.587,-168.322,-17.353,104.716
8856,0.417,-0.4961,-0.7915,16.479,5.066,-1.587,-168.832,-17.342,104.875
8866,0.5347,-0.3901,-1.1807,16.479,5.066,-1.587,-169.085,-17.397,104.826
8886,0.4756,-0.3159,-1.2988,-3.113,5.859,22.095,-169.178,-17.468,104.42
8896,0.2539,-0.2036,-1.2378,14.038,5.981,23.193,-168.981,-17.424,104.172
8916,0.2603,-0.2051,-0.855,36.926,11.047,9.216,-168.234,-17.49,103.848
8956,0.3184,-0.3516,-0.5532,-8.057,-15.503,4.517,-166.943,-17.776,103.7
8976,0.2666,-0.4336,-0.7954,-8.057,-15.503,4.517,-167.184,-17.43,103.859
9005,0.5581,-0.4404,-1.1685,-32.349,5.066,-13.123,-167.959,-17.77,104.139
9016,0.4834,-0.3779,-1.2148,-32.349,5.066,-13.123,-168.008,-17.787,104.046
9026,0.3345,-0.3403,-1.1206,-32.349,5.066,-13.123,-167.943,-17.633,103.914
9045,0.2021,-0.332,-0.9585,15.198,-5.249,9.583,-167.459,-17.276,103.7
9066,0.2021,-0.332,-0.9585,2.441,5.005,-4.944,-166.992,-17.364,103.716
9085,0.3467,-0.3633,-0.7725,-19.104,-0.61,-8.301,-167.053,-17.512,103.87
9106,0.3369,-0.3584,-0.9575,-20.996,-3.479,-7.202,-167.344,-17.507,104.052
9115,0.3369,-0.3584,-0.9575,-20.996,-3.479,-7.202,-167.503,-17.523,104.101
9135,0.3823,-0.2725,-1.1025,-20.996,-3.479,-7.202,-167.679,-17.65,104.15
9185,0.2236,-0.2388,-0.9175,-3.479,1.16,-2.441,-167.767,-17.732,104.249
9195,0.2056,-0.3125,-0.7378,-4.7,-4.272,-13.367,-167.75,-17.682,104.392
9215,0.3003,-0.376,-0.731,-17.883,0.732,-21.912,-167.849,-17.831,104.826
9236,0.5444,-0.3931,-1.0088,-17.883,0.732,-21.912,-168.162,-18.111,105.106
9264,0.397,-0.3276,-1.1597,9.216,-4.089,14.099,-168.096,-17.941,104.848
9304,0.3687,-0.2637,-1.0718,28.687,20.325,-1.77,-166.976,-18.314,104.645
9325,0.3687,-0.2637,-1.0718,23.499,8.423,7.69,-166.24,-18.644,104.48
9344,0.2202,-0.3696,-0.5601,23.499,8.423,7.69,-165.377,-18.375,104.365
9365,0.2622,-0.3809,-0.6196,-10.803,-20.508,-15.137,-165.19,-18.007,104.661
9374,0.2622,-0.3809,-0.6196,-10.803,-20.508,-15.137,-165.454,-18.083,104.892
9384,0.5522,-0.3789,-1.1064,-41.87,7.751,-17.761,-165.877,-18.276,105.051
9394,0.5522,-0.3789,-1.1064,-41.87,7.751,-17.761,-166.251,-18.413,105.095
9414,0.4668,-0.249,-1.4111,-0.732,3.784,10.437,-166.498,-18.452,104.908
9454,0.3032,-0.3081,-0.9492,39.124,17.517,1.099,-164.861,-18.864,104.474
9474,0.2974,-0.3438,-0.6382,14.954,-2.747,-5.066,-164.141,-19.067,104.518
9524,0.4395,-0.3267,-0.9995,-16.602,7.08,2.38,-164.301,-19.017,104.793
9544,0.4673,-0.2422,-1.3218,3.967,11.536,7.141,-164.372,-19.199,104.59
9594,0.2593,-0.3623,-0.7378,31.677,6.165,1.892,-162.729,-19.33,104.365
9614,0.4854,-0.4243,-0.9585,31.677,6.165,1.892,-162.4,-19.863,104.496
9624,0.4854,-0.4243,-0.9585,-1.648,37.17,-13.55,-162.394,-20.286,104.513
9633,0.4854,-0.4243,-0.9585,-1.343,31.616,-7.751,-162.449,-20.572,104.491
9654,0.1733,-0.3032,-1.1035,14.893,25.33,-5.127,-161.884,-20.995,104.414
9664,0.3379,-0.4399,-1.0176,76.904,61.89,-17.578,-161.06,-21.588,104.387
9694,0.7402,-0.6406,-0.5005,85.327,87.036,-26.855,-157.95,-24.489,104.178
9713,0.3789,-0.6289,-0.0688,14.465,8.789,9.521,-156.105,-25.164,103.843
9723,0.2065,-0.4487,-0.0962,14.465,8.789,9.521,-156.352,-25.021,103.848
9733,0.2065,-0.4487,-0.0962,14.465,8.789,9.521,-157.044,-24.906,103.986
9743,0.2065,-0.4487,-0.0962,14.465,8.789,9.521,-158.033,-24.939,104.255
9763,0.5132,-0.1343,-0.9399,-79.651,36.926,-24.963,-159.922,-25.697,104.606
9783,0.646,-0.0391,-1.4448,-9.033,-6.409,-11.108,-160.615,-25.867,104.859
9803,0.646,-0.0391,-1.4448,55.603,-17.944,-1.099,-159.818,-25.62,105.04
9812,0.646,-0.0391,-1.4448,55.603,-17.944,-1.099,-159.346,-25.367,105.139
9823,0.646,-0.0391,-1.4448,55.603,-17.944,-1.099,-159.071,-25.093,105.282
9852,0.3521,-0.4355,-0.6245,-10.193,-8.057,-8.85,-159.478,-24.868,105.672
9862,0.3521,-0.4355,-0.6245,-10.193,-8.057,-8.85,-159.791,-24.774,105.787
9892,0.3979,-0.291,-0.8433,-18.738,-37.292,4.211,-160.488,-23.912,106.029
9922,0.3242,-0.2163,-1.1177,-2.93,14.221,-25.635,-160.944,-23.917,106.545
9932,0.5703,-0.3569,-1.147,4.944,18.555,-27.222,-160.983,-24.181,106.765
9953,0.5742,-0.3149,-1.0815,22.156,6.287,-8.545,-160.735,-24.494,106.974
9962,0.4297,-0.3516,-0.9517,22.156,6.287,-8.545,-160.4,-24.494,106.974
9972,0.4297,-0.3516,-0.9517,36.255,7.141,1.892,-160.016,-24.554,106.93
10002,0.3613,-0.3599,-0.7632,27.039,20.203,-30.884,-159.291,-25.258,107.281
10022,0.7104,-0.6602,-0.6616,27.039,20.203,-30.884,-159.005,-25.961,107.803
10042,0.7783,-0.6597,-0.6782,17.273,27.527,-20.996,-158.791,-26.532,107.891
10062,0.6934,-0.5215,-0.8047,1.648,10.681,15.442,-158.604,-26.691,107.562
10082,0.4961,-0.3843,-0.9521,-3.174,15.869,16.479,-158.412,-26.84,107.078
10111,0.5107,-0.3599,-0.9854,1.465,19.287,10.559,-158.066,-27.307,106.436
10122,0.5107,-0.3599,-0.9854,1.465,19.287,10.559,-157.797,-27.554,106.089
10132,0.4873,-0.3081,-0.9878,1.465,19.287,10.559,-157.478,-27.74,105.71
10151,0.4521,-0.312,-1.0264,17.883,33.02,27.283,-156.682,-28.229,104.821
10172,0.4131,-0.2842,-0.8716,26.001,48.706,23.987,-155.605,-28.9,103.92
10212,0.4702,-0.481,-0.4287,28.809,6.47,21.851,-153.221,-29.344,102.722
10232,0.4111,-0.5078,-0.3101,-16.113,-4.822,24.292,-153.083,-29.081,102.244
10301,0.6216,-0.4434,-1.3071,-6.104,14.099,44.678,-153.869,-28.158,99.838
10311,0.6216,-0.4434,-1.3071,26.733,24.109,50.537,-153.358,-28.103,99.207
10341,0.4214,-0.5283,-0.6113,55.542,2.869,51.27,-150.897,-27.653,97.493
10351,0.4126,-0.5601,-0.4951,45.166,7.996,51.27,-150.002,-27.488,96.943
10361,0.4355,-0.5562,-0.4663,45.166,7.996,51.27,-149.227,-27.394,96.361
10381,0.4629,-0.582,-0.4692,-6.897,26.062,48.828,-148.293,-27.361,95.18
10391,0.501,-0.478,-0.5103,-6.897,26.062,48.828,-148.068,-27.367,94.537
10401,0.501,-0.478,-0.5103,-21.973,9.216,57.068,-147.947,-27.197,93.939
10450,0.3164,-0.3408,-1.0073,-35.4,-15.808,46.997,-148.618,-25.4,91.324
10471,0.1445,-0.251,-1.0249,1.16,-7.141,5.432,-149.063,-24.725,91.159
10490,0.3164,-0.3882,-0.6875,1.16,-7.141,5.432,-148.727,-24.725,91.351
10511,0.3398,-0.4868,-0.5337,40.649,-9.705,-14.282,-147.86,-24.675,91.818
10551,0.5889,-0.6069,-0.8218,-45.105,10.437,-27.283,-148.744,-25.197,93.104
10560,0.5889,-0.6069,-0.8218,-31.982,17.029,-15.564,-149.084,-25.422,93.153
10580,0.7334,-0.4077,-1.29,20.752,4.15,10.742,-148.859,-25.571,92.939
10620,-0.0146,-0.4678,-0.1289,60.486,-47.729,-16.663,-146.624,-24.467,93.45
10629,0.1113,-0.5581,-0.0366,33.447,-37.109,-43.213,-146.547,-24.395,94.07
10669,0.814,-0.7021,-0.7612,-87.891,21.973,-35.583,-149.535,-25.626,96.235
10690,0.8291,-0.4331,-1.5791,-43.457,1.953,6.348,-150.71,-25.752,96.18
10709,0.5894,-0.1602,-1.6577,61.707,-0.488,4.028,-149.969,-25.692,96.064
10730,0.1758,-0.4243,-0.1982,101.013,-18.188,-0.427,-148.013,-25.203,96.487
10759,0.0952,-0.5566,0.083,-33.569,-53.589,-56.885,-148.008,-24.291,98.564
10779,0.3579,-0.5728,-0.2744,-86.548,-24.17,-76.66,-150.65,-25.049,100.091
10789,0.3579,-0.5728,-0.2744,-86.548,-24.17,-76.66,-151.974,-25.642,100.53
10819,0.6128,-0.3345,-1.4429,-81.482,14.526,-31.921,-153.314,-25.73,100.898
10829,0.374,-0.3516,-1.1201,39.246,-15.869,2.38,-152.946,-25.576,100.953
10839,0.374,-0.3516,-1.1201,52.063,-25.33,-9.46,-152.518,-25.395,101.173
10849,0.2456,-0.5591,-0.5518,52.063,-25.33,-9.46,-152.183,-25.23,101.574
10879,0.5054,-0.6157,-0.5244,-23.071,-5.859,-40.649,-152.606,-25.428,102.931
10899,0.5054,-0.6157,-0.5244,-35.889,9.827,-22.522,-153.545,-25.818,103.403
10928,0.4917,-0.3359,-1.0654,-2.686,-1.282,-13.916,-154.133,-26.016,103.782
10949,0.3857,-0.2764,-0.9424,4.272,1.282,-20.508,-154.199,-26.279,104.249
10968,0.3579,-0.2725,-0.8721,18.799,7.446,-41.687,-154.193,-26.746,104.974
10979,0.145,-0.0396,-0.7314,18.799,7.446,-41.687,-154.177,-26.982,105.441
10989,0.082,0.02,-0.6523,18.799,7.446,-41.687,178.242,-27.202,106.128
10998,0.082,0.02,-0.6523,29.297,-14.282,-89.966,-176.023,-27.032,107.133
11008,0.082,0.02,-0.6523,29.297,-14.282,-89.966,-176.32,-27.004,108.468
11029,1.0913,-0.9209,-0.4888,3.418,-2.014,-130.554,-177.429,-27.103,111.473
11048,1.0913,-0.9209,-0.4888,-44.739,-5.798,-48.035,-178.841,-27.158,113.082
11078,1.0107,-0.665,-1.3447,-52.49,-23.01,-2.563,-179.583,-26.675,111.956
11128,0.1226,-0.1724,-0.5171,8.301,-0.061,10.071,-175.594,-26.422,109.973
11138,0.1226,-0.1724,-0.5171,2.075,0.183,-38.757,-175.765,-26.455,110.407
11148,0.1226,-0.1724,-0.5171,2.075,0.183,-38.757,-176.078,-26.488,110.874
11158,0.1226,-0.1724,-0.5171,-12.878,3.479,-26.428,-176.342,-26.543,111.165
11168,0.8062,-0.5176,-0.9844,-12.878,3.479,-26.428,-176.462,-26.488,111.215
11188,0.7891,-0.5361,-1.0996,13.428,-13.855,32.043,-176.094,-26.125,110.698
11208,0.5923,-0.394,-1.043,20.935,-1.465,43.701,-175.287,-26.049,109.742
11228,0.2065,-0.2598,-0.5449,20.935,-1.465,43.701,-174.622,-25.615,109.094
11248,0.4175,-0.3848,-0.6167,-9.888,-9.033,-4.517,-174.683,-25.356,109.089
11257,0.4175,-0.3848,-0.6167,-9.888,-9.033,-4.517,-174.974,-25.296,109.182
11267,0.4175,-0.3848,-0.6167,-34.119,-13.794,-8.667,-175.364,-25.164,109.292
11278,0.4175,-0.3848,-0.6167,-28.32,-20.142,-13.733,-175.721,-24.972,109.462
11297,0.5898,-0.4595,-0.853,6.958,-10.437,-36.499,-176.072,-24.708,110.171
11307,0.5898,-0.4595,-0.853,6.958,-10.437,-36.499,-176.078,-24.769,110.55
11318,0.5898,-0.4595,-0.853,6.958,-10.437,-36.499,-176.138,-24.785,110.792
11337,0.707,-0.5601,-0.917,-36.072,-22.278,10.437,-176.633,-24.417,110.737
11377,0.5742,-0.4766,-0.938,-14.343,-5.127,4.944,-176.572,-24.532,110.495
11397,0.4429,-0.5278,-0.6167,-14.343,-5.127,4.944,-175.825,-24.648,110.099
11407,0.4429,-0.5278,-0.6167,2.93,-16.846,20.325,-175.71,-24.461,109.891
11427,0.293,-0.3428,-0.8687,-20.142,-18.677,12.146,-176.177,-24.192,109.77
11447,0.5942,-0.2852,-1.4248,-20.142,-18.677,12.146,-176.649,-24.708,109.819
11516,0.2378,-0.4004,-0.395,20.813,-29.968,8.24,-173.65,-24.521,108.402
11537,0.8691,-0.5991,-0.9443,-31.128,-3.784,-24.231,-174.54,-24.62,108.88
11556,0.9097,-0.5151,-1.1069,-0.977,-0.122,30.396,-174.595,-24.774,108.495
11586,0.1479,-0.2451,-0.9023,30.396,-23.376,41.26,-173.243,-23.758,106.99
11596,0.2114,-0.3062,-0.8384,30.396,-23.376,41.26,-172.919,-23.741,106.793
11617,0.3726,-0.4526,-0.8247,18.799,19.897,-10.376,-172.573,-24.077,106.886
11636,0.3726,-0.4526,-0.8247,15.076,24.963,19.531,-172.145,-24.609,106.606
11686,0.2041,-0.3882,-0.832,-3.235,-1.465,16.235,-170.25,-23.538,104.222
11706,0.7007,-0.6123,-1.1167,-4.944,30.273,-12.207,-170.475,-24.06,104.332
11726,0.7993,-0.7256,-1.083,18.127,35.4,2.258,-169.739,-24.609,103.898
11735,0.7993,-0.7256,-1.083,48.828,5.493,55.908,-168.997,-24.565,103.282
11746,0.7993,-0.7256,-1.083,48.828,5.493,55.908,-168.212,-24.285,102.491
11756,0.7993,-0.7256,-1.083,48.828,5.493,55.908,-167.673,-23.912,101.711
11775,-0.1147,0.0166,-0.6519,-20.813,-0.244,3.845,179.006,-23.637,101.168
11836,0.8428,-0.6782,-0.7251,-9.583,-31.433,15.32,-165.767,-24.439,103.2
11895,0.6865,-0.7031,-1.4214,-2.502,18.616,-36.926,-167.036,-24.681,104.612
11905,0.584,-0.4224,-1.2358,-2.502,18.616,-36.926,-166.86,-24.879,104.464
11945,0.0337,-0.3052,-0.3062,10.925,-20.935,-22.888,-165.652,-24.494,104.211
11965,0.5698,-0.5767,-0.4668,-25.391,-10.071,-57.983,-166.465,-24.439,105.425
11985,0.7314,-0.6665,-0.7031,-45.166,-4.089,-31.006,-167.706,-24.62,106.282
11994,0.7314,-0.6665,-0.7031,-45.166,-4.089,-31.006,-168.135,-24.478,106.436
12005,0.7314,-0.6665,-0.7031,-45.166,-4.089,-31.006,-168.365,-24.318,106.375
12034,0.7314,-0.6665,-0.7031,1.038,-1.16,19.592,-168.234,-24.027,105.71
12074,0.2563,-0.375,-0.5625,18.677,-0.549,-36.011,-167.926,-24.565,106.315
12144,0.5762,-0.4175,-1.4482,-53.833,0.183,23.987,-170.722,-23.577,106.793
12154,0.4497,-0.2808,-1.5894,-53.833,0.183,23.987,-170.552,-23.791,106.496
12164,0.4497,-0.2808,-1.5894,-53.833,0.183,23.987,-170.107,-24.082,106.249
12184,0.1914,-0.3584,-0.543,52.795,22.949,15.015,-168.893,-24.263,105.903
12194,0.1118,-0.3623,-0.3125,35.034,-12.695,6.104,-168.525,-24.126,105.864
12204,0.1235,-0.3604,-0.2686,35.034,-12.695,6.104,-168.525,-24.016,105.963
12225,0.4175,-0.4331,-0.5396,35.034,-12.695,6.104,-169.305,-24.011,106.545
12244,0.4175,-0.4331,-0.5396,-30.09,5.066,-24.475,-170.195,-24.219,107.122
12254,0.4175,-0.4331,-0.5396,-30.09,5.066,-24.475,-170.502,-24.17,107.276
12264,0.4175,-0.4331,-0.5396,-30.09,5.066,-24.475,-170.788,-23.989,107.314
12293,0.3335,-0.4082,-0.793,-30.09,5.066,-24.475,-171.903,-23.253,107.144
12314,0.4902,-0.3413,-1.103,-53.528,-14.587,-5.066,-173.029,-23.126,107.336
12354,0.437,-0.1987,-1.3149,29.907,22.4,17.7,-173.128,-23.939,106.952
12373,0.437,-0.1987,-1.3149,58.35,2.258,9.949,-171.936,-24.082,106.628
12423,0.6001,-0.4888,-0.5078,-28.198,-13.733,-11.23,-172.024,-23.703,107.177
12443,0.623,-0.4048,-0.8315,-52.307,-14.404,10.315,-173.112,-23.357,107.089
12463,0.4316,-0.2593,-1.4395,-4.883,-1.709,15.503,-173.337,-23.187,106.771
12473,0.4316,-0.2593,-1.4395,-4.883,-1.709,15.503,-173.106,-23.286,106.633
12483,0.4316,-0.2593,-1.4395,-4.883,-1.709,15.503,-172.727,-23.456,106.54
12503,0.3975,-0.374,-0.8735,37.17,-2.869,3.784,-171.914,-23.527,106.447
12513,0.3975,-0.374,-0.8735,37.17,-2.869,3.784,-171.683,-23.456,106.419
12523,0.3975,-0.374,-0.8735,22.156,-7.019,3.54,-171.447,-23.379,106.392
12553,0.2896,-0.4302,-0.5454,-16.785,-9.094,-8.118,-171.964,-23.22,106.683
12563,0.2896,-0.4302,-0.5454,-16.785,-9.094,-8.118,-172.227,-23.368,106.859
12573,0.6147,-0.4375,-1.0293,-16.785,-9.094,-8.118,-172.321,-23.599,106.963
12592,0.6567,-0.4648,-1.0142,-16.785,-9.094,-8.118,-171.985,-23.758,106.924
12603,0.4839,-0.4609,-0.8325,21.301,-4.517,11.536,-171.727,-23.698,106.809
12613,0.4839,-0.4609,-0.8325,18.127,-10.376,10.986,-171.502,-23.582,106.705
12632,0.4839,-0.4609,-0.8325,3.967,7.385,2.441,-171.304,-23.593,106.6
12643,0.4839,-0.4609,-0.8325,-3.967,13.062,-1.587,-171.337,-23.725,106.595
12653,0.459,-0.3994,-0.8545,-10.986,10.071,-3.54,-171.458,-23.829,106.617
12662,0.459,-0.3994,-0.8545,-12.268,4.639,-2.014,-171.584,-23.879,106.633
12672,0.4927,-0.3828,-0.9204,-4.089,2.014,1.77,-171.617,-23.895,106.611
12702,0.4497,-0.4321,-0.939,19.226,2.625,11.108,-170.975,-23.939,106.243
12722,0.3672,-0.4409,-0.9966,7.08,10.193,13.489,-170.612,-24.077,105.892
12742,0.3672,-0.4409,-0.9966,7.08,10.193,13.489,-170.392,-24.395,105.617
12762,0.4492,-0.418,-0.7476,26.978,16.296,11.78,-169.827,-24.714,105.32
12782,0.4492,-0.418,-0.7476,26.001,7.813,17.639,-169.113,-24.84,104.936
12802,0.5425,-0.4556,-0.8682,18.616,2.502,24.292,-168.53,-24.785,104.447
12812,0.5425,-0.4556,-0.8682,18.616,2.502,24.292,-168.184,-24.884,104.079
12822,0.5044,-0.3823,-0.9062,18.616,2.502,24.292,-167.761,-24.955,103.667
12832,0.5044,-0.3823,-0.9062,37.17,8.179,36.743,-167.212,-24.955,103.255
12852,0.3706,-0.4487,-0.6367,40.039,-4.517,29.358,-165.58,-24.813,102.563
12862,0.2461,-0.4087,-0.3667,23.865,-15.869,22.095,-164.927,-24.598,102.371
12872,0.2461,-0.4087,-0.3667,0.793,-29.724,9.338,-164.91,-24.291,102.36
12912,0.6255,-0.585,-0.9258,-67.81,-23.926,-36.804,-167.542,-23.472,103.865
12921,0.6255,-0.585,-0.9258,-67.81,-23.926,-36.804,-168.305,-23.34,104.156
12931,0.7354,-0.5156,-1.606,-52.551,-0.366,-0.488,-168.832,-23.335,104.161
12942,0.7354,-0.5156,-1.606,-33.936,18.86,20.752,-169.069,-23.478,103.898
12971,0.2349,-0.2544,-1.0029,-33.936,18.86,20.752,-168.074,-24.368,102.706
12991,0.1675,-0.3462,-0.5571,67.932,12.756,11.902,-166.63,-24.417,102.563
13001,0.1675,-0.3462,-0.5571,47.607,-18.982,-9.216,-166.218,-24.252,102.711
13022,0.375,-0.4482,-0.2329,-28.992,-15.076,-20.447,-166.597,-23.961,103.2
13041,0.375,-0.4482,-0.2329,-57.373,7.874,-15.747,-167.844,-24.12,103.563
13071,0.5747,-0.5269,-1.2695,-22.461,-2.991,8.484,-168.986,-24.055,103.574
13091,0.4531,-0.2705,-1.2324,-3.174,16.479,16.602,-168.975,-24.252,103.178
13111,0.2295,-0.3506,-0.6245,17.517,0.916,4.7,-168.635,-24.351,102.958
13131,0.2847,-0.5054,-0.4453,17.09,-18.555,-16.357,-168.365,-24.109,103.266
13140,0.2847,-0.5054,-0.4453,17.09,-18.555,-16.357,-168.464,-23.967,103.541
13151,0.2847,-0.5054,-0.4453,-19.226,-7.446,-22.522,-168.761,-23.939,103.799
13171,0.6831,-0.4658,-1.0835,-23.743,22.583,-3.723,-169.382,-24.313,103.953
13180,0.6831,-0.4658,-1.0835,-23.743,22.583,-3.723,-169.464,-24.461,103.815
13190,0.6831,-0.4658,-1.0835,-23.743,22.583,-3.723,-169.387,-24.472,103.618
13201,0.373,-0.3418,-0.9229,-23.743,22.583,-3.723,-169.146,-24.406,103.442
13241,0.3022,-0.396,-0.6558,-4.272,3.174,-12.878,-168.64,-24.236,103.519
13260,0.5679,-0.4868,-0.9155,-12.634,23.743,-9.705,-169.008,-24.642,103.722
13290,0.6411,-0.3984,-1.3389,22.888,29.358,25.208,-167.882,-25.329,102.799
13300,0.3906,-0.457,-0.8413,22.888,29.358,25.208,-166.959,-25.428,102.338
13310,0.3271,-0.4663,-0.5132,22.888,29.358,25.208,-165.981,-25.516,101.887
13350,0.1313,-0.3789,-0.1289,40.1,-18.555,27.771,-164.844,-24.626,101.261
13390,0.6738,-0.5005,-1.2686,-55.481,-1.709,-25.696,-167.613,-24.802,102.415
13439,0.4087,-0.4009,-1.1748,18.311,2.625,11.78,-167.514,-24.966,102.151
13450,0.4087,-0.4009,-1.1748,33.63,-4.089,5.188,-167.157,-24.911,102.107
13479,0.3125,-0.4077,-0.4238,1.099,-9.644,-23.437,-166.893,-24.741,102.601
13500,0.4224,-0.4448,-0.459,-21.118,-9.644,-29.053,-167.514,-24.697,103.266
13519,0.6914,-0.623,-0.9331,-28.931,-8.911,-10.376,-168.228,-24.587,103.667
13540,0.5459,-0.5073,-1.1826,-24.658,-13.0,15.015,-168.695,-24.302,103.519
13549,0.5459,-0.5073,-1.1826,-19.592,-4.089,20.508,-168.805,-24.219,103.304
13559,0.5459,-0.5073,-1.1826,-10.986,3.967,19.287,-168.821,-24.219,103.09
13589,0.2773,-0.3232,-0.8145,-10.986,3.967,19.287,-168.464,-24.307,103.002
13609,0.3613,-0.4302,-0.6235,8.423,-7.019,-14.343,-168.333,-24.274,103.304
13629,0.4487,-0.5049,-0.5952,-14.832,-5.92,-12.085,-168.646,-24.192,103.618
13649,0.4663,-0.5156,-0.647,-27.71,-12.939,-7.019,-169.244,-24.016,103.837
13669,0.5796,-0.5225,-0.9634,-28.564,-4.028,3.235,-169.838,-23.873,103.87
13719,0.4526,-0.3457,-1.1973,33.203,15.991,20.874,-169.332,-24.236,102.684
13738,0.4526,-0.3457,-1.1973,33.203,15.991,20.874,-168.437,-24.324,102.338
13759,0.2832,-0.3833,-0.5815,6.348,3.906,-2.014,-168.14,-24.368,102.288
13778,0.3535,-0.3848,-0.5996,-10.315,7.141,-13.489,-168.371,-24.549,102.497
13799,0.4937,-0.4688,-0.7109,-11.536,-5.31,-13.245,-168.739,-24.565,102.816
13808,0.4937,-0.4688,-0.7109,-11.536,-5.31,-13.245,-168.909,-24.51,102.903
13818,0.4937,-0.4688,-0.7109,-14.038,-6.653,0.366,-169.052,-24.445,102.914
13828,0.4395,-0.3784,-0.9976,-14.038,-6.653,0.366,-169.146,-24.39,102.876
13848,0.293,-0.3467,-0.939,-1.648,1.16,-1.404,-169.217,-24.39,102.849
13868,0.3003,-0.3491,-0.9233,8.789,6.287,-16.235,-169.184,-24.532,103.107
13908,0.5146,-0.5117,-0.7358,13.855,11.536,-18.921,-168.717,-25.12,103.815
13948,0.3735,-0.4395,-0.6592,-13.184,-7.385,0.244,-167.816,-25.06,103.914
13957,0.3735,-0.4395,-0.6592,-13.184,-7.385,0.244,-167.888,-25.021,103.98
13968,0.4121,-0.3594,-0.8154,-23.071,0.488,-11.597,-168.052,-25.049,104.106
13988,0.4814,-0.3706,-0.8081,-10.315,-8.972,-17.09,-168.267,-25.054,104.48
13997,0.4814,-0.3706,-0.8081,-5.859,-11.475,-16.479,-168.245,-25.016,104.683
14008,0.4814,-0.3706,-0.8081,-5.859,-11.475,-16.479,-168.212,-25.005,104.854
14018,0.5498,-0.4639,-0.9038,-5.859,-11.475,-16.479,-168.223,-24.977,104.963
14037,0.5239,-0.4214,-0.9785,-16.479,-4.456,-1.282,-168.382,-24.851,105.057
14048,0.4839,-0.397,-1.0347,-7.629,0.427,-0.305,-168.365,-24.846,105.057
14058,0.4839,-0.397,-1.0347,5.554,7.08,1.77,-168.179,-24.911,105.024
14117,0.498,-0.4116,-0.8789,34.424,-3.784,34.607,-165.075,-25.323,103.167
14127,0.498,-0.4116,-0.8789,21.606,-7.813,23.376,-164.762,-25.186,102.936
14167,0.5557,-0.4556,-0.7363,-36.194,-14.832,-35.889,-165.905,-24.769,103.843
14177,0.5557,-0.4556,-0.7363,-36.194,-14.832,-35.889,-166.366,-24.736,104.2
14187,0.7944,-0.6289,-1.2178,-22.156,-11.597,-15.198,-166.668,-24.659,104.392
14237,0.2793,-0.3589,-0.9961,52.979,28.87,55.176,-164.751,-25.005,102.173
14296,0.2144,-0.4048,-0.3447,6.042,-4.944,6.165,-161.296,-24.884,100.333
14307,0.3857,-0.5259,-0.5332,6.042,-4.944,6.165,-161.417,-24.879,100.366
14326,0.5073,-0.5474,-0.7422,-23.56,2.991,-3.723,-161.911,-24.928,100.36
14347,0.5493,-0.4956,-1.0059,-18.555,-3.052,10.742,-162.054,-24.763,100.08
14366,0.4956,-0.4829,-0.981,-18.555,-3.052,10.742,-161.752,-24.423,99.613
14386,0.3086,-0.436,-0.9043,4.822,-7.813,19.104,-161.466,-24.077,99.229
14406,0.3677,-0.3755,-0.874,3.784,7.324,8.667,-161.296,-24.109,98.97
14436,0.3125,-0.4697,-0.6499,18.86,-7.751,5.615,-160.779,-23.895,98.893
14456,0.2563,-0.5117,-0.584,-6.409,-14.954,-14.282,-160.878,-23.687,99.201
14476,0.3823,-0.564,-0.7988,-30.823,13.062,-26.794,-161.603,-23.934,99.69
14496,0.6904,-0.5771,-1.1445,-11.597,15.198,-8.972,-162.065,-24.351,99.882
14505,0.6904,-0.5771,-1.1445,8.301,11.78,4.517,-161.944,-24.45,99.794
14516,0.6904,-0.5771,-1.1445,26.489,6.836,15.564,-161.603,-24.467,99.608
14545,0.1797,-0.4502,-0.4692,23.743,-11.353,15.015,-160.411,-24.126,99.042
14566,0.2285,-0.3857,-0.499,5.859,-9.46,2.014,-160.538,-24.027,99.19
14585,0.4663,-0.4692,-0.7388,-27.039,1.526,-25.208,-161.224,-24.181,99.673
14606,0.5308,-0.5288,-0.8677,-26.672,-4.578,-15.625,-161.944,-24.263,100.08
14625,0.5039,-0.4927,-1.1426,-15.991,1.099,-0.427,-162.378,-24.252,100.173
14655,0.4268,-0.4551,-1.0029,8.972,8.606,5.737,-162.048,-24.439,99.932
14675,0.3174,-0.4019,-0.5737,20.935,7.874,5.31,-161.625,-24.505,99.805
14695,0.2861,-0.4194,-0.4917,-7.69,-6.287,-7.507,-161.691,-24.423,99.926
14715,0.3555,-0.439,-0.5337,-7.69,-6.287,-7.507,-162.224,-24.521,100.272
14735,0.6045,-0.5244,-1.0361,-33.203,1.709,-15.137,-162.713,-24.697,100.503
14755,0.6191,-0.5059,-1.1909,-4.211,1.404,14.465,-162.762,-24.642,100.316
14775,0.6191,-0.5059,-1.1909,20.569,1.099,18.494,-162.279,-24.395,99.904
14795,0.2529,-0.394,-0.6475,39.734,1.221,3.601,-161.318,-24.258,99.723
14804,0.2529,-0.394,-0.6475,38.086,-6.653,-5.005,-160.708,-24.192,99.794
14826,0.311,-0.5361,-0.3813,25.94,-12.573,-12.39,-159.824,-24.109,100.195
14844,0.311,-0.5361,-0.3813,-36.011,-6.592,-16.785,-159.933,-24.241,100.624
14854,0.5352,-0.5527,-0.7061,-47.485,-6.226,-11.658,-160.28,-24.291,100.767
14865,0.5283,-0.5288,-0.8735,-47.485,-6.226,-11.658,-160.697,-24.252,100.854
14884,0.5146,-0.4897,-1.0566,-31.982,-7.996,5.493,-161.389,-24.011,100.865
14924,0.3359,-0.3477,-1.0088,39.307,6.042,16.357,-160.67,-23.895,100.14
14954,0.2266,-0.5059,-0.3735,39.307,6.042,16.357,-158.604,-23.417,100.074
14974,0.2915,-0.4663,-0.3931,10.437,-16.541,-8.972,-158.198,-23.247,100.443
14994,0.394,-0.5005,-0.5273,-49.5,3.784,-22.522,-158.857,-23.516,100.887
15014,0.5747,-0.5635,-0.9028,-43.396,-4.15,-9.216,-159.73,-23.665,101.168
15034,0.5747,-0.5635,-0.9028,-17.09,2.808,10.803,-160.153,-23.582,101.047
15063,0.3516,-0.3354,-1.0366,24.719,3.784,9.46,-159.615,-23.467,100.574
15074,0.2837,-0.4199,-0.6074,29.419,-2.686,2.197,-159.175,-23.412,100.563
15084,0.2964,-0.4663,-0.4775,29.419,-2.686,2.197,-158.741,-23.357,100.64
15103,0.3374,-0.5078,-0.4702,-11.047,-12.024,-11.23,-158.417,-23.269,100.953
15124,0.4819,-0.499,-0.8301,-11.047,-12.024,-11.23,-158.884,-23.335,101.151
15173,0.4141,-0.4028,-1.1958,9.216,1.343,10.498,-159.17,-23.159,100.805
15183,0.312,-0.4131,-0.854,31.738,0.183,6.897,-158.78,-23.088,100.734
15233,0.4478,-0.5278,-0.5991,-15.564,0.366,-9.705,-157.582,-23.121,101.036
15273,0.4492,-0.5332,-0.7891,-27.039,-10.742,0.061,-158.132,-23.071,101.25
15293,0.4492,-0.5332,-0.7891,-27.039,-10.742,0.061,-158.703,-22.852,101.365
15322,0.5117,-0.3745,-1.0786,-22.766,7.69,-7.874,-159.648,-22.923,101.651
15333,0.5117,-0.3745,-1.0786,-9.827,6.409,-0.549,-159.774,-22.978,101.635
15343,0.4712,-0.3613,-1.2173,-9.827,6.409,-0.549,-159.736,-22.928,101.569
15362,0.3281,-0.3628,-1.1572,19.714,3.662,9.094,-159.23,-22.819,101.376
15383,0.3389,-0.3896,-1.0923,47.424,15.076,-2.869,-158.318,-22.945,101.305
15442,0.3618,-0.5479,-0.2881,-33.691,-20.203,-9.277,-155.759,-23.077,101.821
15452,0.4819,-0.4902,-0.6553,-33.691,-20.203,-9.277,-156.22,-23.077,101.97
15472,0.541,-0.4336,-0.9062,-61.035,-3.54,-4.944,-157.412,-23.11,102.014
15492,0.437,-0.3491,-1.3765,-19.409,17.883,12.939,-158.016,-23.132,101.711
15502,0.3667,-0.3403,-1.3833,1.282,16.541,12.634,-158.011,-23.148,101.519
15512,0.3667,-0.3403,-1.3833,17.578,10.986,8.301,-157.857,-23.115,101.387
15542,0.2793,-0.3511,-0.9834,37.292,12.939,-1.282,-156.764,-23.253,101.255
15552,0.2793,-0.3511,-0.9834,41.077,11.963,-6.165,-156.226,-23.406,101.266
15572,0.3682,-0.4976,-0.3906,15.625,-2.808,-3.906,-155.281,-23.61,101.343
15582,0.3867,-0.4873,-0.4316,-6.531,-8.362,-4.395,-155.138,-23.621,101.42
15592,0.417,-0.4351,-0.5234,-27.954,-5.798,-5.127,-155.297,-23.67,101.503
15602,0.4707,-0.4028,-0.6694,-41.748,-2.197,-4.517,-155.671,-23.741,101.558
15621,0.4946,-0.3823,-1.0024,-41.748,-2.197,-4.517,-156.588,-23.752,101.618
15632,0.502,-0.394,-1.1226,-28.076,-8.301,0.061,-156.923,-23.67,101.656
15642,0.502,-0.394,-1.1226,-11.78,-6.47,2.197,-157.088,-23.582,101.662
15661,0.4761,-0.4214,-1.2412,14.832,1.526,9.399,-156.923,-23.434,101.514
15672,0.4761,-0.4214,-1.2412,14.832,1.526,9.399,-156.682,-23.379,101.365
15701,0.2695,-0.4209,-0.7871,30.884,8.484,-0.122,-155.55,-23.368,101.085
15731,0.3823,-0.5073,-0.4712,7.507,-3.845,-10.803,-154.457,-23.643,101.327
15741,0.4419,-0.5757,-0.481,-6.531,-8.057,-10.925,-154.336,-23.687,101.47
15751,0.4419,-0.5757,-0.481,-6.531,-8.057,-10.925,-154.391,-23.725,101.585
15791,0.4126,-0.3325,-0.7612,-30.09,-13.184,-7.141,-155.737,-23.582,101.964
15811,0.2778,-0.4771,-0.3975,-19.592,-21.118,-9.216,-155.918,-23.17,102.458
15831,0.4434,-0.4946,-0.9492,-39.795,-42.419,-19.47,-156.572,-22.451,103.266
15841,0.4434,-0.4946,-0.9492,-39.795,-42.419,-19.47,-157.264,-22.467,103.376
15881,0.4092,-0.2695,-1.7544,27.039,43.823,7.629,-157.879,-23.643,102.59
15910,0.3496,-0.2861,-0.9956,80.322,23.987,2.075,-155.347,-24.236,102.255
15920,0.291,-0.5273,-0.2642,80.322,23.987,2.075,-154.44,-24.28,102.299
15931,0.291,-0.5273,-0.2642,62.683,-0.549,-8.667,-153.847,-24.313,102.387
15940,0.291,-0.5273,-0.2642,62.683,-0.549,-8.667,-153.633,-24.362,102.48
15950,0.291,-0.5273,-0.2642,-12.512,-0.61,-10.132,-153.803,-24.401,102.579
15971,0.4585,-0.4878,-0.3076,-48.95,-1.587,-9.46,-154.72,-24.439,102.816
15990,0.603,-0.4985,-0.9053,-48.218,-1.465,6.531,-155.731,-24.401,102.788
16000,0.4844,-0.3203,-1.3013,-37.72,1.099,14.038,-156.044,-24.351,102.645
16020,0.3076,-0.2544,-1.2725,-0.671,8.24,11.902,-156.116,-24.362,102.305
16040,0.2622,-0.2871,-1.1602,24.658,2.441,-0.671,-155.671,-24.417,102.217
16060,0.3276,-0.3618,-0.8477,22.278,5.798,-10.559,-155.237,-24.56,102.349
16080,0.3892,-0.3945,-0.7632,11.108,12.512,-13.489,-155.039,-24.884,102.508
16100,0.3892,-0.3945,-0.7632,7.813,-2.93,-7.568,-154.935,-25.01,102.673
16110,0.4858,-0.5522,-0.5054,2.319,-14.282,-3.662,-154.951,-24.901,102.777
16129,0.4673,-0.5229,-0.5757,-22.461,-13.855,0.793,-155.325,-24.615,102.92
16140,0.4673,-0.5229,-0.5757,-22.461,-13.855,0.793,-155.671,-24.532,102.942
16150,0.5371,-0.3921,-1.0605,-36.56,-0.61,4.028,-156.017,-24.51,102.903
16169,0.4692,-0.2896,-1.188,-11.292,6.226,11.597,-156.313,-24.532,102.656
16190,0.4287,-0.3013,-1.1753,24.109,5.493,11.414,-155.907,-24.549,102.365
16210,0.2852,-0.3691,-0.7627,24.109,5.493,11.414,-155.061,-24.5,102.222
16230,0.3442,-0.438,-0.5313,22.705,-2.625,-8.545,-154.55,-24.483,102.365
16249,0.3442,-0.438,-0.5313,22.705,-2.625,-8.545,-154.627,-24.461,102.667
16259,0.519,-0.5708,-0.5669,-19.287,-10.498,-9.705,-154.885,-24.406,102.816
16279,0.5742,-0.583,-0.749,-38.757,-9.949,6.287,-155.61,-24.208,102.87
16299,0.4053,-0.2935,-1.1021,-37.598,-7.324,19.653,-156.302,-23.912,102.601
16309,0.4053,-0.2935,-1.1021,-28.381,-2.075,16.174,-156.522,-23.824,102.453
16319,0.4053,-0.2935,-1.1021,-9.216,1.343,7.141,-156.583,-23.807,102.371
16339,0.3506,-0.3945,-0.8789,17.578,-1.465,-8.423,-156.352,-23.851,102.48
16379,0.4146,-0.3833,-0.8643,-4.883,2.075,-2.502,-156.346,-23.912,102.788
16439,0.4561,-0.4263,-0.728,-16.113,-19.043,-8.484,-156.302,-23.577,103.376
16449,0.4561,-0.4263,-0.728,-38.635,-14.404,-7.263,-156.709,-23.511,103.513
16468,0.4648,-0.3706,-1.0557,-35.095,-19.836,-4.395,-157.61,-23.203,103.782
16479,0.4648,-0.3706,-1.0557,-23.254,-12.634,-1.404,-157.928,-23.071,103.848
16489,0.4648,-0.3706,-1.0557,-23.254,-12.634,-1.404,-158.071,-23.005,103.826
16508,0.459,-0.3477,-1.2583,-23.254,-12.634,-1.404,-157.906,-22.994,103.607
16538,0.3027,-0.3569,-0.873,31.189,6.897,3.418,-156.962,-23.027,103.293
16548,0.3027,-0.3569,-0.873,28.076,-1.709,-1.404,-156.55,-22.989,103.315
16558,0.3027,-0.3569,-0.873,19.836,-9.949,-6.836,-156.215,-22.912,103.425
16578,0.2905,-0.4497,-0.4819,-17.151,-17.456,-18.616,-156.182,-22.797,103.881
16598,0.5068,-0.4873,-0.7861,-35.522,-12.878,-21.362,-156.841,-22.808,104.442
16618,0.5347,-0.4897,-0.9053,-35.522,-12.878,-21.362,-157.544,-22.747,104.81
16638,0.4751,-0.4326,-1.2637,-12.634,-9.338,8.972,-157.912,-22.467,104.832
16658,0.3711,-0.2974,-1.312,-1.892,12.268,20.996,-158.0,-22.324,104.392
16668,0.333,-0.2495,-1.2388,5.127,21.362,20.996,-157.945,-22.368,104.095
16687,0.2856,-0.2197,-1.1016,5.127,21.362,20.996,-157.527,-22.538,103.546
16698,0.2856,-0.2197,-1.1016,5.127,21.362,20.996,-157.165,-22.599,103.376
16727,0.2583,-0.3159,-0.4956,8.728,-7.385,-7.935,-156.264,-22.615,103.458
16738,0.3477,-0.4014,-0.4956,8.728,-7.385,-7.935,-156.286,-22.654,103.618
16748,0.4185,-0.4365,-0.5708,-26.123,-9.766,-16.968,-156.484,-22.709,103.832
16788,0.561,-0.4985,-0.9297,-32.166,-21.912,-1.831,-157.758,-22.44,104.595
16797,0.561,-0.4985,-0.9297,-32.166,-21.912,-1.831,-158.082,-22.264,104.601
16817,0.3989,-0.2637,-1.2168,-11.536,13.184,15.015,-158.467,-22.209,104.277
16837,0.353,-0.2993,-1.124,-11.536,13.184,15.015,-158.258,-22.225,103.936
16847,0.353,-0.2993,-1.124,-11.536,13.184,15.015,-157.994,-22.192,103.843
16857,0.2769,-0.3496,-0.8057,-11.536,13.184,15.015,-157.681,-22.154,103.799
16877,0.2827,-0.3477,-0.7124,9.338,0.977,-3.723,-157.275,-22.154,103.832
16897,0.3335,-0.4082,-0.604,-13.489,-5.066,-9.46,-157.297,-22.198,104.013
16917,0.4395,-0.4458,-0.8364,-23.682,-15.442,-13.611,-157.72,-22.099,104.387
16927,0.5137,-0.4233,-1.0078,-26.001,-12.085,-11.414,-158.033,-22.061,104.546
16937,0.5464,-0.3657,-1.1455,-26.917,-5.31,-4.883,-158.368,-22.055,104.617
16946,0.5464,-0.3657,-1.1455,-19.47,0.0,3.662,-158.615,-22.05,104.579
16967,0.4336,-0.2671,-1.2388,5.615,12.756,16.296,-158.681,-22.083,104.222
16986,0.3813,-0.2417,-1.1245,5.615,12.756,16.296,-158.066,-22.104,103.766
17007,0.2549,-0.3252,-0.5513,39.978,-2.93,6.165,-157.099,-22.0,103.574
17016,0.2705,-0.4048,-0.459,39.978,-2.93,6.165,-156.665,-21.951,103.629
17026,0.2705,-0.4048,-0.459,39.978,-2.93,6.165,-156.434,-21.907,103.777
17037,0.2705,-0.4048,-0.459,-15.991,-15.137,-15.198,-156.473,-21.896,103.991
17047,0.4375,-0.4829,-0.6123,-32.532,-15.442,-17.456,-156.736,-21.901,104.227
17056,0.4375,-0.4829,-0.6123,-32.532,-15.442,-17.456,-157.137,-21.89,104.447
17066,0.5278,-0.5059,-0.9805,-32.532,-15.442,-17.456,-157.582,-21.835,104.606
17077,0.5327,-0.4785,-1.1846,-39.856,-12.207,-1.648,-158.005,-21.736,104.672
17096,0.5127,-0.3975,-1.3447,-17.273,8.484,15.076,-158.544,-21.627,104.431
17106,0.3687,-0.3008,-1.4136,1.404,17.456,17.883,-158.533,-21.649,104.183
17126,0.3208,-0.2925,-1.3052,20.996,22.888,16.052,-157.934,-21.835,103.711
17136,0.3208,-0.2925,-1.3052,51.758,23.926,7.324,-157.374,-21.956,103.541
17156,0.3101,-0.4009,-0.5894,46.875,20.691,-0.427,-156.116,-22.308,103.343
17176,0.3101,-0.4009,-0.5894,15.442,11.597,-0.488,-155.187,-22.665,103.217
17207,0.4033,-0.4536,-0.5752,-27.405,-1.77,-5.249,-155.358,-22.928,103.332
17216,0.4814,-0.415,-0.8623,-30.09,-2.747,-2.686,-155.66,-22.956,103.37
17226,0.4712,-0.3896,-0.9834,-29.48,-5.432,0.916,-155.984,-22.912,103.387
17246,0.4507,-0.356,-1.0889,-16.785,-0.61,6.653,-156.5,-22.758,103.304
17256,0.4033,-0.2852,-1.2173,-16.785,-0.61,6.653,-156.649,-22.736,103.195
17275,0.3633,-0.269,-1.1597,11.23,17.212,8.301,-156.621,-22.835,102.892
17296,0.3164,-0.2891,-0.8711,27.222,13.367,3.113,-156.215,-22.994,102.667
17315,0.312,-0.3311,-0.7041,28.992,3.54,-4.944,-155.506,-23.126,102.678
17336,0.312,-0.3311,-0.7041,5.615,-5.005,-9.277,-155.017,-23.247,102.87
17355,0.458,-0.4614,-0.6392,-23.499,-11.658,-12.634,-155.242,-23.297,103.206
17365,0.458,-0.4614,-0.6392,-29.724,-10.376,-11.23,-155.533,-23.313,103.359
17376,0.5508,-0.4604,-0.9058,-31.372,-9.155,-5.493,-155.858,-23.307,103.458
17385,0.5508,-0.4604,-0.9058,-31.372,-9.155,-5.493,-156.154,-23.225,103.486
17395,0.5508,-0.4604,-0.9058,-31.372,-9.155,-5.493,-156.39,-23.082,103.458
17405,0.4282,-0.3711,-1.2598,-11.902,-3.052,10.315,-156.55,-22.967,103.37
17425,0.4141,-0.3301,-1.3481,-11.902,-3.052,10.315,-156.555,-22.989,102.986
17445,0.3379,-0.2187,-1.1919,29.48,32.654,14.771,-156.127,-23.28,102.431
17454,0.3379,-0.2187,-1.1919,29.48,32.654,14.771,-155.698,-23.445,102.162
17485,0.2793,-0.4302,-0.2661,49.927,3.54,-1.709,-153.55,-23.912,101.827
17505,0.3345,-0.4766,-0.2617,-1.648,-13.184,-16.785,-152.693,-23.95,102.178
17515,0.4063,-0.4775,-0.4063,-31.128,-13.977,-23.193,-152.897,-24.022,102.475
17555,0.5161,-0.4233,-1.2578,-36.743,-13.184,0.916,-155.176,-23.923,103.228
17574,0.4004,-0.377,-1.46,-4.7,-0.854,12.451,-155.44,-23.676,103.074
17584,0.3486,-0.3252,-1.4341,7.629,11.841,15.991,-155.281,-23.719,102.86
17604,0.3486,-0.3252,-1.4341,7.629,11.841,15.991,-154.655,-23.978,102.332
17614,0.2305,-0.2827,-0.812,7.629,11.841,15.991,-154.248,-24.131,102.129
17624,0.2295,-0.3022,-0.5903,37.598,17.212,3.967,-153.825,-24.274,102.008
17644,0.2271,-0.3564,-0.4482,23.682,-7.019,-11.597,-153.298,-24.329,102.162
17654,0.2271,-0.3564,-0.4482,4.639,-14.282,-17.883,-153.353,-24.28,102.409
17664,0.2271,-0.3564,-0.4482,-15.442,-18.982,-20.996,-153.627,-24.203,102.706
17674,0.4292,-0.3535,-0.6719,-15.442,-18.982,-20.996,-154.116,-24.12,103.008
17684,0.4292,-0.3535,-0.6719,-55.542,-20.691,-19.592,-154.786,-24.022,103.304
17694,0.3823,-0.1128,-0.8687,-62.927,-26.611,-22.461,-155.561,-23.879,103.651
17704,0.3823,-0.1128,-0.8687,-60.974,-34.79,-31.433,-156.357,-23.692,104.117
17713,0.3823,-0.1128,-0.8687,-60.974,-34.79,-31.433,-157.181,-23.472,104.738
17734,0.231,-0.27,-0.8149,-74.036,-57.495,-77.209,-159.247,-22.978,106.562
17743,0.5942,-0.3018,-1.2173,-74.036,-57.495,-77.209,-160.444,-22.879,107.578
17753,0.5942,-0.3018,-1.2173,-55.115,-18.799,-76.599,-161.329,-22.956,108.43
17764,0.9507,-0.4165,-1.5225,-11.719,-8.179,-62.378,-161.702,-23.077,109.1
17774,0.9741,-0.564,-1.4722,37.598,1.953,-40.222,-161.488,-23.225,109.506
17814,0.3872,-0.6455,-0.9053,59.875,8.362,52.917,-158.011,-23.22,108.517
17823,0.3872,-0.6455,-0.9053,24.597,23.865,54.993,-157.511,-23.236,107.864
17853,0.0542,-0.0806,-0.6191,-26.489,50.049,27.1,-157.555,-24.197,106.507
17863,0.2129,-0.1602,-0.644,-1.038,25.574,-10.62,-157.566,-24.472,106.507
17873,0.2129,-0.1602,-0.644,-1.038,25.574,-10.62,-157.555,-24.653,106.694
17883,0.4751,-0.2686,-0.9106,10.742,4.272,-25.513,-157.549,-24.791,106.935
17903,0.541,-0.2939,-1.0698,-4.395,10.01,-10.498,-157.654,-25.049,107.177
17923,0.4961,-0.3569,-1.1279,15.442,19.043,4.639,-157.418,-25.351,107.007
17933,0.4961,-0.3569,-1.1279,15.442,19.043,4.639,-157.0,-25.538,106.804
17943,0.4658,-0.3672,-0.8872,42.175,26.062,13.245,-156.473,-25.724,106.556
17953,0.4658,-0.3672,-0.8872,42.725,23.865,15.442,-155.929,-25.884,106.293
17963,0.395,-0.3169,-0.6714,42.725,23.865,15.442,-155.468,-25.988,106.035
17973,0.3438,-0.2437,-0.6152,42.725,23.865,15.442,-155.16,-26.065,105.798
17993,0.3052,-0.2456,-0.6514,-1.587,3.601,0.732,-155.039,-26.147,105.617
18033,0.4229,-0.3198,-0.9756,3.784,-6.226,-12.146,-155.374,-26.356,106.227
18042,0.4229,-0.3198,-0.9756,5.798,-7.446,-8.789,-155.369,-26.329,106.348
18052,0.4229,-0.3198,-0.9756,8.85,-2.625,-7.629,-155.319,-26.334,106.436
18063,0.418,-0.3589,-0.9653,15.747,2.258,-10.864,-155.209,-26.4,106.54
18082,0.4946,-0.4136,-0.8716,24.902,13.0,-18.86,-154.847,-26.741,106.787
18103,0.7573,-0.6772,-0.6216,19.897,7.813,-10.193,-154.473,-27.048,106.974
18122,0.7319,-0.6938,-0.6211,19.897,7.813,-10.193,-154.221,-26.774,106.837
18132,0.5293,-0.5103,-0.7998,-21.057,-10.681,30.212,-154.319,-26.548,106.584
18143,0.4185,-0.3931,-0.9316,-41.138,-9.094,33.386,-154.6,-26.323,106.293
18152,0.4185,-0.3931,-0.9316,-39.062,-6.653,30.09,-154.869,-26.131,106.024
18172,0.2813,-0.0864,-1.1089,-13.55,21.545,9.277,-155.089,-26.263,105.579
18212,0.5439,-0.4834,-0.7222,35.95,26.611,-15.991,-153.886,-27.191,105.743
18232,0.5781,-0.5107,-0.7114,3.784,11.841,1.282,-153.589,-27.521,105.65
18252,0.4927,-0.3857,-0.7583,-15.015,8.118,11.658,-153.721,-27.581,105.359
18282,0.4927,-0.3857,-0.7583,0.61,-3.784,8.179,-153.644,-27.499,105.029
18292,0.3457,-0.2832,-0.5576,-6.409,-17.761,3.174,-153.726,-27.339,105.084
18311,0.3213,-0.2949,-0.605,-6.409,-17.761,3.174,-154.49,-26.9,105.518
18341,0.5796,-0.2915,-1.2383,-41.992,-7.69,-12.146,-156.154,-26.68,106.002
18362,0.5137,-0.3506,-1.1777,24.292,-0.671,7.629,-156.099,-26.483,105.941
18381,0.4575,-0.4082,-0.9785,59.326,8.85,16.113,-154.83,-26.45,105.573
18391,0.4575,-0.4082,-0.9785,45.288,-0.183,12.512,-154.215,-26.373,105.447
18402,0.3379,-0.4185,-0.4883,37.72,-12.207,3.479,-153.704,-26.263,105.469
18442,0.605,-0.5288,-0.6533,-40.466,-16.479,-15.32,-153.809,-26.444,106.177
18461,0.605,-0.5288,-0.6533,-40.466,-16.479,-15.32,-155.045,-26.285,106.359
18471,0.5635,-0.3579,-1.3306,-57.373,-14.343,12.695,-155.687,-26.065,106.298
18491,0.4658,-0.2583,-1.418,-8.972,11.23,16.113,-156.253,-25.807,105.93
18511,0.3828,-0.312,-0.9424,56.58,39.734,12.573,-155.363,-26.186,105.364
18551,0.2939,-0.4253,-0.5693,15.869,-23.437,-8.789,-152.814,-26.06,105.183
18581,0.605,-0.4443,-0.9595,-10.986,23.682,-7.568,-153.287,-26.543,105.463
18610,0.6606,-0.5132,-1.0957,32.227,-2.441,25.757,-152.49,-26.532,104.843
18621,0.3906,-0.4395,-0.833,36.56,-3.357,28.564,-152.007,-26.334,104.579
18650,0.2407,-0.2871,-0.5757,28.137,0.977,26.917,-151.436,-25.939,104.035
18701,0.6592,-0.4287,-0.811,-22.461,-17.7,-1.648,-152.331,-25.889,104.985
18730,0.2969,-0.2373,-1.1855,-11.963,-4.517,14.099,-153.287,-25.181,104.744
18740,0.2969,-0.2373,-1.1855,-11.963,-4.517,14.099,-153.331,-25.142,104.656
18770,0.4111,-0.4365,-0.4976,22.156,8.606,-12.817,-152.38,-25.692,104.716
18779,0.4023,-0.4976,-0.4395,22.156,8.606,-12.817,-152.183,-25.686,104.908
18790,0.4023,-0.4976,-0.4395,-8.85,-19.531,-11.353,-152.15,-25.609,105.123
18800,0.394,-0.4941,-0.5552,-40.039,-13.916,-12.39,-152.49,-25.571,105.315
18810,0.4873,-0.4819,-0.8003,-65.063,-16.418,-15.198,-153.199,-25.516,105.551
18819,0.4873,-0.4819,-0.8003,-65.063,-16.418,-15.198,-153.984,-25.428,105.782
18830,0.6226,-0.4341,-1.231,-65.063,-16.418,-15.198,-154.627,-25.362,105.93
18840,0.5928,-0.4063,-1.3179,-30.273,-3.906,0.977,-155.017,-25.302,105.936
18859,0.4019,-0.3408,-1.1562,8.057,-3.052,13.245,-155.105,-25.054,105.727
18880,0.2393,-0.3394,-0.749,26.917,-2.136,3.235,-154.666,-24.774,105.612
18889,0.271,-0.3823,-0.6313,26.917,-2.136,3.235,-154.38,-24.752,105.683
18920,0.5879,-0.5078,-0.6729,-5.127,-1.465,-20.874,-154.133,-25.203,106.26
18949,0.4937,-0.4004,-0.9316,-16.418,-19.897,-3.174,-154.682,-24.901,106.639
18960,0.4072,-0.3579,-1.0273,-16.418,-19.897,-3.174,-154.968,-24.598,106.666
18969,0.3784,-0.3379,-1.0977,-16.418,-19.897,-3.174,-155.154,-24.39,106.661
18979,0.3784,-0.3379,-1.0977,-16.418,-19.897,-3.174,-155.281,-24.368,106.611
18989,0.4297,-0.3369,-1.1074,4.089,12.939,-1.77,-155.297,-24.456,106.567
19009,0.4404,-0.3325,-0.8809,19.958,10.376,-3.967,-154.896,-24.67,106.529
19019,0.3911,-0.3374,-0.7017,24.841,13.123,1.282,-154.611,-24.802,106.452
19029,0.3564,-0.395,-0.6011,17.944,3.357,2.319,-154.336,-24.835,106.414
19059,0.4248,-0.3657,-0.7773,-25.452,5.066,-3.967,-154.534,-24.944,106.447
19069,0.4653,-0.3652,-0.9058,-29.114,0.61,-6.348,-154.885,-24.983,106.507
19078,0.4653,-0.3652,-0.9058,-29.114,0.61,-6.348,-155.242,-24.994,106.573
19089,0.4653,-0.3652,-0.9058,-29.114,0.61,-6.348,-155.533,-25.021,106.567
19099,0.4419,-0.2935,-1.1675,-9.277,9.644,2.136,-155.698,-25.049,106.501
19118,0.4004,-0.2803,-1.1445,-9.277,9.644,2.136,-155.583,-25.197,106.271
19139,0.3525,-0.3877,-0.7407,33.813,29.358,-0.977,-154.858,-25.62,106.013
19148,0.3701,-0.4458,-0.6104,33.813,29.358,-0.977,-154.468,-25.812,105.963
19158,0.3643,-0.4541,-0.5029,33.813,29.358,-0.977,-154.072,-25.834,106.057
19169,0.3643,-0.4541,-0.5029,22.4,-8.24,-9.155,-153.715,-25.856,106.188
19179,0.4204,-0.4346,-0.4746,-2.991,-5.737,-11.23,-153.644,-25.928,106.326
19188,0.4204,-0.4346,-0.4746,-2.991,-5.737,-11.23,-153.913,-25.928,106.529
19199,0.5518,-0.4326,-0.7988,-36.865,-19.47,-11.963,-154.347,-25.862,106.743
19209,0.5518,-0.4326,-0.7988,-36.865,-19.47,-11.963,-154.858,-25.79,106.875
19228,0.5156,-0.2896,-1.23,-23.437,-9.155,7.141,-155.687,-25.56,106.875
19268,0.3438,-0.2622,-0.8081,2.075,6.409,7.629,-155.577,-25.62,106.479
19278,0.3467,-0.3159,-0.6865,29.846,20.996,-4.15,-155.259,-25.818,106.425
19288,0.3872,-0.3525,-0.6367,22.034,15.137,-9.155,-155.006,-26.01,106.447
19298,0.3872,-0.3525,-0.6367,22.034,15.137,-9.155,-154.83,-26.158,106.551
19308,0.3872,-0.3525,-0.6367,10.742,-6.775,-14.587,-154.737,-26.224,106.732
19318,0.3872,-0.3525,-0.6367,0.183,-17.7,-13.977,-154.77,-26.186,106.957
19338,0.5195,-0.4756,-0.7246,-13.367,-20.63,-11.047,-155.132,-26.027,107.309
19358,0.5132,-0.4355,-0.8882,-31.189,-17.395,1.587,-155.731,-25.796,107.457
19377,0.5059,-0.4155,-0.9995,-21.912,-17.517,7.019,-156.297,-25.373,107.518
19398,0.4741,-0.4224,-1.0718,-15.625,-7.385,9.338,-156.522,-25.175,107.358
19407,0.4741,-0.4224,-1.0718,-15.625,-7.385,9.338,-156.478,-25.131,107.287
19417,0.481,-0.5117,-0.9609,6.714,2.625,3.601,-156.346,-25.126,107.238
19428,0.4897,-0.5449,-0.9194,6.714,2.625,3.601,-156.143,-25.164,107.194
19447,0.4614,-0.5,-0.8955,9.338,11.414,6.287,-155.786,-25.28,107.012
19457,0.4614,-0.5,-0.8955,9.338,11.414,6.287,-155.643,-25.362,106.76
19468,0.4614,-0.5,-0.8955,9.094,31.677,23.804,-155.495,-25.488,106.375
19477,0.4614,-0.5,-0.8955,9.094,31.677,23.804,-155.374,-25.615,105.985
19487,0.4614,-0.5,-0.8955,9.094,31.677,23.804,-155.275,-25.735,105.683
19497,0.4614,-0.5,-0.8955,9.094,31.677,23.804,-155.143,-25.878,105.485
19527,0.3999,-0.293,-0.6367,38.147,13.855,-20.569,-154.33,-26.565,105.584
19537,0.3999,-0.293,-0.6367,31.799,8.24,-23.987,-154.05,-26.818,105.787
19557,0.5225,-0.4355,-0.5713,7.751,-1.953,-21.24,-153.732,-27.219,106.238
19567,0.6206,-0.5508,-0.6621,-2.93,-5.554,-15.442,-153.71,-27.323,106.419
19577,0.6587,-0.5503,-0.7837,-14.404,-7.507,-7.019,-153.814,-27.356,106.529
19597,0.5972,-0.438,-1.0557,-27.527,-11.902,12.939,-154.314,-27.136,106.469
19647,0.2505,-0.1543,-0.8481,20.203,2.991,-2.014,-154.567,-26.34,105.771
19656,0.2505,-0.1543,-0.8481,20.203,2.991,-2.014,-154.424,-26.428,105.864
19676,0.2505,-0.1543,-0.8481,23.743,-5.493,-30.884,-154.078,-26.735,106.403
19687,0.4497,-0.4287,-0.5,15.32,-14.099,-36.682,-153.979,-26.84,106.842
19697,0.5278,-0.4844,-0.5342,-4.089,-16.296,-40.466,-154.072,-26.966,107.331
19706,0.5278,-0.4844,-0.5342,-25.391,-16.846,-41.504,-154.407,-27.092,107.831
19716,0.6724,-0.5503,-0.7412,-25.391,-16.846,-41.504,-154.885,-27.164,108.331
19727,0.7056,-0.5552,-0.8521,-34.851,-26.367,-30.823,-155.352,-27.136,108.77
19746,0.6914,-0.5234,-1.0522,-34.363,-26.489,2.319,-156.094,-26.79,109.16
19756,0.6914,-0.5234,-1.0522,-34.363,-26.489,2.319,-156.379,-26.526,109.072
19767,0.5674,-0.3955,-1.1523,-27.527,-12.085,31.799,-156.583,-26.279,108.803
19776,0.4531,-0.2793,-1.127,-27.527,-12.085,31.799,-156.747,-26.06,108.386
19786,0.3208,-0.1753,-1.0884,-27.527,-12.085,31.799,-156.951,-25.856,107.919
19796,0.2305,-0.1172,-1.0386,-23.01,9.705,35.156,-157.17,-25.675,107.518
19806,0.2305,-0.1172,-1.0386,-8.789,12.939,21.484,-157.302,-25.565,107.243
19826,0.2788,-0.2271,-0.7627,7.69,15.747,5.371,-157.192,-25.664,107.15
19836,0.3672,-0.3032,-0.6895,20.935,8.484,-17.212,-157.039,-25.812,107.287
19876,0.6279,-0.521,-0.812,-17.883,-3.967,-8.423,-156.967,-26.241,107.957
19896,0.5942,-0.4771,-0.9761,-8.606,-4.578,10.864,-157.072,-26.191,107.869
19906,0.5264,-0.4175,-1.0186,-8.606,-4.578,10.864,-157.05,-26.065,107.715
19925,0.4478,-0.3574,-1.0435,3.479,-3.052,20.508,-156.973,-25.708,107.336
19946,0.3042,-0.2544,-0.9653,12.207,13.855,10.986,-156.769,-25.615,106.957
19965,0.333,-0.2861,-0.8682,12.207,13.855,10.986,-156.489,-25.752,106.842
19986,0.4487,-0.3599,-0.7422,20.081,18.921,-11.963,-156.094,-26.175,106.902
20005,0.4487,-0.3599,-0.7422,7.446,10.498,-6.897,-155.698,-26.625,106.957
