elapsed_ms,acc_x_g,acc_y_g,acc_z_g,gyro_x_dps,gyro_y_dps,gyro_z_dps,angle_x_deg,angle_y_deg,angle_z_deg
0,0.3052,-0.5166,-0.7793,9.949,22.461,4.578,-145.948,-20.045,158.873
20,0.3521,-0.5127,-0.7778,9.277,22.034,-3.723,-145.712,-20.413,158.665
29,0.3521,-0.5127,-0.7778,9.277,24.902,-3.784,-145.607,-20.671,158.544
40,0.4072,-0.4648,-0.7656,8.911,25.635,-0.549,-145.497,-20.918,158.395
69,0.3745,-0.5273,-0.7495,10.986,25.574,5.676,-145.031,-21.5,157.874
80,0.3911,-0.5498,-0.7617,10.986,25.574,5.676,-144.811,-21.687,157.648
90,0.3643,-0.5459,-0.7549,12.085,23.987,8.118,-144.608,-21.83,157.429
109,0.3145,-0.5635,-0.7451,12.085,23.987,8.118,-144.338,-21.962,157.099
130,0.2881,-0.5747,-0.7402,0.549,7.874,1.221,-144.212,-21.978,156.94
149,0.2686,-0.542,-0.7256,-0.732,0.793,-2.991,-144.207,-21.934,156.934
189,0.2656,-0.5132,-0.7212,-0.549,-7.202,-13.733,-144.432,-21.819,157.495
199,0.2959,-0.5195,-0.7607,4.578,-10.437,-18.188,-144.481,-21.797,157.72
219,0.3315,-0.5029,-0.7656,3.601,-14.221,-21.362,-144.646,-21.797,158.247
229,0.3315,-0.5029,-0.7656,3.845,-16.663,-21.484,-144.739,-21.786,158.538
239,0.3706,-0.4932,-0.7324,3.845,-16.663,-21.484,-144.811,-21.769,158.829
259,0.3833,-0.4976,-0.7246,3.845,-16.663,-21.484,-144.838,-21.786,159.313
279,0.458,-0.5464,-0.7813,36.865,-5.31,-13.0,-144.492,-21.824,159.73
288,0.458,-0.5464,-0.7813,36.865,-5.31,-13.0,-144.119,-22.055,159.708
299,0.5166,-0.5977,-0.7529,8.85,-2.014,-11.719,-144.047,-22.165,159.824
349,0.3926,-0.6172,-0.8267,-9.949,-23.56,-8.179,-144.871,-21.621,161.032
368,0.397,-0.5991,-0.8437,-20.386,-22.644,-15.564,-145.58,-21.456,161.631
389,0.5098,-0.5938,-0.957,-18.738,5.249,-19.348,-146.124,-21.714,161.982
408,0.5405,-0.603,-0.9868,-17.7,-3.845,-16.968,-146.75,-21.923,162.372
448,0.5508,-0.5952,-0.9087,-10.864,14.954,0.305,-146.948,-22.434,161.96
478,0.4512,-0.6162,-0.8198,-10.864,14.954,0.305,-145.92,-22.753,160.543
488,0.4512,-0.6162,-0.8198,-10.864,14.954,0.305,-145.508,-22.819,160.01
498,0.4512,-0.6162,-0.8198,12.817,29.663,32.776,-145.173,-22.857,159.532
518,0.3716,-0.6011,-0.8252,5.737,26.306,26.306,-144.723,-22.917,158.719
538,0.3828,-0.561,-0.8711,4.028,24.536,25.391,-144.377,-22.978,157.928
549,0.356,-0.5186,-0.897,4.028,24.536,25.391,-144.218,-22.994,157.522
558,0.356,-0.5186,-0.897,5.92,30.518,28.381,-144.058,-23.044,157.077
568,0.356,-0.5186,-0.897,8.423,33.752,29.968,-143.871,-23.104,156.599
587,0.2246,-0.48,-0.7466,14.832,35.889,32.837,-143.141,-23.143,155.506
617,0.1729,-0.4912,-0.6294,34.302,40.466,40.405,-141.268,-23.0,153.627
627,0.2109,-0.5249,-0.564,34.302,40.466,40.405,-140.647,-22.939,153.04
648,0.2471,-0.5586,-0.5483,34.302,40.466,40.405,-139.669,-22.885,152.144
657,0.2471,-0.5586,-0.5483,34.302,40.466,40.405,-139.389,-22.846,151.875
667,0.2471,-0.5586,-0.5483,4.456,3.235,17.7,-139.252,-22.742,151.705
678,0.1509,-0.5322,-0.6597,-38.818,20.203,24.658,-139.521,-22.604,151.359
688,0.3569,-0.6357,-0.4829,-103.699,44.067,23.804,-140.229,-22.797,150.853
717,0.2412,-0.4111,-0.6709,-21.545,-31.86,-1.465,-141.454,-22.181,151.089
737,0.2607,-0.3896,-0.644,13.306,-22.217,-12.756,-141.482,-21.962,151.452
757,0.2393,-0.5186,-0.5942,2.014,-33.875,-29.663,-141.658,-21.665,152.375
777,0.4995,-0.7314,-0.6006,11.353,-23.01,-29.968,-141.581,-21.764,153.204
817,0.521,-0.668,-0.7153,-13.123,-53.284,-24.414,-142.02,-21.176,155.226
837,0.5278,-0.5845,-0.9102,-30.64,-50.049,-30.884,-143.091,-20.814,156.423
857,0.5278,-0.5845,-0.9102,-20.386,-41.199,-14.648,-143.954,-20.528,157.286
867,0.4331,-0.5693,-0.8105,-20.386,-41.199,-14.648,-144.135,-20.204,157.549
907,0.2666,-0.6011,-0.7778,-2.075,-29.419,10.559,-144.19,-18.391,158.049
956,0.2236,-0.3672,-1.0435,-38.513,-53.894,-2.625,-146.382,-16.644,159.329
977,0.1758,-0.3672,-0.937,-25.085,-34.241,10.498,-147.327,-15.694,159.675
996,0.0718,-0.5332,-0.6245,23.682,-4.639,5.249,-146.821,-15.271,159.653
1006,0.0718,-0.5332,-0.6245,23.682,-4.639,5.249,-146.162,-15.309,159.664
1017,0.0718,-0.5332,-0.6245,54.81,1.831,-11.963,-145.503,-15.463,159.758
1026,0.0718,-0.5332,-0.6245,54.81,1.831,-11.963,-145.162,-15.551,159.906
1036,1.0122,-0.8633,-1.6772,-18.005,2.808,-11.658,-145.366,-15.639,159.988
1046,1.0122,-0.8633,-1.6772,-18.005,2.808,-11.658,-146.299,-15.661,159.977
1076,-0.0898,-0.0693,-0.8887,-122.498,-86.609,32.837,-175.534,-13.837,159.648
1086,-0.0898,-0.0693,-0.8887,52.063,40.283,90.393,-174.787,-14.167,158.687
1095,-0.0898,-0.0693,-0.8887,52.063,40.283,90.393,-173.315,-15.106,157.791
1106,-0.3525,-0.9126,0.1963,52.063,40.283,90.393,-171.612,-16.221,157.33
1116,-0.3525,-0.9126,0.1963,141.846,110.84,-16.235,-170.195,-17.336,157.33
1125,0.2578,-1.1543,-0.0679,141.846,110.84,-16.235,-169.541,-18.16,157.819
1146,0.2578,-1.1543,-0.0679,-36.072,-10.681,-93.384,-170.37,-18.567,159.736
1156,1.0986,-0.312,-1.6367,-36.072,-10.681,-93.384,-171.249,-18.215,160.483
1185,0.1221,0.0532,-1.1265,-79.285,-110.168,3.235,175.913,-15.293,160.642
1225,0.0063,-0.9155,-0.1631,91.37,95.642,29.968,-162.488,-16.88,158.544
1255,0.2236,-0.9609,-0.3062,-47.607,-38.147,-87.952,-162.35,-18.561,159.884
1285,0.6577,-0.2354,-1.3701,-66.406,-45.715,1.465,-165.086,-17.205,161.444
1305,0.1602,-0.1406,-0.9722,30.029,-66.833,17.151,-165.081,-15.645,161.576
1325,0.2354,-0.9297,-0.5435,30.029,-66.833,17.151,-163.658,-16.93,160.67
1345,0.5063,-0.9834,-0.6475,55.115,93.384,-10.071,-162.153,-18.979,160.076
1415,0.2739,-0.5913,-0.5601,10.193,30.09,5.676,-164.355,-18.913,161.164
1434,0.375,-0.6934,-0.624,56.885,50.781,6.348,-163.466,-19.819,160.889
1455,0.375,-0.6934,-0.624,-41.504,8.362,-15.442,-164.119,-20.237,161.142
1464,0.375,-0.6934,-0.624,-41.504,8.362,-15.442,-164.756,-20.094,161.23
1474,0.375,-0.6934,-0.624,-58.289,-36.011,13.733,-165.322,-19.709,161.186
1484,0.375,-0.6934,-0.624,-22.705,-34.485,36.56,-165.454,-19.286,160.906
1495,-0.2246,-0.3901,-0.5996,34.485,3.906,52.124,-164.932,-19.193,160.362
1504,-0.2246,-0.3901,-0.5996,61.157,68.115,45.288,-164.103,-19.731,159.708
1524,0.0205,-0.8037,-0.4331,55.847,129.944,-4.517,-162.57,-22.099,158.741
1554,0.9062,-0.6543,-0.9722,-12.939,39.978,-48.95,-163.262,-23.703,159.648
1564,0.9062,-0.6543,-0.9722,-12.939,39.978,-48.95,-163.976,-23.478,159.961
1584,0.9062,-0.6543,-0.9722,-40.039,-50.293,21.667,-164.883,-22.473,159.988
1594,0.0244,-0.1948,-0.7632,-40.039,-50.293,21.667,-164.74,-22.121,159.626
1604,-0.0869,-0.3975,-0.5127,41.504,16.663,48.828,-164.114,-22.154,159.066
1613,-0.0869,-0.3975,-0.5127,41.504,16.663,48.828,-163.257,-22.61,158.434
1624,0.0796,-0.751,-0.3276,65.613,91.309,31.738,-162.367,-23.39,157.819
1653,0.4541,-0.8838,-0.5698,16.235,43.213,-28.442,-162.131,-24.851,158.225
1664,0.4541,-0.8838,-0.5698,16.235,43.213,-28.442,-163.059,-24.763,158.972
1674,0.9355,-0.3887,-1.2661,16.235,43.213,-28.442,-163.872,-24.543,159.467
1683,0.6167,-0.1255,-1.0483,16.235,43.213,-28.442,-164.268,-24.23,159.593
1723,-0.0117,-0.603,-0.4321,36.133,4.883,53.223,-163.218,-23.654,157.934
1763,0.6899,-0.9287,-0.7124,10.315,28.381,-34.18,-162.274,-25.4,157.972
1773,0.6899,-0.9287,-0.7124,-69.946,-49.744,-46.448,-163.257,-25.071,158.626
1783,0.6899,-0.9287,-0.7124,-80.383,-77.881,-33.875,-164.317,-24.423,159.236
1803,0.458,-0.0708,-1.2676,-28.748,-18.433,22.705,-165.311,-23.555,159.351
1823,0.1226,-0.6528,-0.4287,65.491,86.487,60.242,-163.801,-24.51,157.83
1843,0.2676,-0.9141,-0.1865,65.491,86.487,60.242,-161.79,-26.049,156.281
1883,0.4395,-0.8867,-0.4663,-55.176,-67.444,-56.213,-163.4,-25.34,158.027
1893,0.4395,-0.8867,-0.4663,-55.176,-67.444,-56.213,-164.163,-24.89,158.621
1913,0.3306,0.0337,-0.9722,-22.644,-39.734,19.653,176.94,-24.066,158.621
1923,0.0234,-0.1357,-0.8022,-22.644,-39.734,19.653,-170.392,-23.89,158.148
1933,0.0234,-0.1357,-0.8022,32.654,17.395,49.866,-169.838,-23.978,157.582
1942,0.0234,-0.1357,-0.8022,32.654,17.395,49.866,-169.036,-24.494,156.956
1952,0.0234,-0.1357,-0.8022,32.654,17.395,49.866,-168.179,-25.269,156.451
1973,0.2886,-0.8848,-0.2939,28.137,31.799,-23.254,-167.311,-26.334,156.407
1992,0.5811,-0.9106,-0.5845,-39.673,-53.04,-55.847,-168.387,-25.851,157.714
2022,0.6636,-0.1997,-1.3818,-23.254,-61.951,22.461,-169.783,-24.016,158.269
2043,0.2578,-0.063,-1.1841,29.297,33.936,76.477,-168.893,-24.049,156.775
2052,0.2578,-0.063,-1.1841,29.297,33.936,76.477,-167.756,-24.554,155.786
2082,0.147,-0.9687,-0.3071,43.823,80.322,27.222,-164.795,-26.851,153.517
2102,0.5317,-0.9712,-0.4604,-57.678,-25.269,-40.1,-165.668,-26.999,154.039
2132,0.4375,-0.2383,-1.0034,-53.284,-86.853,-20.386,-168.371,-25.208,155.588
2152,0.2622,-0.23,-0.9355,18.311,19.531,37.598,-168.365,-24.758,155.237
2172,0.1963,-0.5327,-0.4995,18.311,19.531,37.598,-166.542,-25.933,153.88
2192,0.4829,-0.9917,-0.4048,18.311,19.531,37.598,-165.674,-26.927,153.523
2212,0.561,-1.0259,-0.4854,18.311,19.531,37.598,-166.679,-27.076,154.633
2232,0.7183,-0.7236,-0.9771,-53.528,-48.157,-47.913,-168.618,-26.285,156.176
2241,0.7183,-0.7236,-0.9771,-39.612,-42.908,-22.4,-169.162,-25.911,156.511
2251,0.7183,-0.7236,-0.9771,-18.188,-47.058,3.784,-169.371,-25.439,156.572
2302,0.0376,-0.6997,-0.4541,18.738,36.255,11.719,-167.151,-25.367,154.649
2321,0.3672,-0.6079,-0.7173,18.738,36.255,11.719,-168.036,-25.307,155.468
2342,0.3672,-0.6079,-0.7173,-42.236,-39.124,-48.828,-169.497,-24.868,156.725
2361,0.3647,-0.3306,-0.9131,-9.521,-18.616,-13.855,-170.085,-24.384,157.33
2371,0.5918,-0.4766,-1.1045,1.526,19.348,3.052,-170.041,-24.571,157.264
2381,0.6934,-0.5029,-1.1133,10.376,53.833,18.005,-169.81,-25.065,156.967
2401,0.6934,-0.5029,-1.1133,10.376,53.833,18.005,-169.294,-25.917,156.143
2411,0.2495,-0.6318,-0.4629,10.376,53.833,18.005,-169.244,-25.774,155.825
2421,0.0767,-0.6938,-0.3867,10.376,53.833,18.005,-169.409,-25.291,155.682
2451,0.0806,-0.6738,-0.4292,-20.508,-23.621,-28.442,-170.458,-24.17,156.231
2471,0.5371,-0.5557,-0.8462,-9.338,2.563,-40.955,-171.057,-24.252,157.137
2491,0.708,-0.2329,-1.251,-11.414,-3.235,5.493,-171.348,-24.28,157.319
2511,0.708,-0.2329,-1.251,-9.338,-4.15,45.349,-171.26,-24.044,156.533
2521,0.708,-0.2329,-1.251,14.832,11.475,55.664,-170.859,-24.071,155.907
2541,0.0952,-0.8711,-0.3374,14.832,11.475,55.664,-169.744,-24.538,154.929
2561,0.3208,-0.8516,-0.5684,14.832,11.475,55.664,-169.415,-24.999,154.913
2580,0.5713,-0.4702,-1.0571,-52.368,-45.288,-63.965,-170.793,-24.543,156.259
2620,0.2939,-0.2817,-0.8193,2.258,-3.113,25.696,-172.689,-23.192,157.451
2630,0.1353,-0.4941,-0.6304,2.258,-3.113,25.696,-172.15,-23.335,156.912
2650,0.0991,-0.6836,-0.5332,29.297,39.673,22.278,-171.118,-23.972,156.077
2660,0.0991,-0.6836,-0.5332,29.297,39.673,22.278,-170.975,-24.291,156.088
2670,0.4395,-0.7754,-0.6343,29.297,39.673,22.278,-171.134,-24.39,156.412
2690,0.5283,-0.6445,-0.7617,29.297,39.673,22.278,-172.101,-23.818,157.533
2700,0.5283,-0.6445,-0.7617,-37.292,-45.41,-30.945,-172.634,-23.412,157.934
2710,0.5283,-0.6445,-0.7617,-36.682,-36.499,-9.338,-173.062,-23.06,158.088
2719,0.5283,-0.6445,-0.7617,-27.405,-22.705,12.695,-173.293,-22.819,157.978
2730,0.3394,-0.2554,-0.9116,-11.597,-9.827,30.396,-173.287,-22.687,157.665
2740,0.1797,-0.4048,-0.7666,-11.597,-9.827,30.396,-173.051,-22.654,157.253
2759,0.1201,-0.5718,-0.5962,26.672,29.358,27.222,-172.282,-23.049,156.495
2799,0.2988,-0.6982,-0.583,26.672,29.358,27.222,-172.172,-22.791,156.907
2810,0.4312,-0.502,-0.9634,-48.401,-69.702,-47.546,-172.892,-22.165,157.522
2820,0.4839,-0.4507,-1.1167,-48.401,-69.702,-47.546,-173.672,-21.544,158.148
2860,0.4902,-0.4648,-1.1494,-5.737,-5.92,20.264,-174.935,-20.572,158.708
2869,0.4902,-0.4648,-1.1494,-5.92,-9.644,26.001,-174.897,-20.451,158.439
2879,0.4902,-0.4648,-1.1494,-11.169,-11.658,22.644,-174.93,-20.314,158.209
2889,0.1245,-0.4834,-0.5278,-11.169,-11.658,22.644,-175.056,-20.171,158.082
2919,0.2456,-0.4819,-0.5981,-21.362,-35.461,-20.142,-175.924,-19.199,158.774
2929,0.562,-0.3335,-1.0405,-21.362,-35.461,-20.142,-176.309,-18.765,159.219
2969,0.4878,-0.2036,-1.1216,-7.874,6.653,18.494,-177.451,-17.523,159.747
3009,0.2363,-0.7212,-0.6787,25.024,20.142,4.089,-174.375,-18.699,158.752
3029,0.3535,-0.5889,-0.8545,25.024,20.142,4.089,-173.568,-18.787,158.846
3058,0.4048,-0.3921,-1.0259,10.132,-5.676,7.629,-172.908,-18.622,158.796
3069,0.4375,-0.2651,-1.1924,10.132,-5.676,7.629,-172.798,-18.677,158.681
3079,0.4375,-0.2651,-1.1924,-7.507,10.62,9.155,-172.76,-18.754,158.571
3098,0.2041,-0.3335,-0.8228,-3.235,9.277,9.399,-172.414,-18.754,158.373
3148,0.4951,-0.5317,-0.9595,32.166,26.062,18.066,-169.497,-19.265,157.978
3159,0.5693,-0.3687,-1.188,-19.104,-24.78,-21.118,-169.706,-19.116,158.242
3168,0.5503,-0.2344,-1.3252,-31.799,-23.376,-15.625,-170.09,-18.946,158.45
3178,0.5503,-0.2344,-1.3252,-29.663,-2.136,1.526,-170.392,-18.973,158.439
3188,0.4238,-0.2158,-1.0503,-29.663,-2.136,1.526,-170.365,-19.122,158.126
3218,0.0576,-0.6763,-0.4141,-29.663,-2.136,1.526,-167.569,-19.847,156.094
3228,0.1016,-0.772,-0.3745,39.795,48.218,30.212,-166.52,-20.116,155.671
3268,0.5298,-0.7412,-0.8687,-29.358,-22.278,-57.922,-165.888,-20.424,157.209
3277,0.5298,-0.7412,-0.8687,-29.358,-22.278,-57.922,-166.542,-20.292,157.731
3288,0.5298,-0.7412,-0.8687,-40.955,-32.532,-15.015,-167.135,-20.039,157.967
3298,0.418,-0.104,-1.1558,-40.955,-32.532,-15.015,-167.437,-19.918,157.813
3317,0.2383,-0.2314,-0.98,-40.955,-32.532,-15.015,-166.503,-20.363,156.588
3338,0.1191,-0.6226,-0.5439,44.373,63.049,26.611,-164.372,-21.22,155.5
3357,0.1191,-0.6226,-0.5439,3.784,2.441,-25.208,-163.218,-21.473,155.638
3378,0.5464,-0.5112,-0.8838,3.784,2.441,-25.208,-163.641,-21.346,156.698
3397,0.5161,-0.3257,-0.998,-22.644,-52.246,-20.447,-164.515,-20.627,157.582
3427,0.1938,-0.2656,-0.9912,14.404,15.198,17.273,-164.29,-20.067,157.28
3437,0.2114,-0.4644,-0.8311,14.404,15.198,17.273,-163.971,-20.242,157.121
3447,0.2559,-0.563,-0.748,14.404,15.198,17.273,-163.647,-20.511,157.066
3467,0.3115,-0.6533,-0.6274,-3.723,1.526,-26.245,-163.125,-20.858,157.418
3477,0.3115,-0.6533,-0.6274,-3.418,-15.198,-29.419,-162.944,-20.808,157.764
3487,0.4053,-0.665,-0.6816,-3.418,-15.198,-29.419,-162.889,-20.638,158.137
3507,0.4517,-0.5713,-0.834,-13.977,-52.795,-22.827,-163.196,-19.907,158.934
3527,0.4214,-0.4209,-1.0474,-10.925,-26.184,-15.869,-163.521,-19.363,159.511
3547,0.5068,-0.416,-1.1333,2.136,8.118,-2.258,-163.482,-19.473,159.637
3577,0.2534,-0.48,-0.8145,2.93,5.92,17.883,-162.938,-19.594,159.153
3597,0.2227,-0.5571,-0.7446,1.404,1.038,7.019,-162.411,-19.462,158.928
3607,0.3442,-0.7153,-0.6777,1.404,1.038,7.019,-162.026,-19.44,158.923
3627,0.4268,-0.7227,-0.7441,18.494,-31.433,-3.784,-161.18,-19.094,159.12
3637,0.4268,-0.7227,-0.7441,9.766,-50.537,-1.587,-160.966,-18.644,159.307
3646,0.4268,-0.7227,-0.7441,9.766,-50.537,-1.587,-161.016,-18.078,159.489
3656,0.4268,-0.7227,-0.7441,-19.47,-56.274,5.249,-161.329,-17.518,159.626
3667,0.4268,-0.7227,-0.7441,-24.414,-42.847,5.798,-161.757,-17.045,159.714
3686,0.1719,-0.0391,-0.9771,-4.272,4.517,4.578,-177.709,-16.732,159.697
3707,0.1719,-0.0391,-0.9771,21.606,50.049,8.484,-177.001,-17.408,159.494
3726,0.3301,-0.6943,-0.5181,24.109,47.852,4.028,-175.573,-18.479,159.324
3736,0.3613,-0.7944,-0.46,25.513,27.344,0.0,-174.754,-18.776,159.302
3746,0.3613,-0.7944,-0.46,18.921,0.305,-5.371,-174.034,-18.825,159.357
3796,0.5425,-0.3086,-1.2998,-32.043,-53.101,-15.625,-174.26,-16.864,160.4
3836,0.1465,-0.3901,-0.8516,30.212,62.5,29.846,-173.15,-17.551,159.483
3856,0.2461,-0.6675,-0.6401,14.282,42.053,7.629,-171.81,-18.506,159.038
3876,0.5635,-0.6826,-0.769,-12.512,3.54,-12.39,-171.238,-18.929,159.186
3896,0.5522,-0.5928,-0.8193,-38.025,-45.898,-21.484,-171.584,-18.495,159.697
3905,0.5522,-0.5928,-0.8193,-38.025,-45.898,-21.484,-171.854,-18.034,159.983
3915,0.5522,-0.5928,-0.8193,-38.025,-45.898,-21.484,-172.029,-17.622,160.126
3945,0.2168,-0.4546,-0.8901,6.226,-5.92,10.864,-171.552,-16.924,159.939
3966,0.2148,-0.4551,-0.7471,14.038,3.784,4.333,-170.815,-16.864,159.813
3985,0.3643,-0.4507,-0.8071,14.038,3.784,4.333,-170.184,-16.908,159.763
4006,0.373,-0.3452,-1.0137,0.0,-0.061,8.362,-169.876,-16.952,159.631
4015,0.373,-0.3452,-1.0137,-4.395,0.916,12.39,-169.838,-16.952,159.5
4055,0.2061,-0.377,-0.873,-5.859,5.432,18.982,-168.86,-16.946,158.445
4075,0.1084,-0.6567,-0.563,26.978,16.113,16.174,-167.454,-16.985,157.967
4095,0.1084,-0.6567,-0.563,-0.244,-4.822,-14.282,-166.69,-16.946,158.093
4115,0.4014,-0.6172,-0.9185,-18.616,-11.536,-21.423,-166.822,-16.924,158.593
4135,0.3359,-0.3984,-1.0161,-18.616,-11.536,-21.423,-166.91,-16.749,158.752
4145,0.2329,-0.4185,-0.9746,-18.616,-11.536,-21.423,-166.718,-16.694,158.604
4164,0.1831,-0.4858,-0.9146,26.245,29.602,17.09,-165.806,-16.946,158.104
4175,0.1831,-0.4858,-0.9146,26.245,29.602,17.09,-165.339,-17.271,157.917
4185,0.3999,-0.5806,-0.9346,26.245,29.602,17.09,-164.927,-17.688,157.769
4204,0.4771,-0.561,-0.9409,-2.014,30.579,5.981,-164.449,-18.468,157.484
4225,0.4063,-0.46,-0.8374,-10.376,1.16,14.526,-164.306,-18.561,157.187
4244,0.4063,-0.46,-0.8374,10.193,25.024,21.301,-163.856,-18.633,156.72
4265,0.4966,-0.4326,-0.9175,16.174,68.665,35.278,-162.977,-19.742,155.676
4284,0.4355,-0.4297,-0.9141,16.174,68.665,35.278,-162.213,-20.726,154.539
4294,0.4136,-0.4673,-1.021,16.174,68.665,35.278,-161.873,-21.105,153.962
4314,0.4795,-0.4878,-1.1353,28.931,102.783,61.829,-160.714,-22.467,152.26
4334,0.4795,-0.4878,-1.1353,60.12,114.929,96.985,-158.302,-24.23,149.584
4343,0.4795,-0.4878,-1.1353,60.12,114.929,96.985,-156.709,-24.868,147.997
4354,0.2339,-0.7832,-0.3936,60.12,114.929,96.985,-155.259,-25.098,146.503
4364,0.0928,-0.8408,-0.312,60.12,114.929,96.985,-154.061,-24.999,145.267
4383,-0.1514,-0.7725,-0.2144,16.479,19.531,52.673,-152.122,-24.285,143.696
4404,-0.1343,-0.7583,-0.2139,8.057,-23.865,-4.333,-151.002,-23.368,143.635
4423,0.082,-0.6519,-0.3994,8.057,-23.865,-4.333,-151.26,-22.769,144.888
4434,0.5684,-0.5181,-0.8804,-44.861,-53.772,-70.068,-152.051,-22.698,145.838
4444,0.5684,-0.5181,-0.8804,-62.744,-52.429,-73.059,-153.133,-22.67,146.799
4463,0.5869,-0.1631,-1.1709,-62.744,-52.429,-73.059,-155.358,-22.28,148.337
4493,0.2754,-0.2251,-0.9497,-13.916,-19.409,2.38,-156.105,-21.665,148.579
4513,0.2598,-0.6997,-0.563,36.865,35.828,14.099,-154.671,-22.17,148.057
4553,0.3325,-0.7842,-0.5361,-28.748,-42.786,-41.26,-153.71,-22.604,149.09
4563,0.4536,-0.519,-0.8379,-28.748,-42.786,-41.26,-154.248,-22.319,149.738
4573,0.4536,-0.519,-0.8379,-29.907,-40.344,-30.884,-154.775,-22.121,150.227
4603,0.5669,-0.2964,-1.1885,4.272,8.606,-7.874,-155.039,-22.522,150.364
4613,0.5669,-0.2964,-1.1885,4.272,8.606,-7.874,-154.627,-22.885,149.985
4623,0.2646,-0.5313,-0.7339,4.272,8.606,-7.874,-154.006,-23.154,149.524
4642,0.2432,-0.6543,-0.5742,26.062,37.17,16.113,-152.595,-23.533,148.782
4653,0.4282,-0.7212,-0.4658,26.062,37.17,16.113,-151.985,-23.862,148.491
4663,0.5894,-0.686,-0.5396,26.062,37.17,16.113,-151.458,-24.247,148.233
4703,0.7676,-0.3652,-1.1016,38.33,40.71,78.308,-149.815,-24.818,146.135
4733,-0.0483,-0.7349,-0.5776,43.884,54.077,97.046,-146.662,-24.417,142.449
4752,-0.0518,-0.8447,-0.4629,43.884,54.077,97.046,-144.816,-24.263,141.114
4792,0.4995,-0.7495,-0.7061,-20.447,-26.489,-58.655,-144.536,-24.538,142.471
4812,0.7549,-0.6094,-0.9565,-16.602,-18.127,-31.555,-145.437,-24.851,143.487
4822,0.7744,-0.4341,-1.1055,-16.602,-18.127,-31.555,-145.898,-24.961,143.888
4832,0.7598,-0.3594,-1.165,-16.602,-18.127,-31.555,-146.332,-24.966,144.042
4862,0.4663,-0.4429,-0.9731,9.644,31.799,41.626,-145.503,-25.065,142.383
4872,0.3091,-0.7734,-0.6094,9.644,31.799,41.626,-144.382,-25.203,141.334
4882,0.3091,-0.7734,-0.6094,45.227,63.843,59.509,-143.295,-25.252,140.383
4902,0.23,-0.9004,-0.4063,45.227,63.843,59.509,-142.18,-25.12,139.438
4922,0.23,-0.9004,-0.4063,-22.217,-15.564,-11.597,-142.086,-24.884,139.653
4962,0.4741,-0.5928,-0.8047,-30.945,-43.457,-25.513,-143.19,-24.379,141.229
4971,0.4741,-0.5928,-0.8047,-30.945,-43.457,-25.513,-143.981,-24.164,141.823
4981,0.4741,-0.5928,-0.8047,-57.251,-51.086,-36.194,-144.97,-23.934,142.471
4992,0.4473,-0.3345,-0.9463,-57.251,-51.086,-36.194,-145.926,-23.835,143.086
5011,0.5171,-0.3691,-0.9053,-2.014,18.066,-11.353,-146.602,-24.236,143.421
5021,0.5171,-0.3691,-0.9053,-2.014,18.066,-11.353,-146.288,-24.478,143.141
5032,0.5171,-0.3691,-0.9053,-2.014,18.066,-11.353,-145.695,-24.51,142.663
5041,0.5171,-0.3691,-0.9053,30.396,20.813,38.879,-145.025,-24.357,142.18
5051,0.2075,-0.8896,-0.5615,20.447,15.381,25.452,-144.459,-24.203,141.855
5081,0.5317,-0.9062,-0.7319,0.732,20.264,-17.151,-144.113,-24.851,141.943
5091,0.5317,-0.9062,-0.7319,0.732,20.264,-17.151,-144.58,-24.983,142.24
5121,0.1533,-0.4956,-0.4209,-34.485,-67.993,12.634,-145.794,-23.192,143.223
5150,0.1621,-0.9116,-0.1382,-17.151,-72.327,-39.062,-145.981,-21.588,145.618
5161,0.1621,-0.9116,-0.1382,-44.861,-106.995,-82.336,-146.821,-21.281,146.997
5201,0.8901,0.0259,-1.6729,-39.734,-6.653,31.006,178.116,-19.572,148.788
5211,0.4731,-0.0625,-1.5386,5.005,70.313,68.848,-177.671,-20.297,148.079
5230,-0.042,-0.749,-0.4966,5.005,70.313,68.848,-175.534,-22.39,145.893
5251,-0.314,-1.0498,0.1499,39.49,61.279,62.012,-173.622,-23.89,144.047
5260,-0.314,-1.0498,0.1499,39.49,61.279,62.012,-173.661,-23.835,143.921
5270,-0.3403,-0.8926,0.0874,-40.833,-62.195,-41.687,-174.287,-23.264,144.448
5280,-0.0459,-0.7842,-0.2305,-40.833,-62.195,-41.687,-175.254,-22.412,145.53
5320,1.0571,0.0449,-1.9302,-51.575,-103.088,-119.812,178.665,-20.314,149.326
5360,0.0522,-0.333,-0.7979,24.78,40.039,74.463,-173.485,-21.885,146.464
5370,0.0522,-0.333,-0.7979,24.78,40.039,74.463,-173.057,-22.083,146.041
5380,0.0522,-0.333,-0.7979,27.466,22.644,-0.061,-172.776,-22.308,146.014
5390,-0.0913,-1.1245,0.0278,27.466,22.644,-0.061,-172.782,-22.374,146.415
5399,0.2197,-1.124,-0.249,27.466,22.644,-0.061,-173.188,-22.115,147.299
5420,0.2197,-1.124,-0.249,-22.034,-15.747,-66.223,-174.304,-21.786,149.046
5449,0.9907,-0.0679,-1.6489,24.536,38.513,55.603,-174.034,-21.72,148.821
5470,0.4307,-0.2148,-0.8433,48.706,64.27,95.215,-172.271,-22.939,146.591
5479,-0.1997,-0.7432,-0.1807,48.706,64.27,95.215,-171.678,-23.192,145.887
5489,-0.2251,-0.9189,0.0078,48.706,64.27,95.215,-171.546,-23.302,145.701
5500,-0.2251,-0.9189,0.0078,48.706,64.27,95.215,-171.837,-23.143,146.113
5519,0.5503,-0.8345,-0.6787,-31.799,-54.565,-81.604,-173.32,-22.368,148.206
5530,0.9443,-0.5688,-1.2192,-31.799,-54.565,-81.604,-173.754,-22.363,149.008
5540,0.9443,-0.5688,-1.2192,-31.799,-54.565,-81.604,-173.815,-22.379,149.403
5559,0.8828,-0.2529,-1.4092,-31.799,-54.565,-81.604,-173.227,-22.445,148.887
5579,0.4585,-0.4092,-0.9741,23.743,27.283,75.195,-172.079,-22.95,147.145
5599,-0.1919,-0.9058,-0.231,9.094,11.414,20.447,-171.491,-23.148,146.321
5609,-0.2036,-0.894,-0.1006,9.094,11.414,20.447,-171.552,-23.06,146.514
5629,0.3154,-0.7705,-0.5537,9.094,11.414,20.447,-172.617,-22.28,148.167
5639,0.6978,-0.5615,-1.0078,-22.522,-31.433,-76.843,-173.167,-22.072,149.035
5659,0.8564,-0.0981,-1.4429,19.287,-8.118,-17.517,-173.282,-21.912,149.788
5679,0.8564,-0.0981,-1.4429,19.287,-8.118,-17.517,-172.441,-22.412,148.925
5708,-0.146,-0.7524,-0.1826,19.287,-8.118,-17.517,-171.513,-23.082,147.607
5748,0.4194,-0.8818,-0.4541,-14.343,-11.841,-58.167,-172.886,-22.747,149.892
5778,0.6479,-0.312,-1.207,-14.343,-11.841,-58.167,-173.622,-22.066,150.765
5788,0.6479,-0.312,-1.207,2.991,13.062,17.151,-173.518,-22.176,150.568
5809,0.3413,-0.7622,-0.7261,26.978,26.001,19.47,-172.82,-22.659,150.029
5818,0.3413,-0.7622,-0.7261,12.817,17.944,10.437,-172.639,-22.824,149.892
5839,0.2246,-0.7109,-0.5688,-33.63,-24.475,-20.691,-173.199,-22.593,150.189
5868,0.4404,-0.561,-0.7383,-20.874,-20.02,-24.231,-174.034,-22.099,150.958
5878,0.4404,-0.561,-0.7383,26.672,2.197,-0.305,-173.765,-22.121,150.958
5898,0.478,-0.5679,-0.9487,26.672,2.197,-0.305,-173.221,-22.159,150.771
5918,0.3306,-0.4214,-0.9004,-31.555,-29.175,-8.606,-173.71,-21.693,150.919
5948,0.3408,-0.6118,-0.5493,-13.672,-6.287,-7.08,-174.183,-21.506,151.161
5968,0.3706,-0.6519,-0.4731,8.606,-0.793,-1.343,-173.93,-21.627,151.15
5988,0.4009,-0.5234,-0.7847,8.606,-0.793,-1.343,-174.474,-21.083,151.534
6028,0.4907,-0.3701,-1.0034,4.944,5.066,-1.526,-175.38,-20.572,152.281
6047,0.4907,-0.3701,-1.0034,4.944,5.066,-1.526,-174.935,-20.874,151.924
6058,0.2612,-0.7378,-0.6089,4.944,5.066,-1.526,-174.76,-21.0,151.743
6077,0.2529,-0.7451,-0.6064,-3.052,-6.653,-11.719,-174.787,-20.984,151.842
6098,0.5308,-0.564,-0.8813,-8.545,-12.878,-24.658,-175.172,-20.803,152.441
6117,0.5986,-0.4668,-0.96,-3.967,-13.0,-10.315,-175.408,-20.616,152.814
6138,0.4609,-0.4141,-1.0088,-0.61,-7.446,8.911,-175.43,-20.374,152.743
6157,0.4609,-0.4141,-1.0088,-0.61,-7.446,8.911,-175.089,-20.605,152.463
6177,0.2993,-0.5596,-0.6738,20.02,33.203,3.723,-173.837,-21.242,152.276
6197,0.3003,-0.6401,-0.48,-1.77,-6.165,-16.357,-172.908,-21.313,152.496
6217,0.3506,-0.627,-0.6968,-1.77,-6.165,-16.357,-172.809,-21.099,153.182
6237,0.3506,-0.627,-0.6968,6.409,8.85,-14.282,-172.639,-21.297,153.611
6267,0.4731,-0.4419,-0.8472,8.667,26.55,20.752,-171.508,-22.17,153.073
6277,0.2456,-0.5449,-0.5674,8.667,26.55,20.752,-171.057,-22.28,152.897
6287,0.2456,-0.5449,-0.5674,1.099,16.907,3.906,-170.612,-22.352,152.825
6306,0.2612,-0.6938,-0.6089,1.099,16.907,3.906,-169.656,-22.819,152.88
6327,0.5073,-0.6113,-0.7983,17.456,36.438,-5.859,-168.915,-23.588,152.842
6376,0.5088,-0.605,-0.8647,18.982,36.316,9.521,-167.366,-24.813,152.32
6386,0.5088,-0.605,-0.8647,18.982,36.316,9.521,-166.443,-25.598,151.815
6416,0.7383,-0.6187,-0.9385,-2.869,35.767,22.156,-165.388,-26.796,150.688
6426,0.7383,-0.6187,-0.9385,-2.869,35.767,22.156,-165.322,-26.927,150.298
6437,0.3833,-0.5215,-0.7646,-2.869,35.767,22.156,-164.976,-27.037,149.804
6486,-0.0225,-0.6191,-0.0601,-40.344,-14.038,-12.512,-162.367,-27.312,148.299
6506,-0.1343,-0.646,-0.0029,-27.954,-49.5,-46.204,-162.197,-25.977,149.425
6546,1.1323,-0.2979,-1.3364,3.113,-12.085,-45.898,-162.598,-25.895,152.166
6566,1.1323,-0.2979,-1.3364,-22.034,-31.738,4.15,-163.12,-25.318,152.589
6616,0.0439,-0.7236,-0.2573,9.888,9.766,1.831,-161.592,-25.532,150.623
6625,0.1851,-0.6709,-0.397,9.888,9.766,1.831,-161.938,-25.395,151.04
6635,0.1851,-0.6709,-0.397,-34.302,-40.71,-54.138,-162.587,-25.175,151.749
6656,0.1851,-0.6709,-0.397,-12.39,-28.625,-37.476,-163.521,-24.818,152.935
6675,0.6045,-0.46,-0.9639,-12.39,-28.625,-37.476,-163.482,-24.538,153.171
6696,0.3477,-0.561,-0.7544,7.202,-11.902,12.878,-163.196,-24.263,152.935
6705,0.3477,-0.561,-0.7544,-2.014,-11.047,2.563,-163.218,-24.148,152.946
6715,0.3477,-0.561,-0.7544,-8.667,-7.08,-9.521,-163.356,-24.109,153.067
6736,0.5195,-0.5352,-0.6738,-10.925,-3.235,-19.714,-163.735,-24.142,153.479
6765,0.3745,-0.4731,-0.7544,-13.489,-19.836,-12.451,-164.394,-23.681,154.067
6805,0.4932,-0.5474,-0.9038,15.93,30.212,-6.165,-164.586,-23.807,154.468
6825,0.6016,-0.7026,-0.7134,15.93,30.212,-6.165,-164.246,-24.164,154.396
6845,0.355,-0.5581,-0.7148,-12.634,-37.415,-4.517,-164.487,-23.621,154.633
6854,0.355,-0.5581,-0.7148,-12.634,-37.415,-4.517,-164.724,-23.302,154.836
6875,0.5522,-0.3823,-1.0669,-11.108,-18.921,-14.465,-164.998,-23.247,155.171
6894,0.6221,-0.4272,-0.9771,7.751,28.503,3.479,-164.839,-23.774,155.056
6915,0.6221,-0.4272,-0.9771,-3.54,3.845,14.16,-164.691,-23.873,154.753
6955,0.4028,-0.4531,-0.8149,-1.343,17.7,1.709,-165.185,-23.577,154.72
6964,0.4028,-0.4531,-0.8149,12.695,28.32,6.958,-164.998,-23.835,154.567
6974,0.5659,-0.5078,-0.7222,12.695,28.32,6.958,-164.861,-23.967,154.418
7004,0.4028,-0.6221,-0.5981,-5.005,-18.494,9.705,-164.817,-23.549,154.116
7014,0.4028,-0.6221,-0.5981,-2.441,-12.695,2.625,-164.844,-23.417,154.127
7024,0.4028,-0.6221,-0.5981,-2.441,-12.695,2.625,-164.839,-23.423,154.171
7044,0.6021,-0.5229,-0.8496,28.381,-4.395,-16.724,-164.537,-23.434,154.523
7084,0.4619,-0.4331,-0.8511,-14.282,-32.349,-2.38,-164.399,-22.989,154.759
7104,0.4619,-0.4331,-0.8511,9.155,24.78,8.24,-163.905,-23.176,154.545
7144,0.4028,-0.606,-0.6025,-13.611,-17.395,6.592,-162.686,-23.659,154.105
7174,0.3384,-0.5815,-0.6938,-8.423,-27.71,3.601,-162.158,-22.83,154.243
7184,0.4634,-0.543,-0.8276,12.085,-0.305,-1.526,-161.889,-22.852,154.259
7193,0.6094,-0.4727,-0.9365,14.343,9.155,-2.686,-161.658,-23.022,154.254
7204,0.6484,-0.4019,-0.9863,14.343,9.155,-2.686,-161.537,-23.165,154.226
7214,0.5942,-0.3921,-0.9883,14.343,9.155,-2.686,-161.521,-23.165,154.182
7233,0.5078,-0.4116,-0.959,-7.996,0.061,19.653,-161.461,-23.016,153.896
7254,0.3882,-0.5962,-0.6724,18.311,30.518,38.452,-160.521,-23.242,153.023
7273,0.3882,-0.5962,-0.6724,22.888,33.386,39.673,-159.137,-23.505,152.095
7303,0.2056,-0.6958,-0.501,-8.606,-26.55,-5.92,-158.253,-22.824,152.062
7323,0.2583,-0.3433,-0.8291,-11.23,-31.311,-18.188,-158.626,-22.253,152.809
7343,0.2583,-0.3433,-0.8291,-14.099,-17.273,-44.434,-159.461,-22.231,153.847
7363,0.2583,-0.3433,-0.8291,-8.545,1.77,-16.296,-159.966,-22.462,154.38
7383,0.5308,-0.5,-1.0063,8.911,27.954,18.25,-159.516,-22.819,154.012
7412,0.3203,-0.7559,-0.5947,-0.122,9.521,14.038,-157.994,-23.093,153.078
7423,0.2695,-0.6821,-0.5083,-14.465,-9.949,-1.343,-157.846,-22.95,153.133
7433,0.3154,-0.6353,-0.564,-14.465,-9.949,-1.343,-157.896,-22.78,153.364
7452,0.4004,-0.5947,-0.6367,-1.892,-14.16,-14.771,-157.906,-22.648,153.842
7473,0.5972,-0.5063,-0.9492,14.832,0.061,-1.526,-157.654,-22.747,153.968
7492,0.5317,-0.2661,-1.0151,-0.671,9.216,6.409,-157.665,-22.928,153.82
7532,0.3198,-0.6582,-0.478,7.874,29.968,11.963,-156.281,-23.676,152.99
7542,0.3682,-0.9141,-0.3462,7.874,29.968,11.963,-155.621,-23.818,152.88
7562,0.4604,-0.8857,-0.4883,-4.211,-14.587,-11.902,-155.094,-23.851,153.116
7582,0.7515,-0.3638,-1.1128,-15.076,-23.193,-9.583,-155.588,-23.615,153.457
7602,0.439,-0.188,-1.0498,-15.076,-23.193,-9.583,-156.0,-23.143,153.226
7632,0.104,-0.4248,-0.6445,-15.076,-23.193,-9.583,-154.567,-22.912,151.968
7642,0.1304,-0.6763,-0.3691,30.945,34.729,12.695,-153.787,-23.033,151.683
7662,0.3374,-0.7383,-0.4307,-7.263,-4.028,-28.503,-153.094,-23.236,151.968
7671,0.3374,-0.7383,-0.4307,-7.263,-4.028,-28.503,-153.32,-23.329,152.452
7682,0.73,-0.5625,-0.8857,-7.263,-4.028,-28.503,-153.671,-23.401,152.902
7692,0.77,-0.4878,-1.0615,-7.263,-4.028,-28.503,-153.935,-23.384,153.188
7711,0.6797,-0.4351,-1.0864,2.625,-11.658,17.212,-153.984,-23.132,153.16
7722,0.6797,-0.4351,-1.0864,5.981,-6.042,27.832,-153.787,-22.917,152.919
7732,0.1855,-0.5581,-0.6646,5.493,-6.531,25.146,-153.512,-22.637,152.704
7741,0.1719,-0.6094,-0.5845,0.61,-4.578,12.512,-153.276,-22.434,152.606
7751,0.1719,-0.6094,-0.5845,-2.563,0.549,-1.282,-153.089,-22.385,152.617
7791,0.5415,-0.6191,-0.7485,-12.756,-16.602,-9.338,-153.177,-22.692,153.292
7821,0.2402,-0.5415,-0.6479,-6.226,-23.926,2.869,-153.369,-21.714,153.715
7841,0.5,-0.5605,-0.8975,6.348,-4.761,-0.366,-153.062,-21.78,153.748
7861,0.4922,-0.4526,-0.9634,-12.207,-19.104,-13.367,-153.259,-21.808,154.056
7901,0.3281,-0.3867,-0.9512,-3.662,5.737,-0.549,-154.644,-21.121,154.88
7921,0.4517,-0.4932,-0.7583,18.005,39.185,18.616,-154.056,-21.709,154.276
7931,0.4517,-0.4932,-0.7583,11.78,27.893,20.874,-153.616,-21.885,153.94
7951,0.2339,-0.7427,-0.4038,11.78,27.893,20.874,-153.029,-21.676,153.809
7970,0.3496,-0.7437,-0.5166,-7.019,-28.687,-25.391,-152.809,-21.352,154.418
7991,0.5542,-0.6714,-0.7578,2.869,-23.071,-29.602,-152.957,-21.379,155.281
8000,0.8081,-0.3442,-1.189,2.869,-23.071,-29.602,-153.149,-21.374,155.506
8010,0.7256,-0.271,-1.29,-6.775,-25.085,2.686,-153.402,-21.215,155.599
8031,0.3335,-0.2852,-1.019,-9.644,-2.93,24.597,-153.803,-20.825,155.352
8040,0.3335,-0.2852,-1.019,9.521,17.578,33.02,-153.528,-20.72,154.951
8061,0.0576,-0.5913,-0.4839,37.17,41.199,23.437,-151.919,-20.83,154.056
8080,0.23,-0.7261,-0.2881,1.831,-1.587,-16.968,-150.782,-21.0,154.012
8090,0.3687,-0.6675,-0.5127,-22.278,-33.875,-38.269,-150.963,-20.923,154.55
8150,0.5835,-0.3823,-1.2295,9.216,24.902,34.607,-151.589,-20.698,155.248
8170,0.0332,-0.5591,-0.4243,-4.517,2.93,27.222,-151.353,-20.544,154.572
8190,0.1343,-0.6289,-0.4028,-12.512,-1.282,-10.498,-151.611,-20.528,154.594
8210,0.1343,-0.6289,-0.4028,-5.92,5.798,-28.381,-151.952,-20.836,155.089
8219,0.1343,-0.6289,-0.4028,-5.92,5.798,-28.381,-152.034,-20.929,155.226
8230,0.1343,-0.6289,-0.4028,-6.836,-16.846,-4.456,-152.15,-20.803,155.352
8259,0.3125,-0.5166,-0.8599,-7.446,-25.94,17.151,-152.249,-20.039,155.231
8280,0.1831,-0.6006,-0.6338,-7.446,-25.94,17.151,-151.875,-20.198,154.902
8299,0.3218,-0.5449,-0.707,-6.775,-0.549,-23.56,-151.996,-20.413,155.231
8320,0.5649,-0.5005,-0.9531,-15.198,3.174,-11.963,-152.419,-20.616,155.517
8360,0.314,-0.6699,-0.6631,19.287,22.583,27.527,-151.683,-21.022,154.402
8379,0.314,-0.6699,-0.6631,-1.343,-1.648,7.141,-151.496,-20.978,154.111
8389,0.3555,-0.5288,-0.7573,-1.343,-1.648,7.141,-151.628,-20.918,154.199
8409,0.4502,-0.4663,-0.8745,-14.221,-8.301,-9.949,-151.963,-20.918,154.413
8429,0.5801,-0.3906,-1.1113,-13.55,19.592,5.432,-152.15,-21.143,154.254
8449,0.3433,-0.3677,-0.8657,-23.682,28.87,24.353,-152.336,-21.462,153.583
8478,0.1055,-0.5327,-0.5469,-4.944,25.085,19.47,-152.358,-21.769,152.463
8499,0.1055,-0.5327,-0.5469,3.784,7.08,-12.39,-152.254,-22.066,152.386
8529,0.166,-0.6284,-0.3755,-10.376,-46.997,-53.162,-153.04,-21.791,154.039
8539,0.7046,-0.5195,-0.9653,-10.376,-46.997,-53.162,-153.463,-21.698,154.72
8579,0.8975,-0.4067,-1.2373,-6.958,-15.198,-6.897,-154.314,-21.407,155.654
8588,0.8975,-0.4067,-1.2373,-6.958,-15.198,-6.897,-154.248,-21.473,155.314
8608,0.167,-0.5518,-0.5669,11.963,34.119,33.203,-153.765,-21.736,154.402
8628,0.1826,-0.5991,-0.4634,7.874,15.076,10.254,-153.342,-21.989,153.847
8648,0.1826,-0.5991,-0.4634,-5.432,-14.282,-15.625,-153.485,-21.945,154.1
8668,0.3989,-0.5737,-0.6909,-4.211,-28.015,-25.879,-153.869,-21.698,154.825
8688,0.4951,-0.5376,-0.8633,0.549,-27.588,-22.583,-154.149,-21.39,155.566
8708,0.7397,-0.3633,-1.2495,0.549,-27.588,-22.583,-154.215,-21.302,155.808
8718,0.7002,-0.3232,-1.25,0.549,-27.588,-22.583,-154.177,-21.357,155.621
8728,0.5605,-0.3193,-1.1377,-9.827,22.583,26.245,-154.144,-21.451,155.259
8748,0.2144,-0.4639,-0.7471,1.587,34.729,42.786,-153.82,-21.671,154.193
8758,0.2144,-0.4639,-0.7471,12.146,40.283,43.03,-153.474,-21.841,153.583
8767,0.1387,-0.6147,-0.5059,12.146,40.283,43.03,-153.105,-22.006,153.078
8777,0.207,-0.6445,-0.4907,12.146,40.283,43.03,-152.875,-22.11,152.809
8798,0.2578,-0.6318,-0.5186,-11.108,-24.658,-20.691,-153.094,-21.984,153.149
8817,0.4546,-0.5117,-0.8193,-23.682,-41.87,-37.048,-153.957,-21.577,154.232
8838,0.498,-0.4688,-0.9033,-7.385,-23.499,-19.409,-154.473,-21.264,155.001
8857,0.4961,-0.4185,-0.9053,6.958,-3.296,12.573,-154.38,-21.105,154.962
8897,0.2666,-0.396,-0.7969,4.578,-0.305,22.644,-153.979,-20.863,154.281
8907,0.2954,-0.4194,-0.7383,4.578,-0.305,22.644,-153.962,-20.956,154.237
8947,0.4194,-0.5308,-0.728,-0.488,-1.709,-6.775,-154.138,-21.116,154.583
8967,0.5469,-0.5098,-0.9146,-0.488,-1.709,-6.775,-154.045,-21.127,154.495
8997,0.4429,-0.4819,-0.917,3.113,11.292,19.348,-153.715,-21.165,153.825
9017,0.2876,-0.5396,-0.7007,2.991,3.662,14.771,-153.517,-21.132,153.419
9026,0.2876,-0.5396,-0.7007,3.418,-3.113,4.578,-153.474,-21.083,153.391
9036,0.2085,-0.5859,-0.5605,3.418,-3.113,4.578,-153.506,-21.033,153.528
9057,0.3418,-0.5894,-0.7109,-2.319,-15.991,-22.888,-153.853,-20.978,154.21
9076,0.7412,-0.3081,-1.2598,-15.869,-7.69,-12.756,-154.495,-21.149,154.693
9097,0.6621,-0.2739,-1.2183,-8.667,15.015,25.818,-154.825,-21.242,154.319
9116,0.3198,-0.4468,-0.8657,30.884,39.368,50.049,-153.803,-21.396,153.073
9127,0.1665,-0.6157,-0.5396,30.884,39.368,50.049,-152.93,-21.473,152.408
9146,0.1558,-0.6533,-0.4351,15.503,18.799,14.404,-151.54,-21.561,151.644
9156,0.1558,-0.6533,-0.4351,-4.517,-6.348,-9.155,-151.337,-21.506,151.76
9177,0.5156,-0.5962,-0.6753,-9.399,-29.236,-25.635,-151.458,-21.39,152.49
9196,0.5859,-0.5068,-0.998,7.019,-30.884,-9.705,-151.573,-21.11,153.078
9206,0.6084,-0.4722,-1.1338,7.019,-30.884,-9.705,-151.562,-21.028,153.16
9226,0.5811,-0.4385,-1.1509,7.019,-30.884,-9.705,-151.458,-21.11,152.908
9246,0.4751,-0.4507,-1.0049,-4.15,18.372,14.038,-151.403,-21.286,152.496
9276,0.4751,-0.4507,-1.0049,8.057,7.507,7.751,-150.529,-21.259,151.941
9316,0.3955,-0.5024,-0.7324,-5.188,-15.198,-21.606,-150.546,-21.149,152.781
9335,0.4312,-0.4736,-0.7422,-13.611,-26.428,-31.067,-151.073,-21.077,153.6
9356,0.4507,-0.3589,-0.9297,-9.033,-7.935,-16.785,-151.628,-21.088,154.1
9365,0.4507,-0.3589,-0.9297,-9.033,-7.935,-16.785,-151.93,-21.176,154.204
9375,0.4346,-0.2725,-1.0488,-13.245,10.071,-8.301,-152.205,-21.313,154.232
9396,0.3374,-0.5039,-0.752,-15.869,15.503,-2.625,-152.501,-21.61,154.149
9405,0.3374,-0.5039,-0.752,-15.869,15.503,-2.625,-152.43,-21.703,154.127
9415,0.3301,-0.7549,-0.5552,-15.869,15.503,-2.625,-152.303,-21.753,154.171
9426,0.3672,-0.7603,-0.5493,-15.869,15.503,-2.625,-152.227,-21.753,154.33
9445,0.3804,-0.6938,-0.6123,-15.991,-29.968,-21.851,-152.457,-21.539,154.962
9466,0.3804,-0.6938,-0.6123,-7.874,-20.142,-10.132,-152.974,-21.302,155.49
9485,0.3804,-0.6938,-0.6123,4.517,5.92,10.559,-153.16,-21.275,155.391
9505,0.4814,-0.3525,-1.0542,11.292,33.02,27.466,-152.781,-21.577,154.666
9535,0.2192,-0.6133,-0.5249,11.902,34.302,28.32,-151.683,-21.835,153.66
9555,0.2222,-0.6143,-0.5259,-5.981,-9.827,-14.038,-151.447,-21.742,153.853
9565,0.4023,-0.5298,-0.6636,-5.31,-13.977,-19.897,-151.496,-21.753,154.111
9575,0.5054,-0.4712,-0.7432,-5.31,-13.977,-19.897,-151.54,-21.797,154.347
9595,0.5298,-0.4531,-0.7769,7.141,-13.245,-3.357,-151.512,-21.786,154.616
9615,0.4238,-0.3496,-1.0747,7.385,-0.671,6.348,-151.518,-21.693,154.578
9634,0.3887,-0.4297,-0.9302,13.428,26.733,10.376,-151.309,-21.923,154.226
9645,0.356,-0.5747,-0.7515,13.428,26.733,10.376,-150.859,-22.126,153.896
9664,0.3643,-0.7139,-0.6421,25.208,19.958,14.526,-149.711,-22.368,153.314
9674,0.3828,-0.6689,-0.6816,25.208,19.958,14.526,-149.381,-22.39,153.232
9685,0.4331,-0.5977,-0.7876,25.208,19.958,14.526,-149.31,-22.385,153.303
9704,0.4849,-0.5283,-0.8892,-7.568,-9.644,-13.611,-149.623,-22.418,153.655
9725,0.4746,-0.4106,-0.8701,1.526,-6.165,-1.16,-149.804,-22.39,153.825
9744,0.3862,-0.4277,-0.8271,1.526,-6.165,-1.16,-149.678,-22.39,153.704
9774,0.4731,-0.4639,-0.8623,6.714,18.066,5.981,-149.387,-22.83,153.237
9784,0.4731,-0.4639,-0.8623,6.714,18.066,5.981,-149.321,-22.961,153.089
9794,0.3843,-0.5732,-0.6748,6.714,18.066,5.981,-149.194,-23.044,152.952
9814,0.3237,-0.6216,-0.5679,-0.183,-3.418,6.042,-148.848,-22.945,152.809
9824,0.2783,-0.5703,-0.5601,3.601,-10.071,4.7,-148.678,-22.797,152.825
9834,0.2935,-0.5596,-0.6123,6.409,-16.052,-0.122,-148.535,-22.632,152.919
9874,0.5522,-0.48,-0.9717,-8.545,-18.372,-15.32,-149.024,-22.445,153.836
9883,0.5522,-0.48,-0.9717,-8.545,-18.372,-15.32,-149.321,-22.379,153.984
9894,0.5522,-0.48,-0.9717,-9.583,-2.197,5.188,-149.518,-22.357,153.946
9923,0.375,-0.458,-0.8135,14.16,29.907,30.701,-148.859,-22.516,152.814
9944,0.2007,-0.5527,-0.4932,2.991,13.062,8.85,-148.222,-22.516,152.309
9963,0.2017,-0.5508,-0.4951,-8.423,-9.277,-19.348,-148.151,-22.489,152.589
9973,0.3828,-0.584,-0.5366,-8.423,-9.277,-19.348,-148.14,-22.533,152.891
9984,0.3828,-0.584,-0.5366,8.423,-14.587,-19.958,-147.997,-22.588,153.16
10003,0.5405,-0.6465,-0.6938,8.423,-14.587,-19.958,-147.799,-22.5,153.638
10013,0.6958,-0.4365,-1.1748,8.423,-14.587,-19.958,-148.008,-22.418,153.825
10033,0.6958,-0.4365,-1.1748,-30.64,-0.854,5.798,-148.508,-22.269,153.858
10063,0.27,-0.4063,-0.9258,8.911,44.312,34.546,-148.376,-22.72,152.562
10083,0.0977,-0.8081,-0.1904,22.583,44.617,34.668,-147.541,-23.011,151.589
10102,0.0977,-0.8081,-0.1904,-7.874,-40.649,-15.564,-147.64,-22.659,151.935
10113,0.3672,-0.6699,-0.5342,-22.156,-59.387,-38.696,-148.134,-22.363,152.633
10142,0.71,-0.1499,-1.3794,-7.324,-37.415,-24.475,-149.293,-21.731,154.528
10163,0.6064,-0.2163,-1.3721,3.845,17.456,16.724,-149.244,-21.676,154.413
10182,0.4609,-0.3423,-1.0391,20.447,57.129,45.898,-148.398,-22.159,153.067
10193,0.1631,-0.6479,-0.4419,20.447,57.129,45.898,-147.947,-22.335,152.408
10212,0.0684,-0.7852,-0.1997,0.0,1.953,5.066,-147.64,-22.401,151.941
10233,0.3682,-0.7163,-0.5889,-15.198,-23.987,-21.79,-148.42,-22.192,152.913
10252,0.6572,-0.5488,-0.9966,-23.865,-39.185,-45.471,-149.161,-22.017,153.957
10272,0.7666,-0.2402,-1.3433,-0.671,-0.305,17.273,-149.178,-21.819,153.935
10292,0.457,-0.3442,-1.1421,-0.671,-0.305,17.273,-148.557,-21.874,152.935
10322,0.0581,-0.6113,-0.4121,5.127,5.981,15.442,-147.662,-22.017,151.721
10332,0.0737,-0.5464,-0.4565,-14.465,-18.188,-4.211,-147.86,-21.885,151.864
10352,0.4673,-0.4063,-0.9399,-28.625,-29.175,-26.123,-148.727,-21.605,152.655
10362,0.4673,-0.4063,-0.9399,-28.625,-29.175,-26.123,-148.947,-21.533,152.897
10372,0.5483,-0.3857,-1.0859,4.333,-7.996,-1.221,-148.925,-21.467,152.952
10382,0.5283,-0.4756,-1.0591,4.333,-7.996,-1.221,-148.634,-21.451,152.754
10401,0.5361,-0.6045,-0.9302,4.333,-7.996,-1.221,-147.546,-21.572,151.732
10412,0.5122,-0.7344,-0.6855,21.057,27.649,39.49,-147.145,-21.594,151.21
10422,0.5122,-0.7344,-0.6855,-1.221,4.395,28.503,-147.057,-21.473,150.93
10441,0.5122,-0.7344,-0.6855,-1.221,4.395,28.503,-147.783,-20.896,151.188
10452,0.2192,-0.46,-0.7598,-1.221,4.395,28.503,-148.239,-20.566,151.534
10462,0.292,-0.394,-0.8643,-14.465,-31.494,-9.399,-148.475,-20.347,151.793
10481,0.4453,-0.3882,-0.8853,27.832,15.442,5.493,-148.074,-20.407,151.71
10521,0.3984,-0.5103,-0.7837,-9.827,2.38,-0.549,-147.469,-20.742,151.216
10532,0.3984,-0.5103,-0.7837,-10.254,-1.343,-1.221,-147.579,-20.737,151.232
10571,0.6152,-0.6382,-0.7798,16.724,24.78,20.813,-146.794,-21.127,150.386
10581,0.6152,-0.6382,-0.7798,16.724,24.78,20.813,-146.629,-21.022,150.183
10591,0.6152,-0.6382,-0.7798,-2.014,-2.808,23.254,-146.58,-20.874,149.996
10601,0.6152,-0.6382,-0.7798,-15.991,-5.676,18.799,-146.689,-20.72,149.859
10681,0.3745,-0.5103,-0.8604,-11.536,-22.522,-34.363,-147.541,-20.709,151.238
10700,0.3745,-0.5103,-0.8604,4.15,3.601,-8.667,-147.651,-20.852,151.545
10711,0.5381,-0.502,-0.9609,-0.244,3.662,-1.526,-147.651,-20.896,151.534
10721,0.4683,-0.4761,-0.8804,-14.709,-1.953,-0.793,-147.805,-20.88,151.556
10730,0.4683,-0.4761,-0.8804,-14.709,-1.953,-0.793,-148.145,-20.819,151.672
10740,0.3037,-0.5581,-0.6885,-35.889,-13.794,-12.634,-148.574,-20.77,151.864
10751,0.3135,-0.6494,-0.6514,-35.889,-13.794,-12.634,-148.854,-20.803,152.04
10770,0.4551,-0.7495,-0.6821,-0.061,11.536,-11.719,-148.343,-21.275,152.007
10780,0.4551,-0.7495,-0.6821,-0.061,11.536,-11.719,-147.942,-21.533,151.87
10791,0.4551,-0.7495,-0.6821,-0.061,11.536,-11.719,-147.739,-21.654,151.798
10810,0.3398,-0.4746,-0.9189,-5.066,-15.32,3.967,-147.991,-21.248,151.957
10831,0.2021,-0.2925,-0.832,9.827,3.967,8.118,-148.123,-20.94,151.87
10840,0.2021,-0.2925,-0.832,18.066,15.381,1.404,-148.002,-21.0,151.771
10850,0.2021,-0.2925,-0.832,18.066,15.381,1.404,-147.86,-21.193,151.721
10870,0.3242,-0.4917,-0.7314,8.423,15.991,-14.893,-147.568,-21.665,151.776
10890,0.4907,-0.6938,-0.791,-0.977,-1.099,-10.864,-147.469,-21.918,151.957
10910,0.5776,-0.5977,-1.0317,-1.343,-0.977,-0.549,-147.552,-21.978,152.067
10930,0.5776,-0.5977,-1.0317,4.15,8.85,19.348,-147.458,-22.022,151.721
10940,0.3242,-0.4409,-0.7085,4.15,8.85,19.348,-147.316,-21.929,151.425
10960,-0.0156,-0.4121,-0.4497,7.263,-10.742,18.982,-146.931,-21.204,151.1
10980,0.083,-0.5054,-0.5112,3.479,-18.677,-22.827,-146.7,-20.66,151.501
11029,0.8027,-0.3853,-1.2573,-4.761,4.883,15.869,-147.233,-21.264,152.216
11050,0.1201,-0.5508,-0.7285,25.513,23.132,37.17,-146.607,-21.226,151.348
11059,0.1201,-0.5508,-0.7285,25.513,23.132,37.17,-146.069,-21.286,150.875
11069,0.1201,-0.5508,-0.7285,25.513,23.132,37.17,-145.602,-21.429,150.463
11079,0.1523,-0.5278,-0.2788,25.513,23.132,37.17,-145.47,-21.506,150.337
11099,0.144,-0.4966,-0.2876,-22.156,-22.156,-18.25,-146.486,-21.253,151.309
11109,0.144,-0.4966,-0.2876,-47.791,-54.138,-56.213,-147.266,-21.11,152.133
11139,0.7749,-0.5923,-1.1392,-29.236,-41.138,-56.641,-147.854,-21.379,153.506
11149,0.9419,-0.5557,-1.2783,-29.236,-41.138,-56.641,-147.513,-21.627,153.276
11159,0.9419,-0.5557,-1.2783,14.099,20.447,19.531,-147.266,-21.698,152.985
11179,0.5205,-0.5972,-0.9473,-5.859,-4.456,23.499,-147.42,-21.297,152.644
11189,0.0352,-0.6108,-0.5835,-5.859,-4.456,23.499,-147.535,-21.105,152.523
11208,0.0625,-0.6011,-0.5112,1.038,-5.676,9.949,-147.343,-21.039,152.468
11219,0.0625,-0.6011,-0.5112,22.156,5.432,-12.451,-147.151,-21.154,152.551
11229,0.0625,-0.6011,-0.5112,14.587,-1.526,-21.057,-147.079,-21.253,152.748
11239,0.6426,-0.5435,-0.8896,-1.221,-13.794,-24.597,-147.2,-21.27,153.051
11269,0.4756,-0.4004,-1.083,-32.166,-36.377,-18.86,-148.2,-20.792,153.957
11288,0.3511,-0.5132,-0.8667,-32.166,-36.377,-18.86,-147.519,-20.841,153.314
11309,0.2983,-0.5059,-0.7451,12.878,16.174,20.752,-146.805,-20.962,152.562
11318,0.1792,-0.4458,-0.6509,12.878,16.174,20.752,-146.893,-20.929,152.529
11328,0.1792,-0.4458,-0.6509,-24.231,-9.46,-10.132,-147.189,-20.901,152.672
11349,0.4194,-0.5479,-0.8086,-0.061,4.333,-12.695,-147.48,-21.05,152.941
11368,0.4194,-0.5479,-0.8086,-0.061,4.333,-12.695,-146.942,-21.248,152.781
11378,0.374,-0.7378,-0.8618,-0.061,4.333,-12.695,-146.678,-21.204,152.71
11398,0.3809,-0.7056,-0.9019,-3.54,-15.015,-3.052,-146.695,-20.967,152.891
11408,0.5264,-0.5532,-0.8999,-10.01,-12.085,-4.761,-146.832,-20.891,153.007
11418,0.5264,-0.5532,-0.8999,-10.01,-12.085,-4.761,-146.882,-20.869,153.029
11438,0.6152,-0.3403,-0.8818,11.902,15.503,19.47,-146.547,-20.912,152.622
11467,0.1724,-0.3242,-0.5557,1.282,11.414,9.033,-146.135,-20.929,151.913
11488,0.2183,-0.6299,-0.4385,4.089,14.893,-5.249,-146.036,-21.313,151.968
11518,0.644,-0.7749,-0.7456,5.615,-17.456,-30.212,-146.223,-21.703,152.924
11528,0.644,-0.7749,-0.7456,5.615,-17.456,-30.212,-146.409,-21.638,153.243
11547,0.7148,-0.5332,-1.1255,-22.339,-33.325,0.732,-146.97,-21.154,153.699
11558,0.4536,-0.3398,-1.2808,-18.494,-18.677,10.071,-147.162,-20.945,153.721
11577,0.3618,-0.313,-1.228,7.019,35.828,25.818,-146.915,-21.088,153.051
11597,0.2349,-0.4092,-0.8174,17.212,50.537,29.358,-146.179,-21.605,151.93
11617,0.0615,-0.6177,-0.3613,-0.671,16.846,8.606,-145.849,-21.896,151.309
11637,0.2007,-0.6343,-0.4966,-15.991,-17.517,-34.058,-146.338,-21.967,151.87
11648,0.4492,-0.6611,-0.6563,-15.991,-17.517,-34.058,-146.497,-22.104,152.369
11657,0.4492,-0.6611,-0.6563,-15.991,-17.517,-34.058,-146.541,-22.308,152.809
11667,0.7979,-0.6289,-0.9292,12.268,-13.916,-27.039,-146.536,-22.473,153.133
11677,0.8354,-0.5444,-1.0586,8.606,-14.526,-9.888,-146.58,-22.533,153.309
11697,0.4951,-0.3921,-1.0864,-5.127,-13.306,18.372,-146.832,-22.247,153.243
11717,0.1909,-0.4229,-0.8579,-1.953,7.141,16.663,-147.003,-21.885,152.897
11727,0.1914,-0.5093,-0.7104,10.925,22.278,13.794,-146.772,-21.901,152.644
11737,0.1914,-0.5093,-0.7104,10.925,22.278,13.794,-146.376,-22.061,152.358
11766,0.4473,-0.5864,-0.6582,-10.254,-1.831,-2.869,-146.019,-22.462,152.111
11787,0.313,-0.5391,-0.7964,-12.817,-10.864,-3.174,-146.25,-22.286,152.26
11806,0.3501,-0.6152,-0.7749,10.986,4.517,0.427,-145.728,-22.39,152.139
11827,0.4595,-0.7061,-0.6733,7.202,-7.629,-3.418,-145.256,-22.489,152.161
11846,0.563,-0.5112,-0.874,-23.315,-24.17,-3.967,-145.959,-22.297,152.523
11857,0.563,-0.5112,-0.874,-23.315,-24.17,-3.967,-146.42,-22.11,152.617
11876,0.563,-0.5112,-0.874,9.277,26.855,12.878,-146.618,-22.137,152.276
11886,0.563,-0.5112,-0.874,9.277,26.855,12.878,-146.195,-22.412,151.804
11916,0.3672,-0.7026,-0.5469,-5.798,11.047,8.972,-144.932,-22.934,150.705
11936,0.4692,-0.6187,-0.748,-21.851,-5.798,-3.784,-145.366,-22.934,150.963
11976,0.6221,-0.3247,-1.0859,-20.386,20.569,20.447,-146.937,-23.516,150.864
11986,0.6221,-0.3247,-1.0859,-8.85,25.269,36.133,-146.909,-23.494,150.381
11996,0.6221,-0.3247,-1.0859,-8.85,25.269,36.133,-146.585,-23.373,149.81
12026,-0.0366,-0.668,-0.21,-8.85,25.269,36.133,-144.706,-22.742,148.969
12046,0.4731,-0.7568,-0.3901,12.207,-10.681,-20.508,-144.146,-22.758,149.705
12065,0.6978,-0.6382,-0.6328,-5.005,-36.682,-46.143,-144.844,-22.874,151.068
12086,0.7505,-0.3735,-1.062,-10.864,-43.091,-17.517,-145.844,-22.571,152.1
12095,0.6436,-0.3682,-1.2534,-10.864,-43.091,-17.517,-146.118,-22.407,152.254
12105,0.6436,-0.3682,-1.2534,-10.864,-43.091,-17.517,-146.107,-22.324,152.089
12126,0.2788,-0.4746,-0.8633,15.32,33.447,38.452,-145.58,-22.352,151.106
12135,0.2788,-0.4746,-0.8633,6.409,23.193,33.691,-145.349,-22.242,150.661
12145,0.0996,-0.5176,-0.6084,-4.15,14.16,23.926,-145.217,-22.072,150.364
12156,0.0996,-0.5176,-0.6084,-9.949,8.423,9.46,-145.162,-21.962,150.227
12175,0.2822,-0.5815,-0.5796,-9.949,8.423,9.46,-145.256,-22.143,150.375
12196,0.5981,-0.5479,-0.8354,-4.944,-3.418,-20.752,-145.475,-22.478,150.71
12215,0.4761,-0.5688,-0.7427,-11.597,-9.094,0.366,-145.706,-22.56,150.848
12235,0.4199,-0.644,-0.7134,5.737,1.16,15.686,-145.448,-22.385,150.677
12245,0.4199,-0.644,-0.7134,5.737,1.16,15.686,-145.096,-22.346,150.507
12255,0.4199,-0.644,-0.7134,10.864,-3.967,7.019,-144.855,-22.302,150.469
12285,0.5679,-0.5464,-0.9219,-31.921,-34.18,-13.062,-146.091,-21.879,151.26
12305,0.4595,-0.2622,-1.0879,-10.742,-3.662,19.653,-146.882,-21.478,151.232
12325,0.4595,-0.2622,-1.0879,36.133,39.49,36.743,-146.124,-21.451,150.233
12345,0.4595,-0.2622,-1.0879,32.471,40.833,16.479,-144.882,-21.813,149.299
12364,0.3799,-0.6509,-0.6792,-2.075,4.517,-5.31,-144.564,-22.072,149.139
12385,0.4321,-0.5156,-0.8213,-2.625,-6.592,0.122,-144.75,-22.05,149.282
12404,0.4321,-0.5156,-0.8213,21.484,10.681,23.987,-144.377,-21.989,148.892
12415,0.4102,-0.5225,-0.833,21.484,10.681,23.987,-144.064,-21.934,148.557
12434,0.4077,-0.4927,-0.8247,5.859,12.878,21.912,-143.745,-21.857,147.964
12455,0.4097,-0.4775,-0.8706,-10.559,18.555,4.333,-143.948,-22.022,147.645
12474,0.4165,-0.4243,-0.8433,-2.197,27.527,10.376,-143.998,-22.39,147.173
12524,0.2915,-0.7002,-0.5386,2.258,-6.714,-0.488,-142.756,-22.011,146.667
12544,0.5156,-0.6592,-0.7612,-18.555,-28.32,-40.71,-143.712,-22.253,147.816
12554,0.8203,-0.3872,-1.1826,-18.555,-28.32,-40.71,-144.404,-22.429,148.321
12573,0.7759,-0.3013,-1.2461,-26.672,-5.005,-13.916,-145.486,-22.681,148.629
12584,0.7075,-0.356,-1.2178,-17.456,17.944,16.785,-145.739,-22.797,148.37
12604,0.3501,-0.5625,-0.8857,30.579,67.322,64.697,-144.849,-23.088,146.678
12613,0.3501,-0.5625,-0.8857,30.579,67.322,64.697,-144.075,-23.17,145.723
12634,0.2085,-0.7456,-0.6772,8.24,45.837,25.452,-143.053,-23.351,144.47
12653,0.2754,-0.6465,-0.5942,8.24,45.837,25.452,-142.8,-23.593,143.959
12663,0.3257,-0.5908,-0.5747,-10.803,10.071,3.479,-142.784,-23.632,143.86
12674,0.3257,-0.5908,-0.5747,-5.127,5.981,4.944,-142.712,-23.637,143.778
12723,0.3687,-0.6055,-0.6025,-6.409,-23.193,-3.662,-142.383,-23.121,143.921
12733,0.3687,-0.6055,-0.6025,-6.409,-23.193,-3.662,-142.608,-23.005,144.196
12763,0.5718,-0.4121,-0.9043,-21.851,-26.917,-10.254,-144.02,-22.703,145.195
12773,0.5771,-0.251,-1.0747,-13.794,-14.465,2.869,-144.415,-22.621,145.261
12783,0.5771,-0.251,-1.0747,-0.183,6.348,18.738,-144.558,-22.615,145.058
12803,0.3145,-0.4858,-0.7437,-0.183,6.348,18.738,-143.899,-22.725,143.965
12832,0.1411,-0.7202,-0.4404,26.184,37.17,21.729,-142.114,-22.819,142.806
12843,0.1411,-0.7202,-0.4404,5.676,-5.554,-15.808,-141.795,-22.72,142.982
12853,0.1411,-0.7202,-0.4404,-2.014,-27.344,-34.119,-141.674,-22.604,143.454
12863,0.3721,-0.8506,-0.4316,-5.859,-43.884,-48.34,-141.751,-22.549,144.163
12872,0.3721,-0.8506,-0.4316,-5.676,-56.458,-54.443,-142.015,-22.533,145.003
12883,0.3721,-0.8506,-0.4316,-0.488,-53.162,-47.668,-142.333,-22.533,145.761
12893,0.3721,-0.8506,-0.4316,-0.488,-53.162,-47.668,-142.822,-22.5,146.398
12912,0.3721,-0.8506,-0.4316,-0.488,-53.162,-47.668,-143.921,-22.044,147.222
12933,0.3926,-0.2983,-1.0356,16.968,37.476,28.748,-143.981,-22.033,146.635
12942,0.3926,-0.2983,-1.0356,16.968,37.476,28.748,-143.553,-22.22,145.992
12962,0.1538,-0.5591,-0.5146,16.968,37.476,28.748,-142.344,-22.407,144.992
12982,0.0684,-0.7856,-0.2412,16.968,37.476,28.748,-141.548,-22.214,145.102
13022,0.8154,-0.5024,-1.0454,-10.986,-39.49,-46.448,-142.773,-22.115,148.03
13042,0.8145,-0.4238,-1.1401,-20.996,-45.593,-15.808,-143.839,-21.912,148.997
13062,0.8145,-0.4238,-1.1401,-7.874,-16.846,15.503,-144.338,-21.379,149.172
13072,0.8145,-0.4238,-1.1401,0.0,-7.751,16.296,-144.278,-21.121,149.073
13112,0.5278,-0.4058,-0.793,-19.409,-10.986,-22.705,-145.08,-21.055,149.777
13131,0.6001,-0.3755,-0.8452,-19.409,-10.986,-22.705,-145.959,-21.319,150.216
13152,0.5796,-0.4727,-0.9521,-4.089,21.301,13.489,-146.173,-21.594,149.947
13171,0.5303,-0.4922,-0.9683,-8.484,33.63,27.283,-146.091,-21.918,149.095
13192,0.2905,-0.4683,-0.7778,-20.813,25.208,21.973,-146.288,-22.028,148.359
13201,0.2905,-0.4683,-0.7778,-20.813,25.208,21.973,-146.288,-22.159,147.991
13211,0.2905,-0.4683,-0.7778,-4.761,40.466,17.578,-146.096,-22.396,147.59
13222,0.3828,-0.6553,-0.6206,-4.761,40.466,17.578,-145.844,-22.626,147.261
13241,0.5151,-0.6968,-0.6538,-4.456,24.719,9.277,-145.432,-23.049,146.766
13261,0.5229,-0.6895,-0.6421,-21.912,-6.226,9.583,-145.47,-23.11,146.53
13271,0.4648,-0.5996,-0.7065,-21.912,-6.226,9.583,-145.679,-22.956,146.558
13281,0.4561,-0.4839,-0.8003,-29.297,-9.705,12.451,-145.975,-22.835,146.503
13301,0.3784,-0.314,-0.897,-15.747,6.958,17.883,-146.492,-22.709,146.146
13311,0.3784,-0.314,-0.897,-15.747,6.958,17.883,-146.646,-22.731,145.876
13321,0.3784,-0.314,-0.897,-7.446,29.907,18.25,-146.678,-22.868,145.536
13331,0.3789,-0.4448,-0.7944,-7.446,29.907,18.25,-146.635,-23.066,145.168
13351,0.3608,-0.521,-0.7539,-17.944,22.766,7.69,-146.662,-23.351,144.662
13361,0.3418,-0.6001,-0.6694,-20.935,21.057,4.7,-146.717,-23.472,144.492
13371,0.3418,-0.6001,-0.6694,-19.836,19.165,2.747,-146.755,-23.61,144.355
13391,0.4458,-0.6743,-0.6846,-15.747,16.602,3.357,-146.755,-23.912,144.091
13430,0.5635,-0.4038,-1.0347,-32.471,9.216,26.611,-147.48,-24.324,143.196
13441,0.4727,-0.3296,-1.0342,-32.471,9.216,26.611,-147.7,-24.285,142.773
13460,0.3301,-0.313,-0.96,-16.296,27.954,40.894,-147.733,-24.214,141.619
13501,0.1475,-0.3945,-0.771,-4.15,26.062,9.46,-147.266,-24.252,139.922
13521,0.2705,-0.5781,-0.6509,-7.08,11.902,-11.414,-147.2,-24.401,139.85
13540,0.4258,-0.6367,-0.6665,-9.277,-4.333,-18.555,-147.288,-24.565,140.18
13570,0.5928,-0.6416,-0.8203,-9.277,-4.333,-18.555,-147.805,-24.648,140.839
13590,0.8066,-0.2339,-1.2603,-23.743,-0.977,1.587,-148.612,-24.747,140.96
13599,0.8066,-0.2339,-1.2603,-23.743,-0.977,1.587,-149.09,-24.763,140.795
13610,0.4805,0.0469,-1.144,-23.743,-0.977,1.587,177.649,-24.763,140.466
13620,0.2847,-0.0332,-0.9556,-23.743,-0.977,1.587,-178.006,-25.032,140.076
13639,0.0938,-0.439,-0.5186,29.236,52.673,35.217,-176.633,-25.697,139.186
13650,0.0835,-0.645,-0.3608,25.391,47.241,19.958,-175.699,-25.961,138.939
13660,0.0835,-0.645,-0.3608,15.747,32.593,1.282,-174.842,-26.082,138.895
13679,0.1709,-0.9185,-0.1943,15.747,32.593,1.282,-173.721,-25.686,139.488
13690,0.376,-0.8984,-0.3057,-14.038,-28.137,-42.847,-173.425,-25.417,139.993
13700,0.6157,-0.8149,-0.5151,-14.038,-28.137,-42.847,-173.326,-25.164,140.526
13719,0.8901,-0.6436,-0.8394,-14.038,-28.137,-42.847,-174.078,-24.527,141.449
13729,0.96,-0.1196,-1.3135,-14.038,-28.137,-42.847,-174.639,-24.142,141.658
13749,0.6128,0.0044,-1.2866,-26.55,2.075,23.926,179.16,-23.923,141.356
13779,0.1646,-0.3101,-0.7764,14.648,37.415,45.227,-173.221,-24.851,139.938
13789,0.1646,-0.3101,-0.7764,17.151,28.259,20.02,-172.941,-25.109,139.686
13819,0.2158,-0.752,-0.4561,4.211,13.672,-2.502,-173.447,-25.159,140.356
13829,0.2158,-0.752,-0.4561,-20.691,-17.151,-36.255,-173.831,-25.032,140.773
13879,0.6113,-0.2368,-1.2222,19.714,4.272,38.391,-173.93,-24.604,140.537
13889,0.3198,-0.3818,-0.9502,19.714,4.272,38.391,-173.452,-24.686,140.054
13909,0.2656,-0.5151,-0.689,16.907,10.864,23.682,-172.716,-24.873,139.356
13938,0.3867,-0.6016,-0.5801,1.16,-3.418,-7.751,-172.661,-24.862,139.389
13959,0.5967,-0.6646,-0.6821,10.62,-2.014,1.099,-172.502,-24.829,139.427
13978,0.7266,-0.6445,-0.8096,-1.648,-4.089,11.108,-172.375,-24.736,139.252
13989,0.7139,-0.3765,-1.0098,-1.648,-4.089,11.108,-172.375,-24.659,139.054
13999,0.7139,-0.3765,-1.0098,-7.874,-1.77,27.344,-172.332,-24.604,138.757
14028,0.415,-0.3496,-0.897,12.634,29.968,39.368,-171.568,-25.082,137.422
14048,0.4297,-0.606,-0.7666,5.859,31.067,24.597,-171.079,-25.62,136.681
14068,0.5933,-0.5522,-0.8257,-7.141,33.081,17.395,-170.947,-26.191,136.176
14088,0.5933,-0.5522,-0.8257,-9.399,39.368,30.151,-170.826,-26.856,135.472
14098,0.479,-0.4058,-0.6694,-9.399,39.368,30.151,-170.629,-27.208,134.934
14138,-0.2451,-0.5811,-0.2891,11.78,-7.568,12.634,-169.459,-27.697,133.099
14178,1.0425,-0.4771,-1.0273,-34.79,-42.603,-86.792,-171.244,-26.818,136.049
14187,1.0425,-0.4771,-1.0273,-49.377,-42.358,-66.895,-172.106,-26.499,136.862
14197,1.1768,-0.0283,-1.4644,-49.805,-31.433,-29.846,-172.771,-26.23,137.241
14208,1.0366,0.0181,-1.4873,-49.805,-31.433,-29.846,179.302,-26.153,137.109
14227,0.5664,-0.1406,-1.2217,-49.805,-31.433,-29.846,-178.314,-26.862,135.72
14237,0.3252,-0.251,-0.978,-49.805,-31.433,-29.846,-177.649,-27.416,134.808
14248,0.1538,-0.3623,-0.7734,26.489,59.021,68.237,-177.017,-27.977,134.017
14267,0.1538,-0.3623,-0.7734,6.409,44.617,21.362,-176.391,-28.922,133.193
14297,0.1562,-0.7725,-0.2749,-5.554,16.235,-22.949,-176.715,-29.718,133.566
14307,0.1562,-0.7725,-0.2749,-5.371,6.165,-26.062,-176.913,-29.795,133.863
14337,0.6201,-0.8154,-0.562,-18.616,-11.719,-32.41,-178.061,-29.531,134.984
14347,0.959,-0.5444,-0.958,-42.542,-16.724,-32.593,-178.676,-29.377,135.363
14357,0.9292,-0.353,-1.1079,-42.542,-16.724,-32.593,-179.28,-29.207,135.621
14397,0.3735,-0.2383,-1.082,7.141,30.334,47.058,-179.396,-29.674,134.429
14406,0.3735,-0.2383,-1.082,7.141,30.334,47.058,-178.973,-29.982,133.912
14417,0.3735,-0.2383,-1.082,23.56,32.959,33.63,-178.544,-30.306,133.517
14427,0.1636,-0.6089,-0.6357,23.56,32.959,33.63,-178.198,-30.575,133.297
14467,0.5474,-0.6802,-0.5728,2.563,-6.653,-23.499,-178.292,-30.575,134.011
14486,0.9062,-0.4307,-0.9043,-21.362,-18.555,-16.296,-178.89,-30.218,134.506
14507,0.8315,-0.2017,-1.125,-19.104,-2.686,16.602,-179.231,-30.053,134.335
14516,0.8315,-0.2017,-1.125,-19.104,-2.686,16.602,-179.149,-30.179,133.978
14526,0.5054,-0.2227,-0.9497,3.235,26.978,41.565,-178.874,-30.443,133.495
14556,-0.0522,-0.5693,-0.4697,3.235,26.978,41.565,-177.66,-30.981,132.138
14576,-0.1011,-0.6885,-0.3848,17.395,-6.958,-19.47,-177.391,-30.921,132.314
14596,-0.1011,-0.6885,-0.3848,2.258,-13.489,-53.284,-177.797,-30.707,133.401
14606,0.9658,-0.7188,-0.8589,2.258,-13.489,-53.284,-178.275,-30.575,134.088
14616,1.123,-0.4932,-1.0581,2.258,-13.489,-53.284,-178.808,-30.372,134.637
14625,1.123,-0.4932,-1.0581,2.258,-13.489,-53.284,-179.236,-30.157,134.89
14636,1.123,-0.4932,-1.0581,2.258,-13.489,-53.284,-179.385,-30.075,134.791
14686,0.1274,-0.4229,-0.6274,15.503,20.081,14.221,-177.512,-31.212,132.578
14705,0.1021,-0.5835,-0.4658,2.014,5.127,-24.048,-177.589,-31.388,132.946
14716,0.4619,-0.6675,-0.5474,2.014,5.127,-24.048,-177.825,-31.432,133.308
14726,0.6528,-0.6343,-0.6606,2.014,5.127,-24.048,-178.099,-31.443,133.643
14745,0.7373,-0.5728,-0.8101,-14.771,-5.371,-5.371,-178.533,-31.355,133.923
14766,0.6865,-0.4556,-0.9707,-6.836,-0.061,12.939,-178.605,-31.317,133.698
14785,0.6865,-0.4556,-0.9707,2.319,-0.916,11.169,-178.44,-31.306,133.401
14815,0.2969,-0.5347,-0.6782,9.46,-7.813,-1.221,-178.165,-31.157,133.314
14835,0.2212,-0.6782,-0.5161,11.658,-21.973,-6.348,-178.0,-30.795,133.434
14875,0.7827,-0.4507,-0.8999,-5.798,-19.409,-11.719,-178.429,-29.894,134.286
14895,0.8105,-0.311,-1.0586,-5.798,-19.409,-11.719,-178.451,-29.597,134.253
14924,0.437,-0.2622,-0.875,10.681,4.211,15.32,-178.022,-29.531,133.797
14945,0.3174,-0.5503,-0.585,10.681,4.211,15.32,-177.665,-29.773,133.566
14964,0.354,-0.6196,-0.5591,-5.371,3.967,-7.446,-177.726,-29.932,133.654
14985,0.4297,-0.6001,-0.6406,-16.296,-10.62,-12.817,-178.16,-29.784,133.94
15004,0.4297,-0.6001,-0.6406,-10.742,-11.292,-12.024,-178.566,-29.553,134.242
15015,0.5752,-0.4536,-0.8032,-10.742,-11.292,-12.024,-178.693,-29.471,134.352
15025,0.5752,-0.4536,-0.8032,-4.211,-5.798,-4.211,-178.759,-29.416,134.401
15034,0.5752,-0.4536,-0.8032,-4.211,-5.798,-4.211,-178.775,-29.361,134.385
15044,0.4355,-0.5117,-0.8457,-1.892,-7.263,7.874,-178.753,-29.29,134.291
15074,0.3203,-0.4717,-0.8628,-2.319,-12.024,-6.653,-178.781,-28.954,134.236
15084,0.397,-0.3857,-0.9126,-3.418,-14.099,-17.578,-178.912,-28.817,134.44
15094,0.5396,-0.3862,-0.9844,-3.418,-14.099,-17.578,-179.105,-28.702,134.742
15114,0.688,-0.3682,-1.0869,-5.737,-11.719,-23.437,-179.511,-28.482,135.346
15134,0.5176,-0.4551,-1.0142,-1.343,-11.719,-10.803,-179.044,-28.229,135.434
15154,0.3442,-0.5435,-0.9004,-1.343,-11.719,-10.803,-177.693,-27.751,135.099
15194,0.2061,-0.709,-0.5464,15.32,-37.964,-28.87,-175.073,-26.257,135.659
15244,0.9116,-0.3604,-1.1787,37.964,-28.625,-17.883,-173.029,-24.725,137.192
15263,0.8213,-0.0713,-1.2114,1.831,-33.081,10.132,173.815,-24.164,137.164
15293,0.0537,0.0503,-0.7671,45.654,30.945,7.507,-159.324,-23.862,136.752
15303,0.0537,0.0503,-0.7671,61.462,46.509,-4.578,-158.318,-24.077,136.62
15314,0.0859,-0.8086,-0.2578,61.462,46.509,-4.578,-157.17,-24.395,136.62
15333,0.2246,-1.0303,-0.2095,61.462,46.509,-4.578,-155.242,-25.005,137.269
15354,0.8437,-1.105,-0.6089,32.227,-3.235,-62.256,-154.6,-25.291,138.763
15373,1.0483,-0.6992,-1.1362,-0.549,-63.416,-38.147,-155.253,-24.598,140.345
15403,0.7109,-0.1909,-1.2695,-3.052,-46.875,23.865,-155.627,-22.917,140.927
15443,0.083,-0.4043,-0.4404,23.315,0.488,23.743,-173.936,-22.89,140.405
15463,0.2241,-0.6182,-0.4185,18.616,11.597,-36.133,-173.727,-23.214,141.015
15483,0.7461,-0.8276,-0.6211,18.616,11.597,-36.133,-173.969,-23.181,141.877
15512,0.7134,-0.6138,-0.8989,-10.742,-36.194,-8.484,-174.38,-22.247,142.3
15522,0.4922,-0.3677,-1.0557,-10.742,-36.194,-8.484,-174.441,-21.984,142.24
15533,0.3906,-0.3257,-1.0239,-10.742,-36.194,-8.484,-174.364,-21.868,142.125
15552,0.189,-0.3945,-0.8872,11.536,0.854,14.221,-173.979,-21.885,141.801
15562,0.189,-0.3945,-0.8872,11.719,1.16,12.268,-173.815,-21.885,141.669
15573,0.1182,-0.4009,-0.8887,1.77,-5.859,2.93,-173.787,-21.824,141.641
15592,0.1182,-0.4009,-0.8887,-7.874,-13.916,-9.888,-174.062,-21.599,141.993
15613,0.3164,-0.354,-0.875,27.527,16.785,-17.822,-173.87,-21.808,142.416
15622,0.3164,-0.354,-0.875,27.527,16.785,-17.822,-173.452,-22.148,142.476
15662,0.394,-1.0767,-0.3887,31.921,8.667,7.69,-171.887,-22.83,142.207
15682,0.5039,-0.9424,-0.5371,5.432,-36.499,-19.226,-172.123,-22.126,142.883
15702,0.6968,-0.7246,-0.6938,5.432,-36.499,-19.226,-172.694,-21.423,143.784
15722,0.5811,-0.0698,-1.1406,-7.874,-43.091,-12.512,-173.106,-20.583,144.3
15731,0.5811,-0.0698,-1.1406,-7.874,-43.091,-12.512,-173.002,-20.413,144.311
15742,0.2822,-0.2104,-1.043,37.109,16.479,7.935,-172.595,-20.566,144.201
15752,0.2212,-0.3916,-0.9399,37.109,16.479,7.935,-171.914,-21.138,144.003
15782,0.4912,-0.9019,-0.4756,76.66,113.342,16.296,-169.321,-24.741,142.905
15792,0.5581,-1.0312,-0.4141,76.66,113.342,16.296,-168.712,-25.505,142.762
15811,0.5957,-1.0239,-0.4297,76.66,113.342,16.296,-168.157,-25.34,143.328
15821,0.7163,-0.9277,-0.5625,30.029,-3.235,-3.113,-167.871,-25.312,143.372
15832,0.7163,-0.9277,-0.5625,41.626,-12.329,8.179,-167.432,-25.175,143.311
15851,0.4819,-0.5957,-0.6108,41.626,-12.329,8.179,-166.855,-24.39,142.971
15881,0.1123,-0.2969,-0.6006,19.714,-24.231,11.414,-166.262,-23.555,142.866
15891,0.0767,-0.1914,-0.5972,9.949,-19.775,-23.01,-166.24,-23.253,143.163
15912,0.2275,-0.2637,-0.6323,25.024,18.921,-43.518,-165.883,-23.648,143.976
15931,0.2275,-0.2637,-0.6323,16.907,3.967,-35.217,-165.13,-24.417,144.745
15952,0.5811,-0.8086,-0.5659,4.578,-28.503,-13.611,-164.41,-24.252,145.256
15971,0.5332,-0.7979,-0.6489,2.625,-42.603,-14.954,-163.834,-23.637,145.761
15981,0.5591,-0.7588,-0.6943,2.625,-42.603,-14.954,-163.575,-23.346,146.074
15991,0.5591,-0.7588,-0.6943,13.245,-37.903,-16.174,-163.268,-23.093,146.36
16001,0.5591,-0.7588,-0.6943,13.245,-37.903,-16.174,-162.911,-22.841,146.563
16030,0.2388,-0.4014,-0.8223,26.55,-23.621,-1.16,-161.938,-21.775,146.805
16041,0.2388,-0.4014,-0.8223,34.058,-5.737,-12.024,-161.537,-21.638,146.948
16061,0.354,-0.6714,-0.7197,54.993,-9.766,-32.959,-160.334,-21.693,147.535
16070,0.354,-0.6714,-0.7197,54.993,-9.766,-32.959,-159.598,-21.495,148.013
16081,0.2905,-0.5156,-0.7051,67.749,-53.955,-32.043,-158.956,-21.077,148.541
16091,0.2544,-0.4077,-0.7422,67.749,-53.955,-32.043,-158.5,-20.632,149.068
16110,0.4292,-0.4551,-0.6738,56.58,-5.676,-41.687,-157.56,-20.561,150.029
16131,0.6987,-0.6392,-0.6333,49.866,41.809,-29.236,-156.11,-21.808,150.43
16150,1.2334,-1.1875,-0.4609,49.866,41.809,-29.236,-155.325,-22.78,149.875
16160,1.1035,-1.2358,-0.3823,49.866,41.809,-29.236,-155.176,-22.863,149.414
16180,0.8398,-1.145,-0.3286,-62.195,-10.559,51.392,-155.759,-22.368,148.486
16210,-0.0264,-0.2041,-0.4512,-66.04,-9.888,36.316,179.55,-21.797,147.546
16220,-0.0015,0.0229,-0.5005,-66.04,-9.888,36.316,179.5,-22.126,147.53
16230,0.2354,-0.1152,-0.5098,-66.04,-9.888,36.316,-167.261,-22.632,147.64
16250,0.4927,-0.3418,-0.4927,75.195,36.987,-21.118,-165.965,-23.577,147.827
16260,0.4927,-0.3418,-0.4927,63.599,11.047,-24.414,-165.421,-23.741,148.057
16289,0.7813,-1.0762,-0.4243,63.599,11.047,-24.414,-164.713,-23.346,148.821
16310,0.7476,-1.0596,-0.4595,-13.977,-65.125,-16.113,-165.125,-22.297,149.496
16319,0.5703,-0.6655,-0.6318,-13.977,-65.125,-16.113,-165.586,-21.55,149.881
16340,0.1812,-0.2241,-0.7896,-32.593,-88.623,-14.893,-166.388,-20.045,150.584
16359,0.2197,-0.2559,-0.791,5.798,-20.081,-9.033,-166.498,-19.462,150.925
16369,0.2197,-0.2559,-0.791,5.798,-20.081,-9.033,-166.487,-19.363,151.089
16399,0.4707,-0.7471,-0.6563,-6.653,-19.104,-20.752,-166.849,-18.924,151.886
16420,0.5635,-0.8535,-0.5347,-2.563,-20.081,-13.123,-166.97,-18.545,152.161
16459,0.4512,-0.5493,-0.6758,-16.479,-34.912,-2.686,-167.618,-17.298,152.419
16479,0.4512,-0.5493,-0.6758,-16.479,-34.912,-2.686,-167.805,-16.738,152.699
16509,0.3203,-0.6001,-0.6772,5.554,1.953,-0.427,-167.635,-16.639,152.787
16519,0.3203,-0.7725,-0.4751,0.061,-1.343,-4.395,-167.651,-16.633,152.836
16529,0.3643,-0.8457,-0.4272,0.061,-1.343,-4.395,-167.712,-16.606,152.957
16549,0.4746,-0.8975,-0.46,-1.892,-16.357,-20.386,-167.877,-16.43,153.391
16569,0.6748,-0.8296,-0.7324,-9.521,-32.837,-19.043,-168.173,-15.936,153.94
16588,0.6748,-0.8296,-0.7324,-17.456,-36.316,0.732,-168.563,-15.271,154.177
16609,0.2246,-0.4121,-0.7881,-13.794,-32.959,7.141,-168.706,-14.766,154.078
16639,0.2993,-0.8062,-0.4102,20.752,13.245,6.226,-168.14,-15.068,153.853
16658,0.4873,-0.811,-0.4219,20.752,13.245,6.226,-168.113,-15.161,154.116
16679,0.4902,-0.7529,-0.5195,-7.019,-39.368,-13.855,-168.354,-14.557,154.567
16719,0.4502,-0.3296,-1.0312,-6.104,-7.019,-8.484,-168.64,-13.705,155.16
16768,0.2349,-0.7095,-0.5156,-4.517,14.587,-1.282,-166.904,-14.897,154.655
16788,0.3584,-0.8608,-0.3364,8.911,25.146,3.845,-165.707,-15.381,154.594
16808,0.5347,-0.8257,-0.4556,-19.47,13.794,-15.381,-165.251,-16.078,154.83
16828,0.7842,-0.7593,-0.71,-6.47,-23.865,-3.723,-164.927,-16.271,155.023
16848,0.6509,-0.7686,-0.9414,-6.47,-23.865,-3.723,-164.399,-15.623,155.165
16868,0.2773,-0.3179,-0.9053,-2.441,-42.969,11.841,-164.213,-14.793,155.165
16877,0.2104,-0.2578,-0.8877,-2.441,-42.969,11.841,-164.29,-14.491,155.132
16917,0.3701,-0.6221,-0.6504,9.46,56.458,10.01,-163.07,-15.996,154.319
16927,0.4761,-0.9917,-0.4707,9.46,56.458,10.01,-162.334,-16.414,154.012
16938,0.4761,-0.9917,-0.4707,8.362,23.315,20.63,-161.675,-16.633,153.732
16957,0.4458,-1.0039,-0.4458,-17.212,-22.156,4.089,-160.972,-16.485,153.633
16978,0.5591,-0.772,-0.6372,-16.724,-43.091,-5.737,-160.933,-16.035,154.006
16988,0.4844,-0.562,-0.8154,-5.249,-41.87,0.061,-160.867,-15.743,154.149
16997,0.4844,-0.562,-0.8154,-5.249,-41.87,0.061,-160.697,-15.496,154.16
17047,0.2964,-0.4775,-0.6899,-5.432,6.897,5.798,-160.203,-15.436,153.671
17087,0.3521,-0.7202,-0.4507,11.475,20.996,-6.653,-158.39,-16.908,153.452
17107,0.5234,-0.7852,-0.5239,-2.197,8.362,-6.592,-157.714,-17.463,153.474
17136,0.686,-0.7959,-0.7202,-6.409,-18.555,5.005,-157.275,-17.567,153.666
17147,0.686,-0.7959,-0.7202,0.916,-18.066,12.451,-157.061,-17.43,153.616
17176,0.1338,-0.2891,-0.813,-1.038,-12.451,17.578,-156.863,-16.82,153.309
17237,0.4893,-0.8223,-0.5635,15.564,29.663,-1.526,-155.198,-18.49,152.507
17246,0.4893,-0.8223,-0.5635,9.766,16.174,-0.427,-154.693,-18.693,152.435
17256,0.4893,-0.8223,-0.5635,2.38,4.944,1.404,-154.27,-18.809,152.402
17277,0.623,-0.8032,-0.6221,-11.414,-23.499,3.052,-153.847,-18.704,152.496
17286,0.623,-0.8032,-0.6221,-11.414,-23.499,3.052,-153.929,-18.517,152.622
17296,0.623,-0.8032,-0.6221,-20.081,-42.297,4.272,-154.166,-18.193,152.776
17306,0.2964,-0.3569,-0.9541,-20.081,-42.297,4.272,-154.391,-17.831,152.913
17326,0.2471,-0.4497,-0.8545,-20.081,-42.297,4.272,-154.336,-17.759,152.831
17346,0.2515,-0.6357,-0.5898,9.155,29.175,0.977,-153.704,-18.204,152.529
17366,0.2515,-0.6357,-0.5898,9.155,29.175,0.977,-152.974,-18.71,152.353
17386,0.5215,-0.7607,-0.5757,0.366,4.15,-6.592,-152.419,-19.1,152.386
17395,0.5215,-0.7607,-0.5757,0.366,4.15,-6.592,-152.205,-19.199,152.446
17406,0.5215,-0.7607,-0.5757,3.967,-7.263,-2.869,-152.012,-19.248,152.507
17416,0.5186,-0.707,-0.6807,3.967,-7.263,-2.869,-151.82,-19.226,152.567
17435,0.4351,-0.7036,-0.6294,0.305,-24.536,0.0,-151.463,-18.918,152.792
17446,0.4351,-0.7036,-0.6294,-0.488,-21.667,-1.587,-151.287,-18.781,152.913
17456,0.4351,-0.7036,-0.6294,-2.869,-21.667,-5.554,-151.199,-18.677,153.078
17475,0.438,-0.4492,-0.9917,-22.766,-26.062,-10.437,-151.639,-18.457,153.495
17505,0.1982,-0.2734,-1.021,2.075,17.151,0.732,-152.419,-18.144,153.715
17525,0.2432,-0.6421,-0.5781,22.827,40.71,2.197,-151.436,-18.935,153.138
17545,0.4297,-0.9282,-0.2876,27.832,54.26,0.549,-149.788,-20.078,152.457
17565,0.6348,-0.9775,-0.2295,1.892,6.653,-8.484,-148.623,-20.676,152.358
17615,0.4214,-0.1934,-1.0737,-2.502,-25.635,5.31,-149.98,-19.572,153.693
17625,0.4214,-0.1934,-1.0737,16.052,3.54,10.254,-149.875,-19.539,153.578
17654,0.3472,-0.8745,-0.4927,13.916,29.175,13.672,-148.365,-20.292,152.534
17715,0.6162,-0.7539,-0.5327,4.272,-18.127,-13.245,-146.503,-20.704,152.688
17724,0.6162,-0.7539,-0.5327,4.272,-18.127,-13.245,-146.602,-20.682,152.919
17774,0.2759,-0.4067,-0.77,7.385,23.01,15.564,-147.48,-19.589,153.045
17785,0.2759,-0.4067,-0.77,7.385,23.01,15.564,-147.151,-19.962,152.655
17795,0.4087,-0.6431,-0.5601,7.385,23.01,15.564,-146.777,-20.385,152.298
17804,0.4429,-0.7607,-0.5552,7.385,23.01,15.564,-146.437,-20.759,152.007
17814,0.4995,-0.8262,-0.5762,-2.563,37.842,4.456,-146.157,-21.105,151.743
17824,0.4995,-0.8262,-0.5762,-8.484,33.875,7.446,-145.948,-21.401,151.479
17834,0.5811,-0.8291,-0.6479,-8.484,33.875,7.446,-145.767,-21.66,151.183
17844,0.624,-0.8184,-0.667,-12.878,27.039,18.738,-145.607,-21.868,150.853
17864,0.4683,-0.7134,-0.6201,-15.442,12.878,30.64,-145.349,-21.962,150.156
17874,0.4683,-0.7134,-0.6201,-15.442,12.878,30.64,-145.239,-21.824,149.837
17894,0.3442,-0.6533,-0.5942,-7.813,7.202,30.701,-144.855,-21.599,149.183
17914,0.3447,-0.6685,-0.5313,-7.813,7.202,30.701,-144.053,-21.368,148.414
17934,0.3447,-0.6685,-0.5313,11.108,-5.737,40.894,-143.08,-20.775,147.733
17953,0.3599,-0.8228,-0.5386,-18.127,0.977,37.72,-142.817,-20.314,147.09
17964,0.6841,-0.7847,-0.7583,-18.127,0.977,37.72,-142.976,-20.209,146.761
17974,0.6567,-0.6689,-0.8223,-48.523,-12.878,42.908,-143.339,-19.968,146.481
17984,0.4878,-0.5317,-0.9194,-54.138,-36.865,46.326,-143.882,-19.446,146.321
18004,0.4878,-0.5317,-0.9194,-18.005,-26.611,40.405,-144.756,-18.166,146.008
18013,0.021,-0.293,-0.9497,-18.005,-26.611,40.405,-144.624,-17.924,145.69
18063,0.3384,-0.9497,-0.3999,-9.705,9.583,-35.217,-141.702,-19.786,144.838
18084,0.6958,-0.8555,-0.5918,-26.672,-35.034,-26.489,-142.3,-20.067,145.701
18103,0.6191,-0.522,-0.877,-0.732,-34.973,12.268,-142.817,-19.556,146.14
18113,0.6191,-0.522,-0.877,-0.732,-34.973,12.268,-142.674,-19.21,146.052
18143,0.147,-0.8008,-0.4932,14.709,15.381,1.221,-141.35,-19.061,145.316
18153,0.2627,-0.7798,-0.5771,14.709,15.381,1.221,-141.196,-19.182,145.349
18173,0.6484,-0.6025,-0.8462,14.709,15.381,1.221,-141.46,-19.764,145.585
18193,0.6079,-0.459,-0.9136,-11.963,2.991,3.54,-142.026,-19.962,145.657
18213,0.3306,-0.4575,-0.7754,-11.963,2.991,3.54,-141.422,-20.204,144.761
18232,0.3306,-0.4575,-0.7754,34.668,44.495,30.212,-139.68,-20.479,143.542
18242,0.2012,-0.9727,-0.1987,20.691,25.574,17.883,-138.983,-20.468,143.218
18263,0.3965,-0.8545,-0.3862,0.549,4.822,2.38,-138.543,-20.413,143.35
18282,0.605,-0.5649,-0.8296,-18.555,-33.02,-17.517,-139.098,-20.297,144.135
18292,0.7017,-0.522,-0.9844,-6.226,-30.457,-5.371,-139.378,-20.22,144.388
18303,0.7017,-0.522,-0.9844,-6.226,-30.457,-5.371,-139.373,-20.149,144.349
18313,0.6509,-0.6948,-0.9375,-6.226,-30.457,-5.371,-139.131,-20.067,143.943
18322,0.479,-0.8042,-0.8188,15.869,35.156,61.218,-138.686,-19.962,143.207
18352,-0.0078,-0.7012,-0.5601,-2.136,11.78,38.391,-137.571,-19.171,141.367
18372,-0.0479,-0.6724,-0.5615,-0.427,15.015,-2.38,-137.39,-18.885,141.081
18392,0.3555,-0.7373,-0.6855,2.258,21.973,-21.484,-137.247,-19.567,141.07
18412,0.6299,-0.7339,-0.7173,-10.071,8.606,4.395,-137.285,-19.984,140.955
18432,0.3467,-0.7368,-0.6255,-4.883,6.897,29.175,-137.076,-19.731,140.482
18452,0.3691,-0.8228,-0.3604,7.751,-1.648,37.415,-136.368,-19.314,139.9
18472,0.3691,-0.8228,-0.3604,7.751,-1.648,37.415,-135.934,-18.66,139.697
18501,0.3906,-0.6787,-0.7441,-35.95,-49.133,19.836,-136.879,-17.435,140.273
18522,0.147,-0.5034,-0.8232,-9.155,-22.583,23.926,-137.433,-16.523,140.361
18541,0.147,-0.5034,-0.8232,13.0,4.272,12.451,-137.263,-16.106,140.103
18571,0.1001,-0.7109,-0.5205,9.766,-3.052,-26.001,-136.681,-16.183,140.389
18581,0.1001,-0.7109,-0.5205,9.766,-3.052,-26.001,-136.555,-16.375,140.707
18602,0.5557,-0.7891,-0.6592,-19.653,-37.903,-23.132,-136.857,-16.474,141.581
18631,0.4258,-0.604,-0.9624,-40.039,-43.823,-7.141,-138.45,-15.991,142.597
18651,0.2622,-0.4995,-0.8765,-17.09,-16.602,17.029,-139.048,-15.381,142.668
18681,0.0283,-0.7144,-0.4814,5.676,-8.118,-1.648,-138.356,-14.755,142.559
18691,0.146,-0.7896,-0.4155,0.854,-17.944,-14.099,-138.203,-14.661,142.795
18701,0.1655,-0.8184,-0.4575,0.854,-17.944,-14.099,-138.214,-14.557,143.163
18731,0.2109,-0.8437,-0.5449,-36.255,-35.278,-29.663,-139.191,-14.54,144.602
18741,0.7607,-0.6104,-1.1377,-36.255,-35.278,-29.663,-139.807,-14.568,144.932
18760,0.585,-0.3916,-1.2798,-12.695,-25.269,22.217,-140.663,-14.211,145.124
18790,0.1504,-0.5566,-0.6997,28.748,23.865,62.134,-139.845,-13.173,143.602
18800,0.1504,-0.5566,-0.6997,48.645,42.664,52.917,-138.719,-12.854,142.905
18811,0.1504,-0.5566,-0.6997,48.645,42.664,52.917,-137.631,-12.469,142.614
18830,-0.1484,-0.9687,-0.0864,-16.602,-70.496,-50.659,-137.153,-11.508,143.877
18840,0.2314,-0.8369,-0.4199,-39.612,-70.496,-78.308,-137.554,-11.547,144.948
18870,0.7344,-0.4331,-1.2734,-50.232,-83.984,-54.749,-139.878,-11.404,148.552
18890,0.5708,-0.481,-1.6733,-6.165,2.808,14.526,-140.317,-11.129,148.826
18900,0.5708,-0.481,-1.6733,-6.165,2.808,14.526,-139.999,-11.272,148.14
18910,0.5708,-0.481,-1.6733,-6.165,2.808,14.526,-139.565,-11.475,147.145
18920,0.5708,-0.481,-1.6733,29.48,75.256,63.477,-139.076,-11.64,146.157
18940,-0.2275,-0.8779,-0.0166,18.005,39.49,32.104,-138.34,-11.854,144.838
18969,-0.2612,-0.8657,0.0947,-3.723,-34.729,-19.165,-138.647,-11.569,145.926
18981,0.4067,-0.686,-0.5767,-3.723,-34.729,-19.165,-139.07,-11.486,146.975
19009,0.6611,-0.2114,-1.375,-3.723,-34.729,-19.165,-140.999,-10.783,149.936
19019,0.4424,-0.2759,-1.5957,-30.273,-29.968,-13.733,-141.356,-10.64,150.238
19030,0.4424,-0.2759,-1.5957,8.85,26.245,5.493,-141.229,-10.811,150.029
19040,0.3101,-0.6421,-0.9395,29.724,81.604,27.71,-140.795,-11.272,149.288
19049,0.3101,-0.6421,-0.9395,38.208,82.153,39.49,-140.246,-11.656,148.447
19070,-0.1377,-1.103,-0.1475,5.676,20.935,17.944,-139.708,-11.854,147.552
19079,-0.1377,-1.103,-0.1475,5.676,20.935,17.944,-139.834,-11.871,147.623
19089,0.0161,-0.8989,-0.3232,5.676,20.935,17.944,-140.114,-11.849,148.068
19110,0.0161,-0.8989,-0.3232,-22.339,-53.223,-52.002,-140.845,-11.673,149.705
19119,0.0161,-0.8989,-0.3232,-22.339,-53.223,-52.002,-141.081,-11.629,150.414
19129,0.7236,-0.395,-1.4033,-9.155,-13.306,-21.729,-141.224,-11.662,150.672
19139,0.7236,-0.395,-1.4033,-9.155,-13.306,-21.729,-141.328,-11.618,150.677
19159,0.2227,-0.5259,-0.8389,9.766,43.762,39.917,-141.042,-11.64,149.848
19179,0.0698,-0.6318,-0.4795,21.545,45.166,39.673,-140.372,-11.898,148.486
19188,-0.1021,-0.7578,-0.1318,10.376,22.583,18.921,-140.208,-11.953,148.189
19219,0.1074,-0.6748,-0.3086,-18.433,-36.987,-39.001,-140.729,-11.975,149.079
19239,0.4673,-0.5615,-0.8818,-16.479,-47.607,-32.288,-141.35,-11.706,150.26
19268,0.3511,-0.4209,-1.2739,5.676,12.878,15.808,-141.389,-11.514,150.403
19279,-0.0317,-0.3984,-0.9849,5.676,12.878,15.808,-141.218,-11.618,150.057
19289,-0.0317,-0.3984,-0.9849,10.437,44.556,11.047,-141.042,-11.898,149.683
19308,-0.0215,-0.6729,-0.7192,10.437,44.556,11.047,-140.598,-12.964,149.095
19329,0.3179,-1.0156,-0.5273,23.865,46.509,-24.231,-140.037,-14.106,148.815
19348,0.6167,-1.0864,-0.4067,-10.01,-14.282,-1.892,-140.081,-14.255,148.909
19369,0.3804,-0.6069,-0.5942,-45.41,-60.242,8.057,-140.955,-13.365,149.469
19378,0.3804,-0.6069,-0.5942,-45.41,-60.242,8.057,-141.663,-12.794,149.93
19398,0.0283,-0.1172,-0.9419,-32.043,-42.419,-24.109,-142.751,-12.134,150.925
19418,0.0283,-0.1172,-0.9419,-32.043,-42.419,-24.109,-142.674,-12.645,151.271
19428,0.0283,-0.1172,-0.9419,-32.043,-42.419,-24.109,-142.405,-13.002,151.265
19438,0.4658,-0.6816,-0.8252,-32.043,-42.419,-24.109,-142.196,-13.304,151.177
19487,0.1147,-0.6479,-0.7163,4.456,21.423,14.404,-142.059,-13.854,150.057
19508,0.1328,-0.6436,-0.6533,12.512,21.667,5.676,-141.735,-14.112,149.65
19527,0.3315,-0.6772,-0.6187,4.761,4.639,2.136,-141.542,-14.233,149.485
19548,0.3315,-0.6772,-0.6187,1.038,-6.47,0.793,-141.542,-14.079,149.595
19588,0.334,-0.6152,-0.9111,-25.269,-14.526,9.338,-142.081,-13.37,149.886
19597,0.334,-0.6152,-0.9111,-25.269,-14.526,9.338,-142.344,-13.271,149.804
19607,0.334,-0.6152,-0.9111,-26.794,3.662,16.235,-142.581,-13.2,149.65
19617,0.2046,-0.5811,-0.6982,-26.794,3.662,16.235,-142.729,-13.14,149.453
19637,0.1699,-0.75,-0.6699,-26.794,3.662,16.235,-142.493,-13.173,148.947
19647,0.1699,-0.75,-0.6699,2.808,18.555,19.958,-142.262,-13.277,148.667
19697,0.0825,-0.4561,-0.7651,-20.02,-3.601,9.094,-143.613,-12.579,148.255
19737,0.2241,-0.6187,-0.8433,-19.348,-9.338,-16.235,-144.212,-12.645,148.596
19757,0.1782,-0.645,-0.8755,-10.681,-7.385,-8.362,-144.542,-12.59,148.887
19786,0.1675,-0.6245,-0.8408,-3.723,-9.094,-5.92,-144.706,-12.382,149.172
19826,0.4629,-0.6289,-0.8384,7.813,8.301,-3.174,-144.476,-12.892,149.354
19847,0.4229,-0.5835,-0.8721,1.953,6.165,2.93,-144.465,-13.123,149.161
19866,0.3496,-0.5557,-0.8335,-6.897,14.709,21.118,-144.514,-13.217,148.672
19896,0.0918,-0.5269,-0.6333,5.676,9.888,12.39,-144.24,-12.997,148.035
19916,0.1362,-0.667,-0.5313,8.728,6.897,0.977,-143.795,-12.997,148.079
19936,0.2266,-0.7217,-0.5566,2.93,-23.804,-28.992,-143.547,-13.096,148.7
19956,0.4688,-0.687,-0.9468,5.615,-33.264,-30.518,-143.657,-13.03,149.584
19986,0.3452,-0.3281,-1.313,5.615,-33.264,-30.518,-144.915,-12.662,150.189
20006,0.2231,-0.3271,-1.1792,-12.939,17.029,18.799,-145.146,-12.816,149.458
