elapsed_ms,acc_x_g,acc_y_g,acc_z_g,gyro_x_dps,gyro_y_dps,gyro_z_dps,angle_x_deg,angle_y_deg,angle_z_deg
0,-0.1958,-0.4512,-0.959,11.719,33.386,21.729,-157.467,11.195,124.03
20,-0.2305,-0.415,-0.9619,-5.493,6.897,11.169,-157.621,11.14,123.712
40,-0.2148,-0.376,-0.9487,-1.892,4.517,5.249,-157.731,11.107,123.547
60,-0.1758,-0.3535,-0.9492,-1.892,4.517,5.249,-157.703,11.063,123.497
89,-0.1636,-0.3467,-0.9321,6.775,-2.319,-2.502,-157.538,11.047,123.596
100,-0.1865,-0.3506,-0.9219,7.507,-3.235,-5.859,-157.467,11.047,123.662
110,-0.1909,-0.3428,-0.9194,7.507,-3.235,-5.859,-157.412,11.074,123.739
129,-0.2026,-0.3403,-0.8882,7.874,-1.099,-4.7,-157.253,11.113,123.865
140,-0.2026,-0.3403,-0.8882,7.874,-1.099,-4.7,-157.099,11.091,123.887
150,-0.2026,-0.3403,-0.8882,15.93,1.587,-2.136,-156.896,11.08,123.898
169,-0.2246,-0.4385,-0.8735,15.93,1.587,-2.136,-156.577,11.096,123.904
190,-0.23,-0.3867,-0.9033,3.418,3.723,5.493,-156.495,11.096,123.805
209,-0.1812,-0.3647,-0.9272,-5.005,0.61,5.249,-156.605,11.102,123.679
230,-0.1934,-0.3667,-0.9541,-13.489,-5.981,-1.404,-156.868,11.173,123.706
239,-0.1934,-0.3667,-0.9541,-18.066,-10.01,-2.808,-157.055,11.245,123.772
279,-0.1836,-0.3901,-0.9858,-12.634,-19.775,-1.709,-157.593,11.788,124.124
289,-0.1895,-0.4009,-0.979,-3.662,-16.663,0.244,-157.621,11.926,124.184
299,-0.1895,-0.4009,-0.979,-3.662,-16.663,0.244,-157.61,12.041,124.222
319,-0.2051,-0.4058,-0.9531,-3.662,-16.663,0.244,-157.593,12.195,124.211
339,-0.2036,-0.3965,-0.9517,-2.075,-0.916,5.615,-157.654,12.25,124.124
349,-0.2036,-0.3965,-0.9517,-2.075,-0.916,5.615,-157.698,12.255,124.074
388,-0.2275,-0.353,-0.9224,0.488,2.686,2.38,-157.78,12.25,123.92
399,-0.229,-0.3828,-0.9072,0.488,2.686,2.38,-157.791,12.233,123.893
409,-0.2231,-0.3945,-0.9014,0.488,2.686,2.38,-157.813,12.195,123.86
428,-0.2119,-0.4004,-0.8965,-5.188,9.033,1.404,-157.885,12.057,123.777
439,-0.2051,-0.3975,-0.8862,-6.104,11.475,1.282,-157.934,11.959,123.717
449,-0.2051,-0.3975,-0.8862,-5.981,13.794,1.038,-158.0,11.838,123.657
459,-0.2231,-0.3862,-0.9712,-5.981,13.794,1.038,-158.071,11.706,123.591
468,-0.2231,-0.3862,-0.9712,-6.592,12.695,1.221,-158.17,11.585,123.53
489,-0.2021,-0.3555,-1.1206,-6.287,-7.69,-3.418,-158.401,11.558,123.574
538,-0.186,-0.4053,-1.0396,15.93,-49.072,-8.423,-157.797,13.063,124.7
558,-0.21,-0.4961,-0.7949,15.93,-49.072,-8.423,-156.967,13.689,124.92
569,-0.2314,-0.4814,-0.7119,41.748,0.671,13.184,-156.473,13.749,124.794
598,-0.2183,-0.4873,-0.6055,88.928,84.473,34.973,-154.479,12.574,123.223
618,-0.2026,-0.5474,-0.6675,88.928,84.473,34.973,-151.935,10.684,121.608
628,-0.2026,-0.5474,-0.6675,88.928,84.473,34.973,-151.078,9.591,120.8
638,-0.397,-0.353,-1.1714,88.928,84.473,34.973,-151.007,8.822,120.141
648,-0.397,-0.353,-1.1714,-36.194,52.856,13.184,-151.578,8.465,119.767
668,-0.1431,-0.251,-1.2524,-123.962,-92.834,5.31,-153.924,9.498,120.163
687,-0.0957,-0.3018,-1.0991,-129.395,-142.7,-2.563,-156.11,12.096,121.701
708,-0.1899,-0.4077,-0.8057,-22.644,-154.541,-41.87,-156.352,14.749,123.766
718,-0.3188,-0.4951,-0.5918,0.854,-137.207,-42.419,-155.934,15.903,124.739
748,-0.3584,-0.5342,-0.6377,3.723,-18.372,-7.385,-154.704,17.551,126.178
797,-0.249,-0.2974,-1.25,-39.429,6.226,8.118,-156.846,16.87,125.524
837,-0.2412,-0.3418,-0.8496,24.109,-42.786,7.996,-156.324,18.155,125.815
847,-0.3315,-0.4272,-0.7256,35.339,-7.69,3.54,-155.907,18.27,125.81
857,-0.3315,-0.4272,-0.7256,30.762,20.813,4.456,-155.55,18.149,125.678
868,-0.3315,-0.4272,-0.7256,30.762,20.813,4.456,-155.391,17.781,125.398
887,-0.332,-0.4702,-0.8701,30.762,20.813,4.456,-155.687,16.639,124.585
897,-0.271,-0.4102,-1.1021,-14.771,53.101,14.16,-155.973,16.177,124.222
917,-0.2651,-0.355,-1.0854,6.836,-2.625,6.47,-156.16,16.007,123.948
927,-0.2651,-0.355,-1.0854,17.334,-26.062,3.296,-156.006,16.282,124.03
937,-0.332,-0.3521,-0.8403,23.254,-40.1,0.977,-155.742,16.688,124.189
977,-0.314,-0.4556,-0.8301,1.831,-12.878,-12.939,-154.825,17.737,125.024
986,-0.314,-0.4556,-0.8301,-7.813,0.61,-9.827,-154.852,17.693,125.118
1007,-0.3027,-0.3911,-0.9429,-13.672,9.888,-3.296,-155.16,17.463,125.019
1017,-0.2891,-0.376,-0.9424,-7.019,10.986,6.287,-155.292,17.375,124.909
1026,-0.2891,-0.376,-0.9424,-7.019,10.986,6.287,-155.369,17.32,124.81
1037,-0.2891,-0.376,-0.9424,-7.019,10.986,6.287,-155.363,17.26,124.711
1047,-0.2832,-0.3901,-0.7622,7.385,15.808,5.371,-155.297,17.15,124.59
1066,-0.3062,-0.4155,-0.7227,4.944,34.485,4.639,-155.16,16.705,124.239
1077,-0.3433,-0.415,-0.8413,-5.615,34.485,6.042,-155.264,16.452,124.03
1087,-0.332,-0.3887,-0.9585,-18.25,24.963,4.517,-155.511,16.26,123.882
1117,-0.3032,-0.312,-1.1289,-28.687,-35.706,-10.071,-156.544,16.562,124.228
1126,-0.3032,-0.312,-1.1289,-28.687,-35.706,-10.071,-156.709,16.941,124.547
1146,-0.2769,-0.4175,-0.8262,-28.687,-35.706,-10.071,-156.522,17.897,125.244
1156,-0.2827,-0.4644,-0.7603,11.597,-50.598,-8.789,-156.237,18.32,125.541
1167,-0.2969,-0.5068,-0.7256,15.442,-32.593,-6.897,-155.907,18.589,125.744
1196,-0.3516,-0.5405,-0.7778,15.259,-7.446,-4.15,-155.583,18.171,125.453
1226,-0.2847,-0.2734,-1.0752,-15.808,8.545,13.977,-156.627,17.479,124.596
1236,-0.2837,-0.2397,-1.0034,-5.066,-18.372,5.432,-156.769,17.644,124.623
1266,-0.3135,-0.3535,-0.7344,14.282,-44.495,-8.484,-156.242,18.699,125.332
1276,-0.3247,-0.415,-0.6851,22.156,-21.667,-10.01,-155.885,18.891,125.524
1316,-0.356,-0.481,-1.0923,-33.02,52.063,6.165,-156.033,17.842,125.013
1366,-0.2959,-0.3149,-0.9541,6.592,-59.57,-4.883,-157.516,18.226,125.217
1386,-0.3828,-0.4028,-0.8755,16.235,-52.124,-8.728,-156.984,19.248,125.826
1435,-0.311,-0.3843,-0.7544,19.043,31.494,11.169,-156.308,19.435,125.936
1455,-0.354,-0.4136,-0.7314,27.405,46.143,14.099,-155.896,18.655,125.195
1466,-0.3521,-0.4375,-0.9565,22.461,64.392,17.517,-155.808,18.138,124.75
1495,-0.292,-0.3394,-1.0283,-12.39,18.311,12.39,-156.357,17.183,123.777
1515,-0.312,-0.3223,-0.7778,-1.16,-25.696,-2.747,-156.478,17.523,123.893
1535,-0.3262,-0.3818,-0.6802,13.184,-21.851,-10.01,-156.072,18.023,124.288
1555,-0.334,-0.4463,-0.7231,-2.197,20.325,-7.507,-155.825,17.842,124.376
1565,-0.3022,-0.5122,-1.0342,-20.508,41.199,-4.944,-156.044,17.413,124.25
1585,-0.2539,-0.4272,-1.2725,-47.791,36.255,3.174,-157.072,16.551,123.871
1595,-0.2539,-0.4272,-1.2725,-47.791,36.255,3.174,-157.593,16.381,123.772
1605,-0.2358,-0.3018,-1.1113,-28.87,-13.733,3.479,-157.945,16.474,123.794
1624,-0.2734,-0.2788,-0.814,8.85,-49.744,-1.709,-157.95,17.26,124.14
1635,-0.2988,-0.3076,-0.6763,26.245,-43.64,-3.479,-157.604,17.693,124.349
1645,-0.3228,-0.3491,-0.5586,42.053,-23.193,-2.808,-157.055,17.979,124.464
1664,-0.3291,-0.4146,-0.5054,42.053,-23.193,-2.808,-155.797,17.737,124.272
1685,-0.3296,-0.437,-1.0171,-3.052,85.205,7.568,-155.704,16.43,123.492
1694,-0.3296,-0.437,-1.0171,-3.052,85.205,7.568,-156.231,15.749,123.08
1715,-0.2485,-0.2817,-1.3638,-66.467,1.77,-4.7,-157.753,15.205,122.871
1734,-0.2397,-0.2021,-1.2192,-29.907,-86.792,-24.048,-158.582,16.21,123.783
1744,-0.2397,-0.2021,-1.2192,4.639,-105.774,-24.536,-158.357,17.084,124.42
1754,-0.2397,-0.2021,-1.2192,36.499,-99.731,-20.508,-157.725,17.968,125.008
1774,-0.3516,-0.5195,-0.4517,55.664,-17.029,-7.629,-155.984,18.842,125.568
1794,-0.3525,-0.6177,-0.7983,4.761,86.975,6.531,-155.402,17.776,124.953
1824,-0.2754,-0.3262,-1.4668,-50.415,46.265,11.108,-157.192,15.54,123.508
1844,-0.187,-0.187,-1.1602,-38.147,-13.794,-0.549,-157.846,16.095,123.942
1854,-0.2021,-0.2178,-0.8955,-38.147,-13.794,-0.549,-157.599,16.913,124.481
1874,-0.3452,-0.3857,-0.6294,37.964,-77.515,-10.437,-156.495,18.55,125.425
1904,-0.3862,-0.5146,-1.126,-2.625,2.014,-5.92,-155.825,18.913,125.815
1923,-0.3354,-0.4033,-1.0874,10.071,-29.846,-9.644,-155.759,19.166,126.162
1944,-0.3418,-0.2725,-0.6865,54.749,-47.058,-8.301,-154.814,19.957,126.727
1963,-0.4175,-0.3564,-0.6069,54.749,-47.058,-8.301,-153.38,20.594,127.139
1984,-0.4521,-0.6157,-0.8501,-7.324,23.621,-12.817,-152.968,20.33,127.227
2014,-0.2344,-0.3906,-0.9941,-29.297,18.066,3.967,-154.149,19.413,126.991
2024,-0.269,-0.3481,-0.9009,-10.193,3.662,14.709,-154.352,19.407,126.832
2033,-0.269,-0.3481,-0.9009,7.813,-4.028,19.409,-154.352,19.528,126.667
2043,-0.269,-0.3481,-0.9009,14.099,-2.502,18.127,-154.276,19.655,126.502
2053,-0.373,-0.4116,-0.8115,7.019,9.338,12.756,-154.254,19.655,126.337
2073,-0.3799,-0.4526,-0.8779,7.019,9.338,12.756,-154.742,19.237,125.997
2083,-0.3799,-0.4526,-0.8779,-39.795,18.86,0.977,-155.187,19.061,125.903
2093,-0.3311,-0.3691,-0.9004,-35.889,0.244,-1.16,-155.566,19.05,125.909
2123,-0.3511,-0.3164,-0.8218,-3.235,-42.053,-15.137,-155.814,19.885,126.634
2133,-0.3257,-0.335,-0.8521,-0.549,-39.062,-16.663,-155.737,20.171,126.969
2163,-0.376,-0.4585,-0.9224,-0.977,-5.981,-9.399,-155.55,20.374,127.535
2183,-0.355,-0.4141,-0.8667,10.193,1.282,-2.38,-155.352,20.341,127.634
2193,-0.3218,-0.377,-0.7983,14.221,11.108,5.31,-155.242,20.259,127.529
2203,-0.3218,-0.4033,-0.897,10.681,26.611,12.573,-155.226,20.05,127.293
2222,-0.2988,-0.46,-1.1152,0.244,44.067,20.081,-155.671,19.281,126.431
2233,-0.2725,-0.4277,-1.126,0.244,44.067,20.081,-156.05,18.896,125.958
2243,-0.2925,-0.3516,-1.0225,-13.855,35.4,25.391,-156.363,18.644,125.557
2252,-0.2925,-0.3516,-1.0225,-13.855,35.4,25.391,-156.528,18.556,125.294
2262,-0.3252,-0.3003,-0.7642,5.615,5.432,12.146,-156.539,18.583,125.156
2273,-0.3218,-0.3301,-0.6733,5.615,5.432,12.146,-156.39,18.644,125.079
2283,-0.335,-0.3721,-0.6528,21.606,10.376,4.333,-156.143,18.622,124.997
2313,-0.3389,-0.3774,-1.0063,-8.24,27.649,5.188,-156.094,17.946,124.497
2332,-0.3291,-0.3335,-1.0669,-8.24,27.649,5.188,-156.676,17.935,124.59
2342,-0.3169,-0.3008,-1.0557,-28.442,-37.842,-18.616,-156.929,18.188,124.926
2372,-0.292,-0.4414,-0.834,-0.793,-45.715,-17.456,-156.885,19.221,126.167
2402,-0.353,-0.4785,-0.5728,17.09,-6.531,3.052,-156.099,19.517,126.178
2412,-0.3896,-0.4492,-0.9932,17.09,-6.531,3.052,-156.22,19.221,125.903
2422,-0.3896,-0.4492,-0.9932,-19.714,33.203,7.568,-156.55,18.913,125.689
2431,-0.3896,-0.4492,-0.9932,-31.311,6.47,-2.319,-156.967,18.787,125.684
2452,-0.2773,-0.2603,-1.1426,-17.761,-69.214,-26.794,-157.418,19.413,126.541
2462,-0.23,-0.3081,-0.8223,11.353,-90.088,-19.165,-157.143,20.116,127.09
2482,-0.3521,-0.4185,-0.2324,11.353,-90.088,-19.165,-155.391,21.489,127.584
2502,-0.4009,-0.5659,-0.5444,45.532,74.341,16.357,-153.99,21.006,126.87
2532,-0.3809,-0.3784,-1.5034,-19.287,73.425,17.395,-154.77,18.501,124.904
2541,-0.3809,-0.3784,-1.5034,-19.287,73.425,17.395,-155.067,18.32,124.816
2551,-0.1934,-0.1719,-1.125,-15.991,-33.386,-20.02,-155.121,18.534,125.156
2561,-0.1934,-0.1719,-1.125,10.437,-70.251,-18.86,-154.858,19.094,125.651
2572,-0.2676,-0.2734,-0.3291,39.551,-71.228,-5.249,-154.341,19.715,126.019
2612,-0.4629,-0.7178,-1.4443,-27.893,90.881,6.775,-153.869,18.649,125.107
2621,-0.4629,-0.7178,-1.4443,-27.893,90.881,6.775,-154.528,18.155,124.788
2641,-0.1489,-0.0361,-1.2529,-54.138,-72.144,-27.771,-155.544,18.732,125.442
2661,-0.1489,-0.0361,-1.2529,-54.138,-72.144,-27.771,-154.858,20.61,126.98
2681,-0.5571,-0.5386,-0.4185,26.611,-15.442,-0.977,-153.935,21.429,127.48
2701,-0.5059,-0.6743,-1.4888,-51.941,59.57,-6.958,-154.759,20.429,127.051
2711,-0.291,-0.3486,-1.2593,-57.129,29.175,-18.372,-155.314,20.089,127.101
2730,-0.1714,-0.1489,-0.9165,-57.129,29.175,-18.372,-155.918,20.017,127.408
2741,-0.2407,-0.3262,-0.6836,15.747,-20.874,6.165,-155.748,20.231,127.441
2751,-0.2407,-0.3262,-0.6836,54.626,-3.54,21.301,-155.27,20.352,127.249
2761,-0.4009,-0.438,-0.4829,61.523,31.067,24.231,-154.786,20.171,126.876
2781,-0.4009,-0.438,-0.4829,61.523,31.067,24.231,-154.946,18.968,125.887
2791,-0.3833,-0.4048,-1.4141,-39.734,50.476,0.793,-155.418,18.512,125.656
2810,-0.3584,-0.2842,-1.2563,-48.584,-56.152,-27.71,-156.248,18.935,126.381
2831,-0.252,-0.4063,-0.5762,7.08,-65.369,-6.653,-156.11,20.11,127.211
2871,-0.3853,-0.5122,-1.3325,-10.01,77.209,15.747,-155.989,19.325,126.244
2890,-0.2676,-0.2715,-1.4258,-20.081,23.987,4.456,-156.561,18.589,125.7
2930,-0.2446,-0.2769,-0.6758,47.485,-15.564,7.935,-155.402,19.858,126.227
2940,-0.4346,-0.4443,-0.4624,32.959,27.1,7.751,-155.138,19.644,126.035
2970,-0.4204,-0.5234,-1.2056,-46.997,35.828,-4.639,-156.061,18.248,125.288
2989,-0.2842,-0.2661,-1.3159,-46.997,35.828,-4.639,-156.951,18.468,125.925
3000,-0.2842,-0.2661,-1.3159,-33.813,-70.923,-24.963,-157.121,19.023,126.458
3010,-0.1792,-0.376,-0.75,9.094,-70.557,-7.385,-156.912,19.644,126.821
3020,-0.2832,-0.3716,-0.4233,42.419,-48.767,12.085,-156.456,20.143,126.903
3050,-0.3916,-0.4526,-0.8682,31.738,78.064,21.667,-155.49,19.325,125.782
3069,-0.3999,-0.3145,-1.3369,31.738,78.064,21.667,-155.83,18.232,124.799
3109,-0.2666,-0.3613,-0.5708,-8.728,-35.828,-20.63,-155.352,19.6,126.172
3130,-0.3828,-0.5269,-0.6499,17.944,-15.32,-0.122,-154.781,20.193,126.546
3139,-0.3828,-0.5269,-0.6499,17.944,-15.32,-0.122,-154.786,20.017,126.409
3159,-0.4204,-0.5601,-1.0215,-18.127,42.969,4.395,-155.451,19.319,125.997
3189,-0.2266,-0.2598,-1.0605,-2.869,-31.86,-4.822,-155.901,19.473,126.233
3199,-0.2529,-0.3447,-0.8423,16.113,-44.434,1.892,-155.682,19.885,126.409
3239,-0.416,-0.5073,-0.7744,11.536,61.768,14.832,-154.973,19.578,125.667
3269,-0.2993,-0.2778,-1.0728,-6.47,20.569,5.615,-155.457,18.457,124.766
3288,-0.2754,-0.2241,-1.0435,6.836,-36.194,-7.935,-155.308,18.836,125.052
3309,-0.3433,-0.3765,-0.7534,7.751,-44.25,-9.216,-154.924,19.6,125.656
3328,-0.3628,-0.4346,-0.7329,-5.981,-2.197,-6.836,-154.869,19.786,125.925
3339,-0.3628,-0.4346,-0.7329,-5.981,-2.197,-6.836,-155.045,19.627,125.892
3349,-0.3135,-0.4409,-0.8032,-19.287,27.466,1.221,-155.281,19.38,125.755
3398,-0.3296,-0.3345,-1.0298,-16.113,20.874,4.639,-156.165,18.083,124.618
3418,-0.3428,-0.3623,-0.8813,-30.396,9.033,-4.395,-156.846,17.985,124.766
3429,-0.3433,-0.3638,-0.6382,-44.861,-11.475,-17.456,-157.154,18.089,124.98
3448,-0.3384,-0.3838,-0.4546,-52.124,22.888,-11.719,-157.736,18.023,125.173
3458,-0.2925,-0.3931,-0.8823,-56.824,46.936,-5.981,-158.324,17.556,125.046
3478,-0.2471,-0.3296,-1.1265,-17.639,46.204,6.836,-159.153,16.529,124.563
3488,-0.2471,-0.3296,-1.1265,-17.639,46.204,6.836,-159.395,16.265,124.426
3498,-0.2187,-0.2144,-1.5186,2.808,-10.62,1.587,-159.483,16.287,124.448
3508,-0.2187,-0.2144,-1.5186,2.808,-10.62,1.587,-159.423,16.639,124.634
3538,-0.3291,-0.4336,-0.6963,4.333,-51.208,1.16,-158.967,18.336,125.332
3578,-0.3296,-0.3955,-0.5562,4.333,-51.208,1.16,-158.329,17.655,124.321
3587,-0.3296,-0.3955,-0.5562,12.573,86.731,21.301,-158.406,16.902,123.777
3608,-0.2773,-0.2402,-1.292,8.362,35.217,12.146,-158.621,15.98,123.069
3648,-0.2998,-0.3848,-0.8193,-12.695,-44.983,-14.465,-158.681,16.875,123.926
3667,-0.3081,-0.4253,-0.7676,-12.695,-44.983,-14.465,-158.687,17.353,124.283
3678,-0.3179,-0.4136,-0.7749,-12.695,-44.983,-14.465,-158.725,17.358,124.272
3688,-0.2993,-0.3916,-0.8477,-6.042,22.644,5.859,-158.791,17.172,124.129
3717,-0.2832,-0.3301,-1.1543,7.141,41.077,13.55,-159.005,16.062,123.283
3737,-0.2886,-0.3242,-1.1211,7.141,41.077,13.55,-159.17,15.859,123.019
3757,-0.3228,-0.2803,-0.8345,-13.0,-19.897,-3.784,-159.401,16.232,123.168
3777,-0.3218,-0.2871,-0.8604,-13.0,-19.897,-3.784,-159.758,16.501,123.448
3787,-0.3218,-0.2871,-0.8604,-31.555,-2.197,-8.362,-159.999,16.534,123.541
3797,-0.3018,-0.3799,-0.6626,-38.513,17.639,-5.188,-160.285,16.403,123.525
3817,-0.2593,-0.3584,-0.8281,-47.058,72.754,8.057,-161.158,15.386,123.025
3827,-0.2593,-0.3584,-0.8281,-47.058,72.754,8.057,-161.647,14.639,122.602
3847,-0.168,-0.2183,-1.5273,4.761,39.246,24.109,-161.993,13.749,121.811
3876,-0.1455,-0.1616,-1.5059,24.292,-73.853,-6.531,-161.125,14.886,121.987
3907,-0.3301,-0.3223,-0.6133,13.733,-64.88,-14.221,-160.406,16.979,123.272
3937,-0.3472,-0.3872,-0.6177,16.541,-5.798,-3.601,-159.922,17.106,123.448
3956,-0.2764,-0.3506,-1.1997,-0.061,44.189,5.737,-160.087,16.326,122.992
3966,-0.2764,-0.3506,-1.1997,-0.061,44.189,5.737,-160.115,16.139,122.86
3977,-0.2524,-0.2534,-1.2187,3.113,-7.874,-0.427,-160.071,16.21,122.888
3996,-0.2524,-0.2534,-1.2187,14.893,-56.702,-10.071,-159.692,17.029,123.393
4017,-0.3721,-0.3843,-0.8267,1.221,-47.424,-9.399,-159.395,17.952,123.97
4046,-0.2012,-0.271,-1.0454,-22.034,-29.48,-6.104,-159.791,18.715,124.536
4055,-0.1958,-0.2061,-0.8643,-22.034,-29.48,-6.104,-159.697,19.017,124.662
4066,-0.1958,-0.2061,-0.8643,36.133,-24.902,2.93,-159.318,19.259,124.728
4086,-0.3164,-0.314,-0.9468,46.692,3.784,2.014,-158.335,19.341,124.7
4106,-0.3218,-0.3325,-0.9766,46.692,3.784,2.014,-157.863,19.215,124.59
4116,-0.3218,-0.3325,-0.9766,9.338,-4.639,-1.16,-157.764,19.254,124.618
4126,-0.3438,-0.3608,-0.7837,7.874,-15.32,-5.737,-157.643,19.374,124.739
4146,-0.355,-0.3867,-0.7031,10.071,-18.86,-8.484,-157.346,19.605,125.024
4166,-0.3711,-0.4531,-0.8071,-4.944,14.038,-2.38,-157.33,19.446,125.041
4185,-0.3384,-0.4014,-1.2769,-30.029,18.555,-0.977,-157.868,19.061,124.893
4196,-0.3042,-0.3569,-1.3066,-29.663,1.282,-1.465,-158.165,19.039,124.904
4236,-0.3862,-0.3633,-0.7954,-1.831,-43.823,2.441,-158.351,20.44,125.519
4255,-0.3921,-0.3477,-0.7905,-5.798,-13.611,4.089,-158.406,20.874,125.612
4276,-0.3926,-0.3096,-0.8437,-12.146,6.592,-0.122,-158.648,20.819,125.563
4295,-0.3652,-0.3071,-0.895,-12.146,6.592,-0.122,-158.747,20.577,125.508
4305,-0.3467,-0.314,-0.9292,9.277,14.832,0.0,-158.676,20.435,125.453
4316,-0.3599,-0.3213,-1.0391,11.719,14.099,1.953,-158.582,20.314,125.376
4345,-0.4019,-0.3086,-1.0171,-5.554,-16.418,-1.709,-158.588,20.424,125.381
4355,-0.4019,-0.3086,-1.0171,-5.554,-16.418,-1.709,-158.637,20.709,125.563
4375,-0.3335,-0.3594,-0.6724,-2.563,-22.339,-7.751,-158.522,21.237,125.947
4385,-0.3452,-0.3765,-0.6387,6.531,2.258,-2.563,-158.362,21.242,125.964
4395,-0.3789,-0.4038,-0.7139,9.644,28.442,4.211,-158.242,21.033,125.81
4425,-0.3594,-0.3037,-1.27,-22.766,30.334,3.479,-158.895,19.885,125.14
4434,-0.3594,-0.3037,-1.27,-22.766,30.334,3.479,-159.252,19.759,125.14
4455,-0.2861,-0.2813,-0.8638,-3.723,-31.006,-4.822,-159.5,20.072,125.431
4465,-0.3486,-0.3179,-0.7803,8.057,-29.236,-1.831,-159.357,20.363,125.557
4484,-0.4297,-0.3467,-0.9155,-7.385,-11.963,-1.709,-159.318,20.704,125.7
4535,-0.3779,-0.3726,-0.6665,-20.569,6.531,-16.418,-160.411,21.226,126.854
4545,-0.3877,-0.3755,-0.833,-20.569,6.531,-16.418,-160.527,20.995,126.87
4554,-0.3877,-0.3755,-0.833,-20.874,23.865,-5.31,-160.741,20.742,126.843
4575,-0.3047,-0.2817,-1.0444,-19.47,0.977,-1.465,-161.213,20.517,126.843
4615,-0.3828,-0.3213,-0.9541,5.798,-0.793,13.55,-161.279,20.66,126.508
4644,-0.3599,-0.2852,-0.8789,5.798,-0.793,13.55,-161.581,21.011,126.42
4664,-0.3325,-0.249,-0.8828,-12.695,-17.151,-2.686,-161.785,21.253,126.601
4684,-0.3843,-0.2974,-0.9951,-2.563,-1.709,-2.136,-161.856,21.297,126.694
4704,-0.375,-0.3091,-1.0845,-5.737,0.305,-1.77,-162.026,21.259,126.722
4724,-0.3145,-0.2524,-0.8716,4.578,-7.629,8.85,-162.103,21.374,126.656
4764,-0.4395,-0.3247,-1.02,6.104,15.259,4.822,-161.603,21.319,126.112
4773,-0.4395,-0.3247,-1.02,-7.813,8.362,0.366,-161.73,21.204,126.085
4783,-0.4395,-0.3247,-1.02,-9.46,-2.502,1.099,-161.873,21.182,126.079
4794,-0.3252,-0.2271,-0.894,0.183,-9.094,4.7,-161.917,21.264,126.063
4813,-0.3892,-0.2495,-0.8872,9.033,-14.282,3.845,-161.774,21.588,126.046
4823,-0.3892,-0.2495,-0.8872,-0.793,-21.606,-2.258,-161.757,21.813,126.14
4834,-0.4565,-0.2979,-1.0815,-14.099,-35.828,-10.803,-161.84,22.121,126.37
4854,-0.3628,-0.2939,-0.8569,1.343,-50.781,-10.254,-161.746,22.978,126.953
4874,-0.4043,-0.3169,-0.6865,26.062,-25.818,2.197,-161.115,23.681,127.227
4883,-0.4404,-0.3628,-0.75,26.062,-25.818,2.197,-160.84,23.73,127.15
4903,-0.4331,-0.3809,-0.9746,4.15,34.546,12.268,-160.757,23.264,126.722
4914,-0.3887,-0.3306,-1.0137,2.014,34.973,13.855,-160.856,22.95,126.453
4923,-0.3887,-0.3306,-1.0137,2.014,34.973,13.855,-160.906,22.703,126.205
4943,-0.4092,-0.2676,-1.0918,16.052,4.395,9.033,-160.823,22.516,125.909
4963,-0.4009,-0.269,-1.126,-5.188,-24.414,-0.061,-160.862,22.791,125.98
4983,-0.2729,-0.2393,-0.6074,-4.333,-39.307,4.15,-160.977,23.478,126.222
5003,-0.314,-0.2695,-0.3979,38.208,26.367,8.606,-160.126,23.648,126.002
5013,-0.3418,-0.3555,-0.397,48.584,65.735,7.507,-159.554,23.154,125.684
5023,-0.3911,-0.3398,-0.6431,41.504,98.45,9.888,-159.252,22.324,125.211
5032,-0.3911,-0.3398,-0.6431,41.504,98.45,9.888,-159.373,21.385,124.645
5043,-0.4043,-0.3008,-1.3003,41.504,98.45,9.888,-159.796,20.665,124.14
5053,-0.3936,-0.2549,-1.4048,-27.71,44.128,13.55,-160.274,20.248,123.843
5062,-0.3936,-0.2549,-1.4048,-27.405,4.578,-3.54,-160.648,20.127,123.86
5093,-0.3149,-0.3433,-0.8828,-9.827,-93.689,-16.907,-160.779,21.769,125.151
5112,-0.4102,-0.4116,-0.6729,-4.272,-65.308,-6.287,-160.417,23.231,125.876
5133,-0.4355,-0.4233,-0.6895,-2.258,9.277,2.075,-160.192,23.505,125.953
5162,-0.4141,-0.2881,-1.1636,-8.362,47.058,10.254,-160.73,22.253,125.14
5182,-0.4009,-0.2056,-1.2231,-2.319,-7.568,-2.258,-161.049,22.011,125.035
5202,-0.3511,-0.2026,-0.9585,-3.479,-63.721,-17.456,-161.038,22.841,125.7
5222,-0.3711,-0.3164,-0.708,1.953,-32.715,-10.925,-160.593,23.736,126.304
5242,-0.5171,-0.4004,-0.5576,3.723,36.194,5.188,-160.208,23.626,126.14
5272,-0.3735,-0.1064,-1.0249,-21.057,2.93,-9.216,-160.911,22.917,125.821
5291,-0.354,-0.1099,-1.0229,-21.057,2.93,-9.216,-161.186,23.214,126.486
5312,-0.3555,-0.4321,-0.9155,21.484,-7.568,-1.709,-160.681,23.395,126.81
5331,-0.3828,-0.4521,-0.9062,21.484,-7.568,-1.709,-160.351,23.0,126.178
5352,-0.3828,-0.4521,-0.9062,12.451,46.814,29.297,-160.56,22.346,125.283
5361,-0.3828,-0.4521,-0.9062,12.451,46.814,29.297,-160.79,22.17,124.997
5392,-0.4043,-0.269,-0.8569,-2.563,-16.968,-2.258,-161.06,22.396,124.958
5411,-0.4434,-0.2905,-0.853,-2.563,-16.968,-2.258,-161.131,22.868,125.2
5421,-0.4434,-0.2905,-0.853,-19.714,-28.748,-7.568,-161.268,23.154,125.381
5441,-0.4253,-0.2583,-0.8628,-35.217,-34.851,-19.47,-161.73,23.708,125.958
5451,-0.3643,-0.3081,-0.895,-30.64,-28.381,-19.409,-161.906,23.89,126.255
5461,-0.3477,-0.3354,-0.9839,-16.479,-13.611,-12.512,-161.988,23.923,126.431
5481,-0.4077,-0.3013,-1.1377,3.723,-0.122,-0.366,-161.856,23.835,126.31
5491,-0.4077,-0.3013,-1.1377,22.522,-10.071,15.381,-161.757,23.945,126.183
5501,-0.4482,-0.1572,-0.9868,16.663,-34.485,8.362,-161.669,24.296,126.216
5550,-0.4287,-0.3936,-0.7612,-0.488,-28.87,-21.423,-160.785,26.115,127.826
5561,-0.3999,-0.4019,-0.7622,19.897,30.151,8.911,-160.593,25.851,127.617
5571,-0.3999,-0.4019,-0.7622,19.897,30.151,8.911,-160.472,25.389,127.194
5590,-0.3975,-0.3589,-0.9312,28.198,69.641,27.771,-160.395,24.214,126.107
5611,-0.4185,-0.2266,-1.1982,17.761,40.1,18.311,-160.483,23.373,125.305
5651,-0.3862,-0.2124,-0.522,19.653,-43.396,-5.676,-159.895,24.027,125.469
5670,-0.4199,-0.3188,-0.4546,19.653,-43.396,-5.676,-159.126,24.703,125.892
5700,-0.4438,-0.3828,-0.916,-15.991,23.743,-9.583,-159.423,24.131,125.969
5710,-0.4355,-0.3027,-1.1777,-26.672,4.028,-6.653,-159.725,24.027,126.024
5720,-0.418,-0.2734,-1.0884,-18.616,-17.09,-7.935,-159.912,24.12,126.167
5740,-0.3999,-0.313,-0.9902,-0.671,-42.725,-9.521,-159.802,24.752,126.661
5760,-0.4814,-0.4634,-0.9175,-11.475,-12.939,-5.798,-159.675,25.159,126.98
5780,-0.4985,-0.4565,-1.0488,-36.804,12.939,2.686,-160.323,24.901,126.898
5790,-0.4336,-0.2612,-1.2549,-36.804,12.939,2.686,-160.785,24.906,126.859
5800,-0.3774,-0.1665,-1.0283,-27.283,-35.95,4.761,-161.12,25.208,126.942
5830,-0.4141,-0.1753,-0.5049,24.963,-38.94,-9.094,-160.483,26.933,127.634
5860,-0.478,-0.3843,-0.8779,-1.16,66.833,1.953,-159.763,26.202,127.375
5870,-0.4619,-0.3291,-1.2778,-20.081,68.176,5.188,-160.159,25.516,127.057
5910,-0.376,-0.3003,-0.7012,8.362,-60.12,-19.653,-160.406,25.862,127.711
5919,-0.4087,-0.3472,-0.6533,8.362,-60.12,-19.653,-160.049,26.29,128.04
5929,-0.4414,-0.376,-0.812,8.362,-60.12,-19.653,-159.873,26.428,128.172
5940,-0.4731,-0.4023,-0.9331,-6.226,12.817,1.892,-159.933,26.301,128.101
5950,-0.4917,-0.3569,-1.0742,-24.353,22.339,8.972,-160.269,26.098,127.925
5959,-0.4917,-0.3569,-1.0742,-35.217,6.653,8.179,-160.735,26.027,127.815
5969,-0.499,-0.1982,-1.1714,-38.818,-20.508,-1.953,-161.175,26.18,127.908
5980,-0.4487,-0.189,-1.0908,-38.269,-46.204,-14.038,-161.51,26.526,128.221
5999,-0.3442,-0.2754,-0.6733,6.958,-41.443,-13.245,-161.378,27.263,128.908
6009,-0.3442,-0.2754,-0.6733,35.461,-12.451,-0.977,-160.84,27.438,128.963
6019,-0.4155,-0.396,-0.4004,52.002,26.794,11.108,-160.17,27.312,128.743
6030,-0.439,-0.4521,-0.4961,52.002,26.794,11.108,-159.653,26.763,128.293
6039,-0.439,-0.4521,-0.4961,52.002,26.794,11.108,-159.478,25.867,127.667
6069,-0.5117,-0.3008,-1.3755,8.85,101.563,28.748,-160.043,23.401,125.766
6089,-0.4214,-0.1831,-1.3101,16.785,-10.376,-0.244,-159.873,23.231,125.563
6129,-0.3584,-0.3501,-0.4072,26.184,-40.71,-5.432,-158.395,24.961,126.524
6159,-0.3604,-0.4272,-0.3667,26.184,-40.71,-5.432,-157.89,23.763,126.041
6178,-0.4268,-0.416,-1.0068,13.184,97.107,16.418,-158.082,22.022,124.948
6188,-0.4268,-0.416,-1.0068,13.184,97.107,16.418,-158.055,21.385,124.497
6199,-0.376,-0.1279,-1.1587,21.606,41.626,8.301,-157.934,21.033,124.25
6218,-0.3789,-0.1797,-1.1343,24.048,-12.329,-11.23,-157.44,21.006,124.343
6228,-0.3789,-0.1797,-1.1343,13.611,-25.024,-17.273,-157.203,21.171,124.618
6239,-0.3774,-0.3906,-0.8892,-0.244,-29.785,-18.433,-157.094,21.374,124.926
6279,-0.3179,-0.4004,-0.5361,9.583,11.047,6.042,-156.967,21.753,125.36
6288,-0.3179,-0.4004,-0.5361,14.099,31.128,11.963,-156.918,21.511,125.107
6308,-0.4175,-0.3311,-1.3535,4.578,35.522,16.174,-157.011,20.934,124.464
6328,-0.4106,-0.291,-1.4468,4.578,35.522,16.174,-157.192,21.028,124.36
6338,-0.312,-0.2651,-0.9414,-5.31,-56.152,-10.071,-157.126,21.506,124.695
6348,-0.312,-0.2651,-0.9414,1.404,-73.303,-13.062,-156.951,22.132,125.129
6368,-0.312,-0.2651,-0.9414,6.226,-44.495,-14.221,-156.544,23.049,125.892
6378,-0.394,-0.4478,-0.4263,6.226,-44.495,-14.221,-156.445,23.11,126.063
6388,-0.4253,-0.4927,-0.6284,-7.935,22.644,-8.728,-156.528,22.868,126.052
6408,-0.4351,-0.4399,-1.2905,-24.658,46.753,0.305,-157.11,22.006,125.7
6418,-0.3618,-0.3218,-1.3901,-15.747,31.128,-1.831,-157.308,21.709,125.59
6437,-0.3364,-0.2676,-1.1802,-2.686,-20.63,-0.122,-157.401,21.813,125.623
6458,-0.3335,-0.3379,-0.6904,10.193,-50.049,-4.089,-157.072,22.643,126.096
6477,-0.3223,-0.3696,-0.5308,12.695,-23.071,-8.057,-156.654,23.198,126.513
6487,-0.396,-0.4028,-0.5522,12.695,-23.071,-8.057,-156.594,23.148,126.535
6498,-0.3853,-0.3423,-0.751,-7.385,27.1,3.357,-156.725,22.912,126.381
6517,-0.4014,-0.2451,-1.126,-20.752,25.452,3.296,-157.253,22.412,126.035
6527,-0.3862,-0.2725,-1.1821,-15.93,6.836,-5.981,-157.401,22.324,126.063
6538,-0.4072,-0.2974,-1.1372,-12.512,-20.02,-9.216,-157.462,22.473,126.238
6567,-0.4058,-0.3677,-0.6973,-3.54,-68.237,-11.719,-157.154,24.115,127.348
6578,-0.3945,-0.3799,-0.6699,-10.803,-53.833,-3.296,-157.088,24.626,127.606
6597,-0.4292,-0.3882,-0.7944,-15.747,-3.784,3.479,-157.225,24.977,127.711
6607,-0.4326,-0.3618,-0.9731,-15.747,-3.784,3.479,-157.495,24.857,127.601
6627,-0.4316,-0.3198,-1.0918,-10.986,-0.488,6.287,-157.994,24.708,127.408
6637,-0.4746,-0.3052,-1.1567,-5.188,-23.621,4.456,-158.099,24.906,127.463
6647,-0.4746,-0.3052,-1.1567,-5.188,-23.621,4.456,-158.077,25.356,127.639
6657,-0.4966,-0.3267,-0.9707,3.052,-70.618,0.61,-157.961,26.01,127.925
6667,-0.4966,-0.3267,-0.9707,4.028,-78.979,0.854,-157.764,26.774,128.249
6687,-0.4443,-0.3804,-0.5073,4.456,-34.241,-3.723,-157.247,27.823,128.727
6707,-0.4336,-0.3892,-0.6455,1.831,44.434,5.554,-157.083,27.449,128.458
6717,-0.4458,-0.3687,-0.9126,-5.127,69.58,13.733,-157.346,26.84,128.007
6727,-0.4785,-0.3315,-1.1416,-12.39,71.045,21.79,-157.775,26.224,127.474
6736,-0.4785,-0.3315,-1.1416,-12.39,71.045,21.79,-158.231,25.752,126.996
6757,-0.4204,-0.2393,-1.1577,1.404,-0.061,15.686,-158.714,25.516,126.497
6776,-0.3887,-0.2466,-1.0161,1.404,-0.061,15.686,-158.516,25.95,126.557
6797,-0.457,-0.3604,-0.7207,7.874,-26.55,-2.136,-158.121,26.51,126.81
6816,-0.4292,-0.3154,-0.623,-2.38,-15.442,-3.723,-157.923,26.927,127.035
6837,-0.3931,-0.3203,-0.5747,-2.197,12.024,-7.263,-157.808,26.895,127.134
6866,-0.4604,-0.3271,-0.9702,-5.737,41.077,1.77,-158.011,25.812,126.744
6886,-0.4751,-0.3047,-1.1055,-17.639,6.287,1.953,-158.544,25.461,126.546
6906,-0.4727,-0.2944,-1.0361,-20.508,-32.837,-8.118,-158.934,25.818,126.865
6926,-0.4746,-0.3301,-0.9771,-23.437,-49.5,-13.245,-159.131,26.57,127.485
6936,-0.4746,-0.3301,-0.9771,-25.391,-53.406,-15.808,-159.208,27.004,127.864
6946,-0.4849,-0.3667,-0.9175,-24.292,-53.955,-17.151,-159.263,27.433,128.26
6966,-0.4204,-0.3032,-0.8916,-7.629,-40.955,-13.306,-159.225,28.114,128.941
6986,-0.4375,-0.3013,-0.8345,20.63,-2.991,3.601,-158.923,28.301,129.078
7006,-0.4766,-0.3081,-0.8096,27.283,19.348,11.902,-158.621,27.878,128.54
7016,-0.4766,-0.3081,-0.8096,24.414,45.227,17.7,-158.566,27.543,128.167
7026,-0.5098,-0.2959,-0.8833,13.916,41.687,14.16,-158.604,27.224,127.848
7056,-0.4199,-0.2939,-0.8188,-1.221,5.493,-2.441,-158.84,26.741,127.557
7075,-0.4375,-0.3467,-0.7588,5.737,8.728,-0.732,-158.714,26.631,127.546
7085,-0.4375,-0.3467,-0.7588,7.202,16.174,1.892,-158.632,26.51,127.463
7096,-0.4673,-0.3716,-0.7686,3.296,22.034,2.869,-158.61,26.34,127.343
7136,-0.4282,-0.3018,-1.04,-18.127,8.484,-5.554,-159.34,25.582,127.156
7145,-0.4282,-0.3018,-1.04,-11.719,-0.183,-4.456,-159.483,25.527,127.2
7165,-0.4111,-0.292,-0.9575,-11.719,-0.183,-4.456,-159.439,25.724,127.315
7176,-0.3955,-0.2847,-0.7139,17.578,-16.785,2.563,-159.236,25.906,127.354
7185,-0.3955,-0.2847,-0.7139,17.578,-16.785,2.563,-158.978,26.021,127.354
7195,-0.4014,-0.3096,-0.6807,17.578,-16.785,2.563,-158.802,25.955,127.293
7205,-0.4126,-0.3154,-0.769,7.568,28.015,0.671,-158.769,25.703,127.172
7225,-0.4272,-0.2593,-0.981,-2.808,38.33,1.404,-159.126,24.994,126.837
7235,-0.4272,-0.2593,-0.981,-2.808,38.33,1.404,-159.368,24.78,126.738
7254,-0.4141,-0.186,-1.0859,-3.54,-7.385,-2.258,-159.505,25.065,127.013
7265,-0.4141,-0.186,-1.0859,-3.54,-7.385,-2.258,-159.401,25.56,127.397
7285,-0.4741,-0.3281,-0.7583,-5.005,-71.838,-25.146,-158.972,26.796,128.447
7315,-0.4854,-0.3818,-0.6812,-20.508,-55.359,-17.09,-158.577,28.35,129.853
7325,-0.4771,-0.3618,-0.7373,-24.78,-49.805,-13.916,-158.61,28.779,130.21
7334,-0.4692,-0.3521,-0.7808,-24.78,-49.805,-13.916,-158.67,29.086,130.529
7355,-0.4746,-0.3979,-0.9189,-14.832,-3.662,-10.315,-158.807,29.18,130.908
7395,-0.5249,-0.4312,-0.9043,26.611,48.401,27.527,-158.681,28.026,129.628
7424,-0.5239,-0.3706,-0.9961,26.611,48.401,27.527,-159.049,26.949,128.337
7444,-0.5142,-0.2842,-1.144,-3.418,-1.953,13.977,-159.511,26.796,127.897
7464,-0.438,-0.1226,-0.9111,0.916,-68.97,-2.502,-159.593,27.719,128.276
7484,-0.4141,-0.123,-0.6353,0.916,-68.97,-2.502,-158.956,29.482,129.496
7494,-0.4141,-0.123,-0.6353,-2.197,-71.655,-39.062,-158.417,30.135,130.21
7504,-0.4561,-0.4199,-0.4272,-5.31,-31.982,-38.757,-157.967,30.361,130.765
7524,-0.4146,-0.4375,-0.501,-7.263,64.209,-5.432,-157.813,29.487,130.748
7544,-0.4829,-0.396,-0.9907,10.742,121.765,25.574,-158.318,27.455,129.37
7574,-0.5469,-0.2783,-1.6631,17.822,70.068,26.611,-158.928,25.027,127.321
7593,-0.3955,-0.1753,-1.1694,9.338,-38.208,12.207,-158.818,25.285,127.002
7614,-0.3091,-0.166,-0.3003,10.864,-115.906,-8.911,-158.198,27.197,127.941
7633,-0.4248,-0.2778,-0.186,19.714,-98.694,-18.433,-157.308,28.471,128.99
7644,-0.4248,-0.2778,-0.186,16.907,1.648,-17.456,-157.055,28.389,129.166
7654,-0.3999,-0.4927,-0.3643,4.395,57.678,-6.47,-157.099,27.834,128.979
7663,-0.3999,-0.4927,-0.3643,4.395,57.678,-6.47,-157.429,26.966,128.485
7673,-0.3999,-0.4927,-0.3643,4.395,57.678,-6.47,-157.89,26.027,127.798
7683,-0.4668,-0.4053,-1.3657,-1.465,99.182,26.794,-158.209,25.208,127.106
7723,-0.4297,-0.314,-1.3389,9.216,-3.967,20.874,-158.346,24.258,125.458
7743,-0.4028,-0.4155,-0.9224,-28.931,-30.518,9.033,-158.78,24.818,125.392
7763,-0.4346,-0.2773,-0.6963,-44.006,-39.001,0.732,-159.527,25.565,125.645
7793,-0.3921,-0.2461,-0.8125,-21.301,-7.629,-0.183,-160.137,25.774,125.739
7812,-0.4067,-0.2451,-0.978,-0.244,21.301,3.662,-160.258,25.362,125.486
7833,-0.4941,-0.2646,-1.0396,-15.991,-15.93,-3.967,-160.461,25.472,125.552
7852,-0.4619,-0.2646,-0.9443,-19.714,-38.818,-14.465,-160.642,26.049,126.079
7873,-0.4492,-0.3457,-0.7319,-5.493,-13.855,-10.62,-160.648,26.4,126.508
7892,-0.4673,-0.353,-0.7407,-1.343,27.222,6.592,-160.741,26.087,126.332
7922,-0.5117,-0.3081,-1.2427,-18.799,4.333,1.709,-161.384,25.494,125.848
7932,-0.5117,-0.3081,-1.2427,-16.357,-25.208,-4.639,-161.488,25.719,125.986
7943,-0.4116,-0.1699,-0.9678,-4.944,-56.091,-11.475,-161.4,26.213,126.304
7962,-0.4287,-0.186,-0.7173,9.216,-75.806,-16.052,-160.714,27.543,127.222
7972,-0.4287,-0.186,-0.7173,19.958,-57.19,-18.982,-160.318,28.021,127.639
7982,-0.479,-0.373,-0.5156,16.663,-25.208,-16.907,-160.021,28.202,127.914
8002,-0.4673,-0.3926,-0.5781,-0.793,44.495,-3.357,-159.966,27.625,127.853
8022,-0.4468,-0.3276,-1.0947,-4.7,70.923,8.423,-160.389,26.373,127.194
8052,-0.4443,-0.2041,-1.2007,4.272,-4.211,2.93,-160.494,25.664,126.678
8072,-0.3848,-0.2002,-0.8193,-2.258,-56.458,-11.353,-160.269,26.499,127.205
8082,-0.3848,-0.2002,-0.8193,-4.333,-55.176,-14.587,-160.148,26.966,127.568
8092,-0.4116,-0.3174,-0.5605,-2.075,-34.79,-14.221,-160.043,27.246,127.848
8111,-0.4258,-0.3687,-0.5215,6.531,32.166,0.916,-159.961,26.949,127.82
8122,-0.4199,-0.3794,-0.6802,6.531,32.166,0.916,-160.071,26.389,127.48
8132,-0.4536,-0.3584,-0.9429,6.531,32.166,0.916,-160.296,25.686,127.035
8172,-0.4297,-0.2769,-1.2158,-18.372,-11.963,-5.493,-161.378,24.313,126.436
8191,-0.4175,-0.292,-0.9116,-14.404,-57.922,-7.935,-161.521,25.12,126.942
8212,-0.4302,-0.2881,-0.6099,-4.639,-56.58,-5.005,-161.334,26.329,127.485
8242,-0.4355,-0.2588,-0.7646,5.249,-2.38,0.854,-161.087,26.576,127.48
8252,-0.4482,-0.2554,-0.8813,8.606,39.612,8.24,-161.131,26.224,127.249
8261,-0.4482,-0.2554,-0.8813,4.089,36.011,9.033,-161.252,25.911,127.029
8271,-0.4707,-0.21,-1.0449,-2.563,16.663,6.836,-161.411,25.757,126.898
8281,-0.4727,-0.2114,-1.04,-9.338,-5.432,3.967,-161.581,25.801,126.87
8301,-0.4209,-0.2339,-0.8926,-19.043,-41.809,-4.333,-161.889,26.411,127.161
8321,-0.4253,-0.3271,-0.7686,-13.855,-27.893,-5.615,-161.993,27.015,127.535
8342,-0.4766,-0.3755,-0.8008,-9.766,14.16,3.906,-162.059,26.977,127.485
8351,-0.4766,-0.3755,-0.8008,-9.766,14.16,3.906,-162.257,26.735,127.282
8361,-0.481,-0.3027,-1.0747,-19.348,30.762,13.062,-162.581,26.45,127.04
8371,-0.481,-0.3027,-1.0747,-17.334,20.325,10.376,-162.878,26.241,126.859
8391,-0.4497,-0.2295,-1.104,-7.935,-4.761,0.854,-163.213,26.142,126.777
8410,-0.4438,-0.251,-1.0239,7.996,-16.235,-3.174,-163.103,26.373,126.942
8431,-0.439,-0.3105,-0.7324,24.048,9.277,4.517,-162.625,26.406,126.892
8480,-0.4629,-0.2129,-0.8232,1.77,15.198,0.244,-161.938,25.197,125.898
8490,-0.4629,-0.2129,-0.8232,-11.963,-7.751,-9.033,-162.07,25.236,126.019
8501,-0.4399,-0.1934,-0.9336,-20.081,-29.907,-18.188,-162.208,25.461,126.31
8520,-0.4619,-0.2324,-0.9033,-20.081,-29.907,-18.188,-162.268,26.356,127.2
8530,-0.4619,-0.2324,-0.9033,-25.269,-57.19,-24.109,-162.285,26.834,127.65
8541,-0.4849,-0.376,-0.9458,-28.931,-44.8,-20.752,-162.367,27.18,128.024
8560,-0.4746,-0.375,-0.9272,-23.621,-26.245,-11.719,-162.57,27.389,128.265
8580,-0.4561,-0.2769,-0.8906,6.47,26.489,11.292,-162.686,27.026,127.919
8600,-0.4766,-0.2617,-0.9141,6.47,26.489,11.292,-162.642,26.4,127.518
8610,-0.4795,-0.2344,-1.0249,12.939,35.461,2.991,-162.625,26.054,127.37
8630,-0.4629,-0.2432,-1.0557,8.728,20.569,-1.587,-162.587,25.521,127.222
8650,-0.4297,-0.2891,-0.8442,13.916,8.911,-1.709,-162.361,25.307,127.194
8670,-0.4355,-0.3208,-0.7896,18.677,16.235,-0.244,-161.922,24.906,127.018
8690,-0.4336,-0.3281,-0.9277,19.531,48.279,8.789,-161.62,24.082,126.546
8709,-0.4429,-0.2173,-0.999,19.531,48.279,8.789,-161.774,23.571,126.123
8720,-0.4185,-0.1885,-0.9307,19.531,48.279,8.789,-161.895,23.626,126.107
8739,-0.4106,-0.2007,-0.8296,-4.456,-24.414,-5.371,-161.84,24.186,126.469
8749,-0.4102,-0.2686,-0.7046,-4.456,-24.414,-5.371,-161.669,24.472,126.694
8760,-0.4102,-0.2686,-0.7046,5.005,-16.113,-9.216,-161.51,24.631,126.843
8779,-0.3755,-0.2993,-0.7661,-1.465,18.555,-0.671,-161.444,24.445,126.832
8800,-0.3916,-0.2739,-0.9209,-2.625,31.067,-2.014,-161.609,23.84,126.628
8829,-0.4023,-0.2471,-1.0415,7.202,7.996,-4.944,-161.647,23.198,126.573
8840,-0.3755,-0.2583,-1.062,7.202,7.996,-4.944,-161.609,23.159,126.628
8869,-0.397,-0.3242,-0.8896,-5.676,-8.972,-2.686,-161.592,23.302,126.826
8909,-0.356,-0.3594,-0.7993,10.62,33.02,7.446,-161.345,22.939,126.59
8929,-0.374,-0.2622,-1.1475,10.62,33.02,7.446,-161.411,22.022,126.002
8939,-0.374,-0.2622,-1.1475,2.075,40.161,12.512,-161.565,21.638,125.739
8958,-0.3936,-0.2319,-1.2124,-13.245,-9.033,-1.709,-161.933,21.511,125.656
9009,-0.3901,-0.3398,-0.5918,12.024,8.118,-12.024,-161.021,22.632,126.606
9019,-0.3975,-0.3838,-0.7637,6.531,29.663,-9.705,-160.884,22.346,126.601
9059,-0.3984,-0.2466,-1.3687,-21.179,-21.973,-12.39,-161.548,21.533,126.711
9078,-0.3838,-0.2397,-0.9727,-21.179,-21.973,-12.39,-161.702,22.791,127.667
9099,-0.3979,-0.293,-0.7358,-5.127,-93.567,-18.616,-161.246,24.648,128.782
9128,-0.417,-0.3711,-0.5562,9.338,44.617,9.216,-160.692,24.983,128.875
9148,-0.4336,-0.3501,-0.811,14.648,79.59,16.113,-160.763,23.516,127.908
9158,-0.4385,-0.2607,-1.2368,14.648,79.59,16.113,-160.834,22.841,127.474
9168,-0.4121,-0.2075,-1.1973,21.118,41.809,9.766,-160.818,22.44,127.227
9188,-0.3818,-0.2134,-1.104,21.118,41.809,9.766,-160.521,22.533,127.37
9208,-0.4014,-0.3535,-0.7183,11.353,-28.87,-15.076,-159.977,23.093,127.903
9228,-0.3804,-0.3955,-0.7314,5.737,12.207,-2.441,-159.62,23.088,128.029
9248,-0.3965,-0.3608,-1.0254,-4.639,40.833,9.277,-159.78,22.412,127.606
9257,-0.3965,-0.3608,-1.0254,-2.441,35.461,9.583,-159.95,22.083,127.381
9278,-0.3672,-0.2607,-1.0566,-1.038,4.639,2.319,-160.181,21.797,127.183
9308,-0.3867,-0.2944,-0.9385,-5.493,-18.738,-6.165,-160.087,22.253,127.496
9318,-0.4458,-0.3809,-0.8613,-11.658,-13.489,-6.409,-160.12,22.385,127.612
9338,-0.4014,-0.3267,-0.981,-23.56,-1.892,-0.488,-160.51,22.445,127.689
9358,-0.3599,-0.2427,-0.7974,-3.662,-1.953,2.563,-160.796,22.495,127.645
9387,-0.4028,-0.3159,-0.7266,21.118,32.837,-1.953,-160.219,22.066,127.48
9398,-0.4097,-0.3828,-0.9482,9.216,43.213,0.854,-160.17,21.665,127.315
9427,-0.3257,-0.2627,-1.106,-15.625,27.771,13.977,-160.862,20.561,126.595
9437,-0.3481,-0.2095,-1.0425,-15.625,27.771,13.977,-161.104,20.5,126.469
9447,-0.3481,-0.2095,-1.0425,-9.338,-12.817,-3.052,-161.23,20.605,126.546
9467,-0.377,-0.2856,-0.8647,-9.033,-29.175,-22.766,-161.246,21.011,127.123
9516,-0.3384,-0.3486,-0.8174,9.766,31.372,-7.141,-160.675,20.297,127.595
9537,-0.3125,-0.3823,-0.9497,16.296,67.322,5.188,-160.527,19.023,127.068
9546,-0.3125,-0.3823,-0.9497,16.296,67.322,5.188,-160.538,18.43,126.777
9567,-0.3154,-0.2813,-1.2925,16.296,67.322,5.188,-160.62,18.034,126.584
9577,-0.2695,-0.1924,-1.0029,3.601,-36.194,-8.972,-160.604,18.309,126.799
9596,-0.3042,-0.2124,-0.7139,3.601,-36.194,-8.972,-159.988,19.325,127.579
9607,-0.3042,-0.2124,-0.7139,28.198,-18.188,-18.433,-159.472,19.556,127.831
9617,-0.3677,-0.4204,-0.5181,25.94,20.752,-10.254,-159.022,19.418,127.853
9626,-0.3433,-0.4546,-0.6294,25.94,20.752,-10.254,-158.73,18.907,127.628
9636,-0.3433,-0.4546,-0.6294,25.94,20.752,-10.254,-158.632,18.111,127.227
9646,-0.2686,-0.3682,-0.9961,14.954,90.393,12.756,-158.637,17.287,126.755
9666,-0.2886,-0.3184,-1.0386,15.564,60.852,11.78,-158.637,16.057,125.975
9686,-0.3169,-0.4082,-1.1172,5.615,25.208,7.813,-158.588,15.48,125.557
9706,-0.3062,-0.3735,-1.2646,-27.222,-8.24,2.075,-159.055,15.441,125.469
9716,-0.3062,-0.3735,-1.2646,-36.438,-33.752,-6.47,-159.434,15.699,125.656
9766,-0.3198,-0.3813,-0.5317,25.024,-2.93,-11.047,-158.643,17.99,127.43
9796,-0.2568,-0.4116,-1.0947,6.531,81.848,9.949,-158.247,16.287,126.612
9826,-0.251,-0.2725,-1.4873,-8.789,5.554,5.798,-158.708,15.112,125.662
9845,-0.251,-0.2886,-1.3193,-4.456,-84.412,-25.879,-158.648,16.166,126.53
9866,-0.3086,-0.3584,-0.4307,18.127,-78.674,-23.987,-158.06,17.644,127.716
9876,-0.3311,-0.3696,-0.3608,25.33,-31.128,-15.381,-157.725,17.875,127.991
9885,-0.3311,-0.3696,-0.3608,25.33,-31.128,-15.381,-157.44,17.622,127.947
9906,-0.2407,-0.3955,-0.7505,30.029,111.755,10.132,-157.077,15.914,127.079
9935,-0.2627,-0.3301,-1.4419,3.784,58.411,-6.531,-157.017,13.359,125.793
9955,-0.209,-0.3633,-1.4824,-12.695,-39.673,-33.203,-157.077,13.458,126.436
9985,-0.2842,-0.4307,-0.6201,2.38,-82.703,-18.921,-156.736,15.43,128.205
9995,-0.2842,-0.4307,-0.6201,10.254,-48.401,-12.817,-156.55,15.826,128.529
10015,-0.3057,-0.4478,-0.7954,12.451,34.363,-6.47,-156.253,15.491,128.557
10055,-0.2393,-0.3721,-1.2358,8.24,-6.348,-0.61,-156.237,14.315,128.018
10074,-0.2827,-0.3965,-0.8711,8.24,-6.348,-0.61,-155.665,15.024,128.441
10085,-0.3071,-0.3979,-0.7393,29.663,-43.274,-3.418,-155.314,15.403,128.655
10095,-0.3169,-0.3901,-0.6812,31.311,-21.851,-4.211,-154.968,15.584,128.793
10114,-0.2939,-0.4082,-0.8457,31.311,-21.851,-4.211,-154.49,15.287,128.76
10125,-0.2759,-0.3774,-0.9248,16.174,33.936,-3.479,-154.358,14.969,128.639
10144,-0.2627,-0.3853,-0.9609,16.174,33.936,-3.479,-154.067,14.398,128.485
10165,-0.2437,-0.4746,-0.9009,19.165,27.649,-7.69,-153.693,13.865,128.414
10205,-0.2104,-0.4385,-0.9736,-9.583,28.381,2.014,-153.869,12.612,127.782
10214,-0.2104,-0.4385,-0.9736,-9.583,28.381,2.014,-153.94,12.437,127.667
10224,-0.2104,-0.4385,-0.9736,-9.583,28.381,2.014,-153.924,12.266,127.546
10234,-0.2246,-0.3564,-0.6733,13.428,28.748,4.089,-153.825,12.03,127.381
10244,-0.231,-0.3687,-0.7314,16.235,37.476,6.042,-153.71,11.717,127.156
10254,-0.231,-0.3687,-0.7314,13.0,41.016,3.723,-153.622,11.365,126.936
10274,-0.2085,-0.4863,-1.1299,-7.019,27.832,-5.432,-153.677,10.728,126.689
10294,-0.2012,-0.5005,-1.1807,-22.644,-12.39,-15.686,-154.05,10.629,126.953
10314,-0.2256,-0.4507,-0.8604,-1.953,-39.734,-6.653,-154.111,11.206,127.425
10344,-0.2568,-0.4536,-0.7158,4.456,-5.798,1.343,-153.704,11.937,127.733
10354,-0.2124,-0.4429,-0.8154,-4.578,11.536,-0.061,-153.737,11.843,127.683
10373,-0.1948,-0.4414,-0.9019,-13.733,24.841,-0.793,-154.056,11.382,127.48
10384,-0.1948,-0.4414,-0.9019,-15.32,14.099,0.427,-154.281,11.228,127.414
10424,-0.2183,-0.397,-0.7388,6.714,-46.082,-4.883,-154.33,12.239,128.018
10464,-0.2192,-0.4385,-0.9019,-20.203,25.452,-0.183,-154.44,12.294,128.145
10483,-0.1992,-0.4155,-1.0093,-22.705,17.212,4.211,-155.017,11.865,127.87
10504,-0.1982,-0.4146,-0.978,-12.146,-16.724,-4.822,-155.336,11.986,128.002
10533,-0.2021,-0.4058,-0.8882,-13.611,-17.334,2.014,-155.621,12.469,128.309
10553,-0.21,-0.3936,-0.8359,-14.343,-13.916,4.883,-155.863,12.733,128.309
10573,-0.2012,-0.3672,-0.6655,-7.202,11.536,12.878,-155.984,12.761,128.068
10622,-0.272,-0.3467,-1.3799,-36.743,-48.706,-12.268,-157.401,12.706,127.59
10643,-0.272,-0.3467,-1.3799,-26.733,-110.596,-27.283,-157.906,14.288,128.848
10662,-0.208,-0.4131,-0.9399,-10.437,-119.873,-24.414,-157.571,16.21,130.133
10673,-0.2383,-0.478,-0.6255,-10.437,-119.873,-24.414,-157.236,16.859,130.49
10702,-0.2539,-0.4312,-0.4131,23.315,44.128,7.202,-156.313,16.002,129.771
10712,-0.2871,-0.373,-0.9399,17.09,105.469,27.588,-156.357,15.156,129.067
10723,-0.2939,-0.3301,-1.2046,6.836,90.759,32.898,-156.55,14.442,128.375
10732,-0.2939,-0.3301,-1.2046,6.836,90.759,32.898,-156.819,13.958,127.892
10752,-0.2837,-0.3032,-1.3472,-5.554,-24.292,-13.184,-157.121,13.92,127.985
10782,-0.2603,-0.4175,-0.6147,1.282,-55.176,-23.926,-156.511,15.342,129.353
10803,-0.293,-0.417,-0.5801,1.282,-55.176,-23.926,-155.984,15.705,129.65
10812,-0.293,-0.417,-0.5801,1.282,-55.176,-23.926,-155.962,15.425,129.529
10822,-0.2598,-0.4082,-1.04,1.282,-55.176,-23.926,-156.143,15.007,129.304
10832,-0.2598,-0.4082,-1.04,1.282,-55.176,-23.926,-156.385,14.667,129.095
10862,-0.2632,-0.3945,-0.9956,7.324,-20.02,-4.7,-156.484,14.656,129.128
10872,-0.2783,-0.4219,-0.8779,10.254,-26.062,-6.47,-156.319,14.881,129.293
10892,-0.2666,-0.4272,-0.8364,10.254,-26.062,-6.47,-156.105,15.156,129.501
10912,-0.2666,-0.3999,-0.9658,-10.071,10.01,2.38,-156.275,15.035,129.419
10921,-0.2666,-0.3999,-0.9658,-10.071,10.01,2.38,-156.451,14.963,129.353
10932,-0.2666,-0.3999,-0.9658,-10.071,10.01,2.38,-156.577,14.969,129.331
10942,-0.2739,-0.3672,-0.9834,-1.526,-10.132,1.343,-156.616,15.062,129.359
10952,-0.2725,-0.3662,-0.8877,5.676,-16.174,0.0,-156.55,15.216,129.424
10961,-0.2725,-0.3662,-0.8877,5.676,-16.174,0.0,-156.412,15.386,129.49
10982,-0.291,-0.4155,-0.7935,-0.183,5.005,5.92,-156.275,15.496,129.43
11001,-0.2715,-0.397,-1.0244,-21.729,18.86,15.32,-156.714,15.293,129.029
11051,-0.2944,-0.3901,-0.8408,-6.104,-21.301,0.305,-157.401,15.903,128.892
11062,-0.3008,-0.4121,-0.8037,-10.071,-15.137,0.977,-157.445,16.068,128.941
11071,-0.3008,-0.4121,-0.8037,-14.648,-3.418,2.93,-157.538,16.144,128.93
11081,-0.3149,-0.3975,-0.7793,-20.569,8.057,5.249,-157.714,16.128,128.848
11091,-0.3135,-0.3335,-0.7544,-20.569,8.057,5.249,-157.983,16.084,128.727
11111,-0.3047,-0.2993,-0.7271,-38.33,2.014,2.625,-158.714,16.095,128.6
11131,-0.2837,-0.312,-1.0078,-48.096,-23.437,-5.676,-159.664,16.375,128.798
11151,-0.2842,-0.312,-1.1226,-45.654,-36.072,-6.958,-160.593,16.886,129.183
11161,-0.2402,-0.2988,-1.208,-32.715,-33.997,-6.104,-160.917,17.122,129.359
11180,-0.2295,-0.2842,-1.1479,-32.715,-33.997,-6.104,-160.977,17.435,129.584
11201,-0.2637,-0.3867,-0.9595,23.315,13.306,2.502,-160.532,17.303,129.523
11220,-0.2515,-0.4136,-1.0034,23.315,13.306,2.502,-160.203,16.584,129.062
11241,-0.3003,-0.3198,-1.001,22.156,38.391,19.653,-159.983,15.892,128.37
11281,-0.3091,-0.3188,-0.833,5.615,-4.578,-8.179,-159.626,15.837,128.177
11310,-0.2935,-0.3486,-1.1099,-6.714,-20.935,-8.484,-159.67,16.1,128.606
11331,-0.2524,-0.3091,-0.9902,-3.357,-33.508,-4.15,-159.747,16.595,128.936
11340,-0.2524,-0.3091,-0.9902,7.202,-33.875,-1.526,-159.626,16.902,129.073
11350,-0.27,-0.3247,-0.6553,17.212,-21.973,0.549,-159.373,17.139,129.15
11370,-0.3086,-0.3521,-0.6543,23.132,0.122,2.686,-158.835,17.084,128.99
11380,-0.3086,-0.3521,-0.6543,23.132,0.122,2.686,-158.813,16.771,128.793
11390,-0.3232,-0.3569,-1.1353,-4.211,35.156,5.554,-158.945,16.452,128.606
11400,-0.3232,-0.3569,-1.1353,-4.211,35.156,5.554,-159.153,16.293,128.507
11420,-0.3071,-0.3179,-1.2524,-10.803,-32.776,-2.502,-159.494,16.589,128.677
11439,-0.3145,-0.2944,-1.0967,-1.587,-58.899,-3.052,-159.357,17.814,129.243
11460,-0.2881,-0.3896,-0.7437,-2.014,-67.749,-2.808,-159.038,19.193,129.864
11479,-0.2607,-0.3618,-0.6118,12.878,11.78,2.075,-158.621,19.451,129.935
11500,-0.3242,-0.3906,-0.833,14.221,77.209,7.629,-158.384,18.314,129.304
11530,-0.2778,-0.248,-1.249,5.005,29.297,12.573,-158.654,16.93,128.304
11540,-0.2207,-0.2383,-1.2275,5.005,29.297,12.573,-158.73,16.804,128.216
11549,-0.2207,-0.2383,-1.2275,5.005,29.297,12.573,-158.665,16.826,128.238
11570,-0.27,-0.354,-0.7822,17.7,-14.099,0.0,-158.286,17.062,128.309
11589,-0.3188,-0.3779,-0.7324,5.432,-7.019,4.089,-157.983,17.342,128.293
11609,-0.2915,-0.353,-0.7407,-6.958,0.977,-3.662,-157.967,17.435,128.326
11649,-0.2944,-0.3911,-0.9692,-12.512,18.738,4.578,-158.351,16.842,128.188
11679,-0.3164,-0.3516,-1.1816,-18.005,-7.507,3.845,-158.983,16.749,127.93
11699,-0.3052,-0.334,-1.3042,-19.653,-32.166,-5.005,-159.423,17.144,128.188
11709,-0.3286,-0.3208,-1.27,-18.494,-43.091,-6.409,-159.604,17.49,128.414
11719,-0.3252,-0.313,-1.1094,-17.09,-56.458,-6.836,-159.736,17.974,128.683
11738,-0.3027,-0.29,-0.8032,3.357,-76.66,-6.042,-159.489,19.424,129.342
11759,-0.3521,-0.3721,-0.3765,13.977,-30.762,-5.005,-158.632,20.539,129.803
11808,-0.3911,-0.292,-1.1646,-9.155,51.025,11.963,-159.296,18.166,128.738
11848,-0.3809,-0.2935,-1.2178,-9.277,-3.418,0.366,-160.043,18.49,128.941
11858,-0.2705,-0.3096,-1.0527,-25.513,-45.837,-6.836,-160.258,18.847,129.172
11869,-0.25,-0.3042,-0.8892,-20.752,-44.922,-3.723,-160.411,19.215,129.37
11888,-0.3345,-0.3506,-0.6592,-20.752,-44.922,-3.723,-160.367,19.671,129.496
11899,-0.3345,-0.3506,-0.6592,-20.752,-44.922,-3.723,-160.214,19.655,129.391
11928,-0.3345,-0.3506,-0.6592,-20.752,-44.922,-3.723,-159.642,18.699,128.628
11968,-0.4238,-0.2671,-1.5215,-25.391,-16.785,-6.409,-160.587,17.809,127.958
11987,-0.3745,-0.2256,-1.3501,-16.357,-97.412,-16.418,-160.735,19.16,128.771
12008,-0.2515,-0.3691,-0.5073,-0.916,-98.267,-17.517,-160.422,21.077,129.902
12018,-0.2773,-0.3813,-0.4507,3.174,-50.415,-10.132,-160.291,21.517,130.188
12048,-0.3862,-0.3438,-0.9351,-2.075,74.951,12.634,-160.439,20.281,129.474
12057,-0.3862,-0.3438,-0.9351,-2.075,74.951,12.634,-160.631,19.709,129.106
12077,-0.3384,-0.25,-1.2656,1.038,28.381,2.625,-160.79,19.045,128.732
12107,-0.3394,-0.3584,-0.8813,17.334,-18.677,-1.892,-160.329,19.177,128.897
12117,-0.3394,-0.3584,-0.8813,8.728,-18.982,3.113,-160.23,19.363,128.93
12128,-0.3779,-0.3232,-0.8511,-3.662,-14.648,4.517,-160.263,19.517,128.941
12137,-0.3779,-0.3232,-0.8511,-17.578,-12.878,1.953,-160.428,19.649,128.963
12157,-0.2979,-0.2324,-0.9336,-23.315,-22.522,-5.493,-160.851,19.984,129.177
12177,-0.2783,-0.251,-0.811,-1.038,-12.817,-8.24,-160.889,20.281,129.474
12197,-0.3271,-0.3442,-0.7637,12.756,30.09,1.526,-160.714,19.907,129.364
12217,-0.3994,-0.3423,-1.2407,12.756,30.09,1.526,-160.735,19.122,128.87
12227,-0.3931,-0.2949,-1.3525,-6.287,31.494,10.193,-160.867,18.858,128.661
12246,-0.3096,-0.2622,-1.126,-10.437,-19.409,-2.258,-161.093,18.995,128.699
12267,-0.2871,-0.27,-0.5415,8.301,-46.143,-4.272,-160.911,19.781,129.078
12277,-0.2993,-0.2646,-0.3564,13.855,-35.583,-2.808,-160.719,20.105,129.232
12286,-0.2993,-0.2646,-0.3564,13.855,-35.583,-2.808,-160.593,20.231,129.298
12297,-0.3853,-0.3003,-0.6089,13.855,-35.583,-2.808,-160.675,20.132,129.32
12307,-0.397,-0.314,-0.9946,-32.349,23.376,-9.399,-160.994,19.88,129.331
12337,-0.314,-0.3105,-1.2061,-48.279,-1.892,-11.78,-162.394,19.572,129.65
12347,-0.2939,-0.3301,-1.145,-32.532,0.122,-6.836,-162.697,19.55,129.716
12376,-0.3066,-0.3174,-1.0044,13.489,5.798,16.113,-162.812,19.451,129.408
12387,-0.3169,-0.2808,-0.7813,19.043,14.099,19.958,-162.708,19.374,129.161
12416,-0.3687,-0.2925,-1.0479,1.953,36.499,15.076,-162.724,18.567,128.315
12446,-0.3184,-0.2134,-0.9668,-3.113,-19.409,-2.258,-162.878,18.523,128.167
12456,-0.3042,-0.1963,-0.8877,1.343,-34.79,-9.094,-162.801,18.831,128.364
12496,-0.3511,-0.2749,-0.9473,-12.268,-34.18,-16.479,-162.493,20.078,129.545
12526,-0.3101,-0.3125,-0.876,-5.188,0.122,-1.709,-162.719,20.407,129.902
12545,-0.2891,-0.2886,-0.7813,13.672,30.396,9.399,-162.636,19.995,129.617
12556,-0.2964,-0.2798,-0.8203,13.672,30.396,9.399,-162.504,19.633,129.326
12566,-0.3232,-0.2954,-0.9438,24.658,51.697,20.02,-162.378,19.199,128.958
12585,-0.4189,-0.2788,-1.2754,5.676,41.992,15.625,-162.389,18.402,128.276
12596,-0.4189,-0.2788,-1.2754,-3.479,15.076,3.54,-162.449,18.27,128.194
12625,-0.4092,-0.3042,-1.332,-1.16,-71.594,-16.968,-162.361,19.473,129.067
12636,-0.4092,-0.3042,-1.332,9.216,-85.144,-17.151,-162.12,20.231,129.518
12665,-0.3203,-0.3452,-0.6602,22.461,-33.203,-1.77,-161.208,21.868,130.402
12675,-0.3472,-0.354,-0.6831,22.278,2.441,6.714,-161.016,21.868,130.325
12695,-0.3462,-0.3569,-0.7598,19.104,32.898,13.184,-160.862,21.143,129.705
12705,-0.3462,-0.3569,-0.7598,19.104,32.898,13.184,-160.763,20.638,129.254
12715,-0.3477,-0.2583,-0.9927,25.146,63.843,26.062,-160.681,20.121,128.765
12725,-0.3477,-0.2583,-0.9927,17.09,63.293,18.066,-160.648,19.583,128.359
12745,-0.3604,-0.2432,-1.0518,8.24,24.17,11.719,-160.593,18.968,127.848
12765,-0.3545,-0.2725,-0.9585,-2.014,-3.113,4.15,-160.686,19.21,127.936
12795,-0.2852,-0.2832,-0.8472,-3.601,-14.465,-10.742,-160.79,19.709,128.491
12804,-0.2852,-0.2832,-0.8472,-3.601,-14.465,-10.742,-160.741,19.715,128.578
12844,-0.3403,-0.3633,-0.9785,24.353,11.169,3.723,-160.032,19.391,128.386
12865,-0.4077,-0.3149,-0.9976,-1.099,-7.874,3.357,-159.988,19.479,128.282
12905,-0.3545,-0.2769,-0.8579,-14.038,-65.796,-17.944,-160.439,21.077,129.49
12935,-0.313,-0.3105,-0.6279,6.836,-31.799,-14.893,-159.961,22.401,130.578
12974,-0.3408,-0.3335,-1.0288,-4.211,56.152,4.395,-159.895,21.099,130.166
13004,-0.3398,-0.2871,-1.187,11.047,41.016,13.123,-160.016,19.924,129.32
13014,-0.3799,-0.2915,-1.0591,31.555,18.372,15.442,-159.824,19.797,129.1
13024,-0.4116,-0.3027,-0.9058,31.555,18.372,15.442,-159.565,19.924,129.012
13044,-0.4038,-0.3042,-0.7554,-1.099,-49.5,-8.301,-159.269,20.77,129.38
13054,-0.4043,-0.3105,-0.7607,-17.822,-59.265,-14.16,-159.302,21.324,129.749
13064,-0.4043,-0.3105,-0.7607,-17.822,-59.265,-14.16,-159.428,21.967,130.133
13084,-0.5005,-0.3486,-1.1309,-46.204,-98.083,-11.353,-159.95,23.61,131.039
13103,-0.4409,-0.3047,-1.1348,-33.203,-103.21,-7.874,-160.422,25.4,132.023
13124,-0.4409,-0.3047,-1.1348,0.61,-59.265,2.93,-160.318,26.724,132.556
13143,-0.4326,-0.3945,-0.7559,8.423,35.095,7.202,-160.054,26.592,132.347
13154,-0.4512,-0.4243,-0.8179,0.366,82.52,9.949,-160.159,25.856,131.929
13164,-0.459,-0.4014,-0.9946,-1.892,109.802,18.25,-160.417,24.868,131.325
13173,-0.459,-0.4014,-0.9946,11.963,107.849,30.884,-160.648,23.934,130.605
13194,-0.4526,-0.2271,-1.1069,21.423,46.265,25.635,-160.763,22.912,129.529
13213,-0.4199,-0.2202,-1.0225,13.367,-6.47,-3.052,-160.642,22.863,129.408
13253,-0.3862,-0.3281,-0.9248,-11.78,15.564,-6.714,-160.439,22.676,129.853
13263,-0.3906,-0.3281,-0.9648,-18.86,19.409,-0.244,-160.659,22.478,129.787
13273,-0.375,-0.3101,-0.9219,-17.212,14.893,4.578,-160.873,22.341,129.688
13283,-0.375,-0.3101,-0.9219,-17.212,14.893,4.578,-160.961,22.258,129.589
13303,-0.3101,-0.2949,-0.6802,-17.212,14.893,4.578,-160.461,21.819,129.282
13343,-0.4502,-0.27,-1.1782,-8.789,41.199,12.512,-160.214,19.709,127.848
13383,-0.2998,-0.2764,-0.7363,-14.648,-61.951,-25.024,-160.994,21.16,129.095
13402,-0.4092,-0.3638,-1.0352,-14.648,-61.951,-25.024,-160.768,21.72,129.727
13413,-0.4419,-0.3755,-1.1377,-12.817,-20.752,-5.432,-160.862,21.879,129.853
13423,-0.4282,-0.3555,-1.0557,-20.691,-25.024,1.099,-161.043,22.11,129.93
13432,-0.4282,-0.3555,-1.0557,-17.639,-29.907,4.456,-161.208,22.39,129.99
13453,-0.2813,-0.2876,-0.3892,10.315,-2.747,-1.16,-160.889,22.742,130.084
13472,-0.3008,-0.3765,-0.6138,30.09,66.956,4.639,-160.17,21.89,129.672
13493,-0.3921,-0.2632,-1.2681,10.315,101.868,34.241,-160.389,20.171,128.419
13502,-0.3921,-0.2632,-1.2681,-7.751,82.886,29.602,-160.675,19.49,127.826
13512,-0.499,-0.1899,-1.5913,-7.751,82.886,29.602,-161.032,19.254,127.639
13522,-0.4434,-0.2134,-1.4727,-41.687,-43.091,-14.709,-161.351,19.616,127.936
13552,-0.2031,-0.2832,-0.4658,-9.338,-125.366,-42.297,-161.356,22.505,130.204
13562,-0.2793,-0.4058,-0.2568,9.46,-95.459,-33.813,-160.999,23.302,130.88
13582,-0.3086,-0.4438,-0.3877,19.409,48.279,-3.174,-160.521,23.049,131.034
13592,-0.4355,-0.4653,-0.9341,19.409,48.279,-3.174,-160.565,22.176,130.578
13611,-0.4512,-0.3687,-1.5039,-18.25,90.942,22.4,-161.224,20.435,129.452
13622,-0.4883,-0.1787,-1.6421,-18.25,90.942,22.4,-161.532,20.083,129.15
13632,-0.4092,-0.1802,-1.373,-15.442,-22.522,1.16,-161.664,20.297,129.216
13651,-0.292,-0.1948,-0.8633,13.306,-100.708,-21.423,-161.23,21.885,130.133
13672,-0.2881,-0.353,-0.2227,23.56,-22.644,-15.259,-160.488,22.725,130.891
13761,-0.2656,-0.2974,-0.7183,-13.916,-67.81,-14.832,-160.9,22.061,130.336
13781,-0.2983,-0.3628,-0.2891,9.888,-28.564,-14.587,-160.472,23.077,131.193
13801,-0.3794,-0.3872,-1.0869,-1.526,82.703,16.602,-160.697,21.973,130.562
13811,-0.4272,-0.2905,-1.4014,-1.526,82.703,16.602,-160.79,21.264,130.04
13821,-0.4272,-0.2905,-1.4014,-1.526,82.703,16.602,-160.845,20.731,129.633
13831,-0.4272,-0.2905,-1.4014,1.77,30.701,7.751,-160.895,20.468,129.446
13851,-0.3428,-0.248,-0.8774,6.042,-48.096,-14.832,-160.67,20.934,129.853
13891,-0.3296,-0.3828,-0.5,5.127,22.156,-3.174,-160.027,21.863,130.913
13910,-0.353,-0.3994,-0.7778,4.456,71.106,15.076,-160.219,20.726,130.204
13931,-0.4126,-0.333,-1.2656,2.441,69.824,14.282,-160.45,19.512,129.413
13940,-0.4126,-0.333,-1.2656,2.441,69.824,14.282,-160.56,18.995,129.089
13961,-0.3438,-0.2832,-1.1294,2.441,69.824,14.282,-160.422,18.754,128.908
14001,-0.3242,-0.3345,-0.7397,-1.404,-12.817,-1.709,-159.895,19.671,129.49
14020,-0.3438,-0.311,-0.8345,-13.794,15.564,6.47,-160.186,19.523,129.326
14030,-0.3438,-0.311,-0.8345,-13.794,15.564,6.47,-160.307,19.352,129.183
14040,-0.3101,-0.2349,-0.7441,2.808,23.132,3.906,-160.323,19.149,129.062
14050,-0.3188,-0.2505,-0.7959,2.808,23.132,3.906,-160.225,18.929,128.99
14080,-0.3926,-0.3706,-1.1885,2.808,23.132,3.906,-159.977,18.314,129.051
14100,-0.3633,-0.3701,-0.98,2.808,23.132,3.906,-160.389,18.622,129.199
14110,-0.3633,-0.3701,-0.98,2.808,23.132,3.906,-160.631,18.935,129.282
14150,-0.3428,-0.3008,-0.855,1.282,9.094,-0.305,-160.95,19.308,129.408
14169,-0.3452,-0.2866,-0.978,-0.305,10.986,2.136,-160.983,19.061,129.282
14180,-0.3701,-0.2695,-0.9663,-2.502,-0.549,0.671,-161.01,19.072,129.276
14190,-0.3516,-0.2637,-0.8623,-4.517,-10.376,-2.441,-161.038,19.16,129.337
14220,-0.353,-0.2964,-0.7871,-5.981,-10.193,-7.568,-161.043,19.501,129.677
14230,-0.3691,-0.3213,-1.0156,-13.733,-1.221,-7.69,-161.164,19.484,129.754
14260,-0.4023,-0.3193,-1.4087,-23.804,-20.874,0.916,-161.878,19.589,129.891
14269,-0.3853,-0.3037,-1.1675,-23.804,-20.874,0.916,-161.982,19.984,130.007
14279,-0.3853,-0.3037,-1.1675,-3.418,-57.007,0.122,-161.955,20.528,130.193
14289,-0.3281,-0.3247,-0.6704,9.094,-55.176,-2.625,-161.79,21.044,130.402
14300,-0.3228,-0.3188,-0.582,16.724,-30.518,-1.404,-161.581,21.33,130.518
14320,-0.3213,-0.3408,-0.5562,30.579,48.828,8.85,-161.169,20.819,130.199
14329,-0.3213,-0.3408,-0.5562,30.579,48.828,8.85,-160.972,20.127,129.781
14339,-0.2456,-0.3286,-0.7544,35.217,105.103,22.156,-160.823,19.21,129.194
14349,-0.2456,-0.3286,-0.7544,36.072,124.817,30.64,-160.703,18.127,128.458
14359,-0.3662,-0.2598,-1.2168,36.072,124.817,30.64,-160.637,17.139,127.755
14409,-0.2485,-0.2881,-0.6035,-20.386,-107.91,-30.212,-160.714,18.765,128.903
14449,-0.3184,-0.3589,-0.6411,0.305,23.254,0.916,-160.615,19.951,129.908
14458,-0.3184,-0.3589,-0.6411,0.305,23.254,0.916,-160.757,19.523,129.683
14479,-0.3813,-0.2783,-1.3945,-11.963,37.903,11.902,-161.164,18.765,129.161
14519,-0.3799,-0.271,-0.8745,-11.536,-69.58,-9.277,-161.439,19.88,129.6
14559,-0.3423,-0.3032,-0.7344,-6.47,-8.179,-2.991,-161.483,21.736,130.66
14588,-0.4004,-0.2832,-0.9634,-5.066,29.602,5.188,-161.702,21.044,130.276
14628,-0.4331,-0.3545,-1.1802,-5.981,-2.441,2.563,-161.505,20.819,130.128
14637,-0.4434,-0.3306,-1.25,-5.981,-2.441,2.563,-161.675,20.956,130.122
14658,-0.3584,-0.2314,-0.897,-11.597,-49.683,4.028,-161.927,21.753,130.287
14668,-0.3848,-0.2886,-0.7471,2.686,-54.443,-1.465,-161.829,22.269,130.485
14688,-0.3755,-0.3398,-0.8306,2.686,-54.443,-1.465,-161.378,22.868,130.737
14708,-0.4453,-0.3413,-1.0195,21.118,13.062,13.55,-161.032,22.813,130.474
14717,-0.4453,-0.3413,-1.0195,21.118,13.062,13.55,-160.933,22.769,130.276
14738,-0.4033,-0.2617,-0.7671,20.02,-11.841,7.813,-160.637,22.972,130.106
14748,-0.3823,-0.2749,-0.6382,24.292,-7.629,3.052,-160.356,23.11,130.1
14767,-0.3486,-0.29,-0.5483,24.292,-7.629,3.052,-159.769,22.824,129.891
14778,-0.3438,-0.3228,-0.6553,19.165,53.589,5.493,-159.62,22.368,129.633
14788,-0.354,-0.3169,-0.8687,11.963,62.012,9.705,-159.631,21.813,129.304
14807,-0.377,-0.251,-1.1978,-4.089,41.748,12.268,-160.005,20.901,128.683
14818,-0.377,-0.251,-1.1978,-4.089,41.748,12.268,-160.225,20.715,128.557
14827,-0.377,-0.251,-1.1978,-4.089,41.748,12.268,-160.389,20.786,128.661
14837,-0.4097,-0.2935,-1.0464,-4.089,41.748,12.268,-160.45,21.171,128.99
14858,-0.4072,-0.2715,-0.624,-20.813,-75.806,-18.494,-160.444,22.527,129.891
14877,-0.3877,-0.3179,-0.5674,-29.358,-61.646,-17.151,-160.488,23.829,130.759
14898,-0.313,-0.333,-0.729,-19.165,17.883,-9.827,-160.631,23.813,131.045
14927,-0.4478,-0.334,-1.3481,4.761,64.941,5.249,-161.147,21.846,130.32
14967,-0.394,-0.3071,-0.9102,3.784,-34.851,2.075,-161.027,21.742,130.172
14987,-0.3511,-0.25,-0.7124,1.343,-36.682,-1.404,-160.856,22.555,130.452
15007,-0.4302,-0.272,-0.918,-1.648,-13.733,0.549,-160.812,22.961,130.589
15016,-0.4302,-0.272,-0.918,-1.648,-13.733,0.549,-160.851,23.121,130.655
15037,-0.4604,-0.2686,-0.9146,14.404,-61.462,-9.46,-160.549,24.038,131.144
15066,-0.3706,-0.4126,-0.5073,35.156,-8.789,-4.944,-159.06,25.334,131.94
15077,-0.3721,-0.4268,-0.4946,34.18,53.406,0.977,-158.621,24.89,131.715
15096,-0.4116,-0.4312,-0.9497,5.92,130.188,20.752,-158.741,22.813,130.457
15126,-0.4482,-0.3228,-1.228,2.258,86.365,32.532,-159.554,20.643,128.524
15146,-0.3989,-0.2979,-1.1772,2.747,-8.606,10.437,-159.785,20.528,128.123
15157,-0.3721,-0.3125,-0.9629,-1.831,-41.138,-1.221,-159.769,20.901,128.282
15186,-0.3315,-0.3315,-0.6133,1.16,-40.894,-5.371,-159.329,22.335,129.095
15206,-0.3433,-0.3027,-0.6328,5.127,7.263,3.967,-159.186,22.495,129.089
15216,-0.3662,-0.2573,-0.8057,5.127,7.263,3.967,-159.203,22.357,128.985
15226,-0.3906,-0.2739,-0.8599,7.202,17.761,-0.244,-159.186,22.203,128.919
15246,-0.3931,-0.313,-0.8521,7.202,17.761,-0.244,-159.022,22.0,128.958
15266,-0.3848,-0.3647,-0.8628,0.427,8.179,-4.944,-158.89,21.841,129.029
15296,-0.4146,-0.3657,-1.0176,-21.606,1.221,3.052,-159.428,21.632,128.914
15326,-0.4214,-0.3403,-1.0801,-11.169,-25.513,2.197,-159.944,22.088,129.012
15336,-0.3687,-0.3008,-0.9141,-5.249,-33.02,2.869,-159.977,22.396,129.106
15355,-0.397,-0.3213,-0.7461,-5.249,-33.02,2.869,-159.879,23.06,129.287
15376,-0.4048,-0.2891,-0.7144,2.686,-3.967,-0.183,-159.763,23.351,129.353
15405,-0.3589,-0.2866,-0.7925,0.305,21.118,-6.775,-159.73,22.972,129.353
15416,-0.3657,-0.3208,-0.9028,-2.075,25.024,-5.737,-159.774,22.698,129.32
15445,-0.4463,-0.2925,-1.1406,-8.911,-7.385,0.183,-160.131,22.385,129.26
15465,-0.4536,-0.2974,-1.0479,-8.911,-7.385,0.183,-160.307,23.132,129.639
15475,-0.4126,-0.2856,-0.9214,-14.099,-71.533,-7.813,-160.334,23.774,129.979
15485,-0.3936,-0.2813,-0.7959,-12.573,-77.698,-10.193,-160.307,24.472,130.369
15525,-0.3921,-0.3018,-0.6626,-1.831,-47.913,-11.23,-159.752,25.604,131.215
15555,-0.4165,-0.3433,-0.9531,-1.038,54.749,2.075,-159.999,24.164,130.562
15565,-0.4175,-0.3394,-1.0381,-2.38,60.852,9.399,-160.175,23.599,130.237
15574,-0.4175,-0.3394,-1.0381,1.038,47.607,11.841,-160.318,23.165,129.935
15595,-0.4243,-0.3369,-1.0781,9.705,15.747,13.367,-160.389,22.764,129.501
15614,-0.397,-0.3472,-0.9687,15.259,0.183,10.681,-160.219,22.753,129.243
15635,-0.397,-0.3682,-0.9185,22.644,-0.793,9.827,-159.862,22.824,129.056
15654,-0.4111,-0.3955,-0.8369,22.644,-0.793,9.827,-159.313,22.758,128.76
15704,-0.436,-0.2773,-0.9131,-8.24,2.38,-0.61,-158.791,21.94,127.952
15724,-0.4297,-0.2729,-0.856,-38.879,-44.006,-15.686,-159.346,22.533,128.441
15734,-0.4497,-0.2813,-0.8296,-41.931,-59.265,-25.024,-159.598,23.038,128.919
15744,-0.4497,-0.2813,-0.8296,-38.696,-72.021,-35.583,-159.752,23.637,129.556
15764,-0.396,-0.2334,-0.8027,-26.55,-70.435,-45.654,-159.813,24.758,131.039
15833,-0.4419,-0.3359,-1.0518,-7.935,46.875,15.747,-160.604,24.06,131.144
15854,-0.4282,-0.332,-1.1992,4.517,38.757,20.264,-160.933,23.318,130.446
15873,-0.4092,-0.3262,-1.1787,12.39,17.09,18.372,-160.999,22.928,129.875
15894,-0.4023,-0.3091,-0.8281,9.521,-10.864,3.601,-160.84,23.06,129.749
15913,-0.4253,-0.3481,-0.7822,9.521,-10.864,3.601,-160.532,23.39,129.957
15964,-0.4268,-0.314,-0.8726,-0.488,-3.662,0.854,-160.23,23.758,130.155
15983,-0.4688,-0.3408,-0.7993,14.038,-18.86,-2.014,-159.901,24.148,130.309
15993,-0.4688,-0.3408,-0.7993,18.005,-21.118,-3.113,-159.648,24.373,130.419
16003,-0.4507,-0.3252,-0.7925,16.846,-22.095,-3.296,-159.412,24.598,130.54
16023,-0.4375,-0.2949,-0.8926,10.498,-21.301,-3.296,-159.192,24.988,130.776
16043,-0.459,-0.2876,-0.8906,6.104,-37.903,-4.7,-159.016,25.571,131.111
16063,-0.4673,-0.3013,-0.8584,6.104,-37.903,-4.7,-158.445,26.521,131.699
16083,-0.501,-0.3643,-0.7964,21.24,-57.617,-2.625,-157.703,27.603,132.281
16093,-0.501,-0.3643,-0.7964,20.02,-59.509,3.296,-157.396,28.191,132.501
16113,-0.4839,-0.2964,-0.5908,15.625,-59.204,7.507,-156.83,29.46,132.863
16132,-0.4976,-0.3232,-0.5552,15.625,-59.204,7.507,-156.544,30.438,133.281
16143,-0.4976,-0.3232,-0.5552,-31.128,-25.635,-9.094,-156.703,30.652,133.495
16153,-0.5054,-0.3477,-0.7998,-48.828,-7.202,-14.526,-157.094,30.657,133.682
16223,-0.5713,-0.3584,-1.1616,-14.771,-3.967,10.437,-160.076,29.85,133.396
16242,-0.5239,-0.3218,-0.9917,-13.55,-19.226,10.498,-160.384,30.256,133.341
16252,-0.4292,-0.2725,-0.6875,-3.906,-21.179,8.606,-160.406,30.482,133.33
16263,-0.416,-0.2686,-0.5718,8.545,-8.24,6.958,-160.291,30.613,133.286
16282,-0.4268,-0.2759,-0.5317,30.151,47.668,3.418,-159.802,30.125,132.946
16322,-0.5571,-0.2759,-1.187,6.226,24.902,7.324,-159.961,27.889,131.743
16332,-0.5605,-0.2559,-1.1401,8.362,-20.203,1.953,-159.922,28.059,131.803
16352,-0.5645,-0.2671,-0.9985,13.794,-65.369,-6.714,-159.247,29.636,132.737
16362,-0.4907,-0.3066,-0.5854,11.414,-128.235,-26.855,-158.665,30.795,133.55
16372,-0.4663,-0.3838,-0.5332,7.202,-110.474,-32.898,-158.033,31.745,134.374
16392,-0.4761,-0.4268,-0.5659,9.155,-0.61,-23.682,-157.104,32.119,135.269
16402,-0.5576,-0.4302,-0.8833,9.155,-0.61,-23.682,-157.165,31.646,135.11
16412,-0.5527,-0.3521,-1.0376,-4.456,67.444,11.536,-157.473,31.031,134.676
16431,-0.5005,-0.2891,-0.9048,5.981,44.617,18.86,-157.95,30.13,133.797
16452,-0.4585,-0.3237,-0.7173,21.973,23.743,7.202,-157.813,29.713,133.352
16471,-0.4556,-0.3589,-0.6318,32.104,56.641,5.432,-157.302,28.954,132.852
16501,-0.4775,-0.3862,-0.7646,24.963,80.383,16.174,-157.269,27.037,131.32
16522,-0.4526,-0.2349,-0.9033,2.136,30.457,13.672,-157.703,26.334,130.562
16541,-0.4771,-0.314,-0.8794,2.136,30.457,13.672,-157.791,26.543,130.842
16562,-0.4834,-0.3555,-0.7119,-8.606,-62.622,-19.653,-157.522,27.493,131.715
16581,-0.4604,-0.3579,-0.6646,-15.93,-62.805,-18.311,-157.225,28.619,132.671
16601,-0.4492,-0.3877,-0.8174,-22.339,-7.629,-9.46,-157.324,28.932,133.154
16631,-0.5396,-0.3677,-1.1353,-22.339,-7.629,-9.46,-158.346,28.103,132.594
16671,-0.4883,-0.2705,-0.666,-10.498,-74.707,-3.113,-158.873,29.729,132.984
16691,-0.4717,-0.2993,-0.6211,-10.498,-74.707,-3.113,-158.593,30.8,133.764
16701,-0.4814,-0.3345,-0.6606,-10.498,-74.707,-3.113,-158.5,30.91,133.995
16711,-0.4702,-0.3354,-0.7041,-9.338,15.93,-9.033,-158.533,30.729,134.028
16751,-0.5073,-0.3394,-0.9136,5.371,61.401,4.944,-159.137,28.603,132.924
16760,-0.5073,-0.3394,-0.9136,5.371,61.401,4.944,-159.219,28.13,132.66
16781,-0.5439,-0.3086,-1.0332,5.371,61.401,4.944,-159.324,27.719,132.385
16800,-0.5303,-0.2935,-0.9941,-7.202,-43.457,-9.583,-159.329,28.246,132.737
16821,-0.46,-0.2964,-0.9204,-29.297,-64.392,-25.513,-159.39,29.207,133.72
16840,-0.4561,-0.3145,-0.9331,-17.822,-43.03,-13.367,-159.505,29.927,134.511
16861,-0.4707,-0.2939,-0.7524,8.423,-21.79,7.08,-159.373,30.443,134.676
16880,-0.5205,-0.3408,-0.6074,8.423,-21.79,7.08,-158.95,30.635,134.533
16890,-0.5205,-0.3408,-0.6074,8.423,-21.79,7.08,-158.851,30.482,134.445
16910,-0.522,-0.3403,-0.7886,-2.808,36.499,-4.15,-159.131,29.669,134.182
16930,-0.5029,-0.3047,-1.0098,-15.869,41.931,5.554,-159.769,28.762,133.748
16950,-0.5083,-0.313,-0.9795,3.357,10.498,9.46,-160.005,28.427,133.407
16960,-0.5083,-0.313,-0.9795,10.498,-5.432,8.179,-159.933,28.51,133.341
16970,-0.5767,-0.3726,-0.9619,9.094,-18.616,7.08,-159.835,28.713,133.336
16990,-0.542,-0.3013,-0.9844,-3.479,-40.955,5.188,-159.818,29.383,133.484
17010,-0.4736,-0.2505,-0.6665,7.813,-66.65,-1.221,-159.56,30.58,133.951
17019,-0.4736,-0.2505,-0.6665,7.813,-66.65,-1.221,-159.104,31.157,134.264
17040,-0.4727,-0.2886,-0.5479,31.555,3.235,-5.493,-158.192,31.465,134.539
17050,-0.4961,-0.3535,-0.7495,24.78,39.978,1.77,-158.011,31.097,134.346
17059,-0.4961,-0.3535,-0.7495,24.78,39.978,1.77,-158.06,30.526,133.934
17069,-0.4961,-0.3535,-0.7495,24.78,39.978,1.77,-158.236,29.927,133.412
17080,-0.5283,-0.3184,-0.9307,8.057,59.204,23.56,-158.434,29.454,132.907
17099,-0.5293,-0.3145,-0.895,4.517,14.221,13.062,-158.632,29.108,132.325
17109,-0.5195,-0.3398,-0.7681,-0.427,-1.343,2.93,-158.621,29.158,132.303
17120,-0.5176,-0.3633,-0.7397,-7.202,-8.118,-5.066,-158.604,29.246,132.391
17139,-0.502,-0.356,-0.8311,-12.329,-1.282,-6.165,-158.698,29.273,132.572
17169,-0.5107,-0.2954,-0.9126,-2.991,-6.165,6.165,-158.901,29.531,132.539
17189,-0.5469,-0.3071,-0.8813,3.113,-43.274,-6.775,-158.67,30.234,132.918
17198,-0.5469,-0.3071,-0.8813,3.113,-43.274,-6.775,-158.516,30.613,133.248
17209,-0.4771,-0.2998,-0.7871,-2.869,-36.377,-13.55,-158.401,30.888,133.55
17229,-0.4585,-0.2861,-0.689,2.869,3.662,-0.854,-158.297,30.987,133.709
17249,-0.519,-0.3164,-0.7256,2.869,3.662,-0.854,-158.368,30.526,133.33
17269,-0.52,-0.313,-0.8887,-9.583,32.349,2.686,-158.736,29.894,132.94
17299,-0.5234,-0.3613,-0.9438,-0.366,7.202,-1.221,-158.967,29.339,132.814
17309,-0.5322,-0.3774,-0.939,-0.366,7.202,-1.221,-158.956,29.361,132.781
17318,-0.5322,-0.3774,-0.939,1.709,-12.39,9.888,-158.967,29.509,132.726
17339,-0.5659,-0.3276,-0.8345,-4.822,-34.546,4.578,-158.989,30.135,132.814
17379,-0.5171,-0.3193,-0.8203,-6.897,-23.315,-9.277,-158.752,31.481,133.89
17408,-0.5581,-0.2817,-0.9072,-5.127,13.611,7.935,-159.055,31.333,133.671
17419,-0.5449,-0.2583,-0.9014,-6.104,6.714,6.165,-159.214,31.278,133.577
17428,-0.5449,-0.2583,-0.9014,-6.104,6.714,6.165,-159.291,31.311,133.583
17448,-0.4785,-0.3091,-0.7529,7.69,-0.244,-5.676,-159.148,31.333,133.726
17468,-0.4458,-0.3379,-0.6367,17.273,20.081,-1.831,-158.813,30.712,133.391
17478,-0.4863,-0.3804,-0.6816,17.273,20.081,-1.831,-158.769,30.037,132.918
17488,-0.5103,-0.3755,-0.8311,11.23,96.069,19.836,-158.934,29.218,132.303
17497,-0.5396,-0.3389,-1.0273,11.23,96.069,19.836,-159.17,28.444,131.655
17508,-0.5396,-0.3389,-1.0273,11.23,96.069,19.836,-159.252,27.889,131.149
17528,-0.5762,-0.3423,-1.1289,-13.184,-24.475,7.263,-159.554,27.944,130.913
17558,-0.5342,-0.2817,-0.7773,-13.062,-130.249,-27.588,-159.082,30.701,132.665
17568,-0.439,-0.2798,-0.5381,-9.766,-126.404,-30.029,-158.687,31.816,133.517
17598,-0.4375,-0.311,-0.5352,5.31,17.517,-5.737,-157.797,32.86,134.528
17617,-0.4624,-0.332,-0.6328,-7.202,100.769,5.859,-158.253,31.322,133.704
17628,-0.5381,-0.3511,-0.9595,-7.202,100.769,5.859,-158.703,30.256,133.094
17638,-0.5649,-0.3408,-1.1562,-17.7,109.253,13.306,-159.23,29.246,132.49
17657,-0.5537,-0.2891,-1.2808,-17.7,109.253,13.306,-160.131,28.136,131.671
17667,-0.5669,-0.3135,-1.2056,-12.085,-9.705,9.155,-160.334,28.218,131.611
17678,-0.5688,-0.3525,-1.0391,-10.925,-51.208,1.16,-160.362,28.696,131.797
17687,-0.5391,-0.3574,-0.8618,-10.925,-51.208,1.16,-160.313,29.493,132.177
17697,-0.5205,-0.3398,-0.7251,-10.925,-51.208,1.16,-160.181,30.449,132.671
17707,-0.5054,-0.3242,-0.6582,-9.644,-96.13,-11.414,-159.961,31.344,133.171
17727,-0.4614,-0.2856,-0.5576,13.245,-33.386,-2.075,-159.39,32.355,133.704
17747,-0.4673,-0.2705,-0.6372,17.395,46.204,7.874,-159.159,31.948,133.341
17767,-0.5234,-0.3071,-0.8745,5.066,85.083,9.155,-159.439,30.52,132.484
17787,-0.5376,-0.2988,-1.0132,-6.592,62.622,9.033,-159.972,29.202,131.71
17808,-0.5342,-0.2905,-1.0762,-11.475,6.042,6.165,-160.422,28.806,131.396
17817,-0.5342,-0.2905,-1.0762,-11.475,6.042,6.165,-160.516,28.982,131.451
17836,-0.5278,-0.2852,-0.9067,-6.104,-44.8,-2.136,-160.373,29.971,131.946
17857,-0.4829,-0.3047,-0.54,5.981,-42.053,-11.658,-159.824,30.981,132.589
17876,-0.4912,-0.2974,-0.5454,4.822,11.23,-6.653,-159.461,31.075,132.775
17897,-0.5967,-0.2783,-0.9849,-20.02,22.888,-7.629,-159.796,30.586,132.726
17927,-0.4526,-0.2192,-1.0049,-29.785,-34.485,-8.789,-160.763,30.8,133.242
17937,-0.4395,-0.2598,-0.8765,-6.348,-31.067,-4.028,-160.774,31.025,133.407
17946,-0.4395,-0.2598,-0.8765,-6.348,-31.067,-4.028,-160.587,31.119,133.418
17966,-0.4463,-0.3003,-0.6304,-6.348,-31.067,-4.028,-160.302,30.575,132.918
17986,-0.4795,-0.3389,-0.6689,3.052,103.638,9.705,-160.532,28.905,131.968
18006,-0.4893,-0.3232,-1.0498,-3.784,99.426,14.16,-161.082,26.966,130.902
18026,-0.5107,-0.3203,-1.1992,-3.784,99.426,14.16,-161.614,25.994,130.166
18046,-0.5063,-0.3164,-1.1489,-6.897,-18.738,5.127,-161.845,26.093,130.056
18076,-0.4639,-0.2813,-0.8037,-12.939,-64.819,1.526,-161.911,27.85,130.66
18116,-0.4341,-0.2529,-0.6294,16.479,-19.226,-2.93,-161.12,29.284,131.215
18135,-0.4448,-0.2407,-0.7188,16.479,-19.226,-2.93,-161.038,28.169,130.655
18146,-0.4941,-0.2676,-0.9634,16.479,-19.226,-2.93,-161.071,27.537,130.353
18156,-0.4927,-0.249,-1.0493,12.329,50.964,4.15,-161.109,27.048,130.122
18186,-0.4907,-0.2612,-0.9785,12.024,-35.706,-10.437,-160.807,27.065,130.336
18226,-0.4609,-0.2979,-0.5596,2.747,-48.279,-14.648,-159.615,29.432,131.913
18245,-0.4727,-0.3267,-0.5698,-1.526,-22.705,-13.916,-159.351,29.663,132.264
18265,-0.4688,-0.2485,-0.5322,-14.038,24.78,-5.432,-159.511,29.366,132.204
18295,-0.5444,-0.1826,-0.7114,-56.763,-33.447,-1.892,-161.318,30.712,132.407
18305,-0.3896,-0.1099,-0.9653,-128.479,-131.714,103.638,-163.043,32.19,131.754
18325,-0.8745,-0.2427,-1.3184,-181.824,-37.537,122.681,-167.91,34.645,128.002
18335,-0.6553,-0.1465,-1.124,-68.909,-84.839,-15.564,-168.371,35.442,128.403
18365,-0.6396,-0.3223,-1.1484,16.235,-24.109,-1.77,-167.975,37.112,129.326
18375,-0.6372,-0.3408,-1.1289,-1.16,20.874,37.048,-168.294,36.985,128.815
18384,-0.6372,-0.3408,-1.1289,-11.23,44.067,59.448,-168.915,36.672,127.974
18405,-0.5586,-0.1079,-0.7261,47.424,90.088,61.584,-169.574,35.343,126.019
18424,-0.5366,-0.062,-0.5771,47.424,90.088,61.584,-169.047,33.81,124.805
18445,-0.6318,-0.1216,-0.8062,-3.418,-5.432,-10.254,-168.882,33.525,124.755
18464,-0.6851,-0.1611,-0.9292,-30.273,-70.496,-43.274,-168.805,34.486,125.865
18485,-0.5938,-0.1421,-0.9209,-3.662,-75.684,-46.814,-168.173,35.848,127.386
18504,-0.5488,-0.1997,-0.9121,-3.662,-75.684,-46.814,-167.327,36.508,128.337
18514,-0.5703,-0.2085,-0.9111,15.747,5.737,-4.028,-167.151,36.442,128.37
18534,-0.5962,-0.207,-0.9258,8.179,35.889,13.916,-167.415,35.568,127.601
18554,-0.623,-0.1636,-0.7427,49.927,81.116,32.166,-167.333,34.156,126.381
18574,-0.5986,-0.1562,-0.687,49.927,81.116,32.166,-166.679,33.047,125.596
18594,-0.5249,-0.188,-0.7988,32.166,32.227,4.517,-166.13,32.41,125.261
18603,-0.5352,-0.2007,-0.8818,32.166,32.227,4.517,-165.938,32.113,125.123
18614,-0.5405,-0.1943,-0.917,20.996,28.809,5.676,-165.806,31.844,124.975
18664,-0.5195,-0.207,-0.7188,-10.254,-34.241,-10.193,-165.591,32.552,125.288
18674,-0.4302,-0.2061,-0.7295,-3.845,-14.282,-9.46,-165.547,32.668,125.436
18704,-0.5093,-0.2739,-0.7944,41.687,89.294,-4.883,-164.932,31.058,125.041
18723,-0.5371,-0.21,-1.1606,31.738,88.806,-15.137,-164.301,29.147,124.799
18744,-0.5273,-0.1377,-1.2471,-5.066,1.465,-3.479,-164.273,28.614,124.733
18784,-0.4697,-0.3022,-0.4932,-35.095,-122.07,-13.123,-164.778,32.41,126.282
18804,-0.4497,-0.2754,-0.4878,-5.676,-26.367,-11.292,-164.685,33.36,126.931
18813,-0.4497,-0.2754,-0.4878,4.15,24.841,-1.831,-164.68,33.118,126.876
18824,-0.5078,-0.2505,-0.7705,14.832,70.435,4.639,-164.652,32.448,126.601
18833,-0.5078,-0.2505,-0.7705,14.832,70.435,4.639,-164.652,31.503,126.26
18843,-0.5913,-0.207,-1.1875,14.832,70.435,4.639,-164.641,30.542,125.947
18853,-0.5942,-0.1792,-1.2358,17.029,68.42,4.333,-164.674,29.85,125.689
18873,-0.5591,-0.2217,-1.0435,2.441,-23.926,0.61,-164.702,29.817,125.64
18893,-0.5229,-0.2461,-0.8398,-10.315,-58.96,-1.953,-164.614,30.921,126.024
18913,-0.4927,-0.2607,-0.7192,-1.465,-10.498,1.038,-164.537,31.437,126.183
18923,-0.5229,-0.2646,-0.7144,-1.465,-10.498,1.038,-164.476,31.317,126.09
18933,-0.5654,-0.2715,-0.7935,8.972,35.767,5.981,-164.443,31.014,125.909
18953,-0.5679,-0.188,-0.9194,8.972,35.767,5.981,-164.603,30.531,125.579
18963,-0.5786,-0.2134,-0.9473,8.972,35.767,5.981,-164.669,30.63,125.596
19003,-0.5757,-0.2637,-0.8911,-5.676,-34.607,-4.639,-164.625,31.827,126.162
19022,-0.5815,-0.2373,-0.8643,-5.615,-10.864,9.521,-164.767,32.097,126.041
19043,-0.5781,-0.1631,-0.8247,-13.794,-34.729,0.977,-165.037,32.701,126.112
19062,-0.5713,-0.1558,-0.8184,-21.606,-61.646,-9.277,-165.207,33.745,126.634
19072,-0.5713,-0.1558,-0.8184,-24.841,-63.66,-10.132,-165.306,34.327,126.947
19112,-0.5054,-0.2324,-0.7046,6.836,37.72,9.338,-165.465,34.612,127.002
19142,-0.5269,-0.2485,-0.7461,25.391,91.492,7.446,-165.256,32.031,125.953
19172,-0.5562,-0.1816,-1.126,25.391,91.492,7.446,-164.833,29.317,124.948
19192,-0.562,-0.2153,-1.0093,-11.414,-31.433,-1.709,-164.971,29.498,124.964
19232,-0.5913,-0.2993,-0.6172,-31.86,-102.234,-12.085,-165.168,33.761,126.738
19262,-0.4668,-0.2212,-0.6299,-14.709,-10.803,-1.038,-165.58,35.381,127.474
19281,-0.4722,-0.1831,-0.8047,26.917,70.557,17.456,-165.685,34.327,126.826
19302,-0.6064,-0.2129,-0.9727,26.917,70.557,17.456,-165.256,32.58,125.914
19342,-0.5698,-0.1924,-0.856,-15.869,-42.908,0.0,-165.174,31.97,125.541
19371,-0.5601,-0.2324,-0.6934,-36.255,-80.933,-15.808,-165.569,34.343,126.579
19382,-0.5923,-0.27,-0.7266,-24.109,-62.561,-17.822,-165.531,34.926,126.98
19401,-0.5923,-0.27,-0.7266,-12.451,-20.935,-0.854,-165.597,35.475,127.304
19422,-0.5796,-0.187,-0.9414,-7.263,-6.104,6.775,-165.85,35.447,127.068
19471,-0.5371,-0.2168,-0.7759,33.02,43.762,13.0,-165.174,33.404,125.733
19481,-0.5371,-0.2168,-0.7759,33.02,43.762,13.0,-164.982,32.574,125.464
19491,-0.5518,-0.1978,-0.96,29.663,85.632,0.244,-164.866,31.723,125.2
19500,-0.5518,-0.1978,-0.96,29.663,85.632,0.244,-164.833,31.053,124.942
19511,-0.521,-0.144,-0.9521,12.695,35.706,3.906,-164.85,30.696,124.794
19521,-0.5215,-0.1553,-0.9116,5.432,1.953,-1.282,-164.85,30.663,124.799
19540,-0.522,-0.1914,-0.8442,-2.991,-46.509,-14.099,-164.636,31.333,125.288
19561,-0.4971,-0.2432,-0.6133,-10.01,-53.223,-13.428,-164.361,32.393,125.953
19570,-0.4917,-0.2573,-0.5952,-10.01,-53.223,-13.428,-164.268,32.778,126.189
19601,-0.4976,-0.2661,-0.7637,-0.183,46.936,2.808,-164.317,32.3,126.068
19630,-0.5698,-0.1929,-1.1377,6.042,63.66,10.498,-164.674,30.273,125.162
19650,-0.5894,-0.1685,-1.1694,-5.31,0.549,3.723,-164.982,29.888,124.904
19660,-0.5894,-0.1685,-1.1694,-10.315,-36.194,-4.272,-165.053,30.212,125.063
19670,-0.5601,-0.207,-0.9185,-20.203,-74.585,-8.24,-165.119,30.91,125.376
19690,-0.5254,-0.1895,-0.7129,-20.203,-74.585,-8.24,-165.262,33.294,126.282
19710,-0.5234,-0.249,-0.5474,-54.993,-106.201,-13.977,-165.547,35.64,127.288
19730,-0.4917,-0.2158,-0.644,-54.993,-106.201,-13.977,-165.905,36.519,127.864
19740,-0.5156,-0.1948,-0.7832,-54.993,-106.201,-13.977,-166.196,36.348,127.815
19759,-0.6094,-0.1743,-0.979,5.554,63.049,17.334,-166.718,35.272,127.167
19780,-0.6523,-0.1958,-1.04,29.602,67.261,14.587,-166.696,33.975,126.403
19800,-0.6069,-0.2046,-1.0278,31.677,62.744,9.705,-166.382,32.761,125.909
19820,-0.5366,-0.2144,-0.9507,27.222,58.289,10.498,-166.08,31.608,125.431
19839,-0.5366,-0.2144,-0.9507,27.222,58.289,10.498,-166.135,30.723,124.722
19850,-0.5366,-0.2144,-0.9507,27.222,58.289,10.498,-166.174,30.63,124.536
19860,-0.5581,-0.1934,-0.8184,2.991,-13.855,-1.099,-166.124,30.789,124.585
19890,-0.5557,-0.2383,-0.8145,13.611,-41.382,-21.24,-165.295,31.772,125.546
19900,-0.6006,-0.2603,-0.9248,10.132,-48.34,-16.724,-165.009,32.195,125.881
19909,-0.6006,-0.2603,-0.9248,8.728,-50.781,-9.521,-164.773,32.657,126.145
19919,-0.6182,-0.2817,-0.8965,9.644,-47.852,-0.61,-164.57,33.118,126.299
19929,-0.6021,-0.2642,-0.8437,9.766,-41.626,6.165,-164.421,33.541,126.365
19949,-0.5928,-0.2534,-0.7656,12.512,-22.095,7.69,-164.13,34.184,126.348
19959,-0.5928,-0.2544,-0.7202,12.512,-22.095,7.69,-163.993,34.327,126.326
19969,-0.5869,-0.2588,-0.7451,8.423,3.906,3.113,-163.911,34.321,126.277
19989,-0.541,-0.228,-0.7603,8.423,3.906,3.113,-163.894,33.876,125.953
20009,-0.5449,-0.2388,-0.8325,16.968,58.35,9.705,-163.9,32.91,125.376
