elapsed_ms,acc_x_g,acc_y_g,acc_z_g,gyro_x_dps,gyro_y_dps,gyro_z_dps,angle_x_deg,angle_y_deg,angle_z_deg
0,-0.4673,0.1523,-0.915,1.709,0.977,-1.038,170.118,26.906,154.006
11,-0.4521,0.1548,-0.9111,0.916,1.587,-0.549,170.134,26.884,154.012
51,-0.4741,0.1558,-0.918,1.526,2.136,0.488,170.173,26.801,154.012
120,-0.4771,0.1548,-0.9155,-0.061,-0.122,0.671,170.222,26.73,153.99
160,-0.4746,0.1519,-0.916,-0.244,-1.587,0.366,170.222,26.79,153.962
200,-0.4727,0.1533,-0.917,-0.122,-1.404,0.488,170.211,26.856,153.929
230,-0.4814,0.1616,-0.9165,-0.244,-1.282,0.671,170.189,26.9,153.902
249,-0.4854,0.1626,-0.9131,-1.526,-2.258,0.427,170.145,26.955,153.88
270,-0.4756,0.1592,-0.9136,-2.014,-4.456,-0.305,170.101,27.037,153.869
310,-0.4707,0.1528,-0.9224,0.732,0.183,-1.038,170.096,27.153,153.886
379,-0.4834,0.167,-0.9082,0.793,0.061,-1.282,170.255,27.021,153.99
409,-0.4727,0.1567,-0.9121,0.244,-1.404,-0.977,170.277,27.054,154.023
419,-0.4727,0.1465,-0.9136,0.183,-1.709,-0.61,170.283,27.076,154.028
459,-0.4771,0.1562,-0.9136,-0.183,-2.014,0.061,170.277,27.142,154.006
489,-0.5005,0.1479,-0.938,2.197,-3.296,-1.587,170.327,27.246,154.023
529,-0.5098,0.1587,-0.9478,14.099,0.977,-9.216,170.815,27.356,154.276
548,-0.5098,0.1587,-0.9478,23.437,1.099,-14.404,171.37,27.378,154.567
569,-0.5044,0.1255,-1.0215,41.443,-4.7,-20.081,172.31,27.455,154.979
588,-0.4829,0.124,-0.999,41.443,-4.7,-20.081,173.425,27.603,155.511
609,-0.4492,0.1089,-0.8901,20.569,7.507,-20.508,174.139,27.532,156.011
618,-0.4492,0.1089,-0.8901,20.569,7.507,-20.508,174.353,27.433,156.22
638,-0.4639,0.1196,-0.8105,8.728,10.437,-7.263,174.595,27.252,156.456
649,-0.4658,0.1235,-0.8101,9.888,5.554,-5.493,174.688,27.23,156.528
678,-0.4785,0.1206,-0.9307,9.033,10.193,-6.042,175.018,27.098,156.714
708,-0.4771,0.0737,-1.0044,7.629,20.874,-7.263,175.435,26.516,157.022
718,-0.4312,0.0264,-1.0005,13.794,9.949,-9.46,175.649,26.389,157.137
738,-0.4277,0.0483,-0.9048,13.794,9.949,-9.46,176.012,26.345,157.264
788,-0.4688,0.0718,-0.9375,8.545,8.728,3.052,176.309,26.12,157.154
818,-0.4277,0.0264,-0.9521,6.897,5.92,0.977,176.523,25.939,157.132
828,-0.4243,0.0229,-0.9272,1.16,-4.211,0.305,176.55,25.966,157.126
847,-0.4229,0.0269,-0.9111,-0.366,-6.226,2.563,176.55,26.082,157.072
857,-0.4229,0.0269,-0.9111,2.014,-3.174,2.258,176.572,26.104,157.044
868,-0.4521,0.0405,-0.9653,4.639,-0.427,1.953,176.616,26.098,157.022
897,-0.4468,0.0356,-0.9038,9.46,-0.854,3.967,176.863,26.12,156.89
937,-0.499,0.0493,-0.8789,26.001,-8.179,14.099,177.407,26.548,156.39
967,-0.5137,0.0278,-0.957,32.104,6.836,14.221,178.138,26.548,155.891
977,-0.4976,0.0171,-0.9731,27.344,8.118,10.559,178.369,26.466,155.775
997,-0.4707,0.0142,-0.9609,9.521,1.404,5.31,178.599,26.384,155.638
1017,-0.4355,0.0317,-0.9097,-3.479,-10.986,2.991,178.544,26.526,155.55
1026,-0.4355,0.0317,-0.9097,-8.362,-13.062,0.0,178.451,26.642,155.544
1038,-0.4297,0.041,-0.9155,-13.184,-11.597,-2.563,178.319,26.741,155.572
1047,-0.4297,0.041,-0.9155,-15.991,-8.423,-5.31,178.176,26.818,155.627
1087,-0.4731,0.0679,-0.8706,-23.071,5.188,-10.498,177.44,26.823,156.083
1127,-0.4766,0.0903,-0.8081,4.272,7.202,10.864,176.973,26.658,156.088
1136,-0.4766,0.0903,-0.8081,4.272,7.202,10.864,176.995,26.62,155.88
1157,-0.5503,0.0205,-1.0347,22.949,6.287,26.733,177.193,26.526,155.253
1176,-0.5479,-0.0425,-1.1768,10.742,0.671,18.982,-177.891,26.433,154.748
1186,-0.5479,-0.0425,-1.1768,3.906,-0.854,10.803,-177.891,26.384,154.627
1196,-0.4233,-0.0356,-1.1548,7.263,-9.644,3.296,-177.836,26.417,154.594
1216,-0.4121,0.0015,-1.0664,23.865,-26.733,-6.042,-179.83,26.779,154.704
1236,-0.4482,0.1133,-0.6948,10.193,-27.527,-0.366,-179.654,27.394,154.77
1266,-0.5127,0.1338,-0.5962,-4.7,-5.371,14.038,179.736,28.147,154.462
1286,-0.561,0.0977,-0.7383,1.953,9.46,10.376,179.517,28.158,154.171
1296,-0.6016,-0.062,-1.2061,1.953,9.46,10.376,-177.056,28.021,154.182
1306,-0.5332,-0.1104,-1.3296,0.305,10.315,-13.428,-176.962,27.85,154.33
1325,-0.4414,-0.0938,-1.2925,-5.31,6.47,-19.897,-176.902,27.581,154.77
1346,-0.3721,0.0659,-0.8257,-12.695,-15.747,-9.277,175.435,27.708,155.05
1365,-0.4072,0.1211,-0.6519,-6.47,-8.057,3.052,175.089,28.098,155.028
1376,-0.4072,0.1211,-0.6519,-3.052,1.221,7.874,174.891,28.235,154.94
1386,-0.541,0.1509,-0.5835,0.549,9.949,11.902,174.743,28.268,154.814
1416,-0.6011,-0.0552,-1.188,0.061,13.611,9.827,-177.336,27.872,154.385
1426,-0.5083,-0.1108,-1.3037,-16.541,5.554,-0.488,-177.479,27.746,154.385
1435,-0.5083,-0.1108,-1.3037,-16.541,5.554,-0.488,-177.753,27.653,154.435
1456,-0.4106,0.0649,-0.9668,-18.677,-22.949,2.075,176.155,27.85,154.44
1495,-0.5674,0.0625,-0.8462,18.921,-7.08,-18.921,176.754,28.757,154.83
1525,-0.5078,-0.0034,-0.9678,0.732,19.47,-2.502,-179.797,28.394,155.154
1565,-0.4902,0.0552,-0.918,-8.728,6.653,13.916,178.929,27.861,154.704
1595,-0.5039,0.0063,-1.0435,7.019,9.216,6.165,178.973,27.543,154.512
1605,-0.4897,-0.0039,-1.0493,3.357,19.714,-6.714,-179.786,27.323,154.589
1624,-0.4731,0.0049,-1.0059,-20.508,35.461,-9.949,179.544,26.664,154.825
1635,-0.4731,0.0049,-1.0059,-31.555,38.513,-5.737,179.225,26.29,154.891
1654,-0.458,0.0952,-0.8125,-26.917,28.564,2.136,178.5,25.741,154.896
1675,-0.5029,0.0815,-0.877,-4.272,19.043,8.606,178.127,25.422,154.748
1694,-0.521,0.0425,-1.0142,5.493,14.587,2.502,-179.615,25.087,154.649
1715,-0.3442,-0.022,-1.1602,-4.333,1.709,-7.751,-179.566,24.851,154.781
1734,-0.313,0.0146,-1.0381,-15.564,-4.456,-0.427,179.006,24.78,154.841
1755,-0.438,0.1387,-0.7588,3.357,-10.254,6.042,178.726,24.988,154.726
1784,-0.5142,0.1309,-0.7783,22.4,-11.658,-4.028,179.088,25.615,154.753
1824,-0.436,0.0337,-1.0234,-12.024,10.437,5.554,178.973,25.329,154.627
1854,-0.4189,0.0405,-1.0615,-7.019,3.296,1.77,178.72,25.126,154.572
1864,-0.4219,0.0693,-0.9736,6.104,-1.953,-2.808,178.77,25.126,154.6
1894,-0.4585,0.0869,-0.8828,6.47,2.136,-1.099,178.89,25.186,154.671
1904,-0.4692,0.0752,-0.8765,3.296,4.822,1.404,178.879,25.164,154.66
1934,-0.4307,0.0366,-1.0166,-7.813,7.568,4.395,178.632,24.933,154.517
1963,-0.4282,0.0361,-1.0518,-7.019,5.066,0.183,178.396,24.703,154.512
1974,-0.4272,0.085,-0.9443,-2.502,0.671,-3.418,178.352,24.692,154.55
1983,-0.4224,0.1035,-0.8437,-2.502,0.671,-3.418,178.286,24.73,154.583
1993,-0.4336,0.1182,-0.7534,-1.648,-3.357,0.0,178.198,24.813,154.583
2014,-0.4849,0.0776,-0.8589,3.906,0.061,7.324,178.077,24.939,154.451
2023,-0.4849,0.0776,-0.8589,3.906,0.061,7.324,178.132,24.922,154.38
2034,-0.4858,0.001,-1.1211,6.104,4.456,5.188,178.187,24.862,154.325
2043,-0.4365,-0.0249,-1.1997,-1.282,3.052,2.686,-178.808,24.78,154.292
2054,-0.3701,-0.0063,-1.1284,-10.071,2.014,1.709,-178.923,24.697,154.276
2073,-0.3701,-0.0063,-1.1284,-10.01,-5.92,11.23,177.671,24.648,154.094
2083,-0.4023,0.147,-0.7305,2.747,-12.817,15.015,177.539,24.807,153.918
2103,-0.5337,0.1221,-0.7949,2.747,-12.817,15.015,177.643,25.236,153.572
2113,-0.5337,0.1221,-0.7949,26.428,-7.996,8.484,177.847,25.362,153.479
2123,-0.5347,0.0264,-1.0732,15.686,1.465,1.831,178.0,25.356,153.457
2132,-0.5347,0.0264,-1.0732,15.686,1.465,1.831,-179.44,25.241,153.523
2143,-0.3818,-0.0181,-1.1196,-17.212,12.939,-9.338,-179.566,25.049,153.622
2153,-0.3228,0.0342,-0.9619,-28.381,14.16,-7.202,177.962,24.84,153.699
2193,-0.5117,0.1309,-0.7954,21.729,-17.517,8.972,177.363,25.164,153.408
2222,-0.417,-0.0024,-0.98,1.038,0.854,7.507,-179.857,25.45,153.193
2233,-0.4141,-0.0161,-1.0498,-24.414,12.024,11.902,179.857,25.291,153.062
2252,-0.4204,0.0522,-1.0542,-43.64,19.226,18.86,178.989,24.846,152.677
2273,-0.4307,0.0967,-0.9946,-15.137,2.991,15.015,178.297,24.642,152.314
2282,-0.4307,0.0967,-0.9946,-15.137,2.991,15.015,178.215,24.681,152.21
2302,-0.5039,0.1055,-0.9692,17.151,-6.775,-3.113,178.401,24.868,152.205
2332,-0.4507,0.082,-0.9346,12.939,-2.625,-15.198,178.945,25.049,152.606
2342,-0.4292,0.0894,-0.8647,7.813,0.61,-13.977,179.039,25.06,152.759
2353,-0.4287,0.1016,-0.7993,7.813,0.61,-13.977,179.033,25.06,152.864
2362,-0.4287,0.1016,-0.7993,-3.052,3.357,-3.235,178.962,25.065,152.897
2372,-0.4287,0.1016,-0.7993,-3.662,0.488,0.061,178.879,25.093,152.897
2382,-0.4512,0.0654,-0.9673,-1.648,-1.038,0.183,178.835,25.098,152.897
2391,-0.4141,0.0298,-1.0537,-1.648,-1.038,0.183,178.813,25.071,152.919
2402,-0.3818,0.0078,-1.1104,-5.737,1.648,-3.296,178.781,24.994,152.952
2412,-0.3716,0.0,-1.144,-9.277,5.005,-4.456,178.726,24.873,153.001
2422,-0.3657,0.0151,-1.1108,-12.512,8.911,-5.737,178.632,24.719,153.067
2431,-0.3657,0.0151,-1.1108,-13.184,11.536,-4.883,178.5,24.56,153.127
2442,-0.3677,0.1162,-0.855,-13.184,11.536,-4.883,178.347,24.461,153.144
2452,-0.3638,0.1719,-0.6768,-3.723,5.249,5.676,178.16,24.439,153.083
2482,-0.4609,0.2046,-0.6279,4.456,1.404,12.268,177.737,24.686,152.6
2492,-0.5283,0.1138,-0.9004,5.798,0.305,14.282,177.682,24.73,152.441
2511,-0.5239,0.0625,-1.0508,-15.991,4.578,1.648,177.446,24.664,152.342
2521,-0.4307,0.0562,-1.1709,-27.832,5.249,-3.296,177.188,24.571,152.38
2541,-0.4038,0.0996,-1.0854,-29.968,4.578,-5.737,176.644,24.45,152.512
2561,-0.376,0.1475,-0.812,1.099,-20.996,-4.7,176.462,24.752,152.606
2591,-0.4487,0.0908,-0.8975,4.456,-14.282,0.854,176.556,25.373,152.622
2601,-0.4487,0.0762,-0.9531,-4.517,-6.165,2.563,176.484,25.428,152.589
2641,-0.4341,0.0879,-1.1382,-1.77,-7.324,-10.193,176.122,25.389,152.65
2671,-0.415,0.1235,-0.9482,6.104,-7.813,-11.047,176.32,25.615,153.083
2690,-0.4653,0.1636,-0.7134,5.005,-4.883,3.235,176.27,25.84,153.083
2711,-0.5044,0.1821,-0.6714,-1.465,1.038,17.151,175.913,26.021,152.776
2751,-0.5059,0.0044,-1.3726,-24.353,-2.625,-3.845,175.106,26.082,152.21
2770,-0.3921,0.0386,-1.3242,-5.188,-13.611,-26.184,175.139,26.12,152.693
2860,-0.502,0.0513,-1.0449,-20.691,5.676,7.629,175.397,27.345,153.49
2900,-0.4385,0.0786,-1.0376,24.048,-18.433,-10.437,175.671,27.444,153.534
2920,-0.4268,0.1401,-0.6851,24.048,-18.433,-10.437,176.265,27.784,153.677
2930,-0.4268,0.1401,-0.6851,24.048,-18.433,-10.437,176.38,27.883,153.611
2940,-0.5151,0.1489,-0.6577,11.963,9.033,12.756,176.342,27.883,153.474
2960,-0.5342,0.0879,-0.979,-8.85,14.221,15.259,176.05,27.636,153.149
2970,-0.5176,0.0859,-1.0693,-16.663,11.536,12.634,175.82,27.493,153.018
3000,-0.4575,0.1167,-0.9663,1.526,-3.296,-5.005,175.54,27.301,153.001
3010,-0.4336,0.1401,-0.8232,9.705,-9.949,-8.118,175.622,27.405,153.083
3030,-0.4321,0.1665,-0.6787,10.193,-17.517,-4.333,175.693,27.845,153.193
3040,-0.4321,0.1665,-0.6787,10.193,-17.517,-4.333,175.622,28.098,153.171
3080,-0.4453,-0.02,-1.2749,-28.442,1.892,-8.911,-179.099,28.191,153.309
3099,-0.4023,-0.0332,-1.2847,-24.231,3.845,-9.216,-179.341,27.916,153.49
3120,-0.417,0.1279,-0.8794,32.288,-11.108,0.366,179.105,27.971,153.523
3159,-0.561,0.1523,-0.627,4.089,-1.77,4.272,179.451,28.674,153.342
3209,-0.4546,0.0649,-1.019,-20.569,0.061,1.282,178.412,28.625,153.21
3229,-0.4902,0.0532,-1.0977,11.963,-14.954,-5.981,178.522,28.713,153.276
3259,-0.5117,0.1006,-0.8911,12.512,-26.367,-33.447,179.291,29.432,154.094
3309,-0.541,0.0596,-0.9102,0.427,1.77,10.681,179.275,30.042,154.501
3339,-0.52,0.0688,-0.9531,2.075,8.179,13.123,179.006,29.784,154.061
3349,-0.5015,0.0767,-0.9214,-0.916,11.658,10.986,178.896,29.652,153.935
3358,-0.5015,0.0767,-0.9214,-0.916,11.658,10.986,178.797,29.52,153.825
3379,-0.4663,0.0981,-0.8091,0.183,17.578,11.475,178.577,29.191,153.578
3419,-0.4971,0.0654,-1.0107,-10.01,7.874,-3.723,178.16,28.608,153.424
3448,-0.5093,0.0952,-0.9814,-1.526,-7.263,-15.564,178.088,28.63,153.82
3458,-0.5039,0.1172,-0.8916,3.784,-12.329,-17.395,178.165,28.762,154.017
3468,-0.5039,0.1172,-0.8916,6.775,-13.672,-15.076,178.248,28.922,154.182
3488,-0.4966,0.1074,-0.6929,5.615,-8.789,-6.836,178.198,29.136,154.215
3508,-0.5034,0.1108,-0.7148,-3.54,4.089,13.123,177.753,29.136,153.831
3528,-0.5532,0.0923,-0.9126,-14.709,-0.793,25.574,177.144,29.246,153.27
3568,-0.4736,0.0439,-0.9619,16.724,-18.921,-4.395,177.292,29.877,153.045
3598,-0.4805,0.0938,-0.8271,-10.376,9.033,-2.625,177.33,29.894,153.193
3617,-0.5161,0.1421,-0.7964,-18.127,18.738,-0.916,176.836,29.542,153.232
3627,-0.5161,0.1421,-0.7964,-18.127,18.738,-0.916,176.578,29.399,153.248
3638,-0.5386,0.1743,-0.7905,-14.282,11.78,-1.77,176.364,29.328,153.276
3657,-0.5396,0.1519,-0.8188,-10.803,2.747,-1.709,176.078,29.399,153.303
3678,-0.5073,0.0361,-1.0024,-5.737,-10.254,4.395,175.935,29.542,153.221
3718,-0.5112,0.0708,-1.1123,-0.366,-6.104,3.113,175.886,29.625,153.04
3747,-0.5049,0.0845,-1.0649,15.32,-6.409,-7.385,176.287,29.702,153.221
3787,-0.5645,0.1357,-0.8198,10.559,3.906,-4.211,176.715,29.795,153.358
3827,-0.4478,0.0962,-0.7217,0.183,9.399,4.944,176.699,29.531,153.523
3836,-0.4478,0.0962,-0.7217,0.183,9.399,4.944,176.55,29.438,153.358
3847,-0.4932,0.1113,-0.7251,0.183,9.399,4.944,176.314,29.295,153.105
3857,-0.4932,0.1113,-0.7251,0.183,9.399,4.944,176.006,29.114,152.809
3867,-0.5229,0.0718,-0.9873,-22.4,15.808,26.306,175.644,28.927,152.518
3876,-0.5229,0.0718,-0.9873,-22.4,15.808,26.306,175.292,28.746,152.32
3897,-0.4155,0.0942,-1.0386,-13.0,11.658,3.418,174.875,28.378,152.194
3937,-0.5273,0.1846,-0.7373,8.667,1.526,-1.709,174.968,28.191,152.271
4006,-0.4727,0.1074,-0.9487,-10.925,-5.554,1.465,174.26,28.586,152.413
4017,-0.4888,0.1338,-0.8809,0.183,-6.042,7.813,174.188,28.636,152.314
4046,-0.5381,0.0889,-0.9722,3.479,-8.606,3.113,174.139,28.889,152.084
4086,-0.5117,0.1069,-0.9497,-0.916,-0.854,-6.775,174.199,28.965,152.21
4116,-0.501,0.1401,-0.8242,6.47,-4.15,-9.155,174.402,29.13,152.534
4156,-0.5073,0.1084,-0.9419,-3.174,4.15,-1.282,174.353,29.097,152.682
4185,-0.4785,0.0771,-0.9824,0.793,-0.244,3.967,174.254,28.954,152.617
4196,-0.4785,0.0771,-0.9824,0.793,-0.244,3.967,174.282,28.938,152.551
4215,-0.5278,0.0977,-0.9595,0.793,-0.244,3.967,174.391,28.894,152.463
4236,-0.5034,0.1392,-0.8521,7.446,1.282,-5.249,174.523,28.878,152.551
4265,-0.4829,0.1377,-0.7495,5.798,1.282,-2.93,174.573,28.932,152.622
4305,-0.5205,0.0522,-1.1963,-8.423,2.747,5.31,174.172,28.608,152.254
4325,-0.5068,0.0337,-1.2861,4.944,-0.183,-13.855,174.348,28.477,152.452
4335,-0.3872,0.1333,-1.0,18.677,-0.305,-19.592,174.617,28.422,152.672
4345,-0.3833,0.1719,-0.7603,33.142,-5.676,-17.822,174.968,28.477,152.869
4375,-0.4727,0.2417,-0.2275,33.142,-5.676,-17.822,174.655,28.85,152.699
4385,-0.542,0.1724,-0.4766,-25.085,32.715,32.349,174.106,28.68,152.364
4415,-0.5698,-0.0332,-1.5698,-55.481,-19.348,34.424,-178.786,28.455,150.82
4455,-0.3418,0.2187,-0.8516,74.768,10.315,-15.137,179.193,28.542,151.364
4474,-0.3521,0.2842,-0.4497,76.233,-2.686,-9.766,-178.94,28.603,151.633
4485,-0.3521,0.2842,-0.4497,30.396,17.212,6.775,-178.676,28.433,151.551
4495,-0.5684,0.2163,-0.2754,-25.085,37.415,25.574,-179.072,28.065,151.249
4504,-0.5684,0.2163,-0.2754,-25.085,37.415,25.574,179.984,27.751,150.804
4514,-0.7026,-0.0435,-1.3516,-94.299,-10.62,44.495,-178.154,27.856,150.298
4544,-0.4209,0.0049,-1.6694,-39.734,-33.264,-5.127,-179.973,28.867,150.353
4564,-0.4209,0.0049,-1.6694,106.873,-8.545,-16.907,-178.033,29.125,150.793
4584,-0.4883,0.2842,-0.23,98.022,-5.676,-16.785,-176.451,29.07,151.04
4594,-0.5757,0.1997,-0.3057,-15.625,28.015,13.977,-176.693,28.795,150.864
4604,-0.6489,0.0371,-0.8491,-71.899,23.621,31.677,-177.594,28.581,150.485
4624,-0.6572,-0.0903,-1.8218,-67.871,-33.997,21.729,-176.561,29.086,149.804
4634,-0.4453,-0.0435,-1.8389,-5.127,-46.387,-16.418,-176.501,29.542,150.018
4653,-0.3862,0.0195,-1.6143,103.027,-26.917,-41.87,-179.423,30.273,150.985
4664,-0.3862,0.0195,-1.6143,103.027,-26.917,-41.87,-178.017,30.333,151.37
4684,-0.5664,0.2622,-0.1001,59.998,12.573,-8.85,-176.21,30.168,151.743
4693,-0.5664,0.2622,-0.1001,59.998,12.573,-8.85,-176.243,29.85,151.562
4714,-0.6777,0.019,-0.9683,-78.918,18.25,42.297,-177.946,29.301,150.688
4754,-0.333,0.0718,-1.3667,27.588,-17.7,-34.973,176.99,30.311,150.903
4763,-0.333,0.0718,-1.3667,27.588,-17.7,-34.973,177.929,30.427,151.386
4773,-0.2861,0.2383,-0.5459,27.588,-17.7,-34.973,179.116,30.564,151.941
4794,-0.5815,0.2012,-0.2295,30.334,8.179,-19.409,-179.528,30.591,152.693
4823,-0.6479,-0.0054,-1.0215,30.334,8.179,-19.409,-179.698,29.685,152.029
4834,-0.6157,-0.0259,-1.3389,-82.275,7.996,17.639,179.379,29.608,151.826
4863,-0.3472,0.0723,-1.2266,31.189,-35.828,-22.461,-179.753,30.317,152.249
4883,-0.3335,0.1553,-0.8511,60.12,-12.451,-10.254,-178.391,30.762,152.622
4903,-0.5801,0.147,-0.4839,7.202,31.006,17.212,-178.055,30.333,152.342
4933,-0.6367,-0.022,-1.1514,-45.044,16.052,18.433,-179.313,29.877,151.826
4952,-0.4839,0.0098,-1.2847,12.146,-13.977,-20.752,179.802,30.125,152.221
4973,-0.4722,0.1421,-0.71,45.532,-19.714,-15.564,-179.187,30.542,152.65
4992,-0.522,0.1484,-0.5601,45.532,-19.714,-15.564,-178.616,30.471,152.54
5013,-0.5776,0.021,-0.9092,-30.579,23.376,32.349,-179.297,30.026,151.902
5072,-0.4307,0.1025,-0.9751,30.273,-14.709,-10.864,178.962,30.476,151.787
5083,-0.5,0.1289,-0.6724,11.169,0.549,-0.366,179.077,30.471,151.793
5112,-0.5566,0.0298,-0.9902,-18.188,14.465,2.991,178.539,30.119,151.743
5122,-0.5327,0.0381,-1.0361,-26.306,7.813,-11.047,178.341,30.048,151.875
5162,-0.4531,0.1162,-0.7354,8.85,-5.31,5.92,178.385,30.273,152.194
5172,-0.4531,0.1162,-0.7354,8.85,-5.31,5.92,178.352,30.245,152.023
5212,-0.6167,-0.0083,-1.2119,-14.709,6.165,1.404,178.319,30.009,151.842
5232,-0.4922,0.1489,-0.9712,6.348,-9.033,-28.564,179.011,30.416,152.633
5251,-0.4517,0.1191,-0.8823,27.771,-31.677,-48.95,-179.835,31.152,153.787
5262,-0.4336,0.0684,-0.5522,21.179,-8.301,-31.738,-179.429,31.234,154.155
5272,-0.4585,0.0742,-0.4536,10.071,16.479,-5.066,-179.297,31.069,154.215
5291,-0.501,0.1138,-0.5435,-15.869,43.64,37.72,-179.797,30.284,153.567
5312,-0.6021,0.0552,-1.0586,-46.57,31.494,51.758,178.808,29.548,152.369
5321,-0.6021,0.0552,-1.0586,-46.57,31.494,51.758,178.121,29.399,151.941
5361,-0.4648,0.085,-0.9995,28.992,-6.409,-18.311,178.55,29.41,152.001
5382,-0.5176,0.0938,-0.7583,32.043,-7.935,-24.292,179.522,29.658,152.556
5392,-0.5605,0.083,-0.7085,18.555,3.845,-16.785,179.736,29.707,152.754
5401,-0.5605,0.083,-0.7085,18.555,3.845,-16.785,179.747,29.63,152.831
5421,-0.5059,0.0835,-0.7656,-12.817,20.264,15.076,179.33,29.317,152.611
5451,-0.5049,0.0,-1.1885,-20.996,-2.441,17.09,178.325,29.059,151.864
5461,-0.5054,-0.0215,-1.293,-9.949,-5.371,5.127,-179.044,29.037,151.804
5481,-0.4341,0.1006,-1.0898,-9.949,-5.371,5.127,179.407,28.998,152.188
5500,-0.4341,0.1006,-1.0898,49.927,-12.939,-35.034,-179.467,29.191,153.007
5522,-0.5269,0.146,-0.4263,15.381,6.226,-10.986,-179.132,29.465,153.463
5550,-0.5723,0.1055,-0.6221,-36.621,4.7,15.869,179.692,29.625,153.073
5601,-0.4507,0.0884,-0.9766,20.386,-18.372,-5.615,178.973,29.68,152.809
5611,-0.481,0.0947,-0.8652,23.132,-19.714,-7.507,179.187,29.866,152.891
5641,-0.5376,0.0488,-0.8799,3.967,2.258,-3.296,179.517,30.097,153.105
5651,-0.4971,0.0288,-0.8984,2.686,11.353,0.549,179.528,29.976,153.1
5681,-0.522,0.1167,-0.7671,2.686,11.353,0.549,179.154,29.52,152.803
5710,-0.5298,0.0205,-1.0996,-20.264,-5.615,4.578,178.418,29.476,152.446
5720,-0.5024,0.0161,-1.1699,-20.264,-5.615,4.578,178.275,29.509,152.512
5750,-0.4736,0.0342,-1.1372,-10.071,-10.803,-16.724,178.566,29.724,153.248
5760,-0.4736,0.0342,-1.1372,13.367,-12.634,-20.02,178.742,29.872,153.474
5800,-0.5366,0.0845,-0.8164,-10.254,8.606,16.418,178.358,30.064,153.254
5810,-0.5366,0.0845,-0.8164,-10.254,8.606,16.418,178.094,30.009,153.045
5870,-0.4761,0.1577,-0.8936,-14.526,-22.4,-12.268,-176.874,31.657,153.556
5910,-0.5229,-0.082,-1.166,-7.324,17.395,11.475,-177.259,30.613,152.941
5919,-0.5229,-0.082,-1.166,-7.324,17.395,11.475,176.869,30.3,152.754
5980,-0.5615,0.1392,-0.7021,25.879,17.334,18.616,177.402,29.586,151.694
6009,-0.5176,0.0015,-1.0845,-17.151,-7.69,0.732,176.83,29.575,151.436
6019,-0.5176,0.0015,-1.0845,-17.151,-7.69,0.732,-179.725,29.669,151.485
6059,-0.4478,0.0757,-0.875,9.338,-11.902,-29.053,179.561,30.179,152.518
6069,-0.4478,0.0757,-0.875,9.338,-11.902,-29.053,179.714,30.223,152.759
6099,-0.5483,0.0854,-0.7471,3.357,6.226,6.348,179.709,30.207,152.787
6119,-0.5229,0.1025,-0.8584,4.089,-10.742,6.47,179.555,30.366,152.622
6129,-0.4834,0.1069,-0.8652,4.089,-10.742,6.47,179.561,30.553,152.611
6169,-0.4414,0.1187,-0.8086,-18.921,13.123,6.897,179.066,30.965,152.617
6209,-0.4019,-0.0664,-1.2393,-29.358,11.047,-9.888,-177.056,29.707,152.529
6228,-0.4658,0.0498,-1.0781,4.272,-23.376,-16.479,177.352,29.817,152.897
6239,-0.521,0.1045,-0.9209,22.644,-31.982,-15.442,177.616,30.135,153.056
6279,-0.5908,0.0986,-0.6685,21.606,13.123,20.569,178.495,30.839,152.88
6298,-0.5601,0.0942,-0.7329,21.606,13.123,20.569,178.182,30.427,152.139
6318,-0.5396,0.0093,-1.1528,-1.038,4.761,5.676,178.0,30.135,151.798
6328,-0.5396,0.0093,-1.1528,-0.488,-2.869,-10.193,178.066,30.103,151.913
6348,-0.4468,0.0698,-0.9966,0.427,-15.93,-28.076,178.325,30.245,152.474
6368,-0.439,0.082,-0.8662,1.587,-17.578,-28.87,178.55,30.509,153.034
6378,-0.5166,0.0688,-0.7485,-1.221,-1.16,-9.949,178.555,30.564,153.149
6388,-0.5361,0.0791,-0.7026,-3.967,7.385,-2.197,178.478,30.558,153.177
6408,-0.5186,0.0815,-0.7075,-7.69,13.306,5.615,178.193,30.421,153.094
6428,-0.5054,0.0527,-0.8608,-3.113,4.028,11.902,177.929,30.3,152.858
6448,-0.5103,0.0293,-1.082,-3.113,4.028,11.902,177.836,30.355,152.556
6468,-0.5244,0.0576,-1.1011,1.709,-9.46,-5.554,177.913,30.449,152.562
6477,-0.5244,0.0576,-1.1011,-5.432,-9.033,-15.747,177.935,30.52,152.737
6487,-0.5522,0.0674,-0.9849,-5.432,-9.033,-15.747,177.968,30.646,153.018
6498,-0.5562,0.0518,-0.9282,-5.432,-20.264,-28.137,178.061,30.855,153.336
6508,-0.5767,0.0161,-0.9219,5.066,-24.231,-25.757,178.27,31.119,153.627
6518,-0.5767,0.0161,-0.9219,18.677,-24.048,-16.663,178.566,31.371,153.814
6538,-0.5518,0.0381,-0.8047,32.043,-7.629,0.61,179.203,31.668,153.886
6578,-0.4956,0.041,-0.8633,-7.813,17.761,22.461,178.929,31.262,153.067
6627,-0.5088,0.0024,-1.0664,3.967,-10.193,-10.925,-179.967,31.168,153.16
6647,-0.5718,0.0518,-0.7817,15.93,-8.606,-10.132,-179.594,31.421,153.463
6667,-0.5918,0.02,-0.7969,14.343,0.427,-2.319,-179.61,31.531,153.55
6687,-0.5479,-0.0151,-0.9521,14.282,3.174,-0.366,-179.302,31.432,153.55
6727,-0.5361,0.0786,-0.7583,11.047,2.808,6.226,179.555,31.245,153.38
6736,-0.5361,0.0786,-0.7583,6.775,-2.258,7.568,179.539,31.306,153.292
6757,-0.5386,-0.0298,-0.9248,6.775,-2.258,7.568,-178.154,31.404,153.111
6767,-0.5156,-0.0532,-1.001,-3.54,0.122,6.592,-178.215,31.366,153.034
6786,-0.5444,0.0,-1.002,-4.944,1.038,1.648,-180.0,31.251,152.957
6816,-0.5864,0.0493,-0.9067,14.038,-32.043,-18.86,-179.594,31.904,153.38
6837,-0.5176,-0.0293,-0.8003,9.827,-16.052,-9.277,-179.72,32.377,153.715
6856,-0.5352,-0.0029,-0.8369,-6.104,13.794,12.146,-179.835,32.228,153.534
6877,-0.5566,0.0254,-0.9453,-12.268,7.996,8.118,178.912,31.97,153.27
6906,-0.4604,0.0337,-0.7651,7.141,-18.066,-6.409,179.011,32.305,153.435
6936,-0.4497,0.0562,-0.6416,-13.794,14.16,20.508,178.539,32.382,153.018
6946,-0.4497,0.0562,-0.6416,-23.865,17.334,21.973,178.138,32.228,152.765
6986,-0.5337,-0.0146,-1.1421,-19.47,-14.16,-26.489,179.665,32.047,153.177
7006,-0.5024,0.0352,-0.7803,3.723,-4.395,-12.024,179.802,32.168,153.594
7026,-0.5879,0.0581,-0.6538,10.986,21.912,15.198,179.819,32.025,153.375
7035,-0.5879,0.0581,-0.6538,10.986,21.912,15.198,179.714,31.827,153.111
7056,-0.5786,-0.0327,-1.0737,3.235,26.428,24.841,-178.253,31.322,152.562
7136,-0.5547,-0.0024,-0.9146,21.118,-2.93,0.854,-179.846,30.872,152.408
7145,-0.5322,0.0068,-0.8926,21.118,-2.93,0.854,179.561,30.773,152.441
7205,-0.5435,0.0464,-0.8687,-7.263,-4.272,-1.77,179.011,30.861,152.26
7225,-0.5591,-0.0151,-0.9966,-38.208,-2.441,-17.578,-179.374,30.855,152.661
7235,-0.5591,-0.0151,-0.9966,-35.034,-4.456,-16.357,-179.588,30.822,152.847
7245,-0.5591,-0.0151,-0.9966,-25.208,-6.531,-14.648,-179.709,30.795,153.023
7265,-0.5508,-0.0356,-1.0684,-25.208,-6.531,-14.648,-179.467,30.894,153.27
7285,-0.5845,-0.0029,-0.9141,38.513,2.686,4.578,177.209,31.025,153.254
7305,-0.5557,0.1187,-0.5845,23.926,18.066,24.414,177.451,30.932,152.825
7315,-0.5171,0.1514,-0.5654,23.926,18.066,24.414,177.22,30.833,152.468
7345,-0.4868,0.0747,-0.8496,-20.935,11.475,23.01,176.094,30.635,151.749
7355,-0.4697,0.0405,-0.9658,-20.935,11.475,23.01,175.847,30.685,151.809
7374,-0.4409,-0.021,-1.1357,-20.935,11.475,23.01,-178.94,30.916,152.265
7384,-0.4316,-0.0273,-1.1143,-17.212,-23.01,-28.809,-178.934,31.042,152.606
7395,-0.4316,-0.0273,-1.1143,-6.897,-21.301,-24.841,-178.852,31.185,152.902
7444,-0.5801,0.0278,-0.8159,18.311,19.958,17.334,179.802,30.959,152.507
7454,-0.5322,0.0425,-0.9741,18.311,19.958,17.334,179.725,30.712,152.271
7464,-0.5112,0.0664,-0.98,18.311,19.958,17.334,179.665,30.52,152.133
7504,-0.5127,0.0879,-0.9512,2.686,6.653,2.319,179.709,30.399,152.166
7553,-0.5532,0.0264,-1.0425,-21.973,15.015,14.954,178.495,29.652,151.392
7604,-0.5464,0.0049,-0.7681,18.616,-5.798,-9.705,179.143,30.311,152.946
7614,-0.5464,0.0049,-0.7681,23.071,9.277,7.69,179.313,30.295,152.858
7644,-0.5464,0.0845,-0.7437,-2.686,29.175,45.349,178.824,29.647,151.617
7654,-0.5464,0.0845,-0.7437,-14.404,19.836,39.49,178.451,29.427,151.166
7663,-0.5464,0.0845,-0.7437,-14.404,19.836,39.49,-179.808,29.306,150.903
7673,-0.5464,0.0845,-0.7437,-8.423,-1.404,0.977,-179.885,29.24,150.892
7703,-0.4448,0.0801,-1.0449,18.127,-14.648,-28.076,-179.5,29.531,151.859
7723,-0.5337,0.1021,-0.5332,18.494,-26.123,-45.532,-179.072,30.146,152.743
7743,-0.5537,0.042,-0.5815,-9.277,11.658,7.08,-179.324,30.377,152.781
7763,-0.5518,-0.0005,-0.7837,-23.682,25.085,40.771,179.594,29.938,151.996
7813,-0.5205,0.0459,-1.2485,18.677,-12.024,-14.221,178.363,29.718,151.88
7833,-0.4814,0.0645,-0.6743,37.17,-24.536,-39.551,179.357,30.152,152.688
7852,-0.5122,0.0723,-0.5098,8.606,15.076,1.404,179.599,30.262,152.842
7873,-0.5122,0.0723,-0.5098,-15.259,26.55,22.522,179.061,29.954,152.43
7903,-0.5972,0.0532,-0.9517,-21.851,-0.916,-6.165,178.165,29.625,152.166
7913,-0.4141,0.0605,-0.9424,-18.25,-1.831,-12.39,178.033,29.586,152.309
7922,-0.4141,0.0605,-0.9424,-16.602,2.075,-11.475,177.929,29.526,152.441
7972,-0.5093,0.0347,-0.9946,-17.639,12.085,-0.122,177.166,28.861,152.666
7982,-0.4736,0.0244,-0.9854,-17.639,12.085,-0.122,177.144,28.795,152.743
8022,-0.5083,0.0625,-0.853,16.052,2.869,14.221,177.479,28.79,152.507
8092,-0.4507,0.0293,-0.9897,-3.723,9.338,-1.343,177.435,28.065,152.139
8122,-0.5054,0.0698,-0.8784,-3.723,9.338,-1.343,177.896,28.087,152.358
8132,-0.5054,0.0698,-0.8784,7.019,-1.587,-14.648,178.05,28.109,152.529
8151,-0.5176,0.0098,-1.1177,-2.319,0.549,-30.151,178.336,28.032,153.116
8172,-0.4238,0.063,-0.9512,11.414,-0.366,-44.434,178.896,27.944,154.061
8202,-0.4961,0.0464,-0.5146,11.414,-0.366,-44.434,179.643,27.938,154.968
8221,-0.4692,0.0879,-0.4272,11.414,-0.366,-44.434,179.165,27.773,154.484
8242,-0.5518,0.0303,-0.9077,11.414,-0.366,-44.434,177.545,27.158,152.721
8281,-0.5181,-0.0156,-1.4209,-13.367,-16.357,5.005,-179.511,26.906,150.26
8351,-0.4541,0.0664,-0.479,67.322,-26.917,-63.11,-179.368,28.043,153.88
8391,-0.5288,-0.0366,-0.9883,-34.546,11.719,33.203,-178.396,27.806,152.952
8431,-0.4106,0.1011,-1.0576,29.48,-1.77,-13.855,-179.714,27.367,152.71
8440,-0.4106,0.1011,-1.0576,29.48,-1.77,-13.855,-179.319,27.394,152.952
8461,-0.4805,0.1211,-0.5557,32.959,-4.089,-18.066,-178.94,27.592,153.204
8480,-0.5044,0.0698,-0.6572,-20.081,11.108,27.039,-179.561,27.675,152.754
8501,-0.5371,0.0176,-1.0791,-20.081,11.108,27.039,179.187,27.35,151.732
8541,-0.4302,0.0591,-1.2046,32.288,-5.554,-9.094,179.0,27.037,151.002
8550,-0.4302,0.0591,-1.2046,32.288,-5.554,-9.094,179.599,27.131,151.287
8590,-0.4927,0.0991,-0.5366,-16.541,15.503,7.507,-179.621,27.537,152.073
8600,-0.5034,0.0361,-0.7642,-16.541,15.503,7.507,179.852,27.334,151.782
8650,-0.3931,0.0215,-1.3706,39.307,5.798,-12.39,179.099,26.488,150.595
8680,-0.3813,0.1792,-0.563,89.294,-19.653,-70.007,-177.957,26.801,152.798
8699,-0.4844,0.0962,-0.4136,39.49,-9.583,-73.059,-177.237,27.301,154.017
8720,-0.5449,0.0552,-0.3994,-37.537,23.865,32.715,-176.358,27.263,153.6
8739,-0.5479,-0.0684,-1.0562,-52.917,14.099,68.42,-178.05,26.9,152.089
8749,-0.4585,-0.0283,-1.4634,-52.917,14.099,68.42,-178.638,26.785,151.606
8760,-0.4585,-0.0283,-1.4634,-1.099,-0.916,6.348,178.819,26.686,151.534
8789,-0.4585,0.1001,-0.8281,46.387,-25.391,-68.604,-179.341,27.153,153.111
8800,-0.501,0.0503,-0.6992,29.785,-17.944,-63.782,-178.77,27.405,153.831
8819,-0.501,0.0503,-0.6992,-13.0,-1.038,-9.705,-178.627,27.697,154.369
8829,-0.5117,-0.022,-0.7935,-13.0,-1.038,-9.705,-178.412,27.686,154.221
8849,-0.5239,-0.0464,-0.9941,-31.616,6.47,28.931,-179.264,27.576,153.534
8869,-0.4175,-0.0391,-1.2334,-13.123,-4.7,19.043,-179.379,27.532,153.309
8880,-0.3896,0.0332,-1.0562,-13.123,-4.7,19.043,178.198,27.515,153.419
8889,-0.3901,0.0854,-0.8428,36.56,-4.944,-13.306,178.588,27.537,153.567
8909,-0.3901,0.0854,-0.8428,20.508,3.784,-5.737,179.061,27.62,153.754
8918,-0.3901,0.0854,-0.8428,4.395,5.554,1.099,179.033,27.653,153.743
9010,-0.4565,0.0234,-0.875,23.865,4.761,-10.376,-179.978,27.285,153.946
9019,-0.4565,0.0234,-0.875,17.273,15.93,-0.793,-179.835,27.186,153.951
9059,-0.5142,0.083,-0.7153,-26.245,4.211,35.461,178.962,26.9,152.897
9068,-0.5142,0.083,-0.7153,-26.245,4.211,35.461,178.5,26.982,152.54
9099,-0.4224,0.0059,-1.1489,-10.437,-22.278,1.831,179.703,27.444,152.117
9108,-0.4224,0.0059,-1.1489,-10.437,-22.278,1.831,179.736,27.554,152.21
9118,-0.396,0.0396,-1.0532,8.179,-16.052,-17.151,179.89,27.642,152.402
9128,-0.4009,0.083,-0.9429,8.179,-16.052,-17.151,-179.912,27.751,152.699
9148,-0.4497,0.0752,-0.7422,3.662,-14.404,-27.771,-179.594,28.092,153.369
9168,-0.4497,0.0752,-0.7422,-12.817,-6.653,3.54,-179.808,28.4,153.501
9238,-0.4087,0.0664,-1.0454,-27.466,7.996,31.372,177.094,27.971,150.985
9278,-0.4209,0.062,-1.0708,11.047,-5.859,-28.625,177.396,27.713,151.238
9297,-0.5313,0.0908,-0.9683,-0.671,-19.897,-43.091,177.825,28.081,152.161
9318,-0.5313,0.0908,-0.9683,-13.428,-22.644,-31.311,177.935,28.608,152.946
9327,-0.5308,0.0396,-0.8965,-13.428,-22.644,-31.311,177.891,28.828,153.149
9337,-0.5293,0.041,-0.8921,-10.559,-15.076,-5.005,177.803,28.998,153.204
9387,-0.4668,0.0547,-0.9883,1.892,5.127,17.7,177.385,28.889,152.463
9407,-0.4507,0.0527,-1.0132,8.057,5.554,-0.305,177.468,28.652,152.391
9427,-0.4331,0.0732,-0.9458,14.954,0.488,-9.033,177.775,28.553,152.562
9477,-0.4355,0.0371,-0.9956,8.545,8.789,-11.536,178.66,28.13,153.259
9527,-0.5161,0.1099,-0.6382,24.658,13.184,-25.757,179.863,27.444,154.193
9537,-0.5127,0.1313,-0.5723,24.658,13.184,-25.757,179.604,27.433,153.979
9546,-0.5278,0.0972,-0.6362,24.658,13.184,-25.757,179.121,27.482,153.485
9567,-0.5234,0.0806,-0.7158,-23.193,15.442,71.411,177.632,27.175,151.611
9577,-0.5234,0.0806,-0.7158,-55.359,24.353,101.318,176.567,26.889,150.485
9586,-0.5234,0.0806,-0.7158,-55.359,24.353,101.318,175.391,26.779,149.711
9646,-0.4136,0.2075,-0.7017,101.074,15.503,-38.696,-177.215,26.598,150.716
9666,-0.4932,0.2432,-0.5435,101.074,15.503,-38.696,-175.567,26.554,151.518
9696,-0.5117,0.0425,-0.7349,-27.71,-7.507,10.986,-176.407,26.785,151.227
9716,-0.5337,0.0181,-1.1362,-51.27,-2.075,47.852,-177.896,26.971,150.233
9736,-0.4453,-0.0332,-1.3687,-51.27,-2.075,47.852,-179.484,27.427,150.084
9746,-0.4321,0.0303,-1.314,21.484,-17.273,-24.536,178.676,27.598,150.359
9756,-0.4321,0.0303,-1.314,41.382,-19.531,-49.622,179.346,27.806,150.914
9786,-0.4121,0.1006,-0.7837,41.382,-19.531,-49.622,-178.583,28.218,152.776
9805,-0.5,0.1006,-0.5474,-2.014,-5.981,-18.555,-178.802,28.367,152.957
9815,-0.5171,0.0762,-0.6421,-2.014,-5.981,-18.555,-179.357,28.488,152.754
9835,-0.5171,0.0762,-0.6421,-47.974,-11.963,29.541,179.346,28.74,152.1
9855,-0.4712,0.0171,-1.2275,-25.513,-13.672,9.338,178.511,29.004,151.732
9866,-0.4561,0.0615,-1.1934,-25.513,-13.672,9.338,178.506,29.103,151.787
9885,-0.4683,0.0884,-1.1084,22.4,-9.338,-27.893,179.116,29.301,152.303
9906,-0.4683,0.0884,-1.1084,18.86,0.244,-21.545,179.835,29.361,152.886
9955,-0.4785,0.0737,-0.8105,-5.798,7.507,22.217,179.451,29.015,152.194
9975,-0.5137,0.1064,-0.8213,-5.798,7.507,22.217,179.066,28.883,151.622
10015,-0.4941,0.0366,-1.0928,-9.521,3.418,2.93,178.286,28.762,150.958
10055,-0.4111,0.1294,-0.936,22.705,-12.939,-55.725,179.572,28.993,152.507
10064,-0.4111,0.1294,-0.936,22.705,-12.939,-55.725,-179.973,29.103,153.105
10085,-0.5288,0.0405,-0.7134,5.798,-3.052,-38.33,-179.626,29.103,153.759
10104,-0.5396,0.0542,-0.6699,-17.456,1.038,11.658,-179.973,29.048,153.644
10114,-0.5679,0.0967,-0.6719,-19.897,-4.028,20.203,179.637,29.196,153.413
10154,-0.501,0.0728,-1.063,-31.494,-0.916,56.763,177.385,29.41,151.282
10165,-0.501,0.0728,-1.063,-36.621,-2.38,42.114,176.781,29.344,150.798
10184,-0.4746,0.0332,-1.3052,-36.621,-2.38,42.114,176.479,29.18,150.672
10214,-0.397,0.1411,-1.0518,-36.621,-2.38,42.114,178.187,29.377,152.43
10254,-0.5742,0.0439,-0.5874,19.958,-19.226,-58.472,178.072,30.19,153.237
10264,-0.5781,0.0913,-0.6387,-30.762,-9.521,31.738,177.517,30.388,152.869
10274,-0.5781,0.0913,-0.6387,-30.823,-12.024,41.138,176.902,30.569,152.386
10314,-0.5376,0.1064,-0.9351,-33.752,-13.916,18.86,174.694,30.976,150.639
10354,-0.3916,0.1104,-1.0591,39.673,0.549,-24.231,175.32,30.679,151.161
10384,-0.5317,0.1304,-0.7988,32.41,2.869,-30.823,176.611,30.547,152.166
10424,-0.5386,0.0811,-0.7173,-15.076,-2.869,26.306,175.979,30.85,151.842
10493,-0.4731,0.043,-1.4053,-56.641,-1.221,15.259,171.266,31.454,149.865
10533,-0.4629,0.1709,-1.0898,50.598,-6.47,-51.331,172.947,31.212,151.227
10573,-0.6201,0.1348,-0.4194,19.897,-2.258,0.427,173.881,32.091,151.71
10613,-0.5669,0.0864,-1.0039,-66.65,-10.681,28.931,170.585,32.767,150.238
10633,-0.5117,0.1069,-1.3379,-22.156,-5.432,8.423,169.805,32.64,149.848
10643,-0.4727,0.1567,-1.334,-22.156,-5.432,8.423,169.898,32.542,149.936
10662,-0.4893,0.1777,-1.2397,40.649,-4.395,-34.302,170.843,32.476,150.584
10683,-0.5161,0.1997,-0.6572,58.838,-6.592,-36.011,172.183,32.673,151.243
10702,-0.5923,0.165,-0.5698,-3.479,-10.132,7.69,172.255,33.091,151.199
10732,-0.6216,0.1338,-0.7749,-26.855,-14.465,19.043,171.101,33.574,150.507
10792,-0.5254,0.1772,-0.7969,19.714,-0.366,-14.16,171.332,33.646,150.749
10812,-0.5581,0.1519,-0.6895,2.686,1.465,-0.854,171.486,33.75,150.864
10832,-0.5679,0.144,-0.6846,-19.714,-2.808,21.729,170.914,33.876,150.469
10852,-0.5771,0.1426,-0.8223,-25.696,-4.822,22.461,170.09,33.854,149.865
10862,-0.5771,0.1426,-0.8223,-25.696,-4.822,22.461,169.827,33.81,149.711
10872,-0.5288,0.1328,-1.1816,-9.827,-4.211,0.671,169.755,33.755,149.694
10881,-0.5078,0.1655,-1.1611,4.395,-2.258,-8.606,169.876,33.69,149.793
10902,-0.4854,0.2129,-0.9131,26.001,-1.343,-27.71,170.574,33.629,150.331
10942,-0.603,0.1167,-0.5366,0.061,3.906,13.306,171.156,34.019,150.749
10961,-0.5981,0.1465,-0.5757,-23.926,4.456,41.443,170.261,33.975,149.908
10982,-0.5649,0.0962,-1.0991,-35.828,9.094,27.832,169.162,33.657,149.178
10991,-0.5649,0.0962,-1.0991,-12.207,5.554,21.362,168.959,33.47,148.942
11002,-0.5386,0.1475,-1.25,7.568,-3.113,6.775,169.03,33.382,148.854
11011,-0.5132,0.1699,-1.209,17.761,-6.714,-7.568,169.272,33.354,148.925
11051,-0.5239,0.1729,-0.6299,41.626,-5.92,-23.071,170.997,33.69,150.007
11091,-0.6494,0.124,-0.7725,-20.874,-4.639,9.766,170.914,34.272,149.936
11121,-0.5981,0.0908,-1.0991,-23.743,-15.991,8.484,170.2,34.525,149.579
11161,-0.5801,0.1802,-0.7666,14.16,-11.23,-4.028,170.651,35.041,149.667
11201,-0.5679,0.1641,-0.7568,-8.057,1.587,3.906,170.453,35.156,149.595
11220,-0.5605,0.1558,-0.8394,-12.939,-2.136,3.296,170.134,35.145,149.502
11241,-0.5278,0.1714,-0.8794,-10.742,-8.057,-2.747,169.887,35.195,149.496
11250,-0.5278,0.1714,-0.8794,-9.277,-9.949,-6.714,169.816,35.25,149.557
11271,-0.4966,0.1738,-0.8535,-11.292,-9.521,-11.658,169.7,35.381,149.771
11281,-0.5146,0.1675,-0.7891,-11.292,-9.521,-11.658,169.618,35.436,149.886
11290,-0.5146,0.1675,-0.7891,-11.292,-9.521,-11.658,169.497,35.464,149.936
11300,-0.5146,0.1675,-0.7891,-11.353,0.366,3.357,169.338,35.491,149.897
11310,-0.6016,0.1743,-0.6924,-8.789,-0.305,11.047,169.14,35.519,149.766
11330,-0.5957,0.1851,-0.7168,-8.789,-0.305,11.047,168.646,35.508,149.26
11350,-0.5859,0.1479,-1.0479,-15.93,3.113,16.113,168.162,35.31,148.793
11370,-0.541,0.2051,-1.0581,-10.254,3.601,-6.958,167.97,35.057,148.837
11380,-0.541,0.2051,-1.0581,-3.052,-0.732,-16.113,168.03,35.052,149.03
11390,-0.5503,0.209,-0.7275,2.563,-8.667,-17.151,168.118,35.178,149.211
11460,-0.5669,0.1309,-1.4751,-22.827,10.559,3.235,165.778,35.052,147.398
11490,-0.5669,0.1309,-1.4751,52.246,-28.687,-62.012,167.552,35.706,148.799
11500,-0.5669,0.1309,-1.4751,52.246,-28.687,-62.012,168.426,36.107,149.469
11519,-0.5669,0.1309,-1.4751,41.199,-4.333,-42.175,169.623,36.03,150.145
11530,-0.6274,0.1084,-0.1367,41.199,-4.333,-42.175,169.799,35.568,149.892
11570,-0.6802,0.144,-1.186,-37.781,11.108,27.222,167.349,34.036,147.563
11589,-0.5117,0.1494,-1.5737,-6.104,-2.991,-11.719,167.173,34.058,147.612
11599,-0.5117,0.1494,-1.5737,8.057,-2.319,-29.968,167.448,34.151,147.958
11679,-0.6372,0.0527,-0.9634,-32.593,12.512,47.791,169.014,34.019,149.513
11709,-0.5132,0.1509,-1.2666,20.508,-6.653,-4.089,168.794,34.124,149.046
11719,-0.4917,0.2905,-0.9951,37.354,-9.705,-16.174,169.266,34.25,149.216
11739,-0.5093,0.2041,-0.6416,37.354,-9.705,-16.174,170.447,34.557,149.919
11778,-0.5723,0.0762,-0.9023,-16.235,7.446,4.7,170.266,34.393,150.068
11789,-0.562,0.1128,-0.9722,-8.972,4.272,7.751,170.129,34.338,149.985
11818,-0.582,0.1792,-0.894,14.282,-8.057,4.15,170.272,34.464,149.766
11829,-0.604,0.1816,-0.7949,11.047,-7.629,-0.549,170.381,34.541,149.76
11848,-0.5493,0.125,-0.9077,-2.93,0.0,-12.024,170.513,34.607,149.958
11898,-0.5264,0.127,-0.8677,-6.165,2.502,-1.404,170.316,34.486,150.414
11909,-0.5796,0.1948,-0.9189,-17.822,4.761,-0.916,170.151,34.442,150.436
11938,-0.5566,0.23,-0.9248,-38.33,-7.813,-44.922,169.717,34.629,151.452
11958,-0.5913,0.1821,-0.877,-18.921,-9.521,-59.998,169.964,35.046,152.809
11978,-0.6548,0.0425,-0.6318,8.911,-1.587,-3.113,176.149,35.184,153.27
11999,-0.6294,0.061,-0.7729,7.813,17.7,54.016,175.77,34.887,152.298
12008,-0.6143,0.1279,-0.9224,7.813,17.7,54.016,175.265,34.607,151.447
12027,-0.6362,0.1714,-1.1079,-15.808,17.822,67.627,174.21,34.255,150.2
12048,-0.501,0.1738,-1.2407,-5.798,2.808,8.545,173.655,34.102,149.661
12088,-0.5269,0.3647,-0.5249,30.518,-17.944,-53.894,176.001,34.508,151.002
12128,-0.5913,0.0479,-0.5649,-64.697,-14.648,-3.601,174.496,35.645,152.468
12138,-0.5771,0.0835,-0.5903,-64.697,-14.648,-3.601,173.936,35.859,152.325
12147,-0.5771,0.0835,-0.5903,-28.259,-14.282,21.973,173.474,36.008,152.034
12157,-0.5771,0.0835,-0.5903,-11.597,-5.92,30.884,173.128,36.035,151.65
12168,-0.5708,0.1265,-1.0254,-0.977,1.282,35.034,172.864,35.909,151.221
12197,-0.5347,0.1851,-1.3184,0.793,13.55,23.499,172.535,35.079,150.518
12237,-0.5029,0.3208,-0.7974,7.69,-23.804,-35.95,173.716,35.585,152.144
12257,-0.6694,0.1392,-0.4702,-2.686,6.714,3.418,173.661,35.991,152.292
12277,-0.6294,0.1289,-0.6855,-10.315,7.263,18.799,173.183,35.98,151.913
12297,-0.5903,0.146,-0.8164,-10.315,7.263,18.799,172.864,36.008,151.479
12317,-0.6055,0.1978,-0.9907,24.414,-14.648,6.348,173.073,36.194,151.232
12347,-0.5522,0.1641,-0.9492,13.855,2.747,-5.676,173.546,36.068,151.276
12357,-0.5635,0.1562,-0.8706,8.85,2.136,-8.545,173.661,36.024,151.386
12366,-0.5635,0.1562,-0.8706,3.052,-1.465,-6.531,173.694,36.035,151.463
12376,-0.6079,0.1245,-0.7754,0.183,-4.822,-2.38,173.683,36.101,151.485
12387,-0.6309,0.1118,-0.8174,-2.38,-6.775,1.221,173.633,36.183,151.463
12427,-0.5308,0.249,-0.8066,-7.019,4.883,-13.184,173.364,36.068,151.76
12456,-0.5825,0.2021,-0.644,-2.38,0.488,6.775,172.941,36.431,151.859
12467,-0.6187,0.1245,-0.3789,-4.944,-3.113,19.348,172.639,36.65,151.611
12516,-0.6743,0.1016,-1.4229,-34.79,4.456,21.973,169.371,36.453,148.986
12526,-0.6743,0.1016,-1.4229,-34.79,4.456,21.973,169.25,36.431,148.931
12545,-0.5161,0.1699,-1.4502,44.434,5.005,-21.484,170.096,36.436,149.332
12566,-0.5059,0.2896,-0.9165,85.388,13.428,-42.603,172.31,36.332,150.255
12576,-0.5479,0.3096,-0.417,44.434,8.606,-48.95,173.123,36.315,150.87
12606,-0.6924,0.0713,-0.4697,-47.974,-9.827,17.822,172.293,36.376,151.018
12625,-0.6538,0.1504,-0.7778,-36.194,-8.728,33.691,171.057,36.458,150.249
12646,-0.5903,0.1719,-1.1138,-15.32,-18.005,18.066,170.2,36.711,149.579
12655,-0.5903,0.1719,-1.1138,-15.32,-18.005,18.066,170.134,36.826,149.48
12675,-0.5513,0.2285,-0.998,18.433,-1.343,-12.756,170.552,36.92,149.667
12686,-0.5449,0.2295,-0.8364,20.264,0.671,-16.296,170.876,36.936,149.87
12695,-0.5449,0.2295,-0.8364,20.264,0.671,-16.296,171.151,36.92,150.046
12705,-0.5449,0.2295,-0.8364,20.264,0.671,-16.296,171.288,36.837,150.128
12715,-0.644,0.1514,-0.728,-0.244,13.611,1.221,171.293,36.7,150.139
12745,-0.6235,0.1548,-0.7847,-3.418,1.953,0.977,171.112,36.436,150.101
12755,-0.624,0.1963,-0.7383,-0.488,-5.005,0.977,171.096,36.486,150.079
12785,-0.6108,0.1812,-0.9414,-0.488,-5.005,0.977,170.75,36.727,149.826
12795,-0.5723,0.2026,-1.0059,-14.587,0.061,4.456,170.568,36.722,149.777
12825,-0.6313,0.2432,-0.6343,-5.432,4.822,-2.136,170.365,36.552,149.886
12844,-0.6406,0.1445,-0.6831,-8.789,13.733,12.878,170.112,36.299,149.716
12865,-0.583,0.1533,-0.9639,-16.296,17.578,18.616,169.585,35.881,149.332
12905,-0.4985,0.1934,-1.0166,14.832,-12.451,-15.991,169.645,35.936,149.474
12935,-0.5557,0.165,-0.7231,14.832,-12.451,-15.991,170.343,36.205,149.656
12945,-0.6011,0.1714,-0.5015,8.484,2.502,10.742,170.354,36.161,149.529
12974,-0.6221,0.2261,-0.48,-10.925,-2.258,20.081,169.607,36.134,148.826
12995,-0.6035,0.2158,-0.9033,-34.18,-7.263,11.841,168.734,36.255,148.447
13014,-0.5786,0.2051,-1.291,-24.048,-0.305,0.305,168.118,36.282,148.348
13034,-0.5288,0.2026,-1.3735,-11.658,2.625,-8.362,168.322,35.931,148.689
13054,-0.5239,0.3047,-0.8623,21.973,-0.183,-28.748,169.041,35.766,149.392
13074,-0.6216,0.2041,-0.6431,21.973,-0.183,-28.748,169.393,36.008,149.683
13094,-0.6763,0.1626,-0.4199,5.432,14.648,15.808,169.288,36.123,149.474
13114,-0.6187,0.207,-0.6235,-14.343,2.563,24.536,168.58,36.129,148.936
13124,-0.6035,0.2134,-0.7583,-14.343,2.563,24.536,168.234,36.167,148.683
13143,-0.5942,0.2056,-0.8848,-3.479,-18.738,2.686,167.937,36.387,148.436
13154,-0.5972,0.2046,-1.1001,4.089,-14.465,-2.258,167.986,36.447,148.425
13183,-0.542,0.1685,-1.0825,4.089,-14.465,-2.258,168.448,36.09,148.579
13204,-0.5146,0.2441,-0.7998,20.203,12.146,-5.371,168.843,35.744,148.766
13244,-0.6235,0.1812,-0.6118,-4.089,2.991,3.235,168.915,35.76,148.793
13253,-0.6235,0.1812,-0.6118,-10.315,-0.732,3.052,168.734,35.826,148.755
13273,-0.5869,0.2051,-0.7759,-16.907,-9.338,4.211,168.261,35.991,148.623
13293,-0.5469,0.2036,-1.0337,-16.907,-9.338,4.211,167.904,36.079,148.524
13313,-0.5654,0.2583,-1.0645,-7.629,-2.38,-6.531,167.75,36.008,148.607
13353,-0.6865,0.2373,-0.7266,-20.874,-3.357,-12.695,167.58,36.134,149.26
13383,-0.5947,0.1455,-0.5957,-13.306,-5.188,4.456,166.937,36.519,149.315
13413,-0.5898,0.1665,-0.6313,-1.709,-7.568,19.592,166.404,36.661,148.612
13423,-0.5073,0.2104,-0.9365,-2.747,-5.554,15.686,166.267,36.59,148.409
13442,-0.4248,0.2778,-1.0825,-11.475,2.93,8.24,165.927,36.244,148.184
13463,-0.4019,0.3008,-0.9687,9.705,8.24,-13.55,166.064,35.832,148.392
13512,-0.7275,0.1841,-0.6011,2.075,9.827,-3.54,166.641,35.942,149.15
13522,-0.7275,0.1841,-0.6011,-1.099,-1.282,14.221,166.492,36.024,148.975
13533,-0.7275,0.1841,-0.6011,-1.099,-1.282,14.221,166.328,36.156,148.744
13573,-0.6055,0.2705,-0.998,-4.15,-19.287,2.869,165.877,36.612,148.271
13592,-0.5327,0.2388,-0.938,-12.573,23.56,-3.174,165.712,36.156,148.436
13612,-0.52,0.2173,-0.8232,-4.517,21.423,0.427,165.657,35.579,148.607
13622,-0.52,0.2173,-0.8232,-4.517,21.423,0.427,165.668,35.453,148.607
13632,-0.6182,0.1758,-0.7544,8.057,4.883,3.662,165.745,35.431,148.579
13642,-0.6182,0.1758,-0.7544,8.057,4.883,3.662,165.861,35.453,148.53
13652,-0.6504,0.1914,-0.7598,13.489,-0.488,6.592,165.948,35.48,148.447
13682,-0.6479,0.228,-0.8804,-3.967,0.854,13.733,165.701,35.42,148.008
13702,-0.6265,0.2187,-0.9346,-3.662,-6.409,2.136,165.547,35.42,147.843
13722,-0.5742,0.2017,-0.9673,4.517,-11.047,-2.93,165.663,35.53,147.849
13762,-0.6172,0.2646,-0.6177,-3.662,1.099,0.854,165.679,35.75,147.865
13792,-0.5698,0.2227,-0.6763,-18.982,-3.54,1.953,164.993,35.892,147.816
13802,-0.5762,0.2275,-0.7397,-18.799,-9.583,1.221,164.756,35.986,147.772
13832,-0.5703,0.271,-0.7275,-17.395,-9.949,-2.502,164.092,36.387,147.711
13842,-0.563,0.2725,-0.7319,-21.851,-4.822,-1.587,163.834,36.431,147.717
13872,-0.5928,0.1816,-1.1338,-6.47,-6.165,-3.235,163.581,36.387,147.81
13881,-0.5972,0.2031,-1.1772,-6.47,-6.165,-3.235,163.608,36.332,147.772
13891,-0.5977,0.2061,-1.1597,-3.052,-1.709,4.517,163.603,36.244,147.717
13901,-0.5977,0.2061,-1.1597,-3.052,-1.709,4.517,163.603,36.101,147.695
13911,-0.562,0.2744,-1.0356,-4.456,8.24,-1.77,163.603,35.942,147.744
13921,-0.52,0.312,-0.9346,-4.456,8.24,-1.77,163.652,35.81,147.881
13981,-0.6675,0.2651,-0.4102,-5.127,6.042,20.02,162.768,36.156,147.618
13991,-0.6675,0.2651,-0.4102,-15.381,-0.427,20.142,162.35,36.211,147.376
14011,-0.6675,0.2651,-0.4102,-9.888,-6.592,15.808,161.807,36.205,146.97
14021,-0.5869,0.2441,-1.0879,-1.831,-10.315,12.878,161.73,36.178,146.777
14051,-0.5522,0.292,-1.1733,-1.831,-10.193,-15.991,161.911,36.222,146.843
14061,-0.5,0.3315,-1.0112,3.967,-9.277,-26.672,162.109,36.282,147.123
14080,-0.5254,0.3564,-0.6475,15.747,2.014,-17.761,162.543,36.359,147.645
14131,-0.6968,0.2192,-0.7524,-29.785,-12.451,23.804,161.252,36.584,146.722
14140,-0.6479,0.2534,-0.9531,-29.785,-12.451,23.804,160.84,36.7,146.481
14160,-0.5356,0.332,-1.1934,-16.602,-25.574,-11.047,160.461,36.958,146.365
14171,-0.5015,0.3613,-1.1299,-6.775,-25.696,-26.917,160.538,37.145,146.58
14190,-0.5176,0.4482,-0.7324,5.798,-23.743,-33.325,160.851,37.661,147.2
14210,-0.6367,0.187,-0.4912,-3.052,-1.16,-3.54,160.834,38.051,147.42
14240,-0.752,0.1919,-0.5571,-19.958,8.362,30.64,159.972,38.051,146.646
14250,-0.7222,0.23,-0.7061,-20.325,2.136,22.827,159.626,38.018,146.382
14280,-0.6431,0.2813,-0.957,2.258,-16.846,-4.456,159.313,38.221,146.085
14310,-0.6333,0.2886,-0.9019,37.72,-17.761,2.747,160.115,38.765,145.959
14320,-0.627,0.2417,-0.73,32.959,-6.47,14.954,160.329,38.776,145.75
14350,-0.6865,0.1509,-0.9951,-9.033,11.23,27.649,159.879,37.969,144.866
14360,-0.5972,0.3208,-1.1475,-25.146,21.729,21.24,159.576,37.584,144.706
14390,-0.4663,0.5605,-0.5366,-28.687,-4.944,-81.97,159.434,37.612,146.497
14409,-0.4429,0.4712,-0.3667,-10.803,-18.616,-105.652,159.994,38.82,148.771
14430,-0.7183,0.0483,-0.374,-14.221,-19.287,-9.644,160.505,39.919,149.485
14449,-0.7734,0.1978,-0.7598,-27.161,-10.925,22.827,159.686,40.215,148.87
14490,-0.6318,0.4067,-1.0669,1.953,-7.813,-1.709,159.252,40.001,148.233
14499,-0.6318,0.4067,-1.0669,-2.014,-8.85,-10.925,159.269,40.034,148.326
14509,-0.6069,0.3599,-0.7808,-4.272,-6.226,-14.465,159.28,40.095,148.475
14539,-0.6196,0.2861,-0.5996,-11.353,4.517,-0.793,158.895,40.045,148.59
14569,-0.6509,0.25,-0.6138,-13.428,9.46,8.728,158.357,39.595,148.381
14579,-0.623,0.3149,-0.8076,-9.277,3.967,2.075,158.269,39.512,148.37
14619,-0.6602,0.2695,-0.7402,6.042,-0.183,4.883,158.373,39.545,148.392
14638,-0.6528,0.2612,-0.8311,3.357,6.287,13.733,158.373,39.326,148.145
14649,-0.6528,0.2612,-0.8311,3.357,6.287,13.733,158.379,39.199,148.046
14668,-0.6533,0.2979,-0.8921,5.92,-0.916,4.395,158.538,39.183,147.969
14689,-0.6797,0.291,-0.6865,15.32,-8.667,-1.221,158.791,39.408,147.942
14729,-0.6934,0.2866,-0.6572,5.859,6.409,8.789,158.741,39.122,147.783
14748,-0.6138,0.3105,-0.8823,-7.568,-2.014,-20.081,158.791,39.073,148.151
14769,-0.6133,0.2734,-0.6064,8.423,-6.897,-17.09,159.104,39.37,148.563
14798,-0.6558,0.2593,-0.522,3.662,5.981,11.658,158.912,39.331,148.293
14808,-0.6812,0.2617,-0.7773,-6.348,16.418,22.4,158.752,39.106,148.096
14838,-0.582,0.374,-1.0381,-10.01,-7.629,-10.254,158.456,38.677,148.013
14868,-0.564,0.3813,-0.9419,7.935,-10.437,-23.315,158.873,39.227,148.711
14927,-0.686,0.2437,-0.7837,-4.395,-1.343,13.733,158.527,39.402,148.2
14937,-0.6025,0.3032,-0.8872,-4.395,-1.343,13.733,158.511,39.408,148.096
14948,-0.6025,0.3032,-0.8872,-4.395,-1.343,13.733,158.549,39.446,148.019
14988,-0.6255,0.3506,-0.7778,12.207,-5.127,1.831,158.752,39.38,147.903
15007,-0.6147,0.2954,-0.8843,-15.503,5.31,-9.155,158.659,39.172,148.112
15028,-0.5576,0.3281,-0.77,-15.503,5.31,-9.155,158.665,39.227,148.414
15057,-0.6763,0.2314,-0.5195,7.751,-5.005,1.831,158.643,39.694,148.293
15097,-0.6323,0.314,-0.9053,0.977,4.272,6.348,158.236,39.65,147.783
15117,-0.6265,0.3359,-0.9224,8.85,4.211,0.916,158.417,39.419,147.805
15137,-0.666,0.293,-0.7627,16.296,1.648,3.418,158.681,39.331,147.761
15157,-0.6631,0.2671,-0.769,16.296,1.648,3.418,158.934,39.139,147.601
15167,-0.6646,0.2832,-0.8086,8.362,12.512,12.451,158.972,38.969,147.508
15177,-0.6455,0.3101,-0.8408,-2.625,13.123,6.348,158.945,38.793,147.491
15186,-0.6455,0.3101,-0.8408,-2.625,13.123,6.348,158.851,38.688,147.585
15207,-0.5757,0.3604,-0.6436,-14.282,-7.507,-21.79,158.654,38.837,148.024
15247,-0.6704,0.2061,-0.564,7.08,3.845,16.296,158.698,39.38,147.931
15266,-0.6621,0.1802,-0.6465,21.912,19.958,29.602,158.802,38.947,147.442
15287,-0.6553,0.3267,-1.0239,22.339,23.376,29.236,159.022,38.177,146.931
15316,-0.5679,0.3701,-1.2383,2.014,0.305,-17.639,159.208,37.623,146.931
15336,-0.5972,0.4248,-1.0332,9.277,-3.723,-41.077,159.994,37.886,147.997
15346,-0.5444,0.3696,-0.6172,13.123,-8.85,-45.898,160.323,38.117,148.502
15356,-0.5444,0.3696,-0.6172,3.174,-3.784,-24.048,160.406,38.326,148.777
15376,-0.6978,0.1885,-0.4326,-5.005,4.578,-2.991,160.241,38.584,148.738
15386,-0.6978,0.1885,-0.4326,-10.925,3.906,16.052,160.054,38.677,148.563
15396,-0.7007,0.1821,-0.4883,-13.062,1.221,20.752,159.769,38.743,148.315
15416,-0.6279,0.2383,-0.7227,-1.038,-1.465,15.747,159.423,38.743,147.865
15436,-0.6216,0.3354,-1.0137,8.972,2.136,9.827,159.467,38.518,147.623
15456,-0.5615,0.3853,-1.0845,-1.221,-2.686,-6.592,159.56,38.304,147.656
15466,-0.5688,0.377,-0.9956,-8.057,-6.47,-16.785,159.582,38.32,147.827
15476,-0.5469,0.4268,-0.854,-10.803,-8.972,-25.452,159.576,38.408,148.09
15486,-0.5469,0.4268,-0.854,-14.404,-4.089,-20.386,159.494,38.474,148.315
15496,-0.5469,0.4268,-0.854,-16.235,5.249,-7.813,159.357,38.48,148.436
15506,-0.6831,0.2256,-0.5962,-16.602,11.78,1.953,159.208,38.447,148.464
15536,-0.6606,0.2295,-0.6875,-7.996,1.77,9.399,158.873,38.353,148.271
15546,-0.6479,0.269,-0.7178,-4.578,-5.554,8.911,158.752,38.392,148.14
15565,-0.6245,0.3066,-0.7544,-4.578,-5.554,8.911,158.703,38.617,147.964
15575,-0.6255,0.3213,-0.7783,6.897,-14.526,-3.113,158.741,38.743,147.936
15586,-0.6147,0.3267,-0.8149,5.005,-10.559,-3.174,158.78,38.815,147.925
15595,-0.6147,0.3267,-0.8149,5.005,-10.559,-3.174,158.802,38.826,147.931
15605,-0.5776,0.3125,-0.8623,5.005,-10.559,-3.174,158.813,38.787,147.964
15615,-0.5688,0.3003,-0.8564,-4.761,-0.671,-4.883,158.818,38.743,148.019
15655,-0.6489,0.2666,-0.6089,4.211,0.61,0.122,158.873,38.754,148.217
15675,-0.6855,0.2451,-0.5308,12.024,3.906,10.01,158.939,38.853,148.068
15685,-0.6855,0.2451,-0.5308,9.521,6.653,15.076,158.912,38.826,147.914
15695,-0.6763,0.2417,-0.709,5.554,8.911,17.09,158.89,38.716,147.755
15704,-0.6763,0.2417,-0.709,5.554,8.911,17.09,158.89,38.546,147.634
15725,-0.6118,0.3203,-1.0024,-0.793,-1.831,-1.77,158.906,38.287,147.585
15765,-0.6436,0.3013,-0.6465,3.906,-5.493,-7.874,159.17,38.589,148.074
15805,-0.6875,0.2363,-0.6064,-3.967,5.005,12.756,158.934,38.771,147.733
15845,-0.6147,0.353,-0.9004,4.761,-8.972,-4.395,158.851,38.683,147.502
15874,-0.644,0.2993,-0.8237,7.385,-5.249,-3.113,159.11,38.732,147.546
15914,-0.623,0.312,-0.8267,-0.977,4.333,-6.287,159.291,38.298,147.777
15925,-0.6401,0.3022,-0.7261,-0.977,4.333,-6.287,159.346,38.326,147.854
15954,-0.6577,0.2383,-0.5259,4.639,-0.549,6.042,159.395,38.606,147.783
16024,-0.5547,0.3501,-0.9302,-1.099,-7.751,-16.785,159.324,38.436,147.832
16064,-0.6851,0.2061,-0.5786,3.479,11.292,4.089,159.664,38.568,148.178
16094,-0.6533,0.2651,-0.709,-5.432,4.883,7.874,159.434,38.315,147.975
16134,-0.6313,0.3027,-0.7822,3.235,-7.751,2.075,159.269,38.452,147.755
16173,-0.5933,0.3467,-0.9023,-12.207,0.732,-11.536,159.033,38.167,148.063
16213,-0.7021,0.2197,-0.5679,15.137,1.343,11.108,159.285,38.375,148.041
16243,-0.6704,0.2578,-0.6152,15.137,1.343,11.108,159.055,38.298,147.404
16313,-0.582,0.3369,-0.6772,3.601,-6.47,-7.385,159.351,38.589,147.854
16323,-0.6729,0.2383,-0.5474,-3.845,1.221,1.282,159.274,38.672,147.843
16342,-0.6621,0.2373,-0.6699,-12.512,5.737,4.822,159.033,38.672,147.783
16372,-0.6318,0.2783,-0.7847,-8.484,1.099,4.517,158.78,38.606,147.634
16393,-0.6572,0.2754,-0.8076,-8.484,1.099,4.517,158.983,38.809,147.48
16422,-0.6079,0.335,-1.0244,3.906,5.249,4.7,159.137,38.474,147.426
16433,-0.5771,0.3535,-1.0239,-9.888,9.216,-9.46,159.153,38.315,147.579
16472,-0.6992,0.1675,-0.3096,27.649,-12.024,-5.737,159.769,38.903,148.173
16502,-0.6973,0.1992,-0.3027,19.409,-17.822,11.597,159.642,39.869,147.568
16512,-0.6416,0.2334,-0.7236,0.916,-0.305,20.63,159.516,39.809,147.316
16542,-0.6108,0.3794,-1.3394,-11.841,2.075,-5.737,159.302,39.227,147.145
16582,-0.6646,0.2871,-0.6362,10.254,-15.564,-27.466,160.148,39.842,148.37
16622,-0.6885,0.1968,-0.4136,-0.488,15.686,33.081,160.263,39.935,147.728
16631,-0.6885,0.1968,-0.4136,-0.488,15.686,33.081,160.005,39.831,147.426
16652,-0.623,0.3574,-0.9609,-6.348,-8.606,-2.319,159.769,39.754,147.244
16662,-0.5771,0.3955,-0.9917,-9.094,-16.602,-17.395,159.747,39.853,147.382
16671,-0.5771,0.3955,-0.9917,-9.094,-16.602,-17.395,159.774,40.062,147.651
16681,-0.5771,0.3955,-0.9917,-9.094,-16.602,-17.395,159.785,40.342,147.964
16692,-0.5938,0.2852,-0.6797,-14.587,-17.273,-24.597,159.758,40.573,148.189
16711,-0.6899,0.1709,-0.6611,-14.587,-17.273,-24.597,159.653,40.501,148.178
16732,-0.6851,0.2568,-0.8057,-0.244,22.461,21.118,159.489,39.946,147.876
16761,-0.6558,0.3022,-0.792,14.526,-6.714,-3.357,159.741,39.716,147.766
16771,-0.6753,0.2837,-0.7192,15.869,-9.338,-4.211,159.89,39.831,147.777
16781,-0.6753,0.2837,-0.7192,15.869,-9.338,-4.211,160.01,39.941,147.766
16791,-0.6753,0.2837,-0.7192,15.869,-9.338,-4.211,160.071,39.996,147.744
16801,-0.6641,0.2563,-0.6582,2.258,3.296,4.272,160.054,39.985,147.706
16841,-0.6235,0.2964,-0.9165,-6.714,2.869,-7.446,159.917,39.644,147.838
16881,-0.6377,0.2539,-0.7246,-0.366,8.301,-7.813,160.236,39.337,148.348
16911,-0.6431,0.2354,-0.5425,15.381,13.55,9.888,160.51,39.089,148.184
16921,-0.6436,0.2607,-0.5537,13.733,7.202,14.099,160.499,39.051,148.046
16951,-0.604,0.2866,-0.8369,-1.221,1.587,2.136,160.455,38.903,147.827
16981,-0.5864,0.3032,-0.917,-6.775,0.854,-3.174,160.318,38.639,147.925
16991,-0.5864,0.3032,-0.917,-1.404,-1.221,-4.883,160.356,38.617,147.98
17020,-0.6831,0.2617,-0.7461,-1.404,-1.221,-4.883,160.472,38.699,147.953
17060,-0.6748,0.2749,-0.79,-4.761,2.747,5.798,160.208,38.617,147.722
17070,-0.6147,0.2954,-0.8506,-11.536,-0.305,-3.418,160.126,38.589,147.761
17100,-0.6128,0.2871,-0.6802,-5.92,-14.709,-12.756,159.977,38.985,148.008
17120,-0.647,0.2534,-0.6821,-10.803,-6.775,-6.714,159.84,39.265,148.129
17140,-0.6641,0.2407,-0.769,-10.437,4.089,0.366,159.697,39.26,148.173
17149,-0.6621,0.2451,-0.7944,-10.437,4.089,0.366,159.653,39.194,148.151
17160,-0.6646,0.249,-0.7964,-10.437,4.089,0.366,159.659,39.128,148.09
17170,-0.6572,0.2466,-0.7759,-10.437,4.089,0.366,159.719,39.089,147.964
17180,-0.6528,0.2461,-0.7612,19.348,-0.61,15.076,159.818,39.045,147.783
17189,-0.6528,0.2461,-0.7612,24.353,1.404,18.799,159.944,38.963,147.557
17200,-0.6367,0.2656,-0.7939,23.376,4.639,19.165,160.06,38.842,147.349
17210,-0.6172,0.2852,-0.8193,16.296,8.545,16.357,160.131,38.672,147.189
17239,-0.6045,0.2964,-0.8296,-10.254,2.136,-9.338,160.071,38.342,147.239
17250,-0.5669,0.3149,-0.8369,-12.207,-3.54,-18.555,160.071,38.375,147.448
17290,-0.6768,0.1992,-0.6416,-4.272,-1.221,1.465,159.84,38.721,147.838
17319,-0.6816,0.2627,-0.6768,5.615,1.465,10.925,159.774,38.776,147.491
17330,-0.6655,0.2803,-0.707,6.348,2.93,11.292,159.747,38.732,147.371
17339,-0.6563,0.3022,-0.7241,8.118,2.38,9.644,159.736,38.688,147.266
17349,-0.6563,0.3022,-0.7241,8.118,2.38,9.644,159.747,38.655,147.167
17359,-0.6323,0.2832,-0.7495,9.644,2.991,8.423,159.785,38.595,147.079
17389,-0.6274,0.2676,-0.8257,-3.601,10.254,7.324,159.813,38.057,146.86
17399,-0.5757,0.3242,-1.0,-10.071,5.798,-0.916,159.758,37.914,146.893
17409,-0.5757,0.3467,-0.9497,-10.071,5.798,-0.916,159.741,37.853,147.041
17419,-0.5439,0.355,-0.877,-5.737,-1.526,-20.752,159.813,37.859,147.277
17448,-0.6138,0.3105,-0.6909,-6.104,-0.549,-12.512,159.824,38.035,147.733
17469,-0.6899,0.1938,-0.563,-5.554,1.77,-1.587,159.725,38.265,147.733
17488,-0.6846,0.2256,-0.5479,-3.967,-4.517,6.958,159.472,38.496,147.557
17499,-0.6724,0.2363,-0.6045,-1.526,-5.554,6.653,159.384,38.6,147.453
17509,-0.6533,0.2646,-0.6689,-1.526,-5.554,6.653,159.351,38.666,147.354
17538,-0.6396,0.2852,-0.7529,3.601,6.958,7.446,159.461,38.392,147.173
17549,-0.5737,0.3447,-1.0771,-3.601,7.385,4.639,159.439,38.188,147.151
17589,-0.626,0.3574,-0.791,-5.493,-2.014,-16.724,159.478,38.04,147.722
17618,-0.7007,0.1841,-0.6167,-2.502,4.944,-2.258,159.582,38.21,147.876
17648,-0.6504,0.2437,-0.6406,2.014,-2.502,10.254,159.456,38.397,147.519
17658,-0.6436,0.2778,-0.644,5.981,-8.789,2.869,159.439,38.507,147.448
17678,-0.6323,0.2817,-0.6758,7.751,-6.836,0.305,159.494,38.716,147.365
17698,-0.5928,0.2729,-0.8604,2.258,6.47,8.85,159.532,38.557,147.239
17728,-0.5752,0.353,-0.9878,-10.315,8.911,-0.61,159.346,37.897,147.173
17738,-0.5864,0.3359,-0.9561,-3.845,3.967,-11.108,159.412,37.82,147.321
17768,-0.6372,0.3213,-0.873,1.099,8.24,-5.066,159.791,37.645,147.772
17798,-0.6528,0.2944,-0.812,7.263,3.357,-2.075,160.005,37.551,147.931
17808,-0.6611,0.2339,-0.5737,9.583,-1.709,-2.319,160.087,37.667,147.953
17848,-0.6338,0.2231,-0.5103,-1.404,-9.399,5.005,159.857,38.452,147.695
17877,-0.6216,0.2402,-0.6528,-0.366,-0.61,9.644,159.626,38.474,147.327
17897,-0.6123,0.2871,-0.8477,5.31,7.263,10.62,159.659,38.145,147.118
17957,-0.6035,0.3379,-0.79,-1.526,5.188,-14.771,159.977,37.656,148.013
17978,-0.708,0.1602,-0.5859,3.357,12.268,-0.854,160.186,37.639,148.206
17997,-0.6885,0.1943,-0.501,0.793,-2.747,7.141,160.159,37.864,148.085
18006,-0.6885,0.1943,-0.501,0.793,-2.747,7.141,159.994,38.068,147.936
18027,-0.6714,0.2466,-0.5391,-5.31,-18.494,8.606,159.532,38.639,147.53
18057,-0.6631,0.2495,-0.6265,9.216,-10.742,16.724,159.192,39.029,146.838
18067,-0.5933,0.3184,-0.9995,11.78,-1.221,17.639,159.203,38.886,146.618
18097,-0.6084,0.3457,-1.0107,0.671,6.165,6.226,159.258,38.381,146.486
18107,-0.6206,0.3882,-0.9102,-4.028,-0.916,-15.564,159.302,38.381,146.667
18136,-0.5967,0.3999,-0.8149,-13.123,3.296,-22.522,159.186,38.375,147.343
18147,-0.6479,0.2505,-0.6763,-20.203,7.263,2.686,158.994,38.331,147.343
18156,-0.6479,0.2505,-0.6763,-20.203,7.263,2.686,158.807,38.304,147.294
18176,-0.6943,0.2393,-0.7114,-14.465,4.272,5.188,158.527,38.282,147.195
18187,-0.6763,0.3003,-0.6743,-14.465,4.272,5.188,158.439,38.304,147.167
18206,-0.6763,0.3003,-0.6743,-1.526,1.404,0.0,158.34,38.381,147.189
18216,-0.6499,0.3042,-0.6772,-3.235,-1.282,-1.648,158.291,38.43,147.206
18256,-0.6353,0.2749,-0.8018,-2.319,-3.601,-0.549,158.264,38.617,147.283
18286,-0.627,0.3037,-0.8887,-4.822,1.953,0.977,158.209,38.414,147.217
18296,-0.5854,0.3281,-0.9189,-6.653,-1.404,-5.005,158.198,38.375,147.272
18305,-0.5854,0.3281,-0.9189,-6.653,-1.404,-5.005,158.192,38.392,147.354
18326,-0.6172,0.3325,-0.7554,-7.69,-8.24,-4.333,158.06,38.518,147.426
18356,-0.6851,0.2339,-0.6191,2.747,-1.77,-1.099,158.071,38.793,147.453
18366,-0.6733,0.2471,-0.5786,5.737,-0.183,1.526,158.104,38.87,147.437
18406,-0.6152,0.2769,-0.7144,1.587,5.249,5.31,158.033,38.787,147.217
18455,-0.5361,0.3667,-0.7876,-3.113,-5.554,-11.536,158.077,38.683,147.546
18515,-0.6875,0.2593,-0.772,-1.526,16.479,9.033,157.852,38.205,147.87
18555,-0.6445,0.2959,-0.7227,-2.563,1.709,-1.099,157.753,37.974,147.942
18575,-0.6655,0.2769,-0.769,-1.77,3.418,3.784,157.736,37.936,147.92
18585,-0.6655,0.2749,-0.8057,-1.77,3.418,3.784,157.725,37.881,147.86
18604,-0.6523,0.2754,-0.897,0.854,2.136,8.728,157.736,37.744,147.656
18625,-0.5801,0.2969,-0.8926,5.859,-4.272,4.517,157.83,37.639,147.486
18665,-0.6465,0.3105,-0.6533,0.366,1.16,4.7,157.78,37.694,147.206
18674,-0.6475,0.2959,-0.6626,0.366,1.16,4.7,157.72,37.711,147.184
18684,-0.6455,0.2817,-0.6924,-4.333,-0.732,1.221,157.665,37.744,147.167
18705,-0.6494,0.2852,-0.7119,-0.977,-1.709,4.822,157.582,37.804,147.068
18714,-0.6494,0.2852,-0.7119,-0.977,-1.709,4.822,157.516,37.793,146.975
18734,-0.6357,0.3257,-0.7402,-5.493,4.456,7.019,157.302,37.661,146.827
18764,-0.6221,0.335,-0.7539,-0.977,-3.479,-3.052,157.242,37.623,146.832
18774,-0.6265,0.3154,-0.8789,0.793,-5.615,-2.38,157.28,37.645,146.832
18814,-0.6147,0.3281,-0.6372,3.235,-5.981,-1.77,157.363,37.881,146.794
18844,-0.6123,0.3267,-0.6333,-6.897,-6.348,-11.353,157.209,38.199,146.953
18864,-0.5845,0.3042,-0.7671,-6.592,-4.883,-11.597,157.22,38.298,147.123
18884,-0.6079,0.3267,-0.731,-0.732,-3.845,2.075,157.148,38.337,147.079
18914,-0.6372,0.3071,-0.668,1.16,-1.404,4.639,157.028,38.364,146.915
18924,-0.6836,0.2915,-0.7549,0.244,6.287,5.188,157.033,38.309,146.882
18954,-0.6851,0.3057,-0.9131,1.038,2.563,4.272,157.055,37.996,146.761
18964,-0.6357,0.3433,-0.9258,3.54,-1.343,-0.366,157.115,37.958,146.755
18994,-0.647,0.3208,-0.7881,2.869,-4.578,-3.601,157.291,38.095,146.832
19023,-0.6836,0.2861,-0.6768,0.427,-4.272,1.587,157.28,38.381,146.761
19033,-0.6509,0.2822,-0.5977,-1.648,-4.211,3.662,157.203,38.463,146.7
19063,-0.6348,0.2974,-0.5781,-14.404,2.686,4.944,156.61,38.507,146.475
19073,-0.5781,0.3306,-0.6997,-15.503,2.747,0.0,156.445,38.463,146.492
19103,-0.5659,0.3281,-0.8047,-0.671,-1.404,-4.761,156.418,38.381,146.651
19113,-0.6587,0.313,-0.8437,5.066,-0.122,-0.061,156.5,38.359,146.651
19143,-0.604,0.3604,-0.814,3.113,7.263,5.981,156.588,38.013,146.464
19173,-0.5757,0.3735,-0.8252,-7.08,1.892,-13.245,156.665,37.87,146.81
19183,-0.5898,0.3306,-0.8379,-5.676,5.066,-10.193,156.714,37.815,146.953
19202,-0.647,0.2925,-0.665,3.052,10.742,5.493,156.764,37.656,147.008
19223,-0.6489,0.2935,-0.4854,0.61,10.62,10.986,156.61,37.579,146.871
19242,-0.6489,0.2935,-0.4854,-7.202,8.972,7.385,156.27,37.535,146.755
19253,-0.6675,0.3091,-0.6289,-7.202,8.972,7.385,156.149,37.518,146.739
19272,-0.6606,0.311,-0.7251,-8.972,2.808,2.808,156.006,37.491,146.684
19293,-0.5938,0.3726,-1.0664,3.235,-5.188,-3.845,156.143,37.441,146.684
19333,-0.5547,0.4248,-0.9771,0.061,6.592,-13.916,156.451,37.073,147.189
19402,-0.6855,0.1968,-0.3999,-8.606,-18.127,8.911,155.731,38.782,146.673
19432,-0.5674,0.4673,-1.1953,-4.211,-4.761,2.991,155.561,38.71,146.492
19462,-0.5278,0.4814,-1.2539,-4.211,-4.761,2.991,155.901,38.699,146.937
19482,-0.6719,0.2603,-0.6138,19.958,-10.193,-5.432,156.264,39.012,146.981
19501,-0.7397,0.1968,-0.3486,19.958,-10.193,-5.432,156.253,39.37,146.646
19531,-0.7021,0.2651,-0.4517,-2.197,3.479,13.062,155.814,39.512,146.25
19541,-0.7021,0.2651,-0.4517,-1.709,5.31,4.333,155.83,39.43,146.228
19552,-0.6226,0.3457,-0.9468,2.747,-1.404,-1.465,155.907,39.375,146.234
19592,-0.5977,0.3589,-0.8628,8.362,-10.254,-15.503,156.423,39.485,146.508
19632,-0.6895,0.25,-0.5684,0.793,7.874,5.127,156.599,39.595,146.678
19661,-0.6519,0.312,-0.6797,3.479,-0.732,-0.854,156.577,39.551,146.596
19681,-0.6348,0.3311,-0.7212,6.104,-2.441,-5.371,156.736,39.639,146.695
19691,-0.6348,0.3311,-0.7212,6.104,-2.441,-5.371,156.808,39.65,146.728
19701,-0.6611,0.292,-0.7314,3.296,6.409,2.563,156.852,39.589,146.733
19721,-0.6318,0.292,-0.7905,-3.906,8.728,5.066,156.841,39.293,146.695
19741,-0.5913,0.3408,-0.8994,-3.235,-3.052,-8.911,156.885,39.183,146.816
19761,-0.6255,0.3135,-0.7808,4.456,-7.751,-12.451,157.104,39.32,147.041
19771,-0.6626,0.292,-0.6543,9.094,-6.714,-10.193,157.236,39.457,147.129
19781,-0.686,0.2739,-0.5425,11.353,-3.906,-2.38,157.319,39.595,147.14
19790,-0.686,0.2739,-0.5425,8.301,0.977,5.127,157.28,39.683,147.079
19811,-0.6738,0.3018,-0.5508,-7.629,9.277,10.864,156.94,39.655,146.898
19840,-0.585,0.3506,-1.0215,-14.832,0.916,-8.301,156.643,39.293,147.025
19860,-0.6255,0.3286,-1.0488,-5.127,-7.874,-14.038,156.929,39.397,147.283
19880,-0.6519,0.3081,-0.9414,-5.127,-7.874,-14.038,157.456,39.716,147.426
19891,-0.7129,0.2808,-0.666,19.958,-10.437,-0.183,157.615,39.858,147.376
19940,-0.6611,0.2915,-0.5156,-5.127,5.737,6.958,157.143,40.051,146.986
19960,-0.6587,0.2617,-0.5391,-5.737,-1.404,3.662,156.907,40.204,146.915
19970,-0.6567,0.2568,-0.6758,-7.263,2.93,8.667,156.797,40.166,146.821
20000,-0.5112,0.4146,-1.3345,-24.719,7.874,-5.188,156.429,39.408,146.821
