elapsed_ms,acc_x_g,acc_y_g,acc_z_g,gyro_x_dps,gyro_y_dps,gyro_z_dps,angle_x_deg,angle_y_deg,angle_z_deg
0,-0.02,0.0278,-1.0513,0.427,0.305,0.122,178.445,1.121,-0.016
10,-0.02,0.0278,-1.0513,0.427,0.0,0.0,178.445,1.121,-0.016
21,-0.02,0.0313,-1.0518,0.305,-0.427,0.0,178.451,1.126,-0.016
40,-0.019,0.0283,-1.0537,0.244,-0.671,0.061,178.451,1.132,-0.016
50,-0.019,0.0283,-1.0537,0.366,0.061,0.061,178.456,1.132,-0.016
70,-0.021,0.0278,-1.0498,0.366,0.244,0.0,178.462,1.126,-0.016
80,-0.02,0.0317,-1.0474,0.305,0.0,0.0,178.462,1.126,-0.016
90,-0.0205,0.0308,-1.0488,0.305,0.0,0.0,178.462,1.132,-0.016
111,-0.0225,0.0308,-1.0493,0.488,-0.488,0.0,178.467,1.143,-0.016
120,-0.02,0.0293,-1.0503,0.488,-0.488,0.0,178.473,1.143,-0.016
130,-0.0186,0.0278,-1.0464,0.366,0.305,0.0,178.478,1.137,-0.016
160,-0.022,0.0313,-1.0474,0.061,0.488,0.0,178.473,1.126,-0.016
170,-0.02,0.0298,-1.0503,-0.061,-0.122,0.0,178.473,1.126,-0.016
190,-0.021,0.0298,-1.0503,-0.061,-0.122,0.0,178.473,1.126,-0.016
200,-0.0195,0.0288,-1.0513,-0.061,-0.122,0.0,178.473,1.121,-0.016
219,-0.0205,0.0283,-1.0483,-0.061,0.366,0.0,178.473,1.115,-0.016
229,-0.0205,0.0283,-1.0483,0.305,0.0,0.0,178.478,1.115,-0.016
240,-0.0176,0.0283,-1.0518,0.305,0.0,0.0,178.478,1.115,-0.016
259,-0.021,0.0288,-1.0508,-0.122,0.0,0.0,178.478,1.115,-0.016
269,-0.0205,0.0264,-1.0522,-0.122,0.0,0.0,178.478,1.115,-0.016
280,-0.0215,0.0293,-1.0498,0.427,-0.061,-0.122,178.484,1.115,-0.016
299,-0.02,0.0313,-1.0483,-0.427,-0.244,0.0,178.473,1.121,-0.016
309,-0.02,0.0313,-1.0483,0.122,-0.305,0.0,178.473,1.121,-0.016
320,-0.0195,0.0283,-1.0513,0.549,-0.305,0.0,178.478,1.126,-0.016
339,-0.021,0.0317,-1.0508,-0.366,0.122,-0.122,178.473,1.126,-0.016
349,-0.021,0.0322,-1.0488,-0.366,0.122,-0.122,178.467,1.126,-0.016
369,-0.0215,0.0298,-1.0518,0.122,0.0,-0.061,178.473,1.126,-0.016
379,-0.019,0.0317,-1.0498,-0.183,-0.061,0.0,178.467,1.126,-0.016
389,-0.0186,0.0278,-1.0503,-0.305,0.0,-0.061,178.462,1.126,-0.016
419,-0.0205,0.0283,-1.0508,0.305,-0.305,-0.061,178.473,1.132,-0.016
429,-0.02,0.0283,-1.0483,0.061,-0.488,0.0,178.473,1.132,-0.016
459,-0.021,0.0327,-1.0483,-0.061,-0.183,0.0,178.467,1.143,-0.016
478,-0.022,0.0308,-1.0503,0.061,-0.183,-0.061,178.467,1.143,-0.016
499,-0.02,0.0293,-1.0503,0.061,0.122,0.0,178.467,1.143,-0.016
518,-0.0225,0.0288,-1.0518,-0.061,0.0,0.0,178.467,1.143,-0.016
528,-0.022,0.0303,-1.0493,0.122,-0.183,0.0,178.467,1.148,-0.016
539,-0.0215,0.0259,-1.0503,0.427,-0.366,-0.061,178.473,1.148,-0.016
558,-0.0195,0.0298,-1.0488,0.427,-0.366,-0.061,178.478,1.154,-0.016
568,-0.0195,0.0298,-1.0488,0.061,0.061,0.0,178.478,1.154,-0.016
579,-0.0195,0.0283,-1.0469,0.122,0.183,0.061,178.478,1.148,-0.016
609,-0.019,0.0293,-1.0503,0.183,-0.183,0.0,178.484,1.154,-0.016
638,-0.0215,0.0269,-1.0498,0.122,0.061,0.0,178.484,1.154,-0.016
648,-0.02,0.0288,-1.0498,0.183,0.305,-0.061,178.484,1.148,-0.016
668,-0.02,0.0273,-1.0454,-0.305,0.732,-0.061,178.478,1.137,-0.016
678,-0.02,0.0273,-1.0454,0.061,0.427,-0.061,178.478,1.132,-0.016
688,-0.0215,0.0244,-1.0483,0.427,0.061,-0.183,178.484,1.132,-0.016
708,-0.0205,0.0317,-1.0459,-0.793,-0.305,-0.061,178.478,1.137,-0.016
718,-0.022,0.0337,-1.0488,-0.549,0.0,-0.061,178.467,1.137,-0.016
737,-0.0225,0.0313,-1.0532,0.549,0.366,0.0,178.478,1.137,-0.016
758,-0.0195,0.0283,-1.0498,0.183,-0.244,-0.061,178.484,1.143,-0.016
788,-0.0215,0.0303,-1.0508,-0.061,0.0,0.0,178.484,1.137,-0.016
798,-0.02,0.0298,-1.0513,0.244,0.244,-0.122,178.484,1.137,-0.016
817,-0.0215,0.0303,-1.0513,0.061,-0.061,-0.061,178.484,1.132,-0.016
827,-0.0215,0.0303,-1.0513,0.488,-0.183,-0.122,178.484,1.137,-0.016
847,-0.0195,0.0278,-1.0488,0.488,-0.183,-0.122,178.489,1.137,-0.016
867,-0.021,0.0264,-1.0503,0.244,0.183,-0.183,178.495,1.132,-0.016
897,-0.02,0.0303,-1.0493,0.305,0.122,-0.183,178.5,1.126,-0.016
907,-0.0195,0.0332,-1.0498,0.122,-0.122,-0.183,178.495,1.126,-0.016
927,-0.0186,0.0313,-1.0464,-0.061,-0.244,-0.183,178.495,1.132,-0.016
937,-0.0186,0.0313,-1.0464,-0.061,-0.366,-0.122,178.489,1.132,-0.016
947,-0.02,0.0288,-1.0493,0.122,-0.366,-0.122,178.489,1.137,-0.016
977,-0.0181,0.0303,-1.0498,0.0,-0.244,-0.183,178.484,1.143,-0.016
996,-0.02,0.0308,-1.0503,-0.061,0.061,-0.122,178.484,1.143,-0.016
1017,-0.0205,0.0322,-1.0503,0.061,-0.427,-0.244,178.484,1.148,-0.016
1047,-0.02,0.0327,-1.0493,0.488,0.305,-0.122,178.473,1.148,-0.016
1057,-0.022,0.0303,-1.0493,0.671,0.427,-0.122,178.478,1.143,-0.016
1087,-0.0205,0.0308,-1.0493,-0.61,0.305,0.0,178.467,1.137,-0.016
1107,-0.02,0.0293,-1.0503,0.427,-0.122,0.0,178.473,1.137,-0.016
1126,-0.0205,0.0298,-1.0508,-0.122,-0.183,0.061,178.462,1.143,-0.016
1156,-0.02,0.0273,-1.0503,0.122,0.0,0.061,178.467,1.148,-0.016
1166,-0.02,0.0327,-1.0498,-0.122,0.183,0.122,178.462,1.143,-0.016
1177,-0.0205,0.0313,-1.0498,-0.122,0.183,0.122,178.462,1.143,-0.016
1186,-0.0205,0.0288,-1.0508,0.244,-0.061,0.122,178.462,1.143,-0.016
1196,-0.0205,0.0288,-1.0508,0.122,-0.122,0.122,178.462,1.143,-0.016
1206,-0.02,0.0273,-1.0498,0.0,-0.244,0.122,178.462,1.143,-0.016
1216,-0.02,0.0273,-1.0498,0.0,-0.244,0.122,178.462,1.148,-0.016
1236,-0.02,0.0288,-1.0493,0.122,-0.061,0.061,178.467,1.148,-0.016
1256,-0.021,0.0308,-1.0479,0.061,-0.305,0.061,178.462,1.154,-0.016
1276,-0.0215,0.0288,-1.0488,0.244,-0.183,0.061,178.462,1.159,-0.016
1295,-0.0205,0.0288,-1.0518,0.305,-0.122,0.061,178.462,1.159,-0.016
1306,-0.0215,0.0303,-1.0498,0.305,-0.122,0.061,178.462,1.159,-0.016
1316,-0.0195,0.0317,-1.0498,-0.061,0.244,0.122,178.462,1.154,-0.016
1325,-0.0195,0.0298,-1.0474,-0.061,0.244,0.122,178.462,1.154,-0.016
1335,-0.0205,0.0269,-1.0508,0.305,-0.061,0.061,178.462,1.154,-0.016
1346,-0.021,0.0283,-1.0493,0.305,-0.061,0.061,178.467,1.154,-0.016
1365,-0.0215,0.0288,-1.0459,0.0,-0.366,0.061,178.467,1.159,-0.016
1386,-0.0215,0.0288,-1.0508,0.244,-0.183,0.0,178.467,1.165,-0.016
1415,-0.0205,0.0303,-1.0518,0.0,0.061,0.061,178.467,1.165,-0.016
1425,-0.0176,0.0273,-1.0527,-0.183,0.183,0.061,178.462,1.159,-0.016
1445,-0.0205,0.0322,-1.0503,-0.122,0.793,0.061,178.462,1.143,-0.016
1455,-0.0205,0.0322,-1.0503,-0.671,0.854,-0.061,178.456,1.137,-0.016
1465,-0.019,0.0313,-1.0464,0.122,0.122,-0.122,178.456,1.132,-0.016
1485,-0.0215,0.0327,-1.0483,0.366,-0.427,-0.183,178.456,1.143,-0.016
1495,-0.0205,0.0293,-1.0503,0.793,-1.221,-0.122,178.467,1.154,-0.016
1515,-0.02,0.0264,-1.0532,0.732,-1.099,-0.122,178.478,1.165,-0.016
1535,-0.021,0.0254,-1.0493,0.0,0.671,-0.183,178.478,1.154,-0.016
1565,-0.0229,0.0352,-1.0469,-1.831,0.0,-0.122,178.434,1.154,-0.016
1575,-0.0195,0.0322,-1.0479,-0.427,0.0,-0.061,178.429,1.154,-0.016
1594,-0.0225,0.0322,-1.0449,-1.892,1.038,-0.061,178.401,1.143,-0.016
1606,-0.0239,0.0356,-1.0498,-1.892,1.038,-0.061,178.374,1.143,-0.016
1615,-0.0239,0.0356,-1.0498,-3.296,0.0,0.122,178.341,1.143,-0.016
1624,-0.0239,0.0356,-1.0498,-3.296,0.0,0.122,178.314,1.137,-0.016
1645,-0.0195,0.0322,-1.0498,-2.136,0.671,0.122,178.264,1.115,-0.016
1674,-0.019,0.0366,-1.0464,-4.333,1.282,-0.244,178.138,1.071,-0.016
1685,-0.019,0.0371,-1.0513,-3.235,0.305,-0.122,178.105,1.071,-0.016
1704,-0.02,0.0391,-1.0449,-3.113,0.122,-0.916,178.039,1.06,-0.016
1714,-0.02,0.0391,-1.0449,-3.662,-0.305,0.0,178.0,1.066,-0.016
1725,-0.0186,0.0332,-1.0508,-4.211,1.404,-0.793,177.962,1.055,-0.016
1744,-0.02,0.04,-1.0513,-2.686,1.77,-1.465,177.896,1.022,0.022
1764,-0.0205,0.0278,-1.0591,4.883,-0.366,-0.671,177.957,1.016,0.038
1784,-0.02,-0.0112,-1.0425,13.55,-4.578,0.671,-179.379,1.071,0.082
1804,-0.1875,-0.1104,-1.1646,20.203,75.5,-69.397,-179.022,0.456,0.813
1824,-0.1611,0.2881,-0.9663,-23.682,131.104,-98.633,160.362,-1.571,3.884
1834,-0.5513,-0.2173,-0.772,-50.293,57.068,-32.959,-164.279,-1.631,4.384
1854,-0.0439,-0.1699,-1.1489,-46.509,-28.809,-94.604,-165.778,-1.631,6.564
1874,1.3828,0.377,-1.6567,-8.484,-90.698,-160.767,167.179,-0.538,9.135
1923,-0.7544,-0.2158,-0.981,7.324,99.854,52.368,161.131,-6.932,14.474
1944,0.3721,-0.0933,-1.3647,-15.076,53.833,-16.541,-176.089,-7.317,15.93
1963,-0.0317,0.2046,-0.999,-15.076,53.833,-16.541,169.074,-9.102,15.716
1973,0.0264,0.1484,-1.0005,11.353,66.345,-16.479,169.14,-9.723,16.007
1993,0.2393,-0.1416,-1.2192,41.443,44.922,-13.428,-172.974,-10.525,16.397
2003,0.2393,-0.1416,-1.2192,41.443,44.922,-13.428,-171.936,-11.228,16.447
2013,0.2393,-0.1416,-1.2192,156.494,67.261,-26.794,-170.409,-11.931,16.617
2033,0.2734,0.0757,-1.1172,171.204,33.508,-77.026,178.715,-12.744,17.902
2043,0.2734,0.0757,-1.1172,171.204,33.508,-77.026,179.973,-13.239,18.929
2053,0.2817,0.1069,-1.0088,139.099,66.406,-63.354,-178.786,-13.903,19.578
2073,0.3013,0.0181,-1.0176,131.287,66.833,-27.893,-177.462,-15.293,19.924
2093,0.0366,-0.0513,-0.7622,107.666,67.871,-29.175,-176.149,-16.749,20.451
2103,0.0366,-0.0513,-0.7622,107.666,67.871,-29.175,-175.292,-17.161,20.869
2113,0.0366,-0.0513,-0.7622,107.788,7.69,-39.307,-174.337,-17.271,21.275
2133,1.105,0.3833,-1.2314,107.849,53.833,-52.429,179.978,-17.715,22.335
2142,0.0586,0.0693,-0.8979,59.326,157.043,-19.409,-179.495,-19.281,22.538
2163,0.124,-0.2388,-0.9634,59.326,157.043,-19.409,-166.075,-21.693,22.181
2182,0.1357,-0.2349,-0.8799,5.066,86.487,-35.461,-166.025,-23.681,22.198
2192,0.397,-0.1372,-0.8066,5.066,86.487,-35.461,-166.113,-24.412,22.473
2213,0.52,-0.0269,-0.8232,16.235,33.997,-10.376,-165.938,-25.274,22.593
2222,0.52,-0.0269,-0.8232,16.235,33.997,-10.376,-165.959,-25.62,22.681
2232,0.6826,-0.1694,-0.959,16.235,33.997,-10.376,-166.053,-26.038,22.626
2243,0.6436,-0.0684,-0.999,-9.399,58.533,0.427,-166.08,-26.609,22.467
2262,0.5469,-0.1719,-0.9062,-22.095,74.707,19.714,-166.13,-27.933,21.775
2283,0.4678,-0.2305,-0.8223,-22.461,72.021,17.883,-166.19,-29.268,20.934
2312,0.5728,-0.1963,-0.8154,-17.883,55.115,11.414,-166.24,-30.806,19.99
2323,0.6685,-0.2031,-0.8433,-6.042,47.668,27.405,-166.075,-31.201,19.55
2362,0.4814,-0.2998,-0.5928,94.299,20.386,46.448,-163.24,-32.173,17.062
2372,0.4814,-0.2998,-0.5928,94.299,20.386,46.448,-162.175,-32.179,16.913
2392,0.6255,-0.126,-0.709,32.043,0.732,9.583,-169.92,-32.272,17.067
2422,0.4614,-0.2529,-0.7466,30.396,-5.859,55.481,-168.157,-32.239,15.172
2432,0.4126,-0.1807,-0.6333,0.549,37.964,28.748,-167.926,-32.552,14.749
2441,0.5083,-0.1602,-0.6807,0.549,37.964,28.748,-168.223,-32.783,14.716
2452,0.5083,-0.1602,-0.6807,0.549,37.964,28.748,-168.745,-32.953,14.656
2462,0.5083,-0.1602,-0.6807,-59.509,25.635,-11.353,-169.382,-33.223,14.733
2472,0.4077,-0.2666,-0.8784,-51.392,33.203,8.057,-169.805,-33.536,14.562
2491,0.4077,-0.2666,-0.8784,-28.564,19.409,21.24,-170.118,-33.948,13.958
2502,0.3975,-0.2388,-0.8071,-28.564,19.409,21.24,-170.244,-33.981,13.689
2521,0.4609,-0.2441,-0.8257,-26.062,0.183,23.987,-170.354,-33.887,13.052
2531,0.4609,-0.2441,-0.8257,-10.437,0.244,37.292,-170.211,-33.827,12.607
2542,0.4609,-0.2441,-0.8257,-10.437,0.244,37.292,-169.887,-33.766,12.025
2552,0.4609,-0.2441,-0.8257,7.751,7.996,51.88,-169.459,-33.755,11.393
2561,0.4609,-0.2441,-0.8257,12.207,15.564,47.974,-169.003,-33.821,10.789
2582,0.2749,-0.1895,-0.5659,-0.122,4.15,47.363,-168.234,-33.887,9.608
2602,0.3008,-0.3262,-0.7222,-23.926,-75.928,44.067,-168.168,-32.569,8.784
2622,0.3867,-0.2554,-0.8726,-22.156,-120.605,38.391,-168.431,-30.223,8.448
2641,0.4893,-0.3135,-1.0239,-21.179,-130.432,46.814,-168.646,-27.411,7.982
2651,0.4063,-0.2451,-1.0571,-21.179,-130.432,46.814,-168.695,-26.087,7.74
2661,0.3828,-0.3643,-1.0239,-14.16,-123.718,51.453,-168.629,-24.719,7.449
2681,0.3726,-0.2495,-0.918,-20.813,-113.22,45.227,-168.684,-22.203,7.009
2701,0.353,-0.3936,-1.061,-31.738,-104.37,34.668,-169.058,-19.869,6.641
2721,0.2544,-0.3027,-0.9312,-12.939,-75.806,-4.7,-169.283,-18.166,6.839
2731,0.2056,-0.2529,-0.8247,-14.038,-76.294,-17.029,-169.459,-17.408,7.163
2751,0.2056,-0.2529,-0.8247,-19.653,-102.234,1.953,-169.871,-15.474,7.663
2771,-0.0205,-0.1626,-0.9482,-1.648,-105.652,3.784,-170.013,-13.112,7.932
2780,-0.0205,-0.1626,-0.9482,-1.648,-105.652,3.784,-170.189,-11.887,8.086
2790,0.1372,-0.1846,-1.0518,-30.029,-117.31,17.456,-170.491,-10.668,8.113
2801,0.7334,-0.1953,-2.0352,-41.565,-98.999,27.039,-170.892,-9.651,8.009
2820,-0.0708,0.0283,-0.9512,-85.815,108.276,-51.697,178.292,-11.288,8.641
2830,0.2783,-0.4048,-0.874,-85.815,108.276,-51.697,-155.149,-12.003,9.261
2841,0.1196,-0.3745,-0.8325,-85.815,108.276,-51.697,-156.676,-12.991,9.476
2850,0.1196,-0.3745,-0.8325,-100.403,75.317,-74.463,-157.769,-13.975,9.871
2870,0.3306,-0.2119,-0.9775,-58.899,16.907,-91.125,-159.423,-15.123,11.299
2890,0.3979,-0.1489,-1.002,-39.246,37.354,-78.43,-160.329,-16.545,12.178
2900,0.2651,-0.1655,-0.9858,-33.203,79.102,-37.598,-160.686,-17.419,12.266
2910,0.2847,-0.1133,-0.9697,-36.255,79.163,-47.913,-161.109,-18.32,12.469
2930,0.2847,-0.1133,-0.9697,-36.255,79.163,-47.913,-161.922,-19.973,13.123
2940,0.4463,-0.0298,-0.978,-14.038,65.552,-49.805,-162.158,-20.748,13.409
2950,0.4775,0.0127,-0.978,-9.705,59.631,-35.034,179.253,-21.423,13.574
2970,0.4028,-0.0317,-0.9844,-11.902,47.546,-8.667,-178.297,-22.423,13.848
2990,0.3828,-0.0435,-1.0625,-12.939,56.641,-2.563,-178.572,-23.456,13.865
3030,0.4165,-0.0566,-0.9331,-12.817,83.435,-13.489,-179.006,-26.499,13.953
3060,0.4204,-0.2905,-1.313,-33.997,-32.532,-29.724,-162.356,-27.197,14.744
3100,0.4839,-0.002,-0.917,-41.626,-69.519,7.324,179.632,-25.159,15.732
3129,0.3994,0.021,-0.9546,-27.954,-3.784,22.888,178.407,-24.977,15.211
3140,0.3696,0.0874,-0.9595,-14.954,4.15,-15.503,178.182,-25.016,15.386
3149,0.3696,0.0874,-0.9595,-9.827,2.869,-29.114,177.946,-25.038,15.705
3159,0.3696,0.0874,-0.9595,-9.827,2.869,-29.114,177.819,-24.933,15.76
3169,0.439,0.0513,-0.9897,-9.827,2.869,-29.114,177.781,-24.802,15.677
3199,0.5103,0.0796,-0.9829,-13.123,-21.667,-9.644,177.687,-24.324,15.436
3209,0.4614,0.041,-0.9722,-18.372,-12.146,-14.16,177.44,-24.197,15.59
3249,0.4961,0.0464,-0.9321,-26.306,26.489,-4.7,176.451,-24.642,15.826
3279,0.3301,-0.0352,-0.8848,-27.588,30.884,-3.54,-177.72,-25.56,16.062
3309,0.3638,-0.0264,-0.8564,-21.423,28.259,-22.522,-178.61,-26.428,16.463
3319,0.3638,-0.0264,-0.8564,-17.639,27.527,-33.875,-178.951,-26.708,16.837
3329,0.4365,0.0093,-0.8882,-8.85,28.87,-41.87,179.401,-27.004,17.298
3359,0.5137,0.1562,-0.9111,-8.85,28.87,-41.87,178.846,-27.675,18.748
3369,0.52,0.1963,-0.9316,2.808,4.822,-29.297,178.61,-27.724,19.083
3378,0.52,0.1963,-0.9316,2.808,4.822,-29.297,178.401,-27.68,19.281
3389,0.52,0.1963,-0.9316,-8.423,-9.949,-10.864,178.193,-27.554,19.402
3399,0.4463,0.1465,-0.9521,-11.658,-12.329,-4.822,177.984,-27.405,19.451
3428,0.4385,0.1436,-0.9619,-14.587,-16.296,12.817,177.473,-26.911,19.21
3439,0.478,0.1602,-1.0078,-14.343,-18.372,21.729,177.38,-26.719,18.957
3468,0.3828,0.0991,-1.0,-18.066,-19.836,45.41,177.264,-25.983,17.611
3479,0.3901,0.0928,-0.9858,-28.259,-34.546,23.743,177.078,-25.609,17.331
3488,0.3901,0.0928,-0.9858,-28.32,-32.654,16.907,176.863,-25.236,17.122
3498,0.3901,0.0928,-0.9858,-28.32,-32.654,16.907,176.66,-24.917,16.935
3508,0.3652,0.1206,-0.9819,-28.32,-32.654,16.907,176.512,-24.681,16.683
3528,0.4019,0.1128,-0.9678,-18.921,-13.733,33.325,176.38,-24.39,15.958
3548,0.3994,0.0942,-0.937,-20.081,-16.541,23.193,176.188,-24.071,15.364
3588,0.3384,0.2026,-0.9219,-14.709,1.16,7.813,175.518,-23.67,14.623
3608,0.4019,0.125,-0.937,-14.099,11.414,8.423,175.243,-23.873,14.535
3618,0.4009,0.1206,-0.937,-15.015,15.625,6.836,175.089,-24.027,14.474
3628,0.3926,0.1196,-0.9355,-14.343,20.02,3.845,174.935,-24.214,14.453
3648,0.4126,0.1201,-0.9302,-14.343,20.02,3.845,174.65,-24.692,14.425
3658,0.4106,0.1235,-0.9297,-10.071,28.015,5.615,174.54,-24.966,14.392
3698,0.4248,0.1309,-0.9512,-7.507,17.456,-15.808,174.106,-25.9,14.529
3738,0.4546,0.1577,-0.96,-3.54,7.751,-18.311,173.419,-26.257,15.37
3757,0.4253,0.1479,-0.9629,-4.639,3.906,-13.794,173.139,-26.274,15.71
3767,0.4175,0.1504,-0.9629,-4.517,2.625,-11.902,173.018,-26.252,15.848
3787,0.4331,0.1523,-0.9624,1.404,-3.479,-7.507,172.864,-26.153,16.046
3807,0.459,0.1851,-0.9893,19.287,-22.278,1.465,173.117,-25.796,15.991
3847,0.3799,0.1279,-0.9639,34.119,-49.438,8.606,174.6,-23.945,15.447
3867,0.3384,0.1069,-0.9707,34.119,-49.438,8.606,175.204,-22.95,15.189
3887,0.3091,0.0981,-0.9429,12.451,-34.729,11.963,175.578,-22.126,14.897
3896,0.3091,0.0981,-0.9429,12.451,-34.729,11.963,175.737,-21.797,14.705
3907,0.3091,0.0981,-0.9429,12.451,-34.729,11.963,175.913,-21.495,14.48
3917,0.3369,0.0923,-0.9414,10.132,-26.917,22.156,176.094,-21.226,14.222
3927,0.3745,0.0854,-0.9775,8.301,-26.367,23.865,176.265,-20.978,13.947
3947,0.4019,0.0889,-1.0127,6.348,-27.161,20.264,176.545,-20.479,13.447
3957,0.3921,0.0889,-1.0034,6.348,-27.161,20.264,176.644,-20.275,13.25
3976,0.3682,0.1069,-1.0176,-5.676,-5.188,11.597,176.638,-20.089,12.953
3987,0.3682,0.1069,-1.0176,-10.071,4.578,9.338,176.539,-20.132,12.859
3997,0.3682,0.1069,-1.0176,-13.855,10.986,6.409,176.391,-20.226,12.799
4037,0.3706,0.0957,-1.0176,-7.69,7.935,4.883,175.869,-20.643,12.656
4056,0.3706,0.0957,-1.0176,-2.625,1.77,0.671,175.776,-20.682,12.618
4066,0.3691,0.1147,-1.0288,-2.625,1.77,0.671,175.71,-20.687,12.645
4097,0.3569,0.1064,-0.9746,-9.46,11.292,-4.395,175.325,-20.896,12.832
4106,0.3569,0.1064,-0.9746,-5.249,11.353,-1.282,175.254,-21.0,12.854
4126,0.3569,0.0957,-0.9771,-5.249,11.353,-1.282,175.347,-21.099,12.827
4146,0.3525,0.0889,-0.9692,13.733,-11.597,0.0,175.622,-20.912,12.799
4155,0.3525,0.0889,-0.9692,13.733,-11.597,0.0,175.71,-20.748,12.81
4166,0.3525,0.0889,-0.9692,13.733,-11.597,0.0,175.732,-20.583,12.832
4186,0.3599,0.0933,-0.9687,-7.141,-4.944,-3.174,175.605,-20.413,12.898
4195,0.3789,0.1094,-0.9663,-7.141,-4.944,-3.174,175.479,-20.429,12.903
4216,0.4043,0.1177,-0.9702,-7.141,-4.944,-3.174,175.199,-20.583,12.887
4235,0.3618,0.103,-0.959,-4.517,11.963,-0.061,175.051,-20.786,12.898
4256,0.3115,0.0918,-0.9302,-0.61,11.536,2.686,175.012,-20.978,12.881
4275,0.3115,0.0918,-0.9302,2.441,-0.366,2.93,175.056,-21.017,12.827
4296,0.3296,0.1147,-0.9316,5.554,-12.146,0.916,175.133,-20.803,12.772
4305,0.3296,0.1147,-0.9316,6.775,-14.771,-0.366,175.182,-20.632,12.766
4315,0.3062,0.1089,-0.9458,9.033,-16.724,-1.099,175.254,-20.435,12.761
4355,0.3223,0.0918,-0.9385,15.198,-23.437,2.808,175.809,-19.534,12.607
4365,0.375,0.0933,-0.9434,15.198,-23.437,2.808,175.946,-19.341,12.552
4405,0.3516,0.1138,-1.0229,-3.601,-4.272,6.287,176.056,-18.929,12.266
4425,0.3516,0.1138,-1.0229,-8.789,-17.578,4.456,175.908,-18.66,12.123
4445,0.3164,0.0605,-0.9644,-3.784,-18.921,3.845,175.836,-18.254,12.03
4465,0.2939,0.0903,-0.9985,-5.493,3.845,9.155,175.798,-18.204,11.86
4475,0.2939,0.0903,-0.9985,-11.169,10.925,9.155,175.693,-18.287,11.772
4494,0.2715,0.125,-1.0571,-16.113,7.568,4.7,175.369,-18.413,11.662
4505,0.3105,0.1226,-1.0303,-16.113,7.568,4.7,175.221,-18.408,11.646
4515,0.3345,0.1123,-1.0049,-16.113,7.568,4.7,175.111,-18.364,11.635
4534,0.3525,0.0942,-0.9468,-3.479,-1.526,1.892,175.007,-18.336,11.596
4564,0.2881,-0.1387,-0.9321,4.639,7.08,-4.089,168.668,-18.655,11.948
4574,0.2881,-0.1387,-0.9321,9.277,13.489,-9.216,168.761,-18.803,12.068
4614,0.3584,0.0811,-0.9238,-1.465,7.996,-0.977,169.003,-19.358,12.239
4624,0.3662,0.0903,-0.9399,-1.465,7.996,-0.977,169.03,-19.418,12.255
4654,0.3491,0.1025,-0.9561,-2.563,-3.357,4.333,169.102,-19.347,12.2
4664,0.3491,0.1025,-0.9561,-1.587,-4.883,8.911,169.162,-19.286,12.101
4694,0.3643,0.1172,-0.9526,0.549,-12.146,7.019,169.387,-19.061,11.744
4704,0.3643,0.1172,-0.9526,-1.099,-9.827,1.831,169.415,-18.995,11.706
4714,0.3643,0.1172,-0.9526,-1.099,-9.827,1.831,169.415,-18.94,11.722
4724,0.3643,0.1172,-0.9526,-4.883,-2.258,-6.104,169.393,-18.902,11.783
4753,0.2798,0.103,-0.9673,-4.639,2.625,-7.813,169.294,-18.842,12.036
4764,0.3345,0.1162,-0.9687,-4.639,2.625,-7.813,169.244,-18.831,12.129
4774,0.3618,0.1245,-0.9863,-4.639,2.625,-7.813,169.211,-18.836,12.195
4804,0.3667,0.1245,-1.0015,0.488,4.395,3.845,169.305,-18.968,12.162
4814,0.3667,0.1245,-1.0015,0.488,4.395,3.845,169.354,-19.017,12.134
4824,0.3525,0.1284,-0.999,0.488,4.395,3.845,169.409,-19.056,12.123
4854,0.3506,0.123,-0.9834,-1.587,5.371,-2.441,169.508,-19.188,12.184
4863,0.3506,0.123,-0.9834,-1.587,5.371,-2.441,169.497,-19.215,12.228
4873,0.3506,0.123,-0.9834,-4.333,1.77,-4.456,169.486,-19.226,12.283
4903,0.395,0.0996,-0.9463,1.526,-7.202,-5.249,169.623,-19.089,12.409
4943,0.2773,0.1162,-1.0278,8.789,-2.747,0.916,170.085,-18.809,12.426
4953,0.2759,0.1108,-1.0078,3.967,-0.793,2.563,170.173,-18.77,12.398
4963,0.3203,0.0903,-0.9487,3.967,-0.793,2.563,170.244,-18.754,12.382
4974,0.3623,0.0737,-0.8931,3.967,-0.793,2.563,170.332,-18.732,12.382
4983,0.3623,0.0737,-0.8931,3.967,-0.793,2.563,170.436,-18.688,12.387
5003,0.3623,0.0737,-0.8931,7.507,-2.808,-2.319,170.662,-18.6,12.42
5023,0.3623,0.0737,-0.8931,-0.244,7.08,-1.221,170.739,-18.6,12.464
5033,0.2876,0.1274,-1.0474,-0.244,7.08,-1.221,170.717,-18.649,12.491
5043,0.3354,0.123,-1.0151,-5.615,5.066,-3.052,170.673,-18.688,12.535
5063,0.3354,0.123,-1.0151,-1.77,-5.554,-5.981,170.64,-18.655,12.64
5073,0.3413,0.0894,-0.9336,-1.77,-5.554,-5.981,170.667,-18.589,12.689
5113,0.3091,0.146,-1.0562,-4.883,7.568,-1.282,170.458,-18.814,12.81
5153,0.3428,0.1289,-1.0254,4.578,-10.925,-3.296,170.447,-18.655,12.975
5172,0.3086,0.082,-0.9302,5.31,-6.958,2.686,170.673,-18.484,12.914
5193,0.3198,0.1309,-0.998,-0.061,-0.977,-0.427,170.761,-18.441,12.887
5212,0.3198,0.1309,-0.998,-5.249,1.892,-3.662,170.684,-18.424,12.958
5242,0.3442,0.1191,-1.0063,9.033,-7.813,3.418,170.865,-18.413,12.936
5262,0.3994,0.0815,-0.8735,15.869,-14.343,3.662,171.321,-18.259,12.838
5332,0.3047,0.1006,-0.9893,9.521,-16.907,-6.653,171.508,-17.93,13.403
5342,0.3584,0.0996,-0.8989,13.794,-16.418,-6.714,171.65,-17.798,13.447
5362,0.3584,0.0996,-0.8989,13.794,-16.418,-6.714,171.777,-17.715,13.524
5372,0.2275,0.1343,-1.125,-7.08,12.146,0.061,171.716,-17.77,13.541
5402,0.3369,0.1084,-0.9751,-2.258,-4.578,2.686,171.584,-17.798,13.48
5412,0.3623,0.1021,-0.937,1.892,-8.545,1.526,171.634,-17.748,13.447
5442,0.2573,0.0859,-0.979,1.77,-7.69,0.977,171.744,-17.688,13.376
5492,0.3911,0.1357,-1.0464,3.296,-7.263,-0.977,171.854,-17.869,13.31
5511,0.3911,0.1357,-1.0464,2.808,-13.733,0.061,171.964,-17.606,13.282
5561,0.3481,0.1191,-1.0356,-0.427,-4.7,1.221,172.332,-17.419,13.096
5581,0.3589,0.0747,-0.9199,5.066,-18.555,-1.526,172.436,-17.194,13.079
5631,0.2168,0.1167,-1.0547,3.235,-0.977,-0.488,173.183,-16.622,13.046
5671,0.3257,0.0674,-0.9326,5.798,-18.005,-3.845,173.139,-16.243,13.09
5730,0.2744,0.1221,-1.1313,-2.808,10.498,5.615,173.48,-16.463,13.063
5751,0.3159,0.0771,-0.9922,4.639,-10.376,0.244,173.584,-16.37,13.013
5781,0.1973,0.0781,-1.0029,-6.348,-2.563,0.183,173.65,-16.018,13.024
5821,0.3047,0.0918,-0.9683,-15.686,9.644,1.953,173.024,-16.512,12.909
5900,0.395,0.085,-0.9355,9.521,-17.883,-2.197,173.474,-16.326,12.733
5930,0.3003,0.0938,-0.9873,8.789,-4.211,-2.93,173.842,-16.013,12.81
5950,0.2104,0.1128,-1.0952,-7.141,15.015,4.578,173.793,-16.155,12.783
5970,0.3438,0.1118,-1.0176,-4.639,-3.113,1.099,173.666,-16.243,12.733
5989,0.3442,0.0615,-0.8857,3.54,-17.334,-2.869,173.826,-15.958,12.766
6010,0.2515,0.1089,-1.0181,7.08,2.38,-1.343,174.029,-15.837,12.805
6019,0.2515,0.1089,-1.0181,-5.371,19.043,0.732,173.969,-15.974,12.821
6029,0.2515,0.1089,-1.0181,-15.808,24.536,-0.671,173.793,-16.172,12.854
6040,0.2515,0.1089,-1.0181,-18.494,16.602,-4.822,173.589,-16.315,12.92
6050,0.334,0.0942,-0.9927,-14.404,0.427,-9.827,173.425,-16.331,13.024
6069,0.2598,0.0225,-0.8613,-14.404,0.427,-9.827,173.419,-16.128,13.151
6080,0.2495,0.043,-0.9028,6.104,-3.052,3.113,173.529,-16.095,13.118
6120,0.3584,0.1333,-1.0815,-0.305,5.432,5.554,173.644,-16.655,12.794
6139,0.3306,0.1226,-1.0679,-0.305,5.432,5.554,173.672,-16.447,12.832
6149,0.2148,0.0718,-0.9873,-2.991,-10.62,-5.859,173.65,-16.293,12.876
6159,0.2622,0.063,-0.9258,-4.883,-7.446,-2.563,173.622,-16.21,12.898
6179,0.3179,0.0859,-0.9346,6.348,1.099,2.319,173.738,-16.232,12.859
6189,0.3242,0.1113,-0.9878,6.348,1.099,2.319,173.809,-16.309,12.838
6229,0.2979,0.1001,-1.0488,-5.92,-6.409,-5.066,173.622,-16.447,12.964
6269,0.333,0.0898,-0.936,14.771,-7.019,0.305,174.084,-15.798,12.991
6288,0.3262,0.1367,-1.0601,14.771,-7.019,0.305,174.1,-16.035,12.964
6299,0.2407,0.1475,-1.1846,-11.841,18.738,4.944,173.979,-16.177,12.931
6339,0.2837,0.0254,-0.8774,-3.906,-18.738,1.77,173.853,-15.864,12.788
6358,0.2832,0.0415,-0.877,8.728,1.404,1.587,174.106,-15.787,12.755
6379,0.2617,0.1191,-1.0513,-3.357,13.794,2.014,174.078,-16.024,12.733
6419,0.271,0.0313,-0.8574,7.69,-22.827,-8.057,174.221,-15.48,12.925
6428,0.271,0.0313,-0.8574,7.69,-22.827,-8.057,174.282,-15.375,12.958
6438,0.271,0.0313,-0.8574,-4.944,9.277,1.892,174.238,-15.43,12.947
6448,0.271,0.0313,-0.8574,-4.944,9.277,1.892,174.117,-15.617,12.909
6478,0.3066,0.123,-1.062,-6.531,0.732,-1.16,173.771,-15.974,12.887
6488,0.3018,0.0811,-0.958,-2.258,-5.188,-2.197,173.76,-15.936,12.903
6508,0.2827,0.0747,-0.9541,-0.549,-3.296,-0.732,173.782,-15.936,12.887
6518,0.3276,0.1289,-1.0459,1.709,3.906,3.113,173.798,-15.991,12.859
6528,0.3276,0.1289,-1.0459,1.709,3.906,3.113,173.842,-16.013,12.854
6568,0.2808,0.0645,-0.9307,3.113,4.333,-3.662,174.117,-15.963,13.063
6598,0.2686,0.1172,-1.0098,-6.775,4.944,-1.526,174.029,-16.122,13.101
6608,0.2671,0.1392,-1.062,-10.132,4.578,-4.272,173.903,-16.144,13.151
6638,0.2651,0.1016,-1.0488,-8.301,-2.93,-2.014,173.518,-16.073,13.277
6648,0.3096,0.0723,-0.9536,2.075,-10.742,0.793,173.562,-15.991,13.255
6657,0.3096,0.0723,-0.9536,2.075,-10.742,0.793,173.738,-15.903,13.211
6678,0.3643,0.1055,-0.9595,20.874,1.221,3.235,174.188,-15.936,13.14
6718,0.231,0.123,-1.1372,-5.432,11.047,2.197,174.227,-16.144,13.09
6727,0.231,0.123,-1.1372,-10.742,-15.137,-0.61,174.139,-15.98,13.079
6737,0.231,0.123,-1.1372,-10.742,-19.897,-2.93,174.045,-15.804,13.09
6757,0.2905,0.0908,-0.9282,-10.437,-0.366,-5.371,173.831,-15.699,13.184
6787,0.2549,0.1294,-1.0996,-9.949,20.996,4.517,173.469,-16.194,13.206
6817,0.3506,0.0688,-0.9004,8.789,-6.714,-2.563,173.6,-16.293,13.206
6827,0.354,0.0723,-0.8989,7.813,-2.686,-3.723,173.683,-16.315,13.239
6897,0.3506,0.1069,-0.9893,1.831,-12.268,-4.089,173.688,-16.556,13.25
6907,0.3369,0.0742,-0.9302,3.418,-12.817,-5.31,173.727,-16.458,13.288
6916,0.3369,0.0742,-0.9302,2.869,-4.883,-3.662,173.76,-16.397,13.321
6937,0.2295,0.1162,-1.0522,-3.235,11.475,4.089,173.743,-16.485,13.288
6956,0.2822,0.1318,-1.0552,-2.93,3.845,0.854,173.672,-16.617,13.255
6966,0.2822,0.1318,-1.0552,-0.793,-1.282,-2.563,173.661,-16.644,13.282
6977,0.3662,0.0864,-0.9194,2.625,-5.005,-4.211,173.683,-16.639,13.321
7076,0.333,0.0703,-0.9048,4.089,5.249,0.977,173.54,-16.705,13.502
7116,0.3433,0.1484,-1.0996,0.916,11.108,5.188,173.578,-17.089,13.37
7126,0.3403,0.0977,-0.9609,0.916,11.108,5.188,173.589,-17.023,13.359
7166,0.2598,0.0449,-0.9155,-4.517,0.122,-1.221,173.551,-16.688,13.436
7175,0.313,0.1357,-1.0391,-4.517,0.122,-1.221,173.496,-16.738,13.436
7225,0.2974,0.0942,-0.9438,-0.671,-5.005,-7.263,173.589,-16.705,13.612
7236,0.2974,0.0942,-0.9438,-6.592,1.343,-6.104,173.507,-16.694,13.672
7265,0.2568,0.1533,-1.1216,-3.601,11.108,6.653,173.26,-16.886,13.64
7276,0.2568,0.1533,-1.1216,-3.601,11.108,6.653,173.276,-16.913,13.574
7316,0.3403,0.0806,-0.9395,3.906,-1.099,-0.183,173.524,-16.76,13.48
7335,0.3403,0.0806,-0.9395,3.906,-1.099,-0.183,173.491,-16.902,13.447
7345,0.2813,0.1406,-1.0928,3.906,-1.099,-0.183,173.48,-16.963,13.414
7355,0.3145,0.1318,-1.062,3.235,-3.296,2.136,173.513,-16.924,13.387
7385,0.3267,0.0688,-0.8862,9.766,-13.367,-0.183,173.815,-16.699,13.359
7415,0.2935,0.0874,-0.9478,-6.531,8.484,-1.038,173.716,-16.859,13.392
7425,0.2935,0.0874,-0.9478,-5.371,6.226,-2.686,173.639,-16.93,13.431
7445,0.353,0.1079,-0.9668,4.578,2.563,-4.578,173.65,-17.056,13.524
7485,0.2627,0.0962,-0.9604,1.282,2.258,-4.944,173.892,-17.073,13.711
7535,0.3481,0.1157,-0.9873,3.906,1.709,2.014,173.864,-16.935,13.881
7554,0.3481,0.1157,-0.9873,-5.432,3.906,4.028,173.815,-16.908,13.804
7575,0.3481,0.1157,-0.9873,-5.615,-4.944,2.441,173.688,-16.864,13.744
7585,0.3711,0.084,-0.9414,-0.793,-9.155,1.16,173.699,-16.82,13.722
7594,0.3711,0.084,-0.9414,-0.793,-9.155,1.16,173.765,-16.782,13.727
7615,0.2676,0.083,-0.9692,7.08,6.226,0.305,173.925,-16.826,13.749
7644,0.2314,0.1094,-1.0435,-3.296,10.254,5.066,173.941,-17.095,13.651
7674,0.3203,0.1387,-1.0742,-1.831,-15.015,-2.38,173.848,-16.897,13.629
7684,0.3203,0.1387,-1.0742,-1.343,-10.315,-1.526,173.848,-16.809,13.634
7704,0.2881,0.0996,-0.9644,-0.61,11.353,5.493,173.848,-16.924,13.568
7724,0.3525,0.1597,-1.104,3.967,8.667,4.822,173.881,-17.155,13.475
7744,0.3735,0.0898,-0.938,9.827,-6.958,-2.075,174.051,-17.155,13.475
7794,0.3008,0.0469,-0.8389,-6.348,9.033,1.16,174.128,-17.298,13.502
7823,0.2856,0.1567,-1.1377,5.493,-19.348,-5.066,174.144,-16.946,13.552
7834,0.2856,0.1567,-1.1377,5.92,-20.813,-5.676,174.216,-16.765,13.59
7853,0.3501,0.0415,-0.8213,9.277,-4.517,-4.211,174.397,-16.699,13.678
7874,0.3101,0.1445,-1.1084,2.441,14.343,-0.854,174.446,-16.924,13.733
7893,0.228,0.1245,-1.1416,-1.282,14.282,0.427,174.386,-17.034,13.738
7903,0.2354,0.0996,-1.0718,-1.282,14.282,0.427,174.37,-16.935,13.738
7914,0.2954,0.0723,-0.9619,-2.38,-15.686,-0.427,174.364,-16.782,13.727
7933,0.3345,0.0737,-0.9067,-1.038,-7.69,-0.427,174.375,-16.622,13.711
7943,0.3057,0.0864,-0.9487,-1.038,-7.69,-0.427,174.37,-16.644,13.711
7952,0.3057,0.0864,-0.9487,-1.038,-7.69,-0.427,174.342,-16.694,13.711
7963,0.3057,0.0864,-0.9487,-3.784,7.69,0.61,174.293,-16.727,13.711
7992,0.2329,0.127,-1.1025,-6.714,-7.813,0.61,174.1,-16.567,13.683
8032,0.3101,0.0698,-0.8862,2.136,-9.827,-1.221,174.15,-16.265,13.672
8043,0.3101,0.0698,-0.8862,1.892,5.493,-0.61,174.15,-16.342,13.683
8053,0.3252,0.1333,-1.0566,1.892,5.493,-0.61,174.144,-16.425,13.7
8072,0.2983,0.125,-1.0708,1.648,-1.709,-1.038,174.161,-16.436,13.716
8093,0.2686,0.0801,-0.9775,0.854,-9.399,-2.747,174.199,-16.265,13.749
8152,0.2461,0.0991,-1.0161,0.183,-0.427,-1.526,174.133,-16.21,13.815
8162,0.2461,0.0991,-1.0161,0.0,-0.977,-0.671,174.139,-16.177,13.821
8173,0.2676,0.0786,-0.9551,0.0,-0.977,-0.671,174.15,-16.172,13.81
8192,0.3403,0.1016,-0.9795,0.305,0.61,2.991,174.199,-16.243,13.738
8202,0.3252,0.104,-0.9985,0.305,0.61,2.991,174.249,-16.304,13.711
8222,0.2822,0.0962,-0.9995,5.493,6.165,2.014,174.38,-16.386,13.672
8242,0.207,0.0884,-1.0103,-1.953,-2.075,-0.916,174.397,-16.287,13.678
8251,0.207,0.0884,-1.0103,-5.31,-5.249,-1.648,174.342,-16.221,13.689
8291,0.3701,0.1172,-0.9844,3.906,-2.686,-4.395,174.243,-16.057,13.821
8302,0.3701,0.1172,-0.9844,3.906,-2.686,-4.395,174.26,-16.062,13.865
8312,0.3701,0.1172,-0.9844,0.671,4.639,-2.625,174.243,-16.073,13.898
8342,0.3164,0.0977,-0.9722,-5.493,-5.31,-0.122,174.067,-16.018,13.92
8352,0.3164,0.0977,-0.9722,-2.808,-5.737,1.16,174.045,-15.996,13.903
8371,0.3452,0.1289,-1.0283,-2.808,-5.737,1.16,174.034,-16.089,13.843
8411,0.207,0.0781,-1.0151,-6.287,-3.174,3.845,173.925,-16.15,13.7
8421,0.207,0.0781,-1.0151,-4.761,-8.362,2.869,173.908,-16.046,13.661
8441,0.3145,0.0835,-0.9277,0.488,-10.925,0.183,173.908,-15.914,13.618
8451,0.3657,0.1084,-0.9614,5.31,-11.047,1.404,173.969,-15.853,13.59
8461,0.3281,0.1089,-0.9712,5.31,-11.047,1.404,174.029,-15.793,13.618
8481,0.3281,0.1089,-0.9712,8.362,-4.211,-1.892,174.188,-15.623,13.678
8501,0.1992,0.0801,-0.9756,1.831,-3.296,-5.371,174.249,-15.507,13.771
8521,0.353,0.1211,-0.9932,0.671,-4.395,-4.15,174.216,-15.474,13.859
8550,0.2734,0.1001,-1.0146,1.892,3.662,1.038,174.26,-15.513,13.881
8561,0.2075,0.083,-1.0093,1.892,3.662,1.038,174.287,-15.513,13.876
8571,0.1821,0.082,-1.0039,1.892,3.662,1.038,174.304,-15.485,13.859
8581,0.2334,0.0977,-1.001,-2.502,1.16,2.625,174.287,-15.474,13.832
8601,0.3125,0.1196,-1.0083,-3.601,-0.61,1.648,174.199,-15.524,13.793
8611,0.3403,0.125,-1.0488,-3.601,-0.61,1.648,174.172,-15.535,13.782
8620,0.3403,0.125,-1.0488,-1.953,-3.601,-2.869,174.144,-15.491,13.81
8630,0.3403,0.125,-1.0488,-1.953,-3.601,-2.869,174.106,-15.359,13.865
8720,0.1929,0.0728,-0.9297,-4.211,-2.014,5.249,173.952,-15.051,14.178
8770,0.2754,0.1733,-1.2183,0.793,8.728,10.376,173.864,-15.282,13.815
8780,0.2754,0.1733,-1.2183,-0.427,2.93,8.972,173.886,-15.304,13.727
8790,0.2876,0.0986,-0.9653,-0.366,1.404,4.089,173.892,-15.331,13.689
8800,0.2778,0.0762,-0.8838,-1.099,-2.197,0.122,173.897,-15.331,13.683
8810,0.2778,0.0762,-0.8838,-1.099,-2.197,0.122,173.886,-15.304,13.711
8820,0.2778,0.0762,-0.8838,-1.099,-2.197,0.122,173.87,-15.244,13.771
8870,0.2617,0.1182,-1.002,-4.395,1.831,1.465,173.683,-15.062,13.975
8910,0.2769,0.1084,-1.0244,3.174,1.526,7.813,173.732,-15.161,13.749
8929,0.2769,0.1084,-1.0244,4.395,5.188,5.554,173.842,-15.309,13.623
8940,0.2612,0.1177,-1.022,4.395,5.188,5.554,173.886,-15.337,13.601
8980,0.2681,0.106,-0.9736,0.549,-5.127,-4.028,173.914,-15.112,13.711
9009,0.3071,0.1187,-0.9854,-0.977,-0.977,-0.122,173.815,-15.051,13.771
9029,0.2856,0.1382,-1.0874,0.732,0.061,0.549,173.831,-15.013,13.766
9039,0.2856,0.1382,-1.0874,2.014,-5.554,-3.113,173.842,-14.93,13.793
9049,0.2598,0.0991,-0.9795,2.014,-5.554,-3.113,173.831,-14.843,13.848
9069,0.2803,0.0981,-0.9624,-1.465,-6.775,-3.54,173.787,-14.711,13.931
9080,0.2642,0.1025,-0.9888,-1.16,-5.676,-0.488,173.776,-14.656,13.925
9089,0.2642,0.1025,-0.9888,-2.197,-6.531,0.0,173.765,-14.568,13.92
9109,0.2144,0.105,-1.0259,-3.479,-11.719,-6.348,173.688,-14.282,13.991
9129,0.2813,0.1377,-1.0898,-1.892,-3.662,-3.357,173.606,-14.139,14.084
9149,0.3257,0.1646,-1.1289,-1.892,-3.662,-3.357,173.655,-14.304,13.964
9188,0.2905,0.1221,-1.0625,-7.813,8.606,-4.639,173.496,-14.843,13.969
9218,0.1924,0.0566,-0.8862,-2.441,-12.878,-6.47,173.348,-14.623,14.139
9228,0.1924,0.0566,-0.8862,2.441,-13.0,-2.625,173.397,-14.442,14.156
9239,0.1587,0.0884,-0.9448,4.578,-10.742,3.113,173.463,-14.288,14.106
9258,0.1587,0.0884,-0.9448,4.578,-10.742,3.113,173.419,-14.062,13.98
9268,0.1587,0.0884,-0.9448,4.578,-10.742,3.113,173.315,-13.986,13.92
9279,0.2402,0.1431,-1.0786,-9.705,-2.258,6.653,173.227,-13.953,13.854
9298,0.2617,0.1211,-1.0225,-4.822,3.601,9.094,173.221,-14.095,13.672
9308,0.2485,0.1021,-0.9805,4.272,10.376,9.033,173.293,-14.205,13.59
9338,0.3032,0.0859,-0.8906,2.197,-0.732,-2.38,173.458,-14.431,13.535
9348,0.3296,0.0898,-0.8945,1.587,-4.089,-6.897,173.463,-14.442,13.601
9368,0.2422,0.1182,-1.0303,2.075,-3.296,-9.216,173.463,-14.409,13.777
9388,0.21,0.1685,-1.1782,-0.305,5.615,0.854,173.436,-14.425,13.81
9408,0.21,0.1685,-1.1782,-3.967,-2.136,2.258,173.353,-14.42,13.766
9428,0.3271,0.0986,-0.8872,1.465,-4.944,-1.465,173.342,-14.414,13.766
9448,0.3271,0.0986,-0.8872,2.808,8.301,0.488,173.397,-14.535,13.777
9458,0.2036,0.1426,-1.0854,-0.977,11.23,0.793,173.381,-14.606,13.782
9487,0.2969,0.104,-0.9453,-0.671,-7.935,-2.319,173.293,-14.59,13.81
9498,0.2954,0.0898,-0.9004,1.221,-9.46,-2.991,173.309,-14.529,13.826
9517,0.27,0.0923,-0.9126,-2.441,0.122,-3.113,173.298,-14.485,13.881
9527,0.2319,0.1123,-0.9927,-8.057,4.517,-2.441,173.216,-14.513,13.914
9538,0.2598,0.1123,-0.9854,-9.46,4.395,-0.793,173.117,-14.557,13.925
9557,0.2891,0.1133,-0.9722,-0.366,-0.244,0.732,173.062,-14.606,13.92
9567,0.2808,0.1436,-1.0591,-0.366,-0.244,0.732,173.084,-14.617,13.92
9578,0.2808,0.1436,-1.0591,2.869,2.747,-0.793,173.09,-14.623,13.931
9597,0.2808,0.1436,-1.0591,-1.831,3.967,-0.061,173.046,-14.606,13.953
9607,0.2017,0.1533,-1.1147,-4.028,2.625,1.953,173.002,-14.59,13.936
9637,0.2861,0.1084,-0.9243,-0.916,-13.0,-5.432,172.925,-14.359,13.958
9647,0.2837,0.1069,-0.9248,-0.244,-11.23,-8.484,172.908,-14.266,14.035
9677,0.2666,0.1274,-1.0278,2.258,3.967,-3.418,172.892,-14.244,14.255
9687,0.2729,0.1221,-1.0312,3.418,5.676,2.991,172.936,-14.31,14.233
9707,0.2222,0.1025,-1.0322,3.113,6.653,7.874,173.04,-14.442,14.057
9717,0.2031,0.1069,-1.0376,-3.662,7.874,11.414,173.04,-14.502,13.947
9747,0.2339,0.1357,-1.063,-11.902,-2.319,3.845,172.776,-14.48,13.755
9757,0.2852,0.1445,-1.0371,-8.118,-4.395,3.174,172.7,-14.447,13.716
9786,0.2231,0.1021,-0.9321,9.766,-13.062,-7.385,172.853,-14.244,13.749
9797,0.2856,0.1162,-0.9209,10.01,-11.169,-10.62,172.93,-14.15,13.843
9816,0.2583,0.1274,-0.9468,3.906,3.113,-8.545,173.007,-14.134,14.024
9826,0.2339,0.1216,-0.9995,-2.808,-2.991,-8.85,172.963,-14.079,14.112
9846,0.2539,0.1226,-0.9775,-2.014,-8.057,-7.568,172.853,-13.98,14.266
9856,0.2539,0.1226,-0.9775,2.441,-4.15,-2.197,172.87,-14.002,14.282
9866,0.2949,0.1089,-0.9443,4.578,-1.038,-0.366,172.919,-14.024,14.288
9906,0.1875,0.1729,-1.1782,-5.005,2.625,3.174,172.853,-14.178,14.271
9946,0.2734,0.0991,-0.9136,3.357,-10.132,-0.61,172.93,-13.766,14.062
9966,0.2778,0.1216,-0.957,-0.977,4.944,-6.775,172.903,-13.821,14.183
9976,0.2588,0.1475,-1.0576,-3.723,8.362,-6.714,172.842,-13.892,14.26
9995,0.2686,0.1392,-1.0508,-3.723,8.362,-6.714,172.815,-14.002,14.321
10006,0.29,0.105,-0.9585,4.578,0.671,0.305,172.87,-14.035,14.315
10016,0.2734,0.105,-0.9399,4.578,0.671,0.305,172.925,-14.084,14.321
10035,0.2158,0.1353,-1.021,-3.784,7.08,-2.441,172.886,-14.183,14.37
10046,0.2158,0.1353,-1.021,-8.301,5.737,-4.517,172.782,-14.2,14.42
10056,0.2163,0.1597,-1.0757,-10.071,3.418,-5.249,172.656,-14.194,14.48
10065,0.2163,0.1597,-1.0757,-9.338,1.038,-3.479,172.551,-14.183,14.518
10076,0.2588,0.1265,-1.0098,-5.066,0.488,1.099,172.502,-14.194,14.507
10096,0.2983,0.1182,-0.9946,3.784,2.319,0.244,172.562,-14.282,14.48
10115,0.2983,0.1182,-0.9946,4.517,0.244,-5.676,172.612,-14.216,14.617
10125,0.1621,0.1455,-1.0605,-2.563,-3.357,-8.545,172.562,-14.117,14.7
10145,0.2124,0.1235,-1.0269,-2.563,-3.357,-8.545,172.271,-13.711,14.865
10155,0.2666,0.2007,-0.9336,-10.376,-21.545,-10.132,172.112,-13.508,14.936
10165,0.3457,0.064,-0.9058,-0.549,-26.855,-0.061,172.15,-13.315,14.903
10195,0.3403,0.106,-0.8828,-0.549,-26.855,-0.061,172.425,-13.288,15.222
10214,0.1895,0.1719,-1.0762,-7.385,-3.845,-4.395,172.288,-13.2,15.375
10225,0.1895,0.1719,-1.0762,-18.494,-23.01,6.287,172.073,-12.898,15.282
10235,0.1895,0.1719,-1.0762,-18.494,-23.01,6.287,171.826,-12.524,15.09
10245,0.1895,0.1719,-1.0762,-18.494,-23.01,6.287,171.694,-12.184,14.886
10265,0.312,0.1016,-0.8735,5.798,-3.845,6.592,171.793,-12.063,14.683
10275,0.312,0.1016,-0.8735,10.559,12.695,6.226,171.92,-12.277,14.639
10285,0.311,0.1235,-0.8916,11.78,19.897,7.629,172.046,-12.552,14.59
10315,0.1406,0.1816,-1.188,8.057,16.418,-2.075,172.354,-13.107,14.513
10334,0.1147,0.1919,-1.1924,8.545,-6.897,5.981,172.48,-12.991,14.458
10345,0.1987,0.1367,-0.9648,8.545,-6.897,5.981,172.612,-12.761,14.31
10355,0.2314,0.084,-0.8843,7.813,-30.579,13.611,172.749,-12.497,14.128
10374,0.2441,0.0513,-0.8823,7.813,-30.579,13.611,172.969,-12.025,14.002
10384,0.2441,0.0513,-0.8823,7.874,-14.465,-16.724,173.018,-11.865,14.156
10424,0.2061,0.104,-0.9946,8.484,0.732,-8.606,173.123,-11.585,14.771
10444,0.2085,0.0439,-0.915,8.484,0.732,-8.606,173.254,-11.223,14.985
10464,0.1592,0.145,-1.0,-13.733,-27.161,-19.836,173.002,-10.624,15.298
10484,0.1719,0.1904,-1.0386,-15.93,-23.071,-23.682,172.546,-10.085,15.705
10504,0.3047,0.0933,-1.0835,0.244,-12.878,-19.348,172.425,-9.789,16.078
10513,0.3047,0.0933,-1.0835,0.244,-12.878,-19.348,172.502,-9.816,16.194
10524,0.1626,0.1753,-1.1177,11.78,10.559,0.793,172.606,-9.904,16.199
10534,0.0649,0.2036,-1.1064,11.78,10.559,0.793,172.711,-10.031,16.128
10544,0.0063,0.2446,-1.1006,9.338,16.846,8.484,172.76,-10.107,16.068
10553,0.0542,0.2236,-1.0771,3.174,6.836,2.991,172.749,-10.107,16.046
10574,0.2783,0.0542,-0.9731,-2.319,-7.446,-4.15,172.705,-9.849,16.15
10593,0.3311,-0.0044,-0.9497,-2.319,-7.446,-4.15,-179.841,-9.333,16.315
10614,0.1455,0.1265,-0.9634,-5.737,-9.644,-12.146,175.974,-8.959,16.518
10633,0.0996,0.187,-1.0103,-12.39,2.38,-24.78,175.545,-8.904,16.985
10644,0.0996,0.187,-1.0103,-13.0,1.404,-23.682,175.32,-8.882,17.227
10663,0.188,0.1758,-1.125,-10.62,-2.319,-20.325,175.078,-8.839,17.534
10673,0.2783,0.1201,-1.0576,-10.62,-2.319,-20.325,175.139,-9.025,17.523
10683,0.2227,0.0933,-0.9844,15.625,24.17,14.465,175.309,-9.311,17.397
10694,0.2705,0.1802,-0.9888,15.747,28.198,9.888,175.419,-9.657,17.32
10723,0.1128,0.1792,-1.021,5.493,14.587,24.414,175.627,-10.459,16.699
10743,0.0381,0.0952,-0.9727,-8.606,-14.587,-2.319,175.518,-10.14,16.578
10763,0.1812,0.0742,-0.8945,-20.569,-20.874,-37.048,175.056,-9.673,17.122
10773,0.271,0.0674,-0.9199,-20.569,-20.874,-37.048,174.814,-9.476,17.518
10793,0.3467,0.1309,-1.0781,5.798,6.592,-18.555,174.705,-9.498,18.023
10803,0.2896,0.186,-1.1533,16.907,36.682,-2.869,174.82,-9.904,18.083
10813,0.2896,0.186,-1.1533,24.902,57.556,15.381,175.029,-10.459,17.985
10823,0.0308,0.2461,-1.2056,26.184,58.777,26.001,175.259,-10.97,17.77
10863,0.3101,0.0073,-0.9292,-1.892,-4.395,28.625,175.507,-11.25,16.611
10873,0.3867,-0.0068,-0.8979,4.883,-18.25,18.066,-179.561,-11.206,16.414
10892,0.2349,0.0757,-0.9517,4.883,-18.25,18.066,178.484,-11.332,16.243
10913,1.1504,0.5347,-1.4092,13.428,29.297,1.831,178.742,-11.821,16.26
10932,0.083,0.1138,-1.0737,13.428,29.297,1.831,173.947,-12.799,15.419
10943,0.3936,0.1479,-1.0342,13.428,29.297,1.831,173.886,-12.827,15.244
10972,0.2495,0.0352,-0.8193,4.395,9.949,-3.418,173.875,-12.969,15.145
10982,0.2495,0.0352,-0.8193,4.7,20.203,10.254,173.936,-13.178,15.062
10992,0.2495,0.0352,-0.8193,4.7,20.203,10.254,173.952,-13.409,15.062
11012,0.1738,0.1421,-1.144,4.7,20.203,10.254,173.881,-13.727,15.046
11032,0.21,0.1387,-1.1499,-6.409,-5.554,2.38,173.743,-13.711,15.018
11052,0.2515,0.0718,-0.894,-3.54,-8.179,5.188,173.721,-13.601,14.886
11073,0.2183,0.1445,-0.9404,-1.892,1.404,-0.61,173.71,-13.667,14.799
11092,0.1865,0.1655,-1.1426,-10.986,-4.822,-8.484,173.507,-13.557,14.925
11132,0.5781,0.2217,-1.0278,6.836,-1.221,14.404,173.474,-13.601,14.502
11151,0.5781,0.2217,-1.0278,6.165,4.211,1.404,173.677,-13.76,14.249
11162,0.1807,0.1499,-0.9878,2.625,0.671,-6.104,173.688,-13.76,14.315
11202,0.271,0.1191,-0.9844,-3.296,-28.381,-6.47,173.403,-12.947,14.546
11212,0.2856,0.0532,-0.9199,0.671,-27.466,-0.916,173.414,-12.673,14.524
11242,0.2002,0.1279,-1.0522,14.404,-10.315,-18.433,173.633,-12.145,14.843
11261,0.1899,0.1968,-1.1099,14.404,-10.315,-18.433,173.798,-11.821,15.101
11281,0.2241,0.1211,-1.0054,0.916,-26.855,-1.038,173.859,-11.299,15.073
11301,0.2031,0.1016,-1.0039,0.916,-26.855,-1.038,173.782,-10.953,15.117
11311,0.2017,0.1143,-1.0073,-1.831,-4.272,-5.554,173.754,-10.904,15.167
11331,0.21,0.1162,-1.0117,1.892,3.601,-2.747,173.771,-10.948,15.26
11341,0.2505,0.1045,-0.9824,1.892,3.601,-2.747,173.787,-10.992,15.227
11351,0.207,0.1104,-0.9922,0.732,7.141,8.423,173.809,-11.074,15.15
11381,0.0649,0.189,-1.0894,-2.136,-3.296,-3.967,173.826,-11.19,15.051
11391,0.0757,0.1841,-1.106,0.061,-9.644,-7.629,173.809,-11.085,15.117
11411,0.1958,0.1133,-1.0391,-3.052,-18.127,-14.221,173.732,-10.739,15.342
11421,0.1958,0.1133,-1.0391,-3.845,-20.569,-15.991,173.716,-10.563,15.48
11431,0.3091,0.0439,-0.9707,-2.563,-21.179,-18.066,173.699,-10.41,15.639
11441,0.4858,0.1187,-0.9819,-1.343,-12.451,1.648,173.683,-10.443,15.606
11450,0.4858,0.1187,-0.9819,-6.348,0.305,12.085,-175.946,-10.289,15.485
11461,0.4858,0.1187,-0.9819,-6.348,0.305,12.085,169.08,-10.338,15.612
11471,0.1553,0.1479,-1.0444,14.16,8.301,-0.427,169.244,-10.399,15.634
11490,0.0747,0.1743,-1.0669,9.094,-2.991,2.991,169.503,-10.316,15.601
11511,0.1616,0.126,-1.0122,6.104,-10.254,-7.446,169.667,-10.047,15.667
11520,0.1616,0.126,-1.0122,6.104,-10.254,-7.446,169.739,-9.948,15.749
11530,0.1616,0.126,-1.0122,6.104,-10.254,-7.446,169.827,-9.899,15.815
11541,0.3374,0.0229,-0.9336,2.136,-3.174,-3.357,169.931,-9.959,15.842
11551,0.5435,0.1064,-1.0132,8.057,34.546,39.062,170.107,-10.547,15.518
11560,0.5435,0.1064,-1.0132,10.437,71.716,49.683,-177.874,-11.179,15.145
11571,0.0039,0.1831,-1.0278,10.681,43.274,-6.409,169.898,-11.503,15.194
11581,0.0039,0.1831,-1.0278,7.935,28.198,-5.92,169.953,-11.695,15.304
11600,0.0068,0.1743,-1.1289,-5.615,-2.93,-16.052,169.871,-11.514,15.524
11620,0.3062,0.0581,-1.0254,-8.667,-11.597,-25.024,169.733,-11.266,15.974
11650,0.3799,0.0361,-0.9888,1.77,-1.221,-4.272,169.854,-11.228,16.32
11660,0.208,0.1709,-1.0156,-0.122,0.122,3.296,169.865,-11.234,16.287
11670,0.208,0.1709,-1.0156,-0.122,0.122,3.296,169.86,-11.217,16.194
11680,0.208,0.1709,-1.0156,-1.892,0.732,10.193,169.882,-11.195,16.095
11690,0.1665,0.1094,-1.0474,-1.892,0.732,10.193,169.942,-11.151,16.007
11730,0.2109,0.0488,-0.9116,3.601,-10.986,-5.371,170.283,-10.822,16.051
11749,0.1162,0.2217,-1.1562,-8.24,1.77,-18.738,170.068,-10.662,16.381
11770,0.2344,0.1338,-1.0796,2.502,-0.488,-8.667,170.03,-10.64,16.633
11810,0.2554,0.0293,-0.874,-3.418,-6.897,-3.845,178.077,-10.64,16.573
11829,0.1401,0.2187,-1.1709,-3.418,-6.897,-3.845,177.55,-10.789,16.677
11840,0.103,0.2578,-1.2681,-17.151,22.888,-3.601,177.281,-10.948,16.721
11869,0.0972,0.2314,-1.1758,7.568,-10.681,3.418,177.111,-10.893,16.705
11880,0.1914,0.0605,-0.9111,5.31,-18.25,-0.122,177.155,-10.723,16.694
11899,0.2793,-0.0029,-0.8218,-5.371,-18.188,-2.747,-179.819,-10.552,16.732
11909,0.2793,-0.0029,-0.8218,-5.371,-18.188,-2.747,-179.852,-10.558,16.749
11949,0.1196,0.269,-1.1401,8.728,6.104,17.029,175.144,-10.635,16.216
11959,-0.0073,0.3364,-1.2334,8.728,6.104,17.029,175.204,-10.492,16.15
11969,-0.0073,0.3364,-1.2334,8.728,6.104,17.029,175.375,-10.322,16.166
11979,0.2515,-0.1294,-0.9131,13.794,-20.325,-10.376,-171.931,-10.162,16.254
11999,0.3604,-0.1147,-0.8628,3.906,-5.493,-6.165,-171.942,-10.184,16.501
12009,0.3604,-0.1147,-0.8628,3.906,-5.493,-6.165,176.946,-10.355,16.43
12019,0.3604,-0.1147,-0.8628,3.906,-5.493,-6.165,176.962,-10.547,16.265
12029,0.1323,0.2661,-1.1006,3.906,-5.493,-6.165,176.946,-10.673,16.057
12048,0.0728,0.2778,-1.2026,3.906,-5.493,-6.165,176.88,-10.679,15.842
12078,0.0728,0.2778,-1.2026,5.371,-10.803,-12.085,-177.665,-10.344,16.117
12088,0.0728,0.2778,-1.2026,8.484,-9.888,-6.714,-177.578,-10.316,16.188
12099,0.2627,-0.0254,-0.8755,5.981,-1.648,1.526,-177.523,-10.366,16.172
12109,0.2271,0.0156,-0.9258,0.183,7.568,8.423,179.028,-10.47,16.084
12128,0.2271,0.0156,-0.9258,-12.146,14.587,11.108,178.737,-10.684,15.853
12139,0.0542,0.2407,-1.1357,-12.146,14.587,11.108,178.484,-10.701,15.809
12158,0.0781,0.228,-1.1318,-15.869,-0.732,-4.15,178.033,-10.459,15.991
12168,0.2158,0.0703,-1.0195,-1.404,-18.005,-17.639,177.968,-10.294,16.161
12208,0.2266,0.0757,-0.9814,0.366,-0.366,3.357,177.968,-10.212,16.232
12218,0.2266,0.0757,-0.9814,-0.183,6.836,8.057,177.913,-10.283,16.155
12238,0.1943,0.1582,-1.0537,-0.183,6.836,8.057,177.918,-10.272,16.073
12248,0.1943,0.1582,-1.0537,9.644,-4.639,-0.244,177.962,-10.223,16.073
12258,0.1558,0.1182,-0.9585,6.226,-4.028,-1.526,177.968,-10.173,16.089
12268,0.1558,0.1182,-0.9585,6.226,-4.028,-1.526,177.913,-10.162,16.106
12278,0.1558,0.1182,-0.9585,-10.986,6.042,-1.16,177.775,-10.212,16.122
12318,0.166,0.0283,-1.0122,-1.465,1.282,6.836,177.237,-10.404,16.002
12328,0.1948,0.1875,-1.1294,-1.465,1.282,6.836,177.292,-10.399,15.93
12368,0.189,0.1738,-1.0972,11.658,2.075,1.16,177.275,-10.519,15.947
12387,0.2354,0.0869,-1.0737,-0.977,-3.479,-0.916,177.122,-10.563,16.002
12408,0.2354,0.0869,-1.0737,22.888,-8.057,7.019,177.424,-10.492,15.886
12427,0.2354,0.0869,-1.0737,16.663,-2.747,9.155,177.77,-10.393,15.688
12448,0.0747,0.1118,-0.9473,-13.855,11.597,1.709,177.583,-10.437,15.623
12467,0.0742,0.1089,-1.0566,-30.579,12.512,-9.399,176.924,-10.563,15.76
12507,0.2271,0.0386,-1.0674,9.521,-4.578,-0.122,176.545,-10.508,16.166
12537,0.2153,0.1343,-0.9546,9.521,-4.578,-0.122,176.968,-11.255,15.656
12547,0.2153,0.1343,-0.9546,9.521,-4.578,-0.122,176.957,-11.486,15.441
12557,0.2153,0.1343,-0.9546,-6.653,16.357,15.625,176.825,-11.585,15.293
12568,0.2153,0.1343,-0.9546,-6.653,16.357,15.625,176.616,-11.536,15.238
12577,0.2153,0.1343,-0.9546,-6.653,16.357,15.625,176.424,-11.365,15.287
12597,0.1606,0.1167,-1.0854,1.282,-19.653,-16.113,176.254,-10.893,15.568
12617,0.1606,0.1167,-1.0854,1.282,-19.653,-16.113,176.391,-10.635,15.76
12637,0.2754,0.0703,-0.8984,1.221,-2.38,-1.343,176.473,-10.657,15.804
12657,0.2754,0.0703,-0.8984,-6.47,3.845,3.296,176.369,-10.822,15.771
12667,0.2607,0.1064,-1.0522,-6.47,3.845,3.296,176.314,-10.926,15.705
12686,0.104,0.2422,-1.1699,-6.47,3.845,3.296,176.204,-11.118,15.496
12707,0.104,0.2422,-1.1699,3.479,9.216,-1.892,176.116,-11.206,15.463
12726,0.1948,0.106,-1.0923,3.479,9.216,-1.892,176.21,-11.135,15.656
12747,0.3037,-0.0088,-0.9912,7.385,-8.972,0.732,177.995,-11.03,15.71
12756,0.3037,-0.0088,-0.9912,7.385,-8.972,0.732,178.006,-11.025,15.628
12766,0.3037,-0.0088,-0.9912,0.671,6.653,9.216,177.962,-11.041,15.54
12787,0.1377,0.1025,-1.0195,-3.601,5.066,-3.113,177.803,-11.091,15.535
12816,0.2271,0.0469,-0.9844,0.916,-3.052,-5.798,177.797,-11.096,15.667
12856,0.1084,0.1851,-1.0356,-5.005,1.404,-4.456,177.534,-11.179,15.507
12896,0.2368,0.1143,-0.9844,6.531,-7.874,1.038,177.451,-10.931,15.809
12916,0.2368,0.1143,-0.9844,2.991,0.244,4.089,177.413,-10.865,15.705
12966,0.2524,0.0361,-0.9775,-1.587,-11.78,-13.794,177.056,-10.432,16.188
12985,0.209,0.0645,-0.9629,-1.587,-11.78,-13.794,177.089,-10.58,16.155
13006,0.209,0.0645,-0.9629,-4.822,17.212,6.958,176.984,-10.904,16.035
13025,0.1597,0.2109,-1.1489,1.282,6.775,4.517,176.841,-11.052,15.936
13046,0.1914,0.1689,-1.0581,10.803,-6.836,-2.747,176.885,-10.942,15.947
13055,0.1914,0.1689,-1.0581,10.803,-6.836,-2.747,176.968,-10.86,16.002
13066,0.2217,0.0469,-0.9614,9.338,-7.324,-5.798,177.05,-10.805,16.057
13115,0.2046,0.1011,-1.0298,8.24,-5.493,3.967,177.198,-10.778,15.947
13135,0.1675,0.1196,-1.001,8.24,-5.493,3.967,177.259,-10.646,15.892
13155,0.1675,0.1196,-1.001,-5.188,4.578,-2.075,177.127,-10.657,15.914
13175,0.1675,0.1196,-1.001,-4.761,0.122,-3.845,176.995,-10.728,15.996
13205,0.2612,0.082,-1.0083,2.93,3.052,11.658,177.039,-10.827,15.815
13225,0.0522,0.2383,-1.1743,2.93,3.052,11.658,176.896,-10.794,15.65
13265,0.3188,-0.0537,-0.9224,4.761,-13.123,-21.667,-176.666,-10.41,16.227
13284,0.333,-0.0781,-0.8652,9.399,-3.479,5.859,-176.446,-10.421,16.254
13305,0.333,-0.0781,-0.8652,-2.136,31.921,28.992,179.242,-10.92,15.754
13314,0.333,-0.0781,-0.8652,-2.136,31.921,28.992,179.121,-11.206,15.463
13364,0.1289,0.2046,-1.1411,10.315,-32.898,-26.184,-172.414,-10.481,15.947
13385,0.2427,-0.0415,-0.8247,-0.671,8.118,2.075,-172.447,-10.569,16.068
13394,0.2427,-0.0415,-0.8247,-8.423,25.33,11.719,177.264,-10.8,15.919
13404,0.2427,-0.0415,-0.8247,-14.587,26.367,14.893,177.078,-11.014,15.782
13414,0.2427,-0.0415,-0.8247,-13.733,14.771,8.362,176.869,-11.091,15.699
13434,0.0591,0.2681,-1.271,-4.272,-18.127,-15.686,176.539,-10.739,15.886
13454,0.2466,0.1235,-1.168,11.169,-29.114,-22.4,-179.341,-10.25,16.315
13474,0.3706,-0.0903,-0.791,11.169,-29.114,-22.4,-178.94,-10.173,16.458
13514,0.002,0.3398,-1.2275,12.756,8.118,11.475,175.336,-11.003,15.672
13544,0.1055,0.126,-1.1084,12.756,8.118,11.475,175.1,-10.371,15.908
13564,0.2666,-0.084,-0.9253,17.517,-31.128,-32.837,-174.628,-9.943,16.507
13573,0.2666,-0.084,-0.9253,17.517,-31.128,-32.837,-174.463,-9.943,16.639
13583,0.2666,-0.084,-0.9253,8.423,4.883,5.859,-174.32,-10.151,16.578
13613,0.2036,0.1538,-1.0093,-9.216,36.438,36.194,171.178,-11.179,15.601
13623,-0.0601,0.3887,-1.3179,-10.498,29.663,26.062,171.041,-11.371,15.381
13634,-0.0601,0.355,-1.3594,-10.498,29.663,26.062,170.958,-11.327,15.342
13674,0.4131,-0.1729,-0.7715,8.85,-26.611,-30.945,-169.047,-10.536,16.161
13693,0.3931,-0.1396,-0.7051,8.179,18.066,24.841,-168.865,-10.887,15.804
13713,0.0225,0.2866,-1.1367,-17.09,30.334,28.259,170.233,-11.321,15.178
13733,-0.083,0.3511,-1.3867,-17.09,30.334,28.259,169.717,-11.25,15.112
13763,0.1455,0.0518,-1.168,9.827,-29.602,-38.696,-172.634,-10.344,15.958
13773,0.1455,0.0518,-1.168,9.827,-29.602,-38.696,-172.496,-10.267,16.271
13793,0.4917,-0.1724,-0.7378,10.132,5.737,13.367,-172.117,-10.607,16.232
13823,-0.0044,0.4111,-1.1885,-9.644,41.504,41.992,177.149,-11.667,15.095
13843,-0.1143,0.4507,-1.3081,-6.409,3.906,-3.357,176.715,-11.635,14.941
13882,0.3667,-0.1665,-0.9121,1.16,-11.719,-26.917,-176.506,-10.926,16.095
13903,0.2705,0.0181,-0.8696,1.16,-11.719,-26.917,178.808,-11.168,15.793
13922,0.2705,0.0181,-0.8696,-4.211,24.841,19.958,178.665,-11.497,15.32
13933,0.0044,0.292,-1.2217,-4.211,24.841,19.958,178.478,-11.541,15.271
13952,0.0317,0.2197,-1.2349,-3.418,-9.399,-27.039,178.176,-11.327,15.677
13973,0.3784,-0.1016,-0.9155,-3.418,-9.399,-27.039,-177.495,-11.118,16.139
13992,0.3276,-0.0327,-0.8447,11.353,-10.803,0.549,-177.182,-11.288,15.958
14002,0.1904,0.126,-0.9473,11.353,-10.803,0.549,172.419,-11.464,15.661
14022,0.0718,0.2358,-1.0752,-4.822,22.339,16.602,172.326,-11.821,15.287
14032,0.0718,0.2358,-1.0752,-4.822,22.339,16.602,172.216,-11.777,15.287
14042,0.1055,0.1592,-1.1514,-4.822,22.339,16.602,172.178,-11.58,15.43
14082,0.2476,-0.0171,-0.9082,5.249,-11.292,-10.315,-176.193,-11.19,15.925
14091,0.2476,-0.0171,-0.9082,5.249,-11.292,-10.315,176.627,-11.36,15.787
14102,0.1631,0.1714,-1.0771,5.249,-11.292,-10.315,176.55,-11.497,15.65
14131,0.1929,0.1597,-1.0732,8.789,-9.094,-4.944,176.572,-11.431,15.595
14142,0.2148,0.0283,-0.9619,7.507,-6.775,-7.263,176.649,-11.371,15.667
14152,0.2241,-0.0073,-0.9365,7.507,-6.775,-7.263,-179.55,-11.393,15.716
14192,0.2187,0.0571,-1.02,-8.911,9.521,13.672,176.583,-11.667,15.37
14211,0.1079,0.189,-1.1045,3.357,-3.906,-7.08,176.523,-11.519,15.408
14232,0.2012,-0.0195,-0.9912,-0.183,-7.629,-11.475,-178.868,-11.415,15.661
14251,0.1797,0.1089,-1.063,-3.906,-4.517,2.625,179.121,-11.272,15.677
14261,0.1797,0.1089,-1.063,-3.906,-4.517,2.625,179.061,-11.228,15.634
14291,0.1641,0.123,-1.0161,3.906,-3.418,-12.085,179.033,-11.025,15.793
14301,0.2036,-0.0249,-0.9824,0.0,0.488,-13.916,-178.544,-11.036,15.936
14321,0.2422,0.061,-1.0513,-6.47,0.0,-0.671,176.677,-11.096,16.035
14341,0.2153,0.1558,-1.1069,-0.916,-0.427,6.592,176.55,-11.091,15.914
14361,0.2026,0.1045,-1.0498,-0.916,-0.427,6.592,176.611,-11.124,15.842
14371,0.2227,0.041,-0.9766,9.094,-0.427,-0.427,176.71,-11.135,15.848
14390,0.2217,0.0557,-0.9517,7.324,-4.517,-0.549,176.797,-11.085,15.837
14401,0.1729,0.1021,-0.9678,0.244,2.747,3.113,176.776,-11.102,15.804
14411,0.1519,0.0737,-0.9966,0.244,2.747,3.113,176.754,-11.14,15.787
14430,0.1406,0.0259,-1.0327,-4.944,1.526,-0.549,176.704,-11.118,15.793
14451,0.0835,0.1108,-1.1255,-2.625,-5.859,-1.038,176.611,-10.915,15.804
14470,0.0723,0.1367,-1.1274,0.061,-11.108,-5.005,176.545,-10.525,15.974
14491,0.3374,-0.0205,-0.9287,2.014,-18.066,-24.536,-178.731,-10.239,16.425
14510,0.3755,-0.0591,-0.9019,-3.479,7.874,1.77,-178.775,-10.503,16.567
14550,-0.0034,0.2466,-1.1177,3.54,14.771,18.066,176.259,-11.321,15.579
14600,0.2212,-0.0322,-0.9995,-6.897,-10.925,-11.841,-178.226,-10.596,16.205
14620,0.2441,0.0703,-1.0024,-6.897,-10.925,-11.841,178.5,-10.453,16.265
14640,0.2266,0.0977,-0.9932,16.357,-27.1,0.549,178.687,-10.085,16.254
14649,0.2266,0.0977,-0.9932,16.357,-27.1,0.549,178.813,-9.833,16.221
14670,0.2637,0.0537,-1.0381,16.357,-27.1,0.549,178.918,-9.822,16.089
14689,0.2051,0.1235,-1.0874,0.977,1.099,15.991,178.857,-9.805,15.743
14710,0.0898,0.1611,-1.0815,5.066,-7.263,1.404,178.802,-9.608,15.606
14750,0.186,-0.0156,-0.9741,-1.831,-5.493,0.977,-178.489,-9.223,15.793
14779,0.1675,-0.0039,-0.9771,-1.038,1.953,6.775,178.132,-9.201,15.584
14790,0.1177,0.0928,-1.0088,-2.258,4.15,4.15,178.083,-9.218,15.546
14799,0.1177,0.0928,-1.0088,-2.258,4.15,4.15,178.022,-9.245,15.524
14809,0.1143,0.082,-1.0605,-3.479,3.906,0.732,177.968,-9.256,15.518
14819,0.1143,0.082,-1.0605,-3.113,1.282,-1.038,177.913,-9.245,15.529
14830,0.1392,0.0688,-1.0781,-3.113,1.282,-1.038,177.869,-9.218,15.562
14859,0.2095,0.082,-1.0571,-2.441,-2.93,0.305,177.748,-9.196,15.645
14899,0.1035,0.1499,-1.0449,3.418,-9.277,-3.662,177.627,-8.86,15.557
14939,0.2388,-0.0552,-0.9854,-7.629,4.639,1.648,-177.968,-8.921,15.886
14959,0.2017,0.1128,-1.0615,-5.31,10.254,11.353,178.654,-9.234,15.579
14969,0.1479,0.1504,-1.0981,-5.31,10.254,11.353,178.643,-9.388,15.392
14999,0.166,0.0352,-1.0288,1.221,11.475,4.333,178.682,-9.745,15.145
15009,0.1704,0.0332,-0.9937,0.183,11.658,5.432,178.682,-9.86,15.095
15028,0.1152,0.1694,-1.0894,-3.357,8.484,7.263,178.572,-9.998,14.952
15049,0.1479,0.1724,-1.1299,1.404,-5.249,-2.136,178.412,-9.904,14.941
15068,0.1479,0.1724,-1.1299,6.165,-11.597,-5.92,178.522,-9.712,15.051
15078,0.207,0.0254,-0.9219,11.047,-12.634,-0.061,178.627,-9.613,15.046
15108,0.0688,0.0952,-1.0293,-1.221,3.479,4.028,178.506,-9.553,14.952
15118,0.1016,0.0542,-1.0601,-12.573,5.127,-5.371,178.358,-9.558,15.007
15138,0.2461,-0.0063,-1.0518,-4.639,-3.052,-8.545,-179.61,-9.586,15.211
15148,0.2461,-0.0063,-1.0518,1.526,-2.197,-0.488,178.583,-9.602,15.216
15158,0.2236,0.0747,-1.0195,6.104,2.747,6.226,178.627,-9.662,15.15
15198,0.1309,0.1416,-1.1265,-4.211,1.16,-4.883,178.385,-9.756,15.002
15208,0.1309,0.1416,-1.1265,-2.991,-3.906,-9.399,178.297,-9.695,15.095
15218,0.1309,0.1416,-1.1265,-2.991,-3.906,-9.399,178.281,-9.597,15.211
15228,0.1309,0.1416,-1.1265,5.798,-13.672,-9.827,178.319,-9.465,15.304
15258,0.1763,0.0337,-0.9512,2.075,-1.16,-1.465,178.445,-9.283,15.425
15268,0.1904,0.0459,-0.9839,-2.625,4.578,0.488,178.407,-9.344,15.419
15298,0.1733,0.0894,-1.0234,-2.014,7.935,5.249,178.248,-9.608,15.32
15308,0.1743,0.0693,-0.9863,-0.916,7.751,4.944,178.22,-9.69,15.271
15327,0.1743,0.0693,-0.9863,-4.456,1.77,4.761,178.187,-9.8,15.183
15338,0.1792,0.0361,-0.9419,-8.789,5.31,6.348,178.105,-9.866,15.117
15348,0.1519,0.0752,-0.9937,-10.864,12.329,8.24,177.99,-9.976,15.04
15367,0.1519,0.0752,-0.9937,-10.864,12.329,8.24,177.671,-10.146,14.886
15377,0.0801,0.1816,-1.2437,-8.118,2.563,1.404,177.534,-10.102,14.87
15407,0.1748,0.0791,-1.1826,8.118,-11.536,-15.991,177.418,-9.717,15.161
15417,0.1748,0.0791,-1.1826,14.832,-18.372,-18.066,-179.945,-9.575,15.331
15437,0.3242,-0.0342,-0.96,17.944,-22.461,-14.16,-179.61,-9.355,15.546
15457,0.2002,0.0381,-0.9092,5.371,4.272,7.08,179.632,-9.426,15.458
15467,0.2002,0.0381,-0.9092,5.371,4.272,7.08,179.599,-9.525,15.353
15487,0.0938,0.1211,-1.0107,-0.183,13.794,10.315,179.511,-9.679,15.183
15497,0.1279,0.0972,-0.9751,5.859,1.526,2.625,179.522,-9.673,15.161
15507,0.1279,0.0972,-0.9751,5.859,1.526,2.625,179.539,-9.63,15.161
15517,0.1279,0.0972,-0.9751,-0.671,-3.479,-0.732,179.517,-9.602,15.167
15527,0.1367,0.0684,-0.939,-7.324,0.793,0.549,179.407,-9.597,15.161
15567,0.1846,0.0938,-1.1045,-6.836,-2.441,-8.545,178.726,-9.586,15.282
15607,0.2339,0.0474,-1.0537,-0.793,-0.793,3.052,178.665,-9.564,15.43
15666,-0.0083,0.2104,-1.0483,4.395,20.264,23.132,178.654,-10.239,14.496
15677,-0.0459,0.2061,-1.0767,-1.343,12.024,10.437,178.566,-10.234,14.392
15716,0.2437,-0.0376,-1.0513,1.526,-16.785,-24.475,-177.951,-9.673,14.996
15746,0.2427,-0.0356,-1.0498,1.526,-16.785,-24.475,178.896,-9.591,15.211
15776,0.2056,0.0977,-1.0605,0.671,6.409,-0.732,178.824,-9.838,15.161
15786,0.209,0.085,-1.0449,1.709,3.174,-2.075,178.802,-9.882,15.183
15816,0.1533,0.0679,-1.0078,7.08,-2.197,0.671,178.868,-9.844,15.2
15826,0.1313,0.0903,-1.001,6.958,-2.502,0.916,178.896,-9.794,15.189
15856,0.125,0.1201,-1.0063,1.404,-7.446,-3.906,178.808,-9.602,15.244
15866,0.1758,0.0508,-0.9893,1.221,-10.193,-5.676,178.792,-9.503,15.298
15896,0.1289,0.0796,-1.0449,-0.061,-10.803,-1.953,178.77,-9.135,15.414
15906,0.1094,0.1191,-1.0703,0.488,-6.104,-1.892,178.72,-9.042,15.43
15925,0.1997,0.0942,-1.061,4.211,-7.813,-8.118,178.682,-8.921,15.562
15936,0.2358,0.0259,-1.0273,4.761,-10.803,-7.935,178.715,-8.855,15.639
15955,0.2417,-0.0166,-0.9902,4.333,-1.221,1.343,-178.989,-8.849,15.667
15976,0.1187,0.0996,-1.0425,-2.747,11.169,8.179,178.017,-8.998,15.524
16015,0.2207,0.043,-1.0518,7.629,-7.446,-0.305,177.968,-9.119,15.441
16035,0.2207,0.043,-1.0518,7.385,-6.348,4.944,178.16,-8.976,15.37
16045,0.0884,0.0513,-0.9761,7.385,-6.348,4.944,178.193,-8.937,15.304
16055,0.0542,0.1069,-1.0244,-2.319,4.15,5.859,178.138,-8.921,15.244
16075,0.0664,0.1123,-1.1084,-5.005,-2.502,-6.287,177.929,-8.811,15.293
16085,0.1338,0.0845,-1.1138,-0.671,-11.23,-14.038,177.88,-8.674,15.43
16105,0.2441,-0.0425,-1.0181,-0.671,-11.23,-14.038,-177.61,-8.454,15.727
16144,0.1406,0.1094,-0.978,1.465,12.39,11.841,177.786,-8.712,15.535
16165,0.1069,0.1421,-1.0913,-4.7,5.981,3.662,177.616,-8.839,15.414
16184,0.1177,0.0737,-1.1064,-0.427,-6.348,-4.395,177.523,-8.69,15.463
16195,0.1177,0.0737,-1.1064,3.235,-7.69,-5.188,177.55,-8.597,15.513
16205,0.1733,0.0269,-1.0317,6.042,-8.606,-3.662,177.616,-8.52,15.546
16235,0.165,0.0928,-1.0107,2.563,0.0,2.258,177.72,-8.448,15.518
16275,0.1626,0.0073,-1.0186,-1.77,-0.977,1.404,177.682,-8.487,15.496
16294,0.0962,0.0977,-1.0713,-0.793,13.794,6.165,177.649,-8.619,15.397
16304,0.0962,0.0977,-1.0713,-0.793,13.794,6.165,177.616,-8.806,15.364
16314,0.1235,0.0327,-1.0532,-3.357,21.667,0.671,177.589,-8.998,15.364
16324,0.1235,0.0327,-1.0532,-3.357,21.667,0.671,-179.912,-9.135,15.392
16344,0.2329,0.0259,-0.998,-1.892,3.052,-0.793,178.511,-9.24,15.348
16374,0.04,0.2217,-1.1367,0.488,5.188,13.916,178.347,-9.245,15.007
16384,-0.0049,0.2275,-1.1904,-4.089,1.221,-4.456,178.204,-9.163,15.057
16404,0.0103,0.1904,-1.1758,-3.54,-4.272,-19.409,178.017,-8.899,15.59
16424,0.3906,-0.1816,-0.8784,8.423,-20.935,-26.367,-174.864,-8.751,16.238
16443,0.4761,-0.1914,-0.8149,7.019,3.906,15.747,-174.534,-9.036,16.155
16454,0.3579,-0.043,-0.8872,2.991,21.912,39.368,-174.463,-9.344,15.738
16473,-0.0151,0.355,-1.2085,2.991,21.912,39.368,171.035,-9.998,14.76
16483,-0.1309,0.4229,-1.3164,-2.319,28.137,30.457,170.969,-10.162,14.502
16494,-0.1309,0.4229,-1.3164,-2.319,28.137,30.457,170.903,-10.085,14.458
16523,-0.0786,0.2354,-1.27,6.531,-32.288,-37.048,-178.434,-9.009,15.348
16544,0.3716,-0.2017,-0.7246,9.644,-23.804,-6.47,-178.033,-8.679,15.705
16574,0.0508,0.2319,-1.0361,-13.123,27.527,28.442,176.292,-9.294,15.062
16603,-0.1069,0.3735,-1.2305,-12.268,-14.709,-21.912,175.397,-9.075,15.079
16633,0.4136,-0.2729,-0.7891,7.141,-15.076,-11.719,-175.408,-8.696,15.925
16643,0.4136,-0.2729,-0.7891,7.141,-15.076,-11.719,-175.325,-8.959,15.771
16673,-0.0571,0.3555,-1.3218,7.141,-15.076,-11.719,172.15,-9.641,14.985
16683,-0.0654,0.3237,-1.3599,-8.301,-4.089,-3.418,172.007,-9.47,15.013
16703,0.0063,0.1514,-1.2666,9.033,-22.888,-38.513,-174.688,-8.91,15.595
16723,0.0063,0.1514,-1.2666,13.184,-24.414,-15.686,-174.337,-8.707,16.139
16742,0.3462,-0.0557,-0.8022,13.916,15.625,30.151,-173.897,-9.097,15.76
16753,0.1577,0.1572,-0.9297,4.822,34.79,43.945,170.398,-9.393,15.276
16763,0.0098,0.292,-1.061,-2.38,40.71,40.1,170.37,-9.772,14.947
16793,-0.0327,0.1514,-1.2104,-5.676,-3.418,-16.174,170.068,-9.767,14.886
16812,0.2012,-0.0654,-1.0635,6.287,-30.579,-27.466,-176.396,-9.338,15.452
16822,0.2012,-0.0654,-1.0635,6.287,-30.579,-27.466,-176.281,-9.218,15.59
16833,0.2783,-0.0649,-0.8843,6.287,-30.579,-27.466,-176.232,-9.261,15.535
16842,0.2783,-0.0649,-0.8843,6.287,-30.579,-27.466,174.084,-9.437,15.331
16873,0.0747,0.1724,-1.2153,-8.179,18.433,11.902,173.826,-9.75,15.062
16892,0.0747,0.1724,-1.2153,-8.179,18.433,11.902,-176.375,-9.443,15.337
16902,0.1938,-0.0732,-1.0024,6.409,-14.16,-12.085,-176.325,-9.322,15.463
16922,0.1631,-0.0186,-1.0059,-1.221,4.578,1.587,176.644,-9.316,15.491
16932,0.1631,-0.0186,-1.0059,-1.221,4.578,1.587,176.567,-9.344,15.463
16942,0.1738,0.1392,-1.0684,-3.113,-0.671,-0.549,176.495,-9.333,15.469
17022,0.1431,0.1226,-1.104,0.366,0.061,-3.662,176.391,-9.316,15.639
17041,0.1431,0.1226,-1.104,5.615,-16.296,-7.507,176.484,-9.075,15.765
17071,0.1558,0.0337,-0.9844,-3.296,-3.723,-1.099,178.039,-8.789,15.886
17092,0.1396,0.104,-1.1255,-5.188,2.747,0.122,177.869,-8.811,15.875
17132,0.1514,0.0151,-0.9653,7.446,-8.057,-2.93,178.028,-8.487,15.963
17151,0.188,0.0015,-0.9331,-1.953,0.488,0.793,178.072,-8.509,15.974
17161,0.1929,0.0371,-0.9697,-5.371,5.127,3.845,178.022,-8.586,15.936
17181,0.1909,0.0718,-1.0112,-4.944,10.193,6.409,177.929,-8.822,15.787
17191,0.1909,0.0718,-1.0112,5.493,7.935,11.23,177.946,-8.888,15.677
17201,0.0806,0.105,-1.0586,8.057,3.174,9.399,178.006,-8.877,15.579
17221,0.0728,0.0547,-1.0396,3.479,0.854,-0.549,178.121,-8.789,15.546
17241,0.0562,0.0435,-1.1982,-9.521,5.676,-5.249,177.984,-8.778,15.634
17261,0.0938,0.0415,-1.2563,-2.441,-5.981,-10.925,177.841,-8.674,15.831
17281,0.189,0.0415,-1.1558,16.907,-25.94,-8.179,178.072,-8.24,15.996
17301,0.189,0.0415,-1.1558,20.63,-20.691,-8.728,178.396,-7.767,16.144
17311,0.1699,0.042,-0.9858,18.188,-11.78,-12.207,178.55,-7.668,16.26
17330,0.2104,-0.02,-0.9116,14.343,-4.944,-11.536,-178.632,-7.729,16.441
17341,0.2256,-0.0396,-0.8613,6.226,1.282,1.099,-178.555,-7.811,16.43
17351,0.2056,-0.02,-0.8525,6.226,1.282,1.099,-178.5,-7.91,16.348
17380,0.1968,0.042,-0.8521,6.226,1.282,1.099,177.171,-8.267,15.875
17391,-0.021,0.1279,-1.019,-6.104,14.038,13.794,177.083,-8.317,15.743
17431,0.1226,-0.021,-1.0132,0.122,-22.461,-18.616,-178.808,-7.817,15.919
17440,0.1948,-0.085,-0.9951,0.122,-22.461,-18.616,-178.813,-7.608,16.15
17450,0.1948,-0.085,-0.9951,0.122,-22.461,-18.616,-178.835,-7.52,16.364
17460,0.2881,-0.0952,-1.0664,-8.362,0.061,-11.23,-178.89,-7.597,16.474
17500,0.1177,0.2832,-1.3066,6.165,21.24,23.499,179.143,-8.663,15.853
17520,0.0703,0.1953,-1.1694,6.165,21.24,23.499,179.297,-8.509,15.694
17540,0.0947,-0.0693,-0.9292,10.986,-23.804,-14.954,-175.732,-7.982,15.936
17560,0.0947,-0.0693,-0.9292,-3.235,-4.089,-3.845,-175.693,-7.773,16.117
17570,0.0947,-0.0693,-0.9292,-3.235,-4.089,-3.845,-175.721,-7.734,16.051
17580,0.0381,0.0063,-0.8594,-5.554,-2.258,10.376,179.572,-7.652,15.947
17589,0.0381,0.0063,-0.8594,-6.409,-4.761,2.991,179.489,-7.553,15.914
17600,0.0381,0.0063,-0.8594,-7.874,-6.958,-9.583,179.379,-7.449,16.013
17610,0.0381,0.0063,-0.8594,-8.545,-7.141,-19.104,179.247,-7.366,16.205
17640,0.23,0.0933,-1.1367,-5.371,-2.258,-20.508,178.978,-7.46,16.738
17650,0.2505,0.0225,-1.0923,7.751,11.23,-4.089,179.05,-7.625,16.782
17669,0.2808,-0.002,-1.0298,7.751,11.23,-4.089,-179.736,-8.036,16.672
17679,0.2798,-0.02,-0.9297,11.169,7.996,14.16,-179.594,-8.201,16.529
17690,0.1963,0.0308,-0.958,4.944,6.042,18.372,178.16,-8.295,16.342
17699,0.1963,0.0308,-0.958,4.944,6.042,18.372,178.116,-8.317,16.155
17719,-0.042,0.1396,-1.186,4.944,6.042,18.372,177.863,-8.229,15.991
17730,-0.0117,0.0767,-1.1626,-8.789,0.427,-1.953,177.759,-8.146,16.007
17749,0.1055,-0.0049,-1.0552,-3.113,-10.803,-9.949,-179.731,-7.894,16.177
17759,0.1343,-0.0059,-1.0234,-2.136,-11.23,-10.315,-179.769,-7.778,16.282
17799,0.2217,-0.0449,-0.9897,-3.845,-1.465,-11.23,-179.28,-7.635,16.743
17839,0.1577,0.0908,-1.0073,4.456,14.771,11.353,179.769,-8.141,16.578
17859,0.1016,0.1016,-1.085,-2.197,11.353,6.897,179.676,-8.344,16.397
17869,0.1016,0.1016,-1.085,-2.197,11.353,6.897,179.61,-8.372,16.359
17888,0.1489,0.0693,-1.0566,-1.648,-3.235,3.296,179.561,-8.267,16.282
17899,0.1338,0.0596,-0.9502,3.845,-7.324,4.639,179.577,-8.196,16.232
17909,0.1128,0.0581,-0.9604,0.793,-5.554,3.113,179.561,-8.124,16.199
17949,0.1147,-0.0161,-1.1133,-15.076,-2.136,-7.08,179.951,-7.883,16.342
17989,0.1333,0.0869,-1.1533,-2.991,2.747,-2.991,179.764,-7.899,16.507
17998,0.1333,0.0869,-1.1533,-2.991,2.747,-2.991,179.714,-7.894,16.573
18008,0.1333,0.0869,-1.1533,3.052,0.305,-6.409,179.714,-7.932,16.639
18018,0.2715,-0.0049,-1.0986,9.216,2.502,-2.136,-179.742,-8.015,16.661
18038,0.2734,0.0098,-1.0347,9.216,2.502,-2.136,179.604,-8.218,16.479
18049,0.2734,0.0098,-1.0347,13.367,7.019,14.282,179.687,-8.267,16.337
18058,0.04,0.1318,-0.9644,5.371,3.662,8.728,179.681,-8.245,16.249
18088,0.0933,-0.0093,-1.0083,-9.216,-7.751,-9.644,-179.473,-7.949,16.403
18098,0.1479,-0.041,-0.9937,-4.272,-8.179,-7.568,-179.506,-7.877,16.479
18118,0.1328,-0.0005,-0.9731,4.272,-6.287,2.625,177.314,-7.723,16.469
18128,0.0718,0.083,-0.9346,4.272,-6.287,2.625,177.319,-7.63,16.447
18158,0.1665,0.0078,-0.978,-10.864,-9.766,-16.418,177.061,-7.317,16.776
18168,0.2129,-0.043,-0.9863,-9.888,-5.127,-13.489,-177.501,-7.311,16.913
18187,0.2256,-0.0532,-0.9814,-5.859,9.949,5.127,-177.638,-7.531,16.897
18208,0.0684,0.1597,-1.1401,-12.085,18.005,14.893,177.226,-7.833,16.628
18238,0.1069,0.1958,-1.2793,-7.813,-2.319,-5.554,176.704,-7.91,16.589
18257,0.1587,0.0825,-1.209,-0.244,-7.874,-9.521,-179.945,-7.712,16.771
18267,0.1587,0.0825,-1.209,-0.244,-7.874,-9.521,-179.852,-7.603,16.842
18277,0.1431,0.0005,-0.9839,9.766,-8.606,-4.822,179.967,-7.526,16.891
18297,0.1128,-0.0137,-0.98,9.766,-8.606,-4.822,-179.22,-7.416,16.963
18307,0.1245,-0.0239,-1.0132,-2.808,-2.93,-3.296,-179.247,-7.383,16.996
18317,0.1592,-0.0376,-0.9971,1.099,-2.258,-1.465,-179.22,-7.377,17.012
18337,0.1821,-0.0298,-0.9663,6.897,-0.488,2.869,178.896,-7.46,16.897
18357,0.0405,0.1895,-1.0278,4.7,7.996,12.268,178.901,-7.548,16.644
18377,0.0293,0.1782,-1.0664,-5.005,-3.357,-4.089,178.693,-7.438,16.639
18387,0.0293,0.1782,-1.0664,-5.798,-10.01,-12.085,178.588,-7.3,16.754
18406,0.1738,0.0039,-1.0464,3.479,-16.235,-12.024,-178.901,-7.081,17.034
18417,0.1738,0.0039,-1.0464,3.479,-16.235,-12.024,-178.857,-7.004,17.078
18427,0.1704,0.04,-0.9116,4.456,-7.202,2.258,177.484,-6.965,17.056
18467,0.0938,0.0742,-1.1157,-14.587,3.723,-4.15,177.039,-7.064,17.04
18486,0.1187,0.0527,-1.1123,-4.272,2.93,-4.883,176.891,-7.119,17.15
18497,0.1187,0.0527,-1.1123,0.366,2.319,-1.282,176.913,-7.158,17.166
18516,0.1558,0.0405,-1.0771,2.075,3.662,2.502,176.957,-7.273,17.1
18526,0.1558,0.0405,-1.0771,0.122,8.972,4.333,176.951,-7.35,17.062
18537,0.1094,0.0938,-1.1411,-0.183,8.423,2.625,176.935,-7.416,17.04
18547,0.1094,0.0938,-1.1411,1.77,4.089,0.977,176.94,-7.438,17.034
18576,0.0776,0.0542,-1.043,6.104,-13.672,-5.066,177.094,-7.108,17.1
18596,0.0962,0.0298,-1.0044,6.104,-13.672,-5.066,-179.028,-6.817,17.265
18616,0.0962,0.0298,-1.0044,1.16,-9.338,-7.324,179.149,-6.702,17.369
18636,0.0962,0.0298,-1.0044,2.075,-3.784,-1.343,179.11,-6.647,17.397
18646,0.1196,0.106,-0.9937,-0.305,-6.592,-3.174,179.05,-6.581,17.424
18656,0.1401,0.0903,-1.0029,-1.587,-5.737,-5.371,178.989,-6.537,17.479
18676,0.1401,0.0903,-1.0029,1.343,-1.465,-2.319,178.962,-6.553,17.556
18686,0.1699,0.0322,-1.0337,3.601,0.366,2.014,178.989,-6.586,17.54
18726,0.1216,0.0693,-1.0923,0.183,1.831,3.54,178.995,-6.724,17.358
18766,0.0386,0.0532,-1.1284,3.601,-6.226,-2.258,178.978,-6.487,17.292
18796,0.1675,-0.0273,-1.0327,3.906,-4.639,-4.211,-176.847,-6.317,17.474
18815,0.1611,0.0352,-1.0176,8.423,5.554,4.822,178.088,-6.422,17.413
18836,0.0845,0.0991,-0.9912,7.263,-0.671,3.601,178.182,-6.432,17.32
18875,0.1108,-0.0049,-0.9214,-4.761,4.211,2.563,-177.523,-6.432,17.342
18885,0.1108,-0.0049,-0.9214,-7.813,8.179,5.981,176.907,-6.482,17.281
18895,0.0186,0.1089,-1.0913,-9.033,6.714,5.92,176.803,-6.498,17.221
18935,0.0083,0.1362,-1.1851,-8.362,-3.723,-5.859,176.424,-6.147,17.584
18945,0.2129,-0.0078,-1.0811,-0.977,-11.658,-17.09,-179.583,-6.07,17.748
18975,0.1787,0.0542,-1.0034,8.911,-1.953,3.113,179.912,-6.004,17.853
18985,0.1426,0.0796,-1.0024,10.559,3.296,5.859,179.978,-6.059,17.792
19005,0.0991,0.0386,-1.0054,10.559,3.296,5.859,-179.918,-6.174,17.71
19015,0.0991,0.0386,-1.0054,10.559,3.296,5.859,-179.907,-6.229,17.688
19025,0.106,0.0474,-1.0093,0.366,5.554,2.441,-179.929,-6.284,17.666
19045,0.1021,0.1206,-1.043,-1.77,1.465,6.165,179.94,-6.323,17.556
19055,0.0947,0.1162,-1.0518,-1.77,1.465,6.165,179.874,-6.301,17.512
19065,0.0776,0.0981,-1.0439,0.793,-2.991,1.709,179.83,-6.251,17.49
19074,0.0776,0.0981,-1.0439,0.793,-2.991,1.709,179.802,-6.207,17.512
19084,0.0884,0.0156,-1.0259,-1.465,-0.916,-4.944,179.775,-6.185,17.562
19095,0.105,-0.0039,-1.04,-3.418,-1.465,-5.798,-179.78,-6.163,17.622
19114,0.1069,0.0703,-1.085,-3.174,-1.343,-2.563,178.753,-6.119,17.693
19124,0.1069,0.0703,-1.085,-0.671,-0.122,-1.404,178.726,-6.114,17.704
19135,0.1196,0.0449,-1.1094,1.892,-0.793,-0.427,178.737,-6.108,17.71
19145,0.1299,0.022,-1.0884,1.892,-0.793,-0.427,178.77,-6.092,17.704
19154,0.1299,0.022,-1.0884,4.15,-2.563,0.488,-179.198,-6.081,17.699
19194,0.0571,0.1055,-1.0625,-2.625,8.24,3.784,179.105,-6.213,17.562
19204,0.0571,0.1055,-1.0625,-2.625,8.24,3.784,179.022,-6.24,17.562
19224,0.1406,-0.0034,-1.0601,-0.244,-5.127,-4.272,-179.813,-6.185,17.639
19234,0.1406,-0.0034,-1.0601,4.944,-6.775,-0.793,-179.758,-6.147,17.644
19244,0.1543,-0.0098,-0.958,8.789,-3.967,4.578,-179.665,-6.136,17.6
19264,0.0337,0.103,-0.9966,8.789,-3.967,4.578,177.226,-6.136,17.43
19284,-0.002,0.1543,-1.1021,-6.836,-2.38,-5.92,177.017,-6.01,17.463
19293,-0.002,0.1543,-1.1021,-5.92,-7.996,-14.832,176.907,-5.9,17.606
19304,0.1553,-0.0117,-1.0361,-5.92,-7.996,-14.832,-179.352,-5.801,17.781
19314,0.1836,-0.1235,-0.9756,2.258,-11.78,-12.024,-179.275,-5.729,17.902
19333,0.1812,-0.1138,-0.9341,4.822,-6.409,-2.563,-179.099,-5.79,17.875
19343,0.1812,-0.1138,-0.9341,-0.916,11.414,9.094,-179.088,-5.938,17.781
19354,0.1333,0.0415,-0.9976,-7.141,15.991,11.414,177.616,-6.108,17.666
19394,0.0107,0.1836,-1.168,-0.305,-2.197,0.732,177.149,-6.372,17.38
19413,0.0366,0.1226,-1.0972,1.038,-12.024,-15.869,-178.165,-6.086,17.611
19423,0.1514,-0.1128,-0.9546,-2.319,-9.399,-16.541,-178.154,-6.026,17.781
19434,0.1562,-0.0278,-0.979,-2.319,-9.399,-16.541,-178.237,-6.048,17.875
19443,0.1562,-0.0278,-0.979,-2.319,-9.399,-16.541,175.342,-6.152,17.869
19453,0.1562,-0.0278,-0.979,-4.517,10.803,4.272,175.27,-6.24,17.836
19463,0.0381,0.2241,-1.1279,0.977,0.854,1.343,175.215,-6.207,17.82
19503,0.2402,-0.0742,-0.9922,-1.831,-8.667,-13.611,-179.236,-5.823,18.506
19523,0.2295,-0.0215,-1.0146,0.122,14.343,13.977,-179.236,-6.119,18.347
19543,0.2295,-0.0215,-1.0146,5.554,14.893,23.499,176.237,-6.46,17.886
19563,0.2295,-0.0215,-1.0146,7.141,4.028,11.108,176.364,-6.509,17.595
19573,0.0137,0.1509,-1.1421,6.653,-3.418,2.136,176.391,-6.416,17.573
19583,0.0352,0.0972,-1.0747,5.92,-10.803,-6.47,176.429,-6.262,17.633
19592,0.0776,-0.0098,-0.9854,5.188,-16.663,-13.306,-179.429,-6.07,17.754
19603,0.1401,-0.0586,-0.9082,4.761,-18.799,-14.709,-179.368,-5.911,17.902
19613,0.1475,-0.0439,-0.876,2.808,-14.893,-9.216,-179.324,-5.801,18.001
19632,0.1299,-0.0303,-0.8755,-3.723,2.747,3.418,-179.352,-5.79,17.985
19642,0.1299,-0.0303,-0.8755,-6.775,9.521,6.165,178.462,-5.878,17.919
19653,0.0586,0.0933,-1.0781,-5.798,11.78,7.019,178.374,-5.966,17.853
19672,0.042,0.1494,-1.1572,-5.798,11.78,7.019,178.253,-6.092,17.776
19682,0.0562,0.1279,-1.1431,3.54,4.517,-4.272,178.237,-6.103,17.82
19693,0.0859,0.0854,-1.105,1.831,-1.526,-11.597,178.215,-6.07,17.935
19702,0.0859,0.0854,-1.105,-1.404,-5.798,-17.883,-178.352,-6.021,18.111
19712,0.0859,0.0854,-1.105,-1.404,-5.798,-17.883,-178.358,-5.999,18.287
19722,0.2251,-0.02,-1.0146,-0.488,-9.644,-6.104,-178.374,-5.971,18.347
19752,0.0771,0.1201,-1.0244,10.071,3.845,12.207,178.116,-6.064,18.062
19762,0.0425,0.083,-1.0352,5.493,2.747,4.7,178.149,-6.053,18.012
19782,0.0991,-0.0112,-1.0562,-9.583,0.916,-7.202,-179.39,-6.037,18.122
19792,0.1392,-0.0068,-1.0464,-9.583,0.916,-7.202,-179.484,-6.059,18.171
19802,0.1606,0.0229,-1.0186,-1.404,-0.183,2.747,178.709,-6.086,18.144
19822,0.1606,0.0229,-1.0186,12.024,4.761,16.296,178.846,-6.191,17.869
19832,0.0078,0.1328,-1.0435,9.949,4.944,13.306,178.896,-6.185,17.737
19862,0.0474,-0.0264,-1.0332,-7.08,-4.333,-11.108,-178.533,-6.021,17.875
19872,0.1172,-0.0464,-1.0034,-4.944,-7.935,-11.719,-178.583,-5.955,17.996
19902,0.1025,0.0562,-1.0195,6.226,-10.315,3.479,179.335,-5.652,18.029
19912,0.0981,0.0752,-1.0483,5.676,-7.874,2.625,179.357,-5.57,18.001
19941,0.1611,-0.0044,-1.104,-1.099,2.258,-2.258,-179.692,-5.696,18.034
19952,0.1582,0.0347,-1.1177,-1.587,11.169,5.249,178.22,-5.828,17.979
19961,0.1582,0.0347,-1.1177,-1.587,11.169,5.249,178.204,-5.927,17.886
19971,0.1582,0.0347,-1.1177,-1.587,11.169,5.249,178.171,-5.949,17.792
19981,0.1582,0.0347,-1.1177,2.563,0.854,2.747,178.143,-5.916,17.765
20001,0.0654,0.0791,-1.0947,0.183,-4.761,-9.888,-179.088,-5.806,17.913
