elapsed_ms,acc_x_g,acc_y_g,acc_z_g,gyro_x_dps,gyro_y_dps,gyro_z_dps,angle_x_deg,angle_y_deg,angle_z_deg
0,0.208,-0.0884,-0.9771,1.953,4.639,-1.343,-176.116,-12.112,131.594
40,0.2344,-0.083,-0.9897,-6.104,-2.38,-1.587,-176.193,-12.173,131.655
49,0.2344,-0.083,-0.9897,-6.104,-2.38,-1.587,-176.265,-12.14,131.671
60,0.2363,-0.0674,-1.0039,-6.958,-6.348,-0.244,-176.336,-12.085,131.677
89,0.2148,-0.0718,-1.002,-4.333,-9.766,2.136,-176.468,-11.827,131.649
99,0.2148,-0.0718,-1.002,-4.883,-9.766,2.075,-176.506,-11.728,131.638
110,0.2187,-0.0884,-1.0044,-4.883,-9.766,2.075,-176.539,-11.646,131.627
129,0.2329,-0.0933,-1.0229,-6.836,-8.057,0.0,-176.633,-11.514,131.633
150,0.2334,-0.0898,-1.0352,-8.667,-12.451,0.488,-176.776,-11.305,131.638
169,0.2192,-0.0649,-1.0532,-7.141,-12.756,1.221,-176.924,-11.052,131.633
190,0.2061,-0.0479,-1.0752,-5.554,-11.536,1.587,-177.039,-10.822,131.611
210,0.2061,-0.0479,-1.0752,-2.625,-6.531,1.953,-177.116,-10.657,131.583
219,0.2002,-0.04,-1.0864,-1.465,-3.174,2.014,-177.133,-10.624,131.567
239,0.1948,-0.0386,-1.0845,-0.061,0.793,1.343,-177.149,-10.613,131.534
249,0.1909,-0.0483,-1.0742,-0.061,0.793,1.343,-177.144,-10.629,131.523
259,0.1914,-0.0552,-1.0669,-0.061,0.793,1.343,-177.133,-10.651,131.523
279,0.1885,-0.0605,-1.0469,-0.061,0.793,1.343,-177.094,-10.728,131.528
299,0.1934,-0.0645,-1.0361,1.404,4.639,-1.831,-177.056,-10.822,131.556
319,0.1934,-0.0645,-1.0361,2.075,5.493,-2.197,-177.012,-10.931,131.589
348,0.2085,-0.0835,-1.0073,4.089,6.958,-1.892,-176.863,-11.168,131.644
359,0.2085,-0.0835,-1.0073,4.089,6.958,-1.892,-176.803,-11.255,131.655
369,0.2168,-0.0977,-0.9888,4.089,6.958,-1.892,-176.759,-11.294,131.666
388,0.2119,-0.0986,-0.9883,1.343,1.526,-0.366,-176.682,-11.332,131.677
398,0.2119,-0.0986,-0.9883,1.038,-0.732,-0.122,-176.655,-11.332,131.677
409,0.209,-0.0815,-1.0078,-0.305,-2.38,0.183,-176.649,-11.31,131.677
428,0.2222,-0.0542,-1.0669,-0.732,-0.061,0.488,-176.66,-11.305,131.666
449,0.2476,-0.001,-1.1465,3.174,5.554,1.709,-176.671,-11.382,131.638
468,0.2534,0.0146,-1.1758,9.949,12.39,4.517,179.385,-11.618,131.55
478,0.2681,0.0249,-1.1787,9.949,12.39,4.517,179.55,-11.788,131.501
489,0.2993,0.0039,-1.1582,23.315,21.545,6.104,179.797,-12.03,131.44
498,0.2993,0.0039,-1.1582,29.297,24.597,7.019,-178.753,-12.327,131.369
529,0.4517,-0.1567,-1.0571,38.208,26.184,13.184,-177.512,-13.376,131.012
548,0.4517,-0.1567,-1.0571,45.288,9.46,25.208,-176.259,-13.854,130.551
578,0.1465,-0.3926,-0.6362,45.349,-22.827,41.809,-173.914,-12.991,129.309
598,-0.3228,-0.1484,-0.6597,31.25,-29.053,64.88,-172.798,-11.525,128.101
618,-0.1699,-0.0674,-0.8389,14.709,-0.977,35.217,-172.271,-10.651,127.205
658,0.0269,-0.0645,-1.002,-20.752,9.033,-27.954,-172.919,-11.547,127.683
668,0.4624,-0.1372,-1.3008,-18.982,-7.446,-16.968,-173.15,-11.574,127.864
757,0.187,-0.0352,-1.1885,-39.124,-23.865,-8.057,173.743,-7.427,127.853
777,0.2578,0.2095,-1.5728,-15.381,24.17,17.822,173.123,-7.817,127.667
787,0.207,0.0146,-1.376,-15.381,24.17,17.822,173.452,-8.069,127.408
817,-0.0308,-0.4551,-0.6377,96.008,-27.588,3.296,-169.261,-7.751,126.925
837,0.0786,-0.5503,-0.458,96.008,-27.588,3.296,-167.899,-7.295,127.617
857,0.2104,-0.3291,-0.874,-40.283,-9.46,-47.791,-168.305,-7.224,128.611
877,0.2104,-0.3291,-0.874,-40.283,-9.46,-47.791,-170.035,-7.712,129.188
887,0.3696,0.0791,-1.541,-57.251,29.907,-4.089,177.061,-8.009,129.177
906,0.3423,0.061,-1.4229,-57.251,29.907,-4.089,-179.171,-8.306,128.754
927,0.0063,-0.1807,-0.9111,83.557,-20.996,33.813,-177.578,-8.026,128.046
946,-0.0605,-0.2632,-0.8174,83.557,-20.996,33.813,-176.023,-7.811,127.727
957,0.0288,-0.2808,-0.8955,83.557,-20.996,33.813,-175.649,-8.047,127.76
967,0.0967,-0.2563,-0.9648,5.371,38.696,-12.512,-175.611,-8.443,127.853
986,0.0967,-0.2563,-0.9648,5.371,38.696,-12.512,-176.089,-9.229,128.095
997,0.2432,-0.2051,-0.9375,-21.362,16.296,-10.742,-176.32,-9.399,128.188
1007,0.1992,-0.2383,-0.8618,-11.963,-8.85,-9.033,-176.457,-9.316,128.287
1036,0.1108,-0.1587,-0.9902,-28.015,-19.775,-12.268,-177.017,-8.657,128.655
1056,0.1602,-0.0371,-1.1831,-28.015,-19.775,-12.268,-177.924,-8.608,128.941
1066,0.2173,-0.0503,-1.1792,-28.015,-19.775,-12.268,-178.303,-8.696,129.067
1076,0.2466,-0.1338,-1.1177,-28.015,-19.775,-12.268,-178.473,-8.767,129.155
1096,0.2236,-0.2461,-1.0249,-28.015,-19.775,-12.268,-178.198,-8.591,129.1
1106,0.2236,-0.2461,-1.0249,29.236,-24.658,13.855,-177.885,-8.344,128.969
1116,0.0493,-0.2378,-0.7583,25.513,-28.442,10.193,-177.616,-8.053,128.875
1126,0.0493,-0.2378,-0.7583,25.513,-28.442,10.193,-177.545,-7.833,128.903
1136,0.0493,-0.2378,-0.7583,-14.893,-7.813,-14.893,-177.715,-7.762,129.056
1146,0.1855,-0.1133,-1.1313,-32.776,7.935,-23.865,-178.072,-7.85,129.293
1156,0.2627,-0.1084,-1.2749,-38.879,20.752,-26.184,-178.495,-8.064,129.551
1165,0.2627,-0.1084,-1.2749,-38.879,20.752,-26.184,-178.813,-8.256,129.754
1176,0.2725,-0.1543,-1.1841,-5.981,-0.488,-10.559,-178.885,-8.251,129.864
1186,0.2471,-0.1948,-1.0386,-5.981,-0.488,-10.559,-178.693,-8.058,129.864
1226,0.0464,-0.2856,-0.8486,26.733,-19.226,10.864,-177.028,-6.779,129.337
1275,0.2725,-0.0933,-1.3433,-22.827,21.423,-7.019,-177.638,-7.52,129.424
1285,0.2241,-0.1255,-1.123,23.56,-3.235,6.531,-177.396,-7.487,129.359
1296,0.1138,-0.1885,-0.9702,44.373,-21.729,15.076,-176.935,-7.262,129.216
1315,0.0015,-0.2324,-0.8735,55.298,-30.64,19.043,-175.798,-6.713,128.903
1325,0.0298,-0.3008,-0.8574,41.992,-1.587,7.08,-175.369,-6.691,128.831
1335,0.1201,-0.3237,-0.9009,23.499,18.921,-1.099,-175.133,-6.877,128.831
1355,0.2437,-0.2544,-1.0454,-13.489,23.254,-7.141,-175.243,-7.388,128.914
1375,0.2993,-0.2407,-0.9341,-23.254,1.953,-2.747,-175.715,-7.553,128.985
1386,0.2832,-0.3638,-0.7197,-16.052,-14.648,3.235,-175.875,-7.405,128.963
1405,0.2832,-0.3638,-0.7197,-16.052,-14.648,3.235,-175.523,-6.476,128.65
1415,0.019,-0.4043,-0.6294,-16.052,-14.648,3.235,-175.611,-5.861,128.375
1445,0.0547,-0.0454,-1.0967,-76.477,-17.639,31.616,176.05,-5.301,127.496
1485,0.2954,0.0688,-1.4849,57.312,21.118,23.743,175.897,-7.086,126.804
1504,0.1265,-0.0737,-1.062,57.312,21.118,23.743,-174.869,-6.432,126.398
1515,-0.1455,-0.4302,-0.4551,120.178,-44.617,18.188,-173.65,-5.971,126.255
1525,-0.0884,-0.5723,-0.2573,114.258,-27.283,19.104,-172.491,-5.68,126.096
1555,0.1152,-0.4536,-0.8223,-41.321,1.343,3.418,-171.991,-5.438,125.777
1565,0.228,-0.2842,-1.3481,-85.022,26.917,-4.272,-172.842,-5.713,125.777
1574,0.228,-0.2842,-1.3481,-85.022,26.917,-4.272,-173.666,-6.119,125.766
1584,0.2744,0.1011,-1.7031,-85.022,26.917,-4.272,176.6,-6.57,125.645
1595,0.251,0.1245,-1.5229,2.075,33.813,16.785,176.638,-6.916,125.497
1614,0.1562,0.0361,-1.2769,77.271,-21.667,17.822,-172.749,-6.779,125.107
1624,0.1562,0.0361,-1.2769,93.567,-19.714,12.878,-171.799,-6.57,125.002
1634,-0.0356,-0.5386,-0.644,86.365,-2.38,9.033,-170.925,-6.531,124.915
1654,0.0059,-0.5986,-0.6304,27.283,12.268,2.686,-169.986,-6.685,124.799
1664,0.0059,-0.5986,-0.6304,27.283,12.268,2.686,-170.107,-6.894,124.794
1674,0.1577,-0.2139,-1.1694,-39.001,32.227,-9.399,-170.502,-7.229,124.832
1694,0.1978,-0.02,-1.3066,-39.001,32.227,-9.399,-171.365,-7.998,124.937
1744,0.0029,-0.3516,-0.6694,41.504,-13.855,-4.761,-170.145,-7.74,125.206
1754,0.1304,-0.4512,-0.6899,18.188,-7.813,-8.301,-169.975,-7.679,125.299
1784,0.3584,-0.188,-1.4722,-51.514,25.94,-11.719,-171.101,-8.119,125.623
1803,0.3062,0.0229,-1.4292,-51.514,25.94,-11.719,179.077,-8.542,125.464
1824,0.0229,-0.1909,-0.9268,53.528,-13.062,16.541,-177.413,-8.416,125.145
1833,-0.0776,-0.3936,-0.7129,53.528,-13.062,16.541,-176.704,-8.207,125.019
1864,0.0493,-0.6323,-0.5625,20.447,-2.441,-1.221,-175.331,-7.954,124.904
1883,0.2607,-0.3481,-0.9839,-43.213,10.742,-15.93,-175.924,-8.108,125.14
1894,0.2607,-0.3481,-0.9839,-62.073,18.433,-18.555,-176.572,-8.3,125.316
1904,0.3677,-0.062,-1.2803,-63.599,17.761,-14.648,-177.226,-8.487,125.453
1913,0.3677,-0.062,-1.2803,-50.293,10.925,-6.714,-177.737,-8.602,125.513
1933,0.0273,-0.2705,-0.9355,-1.831,-3.967,10.071,-177.995,-8.586,125.387
1953,-0.0498,-0.3652,-0.7539,2.319,-28.87,6.775,-177.874,-8.135,125.217
1973,0.062,-0.2949,-0.7485,-35.583,-21.912,-8.85,-178.38,-7.608,125.338
1993,0.1362,-0.2407,-0.8901,-71.838,-1.526,-19.653,-179.72,-7.487,125.695
2003,0.1362,-0.2407,-0.8901,-72.205,10.559,-19.836,179.528,-7.592,125.898
2033,0.3096,-0.0493,-1.3115,-32.043,13.245,-4.395,178.588,-7.932,126.041
2043,0.2324,-0.1562,-1.1421,24.292,-6.653,13.672,178.846,-7.866,125.898
2062,0.0977,-0.2476,-0.9648,41.931,-16.602,20.142,179.758,-7.504,125.475
2083,-0.002,-0.3262,-0.9062,33.63,-13.672,15.991,-179.692,-7.427,125.239
2123,0.2144,-0.2642,-0.9609,-15.137,12.146,-11.963,179.813,-8.24,125.563
2142,0.1699,-0.2612,-0.9551,-20.935,-15.808,-8.179,179.407,-8.026,125.75
2153,0.0068,-0.147,-0.9971,-26.001,-12.817,-8.423,179.138,-7.899,125.832
2163,0.0146,-0.104,-1.0371,-29.907,-0.549,-11.414,178.824,-7.888,125.947
2182,0.2144,-0.1416,-1.0942,-29.785,30.762,-22.034,178.154,-8.361,126.348
2193,0.3438,-0.2153,-1.0356,-21.851,32.166,-24.17,177.902,-8.674,126.606
2232,0.291,-0.1567,-0.8672,3.54,-34.241,31.433,177.979,-8.207,126.288
2242,0.291,-0.1567,-0.8672,3.54,-34.241,31.433,178.094,-7.954,125.815
2262,0.022,-0.293,-0.9629,1.099,-7.019,55.237,178.308,-7.767,124.706
2272,-0.0083,-0.291,-1.0454,-7.446,-2.808,48.828,178.303,-7.751,124.211
2282,-0.0083,-0.291,-1.0454,-7.446,-2.808,48.828,178.171,-7.784,123.832
2292,-0.0083,-0.291,-1.0454,-18.616,7.874,26.55,178.022,-7.872,123.569
2312,0.187,-0.1279,-1.0474,-1.282,-11.047,15.808,178.138,-7.844,123.206
2322,0.187,-0.1279,-1.0474,-1.282,-11.047,15.808,178.264,-7.608,123.096
2332,0.187,-0.1279,-1.0474,-0.244,-22.339,0.549,178.363,-7.322,123.085
2342,-0.0415,-0.2212,-1.1431,-8.179,-10.864,-9.888,178.396,-7.119,123.179
2352,-0.0405,-0.2754,-1.1533,-15.259,7.202,-17.09,178.374,-7.092,123.354
2372,-0.0405,-0.2754,-1.1533,-7.507,25.513,-20.081,178.462,-7.619,123.788
2382,0.3584,-0.3398,-0.8437,-7.507,25.513,-20.081,178.764,-7.888,123.887
2392,0.2881,-0.3096,-0.8472,17.639,-12.085,3.174,179.154,-7.866,123.854
2412,0.0454,-0.1445,-1.1641,1.648,-10.01,18.372,179.561,-7.482,123.519
2422,-0.0127,-0.0938,-1.3145,-8.362,15.137,15.198,179.544,-7.553,123.365
2462,0.2588,-0.2402,-0.9067,38.391,8.911,-15.869,-179.857,-8.784,123.701
2502,-0.0483,-0.2144,-0.9976,19.836,-3.784,20.935,-177.231,-7.806,123.206
2511,-0.0483,-0.2144,-0.9976,-7.324,27.466,5.981,-177.248,-8.058,123.135
2521,-0.0483,-0.2144,-0.9976,-7.324,27.466,5.981,-177.418,-8.613,123.195
2531,-0.0483,-0.2144,-0.9976,-10.315,45.166,-16.296,-177.512,-9.135,123.344
2561,0.272,-0.2207,-1.1641,68.054,-22.766,12.817,-175.935,-9.102,123.344
2571,0.0049,-0.3477,-0.6753,68.054,-22.766,12.817,-174.798,-8.613,123.14
2591,-0.0176,-0.3193,-0.6738,76.721,-25.391,21.362,-172.711,-7.751,122.728
2601,0.1123,-0.3403,-0.9287,39.978,1.404,7.507,-172.178,-7.745,122.651
2611,0.1221,-0.3613,-1.1816,-4.578,23.56,-7.141,-172.134,-7.965,122.69
2631,0.1221,-0.3613,-1.1816,-50.049,44.556,-20.874,-173.002,-8.811,122.97
2641,0.3779,-0.0835,-1.2622,-26.367,33.142,-16.602,-173.315,-9.234,123.096
2651,0.3545,0.0024,-0.98,17.883,-6.287,-8.301,179.857,-9.289,123.184
2661,0.3545,0.0024,-0.98,17.883,-6.287,-8.301,-176.001,-8.965,123.135
2681,-0.0625,-0.3896,-0.501,17.883,-6.287,-8.301,-173.287,-7.696,122.635
2691,-0.188,-0.5332,-0.5542,103.027,-37.598,42.419,-171.848,-7.064,122.25
2711,-0.1597,-0.6353,-0.9263,103.027,-37.598,42.419,-170.942,-6.707,122.047
2721,0.0898,-0.499,-1.1982,-84.961,41.931,-46.814,-171.694,-7.163,122.448
2740,0.5625,-0.1562,-1.1948,-99.365,38.208,-73.853,-173.908,-8.536,123.777
2751,0.4468,-0.1348,-1.0806,-60.73,-7.08,-52.307,-174.578,-8.657,124.31
2780,-0.1489,-0.2144,-1.0005,-13.0,-48.523,-18.677,-173.65,-6.943,124.189
2810,0.0854,-0.436,-1.1606,19.043,67.139,-13.245,-171.969,-7.828,123.843
2820,0.0854,-0.436,-1.1606,-1.404,65.491,-25.391,-171.848,-8.619,124.008
2850,0.3076,-0.3472,-0.7939,-1.648,-33.447,6.897,-171.634,-8.965,124.233
2860,0.3076,-0.3472,-0.7939,6.409,-48.645,17.151,-171.442,-8.355,124.135
2870,-0.1084,-0.2168,-0.7559,2.197,-44.067,13.611,-171.337,-7.745,124.063
2890,-0.0352,-0.2686,-0.8999,-33.997,17.151,-20.691,-171.683,-7.619,124.294
2900,0.1562,-0.3403,-1.2051,-33.997,17.151,-20.691,-172.134,-8.047,124.601
2940,0.085,-0.0244,-0.8413,-33.997,17.151,-20.691,-172.809,-9.179,125.442
2960,-0.0889,-0.1313,-0.6958,-33.997,17.151,-20.691,-171.601,-8.608,125.684
2970,-0.0889,-0.1313,-0.6958,-33.997,17.151,-20.691,-171.03,-8.795,125.881
2980,0.1338,-0.5933,-0.9482,-4.883,31.25,-31.006,-170.887,-9.13,126.14
2999,0.1338,-0.5933,-0.9482,-4.883,31.25,-31.006,-171.595,-10.195,126.628
3020,0.3477,-0.1143,-0.9819,-8.362,-14.526,12.085,-171.969,-10.574,126.541
3060,0.1484,-0.4004,-1.1792,15.991,26.489,10.742,-170.843,-9.602,125.695
3079,0.2573,-0.3286,-1.2036,1.16,40.466,2.075,-170.645,-10.475,125.508
3100,0.2373,-0.4292,-0.8481,5.432,5.859,8.057,-170.255,-10.827,125.327
3119,0.1484,-0.4609,-0.6685,5.432,5.859,8.057,-169.777,-10.432,125.189
3130,0.1377,-0.3818,-0.6377,5.432,5.859,8.057,-169.689,-10.179,125.134
3149,0.1396,-0.3413,-0.6851,-32.776,-24.658,3.662,-169.958,-9.662,125.123
3159,0.1396,-0.3413,-0.6851,-39.734,-15.625,1.465,-170.272,-9.492,125.14
3169,0.1738,-0.269,-1.2656,-41.626,-6.104,0.0,-170.662,-9.41,125.151
3219,0.312,-0.1094,-1.2427,-16.235,19.287,3.967,-174.397,-10.349,124.596
3229,0.0825,-0.3984,-0.8584,47.302,9.766,12.817,-173.71,-10.377,124.453
3239,0.0679,-0.4805,-0.6836,47.302,9.766,12.817,-172.985,-10.426,124.371
3249,0.0981,-0.5068,-0.5591,33.081,14.832,2.869,-172.293,-10.541,124.321
3259,0.0981,-0.5068,-0.5591,33.081,14.832,2.869,-171.755,-10.596,124.305
3269,0.0981,-0.5068,-0.5591,-4.211,-5.676,-0.061,-171.469,-10.558,124.316
3279,0.0981,-0.5068,-0.5591,-26.184,-10.986,-1.526,-171.508,-10.481,124.349
3289,0.2661,-0.2822,-0.9497,-43.64,-10.437,-3.296,-171.87,-10.432,124.398
3298,0.2661,-0.2822,-0.9497,-45.288,-3.174,-0.244,-172.332,-10.432,124.404
3328,0.2036,0.0215,-1.5908,-11.902,10.193,11.719,179.363,-10.816,124.063
3338,0.2036,0.0215,-1.5908,-11.902,10.193,11.719,-175.82,-11.223,123.937
3349,0.1689,-0.2227,-0.9805,51.453,28.076,10.193,-175.281,-11.492,123.816
3359,0.062,-0.3936,-0.6646,62.012,9.888,8.911,-174.639,-11.585,123.717
3378,0.062,-0.3936,-0.6646,49.805,-8.606,3.479,-173.491,-11.475,123.613
3389,0.1104,-0.6934,-0.4023,22.766,-15.747,-1.953,-173.271,-11.321,123.651
3418,0.4717,-0.1201,-1.3076,-63.843,8.85,-15.625,-174.639,-11.255,124.091
3429,0.3647,0.0146,-1.4116,-47.058,9.338,-2.747,179.401,-11.349,124.113
3448,0.3647,0.0146,-1.4116,18.921,-11.963,15.808,-174.617,-11.162,123.843
3458,0.0469,-0.1987,-1.0229,50.903,4.578,17.7,-174.067,-11.19,123.662
3488,0.0347,-0.3218,-0.8325,40.833,10.071,-1.099,-172.381,-11.409,123.448
3498,0.2012,-0.5356,-0.7593,16.907,16.357,-6.592,-172.222,-11.58,123.492
3508,0.252,-0.5044,-0.8882,-11.963,15.198,-12.451,-172.365,-11.75,123.596
3528,0.252,-0.5044,-0.8882,-38.086,13.245,-16.052,-173.134,-12.036,123.898
3538,0.314,-0.188,-1.1802,-30.64,6.348,-9.094,-173.458,-12.107,123.981
3558,0.2144,-0.1196,-1.0674,5.981,-16.357,6.531,-173.54,-11.827,123.953
3578,0.1201,-0.4365,-0.7651,25.33,0.122,6.714,-173.029,-11.733,123.799
3587,0.1851,-0.5337,-0.8188,25.33,0.122,6.714,-172.881,-11.799,123.783
3608,0.1851,-0.5337,-0.8188,-23.926,20.081,-8.606,-173.183,-12.178,123.882
3627,0.3228,-0.3022,-1.2695,-35.278,14.893,-7.263,-173.864,-12.431,123.948
3637,0.3228,-0.3022,-1.2695,-13.794,4.944,2.869,-173.99,-12.475,123.915
3648,0.1152,-0.2114,-1.0596,-13.794,4.944,2.869,-173.881,-12.48,123.843
3667,0.1206,-0.4556,-0.75,-13.794,4.944,2.869,-173.161,-12.607,123.673
3677,0.1582,-0.5142,-0.6641,-13.794,4.944,2.869,-172.831,-12.711,123.624
3688,0.229,-0.5166,-0.6606,15.564,10.681,-0.061,-172.672,-12.816,123.607
3698,0.229,-0.5166,-0.6606,-5.676,8.301,-2.991,-172.733,-12.903,123.629
3707,0.229,-0.5166,-0.6606,-5.676,8.301,-2.991,-173.013,-12.953,123.695
3728,0.3184,-0.2524,-1.1226,-41.199,4.395,-10.254,-173.892,-13.008,123.893
3737,0.3184,-0.2524,-1.1226,-41.199,4.395,-10.254,-174.172,-13.123,123.97
3747,0.3184,-0.2524,-1.1226,-41.199,4.395,-10.254,-174.216,-13.228,123.981
3757,0.1577,-0.2388,-0.9634,20.203,13.977,7.996,-173.99,-13.359,123.887
3767,0.1196,-0.2813,-0.8213,37.292,18.982,20.081,-173.568,-13.524,123.662
3777,0.1196,-0.2813,-0.8213,37.292,18.982,20.081,-173.101,-13.64,123.415
3787,0.1196,-0.2813,-0.8213,37.292,18.982,20.081,-172.722,-13.749,123.25
3797,0.1895,-0.5625,-0.6797,17.395,13.0,2.808,-172.535,-13.876,123.201
3807,0.2739,-0.5562,-0.7573,-7.385,2.075,-9.094,-172.634,-13.909,123.294
3817,0.2739,-0.5562,-0.7573,-7.385,2.075,-9.094,-173.035,-13.821,123.497
3827,0.4448,-0.2954,-1.1309,-56.946,-13.55,-24.353,-173.666,-13.716,123.761
3837,0.4365,-0.0977,-1.2793,-63.538,-11.658,-22.888,-174.364,-13.678,124.014
3867,0.146,-0.1406,-1.0977,15.503,-0.061,6.104,-179.379,-13.354,124.156
3877,0.1084,-0.2739,-0.918,41.443,12.573,13.306,-178.775,-13.403,124.019
3896,0.1011,-0.3784,-0.7661,46.204,8.667,13.489,-177.166,-13.508,123.712
3917,0.2422,-0.459,-0.7925,-1.038,-5.127,-0.916,-176.309,-13.513,123.646
3936,0.2417,-0.2925,-1.0781,-47.546,-22.217,-16.418,-176.83,-13.156,123.937
3947,0.23,-0.1904,-1.1904,-46.875,-23.437,-18.494,-177.281,-12.909,124.14
3966,0.2334,-0.1367,-1.2598,-7.69,-9.033,-10.071,-177.654,-12.618,124.415
3976,0.2759,-0.1758,-1.208,13.916,-0.061,-4.822,-177.468,-12.618,124.464
3987,0.2842,-0.2656,-1.1011,30.945,8.118,0.793,-177.05,-12.711,124.453
4016,0.25,-0.5132,-0.7949,30.945,8.118,0.793,-175.045,-13.151,124.146
4027,0.2651,-0.4878,-0.811,30.945,8.118,0.793,-174.573,-13.266,124.047
4046,0.2764,-0.416,-0.8394,1.221,7.874,5.005,-174.276,-13.436,123.964
4056,0.2441,-0.3247,-0.8755,-15.503,-0.854,-0.061,-174.282,-13.442,123.964
4066,0.1895,-0.311,-0.8682,-14.709,-6.531,-1.16,-174.293,-13.359,123.981
4086,0.1895,-0.311,-0.8682,-12.207,-10.437,-2.441,-174.232,-13.03,124.063
4096,0.1895,-0.311,-0.8682,-3.906,-2.319,-3.113,-174.144,-12.936,124.096
4106,0.146,-0.2964,-0.8472,-3.052,4.517,-2.869,-174.045,-12.947,124.118
4126,0.146,-0.2964,-0.8472,-20.325,-1.953,-10.193,-174.056,-12.991,124.272
4136,0.146,-0.2964,-0.8472,-35.828,-8.423,-16.296,-174.271,-12.964,124.448
4156,0.3535,-0.3564,-0.9985,-51.453,-10.986,-20.447,-175.254,-12.986,124.882
4166,0.3535,-0.3564,-0.9985,-51.453,-10.986,-20.447,-175.836,-13.101,125.024
4176,0.4658,-0.0635,-1.5503,-42.725,-0.61,-5.737,-176.276,-13.096,125.085
4185,0.4658,-0.0635,-1.5503,-42.725,-0.61,-5.737,-176.391,-13.052,125.057
4206,0.1206,-0.2031,-1.1431,67.749,11.902,22.644,-175.347,-13.167,124.684
4225,0.0752,-0.3657,-0.8672,103.821,23.254,32.288,-173.216,-13.513,124.019
4246,0.1245,-0.605,-0.4448,64.575,4.761,25.085,-171.508,-13.689,123.415
4265,0.1997,-0.5176,-0.562,-7.69,-23.682,2.991,-171.271,-13.31,123.289
4305,0.2832,-0.2251,-1.2402,-54.932,-27.405,-15.137,174.287,-12.722,123.772
4315,0.2515,0.2051,-1.6084,23.071,11.23,8.789,174.534,-12.843,123.695
4345,0.0425,-0.5176,-0.5508,60.974,23.804,15.198,-165.037,-13.607,123.19
4355,0.0454,-0.7476,-0.3335,90.271,2.991,9.277,-164.108,-13.612,123.091
4375,0.1206,-0.8345,-0.2676,58.96,-10.071,1.892,-163.367,-13.299,123.223
4385,0.2012,-0.666,-0.5015,58.96,-10.071,1.892,-163.658,-12.986,123.475
4395,0.2012,-0.666,-0.5015,-58.411,-32.166,-23.682,-164.317,-12.744,123.805
4425,0.3843,-0.0928,-1.5015,-26.489,-4.761,-0.244,-165.97,-12.612,124.283
4444,0.3145,-0.1104,-1.4263,45.166,17.578,22.034,-165.317,-12.75,123.871
4455,0.3145,-0.1104,-1.4263,45.166,17.578,22.034,-164.603,-12.843,123.58
4465,0.1064,-0.4282,-0.7563,66.956,11.169,21.912,-163.883,-12.892,123.333
4484,0.1797,-0.5562,-0.6196,66.956,11.169,21.912,-162.933,-13.085,123.113
4494,0.1641,-0.5474,-0.668,66.956,11.169,21.912,-162.839,-13.129,123.212
4505,0.1978,-0.5034,-0.7822,-7.629,-6.042,-23.621,-162.971,-13.14,123.464
4524,0.2285,-0.3638,-0.9805,-23.315,-7.446,-29.541,-163.537,-13.195,124.102
4534,0.2485,-0.2671,-0.998,-23.621,-10.803,-20.203,-163.828,-13.145,124.332
4564,0.2666,-0.2266,-0.9917,-4.272,-2.502,1.709,-164.18,-13.041,124.481
4574,0.2666,-0.2266,-0.9917,-3.418,-1.953,2.014,-164.213,-13.019,124.464
4604,0.1025,-0.4727,-0.8066,-7.324,-0.732,0.427,-164.784,-12.876,124.678
4614,0.1519,-0.4048,-0.8169,-38.391,-15.686,-19.897,-165.218,-12.777,124.915
4634,0.2588,-0.3833,-0.9385,-44.983,-16.418,-24.292,-166.245,-12.574,125.491
4654,0.2808,-0.3018,-1.2598,-26.001,-16.418,-5.31,-166.948,-12.305,125.782
4674,0.209,-0.313,-1.2446,9.399,-1.404,10.742,-166.915,-12.145,125.656
4684,0.209,-0.313,-1.2446,9.399,-1.404,10.742,-166.663,-12.184,125.519
4694,0.209,-0.313,-1.2446,28.87,12.451,10.803,-166.349,-12.277,125.381
4703,0.209,-0.313,-1.2446,28.87,12.451,10.803,-166.025,-12.464,125.244
4714,0.209,-0.313,-1.2446,23.987,23.987,6.958,-165.756,-12.678,125.118
4724,0.1865,-0.4136,-0.9438,23.987,23.987,6.958,-165.569,-12.816,125.03
4743,0.1519,-0.4248,-0.8525,12.756,7.629,0.488,-165.3,-12.958,124.953
4754,0.1104,-0.4004,-0.7178,12.756,7.629,0.488,-165.174,-12.991,124.958
4764,0.1572,-0.3994,-0.7002,9.583,2.075,-2.136,-165.086,-13.019,124.975
4783,0.2085,-0.3936,-0.7832,-3.235,3.235,-3.296,-165.086,-13.112,125.008
4804,0.2559,-0.3462,-0.8701,-16.663,0.122,-6.714,-165.394,-13.173,125.118
4823,0.2856,-0.3042,-0.9189,-16.663,0.122,-6.714,-165.751,-13.068,125.305
4853,0.2695,-0.2471,-1.3262,-2.014,1.465,-1.343,-165.927,-12.969,125.431
4873,0.2456,-0.2388,-1.2754,12.207,22.705,-2.747,-165.773,-13.304,125.392
4893,0.1978,-0.2749,-1.0278,30.701,24.597,-1.221,-164.932,-13.672,125.288
4913,0.1138,-0.6221,-0.4082,58.899,-0.244,8.545,-163.669,-13.678,125.134
4924,0.1289,-0.6509,-0.3647,39.368,-11.963,6.714,-162.828,-13.508,125.107
4933,0.1289,-0.6509,-0.3647,39.368,-11.963,6.714,-162.35,-13.282,125.156
4953,0.2627,-0.4185,-0.9214,-52.979,-16.418,-20.569,-162.878,-13.03,125.546
4973,0.3667,-0.2974,-1.1787,-72.937,-9.155,-30.823,-164.559,-13.189,126.194
4983,0.3667,-0.2974,-1.1787,-72.937,-9.155,-30.823,-165.157,-13.348,126.414
4993,0.4004,-0.1543,-1.2607,-7.08,11.414,-9.46,-165.322,-13.519,126.48
5033,0.2095,-0.5376,-0.6719,53.101,22.888,14.648,-162.861,-14.106,125.739
5042,0.2095,-0.5376,-0.6719,53.101,22.888,14.648,-162.175,-14.288,125.574
5053,0.2095,-0.5376,-0.6719,18.555,14.221,5.981,-161.686,-14.403,125.475
5063,0.1938,-0.5562,-0.6235,18.555,14.221,5.981,-161.483,-14.376,125.436
5073,0.2095,-0.4824,-0.7661,-29.419,-12.939,-1.282,-161.653,-14.249,125.491
5082,0.2578,-0.3789,-0.9692,-52.246,-19.226,-7.751,-162.175,-14.084,125.634
5103,0.3721,-0.146,-1.314,-61.34,-13.977,-15.564,-163.68,-13.903,126.024
5132,0.1719,-0.2461,-1.1699,-10.803,-4.517,0.854,-164.246,-13.716,126.013
5143,0.1367,-0.3364,-1.0562,41.992,15.076,21.973,-163.746,-13.733,125.755
5172,0.1899,-0.4287,-0.8428,41.992,15.076,21.973,-161.982,-14.277,125.046
5183,0.3125,-0.4941,-0.7671,19.531,22.827,0.854,-161.62,-14.535,124.964
5193,0.2515,-0.5166,-0.7759,19.531,22.827,0.854,-161.45,-14.661,124.958
5202,0.2515,-0.5166,-0.7759,-12.634,-6.897,-3.174,-161.45,-14.562,125.013
5212,0.1133,-0.4023,-0.7563,-15.625,-16.479,-2.014,-161.526,-14.343,125.085
5232,0.1162,-0.3428,-0.7515,-5.92,-12.451,-6.409,-161.647,-14.002,125.277
5252,0.1162,-0.3428,-0.7515,-6.409,1.404,-10.193,-161.658,-14.068,125.469
5312,0.1748,-0.272,-1.1602,-10.315,-17.517,-10.132,-163.098,-13.074,126.178
5322,0.1201,-0.314,-1.022,7.141,-16.724,-7.507,-163.054,-12.87,126.304
5332,0.103,-0.4131,-0.8975,22.4,-17.151,-2.38,-162.773,-12.645,126.381
5341,0.103,-0.4131,-0.8975,22.4,-17.151,-2.38,-162.312,-12.371,126.403
5362,0.125,-0.5503,-0.6924,22.705,-28.809,2.747,-161.378,-11.722,126.491
5392,0.2085,-0.5166,-0.7788,-42.542,-22.4,-20.996,-161.944,-11.266,127.123
5402,0.4546,-0.2554,-1.3257,-43.396,-22.217,-19.348,-162.493,-11.19,127.381
5421,0.4546,-0.2554,-1.3257,6.287,-21.301,4.578,-162.834,-10.822,127.557
5431,0.1362,-0.269,-1.0811,6.287,-21.301,4.578,-162.471,-10.585,127.441
5461,0.2153,-0.4771,-0.6245,58.777,-8.911,21.912,-160.258,-10.421,126.898
5482,0.2612,-0.6104,-0.5474,16.113,-0.61,-3.662,-159.148,-10.69,126.865
5491,0.2305,-0.5986,-0.6245,16.113,-0.61,-3.662,-159.066,-10.607,126.991
5501,0.2319,-0.5142,-0.8442,16.113,-0.61,-3.662,-159.384,-10.432,127.2
5511,0.293,-0.3662,-1.1221,-58.411,-24.902,-17.578,-160.032,-10.294,127.452
5531,0.293,-0.3662,-1.1221,-39.551,-2.38,-13.733,-161.224,-10.289,127.837
5541,0.3667,-0.0776,-1.439,-3.174,11.353,-0.122,-161.252,-10.393,127.798
5581,0.0142,-0.6045,-0.4551,73.059,9.277,37.17,-158.346,-10.646,126.332
5600,0.0625,-0.6494,-0.5132,73.059,9.277,37.17,-157.676,-10.519,126.052
5611,0.0625,-0.6494,-0.5132,-31.677,-1.343,-13.611,-158.022,-10.558,126.183
5621,0.3521,-0.457,-1.1338,-64.697,3.296,-25.818,-158.708,-10.684,126.414
5640,0.3301,-0.1562,-1.4312,-57.556,-2.686,-15.259,-160.093,-10.838,126.793
5651,0.252,-0.106,-1.2876,-21.79,-4.089,-2.625,-160.318,-10.811,126.832
5661,0.1821,-0.1997,-1.0771,20.02,4.395,8.911,-160.098,-10.822,126.733
5670,0.1821,-0.1997,-1.0771,20.02,4.395,8.911,-159.543,-10.882,126.502
5680,0.1821,-0.1997,-1.0771,57.922,14.587,24.231,-158.912,-10.937,126.216
5710,0.1113,-0.6191,-0.6187,-16.418,13.428,-5.371,-158.412,-11.234,125.832
5720,0.1113,-0.6191,-0.6187,-16.418,13.428,-5.371,-158.862,-11.338,125.98
5730,0.2378,-0.3896,-0.9678,-50.354,-6.287,-21.667,-159.412,-11.354,126.211
5750,0.2202,-0.3291,-1.0449,-31.25,-20.325,-14.709,-160.258,-11.157,126.672
5760,0.1479,-0.2261,-1.1641,-18.005,-19.836,-8.362,-160.466,-10.997,126.821
5780,0.1406,-0.2031,-1.1655,-5.615,-8.911,-4.333,-160.483,-10.975,126.909
5790,0.1406,-0.2031,-1.1655,-5.615,-8.911,-4.333,-160.345,-11.091,126.92
5830,0.21,-0.5449,-0.7407,-12.268,-17.395,-5.188,-160.208,-11.217,127.205
5840,0.187,-0.3569,-0.873,-24.536,-24.353,-3.601,-160.477,-11.003,127.326
5859,0.1978,-0.2622,-1.1963,-31.311,-14.587,-6.897,-161.153,-10.69,127.562
5880,0.166,-0.3447,-1.1826,-4.517,-1.404,-6.531,-161.439,-10.657,127.722
5899,0.2065,-0.4697,-0.8848,-4.517,-1.404,-6.531,-161.071,-10.745,127.722
5920,0.2295,-0.5156,-0.6714,16.418,-8.728,7.385,-160.653,-10.591,127.639
5929,0.2295,-0.5156,-0.6714,16.418,-8.728,7.385,-160.598,-10.443,127.606
5939,0.2295,-0.5156,-0.6714,16.418,-8.728,7.385,-160.724,-10.289,127.601
5950,0.2686,-0.3413,-1.061,16.418,-8.728,7.385,-160.999,-10.19,127.606
5969,0.2915,-0.2271,-1.3159,-23.376,5.92,3.113,-161.554,-10.217,127.557
5990,0.1304,-0.04,-1.1284,38.879,17.09,25.208,-161.06,-10.388,127.095
6009,-0.0327,-0.1885,-0.7417,38.879,17.09,25.208,-159.45,-10.294,126.414
6029,0.0767,-0.7241,-0.1743,29.541,-23.437,-3.906,-157.978,-9.888,126.403
6049,0.1567,-0.7788,-0.4458,29.541,-23.437,-3.906,-158.307,-9.564,127.227
6059,0.1567,-0.7788,-0.4458,-82.153,-25.452,-38.757,-159.208,-9.47,127.689
6089,0.3579,0.0854,-1.5322,25.513,24.17,22.461,176.918,-9.668,127.744
6099,0.2163,-0.1528,-1.0698,73.059,40.894,35.889,-171.865,-10.096,127.403
6119,0.0303,-0.4707,-0.6118,73.059,40.894,35.889,-169.986,-10.514,126.645
6139,0.0332,-0.8262,-0.25,-3.418,-30.09,-8.484,-169.59,-10.085,126.694
6158,0.1943,-0.7334,-0.6763,-78.491,-18.005,-39.307,-171.046,-9.712,127.463
6169,0.4717,-0.1968,-1.4961,-78.491,-18.005,-39.307,-171.777,-9.739,127.744
6179,0.3188,0.0107,-1.5825,-33.752,-6.104,-1.77,179.61,-9.684,127.766
6189,0.2324,-0.0444,-1.5117,-33.752,-6.104,-1.77,-178.314,-9.701,127.507
6209,-0.04,-0.3418,-0.8999,-33.752,-6.104,-1.77,-176.852,-10.151,126.535
6219,-0.0957,-0.4971,-0.6226,62.439,4.028,32.104,-176.171,-10.173,126.211
6238,0.0796,-0.6572,-0.4839,13.611,-1.953,-11.597,-175.644,-10.135,126.244
6249,0.0986,-0.646,-0.6401,-20.264,-16.785,-24.78,-175.891,-9.987,126.508
6268,0.1899,-0.5518,-0.9229,-53.04,-20.874,-24.17,-177.006,-9.531,127.084
6278,0.1899,-0.5518,-0.9229,-31.921,-12.512,-11.169,-177.347,-9.41,127.205
6338,0.0635,-0.5977,-0.9067,36.926,-1.953,25.024,-176.38,-9.382,126.59
6378,0.144,-0.3159,-0.9175,-3.113,-7.813,4.456,-177.017,-9.542,126.958
6398,0.0967,-0.376,-0.8701,21.484,10.498,15.747,-176.644,-9.624,126.661
6418,0.3477,-0.4741,-0.9077,10.742,22.949,-1.648,-176.309,-10.014,126.573
6438,0.3335,-0.4063,-1.2451,-12.329,11.963,-5.493,-176.468,-10.355,126.678
6458,0.3335,-0.4063,-1.2451,12.512,5.92,18.494,-176.386,-10.459,126.431
6468,0.3335,-0.4063,-1.2451,12.512,5.92,18.494,-175.979,-10.552,126.123
6478,0.0479,-0.2979,-0.6626,42.358,8.789,31.25,-175.496,-10.618,125.799
6497,0.0479,-0.2979,-0.6626,18.86,2.502,10.498,-174.902,-10.64,125.453
6508,0.1392,-0.4336,-0.623,4.211,0.061,0.549,-174.858,-10.64,125.447
6527,0.0996,-0.499,-0.7139,-17.944,-15.625,-7.69,-175.15,-10.421,125.596
6548,0.2305,-0.4927,-1.0679,-12.878,-14.343,-9.155,-175.534,-10.118,125.821
6567,0.3037,-0.4863,-1.2031,10.986,0.732,2.808,-175.424,-10.036,125.848
6577,0.3037,-0.4863,-1.2031,10.986,0.732,2.808,-175.237,-10.129,125.706
6597,0.1582,-0.5518,-1.2695,21.484,22.644,26.062,-174.738,-10.481,125.189
6607,0.1724,-0.4072,-0.8584,21.484,22.644,26.062,-174.507,-10.662,124.915
6617,0.1997,-0.3828,-0.6997,9.827,14.771,18.921,-174.37,-10.794,124.706
6647,0.1997,-0.5171,-0.8589,4.211,11.78,10.62,-174.271,-11.14,124.442
6657,0.1216,-0.5234,-0.9199,-6.226,14.221,10.193,-174.309,-11.272,124.327
6677,0.1001,-0.3579,-0.8262,-6.287,10.01,17.029,-174.375,-11.464,123.975
6697,0.0679,-0.4155,-0.5806,-10.376,-7.141,8.789,-174.001,-11.299,123.734
6717,0.0479,-0.606,-0.7349,-26.428,-21.362,-12.451,-173.771,-10.778,123.92
6727,0.0527,-0.5532,-0.9941,-36.865,-23.682,-19.104,-173.947,-10.486,124.14
6737,0.1396,-0.4673,-1.2812,-38.757,-21.24,-22.461,-174.238,-10.256,124.393
6746,0.1396,-0.4673,-1.2812,-38.757,-21.24,-22.461,-174.452,-10.184,124.585
6757,0.1396,-0.4673,-1.2812,-38.757,-21.24,-22.461,-174.452,-10.289,124.662
6786,0.2847,-0.3511,-1.0137,29.419,23.132,16.113,-173.167,-10.865,124.167
6796,0.2847,-0.3511,-1.0137,16.418,6.287,17.7,-172.617,-10.8,123.981
6807,0.2847,-0.3511,-1.0137,16.418,6.287,17.7,-172.299,-10.679,123.92
6836,0.3423,-0.1719,-0.8853,-17.578,-2.441,-3.784,-172.705,-10.871,124.113
6847,0.1987,-0.2437,-0.9067,-16.663,-8.301,0.488,-172.793,-10.8,124.118
6866,-0.019,-0.5376,-0.8145,-16.663,-8.301,0.488,-172.365,-10.294,124.047
6887,0.083,-0.6162,-0.7373,9.583,-13.611,2.747,-171.475,-9.899,124.003
6896,0.1445,-0.5308,-0.9106,9.583,-13.611,2.747,-171.299,-9.673,124.058
6906,0.1445,-0.5308,-0.9106,-20.142,-20.081,-10.498,-171.414,-9.509,124.195
6916,0.2896,-0.335,-1.3818,-24.719,-9.46,-13.916,-171.634,-9.459,124.349
6936,0.2148,-0.3794,-1.3452,5.127,13.306,0.0,-171.59,-9.608,124.415
6946,0.2148,-0.3794,-1.3452,5.127,13.306,0.0,-171.233,-9.8,124.277
6956,0.1396,-0.3789,-0.5913,34.18,14.954,19.043,-170.618,-9.932,124.063
6976,0.0566,-0.4307,-0.228,9.094,-26.428,18.982,-170.156,-9.58,123.684
6986,-0.0347,-0.5151,-0.2695,9.094,-26.428,18.982,-170.376,-9.091,123.745
7016,0.2397,-0.1636,-1.9316,-46.509,-5.676,-24.292,-172.051,-8.355,124.541
7026,0.3423,-0.0752,-2.0137,-9.521,23.315,-11.23,-172.161,-8.602,124.623
7045,0.4063,-0.1924,-1.5986,73.242,55.725,27.771,-170.958,-9.63,124.085
7066,-0.0869,-0.7788,-0.0874,40.466,-3.296,25.696,-169.75,-9.772,123.453
7085,0.0513,-0.731,-0.2534,-22.095,-39.612,-3.784,-169.876,-9.13,123.486
7106,0.0952,-0.5552,-0.6572,-54.932,-35.461,-28.381,-171.024,-8.383,124.107
7125,0.0952,-0.5552,-0.6572,-54.932,-35.461,-28.381,-171.535,-8.547,124.453
7135,0.0952,-0.5552,-0.6572,-54.932,-35.461,-28.381,-171.227,-8.91,124.277
7146,0.3496,-0.2344,-1.1392,48.218,38.696,26.978,-170.695,-9.25,123.948
7155,0.3496,-0.2344,-1.1392,42.358,15.076,31.433,-170.217,-9.349,123.607
7165,-0.0454,-0.5034,-0.543,20.691,-8.728,23.865,-169.975,-9.223,123.387
7175,-0.123,-0.5913,-0.5088,-0.366,-19.714,9.155,-169.969,-9.009,123.327
7186,-0.0938,7.9551,7.9766,-0.366,-19.714,9.155,-170.167,-8.833,123.409
7195,-0.0938,7.9551,7.9766,-33.081,-17.273,-14.648,-170.524,-8.69,123.585
7235,0.2554,-0.2896,-1.062,18.127,3.723,2.441,-170.843,-8.806,123.904
7245,0.1426,-0.4863,-0.9058,18.127,3.723,2.441,-170.596,-8.811,123.876
7255,0.1162,-0.6724,-0.7891,22.4,-0.488,-2.686,-170.376,-8.811,123.909
7264,0.1162,-0.6724,-0.7891,14.648,0.732,-6.714,-170.239,-8.828,123.97
7275,0.1162,-0.6724,-0.7891,2.625,-1.038,-8.057,-170.222,-8.833,124.052
7285,0.2451,-0.647,-0.8799,-9.766,-4.089,-5.981,-170.332,-8.8,124.124
7295,0.333,-0.5093,-0.981,-17.334,-4.333,-3.54,-170.513,-8.767,124.162
7304,0.333,-0.5093,-0.981,-17.334,-4.333,-3.54,-170.684,-8.745,124.14
7325,0.1475,-0.3389,-1.2397,3.784,3.479,11.841,-170.695,-8.718,123.926
7334,0.1421,-0.3872,-1.2622,3.784,3.479,11.841,-170.508,-8.91,123.766
7355,0.1992,-0.4043,-0.9448,22.766,28.137,13.55,-169.986,-9.437,123.415
7365,0.0898,-0.3877,-0.6436,20.569,15.991,20.081,-169.744,-9.564,123.184
7384,-0.145,-0.4653,-0.2983,20.569,15.991,20.081,-169.552,-9.207,122.871
7394,-0.145,-0.4653,-0.2983,20.569,15.991,20.081,-169.651,-8.871,122.915
7405,0.021,-0.4609,-0.7422,-17.639,-29.236,-12.39,-169.854,-8.608,123.091
7414,0.021,-0.4609,-0.7422,-25.94,-10.193,-18.86,-170.145,-8.542,123.3
7424,0.4438,-0.1821,-1.6558,-25.94,-10.193,-18.86,-170.376,-8.663,123.387
7434,0.4106,-0.1987,-1.7798,4.456,27.161,11.475,-170.305,-8.91,123.223
7454,0.3716,-0.3486,-1.5273,56.702,39.429,40.466,-169.261,-9.575,122.382
7474,-0.0942,-0.6006,-0.4268,44.189,10.742,26.245,-168.107,-9.778,121.69
7514,0.0977,-0.541,-0.687,-38.452,-22.4,-29.053,-168.64,-9.393,122.053
7523,0.0977,-0.541,-0.687,-38.452,-22.4,-29.053,-169.08,-9.272,122.443
7544,0.4058,-0.2471,-1.6724,-2.991,-7.935,-9.705,-169.42,-9.097,122.866
7574,0.0078,-0.4302,-0.8105,36.56,15.625,33.997,-168.316,-9.267,121.91
7584,-0.1426,-0.5908,-0.4912,27.832,2.258,31.86,-167.986,-9.223,121.586
7593,-0.1387,-0.7153,-0.3853,27.832,2.258,31.86,-167.827,-9.201,121.465
7614,0.0483,-0.7056,-0.6392,-23.071,0.671,-19.226,-168.107,-9.3,121.707
7624,0.2676,-0.5415,-0.9639,-37.598,-4.272,-23.682,-168.525,-9.305,121.948
7643,0.3291,-0.3232,-1.1523,-26.917,-8.728,-9.644,-169.217,-9.229,122.25
7654,0.2144,-0.2368,-1.1631,-8.911,-6.653,-3.052,-169.316,-9.168,122.294
7664,0.1069,-0.3081,-1.064,6.836,-0.366,-1.16,-169.25,-9.168,122.305
7673,0.1069,-0.3081,-1.064,18.555,6.775,-1.221,-169.063,-9.234,122.305
7684,0.0366,-0.541,-0.9028,21.24,12.878,0.244,-168.843,-9.36,122.278
7693,0.0684,-0.561,-0.8462,13.428,11.902,0.732,-168.706,-9.476,122.245
7733,0.0776,-0.4722,-0.6318,-27.283,-29.053,-9.277,-169.272,-9.064,122.498
7763,0.1455,-0.4399,-1.2891,-24.719,-13.184,-16.724,-170.228,-8.432,123.107
7783,0.2637,-0.3984,-1.5229,-6.897,18.677,-5.31,-170.497,-8.685,123.256
7793,0.2637,-0.3984,-1.5229,-6.897,18.677,-5.31,-170.431,-8.932,123.179
7803,0.1641,-0.4087,-1.0796,21.423,26.001,10.925,-170.189,-9.174,123.025
7822,-0.0161,-0.6504,-0.2515,21.423,26.001,10.925,-169.481,-9.366,122.706
7843,0.0337,-0.6572,-0.2114,-7.446,-38.452,-3.418,-169.398,-8.828,122.772
7873,0.2168,-0.2549,-1.3086,-47.852,-26.733,-14.832,-170.733,-7.811,123.393
7902,0.2065,-0.1543,-1.6436,-5.798,16.174,3.418,-170.936,-8.163,123.278
7913,0.124,-0.2065,-1.2319,34.363,27.954,12.878,-170.568,-8.421,123.102
7932,-0.0254,-0.3369,-0.7378,43.091,12.939,11.78,-169.607,-8.734,122.767
7953,0.0415,-0.6709,-0.3369,-4.883,-16.968,-12.085,-169.475,-8.547,122.932
8012,0.3286,-0.3232,-1.3794,-34.241,-13.0,-13.916,-171.013,-7.861,123.75
8022,0.1245,-0.3511,-1.0,-34.241,-13.0,-13.916,-170.651,-7.855,123.525
8052,0.063,-0.4805,-0.8613,9.827,15.259,0.732,-169.915,-8.113,123.179
8062,0.0874,-0.584,-0.8853,-5.676,11.169,-3.784,-169.975,-8.229,123.195
8082,0.0767,-0.4404,-0.9297,-17.395,-5.554,-0.854,-170.321,-8.207,123.25
8102,0.0483,-0.2402,-1.083,1.099,-0.305,-3.479,-170.425,-8.13,123.305
8122,0.2227,-0.4556,-1.0093,1.099,-0.305,-3.479,-170.101,-8.564,123.36
8132,0.2378,-0.604,-0.8901,22.766,25.818,-3.174,-169.871,-8.822,123.349
8142,0.1943,-0.6655,-0.7446,16.235,13.794,1.404,-169.7,-8.954,123.311
8161,0.1943,-0.6655,-0.7446,-7.874,-17.395,7.385,-169.722,-8.74,123.217
8172,0.0474,-0.4067,-0.6289,-7.874,-17.395,7.385,-169.898,-8.465,123.223
8182,0.1123,-0.3755,-0.8555,-23.254,-19.592,-1.587,-170.134,-8.278,123.272
8191,0.1123,-0.3755,-0.8555,-23.254,-3.174,-5.92,-170.376,-8.256,123.338
8212,0.1953,-0.3828,-1.4048,-3.479,17.517,-2.563,-170.579,-8.542,123.382
8231,0.1162,-0.3647,-1.1484,-3.479,17.517,-2.563,-170.261,-8.97,123.234
8252,0.0771,-0.4229,-0.9287,26.978,22.4,9.338,-169.684,-9.355,122.986
8271,0.0771,-0.4229,-0.9287,14.282,31.006,1.526,-169.305,-9.926,122.8
8281,0.1304,-0.5757,-0.5469,14.282,31.006,1.526,-169.184,-10.173,122.75
8291,0.1099,-0.6567,-0.4482,4.395,10.742,-0.122,-169.135,-10.278,122.734
8301,0.1099,-0.6567,-0.4482,-7.385,-6.714,-1.282,-169.217,-10.212,122.756
8321,0.1958,-0.373,-1.0806,-30.029,-24.78,-4.333,-169.744,-9.772,122.915
8361,0.1875,-0.3643,-1.3037,36.072,41.199,12.451,-169.579,-10.382,122.585
8381,0.1353,-0.5059,-0.8389,36.072,41.199,12.451,-168.481,-11.03,122.097
8391,0.0532,-0.6279,-0.1729,29.114,5.493,17.395,-168.151,-11.052,121.915
8421,0.0654,-0.5601,-0.1089,-0.854,-20.02,9.216,-168.86,-10.118,122.141
8431,0.1899,-0.373,-1.0752,-48.279,-33.386,-19.348,-169.387,-9.827,122.399
8471,0.3379,-0.2813,-1.5581,32.166,38.757,9.094,-169.645,-10.151,122.465
8490,0.0215,-0.6748,-0.542,32.166,38.757,9.094,-168.547,-10.838,121.965
8500,0.0215,-0.6748,-0.542,32.166,38.757,9.094,-168.168,-10.876,121.75
8520,-0.0801,-0.7817,-0.1475,32.166,38.757,9.094,-168.294,-10.316,121.794
8530,-0.0801,-0.7817,-0.1475,-35.583,-37.292,-18.127,-168.695,-9.987,122.047
8540,-0.0801,-0.7817,-0.1475,-42.297,-28.809,-29.114,-169.178,-9.761,122.399
8551,0.3599,-0.4155,-1.2344,-39.124,-21.118,-28.198,-169.623,-9.608,122.717
8570,0.3442,-0.3062,-1.6094,-7.996,-1.099,3.601,-169.997,-9.47,122.855
8580,0.2793,-0.2979,-1.4648,10.193,11.597,15.198,-169.865,-9.558,122.684
8600,-0.02,-0.4233,-0.9023,29.968,11.108,20.508,-169.239,-9.739,122.223
8620,-0.04,-0.5229,-0.6597,13.428,7.08,4.883,-168.832,-9.86,122.003
8640,0.001,-0.5078,-0.647,-6.409,-2.502,-8.972,-168.887,-9.893,122.13
8660,0.123,-0.394,-0.7676,-13.794,-19.287,-8.301,-169.184,-9.651,122.371
8669,0.123,-0.394,-0.7676,-13.794,-19.287,-8.301,-169.36,-9.377,122.487
8681,0.1304,-0.2715,-1.1484,-15.442,-24.719,-5.066,-169.53,-9.141,122.585
8690,0.1304,-0.2715,-1.1484,-11.353,-8.972,-5.737,-169.656,-9.064,122.657
8709,0.2202,-0.3003,-1.2275,-1.648,10.132,-6.531,-169.755,-9.24,122.756
8720,0.1245,-0.5181,-0.7212,1.038,0.61,-7.385,-169.755,-9.261,122.827
8730,0.1245,-0.5181,-0.7212,-2.075,-15.076,-10.315,-169.799,-9.13,122.959
8749,0.1909,-0.5454,-0.4741,-18.86,-30.212,-7.385,-170.107,-8.63,123.228
8759,0.2212,-0.4312,-0.5869,-35.828,-40.894,-3.113,-170.48,-8.229,123.333
8770,0.2109,-0.334,-0.7725,-54.993,-52.429,-1.465,-171.046,-7.712,123.431
8779,0.1089,-0.2173,-1.0,-64.819,-55.725,-1.648,-171.705,-7.169,123.536
8799,-0.0078,-0.2422,-1.5239,-30.151,-23.865,-0.732,-172.568,-6.465,123.668
8819,0.0586,-0.3545,-1.5308,15.381,18.616,2.014,-172.458,-6.674,123.602
8829,0.0586,-0.3545,-1.5308,15.381,18.616,2.014,-172.161,-6.899,123.563
8839,0.1484,-0.6099,-1.1138,15.381,18.616,2.014,-171.832,-7.108,123.536
8859,0.1768,-0.6519,-0.873,26.611,15.442,0.732,-171.37,-7.311,123.47
8879,0.1152,-0.6147,-0.666,-3.54,-10.254,2.258,-171.315,-7.152,123.426
8928,0.1602,-0.2773,-1.2134,3.601,14.771,0.671,-171.755,-7.207,123.508
8939,0.0981,-0.3003,-1.1782,12.512,20.325,3.418,-171.623,-7.405,123.448
8949,0.0981,-0.3003,-1.1782,12.512,20.325,3.418,-171.491,-7.603,123.382
8968,0.0625,-0.3613,-1.022,12.512,20.325,3.418,-171.079,-8.053,123.239
8989,0.1118,-0.4331,-0.7563,19.958,24.414,3.174,-170.623,-8.564,123.091
9008,0.1387,-0.4727,-0.71,2.502,11.23,-2.441,-170.48,-8.844,123.058
9038,0.1499,-0.4121,-0.8418,-8.728,8.789,-4.028,-170.684,-9.108,123.113
9048,0.0908,-0.2603,-0.6846,-8.728,8.789,-4.028,-170.689,-9.146,123.074
9058,0.0474,-0.291,-0.6338,-8.728,8.789,-4.028,-170.711,-9.113,123.041
9078,0.0928,-0.3467,-0.6797,-8.728,8.789,-4.028,-171.172,-8.866,123.14
9088,0.0928,-0.3467,-0.6797,-43.03,-17.517,-10.01,-171.623,-8.707,123.267
9098,0.084,-0.2651,-1.3057,-46.021,-20.569,-9.766,-172.101,-8.514,123.393
9118,0.0791,-0.2734,-1.249,-3.967,-0.427,-6.226,-172.48,-8.355,123.563
9138,0.1978,-0.5493,-0.855,31.921,19.226,-5.188,-171.958,-8.74,123.613
9158,0.313,-0.7026,-0.8672,31.921,19.226,-5.188,-171.639,-8.943,123.646
9168,0.2798,-0.606,-0.9795,31.921,19.226,-5.188,-171.733,-8.932,123.596
9178,0.208,-0.4985,-1.1025,-20.508,-8.057,9.705,-171.925,-8.839,123.508
9187,0.208,-0.4985,-1.1025,-18.188,-9.644,11.108,-172.09,-8.723,123.409
9198,0.208,-0.4985,-1.1025,-3.601,-0.854,10.193,-172.112,-8.701,123.311
9208,0.1006,-0.3154,-1.0591,16.418,14.771,10.071,-171.931,-8.839,123.19
9248,0.0283,-0.4502,-0.7964,6.531,1.221,11.23,-170.892,-9.322,122.613
9278,0.0127,-0.3101,-1.0942,-13.062,-3.601,-0.854,-171.194,-9.256,122.64
9307,0.0552,-0.3223,-1.1343,15.503,18.738,-11.292,-170.991,-9.679,122.926
9328,0.2231,-0.4917,-1.0928,17.883,24.048,-7.019,-170.365,-10.162,123.014
9347,0.2231,-0.4917,-1.0928,17.883,24.048,-7.019,-169.629,-10.64,122.97
9377,0.2329,-0.5068,-0.708,15.442,19.836,1.16,-168.398,-11.36,122.811
9387,0.2329,-0.5068,-0.708,15.442,19.836,1.16,-168.014,-11.64,122.745
9417,0.271,-0.5234,-0.6895,-10.925,-3.967,8.789,-167.41,-11.832,122.531
9437,0.0435,-0.3643,-0.8628,-15.808,-16.174,8.118,-167.437,-11.376,122.415
9457,0.0435,-0.3643,-0.8628,-15.808,-16.174,8.118,-167.585,-11.014,122.454
9467,0.1602,-0.3135,-1.2026,-5.493,-3.357,-4.395,-167.629,-10.959,122.503
9486,0.1777,-0.332,-1.1826,0.732,0.122,-3.479,-167.476,-10.926,122.536
9507,0.0859,-0.4448,-0.8691,15.808,5.371,5.615,-166.954,-10.882,122.426
9526,0.0972,-0.4541,-0.7085,15.808,5.371,5.615,-166.091,-10.854,122.272
9547,0.1699,-0.5513,-0.5029,0.0,-21.667,2.014,-165.306,-10.53,122.283
9566,0.2852,-0.4351,-0.9404,0.0,-21.667,2.014,-165.399,-9.97,122.41
9596,0.1753,-0.0967,-1.5332,-12.329,-15.32,21.118,-166.317,-9.009,122.141
9606,0.1753,-0.0967,-1.5332,-12.329,-15.32,21.118,-166.146,-9.08,121.921
9666,0.0605,-0.6953,-0.2783,-2.014,-17.456,-2.563,-164.745,-9.415,121.492
9677,0.0605,-0.6953,-0.2783,-34.363,-37.964,-18.616,-165.136,-9.097,121.772
9686,0.0605,-0.6953,-0.2783,-38.757,-32.349,-20.325,-165.569,-8.833,122.058
9706,0.3921,-0.3354,-1.3789,-13.55,-16.052,8.667,-166.036,-8.454,122.168
9726,0.1055,-0.2988,-1.2578,22.705,10.437,23.071,-165.69,-8.421,121.718
9746,-0.0093,-0.3623,-0.9834,31.799,13.55,18.677,-165.059,-8.569,121.366
9766,-0.0781,-0.4707,-0.6616,-3.601,-2.502,-4.578,-164.982,-8.58,121.371
9786,-0.0093,-0.4409,-0.7583,-24.78,-7.446,-17.09,-165.443,-8.52,121.696
9825,0.1567,-0.3345,-1.0107,4.028,-3.906,-7.202,-165.888,-8.366,122.261
9836,0.2056,-0.5938,-0.8032,1.16,-6.042,-5.249,-165.888,-8.317,122.327
9855,0.2065,-0.5942,-0.8711,-20.325,-16.418,-2.441,-166.201,-8.069,122.454
9865,0.1914,-0.522,-1.0132,-31.372,-18.799,-1.77,-166.52,-7.894,122.514
9876,0.1802,-0.4136,-1.1772,-35.4,-18.494,-0.916,-166.882,-7.718,122.569
9895,0.1802,-0.4136,-1.1772,-13.916,-3.052,3.967,-167.305,-7.548,122.552
9916,0.0386,-0.4146,-0.9712,14.893,15.137,4.333,-167.113,-7.756,122.404
9935,0.0386,-0.4146,-0.9712,14.832,12.329,-1.221,-166.756,-8.031,122.333
9945,0.0757,-0.5488,-0.7427,4.7,6.958,-6.287,-166.718,-8.113,122.377
9965,0.1914,-0.4971,-0.8394,-10.681,-0.244,-11.23,-166.899,-8.19,122.58
9975,0.1914,-0.4971,-0.8394,-13.977,-2.991,-9.277,-167.053,-8.179,122.679
9985,0.207,-0.4287,-1.0791,-13.306,-7.263,-4.578,-167.19,-8.119,122.739
10015,0.0767,-0.3467,-1.3076,-6.042,-6.958,0.977,-167.003,-8.185,122.58
10025,0.0762,-0.3257,-1.168,28.198,24.841,7.568,-166.707,-8.41,122.448
10045,0.0762,-0.3257,-1.168,30.09,24.841,5.127,-166.031,-8.893,122.201
10055,0.0762,-0.3257,-1.168,30.09,24.841,5.127,-165.817,-9.08,122.151
10065,0.0527,-0.5151,-0.5601,30.09,24.841,5.127,-165.723,-9.201,122.184
10074,0.0854,-0.5391,-0.5869,-1.221,4.028,-12.573,-165.751,-9.267,122.294
10095,0.2573,-0.4922,-0.9204,-17.639,0.0,-23.193,-166.113,-9.371,122.717
10124,0.2612,-0.252,-1.2642,-12.329,2.93,-7.446,-166.454,-9.569,122.888
10135,0.1802,-0.311,-1.1436,14.587,19.897,11.414,-166.284,-9.734,122.728
10154,0.0479,-0.4834,-0.8467,14.587,19.897,11.414,-165.663,-10.206,122.36
10175,0.1211,-0.3716,-0.772,4.272,18.005,2.625,-165.399,-10.596,122.162
10194,0.1211,-0.3716,-0.772,4.272,18.005,2.625,-165.52,-10.844,122.08
10234,0.1108,-0.5259,-0.7368,-3.296,3.296,0.488,-164.773,-10.822,121.954
10244,0.1108,-0.5259,-0.7368,-3.296,3.296,0.488,-164.828,-10.876,121.937
10264,0.3247,-0.3789,-1.3477,-5.005,11.169,16.785,-164.976,-11.019,121.657
10274,0.1646,-0.3579,-1.395,8.423,15.747,26.123,-164.844,-11.058,121.36
10284,0.0327,-0.3984,-1.2998,20.447,21.606,30.518,-164.553,-11.085,121.003
10304,-0.0532,-0.4937,-0.9565,20.447,21.606,30.518,-163.625,-11.239,120.372
10324,0.0786,-0.5913,-0.6279,30.273,35.706,0.916,-162.477,-11.706,120.059
10344,0.144,-0.6431,-0.4458,15.32,14.16,-8.24,-161.224,-12.14,120.053
10354,0.1797,-0.7007,-0.2524,-1.282,-5.676,-10.925,-160.746,-12.134,120.179
10364,0.1836,-0.6377,-0.3555,-18.616,-26.123,-13.733,-160.565,-11.953,120.399
10384,0.2217,-0.5088,-0.6357,-31.677,-44.739,-12.939,-161.098,-11.327,120.965
10394,0.3716,-0.1787,-1.3882,-19.592,-32.043,-2.502,-161.433,-11.069,121.097
10413,0.3716,-0.1787,-1.3882,12.878,1.587,18.738,-161.285,-10.833,120.861
10423,0.1323,-0.2705,-1.4072,24.902,23.56,20.02,-160.983,-10.992,120.586
10434,0.0293,-0.3911,-1.1001,28.931,36.743,15.564,-160.642,-11.288,120.317
10443,0.0293,-0.3911,-1.1001,28.931,36.743,15.564,-160.334,-11.596,120.108
10463,0.0117,-0.5449,-0.2871,9.888,14.282,-5.005,-160.01,-11.997,119.993
10483,0.0586,-0.5728,-0.1729,-18.982,-26.611,-20.081,-160.313,-11.805,120.41
10503,0.2993,-0.6421,-0.7793,-42.419,-55.969,-29.602,-161.257,-11.041,121.306
10523,0.2344,-0.3755,-1.5796,-42.419,-55.969,-29.602,-162.054,-9.987,121.97
10533,0.2212,-0.2939,-1.6875,-42.419,-55.969,-29.602,-162.18,-9.619,122.08
10552,0.2075,-0.2656,-1.6382,10.254,-4.272,4.639,-161.829,-9.69,121.954
10563,0.2075,-0.2656,-1.6382,22.766,14.404,3.113,-161.587,-9.816,121.877
10573,0.2075,-0.2656,-1.6382,22.766,14.404,3.113,-161.4,-9.877,121.855
10592,-0.043,-0.5415,-0.5972,5.432,-7.568,-8.24,-161.241,-9.849,121.981
10603,0.1162,-0.5386,-0.4214,-3.174,-21.851,-14.038,-161.307,-9.684,122.19
10613,0.1611,-0.4854,-0.4927,-3.174,-21.851,-14.038,-161.472,-9.415,122.459
10632,0.2466,-0.4365,-0.8984,-14.16,-42.419,-11.169,-161.862,-8.701,122.997
10653,0.2139,-0.4194,-1.2993,-6.409,-30.64,5.066,-162.048,-8.058,123.179
10662,0.2139,-0.4194,-1.2993,-6.409,-30.64,5.066,-162.054,-7.828,123.157
10683,0.1919,-0.3652,-1.3931,13.123,9.155,12.146,-161.829,-7.795,122.915
10702,0.1328,-0.4688,-1.2432,17.517,19.409,13.367,-161.367,-8.163,122.459
10712,0.1328,-0.4688,-1.2432,17.517,19.409,13.367,-161.021,-8.481,122.075
10722,0.1387,-0.4966,-1.2349,31.677,49.255,32.532,-160.631,-8.839,121.602
10742,0.1968,-0.5054,-1.1348,31.677,49.255,32.532,-159.807,-9.684,120.558
10752,0.0039,-0.6138,-0.4756,31.677,49.255,32.532,-159.379,-10.036,120.081
10762,-0.127,-0.668,-0.2354,26.428,24.292,24.17,-159.06,-10.179,119.762
10782,-0.2285,-0.6479,-0.0566,-0.488,-20.691,-4.639,-158.917,-9.959,119.773
10792,-0.2285,-0.6479,-0.0566,-14.038,-38.33,-21.667,-159.115,-9.679,120.114
10802,0.0996,-0.5186,-0.4805,-25.757,-48.645,-34.485,-159.461,-9.349,120.619
10822,0.4141,-0.2852,-1.1753,-25.757,-48.645,-34.485,-160.455,-8.707,121.652
10832,0.4814,-0.252,-1.4375,-27.527,-31.86,-12.939,-160.768,-8.448,121.882
10872,-0.041,-0.3472,-1.2686,25.146,12.024,27.283,-160.241,-7.899,121.075
10921,-0.1074,-0.5322,-0.3857,10.254,2.136,-18.372,-159.543,-8.372,121.234
10931,0.0884,-0.6333,-0.5425,-12.085,-17.334,-36.377,-159.725,-8.333,121.641
10942,0.0884,-0.6333,-0.5425,-18.921,-22.339,-37.354,-159.977,-8.256,122.069
10952,0.3003,-0.46,-0.9155,-21.24,-23.193,-32.898,-160.241,-8.152,122.465
10971,0.355,-0.3364,-1.1997,-9.644,-16.418,-15.259,-160.582,-7.927,122.97
10982,0.3115,-0.3379,-1.293,-2.075,-6.104,-5.371,-160.609,-7.888,123.041
11011,0.0747,-0.4443,-1.1543,12.085,17.883,-0.366,-160.373,-8.157,122.91
11021,0.0469,-0.4883,-0.9307,21.851,24.353,-5.005,-160.153,-8.405,122.877
11031,0.062,-0.5674,-0.7617,21.851,24.353,-5.005,-159.873,-8.701,122.86
11041,0.062,-0.5674,-0.7617,25.696,27.771,-9.033,-159.615,-8.992,122.849
11051,0.062,-0.5674,-0.7617,17.395,20.447,-7.141,-159.439,-9.212,122.844
11061,0.1318,-0.5894,-0.8994,6.653,13.062,-5.676,-159.373,-9.349,122.849
11071,0.1318,-0.5894,-0.8994,0.488,17.029,-4.883,-159.368,-9.531,122.838
11081,0.3066,-0.5122,-1.1382,4.272,28.748,-0.671,-159.307,-9.8,122.739
11091,0.3315,-0.4961,-1.0845,4.272,28.748,-0.671,-159.159,-10.096,122.563
11101,0.3052,-0.5503,-0.958,18.005,30.151,11.719,-158.945,-10.338,122.344
11121,0.3052,-0.5503,-0.958,21.179,19.226,25.33,-158.412,-10.602,121.761
11131,0.0986,-0.5171,-0.1577,13.123,2.441,27.893,-158.231,-10.519,121.492
11171,0.144,-0.3057,-1.0327,-46.936,-68.909,-0.916,-159.637,-8.448,122.02
11180,0.144,-0.3057,-1.0327,-46.936,-68.909,-0.916,-160.219,-8.152,122.25
11190,0.144,-0.3057,-1.0327,-30.579,-15.32,3.113,-160.527,-7.998,122.272
11201,0.2046,-0.1274,-1.9526,5.798,6.592,15.93,-160.444,-8.009,122.097
11241,-0.0913,-0.645,-0.3052,70.679,56.152,19.287,-157.643,-9.542,120.784
11250,-0.0913,-0.645,-0.3052,44.434,13.611,5.31,-157.181,-9.646,120.685
11270,-0.0601,-0.7695,-0.0391,-12.146,-28.442,-18.005,-157.22,-9.388,121.064
11281,0.0239,-0.7178,-0.3022,-32.41,-46.875,-30.029,-157.621,-9.075,121.531
11300,0.2549,-0.626,-0.854,-37.476,-38.147,-27.771,-158.571,-8.503,122.476
11310,0.4263,-0.2529,-1.7622,-18.982,-24.841,-0.793,-158.78,-8.278,122.574
11320,0.3662,-0.1616,-1.8242,3.662,-8.728,24.353,-158.714,-8.108,122.377
11330,0.3789,-0.2158,-1.6074,29.907,19.47,36.682,-158.357,-8.157,121.965
11340,0.3789,-0.2158,-1.6074,45.349,40.1,37.17,-157.83,-8.388,121.465
11360,0.3789,-0.2158,-1.6074,25.818,-0.916,12.634,-157.088,-8.481,121.003
11370,-0.2617,-0.6465,-0.0547,9.705,-21.118,-0.732,-157.006,-8.289,121.091
11390,-0.1357,-0.7349,-0.3228,-9.644,-34.729,-15.686,-157.549,-7.696,121.849
11410,0.3687,-0.4351,-1.4849,-47.302,-27.832,-37.537,-158.692,-7.267,122.915
11460,0.0669,-0.6494,-0.6689,42.969,38.33,16.541,-157.055,-8.443,122.014
11470,-0.0986,-0.6831,-0.313,36.987,18.372,7.629,-156.665,-8.586,121.871
11479,-0.0986,-0.6831,-0.313,12.085,-7.141,-0.122,-156.55,-8.52,121.904
11489,-0.0986,-0.6831,-0.313,-12.024,-22.4,-10.071,-156.698,-8.355,122.086
11500,0.0093,-0.5542,-0.1479,-12.024,-22.4,-10.071,-157.094,-8.069,122.465
11519,0.1699,-0.5322,-0.5562,-54.321,-37.842,-36.743,-158.297,-7.542,123.486
11529,0.2427,-0.2588,-1.5508,-54.321,-37.842,-36.743,-158.747,-7.388,123.799
11540,0.2427,-0.2588,-1.5508,-17.212,-13.184,-4.333,-158.934,-7.278,123.893
11559,0.2427,-0.2588,-1.5508,-17.212,-13.184,-4.333,-158.236,-7.861,123.475
11580,0.0493,-0.6387,-0.4556,46.753,49.561,-14.465,-157.115,-8.97,123.157
11589,0.0493,-0.6387,-0.4556,24.414,32.959,-27.649,-156.896,-9.382,123.283
11599,0.0693,-0.8437,-0.2266,0.854,13.306,-33.63,-156.929,-9.635,123.547
11649,0.3066,-0.1489,-1.5225,-13.367,7.263,-36.133,-158.302,-9.893,125.458
11689,0.2461,-0.8892,-0.6978,21.912,28.931,-8.057,-156.616,-12.354,125.046
11729,0.3882,-0.1978,-1.0718,-6.287,20.081,-5.737,-157.061,-12.612,125.272
11738,0.3882,-0.1978,-1.0718,-6.287,20.081,-5.737,-156.896,-12.838,125.123
11749,0.3882,-0.1978,-1.0718,-6.287,20.081,-5.737,-156.544,-13.085,124.832
11759,0.1353,-0.5933,-0.9175,32.715,37.17,25.208,-156.132,-13.326,124.442
11769,0.0459,-0.6992,-0.8599,25.696,31.616,25.452,-155.786,-13.513,124.069
11778,0.0664,-0.6079,-0.7407,15.015,17.212,19.287,-155.577,-13.59,123.816
11788,0.1187,-0.5107,-0.5649,15.015,17.212,19.287,-155.468,-13.689,123.64
11809,0.1782,-0.4697,-0.46,-11.23,8.484,-7.874,-155.61,-13.991,123.569
11839,0.2012,-0.5947,-0.6782,-12.329,-3.357,-13.489,-156.143,-14.062,124.019
11858,0.2012,-0.5947,-0.6782,-12.329,-3.357,-13.489,-156.11,-14.106,124.052
11868,0.4082,-0.334,-1.5425,-12.329,-3.357,-13.489,-155.912,-14.293,123.827
11888,0.4102,-0.3369,-1.2744,28.259,51.697,25.513,-155.193,-14.974,123.003
11898,-0.0791,-0.6299,-0.3721,27.954,43.64,28.503,-154.792,-15.249,122.547
11928,-0.0713,-0.8394,-0.1157,27.954,43.64,28.503,-154.973,-15.117,122.454
11938,0.189,-0.5313,-0.7998,-32.043,-35.156,-29.846,-155.407,-14.925,122.888
11948,0.189,-0.5313,-0.7998,-19.714,-20.691,-37.659,-155.72,-14.897,123.327
11968,0.5645,-0.2939,-1.6621,35.889,44.861,3.357,-155.292,-15.54,123.25
11978,0.5645,-0.2939,-1.6621,54.382,61.646,26.367,-154.611,-15.991,122.734
11988,0.2671,-0.5269,-1.1436,64.392,69.214,44.006,-153.765,-16.425,122.009
12008,-0.0854,-0.5923,-0.2051,58.594,77.759,49.377,-152.468,-17.183,120.608
12018,-0.0845,-0.624,-0.1216,58.594,77.759,49.377,-152.358,-17.254,120.438
12058,0.5122,-0.7056,-1.0854,33.203,23.987,-9.094,-152.084,-18.468,120.795
12068,0.4028,-0.5913,-1.1685,40.466,6.348,15.137,-151.622,-18.452,120.624
12077,0.3281,-0.5229,-1.1719,39.49,6.897,31.921,-151.122,-18.358,120.295
12098,0.1533,-0.6143,-0.707,20.996,12.146,27.954,-150.32,-18.292,119.531
12117,0.2285,-0.7793,-0.4551,-11.78,-3.235,-14.771,-150.419,-18.353,119.619
12138,0.291,-0.731,-0.8398,-25.452,-35.706,-27.893,-151.161,-18.111,120.421
12178,0.457,-0.5259,-1.0381,10.864,-8.728,31.433,-150.925,-17.452,120.267
12187,0.457,-0.5259,-1.0381,3.662,-2.136,34.119,-150.798,-17.265,119.965
12207,-0.0181,-0.5415,-0.8911,-7.813,-5.432,28.931,-150.963,-16.919,119.608
12227,-0.1396,-0.4673,-0.8115,-10.864,-1.221,-9.583,-151.282,-16.891,119.68
12247,0.2319,-0.5776,-0.2393,-3.296,1.587,-22.888,-151.441,-17.139,120.196
12267,0.3418,-0.6763,-0.3135,-7.08,-35.767,-33.203,-151.776,-16.99,121.113
12287,0.4863,-0.6489,-1.0527,-16.113,-32.349,-10.254,-152.276,-16.49,121.783
12307,0.3359,-0.3608,-1.6406,12.512,11.841,14.709,-152.144,-16.403,121.591
12317,0.2798,-0.3623,-1.1978,12.512,11.841,14.709,-151.831,-16.611,121.267
12336,-0.0293,-0.6528,-0.0991,11.78,24.048,13.428,-151.309,-17.018,120.657
12366,0.0469,-0.8247,0.1851,-25.085,-29.114,-14.099,-152.292,-16.452,121.454
12376,0.0469,-0.8247,0.1851,-52.734,-72.205,-37.781,-153.018,-15.991,122.151
12397,0.4155,-0.6377,-1.0,-15.137,-43.213,-24.353,-153.858,-15.298,123.234
12406,0.4155,-0.6377,-1.0,-15.137,-43.213,-24.353,-153.781,-15.216,123.245
12416,0.4155,-0.6377,-1.0,17.883,28.564,27.832,-153.501,-15.348,122.86
12426,0.4155,-0.6377,-1.0,12.39,32.532,39.185,-153.237,-15.463,122.344
12446,0.1851,-0.3271,-1.126,12.39,32.532,39.185,-153.16,-15.463,121.646
12456,-0.1304,-0.5601,-0.1733,-19.287,-1.526,8.606,-153.336,-15.408,121.575
12466,-0.0361,-0.7051,-0.0742,-19.226,-6.714,-6.592,-153.556,-15.375,121.668
12476,-0.0361,-0.7051,-0.0742,-19.226,-6.714,-6.592,-153.918,-15.244,121.948
12506,0.2734,-0.6396,-0.7671,-27.527,-46.265,-28.748,-155.457,-14.194,123.481
12515,0.2734,-0.6396,-0.7671,0.0,-19.47,-13.0,-155.506,-14.068,123.69
12526,0.2734,-0.6396,-0.7671,0.0,-19.47,-13.0,-155.275,-14.068,123.662
12555,0.3315,-0.5381,-1.123,24.109,36.438,30.212,-154.028,-14.705,122.525
12566,0.0547,-0.6724,-0.4419,24.109,36.438,30.212,-153.962,-14.694,122.25
12576,0.0264,-0.7227,-0.3335,24.109,36.438,30.212,-154.111,-14.535,122.206
12595,0.1206,-0.6846,-0.4341,-20.02,-17.151,-18.311,-154.6,-14.332,122.574
12616,0.4053,-0.5767,-0.9863,-19.104,-20.142,-28.931,-155.05,-14.249,123.223
12635,0.3721,-0.4692,-1.1987,-19.104,-20.142,-28.931,-155.023,-14.073,123.25
12666,0.1641,-0.3579,-1.1035,15.808,15.076,25.574,-154.402,-14.145,122.454
12675,0.1641,-0.3579,-1.1035,15.808,15.076,25.574,-154.243,-14.321,122.25
12685,0.1641,-0.3579,-1.1035,6.714,26.123,3.418,-154.144,-14.546,122.102
12705,0.123,-0.6948,-0.3735,-7.019,-1.648,-3.906,-154.188,-14.7,122.075
12725,0.124,-0.6826,-0.3398,-18.982,-33.325,-12.878,-154.638,-14.31,122.503
12745,0.3218,-0.6079,-0.7002,-14.587,-35.278,-16.235,-155.006,-13.876,123.052
12755,0.3218,-0.6079,-0.7002,0.061,-9.705,1.77,-155.012,-13.782,123.074
12765,0.4263,-0.4395,-1.6343,9.033,3.906,23.743,-154.869,-13.716,122.838
12785,0.4263,-0.4395,-1.6343,18.494,39.734,44.434,-154.292,-13.898,121.805
12835,0.0859,-0.6865,0.1069,11.536,14.099,-7.263,-152.732,-15.271,120.092
12854,0.0859,-0.6865,0.1069,11.536,14.099,-7.263,-153.358,-14.98,120.8
12875,0.5254,-0.5713,-1.248,-42.969,-51.331,-38.086,-154.314,-14.431,121.844
12894,0.458,-0.4199,-1.6514,19.897,-15.015,18.677,-154.138,-13.925,121.932
12915,0.3164,-0.3857,-1.3047,36.133,57.251,47.546,-153.144,-14.315,120.762
12945,-0.1914,-0.6841,-0.2998,-12.573,-1.465,4.272,-152.924,-14.425,119.817
12964,-0.019,-0.8472,-0.1611,-12.573,-1.465,4.272,-153.446,-14.409,120.361
12974,-0.019,-0.8472,-0.1611,-31.677,-34.119,-35.522,-153.886,-14.266,120.844
12984,-0.019,-0.8472,-0.1611,-15.137,-19.165,-20.63,-154.105,-14.183,121.124
13024,0.2676,-0.5518,-1.2603,23.621,25.452,27.222,-153.254,-14.019,120.311
13044,0.2676,-0.5518,-1.2603,-5.188,2.319,7.874,-153.127,-14.084,119.976
13074,0.1968,-0.6548,-0.46,-11.414,-0.732,-1.831,-153.485,-14.194,120.185
13084,0.1968,-0.6548,-0.46,-11.414,-0.732,-1.831,-153.666,-14.183,120.361
13104,0.2637,-0.4829,-0.7651,-23.621,-23.926,1.343,-154.138,-13.881,120.586
13114,0.1914,-0.4478,-0.9019,-21.729,-35.767,5.676,-154.38,-13.535,120.69
13134,0.189,-0.4316,-1.1123,-2.136,4.211,3.723,-154.528,-13.337,120.69
13153,0.1455,-0.2925,-1.4229,-2.136,4.211,3.723,-154.325,-13.843,120.405
13174,0.1431,-0.5093,-0.8105,19.531,61.89,-4.028,-153.886,-14.87,119.971
13183,0.1431,-0.5093,-0.8105,19.531,61.89,-4.028,-153.605,-15.37,119.762
13204,0.1357,-0.7773,-0.2593,2.136,9.338,2.075,-153.358,-15.727,119.559
13223,0.1528,-0.7256,-0.2339,2.136,9.338,2.075,-153.88,-15.337,119.8
13233,0.3066,-0.6094,-0.7393,-30.518,-33.875,-8.179,-154.248,-15.073,120.031
13263,0.3779,-0.4023,-1.4355,16.174,-4.822,14.038,-154.369,-14.557,120.196
13283,0.3081,-0.4316,-1.4868,39.185,49.866,33.264,-153.435,-14.98,119.301
13303,0.3081,-0.4316,-1.4868,39.185,49.866,33.264,-152.441,-15.601,118.163
13323,-0.0913,-0.6406,-0.2578,8.24,16.968,11.108,-151.985,-15.936,117.559
13333,-0.0913,-0.6406,-0.2578,-5.432,-2.747,-4.272,-152.056,-15.93,117.614
13343,-0.0298,-0.6064,-0.1567,-13.245,-12.024,-18.616,-152.249,-15.908,117.845
13353,0.127,-0.6523,-0.2197,-13.245,-12.024,-18.616,-152.529,-15.925,118.229
13363,0.3467,-0.6587,-0.3916,-19.165,-18.005,-42.48,-152.853,-15.963,118.713
13383,0.3467,-0.6587,-0.3916,-17.151,-24.902,-40.283,-153.408,-15.776,119.586
13403,0.5195,-0.4868,-1.6533,-4.883,-18.738,22.339,-153.567,-15.276,119.603
13433,0.1772,-0.4404,-1.4028,13.733,37.903,30.579,-153.034,-15.375,118.361
13452,-0.1006,-0.6123,-0.2026,13.245,26.001,10.742,-152.551,-15.793,117.746
13463,-0.0454,-0.6753,-0.0571,2.441,6.042,-4.578,-152.529,-15.87,117.757
13482,0.0723,-0.7153,-0.1719,-25.208,-28.259,-32.776,-153.083,-15.743,118.438
13492,0.0723,-0.7153,-0.1719,-30.579,-34.363,-40.466,-153.534,-15.623,118.971
13513,0.5835,-0.4829,-1.2285,-7.935,-31.738,-16.846,-154.045,-15.282,119.745
13532,0.4419,-0.4185,-1.5146,-7.935,-31.738,-16.846,-153.847,-14.821,119.663
13543,0.4419,-0.4185,-1.5146,19.409,13.184,33.142,-153.561,-14.793,119.295
13602,0.1436,-0.6172,-0.4185,6.042,18.616,10.071,-153.248,-15.227,118.735
13642,0.2891,-0.6416,-0.6069,-12.817,-17.517,-25.391,-154.078,-14.815,119.916
13672,0.3472,-0.4644,-1.3262,-11.108,-0.549,0.549,-154.512,-14.464,120.207
13682,0.2578,-0.4282,-1.2031,-6.714,12.329,4.333,-154.556,-14.557,120.114
13692,0.2578,-0.4282,-1.2031,-4.639,17.151,6.104,-154.567,-14.689,119.982
13781,0.4893,-0.5386,-1.2495,14.832,4.883,5.737,-155.165,-14.952,120.668
13791,0.3584,-0.5796,-1.3047,14.832,4.883,5.737,-154.814,-15.007,120.262
13802,0.3584,-0.5796,-1.3047,17.639,22.827,38.147,-154.523,-15.051,119.8
13831,-0.0483,-0.5464,-0.6558,9.644,16.602,28.442,-153.984,-15.15,118.806
13842,-0.0483,-0.5464,-0.6558,0.427,4.822,3.357,-153.962,-15.178,118.751
13861,-0.0483,-0.5464,-0.6558,-9.277,-5.737,-11.719,-154.358,-15.156,119.185
13882,0.2754,-0.6816,-0.5527,-26.733,-29.48,-30.457,-155.083,-14.958,120.009
13891,0.4922,-0.4893,-1.2295,-26.733,-29.48,-30.457,-155.347,-14.738,120.317
13901,0.4727,-0.376,-1.4473,-26.733,-29.48,-30.457,-155.38,-14.524,120.383
13911,0.4272,-0.3447,-1.54,-26.733,-29.48,-30.457,-155.193,-14.403,120.179
13931,0.332,-0.3887,-1.5308,-26.733,-29.48,-30.457,-154.479,-14.59,119.317
13951,0.0576,-0.4771,-0.9932,23.621,39.429,22.888,-153.792,-15.079,118.471
13991,0.1289,-0.6348,-0.4199,-10.925,-15.442,-18.799,-153.589,-15.392,118.493
14021,0.3643,-0.5137,-0.9424,-2.014,-22.766,-7.141,-154.1,-14.947,119.235
14031,0.4272,-0.5376,-1.0366,-2.014,-22.766,-7.141,-154.089,-14.804,119.323
14050,0.4272,-0.5376,-1.0366,5.798,-4.639,5.92,-153.951,-14.656,119.29
14061,0.1602,-0.6016,-0.8779,5.798,-4.639,5.92,-153.94,-14.579,119.246
14080,0.0386,-0.5361,-0.6924,-5.737,-3.601,4.028,-154.023,-14.458,119.169
14101,0.1558,-0.542,-0.7412,-9.094,-8.362,-7.813,-154.221,-14.37,119.328
14120,0.1558,-0.542,-0.7412,-15.137,-10.193,-11.047,-154.671,-14.266,119.647
14130,0.2817,-0.4541,-1.1631,-26.123,-12.512,-10.132,-154.968,-14.194,119.795
14141,0.1904,-0.395,-1.1865,-26.123,-12.512,-10.132,-155.165,-14.134,119.888
14150,0.1904,-0.395,-1.1865,-26.123,-12.512,-10.132,-155.143,-14.145,119.872
14161,0.1958,-0.4648,-0.9224,21.851,19.836,10.193,-154.88,-14.282,119.691
14170,0.1958,-0.4648,-0.9224,21.851,19.836,10.193,-154.501,-14.409,119.449
14190,0.1123,-0.709,-0.4468,21.851,19.836,10.193,-154.182,-14.398,119.224
14210,0.1235,-0.6968,-0.4731,-22.827,-16.785,-16.357,-154.605,-14.249,119.559
14230,0.2798,-0.6323,-0.7598,-15.93,-22.034,-16.357,-155.138,-14.019,120.086
14240,0.2798,-0.6323,-0.7598,-15.93,-22.034,-16.357,-155.231,-13.887,120.24
14250,0.2798,-0.6323,-0.7598,2.441,-8.728,1.526,-155.215,-13.799,120.262
14259,0.2798,-0.6323,-0.7598,2.441,-8.728,1.526,-155.132,-13.793,120.163
14270,0.2798,-0.6323,-0.7598,2.441,-8.728,1.526,-155.023,-13.903,119.976
14299,0.2212,-0.4883,-1.2236,3.357,43.396,17.273,-154.731,-14.766,119.031
14320,0.019,-0.5151,-0.6133,3.357,43.396,17.273,-154.243,-15.491,118.279
14360,0.1162,-0.5747,-0.2817,5.249,13.916,-6.47,-153.342,-16.666,117.543
14379,0.2275,-0.6699,-0.2769,-16.235,-18.005,-19.531,-153.671,-16.628,117.949
14400,0.3335,-0.6245,-0.457,-33.325,-45.593,-23.682,-154.495,-16.133,118.757
14429,0.334,-0.4751,-1.2031,-24.048,-48.279,-3.845,-155.418,-14.941,119.476
14449,0.2344,-0.4741,-1.272,-24.048,-48.279,-3.845,-155.605,-14.425,119.41
14459,0.2344,-0.4741,-1.272,-4.944,-9.094,13.062,-155.632,-14.288,119.328
14469,0.0645,-0.4492,-1.084,-4.944,-9.094,13.062,-155.627,-14.216,119.246
14489,0.0884,-0.4751,-1.0083,-4.944,-9.094,13.062,-155.561,-14.244,119.152
14499,0.2158,-0.583,-0.96,4.333,6.714,-3.052,-155.517,-14.315,119.152
14509,0.2158,-0.583,-0.96,3.418,8.545,-3.174,-155.484,-14.409,119.147
14529,0.2158,-0.583,-0.96,5.92,-1.892,3.723,-155.363,-14.414,119.103
14579,0.3467,-0.5278,-0.9819,-21.301,-27.954,-14.16,-156.116,-13.387,119.822
14598,0.3774,-0.4658,-1.2695,-18.677,-23.56,-10.742,-156.478,-13.079,120.108
14609,0.3467,-0.4292,-1.7056,2.502,4.761,8.667,-156.429,-13.085,120.009
14638,0.0259,-0.4629,-1.1865,17.822,58.105,22.705,-155.726,-14.123,118.856
14668,-0.0352,-0.7886,-0.1362,17.822,58.105,22.705,-154.594,-15.529,117.817
14678,-0.0352,-0.7886,-0.1362,22.461,25.513,-7.813,-154.358,-15.798,117.779
14688,-0.0352,-0.7886,-0.1362,22.461,25.513,-7.813,-154.363,-15.875,117.927
14708,0.1704,-0.6626,-0.2207,-16.541,-33.569,-26.245,-154.929,-15.348,118.839
14718,0.2852,-0.5,-0.6514,-7.507,-52.246,-28.32,-155.132,-14.996,119.339
14768,0.3247,-0.3506,-1.3774,-0.793,-9.705,10.376,-155.643,-13.48,120.416
14817,0.0498,-0.479,-0.8486,11.78,30.151,11.902,-154.946,-14.084,119.399
14828,0.0425,-0.5244,-0.4927,8.118,25.574,2.747,-154.83,-14.304,119.262
14838,0.0913,-0.5664,-0.4268,8.118,25.574,2.747,-154.803,-14.453,119.251
14857,0.1177,-0.5952,-0.4326,8.118,25.574,2.747,-155.067,-14.513,119.614
14868,0.3271,-0.6567,-0.5278,-21.667,-22.095,-22.583,-155.363,-14.403,119.921
14897,0.3857,-0.6694,-0.8125,-24.963,-40.588,-10.742,-156.357,-13.59,120.899
14908,0.3857,-0.6694,-0.8125,-18.372,-34.729,-1.038,-156.577,-13.271,121.053
14918,0.3857,-0.6694,-0.8125,-18.372,-34.729,-1.038,-156.703,-13.008,121.086
14937,0.3857,-0.6694,-0.8125,-18.372,-34.729,-1.038,-156.797,-12.678,120.883
14967,0.0342,-0.3979,-1.2329,-2.625,11.78,18.005,-156.747,-12.799,120.251
14977,-0.0508,-0.394,-0.98,7.385,26.978,10.742,-156.627,-13.008,120.042
15007,0.0679,-0.5049,-0.7109,13.123,36.316,-6.714,-156.094,-14.03,119.652
15027,0.1128,-0.5684,-0.5215,-0.305,5.92,-14.038,-156.055,-14.365,119.767
15047,0.2539,-0.5938,-0.5527,-0.305,5.92,-14.038,-156.594,-14.172,120.278
15057,0.2539,-0.5938,-0.5527,-31.494,-40.955,-18.005,-156.989,-13.865,120.619
15067,0.3843,-0.521,-0.7578,-31.494,-40.955,-18.005,-157.412,-13.491,120.943
15087,0.3604,-0.4648,-1.085,-26.367,-34.973,-2.38,-158.088,-12.794,121.366
15116,0.1924,-0.3892,-1.332,-18.433,-14.648,12.268,-158.593,-12.228,121.229
15127,0.1924,-0.3892,-1.332,-1.038,1.709,14.709,-158.643,-12.074,121.086
15137,0.0107,-0.3481,-1.1416,11.536,20.447,12.207,-158.533,-12.101,120.894
15157,0.0107,-0.3481,-1.1416,23.621,27.954,3.357,-157.912,-12.343,120.569
15167,0.0107,-0.3481,-1.1416,23.621,27.954,3.357,-157.495,-12.448,120.509
15177,0.062,-0.6621,-0.5566,15.564,16.541,-9.888,-157.072,-12.557,120.537
15196,0.0923,-0.7061,-0.5171,5.005,-4.944,-24.353,-156.379,-12.651,120.932
15207,0.0923,-0.7061,-0.5171,5.005,-4.944,-24.353,-156.138,-12.684,121.245
15227,0.4985,-0.7314,-0.6309,6.897,-23.193,-15.747,-155.599,-12.717,121.805
15246,0.4985,-0.7314,-0.6309,6.897,-23.193,-15.747,-155.418,-12.2,122.135
15266,0.2261,-0.4712,-1.3477,-6.104,-39.917,12.146,-155.61,-11.481,122.162
15276,0.2261,-0.4712,-1.3477,-5.432,-6.287,15.93,-155.742,-11.288,122.036
15286,0.2261,-0.4712,-1.3477,-5.432,-6.287,15.93,-155.704,-11.354,121.855
15306,0.0771,-0.3545,-1.5107,25.33,61.707,9.766,-155.193,-12.178,121.24
15316,0.0771,-0.3545,-1.5107,25.33,61.707,9.766,-154.775,-12.805,120.839
15326,0.0771,-0.3545,-1.5107,25.33,61.707,9.766,-154.314,-13.409,120.454
15346,0.124,-0.6445,-0.3848,25.33,61.707,9.766,-153.622,-14.365,119.987
15366,0.29,-0.626,-0.2446,25.33,61.707,9.766,-153.556,-14.854,120.075
15377,0.3296,-0.605,-0.2632,25.33,61.707,9.766,-153.721,-14.886,120.24
15406,0.4004,-0.5303,-0.668,-25.818,-32.837,6.042,-154.545,-14.2,120.663
15415,0.4004,-0.5303,-0.668,-25.818,-32.837,6.042,-154.797,-13.865,120.707
15436,0.2246,-0.272,-1.4424,-8.728,1.038,14.16,-155.023,-13.585,120.526
15476,0.0835,-0.5527,-0.8916,19.348,51.025,9.216,-154.166,-14.886,119.449
15495,0.1084,-0.6479,-0.6587,23.071,41.016,-0.305,-153.594,-15.688,119.004
15506,0.1978,-0.7427,-0.2837,17.517,28.564,-1.526,-153.386,-15.947,118.889
15525,0.2026,-0.749,-0.1655,4.944,10.315,-2.014,-153.452,-15.963,118.96
15535,0.2046,-0.6992,-0.2568,-21.912,-29.785,-9.399,-153.732,-15.738,119.185
15556,0.2808,-0.6489,-0.4814,-30.64,-46.875,-14.954,-154.512,-15.073,119.855
15575,0.3672,-0.46,-1.0713,-19.958,-47.485,0.305,-155.11,-14.238,120.372
15585,0.3672,-0.46,-1.0713,-12.573,-37.537,7.385,-155.259,-13.865,120.465
15625,0.0044,-0.3896,-1.0991,6.653,14.404,5.859,-155.078,-13.936,120.136
15645,0.0562,-0.48,-0.5908,6.653,14.404,5.859,-154.869,-14.359,120.042
15665,0.1372,-0.5708,-0.4292,-1.953,-1.648,-18.372,-154.896,-14.595,120.295
15685,0.3521,-0.6909,-0.4277,-13.794,-28.503,-19.775,-155.275,-14.381,120.85
15705,0.4204,-0.6763,-0.6768,-17.883,-36.621,-7.385,-155.731,-13.843,121.366
15735,0.3184,-0.3813,-1.5205,-3.662,-2.319,17.822,-156.083,-13.129,121.344
15765,0.0303,-0.5044,-0.7114,-3.662,-2.319,17.822,-155.325,-13.854,120.377
15775,0.0303,-0.5044,-0.7114,21.301,29.114,8.789,-155.061,-14.084,120.174
15794,0.0635,-0.7227,-0.2695,2.808,4.395,-11.597,-154.869,-14.348,120.201
15815,0.1772,-0.7236,-0.2974,-26.733,-29.419,-23.987,-155.413,-14.123,120.806
15845,0.3745,-0.3296,-1.4971,-24.17,-28.748,-8.179,-156.259,-13.42,121.382
15864,0.2827,-0.2783,-1.6436,8.972,21.179,25.757,-156.121,-13.321,120.916
15884,0.0415,-0.373,-0.9995,18.86,46.265,24.414,-155.511,-14.052,120.07
15904,0.0029,-0.4834,-0.5742,18.86,46.265,24.414,-155.006,-14.667,119.526
15924,0.1094,-0.6968,-0.1855,-15.686,-5.859,-14.648,-155.16,-14.865,119.658
15944,0.248,-0.6641,-0.3159,-31.738,-29.785,-18.311,-155.929,-14.518,120.262
15954,0.3569,-0.5356,-0.9331,-24.78,-35.156,-7.813,-156.237,-14.227,120.482
15964,0.3384,-0.4536,-1.2559,-18.372,-42.236,2.38,-156.456,-13.832,120.635
15974,0.3384,-0.4536,-1.2559,-18.372,-42.236,2.38,-156.577,-13.497,120.668
15984,0.3125,-0.2661,-1.5532,-0.488,-6.653,15.93,-156.55,-13.376,120.542
15994,0.3125,-0.2661,-1.5532,-0.488,-6.653,15.93,-156.451,-13.414,120.311
16013,0.1338,-0.312,-1.2876,5.31,25.208,18.433,-156.226,-13.683,119.767
16034,-0.0972,-0.6289,-0.2476,5.31,25.208,18.433,-155.934,-13.909,119.432
16053,-0.0083,-0.7031,-0.105,-8.911,-19.043,-18.494,-156.072,-13.793,119.751
16064,-0.0083,-0.7031,-0.105,-22.095,-31.616,-31.799,-156.396,-13.629,120.179
16093,0.6626,-0.4751,-1.2939,-13.306,-22.095,-21.057,-156.945,-13.14,120.998
16114,0.2114,-0.4106,-1.4009,21.545,1.831,38.696,-156.495,-12.711,120.465
16123,0.2114,-0.4106,-1.4009,21.545,1.831,38.696,-156.16,-12.651,120.042
16133,-0.0933,-0.4287,-0.9058,14.832,2.808,29.846,-155.945,-12.557,119.751
16163,-0.0957,-0.3438,-0.6714,-3.357,-0.183,2.075,-156.05,-12.48,119.718
16183,0.0508,-0.5239,-0.4351,-13.611,-20.996,-28.076,-156.489,-12.354,120.322
16194,0.2817,-0.606,-0.7583,-1.038,-21.362,-26.123,-156.572,-12.266,120.657
16203,0.2817,-0.606,-0.7583,-1.038,-21.362,-26.123,-156.478,-12.14,120.899
16223,0.2817,-0.606,-0.7583,24.231,-23.254,11.475,-155.995,-11.711,120.981
16233,0.2026,-0.605,-1.1343,24.231,-23.254,11.475,-155.918,-11.31,120.97
16243,0.1069,-0.4492,-1.25,24.231,-23.254,11.475,-156.077,-10.844,121.042
16253,0.0596,-0.3589,-1.3892,24.231,-23.254,11.475,-156.352,-10.503,121.163
16273,0.1011,-0.3135,-1.4785,-1.648,19.531,-16.479,-156.583,-10.69,121.355
16283,0.1011,-0.3135,-1.4785,17.822,40.71,-19.165,-156.407,-11.135,121.371
16323,0.2231,-0.6646,-0.5044,2.319,3.723,14.893,-155.424,-12.112,120.778
16333,0.1089,-0.4375,-0.2314,2.319,3.723,14.893,-155.649,-11.86,120.74
16352,0.1021,-0.3076,-0.8447,-37.231,-29.724,5.31,-156.412,-11.212,120.866
16382,0.0581,-0.311,-1.4048,-26.123,-24.109,-0.732,-156.714,-11.019,121.256
16392,0.0581,-0.311,-1.4048,-26.123,-24.109,-0.732,-156.456,-11.393,121.289
16432,0.0771,-0.668,-0.77,5.92,9.216,23.926,-155.352,-12.228,120.487
16443,0.0142,-0.519,-0.5938,5.92,9.216,23.926,-155.374,-12.123,120.322
16462,0.1104,-0.4683,-0.4688,-2.319,1.099,-3.479,-155.451,-12.112,120.262
16472,0.2095,-0.5078,-0.502,-2.319,1.099,-3.479,-155.468,-12.173,120.394
16482,0.2993,-0.5659,-0.6045,-2.319,1.099,-3.479,-155.49,-12.255,120.569
16522,0.104,-0.5513,-0.938,-18.616,-23.499,5.005,-156.039,-11.821,120.943
16552,0.1938,-0.2656,-1.2104,-5.981,13.367,-10.986,-156.616,-11.821,121.212
16562,0.1929,-0.3369,-1.3374,-5.981,13.367,-10.986,-156.489,-12.014,121.179
16572,0.1929,-0.3369,-1.3374,-5.981,13.367,-10.986,-156.242,-12.118,121.102
16592,0.0601,-0.437,-0.9995,-5.981,13.367,-10.986,-155.583,-12.261,120.85
16632,0.1411,-0.5298,-0.4033,8.118,-8.972,-10.498,-154.907,-12.305,120.844
16652,0.1411,-0.5298,-0.4033,-4.15,-32.471,-13.855,-155.017,-11.926,121.339
16672,0.3389,-0.542,-1.208,-19.226,-25.452,-14.282,-155.473,-11.486,121.866
16681,0.3389,-0.542,-1.208,-19.226,-25.452,-14.282,-155.638,-11.453,121.97
16691,0.3389,-0.542,-1.208,-19.226,-25.452,-14.282,-155.561,-11.508,121.91
16721,0.2456,-0.5474,-1.3057,34.79,41.992,22.278,-154.391,-12.25,120.833
16731,0.2456,-0.5474,-1.3057,34.79,41.992,22.278,-154.028,-12.475,120.383
16742,0.2456,-0.5474,-1.3057,17.578,35.706,25.269,-153.765,-12.684,119.987
16761,0.0264,-0.4502,-0.3896,-0.366,14.16,3.601,-153.611,-12.964,119.63
16781,0.0752,-0.4717,-0.3184,-4.211,-1.77,-14.648,-153.721,-13.096,119.811
16801,0.2095,-0.5562,-0.3252,-13.672,-27.71,-15.93,-154.045,-12.881,120.289
16821,0.3003,-0.585,-0.6841,-20.752,-40.894,-13.123,-154.578,-12.288,120.905
16831,0.3003,-0.585,-0.6841,-19.592,-33.508,-9.583,-154.819,-12.025,121.141
16871,0.2407,-0.2646,-1.5532,13.611,35.095,23.743,-154.715,-12.255,120.471
16891,-0.0781,-0.5171,-0.8394,20.081,32.166,13.184,-154.177,-12.717,119.844
16910,0.0205,-0.6353,-0.2593,8.972,13.611,-9.705,-153.913,-13.118,119.756
16931,0.1865,-0.6851,-0.3115,-14.099,-20.02,-23.499,-154.182,-13.074,120.24
16971,0.4873,-0.6006,-1.1079,-12.146,-23.926,-3.662,-155.176,-12.354,121.426
16980,0.4219,-0.5234,-1.5229,-12.146,-23.926,-3.662,-155.237,-12.228,121.366
16990,0.4219,-0.5234,-1.5229,-3.54,5.554,23.193,-155.22,-12.184,121.13
17001,0.1909,-0.375,-1.3926,-3.54,5.554,23.193,-155.143,-12.2,120.773
17030,-0.2007,-0.3706,-0.5415,-3.54,5.554,23.193,-154.803,-12.376,119.745
17060,0.0786,-0.5537,-0.3794,-4.517,1.038,-24.475,-154.836,-12.673,119.976
17080,0.5039,-0.5933,-0.77,-4.517,1.038,-24.475,-155.154,-12.766,120.591
17110,0.2944,-0.4526,-1.4321,-8.545,-18.616,4.028,-155.429,-12.316,120.718
17130,0.1401,-0.4365,-1.4653,5.676,18.677,15.381,-155.308,-12.36,120.306
17150,0.1401,-0.4365,-1.4653,23.865,38.574,5.493,-154.819,-12.942,119.866
17170,0.084,-0.668,-0.314,15.076,13.672,6.165,-154.352,-13.315,119.548
17190,0.0146,-0.6753,-0.2305,-17.09,-25.818,-3.967,-154.572,-12.997,119.713
17199,0.0146,-0.6753,-0.2305,-17.09,-25.818,-3.967,-154.902,-12.761,119.998
17210,0.0146,-0.6753,-0.2305,-27.954,-32.959,-24.292,-155.264,-12.563,120.366
17220,0.3955,-0.5083,-1.1406,-27.954,-32.959,-24.292,-155.544,-12.426,120.701
17230,0.3955,-0.5083,-1.1406,-6.592,-16.418,-13.245,-155.649,-12.332,120.894
17249,0.3955,-0.5083,-1.1406,17.456,14.099,18.005,-155.347,-12.354,120.646
17260,0.2539,-0.4238,-1.3271,17.456,14.099,18.005,-155.061,-12.464,120.278
17279,0.0889,-0.3979,-0.936,14.709,15.747,28.564,-154.578,-12.574,119.537
17289,-0.0835,-0.5264,-0.3623,9.338,7.813,15.442,-154.446,-12.574,119.361
17300,-0.0835,-0.5264,-0.3623,9.338,7.813,15.442,-154.407,-12.601,119.344
17319,0.2046,-0.6367,-0.5825,-13.428,-5.127,-22.522,-154.66,-12.689,119.702
17340,0.4268,-0.5107,-1.2202,-17.09,-5.615,-22.888,-155.056,-12.706,120.092
17349,0.4268,-0.5107,-1.2202,-17.09,-5.615,-22.888,-155.121,-12.579,120.114
17359,0.4268,-0.5107,-1.2202,4.272,-2.502,15.747,-155.05,-12.491,119.976
17379,0.0171,-0.5015,-0.9712,21.179,20.569,17.7,-154.572,-12.634,119.476
17399,0.0171,-0.5015,-0.9712,21.179,20.569,17.7,-154.182,-12.909,119.202
17409,0.0435,-0.5864,-0.5513,21.179,20.569,17.7,-154.122,-13.019,119.207
17439,0.3867,-0.5313,-0.8696,-8.972,-3.662,-12.329,-154.457,-13.101,119.619
17469,0.3721,-0.5107,-1.1709,-2.075,-1.892,-2.93,-154.297,-13.057,119.383
17489,0.2739,-0.4956,-1.1973,-2.075,-1.892,-2.93,-153.951,-13.057,118.905
17498,0.2739,-0.4956,-1.1973,15.625,15.259,24.353,-153.732,-13.09,118.614
17509,0.2739,-0.4956,-1.1973,13.733,13.184,20.386,-153.534,-13.118,118.367
17538,0.0469,-0.5659,-0.3872,-11.23,-11.78,-11.047,-153.572,-13.035,118.378
17569,0.4199,-0.5205,-1.2559,-19.653,-9.155,-17.944,-154.369,-13.041,119.147
17578,0.4097,-0.5171,-1.4556,-7.568,-8.057,-5.005,-154.462,-12.991,119.229
17588,0.3672,-0.5386,-1.4775,7.141,6.958,8.728,-154.369,-13.013,119.119
17599,0.3672,-0.5386,-1.4775,20.996,23.132,20.142,-154.094,-13.134,118.828
17618,-0.0122,-0.5513,-0.8486,20.996,23.132,20.142,-153.452,-13.354,118.136
17639,-0.0615,-0.5479,-0.4438,14.709,14.709,6.653,-153.018,-13.568,117.757
17649,-0.0615,-0.5479,-0.4438,14.709,14.709,6.653,-152.935,-13.612,117.784
17658,-0.0615,-0.5479,-0.4438,1.099,-3.967,-14.832,-152.963,-13.645,117.938
17668,0.229,-0.6587,-0.4526,-4.7,-7.324,-20.996,-153.062,-13.672,118.169
17678,0.394,-0.6436,-0.6548,-11.353,-13.794,-21.362,-153.237,-13.645,118.427
17698,0.3682,-0.5513,-1.0508,-11.353,-13.794,-21.362,-153.732,-13.31,118.806
17708,0.2651,-0.4731,-1.2534,-11.353,-13.794,-21.362,-154.006,-13.063,118.894
17728,0.1499,-0.2656,-1.4751,-9.46,2.869,7.751,-154.319,-12.892,118.812
17748,0.1689,-0.2749,-1.3896,22.156,37.781,8.484,-153.913,-13.359,118.394
17797,-0.0518,-0.6978,-0.1362,-20.02,-19.104,-16.296,-153.342,-13.903,118.059
17837,0.4922,-0.5356,-1.124,-29.907,-30.396,-27.588,-154.852,-13.255,119.553
17858,0.4287,-0.5537,-1.5317,-2.991,-13.489,1.526,-154.77,-13.112,119.438
17898,0.0308,-0.4609,-0.8252,13.55,27.161,22.339,-153.825,-13.661,117.988
17957,0.3652,-0.6211,-0.8638,-6.714,-0.549,-9.949,-154.297,-13.832,118.542
17978,0.4849,-0.6162,-1.2271,-3.845,-4.456,-4.639,-154.468,-13.755,118.784
18007,0.3784,-0.5508,-1.2856,7.202,14.038,26.062,-154.226,-13.793,118.174
18016,0.1001,-0.5024,-0.9492,7.202,14.038,26.062,-154.028,-13.826,117.812
18047,-0.0615,-0.4565,-0.6357,9.338,10.559,9.827,-153.446,-13.947,117.059
18056,-0.0615,-0.4565,-0.6357,9.338,10.559,9.827,-153.408,-14.03,117.065
18067,0.0791,-0.5088,-0.7212,0.61,5.005,-15.32,-153.43,-14.145,117.18
18077,0.2173,-0.5479,-0.7466,0.61,5.005,-15.32,-153.49,-14.282,117.361
18096,0.2881,-0.583,-0.6914,-0.549,-10.742,-13.428,-153.6,-14.332,117.719
18107,0.2881,-0.583,-0.6914,-3.113,-16.052,-6.714,-153.666,-14.216,117.856
18166,0.2798,-0.3091,-1.4751,24.841,30.762,19.165,-153.545,-14.002,117.334
18176,0.1294,-0.3755,-1.0122,40.161,42.847,22.583,-153.045,-14.282,116.927
18206,-0.0933,-0.5557,-0.4399,24.536,17.578,8.362,-151.776,-14.81,116.065
18216,-0.0933,-0.5557,-0.4399,24.536,17.578,8.362,-151.683,-14.87,116.093
18226,0.0454,-0.6362,-0.2383,24.536,17.578,8.362,-151.771,-14.903,116.296
18256,0.4385,-0.644,-0.7505,-25.024,-34.119,-31.25,-152.715,-14.672,117.559
18266,0.4341,-0.6294,-0.9585,-25.024,-34.119,-31.25,-153.062,-14.431,117.933
18286,0.4263,-0.6401,-1.1738,-18.982,-26.978,-0.977,-153.583,-13.909,118.334
18306,0.3306,-0.479,-1.4932,-1.038,2.014,15.808,-153.671,-13.705,118.158
18315,0.2773,-0.4609,-1.3887,-1.038,2.014,15.808,-153.479,-13.799,117.856
18326,0.1655,-0.4302,-1.1567,-1.038,2.014,15.808,-153.171,-13.991,117.444
18355,-0.1143,-0.4253,-0.5601,20.264,27.161,26.184,-152.336,-14.365,116.422
18366,-0.1421,-0.5225,-0.2212,7.385,5.066,-1.465,-152.26,-14.414,116.411
18376,-0.0205,-0.5806,-0.2158,7.385,5.066,-1.465,-152.32,-14.464,116.609
18395,0.3672,-0.6982,-0.5786,-15.991,-21.179,-36.255,-152.765,-14.474,117.394
18406,0.3672,-0.6982,-0.5786,-23.621,-30.945,-31.067,-153.111,-14.343,117.823
18416,0.5078,-0.6406,-1.147,-23.621,-30.945,-31.067,-153.479,-14.073,118.163
18435,0.4624,-0.5664,-1.3838,-26.306,-37.72,-0.671,-153.968,-13.469,118.339
18465,0.2007,-0.3955,-1.458,23.376,36.011,22.644,-153.468,-13.661,117.515
18475,0.2007,-0.3955,-1.458,23.376,36.011,22.644,-153.067,-13.903,117.131
18485,-0.0767,-0.5601,-0.3906,23.376,36.011,22.644,-152.677,-14.084,116.818
18505,-0.04,-0.6426,-0.1123,6.775,-4.883,-1.709,-152.347,-14.134,116.697
18525,0.2085,-0.6108,-0.4189,6.775,-4.883,-1.709,-152.864,-13.788,117.356
18545,0.3984,-0.5757,-0.7852,-29.297,-38.818,-30.762,-153.66,-13.348,118.235
18565,0.3564,-0.416,-1.5425,-21.301,-34.729,-10.498,-154.045,-12.865,118.542
18574,0.3564,-0.416,-1.5425,-21.301,-34.729,-10.498,-153.973,-12.766,118.416
18585,0.3564,-0.416,-1.5425,15.259,13.428,21.973,-153.765,-12.794,118.152
18614,-0.0234,-0.5791,-0.6108,8.728,15.93,6.226,-153.166,-13.057,117.499
18625,-0.0234,-0.5791,-0.6108,8.728,15.93,6.226,-153.182,-13.162,117.482
18635,-0.0234,-0.5791,-0.6108,8.728,15.93,6.226,-153.32,-13.233,117.592
18645,-0.0234,-0.5791,-0.6108,-17.578,-2.625,-18.921,-153.539,-13.293,117.773
18654,-0.0234,-0.5791,-0.6108,-17.944,-7.385,-18.555,-153.765,-13.31,117.982
18675,0.2754,-0.625,-0.7407,-16.541,-21.118,-14.587,-154.215,-12.986,118.444
18684,0.2803,-0.5767,-0.9082,-16.541,-21.118,-14.587,-154.512,-12.794,118.658
18694,0.3594,-0.5078,-1.1729,-16.541,-21.118,-14.587,-154.825,-12.634,118.834
18724,0.2959,-0.3335,-1.6187,1.282,14.16,18.433,-155.132,-12.596,118.526
18764,-0.0327,-0.561,-0.6279,43.518,38.513,12.39,-153.309,-13.859,117.054
18804,0.043,-0.7373,-0.0273,-11.23,-26.306,-18.127,-153.441,-13.596,117.751
18824,0.4014,-0.5024,-1.1187,-30.396,-45.227,-27.588,-154.226,-12.969,118.625
18884,-0.0063,-0.4639,-0.8115,10.315,10.864,15.625,-154.078,-12.189,118.389
18904,0.0049,-0.4946,-0.6655,3.784,9.827,-0.061,-153.918,-12.349,118.213
18913,0.0049,-0.4946,-0.6655,-1.892,10.193,-6.836,-153.94,-12.469,118.229
18974,0.165,-0.5278,-0.6733,-11.902,-22.034,-15.137,-154.627,-12.085,119.053
18993,0.2358,-0.5801,-0.8394,-23.865,-28.076,-19.775,-155.149,-11.772,119.63
19043,0.3115,-0.3013,-1.5796,-32.043,-17.456,-17.09,-156.176,-11.849,119.855
19063,0.1909,-0.3218,-1.3721,44.373,49.622,37.109,-155.275,-12.431,118.834
19083,0.1909,-0.3218,-1.3721,52.368,38.574,20.569,-154.012,-12.953,117.971
19103,-0.0254,-0.6021,-0.2007,24.841,12.756,-1.038,-153.287,-13.326,117.697
19123,0.1392,-0.6729,-0.167,-14.465,-22.583,-13.611,-153.479,-13.145,118.043
19163,0.2187,-0.5288,-1.1001,-26.123,-45.41,-4.333,-154.94,-11.821,119.224
19173,0.2187,-0.5288,-1.1001,-26.123,-45.41,-4.333,-155.149,-11.53,119.372
19183,0.2187,-0.5288,-1.1001,-13.245,-14.404,1.892,-155.292,-11.393,119.416
19193,0.2187,-0.5288,-1.1001,-13.245,-14.404,1.892,-155.363,-11.365,119.35
19202,0.2246,-0.3491,-1.6294,-13.245,-14.404,1.892,-155.347,-11.459,119.163
19212,0.2246,-0.3491,-1.6294,-13.245,-14.404,1.892,-155.231,-11.684,118.872
19233,-0.0195,-0.4468,-0.8267,-13.245,-14.404,1.892,-154.649,-12.387,118.174
19252,0.0132,-0.6289,-0.2051,-13.245,-14.404,1.892,-153.825,-13.052,117.631
19282,0.0947,-0.6523,0.0166,-22.644,-25.513,-13.672,-153.957,-13.013,117.861
19292,0.0947,-0.6523,0.0166,-38.513,-38.025,-20.935,-154.424,-12.766,118.224
19313,0.354,-0.5898,-0.7256,-44.373,-47.485,-23.132,-155.506,-12.129,119.081
19332,0.4932,-0.5552,-1.3599,-44.373,-47.485,-23.132,-156.127,-11.662,119.394
19342,0.4932,-0.5552,-1.3599,-14.465,-4.333,18.86,-156.242,-11.547,119.235
19362,0.083,-0.2827,-1.6328,-8.667,17.395,26.733,-156.324,-11.541,118.647
19382,-0.3037,-0.1719,-1.1372,11.597,34.79,4.456,-156.127,-12.008,118.174
19402,-0.0049,-0.4917,-0.5254,35.095,46.326,-20.996,-155.495,-12.964,118.103
19422,0.2793,-0.8345,-0.1128,24.841,14.038,-23.56,-154.951,-13.59,118.356
19432,0.2793,-0.8345,-0.1128,9.766,-4.883,-18.494,-154.902,-13.623,118.548
19442,0.2793,-0.8345,-0.1128,-6.775,-22.034,-13.489,-155.023,-13.48,118.768
19462,0.4448,-0.7373,-0.7603,-43.457,-52.795,-8.85,-155.891,-12.717,119.355
19492,0.4448,-0.7373,-0.7603,-24.231,-24.902,15.32,-157.044,-11.607,119.663
19511,0.0376,-0.2627,-1.8364,-24.231,-24.902,15.32,-156.852,-11.613,119.048
19551,-0.1699,-0.3999,-0.4155,41.565,46.692,6.531,-155.237,-12.958,117.521
19612,0.4829,-0.7617,-0.4775,-36.499,-38.147,-31.921,-155.671,-13.376,119.202
19631,0.4829,-0.7617,-0.4775,-20.996,-33.63,8.972,-156.281,-12.711,119.531
19642,0.4829,-0.7617,-0.4775,-20.996,-33.63,8.972,-156.319,-12.508,119.366
19701,-0.2104,-0.2192,-0.7168,4.639,20.935,26.978,-155.649,-12.761,117.729
19741,0.1011,-0.6421,-0.2383,9.155,8.057,-21.057,-155.676,-13.398,119.174
19771,0.749,-0.791,-1.0654,-18.311,-29.48,-20.264,-156.462,-12.799,120.07
19800,0.1553,-0.2852,-1.5835,-16.785,-12.695,39.307,-156.72,-12.063,119.191
19810,-0.0835,-0.2583,-1.4077,-16.785,-12.695,39.307,-156.473,-12.206,118.746
19821,-0.1187,-0.2695,-1.1338,-16.785,-12.695,39.307,-156.138,-12.469,118.328
19850,-0.1118,-0.5518,-0.2334,19.287,13.367,0.305,-155.231,-13.09,117.691
19890,0.1064,-0.6499,-0.2383,-18.127,-24.17,-33.264,-155.891,-12.914,118.954
19920,0.5234,-0.6021,-1.2993,-16.235,-27.405,-11.963,-156.489,-12.365,119.586
19941,0.2773,-0.4897,-1.3506,2.197,1.892,26.611,-156.396,-12.14,119.174
19950,0.2773,-0.4897,-1.3506,2.441,9.094,25.085,-156.313,-12.123,118.9
19960,-0.0278,-0.2832,-1.0962,2.441,9.094,25.085,-156.22,-12.239,118.669
19980,0.0054,-0.436,-0.749,19.409,30.029,-2.563,-155.869,-12.755,118.411
20010,0.1147,-0.644,-0.3208,19.409,30.029,-2.563,-155.418,-13.063,118.46
