elapsed_ms,acc_x_g,acc_y_g,acc_z_g,gyro_x_dps,gyro_y_dps,gyro_z_dps,angle_x_deg,angle_y_deg,angle_z_deg
0,-0.2100,0.9180,0.3418,-1.892,0.610,-1.587,69.846,11.871,-32.701
10,-0.2109,0.9126,0.3291,-1.953,1.831,-1.526,69.829,11.898,-32.684
20,-0.2129,0.8994,0.3047,-1.282,4.395,-1.160,69.840,11.931,-32.646
30,-0.2041,0.8960,0.2954,-0.732,7.996,-0.732,69.868,11.964,-32.574
40,-0.2192,0.8818,0.2778,-0.305,10.803,-0.305,69.911,12.019,-32.470
50,-0.2207,0.8892,0.2710,0.061,13.977,-0.793,69.972,12.085,-32.338
61,-0.2119,0.9209,0.2847,-1.404,15.686,-0.916,70.016,12.151,-32.190
70,-0.1899,0.9731,0.3296,-2.869,13.245,0.732,70.027,12.173,-32.064
80,-0.1831,1.0278,0.3745,-2.808,6.653,4.150,70.016,12.129,-31.981
90,-0.1821,1.0596,0.4053,0.916,-2.380,6.531,70.016,12.030,-31.981
100,-0.1880,1.0562,0.4233,7.141,-10.681,5.798,70.049,11.915,-32.064
110,-0.2021,1.0112,0.3994,14.404,-16.296,1.526,70.148,11.832,-32.217
120,-0.2095,0.9370,0.3569,19.592,-15.808,-5.005,70.296,11.827,-32.388
130,-0.2187,0.8574,0.3135,18.982,-9.949,-11.169,70.450,11.915,-32.520
140,-0.2173,0.8042,0.2773,10.864,-0.671,-15.381,70.554,12.079,-32.580
150,-0.2085,0.8018,0.2710,-3.357,9.094,-16.663,70.532,12.283,-32.547
160,-0.1982,0.8438,0.2939,-19.165,15.076,-14.343,70.367,12.469,-32.454
170,-0.1929,0.9038,0.3286,-30.090,15.686,-9.583,70.093,12.596,-32.333
180,-0.2051,0.9639,0.3657,-32.898,11.658,-4.700,69.774,12.667,-32.239
190,-0.2266,0.9966,0.3877,-26.428,5.920,-1.953,69.516,12.700,-32.190
200,-0.2407,0.9917,0.3848,-13.367,1.404,-1.953,69.379,12.722,-32.184
210,-0.2524,0.9478,0.3589,0.488,-0.061,-3.418,69.379,12.766,-32.195
221,-0.2603,0.8843,0.3130,10.193,2.014,-4.883,69.489,12.843,-32.195
230,-0.2515,0.8364,0.2739,12.512,6.958,-5.737,69.648,12.953,-32.146
240,-0.2280,0.8281,0.2690,8.423,10.620,-4.883,69.774,13.052,-32.064
250,-0.2153,0.8555,0.2939,0.427,9.766,-1.526,69.813,13.107,-31.976
260,-0.2183,0.9014,0.3213,-7.263,5.188,2.563,69.758,13.096,-31.915
270,-0.2290,0.9409,0.3457,-10.681,-1.160,5.188,69.653,13.041,-31.904
280,-0.2349,0.9614,0.3638,-8.606,-7.019,5.188,69.554,12.969,-31.954
290,-0.2305,0.9639,0.3828,-3.723,-11.475,3.296,69.483,12.892,-32.053
300,-0.2241,0.9502,0.3877,2.380,-13.733,1.160,69.461,12.827,-32.184
310,-0.2197,0.9302,0.3799,6.775,-13.550,-0.305,69.483,12.777,-32.316
320,-0.2202,0.9082,0.3667,7.690,-10.986,-0.854,69.521,12.750,-32.421
330,-0.2158,0.8984,0.3584,5.554,-6.714,-0.854,69.549,12.733,-32.492
340,-0.2163,0.9097,0.3594,1.465,-2.319,-0.244,69.549,12.722,-32.514
350,-0.2192,0.9258,0.3604,-2.502,1.221,1.099,69.516,12.711,-32.498
360,-0.2231,0.9434,0.3638,-5.127,3.723,2.136,69.472,12.706,-32.454
370,-0.2285,0.9580,0.3623,-5.371,5.066,2.319,69.428,12.700,-32.399
380,-0.2246,0.9604,0.3579,-3.540,5.676,1.587,69.406,12.700,-32.338
390,-0.2222,0.9497,0.3428,-0.854,5.798,0.610,69.417,12.711,-32.278
400,-0.2187,0.9312,0.3262,1.526,6.165,-0.305,69.461,12.733,-32.223
410,-0.2100,0.9219,0.3237,1.953,6.348,-0.916,69.505,12.761,-32.162
420,-0.2070,0.9199,0.3257,0.793,5.554,-1.038,69.532,12.783,-32.113
430,-0.2046,0.9272,0.3276,-0.427,3.967,-0.732,69.543,12.788,-32.080
440,-0.2095,0.9375,0.3345,-1.160,1.892,-0.305,69.543,12.788,-32.064
450,-0.2168,0.9336,0.3291,-0.488,0.244,0.000,69.549,12.788,-32.058
460,-0.2192,0.9229,0.3179,1.587,0.183,-0.183,69.582,12.788,-32.058
470,-0.2158,0.9102,0.3115,3.174,1.343,-0.427,69.631,12.794,-32.047
480,-0.2070,0.9033,0.3135,3.723,2.319,-0.183,69.686,12.799,-32.025
490,-0.1958,0.9116,0.3257,2.930,2.136,0.427,69.725,12.788,-32.003
500,-0.1943,0.9380,0.3530,1.831,-0.610,1.465,69.741,12.755,-32.003
510,-0.2056,0.9658,0.3770,2.197,-5.249,2.502,69.741,12.700,-32.047
520,-0.2266,0.9692,0.3804,4.883,-9.399,3.052,69.763,12.634,-32.124
530,-0.2412,0.9512,0.3696,8.789,-10.620,2.380,69.818,12.579,-32.217
540,-0.2441,0.9175,0.3437,11.414,-7.812,0.732,69.911,12.563,-32.289
550,-0.2319,0.8916,0.3267,10.498,-2.075,-0.793,70.010,12.574,-32.311
561,-0.2129,0.8887,0.3262,6.165,3.235,-1.099,70.076,12.596,-32.283
570,-0.2070,0.9121,0.3359,0.488,5.615,-0.244,70.087,12.612,-32.234
580,-0.2144,0.9414,0.3452,-3.418,4.700,0.977,70.065,12.612,-32.184
590,-0.2290,0.9536,0.3457,-3.174,2.563,1.282,70.038,12.612,-32.157
600,-0.2368,0.9448,0.3325,0.122,1.465,0.488,70.049,12.618,-32.141
610,-0.2368,0.9224,0.3076,4.272,2.136,-0.610,70.109,12.640,-32.119
620,-0.2227,0.9004,0.2954,7.202,4.028,-1.160,70.208,12.673,-32.086
630,-0.2090,0.8950,0.3022,7.141,4.456,-0.244,70.296,12.689,-32.042
640,-0.2017,0.9160,0.3242,5.310,2.441,1.831,70.356,12.667,-32.014
650,-0.1987,0.9551,0.3608,3.784,-2.014,3.967,70.384,12.607,-32.020
660,-0.2061,0.9868,0.3853,5.249,-8.301,5.310,70.406,12.513,-32.080
670,-0.2319,0.9780,0.3730,10.986,-12.512,5.493,70.477,12.420,-32.184
680,-0.2446,0.9375,0.3359,17.212,-10.559,3.784,70.631,12.365,-32.272
690,-0.2363,0.8901,0.3013,18.860,-3.845,1.526,70.818,12.354,-32.305
700,-0.2207,0.8613,0.2832,14.282,4.028,0.366,70.977,12.382,-32.261
710,-0.2007,0.8721,0.2812,5.005,9.277,0.488,71.054,12.404,-32.173
720,-0.1978,0.9097,0.2949,-4.333,9.521,1.831,71.043,12.409,-32.075
730,-0.2002,0.9541,0.3203,-9.460,6.042,2.869,70.966,12.393,-32.009
740,-0.2109,0.9829,0.3350,-8.606,0.488,3.113,70.889,12.354,-31.992
750,-0.2271,0.9785,0.3237,-1.770,-3.540,1.953,70.873,12.327,-32.020
760,-0.2280,0.9546,0.3120,5.249,-4.150,-0.061,70.928,12.316,-32.058
770,-0.2251,0.9155,0.2910,9.521,-2.625,-1.282,71.027,12.332,-32.091
780,-0.2139,0.8813,0.2754,9.216,0.793,-1.709,71.136,12.354,-32.086
790,-0.1973,0.8857,0.2861,2.625,3.296,-1.343,71.180,12.376,-32.058
800,-0.1895,0.9121,0.3032,-5.066,2.686,-0.122,71.136,12.371,-32.036
810,-0.1968,0.9468,0.3228,-10.193,0.488,0.610,71.038,12.354,-32.025
820,-0.2090,0.9717,0.3413,-10.803,-2.502,0.366,70.922,12.338,-32.053
830,-0.2202,0.9688,0.3408,-7.263,-4.211,-0.732,70.840,12.327,-32.091
840,-0.2246,0.9458,0.3296,-2.930,-3.662,-2.197,70.801,12.338,-32.135
850,-0.2187,0.9268,0.3237,-1.343,-1.709,-3.113,70.779,12.365,-32.162
860,-0.2187,0.9082,0.3110,-2.380,0.427,-3.174,70.757,12.398,-32.168
870,-0.2095,0.9121,0.3179,-5.859,2.686,-2.686,70.703,12.431,-32.151
880,-0.2036,0.9492,0.3477,-10.559,2.502,-1.587,70.598,12.442,-32.135
891,-0.2114,0.9771,0.3604,-10.620,0.122,-0.610,70.483,12.442,-32.135
901,-0.2271,0.9780,0.3540,-5.981,-1.892,-0.366,70.417,12.437,-32.151
911,-0.2339,0.9551,0.3301,0.916,-2.136,-0.854,70.422,12.442,-32.179
920,-0.2266,0.9248,0.3193,6.165,-0.305,-1.465,70.488,12.464,-32.184
930,-0.2139,0.9097,0.3101,7.751,0.793,-0.549,70.571,12.469,-32.179
940,-0.2065,0.9058,0.3140,6.897,0.244,1.526,70.648,12.453,-32.173
950,-0.2002,0.9355,0.3413,3.906,-2.563,3.601,70.675,12.404,-32.184
960,-0.2080,0.9580,0.3574,3.113,-6.592,4.150,70.686,12.332,-32.234
970,-0.2212,0.9521,0.3486,5.188,-8.667,2.808,70.714,12.277,-32.311
981,-0.2295,0.9224,0.3232,7.874,-7.080,0.488,70.774,12.261,-32.377
990,-0.2231,0.8848,0.2983,8.240,-1.648,-1.587,70.856,12.283,-32.399
1000,-0.2056,0.8799,0.3008,4.333,3.845,-1.587,70.911,12.310,-32.366
1010,-0.1851,0.9131,0.3291,-1.770,5.432,0.427,70.895,12.310,-32.311
1020,-0.1880,0.9639,0.3599,-4.944,1.892,3.052,70.840,12.266,-32.283
1031,-0.2046,0.9995,0.3730,-2.319,-3.479,4.517,70.801,12.200,-32.300
1040,-0.2212,1.0063,0.3740,4.150,-7.385,4.211,70.818,12.129,-32.360
1051,-0.2358,0.9688,0.3462,11.169,-7.446,2.441,70.911,12.090,-32.421
1061,-0.2412,0.9067,0.2959,14.526,-2.380,-0.366,71.060,12.107,-32.448
1070,-0.2178,0.8706,0.2788,9.827,5.127,-2.747,71.175,12.162,-32.404
1080,-0.1987,0.8779,0.2910,-1.892,9.949,-3.601,71.180,12.228,-32.322
1090,-0.1934,0.9194,0.3228,-14.465,10.742,-3.662,71.054,12.288,-32.228
1100,-0.2017,0.9746,0.3491,-23.376,8.545,-4.272,70.829,12.343,-32.162
1110,-0.2187,1.0068,0.3594,-24.780,6.226,-6.165,70.587,12.409,-32.119
1120,-0.2290,0.9961,0.3545,-19.958,6.104,-8.850,70.389,12.513,-32.091
1130,-0.2334,0.9482,0.3223,-13.184,8.911,-11.658,70.280,12.656,-32.047
1140,-0.2295,0.8916,0.2837,-8.545,14.160,-13.489,70.236,12.838,-31.959
1150,-0.2104,0.8628,0.2705,-8.850,18.982,-13.367,70.203,13.030,-31.822
1160,-0.1973,0.8696,0.2739,-13.000,19.958,-10.742,70.131,13.189,-31.663
1170,-0.1934,0.9087,0.3013,-16.846,15.930,-6.775,70.010,13.288,-31.536
1180,-0.2041,0.9521,0.3203,-16.296,7.874,-2.991,69.873,13.326,-31.470
1191,-0.2236,0.9717,0.3311,-9.277,-0.916,-0.732,69.796,13.321,-31.481
1201,-0.2368,0.9653,0.3350,0.977,-7.812,0.061,69.796,13.288,-31.553
1210,-0.2407,0.9365,0.3252,11.353,-11.230,0.000,69.895,13.255,-31.663
1220,-0.2344,0.8994,0.3179,18.311,-11.292,0.427,70.060,13.217,-31.772
1230,-0.2271,0.8794,0.3257,18.982,-10.376,1.831,70.225,13.167,-31.866
1240,-0.2295,0.8823,0.3374,14.038,-9.583,3.052,70.329,13.112,-31.948
1250,-0.2358,0.9023,0.3462,6.958,-8.484,2.808,70.373,13.063,-32.020
1260,-0.2466,0.9160,0.3521,0.122,-6.165,1.282,70.345,13.041,-32.075
1270,-0.2495,0.9272,0.3545,-5.249,-2.380,-1.038,70.274,13.057,-32.102
1280,-0.2422,0.9390,0.3589,-7.690,1.770,-3.052,70.186,13.096,-32.097
1290,-0.2344,0.9507,0.3726,-7.385,4.028,-3.723,70.104,13.140,-32.069
1300,-0.2280,0.9663,0.3901,-4.150,3.418,-2.747,70.049,13.167,-32.047
1311,-0.2246,0.9907,0.4194,1.099,0.793,-0.671,70.032,13.167,-32.042
1320,-0.2427,0.9888,0.4116,9.399,-2.869,1.404,70.093,13.140,-32.064
1330,-0.2661,0.9380,0.3525,19.287,-2.075,1.648,70.274,13.134,-32.075
1341,-0.2715,0.8633,0.2793,24.292,5.432,0.366,70.543,13.184,-32.025
1351,-0.2549,0.7930,0.2148,21.179,16.479,-0.916,70.829,13.288,-31.866
1360,-0.2217,0.7764,0.1948,10.864,26.062,-1.282,71.049,13.403,-31.619
1371,-0.1870,0.8330,0.2251,-3.479,27.039,0.854,71.109,13.475,-31.349
1380,-0.1831,0.9077,0.2637,-12.695,17.944,5.371,71.054,13.453,-31.157
1391,-0.2065,0.9595,0.2827,-11.475,5.310,9.521,70.988,13.365,-31.075
1401,-0.2246,0.9790,0.2905,-3.235,-5.493,10.071,70.977,13.244,-31.097
1411,-0.2319,0.9673,0.2998,6.042,-12.329,7.629,71.032,13.129,-31.190
1421,-0.2290,0.9316,0.2959,13.062,-14.954,4.089,71.147,13.041,-31.322
1430,-0.2241,0.8989,0.2949,12.146,-13.855,0.793,71.241,12.991,-31.454
1440,-0.2153,0.8931,0.3062,3.540,-11.536,-1.648,71.252,12.969,-31.569
1450,-0.2183,0.8989,0.3149,-7.812,-9.216,-3.052,71.147,12.969,-31.668
1461,-0.2187,0.9307,0.3374,-18.677,-5.798,-4.089,70.933,12.986,-31.740
1471,-0.2114,0.9805,0.3765,-26.123,-3.357,-4.639,70.648,13.002,-31.789
1481,-0.2119,1.0244,0.4126,-27.161,-2.869,-4.028,70.340,13.008,-31.827
1490,-0.2285,1.0435,0.4253,-20.691,-3.601,-3.357,70.098,13.013,-31.877
1500,-0.2412,1.0181,0.3999,-9.888,-3.296,-3.845,69.977,13.030,-31.921
1510,-0.2422,0.9673,0.3701,1.160,-0.671,-5.310,69.972,13.079,-31.948
1520,-0.2368,0.9194,0.3354,7.263,3.418,-5.981,70.049,13.151,-31.937
1530,-0.2241,0.8882,0.3120,7.263,7.690,-5.066,70.137,13.228,-31.877
1540,-0.2129,0.8857,0.3081,3.235,9.705,-2.808,70.197,13.282,-31.794
1550,-0.2124,0.9126,0.3262,-0.793,8.057,-0.183,70.208,13.299,-31.718
1561,-0.2144,0.9502,0.3496,-2.136,3.235,1.465,70.192,13.282,-31.679
1570,-0.2310,0.9688,0.3516,2.380,-2.319,1.831,70.208,13.255,-31.696
1580,-0.2417,0.9512,0.3379,10.803,-5.188,1.221,70.307,13.228,-31.745
1590,-0.2432,0.9160,0.3203,18.677,-5.066,0.977,70.488,13.211,-31.789
1600,-0.2383,0.8716,0.2993,22.888,-2.563,1.465,70.714,13.200,-31.805
1610,-0.2275,0.8604,0.2988,20.142,0.244,2.441,70.917,13.184,-31.800
1620,-0.2241,0.8691,0.3027,13.123,0.977,3.845,71.049,13.156,-31.772
1630,-0.2285,0.8916,0.3096,5.371,0.671,4.089,71.109,13.129,-31.756
1640,-0.2349,0.9150,0.3193,-1.343,-0.061,3.113,71.093,13.101,-31.745
1650,-0.2393,0.9297,0.3145,-5.188,-0.122,0.854,71.043,13.101,-31.745
1660,-0.2446,0.9229,0.3027,-5.920,0.977,-1.404,70.994,13.129,-31.740
1670,-0.2422,0.9072,0.2881,-5.554,2.930,-2.808,70.955,13.173,-31.718
1680,-0.2349,0.9019,0.2856,-6.042,4.150,-2.686,70.917,13.222,-31.690
1690,-0.2231,0.9155,0.2993,-6.653,3.723,-1.404,70.873,13.244,-31.657
1700,-0.2197,0.9429,0.3198,-6.470,0.732,0.610,70.812,13.233,-31.646
1710,-0.2251,0.9653,0.3335,-3.967,-3.479,2.380,70.768,13.189,-31.674
1721,-0.2349,0.9639,0.3364,1.038,-6.836,2.930,70.763,13.140,-31.729
1730,-0.2378,0.9453,0.3281,5.798,-6.958,2.197,70.812,13.096,-31.789
1740,-0.2261,0.9351,0.3271,6.836,-4.517,1.160,70.867,13.068,-31.827
1751,-0.2202,0.9326,0.3345,5.127,-2.502,1.282,70.906,13.046,-31.849
1761,-0.2192,0.9336,0.3364,2.136,-1.343,1.648,70.922,13.019,-31.855
1771,-0.2212,0.9438,0.3413,-1.587,-0.977,1.343,70.895,12.997,-31.860
1781,-0.2207,0.9517,0.3506,-4.333,-0.549,-0.061,70.840,12.986,-31.866
1791,-0.2207,0.9556,0.3545,-5.615,-0.244,-1.709,70.768,12.997,-31.877
1801,-0.2285,0.9458,0.3428,-4.272,0.244,-2.747,70.719,13.019,-31.882
1810,-0.2266,0.9277,0.3291,-1.831,1.709,-3.113,70.703,13.052,-31.877
1820,-0.2236,0.9131,0.3135,0.488,3.967,-2.686,70.714,13.090,-31.849
1830,-0.2178,0.9097,0.3076,1.343,6.042,-1.526,70.746,13.123,-31.794
1840,-0.2144,0.9204,0.3164,0.732,6.287,0.305,70.768,13.134,-31.734
1851,-0.2197,0.9351,0.3281,0.244,4.150,1.709,70.785,13.123,-31.685
1861,-0.2280,0.9541,0.3364,0.916,0.488,1.831,70.790,13.107,-31.674
1871,-0.2402,0.9502,0.3271,3.662,-2.319,0.977,70.829,13.090,-31.696
1880,-0.2456,0.9160,0.3008,7.141,-2.014,-0.061,70.900,13.096,-31.712
1890,-0.2363,0.8823,0.2749,8.179,1.526,-0.793,71.005,13.123,-31.701
1900,-0.2158,0.8813,0.2803,4.944,5.371,-0.488,71.076,13.145,-31.652
1910,-0.2002,0.9146,0.3062,-0.183,5.371,1.221,71.093,13.134,-31.597
1920,-0.2109,0.9482,0.3237,-2.502,1.404,3.174,71.076,13.101,-31.569
1931,-0.2339,0.9619,0.3228,-0.793,-3.052,3.540,71.065,13.057,-31.591
1940,-0.2490,0.9360,0.2959,3.601,-4.639,2.136,71.109,13.030,-31.624
1950,-0.2466,0.8862,0.2520,6.775,-1.343,-0.244,71.202,13.052,-31.641
1960,-0.2319,0.8486,0.2290,4.883,4.150,-1.160,71.296,13.090,-31.602
1971,-0.2036,0.8564,0.2500,-2.136,6.836,-0.183,71.312,13.112,-31.536
1980,-0.1929,0.9077,0.2910,-9.705,3.662,2.136,71.235,13.085,-31.498
1990,-0.1963,0.9800,0.3506,-12.695,-4.517,4.456,71.093,13.008,-31.525
2000,-0.2153,1.0332,0.3945,-8.850,-14.648,5.432,70.961,12.887,-31.652
2011,-0.2393,1.0444,0.4175,0.732,-22.095,4.822,70.895,12.761,-31.849
2021,-0.2544,1.0073,0.4087,11.353,-23.010,2.747,70.928,12.667,-32.058
2031,-0.2583,0.9434,0.3735,17.639,-16.541,-0.061,71.043,12.629,-32.223
2040,-0.2490,0.8828,0.3369,15.381,-4.944,-2.686,71.164,12.662,-32.278
2050,-0.2261,0.8643,0.3179,4.395,7.263,-3.906,71.208,12.733,-32.223
2061,-0.2085,0.8843,0.3125,-9.583,15.442,-3.418,71.136,12.810,-32.080
2070,-0.2046,0.9253,0.3218,-20.264,18.066,-2.136,70.972,12.881,-31.915
2081,-0.2153,0.9663,0.3262,-23.621,16.174,-0.977,70.774,12.931,-31.761
2091,-0.2261,0.9854,0.3179,-17.822,12.817,-1.160,70.637,12.975,-31.641
2101,-0.2261,0.9702,0.3032,-7.324,9.338,-1.953,70.604,13.024,-31.558
2111,-0.2207,0.9385,0.2861,3.601,6.348,-2.197,70.675,13.057,-31.503
2120,-0.2124,0.9009,0.2700,10.315,3.845,-1.709,70.812,13.085,-31.470
2130,-0.2065,0.8872,0.2725,10.681,0.793,-0.366,70.939,13.085,-31.465
2140,-0.2100,0.8896,0.2832,7.263,-2.930,1.160,71.021,13.063,-31.487
2150,-0.2124,0.9092,0.3032,2.686,-6.042,2.319,71.038,13.013,-31.542
2161,-0.2163,0.9355,0.3262,-0.244,-8.179,2.869,71.021,12.953,-31.608
2171,-0.2222,0.9561,0.3437,0.000,-9.033,2.808,70.994,12.892,-31.690
2181,-0.2241,0.9624,0.3560,2.930,-9.033,2.686,70.994,12.832,-31.767
2191,-0.2280,0.9595,0.3608,5.981,-8.179,2.136,71.021,12.783,-31.838
2201,-0.2388,0.9404,0.3452,7.812,-6.348,1.221,71.071,12.755,-31.899
2211,-0.2432,0.9126,0.3188,8.057,-2.258,-0.061,71.142,12.766,-31.921
2221,-0.2324,0.8975,0.3022,4.089,2.991,-0.916,71.191,12.794,-31.893
2231,-0.2144,0.9116,0.3110,-1.953,6.409,-0.610,71.186,12.816,-31.833
2241,-0.2109,0.9419,0.3198,-5.920,5.920,0.488,71.142,12.821,-31.772
2251,-0.2212,0.9595,0.3223,-4.639,2.563,1.587,71.104,12.810,-31.745
2261,-0.2300,0.9614,0.3291,-0.671,-1.160,1.587,71.098,12.794,-31.750
2271,-0.2388,0.9429,0.3140,4.028,-3.357,0.549,71.136,12.783,-31.778
2281,-0.2393,0.9053,0.2881,6.897,-2.258,-1.343,71.208,12.805,-31.805
2291,-0.2280,0.8789,0.2749,4.211,1.221,-2.625,71.268,12.843,-31.805
2301,-0.2168,0.8711,0.2705,-2.197,4.456,-2.625,71.268,12.887,-31.767
2311,-0.2036,0.8901,0.2832,-9.094,6.042,-1.648,71.197,12.914,-31.712
2321,-0.1963,0.9355,0.3130,-13.611,4.639,-0.427,71.076,12.914,-31.674
2331,-0.2036,0.9814,0.3452,-12.268,0.061,0.854,70.950,12.892,-31.668
2341,-0.2222,0.9932,0.3555,-4.211,-5.005,1.953,70.895,12.849,-31.712
2351,-0.2349,0.9771,0.3540,5.798,-7.812,2.319,70.928,12.799,-31.778
2361,-0.2378,0.9434,0.3335,13.306,-7.629,2.197,71.043,12.761,-31.844
2371,-0.2349,0.8970,0.3057,15.686,-4.211,1.953,71.191,12.739,-31.877
2381,-0.2178,0.8877,0.3037,10.376,0.000,1.709,71.296,12.728,-31.871
2391,-0.2056,0.9126,0.3198,1.221,1.892,1.709,71.307,12.706,-31.849
2401,-0.2090,0.9487,0.3374,-5.859,1.221,1.404,71.241,12.689,-31.833
2411,-0.2192,0.9795,0.3560,-8.545,-0.732,0.671,71.142,12.673,-31.838
2421,-0.2319,0.9829,0.3521,-5.920,-2.197,-0.793,71.071,12.673,-31.860
2431,-0.2422,0.9473,0.3184,0.732,-0.793,-2.319,71.082,12.700,-31.877
2441,-0.2407,0.8931,0.2759,5.798,3.662,-2.991,71.158,12.755,-31.849
2451,-0.2231,0.8540,0.2441,6.470,9.521,-2.258,71.274,12.821,-31.767
2461,-0.1987,0.8511,0.2393,2.502,13.245,-0.244,71.356,12.865,-31.641
2471,-0.1860,0.9004,0.2729,-3.357,11.292,2.686,71.367,12.859,-31.520
2481,-0.1914,0.9590,0.3076,-5.798,3.662,5.859,71.329,12.794,-31.465
2491,-0.2178,0.9907,0.3262,-2.197,-5.249,7.568,71.307,12.695,-31.492
2501,-0.2363,0.9907,0.3320,4.272,-11.719,6.775,71.329,12.596,-31.580
2511,-0.2417,0.9575,0.3252,9.644,-13.611,4.150,71.400,12.524,-31.701
2521,-0.2363,0.9185,0.3096,10.681,-10.620,1.038,71.483,12.491,-31.800
2531,-0.2217,0.8911,0.2998,5.615,-5.249,-1.160,71.526,12.491,-31.855
2541,-0.2036,0.8965,0.3154,-3.357,-0.488,-1.953,71.483,12.508,-31.866
2551,-0.1919,0.9453,0.3506,-12.634,1.465,-1.465,71.340,12.508,-31.855
2561,-0.1963,0.9995,0.3848,-17.151,-0.244,-0.488,71.147,12.491,-31.860
2571,-0.2192,1.0259,0.3970,-13.550,-3.235,-0.061,70.983,12.469,-31.893
2581,-0.2334,1.0117,0.3872,-4.700,-4.456,-0.671,70.906,12.458,-31.937
2591,-0.2422,0.9609,0.3525,4.578,-2.136,-2.319,70.933,12.480,-31.965
2601,-0.2358,0.9019,0.3042,10.010,3.723,-3.967,71.043,12.546,-31.943
2611,-0.2134,0.8706,0.2812,8.301,10.315,-4.456,71.153,12.623,-31.860
2621,-0.1943,0.8745,0.2822,1.526,13.550,-3.235,71.202,12.689,-31.740
2631,-0.1909,0.9136,0.2930,-5.493,12.146,-0.793,71.186,12.722,-31.624
2641,-0.2026,0.9521,0.3115,-8.240,7.324,1.221,71.125,12.722,-31.547
2651,-0.2129,0.9795,0.3330,-5.005,1.282,2.136,71.082,12.695,-31.531
2661,-0.2271,0.9829,0.3389,2.502,-4.272,1.831,71.098,12.662,-31.564
2671,-0.2378,0.9575,0.3164,12.146,-7.263,1.343,71.208,12.629,-31.630
2681,-0.2397,0.8989,0.2788,20.142,-6.165,1.587,71.411,12.612,-31.685
2691,-0.2339,0.8398,0.2402,21.301,-1.160,2.136,71.647,12.612,-31.690
2700,-0.2080,0.8340,0.2456,13.367,4.639,2.441,71.812,12.612,-31.635
2711,-0.1836,0.8931,0.2949,1.648,5.493,3.357,71.840,12.585,-31.569
2721,-0.1841,0.9775,0.3516,-5.798,-0.305,5.127,71.774,12.508,-31.558
2731,-0.2065,1.0371,0.3862,-3.723,-9.033,7.019,71.697,12.393,-31.624
2741,-0.2427,1.0410,0.3813,6.653,-15.442,7.935,71.719,12.272,-31.750
2751,-0.2568,0.9883,0.3408,19.531,-14.526,6.348,71.878,12.184,-31.866
2761,-0.2505,0.9038,0.2891,25.696,-6.592,3.418,72.125,12.156,-31.921
2771,-0.2285,0.8369,0.2427,20.020,4.028,0.732,72.350,12.189,-31.882
2780,-0.2119,0.8096,0.2124,5.066,12.939,-1.404,72.455,12.261,-31.756
2790,-0.1943,0.8315,0.2100,-12.695,17.212,-2.625,72.400,12.343,-31.597
2800,-0.1836,0.8936,0.2393,-27.954,15.930,-2.625,72.180,12.404,-31.454
2811,-0.1895,0.9614,0.2773,-34.363,10.010,-1.648,71.873,12.431,-31.360
2821,-0.2012,1.0122,0.3169,-28.992,1.892,-0.793,71.598,12.426,-31.344
2831,-0.2148,1.0234,0.3364,-15.747,-6.592,-0.732,71.433,12.404,-31.410
2841,-0.2227,0.9956,0.3359,-0.061,-12.268,-1.404,71.406,12.371,-31.531
2851,-0.2222,0.9541,0.3306,10.803,-13.550,-2.075,71.477,12.349,-31.674
2861,-0.2153,0.9136,0.3154,13.794,-11.414,-1.953,71.581,12.332,-31.789
2871,-0.2065,0.8936,0.3110,9.583,-6.653,-1.526,71.653,12.327,-31.860
2881,-0.2007,0.9106,0.3296,0.061,-1.953,-0.488,71.636,12.321,-31.877
2891,-0.2051,0.9482,0.3442,-8.789,1.099,0.549,71.537,12.310,-31.866
2901,-0.2144,0.9854,0.3511,-12.146,2.991,0.854,71.411,12.305,-31.833
2911,-0.2217,0.9932,0.3545,-9.155,3.296,0.732,71.318,12.305,-31.800
2921,-0.2266,0.9780,0.3384,-2.380,3.235,0.061,71.296,12.310,-31.767
2931,-0.2217,0.9565,0.3232,4.272,3.174,-0.671,71.345,12.332,-31.740
2941,-0.2134,0.9326,0.3115,8.911,2.075,-0.488,71.439,12.338,-31.723
2951,-0.2085,0.9180,0.3037,10.315,0.366,0.671,71.543,12.332,-31.718
2961,-0.2065,0.9141,0.3008,10.010,-1.282,2.075,71.642,12.310,-31.723
2971,-0.2056,0.9253,0.3130,8.606,-2.441,3.052,71.724,12.266,-31.734
2981,-0.2139,0.9404,0.3252,7.385,-3.723,3.601,71.785,12.222,-31.761
2991,-0.2280,0.9380,0.3105,8.057,-3.784,2.869,71.856,12.189,-31.789
3001,-0.2324,0.9189,0.2944,9.094,-1.587,1.404,71.949,12.184,-31.800
3011,-0.2271,0.9033,0.2817,7.446,2.014,0.305,72.032,12.200,-31.778
3021,-0.2173,0.8911,0.2749,3.784,5.615,-0.122,72.087,12.228,-31.723
3031,-0.1958,0.9209,0.2979,-1.831,6.958,0.000,72.087,12.244,-31.657
3041,-0.1958,0.9531,0.3135,-4.639,4.150,1.160,72.043,12.233,-31.613
3051,-0.2061,0.9692,0.3174,-2.197,0.366,2.075,72.026,12.206,-31.602
3061,-0.2163,0.9702,0.3188,2.014,-2.625,2.380,72.037,12.173,-31.619
3071,-0.2280,0.9341,0.2847,6.531,-3.113,1.465,72.109,12.156,-31.646
3081,-0.2275,0.8892,0.2456,7.263,0.549,-0.366,72.202,12.178,-31.641
3091,-0.2124,0.8716,0.2349,0.732,5.554,-1.953,72.252,12.228,-31.591
3101,-0.1909,0.8896,0.2549,-9.155,7.935,-2.441,72.191,12.266,-31.525
3111,-0.1797,0.9497,0.2998,-17.639,5.371,-1.831,72.026,12.283,-31.476
3121,-0.1924,1.0020,0.3315,-18.982,-1.404,-0.854,71.834,12.266,-31.492
3131,-0.2144,1.0171,0.3457,-12.329,-7.812,-0.549,71.691,12.239,-31.569
3141,-0.2212,1.0039,0.3511,-2.502,-10.742,-0.977,71.631,12.206,-31.679
3151,-0.2256,0.9639,0.3403,5.615,-9.399,-1.892,71.658,12.200,-31.778
3161,-0.2173,0.9277,0.3247,8.484,-4.883,-2.625,71.719,12.211,-31.833
3171,-0.2065,0.9116,0.3169,4.883,0.061,-2.686,71.757,12.233,-31.838
3181,-0.2061,0.9155,0.3188,-2.197,3.784,-2.258,71.730,12.266,-31.811
3191,-0.2056,0.9414,0.3320,-9.521,6.042,-2.441,71.636,12.299,-31.761
3201,-0.2173,0.9971,0.3560,-13.733,5.310,-4.395,71.494,12.354,-31.723
3211,-0.2261,0.9897,0.3486,-8.423,4.395,-5.432,71.411,12.415,-31.696
3221,-0.2300,0.9478,0.3149,-1.587,5.005,-6.165,71.400,12.491,-31.668
3231,-0.2285,0.8999,0.2803,3.174,7.996,-6.531,71.461,12.590,-31.613
3241,-0.2104,0.8784,0.2617,3.967,11.230,-5.615,71.537,12.684,-31.520
3251,-0.2002,0.8804,0.2617,2.014,11.963,-3.174,71.598,12.744,-31.415
3261,-0.2017,0.9023,0.2700,-0.061,8.972,0.061,71.636,12.766,-31.328
3271,-0.2095,0.9272,0.2847,-0.549,3.113,2.502,71.653,12.750,-31.289
3281,-0.2246,0.9312,0.2793,2.441,-2.625,3.235,71.686,12.711,-31.306
3291,-0.2358,0.9097,0.2627,7.141,-5.737,2.686,71.768,12.684,-31.349
3301,-0.2266,0.8853,0.2515,10.742,-5.798,2.380,71.889,12.651,-31.399
3311,-0.2041,0.8940,0.2808,9.949,-5.615,3.479,71.982,12.601,-31.443
3321,-0.1865,0.9502,0.3447,7.019,-9.277,6.531,72.021,12.486,-31.514
3331,-0.1890,1.0249,0.4263,5.981,-17.029,9.888,72.004,12.316,-31.646
3341,-0.2212,1.0728,0.4771,8.728,-25.818,11.841,71.988,12.107,-31.860
3351,-0.2637,1.0508,0.4575,16.174,-27.588,10.193,72.043,11.937,-32.097
3361,-0.2793,0.9766,0.3960,22.461,-17.029,4.089,72.191,11.876,-32.250
3371,-0.2642,0.8970,0.3320,20.142,1.099,-2.930,72.367,11.942,-32.250
3381,-0.2339,0.8457,0.2803,9.338,19.226,-7.141,72.488,12.090,-32.086
3391,-0.2070,0.8281,0.2363,-6.470,32.532,-8.057,72.499,12.283,-31.794
3400,-0.1899,0.8604,0.2295,-23.437,37.292,-6.653,72.361,12.453,-31.448
3410,-0.1816,0.9175,0.2456,-35.217,33.691,-4.456,72.109,12.579,-31.135
3421,-0.1855,0.9839,0.2715,-35.645,24.292,-2.686,71.829,12.656,-30.905
3431,-0.1987,1.0225,0.2993,-24.841,12.146,-1.953,71.625,12.689,-30.795
3441,-0.2158,1.0117,0.3003,-7.202,1.404,-2.136,71.576,12.706,-30.784
3451,-0.2246,0.9556,0.2734,10.742,-4.211,-3.113,71.697,12.722,-30.839
3461,-0.2236,0.8989,0.2451,20.447,-4.089,-3.906,71.917,12.750,-30.888
3470,-0.2134,0.8530,0.2227,20.325,-1.465,-3.357,72.147,12.788,-30.916
3481,-0.1997,0.8481,0.2290,11.963,1.831,-1.587,72.296,12.810,-30.899
3491,-0.1958,0.8945,0.2520,-1.160,2.502,1.404,72.312,12.794,-30.872
3501,-0.1963,0.9575,0.2876,-10.803,0.793,3.723,72.219,12.744,-30.855
3511,-0.2046,1.0107,0.3320,-13.794,-2.380,4.211,72.076,12.678,-30.866
3521,-0.2197,1.0356,0.3516,-9.033,-6.409,3.052,71.966,12.618,-30.916
3531,-0.2378,1.0044,0.3340,0.671,-8.301,0.061,71.949,12.590,-30.998
3541,-0.2437,0.9463,0.3018,9.216,-6.226,-3.235,72.032,12.612,-31.069
3551,-0.2319,0.8945,0.2847,11.475,-2.075,-4.944,72.142,12.667,-31.102
3561,-0.2119,0.8882,0.2974,7.080,0.610,-4.211,72.202,12.711,-31.113
3571,-0.2100,0.9229,0.3301,0.549,-0.427,-1.526,72.186,12.717,-31.119
3581,-0.2153,0.9858,0.3799,-2.869,-5.005,0.916,72.114,12.678,-31.168
3591,-0.2368,1.0234,0.4043,0.732,-11.230,2.258,72.065,12.618,-31.267
3601,-0.2656,0.9937,0.3726,11.841,-13.306,1.953,72.125,12.574,-31.393
3611,-0.2705,0.9194,0.3086,22.034,-7.202,-0.305,72.323,12.585,-31.465
3621,-0.2529,0.8369,0.2476,25.024,3.662,-2.319,72.592,12.656,-31.437
3631,-0.2192,0.7979,0.2207,17.517,14.526,-2.625,72.812,12.744,-31.300
3641,-0.1958,0.8188,0.2285,1.648,19.348,-0.854,72.883,12.810,-31.113
3651,-0.1885,0.8896,0.2539,-13.000,16.296,1.831,72.806,12.827,-30.948
3661,-0.2007,0.9717,0.2944,-19.104,7.874,3.723,72.636,12.799,-30.861
3671,-0.2207,1.0181,0.3110,-13.489,-1.953,4.333,72.504,12.744,-30.866
3681,-0.2305,1.0181,0.3105,-1.038,-7.996,3.296,72.488,12.684,-30.932
3691,-0.2314,0.9751,0.2925,10.559,-8.789,1.404,72.581,12.645,-31.014
3701,-0.2256,0.9058,0.2441,16.296,-4.211,-0.732,72.757,12.645,-31.058
3710,-0.2046,0.8687,0.2261,11.353,2.808,-2.808,72.900,12.684,-31.042
3721,-0.1841,0.8745,0.2388,-1.404,6.775,-3.235,72.916,12.722,-30.981
3731,-0.1797,0.9297,0.2803,-14.709,6.409,-2.563,72.784,12.744,-30.927
3741,-0.1929,1.0063,0.3237,-22.461,1.709,-1.587,72.559,12.739,-30.916
3751,-0.2168,1.0415,0.3403,-19.409,-4.028,-1.221,72.350,12.722,-30.959
3761,-0.2349,1.0322,0.3379,-8.911,-7.080,-1.831,72.241,12.711,-31.036
3771,-0.2368,0.9810,0.3154,2.502,-6.287,-3.479,72.252,12.728,-31.108
3781,-0.2319,0.9165,0.2866,9.216,-2.441,-5.005,72.339,12.777,-31.146
3791,-0.2144,0.8921,0.2891,7.446,1.221,-5.310,72.405,12.832,-31.152
3801,-0.2104,0.9043,0.3042,-0.427,1.404,-4.333,72.394,12.876,-31.152
3811,-0.2256,0.9282,0.3096,-6.958,-0.061,-3.296,72.312,12.903,-31.163
3821,-0.2383,0.9463,0.3140,-9.338,-0.793,-3.174,72.208,12.936,-31.179
3831,-0.2456,0.9438,0.3135,-7.935,0.366,-3.784,72.125,12.986,-31.185
3841,-0.2397,0.9282,0.3047,-3.662,2.686,-4.211,72.087,13.041,-31.174
3851,-0.2227,0.9287,0.3179,-0.427,3.723,-3.418,72.081,13.079,-31.146
3861,-0.2187,0.9414,0.3374,2.625,0.916,-0.854,72.087,13.085,-31.141
3871,-0.2295,0.9561,0.3433,6.958,-3.479,1.953,72.131,13.052,-31.168
3881,-0.2446,0.9482,0.3306,12.207,-6.348,3.906,72.230,13.002,-31.218
3891,-0.2534,0.9116,0.2979,16.479,-4.700,4.150,72.383,12.969,-31.251
3901,-0.2539,0.8584,0.2407,17.212,1.343,2.991,72.576,12.975,-31.229
3911,-0.2363,0.8271,0.2080,12.024,9.705,1.343,72.751,13.013,-31.130
3921,-0.1968,0.8716,0.2432,1.160,13.916,1.160,72.812,13.035,-30.992
3931,-0.1890,0.9595,0.3042,-6.531,7.996,3.967,72.762,12.997,-30.899
3941,-0.2036,1.0386,0.3589,-4.211,-4.578,7.935,72.697,12.887,-30.921
3951,-0.2383,1.0615,0.3726,7.080,-17.334,10.803,72.719,12.722,-31.058
3961,-0.2646,1.0210,0.3433,23.010,-22.400,10.193,72.889,12.568,-31.245
3971,-0.2627,0.9351,0.2896,34.973,-16.602,6.653,73.202,12.486,-31.388
3981,-0.2397,0.8511,0.2290,35.767,-4.883,3.784,73.570,12.464,-31.426
3991,-0.2178,0.7827,0.1807,24.963,7.751,2.808,73.867,12.486,-31.344
4000,-0.1958,0.7896,0.1709,5.249,16.846,2.808,73.998,12.513,-31.168
4011,-0.1782,0.8682,0.2046,-16.296,18.311,3.662,73.905,12.519,-30.976
4021,-0.1855,0.9644,0.2529,-28.870,12.085,5.249,73.658,12.480,-30.844
4031,-0.2007,1.0386,0.2891,-27.527,2.625,5.920,73.405,12.415,-30.800
4041,-0.2129,1.0669,0.3110,-15.991,-6.348,4.944,73.240,12.332,-30.850
4051,-0.2095,1.0469,0.3203,-0.916,-11.780,2.441,73.202,12.261,-30.954
4061,-0.2036,0.9956,0.3140,11.230,-13.000,-0.122,73.284,12.211,-31.086
4071,-0.2026,0.9414,0.2896,15.564,-10.620,-2.197,73.411,12.195,-31.196
4081,-0.2021,0.9023,0.2759,10.681,-5.432,-3.662,73.499,12.217,-31.262
4091,-0.1992,0.9053,0.2842,-0.732,0.366,-4.089,73.477,12.250,-31.267
4101,-0.2031,0.9395,0.3091,-13.184,4.578,-3.662,73.339,12.294,-31.234
4111,-0.2163,0.9897,0.3315,-20.996,6.531,-3.235,73.125,12.338,-31.179
4121,-0.2310,1.0142,0.3354,-20.203,6.897,-3.113,72.922,12.382,-31.119
4131,-0.2363,1.0054,0.3218,-13.000,7.202,-3.540,72.801,12.442,-31.058
4141,-0.2305,0.9731,0.3027,-3.967,7.690,-3.906,72.773,12.502,-30.998
4151,-0.2241,0.9360,0.2778,3.906,8.240,-3.845,72.834,12.568,-30.927
4161,-0.2158,0.9067,0.2642,7.629,7.996,-2.808,72.933,12.623,-30.861
4171,-0.2026,0.9072,0.2666,6.897,5.981,-0.793,73.021,12.640,-30.800
4181,-0.2036,0.9272,0.2783,4.822,2.136,1.526,73.076,12.623,-30.778
4191,-0.2114,0.9526,0.2954,4.761,-2.319,3.296,73.120,12.579,-30.789
4201,-0.2290,0.9478,0.2798,8.728,-5.981,4.395,73.196,12.524,-30.833
4211,-0.2383,0.9150,0.2466,14.160,-5.859,4.395,73.345,12.486,-30.877
4221,-0.2324,0.8618,0.2085,16.724,-2.319,4.089,73.537,12.458,-30.888
4231,-0.2046,0.8535,0.2046,12.939,2.319,3.540,73.707,12.442,-30.855
4241,-0.1733,0.8999,0.2490,5.554,2.380,4.395,73.773,12.387,-30.822
4251,-0.1709,0.9780,0.3105,0.916,-4.517,7.385,73.768,12.272,-30.844
4261,-0.1943,1.0391,0.3486,3.479,-15.259,10.620,73.751,12.107,-30.965
4271,-0.2334,1.0420,0.3452,12.573,-23.193,11.658,73.817,11.931,-31.157
4281,-0.2500,0.9961,0.3208,22.156,-22.827,9.399,73.976,11.794,-31.355
4291,-0.2441,0.9243,0.2764,25.879,-14.709,5.432,74.202,11.728,-31.487
4301,-0.2319,0.8589,0.2275,20.142,-2.930,2.014,74.405,11.728,-31.509
4311,-0.2095,0.8296,0.1904,6.592,8.301,-0.122,74.515,11.772,-31.426
4321,-0.1865,0.8540,0.1875,-10.620,15.198,-1.099,74.471,11.827,-31.278
4331,-0.1748,0.9077,0.2114,-24.292,15.625,-0.793,74.284,11.865,-31.130
4341,-0.1733,0.9819,0.2534,-30.396,10.498,0.183,74.015,11.871,-31.025
4351,-0.1772,1.0503,0.3066,-26.489,1.404,1.160,73.757,11.832,-31.009
4361,-0.1987,1.0664,0.3276,-13.184,-8.484,1.648,73.597,11.777,-31.086
4371,-0.2192,1.0259,0.3203,3.662,-14.343,1.160,73.597,11.722,-31.223
4381,-0.2212,0.9619,0.2842,16.052,-13.611,-0.183,73.729,11.695,-31.355
4391,-0.2085,0.9038,0.2534,19.348,-7.629,-1.526,73.911,11.695,-31.437
4401,-0.1880,0.8745,0.2461,12.512,-0.549,-1.587,74.037,11.711,-31.448
4411,-0.1738,0.8984,0.2661,-0.977,3.906,-0.549,74.031,11.711,-31.410
4421,-0.1792,0.9546,0.2954,-13.855,4.211,0.854,73.889,11.700,-31.366
4431,-0.1973,1.0049,0.3184,-19.470,2.014,1.038,73.685,11.684,-31.344
4441,-0.2124,1.0234,0.3232,-15.930,-0.061,-0.366,73.515,11.684,-31.344
4451,-0.2158,1.0132,0.3179,-7.507,-0.793,-2.380,73.427,11.706,-31.360
4461,-0.2153,0.9707,0.2949,1.709,-0.183,-3.662,73.438,11.739,-31.371
4471,-0.2051,0.9355,0.2812,7.080,1.343,-3.601,73.510,11.777,-31.371
4481,-0.1968,0.9243,0.2847,6.531,1.770,-2.258,73.570,11.805,-31.360
4491,-0.1914,0.9438,0.2988,3.479,0.427,-0.549,73.592,11.799,-31.355
4501,-0.2012,0.9756,0.3174,1.831,-2.197,1.099,73.592,11.777,-31.371
4511,-0.2158,0.9961,0.3184,3.967,-4.272,2.197,73.608,11.744,-31.410
4521,-0.2271,0.9741,0.2944,9.033,-3.479,2.380,73.691,11.717,-31.437
4531,-0.2275,0.9268,0.2549,12.756,0.427,1.221,73.828,11.722,-31.426
4541,-0.2222,0.8828,0.2246,10.315,5.737,-0.610,73.960,11.766,-31.377
4551,-0.2017,0.8711,0.2124,2.991,10.132,-1.953,74.031,11.821,-31.278
4561,-0.1768,0.9141,0.2461,-6.653,10.376,-2.197,73.993,11.860,-31.185
4571,-0.1782,0.9697,0.2769,-11.658,4.761,-0.793,73.889,11.860,-31.141
4581,-0.1987,1.0005,0.2920,-8.423,-2.014,0.671,73.801,11.838,-31.157
4591,-0.2104,1.0059,0.2974,-0.488,-6.409,1.282,73.779,11.805,-31.218
4601,-0.2212,0.9697,0.2793,8.545,-6.836,0.732,73.856,11.783,-31.284
4611,-0.2236,0.9126,0.2417,13.062,-2.258,-0.793,73.993,11.799,-31.306
4621,-0.2109,0.8750,0.2178,9.094,4.395,-1.953,74.108,11.843,-31.267
4631,-0.1953,0.8716,0.2114,-0.977,9.094,-2.380,74.136,11.898,-31.185
4641,-0.1865,0.8979,0.2300,-11.841,9.827,-2.014,74.053,11.937,-31.097
4651,-0.1855,0.9561,0.2656,-19.592,6.470,-1.526,73.878,11.953,-31.036
4661,-0.1929,1.0156,0.3037,-20.020,0.061,-1.038,73.674,11.948,-31.036
4671,-0.2031,1.0439,0.3364,-12.512,-6.836,-0.610,73.521,11.920,-31.108
4681,-0.2192,1.0278,0.3437,-1.282,-11.902,-0.549,73.460,11.887,-31.223
4691,-0.2310,0.9790,0.3193,9.460,-12.146,-1.404,73.515,11.876,-31.349
4701,-0.2227,0.9268,0.2881,14.404,-6.958,-2.686,73.636,11.893,-31.426
4711,-0.2085,0.8892,0.2651,11.902,0.122,-2.747,73.751,11.926,-31.432
4721,-0.1982,0.8882,0.2598,3.906,5.920,-1.587,73.801,11.959,-31.377
4731,-0.1948,0.9185,0.2720,-5.798,8.545,0.000,73.757,11.975,-31.295
4741,-0.2021,0.9580,0.2847,-12.268,7.751,0.793,73.647,11.986,-31.218
4751,-0.2148,0.9805,0.2900,-12.268,5.127,0.488,73.537,11.992,-31.163
4761,-0.2261,0.9727,0.2817,-7.568,2.808,-0.916,73.466,12.019,-31.141
4771,-0.2256,0.9380,0.2627,-2.563,2.502,-3.052,73.455,12.063,-31.124
4781,-0.2231,0.8931,0.2437,-0.977,4.028,-4.578,73.466,12.134,-31.097
4791,-0.2148,0.8794,0.2500,-5.188,5.615,-4.639,73.427,12.206,-31.053
4801,-0.2100,0.8887,0.2705,-11.475,5.554,-2.991,73.317,12.255,-31.009
4811,-0.2090,0.9238,0.3013,-15.564,3.784,-0.671,73.158,12.266,-30.976
4821,-0.2124,0.9629,0.3267,-14.404,0.854,1.892,72.999,12.250,-30.959
4831,-0.2202,0.9854,0.3403,-7.690,-1.709,4.333,72.900,12.200,-30.965
4841,-0.2256,0.9824,0.3335,2.319,-2.563,5.798,72.905,12.140,-30.970
4851,-0.2241,0.9604,0.3154,10.498,-1.221,6.470,73.004,12.074,-30.965
4861,-0.2192,0.9297,0.2944,13.000,1.587,6.714,73.130,12.025,-30.927
4871,-0.2124,0.9180,0.2798,10.315,4.517,5.981,73.246,11.986,-30.866
4881,-0.1997,0.9282,0.2808,3.357,6.287,4.639,73.295,11.953,-30.789
4891,-0.2002,0.9541,0.2783,-3.479,6.653,3.906,73.279,11.931,-30.718
4901,-0.2026,0.9727,0.2764,-6.348,6.470,2.991,73.240,11.915,-30.641
4911,-0.2041,0.9780,0.2739,-5.249,6.165,2.258,73.213,11.904,-30.575
4921,-0.2065,0.9634,0.2520,-1.526,6.348,1.587,73.235,11.909,-30.509
4931,-0.1982,0.9463,0.2363,2.197,7.202,0.977,73.295,11.915,-30.438
4941,-0.1855,0.9399,0.2388,3.662,6.958,1.282,73.372,11.909,-30.366
4951,-0.1782,0.9497,0.2505,3.784,4.333,2.319,73.438,11.887,-30.317
4961,-0.1797,0.9683,0.2690,3.540,0.122,3.357,73.488,11.838,-30.306
4971,-0.1831,0.9897,0.2886,4.150,-4.944,3.906,73.521,11.766,-30.339
4981,-0.1934,0.9878,0.2925,6.897,-8.972,3.723,73.575,11.695,-30.416
4991,-0.2031,0.9653,0.2881,9.644,-9.949,2.686,73.652,11.640,-30.509
5001,-0.2056,0.9399,0.2788,9.644,-7.996,1.221,73.729,11.607,-30.580
5011,-0.2002,0.9243,0.2773,5.798,-4.578,-0.427,73.773,11.602,-30.630
5021,-0.1973,0.9214,0.2744,-0.488,-1.282,-1.831,73.762,11.613,-30.646
5031,-0.1953,0.9365,0.2856,-6.775,1.099,-2.930,73.685,11.640,-30.646
5041,-0.1987,0.9541,0.2920,-10.925,1.892,-3.357,73.575,11.673,-30.635
5051,-0.2046,0.9697,0.2964,-10.925,1.831,-3.479,73.460,11.711,-30.630
5061,-0.2104,0.9717,0.2959,-7.935,1.343,-3.113,73.378,11.744,-30.624
5071,-0.2163,0.9604,0.2788,-2.869,1.099,-2.563,73.356,11.777,-30.619
5081,-0.2134,0.9458,0.2754,0.549,1.587,-2.136,73.367,11.805,-30.608
5091,-0.2109,0.9307,0.2627,2.136,1.831,-1.404,73.400,11.827,-30.597
5101,-0.2036,0.9272,0.2603,1.770,1.953,-1.099,73.433,11.843,-30.580
5111,-0.1963,0.9482,0.2817,-0.549,0.854,-0.427,73.427,11.843,-30.575
5121,-0.1987,0.9683,0.2974,-1.099,-1.587,0.488,73.405,11.827,-30.586
5131,-0.2075,0.9766,0.3027,0.977,-3.906,0.977,73.405,11.805,-30.624
5141,-0.2197,0.9565,0.2881,5.249,-4.639,0.793,73.444,11.788,-30.668
5151,-0.2231,0.9209,0.2676,8.484,-2.136,-0.305,73.526,11.799,-30.690
5161,-0.2104,0.8931,0.2471,7.751,2.258,-0.916,73.619,11.827,-30.668
5171,-0.1929,0.9009,0.2529,3.296,5.432,-0.427,73.669,11.843,-30.619
5181,-0.1821,0.9448,0.2861,-1.953,4.089,1.465,73.652,11.827,-30.575
5191,-0.1924,0.9951,0.3179,-2.441,-1.526,3.662,73.614,11.772,-30.575
5201,-0.2041,1.0327,0.3447,3.174,-8.179,5.066,73.614,11.689,-30.641
5211,-0.2236,1.0176,0.3320,13.428,-12.817,5.554,73.707,11.602,-30.751
5221,-0.2305,0.9624,0.2866,23.560,-11.108,4.700,73.916,11.541,-30.850
5231,-0.2246,0.8950,0.2358,26.062,-3.357,3.052,74.185,11.525,-30.872
5241,-0.2070,0.8472,0.2002,19.287,6.226,1.404,74.410,11.547,-30.806
5251,-0.1821,0.8540,0.1982,4.517,13.123,0.000,74.509,11.585,-30.679
5261,-0.1724,0.9058,0.2183,-10.864,13.367,-0.183,74.449,11.607,-30.547
5271,-0.1792,0.9663,0.2510,-19.531,7.996,0.305,74.279,11.613,-30.465
5281,-0.1929,1.0117,0.2739,-18.372,0.549,0.610,74.103,11.596,-30.460
5291,-0.2090,1.0186,0.2852,-9.094,-5.798,0.366,74.004,11.574,-30.515
5301,-0.2119,0.9858,0.2749,2.625,-8.362,-0.488,74.020,11.558,-30.597
5311,-0.2090,0.9326,0.2563,10.254,-6.714,-1.343,74.114,11.558,-30.668
5321,-0.1997,0.8960,0.2388,9.827,-2.991,-1.770,74.213,11.574,-30.701
5331,-0.1938,0.8794,0.2349,2.869,0.427,-2.136,74.251,11.596,-30.707
5341,-0.1899,0.9009,0.2515,-7.812,2.563,-2.380,74.180,11.624,-30.685
5351,-0.1885,0.9546,0.2886,-17.944,2.686,-2.319,73.993,11.646,-30.668
5361,-0.1958,1.0098,0.3325,-21.606,0.427,-2.075,73.757,11.656,-30.668
5371,-0.2139,1.0313,0.3467,-15.991,-2.991,-1.770,73.570,11.656,-30.701
5381,-0.2324,1.0034,0.3325,-5.066,-4.517,-2.014,73.488,11.673,-30.751
5391,-0.2378,0.9521,0.3013,4.639,-2.136,-2.930,73.521,11.711,-30.784
5401,-0.2227,0.9141,0.2778,8.301,2.991,-3.174,73.603,11.766,-30.762
5411,-0.2007,0.9023,0.2734,5.859,7.080,-1.526,73.669,11.799,-30.696
5421,-0.1924,0.9209,0.2788,0.732,8.057,1.221,73.685,11.805,-30.613
5431,-0.1982,0.9619,0.2939,-3.662,5.798,3.418,73.658,11.783,-30.547
5441,-0.2100,0.9912,0.3032,-2.930,2.075,4.272,73.625,11.744,-30.515
5451,-0.2158,0.9990,0.3042,3.357,-0.977,4.150,73.658,11.700,-30.515
5461,-0.2129,0.9863,0.2900,12.146,-2.747,4.395,73.773,11.651,-30.526
5471,-0.2139,0.9331,0.2529,20.142,-2.563,5.432,73.982,11.602,-30.536
5481,-0.2012,0.8970,0.2305,21.973,0.244,5.920,74.218,11.552,-30.520
5491,-0.1865,0.8896,0.2231,16.174,2.930,5.981,74.405,11.503,-30.471
5501,-0.1738,0.9136,0.2388,6.104,3.662,5.188,74.482,11.453,-30.421
5511,-0.1689,0.9692,0.2754,-3.845,1.343,4.150,74.449,11.398,-30.399
5521,-0.1841,1.0127,0.2964,-7.751,-2.808,2.930,74.361,11.349,-30.416
5531,-0.2100,1.0034,0.2759,-3.540,-4.822,1.282,74.317,11.321,-30.460
5541,-0.2187,0.9639,0.2446,2.747,-1.770,-0.916,74.355,11.338,-30.482
5551,-0.2007,0.9180,0.2124,5.188,4.822,-2.441,74.443,11.382,-30.438
5561,-0.1807,0.8936,0.2036,2.319,10.315,-2.075,74.509,11.426,-30.344
5571,-0.1572,0.9175,0.2295,-5.371,11.047,-0.671,74.493,11.442,-30.240
5581,-0.1626,0.9766,0.2617,-11.353,5.493,0.977,74.394,11.426,-30.179
5591,-0.1875,1.0137,0.2754,-10.132,-2.319,1.465,74.295,11.393,-30.201
5601,-0.2104,1.0088,0.2754,-3.601,-7.751,0.732,74.251,11.365,-30.273
5611,-0.2129,0.9795,0.2681,3.479,-8.484,-0.793,74.273,11.354,-30.361
5621,-0.2021,0.9463,0.2607,6.348,-5.859,-1.892,74.328,11.360,-30.421
5631,-0.1909,0.9229,0.2583,4.395,-3.052,-1.892,74.361,11.365,-30.460
5641,-0.1816,0.9302,0.2793,-1.160,-1.770,-1.831,74.339,11.371,-30.482
5651,-0.1860,0.9683,0.3037,-6.897,-2.441,-1.831,74.246,11.371,-30.509
5662,-0.2002,0.9893,0.3174,-8.789,-3.174,-2.197,74.130,11.382,-30.547
5671,-0.2178,0.9849,0.3101,-7.019,-2.197,-2.747,74.037,11.404,-30.575
5681,-0.2236,0.9629,0.2930,-3.113,0.854,-3.418,73.998,11.453,-30.575
5691,-0.2158,0.9409,0.2690,0.122,4.517,-3.601,74.004,11.508,-30.542
5701,-0.2012,0.9365,0.2710,0.366,6.653,-2.441,74.020,11.552,-30.482
5711,-0.1987,0.9443,0.2715,-0.671,6.226,-0.671,74.026,11.574,-30.427
5721,-0.1958,0.9658,0.2710,-0.916,4.333,0.244,74.026,11.580,-30.383
5731,-0.1992,0.9761,0.2700,0.366,1.953,0.488,74.042,11.574,-30.361
5741,-0.2017,0.9653,0.2539,3.723,0.427,0.366,74.092,11.569,-30.355
5751,-0.2012,0.9497,0.2461,6.653,0.183,0.427,74.169,11.569,-30.355
5761,-0.1963,0.9375,0.2412,7.385,0.122,0.854,74.257,11.558,-30.350
5771,-0.1870,0.9404,0.2456,6.104,-0.305,1.099,74.328,11.541,-30.350
5781,-0.1855,0.9526,0.2598,3.357,-2.014,1.099,74.366,11.514,-30.366
5791,-0.1978,0.9521,0.2598,1.648,-3.479,0.244,74.377,11.503,-30.399
5801,-0.2065,0.9453,0.2593,0.671,-2.991,-1.709,74.377,11.514,-30.432
5811,-0.2104,0.9336,0.2559,-1.221,-1.526,-3.235,74.366,11.547,-30.460
5821,-0.2227,0.9072,0.2471,-3.174,0.427,-3.723,74.339,11.602,-30.465
5831,-0.2300,0.9043,0.2515,-5.493,2.502,-3.540,74.290,11.662,-30.449
5841,-0.2275,0.9214,0.2710,-7.996,2.991,-2.380,74.207,11.711,-30.427
5851,-0.2285,0.9492,0.2886,-8.240,1.648,-0.610,74.114,11.733,-30.410
5861,-0.2271,0.9712,0.3076,-5.432,-0.549,0.977,74.042,11.733,-30.416
5871,-0.2202,0.9814,0.3130,-1.099,-2.686,2.136,74.015,11.706,-30.432
5881,-0.2139,0.9722,0.3091,3.784,-3.235,2.686,74.026,11.673,-30.460
5891,-0.2017,0.9517,0.2939,6.531,-1.526,2.441,74.081,11.646,-30.465
5901,-0.1870,0.9380,0.2788,5.798,1.587,1.953,74.136,11.624,-30.443
5911,-0.1768,0.9468,0.2773,2.502,4.639,1.587,74.163,11.607,-30.394
5921,-0.1738,0.9624,0.2778,-1.038,5.737,1.587,74.163,11.591,-30.333
5931,-0.1807,0.9644,0.2651,-2.258,5.249,1.343,74.158,11.574,-30.278
5941,-0.1865,0.9517,0.2476,-0.916,5.005,0.366,74.169,11.580,-30.229
5951,-0.1865,0.9336,0.2256,1.221,5.676,-0.549,74.218,11.591,-30.174
5961,-0.1758,0.9214,0.2168,2.502,6.409,-0.366,74.279,11.602,-30.114
5971,-0.1680,0.9331,0.2266,2.258,4.761,1.160,74.333,11.585,-30.064
5981,-0.1748,0.9570,0.2363,2.869,0.305,2.991,74.377,11.547,-30.053
5991,-0.1890,0.9771,0.2622,4.639,-5.310,4.089,74.421,11.481,-30.092
6001,-0.2134,0.9658,0.2607,7.812,-9.766,3.906,74.487,11.426,-30.179
6011,-0.2266,0.9219,0.2354,10.864,-9.399,2.441,74.592,11.393,-30.262
6021,-0.2163,0.8975,0.2227,9.094,-5.005,1.160,74.685,11.387,-30.311
6031,-0.1953,0.9014,0.2310,3.235,-1.221,1.526,74.729,11.376,-30.317
6041,-0.1807,0.9414,0.2646,-3.052,-1.404,3.540,74.691,11.327,-30.322
6051,-0.1797,1.0044,0.3018,-5.432,-6.226,5.798,74.614,11.239,-30.366
6061,-0.1992,1.0327,0.3154,-0.305,-12.268,7.141,74.575,11.135,-30.471
6071,-0.2222,1.0107,0.3071,8.301,-15.015,6.531,74.619,11.041,-30.597
6081,-0.2280,0.9609,0.2798,13.672,-12.573,4.028,74.724,10.986,-30.712
6091,-0.2222,0.9077,0.2446,12.085,-5.371,1.099,74.839,10.986,-30.762
6101,-0.2036,0.8906,0.2300,3.052,2.625,-0.793,74.877,11.014,-30.740
6111,-0.1768,0.9214,0.2471,-8.728,7.324,-1.282,74.806,11.041,-30.668
6121,-0.1597,0.9912,0.2871,-17.517,6.348,-0.366,74.636,11.036,-30.608
6131,-0.1714,1.0435,0.3057,-16.785,1.404,0.854,74.460,11.014,-30.591
6141,-0.1899,1.0508,0.2974,-6.531,-2.258,0.977,74.388,10.986,-30.613
6151,-0.2017,1.0107,0.2720,5.371,-2.258,-0.061,74.443,10.981,-30.635
6161,-0.1997,0.9458,0.2324,12.817,1.282,-1.526,74.592,11.003,-30.624
6171,-0.1787,0.9150,0.2197,11.230,5.554,-2.441,74.729,11.036,-30.575
6181,-0.1602,0.9233,0.2314,3.540,6.409,-1.953,74.789,11.058,-30.520
6191,-0.1533,0.9712,0.2568,-3.662,3.357,-0.427,74.762,11.047,-30.487
6201,-0.1675,1.0039,0.2681,-4.822,-1.404,0.916,74.713,11.014,-30.498
6211,-0.1841,1.0024,0.2632,0.671,-4.150,1.160,74.718,10.986,-30.536
6221,-0.1880,0.9839,0.2549,7.446,-4.211,0.366,74.795,10.964,-30.575
6231,-0.1934,0.9336,0.2261,11.719,-2.930,-0.488,74.921,10.964,-30.608
6241,-0.1865,0.9038,0.2153,10.193,-0.854,-1.465,75.037,10.981,-30.619
6251,-0.1763,0.9219,0.2310,2.563,-0.488,-1.770,75.070,10.992,-30.630
6261,-0.1748,0.9541,0.2495,-4.028,-2.258,-1.404,75.026,10.992,-30.652
6271,-0.1855,0.9834,0.2676,-6.104,-4.761,-1.099,74.954,10.981,-30.707
6281,-0.2017,0.9888,0.2725,-4.089,-6.409,-1.465,74.899,10.981,-30.773
6291,-0.2095,0.9712,0.2695,0.549,-5.981,-2.136,74.888,10.992,-30.833
6301,-0.2129,0.9380,0.2520,3.662,-4.089,-2.991,74.916,11.025,-30.883
6311,-0.2085,0.9121,0.2344,3.357,-1.099,-3.418,74.949,11.069,-30.905
6321,-0.2012,0.9043,0.2295,-0.549,1.648,-3.052,74.954,11.113,-30.894
6331,-0.1919,0.9272,0.2495,-5.737,2.319,-2.197,74.899,11.146,-30.877
6341,-0.1953,0.9639,0.2725,-9.033,0.183,-1.282,74.806,11.157,-30.883
6351,-0.1987,0.9937,0.2954,-7.874,-3.357,-0.671,74.707,11.151,-30.916
6361,-0.1987,1.0103,0.3179,-3.357,-6.958,-0.122,74.636,11.129,-30.981
6371,-0.2139,0.9834,0.3037,3.845,-8.728,0.061,74.641,11.113,-31.069
6381,-0.2222,0.9292,0.2671,9.277,-5.798,-0.793,74.713,11.124,-31.130
6391,-0.2139,0.8975,0.2446,7.568,0.793,-2.258,74.789,11.162,-31.124
6401,-0.1987,0.8848,0.2300,1.038,7.324,-2.319,74.822,11.217,-31.058
6411,-0.1812,0.9165,0.2490,-7.202,10.254,-1.038,74.767,11.250,-30.965
6421,-0.1787,0.9697,0.2729,-11.963,7.080,1.343,74.658,11.239,-30.888
6431,-0.1895,1.0093,0.2949,-8.606,1.038,2.869,74.564,11.206,-30.872
6441,-0.1958,1.0293,0.3149,-0.671,-5.005,3.296,74.537,11.151,-30.910
6451,-0.2080,1.0054,0.3081,9.216,-8.850,3.052,74.597,11.102,-30.992
6461,-0.2163,0.9468,0.2710,16.418,-7.874,1.953,74.740,11.074,-31.064
6471,-0.2056,0.8940,0.2349,16.052,-2.319,0.793,74.899,11.074,-31.086
6481,-0.1880,0.8794,0.2285,7.935,4.089,0.305,74.993,11.091,-31.042
6491,-0.1733,0.9082,0.2432,-2.625,7.751,0.854,74.982,11.096,-30.965
6501,-0.1631,0.9790,0.2832,-11.597,6.592,1.770,74.866,11.074,-30.894
6511,-0.1772,1.0405,0.3076,-12.085,1.343,2.930,74.740,11.030,-30.872
6521,-0.1938,1.0571,0.3086,-3.540,-3.174,2.930,74.691,10.986,-30.899
6531,-0.1924,1.0425,0.3027,6.104,-4.456,1.831,74.734,10.948,-30.937
6541,-0.1943,0.9980,0.2710,11.963,-2.625,0.061,74.850,10.937,-30.959
6551,-0.1953,0.9409,0.2261,11.230,1.953,-2.014,74.976,10.964,-30.948
6561,-0.1831,0.9116,0.2046,2.747,7.324,-4.272,75.042,11.025,-30.888
6571,-0.1724,0.9160,0.1968,-9.277,11.353,-5.920,74.998,11.107,-30.789
6581,-0.1602,0.9551,0.2168,-19.592,12.634,-6.836,74.844,11.184,-30.685
6591,-0.1562,1.0039,0.2539,-23.437,9.644,-6.531,74.636,11.245,-30.608
6601,-0.1689,1.0410,0.2886,-17.883,3.052,-5.127,74.460,11.277,-30.591
6611,-0.1929,1.0376,0.2979,-4.578,-4.211,-3.235,74.399,11.288,-30.641
6621,-0.2109,0.9927,0.2847,10.315,-7.690,-2.563,74.482,11.294,-30.723
6631,-0.2134,0.9321,0.2646,19.531,-6.226,-2.686,74.658,11.316,-30.789
6641,-0.2056,0.8843,0.2373,20.020,-1.831,-2.686,74.855,11.349,-30.817
6651,-0.1997,0.8594,0.2173,12.512,2.747,-2.563,74.993,11.393,-30.795
6661,-0.1934,0.8779,0.2251,1.343,5.432,-2.075,75.020,11.437,-30.751
6671,-0.1997,0.9204,0.2358,-7.629,5.127,-1.099,74.965,11.464,-30.701
6681,-0.2080,0.9521,0.2505,-9.766,3.052,-0.305,74.877,11.481,-30.674
6691,-0.2129,0.9658,0.2593,-6.287,0.305,0.061,74.811,11.486,-30.668
6701,-0.2207,0.9565,0.2534,-0.305,-1.770,0.061,74.811,11.492,-30.685
6711,-0.2197,0.9370,0.2505,4.761,-2.502,-0.488,74.855,11.503,-30.712
6721,-0.2119,0.9170,0.2529,6.348,-2.808,-0.244,74.910,11.508,-30.740
6731,-0.2061,0.9229,0.2676,4.333,-3.174,0.488,74.938,11.497,-30.767
6741,-0.2065,0.9468,0.2798,1.648,-3.845,1.404,74.932,11.481,-30.806
6751,-0.2095,0.9609,0.2842,1.404,-3.357,2.197,74.927,11.453,-30.833
6761,-0.2090,0.9731,0.2866,2.502,-1.343,2.380,74.938,11.426,-30.839
6771,-0.2109,0.9712,0.2739,4.089,1.160,2.197,74.971,11.415,-30.822
6781,-0.2090,0.9526,0.2593,5.066,3.784,1.526,75.031,11.415,-30.778
6791,-0.2012,0.9541,0.2578,3.784,5.432,0.916,75.075,11.420,-30.723
6801,-0.1997,0.9517,0.2461,2.380,5.188,1.099,75.114,11.426,-30.668
6811,-0.1973,0.9497,0.2344,3.113,4.517,1.831,75.163,11.420,-30.619
6821,-0.1924,0.9507,0.2344,4.150,3.296,3.052,75.223,11.393,-30.580
6831,-0.1987,0.9360,0.2168,5.432,2.197,3.906,75.300,11.365,-30.547
6841,-0.1982,0.9224,0.2134,4.761,1.770,3.479,75.372,11.343,-30.520
6851,-0.1924,0.9194,0.2183,0.366,1.099,2.136,75.388,11.327,-30.504
6861,-0.1914,0.9209,0.2153,-4.333,0.488,0.244,75.361,11.327,-30.498
6871,-0.1841,0.9438,0.2314,-8.972,0.183,-1.221,75.284,11.332,-30.504
6881,-0.1787,0.9663,0.2432,-11.047,-0.549,-1.221,75.179,11.327,-30.509
6891,-0.1802,0.9800,0.2549,-9.094,-1.160,-0.366,75.086,11.316,-30.520
6901,-0.1816,0.9858,0.2651,-5.676,-1.648,0.732,75.026,11.294,-30.536
6911,-0.1909,0.9761,0.2598,-2.075,-1.770,1.282,75.004,11.272,-30.553
6921,-0.1909,0.9741,0.2676,-0.427,-1.099,1.099,74.993,11.250,-30.558
6931,-0.1875,0.9863,0.2778,-1.831,-0.977,0.732,74.965,11.234,-30.564
6941,-0.1919,0.9927,0.2793,-2.991,-1.343,0.305,74.927,11.223,-30.580
6951,-0.1914,0.9971,0.2856,-3.418,-1.282,-0.549,74.883,11.217,-30.591
6961,-0.1914,0.9990,0.2910,-3.174,-0.977,-1.465,74.839,11.217,-30.608
6971,-0.1992,0.9834,0.2783,-1.221,-0.061,-2.197,74.817,11.239,-30.613
6981,-0.1997,0.9688,0.2739,0.366,1.770,-2.686,74.817,11.266,-30.602
6991,-0.1978,0.9536,0.2612,0.488,3.601,-2.319,74.828,11.299,-30.575
7001,-0.1948,0.9434,0.2471,0.183,5.127,-1.892,74.844,11.332,-30.526
7011,-0.1890,0.9517,0.2544,-1.099,5.493,-1.282,74.844,11.354,-30.476
7021,-0.1860,0.9678,0.2578,-1.648,3.845,-0.427,74.839,11.360,-30.438
7031,-0.1870,0.9824,0.2686,0.122,1.099,0.122,74.839,11.349,-30.427
7041,-0.1899,0.9966,0.2866,3.296,-1.953,0.427,74.861,11.332,-30.449
7051,-0.1987,0.9927,0.2832,7.996,-4.028,0.610,74.921,11.310,-30.487
7061,-0.2080,0.9707,0.2666,13.123,-3.540,0.854,75.042,11.299,-30.520
7071,-0.2100,0.9282,0.2344,16.357,-0.549,1.648,75.212,11.288,-30.520
7081,-0.2017,0.9023,0.2129,16.418,4.333,2.258,75.399,11.288,-30.471
7091,-0.1812,0.9302,0.2285,11.414,7.385,3.174,75.536,11.272,-30.388
7101,-0.1753,0.9761,0.2432,7.080,5.554,4.944,75.624,11.223,-30.322
7111,-0.1855,1.0078,0.2549,7.141,0.183,6.042,75.701,11.157,-30.306
7121,-0.2075,1.0039,0.2422,10.742,-4.700,5.005,75.806,11.096,-30.339
7131,-0.2178,0.9624,0.2207,13.428,-5.493,1.648,75.943,11.085,-30.388
7141,-0.2134,0.9058,0.1885,11.536,-2.380,-1.953,76.075,11.113,-30.416
7151,-0.2100,0.8560,0.1553,3.845,2.747,-4.578,76.152,11.190,-30.399
7161,-0.1982,0.8320,0.1353,-7.446,7.996,-5.859,76.135,11.288,-30.339
7171,-0.1772,0.8560,0.1431,-18.372,11.292,-5.798,76.020,11.371,-30.240
7181,-0.1538,0.9272,0.1870,-24.658,10.132,-4.150,75.817,11.415,-30.146
7191,-0.1528,1.0103,0.2441,-22.339,2.808,-0.732,75.608,11.398,-30.125
7201,-0.1758,1.0522,0.2803,-10.254,-8.179,3.113,75.487,11.327,-30.196
7211,-0.2031,1.0518,0.2969,5.554,-17.334,5.859,75.498,11.217,-30.350
7221,-0.2139,1.0151,0.2925,17.700,-20.874,6.287,75.619,11.107,-30.542
7231,-0.2148,0.9570,0.2598,22.339,-17.212,4.639,75.806,11.030,-30.701
7241,-0.2012,0.9097,0.2349,17.090,-9.033,1.526,75.954,11.008,-30.784
7251,-0.1807,0.9097,0.2417,3.601,-0.977,-0.977,75.981,11.014,-30.795
7261,-0.1733,0.9487,0.2612,-10.315,3.296,-1.770,75.872,11.025,-30.767
7271,-0.1826,1.0063,0.2920,-17.944,3.662,-1.526,75.679,11.041,-30.734
7281,-0.1924,1.0576,0.3267,-16.785,0.916,-0.977,75.482,11.041,-30.729
7291,-0.2153,1.0610,0.3203,-6.470,-2.197,-0.793,75.394,11.041,-30.756
7301,-0.2236,1.0112,0.2871,6.348,-2.075,-1.831,75.438,11.063,-30.778
7311,-0.2178,0.9351,0.2397,13.977,1.404,-2.991,75.580,11.113,-30.773
7321,-0.2002,0.8755,0.1997,13.367,6.531,-3.296,75.740,11.173,-30.718
7331,-0.1709,0.8838,0.2197,4.395,9.155,-2.625,75.800,11.217,-30.635
7341,-0.1597,0.9609,0.2778,-5.615,5.310,0.183,75.734,11.206,-30.580
7351,-0.1704,1.0601,0.3433,-6.104,-4.028,4.089,75.635,11.129,-30.608
7361,-0.2007,1.1270,0.3901,6.226,-15.320,8.362,75.624,10.997,-30.740
7371,-0.2358,1.1074,0.3784,27.588,-22.522,11.597,75.817,10.833,-30.932
7381,-0.2524,1.0093,0.3042,49.133,-20.691,12.451,76.240,10.690,-31.108
7391,-0.2476,0.8667,0.1899,61.096,-10.071,11.414,76.849,10.607,-31.179
7401,-0.2354,0.7178,0.0825,56.274,5.493,9.338,77.487,10.602,-31.102
7411,-0.1919,0.6621,0.0171,33.081,21.301,6.042,77.964,10.646,-30.877
7421,-0.1426,0.7197,0.0190,-0.305,30.457,3.662,78.124,10.679,-30.564
7431,-0.1167,0.8433,0.0615,-29.663,29.175,4.700,77.959,10.668,-30.267
7441,-0.1196,0.9844,0.1255,-43.030,18.250,8.057,77.618,10.585,-30.064
7451,-0.1382,1.0840,0.1797,-38.147,2.441,11.658,77.278,10.443,-30.015
7461,-0.1567,1.1216,0.2051,-18.860,-12.268,12.512,77.102,10.272,-30.108
7471,-0.1553,1.1016,0.2300,4.272,-21.362,9.766,77.119,10.107,-30.300
7481,-0.1504,1.0532,0.2280,21.057,-24.536,6.165,77.294,9.970,-30.531
7491,-0.1504,0.9922,0.2173,27.283,-23.376,2.991,77.531,9.877,-30.756
7501,-0.1528,0.9448,0.2129,21.912,-19.653,-0.183,77.712,9.827,-30.948
7511,-0.1597,0.9434,0.2246,6.897,-15.015,-2.808,77.745,9.816,-31.102
7521,-0.1646,0.9644,0.2583,-10.559,-10.925,-5.005,77.591,9.838,-31.223
7531,-0.1782,1.0068,0.2861,-24.841,-6.592,-6.042,77.300,9.882,-31.300
7541,-0.1821,1.0620,0.3228,-30.273,-3.113,-6.653,76.948,9.932,-31.349
7551,-0.1841,1.0840,0.3437,-25.452,-1.160,-6.714,76.646,9.987,-31.377
7561,-0.1885,1.0698,0.3379,-14.343,-0.183,-6.775,76.459,10.047,-31.393
7571,-0.1943,1.0244,0.3076,-0.854,1.099,-7.202,76.415,10.124,-31.399
7581,-0.1978,0.9556,0.2617,8.362,4.028,-7.690,76.487,10.217,-31.377
7591,-0.1943,0.9072,0.2310,9.521,8.301,-7.812,76.586,10.327,-31.311
7601,-0.1904,0.8853,0.2031,4.333,12.451,-7.446,76.652,10.443,-31.207
7611,-0.1890,0.8955,0.1914,-3.479,15.564,-6.897,76.652,10.558,-31.069
7621,-0.1777,0.9360,0.2085,-10.986,16.235,-5.615,76.580,10.646,-30.921
7631,-0.1753,0.9814,0.2319,-13.855,13.306,-3.601,76.465,10.706,-30.800
7641,-0.1836,1.0010,0.2344,-9.216,8.362,-1.831,76.393,10.734,-30.723
7651,-0.1909,0.9854,0.2271,-1.404,4.395,-1.099,76.393,10.756,-30.679
7663,-0.1924,0.9482,0.2075,6.226,2.563,-1.404,76.470,10.778,-30.657
7671,-0.1851,0.9072,0.1841,10.559,3.357,-2.136,76.602,10.811,-30.630
7681,-0.1665,0.8989,0.1777,9.094,4.822,-1.892,76.723,10.838,-30.586
7691,-0.1499,0.9351,0.1895,5.249,4.700,-0.244,76.800,10.833,-30.542
7701,-0.1460,0.9990,0.2227,3.113,1.282,3.235,76.844,10.778,-30.520
7711,-0.1631,1.0493,0.2417,6.104,-4.517,7.263,76.899,10.673,-30.547
7721,-0.1948,1.0425,0.2290,14.832,-9.094,9.277,77.042,10.558,-30.619
7731,-0.2144,0.9771,0.1870,22.827,-9.033,7.507,77.272,10.486,-30.690
7741,-0.2139,0.8965,0.1343,22.034,-3.479,2.686,77.531,10.481,-30.718
7751,-0.1855,0.8667,0.1323,10.742,3.906,-2.197,77.679,10.525,-30.685
7761,-0.1426,0.9150,0.1855,-7.385,5.920,-4.333,77.624,10.558,-30.635
7771,-0.1401,1.0020,0.2524,-18.982,-1.282,-2.930,77.415,10.558,-30.652
7781,-0.1646,1.0742,0.3018,-18.127,-11.719,-0.366,77.184,10.514,-30.773
7791,-0.1973,1.0972,0.3262,-7.812,-19.226,1.099,77.036,10.453,-30.959
7801,-0.2266,1.0522,0.3013,7.751,-18.555,-0.427,77.047,10.426,-31.146
7811,-0.2329,0.9526,0.2412,19.592,-8.423,-4.272,77.212,10.481,-31.240
7821,-0.2158,0.8696,0.1860,18.982,5.676,-7.202,77.415,10.591,-31.196
7831,-0.1831,0.8384,0.1738,7.324,17.334,-8.301,77.525,10.723,-31.042
7841,-0.1602,0.8838,0.1997,-9.766,20.569,-6.714,77.459,10.827,-30.855
7851,-0.1675,0.9624,0.2295,-21.729,15.259,-3.052,77.261,10.876,-30.707
7861,-0.1880,1.0229,0.2505,-21.667,6.958,0.305,77.053,10.882,-30.641
7871,-0.2070,1.0474,0.2598,-11.841,0.183,1.953,76.926,10.865,-30.635
7881,-0.2134,1.0156,0.2368,2.808,-2.502,1.343,76.948,10.849,-30.652
7891,-0.2061,0.9424,0.1982,14.343,-0.122,-0.732,77.102,10.871,-30.657
7901,-0.1914,0.8896,0.1636,16.357,4.272,-2.136,77.294,10.909,-30.619
7911,-0.1724,0.8696,0.1519,8.545,7.019,-2.380,77.421,10.953,-30.553
7921,-0.1665,0.8936,0.1660,-2.869,6.592,-1.160,77.426,10.970,-30.493
7931,-0.1670,0.9512,0.1938,-12.695,3.540,0.671,77.316,10.959,-30.454
7941,-0.1704,1.0234,0.2407,-16.174,-0.793,1.831,77.151,10.920,-30.460
7951,-0.1836,1.0610,0.2637,-10.864,-5.615,2.502,77.020,10.871,-30.509
7961,-0.1978,1.0454,0.2524,0.366,-8.057,2.197,77.003,10.827,-30.586
7971,-0.1904,1.0112,0.2490,9.399,-6.836,0.854,77.075,10.800,-30.652
7981,-0.1831,0.9756,0.2310,12.817,-4.211,0.183,77.190,10.783,-30.690
7991,-0.1826,0.9414,0.2104,10.742,-0.793,-0.183,77.300,10.783,-30.701
8001,-0.1763,0.9468,0.2168,3.052,1.770,-0.671,77.333,10.789,-30.685
8011,-0.1777,0.9717,0.2261,-5.188,2.747,-1.038,77.278,10.800,-30.657
8021,-0.1885,0.9912,0.2256,-8.179,2.991,-1.953,77.201,10.822,-30.635
8031,-0.1968,0.9966,0.2217,-7.080,3.357,-3.296,77.141,10.860,-30.608
8041,-0.1963,0.9741,0.2080,-3.662,4.333,-4.578,77.119,10.920,-30.575
8051,-0.1816,0.9653,0.2129,-0.732,5.066,-5.188,77.124,10.975,-30.536
8061,-0.1694,0.9863,0.2378,0.244,2.319,-4.333,77.119,11.008,-30.526
8071,-0.1699,1.0239,0.2651,2.380,-4.028,-2.441,77.119,11.003,-30.569
8081,-0.1836,1.0459,0.2744,8.118,-11.597,-0.305,77.157,10.964,-30.685
8091,-0.2090,1.0039,0.2329,16.785,-15.564,0.427,77.294,10.931,-30.839
8101,-0.2324,0.9048,0.1465,23.682,-10.986,-2.258,77.542,10.964,-30.954
8111,-0.2236,0.8032,0.0625,21.057,1.892,-7.874,77.833,11.091,-30.954
8121,-0.1807,0.7690,0.0337,6.714,15.930,-12.878,78.019,11.266,-30.822
8131,-0.1245,0.8340,0.0981,-13.855,21.057,-13.367,77.970,11.415,-30.641
8141,-0.1157,0.9619,0.1729,-30.762,11.597,-6.775,77.701,11.453,-30.536
8151,-0.1406,1.0762,0.2490,-29.602,-8.606,2.380,77.388,11.371,-30.619
8161,-0.1851,1.1357,0.2993,-14.954,-29.358,9.460,77.162,11.195,-30.888
8171,-0.2183,1.1411,0.3276,3.967,-42.053,11.230,77.097,10.986,-31.284
8181,-0.2305,1.0747,0.3096,22.339,-42.236,7.385,77.212,10.827,-31.685
8191,-0.2358,0.9639,0.2583,32.593,-31.128,0.671,77.454,10.778,-31.992
8201,-0.2266,0.8691,0.2090,26.794,-14.526,-6.775,77.679,10.844,-32.151
8211,-0.2144,0.8237,0.1748,6.348,1.709,-12.634,77.745,11.003,-32.162
8221,-0.2070,0.8154,0.1572,-18.799,13.611,-15.137,77.591,11.212,-32.058
8231,-0.1934,0.8765,0.1797,-41.260,20.081,-14.771,77.223,11.404,-31.893
8241,-0.1826,0.9771,0.2397,-56.091,18.738,-11.841,76.690,11.552,-31.734
8251,-0.1948,1.0601,0.2852,-52.246,10.254,-7.935,76.168,11.635,-31.646
8261,-0.2100,1.0830,0.3042,-33.142,-0.488,-5.920,75.817,11.678,-31.668
8271,-0.2129,1.0557,0.2983,-9.216,-8.789,-5.737,75.690,11.706,-31.767
8281,-0.2124,0.9932,0.2720,10.864,-12.573,-6.653,75.762,11.739,-31.910
8291,-0.2041,0.9307,0.2432,22.034,-11.963,-7.202,75.948,11.783,-32.047
8301,-0.1953,0.8887,0.2246,20.630,-9.338,-6.592,76.130,11.827,-32.157
8311,-0.1914,0.8794,0.2241,10.437,-6.104,-4.700,76.212,11.854,-32.228
8321,-0.1890,0.9160,0.2432,-2.258,-3.113,-2.502,76.174,11.865,-32.267
8331,-0.1948,0.9712,0.2656,-11.719,-1.404,-0.671,76.036,11.860,-32.278
8341,-0.2075,1.0078,0.2773,-14.343,-0.244,0.122,75.883,11.854,-32.283
8351,-0.2153,1.0112,0.2729,-9.766,1.160,-0.244,75.778,11.854,-32.272
8361,-0.2134,0.9863,0.2578,-1.892,2.563,-1.343,75.756,11.876,-32.250
8371,-0.2114,0.9453,0.2256,3.967,4.150,-2.563,75.811,11.915,-32.212
8381,-0.2007,0.9189,0.2109,5.066,5.249,-2.747,75.883,11.953,-32.168
8391,-0.1909,0.9224,0.2173,2.258,4.150,-1.404,75.921,11.970,-32.130
8401,-0.1885,0.9541,0.2358,-0.427,1.221,0.732,75.921,11.959,-32.119
8411,-0.1997,0.9897,0.2578,0.061,-2.686,2.808,75.916,11.915,-32.135
8421,-0.2197,0.9941,0.2588,4.456,-5.615,3.540,75.943,11.865,-32.184
8431,-0.2378,0.9639,0.2344,9.460,-4.822,2.563,76.031,11.849,-32.228
8441,-0.2358,0.9146,0.2002,11.414,0.061,0.549,76.163,11.865,-32.223
8451,-0.2109,0.8901,0.1870,7.141,5.798,-0.549,76.267,11.898,-32.168
8461,-0.1846,0.9126,0.2100,-0.366,8.301,0.244,76.284,11.904,-32.086
8471,-0.1782,0.9546,0.2388,-5.066,5.676,2.441,76.245,11.882,-32.025
8481,-0.1826,1.0068,0.2725,-4.700,-0.244,4.211,76.185,11.821,-32.014
8491,-0.2007,1.0396,0.2886,0.549,-6.470,4.944,76.163,11.744,-32.069
8501,-0.2197,1.0186,0.2661,10.498,-9.033,4.333,76.245,11.678,-32.146
8511,-0.2251,0.9673,0.2329,17.700,-6.104,2.869,76.410,11.651,-32.201
8521,-0.2163,0.9126,0.1982,17.029,0.183,1.465,76.591,11.651,-32.195
8531,-0.2012,0.8999,0.1870,8.179,6.592,-0.244,76.707,11.673,-32.130
8541,-0.1816,0.9258,0.2065,-4.761,9.094,-1.160,76.679,11.700,-32.042
8551,-0.1865,0.9673,0.2266,-14.038,6.958,-1.343,76.558,11.717,-31.976
8561,-0.2002,1.0010,0.2417,-16.113,3.479,-1.831,76.404,11.733,-31.943
8571,-0.2085,1.0049,0.2378,-11.169,1.099,-2.380,76.295,11.755,-31.943
8581,-0.2095,0.9854,0.2217,-2.930,1.587,-2.808,76.278,11.788,-31.932
8591,-0.1973,0.9541,0.2095,3.174,3.174,-2.075,76.328,11.810,-31.904
8601,-0.1812,0.9463,0.2187,4.211,3.174,-0.488,76.382,11.810,-31.877
8611,-0.1792,0.9697,0.2393,2.319,0.244,1.221,76.404,11.783,-31.871
8621,-0.1943,0.9854,0.2471,1.770,-3.723,2.258,76.410,11.744,-31.899
8631,-0.2075,0.9854,0.2441,2.930,-5.127,1.770,76.426,11.711,-31.948
8641,-0.2148,0.9644,0.2231,4.333,-3.052,0.244,76.470,11.706,-31.976
8650,-0.2134,0.9263,0.1978,4.578,1.953,-1.526,76.531,11.739,-31.959
8660,-0.1958,0.9121,0.1953,0.122,6.409,-2.258,76.558,11.777,-31.904
8670,-0.1851,0.9351,0.2173,-6.531,6.409,-1.648,76.509,11.799,-31.844
8681,-0.1914,0.9688,0.2349,-9.888,2.625,-0.549,76.415,11.799,-31.816
8691,-0.2046,0.9912,0.2520,-8.484,-2.075,0.183,76.322,11.788,-31.838
8701,-0.2129,0.9922,0.2549,-4.272,-5.066,0.183,76.262,11.772,-31.888
8711,-0.2158,0.9697,0.2485,0.916,-5.310,-0.427,76.256,11.766,-31.943
8720,-0.2109,0.9443,0.2397,3.845,-3.052,-0.854,76.278,11.772,-31.976
8731,-0.1973,0.9399,0.2422,3.235,-0.122,-0.488,76.306,11.777,-31.976
8741,-0.1943,0.9521,0.2520,0.793,1.404,0.732,76.306,11.766,-31.959
8751,-0.2041,0.9702,0.2568,-0.610,1.709,1.770,76.289,11.750,-31.937
8761,-0.2026,0.9976,0.2773,-1.282,1.404,2.136,76.262,11.728,-31.921
8771,-0.2104,1.0073,0.2783,0.000,0.488,2.808,76.251,11.695,-31.910
8780,-0.2222,0.9805,0.2520,4.395,0.977,2.319,76.289,11.684,-31.893
8790,-0.2275,0.9297,0.2051,7.141,4.028,0.977,76.382,11.700,-31.849
8800,-0.2207,0.8813,0.1616,6.042,9.094,-0.366,76.492,11.750,-31.761
8810,-0.1953,0.8701,0.1489,1.221,13.855,-0.549,76.569,11.794,-31.624
8820,-0.1680,0.9175,0.1816,-5.127,13.611,1.709,76.569,11.788,-31.487
8830,-0.1675,0.9849,0.2334,-7.812,6.165,6.348,76.509,11.722,-31.410
8840,-0.1924,1.0356,0.2661,-1.404,-4.639,10.193,76.481,11.596,-31.432
8850,-0.2153,1.0483,0.2764,10.498,-13.000,11.169,76.553,11.453,-31.536
8860,-0.2344,1.0010,0.2661,21.545,-16.052,10.071,76.723,11.332,-31.668
8870,-0.2441,0.9214,0.2324,26.917,-12.207,7.141,76.959,11.266,-31.772
8880,-0.2349,0.8647,0.2124,21.301,-4.089,3.235,77.157,11.261,-31.805
8890,-0.2021,0.8755,0.2271,5.859,2.930,0.671,77.206,11.277,-31.778
8901,-0.1758,0.9370,0.2695,-10.864,5.310,0.610,77.075,11.272,-31.723
8911,-0.1704,1.0234,0.3032,-18.677,2.747,2.258,76.860,11.234,-31.690
8921,-0.1870,1.0742,0.3213,-14.893,-1.404,4.578,76.679,11.168,-31.696
8931,-0.2139,1.0679,0.2886,-1.587,-2.930,6.775,76.641,11.096,-31.707
8940,-0.2158,1.0122,0.2295,14.099,1.709,6.531,76.794,11.041,-31.674
8950,-0.2021,0.9297,0.1631,23.254,9.766,5.371,77.075,11.025,-31.564
8960,-0.1787,0.8691,0.1147,22.522,17.029,4.639,77.388,11.019,-31.388
8970,-0.1562,0.8696,0.1045,11.353,20.813,4.883,77.596,11.008,-31.168
8980,-0.1411,0.9209,0.1250,-2.991,18.066,6.409,77.651,10.964,-30.976
8990,-0.1475,0.9780,0.1406,-11.780,10.864,7.385,77.602,10.887,-30.850
9000,-0.1616,1.0190,0.1699,-11.719,1.831,6.592,77.520,10.811,-30.817
9010,-0.1670,1.0483,0.2026,-7.507,-6.287,5.005,77.454,10.728,-30.866
9020,-0.1719,1.0425,0.2183,0.122,-12.817,2.625,77.437,10.657,-30.992
9030,-0.1685,1.0171,0.2285,5.920,-16.235,0.244,77.465,10.607,-31.152
9040,-0.1699,0.9868,0.2285,7.935,-17.090,-1.709,77.509,10.574,-31.322
9050,-0.1772,0.9531,0.2139,6.531,-15.015,-3.601,77.542,10.574,-31.481
9061,-0.1763,0.9424,0.2148,1.587,-9.827,-5.127,77.536,10.602,-31.591
9070,-0.1665,0.9600,0.2354,-5.249,-4.700,-5.005,77.459,10.629,-31.646
9080,-0.1724,0.9927,0.2568,-8.972,-1.709,-3.357,77.344,10.646,-31.674
9091,-0.1870,1.0225,0.2773,-8.484,-1.282,-1.648,77.234,10.657,-31.690
9101,-0.2061,1.0210,0.2812,-4.150,-2.075,-1.221,77.162,10.668,-31.712
9110,-0.2222,0.9868,0.2617,1.282,-1.404,-2.502,77.151,10.701,-31.734
9120,-0.2227,0.9414,0.2334,4.028,1.465,-4.272,77.179,10.767,-31.729
9130,-0.2085,0.9097,0.2119,2.136,4.944,-4.761,77.206,10.844,-31.690
9140,-0.1890,0.9116,0.2065,-2.075,7.080,-3.967,77.195,10.904,-31.624
9150,-0.1807,0.9370,0.2158,-5.920,6.653,-2.258,77.146,10.937,-31.564
9160,-0.1846,0.9619,0.2227,-5.249,4.150,-0.732,77.102,10.948,-31.525
9170,-0.1968,0.9683,0.2227,-1.038,1.648,-0.122,77.091,10.959,-31.509
9180,-0.2095,0.9468,0.1992,4.395,1.160,-0.061,77.151,10.975,-31.498
9190,-0.2090,0.9204,0.1768,7.141,3.296,-0.244,77.245,10.997,-31.465
9200,-0.1943,0.9067,0.1685,5.371,5.859,0.366,77.333,11.019,-31.410
9210,-0.1714,0.9282,0.1904,-0.183,5.920,1.343,77.355,11.008,-31.344
9220,-0.1592,0.9805,0.2256,-4.944,2.014,2.686,77.305,10.970,-31.322
9230,-0.1680,1.0186,0.2461,-4.761,-3.906,3.540,77.245,10.904,-31.349
9240,-0.1841,1.0347,0.2534,-0.061,-7.812,3.235,77.223,10.849,-31.421
9250,-0.1973,1.0146,0.2402,5.737,-8.179,2.075,77.256,10.805,-31.498
9260,-0.2007,0.9727,0.2036,10.132,-3.967,0.610,77.360,10.800,-31.536
9270,-0.1841,0.9404,0.1851,8.423,2.380,-0.366,77.465,10.811,-31.514
9280,-0.1699,0.9404,0.1909,1.221,6.226,-0.366,77.498,10.816,-31.454
9290,-0.1616,0.9795,0.2134,-6.226,5.554,-0.244,77.448,10.816,-31.399
9300,-0.1719,1.0210,0.2319,-8.484,1.160,-0.122,77.360,10.805,-31.388
9310,-0.1919,1.0234,0.2295,-4.395,-2.930,-0.305,77.316,10.794,-31.415
9320,-0.2012,0.9956,0.2197,2.136,-3.784,-1.282,77.327,10.805,-31.454
9330,-0.2046,0.9365,0.1875,5.981,-1.465,-2.686,77.399,10.838,-31.476
9340,-0.1963,0.8911,0.1606,4.822,3.174,-3.845,77.476,10.898,-31.454
9350,-0.1719,0.8989,0.1743,-2.502,6.348,-4.028,77.476,10.948,-31.399
9360,-0.1616,0.9409,0.2007,-10.071,4.883,-2.380,77.388,10.970,-31.355
9370,-0.1689,0.9985,0.2363,-11.719,-0.244,-0.183,77.267,10.953,-31.360
9380,-0.1860,1.0303,0.2622,-6.531,-5.981,1.770,77.173,10.909,-31.415
9390,-0.2012,1.0259,0.2642,2.563,-8.911,2.319,77.168,10.871,-31.498
9400,-0.2031,1.0034,0.2617,10.132,-8.057,1.526,77.234,10.838,-31.575
9410,-0.2017,0.9668,0.2407,12.695,-4.578,0.488,77.344,10.827,-31.619
9420,-0.1992,0.9331,0.2134,9.399,0.488,-0.549,77.432,10.844,-31.613
9430,-0.1919,0.9229,0.2007,1.526,5.371,-1.709,77.459,10.882,-31.564
9440,-0.1831,0.9443,0.2051,-7.446,8.057,-2.625,77.404,10.920,-31.492
9450,-0.1826,0.9780,0.2222,-13.184,7.690,-2.808,77.283,10.959,-31.421
9460,-0.1895,1.0049,0.2271,-12.695,5.066,-2.563,77.168,10.986,-31.377
9470,-0.1929,1.0137,0.2349,-6.714,2.197,-2.380,77.102,11.014,-31.360
9480,-0.1943,0.9941,0.2271,1.099,0.000,-1.892,77.113,11.030,-31.366
9490,-0.1982,0.9482,0.1914,7.996,0.183,-1.526,77.206,11.047,-31.366
9500,-0.1851,0.9229,0.1797,9.277,2.747,-1.282,77.316,11.069,-31.344
9510,-0.1641,0.9419,0.2090,4.944,3.418,-0.061,77.377,11.063,-31.306
9520,-0.1660,0.9863,0.2451,1.404,0.000,2.197,77.377,11.025,-31.300
9530,-0.1885,1.0244,0.2661,3.113,-5.676,4.211,77.382,10.959,-31.349
9540,-0.2100,1.0239,0.2612,9.216,-9.094,5.066,77.437,10.893,-31.426
9550,-0.2241,0.9678,0.2202,15.747,-7.202,3.784,77.580,10.860,-31.492
9561,-0.2192,0.8965,0.1670,17.090,0.488,0.916,77.772,10.882,-31.487
9570,-0.1958,0.8643,0.1382,8.606,9.521,-1.465,77.904,10.931,-31.393
9580,-0.1699,0.8726,0.1323,-4.089,14.465,-2.014,77.926,10.981,-31.256
9590,-0.1582,0.9204,0.1494,-13.672,13.123,-1.221,77.844,11.003,-31.124
9600,-0.1572,0.9937,0.1943,-17.151,6.226,0.244,77.695,10.992,-31.064
9610,-0.1699,1.0459,0.2305,-12.146,-3.540,2.075,77.569,10.948,-31.091
9620,-0.1895,1.0557,0.2437,-0.305,-11.536,3.540,77.536,10.876,-31.201
9630,-0.1987,1.0151,0.2334,10.925,-15.015,3.601,77.613,10.811,-31.344
9640,-0.2002,0.9585,0.2002,16.296,-12.329,1.953,77.761,10.772,-31.459
9650,-0.1890,0.9165,0.1812,12.512,-5.981,-0.488,77.882,10.772,-31.520
9664,-0.1729,0.9063,0.1792,1.648,0.000,-2.136,77.910,10.789,-31.525
9670,-0.1685,0.9331,0.1924,-10.986,2.991,-2.625,77.811,10.816,-31.503
9680,-0.1650,0.9937,0.2285,-19.470,2.686,-2.319,77.613,10.827,-31.481
9690,-0.1777,1.0396,0.2559,-19.348,-0.732,-1.831,77.404,10.827,-31.492
9700,-0.1919,1.0518,0.2637,-11.292,-4.333,-1.831,77.267,10.827,-31.536
9710,-0.1997,1.0293,0.2573,-0.916,-6.042,-2.136,77.234,10.833,-31.602
9720,-0.2012,0.9824,0.2378,7.202,-5.249,-2.625,77.289,10.854,-31.663
9730,-0.2012,0.9365,0.2124,9.583,-2.197,-2.686,77.377,10.882,-31.690
9740,-0.1948,0.9175,0.2026,5.615,1.343,-2.075,77.432,10.915,-31.679
9750,-0.1846,0.9360,0.2217,-1.770,2.991,-0.916,77.415,10.931,-31.652
9760,-0.1909,0.9731,0.2388,-6.897,2.014,0.183,77.338,10.931,-31.630
9770,-0.2021,1.0020,0.2534,-6.714,0.122,0.366,77.256,10.931,-31.630
9780,-0.2061,1.0103,0.2588,-2.258,-1.282,-0.183,77.217,10.931,-31.641
9790,-0.2109,0.9868,0.2373,4.211,-0.854,-0.854,77.250,10.942,-31.652
9800,-0.2109,0.9399,0.1963,8.850,2.258,-1.343,77.349,10.975,-31.635
9810,-0.1978,0.8999,0.1675,8.057,6.653,-1.221,77.459,11.014,-31.569
9820,-0.1738,0.8979,0.1646,1.770,9.460,-0.549,77.520,11.041,-31.476
9830,-0.1587,0.9443,0.1846,-5.554,7.935,0.854,77.492,11.030,-31.399
9840,-0.1611,0.9946,0.2100,-7.385,2.075,2.441,77.432,10.992,-31.371
9850,-0.1724,1.0254,0.2251,-2.625,-4.517,3.540,77.399,10.931,-31.410
9860,-0.1890,1.0234,0.2197,5.554,-8.789,3.479,77.443,10.871,-31.487
9870,-0.2021,0.9736,0.1914,12.756,-8.850,2.136,77.569,10.838,-31.569
9880,-0.1992,0.9116,0.1514,13.794,-4.089,-0.061,77.728,10.844,-31.613
9890,-0.1797,0.8794,0.1367,5.859,2.197,-1.831,77.822,10.871,-31.591
9900,-0.1558,0.9058,0.1611,-6.470,5.066,-2.014,77.789,10.887,-31.547
9910,-0.1519,0.9668,0.1978,-15.381,2.075,-0.610,77.646,10.876,-31.531
9920,-0.1655,1.0269,0.2373,-15.808,-4.456,0.977,77.476,10.838,-31.569
9930,-0.1855,1.0610,0.2705,-8.789,-10.742,1.770,77.349,10.789,-31.674
9940,-0.1992,1.0635,0.2891,1.587,-14.404,1.343,77.316,10.739,-31.811
9950,-0.2109,1.0205,0.2803,10.986,-14.160,0.366,77.371,10.706,-31.954
9960,-0.2158,0.9639,0.2476,14.832,-9.583,-1.038,77.481,10.712,-32.053
9970,-0.2080,0.9175,0.2222,10.132,-2.197,-2.930,77.569,10.756,-32.080
9980,-0.1948,0.9067,0.2080,-0.427,4.944,-4.272,77.563,10.816,-32.042
9990,-0.1846,0.9277,0.2104,-11.230,9.277,-4.456,77.465,10.882,-31.959
10000,-0.1802,0.9688,0.2256,-18.066,9.766,-3.906,77.300,10.931,-31.866
10010,-0.1875,1.0068,0.2412,-17.456,7.141,-3.113,77.130,10.970,-31.805
10020,-0.1934,1.0244,0.2524,-10.193,2.991,-2.258,77.025,10.992,-31.778
10030,-0.2041,1.0049,0.2363,0.244,-0.122,-1.770,77.025,11.014,-31.783
10040,-0.2090,0.9556,0.2041,8.667,-0.183,-1.953,77.119,11.041,-31.789
10050,-0.1953,0.9146,0.1777,10.254,2.197,-1.831,77.239,11.074,-31.772
10061,-0.1802,0.8989,0.1714,5.615,4.517,-1.038,77.322,11.091,-31.729
10070,-0.1665,0.9224,0.1855,-1.221,4.639,0.366,77.333,11.091,-31.685
10080,-0.1665,0.9707,0.2144,-5.981,2.014,1.831,77.283,11.058,-31.663
10090,-0.1777,1.0112,0.2363,-5.249,-2.197,2.625,77.223,11.014,-31.674
10100,-0.1982,1.0117,0.2354,0.488,-5.310,2.502,77.212,10.981,-31.723
10110,-0.2187,0.9658,0.2026,7.446,-4.944,1.221,77.289,10.970,-31.767
10120,-0.2148,0.9111,0.1655,10.986,-0.366,-0.183,77.421,10.992,-31.772
10130,-0.1929,0.8818,0.1519,7.874,4.944,-0.183,77.536,11.019,-31.723
10140,-0.1646,0.9165,0.1841,-0.305,6.226,1.831,77.558,11.003,-31.657
10150,-0.1597,0.9775,0.2207,-5.798,1.221,4.700,77.498,10.942,-31.635
10160,-0.1753,1.0317,0.2480,-4.089,-6.348,6.348,77.443,10.849,-31.685
10170,-0.1919,1.0522,0.2656,2.686,-12.024,5.859,77.432,10.761,-31.794
10180,-0.2090,1.0215,0.2578,11.047,-13.123,4.028,77.503,10.695,-31.915
10190,-0.2070,0.9673,0.2305,16.174,-8.850,1.953,77.635,10.668,-31.998
10200,-0.1968,0.9263,0.2090,13.550,-1.892,0.854,77.767,10.668,-32.014
10210,-0.1821,0.9170,0.1953,4.517,4.333,0.427,77.822,10.673,-31.970
10220,-0.1724,0.9385,0.2012,-5.737,7.385,0.183,77.778,10.684,-31.899
10230,-0.1636,0.9824,0.2222,-12.390,7.263,-0.244,77.662,10.690,-31.822
10240,-0.1699,1.0298,0.2480,-13.367,4.639,-0.549,77.525,10.684,-31.778
10250,-0.1855,1.0420,0.2563,-6.897,1.404,-0.671,77.448,10.690,-31.767
10260,-0.1973,1.0142,0.2358,2.258,0.000,-1.099,77.465,10.701,-31.767
10270,-0.1973,0.9736,0.2075,8.789,1.465,-1.526,77.558,10.723,-31.756
10280,-0.1880,0.9360,0.1851,9.399,4.517,-1.648,77.673,10.750,-31.718
10290,-0.1719,0.9287,0.1758,5.188,7.080,-1.282,77.750,10.772,-31.652
10300,-0.1621,0.9570,0.1865,-1.160,7.141,-0.244,77.767,10.778,-31.580
10310,-0.1660,0.9917,0.2026,-4.700,3.967,0.793,77.734,10.761,-31.536
10320,-0.1826,1.0024,0.2080,-3.052,0.305,0.671,77.706,10.750,-31.531
10330,-0.2002,0.9800,0.1938,1.221,-1.953,-0.549,77.728,10.761,-31.553
10340,-0.1982,0.9492,0.1807,3.967,-1.160,-2.197,77.778,10.783,-31.569
10350,-0.1826,0.9287,0.1772,3.052,0.366,-2.441,77.822,10.811,-31.569
10360,-0.1724,0.9360,0.1880,-0.061,0.000,-1.038,77.833,10.816,-31.575
10370,-0.1680,0.9741,0.2183,-3.052,-2.747,0.854,77.789,10.789,-31.602
10380,-0.1748,1.0063,0.2441,-3.113,-6.958,2.136,77.734,10.739,-31.663
10390,-0.1895,1.0186,0.2549,0.427,-9.644,1.648,77.701,10.701,-31.756
10400,-0.2002,1.0073,0.2549,4.700,-9.155,0.122,77.712,10.684,-31.849
10410,-0.2100,0.9673,0.2271,7.446,-5.310,-1.221,77.767,10.695,-31.904
10420,-0.2080,0.9287,0.1978,6.592,1.160,-1.953,77.838,10.734,-31.893
10430,-0.1890,0.9233,0.1919,1.099,7.080,-1.770,77.866,10.772,-31.827
10440,-0.1738,0.9561,0.2056,-5.859,8.972,-0.732,77.822,10.789,-31.740
10450,-0.1772,0.9937,0.2134,-8.301,6.226,0.427,77.750,10.789,-31.679
10460,-0.1948,1.0137,0.2251,0.427,-2.869,0.366,77.750,10.778,-31.707
10470,-0.2090,0.9644,0.1958,6.958,-3.967,-0.732,77.816,10.789,-31.745
10480,-0.2090,0.9116,0.1606,8.972,-0.854,-2.075,77.926,10.827,-31.761
10490,-0.1875,0.8887,0.1528,3.967,3.540,-2.075,77.992,10.865,-31.729
10500,-0.1631,0.9248,0.1807,-4.150,4.578,-0.427,77.970,10.865,-31.685
10510,-0.1548,0.9863,0.2202,-9.094,0.488,1.892,77.877,10.827,-31.674
10520,-0.1724,1.0273,0.2427,-6.531,-5.615,3.235,77.789,10.767,-31.723
10530,-0.1914,1.0327,0.2529,0.854,-9.216,2.380,77.767,10.723,-31.811
10540,-0.2056,0.9902,0.2373,8.118,-8.240,0.244,77.822,10.706,-31.893
10550,-0.2085,0.9297,0.1958,10.864,-2.625,-1.770,77.926,10.739,-31.921
10561,-0.1963,0.8936,0.1719,5.798,4.395,-2.258,78.003,10.783,-31.882
10570,-0.1812,0.8970,0.1665,-3.845,8.606,-1.038,77.992,10.816,-31.800
10580,-0.1729,0.9355,0.1812,-12.268,8.667,0.549,77.899,10.822,-31.712
10590,-0.1655,1.0078,0.2246,-15.747,4.578,1.587,77.750,10.800,-31.663
10600,-0.1777,1.0571,0.2607,-11.475,-2.258,2.258,77.613,10.756,-31.679
10610,-0.2046,1.0493,0.2573,-0.061,-7.446,1.892,77.585,10.723,-31.750
10620,-0.2207,0.9961,0.2354,10.620,-7.568,0.427,77.668,10.717,-31.827
10630,-0.2114,0.9409,0.2031,14.526,-2.747,-0.671,77.811,10.734,-31.855
10640,-0.1895,0.9097,0.1865,10.681,3.540,-0.488,77.926,10.756,-31.822
10650,-0.1646,0.9297,0.2026,1.953,6.897,1.160,77.959,10.750,-31.750
10660,-0.1631,0.9824,0.2280,-5.493,5.432,3.296,77.904,10.712,-31.690
10670,-0.1709,1.0303,0.2510,-6.104,1.282,4.211,77.833,10.657,-31.668
10680,-0.1870,1.0479,0.2544,-0.061,-2.441,3.601,77.816,10.607,-31.685
10690,-0.1982,1.0127,0.2275,8.545,-3.296,2.136,77.888,10.585,-31.712
10700,-0.1992,0.9478,0.1812,13.916,-0.061,0.366,78.041,10.591,-31.712
10710,-0.1865,0.8979,0.1455,11.536,5.127,-0.671,78.190,10.618,-31.663
10720,-0.1699,0.8809,0.1353,2.625,8.972,-0.732,78.261,10.646,-31.575
10730,-0.1523,0.9204,0.1602,-7.690,8.850,-0.183,78.223,10.651,-31.487
10740,-0.1553,0.9771,0.1875,-12.939,3.723,1.099,78.113,10.629,-31.448
10750,-0.1719,1.0137,0.2061,-9.766,-2.502,2.014,78.014,10.591,-31.465
10760,-0.1802,1.0259,0.2227,-2.014,-7.080,2.197,77.981,10.547,-31.531
10770,-0.1865,1.0073,0.2192,6.226,-8.606,1.648,78.025,10.514,-31.613
10780,-0.1875,0.9688,0.2007,10.376,-6.836,0.977,78.118,10.492,-31.679
10790,-0.1865,0.9302,0.1772,8.118,-2.747,0.366,78.201,10.486,-31.707
10800,-0.1709,0.9282,0.1777,0.732,1.770,-0.488,78.223,10.492,-31.690
10810,-0.1592,0.9668,0.2026,-7.812,3.540,-0.427,78.151,10.492,-31.657
10820,-0.1602,1.0171,0.2295,-11.780,1.282,0.366,78.030,10.475,-31.641
10830,-0.1787,1.0430,0.2495,-7.996,-2.808,0.916,77.932,10.448,-31.668
10840,-0.1958,1.0386,0.2520,0.061,-5.493,0.610,77.904,10.432,-31.723
10850,-0.1963,1.0107,0.2427,7.324,-5.493,-0.366,77.953,10.426,-31.778
10860,-0.1958,0.9653,0.2183,10.803,-3.479,-0.793,78.047,10.432,-31.816
10870,-0.1875,0.9307,0.1909,9.094,0.244,-0.977,78.140,10.453,-31.811
10880,-0.1733,0.9258,0.1865,2.380,3.845,-0.854,78.173,10.464,-31.778
10890,-0.1714,0.9404,0.1860,-4.578,5.432,-0.732,78.146,10.481,-31.723
10900,-0.1733,0.9600,0.1938,-8.789,5.310,-1.221,78.074,10.497,-31.674
10910,-0.1743,0.9849,0.2085,-9.827,3.296,-1.892,77.981,10.519,-31.646
10920,-0.1841,0.9844,0.2051,-6.653,0.671,-2.380,77.915,10.541,-31.646
10930,-0.1904,0.9717,0.1987,-1.770,-0.916,-2.563,77.904,10.569,-31.657
10940,-0.1885,0.9546,0.1929,1.343,-1.221,-1.770,77.921,10.585,-31.674
10950,-0.1875,0.9370,0.1855,2.014,-0.549,-0.732,77.948,10.596,-31.679
10960,-0.1768,0.9424,0.1914,-0.061,0.671,0.061,77.953,10.596,-31.674
10970,-0.1636,0.9751,0.2109,-3.967,0.610,0.610,77.915,10.580,-31.668
10980,-0.1675,1.0059,0.2305,-5.493,-0.977,0.977,77.849,10.552,-31.674
10990,-0.1802,1.0269,0.2417,-3.540,-2.930,0.488,77.800,10.536,-31.701
11000,-0.1909,1.0244,0.2471,0.366,-3.845,-0.427,77.783,10.525,-31.740
11010,-0.1968,0.9971,0.2319,3.784,-2.869,-1.404,77.805,10.536,-31.772
11020,-0.2002,0.9614,0.2075,4.517,0.061,-2.319,77.849,10.569,-31.778
11030,-0.1919,0.9399,0.1924,1.404,3.967,-2.991,77.877,10.613,-31.745
11040,-0.1753,0.9492,0.1992,-3.906,6.409,-2.808,77.849,10.651,-31.685
11050,-0.1689,0.9712,0.2070,-7.812,5.737,-1.953,77.783,10.673,-31.635
11061,-0.1743,0.9937,0.2158,-7.812,2.930,-1.404,77.706,10.684,-31.608
11070,-0.1816,1.0063,0.2222,-4.272,0.183,-1.709,77.662,10.695,-31.608
11080,-0.1885,0.9941,0.2192,0.427,-1.282,-2.258,77.662,10.712,-31.630
11090,-0.1943,0.9629,0.1978,4.089,-0.671,-2.625,77.712,10.739,-31.641
11100,-0.1943,0.9336,0.1816,4.395,1.953,-2.686,77.767,10.778,-31.624
11110,-0.1836,0.9248,0.1807,1.404,4.456,-2.197,77.800,10.811,-31.586
11120,-0.1782,0.9355,0.1851,-2.441,5.127,-1.343,77.794,10.833,-31.536
11130,-0.1660,0.9712,0.2056,-5.432,3.479,-0.549,77.750,10.833,-31.503
11140,-0.1543,1.0171,0.2144,-5.432,-0.061,0.366,77.701,10.805,-31.503
11150,-0.1567,1.0400,0.2095,-0.732,-3.418,1.099,77.695,10.761,-31.536
11160,-0.1650,1.0303,0.2002,5.249,-4.883,0.977,77.756,10.723,-31.580
11170,-0.1777,0.9922,0.1748,8.240,-3.601,-0.244,77.849,10.712,-31.619
11180,-0.1816,0.9590,0.1489,7.019,-0.610,-2.380,77.953,10.734,-31.630
11190,-0.1729,0.9429,0.1548,1.526,1.099,-4.211,77.992,10.772,-31.630
11200,-0.1685,0.9546,0.1821,-5.859,0.122,-5.066,77.948,10.811,-31.641
11210,-0.1792,0.9741,0.2119,-10.742,-3.723,-5.249,77.827,10.849,-31.685
11220,-0.2007,0.9863,0.2461,-10.254,-8.545,-5.554,77.690,10.887,-31.783
11230,-0.2173,0.9780,0.2695,-5.981,-11.841,-5.798,77.574,10.931,-31.915
11240,-0.2314,0.9478,0.2690,-0.488,-11.963,-5.737,77.514,10.981,-32.047
11250,-0.2397,0.9106,0.2505,3.235,-8.362,-5.127,77.498,11.047,-32.141
11260,-0.2349,0.8857,0.2334,3.418,-2.625,-3.479,77.503,11.107,-32.173
11270,-0.2261,0.8789,0.2231,0.977,2.686,-1.099,77.498,11.151,-32.151
11280,-0.2183,0.8989,0.2246,-2.686,5.676,1.160,77.470,11.173,-32.091
11290,-0.2144,0.9272,0.2261,-4.883,5.798,2.930,77.421,11.173,-32.025
11300,-0.2144,0.9575,0.2402,-4.517,3.967,3.723,77.371,11.157,-31.976
11310,-0.2119,0.9727,0.2407,-1.831,1.343,4.089,77.344,11.129,-31.954
11320,-0.2070,0.9756,0.2295,2.319,-0.305,4.089,77.360,11.096,-31.948
11330,-0.1963,0.9746,0.2251,5.005,-0.549,4.456,77.410,11.052,-31.943
11340,-0.1816,0.9746,0.2119,5.798,0.549,5.066,77.476,10.997,-31.926
11350,-0.1709,0.9829,0.2095,4.761,2.502,5.310,77.531,10.937,-31.893
11360,-0.1650,0.9990,0.2124,2.869,3.723,5.310,77.574,10.876,-31.844
11370,-0.1675,1.0088,0.2070,1.770,4.272,4.578,77.607,10.822,-31.789
11380,-0.1665,1.0132,0.1997,1.831,4.456,3.418,77.651,10.783,-31.740
11390,-0.1694,0.9990,0.1875,2.014,4.211,2.075,77.695,10.756,-31.690
11400,-0.1763,0.9673,0.1641,2.441,4.150,0.671,77.756,10.756,-31.652
11410,-0.1724,0.9502,0.1553,0.916,4.700,-0.549,77.800,10.767,-31.602
11420,-0.1680,0.9521,0.1597,-2.075,3.967,-0.610,77.816,10.767,-31.564
11430,-0.1626,0.9668,0.1763,-3.906,1.526,0.183,77.800,10.756,-31.553
11440,-0.1636,0.9912,0.1992,-4.089,-2.625,1.160,77.761,10.723,-31.575
11450,-0.1763,1.0049,0.2207,-1.892,-7.080,1.648,77.728,10.684,-31.641
11460,-0.1914,1.0010,0.2339,1.892,-9.705,1.343,77.723,10.651,-31.734
11470,-0.2017,0.9731,0.2339,4.456,-9.399,0.244,77.734,10.635,-31.827
11480,-0.2012,0.9521,0.2290,3.479,-5.981,-1.282,77.745,10.646,-31.888
11490,-0.1919,0.9531,0.2358,-0.732,-1.587,-1.953,77.717,10.662,-31.910
11500,-0.1763,0.9766,0.2495,-5.188,1.404,-1.343,77.651,10.673,-31.899
11510,-0.1763,0.9990,0.2544,-6.409,2.441,-0.305,77.569,10.668,-31.877
11520,-0.1846,1.0088,0.2539,-4.150,2.563,0.183,77.520,10.668,-31.849
11530,-0.1914,0.9966,0.2368,0.549,2.930,-0.305,77.520,10.679,-31.822
11540,-0.1934,0.9731,0.2109,4.333,4.150,-1.099,77.569,10.701,-31.783
11550,-0.1924,0.9517,0.1890,5.676,5.310,-0.610,77.651,10.723,-31.729
11560,-0.1841,0.9370,0.1748,4.639,5.859,0.732,77.723,10.728,-31.668
11570,-0.1743,0.9517,0.1782,1.709,4.883,1.953,77.767,10.717,-31.619
11580,-0.1670,0.9756,0.1895,-0.854,2.136,2.136,77.778,10.690,-31.591
11590,-0.1719,0.9834,0.1860,-0.610,-1.343,1.404,77.783,10.662,-31.602
11600,-0.1846,0.9692,0.1787,1.831,-2.991,0.183,77.811,10.651,-31.630
11610,-0.1914,0.9390,0.1694,3.601,-1.892,-0.854,77.866,10.662,-31.652
11620,-0.1860,0.9121,0.1616,2.869,0.610,-1.160,77.915,10.684,-31.646
11630,-0.1738,0.9165,0.1714,-0.549,2.258,-0.366,77.926,10.690,-31.624
11640,-0.1616,0.9673,0.2197,-4.517,0.427,1.709,77.877,10.662,-31.619
11650,-0.1631,1.0303,0.2710,-3.174,-5.676,4.395,77.811,10.585,-31.668
11660,-0.1807,1.0669,0.2979,5.249,-12.817,6.714,77.811,10.481,-31.778
11670,-0.2036,1.0454,0.2842,17.273,-16.479,7.874,77.921,10.371,-31.926
11680,-0.2202,0.9751,0.2368,26.306,-13.245,7.141,78.146,10.294,-32.042
11690,-0.2129,0.9023,0.1846,25.269,-3.845,4.639,78.393,10.272,-32.069
11700,-0.1895,0.8706,0.1582,12.634,6.592,2.014,78.547,10.283,-32.003
11710,-0.1689,0.8926,0.1543,-5.249,12.512,0.244,78.530,10.305,-31.877
11720,-0.1636,0.9331,0.1519,-18.066,12.390,-0.732,78.398,10.333,-31.756
11730,-0.1646,0.9839,0.1719,-22.705,8.484,-1.343,78.206,10.355,-31.674
11740,-0.1655,1.0234,0.1929,-18.677,3.174,-1.099,78.036,10.360,-31.641
11750,-0.1660,1.0352,0.2104,-8.423,-1.770,-0.427,77.953,10.344,-31.663
11760,-0.1665,1.0269,0.2207,2.319,-5.859,0.854,77.964,10.311,-31.718
11770,-0.1689,0.9995,0.2139,9.583,-8.240,1.892,78.047,10.267,-31.794
11780,-0.1689,0.9727,0.1973,11.169,-7.141,1.831,78.151,10.228,-31.866
11790,-0.1631,0.9600,0.1924,6.409,-3.357,0.549,78.212,10.206,-31.893
11800,-0.1592,0.9565,0.1904,-1.587,1.221,-0.854,78.206,10.206,-31.882
11810,-0.1572,0.9858,0.2056,-9.216,4.822,-2.197,78.118,10.228,-31.844
11820,-0.1626,1.0264,0.2285,-13.916,5.249,-2.808,77.986,10.250,-31.794
11830,-0.1758,1.0405,0.2358,-11.841,2.930,-3.174,77.866,10.278,-31.772
11840,-0.1826,1.0396,0.2461,-5.249,0.122,-3.540,77.800,10.305,-31.778
11850,-0.1929,1.0093,0.2412,1.892,-2.258,-3.662,77.800,10.338,-31.811
11860,-0.2061,0.9478,0.2061,6.470,-2.014,-4.211,77.855,10.393,-31.838
11870,-0.2007,0.9043,0.1797,5.066,1.404,-5.127,77.915,10.464,-31.833
11880,-0.1904,0.8848,0.1689,-0.854,5.249,-4.822,77.926,10.536,-31.794
11890,-0.1821,0.8936,0.1724,-6.470,7.507,-3.479,77.888,10.591,-31.729
11900,-0.1841,0.9307,0.1846,-9.338,6.714,-1.526,77.816,10.624,-31.663
11910,-0.1855,0.9688,0.2002,-7.568,3.174,0.549,77.750,10.629,-31.630
11920,-0.1895,0.9819,0.2163,-1.343,-1.648,2.380,77.734,10.602,-31.641
11930,-0.1978,0.9702,0.2187,5.432,-5.859,3.479,77.778,10.563,-31.690
11940,-0.2012,0.9448,0.1958,10.437,-7.690,3.723,77.871,10.519,-31.761
11950,-0.1992,0.9087,0.1768,12.573,-6.348,4.089,77.997,10.486,-31.816
11960,-0.1802,0.9028,0.1777,10.254,-3.479,5.005,78.102,10.437,-31.838
11970,-0.1582,0.9575,0.2144,4.517,-2.380,6.836,78.140,10.349,-31.849
11980,-0.1499,1.0288,0.2588,0.977,-5.371,9.338,78.118,10.228,-31.882
11990,-0.1597,1.0874,0.2925,3.540,-10.254,10.437,78.107,10.085,-31.965
12000,-0.1860,1.0869,0.2886,10.071,-13.245,9.277,78.162,9.959,-32.075
12010,-0.2100,1.0215,0.2368,16.846,-9.949,5.188,78.300,9.904,-32.162
12020,-0.1992,0.9438,0.1836,15.808,0.549,-0.122,78.464,9.921,-32.157
12030,-0.1743,0.8999,0.1470,5.432,11.780,-3.479,78.558,9.987,-32.047
12040,-0.1475,0.9053,0.1372,-8.789,18.188,-4.272,78.530,10.058,-31.877
12050,-0.1445,0.9409,0.1396,-19.531,17.151,-2.991,78.393,10.107,-31.712
12060,-0.1445,0.9883,0.1587,-21.973,11.108,-1.526,78.223,10.124,-31.602
12070,-0.1523,1.0259,0.1777,-16.235,3.540,-0.488,78.085,10.118,-31.569
12080,-0.1597,1.0288,0.1865,-5.188,-3.052,0.000,78.047,10.096,-31.597
12090,-0.1641,1.0039,0.1870,5.249,-7.385,0.122,78.096,10.069,-31.674
12100,-0.1646,0.9727,0.1860,10.376,-9.155,0.244,78.195,10.042,-31.761
12110,-0.1621,0.9517,0.1919,8.789,-9.094,0.122,78.272,10.020,-31.855
12120,-0.1650,0.9404,0.1987,2.869,-7.629,-0.610,78.283,10.009,-31.932
12130,-0.1631,0.9575,0.2168,-5.005,-4.700,-1.770,78.217,10.009,-31.981
12140,-0.1655,0.9917,0.2373,-11.597,-1.648,-2.686,78.080,10.025,-32.003
12150,-0.1704,1.0264,0.2593,-13.794,0.122,-3.113,77.921,10.047,-32.009
12160,-0.1763,1.0420,0.2700,-10.620,-0.122,-2.991,77.789,10.069,-32.014
12170,-0.1904,1.0264,0.2539,-3.418,-0.488,-3.052,77.739,10.096,-32.025
12180,-0.1909,0.9990,0.2388,3.052,0.671,-3.113,77.756,10.135,-32.025
12190,-0.1846,0.9707,0.2251,5.432,2.258,-2.625,77.805,10.168,-32.009
12200,-0.1841,0.9531,0.2041,4.028,3.601,-2.197,77.849,10.201,-31.981
12210,-0.1787,0.9546,0.2021,-0.244,4.517,-2.441,77.855,10.234,-31.937
12220,-0.1772,0.9546,0.2012,-4.272,4.395,-2.869,77.822,10.272,-31.904
12230,-0.1787,0.9600,0.2061,-5.737,3.662,-3.601,77.772,10.316,-31.871
12240,-0.1865,0.9458,0.1943,-4.517,2.991,-4.089,77.739,10.366,-31.849
12250,-0.1904,0.9331,0.1836,-3.052,3.418,-4.272,77.723,10.426,-31.827
12260,-0.1831,0.9360,0.1865,-2.747,4.150,-2.930,77.712,10.464,-31.794
12270,-0.1772,0.9409,0.1807,-2.197,3.662,-0.549,77.712,10.481,-31.756
12280,-0.1792,0.9492,0.1846,-0.977,2.441,1.160,77.717,10.475,-31.729
12290,-0.1743,0.9712,0.1982,-0.488,0.427,2.136,77.723,10.448,-31.723
12300,-0.1772,0.9888,0.2046,1.038,-2.319,2.502,77.734,10.415,-31.740
12310,-0.1846,0.9897,0.2100,3.235,-4.395,2.625,77.761,10.382,-31.778
12320,-0.1875,0.9893,0.2134,4.395,-5.066,2.380,77.800,10.349,-31.822
12330,-0.1821,0.9917,0.2227,3.845,-4.517,1.831,77.827,10.316,-31.866
12340,-0.1782,0.9883,0.2266,2.625,-3.540,1.343,77.838,10.294,-31.893
12350,-0.1763,0.9907,0.2339,0.854,-2.380,0.488,77.833,10.278,-31.921
12360,-0.1763,0.9897,0.2427,-0.732,-1.587,-0.427,77.805,10.278,-31.937
12370,-0.1870,0.9854,0.2310,-0.610,-0.610,-1.282,77.789,10.289,-31.943
12380,-0.1948,0.9692,0.2222,0.183,1.526,-1.648,77.783,10.316,-31.932
12390,-0.1870,0.9619,0.2114,0.244,4.028,-1.282,77.794,10.344,-31.893
12400,-0.1797,0.9600,0.2007,0.000,5.493,-0.244,77.805,10.355,-31.838
12410,-0.1699,0.9648,0.1938,0.122,5.432,0.732,77.827,10.355,-31.783
12420,-0.1616,0.9712,0.1948,0.366,3.845,1.038,77.844,10.344,-31.745
12430,-0.1582,0.9712,0.1953,1.282,1.221,0.793,77.866,10.322,-31.729
12440,-0.1621,0.9600,0.1860,2.563,-0.916,-0.183,77.904,10.316,-31.740
12450,-0.1621,0.9414,0.1797,2.380,-1.587,-1.099,77.937,10.316,-31.756
12460,-0.1655,0.9312,0.1724,0.916,-0.793,-1.465,77.959,10.322,-31.767
12470,-0.1675,0.9321,0.1724,-1.038,0.427,-0.916,77.964,10.333,-31.767
12480,-0.1621,0.9585,0.1875,-2.930,0.488,0.366,77.948,10.316,-31.761
12490,-0.1626,0.9961,0.2173,-2.747,-1.587,2.075,77.915,10.283,-31.772
12500,-0.1748,1.0151,0.2363,0.427,-5.188,2.991,77.899,10.234,-31.816
12510,-0.1899,1.0103,0.2393,4.700,-7.996,2.625,77.921,10.195,-31.893
12520,-0.1997,0.9697,0.2168,7.935,-7.568,1.404,77.981,10.179,-31.965
12530,-0.2021,0.9224,0.1973,7.446,-3.662,0.061,78.047,10.190,-32.003
12540,-0.1875,0.9092,0.1899,1.587,1.160,-0.488,78.069,10.206,-31.992
12550,-0.1733,0.9419,0.2075,-5.554,2.991,0.427,78.014,10.212,-31.959
12560,-0.1787,0.9839,0.2285,-8.118,0.732,2.502,77.926,10.184,-31.948
12570,-0.1914,1.0083,0.2437,-4.395,-2.686,3.662,77.860,10.146,-31.965
12580,-0.1938,1.0112,0.2510,1.770,-4.944,3.479,77.855,10.107,-32.009
12590,-0.1973,0.9829,0.2275,7.996,-4.822,2.808,77.915,10.080,-32.047
12600,-0.1958,0.9487,0.1987,10.071,-1.648,2.319,78.019,10.063,-32.058
12610,-0.1855,0.9292,0.1743,6.165,2.686,2.502,78.096,10.058,-32.031
12620,-0.1680,0.9443,0.1782,-0.854,6.470,2.441,78.113,10.047,-31.959
12630,-0.1475,0.9961,0.2075,-7.935,6.531,2.686,78.047,10.014,-31.888
12640,-0.1514,1.0273,0.2124,-7.874,3.113,3.052,77.981,9.976,-31.849
12650,-0.1611,1.0269,0.2119,-1.831,-0.183,2.258,77.964,9.937,-31.849
12660,-0.1685,1.0054,0.1968,5.493,-1.038,1.099,78.030,9.921,-31.855
12670,-0.1621,0.9697,0.1855,9.705,0.610,0.610,78.135,9.910,-31.849
12680,-0.1543,0.9443,0.1743,8.606,2.197,1.343,78.239,9.893,-31.822
12690,-0.1533,0.9399,0.1646,4.272,3.174,1.831,78.305,9.877,-31.789
12700,-0.1440,0.9614,0.1826,-1.404,3.418,1.465,78.311,9.855,-31.750
12710,-0.1396,0.9980,0.2144,-4.211,1.465,1.404,78.267,9.822,-31.734
12720,-0.1411,1.0347,0.2476,-2.319,-2.563,1.892,78.223,9.772,-31.756
12730,-0.1562,1.0503,0.2568,3.906,-7.629,2.869,78.228,9.717,-31.827
12740,-0.1855,1.0127,0.2324,13.184,-9.949,3.662,78.333,9.662,-31.915
12750,-0.1919,0.9678,0.2080,19.592,-7.263,4.028,78.514,9.624,-31.981
12760,-0.1846,0.9312,0.1831,20.081,-2.136,4.944,78.712,9.586,-31.992
12769,-0.1743,0.9209,0.1650,15.442,2.686,5.676,78.882,9.547,-31.954
12780,-0.1543,0.9604,0.1782,6.165,4.822,5.615,78.959,9.492,-31.893
12790,-0.1587,1.0039,0.1924,-0.732,2.625,5.066,78.959,9.443,-31.860
12800,-0.1743,1.0117,0.1860,-0.732,-0.977,3.357,78.959,9.410,-31.860
12810,-0.1851,0.9897,0.1763,1.343,-2.747,0.916,78.975,9.404,-31.888
12820,-0.1841,0.9517,0.1582,2.014,-2.136,-1.526,79.008,9.432,-31.915
12829,-0.1748,0.9155,0.1387,-0.244,0.000,-3.113,79.030,9.476,-31.921
12839,-0.1621,0.9082,0.1406,-5.798,2.258,-3.113,78.997,9.514,-31.904
12849,-0.1538,0.9302,0.1509,-11.719,2.930,-2.075,78.904,9.536,-31.877
12859,-0.1445,0.9673,0.1689,-14.526,1.892,-1.221,78.772,9.542,-31.860
12870,-0.1387,1.0039,0.1943,-13.611,-0.916,-0.427,78.640,9.525,-31.871
12879,-0.1479,1.0200,0.2080,-8.972,-4.395,0.244,78.541,9.498,-31.915
12890,-0.1641,1.0107,0.2080,-2.808,-6.836,0.366,78.503,9.481,-31.981
12900,-0.1660,0.9922,0.2114,0.366,-7.080,-0.122,78.486,9.465,-32.053
12910,-0.1699,0.9673,0.1958,-0.061,-5.493,-0.977,78.481,9.465,-32.108
12919,-0.1660,0.9541,0.1875,-3.357,-1.770,-2.441,78.448,9.487,-32.130
12929,-0.1484,0.9697,0.2007,-9.277,1.526,-3.052,78.354,9.509,-32.124
12939,-0.1465,1.0020,0.2153,-12.512,2.197,-2.441,78.228,9.525,-32.108
12949,-0.1523,1.0371,0.2427,-12.085,0.000,-1.465,78.091,9.525,-32.108
12959,-0.1670,1.0542,0.2622,-7.141,-3.784,-0.671,77.997,9.514,-32.146
12969,-0.1855,1.0273,0.2466,1.099,-6.226,-0.793,77.981,9.514,-32.212
12979,-0.1938,0.9805,0.2241,7.202,-5.127,-1.587,78.036,9.536,-32.267
12989,-0.1855,0.9375,0.2017,7.507,-1.343,-2.136,78.107,9.569,-32.283
12999,-0.1777,0.9067,0.1802,3.113,2.991,-2.319,78.146,9.608,-32.256
13009,-0.1704,0.9028,0.1738,-4.028,6.165,-2.502,78.124,9.651,-32.201
13019,-0.1626,0.9253,0.1826,-10.681,6.714,-2.625,78.036,9.695,-32.141
13029,-0.1626,0.9521,0.1934,-12.329,4.700,-2.319,77.926,9.723,-32.097
13039,-0.1680,0.9712,0.2124,-9.583,0.977,-1.648,77.827,9.739,-32.091
13049,-0.1870,0.9688,0.2300,-3.967,-3.357,-0.305,77.772,9.745,-32.124
13060,-0.2061,0.9429,0.2324,2.319,-6.348,1.038,77.772,9.745,-32.184
13069,-0.2095,0.9194,0.2271,6.226,-6.348,2.319,77.805,9.734,-32.245
13079,-0.1870,0.9360,0.2358,7.202,-4.272,4.211,77.849,9.701,-32.278
13090,-0.1445,1.0044,0.2759,7.812,-3.052,7.385,77.893,9.602,-32.294
13099,-0.1055,1.1284,0.3433,11.414,-6.409,12.634,77.953,9.421,-32.327
13109,-0.1270,1.2017,0.3550,23.437,-12.939,18.250,78.124,9.185,-32.421
13119,-0.1875,1.1357,0.2852,41.260,-14.832,19.958,78.497,8.959,-32.525
13129,-0.2139,0.9932,0.1772,50.903,-5.554,14.648,79.008,8.833,-32.552
13139,-0.1997,0.8516,0.0518,42.236,12.878,4.700,79.525,8.855,-32.415
13149,-0.1655,0.7607,-0.0396,17.639,31.494,-5.249,79.882,8.998,-32.108
13159,-0.1182,0.7480,-0.0684,-13.977,41.992,-11.475,79.958,9.185,-31.712
13169,-0.0771,0.8335,-0.0278,-42.786,40.894,-12.390,79.711,9.338,-31.328
13179,-0.0640,0.9546,0.0557,-56.519,26.001,-8.484,79.261,9.410,-31.080
13189,-0.0898,1.0664,0.1450,-51.453,2.625,-2.502,78.788,9.393,-31.058
13199,-0.1318,1.1099,0.2036,-28.931,-21.729,2.197,78.475,9.300,-31.273
13209,-0.1626,1.0981,0.2393,-0.488,-38.757,4.639,78.398,9.168,-31.646
13219,-0.1670,1.0439,0.2617,22.888,-44.922,4.211,78.536,9.036,-32.086
13229,-0.1680,0.9712,0.2495,35.156,-41.504,2.502,78.788,8.932,-32.492
13239,-0.1650,0.9146,0.2437,31.006,-31.738,0.000,79.008,8.882,-32.805
13249,-0.1597,0.9028,0.2549,13.000,-19.775,-2.747,79.063,8.882,-33.008
13259,-0.1611,0.9458,0.2896,-11.353,-8.484,-4.883,78.871,8.915,-33.102
13269,-0.1738,1.0132,0.3267,-32.959,0.244,-6.104,78.475,8.981,-33.113
13279,-0.1924,1.0723,0.3511,-41.565,6.104,-6.836,78.008,9.064,-33.063
13289,-0.2026,1.0889,0.3477,-35.828,10.071,-7.385,77.607,9.168,-32.981
13299,-0.2036,1.0571,0.3115,-22.156,13.062,-7.935,77.366,9.283,-32.866
13309,-0.1899,1.0020,0.2637,-7.202,16.174,-8.179,77.294,9.410,-32.728
13319,-0.1689,0.9575,0.2236,2.441,17.700,-6.958,77.344,9.520,-32.569
13329,-0.1523,0.9302,0.1860,6.592,16.785,-4.517,77.448,9.597,-32.410
13339,-0.1479,0.9297,0.1660,5.859,14.465,-1.587,77.552,9.635,-32.272
13349,-0.1523,0.9395,0.1499,2.380,11.902,0.854,77.629,9.646,-32.151
13359,-0.1592,0.9429,0.1333,-0.183,10.803,1.526,77.690,9.651,-32.042
13369,-0.1514,0.9580,0.1348,-1.404,10.193,0.977,77.734,9.657,-31.937
13379,-0.1426,0.9692,0.1465,-1.831,7.507,0.671,77.767,9.651,-31.860
13389,-0.1396,0.9785,0.1626,-0.671,3.174,1.099,77.794,9.630,-31.827
13399,-0.1348,0.9927,0.1851,0.305,-1.892,1.709,77.811,9.591,-31.844
13409,-0.1367,1.0049,0.2119,2.686,-6.775,1.892,77.827,9.536,-31.904
13419,-0.1489,1.0044,0.2256,5.798,-9.949,1.709,77.866,9.487,-32.003
13429,-0.1616,0.9946,0.2246,8.057,-10.437,1.221,77.926,9.448,-32.102
13439,-0.1748,0.9722,0.2158,8.240,-8.179,0.854,77.986,9.432,-32.179
13449,-0.1816,0.9531,0.2056,6.287,-3.967,0.183,78.041,9.432,-32.223
13459,-0.1836,0.9482,0.1982,1.831,0.122,-0.671,78.063,9.448,-32.223
13469,-0.1768,0.9668,0.2051,-3.845,2.258,-1.587,78.025,9.476,-32.201
13479,-0.1670,0.9956,0.2295,-8.362,1.282,-2.014,77.937,9.498,-32.195
13489,-0.1733,1.0063,0.2319,-7.568,-1.648,-2.197,77.849,9.514,-32.212
13499,-0.1816,0.9888,0.2217,-2.991,-3.296,-2.502,77.805,9.542,-32.250
13509,-0.1802,0.9634,0.2114,2.075,-2.563,-2.625,77.822,9.569,-32.283
13519,-0.1733,0.9307,0.1982,5.188,-0.183,-2.014,77.871,9.597,-32.289
13529,-0.1577,0.9434,0.2124,5.127,1.709,-0.427,77.921,9.597,-32.272
13539,-0.1523,0.9775,0.2305,3.906,0.793,2.380,77.948,9.569,-32.261
13549,-0.1709,0.9824,0.2217,7.874,-2.014,5.005,78.019,9.514,-32.272
13560,-0.1846,0.9595,0.1841,14.221,-2.075,5.798,78.168,9.465,-32.278
13569,-0.1943,0.8911,0.1191,17.822,2.075,5.127,78.393,9.448,-32.245
13579,-0.1836,0.8188,0.0508,16.785,9.949,3.418,78.657,9.465,-32.141
13589,-0.1274,0.8501,0.0762,6.775,16.052,2.197,78.810,9.465,-31.976
13599,-0.0591,1.0137,0.2051,-5.920,9.644,5.920,78.766,9.366,-31.871
13609,-0.0532,1.1909,0.3394,-6.653,-11.658,15.076,78.640,9.130,-31.954
13619,-0.1309,1.2520,0.3745,12.878,-36.255,24.048,78.668,8.789,-32.267
13629,-0.2041,1.1880,0.3389,41.138,-47.668,25.452,78.964,8.454,-32.690
13639,-0.2271,1.0557,0.2559,63.171,-39.490,18.005,79.514,8.240,-33.047
13649,-0.2090,0.9043,0.1548,69.946,-19.165,8.728,80.189,8.168,-33.223
13659,-0.1782,0.7651,0.0635,57.678,3.235,2.563,80.815,8.196,-33.184
13669,-0.1572,0.7036,0.0005,25.269,21.057,-0.793,81.183,8.278,-32.975
13679,-0.1313,0.7354,-0.0205,-13.611,30.396,-3.052,81.200,8.377,-32.679
13689,-0.1123,0.8364,0.0029,-46.692,31.372,-4.272,80.865,8.459,-32.371
13699,-0.1006,0.9678,0.0767,-66.528,23.743,-3.662,80.288,8.503,-32.141
13709,-0.1094,1.0762,0.1401,-66.345,9.583,-1.831,79.667,8.509,-32.047
13719,-0.1167,1.1323,0.1987,-46.753,-7.202,-1.282,79.195,8.481,-32.119
13729,-0.1250,1.1270,0.2324,-19.348,-21.118,-1.526,78.964,8.438,-32.333
13739,-0.1313,1.0742,0.2388,6.470,-29.663,-2.014,78.970,8.383,-32.629
13749,-0.1411,0.9902,0.2183,23.376,-32.104,-2.380,79.140,8.344,-32.953
13759,-0.1465,0.9277,0.1978,25.818,-28.015,-2.869,79.343,8.322,-33.239
13769,-0.1470,0.9126,0.2114,14.832,-20.508,-3.296,79.437,8.322,-33.448
13779,-0.1392,0.9536,0.2568,-4.150,-13.306,-3.235,79.332,8.328,-33.585
13789,-0.1377,1.0303,0.3145,-22.888,-8.057,-2.441,79.030,8.322,-33.673
13799,-0.1440,1.1074,0.3643,-32.715,-5.066,-2.136,78.624,8.322,-33.728
13809,-0.1675,1.1304,0.3721,-26.733,-3.174,-3.052,78.289,8.344,-33.761
13819,-0.1909,1.0776,0.3320,-11.536,0.793,-5.371,78.118,8.410,-33.766
13829,-0.2002,0.9907,0.2627,1.953,7.935,-7.935,78.118,8.531,-33.706
13839,-0.1978,0.9048,0.2007,7.690,15.930,-9.094,78.206,8.685,-33.563
13849,-0.1777,0.8555,0.1562,3.235,22.644,-8.972,78.283,8.844,-33.360
13859,-0.1587,0.8687,0.1484,-8.423,25.024,-7.629,78.256,8.987,-33.129
13869,-0.1440,0.9395,0.1743,-20.081,21.729,-5.066,78.102,9.075,-32.921
13879,-0.1499,1.0034,0.1997,-23.315,13.916,-2.197,77.899,9.113,-32.789
13889,-0.1724,1.0176,0.2017,-15.381,6.104,-0.183,77.767,9.135,-32.728
13899,-0.1855,0.9795,0.1792,-1.709,2.075,0.488,77.772,9.146,-32.706
13909,-0.1797,0.9155,0.1436,9.827,3.174,0.366,77.904,9.168,-32.673
13919,-0.1416,0.8896,0.1387,12.878,6.287,0.854,78.074,9.168,-32.613
13929,-0.1060,0.9214,0.1738,9.277,5.371,3.296,78.190,9.124,-32.552
13939,-0.1025,0.9775,0.2158,4.272,-0.671,7.263,78.228,9.020,-32.542
13949,-0.1196,1.0430,0.2505,2.441,-7.996,10.681,78.223,8.871,-32.602
13959,-0.1494,1.0542,0.2500,5.310,-12.817,11.353,78.245,8.723,-32.706
13969,-0.1729,1.0195,0.2178,10.986,-10.986,8.606,78.338,8.630,-32.794
13979,-0.1738,0.9507,0.1689,13.550,-2.930,3.845,78.486,8.602,-32.816
13989,-0.1509,0.9116,0.1401,7.324,6.531,-0.305,78.596,8.624,-32.750
13999,-0.1167,0.9253,0.1465,-5.676,12.085,-2.014,78.580,8.652,-32.635
14009,-0.1045,0.9766,0.1748,-17.212,10.986,-1.465,78.437,8.657,-32.531
14019,-0.1172,1.0347,0.2080,-21.851,4.578,-0.183,78.228,8.646,-32.487
14029,-0.1426,1.0625,0.2280,-17.395,-2.625,0.366,78.052,8.624,-32.509
14039,-0.1543,1.0518,0.2334,-8.179,-6.409,-0.183,77.953,8.613,-32.574
14049,-0.1562,1.0088,0.2241,0.916,-6.470,-1.526,77.948,8.613,-32.640
14060,-0.1567,0.9565,0.2002,6.042,-3.784,-3.052,78.003,8.641,-32.684
14069,-0.1499,0.9268,0.1880,3.052,0.244,-4.578,78.036,8.685,-32.690
14079,-0.1328,0.9287,0.1973,-7.141,3.662,-5.920,77.970,8.745,-32.668
14089,-0.1265,0.9653,0.2202,-18.738,5.859,-7.324,77.783,8.811,-32.624
14099,-0.1279,1.0278,0.2603,-27.832,6.165,-8.362,77.492,8.888,-32.585
14109,-0.1401,1.0688,0.2876,-29.480,4.761,-8.972,77.179,8.970,-32.558
14119,-0.1602,1.0708,0.2935,-21.851,4.333,-9.949,76.943,9.064,-32.536
14129,-0.1709,1.0483,0.2979,-10.498,7.202,-11.292,76.816,9.190,-32.492
14139,-0.1714,1.0146,0.2837,1.160,14.282,-12.512,76.822,9.344,-32.377
14149,-0.1680,0.9673,0.2612,10.376,22.949,-13.245,76.937,9.525,-32.184
14159,-0.1680,0.9302,0.2520,13.489,29.968,-12.878,77.091,9.717,-31.915
14169,-0.1704,0.9209,0.2363,9.888,35.034,-11.230,77.228,9.910,-31.597
14179,-0.1802,0.9336,0.2251,3.906,36.804,-9.460,77.322,10.085,-31.251
14189,-0.1943,0.9370,0.2104,-0.732,34.973,-7.568,77.371,10.250,-30.921
14199,-0.2026,0.9434,0.1958,-2.869,32.166,-6.042,77.404,10.393,-30.613
14209,-0.1987,0.9546,0.1943,-3.540,28.870,-4.944,77.432,10.514,-30.339
14219,-0.1943,0.9561,0.1841,-1.038,23.743,-3.418,77.476,10.607,-30.114
14229,-0.1919,0.9478,0.1714,3.540,18.738,-1.282,77.569,10.668,-29.927
14239,-0.1812,0.9487,0.1675,6.714,13.367,1.038,77.684,10.684,-29.795
14249,-0.1777,0.9478,0.1626,9.033,6.714,3.540,77.811,10.662,-29.718
14259,-0.1812,0.9429,0.1577,9.827,0.000,5.676,77.937,10.607,-29.707
14269,-0.1860,0.9346,0.1494,8.606,-5.554,7.019,78.047,10.536,-29.745
14279,-0.1846,0.9326,0.1440,6.104,-9.338,7.080,78.124,10.453,-29.828
14289,-0.1777,0.9385,0.1475,2.808,-11.658,6.409,78.162,10.366,-29.927
14299,-0.1660,0.9526,0.1689,-1.099,-13.367,5.310,78.146,10.283,-30.048
14309,-0.1582,0.9648,0.1846,-4.028,-14.648,4.333,78.096,10.201,-30.185
14319,-0.1562,0.9741,0.1982,-5.493,-15.381,3.174,78.019,10.124,-30.333
14329,-0.1592,0.9795,0.2173,-5.981,-15.320,2.075,77.926,10.063,-30.482
14339,-0.1592,0.9868,0.2329,-6.165,-14.648,0.854,77.833,10.014,-30.624
14349,-0.1646,1.0063,0.2534,-6.592,-13.550,0.122,77.723,9.976,-30.762
14359,-0.1709,1.0151,0.2637,-5.371,-12.451,-0.061,77.624,9.943,-30.883
14369,-0.1753,1.0151,0.2646,-2.197,-10.498,0.183,77.563,9.910,-30.987
14379,-0.1772,1.0146,0.2676,0.854,-8.118,0.732,77.536,9.882,-31.064
14389,-0.1807,1.0034,0.2544,2.930,-5.310,1.282,77.536,9.860,-31.113
14399,-0.1836,0.9927,0.2407,4.150,-2.136,1.160,77.563,9.849,-31.135
14409,-0.1768,0.9810,0.2183,3.479,0.916,0.488,77.596,9.844,-31.124
14419,-0.1743,0.9692,0.1992,0.732,3.845,-0.427,77.618,9.860,-31.086
14429,-0.1670,0.9688,0.1963,-1.953,5.432,-1.343,77.618,9.882,-31.036
14439,-0.1592,0.9810,0.2070,-3.723,4.395,-1.892,77.591,9.899,-30.998
14449,-0.1655,0.9863,0.2158,-3.235,0.854,-1.831,77.563,9.915,-30.992
14459,-0.1768,0.9795,0.2158,-0.977,-2.625,-1.770,77.547,9.926,-31.020
14469,-0.1831,0.9570,0.2065,1.343,-4.028,-1.953,77.558,9.943,-31.064
14479,-0.1855,0.9360,0.1948,2.625,-2.747,-2.441,77.585,9.970,-31.097
14489,-0.1753,0.9326,0.2002,1.526,-0.427,-2.136,77.602,9.998,-31.108
14499,-0.1626,0.9492,0.2139,-0.671,0.488,-0.610,77.591,9.998,-31.102
14509,-0.1572,0.9683,0.2231,-1.526,-0.366,1.221,77.569,9.976,-31.102
14519,-0.1646,0.9863,0.2310,-0.854,-2.380,2.563,77.552,9.937,-31.124
14529,-0.1660,0.9937,0.2393,1.099,-4.761,3.296,77.542,9.888,-31.163
14539,-0.1777,0.9731,0.2261,4.089,-6.714,3.601,77.569,9.844,-31.223
14549,-0.1855,0.9468,0.2070,6.226,-6.470,3.113,77.624,9.805,-31.278
14560,-0.1807,0.9365,0.2031,4.944,-4.700,2.869,77.662,9.778,-31.317
14569,-0.1719,0.9419,0.2046,1.160,-3.174,2.930,77.673,9.745,-31.344
14579,-0.1685,0.9658,0.2109,-3.662,-2.625,2.991,77.635,9.712,-31.366
14589,-0.1670,0.9917,0.2183,-7.019,-3.052,2.869,77.558,9.673,-31.388
14599,-0.1670,1.0093,0.2295,-7.507,-3.601,2.319,77.476,9.641,-31.415
14609,-0.1670,1.0024,0.2246,-4.761,-3.723,1.587,77.421,9.613,-31.454
14619,-0.1704,0.9722,0.2124,-0.977,-2.502,0.366,77.410,9.602,-31.476
14629,-0.1743,0.9531,0.1982,0.610,0.122,-0.732,77.426,9.619,-31.476
14639,-0.1694,0.9468,0.1865,0.488,2.319,-1.038,77.448,9.635,-31.454
14649,-0.1582,0.9595,0.1953,-1.221,2.930,0.000,77.454,9.635,-31.426
14659,-0.1523,0.9858,0.2100,-2.441,0.793,2.197,77.437,9.608,-31.415
14669,-0.1597,0.9946,0.2100,-0.366,-2.991,3.845,77.432,9.558,-31.432
14679,-0.1709,0.9858,0.2041,4.150,-5.798,4.395,77.476,9.503,-31.481
14689,-0.1743,0.9585,0.1885,9.155,-6.592,4.456,77.569,9.448,-31.536
14699,-0.1685,0.9248,0.1763,12.512,-5.798,4.944,77.706,9.399,-31.586
14709,-0.1606,0.9131,0.1782,12.146,-5.249,6.104,77.833,9.333,-31.624
14719,-0.1553,0.9331,0.1982,8.301,-6.775,7.324,77.904,9.245,-31.674
14729,-0.1548,0.9624,0.2187,3.540,-9.888,7.996,77.921,9.146,-31.756
14739,-0.1587,0.9912,0.2417,-0.427,-13.123,7.751,77.882,9.036,-31.871
14749,-0.1611,1.0083,0.2554,-2.808,-14.832,6.653,77.811,8.943,-32.003
14759,-0.1665,1.0073,0.2554,-2.747,-13.367,4.517,77.745,8.871,-32.124
14769,-0.1646,1.0024,0.2554,-1.221,-8.667,2.136,77.701,8.833,-32.206
14779,-0.1597,0.9937,0.2500,-0.427,-2.808,0.977,77.673,8.817,-32.234
14789,-0.1597,0.9771,0.2329,-0.305,2.808,0.549,77.668,8.822,-32.201
14799,-0.1509,0.9858,0.2227,-1.465,7.080,0.061,77.657,8.833,-32.130
14809,-0.1426,1.0039,0.2222,-3.418,8.545,0.183,77.635,8.839,-32.047
14819,-0.1421,1.0171,0.2153,-3.967,7.446,0.610,77.613,8.839,-31.970
14829,-0.1431,1.0181,0.2075,-1.831,5.127,0.854,77.613,8.833,-31.921
14839,-0.1479,0.9946,0.1880,2.197,2.686,0.366,77.651,8.828,-31.893
14849,-0.1450,0.9624,0.1763,5.005,1.709,-0.854,77.723,8.839,-31.877
14859,-0.1416,0.9385,0.1670,4.517,1.770,-1.709,77.794,8.855,-31.866
14869,-0.1406,0.9233,0.1577,2.625,2.747,-1.587,77.849,8.871,-31.838
14879,-0.1299,0.9419,0.1782,-0.549,3.052,-0.366,77.860,8.871,-31.811
14889,-0.1235,0.9937,0.2192,-2.869,0.122,1.831,77.833,8.833,-31.805
14899,-0.1318,1.0356,0.2510,0.305,-5.554,4.395,77.811,8.762,-31.849
14909,-0.1484,1.0562,0.2690,8.484,-11.475,6.348,77.860,8.663,-31.948
14919,-0.1738,1.0273,0.2539,18.738,-14.771,7.751,78.008,8.564,-32.080
14929,-0.1865,0.9595,0.2056,27.039,-12.573,8.240,78.261,8.481,-32.190
14939,-0.1841,0.8887,0.1567,28.137,-5.493,7.324,78.552,8.432,-32.228
14949,-0.1660,0.8579,0.1289,18.860,2.563,5.310,78.772,8.410,-32.190
14959,-0.1328,0.8916,0.1416,1.953,7.690,2.686,78.827,8.399,-32.108
14969,-0.1191,0.9541,0.1719,-14.648,7.507,0.427,78.701,8.394,-32.036
14979,-0.1323,1.0127,0.1968,-24.414,4.089,-0.977,78.464,8.399,-31.998
14989,-0.1426,1.0591,0.2261,-25.513,0.061,-2.747,78.206,8.416,-31.998
14999,-0.1475,1.0645,0.2363,-19.226,-2.502,-4.517,78.003,8.448,-32.036
15009,-0.1548,1.0293,0.2251,-9.644,-2.380,-5.676,77.904,8.498,-32.069
15019,-0.1528,0.9780,0.2041,-2.563,0.671,-6.226,77.877,8.564,-32.075
15029,-0.1411,0.9448,0.1919,-2.075,4.578,-6.287,77.871,8.630,-32.047
15039,-0.1270,0.9438,0.1953,-7.385,7.263,-6.104,77.811,8.690,-31.987
15049,-0.1284,0.9688,0.2075,-14.648,7.690,-6.287,77.673,8.756,-31.921
15060,-0.1372,1.0044,0.2251,-19.287,6.470,-6.714,77.487,8.822,-31.871
15069,-0.1465,1.0269,0.2393,-18.921,4.456,-7.019,77.300,8.893,-31.844
15079,-0.1562,1.0215,0.2393,-13.428,2.991,-7.141,77.162,8.965,-31.833
15089,-0.1602,0.9883,0.2231,-5.920,2.869,-7.019,77.108,9.036,-31.816
15099,-0.1597,0.9497,0.2046,0.061,4.211,-6.653,77.119,9.113,-31.794
15109,-0.1504,0.9351,0.2134,1.465,5.432,-5.554,77.141,9.179,-31.750
15119,-0.1431,0.9546,0.2422,-0.366,3.906,-3.479,77.130,9.212,-31.723
15129,-0.1523,0.9932,0.2681,-1.770,-0.366,-1.038,77.086,9.212,-31.729
15139,-0.1729,1.0161,0.2822,0.549,-4.822,0.732,77.058,9.196,-31.772
15149,-0.1899,1.0020,0.2676,7.080,-6.470,1.343,77.102,9.179,-31.833
15159,-0.1973,0.9575,0.2349,14.160,-3.418,1.160,77.228,9.179,-31.866
15169,-0.1934,0.9033,0.1899,16.663,3.174,0.854,77.404,9.207,-31.833
15179,-0.1670,0.8901,0.1802,12.634,9.766,0.427,77.558,9.234,-31.734
15189,-0.1421,0.9346,0.2075,3.540,11.475,0.305,77.607,9.250,-31.619
15199,-0.1465,0.9863,0.2144,-2.441,7.507,1.465,77.596,9.240,-31.542
15209,-0.1597,1.0073,0.2183,-2.747,2.136,2.380,77.580,9.218,-31.514
15219,-0.1724,1.0103,0.2168,1.343,-1.709,2.747,77.591,9.190,-31.525
15229,-0.1777,0.9824,0.1978,7.751,-3.235,2.686,77.673,9.168,-31.553
15239,-0.1763,0.9404,0.1660,12.878,-2.136,2.869,77.822,9.146,-31.569
15249,-0.1602,0.9058,0.1494,13.306,0.977,3.174,77.986,9.124,-31.553
15259,-0.1392,0.9160,0.1606,7.751,3.113,3.235,78.091,9.097,-31.514
15269,-0.1226,0.9658,0.1938,0.916,2.136,3.235,78.107,9.047,-31.487
15279,-0.1187,1.0405,0.2412,-3.662,-2.625,4.395,78.058,8.970,-31.503
15289,-0.1343,1.0859,0.2720,-1.221,-9.521,5.981,78.014,8.877,-31.586
15299,-0.1631,1.0771,0.2671,6.836,-14.954,6.714,78.041,8.773,-31.718
15309,-0.1875,1.0176,0.2349,15.625,-15.442,6.042,78.162,8.696,-31.860
15319,-0.1885,0.9390,0.1865,19.226,-9.460,3.479,78.344,8.668,-31.943
15329,-0.1753,0.8828,0.1489,12.451,0.122,0.122,78.492,8.690,-31.943
15339,-0.1558,0.8711,0.1279,-2.197,8.850,-3.235,78.514,8.756,-31.860
15349,-0.1431,0.8872,0.1265,-18.921,14.038,-6.348,78.376,8.844,-31.734
15359,-0.1353,0.9473,0.1548,-34.119,15.015,-9.399,78.085,8.959,-31.608
15369,-0.1348,1.0132,0.1973,-42.114,11.536,-11.353,77.690,9.080,-31.514
15379,-0.1411,1.0571,0.2324,-38.879,5.310,-11.597,77.305,9.185,-31.487
15389,-0.1455,1.0747,0.2646,-27.588,-1.221,-10.010,77.020,9.261,-31.520
15399,-0.1509,1.0527,0.2681,-12.207,-6.226,-7.507,76.871,9.305,-31.602
15409,-0.1553,0.9995,0.2466,2.686,-7.690,-5.005,76.877,9.333,-31.690
15419,-0.1504,0.9526,0.2344,10.620,-5.432,-2.808,76.965,9.338,-31.750
15429,-0.1484,0.9312,0.2290,10.010,-2.258,-0.916,77.053,9.338,-31.772
15439,-0.1538,0.9331,0.2290,4.578,0.305,-0.061,77.091,9.338,-31.772
15449,-0.1592,0.9585,0.2407,-3.052,1.526,-0.427,77.047,9.344,-31.756
15459,-0.1675,0.9956,0.2544,-9.216,1.282,-1.709,76.948,9.360,-31.745
15469,-0.1758,1.0142,0.2607,-10.193,0.916,-3.540,76.833,9.399,-31.745
15479,-0.1777,1.0146,0.2646,-6.897,0.793,-4.578,76.750,9.448,-31.750
15489,-0.1826,0.9839,0.2490,-0.732,0.732,-4.089,76.729,9.492,-31.750
15499,-0.1870,0.9414,0.2236,4.944,1.892,-3.052,76.783,9.542,-31.740
15509,-0.1758,0.9209,0.2144,5.798,3.784,-1.648,76.844,9.580,-31.707
15519,-0.1694,0.9229,0.2109,2.869,4.517,-0.427,76.882,9.597,-31.663
15529,-0.1670,0.9482,0.2187,-0.427,3.601,0.366,76.888,9.602,-31.624
15539,-0.1729,0.9736,0.2300,-2.197,1.343,0.854,76.866,9.602,-31.613
15549,-0.1841,0.9736,0.2231,0.427,-0.916,0.916,76.871,9.597,-31.619
15560,-0.1851,0.9580,0.2114,4.639,-1.282,0.854,76.921,9.597,-31.630
15569,-0.1758,0.9326,0.1948,6.897,0.183,1.343,77.003,9.591,-31.624
15579,-0.1650,0.9155,0.1899,5.676,2.319,1.892,77.075,9.586,-31.597
15589,-0.1465,0.9375,0.2100,1.404,3.174,2.197,77.102,9.564,-31.558
15599,-0.1338,0.9907,0.2383,-2.136,0.793,2.869,77.075,9.514,-31.547
15609,-0.1440,1.0249,0.2495,0.122,-3.296,4.517,77.064,9.448,-31.569
15619,-0.1577,1.0347,0.2520,6.714,-6.775,6.165,77.113,9.360,-31.619
15629,-0.1782,1.0020,0.2217,15.259,-7.690,6.897,77.261,9.283,-31.679
15639,-0.1841,0.9365,0.1743,20.630,-4.211,6.104,77.481,9.229,-31.707
15649,-0.1680,0.8960,0.1572,15.808,1.404,4.517,77.668,9.201,-31.685
15659,-0.1509,0.9150,0.1714,2.686,5.310,2.075,77.723,9.196,-31.630
15669,-0.1333,0.9614,0.2061,-12.878,5.798,-1.648,77.602,9.207,-31.575
15679,-0.1367,1.0347,0.2515,-26.123,3.845,-6.165,77.338,9.256,-31.547
15689,-0.1504,1.0845,0.2827,-32.349,1.770,-10.315,76.998,9.344,-31.553
15699,-0.1646,1.0835,0.2910,-29.785,2.319,-13.306,76.679,9.465,-31.564
15709,-0.1753,1.0410,0.2749,-22.461,6.042,-15.015,76.448,9.624,-31.536
15719,-0.1787,0.9751,0.2393,-15.625,11.902,-15.442,76.300,9.805,-31.459
15729,-0.1724,0.9229,0.2051,-13.184,17.578,-15.198,76.207,9.998,-31.322
15739,-0.1646,0.8940,0.1787,-15.320,21.118,-14.648,76.108,10.190,-31.146
15749,-0.1597,0.8931,0.1709,-19.470,21.179,-13.855,75.976,10.371,-30.970
15759,-0.1548,0.9326,0.1948,-23.804,16.846,-12.329,75.789,10.519,-30.839
15769,-0.1592,0.9854,0.2378,-23.682,8.179,-9.705,75.569,10.613,-30.778
15779,-0.1777,1.0181,0.2754,-17.029,-2.014,-6.592,75.388,10.662,-30.817
15789,-0.1963,1.0195,0.3003,-5.859,-9.949,-4.028,75.295,10.673,-30.927
15799,-0.2061,0.9946,0.3042,6.226,-12.817,-2.197,75.306,10.668,-31.058
15809,-0.2109,0.9458,0.2852,15.015,-9.949,-0.854,75.416,10.668,-31.157
15819,-0.2051,0.9102,0.2671,16.602,-2.808,-0.244,75.558,10.679,-31.185
15829,-0.1958,0.9126,0.2666,11.108,4.395,-0.122,75.657,10.701,-31.141
15839,-0.1865,0.9409,0.2769,1.709,8.667,-0.671,75.668,10.728,-31.058
15849,-0.1875,0.9907,0.2974,-7.629,9.155,-1.587,75.586,10.761,-30.970
15859,-0.2017,1.0293,0.3081,-11.169,7.202,-3.113,75.465,10.805,-30.910
15869,-0.2134,1.0190,0.2837,-7.324,5.676,-5.066,75.388,10.876,-30.866
15879,-0.2173,0.9644,0.2368,-0.488,7.080,-6.470,75.405,10.970,-30.811
15889,-0.2036,0.9087,0.1943,3.662,11.414,-6.836,75.482,11.080,-30.718
15899,-0.1709,0.9043,0.1997,3.601,14.954,-5.798,75.564,11.162,-30.586
15909,-0.1562,0.9365,0.2241,0.671,12.878,-2.441,75.602,11.201,-30.465
15919,-0.1519,1.0137,0.2729,0.977,4.578,1.831,75.613,11.162,-30.416
15929,-0.1631,1.0908,0.3232,7.996,-7.812,6.958,75.663,11.047,-30.476
15939,-0.2061,1.0825,0.3091,25.879,-19.714,13.000,75.872,10.865,-30.635
15949,-0.2446,0.9692,0.2275,47.546,-22.766,16.968,76.317,10.679,-30.817
15959,-0.2461,0.8101,0.1128,59.998,-13.855,15.991,76.948,10.552,-30.916
15969,-0.2217,0.6919,0.0171,52.795,2.380,11.780,77.596,10.519,-30.866
15979,-0.1758,0.6592,-0.0225,26.306,17.578,6.042,78.036,10.541,-30.679
15989,-0.1294,0.7388,0.0161,-9.949,24.292,1.099,78.091,10.574,-30.438
15999,-0.1074,0.8999,0.1133,-43.030,18.311,-0.854,77.745,10.580,-30.256
16009,-0.1274,1.0444,0.1973,-59.265,2.197,0.000,77.179,10.547,-30.234
16019,-0.1729,1.1230,0.2583,-53.833,-16.602,0.916,76.613,10.481,-30.394
16029,-0.1890,1.1440,0.3013,-34.363,-29.358,-0.122,76.207,10.404,-30.685
16039,-0.1821,1.1069,0.3193,-10.803,-33.020,-2.380,76.020,10.333,-31.020
16049,-0.1729,1.0317,0.3145,7.874,-29.724,-4.150,76.014,10.289,-31.322
16060,-0.1709,0.9619,0.2974,13.184,-21.729,-5.127,76.069,10.278,-31.547
16069,-0.1699,0.9404,0.3071,4.333,-12.573,-6.348,76.047,10.305,-31.690
16079,-0.1748,0.9771,0.3359,-13.489,-4.456,-7.751,75.850,10.366,-31.750
16089,-0.1938,1.0273,0.3506,-27.405,1.160,-9.399,75.531,10.453,-31.761
16099,-0.2114,1.0576,0.3564,-34.607,6.470,-11.475,75.152,10.580,-31.729
16109,-0.2124,1.0649,0.3491,-34.729,11.963,-13.367,74.789,10.745,-31.646
16119,-0.2031,1.0356,0.3281,-27.283,15.564,-14.404,74.520,10.920,-31.531
16129,-0.1865,0.9990,0.3096,-15.808,16.479,-14.038,74.366,11.085,-31.404
16139,-0.1768,0.9766,0.2993,-6.348,13.977,-12.146,74.312,11.228,-31.306
16149,-0.1855,0.9546,0.2769,1.343,9.583,-8.972,74.333,11.332,-31.234
16159,-0.1978,0.9277,0.2524,6.531,6.592,-5.737,74.410,11.409,-31.185
16169,-0.2100,0.8984,0.2251,7.812,6.042,-3.906,74.515,11.475,-31.135
16179,-0.2192,0.8677,0.1968,6.104,7.996,-3.723,74.614,11.558,-31.069
16189,-0.2139,0.8452,0.1768,2.136,10.864,-4.272,74.691,11.651,-30.970
16199,-0.1958,0.8638,0.1924,-3.174,11.414,-4.272,74.707,11.728,-30.872
16209,-0.1812,0.9185,0.2388,-6.836,7.446,-2.441,74.658,11.761,-30.806
16219,-0.1846,0.9692,0.2778,-5.676,-0.977,1.038,74.597,11.733,-30.811
16229,-0.1987,0.9990,0.2969,2.747,-10.132,4.700,74.592,11.651,-30.899
16239,-0.2148,0.9888,0.2930,15.259,-16.174,7.629,74.707,11.541,-31.036
16249,-0.2319,0.9272,0.2559,26.306,-16.602,9.155,74.938,11.431,-31.174
16259,-0.2358,0.8633,0.2056,28.381,-10.864,8.606,75.218,11.354,-31.262
16269,-0.2197,0.8438,0.1904,17.761,-1.953,6.042,75.416,11.321,-31.262
16279,-0.1831,0.9063,0.2383,-1.587,3.906,2.014,75.405,11.305,-31.218
16289,-0.1719,1.0146,0.3101,-19.592,2.808,-1.526,75.190,11.310,-31.196
16299,-0.1895,1.1011,0.3564,-25.818,-2.625,-3.601,74.899,11.316,-31.234
16309,-0.2163,1.1104,0.3687,-19.043,-7.080,-4.211,74.663,11.327,-31.311
16319,-0.2329,1.0444,0.3281,-4.700,-5.188,-4.822,74.581,11.371,-31.377
16329,-0.2349,0.9307,0.2495,8.057,3.845,-6.165,74.669,11.459,-31.355
16339,-0.2163,0.8359,0.1807,10.315,16.541,-6.653,74.833,11.596,-31.212
16349,-0.1934,0.7837,0.1436,3.296,26.123,-6.287,74.960,11.744,-30.970
16359,-0.1758,0.7969,0.1484,-10.864,28.809,-5.737,74.949,11.876,-30.701
16369,-0.1543,0.8911,0.1958,-28.564,25.085,-5.066,74.745,11.964,-30.465
16379,-0.1484,1.0264,0.2773,-38.940,14.343,-3.235,74.388,11.997,-30.333
16389,-0.1738,1.0947,0.3159,-28.687,0.183,-0.549,74.097,11.970,-30.333
16399,-0.2046,1.0815,0.3203,-6.531,-10.620,2.625,74.004,11.898,-30.432
16409,-0.2080,1.0283,0.2998,15.198,-14.282,4.883,74.130,11.805,-30.558
16419,-0.2012,0.9521,0.2563,29.785,-10.559,5.798,74.416,11.717,-30.646
16429,-0.1943,0.8809,0.2168,30.151,-3.418,5.127,74.724,11.662,-30.663
16439,-0.1855,0.8638,0.2046,15.991,3.540,2.686,74.910,11.646,-30.624
16449,-0.1792,0.9009,0.2246,-5.676,7.263,-1.404,74.883,11.673,-30.553
16459,-0.1885,0.9766,0.2612,-25.574,7.385,-5.737,74.641,11.733,-30.498
16469,-0.2036,1.0410,0.2979,-35.461,4.822,-9.583,74.290,11.827,-30.476
16479,-0.2178,1.0615,0.3159,-32.654,1.648,-11.902,73.954,11.937,-30.493
16489,-0.2202,1.0420,0.3140,-22.034,-0.244,-13.123,73.718,12.057,-30.531
16499,-0.2163,0.9868,0.2998,-9.277,-0.122,-12.817,73.614,12.178,-30.569
16509,-0.2095,0.9375,0.2847,0.183,0.916,-11.292,73.603,12.288,-30.591
16519,-0.2017,0.9272,0.3042,3.174,0.977,-8.606,73.614,12.365,-30.608
16529,-0.2080,0.9473,0.3193,2.686,-1.343,-5.005,73.614,12.404,-30.635
16539,-0.2261,0.9673,0.3335,4.761,-4.395,-1.709,73.625,12.404,-30.685
16549,-0.2402,0.9688,0.3208,8.789,-5.859,0.488,73.680,12.393,-30.740
16559,-0.2559,0.9243,0.2764,14.526,-3.723,1.221,73.812,12.398,-30.773
16569,-0.2544,0.8525,0.2246,17.029,1.587,0.610,73.998,12.431,-30.756
16579,-0.2407,0.8086,0.1904,12.268,7.507,-0.671,74.163,12.497,-30.685
16589,-0.2114,0.8306,0.2090,0.671,10.498,-1.892,74.207,12.557,-30.586
16599,-0.1880,0.9092,0.2671,-11.108,7.263,-1.526,74.108,12.579,-30.520
16609,-0.1943,1.0049,0.3286,-14.465,-2.136,0.854,73.938,12.541,-30.536
16619,-0.2285,1.0415,0.3511,-4.211,-12.817,4.517,73.845,12.453,-30.652
16629,-0.2505,1.0249,0.3311,14.404,-18.127,8.179,73.938,12.332,-30.806
16639,-0.2505,0.9590,0.2886,32.532,-15.564,10.864,74.229,12.206,-30.927
16649,-0.2407,0.8750,0.2275,40.894,-7.202,12.390,74.636,12.096,-30.965
16659,-0.2187,0.8218,0.1792,33.936,3.357,11.414,75.015,12.019,-30.899
16669,-0.1855,0.8433,0.1782,13.794,11.169,8.057,75.212,11.970,-30.767
16679,-0.1611,0.9258,0.2256,-9.521,11.719,4.456,75.152,11.937,-30.641
16689,-0.1694,1.0181,0.2681,-23.376,6.165,1.953,74.938,11.904,-30.575
16699,-0.1978,1.0615,0.2778,-22.278,-0.732,0.061,74.718,11.887,-30.580
16709,-0.2119,1.0513,0.2773,-11.902,-4.272,-1.099,74.597,11.876,-30.630
16719,-0.2065,0.9985,0.2563,0.244,-3.296,-1.770,74.603,11.876,-30.663
16729,-0.1938,0.9375,0.2354,8.667,0.366,-2.075,74.702,11.893,-30.668
16739,-0.1758,0.9272,0.2471,7.629,2.563,-1.709,74.784,11.904,-30.646
16749,-0.1763,0.9521,0.2661,1.343,1.099,-0.671,74.795,11.893,-30.635
16759,-0.1929,0.9873,0.2905,-1.770,-2.258,0.244,74.762,11.871,-30.657
16769,-0.2114,1.0132,0.3037,-2.197,-4.211,0.183,74.718,11.854,-30.701
16779,-0.2236,0.9976,0.2881,0.183,-2.686,-1.038,74.702,11.860,-30.729
16789,-0.2280,0.9399,0.2500,3.235,1.892,-3.235,74.740,11.909,-30.718
16799,-0.2197,0.8813,0.2148,2.197,8.057,-5.615,74.789,12.003,-30.657
16809,-0.2007,0.8613,0.2075,-5.066,12.695,-6.897,74.778,12.107,-30.547
16819,-0.1870,0.8960,0.2271,-13.977,13.611,-6.836,74.674,12.200,-30.432
16829,-0.1865,0.9673,0.2720,-19.531,9.033,-5.005,74.493,12.255,-30.355
16839,-0.2056,1.0215,0.2988,-16.113,0.305,-1.892,74.328,12.261,-30.361
16849,-0.2329,1.0142,0.2998,-3.906,-7.629,1.343,74.262,12.228,-30.432
16859,-0.2441,0.9731,0.2886,9.216,-11.108,2.930,74.328,12.184,-30.531
16869,-0.2407,0.9189,0.2568,17.456,-8.972,2.930,74.482,12.151,-30.613
16879,-0.2275,0.8706,0.2285,16.968,-3.052,2.319,74.652,12.145,-30.635
16889,-0.2021,0.8745,0.2334,7.019,2.686,1.587,74.734,12.140,-30.602
16899,-0.1846,0.9360,0.2695,-5.981,3.723,1.282,74.674,12.123,-30.564
16909,-0.1934,1.0073,0.3032,-12.512,0.427,1.709,74.537,12.090,-30.553
16919,-0.2139,1.0444,0.3174,-9.399,-4.150,2.197,74.427,12.047,-30.591
16929,-0.2271,1.0342,0.3076,-0.183,-6.409,2.380,74.399,12.008,-30.646
16939,-0.2314,0.9775,0.2725,9.399,-4.211,1.709,74.487,11.986,-30.685
16949,-0.2280,0.8994,0.2256,13.672,1.160,0.610,74.641,12.003,-30.668
16959,-0.2178,0.8477,0.2036,8.850,6.775,-0.854,74.756,12.052,-30.608
16969,-0.1860,0.8896,0.2529,-4.028,8.789,-2.197,74.729,12.085,-30.526
16979,-0.1704,0.9932,0.3135,-13.306,3.174,-1.221,74.581,12.079,-30.498
16989,-0.1880,1.0615,0.3423,-9.033,-6.042,2.197,74.454,12.019,-30.553
16999,-0.2070,1.0879,0.3467,5.798,-13.062,6.470,74.471,11.904,-30.663
17009,-0.2197,1.0400,0.3018,25.757,-14.404,10.376,74.696,11.761,-30.773
17019,-0.2319,0.9180,0.2207,42.786,-8.789,12.085,75.125,11.646,-30.828
17029,-0.2363,0.8018,0.1411,44.556,1.465,10.925,75.624,11.591,-30.784
17039,-0.2178,0.7388,0.0957,29.053,11.719,7.263,76.009,11.596,-30.652
17049,-0.1841,0.7749,0.1050,3.906,16.541,3.235,76.141,11.618,-30.482
17059,-0.1411,0.9136,0.1855,-18.555,11.414,1.892,76.009,11.596,-30.361
17069,-0.1460,1.0366,0.2642,-26.794,-3.357,4.822,75.734,11.503,-30.383
