elapsed_ms,acc_x_g,acc_y_g,acc_z_g,gyro_x_dps,gyro_y_dps,gyro_z_dps,angle_x_deg,angle_y_deg,angle_z_deg
0,-0.1743,0.7227,0.6807,0.610,0.122,0.183,46.945,10.371,-36.672
10,-0.1758,0.7222,0.6797,0.061,0.183,0.061,46.945,10.366,-36.672
20,-0.1772,0.7227,0.6743,-0.305,0.366,-0.122,46.945,10.366,-36.672
30,-0.1758,0.7207,0.6738,-0.366,0.732,-0.244,46.939,10.371,-36.672
40,-0.1743,0.7178,0.6699,-0.427,0.977,-0.061,46.939,10.377,-36.672
50,-0.1797,0.7192,0.6680,-0.427,0.916,0.122,46.934,10.382,-36.672
60,-0.1821,0.7207,0.6646,-0.366,0.671,0.305,46.939,10.388,-36.672
70,-0.1831,0.7227,0.6616,-0.244,0.366,0.488,46.939,10.388,-36.672
80,-0.1831,0.7231,0.6611,-0.244,-0.061,0.610,46.945,10.382,-36.672
90,-0.1841,0.7246,0.6606,-0.244,-0.610,0.732,46.950,10.377,-36.672
100,-0.1865,0.7236,0.6587,-0.183,-1.221,0.732,46.956,10.366,-36.672
110,-0.1860,0.7212,0.6626,-0.122,-1.648,0.732,46.956,10.355,-36.672
120,-0.1855,0.7261,0.6689,-0.122,-2.258,0.671,46.956,10.338,-36.672
130,-0.1865,0.7266,0.6753,-0.183,-2.686,0.671,46.956,10.316,-36.672
140,-0.1831,0.7261,0.6743,-0.122,-2.869,0.610,46.950,10.294,-36.672
150,-0.1807,0.7231,0.6816,-0.061,-2.808,0.549,46.945,10.272,-36.672
160,-0.1821,0.7261,0.6870,-0.183,-2.563,0.549,46.939,10.250,-36.672
170,-0.1812,0.7241,0.6890,-0.244,-2.197,0.488,46.928,10.234,-36.672
180,-0.1787,0.7236,0.6924,-0.183,-1.648,0.549,46.917,10.217,-36.672
190,-0.1768,0.7236,0.6880,-0.061,-1.038,0.610,46.912,10.201,-36.672
200,-0.1753,0.7256,0.6846,0.183,-0.427,0.732,46.912,10.195,-36.672
210,-0.1743,0.7251,0.6826,0.427,0.183,0.793,46.917,10.184,-36.672
220,-0.1748,0.7246,0.6753,0.671,0.732,0.854,46.923,10.184,-36.672
230,-0.1729,0.7241,0.6704,0.854,1.038,0.793,46.939,10.179,-36.672
240,-0.1719,0.7227,0.6670,0.732,1.099,0.732,46.950,10.179,-36.672
250,-0.1719,0.7227,0.6631,0.549,0.793,0.610,46.961,10.179,-36.672
260,-0.1733,0.7241,0.6621,0.244,0.305,0.549,46.972,10.173,-36.672
270,-0.1748,0.7241,0.6611,0.183,-0.183,0.366,46.983,10.173,-36.672
280,-0.1743,0.7236,0.6636,0.122,-0.671,0.305,46.989,10.162,-36.672
290,-0.1738,0.7241,0.6660,0.000,-1.038,0.305,46.989,10.151,-36.672
300,-0.1724,0.7236,0.6704,0.000,-1.221,0.305,46.989,10.140,-36.672
310,-0.1743,0.7246,0.6709,-0.061,-1.343,0.244,46.989,10.129,-36.672
320,-0.1753,0.7246,0.6753,-0.244,-1.343,0.244,46.989,10.118,-36.672
330,-0.1772,0.7246,0.6743,-0.427,-1.221,0.244,46.983,10.107,-36.672
340,-0.1831,0.7256,0.6714,-0.549,-0.793,0.244,46.978,10.102,-36.672
350,-0.1958,0.7251,0.6567,-0.427,0.488,0.061,46.983,10.118,-36.672
359,-0.2012,0.7163,0.6328,0.244,2.991,-0.183,47.005,10.157,-36.672
369,-0.1997,0.7002,0.6143,0.122,6.226,-0.122,47.032,10.217,-36.672
379,-0.1826,0.6890,0.6050,-2.686,8.545,0.061,47.032,10.289,-36.672
389,-0.1543,0.7012,0.6230,-7.812,8.301,-0.122,46.978,10.333,-36.672
399,-0.1411,0.7295,0.6577,-13.550,4.639,-0.549,46.862,10.349,-36.672
410,-0.1689,0.7725,0.6821,-15.930,-1.038,-0.916,46.719,10.338,-36.672
420,-0.1851,0.8091,0.6875,-11.169,-5.310,-1.770,46.626,10.311,-36.722
430,-0.1899,0.8159,0.6860,0.488,-7.141,-1.587,46.653,10.272,-36.788
440,-0.1758,0.7817,0.6826,14.526,-8.057,0.183,46.807,10.206,-36.843
450,-0.1523,0.7354,0.6855,24.353,-10.010,2.686,47.043,10.107,-36.903
460,-0.1465,0.7187,0.6875,26.367,-13.062,5.005,47.285,9.965,-36.964
470,-0.1533,0.7021,0.6855,22.400,-14.893,6.409,47.477,9.805,-37.029
480,-0.1709,0.6890,0.6821,14.893,-13.245,6.409,47.598,9.673,-37.084
490,-0.1904,0.6782,0.6812,3.418,-7.690,5.127,47.598,9.597,-37.106
500,-0.1929,0.6812,0.6855,-9.521,-0.671,3.296,47.477,9.586,-37.090
510,-0.1904,0.6948,0.6846,-20.386,5.676,2.014,47.269,9.624,-37.035
520,-0.1812,0.7061,0.6860,-26.245,10.498,1.648,47.005,9.690,-36.947
530,-0.1660,0.7124,0.6904,-27.100,13.123,1.648,46.747,9.767,-36.837
540,-0.1587,0.7168,0.6958,-24.353,13.245,1.648,46.516,9.838,-36.727
550,-0.1582,0.7148,0.6968,-19.165,11.597,1.282,46.335,9.899,-36.634
560,-0.1655,0.7134,0.6973,-13.855,9.155,0.977,46.203,9.948,-36.557
570,-0.1704,0.7051,0.6982,-9.705,6.592,0.916,46.104,9.987,-36.502
580,-0.1885,0.7100,0.6943,-7.812,4.639,0.549,46.027,10.020,-36.464
590,-0.2153,0.7031,0.6733,-6.104,4.944,-0.427,45.978,10.085,-36.431
600,-0.2187,0.6919,0.6592,-5.005,7.568,-1.221,45.939,10.173,-36.387
610,-0.2109,0.6880,0.6538,-5.310,10.315,-1.282,45.906,10.278,-36.321
620,-0.1948,0.6953,0.6567,-6.836,11.169,-0.916,45.857,10.371,-36.244
630,-0.1836,0.7041,0.6660,-8.484,9.399,-0.732,45.791,10.443,-36.183
640,-0.1782,0.7148,0.6807,-9.338,5.981,-1.221,45.709,10.492,-36.145
650,-0.1763,0.7192,0.6919,-8.789,2.136,-2.563,45.626,10.519,-36.151
660,-0.1782,0.7183,0.6982,-7.263,-0.977,-4.456,45.549,10.541,-36.189
670,-0.1812,0.7114,0.6968,-5.493,-2.625,-6.042,45.483,10.563,-36.249
680,-0.1836,0.7056,0.6880,-3.662,-2.441,-6.470,45.439,10.591,-36.315
690,-0.1694,0.6978,0.6899,-2.075,-1.160,-5.127,45.412,10.613,-36.359
700,-0.1670,0.6938,0.6899,-1.038,-0.854,-1.892,45.396,10.613,-36.376
710,-0.1704,0.6958,0.6938,-0.061,-1.038,1.648,45.390,10.585,-36.376
720,-0.1636,0.7051,0.7080,0.854,-1.526,4.089,45.396,10.530,-36.354
730,-0.1704,0.7187,0.7187,2.197,-2.808,5.066,45.417,10.464,-36.337
740,-0.1885,0.7183,0.7119,3.845,-3.235,4.822,45.456,10.410,-36.326
750,-0.1948,0.7144,0.7041,4.333,-1.831,4.272,45.500,10.371,-36.310
760,-0.1895,0.7085,0.7031,3.540,0.610,3.662,45.538,10.355,-36.282
770,-0.1812,0.7056,0.7017,1.038,2.625,3.357,45.555,10.349,-36.238
780,-0.1719,0.7095,0.7056,-2.197,3.113,2.991,45.533,10.344,-36.194
790,-0.1836,0.7153,0.7036,-4.211,2.502,2.197,45.500,10.344,-36.161
800,-0.1870,0.7222,0.6987,-4.639,2.563,0.793,45.461,10.360,-36.134
810,-0.1860,0.7187,0.6929,-3.601,3.235,-0.305,45.434,10.388,-36.118
820,-0.1855,0.7070,0.6851,-2.563,4.211,-0.671,45.417,10.426,-36.090
830,-0.1709,0.7056,0.6914,-2.869,4.761,-0.610,45.401,10.453,-36.057
840,-0.1675,0.7090,0.6929,-3.235,3.723,-0.610,45.374,10.475,-36.035
850,-0.1763,0.7109,0.6870,-3.540,2.258,-0.610,45.346,10.492,-36.024
863,-0.1836,0.7129,0.6812,-3.357,1.465,-0.854,45.324,10.508,-36.019
870,-0.1792,0.7095,0.6821,-3.113,1.465,-1.343,45.302,10.525,-36.019
880,-0.1807,0.7070,0.6807,-3.174,1.221,-1.526,45.275,10.547,-36.019
890,-0.1787,0.7046,0.6851,-3.906,0.427,-1.587,45.242,10.558,-36.030
900,-0.1689,0.7095,0.7017,-4.883,-0.977,-1.648,45.192,10.552,-36.046
910,-0.1709,0.7197,0.7148,-4.883,-3.235,-1.953,45.137,10.536,-36.085
920,-0.1890,0.7251,0.7114,-3.052,-4.822,-2.380,45.099,10.519,-36.140
930,-0.1982,0.7163,0.7056,-0.122,-4.272,-2.869,45.093,10.514,-36.189
940,-0.1968,0.7012,0.6987,2.502,-2.563,-2.869,45.110,10.525,-36.227
949,-0.1934,0.6895,0.6875,3.357,-0.793,-2.319,45.137,10.541,-36.249
959,-0.1748,0.6870,0.6929,1.709,0.000,-1.831,45.148,10.552,-36.266
970,-0.1714,0.6958,0.7031,-0.488,-1.343,-1.465,45.137,10.541,-36.282
980,-0.1787,0.7012,0.7070,-1.587,-2.930,-1.587,45.110,10.530,-36.315
990,-0.1919,0.7041,0.7036,-1.099,-3.357,-1.892,45.093,10.525,-36.354
1000,-0.1978,0.6953,0.6938,0.671,-1.831,-2.197,45.093,10.536,-36.381
1010,-0.1890,0.6836,0.6860,1.892,0.244,-2.014,45.110,10.558,-36.398
1020,-0.1870,0.6782,0.6807,1.892,1.160,-1.465,45.126,10.580,-36.398
1030,-0.1685,0.6826,0.6997,0.610,0.916,-0.977,45.121,10.585,-36.398
1040,-0.1665,0.7051,0.7192,-0.732,-1.526,-0.854,45.104,10.569,-36.414
1050,-0.1880,0.7158,0.7227,0.427,-4.150,-1.221,45.099,10.547,-36.453
1060,-0.2080,0.7080,0.7065,3.540,-4.028,-1.953,45.126,10.547,-36.497
1070,-0.2153,0.6919,0.6880,6.042,-1.099,-2.563,45.181,10.574,-36.524
1079,-0.2070,0.6758,0.6714,6.165,2.625,-2.563,45.242,10.629,-36.524
1090,-0.1938,0.6714,0.6636,3.723,4.700,-2.319,45.280,10.684,-36.508
1100,-0.1802,0.6802,0.6694,0.061,4.089,-1.648,45.291,10.728,-36.486
1110,-0.1714,0.6973,0.6890,-2.747,0.977,-0.977,45.264,10.734,-36.486
1120,-0.1895,0.7080,0.6865,-2.625,-2.991,-0.671,45.236,10.717,-36.513
1129,-0.2007,0.7012,0.6768,-0.366,-4.517,-0.916,45.236,10.701,-36.552
1139,-0.1934,0.6885,0.6777,1.526,-4.028,-0.854,45.247,10.684,-36.590
1149,-0.1904,0.6836,0.6758,1.831,-3.113,-0.183,45.258,10.668,-36.612
1160,-0.1782,0.6797,0.6831,0.305,-2.502,0.671,45.258,10.646,-36.623
1170,-0.1816,0.6924,0.6934,-1.526,-3.052,1.282,45.236,10.613,-36.639
1180,-0.1899,0.6978,0.6948,-1.709,-3.357,1.404,45.214,10.585,-36.650
1190,-0.1855,0.6978,0.7017,-0.854,-3.052,1.282,45.198,10.552,-36.667
1200,-0.1777,0.7007,0.7109,0.305,-3.235,1.465,45.192,10.514,-36.678
1210,-0.1758,0.7046,0.7173,1.526,-4.028,1.648,45.198,10.470,-36.694
1220,-0.1743,0.7095,0.7227,2.319,-5.066,1.953,45.209,10.415,-36.716
1230,-0.1831,0.7173,0.7231,3.235,-5.249,2.075,45.236,10.360,-36.744
1239,-0.1924,0.7158,0.7134,4.089,-3.662,1.953,45.269,10.327,-36.755
1250,-0.1968,0.7070,0.6973,4.761,-1.221,1.831,45.319,10.316,-36.749
1259,-0.1953,0.7021,0.6841,4.700,1.038,1.770,45.374,10.316,-36.727
1269,-0.1763,0.7026,0.6851,3.967,2.075,1.587,45.423,10.322,-36.705
1280,-0.1631,0.7085,0.6963,3.052,0.488,1.709,45.456,10.300,-36.689
1290,-0.1582,0.7192,0.7119,2.319,-2.625,1.953,45.478,10.256,-36.694
1299,-0.1650,0.7305,0.7192,2.625,-5.493,1.709,45.500,10.195,-36.722
1310,-0.1855,0.7310,0.7129,4.639,-6.042,0.854,45.538,10.146,-36.760
1320,-0.1982,0.7158,0.6958,6.592,-3.174,0.244,45.604,10.135,-36.777
1329,-0.2080,0.7002,0.6689,6.592,1.770,0.305,45.676,10.162,-36.766
1339,-0.1890,0.6870,0.6504,4.211,6.531,0.610,45.736,10.217,-36.711
1349,-0.1626,0.6938,0.6572,-0.183,8.057,1.587,45.758,10.256,-36.639
1359,-0.1465,0.7124,0.6743,-4.028,5.127,2.563,45.736,10.256,-36.584
1369,-0.1479,0.7314,0.6963,-5.005,-0.244,2.625,45.692,10.217,-36.568
1379,-0.1611,0.7383,0.7095,-2.991,-5.005,1.587,45.665,10.157,-36.595
1389,-0.1851,0.7280,0.7007,0.732,-6.836,0.366,45.670,10.107,-36.639
1399,-0.2031,0.7056,0.6807,3.662,-4.456,-0.244,45.703,10.096,-36.678
1409,-0.2070,0.6841,0.6587,3.174,0.732,0.061,45.736,10.124,-36.672
1419,-0.1982,0.6719,0.6372,-0.854,5.798,0.977,45.747,10.173,-36.623
1430,-0.1704,0.6714,0.6426,-6.958,8.423,2.197,45.698,10.217,-36.546
1439,-0.1455,0.7007,0.6753,-12.939,6.348,3.113,45.582,10.223,-36.475
1449,-0.1494,0.7290,0.6992,-14.709,0.427,2.930,45.450,10.190,-36.453
1459,-0.1689,0.7349,0.7104,-11.414,-5.188,1.709,45.335,10.135,-36.480
1469,-0.1885,0.7246,0.7144,-5.676,-7.751,0.183,45.269,10.080,-36.530
1479,-0.2051,0.7012,0.6929,0.671,-6.470,-0.793,45.269,10.058,-36.584
1489,-0.1904,0.6782,0.6777,3.967,-2.441,-0.549,45.302,10.058,-36.606
1499,-0.1665,0.6768,0.6875,3.723,0.061,1.099,45.335,10.047,-36.595
1509,-0.1450,0.6826,0.7100,1.282,-0.977,2.930,45.335,10.003,-36.584
1519,-0.1504,0.7100,0.7295,0.977,-5.859,3.357,45.330,9.921,-36.601
1529,-0.1733,0.7158,0.7388,3.479,-9.949,2.747,45.341,9.827,-36.656
1539,-0.1909,0.7129,0.7354,6.470,-10.437,1.953,45.385,9.750,-36.716
1549,-0.2026,0.6997,0.7178,8.667,-7.568,1.282,45.450,9.706,-36.760
1559,-0.2021,0.6782,0.6875,8.423,-2.319,1.709,45.522,9.701,-36.766
1569,-0.1943,0.6704,0.6724,5.493,2.441,3.052,45.577,9.712,-36.727
1579,-0.1733,0.6763,0.6680,1.221,4.639,4.456,45.599,9.717,-36.661
1589,-0.1660,0.6841,0.6724,-1.465,3.479,5.310,45.593,9.706,-36.601
1599,-0.1558,0.6943,0.6851,-2.075,0.366,5.432,45.577,9.668,-36.557
1609,-0.1602,0.7061,0.6943,-0.427,-3.296,5.249,45.577,9.602,-36.546
1619,-0.1660,0.7002,0.6895,2.380,-5.737,4.944,45.599,9.525,-36.552
1629,-0.1743,0.6924,0.6870,3.662,-5.737,5.066,45.626,9.454,-36.557
1639,-0.1763,0.6875,0.6753,3.235,-3.479,5.371,45.659,9.404,-36.541
1649,-0.1631,0.6909,0.6772,1.221,-0.854,5.859,45.676,9.355,-36.508
1659,-0.1445,0.7061,0.6904,-0.916,0.122,6.653,45.676,9.300,-36.458
1669,-0.1367,0.7290,0.7051,-1.648,-1.160,7.202,45.670,9.223,-36.420
1679,-0.1484,0.7437,0.7119,-0.183,-3.418,7.141,45.676,9.141,-36.392
1689,-0.1641,0.7495,0.7041,2.502,-4.028,6.409,45.714,9.069,-36.376
1699,-0.1792,0.7407,0.6787,4.944,-2.380,5.554,45.786,9.020,-36.354
1709,-0.1748,0.7231,0.6562,5.310,0.793,4.822,45.862,9.003,-36.315
1719,-0.1455,0.7178,0.6670,2.808,2.625,4.822,45.912,8.981,-36.260
1729,-0.1230,0.7368,0.6885,-0.916,0.305,5.371,45.923,8.926,-36.222
1739,-0.1309,0.7520,0.7007,-1.770,-4.517,5.188,45.917,8.844,-36.216
1749,-0.1362,0.7583,0.7202,-0.183,-8.118,4.211,45.912,8.740,-36.244
1759,-0.1479,0.7544,0.7329,2.808,-9.644,2.869,45.934,8.646,-36.293
1769,-0.1616,0.7319,0.7217,5.127,-8.545,1.831,45.972,8.580,-36.343
1779,-0.1748,0.7148,0.6987,4.456,-4.639,1.465,46.011,8.547,-36.370
1789,-0.1665,0.7031,0.6821,1.282,0.854,1.587,46.022,8.553,-36.354
1799,-0.1465,0.6978,0.6777,-3.845,5.127,2.197,45.989,8.575,-36.299
1809,-0.1235,0.7134,0.6943,-9.277,6.042,2.625,45.906,8.580,-36.238
1819,-0.1133,0.7427,0.7153,-11.597,3.357,2.319,45.797,8.564,-36.194
1829,-0.1196,0.7573,0.7246,-8.789,-0.916,1.404,45.720,8.531,-36.194
1839,-0.1470,0.7490,0.7095,-2.258,-3.296,0.305,45.698,8.498,-36.216
1849,-0.1646,0.7217,0.6885,3.662,-1.831,-0.427,45.742,8.498,-36.233
1859,-0.1631,0.6948,0.6611,5.676,2.014,-0.366,45.807,8.525,-36.216
1869,-0.1519,0.6807,0.6401,2.869,5.554,0.427,45.851,8.569,-36.172
1879,-0.1372,0.6895,0.6411,-2.991,6.592,1.465,45.840,8.602,-36.118
1889,-0.1216,0.7129,0.6592,-8.179,4.517,1.770,45.780,8.608,-36.074
1899,-0.1177,0.7329,0.6851,-10.376,-0.122,1.343,45.692,8.575,-36.063
1909,-0.1177,0.7476,0.7124,-9.277,-5.310,0.305,45.599,8.514,-36.101
1919,-0.1221,0.7495,0.7393,-5.859,-9.644,-0.854,45.527,8.438,-36.172
1930,-0.1509,0.7407,0.7427,-1.343,-11.902,-1.892,45.494,8.366,-36.277
1939,-0.1689,0.7295,0.7310,2.808,-9.766,-2.747,45.505,8.328,-36.365
1949,-0.1660,0.7085,0.7217,5.920,-4.333,-2.808,45.544,8.328,-36.414
1959,-0.1675,0.6870,0.7051,6.775,1.648,-1.770,45.599,8.361,-36.414
1969,-0.1597,0.6768,0.6904,4.333,6.714,-0.488,45.637,8.421,-36.370
1979,-0.1406,0.6943,0.6953,0.000,8.911,0.366,45.637,8.481,-36.304
1989,-0.1323,0.7178,0.7017,-3.418,7.568,0.610,45.615,8.520,-36.244
1999,-0.1357,0.7295,0.7051,-4.456,4.639,0.549,45.577,8.536,-36.205
2009,-0.1504,0.7314,0.7051,-3.174,2.258,-0.366,45.555,8.553,-36.194
2019,-0.1562,0.7236,0.6963,-0.671,1.404,-1.831,45.555,8.580,-36.194
2029,-0.1689,0.7056,0.6807,1.709,1.831,-2.991,45.571,8.624,-36.205
2039,-0.1802,0.6899,0.6538,2.930,3.662,-3.479,45.615,8.696,-36.200
2049,-0.1685,0.6870,0.6548,2.441,6.226,-2.991,45.648,8.773,-36.178
2059,-0.1343,0.7056,0.6689,2.258,6.470,-2.014,45.681,8.822,-36.145
2069,-0.1133,0.7227,0.6943,2.869,2.808,-0.793,45.720,8.828,-36.134
2079,-0.1011,0.7500,0.7393,4.517,-3.967,0.000,45.758,8.767,-36.161
2089,-0.1265,0.7705,0.7627,8.728,-11.719,-1.160,45.824,8.668,-36.255
2099,-0.1729,0.7524,0.7456,15.991,-15.076,-3.540,45.956,8.597,-36.387
2109,-0.2080,0.7007,0.7031,21.057,-10.742,-5.249,46.137,8.591,-36.502
2119,-0.2222,0.6582,0.6553,19.653,-0.977,-5.493,46.313,8.674,-36.546
2129,-0.1787,0.6416,0.6411,10.315,8.545,-4.272,46.412,8.789,-36.513
2139,-0.1392,0.6660,0.6587,-2.441,11.597,-1.953,46.384,8.877,-36.442
2149,-0.1240,0.7158,0.6875,-11.780,7.568,-0.183,46.274,8.915,-36.392
2159,-0.1392,0.7515,0.7056,-12.634,0.732,-0.244,46.154,8.910,-36.387
2169,-0.1621,0.7549,0.7104,-5.493,-4.211,-1.526,46.099,8.888,-36.425
2179,-0.1831,0.7271,0.6890,3.662,-4.700,-2.319,46.132,8.888,-36.480
2189,-0.1860,0.6899,0.6611,8.911,-1.465,-2.319,46.219,8.915,-36.508
2199,-0.1909,0.6650,0.6338,7.568,2.747,-1.526,46.296,8.976,-36.497
2209,-0.1523,0.6689,0.6421,1.038,6.287,-0.427,46.313,9.025,-36.453
2219,-0.1084,0.7114,0.6890,-6.897,5.432,0.549,46.247,9.031,-36.409
2229,-0.1211,0.7529,0.7090,-8.728,0.427,0.854,46.165,9.003,-36.398
2239,-0.1582,0.7593,0.7065,-3.418,-3.662,0.183,46.137,8.976,-36.425
2249,-0.1792,0.7378,0.6895,4.761,-3.540,-0.977,46.187,8.965,-36.458
2259,-0.1836,0.7012,0.6597,10.132,-0.549,-1.526,46.291,8.992,-36.475
2269,-0.1787,0.6733,0.6382,8.728,2.625,-0.916,46.379,9.036,-36.458
2279,-0.1523,0.6694,0.6475,1.404,4.028,0.549,46.395,9.064,-36.425
2289,-0.1294,0.6973,0.6724,-7.629,2.136,1.709,46.324,9.047,-36.398
2299,-0.1426,0.7319,0.6909,-12.268,-1.648,1.770,46.203,9.014,-36.398
2309,-0.1567,0.7422,0.6978,-10.925,-4.211,0.916,46.099,8.976,-36.425
2319,-0.1631,0.7383,0.7065,-5.737,-4.578,0.366,46.038,8.943,-36.453
2329,-0.1665,0.7231,0.7012,-0.366,-3.662,0.305,46.027,8.921,-36.480
2339,-0.1719,0.7104,0.6880,2.258,-1.892,0.549,46.049,8.915,-36.491
2349,-0.1572,0.7090,0.6938,1.709,0.305,0.854,46.060,8.910,-36.480
2359,-0.1396,0.7217,0.7114,-0.671,1.099,1.160,46.049,8.899,-36.464
2369,-0.1372,0.7378,0.7256,-1.892,-0.244,1.221,46.027,8.877,-36.458
2379,-0.1567,0.7422,0.7178,-0.183,-1.648,0.671,46.022,8.855,-36.464
2389,-0.1543,0.7339,0.7217,3.357,-1.099,-0.244,46.049,8.849,-36.475
2399,-0.1616,0.7324,0.7158,6.287,0.305,-0.854,46.110,8.855,-36.480
2409,-0.1636,0.7227,0.7021,7.996,2.136,-1.221,46.187,8.882,-36.469
2419,-0.1655,0.7090,0.6914,8.240,3.662,-1.526,46.263,8.926,-36.453
2430,-0.1743,0.6943,0.6729,7.996,4.700,-1.709,46.346,8.981,-36.431
2439,-0.1748,0.6831,0.6548,6.714,5.493,-1.221,46.412,9.047,-36.403
2449,-0.1489,0.6846,0.6611,4.456,5.371,-0.183,46.461,9.080,-36.365
2459,-0.1270,0.7114,0.6797,1.831,2.625,1.404,46.483,9.075,-36.332
2469,-0.1636,0.7310,0.6650,2.319,-1.038,2.563,46.516,9.047,-36.326
2479,-0.1772,0.7295,0.6504,4.395,-0.977,2.258,46.582,9.042,-36.315
2489,-0.1782,0.7231,0.6377,4.700,2.075,1.526,46.648,9.058,-36.288
2499,-0.1797,0.7061,0.6182,2.502,5.310,1.099,46.703,9.102,-36.244
2509,-0.1406,0.7109,0.6426,-3.418,5.981,1.221,46.692,9.130,-36.189
2519,-0.1299,0.7402,0.6748,-7.935,1.404,1.221,46.626,9.108,-36.172
2529,-0.1431,0.7529,0.6909,-7.080,-4.761,0.610,46.560,9.064,-36.200
2539,-0.1655,0.7490,0.7007,-2.747,-8.301,-0.183,46.522,9.009,-36.266
2549,-0.1748,0.7266,0.6919,2.197,-7.385,-1.038,46.533,8.976,-36.326
2559,-0.1743,0.6982,0.6768,3.296,-3.723,-0.977,46.555,8.965,-36.359
2569,-0.1763,0.6797,0.6646,-0.183,0.305,0.061,46.544,8.987,-36.359
2579,-0.1587,0.6782,0.6670,-7.019,3.418,0.916,46.472,9.003,-36.326
2589,-0.1318,0.7065,0.7002,-13.855,3.967,1.282,46.329,9.009,-36.288
2599,-0.1133,0.7480,0.7383,-16.357,1.038,0.977,46.159,8.981,-36.271
2609,-0.1362,0.7666,0.7456,-11.108,-3.235,0.244,46.038,8.937,-36.293
2619,-0.1592,0.7598,0.7393,-0.793,-4.456,-0.610,46.022,8.910,-36.332
2629,-0.1694,0.7402,0.7285,9.094,-1.831,-1.099,46.104,8.910,-36.354
2639,-0.1787,0.7173,0.6963,15.442,2.563,-1.282,46.258,8.948,-36.343
2649,-0.1821,0.6870,0.6631,16.174,7.202,-1.282,46.423,9.025,-36.299
2659,-0.1748,0.6812,0.6396,11.108,11.047,-0.732,46.549,9.119,-36.222
2669,-0.1621,0.6929,0.6333,3.296,12.634,-0.244,46.604,9.218,-36.134
2679,-0.1484,0.7173,0.6436,-3.540,11.169,0.244,46.599,9.283,-36.046
2689,-0.1279,0.7456,0.6689,-6.348,6.531,0.183,46.560,9.305,-35.997
2699,-0.1382,0.7651,0.6855,-2.869,-0.061,-0.671,46.544,9.294,-36.002
2709,-0.1626,0.7568,0.6812,4.822,-5.127,-1.709,46.599,9.272,-36.052
2719,-0.1719,0.7349,0.6772,12.451,-6.836,-2.441,46.719,9.245,-36.123
2729,-0.1855,0.7046,0.6577,17.334,-6.165,-2.319,46.884,9.240,-36.183
2739,-0.1885,0.6641,0.6377,17.151,-3.235,-1.465,47.038,9.250,-36.216
2749,-0.1689,0.6597,0.6411,9.521,0.122,0.000,47.120,9.261,-36.216
2759,-0.1499,0.6895,0.6616,-1.099,1.343,1.587,47.104,9.256,-36.194
2769,-0.1416,0.7231,0.6914,-9.583,-0.244,2.197,47.005,9.229,-36.183
2779,-0.1509,0.7505,0.7085,-12.329,-3.235,1.648,46.879,9.185,-36.194
2789,-0.1729,0.7529,0.7041,-9.155,-4.883,0.549,46.780,9.152,-36.227
2799,-0.1782,0.7363,0.6860,-3.235,-3.601,-0.183,46.747,9.135,-36.255
2809,-0.1685,0.7192,0.6724,1.099,-0.793,0.366,46.758,9.135,-36.260
2819,-0.1577,0.7119,0.6611,1.282,1.526,1.831,46.780,9.130,-36.233
2829,-0.1396,0.7231,0.6743,-1.709,2.197,2.930,46.769,9.113,-36.200
2839,-0.1235,0.7529,0.7080,-5.493,0.305,2.563,46.719,9.075,-36.178
2849,-0.1357,0.7695,0.7271,-6.042,-2.869,0.916,46.653,9.031,-36.194
2864,-0.1660,0.7646,0.7217,-3.235,-4.517,-1.282,46.615,9.009,-36.233
2869,-0.1802,0.7456,0.7051,1.099,-2.930,-3.052,46.620,9.020,-36.277
2879,-0.1855,0.7119,0.6782,4.028,0.732,-3.540,46.653,9.069,-36.299
2889,-0.1675,0.6982,0.6631,3.418,4.700,-2.380,46.692,9.124,-36.277
2899,-0.1465,0.7061,0.6641,0.183,6.287,-0.366,46.697,9.163,-36.233
2909,-0.1377,0.7266,0.6758,-2.136,4.822,1.099,46.692,9.179,-36.189
2919,-0.1367,0.7451,0.6948,-2.136,1.648,1.221,46.675,9.163,-36.172
2930,-0.1528,0.7480,0.7021,0.793,-1.648,0.122,46.681,9.146,-36.183
2939,-0.1714,0.7354,0.6919,4.700,-2.991,-1.343,46.725,9.141,-36.211
2949,-0.1860,0.7085,0.6689,7.019,-1.526,-2.136,46.791,9.163,-36.238
2959,-0.1899,0.6870,0.6436,5.798,2.136,-1.831,46.846,9.212,-36.238
2969,-0.1812,0.6802,0.6260,0.916,5.981,-0.671,46.868,9.278,-36.194
2979,-0.1606,0.6890,0.6260,-5.249,7.812,0.732,46.835,9.327,-36.134
2989,-0.1304,0.7134,0.6484,-10.315,6.042,1.709,46.752,9.338,-36.079
2999,-0.1357,0.7383,0.6714,-11.169,0.671,1.831,46.653,9.316,-36.057
3009,-0.1504,0.7417,0.6812,-7.446,-4.578,1.099,46.582,9.267,-36.085
3019,-0.1646,0.7310,0.6875,-2.502,-7.141,0.244,46.549,9.218,-36.134
3029,-0.1768,0.7192,0.6836,0.610,-6.348,-0.244,46.549,9.185,-36.183
3039,-0.1812,0.7002,0.6743,0.305,-3.235,-0.122,46.544,9.179,-36.211
3049,-0.1743,0.6934,0.6709,-3.357,0.305,0.488,46.505,9.190,-36.205
3059,-0.1416,0.7100,0.6963,-8.728,2.441,1.221,46.412,9.185,-36.178
3069,-0.1274,0.7476,0.7256,-11.475,1.038,1.770,46.296,9.157,-36.156
3079,-0.1240,0.7754,0.7476,-8.789,-2.747,1.282,46.203,9.102,-36.167
3089,-0.1440,0.7866,0.7554,-1.160,-6.714,0.122,46.187,9.042,-36.216
3099,-0.1694,0.7759,0.7388,9.399,-7.874,-1.831,46.269,8.998,-36.288
3109,-0.1836,0.7300,0.7051,18.066,-5.249,-2.991,46.439,8.998,-36.348
3119,-0.1904,0.6875,0.6719,19.653,-0.061,-2.502,46.620,9.036,-36.365
3129,-0.1875,0.6641,0.6440,12.573,5.371,-1.160,46.741,9.108,-36.332
3139,-0.1836,0.6714,0.6274,0.854,9.521,0.061,46.763,9.190,-36.260
3149,-0.1714,0.6807,0.6265,-11.536,12.268,0.549,46.670,9.283,-36.167
3159,-0.1562,0.7100,0.6392,-21.179,12.512,0.671,46.489,9.366,-36.074
3169,-0.1543,0.7334,0.6440,-24.658,10.376,-0.122,46.280,9.432,-35.997
3179,-0.1626,0.7319,0.6396,-21.545,7.141,-1.282,46.099,9.492,-35.953
3189,-0.1675,0.7119,0.6323,-14.404,4.395,-2.136,45.983,9.542,-35.936
3199,-0.1680,0.6938,0.6250,-7.263,2.625,-1.953,45.934,9.580,-35.931
3209,-0.1528,0.6855,0.6348,-3.113,1.465,-1.221,45.912,9.597,-35.925
3219,-0.1328,0.6963,0.6650,-2.075,-1.282,-0.183,45.895,9.569,-35.936
3229,-0.1333,0.7061,0.7007,-2.075,-5.920,0.854,45.862,9.503,-35.975
3239,-0.1548,0.7212,0.7256,-2.136,-10.376,1.099,45.818,9.415,-36.041
3249,-0.1772,0.7314,0.7397,-1.038,-11.963,0.061,45.786,9.338,-36.129
3259,-0.1816,0.7246,0.7427,0.916,-10.376,-1.160,45.764,9.278,-36.211
3269,-0.1753,0.7163,0.7402,2.197,-7.385,-1.282,45.758,9.240,-36.277
3279,-0.1660,0.7222,0.7412,1.587,-3.174,0.732,45.758,9.212,-36.293
3289,-0.1636,0.7334,0.7402,1.221,-2.197,1.160,45.758,9.185,-36.304
3299,-0.1665,0.7417,0.7378,1.648,-1.526,0.732,45.769,9.168,-36.310
3309,-0.1777,0.7363,0.7183,2.991,-0.366,-0.122,45.797,9.174,-36.310
3319,-0.1816,0.7227,0.6948,3.906,1.953,-1.038,45.840,9.207,-36.304
3329,-0.1724,0.7085,0.6782,3.113,4.395,-1.221,45.879,9.250,-36.282
3339,-0.1606,0.7065,0.6689,0.916,5.798,-0.977,45.901,9.300,-36.244
3349,-0.1450,0.7119,0.6704,-1.526,5.615,-0.916,45.895,9.338,-36.211
3359,-0.1392,0.7236,0.6768,-2.625,3.845,-0.916,45.884,9.355,-36.189
3369,-0.1450,0.7271,0.6772,-1.709,1.709,-1.160,45.879,9.366,-36.183
3379,-0.1631,0.7187,0.6704,0.549,0.488,-1.770,45.895,9.382,-36.194
3389,-0.1650,0.7002,0.6611,1.892,1.526,-2.075,45.923,9.410,-36.200
3399,-0.1567,0.6958,0.6636,0.305,3.174,-1.709,45.928,9.443,-36.189
3409,-0.1611,0.7007,0.6597,-2.258,3.845,-1.404,45.917,9.481,-36.167
3419,-0.1533,0.7051,0.6660,-4.883,3.662,-1.099,45.879,9.509,-36.151
3430,-0.1445,0.7183,0.6846,-6.226,2.197,-0.732,45.824,9.514,-36.140
3439,-0.1558,0.7251,0.6860,-4.944,-0.549,-0.793,45.780,9.509,-36.151
3449,-0.1675,0.7212,0.6875,-1.953,-2.930,-1.099,45.764,9.498,-36.178
3459,-0.1719,0.7085,0.6875,0.732,-4.089,-1.404,45.764,9.487,-36.216
3469,-0.1738,0.6992,0.6855,2.014,-4.272,-1.526,45.775,9.470,-36.260
3479,-0.1748,0.6997,0.6943,1.526,-3.906,-1.343,45.780,9.459,-36.299
3489,-0.1655,0.7065,0.7070,0.061,-3.723,-0.916,45.769,9.443,-36.332
3499,-0.1719,0.7158,0.7095,-0.549,-3.784,-0.671,45.753,9.421,-36.365
3509,-0.1772,0.7207,0.7119,-0.183,-3.113,-0.916,45.742,9.410,-36.392
3519,-0.1685,0.7158,0.7163,0.549,-2.075,-1.160,45.736,9.404,-36.414
3529,-0.1748,0.7134,0.7080,1.221,-1.099,-1.099,45.742,9.410,-36.431
3539,-0.1768,0.7090,0.7012,1.343,0.183,-1.160,45.747,9.426,-36.436
3549,-0.1772,0.7012,0.6938,0.793,1.831,-0.977,45.753,9.454,-36.431
3559,-0.1670,0.7012,0.6934,-0.488,3.174,-0.610,45.747,9.481,-36.414
3569,-0.1602,0.7119,0.6973,-1.404,3.235,-0.366,45.736,9.503,-36.392
3579,-0.1616,0.7163,0.6987,-0.977,2.258,-0.244,45.725,9.514,-36.376
3589,-0.1685,0.7144,0.6958,0.549,1.343,-0.244,45.736,9.531,-36.370
3599,-0.1846,0.7065,0.6772,2.319,1.465,-0.671,45.764,9.553,-36.365
3609,-0.1914,0.6904,0.6499,3.113,3.540,-1.038,45.807,9.608,-36.343
3619,-0.1982,0.6758,0.6206,1.892,6.104,-0.793,45.846,9.679,-36.304
3629,-0.1963,0.6797,0.5903,0.549,8.484,-0.549,45.895,9.767,-36.249
3639,-0.1548,0.6846,0.5903,-0.305,8.484,-0.305,45.934,9.827,-36.189
3649,-0.1255,0.7002,0.6230,-0.610,2.869,0.671,45.956,9.822,-36.161
3659,-0.1309,0.7202,0.6519,0.061,-6.653,2.014,45.972,9.739,-36.194
3669,-0.1538,0.7241,0.6733,1.953,-15.259,2.197,45.983,9.608,-36.293
3679,-0.1680,0.7134,0.6924,3.723,-19.348,1.221,46.000,9.465,-36.425
3689,-0.1685,0.7026,0.7070,3.174,-18.616,0.488,45.994,9.338,-36.557
3699,-0.1650,0.7056,0.7192,-0.061,-15.259,0.366,45.961,9.229,-36.667
3709,-0.1567,0.7124,0.7295,-3.906,-11.597,-0.122,45.895,9.146,-36.749
3719,-0.1494,0.7114,0.7456,-6.958,-8.179,-0.305,45.791,9.080,-36.815
3729,-0.1475,0.7241,0.7539,-8.667,-5.554,0.427,45.681,9.031,-36.848
3739,-0.1450,0.7397,0.7627,-8.789,-4.028,0.610,45.577,8.987,-36.876
3749,-0.1553,0.7422,0.7622,-6.104,-3.540,-0.122,45.500,8.954,-36.903
3759,-0.1675,0.7310,0.7476,-1.831,-2.625,-0.854,45.461,8.943,-36.925
3769,-0.1699,0.7202,0.7285,1.587,-0.732,-1.099,45.472,8.954,-36.942
3779,-0.1670,0.7036,0.7100,2.747,1.465,-0.610,45.489,8.970,-36.936
3789,-0.1631,0.6978,0.6943,1.526,3.113,0.183,45.505,8.998,-36.909
3799,-0.1558,0.7031,0.6909,-0.854,3.967,0.427,45.500,9.020,-36.881
3809,-0.1533,0.7114,0.6914,-2.869,3.662,0.061,45.483,9.042,-36.854
3819,-0.1548,0.7173,0.6875,-3.113,2.991,-0.488,45.461,9.064,-36.832
3829,-0.1499,0.7183,0.6904,-2.380,2.380,-0.671,45.445,9.080,-36.821
3839,-0.1582,0.7109,0.6807,-0.732,1.831,-0.610,45.445,9.097,-36.810
3849,-0.1543,0.7036,0.6792,0.244,1.953,-0.549,45.456,9.113,-36.804
3859,-0.1528,0.7080,0.6797,0.305,1.587,-0.549,45.467,9.130,-36.793
3869,-0.1587,0.7065,0.6704,1.038,0.977,-0.671,45.489,9.141,-36.793
3879,-0.1558,0.7041,0.6694,1.709,0.427,-0.488,45.516,9.146,-36.793
3889,-0.1465,0.7031,0.6802,1.709,-0.610,0.122,45.538,9.135,-36.799
3899,-0.1426,0.7158,0.6909,1.282,-2.747,0.610,45.549,9.102,-36.810
3909,-0.1562,0.7241,0.7012,1.038,-5.005,0.305,45.560,9.064,-36.848
3919,-0.1704,0.7222,0.6963,1.587,-5.493,-0.793,45.571,9.036,-36.892
3930,-0.1812,0.7119,0.6860,2.136,-3.784,-1.648,45.593,9.036,-36.931
3939,-0.1826,0.6978,0.6709,1.831,-0.671,-1.709,45.615,9.058,-36.947
3949,-0.1636,0.6948,0.6709,-0.061,1.587,-1.282,45.621,9.086,-36.947
3959,-0.1499,0.6997,0.6816,-2.136,0.610,-0.610,45.599,9.091,-36.947
3969,-0.1504,0.7114,0.6938,-2.563,-2.686,-0.122,45.571,9.064,-36.964
3979,-0.1528,0.7197,0.7104,-1.221,-5.676,-0.122,45.549,9.025,-37.007
3989,-0.1646,0.7134,0.7158,1.526,-6.714,-0.427,45.549,8.981,-37.057
3999,-0.1836,0.6958,0.7002,3.357,-4.883,-0.793,45.571,8.970,-37.101
4009,-0.1768,0.6792,0.6870,2.502,-0.549,-0.732,45.582,8.987,-37.106
4019,-0.1538,0.6812,0.6899,-1.099,2.930,0.061,45.566,9.003,-37.084
4029,-0.1470,0.6997,0.6914,-4.272,3.357,0.977,45.527,9.014,-37.057
4039,-0.1377,0.7148,0.7031,-5.432,1.587,1.648,45.478,9.003,-37.035
4049,-0.1421,0.7246,0.7178,-3.845,-1.282,1.831,45.439,8.970,-37.029
4059,-0.1606,0.7207,0.7124,-0.122,-3.174,1.160,45.434,8.943,-37.046
4069,-0.1733,0.7017,0.7002,2.441,-2.502,0.366,45.450,8.932,-37.057
4079,-0.1733,0.6929,0.6948,1.831,-0.122,0.488,45.461,8.937,-37.057
4089,-0.1641,0.6948,0.6909,-1.526,2.258,1.160,45.450,8.948,-37.029
4099,-0.1475,0.7104,0.7061,-5.249,2.991,1.770,45.401,8.954,-36.996
4109,-0.1470,0.7275,0.7183,-6.348,1.465,1.587,45.341,8.943,-36.974
4119,-0.1470,0.7314,0.7271,-4.211,-0.610,0.793,45.297,8.926,-36.974
4129,-0.1533,0.7300,0.7329,-0.427,-2.075,0.183,45.286,8.904,-36.985
4139,-0.1670,0.7144,0.7163,3.723,-1.709,-0.488,45.319,8.899,-37.002
4149,-0.1592,0.7051,0.7036,5.249,0.549,-0.610,45.368,8.910,-37.002
4159,-0.1582,0.7012,0.6948,4.395,2.930,-0.183,45.412,8.937,-36.985
4169,-0.1514,0.7036,0.6870,2.441,4.333,0.183,45.445,8.965,-36.953
4179,-0.1465,0.7114,0.6870,0.427,4.150,0.305,45.461,8.981,-36.920
4189,-0.1504,0.7158,0.6821,0.122,2.808,0.061,45.472,8.998,-36.898
4199,-0.1528,0.7144,0.6782,1.221,1.282,-0.488,45.494,9.009,-36.892
4209,-0.1553,0.7075,0.6743,2.991,0.061,-0.854,45.533,9.014,-36.898
4219,-0.1650,0.7021,0.6655,4.211,-0.244,-0.732,45.582,9.025,-36.903
4229,-0.1577,0.6982,0.6665,3.967,0.305,-0.244,45.632,9.031,-36.903
4239,-0.1523,0.7012,0.6724,2.380,0.244,0.305,45.659,9.031,-36.903
4249,-0.1602,0.7080,0.6704,1.160,-0.427,0.366,45.681,9.031,-36.903
4259,-0.1567,0.7144,0.6855,0.916,-1.099,-0.366,45.692,9.025,-36.914
4269,-0.1538,0.7241,0.7017,2.991,-2.991,-1.465,45.720,9.009,-36.947
4279,-0.1704,0.7134,0.6958,8.240,-5.310,-2.136,45.791,8.992,-36.996
4289,-0.1729,0.6880,0.6909,13.000,-6.287,-1.343,45.906,8.970,-37.051
4299,-0.1523,0.6753,0.7021,13.794,-6.592,0.488,46.016,8.921,-37.095
4309,-0.1597,0.6763,0.7021,10.376,-7.324,2.502,46.088,8.855,-37.134
4319,-0.1782,0.6768,0.6938,4.883,-6.348,3.418,46.115,8.806,-37.156
4329,-0.1709,0.6851,0.6973,-1.831,-2.991,3.357,46.082,8.773,-37.156
4339,-0.1738,0.6929,0.6855,-7.080,0.854,3.052,46.011,8.767,-37.128
4349,-0.1655,0.6914,0.6738,-10.986,4.211,3.296,45.906,8.784,-37.073
4359,-0.1509,0.7036,0.6772,-14.160,5.798,4.150,45.780,8.795,-37.002
4369,-0.1367,0.7207,0.6855,-14.954,4.822,4.822,45.648,8.784,-36.931
4379,-0.1294,0.7378,0.6997,-12.634,2.075,4.700,45.538,8.751,-36.887
4389,-0.1348,0.7461,0.7139,-8.362,-0.977,4.089,45.467,8.701,-36.865
4399,-0.1553,0.7397,0.7046,-3.357,-2.197,3.296,45.445,8.663,-36.854
4409,-0.1597,0.7231,0.6992,0.305,-0.732,2.380,45.450,8.646,-36.843
4419,-0.1509,0.7104,0.6978,0.610,1.953,2.319,45.461,8.641,-36.810
4430,-0.1543,0.7061,0.6870,-1.709,3.906,2.686,45.456,8.652,-36.766
4439,-0.1396,0.7187,0.6953,-5.798,4.700,2.869,45.412,8.657,-36.711
4449,-0.1338,0.7402,0.7061,-8.118,3.357,2.258,45.346,8.652,-36.672
4459,-0.1299,0.7480,0.7134,-6.348,1.160,1.282,45.297,8.635,-36.650
4469,-0.1343,0.7471,0.7192,-2.502,-0.977,0.366,45.280,8.613,-36.656
4479,-0.1567,0.7319,0.7021,2.502,-1.892,-0.671,45.313,8.608,-36.678
4489,-0.1611,0.7090,0.6841,6.042,-0.732,-1.221,45.374,8.619,-36.689
4499,-0.1621,0.6890,0.6704,6.226,1.160,-0.916,45.439,8.641,-36.689
4509,-0.1455,0.6821,0.6777,3.174,2.014,-0.427,45.472,8.657,-36.678
4519,-0.1284,0.7036,0.7007,-0.977,0.061,-0.305,45.461,8.646,-36.678
4529,-0.1367,0.7202,0.7109,-1.831,-3.601,-0.427,45.434,8.619,-36.705
4539,-0.1416,0.7246,0.7246,0.793,-6.042,-0.488,45.434,8.569,-36.755
4549,-0.1655,0.7251,0.7158,5.676,-6.104,-0.793,45.478,8.542,-36.804
4559,-0.1914,0.6968,0.6758,11.108,-2.930,-1.465,45.588,8.558,-36.837
4569,-0.2007,0.6641,0.6309,12.756,2.441,-1.160,45.725,8.619,-36.826
4579,-0.1655,0.6582,0.6157,9.644,7.202,-0.244,45.840,8.690,-36.777
4589,-0.1279,0.6782,0.6338,3.967,6.531,0.977,45.901,8.718,-36.722
4599,-0.1079,0.7134,0.6665,-0.061,-0.122,2.258,45.912,8.679,-36.705
4609,-0.1089,0.7417,0.7075,0.183,-9.399,2.686,45.912,8.569,-36.755
4619,-0.1309,0.7466,0.7339,4.272,-16.846,2.136,45.934,8.421,-36.865
4629,-0.1538,0.7275,0.7466,8.484,-18.860,1.343,45.983,8.284,-36.991
4639,-0.1689,0.7021,0.7437,9.277,-14.954,0.977,46.033,8.185,-37.090
4649,-0.1802,0.6895,0.7158,5.310,-7.202,0.671,46.055,8.152,-37.139
4659,-0.1646,0.6836,0.6982,-2.686,1.953,0.854,46.016,8.174,-37.117
4669,-0.1538,0.6895,0.6860,-11.780,8.972,2.380,45.901,8.223,-37.040
4679,-0.1392,0.7173,0.6802,-19.409,12.390,3.723,45.731,8.284,-36.920
4689,-0.1226,0.7393,0.6870,-22.034,11.780,3.784,45.544,8.322,-36.810
4699,-0.1094,0.7515,0.6992,-19.287,7.324,2.808,45.379,8.333,-36.738
4709,-0.1318,0.7510,0.7007,-12.268,1.343,1.099,45.275,8.322,-36.722
4719,-0.1470,0.7271,0.6929,-4.089,-2.380,-0.610,45.242,8.311,-36.744
4729,-0.1523,0.7002,0.6875,0.793,-3.296,-0.977,45.247,8.300,-36.771
4739,-0.1567,0.6807,0.6763,1.770,-1.892,-0.366,45.264,8.300,-36.788
4749,-0.1411,0.6792,0.6870,-1.648,0.427,0.732,45.242,8.295,-36.782
4759,-0.1343,0.6997,0.7002,-6.348,1.221,1.709,45.181,8.289,-36.760
4769,-0.1196,0.7168,0.7251,-8.667,0.671,1.587,45.093,8.262,-36.744
4779,-0.1172,0.7378,0.7515,-7.996,-1.526,0.732,45.005,8.229,-36.749
4789,-0.1465,0.7417,0.7451,-3.235,-3.723,-0.427,44.967,8.201,-36.777
4799,-0.1689,0.7222,0.7183,3.479,-2.869,-1.648,45.000,8.207,-36.810
4809,-0.1616,0.6929,0.6943,8.484,0.671,-1.648,45.082,8.234,-36.815
4819,-0.1338,0.6816,0.6904,8.911,3.113,-0.061,45.170,8.251,-36.793
4829,-0.1294,0.7114,0.6914,6.836,1.648,1.221,45.247,8.245,-36.777
4839,-0.1221,0.7363,0.7041,6.897,-2.136,0.916,45.324,8.212,-36.782
4849,-0.1343,0.7534,0.7153,10.376,-6.531,-0.366,45.428,8.163,-36.832
4859,-0.1675,0.7378,0.6978,17.029,-8.423,-1.648,45.599,8.124,-36.903
4869,-0.1929,0.6943,0.6587,20.569,-6.409,-1.892,45.807,8.130,-36.964
4879,-0.2061,0.6665,0.6118,18.555,-1.160,-1.648,46.005,8.179,-36.985
4889,-0.1714,0.6475,0.5937,10.681,4.822,-0.793,46.126,8.245,-36.958
4899,-0.1069,0.6753,0.6299,-1.038,5.920,0.977,46.132,8.262,-36.903
4909,-0.0728,0.7334,0.6875,-10.010,-0.427,2.319,46.044,8.201,-36.892
4919,-0.0869,0.7622,0.7319,-10.498,-10.437,1.343,45.928,8.086,-36.958
4930,-0.1250,0.7534,0.7598,-3.662,-17.639,-0.793,45.862,7.954,-37.095
4939,-0.1577,0.7246,0.7656,4.639,-17.883,-2.380,45.868,7.855,-37.238
4949,-0.1787,0.6963,0.7373,9.277,-11.841,-2.991,45.917,7.817,-37.348
4959,-0.1748,0.6606,0.7036,7.202,-2.380,-2.441,45.956,7.844,-37.381
4969,-0.1572,0.6597,0.6855,-1.465,6.714,0.061,45.928,7.905,-37.332
4979,-0.1406,0.6777,0.6753,-11.902,12.512,3.052,45.818,7.971,-37.216
4989,-0.1250,0.7100,0.6782,-19.836,13.672,4.944,45.643,8.026,-37.084
4999,-0.1201,0.7393,0.6870,-22.156,11.047,5.127,45.456,8.053,-36.969
5009,-0.1318,0.7534,0.6816,-18.127,6.470,3.723,45.313,8.064,-36.898
5019,-0.1426,0.7393,0.6758,-10.437,2.441,1.343,45.236,8.069,-36.870
5029,-0.1421,0.7104,0.6709,-3.418,-0.183,-0.488,45.214,8.075,-36.876
5039,-0.1392,0.6860,0.6758,-0.305,-1.526,-0.671,45.209,8.069,-36.892
5049,-0.1216,0.6904,0.7026,-2.075,-2.625,0.244,45.181,8.042,-36.909
5059,-0.1143,0.7104,0.7368,-5.432,-4.456,1.160,45.110,7.987,-36.931
5069,-0.1265,0.7344,0.7549,-6.287,-6.104,1.343,45.033,7.921,-36.964
5079,-0.1401,0.7437,0.7646,-3.967,-5.798,0.549,44.984,7.872,-37.002
5089,-0.1582,0.7354,0.7480,0.793,-3.174,-0.732,44.984,7.861,-37.029
5099,-0.1631,0.7065,0.7168,5.249,1.526,-1.587,45.027,7.899,-37.029
5109,-0.1470,0.6899,0.6963,6.226,5.676,-1.282,45.093,7.954,-36.996
5119,-0.1279,0.6880,0.6929,4.272,6.897,-0.183,45.137,7.998,-36.953
5129,-0.1138,0.7075,0.7061,1.160,4.150,0.854,45.154,8.004,-36.914
5139,-0.1294,0.7300,0.7148,0.916,-0.732,0.793,45.165,7.987,-36.914
5149,-0.1416,0.7290,0.7139,4.028,-3.967,-0.244,45.209,7.960,-36.947
5159,-0.1646,0.7202,0.7036,8.057,-4.089,-1.404,45.286,7.954,-36.985
5169,-0.1782,0.6899,0.6694,10.925,-0.671,-2.258,45.396,7.993,-37.007
5179,-0.1753,0.6650,0.6396,9.277,4.150,-1.587,45.500,8.058,-36.985
5189,-0.1426,0.6699,0.6353,3.540,7.507,-0.122,45.549,8.119,-36.931
5199,-0.1138,0.6958,0.6533,-2.930,6.531,1.282,45.544,8.141,-36.876
5209,-0.1069,0.7256,0.6768,-5.920,1.404,1.709,45.500,8.119,-36.854
5219,-0.1147,0.7378,0.7017,-4.028,-4.700,0.977,45.467,8.064,-36.881
5229,-0.1372,0.7305,0.7085,1.404,-8.728,-0.488,45.478,8.004,-36.947
5239,-0.1675,0.7100,0.6909,6.836,-8.423,-1.465,45.538,7.971,-37.018
5249,-0.1763,0.6787,0.6562,9.277,-3.662,-1.465,45.626,7.982,-37.057
5259,-0.1675,0.6587,0.6377,6.165,2.319,0.000,45.692,8.020,-37.040
5269,-0.1416,0.6680,0.6392,-1.160,6.165,1.953,45.698,8.058,-36.980
5279,-0.1094,0.6973,0.6626,-9.155,5.005,3.052,45.621,8.053,-36.925
5289,-0.0972,0.7373,0.7090,-13.306,-0.977,3.052,45.494,7.998,-36.909
5299,-0.1187,0.7622,0.7432,-10.742,-7.812,1.526,45.385,7.916,-36.953
5309,-0.1445,0.7495,0.7622,-2.563,-11.047,-1.160,45.341,7.850,-37.040
5319,-0.1597,0.7231,0.7627,5.310,-8.789,-2.991,45.363,7.817,-37.128
5329,-0.1646,0.7036,0.7485,9.094,-2.686,-3.052,45.428,7.828,-37.167
5339,-0.1562,0.6880,0.7354,7.812,4.089,-1.953,45.483,7.883,-37.150
5349,-0.1323,0.6943,0.7417,2.625,8.606,-0.488,45.494,7.943,-37.095
5359,-0.1265,0.7197,0.7466,-2.258,9.216,0.671,45.467,7.993,-37.024
5369,-0.1382,0.7363,0.7388,-2.930,7.446,0.610,45.439,8.031,-36.964
5379,-0.1514,0.7334,0.7222,0.244,6.165,-0.549,45.445,8.086,-36.925
5389,-0.1655,0.7158,0.6875,5.127,6.592,-1.465,45.511,8.152,-36.887
5399,-0.1719,0.6929,0.6528,8.118,8.850,-1.526,45.610,8.245,-36.832
5409,-0.1616,0.6719,0.6284,7.690,11.414,-0.732,45.709,8.350,-36.755
5419,-0.1318,0.6719,0.6299,3.784,11.963,0.854,45.769,8.421,-36.661
5430,-0.1128,0.6997,0.6479,-1.282,8.667,2.319,45.786,8.448,-36.584
5439,-0.1128,0.7222,0.6704,-3.601,2.380,2.747,45.769,8.427,-36.546
5449,-0.1240,0.7334,0.6895,-2.747,-3.845,2.319,45.747,8.372,-36.557
5459,-0.1362,0.7314,0.6987,-0.061,-7.690,1.465,45.747,8.300,-36.606
5469,-0.1519,0.7192,0.6938,2.319,-8.179,0.732,45.764,8.240,-36.656
5479,-0.1519,0.7085,0.6865,2.014,-5.554,0.427,45.780,8.207,-36.694
5489,-0.1426,0.7021,0.6895,-0.793,-2.197,1.038,45.769,8.185,-36.705
5499,-0.1353,0.7061,0.6924,-4.517,0.061,1.648,45.725,8.168,-36.694
5509,-0.1299,0.7187,0.7012,-8.179,0.610,2.014,45.643,8.152,-36.672
5519,-0.1323,0.7300,0.7095,-9.338,-0.549,1.831,45.555,8.124,-36.667
5529,-0.1436,0.7324,0.7100,-7.202,-2.380,0.793,45.483,8.102,-36.678
5539,-0.1528,0.7295,0.7104,-3.967,-3.296,-0.244,45.445,8.086,-36.700
5549,-0.1650,0.7183,0.6948,-0.244,-2.625,-0.916,45.445,8.086,-36.727
5559,-0.1577,0.7017,0.6816,2.625,-0.671,-0.793,45.472,8.097,-36.738
5569,-0.1484,0.6914,0.6812,2.563,0.427,0.305,45.500,8.102,-36.733
5579,-0.1411,0.6948,0.6812,0.488,-0.244,1.099,45.505,8.097,-36.727
5589,-0.1377,0.7012,0.6890,-1.587,-2.197,1.099,45.489,8.075,-36.733
5599,-0.1406,0.7046,0.6978,-2.075,-3.906,0.549,45.461,8.042,-36.760
5609,-0.1455,0.7002,0.6982,-1.465,-4.395,0.000,45.439,8.015,-36.788
5619,-0.1523,0.6890,0.7017,-0.793,-3.784,-0.122,45.417,7.998,-36.821
5629,-0.1548,0.6772,0.6958,-0.977,-2.258,0.244,45.396,7.987,-36.832
5639,-0.1489,0.6782,0.6948,-1.526,-0.916,1.160,45.368,7.982,-36.832
5649,-0.1445,0.6831,0.6890,-1.465,-0.244,2.625,45.352,7.965,-36.815
5659,-0.1318,0.6870,0.6934,-0.793,-0.305,4.333,45.341,7.932,-36.788
5669,-0.1284,0.6987,0.7036,-0.366,-1.648,5.554,45.335,7.877,-36.760
5679,-0.1284,0.7144,0.7109,0.061,-4.028,5.676,45.335,7.800,-36.749
5689,-0.1348,0.7231,0.7222,0.549,-6.226,4.883,45.335,7.723,-36.755
5699,-0.1479,0.7207,0.7231,1.648,-6.775,3.662,45.346,7.652,-36.782
5709,-0.1543,0.7139,0.7139,2.014,-4.944,2.747,45.357,7.608,-36.793
5719,-0.1372,0.7148,0.7148,1.160,-2.075,2.625,45.368,7.581,-36.793
5729,-0.1196,0.7295,0.7246,-0.488,-0.427,3.235,45.363,7.542,-36.771
5739,-0.1182,0.7476,0.7295,-0.916,-0.671,3.479,45.363,7.504,-36.755
5749,-0.1270,0.7505,0.7236,0.977,-1.099,2.808,45.379,7.471,-36.738
5759,-0.1543,0.7388,0.6924,4.883,-0.244,1.404,45.445,7.471,-36.733
5769,-0.1582,0.7100,0.6504,8.362,3.357,-0.061,45.549,7.515,-36.711
5779,-0.1333,0.6846,0.6353,8.362,6.653,0.000,45.654,7.564,-36.661
5789,-0.1084,0.6890,0.6299,5.127,6.104,1.404,45.731,7.586,-36.606
5799,-0.1060,0.7031,0.6323,1.160,2.075,2.625,45.769,7.570,-36.573
5809,-0.1079,0.7139,0.6436,-1.282,-2.686,2.747,45.780,7.520,-36.573
5819,-0.1089,0.7183,0.6685,-1.953,-6.287,2.075,45.769,7.454,-36.606
5829,-0.1123,0.7192,0.6890,-1.770,-8.667,1.221,45.747,7.372,-36.656
5839,-0.1138,0.7178,0.7129,-1.343,-9.705,0.427,45.720,7.295,-36.727
5849,-0.1123,0.7222,0.7383,-1.038,-9.766,0.366,45.687,7.213,-36.793
5859,-0.1147,0.7290,0.7563,-0.122,-9.033,0.732,45.665,7.136,-36.854
5869,-0.1177,0.7324,0.7666,1.160,-7.019,1.099,45.648,7.070,-36.898
5879,-0.1318,0.7358,0.7583,2.075,-4.211,1.282,45.654,7.031,-36.920
5889,-0.1465,0.7300,0.7358,2.563,-0.488,0.916,45.670,7.031,-36.914
5899,-0.1475,0.7168,0.7109,1.709,3.357,0.366,45.687,7.064,-36.887
5909,-0.1470,0.7109,0.6895,-0.549,6.042,0.122,45.687,7.119,-36.843
5919,-0.1313,0.7090,0.6758,-3.479,7.263,0.000,45.665,7.174,-36.793
5930,-0.1147,0.7139,0.6748,-6.226,6.226,0.244,45.621,7.213,-36.744
5939,-0.1138,0.7222,0.6768,-7.507,3.479,0.366,45.560,7.229,-36.716
5949,-0.1147,0.7339,0.6880,-6.836,0.305,-0.183,45.505,7.224,-36.716
5959,-0.1309,0.7295,0.6885,-3.357,-1.648,-1.404,45.483,7.224,-36.738
5969,-0.1367,0.7075,0.6821,0.305,-1.343,-2.014,45.489,7.234,-36.760
5979,-0.1318,0.6929,0.6797,1.831,0.427,-1.587,45.505,7.256,-36.771
5989,-0.1235,0.6899,0.6807,0.488,1.709,-0.610,45.511,7.273,-36.760
5999,-0.1172,0.6948,0.6880,-2.319,1.770,0.183,45.483,7.278,-36.749
6009,-0.1074,0.7056,0.7051,-4.944,0.671,0.549,45.434,7.267,-36.738
6019,-0.1157,0.7236,0.7178,-5.798,-1.038,0.183,45.374,7.251,-36.744
6029,-0.1196,0.7275,0.7266,-3.540,-2.075,-0.732,45.335,7.234,-36.766
6039,-0.1343,0.7222,0.7212,0.610,-2.380,-1.343,45.330,7.229,-36.793
6049,-0.1494,0.7070,0.7002,5.310,-1.038,-0.977,45.385,7.245,-36.804
6059,-0.1387,0.6948,0.6890,7.202,0.916,0.183,45.456,7.256,-36.799
6069,-0.1255,0.6978,0.6899,5.737,1.343,1.221,45.511,7.256,-36.782
6079,-0.1211,0.7153,0.7002,2.747,-0.488,1.282,45.538,7.240,-36.777
6089,-0.1299,0.7334,0.7070,1.221,-3.113,0.183,45.555,7.218,-36.793
6099,-0.1445,0.7285,0.7017,2.319,-4.089,-1.038,45.577,7.207,-36.832
6109,-0.1597,0.7158,0.6763,4.333,-2.136,-1.587,45.626,7.224,-36.859
6119,-0.1587,0.6914,0.6455,5.310,1.831,-1.282,45.692,7.267,-36.854
6129,-0.1406,0.6821,0.6289,3.296,5.127,-0.061,45.747,7.317,-36.815
6139,-0.1060,0.6968,0.6348,-0.244,5.249,1.160,45.769,7.339,-36.771
6149,-0.0801,0.7231,0.6646,-2.625,0.610,1.709,45.764,7.300,-36.755
6159,-0.0923,0.7393,0.6904,-1.404,-6.653,1.221,45.758,7.229,-36.793
6169,-0.1045,0.7368,0.7163,2.197,-12.085,0.122,45.769,7.130,-36.881
6179,-0.1143,0.7236,0.7383,5.066,-13.855,-0.854,45.791,7.031,-36.985
6189,-0.1284,0.7080,0.7446,5.432,-12.329,-1.221,45.813,6.954,-37.084
6199,-0.1406,0.6973,0.7368,2.869,-7.446,-0.854,45.807,6.921,-37.145
6209,-0.1460,0.7007,0.7231,-1.526,-0.549,-0.305,45.775,6.932,-37.150
6219,-0.1338,0.7041,0.7104,-5.554,5.737,0.061,45.714,6.976,-37.106
6229,-0.1206,0.7080,0.7017,-8.728,8.728,0.671,45.632,7.031,-37.040
6239,-0.1011,0.7183,0.7100,-10.620,7.568,1.465,45.533,7.059,-36.974
6249,-0.1011,0.7393,0.7187,-9.888,2.991,1.465,45.439,7.059,-36.947
6259,-0.1172,0.7378,0.7227,-5.676,-1.709,0.488,45.385,7.037,-36.953
6269,-0.1333,0.7217,0.7222,-1.160,-3.601,-0.610,45.368,7.020,-36.985
6279,-0.1455,0.7061,0.7109,1.343,-1.892,-1.404,45.368,7.026,-37.007
6289,-0.1440,0.6924,0.7007,0.488,1.709,-1.282,45.368,7.064,-37.002
6299,-0.1357,0.6953,0.6904,-2.502,4.883,-0.244,45.346,7.108,-36.969
6309,-0.1255,0.7056,0.6851,-5.249,6.592,0.610,45.308,7.147,-36.920
6319,-0.1138,0.7236,0.6904,-6.348,5.920,0.671,45.258,7.180,-36.870
6329,-0.1240,0.7300,0.6851,-4.333,3.662,0.000,45.236,7.202,-36.848
6339,-0.1289,0.7212,0.6743,-0.244,1.770,-0.977,45.247,7.224,-36.837
6349,-0.1265,0.7041,0.6680,3.174,0.610,-1.526,45.291,7.240,-36.848
6359,-0.1333,0.6938,0.6616,4.578,-0.244,-1.343,45.346,7.256,-36.859
6369,-0.1177,0.6890,0.6733,3.540,-1.282,-0.732,45.385,7.251,-36.870
6379,-0.1201,0.7012,0.6865,1.648,-3.174,0.000,45.401,7.224,-36.892
6389,-0.1143,0.7148,0.7056,0.977,-4.883,0.061,45.406,7.185,-36.931
6399,-0.1240,0.7310,0.7187,1.892,-6.409,-0.183,45.417,7.136,-36.974
6409,-0.1475,0.7280,0.7051,6.042,-6.165,-1.099,45.478,7.114,-37.029
6419,-0.1479,0.7065,0.6895,9.766,-3.723,-1.282,45.571,7.108,-37.062
6430,-0.1660,0.7007,0.6533,11.597,-0.671,-0.916,45.698,7.141,-37.073
6439,-0.1382,0.6904,0.6323,11.597,2.319,-0.793,45.835,7.174,-37.062
6449,-0.0957,0.6914,0.6514,8.972,1.160,-0.122,45.934,7.169,-37.057
6459,-0.0542,0.7231,0.7129,5.798,-5.615,0.916,45.978,7.081,-37.090
6469,-0.0264,0.7783,0.7983,4.944,-17.029,0.610,45.994,6.905,-37.211
6479,-0.0835,0.8013,0.8408,11.169,-27.893,-1.343,46.060,6.691,-37.419
6489,-0.1572,0.7729,0.8218,21.057,-29.358,-3.113,46.214,6.526,-37.656
6499,-0.1997,0.7227,0.7734,27.893,-18.372,-4.150,46.439,6.471,-37.820
6509,-0.1909,0.6724,0.7065,26.245,-0.793,-3.845,46.664,6.537,-37.853
6519,-0.1655,0.6455,0.6475,14.893,15.381,-1.526,46.807,6.691,-37.749
6529,-0.1416,0.6558,0.6006,-1.221,25.635,1.831,46.824,6.877,-37.546
6539,-0.1138,0.6772,0.5903,-16.418,28.625,4.395,46.714,7.042,-37.310
6549,-0.0791,0.7163,0.6143,-26.794,24.292,5.676,46.500,7.141,-37.090
6559,-0.0771,0.7661,0.6431,-28.137,13.977,4.822,46.274,7.174,-36.953
6569,-0.1006,0.7798,0.6553,-19.348,2.380,2.197,46.121,7.163,-36.920
6579,-0.1270,0.7529,0.6606,-6.836,-5.859,0.061,46.077,7.119,-36.964
6589,-0.1440,0.7158,0.6567,3.296,-8.362,-0.916,46.115,7.086,-37.029
6599,-0.1411,0.6802,0.6460,6.226,-5.920,-0.977,46.170,7.064,-37.079
6609,-0.1304,0.6665,0.6587,1.282,-2.136,0.183,46.176,7.059,-37.095
6619,-0.1196,0.6816,0.6797,-7.996,0.793,1.892,46.088,7.048,-37.079
6629,-0.0991,0.7153,0.7192,-15.930,1.526,2.625,45.923,7.026,-37.046
6639,-0.0923,0.7515,0.7563,-19.043,-0.366,2.380,45.725,6.987,-37.035
6649,-0.1011,0.7710,0.7778,-15.015,-3.357,0.977,45.560,6.938,-37.051
6659,-0.1167,0.7598,0.7778,-6.226,-5.493,-0.488,45.483,6.894,-37.095
6669,-0.1387,0.7300,0.7593,2.441,-5.249,-1.160,45.483,6.872,-37.139
6679,-0.1548,0.6968,0.7266,6.775,-1.770,-1.099,45.533,6.888,-37.161
6689,-0.1465,0.6831,0.6997,5.432,3.052,-0.427,45.577,6.927,-37.139
6699,-0.1382,0.6890,0.6812,1.038,6.775,0.366,45.593,6.987,-37.090
6709,-0.1177,0.7036,0.6875,-3.418,7.935,0.916,45.566,7.031,-37.024
6719,-0.1040,0.7319,0.7065,-5.127,5.493,0.793,45.527,7.053,-36.980
6729,-0.1128,0.7417,0.7124,-1.770,0.916,0.000,45.516,7.053,-36.974
6739,-0.1348,0.7329,0.6973,4.333,-2.563,-1.099,45.566,7.048,-37.002
6749,-0.1406,0.7095,0.6846,9.705,-2.808,-1.892,45.659,7.053,-37.035
6759,-0.1392,0.6851,0.6650,11.719,-1.038,-1.892,45.775,7.070,-37.057
6769,-0.1538,0.6699,0.6411,9.644,1.587,-0.977,45.873,7.108,-37.051
6779,-0.1396,0.6689,0.6294,5.188,4.517,-0.122,45.939,7.158,-37.018
6789,-0.1079,0.6855,0.6475,0.549,5.188,0.793,45.956,7.180,-36.974
6799,-0.0757,0.7183,0.6895,-1.831,1.160,1.831,45.945,7.147,-36.953
6809,-0.0518,0.7612,0.7500,0.183,-7.324,2.075,45.934,7.037,-36.991
6819,-0.0908,0.7783,0.7734,8.179,-16.663,0.793,45.994,6.894,-37.106
6829,-0.1484,0.7568,0.7593,18.311,-19.836,-0.610,46.148,6.773,-37.255
6839,-0.1826,0.7065,0.7168,24.658,-13.672,-1.282,46.362,6.724,-37.365
6849,-0.1860,0.6587,0.6680,21.912,-1.770,-0.916,46.560,6.762,-37.381
6859,-0.1504,0.6499,0.6318,9.277,9.644,1.282,46.653,6.844,-37.304
6869,-0.1069,0.6851,0.6265,-6.958,15.381,3.906,46.609,6.921,-37.167
6879,-0.0806,0.7368,0.6543,-18.860,13.733,5.127,46.461,6.954,-37.029
6889,-0.0830,0.7847,0.6777,-21.606,6.897,4.272,46.280,6.949,-36.947
6899,-0.1069,0.7915,0.6841,-14.221,-0.732,1.831,46.170,6.916,-36.942
6909,-0.1270,0.7661,0.6768,-2.686,-5.310,-0.671,46.165,6.888,-36.985
6919,-0.1333,0.7187,0.6631,6.104,-6.042,-1.892,46.225,6.866,-37.040
6929,-0.1357,0.6895,0.6523,7.629,-4.517,-1.404,46.302,6.861,-37.084
6939,-0.1318,0.6758,0.6479,2.075,-1.648,-0.122,46.318,6.861,-37.095
6949,-0.1172,0.6860,0.6611,-7.263,1.526,1.343,46.247,6.866,-37.073
6959,-0.0913,0.7217,0.6987,-16.296,3.235,2.136,46.088,6.855,-37.035
6969,-0.0947,0.7573,0.7178,-19.470,2.014,1.770,45.901,6.839,-37.013
6979,-0.1143,0.7593,0.7261,-15.564,-0.366,0.488,45.753,6.828,-37.007
6989,-0.1436,0.7368,0.7192,-7.507,-1.770,-1.404,45.676,6.833,-37.035
6999,-0.1499,0.6924,0.7114,0.488,-1.038,-3.113,45.659,6.866,-37.062
7009,-0.1387,0.6597,0.7080,3.723,-0.061,-2.808,45.670,6.899,-37.084
7019,-0.1079,0.6621,0.7280,2.380,-0.488,-0.488,45.659,6.894,-37.090
7029,-0.0918,0.7031,0.7603,-0.793,-3.052,2.258,45.621,6.839,-37.095
7039,-0.1167,0.7354,0.7632,-0.183,-5.554,3.906,45.599,6.768,-37.106
7049,-0.1440,0.7476,0.7427,4.028,-4.456,3.540,45.637,6.718,-37.117
7059,-0.1602,0.7437,0.7051,9.583,0.854,2.075,45.742,6.735,-37.095
7069,-0.1338,0.7251,0.6729,12.878,7.019,1.038,45.890,6.784,-37.035
7079,-0.0937,0.7207,0.6631,11.841,9.460,1.343,46.033,6.828,-36.958
7089,-0.0786,0.7422,0.6743,8.240,6.104,1.831,46.137,6.833,-36.903
7099,-0.0752,0.7651,0.6943,5.859,-0.122,1.099,46.208,6.795,-36.892
7109,-0.0942,0.7773,0.7075,6.775,-5.676,-0.610,46.285,6.746,-36.942
7119,-0.1289,0.7671,0.6919,10.681,-7.141,-2.441,46.401,6.718,-37.007
7129,-0.1494,0.7300,0.6538,13.794,-3.235,-3.235,46.549,6.740,-37.057
7139,-0.1489,0.6953,0.6143,11.902,3.906,-2.808,46.692,6.812,-37.046
7149,-0.1357,0.6875,0.5903,4.150,10.437,-1.770,46.763,6.910,-36.980
7159,-0.1055,0.6992,0.5981,-5.920,13.062,-1.221,46.741,7.004,-36.892
7169,-0.0781,0.7178,0.6343,-14.282,9.399,-1.465,46.626,7.053,-36.837
7179,-0.0889,0.7368,0.6733,-17.212,1.038,-2.563,46.467,7.059,-36.848
7189,-0.1206,0.7358,0.6953,-13.489,-7.141,-4.150,46.324,7.037,-36.925
7199,-0.1470,0.7129,0.7026,-5.554,-11.108,-5.066,46.247,7.009,-37.040
7209,-0.1538,0.6904,0.6904,2.014,-9.705,-4.272,46.241,6.993,-37.145
7219,-0.1387,0.6704,0.6797,5.066,-5.737,-1.709,46.269,6.982,-37.194
7229,-0.1172,0.6733,0.6899,1.648,-2.319,1.099,46.263,6.954,-37.205
7239,-0.0952,0.7119,0.7202,-5.005,-1.892,2.563,46.198,6.910,-37.200
7249,-0.1064,0.7476,0.7466,-8.850,-4.150,2.014,46.099,6.855,-37.216
7259,-0.1294,0.7524,0.7549,-7.385,-5.676,0.488,46.005,6.812,-37.255
7269,-0.1509,0.7344,0.7500,-2.686,-4.639,-1.038,45.961,6.801,-37.299
7279,-0.1533,0.7056,0.7285,1.709,-1.282,-1.770,45.956,6.823,-37.321
7289,-0.1504,0.6855,0.7012,2.686,2.563,-0.793,45.967,6.866,-37.304
7299,-0.1318,0.6875,0.6875,0.244,5.615,1.099,45.967,6.905,-37.255
7309,-0.1084,0.7158,0.6934,-2.747,6.287,2.747,45.945,6.921,-37.194
7319,-0.1079,0.7397,0.6997,-3.113,4.089,3.052,45.928,6.921,-37.139
7329,-0.1147,0.7422,0.6958,-0.122,0.977,1.953,45.939,6.910,-37.123
7339,-0.1191,0.7271,0.6953,4.150,-1.526,0.610,45.983,6.894,-37.128
7349,-0.1313,0.7046,0.6812,7.263,-2.380,0.061,46.049,6.883,-37.145
7359,-0.1401,0.6826,0.6602,6.836,-0.916,0.305,46.115,6.888,-37.150
7369,-0.1348,0.6792,0.6479,2.441,2.319,1.038,46.148,6.910,-37.123
7379,-0.1104,0.6943,0.6504,-3.357,5.066,1.831,46.126,6.927,-37.073
7389,-0.0913,0.7231,0.6631,-7.324,4.822,2.747,46.077,6.927,-37.018
7399,-0.0864,0.7451,0.6787,-7.812,1.526,3.296,46.016,6.894,-36.985
7409,-0.0972,0.7510,0.6958,-4.395,-3.052,2.869,45.983,6.839,-36.991
7419,-0.1167,0.7412,0.7017,0.366,-6.409,1.953,45.989,6.779,-37.024
7429,-0.1353,0.7217,0.6978,3.662,-7.019,0.977,46.022,6.729,-37.068
7439,-0.1362,0.7100,0.6963,3.235,-4.944,0.610,46.044,6.702,-37.095
7449,-0.1313,0.7100,0.6938,-0.122,-1.892,1.038,46.038,6.691,-37.101
7459,-0.1177,0.7183,0.6982,-4.456,0.427,1.709,45.994,6.680,-37.090
7469,-0.1035,0.7388,0.7124,-7.874,0.916,1.831,45.917,6.663,-37.068
7479,-0.0986,0.7524,0.7227,-7.935,-0.305,1.282,45.846,6.641,-37.062
7489,-0.1069,0.7490,0.7280,-4.456,-2.075,0.366,45.797,6.614,-37.073
7499,-0.1191,0.7344,0.7241,-0.488,-2.930,-0.549,45.786,6.597,-37.101
7509,-0.1299,0.7202,0.7144,1.404,-1.892,-1.038,45.791,6.603,-37.123
7519,-0.1377,0.7026,0.6953,0.610,0.793,-1.099,45.791,6.625,-37.123
7529,-0.1328,0.6904,0.6831,-2.441,4.150,-0.854,45.769,6.674,-37.101
7539,-0.1221,0.6841,0.6763,-6.531,6.897,-0.061,45.703,6.729,-37.051
7549,-0.0972,0.7007,0.6924,-10.742,7.507,1.099,45.599,6.762,-36.985
7559,-0.0811,0.7310,0.7134,-12.451,5.066,1.648,45.483,6.762,-36.942
7569,-0.0874,0.7515,0.7266,-9.216,1.160,1.099,45.401,6.740,-36.925
7579,-0.1040,0.7524,0.7354,-2.808,-1.465,-0.122,45.374,6.724,-36.936
7589,-0.1274,0.7417,0.7231,4.211,-1.587,-1.404,45.417,6.724,-36.958
7599,-0.1328,0.7241,0.7051,9.338,0.793,-2.319,45.511,6.751,-36.969
7609,-0.1372,0.7031,0.6826,11.292,3.296,-2.136,45.626,6.801,-36.958
7619,-0.1357,0.6831,0.6611,10.803,4.700,-1.282,45.742,6.855,-36.931
7629,-0.1221,0.6807,0.6597,7.019,4.578,-0.366,45.813,6.899,-36.903
7639,-0.1108,0.6982,0.6729,2.319,2.136,0.244,45.840,6.905,-36.887
7649,-0.1162,0.7109,0.6816,-0.244,-1.282,0.244,45.840,6.894,-36.892
7659,-0.1235,0.7119,0.6899,-0.610,-3.601,-0.244,45.835,6.872,-36.920
7669,-0.1318,0.7075,0.6948,0.549,-3.845,-0.916,45.829,6.861,-36.953
7679,-0.1367,0.6943,0.6865,1.709,-2.380,-0.977,45.840,6.861,-36.980
7689,-0.1343,0.6855,0.6807,1.587,-0.366,-0.305,45.846,6.872,-36.985
7699,-0.1235,0.6846,0.6841,0.366,1.038,0.977,45.846,6.877,-36.969
7709,-0.1143,0.7036,0.6982,-1.282,0.793,2.014,45.829,6.866,-36.947
7719,-0.1147,0.7197,0.7090,-1.587,-0.610,2.258,45.813,6.839,-36.936
7729,-0.1230,0.7246,0.7065,0.000,-1.526,2.014,45.807,6.817,-36.936
7739,-0.1338,0.7266,0.6958,2.441,-0.732,1.587,45.840,6.806,-36.931
7749,-0.1396,0.7187,0.6772,4.456,1.404,1.160,45.895,6.823,-36.909
7759,-0.1313,0.7227,0.6548,5.310,3.296,1.099,45.972,6.844,-36.881
7769,-0.1177,0.7256,0.6445,6.104,3.418,1.526,46.060,6.855,-36.843
7779,-0.0937,0.7295,0.6611,6.836,0.793,1.953,46.148,6.833,-36.826
7789,-0.0796,0.7480,0.6929,7.080,-4.700,2.014,46.225,6.762,-36.843
7799,-0.1025,0.7593,0.7070,8.667,-10.681,1.404,46.307,6.669,-36.914
7809,-0.1255,0.7417,0.7134,10.620,-12.939,0.000,46.401,6.586,-37.007
7819,-0.1348,0.7192,0.7163,10.376,-10.437,-1.038,46.483,6.531,-37.090
7829,-0.1338,0.7002,0.7056,6.592,-4.883,-1.160,46.527,6.515,-37.134
7839,-0.1265,0.7036,0.6992,-0.549,0.854,-0.671,46.505,6.537,-37.134
7849,-0.1221,0.7100,0.6851,-7.019,5.005,-0.244,46.439,6.575,-37.095
7859,-0.1167,0.7153,0.6787,-10.376,7.446,0.427,46.340,6.625,-37.040
7869,-0.1040,0.7236,0.6802,-10.803,7.690,0.916,46.247,6.663,-36.980
7879,-0.0977,0.7339,0.6812,-9.094,5.249,1.282,46.170,6.680,-36.931
7889,-0.1069,0.7354,0.6787,-5.310,1.282,1.221,46.132,6.674,-36.914
7899,-0.1118,0.7290,0.6831,-1.770,-1.953,0.732,46.121,6.652,-36.920
7909,-0.1226,0.7202,0.6851,0.488,-3.418,0.061,46.126,6.636,-36.947
7919,-0.1274,0.7051,0.6802,0.366,-2.686,-0.427,46.126,6.625,-36.969
7929,-0.1260,0.7002,0.6816,-2.319,-0.305,-0.122,46.099,6.630,-36.969
7939,-0.1206,0.7085,0.6880,-6.226,1.770,0.488,46.033,6.641,-36.958
7949,-0.1123,0.7148,0.6919,-9.277,2.563,0.916,45.945,6.652,-36.931
7959,-0.1064,0.7275,0.7031,-10.681,2.075,0.916,45.840,6.652,-36.909
7969,-0.1113,0.7324,0.7085,-8.911,0.854,0.366,45.758,6.652,-36.903
7979,-0.1138,0.7231,0.7114,-5.310,-0.183,-0.244,45.698,6.652,-36.903
7989,-0.1167,0.7109,0.7134,-2.136,-0.732,-0.305,45.670,6.647,-36.909
7999,-0.1196,0.7051,0.7104,-0.244,-0.854,0.061,45.659,6.641,-36.914
8009,-0.1182,0.7095,0.7158,0.305,-0.916,0.549,45.654,6.636,-36.920
8019,-0.1221,0.7148,0.7148,0.854,-0.793,0.916,45.654,6.625,-36.920
8029,-0.1230,0.7144,0.7129,1.953,-0.244,1.160,45.670,6.619,-36.914
8039,-0.1230,0.7158,0.7061,3.357,0.366,1.038,45.698,6.614,-36.903
8049,-0.1167,0.7144,0.7017,3.967,0.549,0.977,45.736,6.614,-36.892
8059,-0.1084,0.7212,0.7065,3.418,-0.244,1.160,45.769,6.597,-36.887
8069,-0.1128,0.7358,0.7036,3.052,-1.343,1.099,45.807,6.581,-36.887
8079,-0.1143,0.7334,0.7021,3.906,-1.404,0.366,45.846,6.564,-36.892
8089,-0.1177,0.7236,0.6963,5.310,-0.488,-0.488,45.901,6.564,-36.903
8099,-0.1289,0.7129,0.6802,6.165,0.916,-0.977,45.967,6.586,-36.903
8109,-0.1182,0.7041,0.6709,5.066,2.319,-0.549,46.022,6.614,-36.887
8119,-0.1152,0.7109,0.6709,2.136,2.563,0.610,46.055,6.625,-36.865
8129,-0.1187,0.7202,0.6675,-0.122,2.075,0.916,46.066,6.636,-36.843
8139,-0.1021,0.7295,0.6772,-1.282,1.343,0.427,46.066,6.636,-36.832
8149,-0.1108,0.7314,0.6768,-0.671,-0.122,-0.061,46.071,6.630,-36.832
8159,-0.1328,0.7192,0.6558,1.038,-0.732,-0.671,46.093,6.641,-36.843
8169,-0.1309,0.7075,0.6509,2.136,0.244,-0.916,46.132,6.663,-36.848
8179,-0.1270,0.7046,0.6436,2.136,0.732,-0.488,46.165,6.680,-36.848
8189,-0.1089,0.6997,0.6455,1.648,0.427,0.000,46.192,6.680,-36.843
8199,-0.0869,0.7080,0.6709,0.183,-1.953,0.549,46.198,6.647,-36.854
8209,-0.0820,0.7310,0.7041,-0.549,-6.348,0.916,46.187,6.575,-36.892
8219,-0.1050,0.7358,0.7207,1.099,-10.376,0.732,46.181,6.493,-36.964
8229,-0.1304,0.7222,0.7271,3.601,-11.047,0.122,46.198,6.422,-37.040
8239,-0.1382,0.7075,0.7207,5.005,-7.568,-0.183,46.219,6.389,-37.101
8249,-0.1294,0.7002,0.7134,3.418,-2.747,0.488,46.236,6.372,-37.117
8259,-0.1294,0.7026,0.7002,-0.610,1.099,1.831,46.219,6.378,-37.095
8269,-0.1172,0.7139,0.6963,-4.944,3.296,2.502,46.170,6.389,-37.051
8279,-0.1050,0.7363,0.7095,-7.751,3.052,2.319,46.099,6.389,-37.013
8289,-0.1035,0.7495,0.7187,-7.019,0.793,1.404,46.033,6.378,-37.002
8299,-0.1104,0.7505,0.7251,-3.174,-1.770,0.366,46.000,6.356,-37.007
8309,-0.1265,0.7397,0.7158,2.319,-3.052,-0.122,46.016,6.345,-37.035
8319,-0.1304,0.7266,0.7002,6.714,-1.831,0.000,46.082,6.339,-37.046
8329,-0.1191,0.7124,0.6890,7.751,0.671,0.488,46.159,6.345,-37.035
8339,-0.1104,0.7129,0.6860,5.615,2.380,1.038,46.219,6.356,-37.013
8349,-0.1011,0.7241,0.6826,2.258,2.747,1.099,46.247,6.361,-36.985
8359,-0.1030,0.7275,0.6797,0.000,2.136,0.549,46.258,6.367,-36.964
8369,-0.1030,0.7236,0.6782,-0.916,1.587,-0.244,46.252,6.378,-36.958
8379,-0.1143,0.7119,0.6768,-0.549,1.160,-0.793,46.252,6.394,-36.953
8389,-0.1089,0.7002,0.6812,-0.305,1.038,-0.793,46.241,6.405,-36.953
8399,-0.1128,0.7046,0.6821,0.000,0.671,-0.244,46.241,6.411,-36.947
8409,-0.1118,0.7056,0.6826,1.648,0.427,0.549,46.252,6.411,-36.942
8419,-0.0947,0.7183,0.6982,3.479,-0.244,1.587,46.285,6.389,-36.931
8429,-0.0923,0.7339,0.7095,5.920,-2.258,2.502,46.340,6.345,-36.931
8439,-0.1074,0.7373,0.7119,8.362,-4.761,2.441,46.417,6.290,-36.947
8449,-0.1255,0.7334,0.7119,10.071,-5.554,1.465,46.511,6.251,-36.980
8459,-0.1436,0.7173,0.6987,10.620,-3.601,0.183,46.604,6.240,-37.002
8469,-0.1465,0.6934,0.6792,9.094,0.427,-0.366,46.686,6.273,-37.002
8479,-0.1294,0.6860,0.6694,4.150,4.150,0.793,46.719,6.306,-36.969
8489,-0.1118,0.7026,0.6665,-1.831,5.493,2.563,46.708,6.328,-36.909
8499,-0.0962,0.7261,0.6753,-5.737,4.272,3.906,46.659,6.323,-36.854
8509,-0.0840,0.7490,0.6899,-5.554,1.465,4.089,46.615,6.284,-36.810
8519,-0.0957,0.7573,0.6929,-1.831,-1.221,3.418,46.609,6.246,-36.799
8529,-0.1221,0.7432,0.6807,2.686,-1.892,2.197,46.642,6.224,-36.799
8539,-0.1304,0.7178,0.6587,4.517,0.549,1.099,46.697,6.229,-36.782
8549,-0.1230,0.7031,0.6460,2.319,4.028,1.099,46.730,6.262,-36.749
8559,-0.1079,0.7104,0.6455,-2.563,6.104,1.953,46.725,6.290,-36.689
8569,-0.0894,0.7363,0.6528,-6.958,5.554,2.869,46.675,6.295,-36.628
8579,-0.0776,0.7627,0.6748,-7.507,2.502,2.991,46.626,6.273,-36.590
8589,-0.0825,0.7720,0.6924,-3.723,-1.953,2.258,46.604,6.224,-36.590
8599,-0.1030,0.7563,0.6963,2.197,-5.310,1.099,46.631,6.180,-36.617
8609,-0.1143,0.7373,0.6929,6.104,-5.920,0.183,46.686,6.136,-36.661
8619,-0.1143,0.7285,0.6860,6.470,-4.028,-0.244,46.747,6.114,-36.694
8629,-0.1045,0.7280,0.6890,3.723,-1.404,0.061,46.780,6.103,-36.705
8639,-0.0981,0.7432,0.7002,-0.061,0.366,0.427,46.780,6.097,-36.700
8649,-0.0991,0.7588,0.7041,-2.136,0.549,0.244,46.763,6.092,-36.694
8659,-0.1128,0.7603,0.6968,-1.587,0.244,-0.610,46.758,6.103,-36.694
8669,-0.1157,0.7446,0.6885,0.488,0.366,-1.709,46.763,6.119,-36.705
8679,-0.1201,0.7266,0.6777,2.258,0.671,-2.441,46.791,6.152,-36.716
8689,-0.1201,0.7119,0.6724,2.808,0.732,-2.686,46.813,6.185,-36.727
8699,-0.1094,0.7085,0.6719,2.625,0.366,-2.197,46.835,6.202,-36.738
8709,-0.1016,0.7148,0.6743,2.380,-0.793,-0.793,46.857,6.202,-36.749
8719,-0.0962,0.7314,0.6743,2.808,-2.136,0.671,46.884,6.174,-36.760
8729,-0.0952,0.7378,0.6738,3.479,-3.052,1.526,46.928,6.136,-36.777
8739,-0.1108,0.7378,0.6719,3.357,-3.052,1.282,46.967,6.108,-36.788
8749,-0.1250,0.7285,0.6567,2.625,-1.709,-0.427,47.000,6.108,-36.804
8759,-0.1182,0.7183,0.6602,1.709,-0.366,-2.197,47.021,6.130,-36.821
8769,-0.0991,0.7158,0.6680,-0.183,0.000,-1.953,47.016,6.141,-36.837
8779,-0.0977,0.7261,0.6841,-1.648,-1.404,-0.610,46.994,6.130,-36.848
8789,-0.0952,0.7339,0.7031,-1.404,-3.296,0.366,46.972,6.097,-36.870
8799,-0.0791,0.7485,0.7319,0.244,-5.127,0.488,46.956,6.042,-36.903
8809,-0.1016,0.7617,0.7412,3.906,-7.385,-0.122,46.978,5.988,-36.964
8819,-0.1299,0.7554,0.7261,9.766,-7.446,-1.648,47.060,5.960,-37.029
8829,-0.1392,0.7295,0.7036,15.442,-4.333,-2.808,47.197,5.971,-37.079
8839,-0.1475,0.7012,0.6699,18.555,-0.244,-2.808,47.368,6.015,-37.101
8849,-0.1392,0.6772,0.6406,16.846,3.174,-1.709,47.527,6.075,-37.090
8859,-0.1255,0.6699,0.6294,10.559,4.517,0.427,47.631,6.119,-37.051
8869,-0.0981,0.6982,0.6367,2.319,2.930,2.747,47.659,6.114,-37.013
8879,-0.1001,0.7251,0.6499,-3.418,-0.793,4.028,47.631,6.081,-36.991
8889,-0.1104,0.7295,0.6543,-5.310,-3.723,3.723,47.582,6.031,-36.991
8899,-0.1143,0.7256,0.6606,-5.493,-3.967,2.991,47.527,5.988,-37.002
8909,-0.1147,0.7144,0.6631,-5.310,-2.258,2.930,47.472,5.960,-36.996
8919,-0.1138,0.6997,0.6626,-7.080,0.366,3.784,47.395,5.944,-36.969
8929,-0.1006,0.7090,0.6709,-10.986,2.563,5.066,47.285,5.922,-36.914
8939,-0.0942,0.7310,0.6704,-14.221,4.028,5.981,47.153,5.900,-36.843
8949,-0.0942,0.7451,0.6738,-15.320,4.883,6.348,47.016,5.883,-36.766
8959,-0.0898,0.7549,0.6689,-14.771,5.493,6.226,46.895,5.867,-36.683
8969,-0.0854,0.7612,0.6621,-13.367,5.066,5.798,46.791,5.845,-36.606
8979,-0.0811,0.7671,0.6616,-12.329,3.235,5.127,46.697,5.817,-36.546
8989,-0.0781,0.7676,0.6699,-11.536,0.732,4.150,46.609,5.779,-36.513
8999,-0.0776,0.7700,0.6875,-10.986,-1.709,2.747,46.516,5.735,-36.508
9009,-0.0786,0.7720,0.7109,-9.705,-3.540,1.160,46.428,5.685,-36.524
9019,-0.0820,0.7603,0.7295,-7.690,-4.761,-0.122,46.346,5.641,-36.557
9029,-0.0986,0.7559,0.7363,-5.737,-4.944,-0.793,46.280,5.614,-36.601
9039,-0.1035,0.7500,0.7373,-3.784,-3.601,-1.160,46.230,5.598,-36.634
9049,-0.0937,0.7412,0.7305,-2.319,-1.404,-1.221,46.198,5.592,-36.656
9059,-0.0850,0.7451,0.7314,-2.136,0.488,-1.160,46.170,5.592,-36.656
9069,-0.0835,0.7534,0.7300,-2.625,1.343,-1.648,46.137,5.603,-36.661
9079,-0.0850,0.7573,0.7290,-2.502,1.343,-2.869,46.115,5.625,-36.672
9089,-0.1016,0.7476,0.7197,-1.099,1.770,-4.272,46.099,5.663,-36.689
9099,-0.1143,0.7192,0.7021,0.061,3.357,-5.310,46.093,5.735,-36.700
9109,-0.1118,0.6973,0.6875,-1.160,5.554,-5.371,46.077,5.817,-36.700
9119,-0.1084,0.6919,0.6870,-5.127,6.958,-4.944,46.022,5.905,-36.683
9129,-0.1011,0.7051,0.7036,-8.606,6.470,-4.822,45.928,5.982,-36.667
9139,-0.1069,0.7202,0.7070,-7.874,4.578,-4.944,45.846,6.053,-36.667
9149,-0.1118,0.7197,0.7119,-1.831,2.625,-4.578,45.818,6.103,-36.683
9159,-0.0986,0.7314,0.7334,6.775,0.183,-4.272,45.873,6.130,-36.711
9169,-0.0933,0.7427,0.7427,16.602,-3.906,-3.418,46.022,6.114,-36.766
9179,-0.1216,0.7251,0.7217,25.940,-7.629,-2.380,46.263,6.086,-36.837
9189,-0.1641,0.6846,0.6880,30.823,-7.141,-1.648,46.549,6.086,-36.898
9199,-0.1846,0.6523,0.6411,27.100,-1.160,-1.404,46.807,6.141,-36.920
9209,-0.1812,0.6387,0.6006,14.832,7.568,-0.854,46.956,6.257,-36.865
9219,-0.1294,0.6597,0.5918,-1.953,14.893,0.122,46.961,6.372,-36.755
9229,-0.0708,0.7085,0.6255,-16.418,15.747,1.648,46.829,6.449,-36.628
9239,-0.0435,0.7695,0.6729,-22.156,8.667,2.014,46.637,6.454,-36.552
9249,-0.0459,0.7983,0.7148,-16.541,-1.953,1.099,46.489,6.389,-36.557
9259,-0.0796,0.7891,0.7344,-3.662,-10.559,-0.305,46.450,6.301,-36.639
9269,-0.1392,0.7559,0.7236,9.521,-12.085,-1.587,46.533,6.240,-36.738
9279,-0.1680,0.7061,0.6689,18.311,-5.798,-2.380,46.703,6.257,-36.799
9289,-0.1597,0.6597,0.6289,16.785,4.211,-1.648,46.868,6.334,-36.777
9299,-0.1084,0.6694,0.6357,5.310,12.024,0.488,46.928,6.411,-36.683
9309,-0.0737,0.7241,0.6558,-8.423,12.634,2.197,46.868,6.460,-36.579
9319,-0.0796,0.7734,0.6802,-15.564,7.690,1.953,46.736,6.476,-36.508
9329,-0.0854,0.7896,0.7085,-13.245,1.465,0.122,46.620,6.471,-36.497
9339,-0.1069,0.7812,0.7158,-4.333,-3.723,-1.953,46.582,6.449,-36.535
9349,-0.1479,0.7358,0.6855,5.432,-4.944,-3.540,46.637,6.460,-36.595
9359,-0.1641,0.6851,0.6484,9.399,-1.282,-3.723,46.725,6.515,-36.634
9369,-0.1455,0.6611,0.6323,5.188,4.211,-2.014,46.774,6.581,-36.617
9379,-0.1313,0.6733,0.6250,-4.333,8.057,0.488,46.741,6.647,-36.552
9389,-0.1050,0.7031,0.6519,-14.465,8.789,2.136,46.609,6.691,-36.475
9399,-0.0771,0.7549,0.6973,-19.775,5.432,1.709,46.428,6.691,-36.420
9409,-0.0835,0.7812,0.7261,-15.625,-1.038,0.061,46.280,6.658,-36.431
9419,-0.1147,0.7642,0.7310,-4.822,-6.531,-1.526,46.225,6.619,-36.486
9429,-0.1382,0.7295,0.7158,5.310,-6.958,-2.380,46.263,6.603,-36.552
9439,-0.1396,0.6948,0.6885,9.399,-3.113,-1.892,46.340,6.608,-36.590
9449,-0.1338,0.6812,0.6680,6.348,1.587,-0.732,46.395,6.641,-36.584
9459,-0.1064,0.6846,0.6753,-1.221,5.127,0.549,46.379,6.669,-36.541
9469,-0.0781,0.7290,0.7075,-9.033,4.700,1.282,46.291,6.669,-36.497
9479,-0.0986,0.7617,0.7148,-10.193,1.526,0.793,46.198,6.658,-36.480
9489,-0.1167,0.7559,0.7183,-5.554,-0.610,-0.122,46.143,6.652,-36.486
9499,-0.1406,0.7349,0.7046,0.549,-0.549,-0.977,46.148,6.669,-36.497
9509,-0.1602,0.6958,0.6709,3.784,1.648,-1.831,46.181,6.718,-36.502
9519,-0.1602,0.6602,0.6367,1.038,5.310,-2.014,46.192,6.801,-36.475
9528,-0.1313,0.6533,0.6338,-6.592,8.667,-1.038,46.132,6.883,-36.420
9539,-0.0918,0.6914,0.6602,-15.320,8.728,0.854,45.989,6.921,-36.348
9549,-0.0747,0.7402,0.6987,-18.799,4.211,2.075,45.818,6.910,-36.304
9559,-0.0928,0.7612,0.7231,-13.184,-2.563,1.709,45.692,6.861,-36.310
9569,-0.1201,0.7461,0.7373,-1.587,-7.874,0.732,45.665,6.801,-36.365
9579,-0.1357,0.7280,0.7393,9.583,-9.460,-0.549,45.742,6.746,-36.436
9589,-0.1460,0.6958,0.7251,17.334,-8.118,-1.709,45.884,6.713,-36.508
9599,-0.1475,0.6362,0.7158,18.860,-5.371,-1.099,46.027,6.707,-36.552
9609,-0.1401,0.6362,0.7173,12.024,-1.953,1.282,46.099,6.702,-36.557
9619,-0.1235,0.6743,0.7266,2.136,1.221,3.784,46.093,6.685,-36.524
9629,-0.1069,0.7144,0.7363,-4.578,2.747,5.615,46.033,6.658,-36.464
9639,-0.1157,0.7432,0.7358,-5.432,3.418,6.348,45.978,6.630,-36.392
9649,-0.1313,0.7529,0.7153,-1.709,4.028,6.104,45.978,6.619,-36.321
9659,-0.1494,0.7402,0.6704,3.418,5.798,4.700,46.038,6.647,-36.249
9669,-0.1484,0.7129,0.6240,6.042,8.850,3.174,46.137,6.707,-36.161
9679,-0.1006,0.7158,0.6138,4.578,10.864,2.808,46.225,6.757,-36.063
9689,-0.0659,0.7349,0.6367,2.075,7.568,3.601,46.280,6.751,-35.980
9699,-0.0464,0.7710,0.6787,1.160,-0.061,3.967,46.318,6.685,-35.953
9709,-0.0527,0.8076,0.7187,4.883,-8.850,2.991,46.384,6.564,-35.997
9719,-0.0820,0.8101,0.7417,13.245,-15.320,1.221,46.516,6.427,-36.101
9729,-0.1382,0.7842,0.7212,21.240,-15.564,-0.305,46.719,6.334,-36.216
9739,-0.1807,0.7285,0.6655,25.635,-7.751,-2.319,46.978,6.334,-36.288
9749,-0.1758,0.6699,0.6143,20.874,4.333,-3.235,47.186,6.432,-36.282
9758,-0.1421,0.6621,0.5835,7.141,14.771,-1.892,47.285,6.575,-36.183
9769,-0.0869,0.6953,0.5908,-9.460,18.555,0.061,47.230,6.685,-36.046
9779,-0.0762,0.7261,0.6123,-20.996,14.038,1.404,47.060,6.751,-35.931
9789,-0.0635,0.7637,0.6533,-23.132,4.517,1.282,46.862,6.740,-35.892
9799,-0.0718,0.7842,0.6968,-15.930,-6.592,-0.305,46.714,6.669,-35.942
9809,-0.1079,0.7578,0.7148,-3.357,-15.198,-2.075,46.664,6.575,-36.068
9819,-0.1401,0.7139,0.7158,6.042,-17.334,-2.563,46.692,6.487,-36.211
9829,-0.1587,0.6826,0.7021,8.667,-12.634,-1.831,46.741,6.443,-36.315
9839,-0.1519,0.6724,0.7002,3.601,-4.089,-0.305,46.741,6.443,-36.348
9849,-0.1309,0.6768,0.7031,-6.348,4.272,1.770,46.653,6.471,-36.304
9859,-0.1045,0.7192,0.7168,-16.357,9.033,3.418,46.489,6.498,-36.216
9869,-0.1025,0.7612,0.7178,-20.630,9.460,3.418,46.296,6.531,-36.123
9879,-0.1074,0.7690,0.7124,-17.090,7.202,2.136,46.143,6.559,-36.057
9888,-0.1089,0.7603,0.7061,-9.521,4.150,0.549,46.060,6.575,-36.024
9899,-0.1172,0.7383,0.6909,-1.892,1.404,-0.549,46.055,6.592,-36.013
9908,-0.1304,0.7109,0.6699,2.258,0.244,-0.916,46.082,6.608,-36.019
9919,-0.1177,0.6982,0.6641,1.831,0.793,-0.732,46.104,6.625,-36.019
9929,-0.1050,0.7036,0.6738,-1.099,1.282,0.000,46.093,6.630,-36.013
9938,-0.1011,0.7085,0.6885,-3.540,0.854,0.183,46.060,6.625,-36.002
9948,-0.1016,0.7163,0.7090,-4.395,-0.488,-0.061,46.005,6.614,-36.008
9958,-0.1211,0.7178,0.7100,-2.380,-1.709,-0.488,45.972,6.608,-36.024
9968,-0.1382,0.7085,0.6963,0.977,-1.099,-0.610,45.978,6.619,-36.035
9978,-0.1353,0.7002,0.6855,3.235,0.854,-0.183,46.005,6.636,-36.030
9988,-0.1235,0.7036,0.6772,3.601,2.197,0.977,46.044,6.652,-36.008
9998,-0.0972,0.7207,0.6904,2.991,1.221,2.136,46.077,6.630,-35.986
10008,-0.0952,0.7354,0.7075,2.991,-2.502,2.686,46.110,6.581,-35.986
10018,-0.1187,0.7363,0.7163,4.517,-6.042,2.258,46.148,6.526,-36.013
10028,-0.1353,0.7280,0.7197,5.859,-6.653,1.221,46.192,6.482,-36.052
10038,-0.1445,0.7148,0.7124,5.676,-4.272,0.427,46.236,6.465,-36.079
10049,-0.1440,0.7104,0.6963,3.418,-0.061,0.122,46.263,6.482,-36.079
10058,-0.1265,0.7114,0.6826,0.488,3.906,0.427,46.269,6.515,-36.046
10068,-0.0933,0.7305,0.6943,-2.686,5.554,1.343,46.252,6.531,-35.997
10078,-0.0806,0.7559,0.7056,-3.906,3.784,2.197,46.225,6.520,-35.953
10088,-0.0903,0.7578,0.7114,-1.526,0.610,1.648,46.214,6.498,-35.936
10098,-0.0991,0.7554,0.7168,2.808,-1.526,-0.061,46.247,6.476,-35.953
10108,-0.1284,0.7368,0.6943,8.240,-1.770,-1.831,46.329,6.482,-35.975
10118,-0.1543,0.6978,0.6523,11.963,1.221,-2.991,46.450,6.542,-35.986
10128,-0.1602,0.6680,0.6084,10.803,6.958,-2.441,46.577,6.641,-35.953
10138,-0.1255,0.6631,0.5864,4.883,11.841,-0.488,46.653,6.740,-35.870
10148,-0.0825,0.6919,0.5986,-3.052,11.597,1.770,46.659,6.790,-35.771
10158,-0.0527,0.7349,0.6406,-7.935,4.761,3.296,46.609,6.762,-35.717
10168,-0.0591,0.7686,0.6899,-6.653,-6.409,2.686,46.555,6.663,-35.744
10178,-0.1016,0.7627,0.7163,1.282,-16.052,0.427,46.555,6.542,-35.859
10188,-0.1357,0.7388,0.7329,10.315,-19.409,-1.709,46.626,6.427,-36.013
10198,-0.1567,0.7002,0.7197,16.785,-16.052,-2.258,46.752,6.361,-36.145
10208,-0.1646,0.6558,0.6919,16.235,-8.789,-0.366,46.873,6.339,-36.211
10218,-0.1562,0.6494,0.6699,7.385,-0.305,3.052,46.923,6.345,-36.194
10228,-0.1260,0.6729,0.6685,-5.371,6.470,5.798,46.862,6.361,-36.107
10238,-0.0967,0.7173,0.6812,-16.785,9.155,7.324,46.703,6.361,-35.991
10248,-0.0840,0.7671,0.6992,-22.034,7.385,6.897,46.505,6.345,-35.887
10258,-0.0840,0.7891,0.7202,-19.226,2.869,5.066,46.335,6.306,-35.832
10268,-0.1025,0.7861,0.7222,-10.681,-1.831,2.502,46.241,6.268,-35.826
10278,-0.1167,0.7544,0.7046,-0.244,-3.357,0.488,46.241,6.246,-35.848
10288,-0.1118,0.7251,0.6924,5.554,-1.953,0.610,46.296,6.229,-35.859
10298,-0.1094,0.7192,0.6821,5.371,0.488,2.075,46.357,6.218,-35.837
10308,-0.1001,0.7310,0.6836,1.282,2.502,2.930,46.379,6.207,-35.799
10318,-0.0889,0.7485,0.6958,-2.991,3.357,2.380,46.357,6.202,-35.760
10328,-0.0908,0.7637,0.7036,-4.944,3.052,1.160,46.324,6.202,-35.728
10338,-0.1011,0.7651,0.6997,-3.723,2.563,-0.305,46.302,6.218,-35.711
10348,-0.1118,0.7417,0.6865,-0.488,2.563,-1.526,46.307,6.246,-35.706
10358,-0.1157,0.7178,0.6714,1.526,2.930,-1.831,46.329,6.284,-35.695
10368,-0.1157,0.7100,0.6602,1.404,3.174,-1.770,46.351,6.323,-35.684
10378,-0.0972,0.7080,0.6704,-0.244,2.563,-1.404,46.351,6.345,-35.678
10388,-0.0928,0.7178,0.6914,-1.404,0.061,-0.671,46.335,6.339,-35.684
10398,-0.1030,0.7271,0.7070,-0.549,-2.808,-0.183,46.318,6.317,-35.706
10408,-0.1147,0.7314,0.7207,1.465,-4.456,-0.122,46.324,6.284,-35.739
10418,-0.1431,0.7192,0.7041,4.333,-3.906,-0.671,46.351,6.284,-35.771
10429,-0.1499,0.6958,0.6816,5.981,-0.671,-1.221,46.406,6.312,-35.782
10438,-0.1230,0.6890,0.6792,4.089,2.869,-0.610,46.434,6.345,-35.766
10448,-0.1021,0.7100,0.6792,0.305,3.418,0.610,46.439,6.361,-35.739
10458,-0.1011,0.7314,0.6802,-2.014,1.221,1.648,46.428,6.350,-35.717
10468,-0.1040,0.7383,0.6885,-1.465,-1.038,1.770,46.423,6.328,-35.711
10478,-0.1089,0.7373,0.6875,0.671,-2.014,1.343,46.434,6.301,-35.717
10488,-0.1265,0.7251,0.6714,2.747,-1.770,0.549,46.467,6.295,-35.728
10498,-0.1333,0.7075,0.6533,2.686,0.122,-0.244,46.500,6.312,-35.728
10508,-0.1138,0.6987,0.6548,0.000,2.075,-0.183,46.505,6.334,-35.711
10518,-0.0898,0.7129,0.6792,-3.540,1.770,0.732,46.472,6.328,-35.695
10528,-0.0859,0.7368,0.7007,-4.578,-1.160,1.282,46.428,6.295,-35.695
10538,-0.0952,0.7461,0.7187,-1.648,-4.272,1.404,46.406,6.246,-35.717
10548,-0.1001,0.7451,0.7344,2.869,-5.493,1.282,46.417,6.191,-35.750
10558,-0.1128,0.7388,0.7280,6.287,-4.700,0.977,46.467,6.152,-35.777
10568,-0.1304,0.7261,0.7104,6.958,-1.892,0.671,46.527,6.147,-35.782
10578,-0.1338,0.7153,0.6885,4.700,2.747,0.122,46.571,6.180,-35.760
10588,-0.1235,0.7119,0.6694,0.854,7.080,-0.183,46.588,6.240,-35.711
10598,-0.1089,0.7148,0.6646,-2.991,8.667,0.000,46.571,6.301,-35.651
10608,-0.0894,0.7266,0.6699,-5.371,6.836,0.366,46.533,6.334,-35.596
10618,-0.0894,0.7407,0.6797,-4.700,2.258,0.977,46.494,6.328,-35.574
10628,-0.0996,0.7422,0.6851,-0.610,-2.258,1.099,46.494,6.301,-35.585
10638,-0.1113,0.7329,0.6870,3.906,-4.333,0.732,46.538,6.262,-35.607
10648,-0.1250,0.7227,0.6714,6.226,-3.235,0.305,46.599,6.251,-35.629
10658,-0.1270,0.7148,0.6548,4.639,0.366,0.183,46.659,6.262,-35.629
10668,-0.1152,0.7173,0.6426,0.122,4.089,0.305,46.675,6.295,-35.596
10678,-0.1021,0.7319,0.6338,-4.578,5.615,0.732,46.659,6.323,-35.546
10688,-0.0957,0.7505,0.6284,-6.836,4.333,0.916,46.631,6.339,-35.508
10698,-0.0879,0.7510,0.6333,-5.737,0.854,0.793,46.609,6.328,-35.497
10708,-0.0830,0.7495,0.6494,-3.235,-4.089,0.122,46.599,6.284,-35.530
10718,-0.0801,0.7441,0.6719,-0.793,-9.155,-0.671,46.593,6.207,-35.601
10728,-0.0874,0.7412,0.6875,0.671,-12.695,-1.221,46.599,6.119,-35.700
10738,-0.1030,0.7422,0.7051,1.282,-13.062,-1.526,46.599,6.037,-35.804
10748,-0.0986,0.7373,0.7256,0.854,-10.315,-1.831,46.582,5.971,-35.892
10758,-0.1016,0.7383,0.7407,-0.427,-7.141,-2.136,46.555,5.938,-35.964
10768,-0.1079,0.7300,0.7480,-1.770,-4.517,-2.991,46.511,5.927,-36.013
10778,-0.1162,0.7202,0.7544,-2.625,-2.686,-3.906,46.450,5.938,-36.063
10788,-0.1230,0.7124,0.7544,-2.869,-0.854,-4.211,46.390,5.971,-36.096
10798,-0.1333,0.7051,0.7378,-2.136,1.160,-3.601,46.340,6.021,-36.112
10808,-0.1328,0.7021,0.7187,-1.038,3.418,-2.441,46.307,6.075,-36.107
10818,-0.1274,0.7017,0.6987,-0.244,5.188,-1.099,46.296,6.136,-36.074
10828,-0.1304,0.7031,0.6816,0.305,5.615,-0.244,46.302,6.191,-36.035
10838,-0.1309,0.7075,0.6616,0.977,5.188,-0.061,46.318,6.240,-35.997
10848,-0.1226,0.7061,0.6528,2.380,4.333,-0.183,46.357,6.279,-35.969
10858,-0.1060,0.7124,0.6597,3.723,2.197,0.183,46.406,6.295,-35.953
10868,-0.1016,0.7236,0.6685,5.127,-1.160,0.793,46.461,6.273,-35.953
10878,-0.1113,0.7334,0.6729,6.592,-3.967,0.916,46.538,6.246,-35.975
10888,-0.1230,0.7324,0.6650,7.690,-4.517,0.793,46.620,6.213,-36.002
10898,-0.1387,0.7251,0.6416,7.996,-2.502,0.427,46.719,6.213,-36.019
10908,-0.1401,0.7109,0.6089,6.775,1.526,-0.061,46.813,6.246,-36.008
10918,-0.0713,0.7114,0.6255,-1.404,2.747,1.160,46.818,6.240,-35.980
10929,-0.0439,0.7373,0.6689,-5.005,-3.601,2.075,46.780,6.163,-35.991
10938,-0.0342,0.7627,0.7324,-5.981,-12.085,2.441,46.708,6.021,-36.063
10948,-0.0679,0.7842,0.7749,-3.662,-18.311,2.014,46.642,5.856,-36.183
10958,-0.0996,0.7764,0.7915,0.366,-18.616,0.549,46.609,5.718,-36.315
10968,-0.1235,0.7554,0.7920,3.540,-12.878,-1.221,46.609,5.647,-36.420
10978,-0.1382,0.7334,0.7676,4.517,-4.272,-2.930,46.615,5.658,-36.469
10988,-0.1323,0.7139,0.7334,2.686,4.150,-3.723,46.620,5.729,-36.469
10998,-0.1289,0.7041,0.7017,-1.038,9.705,-2.991,46.599,5.834,-36.414
11008,-0.1226,0.7075,0.6719,-4.395,12.512,-1.770,46.566,5.944,-36.337
11018,-0.1128,0.7104,0.6475,-5.798,12.634,-0.366,46.527,6.042,-36.249
11028,-0.1035,0.7178,0.6367,-5.310,10.010,0.671,46.500,6.103,-36.172
11038,-0.0986,0.7256,0.6348,-3.540,5.310,1.038,46.494,6.130,-36.123
11048,-0.1006,0.7241,0.6436,-1.648,0.305,0.549,46.494,6.125,-36.118
11058,-0.1094,0.7217,0.6514,-0.183,-3.357,-0.366,46.505,6.108,-36.145
11068,-0.1177,0.7104,0.6538,0.854,-4.578,-1.099,46.522,6.092,-36.183
11078,-0.1172,0.7041,0.6572,0.244,-3.418,-0.977,46.522,6.086,-36.216
11088,-0.1157,0.7085,0.6538,-1.648,-0.854,-0.244,46.511,6.092,-36.227
11098,-0.1035,0.7139,0.6553,-3.845,1.343,0.671,46.489,6.092,-36.211
11108,-0.0835,0.7227,0.6753,-6.409,1.709,1.465,46.428,6.081,-36.189
11118,-0.0835,0.7432,0.6929,-7.690,-0.549,1.465,46.362,6.053,-36.183
11128,-0.0952,0.7417,0.7051,-6.592,-3.479,0.610,46.291,6.021,-36.205
11138,-0.1001,0.7368,0.7168,-3.906,-5.432,-0.427,46.247,5.982,-36.244
11148,-0.1123,0.7310,0.7144,-0.549,-6.104,-0.977,46.230,5.949,-36.299
11158,-0.1196,0.7256,0.7095,2.869,-5.737,-1.038,46.247,5.927,-36.348
11168,-0.1123,0.7227,0.7100,5.188,-4.761,-0.366,46.285,5.900,-36.381
11178,-0.1089,0.7261,0.7090,6.592,-4.150,0.610,46.340,5.867,-36.409
11188,-0.1089,0.7329,0.7061,7.324,-4.089,0.732,46.412,5.839,-36.436
11198,-0.1118,0.7344,0.7056,7.263,-4.211,0.183,46.478,5.812,-36.464
11208,-0.1187,0.7271,0.7012,7.141,-4.150,-0.671,46.538,5.795,-36.497
11218,-0.1196,0.7217,0.6914,6.592,-3.296,-1.343,46.599,5.795,-36.530
11228,-0.1177,0.7100,0.6846,5.859,-1.953,-1.160,46.648,5.801,-36.552
11238,-0.1025,0.7046,0.6870,4.272,-0.671,-0.305,46.681,5.801,-36.563
11248,-0.0952,0.7114,0.6899,2.075,-0.244,1.099,46.692,5.784,-36.557
11258,-0.0967,0.7251,0.6851,0.488,0.183,1.892,46.697,5.773,-36.541
11268,-0.0908,0.7354,0.6851,-0.305,1.221,1.892,46.703,5.757,-36.519
11278,-0.0937,0.7412,0.6821,-0.244,2.014,1.709,46.708,5.757,-36.491
11288,-0.1045,0.7427,0.6685,0.549,2.747,1.038,46.730,5.768,-36.464
11298,-0.1064,0.7334,0.6611,1.404,3.662,0.122,46.758,5.795,-36.436
11308,-0.1055,0.7217,0.6548,1.526,3.906,-0.305,46.785,5.828,-36.409
11318,-0.0859,0.7183,0.6606,0.671,2.686,-0.366,46.802,5.845,-36.392
11328,-0.0752,0.7334,0.6802,-0.366,-0.854,-0.183,46.802,5.823,-36.403
11338,-0.0874,0.7510,0.6958,0.549,-5.188,-0.366,46.807,5.779,-36.442
11348,-0.0835,0.7637,0.7178,3.235,-7.812,-1.465,46.829,5.724,-36.508
11358,-0.0972,0.7700,0.7236,6.531,-8.362,-2.686,46.884,5.685,-36.590
11368,-0.1255,0.7559,0.7036,10.559,-6.531,-2.930,46.989,5.674,-36.656
11378,-0.1274,0.7222,0.6914,11.658,-2.747,-2.747,47.087,5.691,-36.694
11388,-0.1235,0.7065,0.6724,9.033,0.854,-2.258,47.170,5.729,-36.705
11398,-0.1152,0.7012,0.6636,3.479,3.662,-1.648,47.203,5.773,-36.689
11408,-0.0977,0.7173,0.6680,-2.930,4.456,-1.099,47.175,5.812,-36.661
11418,-0.0947,0.7314,0.6689,-6.287,3.235,-0.610,47.115,5.834,-36.645
11429,-0.1045,0.7344,0.6694,-6.104,1.709,-0.244,47.065,5.850,-36.634
11438,-0.1196,0.7305,0.6548,-3.601,1.526,-0.305,47.038,5.872,-36.623
11448,-0.1260,0.7139,0.6333,-0.916,2.625,-0.366,47.043,5.911,-36.606
11458,-0.1133,0.6987,0.6226,0.000,3.662,0.061,47.060,5.944,-36.579
11468,-0.0913,0.7056,0.6313,-1.160,2.869,1.221,47.065,5.949,-36.552
11478,-0.0825,0.7251,0.6455,-2.563,-0.061,2.441,47.054,5.922,-36.535
11488,-0.0874,0.7363,0.6670,-2.441,-3.723,2.991,47.038,5.867,-36.541
11498,-0.0767,0.7432,0.6982,-1.404,-6.836,2.747,47.016,5.784,-36.573
11508,-0.0937,0.7480,0.7153,0.122,-9.216,2.258,47.005,5.702,-36.623
11518,-0.1128,0.7422,0.7173,1.770,-9.033,1.343,47.005,5.636,-36.683
11528,-0.1206,0.7314,0.7134,2.502,-5.981,0.732,47.016,5.598,-36.722
11538,-0.1216,0.7217,0.7007,2.319,-1.709,0.977,47.027,5.592,-36.727
11548,-0.1045,0.7178,0.7012,0.122,1.953,1.587,47.016,5.598,-36.700
11558,-0.0752,0.7344,0.7202,-3.052,2.136,2.380,46.972,5.581,-36.667
11568,-0.0850,0.7554,0.7256,-3.601,-0.671,2.502,46.928,5.548,-36.656
11578,-0.1045,0.7598,0.7202,-0.977,-2.502,1.526,46.917,5.526,-36.667
11588,-0.1167,0.7437,0.6997,2.991,-1.160,0.366,46.945,5.521,-36.672
11598,-0.1162,0.7256,0.6738,4.517,2.197,-0.061,46.989,5.548,-36.656
11608,-0.1084,0.7173,0.6562,2.380,5.188,0.244,47.021,5.592,-36.617
11618,-0.0977,0.7212,0.6475,-1.587,6.104,0.732,47.021,5.630,-36.568
11628,-0.0815,0.7344,0.6602,-4.333,4.883,0.854,46.994,5.647,-36.524
11638,-0.0791,0.7466,0.6743,-4.089,1.648,0.793,46.967,5.641,-36.508
11648,-0.0952,0.7495,0.6758,-0.549,-1.465,0.549,46.967,5.625,-36.513
11658,-0.1050,0.7383,0.6733,3.357,-2.441,0.549,47.005,5.609,-36.530
11668,-0.1128,0.7329,0.6602,5.066,-1.343,0.916,47.065,5.603,-36.530
11678,-0.1025,0.7290,0.6509,4.089,0.732,1.160,47.120,5.603,-36.519
11688,-0.0903,0.7339,0.6533,0.671,1.587,1.282,47.142,5.598,-36.497
11698,-0.0723,0.7524,0.6733,-2.625,0.488,0.916,47.126,5.581,-36.486
11708,-0.0776,0.7627,0.6953,-3.235,-2.441,-0.244,47.098,5.554,-36.508
11718,-0.1006,0.7593,0.7017,-0.671,-4.700,-1.526,47.087,5.532,-36.552
11728,-0.1016,0.7412,0.7080,2.075,-4.395,-2.014,47.098,5.521,-36.601
11738,-0.1050,0.7300,0.7017,2.930,-2.869,-1.648,47.115,5.515,-36.628
11748,-0.1157,0.7212,0.6875,2.014,-0.488,-1.465,47.126,5.532,-36.645
11758,-0.1025,0.7168,0.6831,-0.061,2.136,-1.343,47.115,5.559,-36.639
11768,-0.0840,0.7256,0.6885,-1.953,2.930,-0.977,47.093,5.581,-36.623
11778,-0.0874,0.7388,0.6978,-2.258,1.282,-0.732,47.065,5.587,-36.617
11788,-0.1001,0.7363,0.6968,-0.061,-0.916,-0.916,47.060,5.587,-36.634
11798,-0.1069,0.7271,0.6938,2.808,-1.709,-0.854,47.076,5.587,-36.650
11808,-0.1167,0.7197,0.6807,4.700,-1.038,-0.610,47.120,5.598,-36.661
11818,-0.1274,0.7075,0.6519,5.127,1.099,-0.488,47.170,5.630,-36.656
11828,-0.1206,0.6963,0.6333,3.296,3.906,-0.122,47.214,5.674,-36.628
11838,-0.1021,0.7090,0.6294,-0.122,5.615,0.671,47.230,5.707,-36.584
11848,-0.0703,0.7349,0.6396,-2.808,4.028,1.526,47.219,5.707,-36.541
11858,-0.0669,0.7603,0.6567,-2.075,-0.732,2.136,47.219,5.669,-36.535
11868,-0.0767,0.7676,0.6743,1.404,-5.493,2.136,47.247,5.603,-36.557
11878,-0.0854,0.7695,0.6924,5.188,-8.423,1.221,47.302,5.532,-36.612
11888,-0.1079,0.7539,0.6924,7.812,-8.484,-0.244,47.373,5.477,-36.678
11898,-0.1089,0.7407,0.6855,7.324,-5.127,-1.648,47.439,5.466,-36.727
11908,-0.1030,0.7388,0.6841,4.822,-0.305,-2.014,47.483,5.482,-36.744
11918,-0.0918,0.7422,0.6797,1.587,3.601,-1.404,47.499,5.510,-36.727
11929,-0.0820,0.7573,0.6802,-1.160,5.066,-0.793,47.499,5.543,-36.694
11938,-0.0874,0.7627,0.6753,-1.648,3.662,-0.854,47.494,5.565,-36.672
11948,-0.0952,0.7583,0.6729,-0.549,1.099,-1.648,47.499,5.587,-36.678
11958,-0.1025,0.7451,0.6733,0.916,-1.160,-2.686,47.510,5.598,-36.700
11968,-0.1069,0.7314,0.6709,1.587,-2.319,-3.296,47.521,5.614,-36.744
11978,-0.1045,0.7246,0.6758,1.404,-2.380,-3.479,47.527,5.625,-36.782
11988,-0.1050,0.7227,0.6851,1.343,-2.197,-3.052,47.527,5.636,-36.821
11998,-0.1084,0.7187,0.6895,1.892,-1.953,-2.075,47.527,5.647,-36.848
12008,-0.1099,0.7129,0.6904,2.625,-1.709,-1.038,47.532,5.647,-36.870
12018,-0.1060,0.7139,0.6938,2.930,-1.465,-0.305,47.543,5.647,-36.881
12028,-0.1035,0.7183,0.7002,2.686,-1.587,0.366,47.554,5.636,-36.892
12038,-0.1147,0.7217,0.6958,2.869,-1.648,0.732,47.565,5.625,-36.898
12048,-0.1216,0.7231,0.6860,3.174,-0.244,0.793,47.587,5.630,-36.892
12058,-0.1177,0.7144,0.6714,3.052,2.319,1.160,47.609,5.652,-36.870
12068,-0.1108,0.7104,0.6611,1.343,4.333,1.831,47.626,5.674,-36.826
12078,-0.0981,0.7207,0.6558,-1.343,4.883,2.502,47.615,5.691,-36.771
12088,-0.0967,0.7358,0.6528,-2.869,3.723,3.296,47.598,5.691,-36.722
12098,-0.0991,0.7485,0.6528,-2.502,2.197,3.784,47.593,5.680,-36.678
12108,-0.0967,0.7534,0.6543,-1.038,1.160,3.784,47.598,5.658,-36.645
12118,-0.0942,0.7495,0.6592,-0.305,0.244,3.296,47.609,5.630,-36.623
12128,-0.0972,0.7461,0.6597,-0.427,-0.366,2.441,47.615,5.609,-36.606
12138,-0.0942,0.7480,0.6631,-1.099,-0.427,1.648,47.615,5.592,-36.601
12148,-0.0913,0.7515,0.6709,-1.465,-0.122,1.404,47.609,5.576,-36.590
12158,-0.0894,0.7568,0.6753,-0.427,0.061,1.221,47.609,5.565,-36.579
12168,-0.0815,0.7554,0.6865,1.038,-0.244,1.282,47.620,5.543,-36.573
12178,-0.0859,0.7632,0.6909,2.441,-1.526,1.343,47.648,5.515,-36.579
12188,-0.0928,0.7607,0.6851,3.662,-2.258,1.099,47.686,5.488,-36.584
12198,-0.0952,0.7603,0.6787,3.357,-1.526,0.854,47.725,5.471,-36.590
12208,-0.1050,0.7598,0.6597,2.319,0.366,0.488,47.763,5.477,-36.584
12218,-0.1035,0.7505,0.6426,0.854,2.808,-0.549,47.791,5.504,-36.568
12228,-0.0942,0.7490,0.6411,-1.465,4.150,-1.404,47.791,5.537,-36.546
12238,-0.0791,0.7505,0.6494,-2.869,3.296,-1.831,47.780,5.565,-36.535
12248,-0.0498,0.7651,0.6821,-1.709,-0.549,-1.892,47.763,5.548,-36.552
12258,-0.0557,0.7822,0.7080,1.221,-5.920,-1.404,47.774,5.493,-36.606
12268,-0.0713,0.7993,0.7178,6.042,-9.399,-1.770,47.829,5.427,-36.689
12278,-0.0972,0.8076,0.7051,11.169,-8.789,-2.869,47.939,5.389,-36.771
12288,-0.1484,0.7861,0.6465,16.785,-3.479,-4.211,48.131,5.422,-36.826
12298,-0.1660,0.7300,0.5977,18.799,5.615,-6.470,48.340,5.554,-36.826
12308,-0.1392,0.6768,0.5425,12.024,15.503,-7.324,48.494,5.746,-36.760
12318,-0.1021,0.6660,0.5381,6.653,16.113,-6.775,48.593,5.911,-36.683
12328,-0.0483,0.6870,0.6172,-1.770,5.981,-4.395,48.571,5.955,-36.667
12338,-0.0405,0.7251,0.6846,-7.507,-9.338,-1.282,48.472,5.867,-36.749
12348,-0.0840,0.7388,0.7236,-5.005,-23.499,-0.244,48.373,5.702,-36.925
12358,-0.1162,0.7358,0.7671,1.953,-29.968,-0.977,48.323,5.515,-37.156
12368,-0.1279,0.7197,0.7822,8.728,-27.466,-1.465,48.334,5.361,-37.375
12378,-0.1479,0.7036,0.7637,11.292,-18.250,-0.305,48.378,5.273,-37.513
12388,-0.1509,0.6978,0.7134,10.071,-4.883,0.977,48.433,5.262,-37.540
12398,-0.1328,0.6904,0.6870,4.883,7.690,2.380,48.455,5.323,-37.469
12408,-0.1074,0.7134,0.6631,-2.869,15.686,4.456,48.428,5.400,-37.321
12418,-0.0923,0.7441,0.6479,-9.338,17.761,5.981,48.356,5.477,-37.150
12429,-0.0752,0.7710,0.6484,-11.414,14.954,6.775,48.274,5.510,-36.991
12438,-0.0728,0.7954,0.6504,-8.606,8.667,6.531,48.224,5.504,-36.881
12448,-0.0859,0.8013,0.6426,-2.319,2.319,4.944,48.235,5.477,-36.832
12458,-0.0933,0.7847,0.6338,3.906,-1.160,3.052,48.301,5.444,-36.821
12468,-0.0986,0.7676,0.6230,7.263,-2.197,1.831,48.400,5.416,-36.826
12478,-0.0933,0.7612,0.6230,6.531,-1.282,1.465,48.488,5.400,-36.826
12488,-0.0913,0.7661,0.6333,3.418,-0.061,1.587,48.543,5.383,-36.815
12498,-0.0820,0.7734,0.6494,0.427,0.732,1.160,48.565,5.372,-36.799
12508,-0.0767,0.7842,0.6606,-1.221,0.549,0.244,48.565,5.367,-36.793
12518,-0.0825,0.7827,0.6675,-0.244,-0.366,-0.916,48.571,5.361,-36.804
12528,-0.0732,0.7739,0.6772,1.099,-1.404,-1.648,48.582,5.350,-36.826
12538,-0.0815,0.7666,0.6782,1.892,-2.869,-1.709,48.598,5.339,-36.859
12548,-0.0928,0.7539,0.6709,2.136,-3.418,-1.953,48.615,5.328,-36.898
12558,-0.1011,0.7412,0.6680,1.526,-2.441,-2.197,48.620,5.334,-36.931
12568,-0.1172,0.7310,0.6455,0.916,-0.244,-2.380,48.625,5.367,-36.947
12578,-0.1143,0.7202,0.6309,-0.305,2.563,-2.258,48.625,5.411,-36.942
12588,-0.0913,0.7266,0.6401,-2.319,3.418,-1.343,48.604,5.444,-36.925
12598,-0.0684,0.7461,0.6572,-3.296,0.610,-0.427,48.571,5.438,-36.925
12608,-0.0625,0.7734,0.6904,-1.526,-4.944,-0.183,48.549,5.389,-36.964
12618,-0.0879,0.7886,0.7017,3.967,-9.827,-1.038,48.576,5.323,-37.046
12628,-0.1123,0.7739,0.6953,11.047,-10.559,-2.380,48.675,5.279,-37.139
12638,-0.1406,0.7314,0.6592,15.747,-6.958,-2.747,48.818,5.284,-37.211
12648,-0.1436,0.6924,0.6216,14.526,-0.488,-2.197,48.950,5.334,-37.227
12658,-0.1187,0.6904,0.6108,6.897,5.493,-0.854,49.016,5.394,-37.194
12668,-0.0845,0.7173,0.6172,-1.953,7.080,0.488,49.005,5.433,-37.134
12678,-0.0693,0.7554,0.6382,-7.019,3.723,1.709,48.950,5.433,-37.095
12688,-0.0806,0.7729,0.6523,-5.920,-1.465,2.380,48.900,5.394,-37.090
12698,-0.0859,0.7676,0.6689,-1.404,-5.493,2.136,48.884,5.339,-37.117
12708,-0.0923,0.7583,0.6768,2.502,-7.568,1.709,48.895,5.273,-37.167
12718,-0.1074,0.7432,0.6685,3.906,-7.141,1.221,48.922,5.224,-37.211
12728,-0.1143,0.7358,0.6631,2.502,-4.089,0.854,48.933,5.208,-37.238
12738,-0.0864,0.7437,0.6768,-1.160,0.244,1.221,48.911,5.197,-37.227
12748,-0.0801,0.7661,0.6807,-4.456,2.625,2.319,48.867,5.191,-37.189
12758,-0.0850,0.7778,0.6841,-5.432,2.991,2.686,48.812,5.186,-37.150
12768,-0.0801,0.7847,0.6860,-4.395,2.441,2.136,48.774,5.175,-37.117
12778,-0.0815,0.7861,0.6812,-1.648,0.916,1.282,48.763,5.164,-37.101
12788,-0.1006,0.7759,0.6641,1.404,-0.183,0.244,48.785,5.169,-37.101
12798,-0.1084,0.7515,0.6470,2.747,0.732,-0.549,48.812,5.186,-37.101
12808,-0.1025,0.7397,0.6387,1.160,2.686,-0.610,48.834,5.219,-37.084
12818,-0.0928,0.7402,0.6333,-2.075,3.845,-0.122,48.818,5.246,-37.057
12828,-0.0801,0.7476,0.6450,-5.249,3.174,0.671,48.774,5.251,-37.029
12838,-0.0786,0.7656,0.6543,-6.165,1.160,1.038,48.724,5.246,-37.013
12848,-0.0796,0.7720,0.6689,-4.028,-0.916,0.793,48.686,5.224,-37.013
12858,-0.0972,0.7681,0.6626,-0.549,-1.892,0.305,48.686,5.213,-37.024
12869,-0.1099,0.7456,0.6484,1.770,-0.427,-0.305,48.702,5.224,-37.029
12878,-0.1084,0.7334,0.6328,0.854,2.563,-0.427,48.719,5.257,-37.013
12888,-0.0957,0.7314,0.6216,-2.319,5.188,0.000,48.708,5.295,-36.974
12898,-0.0654,0.7456,0.6411,-6.287,5.432,0.671,48.658,5.312,-36.931
12908,-0.0601,0.7773,0.6646,-7.629,2.136,0.671,48.593,5.301,-36.909
12918,-0.0767,0.7812,0.6836,-4.211,-2.625,-0.061,48.549,5.273,-36.931
12929,-0.0972,0.7695,0.6904,1.343,-5.493,-0.916,48.554,5.246,-36.974
12938,-0.1177,0.7495,0.6772,5.981,-4.822,-1.465,48.604,5.235,-37.024
12948,-0.1250,0.7241,0.6528,7.019,-1.221,-1.465,48.664,5.262,-37.040
12958,-0.0996,0.7153,0.6455,3.967,2.808,-0.793,48.697,5.290,-37.024
12968,-0.0708,0.7437,0.6543,-0.916,3.540,0.610,48.691,5.295,-36.996
12978,-0.0659,0.7749,0.6680,-2.808,0.610,1.404,48.669,5.273,-36.980
12988,-0.0718,0.7856,0.6826,-0.610,-3.479,1.099,48.664,5.229,-37.002
12998,-0.0820,0.7827,0.6968,3.601,-6.470,-0.244,48.691,5.186,-37.051
13008,-0.1104,0.7632,0.6895,7.507,-7.080,-1.648,48.752,5.158,-37.117
13018,-0.1343,0.7285,0.6621,8.972,-3.967,-2.380,48.829,5.175,-37.161
13028,-0.1372,0.7036,0.6304,6.836,1.892,-1.953,48.889,5.235,-37.161
13038,-0.1157,0.6997,0.6108,1.648,7.324,-0.244,48.911,5.301,-37.106
13048,-0.0820,0.7202,0.6084,-4.028,8.850,2.075,48.889,5.339,-37.024
13058,-0.0625,0.7485,0.6152,-6.348,5.310,3.845,48.845,5.328,-36.958
13068,-0.0483,0.7690,0.6445,-4.333,-1.587,4.211,48.818,5.262,-36.942
13078,-0.0645,0.7773,0.6665,0.977,-9.277,3.052,48.829,5.164,-36.991
13088,-0.0957,0.7646,0.6782,7.507,-13.977,1.282,48.889,5.065,-37.090
13098,-0.1079,0.7422,0.6865,12.146,-13.489,0.061,48.983,4.988,-37.194
13108,-0.1187,0.7246,0.6768,13.306,-9.033,0.610,49.092,4.944,-37.255
13118,-0.0933,0.7261,0.6787,9.949,-2.869,2.441,49.169,4.911,-37.260
13128,-0.0688,0.7622,0.6914,3.906,1.099,4.578,49.197,4.872,-37.222
13138,-0.0723,0.7993,0.6885,0.244,1.953,5.249,49.202,4.834,-37.172
13148,-0.0737,0.8223,0.6836,0.671,1.587,4.150,49.224,4.807,-37.134
13158,-0.0825,0.8193,0.6699,4.700,1.038,1.648,49.285,4.796,-37.117
13168,-0.1006,0.7910,0.6392,9.766,0.854,-1.099,49.400,4.818,-37.117
13178,-0.1045,0.7549,0.6118,12.024,1.587,-2.686,49.532,4.861,-37.123
13188,-0.0981,0.7393,0.5947,10.437,2.258,-2.686,49.653,4.905,-37.123
13198,-0.0835,0.7446,0.5991,6.897,1.709,-1.587,49.741,4.933,-37.117
13208,-0.0591,0.7593,0.6230,3.967,-0.366,-0.183,49.785,4.916,-37.123
13218,-0.0264,0.7974,0.6792,3.296,-4.700,0.488,49.812,4.845,-37.156
13228,-0.0469,0.8193,0.7070,7.629,-10.437,-0.366,49.878,4.757,-37.238
13238,-0.0947,0.7974,0.7031,14.832,-12.878,-1.526,49.999,4.691,-37.348
13248,-0.1206,0.7554,0.6807,18.860,-8.850,-2.136,50.164,4.669,-37.430
13258,-0.1411,0.7148,0.6338,16.968,-0.488,-2.441,50.312,4.724,-37.447
13268,-0.1387,0.6924,0.5894,7.935,9.033,-1.526,50.389,4.834,-37.392
13278,-0.1133,0.7061,0.5620,-4.822,16.235,0.671,50.361,4.955,-37.260
13288,-0.0937,0.7324,0.5449,-15.076,18.555,3.113,50.257,5.054,-37.095
13298,-0.0635,0.7568,0.5640,-20.874,15.564,4.761,50.092,5.109,-36.947
13308,-0.0576,0.7842,0.5894,-21.362,7.751,5.371,49.916,5.098,-36.854
13318,-0.0596,0.7988,0.6162,-16.357,-1.770,4.456,49.785,5.037,-36.837
13328,-0.0605,0.7998,0.6436,-8.972,-9.827,3.357,49.702,4.927,-36.892
13338,-0.0781,0.7847,0.6616,-1.770,-14.526,2.563,49.680,4.812,-36.985
13348,-0.0908,0.7710,0.6768,1.648,-14.282,2.380,49.680,4.702,-37.079
13358,-0.0884,0.7686,0.6875,0.610,-10.193,2.380,49.664,4.625,-37.139
13368,-0.0840,0.7603,0.7036,-2.319,-5.066,2.136,49.614,4.576,-37.167
13378,-0.0718,0.7632,0.7339,-6.165,-1.282,1.404,49.521,4.548,-37.167
13388,-0.0693,0.7720,0.7661,-7.385,-0.488,-0.061,49.400,4.537,-37.172
13398,-0.0801,0.7622,0.7744,-3.906,-1.831,-1.587,49.312,4.532,-37.194
13408,-0.1030,0.7456,0.7554,1.953,-2.197,-1.526,49.285,4.543,-37.222
13418,-0.1387,0.7290,0.7051,8.118,1.160,-0.366,49.329,4.587,-37.216
13428,-0.1313,0.7095,0.6465,11.902,7.996,1.282,49.438,4.658,-37.145
13438,-0.1040,0.7153,0.6064,10.803,14.404,4.395,49.559,4.735,-37.007
13448,-0.0835,0.7368,0.5747,7.263,17.456,7.629,49.669,4.796,-36.826
13458,-0.0537,0.7681,0.5767,3.052,15.869,8.972,49.752,4.812,-36.645
13468,-0.0508,0.8018,0.5908,1.465,10.437,8.301,49.812,4.796,-36.513
13478,-0.0449,0.8232,0.6113,2.625,3.479,6.531,49.883,4.746,-36.442
13488,-0.0400,0.8550,0.6377,7.019,-2.991,3.906,49.982,4.669,-36.442
13498,-0.0605,0.8564,0.6382,15.381,-7.690,0.732,50.164,4.603,-36.491
13508,-0.0850,0.8228,0.6152,24.048,-8.118,-1.709,50.427,4.565,-36.568
13518,-0.1021,0.7783,0.5811,28.381,-4.028,-2.563,50.735,4.576,-36.612
13528,-0.0684,0.7612,0.5781,24.658,1.160,-2.014,50.999,4.592,-36.617
13538,-0.0508,0.7676,0.5894,15.991,2.197,-1.038,51.174,4.598,-36.606
13548,-0.0630,0.7827,0.5991,7.568,-0.610,-0.916,51.262,4.592,-36.617
13558,-0.0718,0.7979,0.6147,2.136,-3.662,-1.526,51.290,4.576,-36.656
13568,-0.0806,0.7920,0.6221,1.160,-5.798,-2.380,51.301,4.559,-36.716
13578,-0.0874,0.7754,0.6240,1.831,-6.653,-2.930,51.312,4.543,-36.788
13588,-0.1030,0.7559,0.6113,2.441,-6.592,-2.930,51.328,4.543,-36.859
13598,-0.1030,0.7354,0.6035,2.258,-5.371,-2.319,51.339,4.543,-36.914
13608,-0.0879,0.7358,0.6113,-0.061,-3.357,-0.977,51.328,4.537,-36.947
13618,-0.0635,0.7588,0.6343,-2.625,-2.625,0.427,51.284,4.510,-36.964
13628,-0.0654,0.7832,0.6533,-3.357,-4.028,1.648,51.240,4.460,-36.985
13638,-0.0771,0.7969,0.6621,-1.221,-5.737,2.380,51.218,4.406,-37.013
13648,-0.0811,0.7988,0.6704,1.648,-5.920,2.319,51.218,4.351,-37.046
13658,-0.0952,0.7949,0.6567,3.967,-4.456,1.709,51.246,4.318,-37.073
13668,-0.1045,0.7788,0.6274,4.089,-0.916,1.038,51.284,4.323,-37.073
13678,-0.1021,0.7676,0.6025,1.831,3.784,0.732,51.312,4.356,-37.040
13688,-0.0835,0.7710,0.5879,-1.953,7.324,0.854,51.312,4.400,-36.974
13698,-0.0615,0.7817,0.5908,-5.432,7.812,1.221,51.279,4.433,-36.909
13708,-0.0513,0.7944,0.6050,-6.592,4.456,1.526,51.235,4.433,-36.859
13718,-0.0459,0.8008,0.6299,-4.944,-1.282,1.526,51.191,4.395,-36.865
13728,-0.0557,0.8062,0.6543,-1.160,-7.080,1.038,51.169,4.329,-36.909
13738,-0.0801,0.7939,0.6606,3.601,-10.132,0.061,51.191,4.268,-36.991
13748,-0.0869,0.7793,0.6592,6.348,-8.606,-0.671,51.235,4.224,-37.062
13758,-0.0762,0.7773,0.6636,5.981,-4.272,-0.427,51.273,4.202,-37.095
13768,-0.0820,0.7808,0.6484,4.272,0.122,0.061,51.306,4.208,-37.095
13778,-0.0713,0.7842,0.6465,2.014,3.906,-0.122,51.323,4.230,-37.068
13788,-0.0679,0.7974,0.6523,0.610,5.066,-0.366,51.323,4.257,-37.029
13798,-0.0757,0.7935,0.6455,1.770,3.845,-0.793,51.339,4.290,-37.002
13808,-0.0840,0.7837,0.6357,3.052,2.380,-0.977,51.367,4.318,-36.991
13818,-0.0977,0.7666,0.6191,4.211,1.831,-0.977,51.405,4.345,-36.985
13828,-0.0894,0.7534,0.6035,3.357,2.808,-0.732,51.438,4.378,-36.964
13838,-0.0786,0.7632,0.5928,0.671,4.089,0.183,51.454,4.406,-36.931
13848,-0.0703,0.7773,0.5889,-1.038,4.761,1.099,51.460,4.422,-36.887
13858,-0.0649,0.7969,0.5928,-1.160,4.150,1.465,51.471,4.433,-36.848
13868,-0.0698,0.8027,0.5908,1.526,2.197,1.038,51.509,4.433,-36.821
13878,-0.0649,0.8066,0.6011,5.005,-0.244,0.427,51.581,4.422,-36.821
13888,-0.0537,0.8091,0.6143,7.996,-3.235,-0.122,51.669,4.389,-36.848
13898,-0.0649,0.8096,0.6216,10.254,-6.470,-0.244,51.773,4.345,-36.903
13908,-0.0859,0.8022,0.6143,11.353,-7.324,-0.366,51.888,4.307,-36.958
13918,-0.1025,0.7812,0.5942,10.559,-4.700,-0.610,51.998,4.301,-37.002
13928,-0.0981,0.7622,0.5781,6.226,0.061,-0.732,52.070,4.318,-37.007
13938,-0.0879,0.7598,0.5723,-0.977,3.479,-0.366,52.070,4.356,-36.980
13948,-0.0649,0.7720,0.5908,-8.118,3.296,-0.183,51.998,4.373,-36.953
13958,-0.0542,0.7871,0.6196,-11.169,-0.488,-0.183,51.883,4.356,-36.958
13968,-0.0449,0.8062,0.6602,-9.033,-5.554,-0.244,51.779,4.307,-37.007
13978,-0.0483,0.8149,0.6924,-3.418,-10.132,0.061,51.718,4.224,-37.084
13988,-0.0835,0.8032,0.6870,3.235,-11.841,0.244,51.718,4.153,-37.178
13998,-0.1143,0.7812,0.6655,7.202,-8.240,0.183,51.768,4.125,-37.238
14008,-0.1177,0.7573,0.6382,6.348,-0.305,0.061,51.812,4.147,-37.244
14018,-0.1011,0.7559,0.6143,0.732,7.629,0.427,51.812,4.208,-37.178
14028,-0.0845,0.7632,0.5991,-6.348,12.146,1.099,51.757,4.285,-37.079
14038,-0.0728,0.7798,0.5937,-11.597,12.573,1.648,51.658,4.345,-36.969
14048,-0.0596,0.7979,0.6001,-13.000,9.644,1.587,51.553,4.384,-36.881
14058,-0.0527,0.8066,0.6069,-9.705,4.761,1.221,51.476,4.389,-36.837
14068,-0.0591,0.8027,0.6089,-3.601,-0.305,0.916,51.454,4.373,-36.832
14078,-0.0703,0.7881,0.6064,2.930,-3.906,0.671,51.487,4.340,-36.859
14088,-0.0928,0.7700,0.5952,7.690,-5.066,0.427,51.570,4.312,-36.898
14098,-0.1064,0.7485,0.5913,9.399,-3.784,0.000,51.663,4.312,-36.925
14108,-0.1152,0.7344,0.5835,8.911,-1.770,0.061,51.746,4.329,-36.942
14118,-0.1084,0.7197,0.5815,7.446,-0.488,0.977,51.817,4.340,-36.936
14128,-0.0889,0.7310,0.5952,5.005,-1.465,3.540,51.855,4.312,-36.931
14138,-0.0615,0.7588,0.6191,3.540,-4.944,6.531,51.877,4.224,-36.925
14148,-0.0356,0.7939,0.6528,3.479,-10.315,9.094,51.899,4.070,-36.953
14158,-0.0474,0.8247,0.6689,6.042,-15.381,10.254,51.943,3.878,-37.007
14168,-0.0605,0.8364,0.6733,10.254,-17.029,9.583,52.037,3.697,-37.084
14178,-0.0713,0.8257,0.6665,13.489,-14.160,8.301,52.152,3.543,-37.145
14188,-0.0747,0.8105,0.6484,13.367,-7.996,7.141,52.278,3.444,-37.167
14198,-0.0620,0.8154,0.6333,9.033,-1.221,5.676,52.366,3.395,-37.139
14208,-0.0396,0.8315,0.6309,3.540,3.235,4.150,52.410,3.367,-37.090
14218,-0.0400,0.8472,0.6196,-0.732,4.944,3.113,52.421,3.362,-37.029
14228,-0.0430,0.8564,0.6030,-1.587,5.676,1.526,52.432,3.373,-36.974
14238,-0.0347,0.8501,0.5928,-0.061,5.676,0.061,52.460,3.395,-36.931
14248,-0.0518,0.8369,0.5654,3.235,4.578,-1.404,52.531,3.428,-36.903
14258,-0.0454,0.8101,0.5532,6.165,3.418,-2.869,52.625,3.466,-36.892
14268,-0.0439,0.7866,0.5620,6.775,0.977,-2.991,52.707,3.483,-36.903
14278,-0.0498,0.7788,0.5703,5.371,-2.014,-2.625,52.767,3.488,-36.936
14288,-0.0566,0.7749,0.5879,3.235,-4.272,-2.075,52.800,3.477,-36.980
14298,-0.0635,0.7744,0.6040,1.526,-5.310,-1.648,52.800,3.461,-37.035
14308,-0.0518,0.7827,0.6289,0.061,-5.188,-1.038,52.784,3.433,-37.084
14318,-0.0586,0.7896,0.6411,-0.244,-5.188,-0.305,52.762,3.400,-37.123
14328,-0.0762,0.7861,0.6387,0.366,-4.395,-0.061,52.745,3.384,-37.161
14338,-0.0796,0.7822,0.6348,1.038,-1.892,-0.122,52.734,3.384,-37.178
14348,-0.0757,0.7798,0.6279,1.160,0.916,0.366,52.734,3.400,-37.167
14358,-0.0708,0.7808,0.6162,0.305,2.686,1.343,52.729,3.411,-37.139
14368,-0.0703,0.7900,0.6104,-0.793,2.869,2.136,52.718,3.417,-37.101
14378,-0.0605,0.8013,0.6113,-1.343,2.136,2.197,52.707,3.411,-37.073
14388,-0.0522,0.8115,0.6196,-0.977,0.671,2.136,52.696,3.395,-37.051
14398,-0.0640,0.8174,0.6138,0.244,-0.916,1.892,52.701,3.378,-37.051
14408,-0.0732,0.8101,0.6016,1.953,-0.977,1.160,52.729,3.367,-37.051
14418,-0.0713,0.8013,0.5937,2.441,0.488,0.610,52.762,3.373,-37.040
14428,-0.0654,0.7954,0.5796,1.465,2.319,0.732,52.789,3.389,-37.018
14438,-0.0508,0.8047,0.5786,-1.038,3.601,1.221,52.795,3.395,-36.985
14448,-0.0410,0.8184,0.5850,-3.174,3.479,1.343,52.784,3.395,-36.947
14458,-0.0381,0.8252,0.5937,-3.479,2.075,1.038,52.762,3.384,-36.925
14468,-0.0396,0.8296,0.6001,-2.441,0.305,0.183,52.751,3.373,-36.920
14478,-0.0522,0.8184,0.6025,-0.427,-1.221,-0.854,52.756,3.367,-36.936
14488,-0.0659,0.7979,0.6025,0.854,-1.770,-1.648,52.767,3.378,-36.958
14498,-0.0688,0.7842,0.6064,0.732,-1.099,-2.014,52.767,3.389,-36.980
14508,-0.0620,0.7808,0.6113,-0.610,-0.183,-1.465,52.751,3.406,-36.991
14518,-0.0591,0.7832,0.6123,-1.709,0.244,-0.366,52.729,3.406,-36.991
14528,-0.0557,0.7905,0.6211,-2.441,0.244,0.610,52.696,3.400,-36.985
14538,-0.0576,0.7983,0.6255,-2.075,-0.366,0.977,52.668,3.389,-36.980
14548,-0.0620,0.7964,0.6245,-1.099,-0.977,0.793,52.646,3.378,-36.985
14558,-0.0684,0.7915,0.6284,-0.793,-1.038,0.427,52.630,3.373,-36.991
14568,-0.0693,0.7886,0.6279,-1.465,-0.610,0.122,52.603,3.378,-36.996
14578,-0.0674,0.7837,0.6328,-2.258,0.061,0.061,52.564,3.378,-36.996
14588,-0.0723,0.7827,0.6353,-2.930,1.038,0.427,52.520,3.389,-36.985
14598,-0.0723,0.7788,0.6382,-2.808,1.831,1.038,52.476,3.400,-36.964
14608,-0.0698,0.7729,0.6343,-2.258,2.441,1.770,52.438,3.406,-36.931
14618,-0.0630,0.7754,0.6323,-1.831,2.747,2.441,52.405,3.406,-36.898
14628,-0.0674,0.7739,0.6216,-1.648,3.052,3.418,52.377,3.400,-36.848
14638,-0.0742,0.7793,0.6040,-2.563,4.211,4.333,52.355,3.406,-36.793
14648,-0.0835,0.7886,0.5752,-3.967,6.836,4.822,52.333,3.422,-36.705
14658,-0.0771,0.7905,0.5532,-5.127,10.132,4.822,52.317,3.455,-36.595
14668,-0.0601,0.7920,0.5454,-6.042,12.207,4.639,52.295,3.494,-36.475
14678,-0.0376,0.7920,0.5522,-6.104,11.719,5.249,52.273,3.510,-36.348
14688,-0.0117,0.8047,0.5874,-7.202,7.324,6.165,52.224,3.483,-36.249
14698,-0.0098,0.8335,0.6138,-6.775,0.488,7.019,52.174,3.400,-36.205
14708,-0.0273,0.8452,0.6357,-2.991,-6.165,6.653,52.152,3.290,-36.211
14718,-0.0508,0.8394,0.6509,1.282,-9.216,5.432,52.163,3.186,-36.249
14728,-0.0752,0.8315,0.6431,4.822,-7.996,2.991,52.207,3.126,-36.299
14738,-0.0698,0.8086,0.6377,5.859,-3.784,0.305,52.262,3.104,-36.326
14748,-0.0630,0.7939,0.6353,3.723,0.427,-0.916,52.289,3.120,-36.326
14758,-0.0444,0.7979,0.6470,0.244,2.747,-1.282,52.278,3.142,-36.315
14768,-0.0342,0.8120,0.6621,-2.197,2.441,-1.038,52.240,3.148,-36.299
14778,-0.0381,0.8291,0.6704,-1.038,0.916,-0.488,52.218,3.148,-36.293
14788,-0.0493,0.8394,0.6675,3.479,0.000,-0.305,52.245,3.148,-36.299
14798,-0.0854,0.8301,0.6284,9.827,0.854,-1.160,52.350,3.175,-36.299
14808,-0.1313,0.7847,0.5596,16.113,5.066,-3.296,52.531,3.279,-36.277
14818,-0.1416,0.7441,0.4980,18.982,11.780,-5.676,52.762,3.450,-36.216
14828,-0.0771,0.7187,0.4766,17.578,17.273,-5.798,52.976,3.615,-36.118
14838,0.0234,0.7500,0.5308,11.047,14.465,-2.197,53.108,3.669,-36.013
14848,0.0449,0.8247,0.5913,5.371,0.854,2.808,53.179,3.587,-35.991
14858,0.0112,0.8696,0.6338,7.080,-15.442,4.944,53.251,3.417,-36.085
14870,-0.0347,0.8784,0.6694,13.306,-26.245,3.418,53.366,3.219,-36.277
14878,-0.0742,0.8584,0.6709,20.569,-27.161,0.000,53.542,3.065,-36.491
14888,-0.1030,0.8110,0.6426,23.010,-19.348,-3.540,53.740,3.005,-36.667
14898,-0.1143,0.7671,0.5981,18.555,-6.042,-5.920,53.904,3.054,-36.755
14908,-0.0952,0.7485,0.5640,7.935,7.446,-5.859,53.976,3.170,-36.727
14918,-0.0684,0.7632,0.5479,-4.395,16.479,-3.540,53.943,3.307,-36.617
14928,-0.0483,0.7881,0.5522,-14.038,18.555,-0.793,53.822,3.417,-36.469
14938,-0.0449,0.8203,0.5659,-17.822,14.282,1.831,53.668,3.477,-36.343
14948,-0.0557,0.8418,0.5796,-14.221,6.042,2.747,53.547,3.488,-36.277
14958,-0.0669,0.8340,0.5801,-5.920,-2.197,1.404,53.503,3.466,-36.288
14968,-0.0718,0.8071,0.5811,2.014,-7.751,-0.549,53.531,3.428,-36.354
14978,-0.0786,0.7827,0.5737,5.859,-9.277,-1.526,53.586,3.400,-36.436
14988,-0.0698,0.7690,0.5737,4.333,-7.202,-1.343,53.619,3.378,-36.502
14998,-0.0503,0.7725,0.5879,-0.854,-3.723,-0.061,53.602,3.351,-36.535
15008,-0.0405,0.7998,0.6055,-6.226,-1.099,1.282,53.531,3.323,-36.535
15018,-0.0391,0.8193,0.6221,-8.972,0.061,1.831,53.438,3.296,-36.524
15028,-0.0420,0.8286,0.6353,-8.240,-0.305,1.282,53.344,3.274,-36.519
15038,-0.0479,0.8301,0.6421,-4.761,-1.526,0.122,53.289,3.257,-36.530
15048,-0.0645,0.8105,0.6323,-0.183,-2.197,-0.854,53.273,3.257,-36.552
15058,-0.0718,0.7886,0.6172,2.808,-0.916,-1.099,53.284,3.268,-36.568
15068,-0.0669,0.7822,0.6025,2.686,1.709,-0.244,53.306,3.285,-36.552
15078,-0.0586,0.7896,0.5957,1.038,3.723,1.160,53.311,3.301,-36.519
15088,-0.0430,0.8105,0.6094,-1.343,3.723,2.197,53.300,3.296,-36.475
15098,-0.0571,0.8281,0.6128,-1.892,1.709,2.014,53.284,3.290,-36.447
15108,-0.0898,0.8286,0.5962,0.427,0.427,0.305,53.300,3.307,-36.442
15118,-0.0918,0.8062,0.5801,3.479,1.709,-1.770,53.344,3.351,-36.442
15128,-0.0859,0.7852,0.5601,4.639,3.540,-2.258,53.399,3.406,-36.425
15138,-0.0664,0.7754,0.5474,3.357,4.211,-1.221,53.448,3.444,-36.398
15148,-0.0264,0.7881,0.5713,-0.122,2.747,0.671,53.454,3.439,-36.370
15158,-0.0112,0.8223,0.6016,-2.319,-1.648,2.136,53.438,3.384,-36.370
15168,-0.0308,0.8423,0.6143,-0.671,-5.981,2.136,53.432,3.312,-36.409
15178,-0.0591,0.8369,0.6196,2.930,-7.263,0.732,53.459,3.263,-36.464
15188,-0.0825,0.8159,0.6016,5.981,-4.700,-1.038,53.514,3.257,-36.508
15198,-0.0874,0.7896,0.5801,5.859,0.183,-2.197,53.575,3.296,-36.519
15208,-0.0830,0.7749,0.5571,1.831,5.005,-1.892,53.602,3.356,-36.491
15218,-0.0571,0.7822,0.5532,-3.601,7.568,-0.854,53.580,3.411,-36.431
15228,-0.0361,0.8042,0.5581,-6.897,6.348,0.427,53.531,3.428,-36.381
15238,-0.0288,0.8223,0.5747,-6.531,1.953,1.465,53.487,3.411,-36.354
15248,-0.0361,0.8286,0.5933,-3.357,-3.967,1.770,53.459,3.362,-36.376
15258,-0.0552,0.8198,0.6094,0.305,-8.667,1.160,53.459,3.296,-36.436
15268,-0.0620,0.8091,0.6250,1.709,-10.315,0.244,53.459,3.235,-36.519
15278,-0.0728,0.8057,0.6382,0.854,-8.667,-0.732,53.443,3.197,-36.595
15288,-0.0767,0.8042,0.6411,-0.610,-4.333,-1.587,53.416,3.197,-36.639
15298,-0.0713,0.8032,0.6440,-1.709,0.916,-1.343,53.377,3.219,-36.639
15308,-0.0605,0.8022,0.6421,-1.892,4.639,-0.122,53.339,3.252,-36.601
15318,-0.0591,0.8071,0.6318,-1.648,5.798,1.099,53.311,3.279,-36.552
15328,-0.0566,0.8115,0.6226,-1.221,5.310,1.648,53.295,3.296,-36.497
15338,-0.0562,0.8174,0.6113,-0.732,4.028,1.587,53.289,3.301,-36.458
15348,-0.0693,0.8115,0.5996,0.305,3.418,0.427,53.295,3.329,-36.425
15358,-0.0747,0.7983,0.5898,0.916,4.028,-0.854,53.311,3.367,-36.398
15368,-0.0752,0.7866,0.5820,1.160,4.883,-1.404,53.328,3.417,-36.365
15378,-0.0601,0.7827,0.5811,0.854,5.005,-0.488,53.339,3.450,-36.332
15388,-0.0479,0.7959,0.5869,0.244,3.662,1.404,53.344,3.455,-36.293
15398,-0.0425,0.8140,0.5977,0.305,1.526,2.930,53.355,3.433,-36.260
15408,-0.0381,0.8354,0.6089,0.854,-0.305,2.991,53.366,3.395,-36.249
15418,-0.0537,0.8423,0.6045,2.258,-1.160,1.831,53.399,3.367,-36.244
15428,-0.0630,0.8369,0.5967,3.540,0.183,-0.122,53.448,3.373,-36.244
15438,-0.0645,0.8237,0.5850,3.723,2.502,-1.709,53.492,3.400,-36.233
15448,-0.0615,0.8042,0.5718,2.747,4.211,-2.319,53.536,3.444,-36.216
15458,-0.0537,0.7998,0.5693,0.244,4.272,-2.075,53.547,3.483,-36.194
15468,-0.0562,0.8062,0.5684,-1.892,2.930,-1.587,53.542,3.510,-36.178
15478,-0.0527,0.8120,0.5718,-2.563,1.282,-1.160,53.531,3.527,-36.172
15488,-0.0571,0.8159,0.5737,-1.831,-0.122,-1.221,53.525,3.532,-36.183
15498,-0.0664,0.8052,0.5718,0.061,-1.099,-1.892,53.536,3.543,-36.205
15508,-0.0801,0.7891,0.5635,1.343,-1.587,-2.563,53.558,3.565,-36.233
15518,-0.0752,0.7744,0.5654,1.526,-1.709,-2.502,53.575,3.587,-36.260
15528,-0.0649,0.7695,0.5762,0.366,-2.747,-1.587,53.569,3.582,-36.293
15538,-0.0625,0.7744,0.5952,-0.854,-4.517,-0.305,53.547,3.560,-36.332
15548,-0.0601,0.7891,0.6133,-0.977,-6.287,0.793,53.520,3.516,-36.376
15558,-0.0713,0.7993,0.6182,0.793,-6.897,1.404,53.514,3.472,-36.425
15568,-0.0674,0.8018,0.6172,3.235,-5.432,1.831,53.536,3.428,-36.458
15578,-0.0664,0.8042,0.6099,4.639,-3.357,2.441,53.569,3.389,-36.469
15588,-0.0513,0.8086,0.6138,4.578,-1.770,2.686,53.608,3.351,-36.469
15598,-0.0337,0.8262,0.6323,2.808,-1.953,2.686,53.630,3.307,-36.469
15608,-0.0469,0.8423,0.6411,1.892,-3.601,2.197,53.635,3.257,-36.480
15618,-0.0552,0.8486,0.6455,2.380,-3.723,0.977,53.652,3.224,-36.508
15628,-0.0698,0.8452,0.6328,3.845,-1.709,0.000,53.679,3.224,-36.519
15638,-0.0850,0.8320,0.6055,5.249,2.258,-0.977,53.740,3.257,-36.508
15648,-0.0918,0.8223,0.5601,5.371,7.141,-1.831,53.811,3.334,-36.464
15658,-0.0928,0.8052,0.5146,5.432,11.475,-2.258,53.910,3.444,-36.381
15668,-0.0425,0.8022,0.5107,4.272,13.062,-2.625,53.992,3.532,-36.293
15678,0.0073,0.8291,0.5503,2.869,8.240,-2.625,54.047,3.560,-36.238
15688,0.0244,0.8594,0.5952,4.456,-2.991,-2.563,54.102,3.516,-36.277
15698,-0.0083,0.8672,0.6299,9.644,-14.954,-2.747,54.185,3.417,-36.420
15708,-0.0674,0.8452,0.6396,16.479,-20.996,-3.601,54.327,3.329,-36.606
15718,-0.0996,0.8037,0.6304,19.836,-17.883,-4.761,54.487,3.285,-36.782
15728,-0.1040,0.7637,0.6064,15.991,-8.484,-5.005,54.613,3.307,-36.881
15738,-0.1084,0.7534,0.5737,5.859,2.563,-3.723,54.651,3.384,-36.881
15748,-0.1001,0.7578,0.5474,-5.676,11.658,-2.502,54.591,3.494,-36.799
15758,-0.0845,0.7651,0.5293,-14.465,16.541,-0.916,54.465,3.615,-36.672
15768,-0.0654,0.7798,0.5298,-19.836,16.357,0.916,54.289,3.708,-36.530
15778,-0.0430,0.8101,0.5444,-20.752,10.986,2.441,54.113,3.735,-36.431
15788,-0.0488,0.8247,0.5532,-15.747,1.831,2.930,53.976,3.713,-36.398
15798,-0.0532,0.8193,0.5713,-7.812,-6.592,2.808,53.910,3.647,-36.431
15808,-0.0547,0.8130,0.5908,-1.282,-11.536,2.686,53.893,3.554,-36.513
15818,-0.0547,0.8076,0.6074,1.343,-12.756,2.625,53.893,3.455,-36.601
15828,-0.0503,0.8105,0.6289,-0.366,-11.169,2.808,53.866,3.362,-36.672
15838,-0.0615,0.8252,0.6440,-3.235,-8.240,2.502,53.811,3.290,-36.722
15848,-0.0601,0.8320,0.6543,-4.883,-3.906,1.465,53.745,3.257,-36.749
15858,-0.0444,0.8423,0.6655,-5.371,0.122,0.977,53.668,3.241,-36.738
15868,-0.0527,0.8481,0.6523,-3.540,2.380,0.671,53.624,3.246,-36.716
15878,-0.0649,0.8301,0.6279,-0.549,3.723,-0.061,53.613,3.268,-36.689
15888,-0.0659,0.8110,0.6108,0.671,5.127,-0.732,53.613,3.312,-36.650
15898,-0.0610,0.8032,0.5952,-0.183,6.226,-1.221,53.613,3.356,-36.606
15908,-0.0649,0.8042,0.5825,-1.526,6.409,-1.343,53.608,3.411,-36.563
15918,-0.0649,0.8027,0.5776,-1.587,6.104,-1.404,53.602,3.461,-36.524
15928,-0.0601,0.8071,0.5796,-0.427,5.005,-1.221,53.602,3.499,-36.491
15937,-0.0781,0.8062,0.5610,2.502,3.296,-1.099,53.646,3.538,-36.469
15948,-0.0757,0.7881,0.5488,5.371,2.563,-1.099,53.718,3.571,-36.458
15958,-0.0684,0.7749,0.5449,5.981,1.953,-0.183,53.789,3.593,-36.442
15968,-0.0542,0.7798,0.5498,3.784,1.038,0.793,53.833,3.587,-36.425
15978,-0.0342,0.7993,0.5737,-0.366,-1.038,1.526,53.839,3.554,-36.425
15988,-0.0449,0.8164,0.5869,-2.625,-3.784,1.709,53.817,3.505,-36.447
15997,-0.0542,0.8252,0.5986,-2.075,-4.761,0.916,53.795,3.466,-36.480
16008,-0.0732,0.8247,0.5952,0.305,-3.967,-0.061,53.800,3.450,-36.513
16017,-0.1021,0.8120,0.5591,4.578,-1.343,-1.160,53.860,3.477,-36.530
16028,-0.0806,0.7886,0.5420,8.118,2.258,-1.770,53.959,3.516,-36.524
16037,-0.0366,0.7954,0.5522,8.606,2.380,-0.488,54.058,3.521,-36.508
16048,0.0015,0.8276,0.5898,7.751,-3.235,1.526,54.135,3.455,-36.524
16058,-0.0093,0.8623,0.6279,7.935,-12.268,2.869,54.207,3.329,-36.606
16068,-0.0464,0.8726,0.6499,10.132,-18.494,2.258,54.289,3.197,-36.744
16077,-0.0811,0.8516,0.6606,11.597,-18.250,0.549,54.377,3.098,-36.887
16087,-0.0981,0.8179,0.6494,9.583,-11.414,-1.526,54.437,3.065,-36.991
16097,-0.0996,0.7993,0.6221,3.235,-1.282,-2.930,54.443,3.109,-37.018
16107,-0.0962,0.7812,0.5859,-4.211,8.484,-3.357,54.393,3.208,-36.969
16117,-0.0908,0.7676,0.5459,-10.620,15.747,-2.563,54.294,3.345,-36.854
16128,-0.0693,0.7651,0.5229,-15.930,19.470,-0.793,54.163,3.472,-36.700
16137,-0.0381,0.7896,0.5264,-19.348,17.639,1.404,53.998,3.554,-36.552
16147,-0.0283,0.8140,0.5376,-18.188,10.071,3.052,53.849,3.565,-36.453
16157,-0.0371,0.8262,0.5542,-12.695,0.366,3.113,53.751,3.532,-36.431
16167,-0.0503,0.8188,0.5693,-5.432,-6.958,2.380,53.707,3.466,-36.469
16177,-0.0586,0.7979,0.5835,-0.366,-10.010,1.892,53.701,3.389,-36.541
16187,-0.0693,0.7788,0.5874,-0.488,-8.911,1.892,53.685,3.329,-36.601
16197,-0.0752,0.7812,0.5933,-4.578,-4.761,2.136,53.630,3.296,-36.628
16207,-0.0542,0.7930,0.6123,-10.071,-0.122,2.319,53.520,3.274,-36.612
16217,-0.0376,0.8203,0.6333,-13.794,2.380,2.625,53.372,3.252,-36.579
16227,-0.0283,0.8496,0.6533,-13.062,1.892,2.563,53.234,3.230,-36.552
16237,-0.0464,0.8550,0.6577,-7.263,-0.793,2.014,53.152,3.197,-36.546
16247,-0.0615,0.8374,0.6543,0.366,-2.930,1.099,53.146,3.175,-36.563
16257,-0.0752,0.8125,0.6387,6.104,-3.296,0.366,53.190,3.164,-36.584
16267,-0.0742,0.7954,0.6221,7.690,-1.831,0.122,53.256,3.159,-36.601
16277,-0.0615,0.7964,0.6162,5.249,0.244,0.305,53.295,3.164,-36.595
16287,-0.0625,0.8057,0.6060,2.075,1.831,0.610,53.317,3.175,-36.579
16297,-0.0586,0.8164,0.6104,-0.366,2.869,0.122,53.311,3.192,-36.552
16307,-0.0513,0.8193,0.6069,-0.854,3.174,-0.549,53.306,3.208,-36.530
16317,-0.0571,0.8179,0.5991,0.366,2.625,-0.916,53.317,3.230,-36.513
16327,-0.0576,0.8115,0.5898,2.625,2.319,-1.465,53.350,3.257,-36.508
16337,-0.0679,0.7979,0.5703,5.615,2.319,-1.587,53.416,3.290,-36.497
16347,-0.0742,0.7783,0.5449,7.996,3.235,-1.221,53.514,3.334,-36.475
16357,-0.0562,0.7749,0.5410,7.935,4.333,-0.610,53.608,3.362,-36.447
16367,-0.0249,0.7842,0.5566,5.737,2.930,0.488,53.679,3.356,-36.420
16377,-0.0078,0.8105,0.5952,3.174,-1.892,1.709,53.707,3.301,-36.425
16387,-0.0229,0.8345,0.6211,3.113,-7.935,1.892,53.734,3.224,-36.475
16397,-0.0615,0.8364,0.6289,5.859,-11.108,1.038,53.778,3.148,-36.563
16407,-0.0811,0.8169,0.6221,8.484,-8.850,-0.183,53.849,3.115,-36.634
16417,-0.0903,0.7959,0.6006,7.935,-3.113,-0.610,53.915,3.120,-36.661
16428,-0.0962,0.7812,0.5688,3.479,3.357,-0.366,53.954,3.170,-36.639
16437,-0.0752,0.7808,0.5557,-3.357,8.179,0.366,53.932,3.224,-36.568
16447,-0.0464,0.7998,0.5703,-9.033,8.728,1.099,53.849,3.263,-36.491
16457,-0.0259,0.8247,0.5908,-10.376,4.761,1.587,53.756,3.263,-36.442
16467,-0.0327,0.8389,0.6094,-6.592,-1.648,1.892,53.690,3.219,-36.447
16477,-0.0576,0.8345,0.6133,0.427,-6.653,1.648,53.696,3.170,-36.491
16487,-0.0791,0.8135,0.6025,6.287,-7.202,1.160,53.751,3.131,-36.541
16497,-0.0884,0.7915,0.5786,7.629,-3.479,0.854,53.828,3.126,-36.563
16507,-0.0835,0.7739,0.5483,3.784,2.441,0.854,53.871,3.148,-36.541
16517,-0.0747,0.7778,0.5225,-2.930,7.629,1.282,53.871,3.197,-36.469
16527,-0.0444,0.7876,0.5186,-9.277,10.071,2.075,53.811,3.235,-36.376
16537,-0.0137,0.8145,0.5371,-13.000,8.057,2.991,53.718,3.235,-36.293
16547,-0.0054,0.8433,0.5674,-12.207,1.404,3.235,53.619,3.186,-36.260
16557,-0.0059,0.8618,0.6055,-7.263,-7.019,2.808,53.558,3.093,-36.304
16567,-0.0283,0.8555,0.6353,0.183,-14.160,1.953,53.553,2.983,-36.403
16577,-0.0601,0.8389,0.6421,6.226,-16.479,0.671,53.597,2.878,-36.535
16587,-0.0742,0.8223,0.6416,8.545,-12.939,-0.366,53.663,2.818,-36.639
16597,-0.0737,0.8091,0.6299,6.592,-5.920,-0.549,53.707,2.802,-36.694
16607,-0.0596,0.8125,0.6226,1.587,0.977,-0.427,53.712,2.818,-36.689
16617,-0.0347,0.8311,0.6309,-3.845,4.517,-0.366,53.668,2.834,-36.650
16627,-0.0317,0.8511,0.6377,-6.409,3.601,-0.916,53.602,2.856,-36.628
16637,-0.0449,0.8467,0.6343,-4.272,0.732,-2.380,53.553,2.873,-36.634
16647,-0.0615,0.8213,0.6279,0.732,-1.404,-4.028,53.547,2.900,-36.672
16657,-0.0688,0.7915,0.6128,4.944,-1.526,-4.944,53.580,2.944,-36.716
16667,-0.0635,0.7720,0.5991,6.042,-0.305,-4.333,53.630,2.983,-36.744
16677,-0.0659,0.7637,0.5776,4.700,1.343,-2.502,53.668,3.021,-36.744
16687,-0.0518,0.7744,0.5781,2.136,2.991,-0.854,53.685,3.043,-36.727
16697,-0.0371,0.7993,0.5908,-0.183,3.235,0.061,53.685,3.054,-36.700
16707,-0.0522,0.8096,0.5889,0.244,1.709,0.061,53.690,3.065,-36.689
16717,-0.0679,0.8047,0.5845,2.380,0.427,-0.732,53.718,3.082,-36.689
16727,-0.0737,0.7881,0.5752,4.211,0.366,-1.343,53.756,3.104,-36.694
16737,-0.0713,0.7710,0.5659,4.028,0.916,-0.793,53.800,3.131,-36.689
16747,-0.0601,0.7695,0.5669,0.916,1.648,0.549,53.806,3.137,-36.672
16757,-0.0488,0.7930,0.5762,-2.563,1.709,1.770,53.784,3.131,-36.650
16767,-0.0396,0.8218,0.5947,-3.784,0.854,2.502,53.751,3.109,-36.628
16777,-0.0400,0.8389,0.6050,-2.136,-0.671,2.747,53.734,3.071,-36.617
16787,-0.0518,0.8413,0.6099,0.854,-1.953,2.563,53.745,3.038,-36.617
16797,-0.0669,0.8291,0.5986,2.991,-2.136,1.404,53.778,3.021,-36.623
16807,-0.0737,0.8120,0.5889,2.991,-0.671,-0.305,53.811,3.032,-36.634
16817,-0.0591,0.8091,0.5889,0.732,1.160,-1.282,53.822,3.054,-36.628
16827,-0.0576,0.8115,0.5835,-0.977,1.770,-0.916,53.817,3.071,-36.623
16837,-0.0454,0.8169,0.5854,-1.648,1.343,0.305,53.806,3.076,-36.612
16847,-0.0400,0.8257,0.5869,-0.732,0.000,1.099,53.806,3.054,-36.601
16857,-0.0425,0.8203,0.5874,0.977,-1.526,0.916,53.822,3.032,-36.612
16871,-0.0430,0.8179,0.5942,1.587,-2.319,0.366,53.839,3.010,-36.628
16877,-0.0649,0.8081,0.5825,1.953,-2.136,-0.610,53.860,3.010,-36.645
16887,-0.0732,0.7915,0.5713,1.648,0.122,-1.465,53.877,3.038,-36.656
16897,-0.0718,0.7812,0.5591,0.366,2.869,-1.160,53.888,3.076,-36.639
16907,-0.0498,0.7837,0.5654,-0.916,3.967,0.244,53.882,3.093,-36.606
16917,-0.0293,0.7988,0.5854,-1.831,1.709,2.014,53.866,3.076,-36.579
16928,-0.0269,0.8228,0.6045,-0.854,-2.991,3.296,53.855,3.016,-36.584
16937,-0.0376,0.8374,0.6211,2.014,-6.714,3.479,53.871,2.939,-36.617
16947,-0.0469,0.8413,0.6299,4.944,-7.446,2.686,53.910,2.867,-36.661
16957,-0.0576,0.8379,0.6201,6.226,-4.761,1.648,53.965,2.829,-36.689
16967,-0.0601,0.8330,0.5991,5.005,-0.183,0.793,54.020,2.829,-36.689
16977,-0.0684,0.8252,0.5708,1.526,4.822,-0.061,54.047,2.867,-36.650
16987,-0.0649,0.8184,0.5552,-2.808,8.606,-0.977,54.042,2.933,-36.584
16997,-0.0498,0.8174,0.5488,-6.714,9.644,-1.587,53.998,3.005,-36.519
17007,-0.0381,0.8203,0.5557,-8.484,7.019,-1.770,53.937,3.049,-36.469
17017,-0.0195,0.8281,0.5796,-7.751,1.770,-1.465,53.871,3.054,-36.464
17027,-0.0186,0.8384,0.6094,-4.211,-4.700,-1.038,53.828,3.016,-36.508
17037,-0.0371,0.8389,0.6289,0.732,-9.644,-1.404,53.822,2.961,-36.595
17047,-0.0659,0.8184,0.6274,5.310,-10.620,-2.380,53.860,2.922,-36.694
17057,-0.0762,0.8022,0.6211,6.836,-6.897,-3.357,53.904,2.922,-36.771
17067,-0.0771,0.7915,0.6064,5.066,-1.099,-3.296,53.943,2.955,-36.799
17077,-0.0742,0.7812,0.5859,1.526,4.150,-2.686,53.948,3.016,-36.782
17087,-0.0654,0.7808,0.5742,-2.380,7.019,-1.953,53.926,3.082,-36.733
17097,-0.0562,0.7852,0.5688,-4.883,6.836,-1.221,53.882,3.137,-36.689
17107,-0.0454,0.7915,0.5767,-5.371,3.845,-0.916,53.828,3.159,-36.661
17117,-0.0518,0.7915,0.5840,-3.723,-0.488,-0.488,53.789,3.159,-36.667
17127,-0.0649,0.7832,0.5840,-0.732,-3.906,-0.061,53.778,3.142,-36.700
17137,-0.0674,0.7759,0.5889,1.221,-4.578,0.671,53.778,3.120,-36.733
17147,-0.0649,0.7817,0.5894,1.404,-3.357,1.892,53.784,3.093,-36.749
17157,-0.0571,0.7988,0.5894,0.549,-1.526,2.930,53.784,3.060,-36.744
17167,-0.0493,0.8193,0.5923,-0.488,0.061,3.662,53.784,3.027,-36.722
17177,-0.0400,0.8345,0.5981,-0.549,0.610,3.662,53.789,2.994,-36.694
17187,-0.0400,0.8447,0.6016,0.183,0.000,2.991,53.795,2.961,-36.678
17197,-0.0469,0.8413,0.5957,1.404,-1.038,1.953,53.822,2.939,-36.672
17207,-0.0508,0.8286,0.5977,2.075,-1.526,0.854,53.844,2.922,-36.683
17217,-0.0610,0.8149,0.5859,1.526,-0.854,-0.366,53.860,2.922,-36.689
17227,-0.0571,0.8013,0.5850,-0.427,0.732,-1.160,53.860,2.944,-36.694
17237,-0.0552,0.7983,0.5952,-3.174,1.648,-1.099,53.822,2.961,-36.683
17247,-0.0547,0.8022,0.6021,-4.578,1.587,-1.160,53.773,2.983,-36.678
17257,-0.0420,0.8159,0.6240,-4.150,0.549,-0.854,53.718,2.988,-36.678
17267,-0.0405,0.8198,0.6162,-2.075,-0.549,0.122,53.690,2.977,-36.683
17277,-0.0552,0.8159,0.6108,3.906,-2.563,0.916,53.723,2.955,-36.700
17287,-0.0693,0.8018,0.6079,6.042,-2.686,0.793,53.773,2.944,-36.716
17297,-0.0757,0.7861,0.5820,4.517,0.305,0.000,53.817,2.961,-36.711
17307,-0.0693,0.7788,0.5718,1.343,3.418,-0.671,53.828,2.994,-36.689
17317,-0.0630,0.7812,0.5654,-2.747,5.066,-0.244,53.806,3.032,-36.650
17327,-0.0547,0.7896,0.5625,-5.676,5.066,0.916,53.762,3.060,-36.601
17337,-0.0464,0.8057,0.5688,-6.226,3.479,2.136,53.712,3.060,-36.563
