elapsed_ms,acc_x_g,acc_y_g,acc_z_g,gyro_x_dps,gyro_y_dps,gyro_z_dps,angle_x_deg,angle_y_deg,angle_z_deg
0,-0.0942,0.8223,0.5645,-3.845,5.798,1.709,54.767,5.630,-33.887
10,-0.0937,0.8232,0.5635,-5.127,5.737,1.648,54.728,5.647,-33.827
20,-0.0928,0.8193,0.5640,-6.348,5.249,1.282,54.679,5.663,-33.777
30,-0.0859,0.8188,0.5630,-7.141,4.578,1.038,54.619,5.674,-33.734
40,-0.0864,0.8223,0.5679,-7.263,3.845,1.221,54.558,5.680,-33.695
50,-0.0903,0.8257,0.5674,-6.470,3.418,1.038,54.509,5.685,-33.662
60,-0.0933,0.8232,0.5669,-5.066,3.174,0.610,54.470,5.696,-33.635
70,-0.0923,0.8159,0.5688,-4.028,2.991,0.427,54.443,5.707,-33.607
80,-0.0967,0.8096,0.5693,-4.272,2.747,0.793,54.404,5.713,-33.580
90,-0.1035,0.8120,0.5698,-6.104,2.869,0.732,54.355,5.724,-33.552
100,-0.1035,0.8164,0.5737,-8.301,3.357,0.244,54.278,5.746,-33.525
110,-0.0947,0.8164,0.5781,-10.376,3.784,0.122,54.185,5.762,-33.492
120,-0.0967,0.8218,0.5879,-12.451,4.089,0.305,54.064,5.784,-33.453
130,-0.1030,0.8276,0.5859,-13.306,4.761,-0.183,53.943,5.812,-33.420
140,-0.0928,0.8188,0.5928,-12.634,5.371,-0.916,53.828,5.845,-33.382
150,-0.0879,0.8145,0.5986,-11.414,5.066,-1.221,53.712,5.872,-33.344
160,-0.0825,0.8179,0.6133,-9.521,3.723,-1.221,53.613,5.894,-33.322
170,-0.0825,0.8276,0.6206,-6.409,1.892,-1.160,53.547,5.900,-33.316
180,-0.1172,0.8394,0.6060,-0.671,0.671,-1.404,53.547,5.922,-33.316
189,-0.1646,0.8218,0.5630,8.362,2.441,-1.953,53.652,5.988,-33.311
200,-0.1709,0.7681,0.5396,15.015,7.263,-2.014,53.817,6.086,-33.261
210,-0.1094,0.7422,0.5723,11.719,11.292,-0.061,53.926,6.158,-33.173
220,-0.0513,0.7964,0.6382,0.000,8.606,3.113,53.910,6.152,-33.085
230,-0.0312,0.8779,0.6929,-9.766,-0.671,4.333,53.795,6.070,-33.063
240,-0.0518,0.9189,0.7285,-9.705,-11.047,2.502,53.668,5.949,-33.140
250,-0.1270,0.9053,0.7070,-0.122,-16.052,-2.136,53.635,5.872,-33.283
259,-0.1958,0.8315,0.6445,12.329,-10.559,-9.399,53.729,5.933,-33.420
270,-0.2173,0.7090,0.5698,18.616,2.991,-14.648,53.882,6.141,-33.486
279,-0.1914,0.6284,0.5293,12.329,16.052,-15.442,53.970,6.432,-33.448
289,-0.1313,0.6455,0.5073,-3.052,23.804,-11.536,53.932,6.691,-33.322
299,-0.0815,0.7100,0.5024,-17.395,24.170,-3.845,53.789,6.844,-33.146
309,-0.0610,0.7803,0.5190,-23.926,18.372,4.089,53.597,6.888,-32.975
319,-0.0669,0.8408,0.5332,-20.508,10.681,9.033,53.448,6.850,-32.833
330,-0.0854,0.8716,0.5405,-9.094,3.174,9.583,53.416,6.773,-32.750
340,-0.1064,0.8662,0.5264,4.822,-3.357,6.104,53.520,6.696,-32.739
350,-0.1099,0.8325,0.5137,16.113,-7.751,0.916,53.723,6.641,-32.800
359,-0.1104,0.7886,0.5093,21.057,-11.169,-2.258,53.954,6.592,-32.899
369,-0.1060,0.7559,0.5220,17.700,-13.306,-2.136,54.130,6.531,-33.025
380,-0.0923,0.7622,0.5610,5.493,-13.916,0.305,54.163,6.438,-33.135
390,-0.0889,0.7998,0.6040,-8.545,-14.099,2.380,54.058,6.323,-33.234
400,-0.1006,0.8335,0.6504,-18.616,-13.489,2.686,53.839,6.218,-33.327
410,-0.1211,0.8643,0.6719,-21.423,-11.719,0.122,53.602,6.147,-33.426
420,-0.1484,0.8501,0.6660,-15.686,-7.751,-4.211,53.421,6.152,-33.514
430,-0.1479,0.8086,0.6606,-7.019,-2.319,-7.629,53.317,6.218,-33.574
440,-0.1211,0.7749,0.6660,-1.221,1.587,-7.874,53.262,6.295,-33.613
450,-0.1050,0.7598,0.6748,0.549,1.953,-4.150,53.218,6.339,-33.618
460,-0.1152,0.7734,0.6777,-0.793,0.427,1.038,53.168,6.334,-33.607
470,-0.1392,0.7925,0.6680,-1.953,0.977,5.066,53.119,6.312,-33.569
480,-0.1553,0.8066,0.6494,-1.892,5.005,6.775,53.086,6.306,-33.492
490,-0.1494,0.8164,0.6128,-1.648,11.780,6.714,53.086,6.345,-33.354
500,-0.1338,0.8125,0.5820,-2.319,18.555,5.798,53.097,6.422,-33.173
510,-0.1128,0.8110,0.5498,-3.540,23.071,4.822,53.113,6.526,-32.953
520,-0.0825,0.8120,0.5371,-4.944,23.743,4.395,53.124,6.614,-32.739
530,-0.0732,0.8159,0.5273,-5.310,20.325,4.395,53.130,6.674,-32.547
540,-0.0771,0.8145,0.5186,-5.005,14.893,4.395,53.141,6.707,-32.399
550,-0.0776,0.8188,0.5225,-4.944,9.155,3.845,53.146,6.713,-32.305
560,-0.0649,0.8262,0.5439,-4.944,3.296,2.625,53.141,6.680,-32.261
570,-0.0664,0.8354,0.5645,-4.395,-2.686,1.282,53.124,6.625,-32.278
580,-0.0815,0.8369,0.5845,-2.502,-7.263,-0.488,53.108,6.564,-32.338
590,-0.0977,0.8257,0.6035,0.183,-8.728,-2.075,53.108,6.520,-32.421
600,-0.1045,0.8169,0.6211,2.686,-7.935,-2.747,53.124,6.487,-32.503
610,-0.1060,0.8120,0.6323,3.906,-6.348,-2.319,53.146,6.460,-32.563
620,-0.1128,0.8115,0.6367,3.967,-5.005,-1.038,53.168,6.438,-32.613
630,-0.1294,0.8120,0.6348,3.113,-3.662,-0.183,53.179,6.422,-32.640
640,-0.1416,0.8096,0.6230,1.831,-1.465,-0.244,53.190,6.432,-32.657
650,-0.1357,0.8057,0.6069,0.183,1.404,-1.038,53.190,6.460,-32.651
660,-0.1235,0.8003,0.6040,-1.404,3.052,-1.770,53.179,6.498,-32.635
670,-0.1147,0.7988,0.6128,-3.174,2.258,-1.953,53.141,6.526,-32.629
680,-0.1147,0.8013,0.6157,-3.296,-0.183,-1.831,53.097,6.542,-32.646
690,-0.1279,0.7935,0.6157,-1.709,-2.075,-1.648,53.069,6.548,-32.668
700,-0.1309,0.7881,0.6138,-0.183,-1.709,-1.648,53.053,6.559,-32.695
710,-0.1392,0.7827,0.5942,0.610,0.183,-1.282,53.058,6.586,-32.701
720,-0.1357,0.7749,0.5776,0.488,3.723,-0.793,53.069,6.630,-32.673
729,-0.1104,0.7749,0.5791,-1.770,6.897,-0.122,53.058,6.669,-32.618
739,-0.1016,0.7881,0.5820,-4.639,7.751,0.366,53.026,6.707,-32.558
750,-0.0977,0.8042,0.5928,-6.042,6.714,0.183,52.976,6.735,-32.498
760,-0.1025,0.8145,0.5952,-5.371,4.578,-0.305,52.938,6.751,-32.465
770,-0.1177,0.8110,0.5918,-2.441,2.808,-0.671,52.921,6.773,-32.448
780,-0.1270,0.7949,0.5786,0.244,2.197,-0.549,52.938,6.795,-32.432
790,-0.1357,0.7837,0.5649,0.732,2.686,-0.122,52.960,6.828,-32.410
800,-0.1284,0.7798,0.5537,-0.977,3.601,0.427,52.971,6.850,-32.382
810,-0.1099,0.7871,0.5645,-4.272,3.479,1.099,52.949,6.861,-32.344
820,-0.0913,0.8115,0.5874,-7.141,1.404,1.343,52.888,6.844,-32.327
830,-0.0923,0.8374,0.6147,-7.141,-2.319,0.488,52.828,6.806,-32.344
840,-0.1035,0.8325,0.6367,-3.479,-5.981,-0.732,52.784,6.768,-32.393
850,-0.1270,0.8159,0.6367,0.671,-7.263,-1.587,52.773,6.735,-32.465
860,-0.1484,0.7944,0.6260,2.808,-5.066,-2.380,52.784,6.740,-32.520
870,-0.1528,0.7715,0.6118,1.831,-0.549,-2.686,52.789,6.779,-32.536
880,-0.1309,0.7710,0.6084,-1.465,3.357,-2.258,52.767,6.828,-32.525
890,-0.1011,0.7866,0.6221,-4.639,4.150,-1.160,52.712,6.850,-32.498
900,-0.0942,0.8135,0.6440,-5.371,1.404,-0.305,52.646,6.844,-32.487
910,-0.1113,0.8267,0.6436,-1.465,-2.197,-0.427,52.625,6.828,-32.509
920,-0.1250,0.8179,0.6440,4.700,-3.967,-0.977,52.657,6.812,-32.547
930,-0.1406,0.7949,0.6211,9.521,-3.235,-1.038,52.745,6.812,-32.580
940,-0.1538,0.7671,0.5830,10.437,0.549,-0.916,52.844,6.844,-32.580
950,-0.1484,0.7490,0.5576,6.226,5.859,-0.732,52.916,6.905,-32.536
960,-0.1201,0.7593,0.5566,-1.343,9.583,-0.061,52.921,6.965,-32.459
970,-0.0967,0.7910,0.5703,-8.179,9.216,0.610,52.866,7.004,-32.382
980,-0.0796,0.8257,0.6016,-10.742,5.005,0.671,52.773,7.004,-32.338
990,-0.0884,0.8501,0.6265,-7.629,-1.160,-0.122,52.707,6.976,-32.349
1000,-0.1196,0.8442,0.6304,0.305,-5.920,-1.770,52.707,6.949,-32.410
1010,-0.1475,0.8198,0.6113,9.155,-6.714,-3.479,52.795,6.949,-32.481
1020,-0.1587,0.7788,0.5835,15.930,-3.845,-4.211,52.949,6.982,-32.542
1030,-0.1587,0.7339,0.5610,17.151,-0.305,-2.869,53.113,7.031,-32.558
1040,-0.1118,0.7505,0.5820,11.414,1.221,-0.977,53.218,7.042,-32.552
1050,-0.0630,0.8154,0.6421,6.104,-2.808,0.183,53.262,6.987,-32.574
1060,-0.0747,0.8657,0.6763,8.057,-10.986,0.305,53.317,6.888,-32.662
1070,-0.1191,0.8701,0.6851,15.503,-16.724,-0.244,53.438,6.784,-32.800
1080,-0.1499,0.8438,0.6689,22.583,-16.052,-1.526,53.630,6.713,-32.937
1090,-0.1743,0.7959,0.6167,24.963,-9.277,-2.686,53.849,6.713,-33.030
1100,-0.1816,0.7495,0.5537,19.409,0.793,-3.113,54.036,6.784,-33.041
1110,-0.1714,0.7266,0.5015,7.080,11.047,-2.563,54.130,6.910,-32.970
1120,-0.1538,0.7251,0.4658,-7.935,18.677,-0.916,54.102,7.059,-32.822
1130,-0.1211,0.7422,0.4604,-21.606,22.156,0.793,53.948,7.191,-32.635
1140,-0.0845,0.7769,0.4800,-30.151,19.653,2.441,53.718,7.267,-32.459
1150,-0.0718,0.8115,0.5132,-31.311,10.925,3.479,53.459,7.273,-32.349
1160,-0.0811,0.8340,0.5425,-24.475,-0.671,3.174,53.256,7.218,-32.338
1170,-0.0952,0.8247,0.5723,-13.367,-10.742,1.953,53.130,7.119,-32.410
1180,-0.1074,0.8013,0.5962,-2.930,-16.174,1.282,53.091,7.004,-32.536
1190,-0.1123,0.7856,0.6191,2.075,-17.029,1.282,53.080,6.888,-32.662
1200,-0.1182,0.7725,0.6396,1.099,-14.465,1.831,53.053,6.784,-32.772
1210,-0.1167,0.7822,0.6636,-4.272,-10.437,2.258,52.971,6.702,-32.838
1220,-0.1118,0.8110,0.6899,-10.681,-6.104,2.258,52.828,6.641,-32.877
1230,-0.1265,0.8340,0.6948,-13.672,-2.197,1.831,52.663,6.614,-32.882
1240,-0.1240,0.8433,0.7002,-12.329,1.282,0.854,52.520,6.614,-32.866
1250,-0.1255,0.8408,0.6934,-7.385,3.174,-0.183,52.427,6.630,-32.844
1260,-0.1230,0.8188,0.6733,-0.977,3.418,-1.038,52.405,6.658,-32.822
1270,-0.1318,0.7964,0.6538,3.723,2.686,-1.160,52.421,6.691,-32.805
1280,-0.1406,0.7773,0.6323,6.409,2.625,-0.977,52.471,6.729,-32.794
1290,-0.1392,0.7627,0.6133,5.981,3.601,-0.427,52.520,6.768,-32.767
1300,-0.1387,0.7686,0.5942,2.869,5.554,0.488,52.553,6.812,-32.717
1310,-0.1289,0.7783,0.5820,-0.366,7.751,0.916,52.564,6.855,-32.651
1320,-0.1167,0.7930,0.5757,-2.502,8.911,0.977,52.564,6.905,-32.574
1330,-0.1040,0.7988,0.5752,-2.625,8.728,0.854,52.564,6.938,-32.498
1340,-0.1021,0.8062,0.5757,-1.343,6.897,0.427,52.575,6.965,-32.443
1350,-0.1157,0.8052,0.5620,1.404,4.761,-0.061,52.619,6.993,-32.404
1360,-0.1177,0.7944,0.5513,3.967,4.089,-0.122,52.690,7.020,-32.371
1370,-0.1191,0.7881,0.5449,4.822,3.601,0.305,52.767,7.037,-32.338
1380,-0.1172,0.7871,0.5430,4.211,2.991,0.671,52.839,7.053,-32.311
1390,-0.0879,0.8022,0.5732,1.770,1.221,0.854,52.872,7.031,-32.300
1400,-0.0757,0.8335,0.6128,-0.488,-3.052,0.916,52.877,6.976,-32.316
1410,-0.0972,0.8540,0.6362,0.793,-7.690,-0.061,52.877,6.916,-32.377
1420,-0.1294,0.8486,0.6440,4.761,-9.705,-2.258,52.916,6.872,-32.470
1430,-0.1543,0.8193,0.6304,9.888,-7.629,-4.211,52.998,6.877,-32.558
1440,-0.1694,0.7739,0.5933,12.634,-2.686,-4.639,53.113,6.927,-32.607
1450,-0.1587,0.7407,0.5635,9.644,3.235,-3.235,53.207,6.998,-32.602
1460,-0.1279,0.7485,0.5620,0.854,6.958,-1.221,53.218,7.059,-32.552
1470,-0.0947,0.7832,0.5854,-7.629,6.104,0.122,53.146,7.081,-32.503
1480,-0.0845,0.8223,0.6235,-11.230,1.038,0.244,53.036,7.059,-32.492
1490,-0.0977,0.8433,0.6528,-7.751,-5.066,-1.160,52.943,7.020,-32.542
1500,-0.1333,0.8315,0.6553,1.099,-8.850,-2.930,52.932,6.993,-32.629
1510,-0.1689,0.7935,0.6313,10.254,-7.690,-3.601,53.009,6.998,-32.712
1520,-0.1797,0.7500,0.5845,14.954,-1.709,-2.625,53.146,7.048,-32.739
1530,-0.1699,0.7158,0.5493,12.268,5.737,-0.305,53.267,7.119,-32.695
1540,-0.1445,0.7236,0.5303,2.930,11.414,2.380,53.311,7.191,-32.591
1550,-0.1118,0.7578,0.5361,-7.446,12.817,3.784,53.267,7.229,-32.465
1560,-0.0913,0.7964,0.5625,-13.977,9.338,3.723,53.157,7.240,-32.366
1570,-0.0864,0.8262,0.5972,-14.893,3.052,2.991,53.026,7.207,-32.322
1580,-0.1089,0.8364,0.6118,-9.766,-3.418,1.587,52.932,7.163,-32.344
1590,-0.1362,0.8120,0.6094,-1.648,-6.836,0.427,52.916,7.125,-32.393
1600,-0.1470,0.7842,0.6025,4.700,-5.676,0.671,52.949,7.097,-32.437
1610,-0.1406,0.7671,0.5952,5.859,-2.075,2.258,52.998,7.081,-32.437
1620,-0.1167,0.7783,0.6016,2.258,1.404,3.967,53.020,7.053,-32.404
1630,-0.0991,0.8086,0.6162,-3.113,2.197,4.761,52.993,7.015,-32.355
1640,-0.1045,0.8330,0.6313,-6.287,1.160,3.967,52.932,6.976,-32.322
1650,-0.1138,0.8403,0.6382,-5.981,0.305,1.953,52.872,6.954,-32.311
1660,-0.1255,0.8281,0.6318,-3.906,0.366,0.183,52.833,6.954,-32.305
1670,-0.1382,0.8047,0.6157,-1.831,1.648,-0.732,52.811,6.976,-32.294
1680,-0.1387,0.7856,0.5952,-1.770,3.540,-0.732,52.800,7.015,-32.272
1690,-0.1284,0.7783,0.5850,-3.296,5.371,0.000,52.773,7.053,-32.228
1700,-0.1084,0.7896,0.5937,-5.310,5.615,0.977,52.729,7.070,-32.179
1710,-0.0947,0.8120,0.6069,-5.981,3.662,1.587,52.679,7.064,-32.141
1720,-0.1006,0.8271,0.6172,-3.540,0.122,1.038,52.652,7.042,-32.130
1730,-0.1191,0.8252,0.6143,1.282,-2.625,-0.244,52.668,7.020,-32.151
1740,-0.1362,0.8076,0.5991,6.165,-2.563,-1.343,52.734,7.026,-32.184
1750,-0.1416,0.7803,0.5830,8.545,-0.305,-1.587,52.822,7.048,-32.195
1760,-0.1401,0.7607,0.5703,6.958,2.075,-0.793,52.894,7.081,-32.184
1770,-0.1255,0.7603,0.5786,1.770,3.174,0.305,52.916,7.103,-32.157
1780,-0.1069,0.7837,0.6035,-4.333,2.319,1.221,52.872,7.097,-32.130
1790,-0.1089,0.8071,0.6245,-6.775,-0.305,1.343,52.795,7.075,-32.124
1800,-0.1235,0.8169,0.6323,-4.578,-2.502,0.854,52.745,7.048,-32.141
1810,-0.1436,0.8066,0.6187,-0.061,-2.197,0.305,52.740,7.042,-32.157
1820,-0.1543,0.7842,0.5962,3.967,0.549,0.122,52.778,7.064,-32.151
1830,-0.1392,0.7637,0.5801,4.395,3.479,0.671,52.828,7.092,-32.119
1840,-0.1143,0.7734,0.5884,1.465,3.967,1.587,52.844,7.097,-32.075
1850,-0.0957,0.8105,0.6123,-1.648,1.221,1.831,52.833,7.075,-32.053
1860,-0.0928,0.8428,0.6426,-0.854,-2.991,1.282,52.822,7.026,-32.069
1870,-0.1035,0.8613,0.6592,3.723,-6.287,0.244,52.850,6.971,-32.119
1880,-0.1250,0.8579,0.6567,10.437,-6.836,-1.038,52.943,6.932,-32.179
1890,-0.1416,0.8223,0.6304,15.930,-4.333,-1.953,53.091,6.932,-32.228
1900,-0.1597,0.7739,0.5845,16.418,0.854,-2.014,53.251,6.976,-32.234
1910,-0.1543,0.7495,0.5483,10.254,7.202,-1.648,53.366,7.059,-32.184
1920,-0.1279,0.7559,0.5396,-0.061,11.597,-0.916,53.383,7.141,-32.097
1930,-0.0947,0.7856,0.5552,-8.484,11.108,-0.244,53.328,7.191,-32.009
1940,-0.0610,0.8291,0.6069,-11.658,5.371,-0.366,53.218,7.191,-31.965
1950,-0.0874,0.8584,0.6328,-6.287,-2.869,-1.099,53.157,7.158,-31.998
1960,-0.1338,0.8501,0.6284,5.005,-7.202,-2.136,53.201,7.130,-32.069
1970,-0.1616,0.8096,0.6055,15.930,-5.432,-2.686,53.355,7.141,-32.130
1980,-0.1826,0.7485,0.5483,20.935,0.244,-2.319,53.564,7.202,-32.141
1990,-0.1895,0.6987,0.5015,16.296,7.019,-0.793,53.740,7.300,-32.086
2000,-0.1577,0.7090,0.4883,2.930,12.146,1.282,53.800,7.394,-31.981
2010,-0.1270,0.7397,0.4956,-10.071,13.000,3.052,53.740,7.449,-31.860
2020,-0.1074,0.7739,0.5229,-18.494,8.362,3.845,53.586,7.460,-31.767
2030,-0.0977,0.8125,0.5586,-20.325,0.977,3.906,53.410,7.416,-31.734
2040,-0.1030,0.8306,0.5864,-14.832,-7.507,3.235,53.273,7.328,-31.778
2050,-0.1187,0.8188,0.6074,-6.165,-13.733,2.380,53.201,7.224,-31.871
2060,-0.1294,0.7998,0.6182,0.732,-15.442,2.258,53.185,7.114,-31.987
2070,-0.1279,0.7905,0.6260,3.296,-13.245,2.686,53.190,7.015,-32.075
2080,-0.1206,0.7979,0.6416,1.099,-8.850,3.113,53.174,6.932,-32.130
2090,-0.1177,0.8091,0.6479,-2.747,-4.456,3.479,53.124,6.877,-32.141
2100,-0.1104,0.8242,0.6597,-6.714,-0.732,3.540,53.042,6.833,-32.130
2110,-0.1060,0.8481,0.6660,-8.606,1.648,2.930,52.949,6.812,-32.097
2120,-0.1143,0.8535,0.6514,-6.714,2.625,1.587,52.883,6.806,-32.064
2130,-0.1265,0.8330,0.6289,-2.930,3.174,0.305,52.861,6.823,-32.036
2140,-0.1265,0.7954,0.5972,0.122,3.601,-0.427,52.866,6.850,-32.014
2150,-0.1206,0.7920,0.5903,-0.671,3.113,-0.305,52.866,6.872,-31.987
2160,-0.1113,0.7959,0.6011,-1.587,2.258,-0.244,52.855,6.883,-31.970
2170,-0.1128,0.8022,0.6079,-1.221,0.854,-0.305,52.844,6.888,-31.965
2180,-0.1240,0.7993,0.6055,0.366,0.122,-0.732,52.844,6.894,-31.970
2190,-0.1260,0.7920,0.6021,2.075,0.916,-1.282,52.866,6.916,-31.970
2200,-0.1309,0.7832,0.5923,2.625,2.319,-1.221,52.894,6.943,-31.959
2210,-0.1348,0.7749,0.5776,2.258,3.845,-0.916,52.921,6.982,-31.932
2220,-0.1118,0.7705,0.5815,0.732,4.395,-0.061,52.932,7.009,-31.899
2230,-0.1084,0.7886,0.5835,-1.160,2.808,1.038,52.932,7.009,-31.871
2240,-0.1143,0.7998,0.5884,-1.526,0.732,1.099,52.927,6.998,-31.860
2250,-0.1167,0.7998,0.5981,-1.038,-0.793,0.732,52.916,6.987,-31.860
2260,-0.1284,0.7974,0.5972,-0.244,-1.648,0.183,52.916,6.976,-31.871
2270,-0.1343,0.7930,0.5894,0.549,-0.977,-0.488,52.927,6.982,-31.882
2280,-0.1328,0.7842,0.5864,0.671,0.366,-0.488,52.932,6.998,-31.882
2290,-0.1167,0.7842,0.5874,0.183,1.038,0.061,52.938,6.998,-31.871
2300,-0.1104,0.7925,0.5991,-0.427,-0.122,0.732,52.938,6.987,-31.871
2310,-0.1157,0.8008,0.6099,-0.244,-2.319,0.916,52.927,6.960,-31.882
2320,-0.1162,0.8105,0.6260,-0.305,-3.784,0.854,52.916,6.927,-31.910
2330,-0.1333,0.8105,0.6274,-0.061,-3.845,0.427,52.905,6.905,-31.937
2340,-0.1489,0.7979,0.6143,0.427,-1.709,-0.122,52.905,6.910,-31.954
2350,-0.1421,0.7920,0.6055,0.000,1.648,-0.305,52.905,6.938,-31.943
2360,-0.1313,0.7891,0.5894,-0.244,4.150,0.122,52.905,6.965,-31.904
2370,-0.1128,0.7871,0.5874,-0.549,4.333,0.793,52.910,6.982,-31.866
2380,-0.1104,0.7925,0.5894,-0.366,2.014,1.221,52.916,6.976,-31.844
2390,-0.1099,0.7983,0.5933,0.366,-0.732,1.160,52.921,6.960,-31.844
2400,-0.1089,0.8003,0.6021,1.282,-2.686,0.977,52.932,6.927,-31.855
2410,-0.1206,0.7900,0.6001,1.770,-3.113,0.916,52.949,6.899,-31.877
2420,-0.1230,0.7930,0.5967,0.305,-1.831,0.793,52.949,6.888,-31.888
2430,-0.1255,0.7915,0.5903,-1.465,0.305,0.793,52.938,6.883,-31.877
2440,-0.1260,0.7842,0.5859,-3.052,2.136,1.038,52.916,6.894,-31.855
2450,-0.1216,0.7891,0.5845,-3.784,2.686,1.099,52.888,6.905,-31.827
2460,-0.1172,0.7920,0.5869,-2.808,1.465,1.099,52.866,6.899,-31.811
2470,-0.1113,0.7954,0.5957,-0.977,-0.916,1.282,52.861,6.883,-31.811
2480,-0.1099,0.8096,0.6011,1.404,-3.540,1.465,52.877,6.844,-31.827
2490,-0.1074,0.8223,0.6006,4.150,-5.371,1.404,52.927,6.790,-31.860
2500,-0.1138,0.8271,0.6016,6.653,-6.287,1.099,52.998,6.740,-31.904
2510,-0.1240,0.8120,0.6006,8.484,-6.531,0.183,53.080,6.702,-31.959
2520,-0.1245,0.7964,0.6055,7.935,-6.042,-0.854,53.146,6.674,-32.014
2530,-0.1221,0.7803,0.6172,5.554,-5.371,-1.099,53.185,6.658,-32.064
2540,-0.1172,0.7744,0.6338,2.258,-4.761,-0.793,53.174,6.636,-32.108
2550,-0.1147,0.7812,0.6494,-0.305,-4.150,-0.061,53.141,6.608,-32.141
2560,-0.1191,0.7900,0.6504,-0.793,-2.991,0.488,53.102,6.586,-32.162
2570,-0.1323,0.8003,0.6313,1.282,-0.610,1.282,53.102,6.581,-32.157
2580,-0.1265,0.8022,0.6108,3.784,2.563,2.258,53.141,6.586,-32.124
2590,-0.1211,0.8105,0.5864,4.761,4.578,2.808,53.201,6.592,-32.069
2600,-0.1274,0.8062,0.5615,4.578,5.127,2.563,53.273,6.614,-32.014
2610,-0.1230,0.8115,0.5459,2.319,4.883,1.831,53.328,6.630,-31.965
2620,-0.1152,0.8125,0.5449,-0.427,3.784,1.099,53.361,6.647,-31.926
2630,-0.1030,0.8154,0.5610,-2.502,1.404,0.366,53.355,6.641,-31.910
2640,-0.0977,0.8257,0.5830,-3.479,-1.831,-0.122,53.333,6.625,-31.926
2650,-0.1030,0.8325,0.5952,-1.953,-4.578,-0.549,53.322,6.592,-31.965
2660,-0.1123,0.8276,0.6025,1.160,-5.249,-0.854,53.333,6.564,-32.014
2670,-0.1094,0.8154,0.6030,3.479,-3.418,-0.977,53.366,6.548,-32.047
2680,-0.1118,0.8052,0.5991,3.479,-1.099,-1.160,53.399,6.548,-32.064
2690,-0.1152,0.7915,0.5918,1.099,0.793,-1.709,53.405,6.570,-32.069
2700,-0.1079,0.7861,0.6045,-2.625,1.831,-2.014,53.372,6.592,-32.064
2710,-0.1089,0.7944,0.6118,-5.554,1.404,-2.258,53.306,6.614,-32.069
2720,-0.1128,0.7949,0.6128,-5.249,0.427,-2.319,53.245,6.630,-32.080
2730,-0.1099,0.7920,0.6191,-2.686,-0.488,-1.770,53.201,6.641,-32.091
2740,-0.1147,0.7925,0.6162,0.977,-1.404,-0.732,53.201,6.636,-32.108
2750,-0.1299,0.7827,0.6050,4.517,-1.831,0.244,53.234,6.630,-32.124
2760,-0.1274,0.7803,0.5986,5.920,-1.587,0.793,53.284,6.625,-32.130
2770,-0.1279,0.7812,0.5889,5.737,-1.282,1.038,53.339,6.614,-32.135
2780,-0.1328,0.7803,0.5806,4.700,-1.038,1.160,53.383,6.614,-32.135
2790,-0.1309,0.7769,0.5752,2.869,-0.610,1.465,53.416,6.608,-32.130
2800,-0.1216,0.7788,0.5752,0.549,-0.305,2.075,53.421,6.592,-32.119
2810,-0.1089,0.7954,0.5840,-2.075,-0.916,2.747,53.405,6.564,-32.113
2820,-0.1011,0.8130,0.5972,-3.174,-1.953,3.113,53.377,6.520,-32.108
2830,-0.0942,0.8257,0.6162,-2.563,-2.808,2.869,53.350,6.465,-32.113
2840,-0.0962,0.8359,0.6245,-0.366,-3.113,2.075,53.344,6.422,-32.130
2850,-0.1079,0.8315,0.6240,2.686,-2.319,1.038,53.366,6.394,-32.141
2860,-0.1069,0.8311,0.6216,4.272,-0.427,0.427,53.410,6.383,-32.141
2870,-0.1094,0.8276,0.6172,5.127,1.099,-0.061,53.459,6.389,-32.130
2880,-0.1108,0.8252,0.6064,5.371,1.709,-0.366,53.514,6.394,-32.119
2890,-0.1162,0.8115,0.5952,5.127,1.892,-0.488,53.569,6.416,-32.108
2900,-0.1104,0.8076,0.6021,2.991,1.953,-0.671,53.597,6.427,-32.097
2910,-0.1172,0.8096,0.6006,0.427,1.892,-1.282,53.602,6.454,-32.091
2920,-0.1279,0.7983,0.5908,-0.854,2.319,-1.892,53.591,6.487,-32.080
2930,-0.1187,0.7944,0.5947,-1.404,3.357,-2.014,53.575,6.531,-32.064
2940,-0.1211,0.7939,0.5923,-0.427,3.479,-1.648,53.569,6.564,-32.047
2950,-0.1270,0.7891,0.5791,1.770,2.808,-1.465,53.591,6.603,-32.036
2960,-0.1250,0.7783,0.5776,4.395,1.648,-1.221,53.635,6.630,-32.025
2970,-0.1216,0.7729,0.5771,6.470,-0.061,-0.427,53.696,6.641,-32.031
2980,-0.1260,0.7666,0.5659,7.263,-1.404,0.916,53.762,6.630,-32.036
2990,-0.1187,0.7729,0.5654,5.859,-1.953,2.686,53.822,6.603,-32.036
3000,-0.1133,0.7910,0.5615,3.418,-2.014,3.906,53.866,6.559,-32.031
3010,-0.1118,0.8027,0.5537,1.648,-1.343,4.150,53.899,6.520,-32.014
3020,-0.1060,0.8110,0.5527,0.366,-0.732,3.662,53.921,6.482,-31.998
3030,-0.1069,0.8223,0.5562,0.122,-0.732,2.808,53.943,6.454,-31.987
3040,-0.0996,0.8247,0.5635,1.038,-1.648,2.075,53.970,6.416,-31.992
3050,-0.0908,0.8271,0.5879,1.892,-3.662,2.014,53.992,6.367,-32.009
3060,-0.0967,0.8389,0.6045,2.930,-6.042,2.014,54.020,6.306,-32.047
3070,-0.1167,0.8442,0.6079,4.944,-7.141,1.526,54.069,6.251,-32.097
3080,-0.1294,0.8306,0.6040,7.019,-5.798,0.732,54.130,6.224,-32.135
3090,-0.1274,0.8154,0.5898,7.080,-2.747,0.183,54.201,6.218,-32.157
3099,-0.1348,0.8115,0.5679,5.005,0.488,0.000,54.256,6.235,-32.157
3110,-0.1182,0.8013,0.5547,2.319,2.991,-0.244,54.294,6.262,-32.130
3120,-0.1021,0.7998,0.5581,-1.160,3.052,-0.244,54.289,6.279,-32.108
3130,-0.0894,0.8125,0.5762,-4.089,0.732,-0.366,54.256,6.273,-32.102
3140,-0.0898,0.8208,0.5967,-5.066,-2.869,-0.488,54.201,6.246,-32.130
3150,-0.1069,0.8169,0.6045,-3.662,-5.249,-0.732,54.152,6.218,-32.179
3160,-0.1128,0.8062,0.6094,-1.343,-5.005,-0.977,54.119,6.202,-32.223
3170,-0.1128,0.8027,0.6055,0.000,-2.930,-0.854,54.108,6.191,-32.256
3180,-0.1167,0.8013,0.5952,0.549,-0.183,-0.366,54.102,6.202,-32.256
3189,-0.1045,0.7998,0.5898,0.000,2.380,0.366,54.102,6.207,-32.234
3200,-0.0986,0.8125,0.5937,-2.014,3.540,1.160,54.080,6.213,-32.201
3210,-0.0991,0.8276,0.5913,-3.418,3.235,1.343,54.058,6.213,-32.168
3220,-0.1006,0.8345,0.5923,-3.540,2.319,0.793,54.031,6.218,-32.141
3230,-0.1069,0.8354,0.5889,-2.991,1.526,0.244,54.009,6.218,-32.130
3240,-0.1128,0.8345,0.5806,-2.380,1.465,-0.366,53.998,6.235,-32.119
3250,-0.1089,0.8252,0.5811,-2.258,1.709,-0.977,53.987,6.251,-32.113
3260,-0.1157,0.8174,0.5786,-2.380,1.709,-1.526,53.970,6.273,-32.108
3269,-0.1167,0.8101,0.5742,-2.319,1.648,-1.953,53.954,6.306,-32.102
3280,-0.1094,0.8047,0.5737,-2.258,1.648,-2.319,53.937,6.334,-32.102
3290,-0.0972,0.8032,0.5850,-1.892,0.671,-2.197,53.915,6.350,-32.113
3300,-0.0933,0.8042,0.6006,-0.854,-1.526,-1.770,53.899,6.345,-32.135
3310,-0.1064,0.8032,0.6128,0.916,-3.662,-1.648,53.893,6.334,-32.173
3320,-0.1206,0.7969,0.6138,2.686,-4.089,-1.831,53.899,6.328,-32.217
3330,-0.1309,0.7881,0.6079,3.784,-2.502,-1.587,53.915,6.339,-32.250
3340,-0.1313,0.7778,0.5933,3.540,0.305,-0.854,53.937,6.356,-32.250
3350,-0.1265,0.7798,0.5835,1.587,2.808,0.183,53.948,6.383,-32.228
3360,-0.1113,0.7949,0.5840,-0.427,3.906,0.793,53.948,6.400,-32.190
3370,-0.0947,0.8169,0.5957,-1.343,2.563,1.160,53.937,6.394,-32.162
3380,-0.0996,0.8306,0.6016,0.305,-0.366,1.343,53.943,6.372,-32.157
3390,-0.1138,0.8340,0.6045,3.418,-2.808,0.977,53.976,6.350,-32.173
3400,-0.1284,0.8257,0.5947,6.226,-3.052,0.183,54.036,6.339,-32.195
3410,-0.1318,0.8076,0.5811,7.324,-1.038,-0.671,54.108,6.350,-32.212
3419,-0.1475,0.8027,0.5474,6.042,1.831,-0.977,54.185,6.389,-32.201
3429,-0.1509,0.7881,0.5034,5.127,6.104,-1.038,54.272,6.465,-32.157
3439,-0.1006,0.7808,0.5088,1.953,8.972,-0.183,54.327,6.515,-32.086
3449,-0.0708,0.8081,0.5259,-2.014,6.165,0.793,54.338,6.520,-32.031
3459,-0.0640,0.8257,0.5508,-3.052,-1.282,1.282,54.327,6.471,-32.036
3469,-0.0781,0.8389,0.5806,-1.892,-9.399,1.160,54.311,6.389,-32.102
3479,-0.1006,0.8315,0.6016,1.465,-14.099,0.427,54.311,6.295,-32.217
3489,-0.1123,0.8169,0.6201,3.662,-14.221,-0.061,54.322,6.213,-32.333
3499,-0.1187,0.8066,0.6230,3.418,-10.498,-0.061,54.327,6.158,-32.421
3509,-0.1191,0.8013,0.6250,0.854,-4.822,0.000,54.305,6.136,-32.459
3519,-0.1006,0.8066,0.6382,-3.357,0.427,-0.305,54.245,6.136,-32.459
3529,-0.1035,0.8159,0.6343,-6.409,3.540,-0.549,54.168,6.158,-32.432
3539,-0.1064,0.8193,0.6353,-7.080,4.639,-0.916,54.080,6.185,-32.399
3549,-0.1104,0.8262,0.6333,-5.615,4.150,-1.160,54.009,6.218,-32.371
3559,-0.1226,0.8169,0.6206,-2.136,2.808,-1.099,53.981,6.251,-32.355
3569,-0.1235,0.8110,0.6021,0.366,2.075,-0.366,53.981,6.273,-32.338
3579,-0.1328,0.8071,0.5874,1.465,2.563,0.305,53.998,6.295,-32.316
3589,-0.1396,0.7969,0.5586,1.404,4.517,0.061,54.025,6.345,-32.283
3599,-0.1401,0.7876,0.5317,0.305,6.836,-0.366,54.053,6.405,-32.228
3609,-0.1265,0.7700,0.5190,-1.343,8.240,-0.488,54.064,6.471,-32.162
3619,-0.1001,0.7749,0.5298,-3.723,6.897,-0.061,54.053,6.509,-32.108
3629,-0.0762,0.7964,0.5649,-4.578,2.136,0.671,54.014,6.493,-32.086
3639,-0.0645,0.8267,0.6089,-2.441,-4.761,1.465,53.981,6.427,-32.119
3649,-0.0820,0.8477,0.6387,2.991,-10.681,1.770,53.992,6.328,-32.190
3659,-0.1187,0.8506,0.6382,10.193,-12.024,1.587,54.075,6.246,-32.283
3669,-0.1533,0.8252,0.6011,16.235,-7.568,1.160,54.229,6.218,-32.338
3679,-0.1694,0.7856,0.5400,18.250,1.160,0.488,54.426,6.257,-32.322
3689,-0.1509,0.7505,0.4995,12.695,9.766,0.732,54.580,6.339,-32.239
3699,-0.1074,0.7603,0.4912,1.709,13.367,2.075,54.635,6.405,-32.119
3709,-0.0649,0.8047,0.5264,-8.545,8.789,2.930,54.580,6.405,-32.031
3720,-0.0640,0.8511,0.5669,-12.024,-0.977,2.747,54.481,6.350,-32.020
3729,-0.0791,0.8691,0.6050,-7.629,-10.010,1.465,54.404,6.262,-32.091
3739,-0.0928,0.8560,0.6348,0.671,-14.832,0.244,54.388,6.158,-32.212
3749,-0.1235,0.8281,0.6338,7.812,-14.282,-0.305,54.432,6.086,-32.333
3759,-0.1421,0.7930,0.6118,10.498,-8.972,-0.366,54.509,6.059,-32.410
3769,-0.1401,0.7690,0.5972,6.958,-1.343,0.488,54.553,6.064,-32.415
3779,-0.1250,0.7788,0.5840,-0.854,5.493,1.526,54.536,6.097,-32.360
3789,-0.1011,0.8052,0.5825,-8.179,9.155,2.075,54.459,6.130,-32.272
3799,-0.0811,0.8364,0.5913,-11.597,8.423,2.258,54.355,6.147,-32.190
3809,-0.0820,0.8555,0.5972,-9.521,4.456,1.953,54.272,6.141,-32.146
3819,-0.0933,0.8486,0.5996,-3.845,-0.122,0.854,54.240,6.119,-32.141
3829,-0.1133,0.8242,0.5937,2.258,-2.686,-0.183,54.261,6.108,-32.162
3839,-0.1260,0.7969,0.5791,5.371,-2.197,-0.671,54.311,6.114,-32.184
3849,-0.1279,0.7817,0.5698,4.089,0.427,0.000,54.349,6.130,-32.184
3859,-0.1138,0.7832,0.5718,-0.122,3.479,0.977,54.344,6.147,-32.146
3869,-0.0918,0.8037,0.5884,-4.578,4.822,1.892,54.300,6.152,-32.097
3879,-0.0884,0.8320,0.6045,-6.165,3.662,2.075,54.240,6.141,-32.053
3889,-0.0937,0.8447,0.6118,-3.601,1.831,1.221,54.207,6.136,-32.031
3899,-0.1094,0.8335,0.5996,1.038,0.671,0.427,54.218,6.136,-32.025
3909,-0.1274,0.8110,0.5757,4.517,1.587,-0.183,54.267,6.158,-32.014
3919,-0.1338,0.7896,0.5508,4.272,3.906,-0.366,54.322,6.202,-31.981
3929,-0.1250,0.7847,0.5342,1.465,6.226,-0.061,54.355,6.251,-31.932
3939,-0.0864,0.8027,0.5532,-1.709,6.165,0.732,54.355,6.268,-31.877
3949,-0.0645,0.8413,0.5845,-2.380,1.648,1.465,54.344,6.240,-31.855
3959,-0.0654,0.8726,0.6201,1.526,-5.188,1.587,54.355,6.169,-31.888
3969,-0.0776,0.8892,0.6484,8.972,-10.864,0.366,54.432,6.081,-31.976
3979,-0.1221,0.8730,0.6294,18.982,-12.085,-2.075,54.602,6.031,-32.086
3989,-0.1572,0.8110,0.5718,26.489,-6.592,-3.723,54.860,6.053,-32.162
3999,-0.1602,0.7534,0.5161,24.353,2.502,-3.296,55.107,6.136,-32.162
4009,-0.1450,0.7354,0.4761,12.817,10.376,-1.282,55.267,6.235,-32.086
4019,-0.1177,0.7563,0.4644,-2.441,13.306,0.854,55.283,6.317,-31.970
4029,-0.0903,0.7891,0.4844,-13.977,10.498,2.075,55.190,6.350,-31.871
4039,-0.0742,0.8252,0.5234,-18.433,3.418,2.319,55.036,6.334,-31.827
4049,-0.0747,0.8535,0.5615,-15.686,-5.066,1.526,54.893,6.268,-31.860
4059,-0.0894,0.8442,0.5874,-7.202,-11.841,0.488,54.811,6.185,-31.954
4069,-0.1060,0.8188,0.6050,0.366,-14.526,0.427,54.794,6.097,-32.075
4079,-0.1211,0.8008,0.6123,3.662,-12.939,0.977,54.794,6.021,-32.173
4089,-0.1309,0.7900,0.6118,2.075,-7.812,1.709,54.783,5.977,-32.228
4099,-0.1299,0.7852,0.6064,-3.906,-1.099,2.441,54.723,5.966,-32.223
4109,-0.1201,0.7979,0.6006,-11.597,5.432,2.869,54.597,5.982,-32.162
4119,-0.1089,0.8193,0.6025,-17.883,9.277,2.625,54.421,6.015,-32.069
4129,-0.0850,0.8408,0.6167,-20.020,9.277,1.953,54.223,6.042,-31.981
4139,-0.0859,0.8511,0.6260,-17.822,5.493,1.221,54.047,6.048,-31.932
4149,-0.0996,0.8462,0.6309,-11.108,1.404,0.427,53.932,6.048,-31.915
4159,-0.1035,0.8335,0.6309,-3.906,-0.488,0.000,53.882,6.042,-31.921
4169,-0.1143,0.8179,0.6128,1.770,-0.183,0.183,53.893,6.042,-31.921
4179,-0.1216,0.8013,0.5933,3.967,2.258,0.488,53.926,6.059,-31.899
4189,-0.1074,0.7998,0.5933,1.648,5.005,0.732,53.943,6.086,-31.855
4199,-0.0996,0.8086,0.5947,-2.075,6.287,0.854,53.926,6.108,-31.800
4209,-0.0991,0.8232,0.6030,-5.188,5.798,0.427,53.882,6.136,-31.750
4220,-0.1021,0.8335,0.6118,-5.676,4.517,-0.427,53.828,6.158,-31.712
4229,-0.1094,0.8315,0.6055,-3.296,3.601,-1.221,53.795,6.191,-31.690
4239,-0.1172,0.8193,0.5918,0.183,3.662,-1.343,53.806,6.224,-31.674
4249,-0.1221,0.8057,0.5693,3.113,4.883,-0.916,53.849,6.268,-31.635
4259,-0.1128,0.7944,0.5527,4.089,6.104,-0.427,53.904,6.312,-31.591
4269,-0.0991,0.7964,0.5503,3.235,6.042,-0.061,53.959,6.345,-31.542
4279,-0.0947,0.8027,0.5537,2.319,3.723,-0.061,53.998,6.356,-31.509
4289,-0.0991,0.8145,0.5669,2.197,0.305,-0.610,54.031,6.356,-31.514
4299,-0.0986,0.8154,0.5840,2.808,-2.686,-1.221,54.058,6.345,-31.542
4309,-0.0967,0.8169,0.6016,3.113,-4.761,-1.465,54.080,6.317,-31.591
4319,-0.1162,0.8174,0.5981,3.967,-5.005,-1.831,54.113,6.306,-31.641
4329,-0.1289,0.8057,0.5796,5.432,-2.441,-2.014,54.163,6.323,-31.674
4339,-0.1255,0.7920,0.5664,5.798,1.587,-1.770,54.223,6.356,-31.668
4349,-0.1108,0.7803,0.5542,4.822,4.272,-1.221,54.278,6.389,-31.641
4359,-0.0884,0.7866,0.5713,1.221,3.479,-0.305,54.294,6.400,-31.613
4369,-0.0840,0.8135,0.5986,-2.197,-0.488,0.061,54.261,6.383,-31.619
4379,-0.0962,0.8330,0.6226,-1.465,-5.066,-0.488,54.234,6.345,-31.663
4389,-0.1211,0.8423,0.6284,2.991,-7.263,-1.526,54.245,6.317,-31.729
4399,-0.1421,0.8242,0.6069,9.644,-5.371,-2.136,54.327,6.323,-31.789
4409,-0.1494,0.7837,0.5669,13.916,-0.366,-1.343,54.465,6.356,-31.800
4419,-0.1226,0.7710,0.5547,11.047,4.517,0.183,54.575,6.389,-31.761
4429,-0.0898,0.8027,0.5698,3.540,5.432,1.282,54.619,6.400,-31.707
4439,-0.0996,0.8403,0.5825,-0.916,2.686,0.854,54.619,6.400,-31.679
4449,-0.1147,0.8535,0.5913,-0.305,0.366,-0.305,54.619,6.400,-31.679
4459,-0.1279,0.8403,0.5898,2.930,0.183,-1.099,54.651,6.416,-31.685
4469,-0.1387,0.8105,0.5659,4.822,1.709,-1.099,54.706,6.454,-31.679
4479,-0.1499,0.7827,0.5337,2.441,4.395,-0.488,54.745,6.504,-31.646
4489,-0.1509,0.7715,0.5029,-2.869,7.751,0.183,54.745,6.575,-31.580
4499,-0.1328,0.7739,0.4844,-8.484,10.742,0.732,54.701,6.652,-31.487
4509,-0.1021,0.7925,0.4946,-12.573,10.620,1.709,54.624,6.691,-31.388
4519,-0.0820,0.8193,0.5215,-14.160,6.104,2.747,54.520,6.685,-31.322
4529,-0.0830,0.8350,0.5571,-11.841,-1.160,2.991,54.421,6.636,-31.317
4539,-0.0928,0.8359,0.5908,-7.507,-7.812,2.319,54.344,6.559,-31.366
4549,-0.1050,0.8301,0.6230,-3.296,-11.475,1.404,54.289,6.471,-31.454
4559,-0.1162,0.8203,0.6382,-0.488,-11.414,1.038,54.250,6.400,-31.536
4569,-0.1138,0.8130,0.6460,-0.061,-8.240,1.587,54.218,6.334,-31.597
4579,-0.0991,0.8223,0.6577,-1.343,-3.601,2.319,54.174,6.284,-31.613
4589,-0.0962,0.8398,0.6631,-2.075,0.366,2.563,54.130,6.257,-31.597
4599,-0.0977,0.8418,0.6631,-1.038,2.869,1.770,54.102,6.246,-31.558
4609,-0.1089,0.8364,0.6562,0.793,4.395,0.061,54.091,6.268,-31.525
4619,-0.1255,0.8203,0.6372,3.052,5.676,-1.831,54.102,6.323,-31.487
4629,-0.1357,0.7969,0.6143,4.089,7.446,-2.380,54.135,6.400,-31.443
4639,-0.1396,0.7900,0.5859,3.601,9.521,-1.465,54.168,6.482,-31.371
4649,-0.1377,0.7900,0.5615,2.380,11.658,0.061,54.207,6.564,-31.278
4659,-0.1250,0.7944,0.5571,0.061,13.184,1.343,54.229,6.641,-31.163
4669,-0.1250,0.7930,0.5293,-1.648,13.855,2.319,54.245,6.707,-31.036
4679,-0.1367,0.7900,0.5020,0.732,12.573,2.441,54.300,6.779,-30.921
4689,-0.1372,0.7778,0.4990,2.319,10.498,2.014,54.366,6.839,-30.822
4699,-0.1235,0.7710,0.4902,2.319,8.972,1.953,54.432,6.883,-30.734
4709,-0.1069,0.7812,0.5024,1.526,5.737,2.319,54.481,6.894,-30.674
4720,-0.0942,0.8032,0.5249,0.183,0.427,3.235,54.509,6.861,-30.652
4729,-0.0972,0.8184,0.5557,-0.793,-5.249,3.967,54.514,6.784,-30.674
4739,-0.1011,0.8296,0.5840,-1.038,-9.399,3.906,54.498,6.685,-30.729
4749,-0.0996,0.8457,0.6050,-0.366,-11.658,3.235,54.487,6.581,-30.806
4759,-0.1157,0.8408,0.6089,1.892,-12.146,2.502,54.492,6.487,-30.888
4769,-0.1255,0.8281,0.6084,3.540,-9.949,1.831,54.509,6.422,-30.959
4779,-0.1177,0.8232,0.6094,3.601,-6.042,1.526,54.531,6.378,-30.998
4789,-0.1055,0.8237,0.6157,2.808,-3.052,1.465,54.542,6.345,-31.014
4799,-0.0947,0.8350,0.6270,1.221,-2.197,1.526,54.542,6.306,-31.025
4809,-0.1016,0.8457,0.6289,0.793,-2.747,1.282,54.536,6.273,-31.042
4819,-0.1084,0.8472,0.6304,1.831,-2.747,0.488,54.542,6.246,-31.058
4829,-0.1230,0.8364,0.6138,3.296,-1.648,-0.488,54.564,6.246,-31.075
4839,-0.1338,0.8115,0.5850,4.333,1.221,-1.404,54.602,6.279,-31.075
4849,-0.1235,0.7905,0.5630,2.686,4.822,-1.709,54.630,6.328,-31.047
4859,-0.1216,0.7866,0.5396,-0.122,7.080,-1.404,54.646,6.394,-30.992
4869,-0.0898,0.7983,0.5522,-2.380,7.202,-1.038,54.635,6.432,-30.943
4879,-0.0513,0.8408,0.6035,-2.136,2.441,-0.916,54.613,6.416,-30.927
4889,-0.0669,0.8804,0.6333,5.249,-5.798,-1.770,54.651,6.367,-30.987
4899,-0.1060,0.8726,0.6318,17.700,-11.902,-2.563,54.811,6.312,-31.097
4909,-0.1431,0.8218,0.6055,28.137,-11.841,-2.197,55.063,6.279,-31.207
4919,-0.1675,0.7695,0.5449,30.212,-5.432,-1.404,55.355,6.301,-31.262
4929,-0.1704,0.7266,0.4897,21.240,4.150,-0.427,55.574,6.372,-31.229
4939,-0.1465,0.7236,0.4565,4.333,13.000,0.977,55.651,6.471,-31.113
4949,-0.1055,0.7510,0.4619,-13.367,17.212,2.319,55.563,6.553,-30.959
4959,-0.0859,0.8027,0.4819,-25.574,15.015,3.113,55.360,6.597,-30.817
4969,-0.0811,0.8491,0.5166,-28.137,8.301,2.991,55.124,6.597,-30.729
4979,-0.0864,0.8647,0.5439,-21.179,-0.305,2.441,54.943,6.559,-30.718
4989,-0.1035,0.8477,0.5591,-10.010,-7.629,1.648,54.855,6.498,-30.773
4999,-0.1216,0.8203,0.5659,-0.793,-11.475,1.465,54.844,6.422,-30.861
5009,-0.1211,0.8052,0.5757,2.808,-11.414,1.831,54.860,6.350,-30.943
5019,-0.1089,0.8062,0.5952,1.038,-9.766,2.441,54.849,6.273,-31.009
5029,-0.1089,0.8237,0.6157,-2.930,-7.629,3.052,54.800,6.202,-31.053
5039,-0.0942,0.8423,0.6416,-7.263,-5.127,3.174,54.701,6.136,-31.075
5049,-0.0903,0.8701,0.6694,-9.888,-3.784,2.563,54.580,6.081,-31.091
5059,-0.0986,0.8745,0.6738,-7.751,-3.296,0.916,54.481,6.042,-31.113
5069,-0.1230,0.8584,0.6577,-3.418,-2.136,-1.099,54.426,6.042,-31.141
5079,-0.1382,0.8262,0.6284,1.648,1.282,-2.563,54.421,6.086,-31.141
5089,-0.1338,0.7866,0.5962,3.662,5.554,-2.319,54.448,6.152,-31.113
5099,-0.1235,0.7749,0.5664,1.892,9.033,-0.854,54.465,6.224,-31.042
5109,-0.0967,0.7866,0.5625,-1.709,9.644,0.610,54.459,6.273,-30.959
5119,-0.0884,0.8174,0.5688,-3.906,7.263,1.343,54.432,6.290,-30.894
5129,-0.0957,0.8267,0.5742,-2.380,3.784,1.038,54.421,6.295,-30.855
5139,-0.1021,0.8262,0.5776,0.732,1.343,0.183,54.437,6.295,-30.844
5149,-0.1226,0.8159,0.5615,3.662,0.977,-0.549,54.481,6.312,-30.839
5159,-0.1270,0.7920,0.5435,4.272,2.991,-0.732,54.536,6.350,-30.817
5169,-0.1167,0.7842,0.5400,1.709,5.493,-0.183,54.569,6.389,-30.773
5179,-0.0937,0.7998,0.5493,-1.892,6.104,0.610,54.564,6.411,-30.723
5189,-0.0786,0.8311,0.5723,-3.418,3.723,1.038,54.547,6.405,-30.685
5199,-0.0791,0.8496,0.5918,-1.160,-0.610,0.854,54.542,6.372,-30.685
5209,-0.0981,0.8530,0.6035,3.418,-4.395,0.061,54.569,6.334,-30.718
5220,-0.1221,0.8457,0.5962,7.141,-5.371,-0.916,54.641,6.317,-30.767
5229,-0.1445,0.8149,0.5728,8.850,-3.235,-1.831,54.723,6.334,-30.806
5239,-0.1528,0.7842,0.5430,6.470,1.343,-2.319,54.794,6.389,-30.811
5249,-0.1323,0.7729,0.5342,0.549,5.432,-1.892,54.811,6.449,-30.773
5259,-0.1025,0.7900,0.5527,-5.432,5.737,-0.854,54.761,6.487,-30.734
5269,-0.0806,0.8257,0.5918,-7.629,1.587,0.061,54.684,6.476,-30.718
5279,-0.0796,0.8584,0.6235,-3.662,-4.944,0.061,54.635,6.422,-30.762
5289,-0.0967,0.8687,0.6362,4.639,-9.766,-0.305,54.662,6.356,-30.844
5299,-0.1230,0.8550,0.6270,12.878,-10.010,-0.916,54.772,6.312,-30.932
5309,-0.1509,0.8096,0.5825,17.822,-5.432,-1.526,54.937,6.312,-30.981
5319,-0.1665,0.7593,0.5317,14.893,2.197,-1.709,55.085,6.378,-30.976
5329,-0.1577,0.7446,0.4897,4.395,9.644,-1.160,55.157,6.482,-30.905
5339,-0.1406,0.7456,0.4668,-6.836,13.550,0.000,55.129,6.581,-30.789
5349,-0.1167,0.7539,0.4741,-15.442,13.000,1.587,55.014,6.652,-30.674
5359,-0.0972,0.7861,0.4971,-19.958,8.118,3.113,54.855,6.663,-30.586
5369,-0.0767,0.8223,0.5361,-19.104,0.549,4.028,54.690,6.614,-30.558
5379,-0.0693,0.8472,0.5791,-13.733,-7.996,4.211,54.558,6.509,-30.602
5389,-0.0864,0.8511,0.6069,-5.798,-14.648,3.906,54.487,6.372,-30.701
5399,-0.1030,0.8467,0.6313,0.916,-16.479,3.357,54.476,6.246,-30.817
5409,-0.1182,0.8413,0.6396,5.371,-13.062,2.136,54.498,6.152,-30.910
5419,-0.1230,0.8228,0.6304,6.775,-6.165,1.038,54.542,6.114,-30.954
5429,-0.1089,0.8096,0.6323,3.967,0.610,0.977,54.558,6.108,-30.943
5439,-0.0996,0.8223,0.6353,-1.770,4.395,1.282,54.520,6.119,-30.899
5449,-0.0913,0.8462,0.6406,-5.859,5.188,1.282,54.454,6.125,-30.850
5459,-0.0957,0.8594,0.6440,-5.920,4.150,0.610,54.382,6.136,-30.811
5469,-0.1138,0.8516,0.6323,-1.831,2.930,-0.549,54.360,6.158,-30.789
5479,-0.1240,0.8311,0.6123,2.930,2.747,-1.404,54.382,6.191,-30.778
5489,-0.1309,0.8071,0.5859,7.324,3.479,-1.526,54.454,6.235,-30.756
5499,-0.1289,0.7866,0.5645,10.010,4.517,-0.916,54.553,6.284,-30.723
5509,-0.1133,0.7798,0.5557,10.254,5.066,0.122,54.662,6.317,-30.685
5519,-0.1030,0.7969,0.5576,8.118,4.089,0.793,54.750,6.328,-30.646
5529,-0.0967,0.8169,0.5635,5.371,2.441,1.038,54.811,6.328,-30.619
5539,-0.0996,0.8330,0.5664,2.502,1.221,0.977,54.849,6.317,-30.602
5549,-0.1118,0.8374,0.5615,0.488,1.343,0.244,54.866,6.323,-30.591
5559,-0.1226,0.8247,0.5449,-0.671,2.991,-0.732,54.877,6.356,-30.569
5569,-0.1265,0.8066,0.5229,-1.587,5.432,-1.221,54.888,6.405,-30.531
5579,-0.1152,0.7920,0.5137,-2.258,7.141,-1.099,54.893,6.460,-30.482
5589,-0.0918,0.7959,0.5239,-3.174,6.165,-0.366,54.882,6.493,-30.432
5599,-0.0840,0.8057,0.5400,-2.747,1.953,0.732,54.871,6.482,-30.410
5609,-0.0757,0.8296,0.5771,-2.075,-3.479,1.526,54.855,6.427,-30.432
5619,-0.0825,0.8530,0.6152,-0.427,-8.850,1.160,54.833,6.345,-30.498
5629,-0.1099,0.8545,0.6304,2.625,-11.658,-0.061,54.838,6.279,-30.591
5639,-0.1318,0.8394,0.6309,4.883,-9.766,-1.587,54.860,6.240,-30.685
5649,-0.1543,0.8115,0.6035,5.859,-3.784,-2.319,54.899,6.262,-30.729
5659,-0.1587,0.7783,0.5684,4.272,3.967,-2.258,54.932,6.334,-30.707
5669,-0.1318,0.7676,0.5537,-0.122,9.460,-1.038,54.932,6.416,-30.635
5679,-0.0889,0.7905,0.5703,-4.944,9.033,0.671,54.882,6.449,-30.558
5689,-0.0781,0.8320,0.6006,-6.226,2.930,1.465,54.816,6.432,-30.526
5699,-0.0854,0.8608,0.6284,-1.648,-4.272,1.038,54.789,6.383,-30.553
5709,-0.0903,0.8711,0.6514,5.859,-8.606,0.122,54.822,6.312,-30.624
5720,-0.1147,0.8550,0.6406,13.306,-9.033,-0.671,54.932,6.268,-30.701
5729,-0.1489,0.8145,0.5952,17.761,-4.639,-1.099,55.091,6.268,-30.745
5739,-0.1553,0.7749,0.5464,14.954,3.723,-0.977,55.239,6.328,-30.723
5749,-0.1484,0.7646,0.5000,6.531,12.390,0.061,55.327,6.427,-30.619
5759,-0.1235,0.7769,0.4678,-3.418,18.005,1.282,55.349,6.531,-30.465
5769,-0.0981,0.7988,0.4624,-11.353,18.250,2.258,55.300,6.614,-30.300
5779,-0.0864,0.8223,0.4751,-14.587,13.489,2.441,55.217,6.652,-30.174
5789,-0.0820,0.8354,0.5039,-13.733,5.310,1.892,55.124,6.652,-30.119
5799,-0.0986,0.8364,0.5278,-9.521,-3.479,0.977,55.052,6.614,-30.141
5809,-0.1162,0.8228,0.5493,-3.906,-9.705,0.183,55.020,6.559,-30.223
5819,-0.1323,0.8062,0.5601,0.244,-11.719,0.183,55.014,6.498,-30.317
5829,-0.1289,0.7964,0.5776,2.258,-10.071,0.671,55.014,6.449,-30.394
5839,-0.1128,0.7954,0.5957,1.221,-7.568,1.831,55.003,6.389,-30.449
5849,-0.0977,0.8120,0.6230,-1.526,-6.104,2.991,54.959,6.323,-30.482
5859,-0.0830,0.8379,0.6587,-4.822,-6.409,3.418,54.877,6.240,-30.515
5869,-0.0854,0.8623,0.6865,-5.798,-7.385,2.747,54.778,6.158,-30.558
5879,-0.1045,0.8682,0.6978,-3.601,-7.080,1.343,54.706,6.097,-30.608
5889,-0.1255,0.8589,0.6807,0.305,-3.601,0.122,54.673,6.081,-30.635
5899,-0.1343,0.8374,0.6431,3.540,2.747,-0.305,54.690,6.108,-30.619
5909,-0.1328,0.8164,0.5923,4.639,9.766,0.183,54.734,6.180,-30.536
5919,-0.1187,0.8110,0.5439,3.540,14.404,0.977,54.800,6.262,-30.410
5929,-0.0947,0.8242,0.5264,1.587,14.954,1.526,54.855,6.328,-30.278
5939,-0.0869,0.8330,0.5171,0.549,11.414,1.343,54.904,6.367,-30.179
5949,-0.0859,0.8359,0.5317,0.122,5.676,0.061,54.937,6.383,-30.130
5959,-0.0967,0.8374,0.5410,1.160,0.122,-1.648,54.970,6.389,-30.141
5969,-0.1177,0.8232,0.5469,3.601,-3.357,-3.235,55.014,6.400,-30.185
5979,-0.1240,0.7998,0.5464,5.554,-3.418,-3.723,55.069,6.422,-30.234
5989,-0.1294,0.7827,0.5317,6.042,-0.977,-2.869,55.135,6.454,-30.262
5999,-0.1226,0.7710,0.5249,4.883,2.319,-1.526,55.190,6.487,-30.251
6009,-0.1025,0.7812,0.5376,1.343,3.723,0.000,55.212,6.504,-30.218
6019,-0.1021,0.8052,0.5537,-2.197,1.953,0.793,55.195,6.504,-30.196
6029,-0.1113,0.8179,0.5713,-3.418,-1.221,0.366,55.157,6.493,-30.207
6039,-0.1216,0.8164,0.5835,-2.625,-3.540,-0.305,55.118,6.482,-30.240
6049,-0.1338,0.8110,0.5806,-0.427,-4.333,-0.305,55.107,6.471,-30.273
6059,-0.1372,0.7964,0.5718,0.793,-3.174,0.488,55.102,6.465,-30.300
6069,-0.1221,0.8037,0.5732,-0.122,-1.404,1.831,55.096,6.449,-30.300
6079,-0.1138,0.8164,0.5718,-1.038,-0.549,2.686,55.085,6.422,-30.289
6089,-0.1040,0.8335,0.5869,-1.770,-0.854,2.686,55.063,6.389,-30.278
6099,-0.0957,0.8506,0.6021,-1.831,-2.136,1.892,55.042,6.350,-30.289
6109,-0.1040,0.8491,0.6089,-0.305,-3.662,0.854,55.031,6.317,-30.311
6119,-0.1230,0.8379,0.6025,1.221,-3.662,-0.183,55.031,6.301,-30.344
6129,-0.1299,0.8257,0.5864,1.526,-1.404,-0.610,55.042,6.306,-30.361
6139,-0.1294,0.8174,0.5596,0.977,2.136,-0.244,55.058,6.334,-30.344
6149,-0.1143,0.8145,0.5400,-0.793,5.432,0.732,55.069,6.361,-30.295
6159,-0.0879,0.8281,0.5356,-3.113,6.287,1.465,55.063,6.372,-30.234
6169,-0.0854,0.8418,0.5361,-3.357,3.906,0.793,55.063,6.372,-30.196
6179,-0.0859,0.8438,0.5537,-2.014,0.183,-0.549,55.058,6.367,-30.196
6189,-0.0981,0.8394,0.5674,-0.122,-3.418,-1.648,55.063,6.350,-30.234
6199,-0.1206,0.8188,0.5752,2.197,-5.249,-2.319,55.074,6.345,-30.289
6209,-0.1284,0.8027,0.5732,2.686,-4.333,-2.319,55.091,6.350,-30.339
6220,-0.1265,0.7959,0.5698,1.099,-1.526,-1.404,55.091,6.361,-30.361
6229,-0.1182,0.8071,0.5708,-1.404,1.404,-0.305,55.074,6.378,-30.350
6239,-0.1079,0.8218,0.5771,-3.418,2.563,0.549,55.042,6.383,-30.328
6249,-0.0991,0.8350,0.5903,-3.662,1.526,0.427,55.003,6.383,-30.311
6259,-0.1064,0.8398,0.6006,-2.502,-0.549,-0.427,54.976,6.378,-30.322
6269,-0.1265,0.8242,0.5977,-0.183,-1.892,-1.465,54.959,6.383,-30.344
6279,-0.1426,0.7983,0.5762,2.014,-0.916,-2.014,54.970,6.416,-30.361
6289,-0.1357,0.7803,0.5640,1.709,1.770,-1.282,54.981,6.449,-30.355
6299,-0.1196,0.7881,0.5552,-0.488,3.357,0.366,54.976,6.476,-30.328
6309,-0.1011,0.8120,0.5586,-1.892,2.502,1.587,54.965,6.471,-30.295
6319,-0.0737,0.8467,0.5908,-1.526,-0.916,2.014,54.954,6.422,-30.289
6329,-0.0864,0.8735,0.6104,2.197,-5.920,1.282,54.970,6.361,-30.333
6339,-0.1152,0.8691,0.6152,7.935,-8.606,-0.488,55.036,6.317,-30.405
6349,-0.1362,0.8398,0.5996,12.390,-6.836,-2.075,55.146,6.306,-30.476
6359,-0.1548,0.7969,0.5596,13.733,-1.648,-2.563,55.278,6.345,-30.504
6369,-0.1509,0.7588,0.5161,10.010,4.883,-1.770,55.388,6.416,-30.476
6379,-0.1182,0.7632,0.5020,2.136,9.155,0.000,55.426,6.476,-30.399
6389,-0.0889,0.7935,0.5078,-4.822,7.935,1.709,55.410,6.498,-30.322
6399,-0.0615,0.8345,0.5430,-7.324,2.014,2.441,55.355,6.460,-30.289
6409,-0.0610,0.8633,0.5835,-4.883,-6.104,1.648,55.305,6.378,-30.333
6419,-0.0903,0.8584,0.6079,0.916,-11.963,0.061,55.300,6.295,-30.432
6429,-0.1133,0.8369,0.6162,5.066,-12.451,-1.282,55.322,6.235,-30.542
6439,-0.1372,0.8140,0.6055,6.042,-7.812,-1.770,55.355,6.224,-30.619
6449,-0.1445,0.7891,0.5781,3.967,-0.427,-1.221,55.377,6.251,-30.624
6459,-0.1392,0.7798,0.5542,-0.793,7.080,0.427,55.366,6.306,-30.564
6469,-0.1323,0.7866,0.5312,-5.737,11.597,2.197,55.327,6.372,-30.460
6479,-0.1138,0.7935,0.5186,-8.789,11.780,2.991,55.267,6.416,-30.344
6489,-0.0967,0.8086,0.5259,-10.193,7.141,3.540,55.195,6.422,-30.262
6499,-0.1001,0.8223,0.5322,-8.545,-0.183,3.357,55.129,6.389,-30.245
6509,-0.0977,0.8193,0.5518,-5.005,-6.348,2.625,55.085,6.323,-30.284
6519,-0.1060,0.8213,0.5684,-2.502,-9.399,2.380,55.058,6.246,-30.344
6529,-0.1128,0.8188,0.5806,-0.854,-9.033,2.380,55.036,6.180,-30.410
6539,-0.1069,0.8164,0.5962,-1.099,-6.409,2.625,55.009,6.119,-30.443
6549,-0.1050,0.8232,0.6030,-2.197,-3.418,2.686,54.976,6.075,-30.460
6559,-0.0884,0.8291,0.6216,-3.052,-1.404,2.686,54.926,6.037,-30.454
6569,-0.0796,0.8535,0.6396,-3.784,-1.160,2.808,54.871,5.988,-30.449
6579,-0.0972,0.8657,0.6353,-1.770,-1.587,2.502,54.844,5.949,-30.443
6589,-0.1167,0.8599,0.6182,1.465,-0.366,1.587,54.855,5.938,-30.438
6599,-0.1226,0.8418,0.5928,3.113,2.686,1.038,54.888,5.955,-30.410
6609,-0.1265,0.8242,0.5601,2.319,5.981,0.671,54.926,5.993,-30.361
6619,-0.1226,0.8115,0.5371,-0.610,7.996,0.366,54.943,6.048,-30.289
6629,-0.1094,0.8101,0.5283,-3.601,7.690,0.122,54.932,6.097,-30.229
6639,-0.0894,0.8188,0.5454,-4.578,4.883,-0.183,54.904,6.114,-30.185
6649,-0.0693,0.8320,0.5796,-2.991,-0.244,-0.366,54.877,6.097,-30.190
6659,-0.0596,0.8530,0.6226,0.916,-6.287,-0.793,54.871,6.037,-30.245
6669,-0.0869,0.8726,0.6392,6.958,-10.864,-1.648,54.915,5.977,-30.344
6679,-0.1494,0.8560,0.5918,15.259,-9.583,-3.052,55.063,5.966,-30.443
6689,-0.1782,0.7852,0.5186,22.095,-0.916,-3.723,55.294,6.037,-30.471
6699,-0.1616,0.7295,0.4570,19.653,9.155,-2.136,55.519,6.152,-30.410
6709,-0.1392,0.7139,0.4062,8.850,14.648,0.488,55.668,6.268,-30.284
6720,-0.1069,0.7266,0.4028,-4.761,12.878,2.563,55.690,6.328,-30.163
6729,-0.0752,0.7671,0.4414,-15.686,4.517,3.967,55.585,6.306,-30.103
6739,-0.0669,0.8105,0.4912,-18.188,-7.324,4.089,55.432,6.207,-30.141
6749,-0.0679,0.8301,0.5430,-13.733,-17.944,3.479,55.294,6.059,-30.267
6759,-0.0718,0.8364,0.5977,-6.958,-25.024,3.174,55.201,5.872,-30.460
6769,-0.0791,0.8428,0.6436,-0.854,-27.161,2.930,55.146,5.674,-30.663
6779,-0.0957,0.8403,0.6802,2.258,-24.597,2.563,55.107,5.510,-30.855
6789,-0.1172,0.8350,0.6982,2.197,-17.700,1.953,55.063,5.400,-30.987
6799,-0.1265,0.8359,0.6831,0.122,-7.507,1.404,55.020,5.361,-31.042
6809,-0.1196,0.8330,0.6626,-2.625,2.502,1.526,54.959,5.372,-31.014
6819,-0.1104,0.8247,0.6284,-4.150,9.155,2.075,54.904,5.416,-30.927
6829,-0.0884,0.8306,0.6089,-5.371,10.620,2.747,54.849,5.449,-30.822
6839,-0.0713,0.8491,0.6064,-4.700,7.568,3.113,54.805,5.449,-30.740
6849,-0.0713,0.8613,0.6060,-1.831,2.075,2.808,54.789,5.422,-30.707
6859,-0.0923,0.8521,0.5977,2.686,-2.258,1.831,54.816,5.394,-30.718
6869,-0.1133,0.8296,0.5830,5.920,-2.808,0.732,54.877,5.378,-30.734
6879,-0.1187,0.8018,0.5601,5.981,0.305,0.183,54.937,5.394,-30.734
6889,-0.1074,0.7930,0.5444,2.686,4.333,0.793,54.976,5.422,-30.690
6899,-0.0967,0.8037,0.5327,-1.465,6.714,1.892,54.981,5.449,-30.624
6909,-0.0679,0.8237,0.5430,-3.601,6.409,2.380,54.970,5.449,-30.558
6919,-0.0498,0.8501,0.5625,-2.686,3.113,2.258,54.959,5.422,-30.520
6929,-0.0659,0.8564,0.5669,1.404,-1.648,1.343,54.987,5.389,-30.526
6939,-0.0801,0.8408,0.5654,5.188,-4.211,0.305,55.047,5.350,-30.558
6949,-0.0972,0.8218,0.5557,6.104,-3.967,-0.305,55.113,5.334,-30.591
6959,-0.1050,0.8027,0.5439,3.662,-1.709,-0.488,55.157,5.334,-30.608
6969,-0.1011,0.8013,0.5381,-1.465,0.916,-0.122,55.151,5.350,-30.602
6979,-0.0933,0.8115,0.5439,-6.104,2.197,0.366,55.102,5.361,-30.586
6989,-0.0830,0.8223,0.5596,-7.751,1.038,0.549,55.036,5.356,-30.569
6999,-0.0747,0.8320,0.5806,-6.775,-2.075,0.305,54.965,5.328,-30.586
7009,-0.0781,0.8354,0.6001,-3.296,-5.859,-0.061,54.921,5.284,-30.635
7019,-0.0850,0.8296,0.6147,0.793,-8.545,-0.305,54.910,5.235,-30.707
7029,-0.0981,0.8242,0.6167,3.357,-8.728,-0.183,54.921,5.191,-30.778
7039,-0.1128,0.8213,0.6069,3.906,-5.920,-0.244,54.937,5.169,-30.828
7049,-0.1128,0.8076,0.5908,2.563,-1.221,-0.061,54.954,5.175,-30.839
7059,-0.1021,0.8071,0.5840,-0.854,2.747,0.427,54.937,5.191,-30.817
7069,-0.0937,0.8159,0.5776,-4.211,4.272,0.610,54.899,5.213,-30.778
7079,-0.0928,0.8203,0.5762,-5.310,3.784,0.488,54.849,5.229,-30.745
7089,-0.0845,0.8242,0.5820,-4.517,2.319,0.183,54.805,5.240,-30.723
7099,-0.0806,0.8306,0.5859,-1.892,0.793,0.000,54.783,5.235,-30.718
7109,-0.0884,0.8262,0.5811,1.709,-0.427,0.000,54.805,5.229,-30.718
7119,-0.0933,0.8208,0.5742,4.395,-0.305,0.244,54.849,5.229,-30.723
7129,-0.1016,0.8135,0.5586,6.042,0.916,0.122,54.915,5.240,-30.712
7139,-0.1104,0.7998,0.5361,6.836,2.563,0.000,54.998,5.268,-30.690
7149,-0.0977,0.7920,0.5308,5.432,3.357,0.549,55.069,5.290,-30.663
7159,-0.0771,0.8120,0.5479,2.808,1.709,1.160,55.107,5.279,-30.641
7169,-0.0483,0.8442,0.5981,1.282,-2.808,1.343,55.113,5.229,-30.657
7179,-0.0591,0.8774,0.6323,4.211,-8.789,0.366,55.140,5.153,-30.723
7189,-0.0962,0.8687,0.6362,12.268,-11.536,-0.977,55.239,5.098,-30.828
7199,-0.1245,0.8247,0.6138,18.921,-8.423,-1.282,55.399,5.076,-30.905
7209,-0.1396,0.7769,0.5718,19.958,-1.709,-0.854,55.580,5.103,-30.921
7220,-0.1406,0.7427,0.5303,13.489,5.127,0.305,55.706,5.169,-30.877
7229,-0.1157,0.7520,0.5117,1.282,9.827,2.136,55.728,5.224,-30.784
7239,-0.0884,0.7861,0.5063,-8.484,10.437,3.723,55.668,5.257,-30.679
7249,-0.0635,0.8237,0.5220,-12.695,7.263,4.639,55.569,5.246,-30.591
7259,-0.0532,0.8604,0.5449,-11.169,1.526,4.822,55.481,5.191,-30.553
7269,-0.0664,0.8716,0.5542,-5.310,-4.456,3.967,55.448,5.120,-30.564
7279,-0.0811,0.8550,0.5547,1.343,-7.629,2.686,55.475,5.048,-30.613
7289,-0.0884,0.8398,0.5576,4.456,-7.263,1.831,55.525,4.993,-30.663
7299,-0.0898,0.8271,0.5522,3.113,-4.517,1.587,55.558,4.955,-30.690
7309,-0.0840,0.8286,0.5513,-0.671,-1.160,1.587,55.558,4.933,-30.690
7319,-0.0645,0.8413,0.5669,-4.700,1.221,1.709,55.519,4.911,-30.674
7329,-0.0591,0.8613,0.5850,-6.714,1.099,1.953,55.459,4.889,-30.652
7339,-0.0713,0.8711,0.5937,-5.371,-0.610,1.099,55.410,4.867,-30.652
7349,-0.0884,0.8560,0.5996,-2.014,-2.136,-0.305,55.382,4.856,-30.668
7359,-0.1069,0.8369,0.5874,1.038,-2.075,-1.526,55.388,4.867,-30.696
7369,-0.1089,0.8135,0.5762,2.014,-0.183,-1.831,55.399,4.894,-30.707
7379,-0.1040,0.8008,0.5605,0.732,1.892,-0.977,55.404,4.922,-30.696
7389,-0.0952,0.7988,0.5576,-0.854,2.625,-0.122,55.393,4.949,-30.674
7399,-0.0732,0.8125,0.5742,-1.892,1.343,0.427,55.366,4.944,-30.663
7409,-0.0547,0.8374,0.6079,-1.343,-2.014,0.732,55.338,4.905,-30.674
7419,-0.0664,0.8550,0.6313,0.854,-5.859,0.305,55.327,4.856,-30.723
7429,-0.0913,0.8496,0.6313,4.578,-6.775,-0.793,55.349,4.828,-30.784
7439,-0.1099,0.8315,0.6123,6.958,-2.991,-1.709,55.399,4.839,-30.817
7449,-0.1113,0.8081,0.5801,6.592,3.723,-1.892,55.453,4.889,-30.795
7459,-0.1045,0.7876,0.5483,3.235,9.460,-0.793,55.486,4.960,-30.723
7469,-0.0903,0.7891,0.5244,-1.526,11.841,0.671,55.492,5.026,-30.619
7479,-0.0640,0.8125,0.5259,-5.066,10.315,1.526,55.464,5.059,-30.526
7489,-0.0454,0.8369,0.5430,-4.883,5.005,1.770,55.437,5.048,-30.476
7499,-0.0581,0.8555,0.5620,-0.916,-1.770,1.160,55.437,5.010,-30.482
7509,-0.0640,0.8618,0.5894,4.639,-6.592,0.122,55.481,4.960,-30.536
7519,-0.0937,0.8594,0.5884,9.399,-8.179,-1.160,55.569,4.922,-30.613
7529,-0.1357,0.8369,0.5493,14.038,-4.883,-2.686,55.717,4.949,-30.668
7539,-0.1377,0.7930,0.5103,14.954,2.197,-2.319,55.876,5.010,-30.663
7549,-0.1152,0.7803,0.4854,10.193,8.057,-0.305,56.008,5.081,-30.597
7559,-0.0776,0.7969,0.4819,2.747,8.728,1.099,56.069,5.114,-30.520
7569,-0.0371,0.8340,0.5254,-2.808,2.930,1.465,56.063,5.092,-30.487
7579,-0.0200,0.8848,0.5898,-2.380,-7.446,0.671,56.036,5.004,-30.542
7589,-0.0425,0.9106,0.6284,5.859,-17.517,-1.282,56.074,4.889,-30.696
7599,-0.0908,0.8833,0.6382,16.541,-21.423,-2.930,56.201,4.796,-30.894
7609,-0.1240,0.8340,0.6123,22.522,-16.296,-3.174,56.387,4.752,-31.047
7619,-0.1348,0.7891,0.5728,19.592,-5.615,-2.441,56.552,4.774,-31.108
7629,-0.1304,0.7695,0.5327,8.118,5.737,-0.793,56.624,4.839,-31.064
7639,-0.1167,0.7817,0.5068,-6.653,14.099,0.793,56.574,4.933,-30.937
7649,-0.0991,0.7979,0.4897,-17.883,17.944,1.648,56.431,5.032,-30.778
7659,-0.0786,0.8179,0.4966,-23.743,17.334,2.380,56.228,5.103,-30.624
7669,-0.0605,0.8389,0.5112,-23.926,11.719,2.502,56.030,5.131,-30.509
7679,-0.0708,0.8428,0.5195,-17.944,3.113,1.892,55.876,5.120,-30.476
7689,-0.0845,0.8306,0.5347,-10.254,-4.272,1.160,55.783,5.087,-30.504
7699,-0.0923,0.8125,0.5444,-4.700,-7.935,1.160,55.739,5.032,-30.564
7709,-0.0928,0.8096,0.5552,-3.357,-7.446,1.770,55.701,4.982,-30.613
7720,-0.0850,0.8140,0.5708,-5.371,-5.066,2.380,55.635,4.933,-30.641
7729,-0.0708,0.8228,0.5986,-8.606,-2.502,2.686,55.530,4.889,-30.646
7739,-0.0610,0.8477,0.6279,-11.597,-1.221,2.625,55.399,4.845,-30.641
7749,-0.0708,0.8667,0.6450,-11.108,-1.038,1.953,55.267,4.812,-30.641
7759,-0.0718,0.8716,0.6543,-7.690,-0.671,0.916,55.168,4.790,-30.641
7769,-0.0884,0.8618,0.6426,-3.479,0.061,-0.061,55.118,4.790,-30.641
7779,-0.1040,0.8359,0.6152,0.305,2.258,-0.977,55.107,4.818,-30.630
7789,-0.0991,0.8154,0.5972,1.099,5.005,-1.160,55.107,4.867,-30.591
7799,-0.0957,0.8086,0.5771,-0.183,6.714,-0.427,55.102,4.911,-30.542
7809,-0.0903,0.8174,0.5674,-2.197,6.897,0.366,55.085,4.949,-30.482
7819,-0.0840,0.8306,0.5679,-2.319,5.493,0.366,55.074,4.977,-30.432
7829,-0.0889,0.8311,0.5688,-0.732,3.357,-0.183,55.074,4.999,-30.410
7839,-0.0942,0.8242,0.5654,1.221,2.136,-1.160,55.091,5.026,-30.399
7849,-0.0928,0.8120,0.5557,2.319,2.258,-1.526,55.118,5.054,-30.388
7859,-0.0991,0.7998,0.5425,2.625,2.869,-0.977,55.157,5.087,-30.366
7869,-0.0913,0.7969,0.5356,1.343,3.906,-0.244,55.179,5.114,-30.339
7879,-0.0811,0.8052,0.5342,-0.610,3.967,0.427,55.190,5.131,-30.300
7889,-0.0762,0.8071,0.5352,-1.465,2.502,0.793,55.190,5.131,-30.278
7899,-0.0674,0.8218,0.5508,-2.136,0.122,1.099,55.179,5.109,-30.273
7909,-0.0815,0.8345,0.5562,-1.587,-2.319,0.977,55.173,5.081,-30.284
7919,-0.0977,0.8276,0.5547,0.244,-2.808,0.244,55.184,5.070,-30.306
7929,-0.0942,0.8203,0.5586,0.977,-1.648,0.000,55.201,5.065,-30.317
7939,-0.0977,0.8213,0.5503,1.526,-0.671,0.000,55.223,5.065,-30.322
7949,-0.0771,0.8281,0.5713,2.625,-0.793,0.061,55.250,5.054,-30.333
7959,-0.0093,0.8677,0.6494,4.211,-4.517,0.305,55.267,4.982,-30.366
7969,0.0142,0.9497,0.7280,10.681,-13.794,-0.732,55.338,4.856,-30.487
7979,-0.0601,0.9604,0.7271,26.001,-22.522,-3.174,55.552,4.730,-30.690
7989,-0.1577,0.8970,0.6699,41.077,-20.569,-5.310,55.920,4.691,-30.888
7999,-0.1958,0.8066,0.5703,45.471,-5.981,-6.714,56.349,4.779,-30.976
8009,-0.1885,0.7275,0.4697,35.217,12.268,-6.592,56.711,4.977,-30.910
8019,-0.1592,0.6953,0.3892,14.404,25.879,-3.967,56.915,5.213,-30.718
8029,-0.1191,0.7109,0.3662,-7.751,30.212,-0.610,56.915,5.416,-30.465
8039,-0.0791,0.7485,0.3809,-22.949,25.574,2.319,56.772,5.532,-30.234
8049,-0.0591,0.7920,0.4185,-27.832,13.123,3.601,56.563,5.559,-30.108
8059,-0.0596,0.8184,0.4556,-21.973,-2.319,3.479,56.387,5.499,-30.108
8069,-0.0684,0.8081,0.4951,-11.047,-15.930,3.174,56.288,5.367,-30.223
8079,-0.0781,0.7939,0.5312,-2.502,-24.231,3.784,56.245,5.197,-30.405
8089,-0.0874,0.7930,0.5620,0.000,-26.001,4.761,56.212,5.015,-30.591
8099,-0.0903,0.8018,0.5942,-3.174,-21.912,5.798,56.140,4.850,-30.745
8109,-0.0815,0.8164,0.6260,-9.827,-13.855,6.714,56.003,4.713,-30.822
8119,-0.0601,0.8501,0.6650,-17.151,-5.127,7.019,55.794,4.614,-30.828
8129,-0.0459,0.8970,0.6968,-20.935,0.793,6.470,55.552,4.543,-30.784
8139,-0.0581,0.9238,0.6978,-17.883,2.991,5.249,55.355,4.499,-30.729
8149,-0.0752,0.9189,0.6831,-9.888,3.357,3.540,55.239,4.482,-30.679
8159,-0.0903,0.8979,0.6499,-2.441,3.723,2.014,55.206,4.488,-30.635
8169,-0.0991,0.8638,0.6074,1.404,4.883,0.916,55.223,4.515,-30.591
8179,-0.0986,0.8389,0.5649,0.793,6.531,0.366,55.239,4.559,-30.536
8189,-0.0859,0.8296,0.5435,-2.686,8.179,-0.183,55.234,4.614,-30.471
8199,-0.0674,0.8389,0.5474,-6.531,8.118,-0.854,55.190,4.658,-30.410
8209,-0.0571,0.8535,0.5601,-7.385,5.554,-1.648,55.135,4.686,-30.372
8220,-0.0547,0.8579,0.5825,-4.883,1.709,-2.747,55.096,4.702,-30.372
8229,-0.0654,0.8491,0.5894,0.366,-1.221,-3.784,55.096,4.713,-30.405
8239,-0.0845,0.8213,0.5757,5.676,-1.526,-4.395,55.151,4.746,-30.443
8249,-0.0913,0.7900,0.5537,7.446,1.038,-4.272,55.217,4.790,-30.460
8259,-0.0854,0.7710,0.5337,5.615,3.967,-2.991,55.278,4.839,-30.443
8269,-0.0801,0.7666,0.5244,1.587,5.127,-1.160,55.300,4.878,-30.410
8279,-0.0664,0.7896,0.5371,-3.235,4.333,0.183,55.278,4.894,-30.372
8289,-0.0732,0.8115,0.5518,-4.822,1.465,0.366,55.234,4.894,-30.355
8299,-0.0854,0.8179,0.5649,-2.563,-1.648,-0.183,55.206,4.883,-30.372
8309,-0.0986,0.8115,0.5732,1.038,-3.418,-0.488,55.212,4.878,-30.405
8319,-0.1128,0.8052,0.5713,3.540,-3.479,-0.305,55.239,4.878,-30.432
8329,-0.1108,0.7983,0.5645,3.296,-1.892,0.122,55.267,4.883,-30.449
8339,-0.0918,0.8057,0.5713,0.549,-0.244,1.221,55.267,4.872,-30.443
8349,-0.0776,0.8267,0.5845,-2.563,-0.183,1.892,55.234,4.856,-30.432
8359,-0.0747,0.8457,0.6025,-3.906,-1.526,1.526,55.190,4.823,-30.438
8369,-0.0781,0.8584,0.6157,-2.625,-2.686,0.488,55.151,4.801,-30.454
8379,-0.0967,0.8521,0.6025,0.793,-2.380,-0.488,55.157,4.796,-30.482
8389,-0.1113,0.8325,0.5684,4.395,0.061,-1.221,55.201,4.823,-30.487
8399,-0.1099,0.8130,0.5356,5.737,3.418,-1.160,55.278,4.867,-30.465
8409,-0.0894,0.7998,0.5127,4.272,5.127,-0.183,55.344,4.900,-30.421
8419,-0.0669,0.8086,0.5161,0.488,3.479,0.977,55.371,4.905,-30.388
8429,-0.0493,0.8350,0.5439,-2.869,-0.854,1.160,55.360,4.867,-30.388
8439,-0.0322,0.8579,0.5918,-3.296,-5.920,0.549,55.322,4.801,-30.432
8449,-0.0391,0.8765,0.6353,-0.488,-10.193,-0.610,55.300,4.719,-30.520
8459,-0.0786,0.8740,0.6426,5.371,-10.681,-2.197,55.327,4.669,-30.624
8469,-0.1021,0.8555,0.6294,10.559,-6.165,-3.296,55.410,4.675,-30.690
8479,-0.1128,0.8218,0.5937,12.634,1.038,-2.930,55.519,4.719,-30.701
8489,-0.1167,0.7993,0.5508,9.155,7.324,-1.770,55.613,4.796,-30.652
8499,-0.1104,0.7979,0.5166,2.380,11.230,-1.038,55.657,4.883,-30.564
8509,-0.0918,0.8027,0.5034,-4.028,11.414,-0.732,55.651,4.960,-30.471
8519,-0.0850,0.8086,0.5063,-7.751,8.118,-0.732,55.602,5.015,-30.410
8529,-0.0791,0.8130,0.5195,-7.751,2.991,-1.038,55.541,5.037,-30.388
8539,-0.0811,0.8169,0.5352,-4.944,-2.319,-1.282,55.503,5.032,-30.416
8549,-0.0928,0.8115,0.5459,-0.793,-6.042,-1.160,55.497,5.010,-30.476
8559,-0.0967,0.7998,0.5576,1.831,-7.019,-0.366,55.508,4.982,-30.536
8569,-0.0898,0.7974,0.5718,0.977,-5.981,0.610,55.503,4.944,-30.580
8579,-0.0864,0.8140,0.5850,-1.648,-4.211,1.160,55.470,4.911,-30.608
8589,-0.0864,0.8252,0.5947,-3.296,-2.808,1.526,55.426,4.883,-30.624
8599,-0.0903,0.8340,0.5972,-3.174,-1.343,1.709,55.382,4.861,-30.624
8609,-0.0845,0.8398,0.6045,-1.770,-0.244,1.404,55.355,4.845,-30.619
8619,-0.0859,0.8369,0.6064,-0.122,-0.244,1.282,55.338,4.834,-30.613
8629,-0.0981,0.8330,0.5981,1.587,-0.671,0.977,55.344,4.828,-30.613
8639,-0.1108,0.8315,0.5801,4.089,-0.061,0.488,55.382,4.839,-30.608
8649,-0.1025,0.8179,0.5591,8.423,1.465,0.427,55.470,4.856,-30.597
8659,-0.0996,0.7930,0.5400,12.817,1.465,1.038,55.602,4.867,-30.580
8669,-0.0972,0.7773,0.5215,13.916,0.061,2.075,55.745,4.856,-30.564
8679,-0.0640,0.7949,0.5430,9.766,-2.625,3.479,55.844,4.807,-30.569
8690,-0.0454,0.8384,0.5762,4.211,-6.470,4.333,55.876,4.713,-30.597
8699,-0.0469,0.8750,0.6040,2.197,-9.277,3.784,55.887,4.609,-30.652
8709,-0.0547,0.8877,0.6255,3.357,-8.728,2.563,55.909,4.521,-30.712
8720,-0.0713,0.8760,0.6187,5.249,-4.700,1.099,55.948,4.477,-30.745
8729,-0.0859,0.8477,0.5937,4.578,1.709,0.000,55.981,4.488,-30.729
8739,-0.0937,0.8252,0.5630,0.671,8.057,-0.366,55.992,4.548,-30.663
8749,-0.0962,0.8135,0.5269,-4.150,12.451,-0.366,55.970,4.631,-30.564
8759,-0.0918,0.8091,0.4932,-7.874,14.221,-0.061,55.926,4.719,-30.443
8769,-0.0669,0.8135,0.4863,-10.010,12.878,0.610,55.871,4.779,-30.333
8779,-0.0493,0.8306,0.5010,-10.986,7.629,1.404,55.794,4.790,-30.262
8789,-0.0596,0.8496,0.5220,-9.705,-0.183,1.221,55.728,4.763,-30.256
8799,-0.0791,0.8486,0.5444,-6.104,-6.470,-0.183,55.679,4.730,-30.311
8809,-0.0913,0.8306,0.5625,-2.441,-9.033,-1.465,55.651,4.691,-30.394
8819,-0.1006,0.8140,0.5703,-0.854,-7.996,-1.587,55.629,4.675,-30.471
8829,-0.1006,0.8062,0.5762,-1.648,-4.761,-0.854,55.596,4.664,-30.515
8839,-0.0825,0.8110,0.5928,-4.211,-1.831,0.488,55.536,4.653,-30.526
8849,-0.0635,0.8345,0.6128,-6.226,-1.038,1.465,55.453,4.620,-30.526
8859,-0.0649,0.8496,0.6230,-4.822,-2.136,1.343,55.393,4.587,-30.536
8869,-0.0708,0.8516,0.6284,-1.099,-3.174,0.488,55.360,4.559,-30.564
8879,-0.0874,0.8374,0.6226,2.319,-2.625,-0.488,55.360,4.548,-30.586
8889,-0.1011,0.8105,0.6011,3.601,-0.061,-1.221,55.377,4.570,-30.591
8899,-0.1074,0.7964,0.5791,1.648,3.601,-1.221,55.382,4.620,-30.569
8909,-0.1045,0.7949,0.5518,-1.404,7.080,-0.610,55.371,4.680,-30.515
8919,-0.0854,0.8037,0.5386,-3.906,9.094,0.854,55.344,4.724,-30.438
8929,-0.0640,0.8311,0.5444,-5.066,7.690,2.197,55.316,4.741,-30.361
8939,-0.0620,0.8540,0.5513,-3.357,3.418,2.380,55.305,4.730,-30.317
8949,-0.0693,0.8604,0.5635,0.183,-1.038,1.465,55.322,4.702,-30.317
8959,-0.0991,0.8452,0.5591,4.211,-3.418,0.183,55.371,4.691,-30.344
8969,-0.1558,0.8247,0.5020,8.606,-1.404,-1.282,55.486,4.735,-30.366
8979,-0.1577,0.7632,0.4424,12.146,5.005,-1.831,55.657,4.834,-30.333
8989,-0.1040,0.7319,0.4258,10.376,9.766,0.366,55.805,4.905,-30.251
8999,0.0024,0.7798,0.4937,3.723,5.371,4.028,55.865,4.850,-30.185
9009,0.0752,0.8882,0.6260,-1.038,-11.108,6.592,55.844,4.647,-30.240
9019,0.0830,0.9946,0.7573,5.615,-32.532,4.395,55.849,4.351,-30.482
9029,0.0210,1.0459,0.8545,22.949,-48.462,-0.854,55.992,4.032,-30.888
9039,-0.1089,1.0000,0.8286,45.288,-48.279,-6.592,56.354,3.829,-31.328
9049,-0.1807,0.8950,0.7344,60.059,-29.053,-11.536,56.871,3.812,-31.635
9059,-0.1821,0.7847,0.6157,57.068,-1.343,-12.756,57.382,3.977,-31.718
9069,-0.1821,0.6968,0.4829,38.574,24.231,-9.338,57.755,4.268,-31.564
9079,-0.1743,0.6768,0.3687,10.742,43.335,-3.784,57.920,4.614,-31.212
9089,-0.1377,0.6787,0.3120,-16.602,53.711,1.709,57.865,4.938,-30.751
9099,-0.0806,0.7222,0.3022,-37.048,52.185,6.653,57.634,5.164,-30.267
9109,-0.0376,0.7969,0.3442,-46.936,37.476,9.888,57.294,5.257,-29.899
9119,-0.0386,0.8301,0.3779,-42.480,13.550,8.423,56.970,5.229,-29.740
9129,-0.0474,0.8428,0.4194,-25.940,-10.254,3.967,56.772,5.120,-29.806
9139,-0.0518,0.8125,0.4756,-9.644,-27.100,1.831,56.689,4.933,-30.020
9149,-0.0581,0.7993,0.5161,0.122,-34.912,2.380,56.667,4.713,-30.300
9159,-0.0542,0.7886,0.5630,1.892,-34.546,3.967,56.646,4.477,-30.569
9169,-0.0542,0.8140,0.6196,-4.333,-28.320,6.348,56.547,4.257,-30.773
9179,-0.0581,0.8501,0.6743,-14.771,-18.372,7.446,56.343,4.081,-30.883
9189,-0.0591,0.8940,0.7168,-23.193,-7.019,6.836,56.063,3.977,-30.905
9199,-0.0562,0.9287,0.7290,-25.452,2.319,5.371,55.772,3.933,-30.855
9209,-0.0620,0.9370,0.7227,-20.691,7.568,3.479,55.536,3.933,-30.773
9220,-0.0771,0.9146,0.6846,-13.489,9.399,1.709,55.388,3.972,-30.685
9229,-0.0898,0.8740,0.6450,-7.629,9.705,0.366,55.300,4.032,-30.602
9239,-0.0913,0.8462,0.6030,-4.883,10.071,-0.061,55.245,4.098,-30.520
9249,-0.0879,0.8345,0.5732,-4.639,10.376,-0.244,55.212,4.169,-30.438
9259,-0.0845,0.8242,0.5562,-4.761,10.071,-0.916,55.179,4.241,-30.361
9269,-0.0723,0.8208,0.5586,-5.371,9.094,-1.831,55.135,4.307,-30.295
9279,-0.0703,0.8369,0.5640,-5.310,7.263,-2.563,55.091,4.362,-30.251
9289,-0.0728,0.8184,0.5576,2.319,3.845,-2.991,55.124,4.411,-30.234
9299,-0.0762,0.8042,0.5400,5.432,3.723,-2.502,55.190,4.449,-30.218
9309,-0.0737,0.7842,0.5215,6.104,4.395,-1.770,55.261,4.488,-30.190
9319,-0.0659,0.7832,0.5127,3.723,4.822,-0.610,55.316,4.515,-30.157
9329,-0.0581,0.7969,0.5156,0.732,4.150,0.488,55.344,4.526,-30.119
9339,-0.0610,0.8101,0.5283,-0.854,2.014,0.977,55.355,4.521,-30.097
9349,-0.0620,0.8232,0.5508,-1.038,-0.732,0.916,55.355,4.499,-30.097
9359,-0.0806,0.8301,0.5586,0.488,-3.174,0.183,55.360,4.482,-30.125
9369,-0.1016,0.8223,0.5537,3.052,-3.540,-0.793,55.399,4.482,-30.157
9379,-0.0986,0.8115,0.5596,4.333,-1.892,-1.038,55.437,4.493,-30.179
9389,-0.0913,0.8159,0.5591,3.784,-0.793,-0.488,55.475,4.499,-30.185
9399,-0.0889,0.8242,0.5566,3.113,-1.099,0.061,55.514,4.499,-30.196
9409,-0.0732,0.8330,0.5698,2.258,-2.747,0.793,55.536,4.471,-30.212
9419,-0.0718,0.8477,0.5830,2.197,-5.310,1.038,55.552,4.433,-30.251
9429,-0.0762,0.8491,0.5972,3.479,-7.751,0.244,55.574,4.384,-30.317
9439,-0.0786,0.8428,0.6113,4.150,-8.606,-0.732,55.596,4.340,-30.388
9449,-0.0981,0.8286,0.6040,5.066,-7.446,-1.648,55.624,4.323,-30.460
9459,-0.0996,0.8096,0.5879,5.127,-3.235,-2.136,55.657,4.334,-30.498
9469,-0.0903,0.7954,0.5674,3.296,1.831,-1.221,55.679,4.367,-30.493
9479,-0.0718,0.8037,0.5610,0.061,5.188,0.549,55.673,4.389,-30.443
9489,-0.0498,0.8296,0.5669,-3.113,5.310,2.014,55.646,4.384,-30.388
9499,-0.0459,0.8506,0.5737,-3.174,2.747,2.136,55.624,4.367,-30.355
9509,-0.0430,0.8589,0.5854,-0.793,-0.366,1.160,55.613,4.334,-30.350
9519,-0.0557,0.8584,0.5933,2.136,-2.441,-0.061,55.635,4.307,-30.372
9529,-0.0698,0.8540,0.5903,4.089,-2.380,-0.977,55.668,4.296,-30.399
9539,-0.0835,0.8472,0.5806,4.333,-0.244,-1.465,55.712,4.312,-30.410
9549,-0.0937,0.8315,0.5605,3.479,3.479,-1.953,55.750,4.356,-30.388
9559,-0.0933,0.8193,0.5420,1.587,6.775,-2.075,55.778,4.422,-30.344
9569,-0.0898,0.8174,0.5259,-0.732,8.484,-1.709,55.789,4.493,-30.284
9579,-0.0830,0.8164,0.5181,-2.380,7.996,-1.465,55.789,4.554,-30.229
9589,-0.0718,0.8242,0.5239,-3.540,5.432,-1.221,55.772,4.592,-30.190
9599,-0.0684,0.8335,0.5278,-3.052,1.404,-1.038,55.761,4.598,-30.185
9609,-0.0664,0.8369,0.5425,-1.770,-2.441,-1.160,55.756,4.587,-30.212
9619,-0.0674,0.8379,0.5542,-0.427,-5.127,-1.587,55.756,4.565,-30.262
9629,-0.0723,0.8330,0.5674,0.732,-6.165,-2.136,55.756,4.543,-30.322
9639,-0.0781,0.8252,0.5776,1.221,-5.737,-2.625,55.756,4.532,-30.388
9649,-0.0830,0.8198,0.5835,1.343,-4.456,-2.991,55.750,4.532,-30.443
9659,-0.0918,0.8115,0.5830,1.160,-3.113,-2.808,55.745,4.548,-30.482
9669,-0.0996,0.8066,0.5723,0.732,-1.160,-2.197,55.739,4.570,-30.504
9679,-0.0986,0.7998,0.5532,0.244,0.854,-1.221,55.739,4.598,-30.504
9689,-0.0947,0.7915,0.5396,-0.732,2.380,0.122,55.734,4.620,-30.482
9699,-0.0854,0.7847,0.5322,-2.441,2.258,1.221,55.712,4.625,-30.460
9709,-0.0830,0.7852,0.5347,-4.456,0.000,1.770,55.668,4.614,-30.449
9720,-0.0908,0.7896,0.5537,-5.981,-3.479,2.258,55.602,4.587,-30.465
9729,-0.0908,0.8086,0.5723,-6.531,-6.226,2.686,55.525,4.537,-30.498
9739,-0.0962,0.8193,0.5884,-4.761,-6.897,3.601,55.464,4.477,-30.536
9749,-0.0786,0.8389,0.6079,-3.540,-5.249,4.395,55.410,4.411,-30.553
9759,-0.0664,0.8604,0.6265,-2.930,-3.357,4.822,55.371,4.345,-30.553
9769,-0.0552,0.8774,0.6411,-1.526,-2.197,4.272,55.338,4.285,-30.547
9779,-0.0542,0.8896,0.6475,0.671,-1.343,3.052,55.333,4.235,-30.542
9789,-0.0913,0.8892,0.6074,5.066,0.671,1.343,55.388,4.235,-30.531
9799,-0.1011,0.8623,0.5586,10.559,5.798,-0.732,55.508,4.285,-30.487
9809,-0.0869,0.8281,0.5142,13.489,10.132,-1.282,55.679,4.362,-30.410
9819,-0.0591,0.8145,0.4956,12.878,10.376,-0.793,55.838,4.417,-30.328
9829,-0.0103,0.8438,0.5322,8.240,4.700,-0.549,55.942,4.411,-30.295
9839,0.0044,0.8960,0.5889,6.470,-6.287,-1.587,56.008,4.340,-30.355
9849,-0.0317,0.9116,0.6206,11.658,-16.785,-4.272,56.113,4.257,-30.515
9859,-0.1079,0.8813,0.6060,20.020,-20.142,-7.141,56.288,4.219,-30.723
9869,-0.1392,0.8032,0.5615,26.001,-12.634,-8.545,56.519,4.257,-30.877
9879,-0.1299,0.7354,0.5190,21.362,-0.549,-6.592,56.711,4.351,-30.921
9889,-0.1152,0.7271,0.4829,6.653,9.460,-2.869,56.777,4.455,-30.855
9899,-0.0947,0.7524,0.4663,-9.338,14.160,0.061,56.711,4.548,-30.734
9909,-0.0811,0.7827,0.4731,-19.714,13.611,1.526,56.547,4.614,-30.613
9919,-0.0669,0.8101,0.4941,-22.827,9.583,2.075,56.349,4.647,-30.520
9929,-0.0620,0.8286,0.5181,-19.592,2.625,2.258,56.173,4.631,-30.487
9939,-0.0688,0.8257,0.5415,-12.939,-5.249,2.380,56.047,4.576,-30.520
9949,-0.0723,0.8218,0.5703,-6.897,-11.047,2.808,55.964,4.488,-30.591
9959,-0.0796,0.8247,0.5967,-3.967,-13.000,3.113,55.904,4.389,-30.685
9969,-0.0840,0.8267,0.6152,-3.662,-10.559,3.174,55.833,4.307,-30.756
9979,-0.0762,0.8364,0.6255,-4.944,-5.493,3.418,55.756,4.246,-30.778
9989,-0.0747,0.8428,0.6255,-6.104,-0.732,3.601,55.673,4.213,-30.767
9999,-0.0708,0.8506,0.6196,-6.531,2.686,3.601,55.596,4.197,-30.723
10009,-0.0669,0.8574,0.6152,-6.348,4.211,3.418,55.525,4.186,-30.668
10019,-0.0596,0.8672,0.6157,-5.798,4.089,2.869,55.459,4.175,-30.619
10029,-0.0586,0.8667,0.6226,-4.761,2.747,1.892,55.404,4.164,-30.586
10039,-0.0679,0.8691,0.6201,-3.296,1.709,0.488,55.366,4.164,-30.569
10049,-0.0791,0.8550,0.6016,-0.427,2.747,-0.793,55.355,4.186,-30.553
10059,-0.0835,0.8271,0.5859,2.136,5.371,-1.099,55.371,4.230,-30.515
10069,-0.0864,0.8193,0.5630,2.441,7.874,-0.916,55.404,4.290,-30.454
10079,-0.0801,0.8159,0.5449,1.892,9.155,-0.610,55.437,4.351,-30.383
10089,-0.0664,0.8198,0.5474,0.488,8.545,-0.122,55.453,4.395,-30.311
10099,-0.0649,0.8262,0.5498,-0.488,6.348,-0.122,55.464,4.427,-30.262
10109,-0.0742,0.8306,0.5488,-0.549,4.272,-0.916,55.470,4.455,-30.229
10119,-0.0791,0.8242,0.5483,-0.183,3.479,-1.404,55.481,4.488,-30.207
10129,-0.0835,0.8184,0.5435,-0.122,3.906,-1.221,55.486,4.521,-30.185
10139,-0.0903,0.8110,0.5269,0.061,4.700,-0.793,55.508,4.565,-30.146
10149,-0.0923,0.8047,0.5093,0.366,5.493,-0.244,55.536,4.609,-30.103
10159,-0.0747,0.8042,0.5117,0.366,5.371,0.183,55.563,4.636,-30.059
10169,-0.0654,0.8081,0.5215,0.183,2.625,0.854,55.585,4.636,-30.031
10179,-0.0674,0.8218,0.5396,-0.061,-1.831,0.977,55.591,4.609,-30.042
10189,-0.0771,0.8320,0.5635,0.183,-5.737,0.305,55.596,4.570,-30.086
10199,-0.0850,0.8301,0.5815,0.916,-7.568,-0.122,55.591,4.532,-30.152
10209,-0.0854,0.8286,0.6016,1.221,-7.202,-0.122,55.585,4.493,-30.212
10220,-0.0913,0.8301,0.6060,1.160,-5.310,0.061,55.574,4.471,-30.256
10229,-0.0898,0.8257,0.6055,0.732,-2.258,0.366,55.563,4.460,-30.273
10239,-0.0845,0.8247,0.5991,0.061,0.793,0.793,55.547,4.460,-30.262
10249,-0.0845,0.8252,0.5854,-0.488,2.808,1.221,55.536,4.471,-30.229
10259,-0.0811,0.8296,0.5713,-1.221,3.662,1.404,55.525,4.482,-30.190
10269,-0.0771,0.8408,0.5601,-1.831,3.723,1.221,55.519,4.493,-30.157
10279,-0.0742,0.8462,0.5464,-1.343,2.991,0.732,55.525,4.499,-30.125
10289,-0.0684,0.8467,0.5352,-0.488,2.197,0.183,55.541,4.504,-30.108
10299,-0.0649,0.8506,0.5293,0.366,1.343,-0.427,55.574,4.504,-30.097
10309,-0.0645,0.8530,0.5195,0.977,0.427,-0.854,55.613,4.510,-30.097
10319,-0.0620,0.8521,0.5146,1.099,-0.488,-1.282,55.657,4.504,-30.114
10329,-0.0605,0.8569,0.5210,0.732,-1.465,-1.709,55.690,4.499,-30.130
10339,-0.0640,0.8569,0.5234,0.000,-2.625,-2.319,55.717,4.499,-30.168
10349,-0.0664,0.8535,0.5322,-0.977,-3.479,-2.991,55.728,4.493,-30.212
10359,-0.0698,0.8428,0.5425,-2.686,-4.028,-3.845,55.712,4.499,-30.267
10369,-0.0688,0.8364,0.5581,-4.944,-4.272,-4.700,55.662,4.510,-30.328
10379,-0.0713,0.8301,0.5771,-6.714,-4.517,-5.554,55.585,4.521,-30.399
10389,-0.0737,0.8223,0.5937,-7.629,-4.700,-6.226,55.492,4.543,-30.471
10399,-0.0806,0.8203,0.6089,-7.324,-4.761,-6.653,55.393,4.570,-30.553
10409,-0.0864,0.8169,0.6157,-5.798,-4.639,-6.775,55.305,4.603,-30.630
10419,-0.0889,0.8145,0.6182,-3.540,-4.211,-6.470,55.239,4.636,-30.701
10429,-0.0923,0.8149,0.6167,-0.977,-3.479,-5.981,55.201,4.669,-30.762
10439,-0.0972,0.8149,0.6064,1.465,-2.502,-5.432,55.195,4.708,-30.811
10449,-0.1011,0.8096,0.5977,3.662,-1.404,-4.944,55.212,4.752,-30.855
10459,-0.0972,0.8032,0.5830,5.188,-0.488,-4.517,55.245,4.790,-30.883
10469,-0.0923,0.7974,0.5703,6.042,-0.366,-3.967,55.294,4.828,-30.910
10479,-0.0898,0.8003,0.5610,5.920,-0.854,-3.113,55.349,4.856,-30.932
10489,-0.0854,0.8096,0.5562,5.615,-1.709,-2.258,55.404,4.861,-30.959
10499,-0.0850,0.8105,0.5542,5.432,-2.686,-1.587,55.459,4.861,-30.992
10509,-0.0864,0.8169,0.5469,3.967,-3.174,-0.793,55.503,4.850,-31.025
10519,-0.0864,0.8291,0.5449,1.282,-2.747,-0.366,55.525,4.839,-31.047
10529,-0.0850,0.8398,0.5444,-1.526,-1.892,-0.244,55.525,4.834,-31.064
10539,-0.0806,0.8496,0.5410,-3.784,-0.671,-0.427,55.503,4.828,-31.075
10549,-0.0767,0.8574,0.5410,-5.249,0.366,-0.854,55.475,4.834,-31.075
10559,-0.0718,0.8569,0.5391,-6.531,0.793,-1.343,55.432,4.839,-31.075
10569,-0.0693,0.8525,0.5454,-7.935,0.427,-1.953,55.377,4.850,-31.086
10579,-0.0674,0.8428,0.5562,-10.071,-0.610,-2.563,55.283,4.856,-31.102
10589,-0.0669,0.8340,0.5752,-12.817,-2.075,-3.296,55.157,4.861,-31.141
10599,-0.0708,0.8276,0.5972,-15.503,-3.479,-4.089,54.987,4.867,-31.190
10609,-0.0771,0.8213,0.6172,-16.846,-3.967,-4.822,54.800,4.878,-31.251
10619,-0.0879,0.8130,0.6313,-16.602,-3.052,-5.432,54.602,4.905,-31.306
10629,-0.0952,0.8047,0.6406,-14.954,-0.793,-5.615,54.421,4.949,-31.349
10639,-0.1016,0.7900,0.6421,-13.000,1.831,-5.127,54.256,5.010,-31.360
10649,-0.1089,0.7729,0.6382,-12.329,4.272,-4.150,54.097,5.076,-31.349
10659,-0.1187,0.7646,0.6279,-13.855,6.958,-3.113,53.926,5.158,-31.311
10669,-0.1162,0.7681,0.6206,-17.395,9.705,-2.014,53.729,5.251,-31.245
10679,-0.1108,0.7744,0.6187,-20.630,11.719,-1.038,53.509,5.339,-31.157
10691,-0.1045,0.7788,0.6187,-21.851,12.390,-0.366,53.284,5.422,-31.058
10699,-0.1040,0.7866,0.6167,-20.508,11.597,0.061,53.075,5.493,-30.965
10709,-0.1089,0.7905,0.6113,-16.174,9.583,0.549,52.916,5.554,-30.888
10720,-0.1099,0.7886,0.6055,-10.010,7.324,1.343,52.817,5.592,-30.817
10729,-0.1123,0.7856,0.6021,-3.784,5.615,2.197,52.784,5.620,-30.762
10739,-0.1128,0.7842,0.5947,1.404,4.578,3.113,52.806,5.630,-30.707
10749,-0.1108,0.7822,0.5854,4.150,4.089,3.723,52.855,5.636,-30.652
10759,-0.1060,0.7827,0.5767,4.517,4.150,3.906,52.910,5.636,-30.591
10769,-0.0986,0.7900,0.5728,2.869,3.906,3.113,52.954,5.636,-30.542
10779,-0.0937,0.7949,0.5664,0.916,3.540,2.014,52.987,5.636,-30.504
10789,-0.0864,0.8032,0.5732,-0.793,2.930,1.587,52.998,5.636,-30.471
10799,-0.0786,0.8179,0.5884,-1.831,1.526,1.343,52.993,5.625,-30.449
10809,-0.0796,0.8354,0.6040,-0.732,-1.099,0.977,52.998,5.598,-30.454
10819,-0.0850,0.8511,0.6162,2.991,-4.028,0.305,53.036,5.559,-30.482
10829,-0.0850,0.8564,0.6265,8.850,-6.165,-0.244,53.124,5.515,-30.531
10839,-0.0933,0.8521,0.6265,15.320,-7.446,-0.366,53.278,5.471,-30.597
10849,-0.1113,0.8335,0.6099,19.958,-7.141,-0.854,53.470,5.438,-30.657
10859,-0.1230,0.7886,0.5889,20.081,-4.456,-1.587,53.663,5.444,-30.701
10869,-0.1201,0.7578,0.5767,12.451,0.122,-2.014,53.778,5.477,-30.712
10879,-0.1079,0.7598,0.5674,-0.366,5.249,-2.197,53.773,5.537,-30.685
10889,-0.0796,0.7749,0.5859,-12.756,9.094,-1.892,53.641,5.598,-30.624
10899,-0.0752,0.8066,0.6157,-20.691,9.766,-1.465,53.432,5.652,-30.553
10909,-0.0864,0.8286,0.6333,-20.020,8.362,-1.770,53.234,5.707,-30.493
10919,-0.1035,0.8252,0.6260,-12.207,6.531,-2.258,53.113,5.762,-30.454
10929,-0.1235,0.8003,0.6011,-1.648,6.042,-1.770,53.097,5.823,-30.416
10939,-0.1265,0.7661,0.5767,6.409,6.409,-0.488,53.168,5.883,-30.372
10949,-0.1211,0.7495,0.5586,8.301,6.226,1.465,53.256,5.927,-30.311
10959,-0.1035,0.7544,0.5557,5.310,5.005,2.930,53.317,5.933,-30.251
10969,-0.0884,0.7739,0.5649,0.183,3.052,3.479,53.333,5.916,-30.207
10979,-0.0801,0.8037,0.5874,-4.761,1.160,3.052,53.289,5.889,-30.179
10989,-0.0859,0.8306,0.6001,-7.263,-0.122,2.197,53.229,5.861,-30.168
10999,-0.1050,0.8433,0.6006,-6.042,0.183,1.282,53.185,5.850,-30.157
11009,-0.1162,0.8340,0.5903,-2.319,2.075,0.549,53.179,5.861,-30.135
11019,-0.1133,0.8179,0.5796,1.465,3.662,0.183,53.212,5.889,-30.108
11029,-0.1030,0.7954,0.5771,3.967,3.113,0.427,53.262,5.905,-30.081
11039,-0.0991,0.7759,0.5854,3.906,0.305,1.038,53.295,5.900,-30.070
11049,-0.0991,0.7803,0.6118,1.221,-3.052,1.038,53.295,5.872,-30.092
11059,-0.0962,0.7861,0.6387,-1.465,-5.005,0.977,53.251,5.828,-30.125
11069,-0.1050,0.8018,0.6553,-3.235,-5.188,1.282,53.190,5.784,-30.157
11079,-0.1245,0.8091,0.6504,-3.357,-2.686,1.099,53.135,5.773,-30.174
11089,-0.1318,0.7944,0.6343,-3.113,2.197,0.732,53.091,5.795,-30.152
11099,-0.1245,0.7817,0.6108,-4.089,7.202,0.793,53.047,5.845,-30.086
11109,-0.1035,0.7842,0.5957,-6.042,10.193,1.648,52.993,5.894,-29.998
11119,-0.0869,0.7979,0.5874,-7.507,9.888,2.808,52.932,5.922,-29.899
11129,-0.0879,0.8105,0.5854,-6.226,7.446,3.296,52.894,5.933,-29.822
11139,-0.0947,0.8115,0.5801,-3.357,4.944,3.052,52.883,5.933,-29.762
11149,-0.1021,0.8115,0.5684,-0.977,3.235,2.502,52.899,5.933,-29.724
11159,-0.1045,0.8105,0.5513,-0.488,2.930,1.953,52.927,5.938,-29.685
11169,-0.0977,0.8081,0.5425,-2.563,3.540,1.465,52.932,5.944,-29.647
11179,-0.0884,0.8115,0.5527,-5.859,3.479,1.221,52.910,5.944,-29.614
11189,-0.0825,0.8213,0.5728,-7.996,2.014,0.427,52.855,5.944,-29.592
11199,-0.0801,0.8262,0.6035,-7.751,-0.671,-0.732,52.784,5.927,-29.603
11209,-0.0859,0.8198,0.6309,-4.639,-4.028,-1.404,52.729,5.905,-29.647
11220,-0.1050,0.8096,0.6382,0.366,-6.653,-1.892,52.718,5.878,-29.707
11229,-0.1284,0.7905,0.6279,5.615,-6.409,-2.014,52.756,5.872,-29.773
11239,-0.1221,0.7651,0.6226,7.751,-3.723,-1.404,52.811,5.872,-29.811
11249,-0.1177,0.7622,0.6118,5.371,-1.282,0.244,52.844,5.872,-29.822
11259,-0.1060,0.7837,0.6108,0.854,0.061,0.977,52.850,5.867,-29.811
11269,-0.0771,0.8091,0.6406,-2.258,-0.549,0.916,52.811,5.839,-29.811
11279,-0.0762,0.8330,0.6611,-1.648,-3.296,0.305,52.784,5.801,-29.839
11289,-0.1089,0.8413,0.6572,3.235,-5.310,-0.977,52.800,5.773,-29.888
11299,-0.1304,0.8110,0.6377,9.644,-4.028,-2.136,52.883,5.784,-29.932
11309,-0.1406,0.7705,0.6064,12.817,-0.488,-1.831,52.998,5.817,-29.949
11319,-0.1436,0.7432,0.5664,10.315,3.723,-0.183,53.097,5.872,-29.916
11329,-0.1289,0.7490,0.5391,2.625,7.385,1.587,53.141,5.922,-29.850
11339,-0.1045,0.7705,0.5361,-5.676,8.972,2.808,53.119,5.960,-29.756
11349,-0.0874,0.7905,0.5474,-10.437,7.080,3.174,53.042,5.966,-29.685
11359,-0.0894,0.8091,0.5605,-11.414,3.113,2.502,52.954,5.960,-29.641
11369,-0.0962,0.8096,0.5713,-8.911,-0.732,1.526,52.888,5.938,-29.641
11379,-0.1064,0.7964,0.5771,-5.310,-3.113,1.160,52.844,5.911,-29.658
11389,-0.1099,0.7847,0.5830,-3.052,-3.418,1.404,52.817,5.889,-29.674
11399,-0.1035,0.7852,0.5859,-3.174,-2.441,1.953,52.789,5.856,-29.685
11409,-0.0840,0.7949,0.6060,-4.578,-1.587,2.502,52.745,5.817,-29.680
11419,-0.0757,0.8120,0.6265,-5.493,-2.319,2.808,52.685,5.768,-29.685
11429,-0.0762,0.8276,0.6416,-4.700,-3.845,2.502,52.630,5.707,-29.696
11439,-0.0796,0.8281,0.6558,-2.991,-4.761,1.587,52.592,5.652,-29.729
11449,-0.0918,0.8252,0.6582,-1.526,-4.700,0.610,52.559,5.614,-29.762
11459,-0.1030,0.8169,0.6523,-0.549,-3.174,-0.366,52.542,5.598,-29.789
11469,-0.1045,0.8086,0.6431,-0.122,-0.549,-0.916,52.526,5.603,-29.800
11479,-0.0981,0.8003,0.6411,0.000,1.648,-0.732,52.515,5.614,-29.789
11489,-0.0947,0.8003,0.6396,-0.305,2.136,-0.244,52.504,5.625,-29.773
11499,-0.1021,0.8008,0.6289,-0.366,1.343,-0.305,52.493,5.636,-29.767
11509,-0.1113,0.7949,0.6187,0.488,0.916,-0.793,52.493,5.658,-29.762
11519,-0.1060,0.7949,0.6113,1.282,1.648,-1.221,52.509,5.680,-29.756
11529,-0.1016,0.7983,0.6064,2.686,1.831,-1.221,52.537,5.702,-29.751
11539,-0.0986,0.7974,0.6040,4.395,0.977,-1.038,52.586,5.713,-29.751
11549,-0.0903,0.8018,0.6084,6.104,-0.549,-1.099,52.646,5.713,-29.762
11559,-0.0947,0.7983,0.6108,7.935,-2.014,-1.221,52.723,5.707,-29.784
11569,-0.1035,0.7930,0.6064,8.606,-2.258,-1.099,52.800,5.707,-29.806
11579,-0.1235,0.7798,0.5835,7.874,-0.183,-1.038,52.883,5.729,-29.817
11589,-0.1392,0.7588,0.5469,5.798,3.723,-1.038,52.954,5.784,-29.789
11599,-0.1338,0.7598,0.5176,2.808,7.629,-0.916,53.020,5.861,-29.734
11609,-0.0708,0.7744,0.5444,2.136,7.446,-0.549,53.064,5.894,-29.680
11619,0.0054,0.8335,0.6494,5.249,-2.563,-0.488,53.102,5.823,-29.702
11629,0.0391,0.9199,0.7744,16.174,-21.057,-0.793,53.212,5.625,-29.877
11639,-0.0361,0.9419,0.8281,35.645,-38.940,-1.587,53.492,5.367,-30.201
11649,-0.1553,0.8994,0.7979,54.810,-43.335,-3.235,53.948,5.158,-30.569
11659,-0.2251,0.8149,0.7036,63.965,-28.809,-5.859,54.509,5.103,-30.839
11669,-0.2349,0.7202,0.5728,55.420,-2.197,-6.104,55.025,5.235,-30.894
11679,-0.2046,0.6860,0.4639,28.564,25.452,-3.235,55.333,5.493,-30.701
11689,-0.1733,0.6953,0.3711,-2.258,46.265,0.671,55.415,5.817,-30.317
11699,-0.1294,0.7085,0.3291,-28.503,56.580,4.333,55.278,6.136,-29.822
11709,-0.0757,0.7495,0.3267,-44.617,54.077,7.446,54.998,6.372,-29.333
11720,-0.0347,0.8086,0.3540,-47.668,38.757,9.766,54.679,6.471,-28.954
11729,-0.0396,0.8428,0.3828,-37.354,14.282,9.155,54.437,6.438,-28.784
11739,-0.0493,0.8364,0.4238,-18.494,-10.315,5.432,54.338,6.301,-28.839
11749,-0.0513,0.8042,0.4746,-3.357,-29.236,2.686,54.333,6.075,-29.064
11759,-0.0513,0.7974,0.5366,2.136,-40.100,1.831,54.338,5.801,-29.377
11769,-0.0566,0.7964,0.5986,-0.549,-43.152,1.465,54.283,5.515,-29.724
11779,-0.0791,0.8125,0.6665,-7.751,-39.612,1.221,54.141,5.262,-30.037
11789,-0.0889,0.8369,0.7280,-15.198,-29.968,0.427,53.915,5.081,-30.278
11799,-0.0933,0.8560,0.7739,-19.165,-17.395,0.122,53.652,4.971,-30.421
11809,-0.0923,0.8652,0.7881,-18.616,-5.493,0.854,53.405,4.927,-30.460
11819,-0.0898,0.8677,0.7896,-15.564,2.014,1.648,53.196,4.922,-30.432
11829,-0.0972,0.8613,0.7700,-11.780,4.761,1.343,53.036,4.938,-30.388
11839,-0.1123,0.8364,0.7324,-7.935,5.676,0.061,52.916,4.982,-30.339
11849,-0.1211,0.8145,0.6943,-4.761,6.836,-0.977,52.839,5.043,-30.295
11859,-0.1304,0.7944,0.6460,-1.343,8.667,-1.587,52.811,5.131,-30.234
11869,-0.1289,0.7690,0.6025,1.404,10.925,-1.648,52.822,5.235,-30.157
11879,-0.1084,0.7642,0.5796,1.099,12.573,-0.732,52.844,5.328,-30.059
11889,-0.0903,0.7764,0.5718,-0.183,12.085,0.366,52.861,5.394,-29.960
11899,-0.0718,0.7949,0.5752,-1.587,9.521,0.732,52.866,5.433,-29.877
11909,-0.0679,0.8096,0.5889,-2.319,6.165,0.427,52.855,5.455,-29.828
11919,-0.0723,0.8125,0.5933,-1.038,3.723,-0.427,52.861,5.466,-29.800
11929,-0.0845,0.7959,0.5811,0.610,3.479,-1.282,52.877,5.488,-29.778
11939,-0.0918,0.7764,0.5630,1.587,5.737,-1.404,52.910,5.537,-29.740
11949,-0.0884,0.7695,0.5493,0.366,8.057,-0.244,52.932,5.581,-29.680
11959,-0.0830,0.7822,0.5503,-1.404,8.362,0.977,52.949,5.620,-29.608
11969,-0.0786,0.8022,0.5610,-1.892,5.981,1.465,52.954,5.630,-29.548
11979,-0.0806,0.8203,0.5806,-0.305,1.892,0.916,52.971,5.625,-29.531
11989,-0.0923,0.8232,0.5981,2.808,-2.258,-0.122,53.009,5.609,-29.548
11999,-0.1113,0.8169,0.6084,5.676,-5.127,-1.099,53.058,5.592,-29.597
12009,-0.1240,0.8062,0.6108,6.958,-5.493,-1.953,53.124,5.592,-29.652
12019,-0.1284,0.7925,0.6064,6.287,-3.906,-2.136,53.174,5.603,-29.696
12029,-0.1265,0.7788,0.5991,4.150,-1.709,-1.526,53.207,5.620,-29.718
12039,-0.1128,0.7729,0.5962,0.549,-0.122,-0.305,53.201,5.630,-29.724
12049,-0.1030,0.7881,0.6021,-3.784,0.183,0.671,53.163,5.630,-29.718
12059,-0.0981,0.8022,0.6118,-5.798,-0.305,0.610,53.097,5.625,-29.713
12069,-0.0962,0.8042,0.6167,-5.249,-0.732,0.305,53.042,5.614,-29.718
12079,-0.1011,0.8018,0.6172,-2.502,-0.610,-0.122,53.009,5.614,-29.724
12089,-0.0991,0.7900,0.6118,0.488,0.122,-0.183,53.004,5.614,-29.724
12099,-0.1011,0.7817,0.6025,1.770,1.221,0.427,53.020,5.620,-29.713
12109,-0.0918,0.7891,0.5996,0.854,2.197,1.282,53.026,5.620,-29.685
12119,-0.0835,0.8057,0.5991,-0.488,2.319,1.709,53.026,5.614,-29.658
12129,-0.0815,0.8218,0.6025,-0.793,1.587,1.526,53.031,5.598,-29.636
12139,-0.0889,0.8271,0.5942,0.366,0.977,0.793,53.047,5.592,-29.625
12149,-0.0923,0.8218,0.5967,1.404,0.916,0.000,53.069,5.592,-29.614
12159,-0.0996,0.8130,0.5986,1.648,0.916,-0.610,53.091,5.603,-29.614
12169,-0.1123,0.8008,0.5952,1.709,1.160,-1.160,53.113,5.630,-29.608
12179,-0.1084,0.7910,0.6025,1.465,1.587,-1.343,53.124,5.658,-29.603
12189,-0.0981,0.7954,0.6143,1.831,1.282,-1.038,53.135,5.669,-29.603
12199,-0.0781,0.8145,0.6401,3.113,-0.549,-0.244,53.152,5.658,-29.608
12209,-0.0752,0.8442,0.6665,5.798,-3.662,-0.061,53.190,5.620,-29.636
12220,-0.1021,0.8555,0.6553,11.414,-5.554,-0.916,53.295,5.592,-29.685
12229,-0.1265,0.8198,0.6206,17.212,-3.540,-2.197,53.454,5.603,-29.729
12239,-0.1387,0.7749,0.5767,16.968,1.709,-2.502,53.624,5.658,-29.729
12249,-0.1353,0.7485,0.5312,9.399,7.629,-1.953,53.729,5.746,-29.680
12259,-0.1143,0.7476,0.5161,-1.831,11.230,-1.160,53.734,5.834,-29.597
12269,-0.0918,0.7725,0.5283,-10.742,10.437,-0.488,53.657,5.894,-29.515
12279,-0.0859,0.7939,0.5386,-12.085,6.409,-0.244,53.564,5.927,-29.465
12289,-0.0850,0.7939,0.5581,-7.568,0.854,-0.061,53.503,5.922,-29.460
12299,-0.0908,0.7900,0.5645,-1.587,-4.089,0.671,53.492,5.889,-29.487
12309,-0.0967,0.7886,0.5713,2.441,-7.019,1.465,53.520,5.834,-29.537
12319,-0.1006,0.7959,0.5732,3.479,-7.690,1.892,53.558,5.773,-29.586
12329,-0.1021,0.8037,0.5786,2.441,-6.226,1.831,53.586,5.724,-29.625
12339,-0.0981,0.8110,0.5874,-0.061,-3.967,1.648,53.586,5.685,-29.647
12349,-0.0874,0.8149,0.6089,-2.686,-3.113,1.221,53.553,5.652,-29.663
12359,-0.0801,0.8247,0.6392,-3.845,-4.578,0.488,53.498,5.609,-29.696
12369,-0.0854,0.8286,0.6572,-2.136,-7.019,-0.488,53.454,5.559,-29.756
12379,-0.1074,0.8267,0.6577,1.892,-7.874,-1.038,53.443,5.526,-29.828
12389,-0.1157,0.8130,0.6362,6.531,-5.310,-0.916,53.492,5.510,-29.877
12399,-0.1123,0.8008,0.6089,9.155,-1.099,-0.183,53.575,5.510,-29.888
12409,-0.1099,0.7905,0.5815,8.545,1.770,0.732,53.663,5.526,-29.866
12419,-0.0957,0.7964,0.5781,5.310,2.197,1.099,53.718,5.532,-29.844
12429,-0.0869,0.8154,0.5962,1.587,-0.366,0.610,53.734,5.515,-29.844
12439,-0.0942,0.8223,0.6177,1.648,-4.578,-0.610,53.740,5.493,-29.883
12449,-0.1113,0.8145,0.6265,5.554,-7.568,-1.892,53.778,5.471,-29.954
12459,-0.1191,0.7832,0.6147,11.475,-7.507,-2.197,53.866,5.455,-30.031
12469,-0.1162,0.7593,0.5864,14.526,-4.761,-0.366,53.987,5.444,-30.070
12479,-0.1030,0.7578,0.5630,12.451,-0.916,2.197,54.108,5.433,-30.064
12489,-0.0864,0.7778,0.5552,6.592,1.953,4.333,54.179,5.405,-30.026
12499,-0.0728,0.8208,0.5576,0.244,2.563,4.822,54.201,5.367,-29.976
12509,-0.0693,0.8477,0.5645,-2.441,1.343,3.601,54.201,5.334,-29.943
12519,-0.0767,0.8540,0.5708,-1.831,-0.671,1.892,54.207,5.301,-29.938
12529,-0.0918,0.8467,0.5654,0.305,-2.014,0.549,54.229,5.284,-29.949
12539,-0.0894,0.8311,0.5625,1.709,-1.770,-0.122,54.261,5.273,-29.965
12549,-0.0791,0.8311,0.5757,1.221,-1.526,0.122,54.283,5.257,-29.976
12559,-0.0615,0.8501,0.5996,0.793,-2.563,0.244,54.294,5.219,-29.998
12569,-0.0454,0.8784,0.6392,3.113,-5.493,-0.793,54.316,5.169,-30.048
12579,-0.0654,0.8906,0.6519,10.376,-9.155,-2.747,54.404,5.120,-30.135
12589,-0.1016,0.8633,0.6333,20.081,-10.315,-4.700,54.586,5.098,-30.251
12599,-0.1299,0.8242,0.5991,25.513,-7.568,-5.432,54.827,5.120,-30.344
12609,-0.1479,0.7822,0.5469,24.658,-2.075,-5.371,55.069,5.191,-30.388
12619,-0.1396,0.7617,0.5112,18.250,3.845,-4.822,55.261,5.284,-30.388
12629,-0.0967,0.7788,0.5122,9.888,6.348,-3.845,55.371,5.361,-30.355
12639,-0.0537,0.8071,0.5405,5.981,2.625,-2.563,55.443,5.372,-30.350
12649,-0.0308,0.8540,0.5937,7.446,-6.470,-1.404,55.508,5.312,-30.410
12659,-0.0571,0.8691,0.6206,15.320,-16.052,-1.587,55.635,5.213,-30.553
12669,-0.0918,0.8472,0.6294,24.048,-20.264,-2.380,55.833,5.114,-30.734
12679,-0.1167,0.8345,0.6147,28.076,-17.639,-3.235,56.074,5.059,-30.899
12692,-0.1318,0.7969,0.5674,28.259,-9.827,-4.028,56.332,5.065,-31.003
12699,-0.1431,0.7539,0.5210,21.851,0.488,-3.113,56.536,5.131,-31.014
12709,-0.1450,0.7407,0.4731,9.216,10.742,-1.465,56.646,5.240,-30.932
12720,-0.1187,0.7603,0.4468,-4.761,18.066,-0.366,56.640,5.367,-30.784
12729,-0.0864,0.7725,0.4473,-15.625,19.409,0.793,56.536,5.466,-30.619
12739,-0.0615,0.8086,0.4766,-21.484,13.855,2.136,56.360,5.510,-30.487
12749,-0.0591,0.8428,0.5205,-20.691,3.174,2.625,56.179,5.482,-30.449
12759,-0.0742,0.8530,0.5522,-14.221,-7.263,2.197,56.047,5.411,-30.498
12769,-0.0894,0.8477,0.5830,-6.287,-13.916,1.648,55.964,5.317,-30.602
12779,-0.1025,0.8350,0.5962,-0.122,-15.381,1.587,55.937,5.224,-30.723
12789,-0.1108,0.8281,0.5942,2.136,-11.658,2.136,55.937,5.153,-30.806
12799,-0.0981,0.8267,0.5991,0.122,-5.066,2.869,55.915,5.103,-30.833
12809,-0.0854,0.8369,0.6079,-4.150,1.099,3.235,55.860,5.081,-30.806
12819,-0.0688,0.8672,0.6187,-8.545,4.578,3.235,55.767,5.065,-30.751
12829,-0.0562,0.8955,0.6362,-10.193,4.578,2.502,55.657,5.048,-30.696
12839,-0.0693,0.9038,0.6372,-6.897,2.319,0.793,55.585,5.037,-30.674
12849,-0.0923,0.8760,0.6216,-0.427,0.732,-0.854,55.569,5.048,-30.674
12859,-0.1104,0.8428,0.5928,4.089,1.892,-1.587,55.602,5.081,-30.668
12869,-0.1084,0.8174,0.5596,4.761,5.188,-1.465,55.651,5.136,-30.630
12879,-0.0991,0.8042,0.5322,1.953,8.240,-0.610,55.690,5.197,-30.564
12889,-0.0830,0.8154,0.5244,-2.686,9.827,0.000,55.684,5.246,-30.487
12899,-0.0518,0.8413,0.5405,-6.226,8.972,-0.610,55.646,5.279,-30.416
12909,-0.0381,0.8691,0.5723,-6.165,4.639,-1.953,55.596,5.290,-30.388
12919,-0.0591,0.8784,0.5933,-1.282,-1.587,-3.357,55.585,5.284,-30.421
12929,-0.1021,0.8628,0.5854,6.226,-5.188,-4.517,55.640,5.295,-30.487
12939,-0.1260,0.8267,0.5581,12.390,-3.418,-5.005,55.761,5.339,-30.542
12949,-0.1494,0.7788,0.5000,14.709,2.197,-4.333,55.920,5.422,-30.547
12959,-0.1504,0.7334,0.4565,10.925,8.850,-2.563,56.058,5.537,-30.493
12969,-0.1138,0.7402,0.4404,0.916,13.123,-0.244,56.107,5.630,-30.383
12979,-0.0688,0.7778,0.4629,-8.911,11.108,1.831,56.063,5.663,-30.278
12989,-0.0493,0.8330,0.5176,-13.672,2.075,2.686,55.953,5.625,-30.245
12999,-0.0640,0.8672,0.5654,-10.132,-9.521,1.587,55.854,5.543,-30.317
13009,-0.0869,0.8633,0.6035,-2.502,-18.066,0.122,55.805,5.433,-30.465
13019,-0.1143,0.8408,0.6206,3.235,-20.081,-0.549,55.800,5.334,-30.635
13029,-0.1313,0.8164,0.6143,4.822,-15.625,-0.549,55.811,5.268,-30.773
13039,-0.1279,0.7954,0.6030,1.282,-7.080,0.122,55.783,5.251,-30.828
13049,-0.0825,0.8022,0.6177,-5.310,1.709,1.343,55.701,5.240,-30.806
13059,-0.0498,0.8467,0.6392,-10.254,5.493,2.563,55.580,5.224,-30.745
13069,-0.0498,0.8857,0.6499,-8.911,4.150,2.502,55.475,5.202,-30.696
13079,-0.0645,0.8955,0.6489,-1.709,1.404,0.977,55.448,5.186,-30.679
13089,-0.0850,0.8784,0.6348,6.226,0.000,-0.854,55.492,5.186,-30.685
13099,-0.1040,0.8433,0.6113,11.658,0.549,-2.014,55.596,5.208,-30.690
13109,-0.1309,0.7993,0.5581,12.451,3.113,-2.380,55.712,5.268,-30.679
13119,-0.1436,0.7729,0.5063,8.606,8.179,-2.014,55.816,5.367,-30.624
13129,-0.1279,0.7676,0.4775,2.197,13.794,-0.732,55.871,5.477,-30.515
13139,-0.0786,0.7852,0.4834,-3.662,15.686,0.854,55.871,5.554,-30.377
13149,-0.0503,0.8354,0.5132,-6.714,10.681,2.075,55.838,5.565,-30.278
13159,-0.0459,0.8794,0.5571,-4.333,1.221,1.892,55.816,5.526,-30.256
13169,-0.0718,0.8911,0.5815,3.113,-7.385,0.366,55.854,5.466,-30.317
13179,-0.1006,0.8765,0.5859,10.925,-10.498,-1.404,55.953,5.422,-30.410
13189,-0.1255,0.8345,0.5537,15.137,-7.263,-2.075,56.102,5.416,-30.482
13199,-0.1396,0.7920,0.5103,12.878,-0.061,-1.770,56.239,5.460,-30.493
13209,-0.1191,0.7715,0.4893,4.089,7.629,-0.549,56.299,5.526,-30.432
13220,-0.0718,0.8022,0.5063,-7.263,10.742,0.854,56.250,5.565,-30.339
13229,-0.0488,0.8579,0.5425,-13.916,6.714,0.977,56.135,5.565,-30.278
13239,-0.0620,0.8877,0.5708,-11.536,-1.404,-0.244,56.030,5.537,-30.289
13249,-0.0850,0.8794,0.5874,-3.296,-8.301,-1.831,55.992,5.499,-30.372
13259,-0.1118,0.8472,0.5889,4.822,-10.803,-3.113,56.025,5.471,-30.476
13269,-0.1362,0.8105,0.5615,8.423,-8.179,-3.296,56.091,5.477,-30.564
13279,-0.1436,0.7769,0.5376,6.348,-2.441,-2.380,56.140,5.515,-30.597
13289,-0.1206,0.7710,0.5283,0.000,3.418,-0.610,56.140,5.554,-30.575
13299,-0.0913,0.7969,0.5366,-6.958,5.920,1.099,56.074,5.576,-30.515
13309,-0.0767,0.8320,0.5547,-9.705,4.028,1.831,55.986,5.576,-30.471
13319,-0.0664,0.8613,0.5801,-7.629,-0.671,1.465,55.909,5.537,-30.471
13329,-0.0884,0.8623,0.5933,-1.831,-5.676,0.427,55.882,5.499,-30.515
13339,-0.1084,0.8438,0.5908,3.662,-7.324,-0.671,55.904,5.466,-30.580
13349,-0.1260,0.8179,0.5718,5.188,-4.944,-0.916,55.942,5.466,-30.624
13359,-0.1299,0.8018,0.5439,3.174,0.305,-0.305,55.975,5.488,-30.624
13369,-0.1006,0.8022,0.5405,-1.160,5.310,0.854,55.964,5.515,-30.575
13379,-0.0576,0.8301,0.5654,-5.005,5.859,1.892,55.920,5.510,-30.515
13389,-0.0527,0.8701,0.5884,-4.272,1.221,1.709,55.882,5.477,-30.498
13399,-0.0625,0.8848,0.6104,1.221,-4.456,0.244,55.882,5.427,-30.531
13409,-0.0903,0.8755,0.6157,7.568,-7.202,-1.282,55.942,5.394,-30.602
13419,-0.1191,0.8496,0.5874,11.475,-5.188,-2.258,56.047,5.394,-30.657
13429,-0.1318,0.8135,0.5479,10.498,0.427,-2.136,56.146,5.438,-30.663
13439,-0.1328,0.7920,0.5088,4.883,6.775,-1.160,56.212,5.510,-30.613
13449,-0.1035,0.7983,0.4966,-2.136,10.498,-0.305,56.217,5.576,-30.526
13459,-0.0723,0.8232,0.5083,-6.226,8.606,0.122,56.184,5.614,-30.454
13469,-0.0649,0.8477,0.5332,-5.310,1.709,0.061,56.151,5.603,-30.443
13479,-0.0791,0.8545,0.5537,-0.183,-5.859,-0.610,56.151,5.565,-30.493
13489,-0.0952,0.8379,0.5732,4.883,-10.071,-1.709,56.184,5.521,-30.586
13499,-0.1089,0.8228,0.5723,6.042,-9.460,-2.258,56.228,5.493,-30.679
13509,-0.1245,0.8018,0.5522,3.845,-4.944,-2.136,56.250,5.499,-30.734
13519,-0.1304,0.7837,0.5293,-1.221,1.465,-1.038,56.239,5.543,-30.723
13529,-0.1133,0.7881,0.5156,-7.263,6.897,0.427,56.179,5.587,-30.663
13539,-0.0972,0.8047,0.5098,-11.108,8.118,2.014,56.091,5.620,-30.586
13549,-0.0757,0.8320,0.5259,-12.085,5.005,2.808,55.992,5.609,-30.531
13559,-0.0688,0.8545,0.5493,-9.705,-1.221,2.380,55.909,5.570,-30.526
13569,-0.0815,0.8550,0.5654,-4.456,-7.324,1.221,55.865,5.504,-30.580
13579,-0.0898,0.8408,0.5845,-0.122,-10.315,0.366,55.849,5.444,-30.663
13589,-0.1016,0.8281,0.5913,1.587,-9.766,0.183,55.844,5.389,-30.745
13599,-0.1055,0.8232,0.5952,0.610,-6.409,0.488,55.827,5.356,-30.795
13609,-0.0957,0.8291,0.6045,-1.953,-2.502,0.916,55.789,5.334,-30.811
13619,-0.0850,0.8447,0.6089,-3.601,0.061,1.221,55.739,5.317,-30.800
13629,-0.0830,0.8599,0.6108,-3.174,0.671,1.038,55.695,5.301,-30.789
13639,-0.0908,0.8604,0.6050,-0.610,0.671,0.183,55.684,5.301,-30.784
13649,-0.0884,0.8462,0.6030,2.563,0.732,-0.793,55.695,5.306,-30.784
13659,-0.0874,0.8340,0.5933,4.150,0.732,-1.343,55.728,5.317,-30.784
13669,-0.0977,0.8232,0.5796,4.456,0.916,-1.343,55.761,5.339,-30.784
13679,-0.1050,0.8105,0.5591,3.540,2.258,-1.038,55.794,5.367,-30.773
13689,-0.0991,0.8081,0.5488,1.709,4.211,-0.488,55.816,5.394,-30.740
13699,-0.1011,0.8120,0.5317,-0.122,5.249,0.061,55.827,5.433,-30.696
13709,-0.0996,0.8140,0.5215,-1.099,5.188,0.244,55.833,5.460,-30.652
13720,-0.0913,0.8140,0.5249,-1.526,3.906,0.305,55.838,5.482,-30.619
13729,-0.0874,0.8213,0.5317,-0.977,1.282,0.244,55.838,5.482,-30.602
13739,-0.0693,0.8359,0.5615,0.061,-1.953,0.427,55.844,5.455,-30.619
13749,-0.0830,0.8555,0.5791,2.197,-5.310,0.671,55.860,5.411,-30.657
13759,-0.1094,0.8623,0.5791,5.676,-6.409,0.427,55.915,5.378,-30.707
13769,-0.1084,0.8496,0.5776,7.629,-3.845,0.000,55.986,5.361,-30.740
13779,-0.1196,0.8315,0.5552,6.592,0.000,-0.061,56.052,5.378,-30.740
13789,-0.1206,0.8213,0.5273,2.625,4.211,-0.549,56.096,5.422,-30.712
13799,-0.0962,0.8218,0.5220,-2.625,6.714,-0.793,56.091,5.466,-30.657
13809,-0.0811,0.8330,0.5249,-5.432,5.615,-0.977,56.058,5.499,-30.619
13819,-0.0576,0.8521,0.5596,-4.517,0.977,-1.343,56.019,5.493,-30.619
13829,-0.0635,0.8604,0.5898,0.366,-6.042,-1.831,56.014,5.455,-30.679
13839,-0.0991,0.8506,0.5967,8.423,-11.047,-2.625,56.074,5.411,-30.784
13849,-0.1064,0.8232,0.5986,14.526,-10.742,-2.747,56.190,5.383,-30.888
13859,-0.1274,0.7964,0.5747,16.113,-6.592,-1.709,56.321,5.378,-30.954
13869,-0.1353,0.7773,0.5322,12.512,-0.122,-0.732,56.437,5.411,-30.959
13879,-0.1069,0.7759,0.5166,4.272,5.981,0.732,56.481,5.449,-30.905
13889,-0.0811,0.8140,0.5225,-3.906,7.996,1.831,56.459,5.471,-30.828
13899,-0.0605,0.8506,0.5444,-7.141,4.822,1.831,56.404,5.466,-30.778
13909,-0.0708,0.8643,0.5586,-4.517,-1.160,1.038,56.365,5.433,-30.778
13919,-0.0947,0.8550,0.5659,1.221,-5.432,0.122,56.376,5.400,-30.828
13929,-0.1138,0.8271,0.5586,5.310,-5.676,-0.244,56.420,5.383,-30.872
13939,-0.1260,0.8027,0.5342,4.700,-2.380,0.244,56.464,5.389,-30.894
13949,-0.1235,0.7925,0.5171,-0.244,2.258,1.282,56.464,5.411,-30.866
13959,-0.0942,0.8091,0.5210,-6.958,5.615,2.380,56.409,5.422,-30.806
13969,-0.0693,0.8398,0.5400,-10.925,4.944,2.930,56.316,5.411,-30.751
13979,-0.0488,0.8770,0.5801,-10.132,0.305,2.502,56.223,5.367,-30.734
13989,-0.0571,0.8921,0.6108,-4.333,-5.737,1.099,56.168,5.301,-30.773
13999,-0.0825,0.8755,0.6191,3.479,-9.277,-0.488,56.179,5.246,-30.855
14009,-0.1089,0.8496,0.6035,7.935,-7.385,-1.038,56.239,5.219,-30.921
14019,-0.1265,0.8203,0.5708,7.141,-0.854,-0.854,56.294,5.240,-30.932
14029,-0.1240,0.8091,0.5405,1.343,6.592,-0.122,56.310,5.301,-30.877
14039,-0.1030,0.8164,0.5200,-5.615,11.475,0.793,56.277,5.367,-30.778
14049,-0.0669,0.8359,0.5298,-9.766,11.108,1.160,56.206,5.400,-30.679
14059,-0.0552,0.8604,0.5527,-9.399,5.371,0.610,56.129,5.400,-30.630
14069,-0.0767,0.8706,0.5674,-3.967,-1.892,-1.099,56.091,5.389,-30.652
14079,-0.1006,0.8501,0.5728,2.808,-6.165,-2.197,56.113,5.378,-30.718
14089,-0.1182,0.8208,0.5630,6.348,-5.371,-2.014,56.168,5.378,-30.773
14099,-0.1235,0.7983,0.5386,5.066,-0.671,-1.282,56.212,5.400,-30.784
14109,-0.1113,0.7935,0.5269,-0.122,4.639,-0.305,56.217,5.444,-30.751
14119,-0.0869,0.8125,0.5317,-5.615,7.446,0.427,56.173,5.477,-30.685
14129,-0.0522,0.8462,0.5640,-7.568,4.944,0.610,56.107,5.477,-30.641
14139,-0.0640,0.8770,0.5845,-3.540,-1.709,-0.183,56.069,5.444,-30.657
14149,-0.0898,0.8779,0.5923,4.639,-7.202,-1.282,56.107,5.411,-30.723
14159,-0.0991,0.8599,0.5898,10.864,-8.179,-1.648,56.206,5.378,-30.800
14169,-0.1211,0.8267,0.5586,12.756,-5.249,-1.526,56.321,5.378,-30.850
14179,-0.1377,0.7944,0.5181,8.423,0.305,-1.343,56.409,5.422,-30.855
14189,-0.1279,0.7812,0.4888,-0.305,6.287,-1.099,56.426,5.488,-30.811
14199,-0.0991,0.7930,0.4814,-7.996,8.911,-0.366,56.382,5.548,-30.740
14209,-0.0635,0.8193,0.5083,-12.085,5.859,0.732,56.283,5.554,-30.685
14220,-0.0576,0.8569,0.5454,-10.681,-2.136,1.221,56.190,5.510,-30.696
14229,-0.0806,0.8652,0.5679,-3.479,-10.132,0.305,56.151,5.438,-30.778
14239,-0.0962,0.8477,0.5835,3.479,-13.428,-0.732,56.168,5.372,-30.894
14249,-0.1050,0.8276,0.5874,6.104,-11.292,-0.793,56.206,5.323,-30.992
14259,-0.1128,0.8101,0.5762,3.784,-6.348,-0.427,56.223,5.301,-31.047
14269,-0.1006,0.8110,0.5791,-1.831,-0.549,0.183,56.184,5.301,-31.053
14279,-0.0898,0.8281,0.5825,-6.836,3.113,0.488,56.107,5.312,-31.025
14289,-0.0845,0.8408,0.5874,-7.507,3.906,0.305,56.025,5.323,-30.987
14299,-0.0786,0.8433,0.5908,-5.066,2.625,0.305,55.964,5.328,-30.965
14309,-0.0928,0.8403,0.5830,-0.977,0.732,0.122,55.948,5.328,-30.959
14319,-0.1025,0.8281,0.5693,2.319,0.305,-0.122,55.970,5.339,-30.959
14329,-0.1094,0.8228,0.5474,3.113,1.404,0.061,56.003,5.356,-30.943
14339,-0.1035,0.8193,0.5288,2.502,3.296,0.366,56.041,5.378,-30.916
14349,-0.0762,0.8237,0.5288,0.305,3.723,0.732,56.063,5.383,-30.883
14359,-0.0762,0.8413,0.5356,-1.404,1.282,0.854,56.063,5.372,-30.866
14369,-0.0825,0.8521,0.5508,-0.977,-2.258,0.122,56.063,5.350,-30.883
14379,-0.0879,0.8501,0.5688,0.549,-4.639,-0.671,56.063,5.328,-30.927
14389,-0.1050,0.8374,0.5674,2.319,-4.700,-1.099,56.085,5.317,-30.970
14399,-0.1147,0.8213,0.5522,2.869,-1.770,-1.099,56.107,5.328,-30.992
14409,-0.1030,0.8091,0.5469,1.221,2.136,-0.549,56.124,5.350,-30.976
14419,-0.0845,0.8140,0.5508,-1.770,3.845,0.366,56.107,5.367,-30.943
14429,-0.0771,0.8330,0.5630,-3.479,2.136,0.732,56.069,5.361,-30.921
14439,-0.0811,0.8428,0.5732,-1.770,-1.160,0.305,56.047,5.345,-30.927
14449,-0.0820,0.8442,0.5908,1.526,-3.845,-0.427,56.052,5.317,-30.965
14459,-0.0972,0.8413,0.5928,4.272,-5.066,-0.916,56.074,5.295,-31.009
14469,-0.1245,0.8286,0.5688,6.470,-3.540,-1.282,56.129,5.306,-31.047
14479,-0.1226,0.8120,0.5459,6.348,0.793,-0.977,56.195,5.339,-31.047
14489,-0.1172,0.8052,0.5239,4.211,4.822,-0.061,56.245,5.378,-31.003
14499,-0.1011,0.8052,0.5103,1.770,6.165,0.549,56.283,5.416,-30.954
14509,-0.0513,0.8335,0.5493,-1.038,3.235,1.099,56.277,5.400,-30.921
14519,-0.0439,0.8784,0.5923,-0.061,-4.272,1.038,56.272,5.339,-30.948
14529,-0.0708,0.8955,0.6157,5.920,-11.353,-0.183,56.316,5.262,-31.042
14539,-0.1074,0.8770,0.6187,12.390,-12.573,-1.343,56.415,5.208,-31.157
14549,-0.1348,0.8374,0.5854,15.015,-6.653,-2.075,56.541,5.213,-31.223
14559,-0.1445,0.7944,0.5312,10.742,3.418,-1.709,56.646,5.279,-31.207
14569,-0.1353,0.7842,0.4819,0.488,12.939,-0.366,56.678,5.383,-31.097
14579,-0.1118,0.7949,0.4512,-10.010,18.188,1.038,56.635,5.488,-30.937
14589,-0.0806,0.8125,0.4468,-16.663,17.273,1.892,56.525,5.565,-30.784
14599,-0.0684,0.8369,0.4619,-18.555,10.559,1.892,56.398,5.587,-30.685
14609,-0.0649,0.8428,0.4888,-15.015,1.038,1.099,56.288,5.570,-30.668
14619,-0.0728,0.8345,0.5161,-9.521,-7.812,0.488,56.206,5.510,-30.734
14629,-0.0830,0.8213,0.5420,-4.761,-13.184,0.366,56.151,5.427,-30.839
14639,-0.0864,0.8091,0.5713,-3.540,-14.099,0.854,56.091,5.334,-30.954
14649,-0.0786,0.8184,0.6099,-6.287,-11.658,1.648,55.992,5.251,-31.042
14659,-0.0732,0.8354,0.6387,-9.827,-8.423,2.136,55.860,5.175,-31.102
14669,-0.0771,0.8599,0.6621,-11.475,-4.944,1.648,55.706,5.120,-31.130
14679,-0.0811,0.8667,0.6704,-9.583,-1.343,0.549,55.580,5.098,-31.141
14693,-0.0869,0.8569,0.6606,-5.005,1.587,-0.183,55.497,5.103,-31.130
14699,-0.0962,0.8447,0.6387,-1.099,3.479,-0.427,55.464,5.131,-31.102
14709,-0.1040,0.8340,0.6069,0.916,4.883,-0.488,55.459,5.164,-31.064
14720,-0.1084,0.8276,0.5801,0.854,6.104,-0.244,55.470,5.213,-31.014
14729,-0.1006,0.8335,0.5571,0.366,6.775,-0.183,55.481,5.257,-30.959
14739,-0.0898,0.8340,0.5493,0.305,6.042,-0.061,55.503,5.290,-30.910
14749,-0.0830,0.8389,0.5527,0.610,3.906,-0.671,55.525,5.312,-30.883
14759,-0.0796,0.8535,0.5679,1.709,1.526,-1.892,55.547,5.328,-30.883
14769,-0.0571,0.8818,0.5991,4.822,-1.099,-3.174,55.596,5.323,-30.905
14779,-0.0615,0.9092,0.6128,12.451,-3.967,-4.333,55.717,5.317,-30.965
14789,-0.0967,0.8809,0.5825,23.743,-5.432,-5.310,55.953,5.328,-31.042
14799,-0.1514,0.8081,0.5088,30.762,-1.892,-5.920,56.272,5.405,-31.091
14809,-0.1567,0.7402,0.4424,26.001,6.226,-5.981,56.558,5.537,-31.069
14819,-0.1328,0.7163,0.3975,11.536,13.367,-4.272,56.728,5.680,-30.981
14829,-0.0796,0.7500,0.4087,-4.089,14.771,-2.075,56.744,5.773,-30.872
14839,-0.0044,0.8247,0.4990,-12.512,6.714,-0.854,56.646,5.762,-30.817
14849,0.0771,0.9175,0.6504,-9.827,-10.803,-0.488,56.519,5.609,-30.910
14859,0.0581,1.0122,0.7896,3.601,-32.776,-1.038,56.486,5.356,-31.190
14869,-0.0605,1.0186,0.8242,25.574,-46.387,-4.578,56.646,5.114,-31.602
14879,-0.1851,0.9385,0.7573,46.326,-39.978,-9.583,57.014,5.015,-31.992
14889,-0.2427,0.8335,0.6475,53.833,-15.442,-13.428,57.480,5.120,-32.195
14899,-0.2598,0.7251,0.5161,42.297,15.991,-13.245,57.876,5.427,-32.135
14909,-0.2490,0.6836,0.3774,18.188,44.495,-8.789,58.118,5.861,-31.800
14919,-0.2051,0.6675,0.2837,-8.118,62.378,-2.136,58.178,6.301,-31.278
14929,-0.1348,0.6978,0.2563,-28.503,66.162,5.676,58.079,6.641,-30.685
14939,-0.0762,0.7593,0.2690,-39.246,52.979,11.902,57.870,6.806,-30.168
14949,-0.0513,0.8262,0.3101,-37.170,26.550,13.245,57.656,6.801,-29.872
14959,-0.0508,0.8647,0.3569,-24.109,-4.517,9.583,57.519,6.658,-29.855
14969,-0.0435,0.8633,0.4219,-7.751,-31.616,4.761,57.475,6.411,-30.103
14979,-0.0449,0.8608,0.4922,3.174,-49.744,2.502,57.491,6.086,-30.509
14989,-0.0542,0.8613,0.5601,7.202,-57.068,0.488,57.508,5.746,-30.992
14999,-0.0693,0.8696,0.6299,5.615,-53.833,-1.404,57.480,5.449,-31.454
15009,-0.0913,0.8755,0.6846,-0.916,-42.358,-2.686,57.382,5.240,-31.827
15019,-0.1006,0.8823,0.7212,-8.545,-25.513,-3.174,57.211,5.131,-32.058
15029,-0.1006,0.8809,0.7422,-14.771,-7.874,-1.892,56.986,5.103,-32.135
15039,-0.0937,0.8975,0.7349,-17.944,5.188,-0.366,56.744,5.125,-32.097
15049,-0.0928,0.8896,0.7056,-17.212,12.024,-0.122,56.536,5.191,-31.998
15059,-0.0981,0.8696,0.6641,-13.000,13.062,-0.916,56.376,5.268,-31.893
15069,-0.1040,0.8369,0.6221,-7.629,11.475,-1.831,56.277,5.350,-31.805
15079,-0.1147,0.8096,0.5796,-2.197,9.399,-2.197,56.245,5.433,-31.740
15089,-0.1187,0.7876,0.5503,2.563,7.751,-2.197,56.261,5.510,-31.685
15099,-0.1162,0.7773,0.5352,3.906,6.348,-1.404,56.294,5.570,-31.641
15109,-0.1084,0.7886,0.5347,3.296,5.371,-0.427,56.327,5.614,-31.597
15119,-0.0967,0.8052,0.5425,1.831,4.578,0.427,56.349,5.636,-31.558
15129,-0.0977,0.8208,0.5425,1.038,4.150,1.160,56.365,5.647,-31.514
15139,-0.0962,0.8262,0.5337,1.343,4.822,1.465,56.387,5.663,-31.470
15149,-0.1006,0.8262,0.5107,1.831,6.348,1.587,56.431,5.685,-31.404
15159,-0.1064,0.8179,0.4829,2.930,8.423,1.404,56.497,5.729,-31.328
15169,-0.0825,0.8145,0.4795,2.258,9.521,1.953,56.563,5.757,-31.240
15179,-0.0557,0.8340,0.5044,0.244,7.019,3.662,56.596,5.740,-31.157
15189,-0.0435,0.8706,0.5444,-1.160,1.038,4.456,56.602,5.674,-31.124
15199,-0.0518,0.8979,0.5811,-0.488,-5.615,3.418,56.596,5.587,-31.152
15209,-0.0845,0.9028,0.6050,2.380,-9.583,0.977,56.607,5.515,-31.229
15220,-0.1255,0.8857,0.5923,5.859,-8.179,-2.258,56.656,5.499,-31.311
15229,-0.1411,0.8452,0.5547,7.629,-1.587,-4.822,56.728,5.559,-31.349
15239,-0.1211,0.8125,0.5288,5.066,6.287,-4.944,56.783,5.647,-31.322
15249,-0.0815,0.8105,0.5308,-1.160,9.949,-3.296,56.777,5.718,-31.256
15259,-0.0469,0.8379,0.5586,-6.348,6.836,-2.136,56.717,5.746,-31.212
15269,-0.0483,0.8740,0.6021,-5.798,-1.587,-2.380,56.640,5.724,-31.240
15279,-0.0864,0.8901,0.6206,1.648,-9.216,-3.906,56.635,5.696,-31.339
15289,-0.1367,0.8550,0.6025,12.390,-11.169,-5.249,56.728,5.696,-31.459
15299,-0.1802,0.7900,0.5361,20.081,-6.104,-5.615,56.909,5.757,-31.542
15309,-0.1938,0.7285,0.4575,18.799,4.211,-4.456,57.101,5.889,-31.531
15319,-0.1553,0.7129,0.4170,7.874,14.832,-1.465,57.217,6.026,-31.415
15329,-0.0854,0.7534,0.4209,-6.714,19.531,2.197,57.206,6.108,-31.240
15339,-0.0483,0.8188,0.4692,-17.273,14.221,5.310,57.079,6.108,-31.086
15349,-0.0420,0.8843,0.5283,-18.066,1.831,5.615,56.931,6.037,-31.042
15359,-0.0747,0.9063,0.5640,-9.705,-11.169,3.540,56.838,5.927,-31.119
15369,-0.1006,0.8794,0.5942,0.977,-18.677,1.038,56.821,5.812,-31.267
15379,-0.1255,0.8511,0.5918,7.446,-18.433,-0.366,56.865,5.724,-31.426
15389,-0.1362,0.8184,0.5737,7.812,-11.963,-0.977,56.909,5.685,-31.531
15399,-0.1187,0.8052,0.5674,1.160,-1.953,0.122,56.898,5.691,-31.547
15409,-0.0889,0.8159,0.5679,-8.667,6.714,2.441,56.805,5.696,-31.476
15419,-0.0698,0.8652,0.5796,-16.479,10.742,3.845,56.646,5.707,-31.366
15429,-0.0581,0.9038,0.5977,-17.578,9.644,3.296,56.481,5.707,-31.267
15439,-0.0747,0.9102,0.5986,-12.024,5.188,1.404,56.365,5.702,-31.218
15449,-0.0825,0.9014,0.6006,-5.066,1.282,-0.977,56.316,5.707,-31.212
15459,-0.0874,0.8813,0.5923,-0.244,-0.732,-2.686,56.310,5.713,-31.229
15469,-0.0996,0.8560,0.5801,1.038,-0.061,-3.418,56.316,5.740,-31.251
15479,-0.1040,0.8374,0.5645,-0.427,3.174,-4.150,56.310,5.790,-31.245
15489,-0.1089,0.8145,0.5508,-2.625,7.629,-4.944,56.283,5.878,-31.212
15499,-0.1006,0.8027,0.5498,-4.700,10.620,-5.188,56.234,5.982,-31.152
15509,-0.0903,0.8120,0.5610,-6.470,10.437,-4.578,56.168,6.070,-31.091
15519,-0.0859,0.8320,0.5781,-6.042,7.263,-3.418,56.102,6.125,-31.047
15529,-0.0952,0.8438,0.5884,-2.563,3.174,-2.930,56.069,6.158,-31.036
15539,-0.1143,0.8379,0.5879,2.869,0.977,-3.296,56.085,6.191,-31.047
15549,-0.1406,0.8174,0.5610,7.446,1.892,-3.723,56.151,6.251,-31.053
15559,-0.1548,0.7783,0.5176,10.254,5.737,-3.845,56.261,6.350,-31.025
15569,-0.1558,0.7500,0.4819,9.033,10.254,-2.808,56.365,6.460,-30.959
15579,-0.1245,0.7612,0.4707,5.066,13.062,-0.977,56.448,6.559,-30.855
15589,-0.0757,0.8037,0.5098,1.465,10.254,1.404,56.486,6.581,-30.756
15599,-0.0527,0.8706,0.5718,0.854,0.854,2.563,56.497,6.526,-30.740
15609,-0.0610,0.9272,0.6250,6.653,-10.864,0.793,56.547,6.427,-30.822
15619,-0.1108,0.9224,0.6265,17.395,-18.494,-1.404,56.695,6.334,-30.987
15629,-0.1802,0.8672,0.5698,26.245,-15.869,-3.174,56.937,6.306,-31.141
15639,-0.2119,0.7949,0.4854,27.344,-2.930,-4.639,57.222,6.394,-31.190
15649,-0.2070,0.7339,0.4097,16.846,12.756,-4.150,57.431,6.570,-31.102
15659,-0.1694,0.7139,0.3579,-0.183,24.353,-1.587,57.513,6.768,-30.905
15669,-0.1016,0.7373,0.3711,-16.968,26.672,1.892,57.431,6.899,-30.668
15679,-0.0435,0.8037,0.4292,-28.137,16.907,5.249,57.217,6.899,-30.498
15689,-0.0469,0.8623,0.4888,-26.367,-1.526,6.042,56.992,6.801,-30.476
15699,-0.0718,0.8809,0.5347,-15.015,-19.958,4.089,56.843,6.630,-30.624
15709,-0.0942,0.8638,0.5762,-2.686,-31.494,1.404,56.777,6.432,-30.883
15720,-0.1045,0.8496,0.5967,5.798,-32.898,0.061,56.788,6.251,-31.157
15729,-0.1152,0.8296,0.6021,6.775,-27.161,-0.183,56.805,6.103,-31.388
15739,-0.1196,0.8159,0.6079,0.244,-16.235,0.610,56.755,6.021,-31.520
15749,-0.1147,0.8223,0.6064,-11.230,-3.662,1.892,56.613,5.988,-31.542
15759,-0.0942,0.8530,0.6089,-22.095,6.470,2.991,56.376,5.988,-31.470
15769,-0.0688,0.8984,0.6187,-28.137,10.681,3.052,56.102,5.999,-31.360
15779,-0.0728,0.9209,0.6299,-25.391,8.240,1.465,55.854,6.010,-31.284
15789,-0.0981,0.9043,0.6294,-16.663,3.052,-1.770,55.684,6.031,-31.273
15799,-0.1123,0.8662,0.6270,-7.080,-0.671,-4.578,55.596,6.064,-31.300
15809,-0.1226,0.8213,0.6113,-0.183,-2.075,-5.310,55.563,6.103,-31.349
15819,-0.1294,0.7920,0.5942,2.258,-0.793,-3.601,55.558,6.141,-31.377
15829,-0.1235,0.7808,0.5835,0.183,2.441,-1.526,55.541,6.180,-31.366
15839,-0.1055,0.7944,0.5815,-4.150,6.104,-0.732,55.486,6.218,-31.317
15849,-0.0898,0.8188,0.5894,-8.179,7.935,-0.793,55.399,6.257,-31.256
15859,-0.0991,0.8418,0.5850,-9.094,7.385,-1.343,55.311,6.301,-31.201
15869,-0.1128,0.8389,0.5757,-5.676,6.409,-2.441,55.261,6.361,-31.163
15879,-0.1152,0.8198,0.5664,-1.526,5.676,-2.808,55.250,6.416,-31.135
15889,-0.1240,0.7983,0.5415,1.587,5.554,-2.258,55.278,6.476,-31.102
15899,-0.1182,0.7852,0.5288,2.319,5.737,-1.282,55.311,6.526,-31.058
15909,-0.1162,0.7876,0.5195,1.343,5.310,0.305,55.344,6.559,-31.014
15919,-0.1172,0.7891,0.5146,0.549,4.517,1.343,55.371,6.575,-30.970
15929,-0.1069,0.8071,0.5278,-0.916,3.052,1.526,55.377,6.581,-30.937
15939,-0.1055,0.8223,0.5474,-1.953,-0.061,1.160,55.371,6.564,-30.932
15949,-0.1040,0.8403,0.5698,-2.747,-3.479,0.793,55.344,6.531,-30.954
15959,-0.1079,0.8540,0.5859,-2.136,-5.981,0.000,55.322,6.493,-31.003
15969,-0.1274,0.8457,0.5840,1.343,-5.737,-1.343,55.327,6.476,-31.058
15979,-0.1245,0.8203,0.5806,4.395,-2.808,-2.197,55.360,6.482,-31.097
15989,-0.1143,0.8091,0.5732,4.822,-0.122,-1.587,55.399,6.498,-31.102
15999,-0.1060,0.8105,0.5742,3.174,0.366,-0.427,55.426,6.498,-31.102
16009,-0.0869,0.8311,0.5996,0.549,-1.221,0.549,55.415,6.471,-31.113
16019,-0.0874,0.8584,0.6270,-0.122,-3.906,0.305,55.399,6.427,-31.141
16029,-0.1128,0.8638,0.6289,3.540,-5.676,-0.916,55.410,6.400,-31.196
16039,-0.1353,0.8413,0.6118,8.240,-4.089,-1.892,55.475,6.405,-31.240
16049,-0.1411,0.8101,0.5845,9.827,0.732,-1.953,55.558,6.438,-31.245
16059,-0.1538,0.7803,0.5376,7.568,6.409,-1.282,55.635,6.515,-31.196
16069,-0.1484,0.7661,0.5010,1.343,11.841,-0.610,55.673,6.614,-31.102
16079,-0.1318,0.7656,0.4775,-5.859,14.954,0.305,55.651,6.707,-30.976
16089,-0.1128,0.7769,0.4751,-11.353,14.282,1.526,55.585,6.779,-30.850
16099,-0.0962,0.8042,0.4902,-14.099,9.644,2.502,55.486,6.806,-30.756
16109,-0.0889,0.8301,0.5181,-12.451,1.953,3.296,55.393,6.773,-30.718
16119,-0.0967,0.8452,0.5508,-7.751,-6.042,3.418,55.327,6.696,-30.751
16129,-0.1079,0.8472,0.5796,-2.502,-11.414,2.747,55.294,6.603,-30.828
16139,-0.1089,0.8433,0.6016,1.465,-12.634,1.831,55.294,6.509,-30.921
16149,-0.1191,0.8325,0.6050,2.991,-10.376,1.038,55.300,6.443,-31.003
16159,-0.1191,0.8179,0.6074,1.953,-5.615,0.427,55.294,6.411,-31.047
16169,-0.1138,0.8057,0.6030,-1.770,-0.427,0.427,55.256,6.405,-31.047
16179,-0.1172,0.8096,0.5957,-7.019,3.723,0.977,55.173,6.422,-31.014
16189,-0.1113,0.8208,0.5937,-12.268,6.470,1.282,55.047,6.449,-30.948
16199,-0.1108,0.8369,0.5986,-15.381,7.141,1.282,54.899,6.476,-30.883
16209,-0.1167,0.8408,0.5952,-15.137,6.165,0.610,54.750,6.504,-30.833
16220,-0.1226,0.8262,0.5981,-11.963,5.005,-0.610,54.630,6.542,-30.795
16229,-0.1240,0.8003,0.5962,-8.179,4.333,-1.282,54.542,6.581,-30.767
16239,-0.1265,0.7861,0.5884,-5.127,4.028,-0.854,54.481,6.619,-30.734
16249,-0.1226,0.7842,0.5835,-3.845,4.517,0.305,54.432,6.647,-30.696
16259,-0.1157,0.8042,0.5825,-3.601,5.005,1.709,54.399,6.663,-30.646
16269,-0.1079,0.8223,0.5801,-3.052,5.127,2.319,54.382,6.669,-30.591
16279,-0.0981,0.8398,0.5830,-2.380,4.456,2.380,54.371,6.663,-30.542
16289,-0.0977,0.8467,0.5820,-1.465,3.113,1.587,54.371,6.658,-30.509
16299,-0.1050,0.8340,0.5801,-0.427,2.197,0.488,54.377,6.658,-30.487
16309,-0.1147,0.8228,0.5693,-0.549,2.136,-0.488,54.382,6.674,-30.471
16319,-0.1245,0.8091,0.5527,-0.732,3.296,-1.160,54.393,6.707,-30.449
16329,-0.1206,0.7939,0.5435,-1.465,4.578,-1.099,54.393,6.746,-30.421
16339,-0.1147,0.7959,0.5337,-2.197,4.700,-0.610,54.393,6.779,-30.383
16349,-0.1011,0.8013,0.5527,-2.197,2.747,-0.122,54.382,6.790,-30.361
16359,-0.1016,0.8101,0.5718,-1.648,-1.465,0.244,54.371,6.768,-30.372
16369,-0.1113,0.8169,0.5952,-0.183,-5.615,0.122,54.360,6.729,-30.421
16379,-0.1211,0.8149,0.6138,0.977,-7.996,-0.061,54.349,6.685,-30.487
16389,-0.1396,0.8096,0.6162,1.770,-7.324,-0.244,54.344,6.652,-30.547
16399,-0.1396,0.8022,0.6138,1.587,-3.967,0.061,54.338,6.641,-30.580
16409,-0.1372,0.7959,0.6001,0.549,0.000,0.977,54.327,6.647,-30.575
16419,-0.1299,0.7935,0.5874,-0.793,3.235,1.709,54.316,6.663,-30.536
16429,-0.1074,0.8052,0.5889,-2.930,4.089,2.075,54.289,6.663,-30.493
16439,-0.1050,0.8237,0.5908,-3.479,2.075,2.014,54.256,6.652,-30.460
16449,-0.1104,0.8271,0.5889,-1.892,-0.366,1.709,54.240,6.630,-30.454
16459,-0.1162,0.8262,0.5908,0.122,-1.343,1.099,54.245,6.614,-30.460
16469,-0.1196,0.8198,0.5850,1.160,-0.549,0.610,54.256,6.608,-30.460
16479,-0.1221,0.8110,0.5732,0.916,1.160,0.854,54.272,6.608,-30.443
16489,-0.1196,0.8022,0.5635,-0.183,3.357,1.282,54.283,6.625,-30.410
16499,-0.1113,0.8076,0.5581,-1.953,4.944,1.282,54.278,6.641,-30.361
16509,-0.0967,0.8169,0.5620,-3.357,4.700,1.221,54.261,6.647,-30.317
16519,-0.0918,0.8296,0.5723,-3.906,2.380,1.221,54.240,6.636,-30.289
16529,-0.1011,0.8345,0.5806,-2.930,-0.488,0.549,54.218,6.619,-30.289
16539,-0.1128,0.8281,0.5859,-0.854,-1.892,-0.427,54.212,6.608,-30.311
16549,-0.1182,0.8179,0.5879,0.793,-1.587,-0.793,54.223,6.608,-30.328
16559,-0.1143,0.8018,0.5884,0.000,0.610,-0.061,54.218,6.608,-30.322
16569,-0.1021,0.8188,0.6035,-1.038,0.305,0.244,54.201,6.603,-30.317
16579,-0.1025,0.8276,0.6128,-0.122,-1.221,0.061,54.190,6.586,-30.328
16589,-0.1055,0.8325,0.6274,0.732,-2.380,-0.366,54.185,6.564,-30.350
16599,-0.1240,0.8276,0.6182,1.526,-1.953,-1.099,54.185,6.564,-30.372
16609,-0.1489,0.8071,0.5854,1.282,1.221,-1.770,54.196,6.608,-30.372
16619,-0.1606,0.7808,0.5425,-0.183,6.592,-2.014,54.212,6.691,-30.328
16629,-0.1514,0.7578,0.5068,-2.258,10.986,-1.465,54.218,6.795,-30.251
16639,-0.1201,0.7563,0.4980,-5.371,11.353,0.183,54.201,6.866,-30.157
16649,-0.0889,0.7710,0.5205,-7.690,6.592,2.014,54.152,6.872,-30.092
16659,-0.0605,0.8130,0.5820,-8.667,-2.136,3.174,54.064,6.801,-30.086
16669,-0.0723,0.8481,0.6392,-6.714,-11.353,3.174,53.981,6.680,-30.163
16679,-0.1099,0.8477,0.6694,-2.014,-15.686,1.770,53.926,6.564,-30.278
16689,-0.1372,0.8354,0.6782,1.587,-12.024,0.000,53.899,6.504,-30.377
16699,-0.1416,0.8164,0.6626,2.747,-2.563,-0.854,53.893,6.509,-30.405
16709,-0.1382,0.7949,0.6265,1.160,7.202,-0.488,53.888,6.564,-30.350
16719,-0.1367,0.7920,0.5898,-1.953,13.977,0.305,53.877,6.658,-30.234
16729,-0.1328,0.7876,0.5576,-4.944,16.602,0.793,53.855,6.762,-30.092
16739,-0.1294,0.7900,0.5298,-6.958,15.747,1.343,53.822,6.850,-29.954
16749,-0.1113,0.7974,0.5278,-8.301,12.085,1.831,53.778,6.905,-29.844
16759,-0.0986,0.8086,0.5386,-8.362,5.737,1.892,53.729,6.910,-29.789
16769,-0.1089,0.8105,0.5503,-6.836,-0.854,1.038,53.685,6.894,-29.789
16779,-0.1152,0.8057,0.5674,-4.761,-4.700,0.000,53.641,6.861,-29.828
16789,-0.1167,0.7998,0.5869,-3.357,-5.432,-0.183,53.608,6.833,-29.872
16799,-0.1152,0.7949,0.6030,-2.563,-4.395,0.122,53.569,6.801,-29.910
16809,-0.1221,0.8037,0.6069,-2.014,-2.625,0.671,53.542,6.784,-29.927
16819,-0.1108,0.8091,0.6138,-1.221,-0.793,0.854,53.520,6.768,-29.927
16829,-0.1011,0.8228,0.6274,-0.427,-0.427,1.343,53.509,6.740,-29.921
16839,-0.1074,0.8330,0.6289,0.854,-1.465,1.404,53.509,6.713,-29.927
16849,-0.1182,0.8345,0.6265,1.770,-2.075,0.610,53.520,6.691,-29.938
16859,-0.1294,0.8218,0.6187,2.136,-1.343,-0.488,53.536,6.691,-29.954
16869,-0.1357,0.8120,0.6025,1.648,0.488,-0.916,53.553,6.713,-29.954
16879,-0.1333,0.8037,0.5889,0.366,2.747,-0.793,53.558,6.746,-29.938
16889,-0.1235,0.7974,0.5850,-1.282,4.028,-0.366,53.553,6.773,-29.905
16899,-0.1133,0.8052,0.5845,-2.808,3.479,-0.488,53.531,6.795,-29.883
16909,-0.1138,0.8086,0.5889,-2.380,1.526,-0.977,53.514,6.812,-29.872
16919,-0.1216,0.8062,0.5942,-0.366,-0.366,-1.160,53.509,6.817,-29.883
16929,-0.1216,0.7930,0.5991,1.953,-1.221,-1.038,53.520,6.823,-29.899
16939,-0.1240,0.7905,0.6001,2.380,-0.793,-0.488,53.536,6.823,-29.910
16949,-0.1260,0.7900,0.5903,1.343,0.977,-0.366,53.547,6.839,-29.905
16959,-0.1221,0.7930,0.5825,-0.061,3.235,-0.061,53.553,6.855,-29.877
16969,-0.1162,0.7993,0.5688,-1.099,4.395,0.488,53.553,6.877,-29.839
16979,-0.1074,0.8071,0.5684,-1.099,3.601,0.549,53.558,6.888,-29.806
16989,-0.1050,0.8135,0.5786,-0.366,0.854,0.305,53.569,6.883,-29.800
16999,-0.1123,0.8154,0.5835,1.038,-2.136,-0.183,53.586,6.866,-29.817
17009,-0.1147,0.8120,0.5942,1.648,-3.662,-0.610,53.597,6.844,-29.850
17019,-0.1328,0.8066,0.5898,1.465,-2.991,-0.793,53.613,6.844,-29.877
17029,-0.1299,0.8003,0.5903,0.244,-0.244,-0.854,53.613,6.855,-29.888
17039,-0.1172,0.8052,0.5957,-1.526,1.587,-0.549,53.597,6.866,-29.877
17049,-0.1240,0.8047,0.5859,-1.343,1.465,-0.610,53.591,6.883,-29.866
17059,-0.1206,0.7993,0.5918,-0.610,0.671,-0.793,53.580,6.894,-29.866
17069,-0.1133,0.8008,0.6069,-0.366,-0.793,-0.671,53.569,6.888,-29.877
17079,-0.1201,0.8037,0.6162,0.244,-2.625,-0.549,53.558,6.877,-29.905
17089,-0.1274,0.8032,0.6196,0.793,-2.991,-0.732,53.553,6.866,-29.932
17099,-0.1382,0.7959,0.6069,1.709,-1.221,-0.793,53.558,6.877,-29.943
17109,-0.1396,0.7803,0.5859,2.075,1.953,-0.549,53.575,6.905,-29.932
17119,-0.1304,0.7705,0.5708,0.366,4.150,0.305,53.580,6.932,-29.899
17129,-0.1147,0.7827,0.5698,-1.587,3.784,1.160,53.575,6.949,-29.861
17139,-0.1011,0.8032,0.5874,-2.136,0.793,1.770,53.558,6.927,-29.844
17149,-0.0854,0.8276,0.6230,-0.732,-3.113,1.648,53.542,6.872,-29.861
17159,-0.0923,0.8452,0.6553,2.380,-6.653,0.732,53.547,6.806,-29.910
17169,-0.1196,0.8579,0.6606,6.531,-7.324,-0.305,53.591,6.762,-29.971
17179,-0.1440,0.8447,0.6416,10.681,-3.845,-0.854,53.685,6.757,-30.004
17189,-0.1543,0.8145,0.5972,12.634,2.747,-0.854,53.817,6.801,-29.987
17199,-0.1533,0.7876,0.5435,10.193,9.277,-0.488,53.943,6.877,-29.916
17209,-0.1387,0.7778,0.5029,3.479,13.367,0.122,54.020,6.971,-29.806
17219,-0.1138,0.7803,0.4912,-4.272,13.367,0.366,54.031,7.048,-29.696
17229,-0.1030,0.7910,0.4956,-9.399,8.789,0.122,53.981,7.092,-29.625
17239,-0.0957,0.8052,0.5234,-10.803,1.831,-0.549,53.910,7.092,-29.614
17249,-0.1055,0.8076,0.5552,-8.728,-5.127,-1.099,53.833,7.059,-29.658
17259,-0.1226,0.8018,0.5859,-4.761,-9.827,-1.221,53.773,7.015,-29.745
17269,-0.1323,0.7930,0.6045,-1.343,-10.437,-0.732,53.740,6.965,-29.833
17279,-0.1401,0.7856,0.6064,-0.061,-7.385,0.000,53.718,6.932,-29.894
17289,-0.1382,0.7764,0.6006,-0.977,-2.441,0.977,53.690,6.921,-29.910
17299,-0.1240,0.7769,0.5933,-4.395,1.526,2.075,53.641,6.916,-29.883
17309,-0.1060,0.8003,0.6069,-9.521,2.808,2.563,53.542,6.899,-29.844
17319,-0.1045,0.8164,0.6270,-12.451,1.160,1.953,53.410,6.883,-29.828
