elapsed_ms,acc_x_g,acc_y_g,acc_z_g,gyro_x_dps,gyro_y_dps,gyro_z_dps,angle_x_deg,angle_y_deg,angle_z_deg
0,0.7515,0.3809,-0.5596,0.916,-0.122,0.549,146.030,-48.131,5.570
10,0.7495,0.3809,-0.5586,0.732,-0.183,0.549,146.036,-48.131,5.559
20,0.7500,0.3809,-0.5547,0.366,-0.061,0.549,146.041,-48.131,5.554
30,0.7495,0.3799,-0.5566,-0.061,0.061,0.427,146.041,-48.137,5.548
40,0.7510,0.3818,-0.5581,-0.122,0.122,0.244,146.036,-48.137,5.548
50,0.7515,0.3828,-0.5576,-0.122,0.244,0.061,146.030,-48.137,5.548
60,0.7480,0.3813,-0.5581,0.000,0.183,-0.061,146.025,-48.137,5.548
70,0.7461,0.3789,-0.5596,0.122,0.000,-0.183,146.025,-48.131,5.554
80,0.7471,0.3789,-0.5571,0.061,0.000,-0.366,146.019,-48.131,5.554
90,0.7495,0.3799,-0.5571,0.000,0.061,-0.244,146.014,-48.126,5.559
100,0.7495,0.3809,-0.5576,0.061,0.122,-0.061,146.008,-48.126,5.559
110,0.7515,0.3818,-0.5601,0.244,0.427,0.122,146.008,-48.131,5.565
120,0.7495,0.3745,-0.5596,0.854,0.488,0.183,146.014,-48.131,5.565
130,0.7417,0.3477,-0.5664,2.380,0.732,-0.427,146.052,-48.137,5.576
140,0.7407,0.3164,-0.5679,4.211,1.221,-1.404,146.124,-48.148,5.603
150,0.7222,0.2969,-0.5747,6.592,2.319,-1.709,146.223,-48.153,5.647
161,0.7065,0.2539,-0.5737,8.057,3.967,-1.160,146.371,-48.186,5.691
170,0.7388,0.2627,-0.5835,4.456,6.592,0.793,146.475,-48.252,5.735
180,0.7500,0.2822,-0.5854,-5.676,8.301,6.104,146.503,-48.362,5.729
190,0.7529,0.3013,-0.5898,-19.287,9.521,12.695,146.431,-48.516,5.647
200,0.8018,0.4087,-0.5864,-40.161,13.611,18.433,146.113,-48.724,5.532
210,0.8535,0.5654,-0.5786,-55.969,18.494,21.545,145.536,-48.972,5.416
220,0.9189,0.7104,-0.5752,-62.195,22.766,17.700,144.778,-49.219,5.389
230,0.9380,0.7891,-0.5605,-50.171,21.606,8.179,144.020,-49.389,5.477
240,0.8765,0.6802,-0.5459,-22.217,12.573,-6.409,143.503,-49.411,5.674
250,0.7734,0.4629,-0.5566,7.141,0.122,-21.667,143.339,-49.263,5.938
260,0.6689,0.2725,-0.5659,17.090,-11.353,-34.851,143.372,-48.939,6.268
270,0.6226,0.1602,-0.5762,8.789,-17.700,-41.077,143.416,-48.527,6.608
280,0.6558,0.1494,-0.5991,-11.536,-18.860,-37.109,143.322,-48.142,6.888
290,0.7065,0.2402,-0.5937,-33.264,-16.663,-24.536,143.031,-47.862,7.031
300,0.7578,0.3540,-0.5757,-43.396,-13.794,-8.423,142.668,-47.708,7.009
310,0.7617,0.4316,-0.5498,-40.527,-12.939,5.066,142.388,-47.631,6.833
320,0.7500,0.4702,-0.5312,-30.518,-12.756,11.963,142.234,-47.593,6.575
330,0.7319,0.4697,-0.5234,-18.127,-12.573,11.780,142.202,-47.554,6.323
340,0.7163,0.4307,-0.5322,-7.874,-12.695,6.897,142.251,-47.483,6.130
350,0.7271,0.4028,-0.5400,-5.188,-13.184,2.136,142.317,-47.390,5.982
360,0.7461,0.3926,-0.5415,-8.057,-15.320,0.366,142.361,-47.280,5.839
370,0.7764,0.4204,-0.5376,-12.512,-17.151,1.160,142.355,-47.164,5.674
380,0.7939,0.4546,-0.5239,-16.174,-18.799,3.601,142.311,-47.060,5.460
390,0.7861,0.4761,-0.5171,-17.578,-19.348,5.127,142.256,-46.950,5.229
400,0.7388,0.4546,-0.5142,-14.954,-18.921,3.845,142.229,-46.824,5.015
410,0.7041,0.4282,-0.5151,-11.780,-16.785,0.122,142.202,-46.692,4.861
420,0.7036,0.4189,-0.5195,-10.010,-13.367,-2.991,142.152,-46.566,4.779
430,0.7266,0.4243,-0.5288,-8.179,-11.047,-3.113,142.108,-46.467,4.713
440,0.7603,0.4531,-0.5361,-6.104,-10.254,-1.160,142.081,-46.384,4.636
450,0.7666,0.4712,-0.5415,-2.441,-10.742,1.526,142.108,-46.318,4.526
460,0.7295,0.4438,-0.5435,1.038,-11.597,2.747,142.202,-46.241,4.389
470,0.6777,0.3921,-0.5396,1.282,-11.353,0.366,142.306,-46.148,4.285
480,0.6616,0.3550,-0.5508,-2.808,-8.972,-3.784,142.350,-46.044,4.246
490,0.6890,0.3623,-0.5542,-9.460,-5.920,-5.493,142.295,-45.967,4.257
500,0.7339,0.4033,-0.5547,-14.221,-3.662,-3.540,142.163,-45.928,4.268
510,0.7847,0.4766,-0.5503,-14.954,-2.441,0.671,142.009,-45.923,4.241
520,0.7856,0.5039,-0.5444,-10.315,-3.418,4.333,141.916,-45.928,4.158
530,0.7397,0.4771,-0.5352,-3.479,-5.066,4.456,141.910,-45.917,4.065
540,0.6914,0.4277,-0.5342,1.099,-5.249,0.061,141.949,-45.873,4.016
550,0.6606,0.3804,-0.5410,1.282,-4.089,-5.310,141.976,-45.797,4.043
560,0.6929,0.3872,-0.5483,-3.052,-2.136,-7.935,141.921,-45.736,4.109
570,0.7544,0.4478,-0.5518,-8.972,-0.305,-5.554,141.779,-45.709,4.169
580,0.7744,0.4858,-0.5503,-10.742,-0.183,-0.305,141.641,-45.714,4.175
590,0.7637,0.4985,-0.5454,-9.583,-0.366,2.075,141.526,-45.725,4.147
600,0.7310,0.4893,-0.5396,-6.775,-0.061,0.488,141.427,-45.720,4.142
610,0.6963,0.4536,-0.5342,-3.662,0.000,-3.296,141.345,-45.692,4.175
620,0.6714,0.4058,-0.5366,-2.014,0.061,-7.324,141.284,-45.643,4.257
630,0.6870,0.3994,-0.5342,-2.502,0.183,-10.010,141.196,-45.582,4.373
640,0.7231,0.4277,-0.5312,-4.761,0.122,-9.399,141.075,-45.533,4.477
650,0.7388,0.4531,-0.5322,-5.615,-0.427,-5.737,140.960,-45.505,4.537
661,0.7334,0.4707,-0.5303,-3.967,-0.549,-2.502,140.878,-45.494,4.559
670,0.7119,0.4707,-0.5366,-0.549,0.244,-1.526,140.839,-45.478,4.581
680,0.6904,0.4512,-0.5444,3.113,1.770,-2.747,140.834,-45.461,4.625
690,0.6792,0.4224,-0.5488,4.456,3.418,-5.005,140.834,-45.450,4.713
700,0.7041,0.4238,-0.5513,3.113,4.456,-6.714,140.801,-45.439,4.828
710,0.7505,0.4629,-0.5493,0.427,4.150,-5.798,140.724,-45.445,4.927
720,0.7744,0.4888,-0.5469,-0.305,2.136,-2.197,140.663,-45.456,4.971
730,0.7642,0.5054,-0.5430,1.282,0.000,0.061,140.641,-45.461,4.971
740,0.7187,0.4805,-0.5381,3.540,-1.282,-1.038,140.652,-45.439,4.971
750,0.6758,0.4316,-0.5430,5.127,-0.977,-4.944,140.680,-45.390,5.015
760,0.6626,0.3975,-0.5405,3.906,0.854,-9.155,140.669,-45.330,5.125
770,0.6963,0.4102,-0.5425,1.953,2.686,-10.986,140.609,-45.286,5.268
780,0.7256,0.4321,-0.5435,-0.732,3.479,-8.728,140.521,-45.269,5.400
790,0.7412,0.4531,-0.5396,-1.648,2.930,-4.150,140.449,-45.275,5.471
800,0.7505,0.4834,-0.5356,-1.526,2.502,-0.305,140.389,-45.302,5.499
810,0.7148,0.4624,-0.5391,1.160,1.587,0.916,140.389,-45.319,5.499
820,0.6924,0.4478,-0.5444,3.052,2.197,-1.709,140.394,-45.319,5.537
830,0.6943,0.4365,-0.5518,2.930,3.906,-4.456,140.378,-45.313,5.625
840,0.7246,0.4521,-0.5571,2.625,5.005,-4.944,140.339,-45.319,5.724
850,0.7510,0.4751,-0.5571,1.099,5.371,-3.052,140.284,-45.346,5.806
860,0.7383,0.4712,-0.5586,1.099,4.333,-0.793,140.257,-45.374,5.850
870,0.7139,0.4536,-0.5518,0.244,3.784,-1.160,140.229,-45.390,5.900
880,0.7051,0.4463,-0.5513,-1.343,3.357,-3.540,140.175,-45.385,5.971
890,0.6992,0.4336,-0.5488,-2.991,2.625,-5.493,140.098,-45.368,6.053
900,0.7192,0.4497,-0.5488,-4.028,1.770,-6.348,140.004,-45.341,6.141
910,0.7407,0.4697,-0.5459,-3.906,1.465,-5.371,139.911,-45.324,6.213
925,0.7402,0.4795,-0.5483,-1.526,0.977,-3.357,139.850,-45.313,6.257
930,0.7383,0.4868,-0.5518,1.160,1.099,-2.319,139.823,-45.302,6.290
940,0.7217,0.4663,-0.5562,3.906,1.038,-2.747,139.839,-45.286,6.334
950,0.6953,0.4263,-0.5586,5.005,1.160,-4.761,139.872,-45.258,6.394
960,0.6846,0.4062,-0.5566,2.930,2.014,-7.690,139.867,-45.225,6.493
970,0.7124,0.4258,-0.5537,-0.793,2.930,-9.338,139.796,-45.187,6.625
980,0.7441,0.4526,-0.5498,-4.395,2.747,-7.263,139.686,-45.176,6.729
990,0.7607,0.4839,-0.5391,-5.981,1.770,-3.296,139.576,-45.176,6.779
1000,0.7422,0.4912,-0.5312,-5.188,0.244,-0.732,139.493,-45.181,6.790
1010,0.7002,0.4580,-0.5317,-2.808,-1.099,-1.404,139.460,-45.159,6.795
1020,0.6821,0.4370,-0.5317,-2.014,-0.610,-4.578,139.422,-45.121,6.839
1030,0.6934,0.4360,-0.5288,-2.075,0.366,-6.714,139.356,-45.088,6.916
1040,0.7090,0.4385,-0.5278,-2.136,0.977,-6.653,139.290,-45.060,6.993
1050,0.7383,0.4727,-0.5312,-2.625,2.014,-4.578,139.208,-45.055,7.064
1060,0.7529,0.5044,-0.5327,-2.075,2.502,-1.099,139.136,-45.071,7.097
1070,0.7329,0.4951,-0.5376,1.404,2.319,1.099,139.125,-45.099,7.108
1080,0.7051,0.4653,-0.5454,4.028,3.174,-0.549,139.142,-45.110,7.141
1090,0.6787,0.4263,-0.5439,4.089,4.395,-4.333,139.153,-45.110,7.229
1100,0.7021,0.4380,-0.5454,0.854,5.859,-7.507,139.087,-45.104,7.366
1110,0.7354,0.4604,-0.5493,-2.991,6.531,-6.958,138.972,-45.115,7.498
1120,0.7432,0.4712,-0.5527,-4.700,5.859,-4.211,138.862,-45.137,7.597
1130,0.7510,0.4985,-0.5557,-5.981,5.432,-2.319,138.741,-45.165,7.674
1140,0.7339,0.4897,-0.5640,-4.395,4.333,-1.526,138.658,-45.181,7.729
1150,0.7095,0.4668,-0.5688,-1.282,3.296,-2.869,138.625,-45.176,7.795
1161,0.7046,0.4546,-0.5684,-0.305,2.991,-5.066,138.593,-45.154,7.872
1170,0.6875,0.4180,-0.5645,0.366,1.648,-6.165,138.587,-45.115,7.954
1180,0.6963,0.4131,-0.5635,-1.526,0.305,-7.385,138.565,-45.066,8.036
1190,0.7300,0.4565,-0.5635,-6.165,-0.244,-6.226,138.483,-45.027,8.102
1200,0.7407,0.4795,-0.5645,-7.446,-1.892,-2.014,138.417,-45.000,8.102
1210,0.7378,0.4951,-0.5645,-6.409,-3.174,0.793,138.384,-44.978,8.064
1220,0.7280,0.4990,-0.5586,-4.089,-4.333,1.282,138.384,-44.945,8.009
1230,0.7158,0.4883,-0.5503,-1.526,-5.981,0.549,138.411,-44.896,7.949
1240,0.7134,0.4780,-0.5430,-0.488,-7.751,-0.610,138.455,-44.830,7.883
1250,0.7168,0.4756,-0.5366,-0.793,-9.338,-1.099,138.499,-44.758,7.806
1260,0.7163,0.4819,-0.5322,-2.258,-10.498,-1.038,138.532,-44.676,7.723
1270,0.7061,0.4834,-0.5273,-4.395,-10.498,-0.916,138.538,-44.588,7.630
1280,0.6938,0.4775,-0.5269,-5.554,-9.399,-1.343,138.527,-44.511,7.559
1290,0.7051,0.4956,-0.5234,-6.836,-6.958,-2.197,138.466,-44.440,7.520
1300,0.7197,0.5142,-0.5205,-6.592,-4.700,-2.136,138.384,-44.396,7.498
1310,0.7217,0.5166,-0.5195,-4.089,-3.296,-1.404,138.323,-44.363,7.482
1320,0.7266,0.5254,-0.5161,-0.977,-2.380,-1.160,138.285,-44.341,7.471
1330,0.7109,0.5127,-0.5137,2.686,-2.563,-1.160,138.285,-44.313,7.460
1340,0.6802,0.4746,-0.5181,5.676,-2.747,-2.686,138.334,-44.275,7.460
1350,0.6587,0.4414,-0.5283,5.737,-1.587,-5.310,138.378,-44.220,7.504
1360,0.6807,0.4473,-0.5347,2.930,0.488,-6.897,138.373,-44.182,7.581
1370,0.7329,0.4985,-0.5435,-0.732,2.686,-4.883,138.301,-44.176,7.652
1380,0.7573,0.5298,-0.5439,-1.404,3.113,0.122,138.246,-44.209,7.679
1390,0.7368,0.5210,-0.5439,0.549,2.319,2.869,138.235,-44.242,7.674
1400,0.6885,0.4854,-0.5459,1.465,1.343,0.610,138.246,-44.247,7.679
1410,0.6445,0.4058,-0.5454,-2.075,0.122,-9.705,138.208,-44.176,7.784
1420,0.6484,0.3853,-0.5439,-5.066,-0.610,-11.658,138.142,-44.099,7.899
1430,0.6963,0.4341,-0.5454,-10.071,0.122,-10.132,138.005,-44.039,8.004
1440,0.7451,0.5103,-0.5420,-12.695,0.000,-3.906,137.834,-44.022,8.042
1450,0.7729,0.5718,-0.5342,-9.155,-1.465,3.845,137.736,-44.044,7.993
1460,0.7466,0.5674,-0.5347,-0.183,-3.845,8.423,137.774,-44.072,7.866
1470,0.7026,0.5371,-0.5322,7.751,-5.249,6.897,137.900,-44.066,7.745
1480,0.6680,0.4824,-0.5386,12.390,-5.371,1.038,138.071,-44.022,7.685
1490,0.6504,0.4302,-0.5435,12.451,-4.456,-5.493,138.219,-43.945,7.701
1500,0.6582,0.4043,-0.5435,7.812,-2.869,-9.277,138.296,-43.863,7.773
1510,0.7041,0.4463,-0.5444,-0.916,-0.854,-9.033,138.252,-43.808,7.855
1520,0.7344,0.4985,-0.5483,-7.629,0.122,-3.845,138.148,-43.792,7.899
1530,0.7314,0.5244,-0.5508,-8.118,0.244,2.136,138.060,-43.813,7.877
1540,0.7026,0.5181,-0.5542,-3.784,0.549,3.967,138.038,-43.830,7.844
1550,0.6733,0.4863,-0.5581,1.160,1.465,1.648,138.060,-43.835,7.839
1560,0.6665,0.4580,-0.5591,3.845,1.770,-2.197,138.098,-43.824,7.877
1570,0.6846,0.4492,-0.5596,3.540,0.732,-3.845,138.131,-43.802,7.927
1580,0.7290,0.4849,-0.5571,1.831,-1.709,-2.014,138.153,-43.786,7.932
1590,0.7700,0.5508,-0.5518,0.061,-4.089,2.563,138.170,-43.781,7.866
1600,0.7559,0.5645,-0.5479,1.343,-6.348,6.714,138.230,-43.781,7.740
1610,0.7085,0.5425,-0.5420,3.479,-6.470,6.104,138.312,-43.759,7.614
1620,0.6621,0.4893,-0.5410,4.395,-4.456,0.549,138.384,-43.715,7.570
1630,0.6411,0.4424,-0.5396,1.892,-1.465,-6.592,138.389,-43.649,7.625
1640,0.6597,0.4307,-0.5337,-3.723,0.854,-10.498,138.301,-43.588,7.740
1650,0.7012,0.4609,-0.5337,-9.277,1.770,-9.216,138.142,-43.555,7.850
1660,0.7456,0.5327,-0.5288,-12.329,1.831,-3.662,137.950,-43.555,7.905
1670,0.7510,0.5684,-0.5249,-8.911,0.549,2.686,137.823,-43.588,7.883
1680,0.7002,0.5371,-0.5327,-0.916,-0.427,4.639,137.818,-43.605,7.833
1690,0.6455,0.4780,-0.5396,5.737,0.305,0.183,137.884,-43.594,7.833
1700,0.6265,0.4219,-0.5459,7.446,2.197,-6.897,137.939,-43.550,7.921
1710,0.6455,0.3940,-0.5479,4.761,3.113,-11.047,137.950,-43.500,8.064
1720,0.6968,0.4307,-0.5513,-1.343,3.174,-9.949,137.889,-43.473,8.196
1730,0.7241,0.4697,-0.5503,-6.226,1.465,-3.723,137.807,-43.473,8.245
1740,0.7285,0.5122,-0.5430,-7.263,-0.854,2.808,137.752,-43.495,8.212
1750,0.7134,0.5278,-0.5415,-4.761,-2.136,6.226,137.741,-43.517,8.130
1760,0.6929,0.5156,-0.5459,0.366,-2.686,5.432,137.785,-43.528,8.047
1770,0.6943,0.5127,-0.5469,3.357,-1.770,1.953,137.834,-43.517,8.009
1780,0.6841,0.4692,-0.5464,5.249,-1.892,-0.793,137.906,-43.500,8.004
1790,0.6865,0.4487,-0.5469,3.418,-2.258,-3.296,137.961,-43.467,8.015
1800,0.6865,0.4541,-0.5435,-2.319,-2.380,-4.028,137.944,-43.429,8.036
1810,0.7046,0.4883,-0.5415,-7.812,-2.441,-2.441,137.867,-43.401,8.036
1820,0.7476,0.5581,-0.5361,-10.681,-1.953,0.793,137.741,-43.401,8.009
1830,0.7578,0.5928,-0.5312,-6.836,-2.380,4.333,137.659,-43.412,7.943
1840,0.7344,0.5850,-0.5249,-0.244,-2.502,4.639,137.648,-43.423,7.872
1850,0.6709,0.5117,-0.5205,4.822,-2.563,0.793,137.692,-43.401,7.844
1860,0.6147,0.4341,-0.5288,5.798,-1.831,-7.080,137.741,-43.325,7.899
1870,0.6011,0.3936,-0.5337,1.038,-0.061,-13.916,137.714,-43.220,8.036
1880,0.6172,0.3750,-0.5444,-4.822,1.648,-16.113,137.626,-43.121,8.218
1890,0.6890,0.4497,-0.5518,-12.024,4.456,-12.756,137.422,-43.083,8.388
1900,0.7485,0.5425,-0.5527,-14.404,5.188,-2.930,137.208,-43.110,8.465
1910,0.7656,0.5864,-0.5503,-8.423,3.357,7.263,137.109,-43.187,8.421
1920,0.7437,0.5947,-0.5518,0.854,1.160,11.963,137.153,-43.270,8.311
1930,0.7041,0.5669,-0.5444,8.545,-1.160,10.742,137.285,-43.319,8.196
1940,0.6616,0.5010,-0.5449,14.282,-3.723,4.822,137.483,-43.308,8.113
1950,0.6367,0.4316,-0.5488,13.977,-5.188,-3.235,137.675,-43.242,8.097
1960,0.6294,0.3989,-0.5547,7.385,-4.639,-9.521,137.780,-43.138,8.152
1970,0.6602,0.4126,-0.5615,-3.967,-2.258,-11.536,137.736,-43.050,8.245
1980,0.7231,0.4971,-0.5605,-15.564,0.610,-7.385,137.532,-43.011,8.328
1990,0.7393,0.5454,-0.5547,-18.494,1.343,0.916,137.324,-43.033,8.328
2000,0.7231,0.5571,-0.5474,-13.550,0.916,5.981,137.197,-43.077,8.278
2010,0.6807,0.5308,-0.5449,-6.836,0.366,5.371,137.148,-43.105,8.229
2020,0.6694,0.5107,-0.5415,-0.916,-0.427,1.282,137.148,-43.099,8.212
2030,0.6631,0.4639,-0.5459,3.723,-2.380,-2.380,137.208,-43.061,8.212
2040,0.6919,0.4692,-0.5527,4.639,-3.967,-4.456,137.274,-43.011,8.218
2050,0.7329,0.5190,-0.5498,1.404,-4.333,-2.258,137.291,-42.973,8.201
2060,0.7349,0.5352,-0.5469,0.427,-5.493,2.563,137.335,-42.962,8.124
2070,0.7305,0.5605,-0.5405,-0.977,-4.700,4.517,137.351,-42.957,8.036
2080,0.6885,0.5278,-0.5317,-0.427,-3.296,3.479,137.368,-42.957,7.971
2090,0.6377,0.4692,-0.5317,0.916,-1.587,-1.343,137.390,-42.924,7.971
2100,0.6270,0.4316,-0.5283,-1.770,1.160,-7.141,137.351,-42.880,8.053
2110,0.6611,0.4365,-0.5332,-5.005,2.319,-9.216,137.258,-42.847,8.168
2120,0.7422,0.5220,-0.5332,-7.935,2.808,-5.249,137.109,-42.852,8.245
2130,0.7520,0.5527,-0.5371,-4.211,1.343,3.601,137.054,-42.902,8.223
2140,0.7183,0.5396,-0.5435,2.991,0.122,8.423,137.120,-42.962,8.141
2150,0.6655,0.5039,-0.5498,7.019,0.854,6.409,137.230,-42.995,8.080
2160,0.6348,0.4590,-0.5566,8.362,2.075,0.244,137.335,-42.995,8.097
2170,0.6343,0.4160,-0.5610,5.432,3.052,-4.883,137.401,-42.979,8.174
2180,0.6597,0.4067,-0.5610,0.366,2.747,-6.653,137.406,-42.962,8.267
2190,0.6987,0.4512,-0.5601,-6.592,2.075,-4.211,137.335,-42.962,8.333
2200,0.7354,0.5107,-0.5571,-10.376,0.122,2.441,137.252,-42.990,8.306
2210,0.7607,0.5752,-0.5464,-8.423,-2.319,9.033,137.208,-43.039,8.196
2220,0.7612,0.6064,-0.5454,-0.977,-5.066,13.062,137.263,-43.094,8.015
2230,0.7256,0.5830,-0.5444,7.935,-7.568,12.817,137.433,-43.116,7.817
2240,0.6724,0.5190,-0.5405,14.465,-8.545,7.019,137.670,-43.088,7.668
2250,0.6514,0.4692,-0.5459,13.428,-6.897,-1.404,137.851,-43.017,7.619
2260,0.6567,0.4502,-0.5459,6.775,-4.272,-6.775,137.922,-42.940,7.646
2270,0.6870,0.4687,-0.5430,-2.380,-1.221,-7.385,137.873,-42.891,7.712
2280,0.7139,0.5098,-0.5400,-10.010,1.160,-3.784,137.725,-42.885,7.762
2290,0.7275,0.5601,-0.5366,-12.512,2.258,1.038,137.554,-42.913,7.773
2300,0.7168,0.5747,-0.5312,-8.179,2.380,4.028,137.439,-42.951,7.751
2310,0.6855,0.5488,-0.5327,-0.305,2.075,3.052,137.411,-42.979,7.740
2320,0.6670,0.5156,-0.5366,6.165,2.075,-0.916,137.439,-42.973,7.767
2330,0.6577,0.4756,-0.5410,9.338,1.709,-4.333,137.505,-42.951,7.828
2340,0.6719,0.4609,-0.5498,8.728,0.793,-5.798,137.571,-42.924,7.894
2350,0.7109,0.5044,-0.5493,3.296,0.854,-3.906,137.571,-42.907,7.943
2360,0.7012,0.5078,-0.5508,0.793,0.305,0.305,137.576,-42.913,7.943
2370,0.6924,0.5190,-0.5527,-0.305,1.526,1.587,137.565,-42.929,7.938
2380,0.6704,0.5034,-0.5518,0.244,3.479,0.244,137.549,-42.946,7.971
2390,0.6509,0.4702,-0.5586,1.770,4.944,-2.747,137.543,-42.951,8.042
2400,0.6484,0.4414,-0.5610,0.610,6.042,-4.944,137.521,-42.957,8.146
2410,0.6528,0.4297,-0.5566,-0.671,5.249,-4.944,137.494,-42.962,8.245
2420,0.6680,0.4404,-0.5566,-2.502,3.540,-3.235,137.466,-42.968,8.311
2430,0.6777,0.4531,-0.5552,-3.723,1.160,0.427,137.461,-42.984,8.317
2440,0.6860,0.4722,-0.5498,-3.418,-1.038,3.723,137.477,-43.006,8.273
2450,0.7134,0.5176,-0.5479,-2.136,-2.808,6.104,137.505,-43.033,8.185
2460,0.7256,0.5449,-0.5459,1.160,-4.883,8.118,137.576,-43.050,8.053
2470,0.7031,0.5278,-0.5430,5.798,-6.470,8.240,137.714,-43.061,7.910
2480,0.6816,0.5034,-0.5410,7.812,-6.287,5.310,137.862,-43.044,7.800
2490,0.6792,0.4907,-0.5435,6.165,-4.639,1.526,137.961,-43.017,7.745
2500,0.7192,0.5259,-0.5493,1.465,-2.136,-0.488,137.972,-43.006,7.729
2510,0.7510,0.5669,-0.5483,-2.136,0.000,0.671,137.911,-43.011,7.723
2520,0.7373,0.5620,-0.5444,-2.869,0.977,1.953,137.856,-43.039,7.712
2530,0.7075,0.5518,-0.5420,-3.601,2.197,-0.183,137.769,-43.044,7.734
2540,0.6641,0.5098,-0.5391,-3.357,2.563,-4.272,137.681,-43.022,7.800
2550,0.6318,0.4541,-0.5405,-2.747,2.380,-8.667,137.604,-42.973,7.910
2560,0.6450,0.4492,-0.5400,-4.150,2.930,-11.475,137.488,-42.913,8.053
2570,0.6987,0.4917,-0.5396,-5.981,3.052,-9.033,137.351,-42.885,8.168
2580,0.7378,0.5469,-0.5391,-5.737,2.136,-1.770,137.241,-42.896,8.207
2590,0.7324,0.5645,-0.5420,-0.977,0.549,4.883,137.230,-42.935,8.163
2600,0.6963,0.5479,-0.5483,4.028,0.244,6.287,137.285,-42.968,8.102
2610,0.6621,0.5093,-0.5435,7.385,0.610,2.380,137.368,-42.979,8.086
2620,0.6362,0.4526,-0.5474,7.324,1.038,-3.845,137.439,-42.946,8.135
2630,0.6440,0.4253,-0.5396,2.563,1.343,-8.423,137.439,-42.902,8.229
2640,0.6582,0.4248,-0.5371,-4.089,1.160,-8.911,137.373,-42.863,8.333
2650,0.6729,0.4468,-0.5371,-9.888,1.160,-5.798,137.258,-42.841,8.399
2660,0.6865,0.4810,-0.5366,-11.597,1.648,-1.221,137.137,-42.852,8.427
2670,0.7080,0.5273,-0.5469,-7.385,2.136,3.052,137.060,-42.891,8.416
2680,0.7236,0.5527,-0.5503,1.343,2.136,6.531,137.082,-42.951,8.372
2690,0.7007,0.5146,-0.5566,11.292,1.038,7.690,137.241,-43.006,8.306
2700,0.6807,0.4800,-0.5620,15.747,0.122,4.761,137.450,-43.039,8.256
2710,0.6758,0.4565,-0.5620,12.878,-0.671,1.160,137.626,-43.039,8.240
2720,0.6880,0.4653,-0.5610,6.042,-1.709,-0.671,137.719,-43.028,8.229
2730,0.7231,0.5161,-0.5576,-1.831,-1.160,-0.244,137.697,-43.022,8.223
2740,0.7266,0.5449,-0.5503,-5.127,-0.244,1.892,137.637,-43.033,8.201
2750,0.7173,0.5513,-0.5522,-4.395,1.587,2.197,137.576,-43.055,8.196
2760,0.6982,0.5376,-0.5518,-1.465,3.601,0.244,137.521,-43.077,8.223
2770,0.6660,0.4883,-0.5518,1.038,3.723,-2.808,137.499,-43.077,8.289
2780,0.6470,0.4424,-0.5576,1.343,2.747,-5.981,137.494,-43.044,8.372
2790,0.6660,0.4492,-0.5552,-1.587,1.221,-6.653,137.461,-43.011,8.454
2800,0.6997,0.4834,-0.5542,-4.272,-0.977,-3.113,137.417,-42.990,8.476
2810,0.7432,0.5566,-0.5513,-5.249,-2.563,2.380,137.373,-42.990,8.427
2820,0.7529,0.5952,-0.5474,-1.404,-3.967,7.263,137.384,-43.011,8.317
2830,0.7197,0.5835,-0.5508,5.615,-4.517,7.874,137.483,-43.022,8.196
2840,0.6699,0.5259,-0.5547,10.925,-3.601,2.991,137.620,-42.995,8.130
2850,0.6401,0.4604,-0.5688,10.620,-1.587,-4.883,137.736,-42.935,8.168
2860,0.6499,0.4365,-0.5693,4.028,0.549,-10.498,137.752,-42.858,8.278
2870,0.6895,0.4570,-0.5747,-4.517,1.587,-10.986,137.659,-42.803,8.405
2880,0.7432,0.5327,-0.5737,-11.841,1.709,-6.104,137.483,-42.781,8.481
2890,0.7378,0.5596,-0.5688,-11.780,-0.854,0.977,137.357,-42.781,8.465
2900,0.6982,0.5483,-0.5703,-6.409,-3.357,3.235,137.324,-42.764,8.399
2910,0.6655,0.5303,-0.5776,-1.099,-4.211,0.610,137.346,-42.715,8.355
2920,0.6519,0.4932,-0.5879,2.869,-4.150,-2.991,137.406,-42.638,8.344
2930,0.6636,0.4717,-0.5942,3.296,-4.028,-5.188,137.472,-42.561,8.361
2940,0.6748,0.4609,-0.5928,-0.183,-4.639,-4.761,137.510,-42.490,8.366
2950,0.6895,0.4780,-0.5859,-5.554,-6.104,-2.625,137.510,-42.424,8.339
2960,0.6982,0.5103,-0.5718,-10.559,-8.179,0.061,137.461,-42.369,8.262
2970,0.6924,0.5288,-0.5586,-9.949,-10.986,1.953,137.433,-42.297,8.141
2980,0.6860,0.5415,-0.5454,-6.287,-12.329,1.831,137.439,-42.215,8.009
2990,0.6787,0.5366,-0.5391,-0.916,-12.451,1.038,137.488,-42.122,7.888
3000,0.6665,0.5171,-0.5381,3.296,-11.475,-0.183,137.576,-42.034,7.784
3010,0.6636,0.5044,-0.5415,4.761,-9.644,-1.587,137.664,-41.951,7.712
3020,0.6616,0.4976,-0.5396,3.052,-7.874,-2.686,137.719,-41.880,7.668
3030,0.6602,0.4888,-0.5386,-0.183,-7.141,-3.113,137.741,-41.808,7.635
3040,0.6855,0.5293,-0.5356,-4.211,-6.592,-3.052,137.697,-41.748,7.603
3050,0.7065,0.5684,-0.5303,-5.310,-6.470,-1.465,137.626,-41.693,7.559
3060,0.6880,0.5610,-0.5269,-1.526,-6.775,-0.305,137.604,-41.644,7.504
3070,0.6597,0.5332,-0.5332,2.502,-5.432,-1.953,137.620,-41.589,7.471
3080,0.6318,0.4902,-0.5449,4.822,-3.174,-5.310,137.659,-41.517,7.498
3090,0.6421,0.4785,-0.5508,2.991,-0.977,-7.996,137.659,-41.457,7.564
3100,0.6636,0.4761,-0.5547,-0.183,-0.122,-7.568,137.620,-41.413,7.641
3110,0.6729,0.4912,-0.5552,-3.479,-0.671,-5.005,137.571,-41.385,7.685
3120,0.6646,0.4961,-0.5454,-5.859,-1.770,-2.502,137.505,-41.364,7.690
3130,0.6533,0.5015,-0.5420,-5.798,-2.808,-1.770,137.450,-41.331,7.685
3140,0.6533,0.5146,-0.5396,-4.883,-3.052,-2.136,137.395,-41.292,7.679
3150,0.6533,0.5034,-0.5444,-1.587,-2.808,-2.441,137.379,-41.259,7.674
3161,0.6509,0.4912,-0.5557,1.465,-1.526,-2.686,137.401,-41.226,7.690
3170,0.6567,0.4883,-0.5601,2.380,0.244,-2.380,137.422,-41.215,7.712
3180,0.6655,0.5010,-0.5674,1.770,1.465,-1.282,137.433,-41.221,7.740
3190,0.6689,0.5039,-0.5669,0.916,1.282,0.061,137.444,-41.232,7.751
3200,0.6548,0.4980,-0.5635,0.427,0.061,0.183,137.461,-41.232,7.751
3210,0.6606,0.5093,-0.5605,-1.099,-0.854,-1.099,137.450,-41.215,7.751
3220,0.6797,0.5317,-0.5557,-1.892,-1.526,-1.282,137.417,-41.199,7.751
3230,0.6953,0.5493,-0.5503,-0.549,-2.319,-0.061,137.401,-41.188,7.729
3240,0.6924,0.5591,-0.5508,1.831,-2.441,0.610,137.411,-41.177,7.701
3250,0.6646,0.5303,-0.5566,4.028,-1.953,-0.305,137.450,-41.155,7.690
3260,0.6377,0.4917,-0.5664,4.578,-1.038,-3.479,137.494,-41.116,7.712
3270,0.6245,0.4536,-0.5747,2.136,0.244,-6.653,137.516,-41.067,7.778
3280,0.6226,0.4316,-0.5781,-1.648,0.977,-7.874,137.499,-41.023,7.866
3290,0.6602,0.4692,-0.5747,-6.592,1.770,-6.287,137.417,-41.001,7.943
3300,0.6958,0.5229,-0.5698,-8.545,1.221,-1.038,137.318,-41.012,7.965
3310,0.7085,0.5571,-0.5659,-5.066,-0.854,4.211,137.280,-41.039,7.916
3320,0.6992,0.5610,-0.5635,0.854,-2.563,5.920,137.324,-41.061,7.833
3330,0.6650,0.5317,-0.5645,6.470,-3.479,3.784,137.422,-41.061,7.767
3340,0.6470,0.4966,-0.5718,8.362,-3.174,-0.732,137.538,-41.028,7.745
3350,0.6475,0.4687,-0.5718,5.920,-2.136,-3.845,137.615,-40.984,7.762
3360,0.6758,0.4854,-0.5684,0.854,-1.587,-4.089,137.626,-40.957,7.789
3370,0.6890,0.5151,-0.5674,-3.845,-1.770,-1.465,137.587,-40.946,7.789
3380,0.6763,0.5239,-0.5674,-4.883,-2.258,1.099,137.560,-40.941,7.756
3390,0.6753,0.5425,-0.5669,-3.357,-1.587,1.343,137.527,-40.935,7.729
3400,0.6729,0.5425,-0.5684,0.305,-0.732,0.671,137.527,-40.930,7.718
3410,0.6787,0.5312,-0.5679,4.150,-0.427,-0.427,137.565,-40.930,7.718
3420,0.6738,0.5215,-0.5684,5.005,-0.427,-1.221,137.604,-40.919,7.723
3430,0.6646,0.5029,-0.5635,3.540,-1.038,-1.404,137.648,-40.908,7.729
3440,0.6533,0.4995,-0.5625,1.038,-1.404,-1.831,137.659,-40.886,7.734
3450,0.6577,0.5122,-0.5591,-1.587,-1.709,-2.014,137.637,-40.858,7.740
3460,0.6641,0.5210,-0.5566,-1.831,-2.380,-1.343,137.620,-40.836,7.734
3470,0.6621,0.5244,-0.5562,-0.122,-2.441,-0.671,137.620,-40.814,7.718
3480,0.6479,0.5068,-0.5508,1.709,-2.319,-0.183,137.642,-40.792,7.696
3490,0.6431,0.4961,-0.5518,2.380,-2.319,-0.671,137.681,-40.776,7.685
3500,0.6675,0.5225,-0.5503,0.610,-1.709,-0.732,137.681,-40.765,7.674
3510,0.6626,0.5112,-0.5479,0.366,-2.075,0.793,137.692,-40.759,7.652
3520,0.6587,0.5127,-0.5498,-0.427,-1.526,0.977,137.697,-40.759,7.625
3530,0.6660,0.5376,-0.5518,-1.709,-0.183,0.305,137.664,-40.765,7.625
3540,0.6685,0.5430,-0.5518,-0.854,0.183,0.000,137.631,-40.765,7.625
3550,0.6548,0.5229,-0.5615,0.793,0.549,-0.977,137.626,-40.759,7.635
3560,0.6348,0.4946,-0.5723,1.465,1.465,-2.747,137.631,-40.743,7.679
3570,0.6357,0.4839,-0.5791,0.366,2.625,-3.845,137.620,-40.732,7.740
3580,0.6621,0.4971,-0.5898,-1.343,3.174,-2.930,137.593,-40.732,7.795
3590,0.6978,0.5381,-0.5898,-2.686,2.686,0.000,137.549,-40.759,7.817
3600,0.7075,0.5620,-0.5825,-1.648,0.793,3.235,137.532,-40.792,7.795
3610,0.6914,0.5586,-0.5742,0.183,-1.587,3.723,137.549,-40.803,7.745
3620,0.6484,0.5215,-0.5723,1.648,-3.723,0.610,137.593,-40.770,7.707
3630,0.6362,0.5068,-0.5679,0.183,-4.272,-4.333,137.598,-40.704,7.707
3640,0.6411,0.4941,-0.5605,-2.502,-3.784,-6.470,137.565,-40.633,7.740
3650,0.6499,0.4946,-0.5620,-4.028,-3.174,-5.554,137.521,-40.573,7.767
3661,0.6602,0.5107,-0.5688,-6.104,-1.526,-3.174,137.455,-40.545,7.784
3670,0.6733,0.5347,-0.5825,-6.775,0.244,-0.977,137.379,-40.540,7.795
3680,0.6689,0.5264,-0.5996,-5.737,1.343,-0.183,137.329,-40.540,7.806
3690,0.6562,0.5049,-0.6035,-6.226,1.892,-2.014,137.269,-40.534,7.844
3700,0.6602,0.5049,-0.5967,-9.583,1.465,-4.456,137.164,-40.512,7.899
3710,0.6577,0.5000,-0.5874,-13.733,-0.793,-4.883,137.027,-40.474,7.938
3720,0.6587,0.5049,-0.5830,-17.334,-3.479,-4.089,136.868,-40.419,7.949
3730,0.6724,0.5361,-0.5864,-20.325,-4.639,-2.930,136.686,-40.364,7.932
3740,0.6719,0.5508,-0.5913,-21.667,-4.517,-2.075,136.489,-40.314,7.916
3750,0.6719,0.5581,-0.6006,-23.682,-3.052,-3.235,136.258,-40.259,7.916
3760,0.6680,0.5542,-0.5928,-28.381,-1.770,-5.798,135.956,-40.199,7.954
3770,0.6543,0.5391,-0.5610,-35.461,-2.441,-8.484,135.571,-40.122,8.015
3780,0.6445,0.5503,-0.5273,-43.701,-4.761,-10.925,135.082,-40.012,8.069
3790,0.6426,0.5615,-0.5068,-49.011,-7.324,-11.963,134.539,-39.880,8.113
3800,0.6450,0.5869,-0.4995,-53.040,-8.545,-12.146,133.956,-39.738,8.146
3810,0.6504,0.6206,-0.4873,-53.406,-7.507,-11.475,133.347,-39.600,8.179
3820,0.6499,0.6084,-0.5005,-50.903,-3.296,-10.193,132.764,-39.507,8.240
3830,0.6387,0.6050,-0.5122,-54.077,3.174,-11.414,132.122,-39.435,8.372
3840,0.6270,0.5996,-0.5220,-61.707,10.315,-14.893,131.358,-39.386,8.597
3850,0.6162,0.5972,-0.5439,-71.472,17.090,-19.104,130.452,-39.337,8.926
3860,0.6270,0.6162,-0.5625,-80.627,23.437,-22.339,129.413,-39.293,9.344
3870,0.6499,0.6426,-0.5859,-86.182,28.442,-24.292,128.282,-39.260,9.827
3880,0.6699,0.6650,-0.6143,-88.928,32.104,-25.024,127.117,-39.238,10.355
3890,0.6821,0.6626,-0.6362,-91.980,33.691,-24.902,125.936,-39.216,10.893
3900,0.6958,0.6763,-0.6416,-100.159,32.837,-25.940,124.684,-39.172,11.437
3910,0.6992,0.6831,-0.6289,-113.464,28.137,-28.198,123.322,-39.078,11.942
3920,0.6685,0.6436,-0.5752,-130.859,18.372,-31.738,121.849,-38.903,12.365
3930,0.6260,0.6265,-0.5151,-153.564,5.066,-38.635,120.207,-38.589,12.678
3940,0.6055,0.6670,-0.4570,-172.913,-6.653,-46.265,118.400,-38.145,12.903
3950,0.6138,0.7212,-0.4023,-183.044,-15.137,-50.903,116.510,-37.617,13.041
3960,0.6382,0.7900,-0.3521,-183.411,-20.508,-51.819,114.631,-37.057,13.101
3970,0.6528,0.8340,-0.3164,-175.354,-23.865,-49.316,112.868,-36.502,13.090
3980,0.6426,0.8555,-0.2988,-162.720,-25.146,-46.326,111.259,-35.975,13.024
3990,0.6240,0.8501,-0.2817,-152.100,-24.048,-44.983,109.764,-35.458,12.947
4000,0.5815,0.7739,-0.2471,-146.973,-22.461,-45.288,108.331,-34.964,12.876
4010,0.5283,0.7124,-0.1953,-151.489,-21.179,-49.438,106.831,-34.442,12.821
4020,0.5010,0.7056,-0.1499,-161.438,-19.470,-55.786,105.205,-33.860,12.794
4030,0.5098,0.7231,-0.1099,-169.495,-18.860,-59.814,103.475,-33.250,12.761
4040,0.5459,0.7876,-0.0781,-173.462,-18.494,-58.838,101.706,-32.651,12.711
4050,0.5459,0.8262,-0.0615,-170.959,-17.151,-52.917,99.981,-32.113,12.640
4060,0.5244,0.8701,-0.0557,-165.039,-11.536,-46.875,98.300,-31.624,12.601
4070,0.5142,0.8921,-0.0586,-156.860,-2.869,-43.030,96.685,-31.185,12.640
4080,0.5093,0.8809,-0.0552,-148.560,5.737,-40.894,95.120,-30.778,12.761
4090,0.5127,0.8730,-0.0425,-142.639,12.695,-40.649,93.587,-30.383,12.953
4100,0.5127,0.8506,-0.0527,-142.090,16.174,-41.321,92.071,-29.993,13.167
4110,0.4902,0.7754,0.0063,-146.912,14.526,-42.969,90.500,-29.592,13.354
4120,0.4751,0.7744,0.0498,-159.607,12.573,-47.058,88.808,-29.147,13.502
4130,0.4893,0.8379,0.0786,-169.128,7.996,-51.636,87.050,-28.647,13.585
4140,0.4878,0.8691,0.1118,-165.100,-0.305,-52.429,85.391,-28.130,13.552
4150,0.4863,0.8989,0.0996,-151.062,-7.568,-49.438,83.936,-27.653,13.420
4160,0.4727,0.9238,0.1187,-132.080,-12.695,-43.335,82.705,-27.230,13.228
4170,0.4814,0.9521,0.1357,-110.718,-12.817,-35.767,81.689,-26.889,13.030
4180,0.4937,0.9448,0.1392,-94.360,-10.254,-29.419,80.826,-26.620,12.870
4190,0.4878,0.9375,0.1216,-85.144,-6.470,-24.780,80.052,-26.395,12.755
4200,0.4858,0.9438,0.1128,-84.900,-0.854,-23.437,79.266,-26.175,12.700
4210,0.4912,0.9424,0.1123,-92.896,4.517,-25.330,78.387,-25.933,12.695
4220,0.5020,0.9458,0.1167,-107.117,8.789,-30.090,77.360,-25.642,12.722
4230,0.4917,0.9692,0.1343,-125.305,11.230,-37.415,76.157,-25.269,12.755
4240,0.4849,0.9902,0.1724,-142.395,12.329,-46.143,74.784,-24.796,12.766
4250,0.4717,0.9976,0.2119,-156.372,12.024,-55.603,73.279,-24.236,12.733
4260,0.4282,0.9795,0.2227,-163.208,10.681,-65.613,71.741,-23.571,12.640
4270,0.3970,0.9443,0.2451,-165.100,10.803,-74.829,70.203,-22.819,12.491
4280,0.3926,0.9204,0.2749,-165.527,12.756,-81.604,68.659,-22.011,12.327
4290,0.3662,0.8926,0.2915,-163.879,13.550,-86.609,67.143,-21.160,12.123
4300,0.3525,0.8320,0.3101,-163.940,15.076,-88.989,65.627,-20.292,11.898
4310,0.3477,0.8223,0.3579,-169.495,16.907,-90.759,64.034,-19.413,11.662
4320,0.3608,0.8320,0.4302,-174.072,15.991,-92.529,62.391,-18.539,11.387
4330,0.3662,0.8354,0.4951,-173.096,11.108,-93.018,60.754,-17.693,11.036
4340,0.3350,0.8398,0.5454,-163.635,4.395,-93.140,59.233,-16.875,10.596
4350,0.2935,0.8345,0.5708,-145.203,-0.122,-92.163,57.898,-16.084,10.107
4360,0.2632,0.7998,0.5884,-121.277,-1.343,-88.257,56.794,-15.337,9.608
4370,0.2422,0.7397,0.5952,-99.854,-0.427,-80.933,55.871,-14.661,9.141
4380,0.2324,0.6997,0.5996,-83.130,3.601,-71.167,55.080,-14.052,8.762
4390,0.2314,0.6885,0.6152,-73.608,7.996,-61.951,54.355,-13.502,8.459
4400,0.2153,0.6821,0.6274,-69.763,10.986,-55.969,53.646,-12.986,8.218
4410,0.2207,0.6885,0.6533,-69.946,11.902,-52.795,52.932,-12.497,7.998
4420,0.1992,0.7085,0.6670,-68.115,10.986,-51.514,52.245,-12.014,7.767
4430,0.1548,0.6963,0.6416,-59.387,11.108,-50.354,51.658,-11.525,7.542
4440,0.1401,0.6675,0.6025,-49.316,15.137,-46.509,51.163,-11.047,7.366
4450,0.1562,0.6621,0.5879,-42.908,20.081,-39.185,50.729,-10.607,7.278
4460,0.1797,0.6880,0.5874,-38.147,21.973,-29.602,50.345,-10.250,7.262
4470,0.2109,0.7241,0.6045,-33.813,19.653,-20.569,50.004,-9.992,7.278
4480,0.2280,0.7583,0.6372,-31.006,13.062,-13.855,49.691,-9.833,7.289
4490,0.1699,0.7671,0.6226,-26.184,5.188,-11.780,49.455,-9.712,7.256
4500,0.1138,0.7222,0.6021,-21.118,2.380,-14.343,49.263,-9.558,7.180
4510,0.0991,0.6763,0.5791,-18.555,5.737,-17.700,49.092,-9.355,7.103
4520,0.1094,0.6528,0.5537,-22.400,11.902,-18.982,48.884,-9.119,7.070
4530,0.1533,0.6743,0.5605,-33.630,16.907,-17.151,48.560,-8.888,7.086
4540,0.1826,0.7334,0.5879,-48.767,17.090,-15.259,48.104,-8.685,7.114
4550,0.1963,0.7812,0.6177,-59.570,13.000,-15.564,47.549,-8.509,7.108
4560,0.1855,0.7969,0.6426,-61.523,6.897,-19.531,46.989,-8.339,7.026
4570,0.1499,0.7725,0.6479,-53.528,1.465,-25.818,46.511,-8.141,6.855
4580,0.1172,0.6978,0.6304,-42.847,-1.282,-31.433,46.132,-7.916,6.630
4590,0.1196,0.6533,0.6353,-34.363,-1.831,-34.302,45.824,-7.679,6.378
4600,0.1416,0.6406,0.6548,-29.724,-4.089,-32.959,45.549,-7.482,6.114
4610,0.1670,0.6562,0.6924,-27.100,-9.644,-27.283,45.297,-7.383,5.850
4620,0.1816,0.6973,0.7339,-25.696,-17.517,-20.386,45.055,-7.388,5.581
4630,0.1577,0.7441,0.7573,-19.897,-24.597,-15.869,44.890,-7.460,5.295
4640,0.1289,0.7451,0.7510,-7.874,-27.039,-14.038,44.852,-7.542,4.999
4650,0.0918,0.6953,0.7227,7.324,-23.560,-13.428,44.945,-7.592,4.735
4660,0.0830,0.6206,0.6948,17.700,-15.564,-11.658,45.115,-7.597,4.543
4670,0.1157,0.5889,0.6807,18.311,-7.324,-7.202,45.269,-7.592,4.438
4680,0.1489,0.6196,0.6870,11.780,-2.686,-2.197,45.357,-7.614,4.406
4690,0.1699,0.6606,0.7051,2.808,-3.357,1.282,45.363,-7.668,4.389
4700,0.1484,0.6943,0.7007,-6.470,-6.348,2.014,45.297,-7.734,4.356
4710,0.1216,0.7090,0.6958,-10.193,-7.385,0.793,45.209,-7.784,4.312
4720,0.0962,0.7148,0.6733,-9.155,-4.639,-1.404,45.137,-7.784,4.268
4730,0.1006,0.6963,0.6523,-5.615,1.221,-3.052,45.099,-7.740,4.252
4740,0.1323,0.6777,0.6499,-3.174,5.615,-2.197,45.077,-7.685,4.279
4750,0.1724,0.6943,0.6758,-3.418,5.493,0.305,45.044,-7.674,4.318
4760,0.2363,0.7529,0.7524,-5.615,-0.427,3.235,44.984,-7.745,4.340
4770,0.2446,0.8203,0.8223,-3.113,-11.841,3.906,44.962,-7.899,4.285
4780,0.1812,0.8506,0.8311,6.409,-22.278,1.282,45.055,-8.075,4.136
4790,0.0688,0.8037,0.7651,21.606,-24.292,-4.639,45.308,-8.163,3.928
4800,-0.0376,0.6665,0.6387,38.330,-13.916,-10.437,45.720,-8.080,3.752
4810,-0.0386,0.5435,0.5254,41.748,5.615,-13.000,46.143,-7.844,3.702
4820,0.0996,0.5273,0.5454,29.968,21.790,-10.681,46.406,-7.614,3.785
4830,0.2871,0.6230,0.6641,5.005,20.630,-2.747,46.406,-7.553,3.917
4840,0.3042,0.7495,0.7461,-13.000,-0.732,5.371,46.263,-7.679,3.950
4850,0.2100,0.8315,0.7588,-14.343,-24.841,9.155,46.148,-7.943,3.834
4860,0.1079,0.8584,0.7549,-2.319,-35.645,7.812,46.181,-8.218,3.625
4870,0.0205,0.8091,0.7124,19.470,-29.907,2.747,46.428,-8.372,3.428
4880,-0.0078,0.6753,0.6240,36.804,-13.306,-2.136,46.813,-8.361,3.318
4890,0.0781,0.5908,0.6006,37.231,5.249,-3.906,47.159,-8.262,3.329
4900,0.1719,0.5913,0.6240,23.987,13.611,-2.075,47.346,-8.190,3.417
4910,0.2368,0.6626,0.6855,5.127,9.033,3.113,47.351,-8.207,3.505
4920,0.2334,0.7676,0.7378,-10.559,-2.136,7.019,47.230,-8.317,3.538
4930,0.1299,0.8242,0.7227,-13.794,-12.390,6.287,47.115,-8.427,3.488
4940,0.0601,0.8096,0.6792,-6.470,-11.963,2.625,47.093,-8.476,3.417
4950,0.0688,0.7422,0.6426,2.563,-2.136,-0.793,47.142,-8.438,3.395
4960,0.0908,0.6699,0.6055,8.240,6.409,-1.953,47.225,-8.355,3.428
4970,0.1489,0.6294,0.5942,4.761,11.597,0.000,47.252,-8.289,3.516
4980,0.2446,0.6826,0.6694,-7.629,8.484,3.845,47.148,-8.322,3.604
4990,0.2354,0.7783,0.7192,-15.442,-3.174,6.287,46.994,-8.432,3.625
5000,0.1533,0.8149,0.7139,-14.648,-13.000,5.554,46.873,-8.558,3.565
5010,0.0879,0.8013,0.6860,-6.592,-13.733,1.465,46.846,-8.624,3.472
5020,0.0991,0.7476,0.6758,3.296,-6.042,-3.113,46.901,-8.608,3.406
5030,0.1353,0.6738,0.6675,11.108,1.282,-4.211,47.000,-8.564,3.389
5040,0.1777,0.6514,0.6709,10.498,4.272,-1.282,47.071,-8.553,3.411
5050,0.2212,0.7109,0.7222,2.563,0.732,3.479,47.065,-8.608,3.439
5060,0.2080,0.7866,0.7495,-0.854,-7.263,6.958,47.049,-8.729,3.433
5070,0.1489,0.8228,0.7271,3.296,-12.085,7.263,47.104,-8.855,3.395
5080,0.0869,0.7915,0.6768,13.245,-8.606,4.517,47.263,-8.904,3.362
5090,0.0840,0.7144,0.6255,22.034,0.366,1.648,47.494,-8.877,3.378
5100,0.1387,0.6636,0.6128,23.560,8.667,1.160,47.714,-8.822,3.450
5110,0.2212,0.6919,0.6602,15.930,9.583,3.235,47.845,-8.828,3.543
5120,0.2441,0.7646,0.7061,8.240,0.671,6.165,47.911,-8.910,3.593
5130,0.2134,0.8232,0.7305,4.578,-10.010,8.179,47.966,-9.058,3.571
5140,0.1655,0.8599,0.7388,7.812,-15.381,7.080,48.071,-9.207,3.505
5150,0.0879,0.8247,0.6821,17.944,-12.512,2.808,48.279,-9.261,3.428
5160,0.0112,0.7187,0.5557,29.663,0.000,-2.747,48.620,-9.157,3.411
5170,0.0278,0.6147,0.4624,32.043,17.029,-6.287,48.966,-8.926,3.494
5180,0.1880,0.6128,0.5088,20.813,28.076,-4.272,49.158,-8.756,3.680
5190,0.3389,0.7217,0.6245,1.221,20.020,2.930,49.142,-8.756,3.856
5200,0.3110,0.8271,0.6904,-10.620,-3.723,9.888,49.043,-8.926,3.889
5210,0.2378,0.8882,0.7163,-9.949,-25.635,12.146,48.983,-9.212,3.774
5220,0.1489,0.8989,0.7153,-1.770,-35.583,8.423,49.021,-9.492,3.560
5230,0.0615,0.8286,0.6709,13.977,-29.663,1.099,49.219,-9.630,3.340
5240,0.0322,0.7085,0.5796,25.940,-11.780,-6.714,49.510,-9.580,3.208
5250,0.0596,0.6128,0.5171,23.987,8.484,-11.047,49.752,-9.388,3.197
5260,0.1709,0.5981,0.5371,7.019,22.705,-9.399,49.790,-9.196,3.312
5270,0.2856,0.6929,0.6211,-19.470,22.644,-3.906,49.554,-9.102,3.461
5280,0.2993,0.8188,0.6904,-38.269,9.155,0.244,49.169,-9.108,3.532
5290,0.2212,0.8760,0.7095,-39.734,-8.545,0.000,48.801,-9.185,3.466
5300,0.1328,0.8604,0.6914,-27.954,-17.456,-4.272,48.576,-9.245,3.307
5310,0.0835,0.7817,0.6543,-9.827,-13.428,-9.766,48.521,-9.212,3.142
5320,0.0786,0.6675,0.6050,6.714,-3.540,-13.062,48.598,-9.097,3.027
5330,0.1343,0.5928,0.5913,11.108,5.493,-10.986,48.675,-8.981,2.994
5340,0.2349,0.6123,0.6528,3.479,6.714,-3.784,48.653,-8.965,3.021
5350,0.2949,0.7256,0.7402,-6.042,-3.479,4.395,48.549,-9.091,3.021
5360,0.2485,0.8311,0.7861,-6.470,-16.418,9.338,48.477,-9.300,2.961
5370,0.1460,0.8618,0.7637,3.479,-24.170,9.705,48.527,-9.509,2.840
5380,0.0532,0.7983,0.6772,19.775,-18.860,6.226,48.752,-9.613,2.741
5390,0.0122,0.6738,0.5698,32.654,-2.563,1.831,49.087,-9.553,2.736
5400,0.0835,0.5962,0.5200,30.334,14.893,1.282,49.367,-9.432,2.856
5410,0.2739,0.6514,0.6030,14.343,21.606,5.615,49.455,-9.410,3.060
5420,0.3374,0.7725,0.6807,-2.380,9.460,11.292,49.400,-9.525,3.208
5430,0.2681,0.8633,0.7041,-7.751,-9.644,14.099,49.334,-9.734,3.224
5440,0.1875,0.9092,0.7065,-3.174,-21.240,12.146,49.345,-9.954,3.142
5450,0.0928,0.8809,0.6675,7.996,-21.790,6.958,49.477,-10.096,3.021
5460,0.0303,0.7593,0.5713,21.729,-9.888,-0.427,49.741,-10.074,2.939
5470,0.0293,0.6406,0.4687,24.536,7.568,-6.042,50.021,-9.899,2.961
5480,0.1162,0.5830,0.4492,10.620,21.423,-6.470,50.131,-9.706,3.082
5490,0.2554,0.6392,0.5156,-17.273,22.278,-1.709,49.944,-9.630,3.246
5500,0.3286,0.7817,0.6289,-43.762,9.216,4.211,49.504,-9.684,3.345
5510,0.3652,0.9292,0.7544,-51.697,-12.634,6.714,49.016,-9.888,3.290
5520,0.2886,1.0098,0.8110,-39.917,-34.668,4.028,48.680,-10.173,3.054
5530,0.1372,0.9673,0.7881,-11.169,-42.358,-2.258,48.653,-10.393,2.714
5540,0.0508,0.8193,0.7056,19.348,-31.311,-10.010,48.906,-10.448,2.411
5550,0.0244,0.6611,0.5981,37.720,-10.254,-15.259,49.301,-10.311,2.230
5560,0.0630,0.5444,0.5386,37.659,9.766,-14.893,49.636,-10.080,2.203
5570,0.1538,0.5264,0.5229,15.625,21.545,-9.521,49.730,-9.888,2.307
5580,0.2471,0.6270,0.5781,-17.761,21.912,-1.709,49.504,-9.794,2.466
5590,0.2725,0.7661,0.6465,-42.969,10.986,4.333,49.059,-9.811,2.582
5600,0.2178,0.8477,0.6611,-49.744,-4.211,5.737,48.598,-9.899,2.587
5610,0.1792,0.8560,0.6763,-41.504,-13.184,3.479,48.230,-10.003,2.510
5620,0.1602,0.8164,0.6851,-25.391,-13.977,-1.160,48.016,-10.074,2.395
5630,0.1611,0.7231,0.6816,-7.568,-11.475,-5.493,47.950,-10.102,2.274
5640,0.1641,0.6533,0.6519,2.991,-8.606,-5.615,47.966,-10.118,2.170
5650,0.1880,0.6489,0.6611,5.493,-5.920,-2.747,47.999,-10.151,2.104
5660,0.2466,0.7026,0.7153,0.916,-6.897,1.831,47.983,-10.245,2.065
5670,0.2222,0.7603,0.7397,-1.892,-10.376,5.188,47.944,-10.366,2.021
5680,0.1899,0.7827,0.7432,-3.906,-11.169,6.226,47.900,-10.481,1.983
5690,0.1562,0.7886,0.7217,-2.502,-9.094,4.272,47.878,-10.552,1.939
5700,0.1196,0.7573,0.6665,4.089,-2.991,0.977,47.933,-10.541,1.928
5710,0.1396,0.6987,0.6250,8.789,4.456,-0.610,48.016,-10.486,1.956
5720,0.1729,0.6787,0.6006,6.592,8.850,1.160,48.071,-10.443,2.032
5730,0.2051,0.7036,0.6001,0.366,9.155,5.066,48.071,-10.437,2.131
5740,0.2275,0.7524,0.6226,-6.531,5.981,7.935,48.010,-10.486,2.230
5750,0.1924,0.7847,0.6289,-9.644,0.366,7.141,47.939,-10.536,2.285
5760,0.1553,0.7749,0.6187,-10.071,-3.662,3.601,47.873,-10.574,2.280
5770,0.1475,0.7437,0.6172,-8.789,-4.150,-1.160,47.818,-10.574,2.241
5780,0.1777,0.7046,0.6299,-6.226,-2.380,-4.333,47.769,-10.558,2.192
5790,0.2642,0.7158,0.6968,-5.310,-2.686,-3.723,47.708,-10.591,2.148
5800,0.2822,0.7720,0.7578,-2.930,-7.996,-0.061,47.664,-10.684,2.087
5810,0.2378,0.8193,0.7798,3.967,-14.099,2.930,47.708,-10.811,2.000
5820,0.2002,0.8330,0.7812,13.123,-14.771,3.540,47.845,-10.926,1.917
5830,0.1230,0.7842,0.7158,23.560,-9.216,1.709,48.087,-10.959,1.857
5840,0.0645,0.6997,0.6123,29.724,2.136,-1.892,48.389,-10.860,1.862
5850,0.0708,0.6343,0.5239,25.085,15.564,-4.639,48.642,-10.662,1.950
5860,0.1416,0.6221,0.4814,11.841,25.024,-3.967,48.763,-10.464,2.109
5870,0.2700,0.6743,0.5288,-6.470,24.475,0.000,48.697,-10.377,2.302
5880,0.3569,0.7832,0.6265,-23.010,10.254,5.066,48.477,-10.437,2.411
5890,0.3315,0.8906,0.6909,-26.306,-12.024,7.263,48.263,-10.629,2.368
5900,0.2388,0.9199,0.7310,-15.930,-30.701,3.174,48.175,-10.865,2.159
5910,0.1572,0.8691,0.7402,1.282,-36.072,-6.531,48.263,-11.025,1.840
5920,0.0889,0.7661,0.7031,19.958,-28.992,-17.151,48.516,-11.025,1.505
5930,0.0767,0.6328,0.6475,27.954,-14.648,-23.071,48.801,-10.893,1.236
5940,0.1064,0.5801,0.6177,20.813,0.854,-21.484,48.977,-10.690,1.099
5950,0.1763,0.6094,0.6211,1.404,11.169,-14.282,48.944,-10.514,1.088
5960,0.2402,0.6890,0.6611,-19.653,14.038,-4.456,48.708,-10.426,1.165
5970,0.2646,0.7812,0.7109,-32.043,9.155,3.174,48.367,-10.426,1.258
5980,0.1948,0.8247,0.7046,-29.297,0.916,4.883,48.082,-10.453,1.296
5990,0.1362,0.7993,0.6602,-16.174,-0.977,2.014,47.944,-10.448,1.302
6000,0.1416,0.7441,0.6304,-2.014,2.380,-1.648,47.939,-10.399,1.307
6010,0.1528,0.6836,0.5898,8.484,5.737,-2.319,48.032,-10.333,1.335
6020,0.1890,0.6582,0.5669,13.794,7.751,1.099,48.170,-10.311,1.406
6030,0.2222,0.6895,0.5918,10.437,5.859,6.165,48.268,-10.349,1.489
6040,0.2539,0.7544,0.6406,3.235,0.427,9.949,48.301,-10.464,1.560
6050,0.2334,0.8057,0.6826,-2.197,-6.470,10.193,48.290,-10.602,1.582
6060,0.1621,0.8130,0.6704,-1.831,-11.658,6.226,48.301,-10.706,1.533
6070,0.1377,0.7632,0.6528,0.732,-9.338,0.305,48.334,-10.739,1.467
6080,0.1562,0.6982,0.6431,3.540,-3.174,-4.761,48.367,-10.712,1.406
6090,0.2002,0.6738,0.6489,3.174,1.038,-6.348,48.384,-10.673,1.373
6100,0.2715,0.7095,0.6982,-2.075,0.305,-3.418,48.340,-10.690,1.351
6110,0.2559,0.7651,0.7227,-4.883,-5.371,1.099,48.279,-10.761,1.318
6120,0.1904,0.7983,0.7114,-2.380,-8.667,3.296,48.263,-10.838,1.274
6130,0.1357,0.7910,0.6763,1.953,-6.104,2.014,48.301,-10.860,1.241
6140,0.1313,0.7461,0.6328,7.080,1.099,-1.160,48.384,-10.811,1.241
6150,0.1538,0.7012,0.6016,7.935,7.629,-3.479,48.466,-10.723,1.280
6160,0.2100,0.6909,0.6001,4.456,9.338,-3.601,48.510,-10.657,1.324
6170,0.2759,0.7354,0.6567,-0.488,5.005,-1.343,48.494,-10.662,1.351
6180,0.2915,0.7930,0.7192,-1.831,-5.005,1.465,48.477,-10.750,1.324
6190,0.2017,0.8208,0.7236,3.113,-13.977,1.404,48.527,-10.849,1.230
6200,0.1177,0.7871,0.6899,11.719,-14.221,-1.343,48.664,-10.887,1.110
6210,0.0918,0.7183,0.6387,18.677,-5.005,-4.456,48.862,-10.833,1.044
6220,0.0986,0.6562,0.5757,19.653,6.653,-5.310,49.048,-10.706,1.060
6230,0.1426,0.6382,0.5356,13.184,15.320,-3.357,49.175,-10.574,1.154
6240,0.2285,0.6846,0.5503,0.671,16.846,1.221,49.175,-10.514,1.291
6250,0.2861,0.7632,0.6074,-11.841,9.094,5.981,49.059,-10.558,1.401
6260,0.2686,0.8218,0.6396,-16.174,-3.662,7.629,48.928,-10.679,1.423
6270,0.2114,0.8325,0.6519,-12.329,-14.771,5.066,48.851,-10.816,1.346
6280,0.1787,0.8008,0.6641,-3.845,-18.127,0.061,48.851,-10.926,1.208
6290,0.1553,0.7437,0.6514,4.456,-14.526,-4.272,48.922,-10.970,1.066
6300,0.1523,0.6890,0.6216,8.362,-7.874,-5.737,49.016,-10.959,0.967
6310,0.1816,0.6738,0.6250,5.737,-1.831,-4.211,49.059,-10.942,0.923
6320,0.2173,0.6973,0.6484,-3.418,0.305,-0.671,49.005,-10.953,0.923
6330,0.2393,0.7466,0.6821,-11.902,-1.099,2.075,48.873,-11.003,0.928
6340,0.2427,0.7930,0.7153,-17.029,-4.272,1.709,48.697,-11.058,0.906
6350,0.2051,0.7988,0.7124,-14.221,-7.263,-0.854,48.565,-11.102,0.846
6360,0.1636,0.7651,0.6777,-5.615,-5.371,-4.028,48.521,-11.085,0.780
6370,0.1455,0.7183,0.6372,3.052,0.061,-5.249,48.560,-11.019,0.742
6380,0.1699,0.6846,0.6182,8.484,5.249,-3.296,48.631,-10.953,0.758
6390,0.2329,0.7046,0.6440,8.057,6.531,1.465,48.691,-10.953,0.818
6400,0.2617,0.7710,0.6870,5.859,1.526,6.165,48.735,-11.019,0.873
6410,0.2231,0.8169,0.6943,5.981,-5.920,7.690,48.801,-11.124,0.879
6420,0.1509,0.8135,0.6641,8.606,-8.240,5.493,48.911,-11.190,0.851
6430,0.1250,0.7583,0.6206,11.230,-2.991,0.793,49.043,-11.173,0.835
6440,0.1460,0.6943,0.5908,9.583,5.188,-3.052,49.142,-11.096,0.857
6450,0.1929,0.6729,0.5850,3.601,10.376,-3.235,49.164,-11.019,0.912
6460,0.2349,0.7046,0.6118,-4.272,8.972,-0.549,49.109,-10.986,0.978
6470,0.2593,0.7725,0.6602,-9.521,2.014,3.113,49.010,-11.030,1.016
6480,0.2881,0.8296,0.7280,-9.399,-6.897,5.432,48.917,-11.151,1.000
6490,0.2178,0.8555,0.7402,-3.174,-14.282,4.578,48.906,-11.277,0.917
6500,0.1162,0.8081,0.6831,8.057,-12.573,-0.305,49.010,-11.305,0.818
6509,0.0991,0.7236,0.6201,16.479,-1.648,-5.981,49.186,-11.217,0.769
6520,0.1353,0.6577,0.5815,17.578,10.071,-7.996,49.351,-11.069,0.791
6530,0.1885,0.6421,0.5586,10.986,16.296,-5.188,49.438,-10.937,0.884
6540,0.2158,0.6914,0.5557,-1.099,14.404,0.061,49.422,-10.871,0.994
6550,0.2456,0.7642,0.5869,-12.268,7.141,5.066,49.318,-10.898,1.082
6560,0.2627,0.8208,0.6362,-16.968,-2.563,7.568,49.169,-11.003,1.115
6570,0.2012,0.8345,0.6411,-12.024,-11.475,5.859,49.098,-11.124,1.066
6580,0.1650,0.7896,0.6367,-3.967,-12.695,1.770,49.092,-11.201,0.978
6590,0.1533,0.7368,0.6172,2.686,-7.935,-2.502,49.142,-11.212,0.901
6600,0.1743,0.6978,0.5981,4.944,-1.953,-5.066,49.202,-11.179,0.851
6609,0.2109,0.6875,0.6094,3.357,1.587,-4.272,49.235,-11.157,0.835
6620,0.2573,0.7368,0.6475,-2.075,0.061,-0.854,49.208,-11.184,0.829
6630,0.2944,0.8130,0.7114,-5.432,-5.310,2.747,49.153,-11.277,0.807
6639,0.2681,0.8584,0.7441,-3.662,-12.390,4.028,49.131,-11.409,0.742
6650,0.1860,0.8428,0.7222,3.540,-15.747,1.526,49.191,-11.503,0.626
6660,0.1206,0.7793,0.6665,13.123,-10.071,-3.906,49.345,-11.492,0.527
6669,0.1089,0.6963,0.6074,19.165,0.061,-8.423,49.537,-11.382,0.467
6679,0.1465,0.6362,0.5742,16.724,8.301,-8.484,49.686,-11.245,0.478
6690,0.2529,0.6680,0.6143,6.287,10.315,-4.028,49.719,-11.195,0.533
6700,0.2700,0.7466,0.6562,-3.113,2.014,1.587,49.669,-11.234,0.560
6709,0.2300,0.7949,0.6719,-5.188,-7.446,4.333,49.625,-11.327,0.527
6719,0.2070,0.8169,0.6982,-2.014,-11.841,3.723,49.620,-11.426,0.461
6729,0.1597,0.7910,0.6792,8.301,-9.827,0.366,49.713,-11.464,0.385
6739,0.1396,0.7124,0.6289,17.639,-2.075,-1.831,49.878,-11.431,0.357
6749,0.1440,0.6611,0.5806,18.921,6.775,-0.793,50.048,-11.360,0.406
6759,0.1855,0.6641,0.5654,12.451,12.939,2.319,50.142,-11.305,0.522
6769,0.2344,0.7163,0.5776,2.380,12.573,6.226,50.147,-11.299,0.659
6779,0.2476,0.7812,0.6060,-6.165,6.836,8.606,50.087,-11.349,0.769
6789,0.2231,0.8301,0.6206,-10.498,-0.183,8.057,50.004,-11.420,0.824
6799,0.1865,0.8340,0.6206,-8.606,-4.944,4.211,49.955,-11.470,0.813
6809,0.1826,0.7993,0.6182,-3.784,-3.845,-0.793,49.949,-11.475,0.775
6819,0.1899,0.7505,0.6113,-0.061,0.183,-4.395,49.960,-11.437,0.747
6829,0.2012,0.7168,0.6157,-0.061,2.869,-5.615,49.955,-11.382,0.736
6839,0.2251,0.7285,0.6357,-4.700,3.479,-4.883,49.900,-11.343,0.731
6849,0.1982,0.7510,0.6396,-9.094,1.770,-3.296,49.807,-11.305,0.720
6859,0.1895,0.7612,0.6460,-12.085,0.793,-2.014,49.691,-11.283,0.714
6869,0.2061,0.7715,0.6641,-13.977,0.732,-1.526,49.548,-11.266,0.709
6879,0.1904,0.7656,0.6538,-11.719,-0.366,-1.465,49.433,-11.250,0.698
6889,0.1914,0.7534,0.6479,-7.629,-0.488,-1.038,49.362,-11.245,0.687
6899,0.2144,0.7549,0.6616,-2.991,-0.305,0.671,49.323,-11.261,0.692
6909,0.2163,0.7622,0.6650,2.136,-1.221,2.441,49.340,-11.294,0.698
6919,0.2139,0.7705,0.6709,5.249,-2.014,3.296,49.384,-11.338,0.703
6929,0.1885,0.7681,0.6631,7.141,-2.258,2.319,49.455,-11.360,0.703
6939,0.1621,0.7432,0.6353,7.202,-0.793,-0.244,49.526,-11.343,0.692
6949,0.1733,0.7158,0.6211,5.066,2.380,-2.625,49.570,-11.299,0.692
6959,0.1919,0.7026,0.6113,1.953,4.333,-2.991,49.581,-11.250,0.709
6969,0.2197,0.7163,0.6152,-1.099,3.845,-1.221,49.565,-11.239,0.731
6979,0.2520,0.7539,0.6519,-2.930,0.183,1.892,49.532,-11.277,0.742
6989,0.2427,0.7881,0.6748,-1.404,-5.493,3.723,49.521,-11.360,0.725
6999,0.1870,0.7993,0.6616,3.052,-8.911,3.174,49.565,-11.431,0.676
7009,0.1338,0.7705,0.6167,9.155,-6.104,0.000,49.686,-11.431,0.632
7019,0.1245,0.7026,0.5669,13.367,1.465,-3.906,49.834,-11.360,0.615
7029,0.1528,0.6519,0.5234,11.780,8.850,-5.981,49.960,-11.245,0.643
7039,0.2388,0.6611,0.5391,4.639,10.315,-5.554,50.004,-11.184,0.687
7050,0.2881,0.7227,0.5957,-3.113,2.380,-2.197,49.977,-11.212,0.692
7060,0.2988,0.7769,0.6538,-6.104,-10.803,2.502,49.927,-11.349,0.626
7069,0.2402,0.8091,0.6919,-3.662,-22.217,4.944,49.916,-11.541,0.483
7079,0.1904,0.7954,0.7100,1.648,-25.146,3.845,49.949,-11.717,0.313
7089,0.1685,0.7568,0.7012,6.958,-19.165,1.099,50.021,-11.821,0.170
7099,0.1582,0.7148,0.6797,8.484,-9.766,-1.282,50.087,-11.849,0.088
7109,0.1528,0.6929,0.6436,3.967,0.610,-2.014,50.098,-11.805,0.077
7119,0.1724,0.7041,0.6191,-4.395,9.705,-1.038,50.026,-11.722,0.148
7129,0.2319,0.7388,0.6265,-14.648,14.771,1.282,49.850,-11.651,0.269
7139,0.2734,0.7949,0.6489,-22.095,13.550,3.296,49.614,-11.624,0.396
7149,0.2339,0.8306,0.6421,-21.729,7.507,3.357,49.411,-11.613,0.478
7160,0.2031,0.8267,0.6294,-14.954,3.052,0.916,49.290,-11.591,0.511
7169,0.1875,0.7930,0.6211,-6.042,2.258,-1.648,49.257,-11.558,0.516
7179,0.1821,0.7471,0.6147,0.854,2.686,-3.296,49.279,-11.503,0.516
7189,0.1675,0.7261,0.5962,4.395,3.296,-3.845,49.334,-11.442,0.516
7199,0.1709,0.7173,0.5923,3.662,3.723,-3.235,49.378,-11.382,0.522
7209,0.2046,0.7363,0.6191,-0.488,3.174,-1.648,49.378,-11.354,0.533
7219,0.2388,0.7788,0.6504,-4.333,0.122,-0.305,49.345,-11.371,0.533
7229,0.2510,0.8076,0.6831,-4.944,-5.066,-0.122,49.307,-11.420,0.494
7239,0.2192,0.8047,0.6938,-1.282,-9.460,-1.160,49.307,-11.475,0.412
7249,0.1641,0.7739,0.6714,5.371,-9.644,-3.296,49.378,-11.492,0.319
7259,0.1274,0.7300,0.6274,12.085,-4.211,-6.287,49.510,-11.431,0.242
7269,0.1260,0.6812,0.5718,15.137,3.296,-7.629,49.669,-11.316,0.214
7279,0.1733,0.6616,0.5518,14.465,9.460,-6.531,49.812,-11.212,0.247
7289,0.3105,0.7168,0.6274,8.606,7.629,-2.502,49.883,-11.212,0.291
7299,0.4146,0.8149,0.7490,5.432,-6.226,2.686,49.916,-11.365,0.258
7309,0.3916,0.9014,0.8330,11.108,-25.330,5.310,50.032,-11.629,0.099
7319,0.1968,0.9102,0.8062,26.611,-35.889,3.296,50.328,-11.860,-0.159
7329,0.0342,0.8291,0.6982,45.959,-25.391,-2.380,50.823,-11.898,-0.374
7339,0.0034,0.7065,0.5669,56.335,-1.709,-8.179,51.400,-11.728,-0.439
7349,0.0713,0.6011,0.5142,57.129,20.752,-9.827,51.927,-11.459,-0.335
7359,0.2310,0.5952,0.5039,33.447,34.241,-5.371,52.185,-11.261,-0.093
7369,0.3511,0.7100,0.5581,5.188,28.625,2.136,52.191,-11.201,0.143
7379,0.3125,0.8379,0.5791,-10.803,9.766,8.972,52.086,-11.272,0.280
7389,0.2158,0.9028,0.5801,-9.827,-6.775,11.230,52.037,-11.404,0.297
7399,0.1514,0.9019,0.5840,-0.427,-12.207,9.094,52.092,-11.514,0.253
7409,0.1167,0.8286,0.5537,11.353,-7.446,4.333,52.251,-11.547,0.220
7419,0.1294,0.7275,0.5103,18.372,-0.122,-0.732,52.465,-11.508,0.214
7429,0.1489,0.6641,0.4775,14.893,5.981,-2.869,52.625,-11.437,0.247
7439,0.1704,0.6465,0.4648,0.549,8.606,-1.587,52.635,-11.376,0.308
7449,0.2324,0.7007,0.5073,-18.188,7.019,2.014,52.454,-11.387,0.374
7459,0.2734,0.7891,0.5757,-33.142,0.732,6.165,52.130,-11.475,0.417
7469,0.2495,0.8384,0.6138,-37.537,-9.094,7.690,51.779,-11.613,0.396
7479,0.2241,0.8389,0.6367,-32.898,-16.052,6.104,51.482,-11.761,0.302
7489,0.1909,0.8096,0.6372,-22.766,-16.602,2.014,51.284,-11.865,0.187
7499,0.1733,0.7466,0.6143,-11.780,-12.024,-1.831,51.185,-11.909,0.077
7509,0.1914,0.6978,0.6030,-5.859,-5.432,-3.235,51.119,-11.915,0.011
7519,0.2515,0.6924,0.6260,-7.385,-0.488,-2.380,51.015,-11.931,0.000
7529,0.3437,0.7559,0.7100,-10.803,-1.160,0.793,50.867,-12.008,-0.005
7539,0.3477,0.8403,0.7778,-10.925,-9.216,3.479,50.735,-12.145,-0.055
7549,0.2827,0.8892,0.7988,-3.723,-17.395,2.686,50.696,-12.283,-0.176
7559,0.1631,0.8760,0.7627,11.108,-17.639,-1.892,50.823,-12.338,-0.330
7569,0.0825,0.7603,0.6479,28.687,-7.202,-6.897,51.114,-12.255,-0.428
7579,0.0879,0.6519,0.5728,35.950,8.789,-8.484,51.443,-12.068,-0.412
7589,0.1870,0.6216,0.5420,27.039,22.278,-5.676,51.652,-11.893,-0.275
7599,0.3105,0.6958,0.5889,8.606,22.827,0.732,51.685,-11.827,-0.082
7609,0.4175,0.8350,0.6899,-5.249,10.132,7.080,51.592,-11.915,0.033
7619,0.4282,0.9780,0.8037,-5.432,-10.193,8.850,51.531,-12.112,0.011
7629,0.2036,1.0156,0.7744,14.343,-26.367,5.188,51.724,-12.283,-0.165
7639,0.0024,0.9165,0.6533,43.762,-20.508,-4.395,52.224,-12.255,-0.357
7649,-0.0156,0.7607,0.5513,67.139,2.930,-13.916,52.921,-11.997,-0.417
7660,0.0269,0.6011,0.4292,72.632,26.978,-16.846,53.635,-11.602,-0.302
7669,0.1289,0.5361,0.3730,53.223,41.016,-12.085,54.124,-11.261,-0.038
7679,0.3301,0.6602,0.4551,16.357,38.818,-0.854,54.234,-11.140,0.269
7689,0.4082,0.8491,0.5552,-13.733,19.470,11.353,54.080,-11.228,0.500
7699,0.3018,0.9658,0.6021,-18.677,-7.751,17.517,53.932,-11.448,0.544
7709,0.1733,0.9976,0.6104,-10.559,-24.475,15.503,53.893,-11.684,0.434
7719,0.1055,0.9570,0.6030,9.583,-21.912,6.897,54.053,-11.805,0.291
7729,0.1035,0.8125,0.5454,28.503,-10.132,-3.723,54.377,-11.777,0.187
7739,0.0996,0.6821,0.4565,36.133,4.395,-10.437,54.761,-11.618,0.159
7749,0.1533,0.6147,0.4102,24.719,17.212,-11.902,55.003,-11.426,0.236
7759,0.2427,0.6396,0.4385,-3.052,21.667,-7.996,54.954,-11.294,0.368
7769,0.2988,0.7534,0.5093,-27.893,14.954,-1.587,54.668,-11.266,0.483
7779,0.2998,0.8530,0.5776,-39.429,2.441,3.174,54.278,-11.327,0.522
7789,0.2788,0.8994,0.6250,-37.109,-11.414,4.639,53.932,-11.464,0.456
7799,0.2192,0.8926,0.6362,-22.522,-20.325,1.892,53.751,-11.596,0.302
7809,0.1812,0.8198,0.6206,-2.136,-20.630,-3.296,53.756,-11.673,0.110
7819,0.1533,0.7251,0.5806,13.489,-13.733,-6.531,53.893,-11.678,-0.038
7829,0.1499,0.6616,0.5386,16.479,-3.601,-6.470,54.042,-11.629,-0.104
7839,0.2217,0.6538,0.5576,8.606,4.395,-2.930,54.080,-11.607,-0.088
7849,0.2969,0.7271,0.6235,-4.211,4.761,2.991,53.976,-11.662,-0.027
7859,0.3052,0.8296,0.6782,-12.939,-1.526,8.057,53.811,-11.777,0.000
7869,0.2759,0.8989,0.7085,-11.475,-8.484,9.277,53.679,-11.920,-0.005
7879,0.3066,0.9644,0.7676,-2.563,-13.184,7.019,53.646,-12.074,-0.071
7889,0.2002,0.9453,0.7275,19.470,-14.282,1.160,53.849,-12.140,-0.181
7899,0.0522,0.7866,0.5908,42.419,-6.531,-5.798,54.278,-12.041,-0.275
7909,0.0571,0.6846,0.5049,47.546,11.047,-9.644,54.734,-11.816,-0.236
7919,0.1582,0.6689,0.4912,35.828,26.306,-7.690,55.047,-11.596,-0.066
7929,0.2788,0.7383,0.5288,15.808,27.954,0.000,55.151,-11.492,0.165
7939,0.3301,0.8608,0.5913,-1.953,16.663,8.057,55.096,-11.525,0.352
7949,0.2935,0.9604,0.6304,-7.935,-0.427,11.902,55.020,-11.651,0.417
7959,0.1353,0.9805,0.5889,0.427,-11.841,9.888,55.074,-11.750,0.374
7969,0.0146,0.8989,0.4917,18.372,-6.775,0.916,55.327,-11.684,0.324
7979,0.0098,0.7573,0.3979,31.311,9.521,-9.644,55.701,-11.442,0.346
7989,0.0718,0.6299,0.3262,29.114,25.635,-14.221,56.036,-11.124,0.483
7999,0.2578,0.6362,0.3735,8.057,30.029,-10.925,56.113,-10.953,0.676
8009,0.4185,0.7822,0.4961,-17.517,16.113,0.061,55.926,-10.997,0.813
8019,0.4561,0.9492,0.6343,-28.809,-11.963,11.292,55.651,-11.261,0.775
8029,0.3047,1.0386,0.6914,-21.851,-39.795,14.954,55.492,-11.635,0.527
8039,0.1406,1.0229,0.6948,-3.906,-49.133,9.460,55.530,-11.937,0.165
8049,0.0752,0.9155,0.6606,18.616,-35.522,-3.418,55.767,-12.025,-0.148
8059,0.0752,0.7632,0.5889,31.799,-11.719,-17.334,56.085,-11.871,-0.346
8069,0.1006,0.6387,0.5029,29.114,11.658,-25.024,56.338,-11.552,-0.390
8079,0.1704,0.6006,0.4585,8.911,27.100,-23.865,56.371,-11.217,-0.297
8089,0.2603,0.6846,0.5015,-19.653,32.166,-15.076,56.118,-10.975,-0.104
8099,0.2778,0.8013,0.5425,-38.452,26.306,-3.601,55.695,-10.854,0.088
8109,0.2568,0.8867,0.5664,-38.879,12.695,3.784,55.305,-10.844,0.220
8119,0.1841,0.8921,0.5586,-25.513,-0.244,4.578,55.074,-10.871,0.242
8129,0.1328,0.8296,0.5322,-4.700,-5.615,1.404,55.058,-10.882,0.203
8139,0.1245,0.7466,0.4941,11.169,-3.601,-1.343,55.190,-10.860,0.165
8149,0.1538,0.6875,0.4629,18.677,0.488,-0.122,55.382,-10.854,0.170
8160,0.2354,0.6919,0.4971,14.648,2.930,5.249,55.503,-10.926,0.225
8169,0.3242,0.7852,0.5884,2.136,-1.892,12.329,55.492,-11.113,0.280
8179,0.3311,0.8975,0.6689,-6.958,-12.329,16.846,55.404,-11.371,0.275
8189,0.2397,0.9600,0.6997,-5.493,-22.339,15.747,55.349,-11.629,0.176
8199,0.1260,0.9326,0.6533,6.042,-22.095,8.423,55.437,-11.766,0.038
8209,0.0835,0.8164,0.5815,19.958,-9.705,-1.648,55.640,-11.739,-0.044
8219,0.1226,0.7114,0.5181,23.804,6.165,-8.667,55.860,-11.596,-0.044
8229,0.2065,0.6733,0.4966,13.489,17.212,-8.850,55.953,-11.448,0.044
8239,0.2974,0.7314,0.5264,-4.517,17.273,-3.052,55.865,-11.398,0.176
8249,0.2983,0.8403,0.5620,-16.907,7.751,4.272,55.684,-11.437,0.264
8259,0.2114,0.8975,0.5581,-17.029,-2.136,8.179,55.536,-11.514,0.291
8269,0.1611,0.9009,0.5513,-9.705,-5.493,7.935,55.470,-11.585,0.291
8279,0.1333,0.8545,0.5181,2.197,-1.648,4.272,55.519,-11.585,0.302
8289,0.1543,0.7764,0.4790,9.827,5.310,0.000,55.635,-11.536,0.346
8299,0.2031,0.7432,0.4731,6.531,9.827,-1.221,55.706,-11.486,0.423
8309,0.2329,0.7554,0.4897,-2.563,8.240,0.916,55.679,-11.481,0.500
8319,0.2510,0.8164,0.5278,-11.902,2.869,4.272,55.563,-11.530,0.549
8329,0.2651,0.8794,0.5825,-16.296,-3.967,5.615,55.415,-11.624,0.549
8339,0.2339,0.9053,0.6064,-12.512,-10.681,4.333,55.311,-11.722,0.483
8349,0.2217,0.9033,0.6211,-1.648,-14.099,0.854,55.316,-11.805,0.368
8359,0.2061,0.8721,0.6221,9.949,-12.390,-2.747,55.432,-11.843,0.247
8369,0.1670,0.8042,0.5796,20.935,-7.935,-5.371,55.646,-11.821,0.148
8379,0.1782,0.7534,0.5571,23.865,-1.892,-5.371,55.871,-11.777,0.104
8389,0.2432,0.7710,0.5859,17.578,2.991,-2.747,56.014,-11.761,0.115
8399,0.2896,0.8325,0.6309,9.399,1.404,1.099,56.069,-11.799,0.132
8409,0.2236,0.8770,0.6235,4.456,-2.808,2.869,56.102,-11.838,0.126
8419,0.1587,0.8740,0.5996,3.784,-1.465,1.648,56.135,-11.827,0.121
8429,0.1138,0.8389,0.5493,5.127,5.920,-1.221,56.184,-11.733,0.165
8439,0.0752,0.7764,0.4687,8.179,16.113,-5.249,56.266,-11.530,0.269
8449,0.1797,0.7505,0.4575,4.150,25.269,-6.287,56.299,-11.338,0.450
8459,0.3198,0.8154,0.5273,-4.211,23.560,-1.465,56.228,-11.266,0.643
8469,0.3755,0.9136,0.5923,-5.920,9.338,4.639,56.157,-11.332,0.747
8479,0.3169,0.9819,0.6299,-0.793,-8.545,7.812,56.168,-11.481,0.720
8489,0.1597,0.9585,0.6099,10.132,-18.250,5.737,56.305,-11.596,0.599
8499,0.0605,0.8579,0.5439,23.743,-12.207,-3.113,56.574,-11.552,0.478
8509,0.0449,0.7319,0.4663,29.541,3.357,-13.489,56.887,-11.338,0.428
8519,0.0566,0.6304,0.3794,23.499,18.005,-19.409,57.134,-11.008,0.472
8529,0.1060,0.6006,0.3232,4.272,26.123,-18.188,57.195,-10.695,0.599
8539,0.2261,0.6719,0.3589,-22.095,25.269,-9.583,56.997,-10.541,0.758
8549,0.3271,0.8027,0.4478,-41.565,12.207,2.991,56.602,-10.591,0.879
8559,0.3457,0.8989,0.5317,-41.992,-11.108,12.146,56.217,-10.827,0.857
8569,0.2798,0.9287,0.5981,-29.480,-33.691,13.306,55.975,-11.157,0.643
8579,0.1880,0.8989,0.6309,-8.240,-43.152,7.629,55.942,-11.442,0.324
8589,0.1206,0.8076,0.6128,11.414,-36.743,-0.122,56.085,-11.602,0.011
8599,0.1255,0.7202,0.5850,21.118,-20.325,-5.371,56.283,-11.629,-0.187
8609,0.2129,0.6943,0.5967,15.991,-3.845,-4.944,56.387,-11.624,-0.247
8619,0.2646,0.7363,0.6084,0.000,4.700,0.244,56.316,-11.640,-0.203
8629,0.3027,0.8296,0.6533,-15.564,7.385,5.432,56.096,-11.684,-0.110
8639,0.2056,0.9429,0.6699,-14.160,1.221,2.563,55.937,-11.684,-0.088
8649,0.0894,0.8555,0.5732,4.333,4.822,-5.493,55.981,-11.547,-0.077
8660,0.0698,0.7427,0.4805,18.799,15.442,-12.268,56.168,-11.288,-0.016
8669,0.1157,0.6465,0.4141,21.729,24.231,-11.841,56.365,-11.030,0.115
8679,0.2026,0.6577,0.4111,9.583,25.330,-3.235,56.442,-10.904,0.313
8689,0.3032,0.7832,0.4814,-5.859,16.235,9.399,56.365,-10.964,0.505
8699,0.3564,0.9204,0.5649,-15.015,-1.343,19.714,56.223,-11.206,0.604
8709,0.2563,0.9961,0.6021,-10.132,-20.142,22.644,56.157,-11.514,0.560
8719,0.1421,0.9805,0.5933,5.798,-26.978,16.968,56.266,-11.761,0.428
8729,0.1030,0.8901,0.5591,20.386,-18.005,5.310,56.508,-11.843,0.308
8739,0.1152,0.7881,0.5117,26.123,-1.831,-5.554,56.783,-11.755,0.258
8749,0.2026,0.7373,0.4956,17.395,10.498,-10.071,56.942,-11.629,0.291
8759,0.2471,0.7476,0.4961,-1.648,12.939,-7.751,56.904,-11.530,0.363
8769,0.2388,0.8062,0.5117,-19.958,8.911,-2.441,56.700,-11.486,0.423
8779,0.2573,0.8843,0.5586,-32.654,3.174,1.160,56.382,-11.503,0.456
8789,0.2104,0.9204,0.5615,-29.419,-2.991,0.549,56.118,-11.519,0.434
8799,0.1714,0.8760,0.5420,-17.212,-5.005,-2.930,55.981,-11.503,0.374
8809,0.1562,0.8013,0.5063,-6.042,-2.075,-6.531,55.948,-11.437,0.319
8819,0.1753,0.7446,0.4814,0.854,1.892,-8.362,55.975,-11.354,0.291
8829,0.2378,0.7349,0.5010,-0.183,3.296,-5.615,55.970,-11.327,0.286
8839,0.2529,0.7793,0.5410,-5.493,-0.427,0.916,55.909,-11.376,0.286
8849,0.2397,0.8296,0.5723,-9.827,-6.409,6.653,55.811,-11.486,0.269
8859,0.2173,0.8662,0.6050,-12.085,-10.559,7.996,55.690,-11.613,0.225
8869,0.2031,0.8647,0.6226,-10.132,-11.353,5.554,55.591,-11.711,0.165
8879,0.1816,0.8242,0.6123,-5.676,-9.216,1.160,55.525,-11.755,0.093
8889,0.1748,0.7778,0.5952,-3.479,-4.089,-2.930,55.470,-11.739,0.038
8899,0.1851,0.7490,0.5747,-4.944,1.465,-4.211,55.393,-11.689,0.027
8909,0.2163,0.7466,0.5776,-8.911,5.127,-2.625,55.272,-11.651,0.055
8919,0.2358,0.7769,0.5889,-13.794,5.249,0.488,55.102,-11.646,0.104
8929,0.2305,0.8232,0.5952,-17.090,2.686,2.747,54.915,-11.662,0.143
8939,0.2227,0.8511,0.5937,-16.052,0.610,2.563,54.750,-11.684,0.165
8949,0.1782,0.8369,0.5669,-10.071,0.061,0.366,54.662,-11.673,0.165
8959,0.1504,0.7988,0.5288,-2.502,2.686,-2.380,54.657,-11.607,0.176
8969,0.1958,0.7686,0.5283,1.709,6.226,-2.869,54.673,-11.552,0.209
8979,0.2554,0.7788,0.5527,2.747,5.432,-0.366,54.690,-11.552,0.253
8989,0.3184,0.8340,0.6123,1.282,-0.427,3.418,54.690,-11.640,0.269
8999,0.3179,0.9004,0.6670,1.709,-9.521,5.798,54.706,-11.783,0.225
9009,0.2202,0.9141,0.6743,7.202,-15.686,5.066,54.783,-11.904,0.121
9019,0.1494,0.8647,0.6543,14.282,-11.902,1.099,54.926,-11.942,0.027
9029,0.1211,0.7910,0.6064,19.165,-0.916,-4.761,55.102,-11.854,0.000
9039,0.1191,0.7407,0.5479,18.738,10.620,-10.071,55.261,-11.667,0.022
9049,0.2153,0.7349,0.5381,10.559,18.250,-11.475,55.338,-11.492,0.110
9059,0.3213,0.8062,0.5942,-0.244,15.869,-7.629,55.300,-11.404,0.198
9069,0.3389,0.8936,0.6479,-5.249,4.761,-3.174,55.228,-11.404,0.220
9079,0.2002,0.9053,0.6157,1.343,-6.470,-2.625,55.261,-11.409,0.148
9089,0.0854,0.8418,0.5571,13.733,-6.104,-6.653,55.426,-11.327,0.060
9099,0.0767,0.7476,0.5068,24.780,4.456,-11.902,55.684,-11.140,0.027
9109,0.0908,0.6558,0.4370,26.733,14.954,-12.939,55.942,-10.904,0.082
9119,0.1177,0.6191,0.3828,16.357,20.996,-8.789,56.107,-10.695,0.209
9129,0.1797,0.6699,0.3818,-1.465,20.630,-0.427,56.102,-10.602,0.379
9139,0.2207,0.7544,0.4058,-18.372,14.465,9.644,55.942,-10.640,0.555
9149,0.2295,0.8281,0.4355,-27.222,4.150,16.724,55.712,-10.789,0.687
9160,0.2378,0.8804,0.4863,-28.320,-7.202,18.311,55.481,-11.003,0.731
9169,0.2300,0.8975,0.5254,-23.865,-16.052,15.015,55.294,-11.228,0.681
9179,0.2163,0.8647,0.5479,-15.686,-19.897,8.728,55.184,-11.420,0.566
9189,0.2285,0.8271,0.5728,-9.827,-19.409,3.052,55.118,-11.569,0.423
9199,0.2354,0.8062,0.5942,-7.324,-16.785,-0.488,55.058,-11.678,0.280
9209,0.2187,0.7983,0.5937,-7.874,-13.245,-2.136,54.987,-11.739,0.154
9219,0.2397,0.7969,0.6133,-11.963,-9.338,-2.625,54.860,-11.788,0.060
9229,0.2363,0.8198,0.6240,-16.602,-6.592,-2.258,54.690,-11.821,0.000
9239,0.2280,0.8267,0.6245,-17.273,-4.822,-2.563,54.514,-11.832,-0.055
9249,0.2695,0.8320,0.6484,-15.198,-4.150,-2.686,54.349,-11.860,-0.104
9259,0.2476,0.8311,0.6514,-7.568,-6.042,-3.052,54.261,-11.882,-0.176
9269,0.1792,0.8047,0.6162,3.235,-6.897,-4.150,54.294,-11.871,-0.258
9279,0.1665,0.7544,0.5923,9.827,-3.662,-4.333,54.377,-11.838,-0.313
9289,0.1597,0.7148,0.5664,10.803,0.854,-2.441,54.459,-11.794,-0.319
9299,0.1689,0.7139,0.5469,6.836,4.456,0.000,54.498,-11.755,-0.286
9309,0.1934,0.7393,0.5488,-1.404,5.310,2.563,54.465,-11.750,-0.225
9319,0.2080,0.7871,0.5591,-9.338,3.296,4.822,54.360,-11.772,-0.170
9329,0.2480,0.8438,0.6016,-13.855,0.061,6.531,54.218,-11.843,-0.126
9339,0.2617,0.8877,0.6387,-10.315,-4.944,6.897,54.113,-11.942,-0.126
9349,0.2246,0.8862,0.6509,-2.625,-8.667,5.676,54.091,-12.036,-0.165
9359,0.1992,0.8696,0.6558,4.944,-8.301,2.869,54.141,-12.090,-0.220
9369,0.1533,0.8398,0.6191,13.000,-3.723,-1.038,54.272,-12.063,-0.253
9379,0.1445,0.7939,0.5840,18.311,4.028,-4.456,54.448,-11.970,-0.247
9389,0.1899,0.7739,0.5723,16.296,11.475,-4.517,54.586,-11.854,-0.181
9399,0.2637,0.8105,0.5942,9.460,12.573,-2.014,54.651,-11.799,-0.088
9409,0.2432,0.8555,0.5947,4.578,6.958,0.244,54.690,-11.772,-0.027
9419,0.1812,0.8525,0.5630,4.089,2.502,0.732,54.745,-11.744,0.000
9429,0.1475,0.8247,0.5322,4.639,3.784,-0.488,54.805,-11.689,0.022
9439,0.1313,0.7808,0.4907,4.089,8.484,-2.563,54.866,-11.585,0.077
9449,0.1509,0.7349,0.4604,0.610,12.878,-3.540,54.888,-11.464,0.165
9459,0.1958,0.7183,0.4658,-7.080,13.367,-2.686,54.822,-11.382,0.258
9469,0.2480,0.7563,0.5093,-16.296,8.667,-0.610,54.657,-11.365,0.330
9479,0.2764,0.8140,0.5645,-20.813,-0.488,1.343,54.454,-11.420,0.330
9489,0.2573,0.8403,0.6016,-18.188,-10.498,1.953,54.289,-11.525,0.258
9499,0.1987,0.8384,0.6123,-10.986,-15.503,1.404,54.201,-11.618,0.137
9509,0.1475,0.8037,0.5835,-1.709,-12.085,-0.488,54.201,-11.651,0.033
9519,0.1621,0.7578,0.5625,3.662,-2.930,-2.258,54.240,-11.629,0.000
9529,0.1938,0.7363,0.5396,3.174,5.249,-2.075,54.261,-11.585,0.027
9539,0.2437,0.7651,0.5415,-1.526,8.484,-0.244,54.234,-11.569,0.093
9549,0.3086,0.8296,0.5923,-7.935,4.578,2.136,54.146,-11.613,0.148
9559,0.2900,0.8691,0.6201,-9.033,-4.883,2.319,54.069,-11.695,0.121
9569,0.2378,0.8584,0.6230,-4.517,-11.780,-0.427,54.042,-11.766,0.022
9579,0.1914,0.8159,0.6265,1.770,-12.390,-4.272,54.069,-11.794,-0.104
9589,0.1333,0.7534,0.5786,8.301,-7.324,-6.958,54.157,-11.739,-0.203
9599,0.1572,0.7178,0.5571,9.583,1.160,-7.263,54.240,-11.656,-0.242
9609,0.2759,0.7627,0.6055,5.249,6.592,-3.113,54.256,-11.635,-0.203
9619,0.3857,0.8843,0.7026,3.174,1.892,2.380,54.256,-11.717,-0.176
9629,0.3872,0.9756,0.7871,9.827,-11.108,5.371,54.333,-11.876,-0.231
9639,0.2236,0.9648,0.7622,23.621,-20.874,4.333,54.569,-12.019,-0.379
9649,0.0327,0.8579,0.6382,42.053,-13.611,-3.601,55.003,-11.964,-0.516
9660,-0.0103,0.7241,0.5190,53.589,7.996,-14.038,55.530,-11.678,-0.533
9669,0.0459,0.6133,0.4233,50.476,29.785,-18.494,55.997,-11.277,-0.385
9679,0.2036,0.6226,0.4121,30.273,40.161,-12.512,56.250,-10.992,-0.121
9689,0.3418,0.7520,0.4805,4.639,32.104,1.160,56.255,-10.926,0.154
9699,0.2778,0.8667,0.4839,-5.798,11.047,14.343,56.212,-11.030,0.330
9709,0.2095,0.9312,0.4985,-5.127,-6.287,20.020,56.206,-11.234,0.390
9719,0.1763,0.9438,0.5308,2.441,-14.648,18.982,56.277,-11.448,0.374
9729,0.1372,0.8794,0.5161,13.855,-14.465,12.451,56.459,-11.591,0.319
9739,0.1016,0.7769,0.4585,19.653,-7.202,3.723,56.689,-11.613,0.280
9749,0.0972,0.6973,0.3984,12.451,3.174,-3.357,56.849,-11.519,0.291
9759,0.1641,0.6782,0.3984,-4.578,12.573,-5.127,56.816,-11.409,0.368
9769,0.2856,0.7617,0.4736,-26.245,13.245,-1.221,56.547,-11.393,0.472
9779,0.3052,0.8613,0.5391,-40.405,3.052,3.601,56.151,-11.459,0.522
9789,0.2710,0.9004,0.5757,-39.795,-11.108,5.249,55.783,-11.591,0.456
9799,0.2051,0.8936,0.5913,-29.419,-20.935,2.869,55.530,-11.722,0.297
9809,0.1646,0.8438,0.5845,-13.611,-20.630,-2.808,55.432,-11.788,0.104
9819,0.1826,0.7593,0.5732,-0.488,-14.465,-6.836,55.437,-11.805,-0.049
9829,0.2046,0.7046,0.5659,2.686,-7.812,-6.348,55.443,-11.810,-0.154
9839,0.2798,0.7183,0.6064,-5.249,-3.784,-2.014,55.344,-11.860,-0.198
9849,0.2861,0.7827,0.6484,-13.489,-5.554,2.625,55.162,-11.953,-0.225
9859,0.2432,0.8335,0.6577,-17.029,-7.690,4.028,54.970,-12.036,-0.269
9869,0.2227,0.8535,0.6689,-13.855,-5.859,1.770,54.811,-12.079,-0.308
9879,0.1904,0.8306,0.6440,-4.089,-1.587,-1.526,54.750,-12.057,-0.330
9889,0.1719,0.7773,0.6011,6.958,3.174,-3.784,54.789,-11.992,-0.324
9899,0.1768,0.7280,0.5659,10.010,7.324,-2.930,54.855,-11.915,-0.280
9909,0.2065,0.7324,0.5488,5.676,9.033,0.488,54.877,-11.871,-0.203
9919,0.2812,0.8076,0.5947,-0.061,7.690,5.493,54.844,-11.909,-0.104
9929,0.2798,0.8979,0.6235,-0.244,1.648,8.789,54.833,-11.997,-0.044
9939,0.2056,0.9194,0.6138,6.348,-4.150,8.240,54.910,-12.074,-0.027
9949,0.1177,0.8706,0.5586,15.869,-3.296,4.333,55.091,-12.074,-0.027
9959,0.1021,0.7930,0.4971,21.912,5.371,-2.136,55.327,-11.964,0.000
9969,0.1284,0.7295,0.4502,18.616,14.404,-6.165,55.525,-11.799,0.082
9979,0.2085,0.7217,0.4429,6.592,17.944,-5.249,55.596,-11.678,0.203
9989,0.2974,0.7944,0.4956,-8.728,12.024,0.183,55.514,-11.667,0.308
9999,0.3096,0.8838,0.5454,-17.090,-0.916,6.042,55.366,-11.772,0.335
10009,0.2485,0.9297,0.5703,-13.672,-13.489,8.057,55.272,-11.926,0.269
10019,0.1729,0.9087,0.5693,-3.113,-18.127,5.249,55.294,-12.041,0.143
10029,0.1416,0.8306,0.5347,8.850,-12.817,0.183,55.426,-12.079,0.038
10039,0.1777,0.7583,0.5244,13.855,-3.723,-3.479,55.569,-12.057,-0.005
10049,0.2637,0.7451,0.5552,7.751,1.587,-3.357,55.624,-12.063,-0.016
10059,0.2939,0.7925,0.5894,-3.174,-0.122,0.061,55.574,-12.107,-0.016
10069,0.2446,0.8398,0.6045,-9.705,-4.089,2.930,55.464,-12.167,-0.033
10079,0.2280,0.8677,0.6216,-11.108,-4.272,2.441,55.349,-12.206,-0.055
10089,0.2061,0.8584,0.6162,-5.737,-1.770,-0.122,55.289,-12.206,-0.071
10099,0.1675,0.7954,0.5698,2.258,1.831,-3.052,55.300,-12.145,-0.071
10109,0.1514,0.7354,0.5269,4.700,6.714,-4.456,55.333,-12.047,-0.044
10119,0.1558,0.7065,0.4844,-0.305,10.925,-3.418,55.316,-11.937,0.027
10129,0.1792,0.7134,0.4707,-7.202,12.512,-0.488,55.234,-11.865,0.126
10139,0.2476,0.7744,0.5098,-14.221,9.949,3.174,55.091,-11.865,0.231
10149,0.2637,0.8325,0.5454,-16.846,1.099,6.531,54.932,-11.942,0.275
10159,0.2344,0.8452,0.5586,-13.489,-8.850,7.324,54.816,-12.057,0.247
10169,0.2437,0.8516,0.5996,-9.033,-13.672,5.798,54.745,-12.195,0.165
10179,0.2432,0.8467,0.6245,-3.967,-13.916,3.540,54.712,-12.310,0.071
10189,0.1870,0.8096,0.6030,1.160,-11.230,0.793,54.728,-12.365,-0.011
10199,0.1611,0.7646,0.5776,1.221,-3.845,-2.258,54.734,-12.343,-0.060
10209,0.1753,0.7441,0.5615,-2.502,5.127,-3.357,54.690,-12.266,-0.038
10219,0.2339,0.7744,0.5684,-8.850,10.010,-1.404,54.575,-12.211,0.033
10229,0.2720,0.8369,0.5835,-14.587,7.507,1.709,54.421,-12.211,0.104
10239,0.3140,0.8975,0.6323,-14.954,0.122,4.272,54.272,-12.283,0.132
10249,0.3184,0.9399,0.6714,-9.033,-7.996,4.822,54.190,-12.398,0.093
10259,0.2432,0.9458,0.6787,4.639,-12.268,1.160,54.256,-12.475,0.000
10269,0.1396,0.8521,0.6255,22.156,-8.606,-5.493,54.492,-12.431,-0.099
10279,0.0796,0.7266,0.5376,32.104,2.869,-11.414,54.811,-12.244,-0.143
10289,0.1079,0.6489,0.4839,27.405,16.602,-12.878,55.052,-12.003,-0.077
10299,0.1909,0.6577,0.4712,9.888,23.437,-8.667,55.118,-11.810,0.060
10309,0.2983,0.7622,0.5264,-11.047,19.043,-0.244,54.976,-11.761,0.220
10319,0.3247,0.8838,0.5850,-21.667,5.615,7.935,54.761,-11.843,0.313
10329,0.2334,0.9302,0.5894,-16.235,-8.545,10.620,54.630,-11.981,0.302
10339,0.1611,0.9033,0.5859,-3.418,-12.207,7.202,54.630,-12.074,0.247
10349,0.1421,0.8140,0.5518,9.155,-6.287,0.610,54.745,-12.079,0.198
10359,0.1396,0.7217,0.5054,15.503,2.136,-5.493,54.904,-11.992,0.181
10369,0.1636,0.6694,0.4727,9.766,8.301,-7.324,54.992,-11.876,0.209
10379,0.2041,0.6753,0.4614,-3.601,9.766,-3.845,54.954,-11.810,0.269
10389,0.2583,0.7520,0.5034,-18.494,6.714,2.625,54.767,-11.838,0.341
10399,0.2935,0.8594,0.5615,-25.452,-0.671,8.362,54.525,-11.948,0.385
10409,0.2568,0.9033,0.5859,-20.020,-10.681,9.705,54.360,-12.101,0.352
10419,0.2104,0.8701,0.5913,-7.629,-15.930,6.042,54.316,-12.233,0.253
10429,0.2148,0.8062,0.6011,2.625,-13.184,0.732,54.355,-12.316,0.148
10439,0.2217,0.7563,0.5962,8.057,-8.545,-2.380,54.426,-12.354,0.066
10449,0.2285,0.7275,0.5884,6.897,-4.211,-2.502,54.476,-12.371,0.011
10459,0.2666,0.7515,0.6104,0.427,-1.221,0.305,54.443,-12.409,0.005
10469,0.2744,0.8281,0.6333,-5.798,-1.221,4.211,54.366,-12.475,0.022
10479,0.2300,0.8770,0.6118,-5.798,-1.282,5.920,54.311,-12.524,0.044
10489,0.2065,0.8584,0.5937,-2.136,1.282,4.272,54.289,-12.541,0.082
10499,0.1914,0.7988,0.5654,3.662,4.517,-0.671,54.322,-12.491,0.115
10509,0.1714,0.7231,0.5259,7.385,6.653,-6.287,54.388,-12.387,0.132
10519,0.1953,0.6729,0.5088,5.188,7.629,-8.362,54.421,-12.283,0.148
10529,0.2505,0.6948,0.5391,-0.793,5.249,-4.211,54.388,-12.255,0.165
10539,0.3218,0.7778,0.6147,-3.906,-1.831,4.761,54.322,-12.360,0.176
10549,0.3320,0.8540,0.6875,-0.549,-12.878,12.451,54.289,-12.579,0.143
10559,0.2769,0.9253,0.7334,8.850,-22.278,14.404,54.371,-12.832,0.044
10569,0.1450,0.8911,0.6880,28.015,-21.729,9.521,54.657,-12.980,-0.071
10579,0.0581,0.7671,0.5850,44.861,-8.545,2.258,55.091,-12.947,-0.132
10589,0.0723,0.6719,0.4897,45.410,11.536,-2.930,55.514,-12.783,-0.049
10599,0.1768,0.6519,0.4463,29.480,26.367,-3.052,55.761,-12.607,0.148
10609,0.2993,0.7217,0.4634,3.723,27.466,2.014,55.761,-12.535,0.396
10619,0.3306,0.8521,0.5020,-16.663,15.808,8.362,55.596,-12.574,0.577
10629,0.2500,0.9287,0.4946,-21.484,0.488,11.292,55.432,-12.673,0.643
10639,0.1655,0.9346,0.4834,-13.489,-7.812,8.972,55.371,-12.755,0.632
10649,0.1309,0.8740,0.4551,-1.770,-6.165,2.625,55.432,-12.755,0.593
10659,0.1597,0.7866,0.4243,6.836,-1.892,-3.540,55.569,-12.711,0.555
10669,0.2573,0.7505,0.4556,2.930,-0.977,-4.883,55.640,-12.717,0.522
10679,0.3076,0.7900,0.5171,-8.179,-7.568,-0.854,55.585,-12.805,0.450
10689,0.2725,0.8433,0.5630,-15.564,-16.602,3.235,55.464,-12.947,0.330
10699,0.2368,0.8799,0.6074,-18.677,-20.569,3.906,55.311,-13.090,0.181
10709,0.2329,0.8823,0.6440,-16.296,-19.165,1.526,55.173,-13.200,0.027
10719,0.2202,0.8315,0.6421,-11.230,-14.954,-2.014,55.063,-13.255,-0.104
10729,0.2017,0.7690,0.6113,-9.827,-8.667,-4.944,54.954,-13.244,-0.209
10739,0.2178,0.7334,0.5898,-15.442,-1.526,-5.127,54.772,-13.211,-0.253
10749,0.2700,0.7480,0.6045,-24.231,2.869,-2.380,54.492,-13.200,-0.242
10759,0.2896,0.7964,0.6211,-27.954,2.502,0.610,54.185,-13.217,-0.220
10769,0.2476,0.8159,0.6138,-22.827,0.061,1.404,53.948,-13.233,-0.209
10779,0.2246,0.8047,0.6089,-14.343,-0.122,0.916,53.795,-13.233,-0.203
10789,0.2344,0.7847,0.6045,-6.348,1.404,0.732,53.712,-13.233,-0.187
10799,0.2275,0.7559,0.5952,-1.709,1.770,1.343,53.674,-13.233,-0.165
10809,0.2319,0.7515,0.5952,-2.686,1.953,2.197,53.619,-13.244,-0.137
10819,0.2251,0.7700,0.5923,-5.798,1.892,2.869,53.542,-13.255,-0.104
10829,0.2163,0.7881,0.5801,-7.385,3.174,3.235,53.459,-13.250,-0.055
10839,0.2231,0.7900,0.5688,-6.897,5.310,2.869,53.383,-13.239,0.000
10849,0.2505,0.7783,0.5684,-5.920,6.348,2.625,53.317,-13.239,0.066
10859,0.3086,0.7910,0.5981,-5.798,3.906,2.502,53.240,-13.277,0.115
10869,0.3247,0.8345,0.6401,-3.235,-2.625,2.014,53.207,-13.343,0.104
10879,0.3081,0.8774,0.6685,4.944,-9.277,1.404,53.262,-13.431,0.038
10889,0.2100,0.8613,0.6406,18.555,-11.475,0.427,53.470,-13.480,-0.049
10899,0.1118,0.7812,0.5474,30.579,-4.578,-1.526,53.800,-13.425,-0.093
10909,0.1162,0.7207,0.4746,32.166,8.240,-4.028,54.135,-13.288,-0.049
10919,0.2134,0.6958,0.4614,22.034,17.151,-3.784,54.349,-13.173,0.066
10930,0.3140,0.7368,0.4976,4.700,14.343,-0.061,54.382,-13.151,0.181
10939,0.3594,0.8252,0.5708,-10.925,1.282,3.296,54.278,-13.233,0.214
10949,0.3047,0.8877,0.6152,-14.648,-13.733,3.540,54.163,-13.370,0.121
10959,0.1987,0.9028,0.6265,-6.714,-20.569,0.671,54.146,-13.464,-0.044
10969,0.1436,0.8413,0.6074,6.653,-14.648,-3.479,54.245,-13.464,-0.187
10979,0.1357,0.7539,0.5552,17.334,-2.502,-6.653,54.426,-13.370,-0.247
10989,0.1802,0.6836,0.5239,15.503,8.362,-6.653,54.553,-13.255,-0.214
10999,0.2720,0.7041,0.5337,2.930,12.878,-2.869,54.547,-13.195,-0.126
11009,0.3257,0.7988,0.5835,-9.766,8.179,2.258,54.421,-13.217,-0.044
11019,0.2832,0.8682,0.6035,-13.123,-0.488,4.700,54.294,-13.277,-0.016
11029,0.2212,0.8774,0.5981,-7.263,-5.554,3.479,54.245,-13.321,-0.044
11039,0.1851,0.8389,0.5825,1.892,-4.272,0.122,54.278,-13.315,-0.077
11049,0.1772,0.7690,0.5415,8.179,0.549,-3.052,54.371,-13.260,-0.093
11059,0.1875,0.7144,0.5127,5.981,4.761,-3.906,54.426,-13.189,-0.077
11069,0.2275,0.7075,0.5142,-3.723,6.287,-1.770,54.377,-13.156,-0.033
11079,0.2812,0.7700,0.5562,-14.099,3.967,2.197,54.223,-13.184,0.005
11089,0.2812,0.8428,0.5947,-17.639,-1.404,4.639,54.047,-13.250,0.022
11099,0.2349,0.8560,0.5957,-12.939,-5.920,4.089,53.937,-13.310,0.000
11109,0.2051,0.8252,0.5864,-5.371,-5.676,1.465,53.899,-13.337,-0.033
11119,0.1973,0.7778,0.5576,1.038,-1.282,-1.831,53.921,-13.310,-0.055
11129,0.2075,0.7251,0.5381,1.465,3.052,-3.235,53.926,-13.266,-0.049
11139,0.2402,0.7222,0.5391,-4.089,4.761,-2.441,53.877,-13.233,-0.027
11149,0.2734,0.7622,0.5664,-9.766,2.563,0.000,53.767,-13.250,-0.005
11159,0.2866,0.8062,0.6079,-11.230,-2.319,2.808,53.652,-13.310,-0.005
11169,0.2734,0.8369,0.6250,-7.812,-7.385,3.784,53.580,-13.398,-0.044
11179,0.2705,0.8442,0.6509,-1.099,-10.193,2.869,53.569,-13.486,-0.110
11189,0.2241,0.8281,0.6387,6.897,-9.644,0.916,53.641,-13.535,-0.187
11199,0.1963,0.7871,0.6025,13.367,-4.700,-1.404,53.778,-13.530,-0.236
11209,0.1914,0.7471,0.5674,14.282,2.319,-2.625,53.904,-13.475,-0.231
11219,0.2217,0.7334,0.5479,10.559,7.568,-2.319,53.992,-13.414,-0.181
11229,0.2661,0.7656,0.5576,3.540,7.874,-0.671,54.014,-13.387,-0.121
11239,0.2817,0.8130,0.5781,-1.892,2.930,1.648,53.992,-13.409,-0.088
11249,0.3223,0.8755,0.6299,-2.930,-3.662,2.808,53.970,-13.480,-0.099
11259,0.2588,0.8960,0.6421,4.211,-9.460,1.526,54.031,-13.546,-0.170
11269,0.1382,0.8423,0.5786,15.991,-7.996,-2.075,54.223,-13.519,-0.247
11279,0.0991,0.7603,0.5093,23.682,2.991,-6.470,54.481,-13.376,-0.264
11289,0.1646,0.7031,0.4766,20.630,14.587,-7.812,54.679,-13.206,-0.187
11299,0.2847,0.7329,0.5034,8.484,17.761,-4.395,54.745,-13.112,-0.066
11309,0.3291,0.8149,0.5469,-3.784,8.484,0.854,54.706,-13.129,0.005
11319,0.2661,0.8652,0.5527,-6.958,-4.639,3.235,54.668,-13.195,-0.005
11329,0.2090,0.8613,0.5576,-3.906,-11.047,1.831,54.673,-13.255,-0.088
11339,0.1938,0.8164,0.5542,1.831,-8.911,-1.709,54.717,-13.271,-0.176
11349,0.2021,0.7524,0.5352,5.005,-3.540,-4.761,54.783,-13.244,-0.231
11359,0.2246,0.7187,0.5322,0.305,0.244,-5.005,54.778,-13.211,-0.258
11369,0.2417,0.7368,0.5391,-8.728,0.977,-2.380,54.684,-13.200,-0.264
11379,0.2622,0.7886,0.5684,-14.465,0.183,1.099,54.531,-13.228,-0.258
11389,0.2827,0.8389,0.6079,-14.526,-2.136,3.235,54.382,-13.288,-0.258
11399,0.2500,0.8477,0.6064,-8.667,-4.883,2.747,54.305,-13.337,-0.280
11409,0.2021,0.8013,0.5771,-0.977,-4.761,0.061,54.305,-13.348,-0.319
11419,0.1816,0.7485,0.5425,3.235,-0.488,-2.563,54.338,-13.310,-0.341
11429,0.1797,0.7202,0.5044,2.319,4.700,-3.235,54.360,-13.239,-0.319
11439,0.2275,0.7261,0.5000,-3.235,7.507,-0.610,54.327,-13.200,-0.258
11449,0.2773,0.7847,0.5298,-10.437,5.249,3.967,54.223,-13.233,-0.192
11459,0.2812,0.8564,0.5591,-14.038,-1.404,7.507,54.108,-13.326,-0.159
11469,0.2910,0.8945,0.5986,-12.756,-8.606,7.629,54.003,-13.453,-0.187
11479,0.2500,0.8794,0.6221,-7.080,-13.672,3.967,53.965,-13.563,-0.275
11489,0.2036,0.8262,0.6104,0.732,-12.878,-3.052,53.998,-13.590,-0.401
11499,0.1943,0.7603,0.5894,5.249,-6.958,-9.094,54.058,-13.535,-0.511
11509,0.2173,0.7104,0.5791,5.310,-0.854,-11.047,54.091,-13.447,-0.588
11519,0.2656,0.7183,0.5947,0.610,2.197,-7.935,54.069,-13.398,-0.615
11529,0.2993,0.7832,0.6343,-4.883,-0.061,-1.404,53.992,-13.420,-0.626
11539,0.2793,0.8442,0.6509,-4.150,-5.188,3.784,53.937,-13.491,-0.648
11549,0.2490,0.8765,0.6636,2.686,-7.874,4.150,53.965,-13.563,-0.687
11559,0.2017,0.8516,0.6367,14.343,-6.042,0.854,54.108,-13.574,-0.731
11569,0.1733,0.7856,0.5854,23.804,0.610,-3.479,54.338,-13.508,-0.747
11579,0.1875,0.7432,0.5449,24.902,8.423,-6.165,54.575,-13.392,-0.714
11589,0.3271,0.7832,0.5937,19.226,12.146,-4.883,54.728,-13.332,-0.643
11599,0.4453,0.9043,0.7012,14.771,5.188,-0.305,54.844,-13.381,-0.599
11609,0.2935,0.9570,0.6904,22.217,-8.301,2.014,55.069,-13.447,-0.659
11619,0.0933,0.9111,0.5947,35.950,-9.705,-2.197,55.464,-13.403,-0.753
11629,0.0366,0.8110,0.4951,49.377,5.371,-10.620,55.986,-13.173,-0.769
11639,0.0449,0.6909,0.3892,55.786,22.705,-16.907,56.563,-12.810,-0.670
11649,0.1265,0.5757,0.3091,46.997,32.898,-15.869,57.041,-12.480,-0.478
11659,0.2900,0.6343,0.3442,20.752,29.663,-6.592,57.244,-12.360,-0.264
11669,0.3955,0.8042,0.4258,-3.784,10.925,6.958,57.228,-12.469,-0.132
11679,0.3418,0.9243,0.4775,-10.132,-14.587,17.395,57.184,-12.750,-0.159
11689,0.2383,0.9619,0.5293,-6.042,-31.372,19.470,57.200,-13.074,-0.319
11699,0.1973,0.9380,0.5767,5.432,-33.020,13.123,57.316,-13.332,-0.533
11709,0.1655,0.8496,0.5664,18.372,-23.926,2.258,57.530,-13.436,-0.725
11719,0.1631,0.7373,0.5288,20.874,-10.376,-7.568,57.739,-13.398,-0.857
11729,0.1826,0.6748,0.4873,10.620,2.441,-12.146,57.816,-13.271,-0.906
11739,0.2246,0.6714,0.4683,-5.676,11.353,-10.071,57.722,-13.151,-0.862
11749,0.2788,0.7349,0.4946,-25.146,14.648,-2.075,57.431,-13.096,-0.747
11759,0.2969,0.8145,0.5186,-35.278,10.803,6.348,57.052,-13.134,-0.615
11769,0.2632,0.8423,0.5161,-32.959,2.197,9.583,56.728,-13.217,-0.544
11779,0.2241,0.8223,0.5063,-22.339,-4.822,6.836,56.519,-13.299,-0.549
11789,0.2407,0.7744,0.5171,-11.597,-6.897,3.357,56.415,-13.376,-0.588
11799,0.2788,0.7505,0.5381,-5.798,-7.996,3.296,56.349,-13.480,-0.637
11809,0.2769,0.7612,0.5566,-3.906,-9.216,5.371,56.294,-13.607,-0.687
11819,0.2915,0.7881,0.5933,-4.272,-9.949,8.057,56.228,-13.755,-0.725
11829,0.2725,0.8306,0.6138,-5.310,-9.888,10.498,56.157,-13.909,-0.747
11839,0.2490,0.8569,0.6172,-2.930,-8.057,10.132,56.107,-14.030,-0.758
11849,0.2349,0.8604,0.6021,0.122,-4.517,7.324,56.096,-14.101,-0.758
11859,0.2085,0.8369,0.5557,4.517,-0.488,3.113,56.146,-14.101,-0.742
11869,0.2114,0.8169,0.5234,6.165,3.540,0.000,56.212,-14.068,-0.714
11879,0.3184,0.8403,0.5664,5.127,4.578,0.549,56.250,-14.079,-0.670
11889,0.3896,0.9258,0.6411,4.333,-2.747,3.357,56.283,-14.172,-0.676
11899,0.2788,0.9639,0.6294,13.916,-13.000,3.479,56.448,-14.266,-0.764
11909,0.1562,0.9102,0.5830,25.208,-13.367,0.916,56.733,-14.288,-0.873
11919,0.0771,0.8164,0.4917,34.607,-1.770,-4.150,57.107,-14.167,-0.912
11929,0.0776,0.7261,0.3984,34.180,14.038,-9.399,57.469,-13.925,-0.846
11939,0.2437,0.7090,0.4106,20.325,24.414,-9.949,57.656,-13.738,-0.687
11949,0.4180,0.8223,0.5088,0.732,17.456,-3.540,57.640,-13.711,-0.555
11959,0.3936,0.9258,0.5693,-5.676,-3.418,5.615,57.590,-13.837,-0.555
11969,0.2798,0.9648,0.5889,-0.549,-20.752,11.414,57.623,-14.046,-0.670
11979,0.1631,0.9478,0.5791,11.780,-22.339,9.338,57.783,-14.183,-0.813
11989,0.1440,0.8564,0.5410,27.466,-10.742,1.282,58.079,-14.189,-0.901
11999,0.1836,0.7515,0.5024,31.982,2.930,-5.432,58.376,-14.101,-0.906
12009,0.2246,0.6909,0.4590,22.156,11.047,-6.470,58.563,-14.002,-0.846
12019,0.2612,0.7070,0.4541,0.854,12.695,-1.587,58.530,-13.953,-0.742
12029,0.2695,0.7974,0.4736,-20.630,10.193,5.066,58.304,-13.969,-0.626
12039,0.2559,0.8701,0.4912,-31.494,5.615,8.789,57.997,-14.019,-0.527
12049,0.2617,0.9106,0.5146,-31.677,1.282,7.690,57.695,-14.073,-0.472
12059,0.2524,0.9067,0.5210,-21.118,-2.502,1.770,57.513,-14.095,-0.483
12069,0.2026,0.8374,0.4854,-4.333,-3.601,-5.310,57.508,-14.052,-0.544
12079,0.1724,0.7349,0.4404,8.179,-0.488,-9.094,57.618,-13.947,-0.599
12089,0.1943,0.6763,0.4150,10.986,4.517,-8.240,57.733,-13.854,-0.610
12099,0.2749,0.6831,0.4434,3.601,5.981,-1.953,57.755,-13.854,-0.566
12109,0.3276,0.7568,0.4971,-9.033,0.244,7.141,57.645,-13.975,-0.522
12119,0.3662,0.8657,0.5708,-18.127,-9.766,13.428,57.458,-14.194,-0.533
12129,0.3018,0.9302,0.6079,-17.395,-19.897,14.160,57.299,-14.425,-0.632
12139,0.2163,0.9136,0.5942,-6.104,-21.973,9.094,57.272,-14.590,-0.769
12149,0.1860,0.8442,0.5596,5.798,-12.939,1.648,57.349,-14.628,-0.873
12159,0.2139,0.7651,0.5327,10.742,-0.916,-3.784,57.437,-14.584,-0.901
12169,0.2637,0.7148,0.5176,5.127,6.653,-4.517,57.448,-14.535,-0.868
12179,0.3481,0.7524,0.5649,-7.874,7.141,-0.732,57.310,-14.546,-0.813
12189,0.3481,0.8662,0.6128,-18.250,0.793,4.517,57.096,-14.617,-0.780
12199,0.3008,0.9424,0.6289,-16.479,-5.798,6.042,56.931,-14.700,-0.797
12209,0.2124,0.9419,0.5972,-5.249,-6.348,4.333,56.893,-14.733,-0.824
12219,0.1655,0.8877,0.5381,11.169,1.465,-0.732,57.019,-14.661,-0.818
12229,0.1924,0.7954,0.4917,20.874,10.986,-4.700,57.222,-14.529,-0.747
12239,0.2153,0.7324,0.4502,17.822,16.113,-4.700,57.382,-14.403,-0.637
12249,0.2876,0.7427,0.4629,3.540,13.855,-2.014,57.398,-14.348,-0.527
12259,0.3262,0.8276,0.5181,-10.803,5.676,2.747,57.277,-14.381,-0.461
12269,0.2646,0.8882,0.5293,-16.296,-3.723,5.066,57.140,-14.442,-0.467
12279,0.2212,0.9063,0.5405,-14.221,-8.118,3.784,57.030,-14.491,-0.516
12289,0.2012,0.8809,0.5210,-5.493,-5.432,0.671,57.008,-14.496,-0.560
12299,0.2256,0.8145,0.4956,1.953,0.061,-2.686,57.052,-14.458,-0.571
12309,0.2681,0.7681,0.4976,1.831,3.723,-3.235,57.063,-14.431,-0.560
12319,0.2627,0.7583,0.4790,-3.723,2.747,-1.709,57.030,-14.420,-0.544
12329,0.2549,0.7700,0.4829,-10.742,0.916,0.549,56.931,-14.436,-0.533
12339,0.2617,0.8022,0.5020,-17.151,-0.061,2.930,56.766,-14.469,-0.516
12349,0.2759,0.8262,0.5234,-19.592,-1.770,4.211,56.580,-14.524,-0.511
12359,0.2734,0.8262,0.5337,-18.860,-3.723,4.089,56.404,-14.590,-0.516
12369,0.2725,0.8271,0.5332,-16.602,-4.761,2.563,56.250,-14.645,-0.544
12379,0.2905,0.8179,0.5581,-13.916,-4.578,0.977,56.118,-14.694,-0.577
12389,0.2842,0.8008,0.5649,-10.193,-4.761,-0.061,56.014,-14.738,-0.621
12399,0.2852,0.7959,0.5713,-5.920,-3.906,-0.732,55.948,-14.766,-0.654
12409,0.2969,0.7974,0.5942,-0.854,-3.113,0.061,55.920,-14.804,-0.681
12419,0.2681,0.8018,0.5962,2.563,-3.845,1.404,55.926,-14.837,-0.709
12429,0.2524,0.7983,0.5903,2.502,-3.296,1.709,55.931,-14.865,-0.725
12439,0.2354,0.7969,0.5732,-1.343,-1.404,1.343,55.898,-14.870,-0.731
12448,0.2061,0.7969,0.5283,-4.639,2.258,-0.610,55.854,-14.826,-0.714
12458,0.2285,0.7783,0.5161,-6.958,6.775,-2.930,55.783,-14.755,-0.676
12469,0.2524,0.7754,0.5112,-8.240,8.118,-2.991,55.695,-14.689,-0.621
12479,0.2490,0.7817,0.4971,-6.958,5.615,-1.526,55.635,-14.650,-0.582
12489,0.2427,0.7822,0.4912,-4.272,1.587,0.916,55.613,-14.645,-0.566
12499,0.2271,0.7920,0.4839,-1.770,-2.075,3.235,55.624,-14.678,-0.560
12509,0.2119,0.7876,0.4795,-0.122,-4.639,4.700,55.657,-14.722,-0.577
12518,0.2490,0.7930,0.5005,-0.977,-5.981,4.517,55.673,-14.793,-0.599
12529,0.3330,0.8164,0.5791,-3.357,-8.972,4.089,55.640,-14.914,-0.654
12539,0.3555,0.8511,0.6460,-2.319,-15.198,3.601,55.618,-15.062,-0.758
12549,0.3335,0.8838,0.7012,4.211,-19.897,2.563,55.662,-15.211,-0.917
12558,0.2485,0.8804,0.6807,16.418,-18.738,1.465,55.827,-15.298,-1.066
12569,0.1519,0.8105,0.5845,31.555,-8.972,-0.671,56.146,-15.276,-1.148
12578,0.1602,0.7388,0.5063,37.537,6.287,-1.099,56.497,-15.183,-1.099
12589,0.2266,0.7070,0.4595,29.968,17.212,1.343,56.761,-15.101,-0.945
12599,0.3311,0.7505,0.4687,12.634,17.517,4.150,56.854,-15.090,-0.769
12609,0.4185,0.8667,0.5483,-5.310,7.263,6.226,56.783,-15.178,-0.670
12619,0.3638,0.9463,0.5903,-9.460,-7.874,6.653,56.711,-15.304,-0.703
12628,0.2915,0.9722,0.6167,-1.404,-16.785,3.357,56.739,-15.408,-0.829
12638,0.2271,0.9385,0.6230,15.930,-14.587,-4.333,56.931,-15.414,-0.978
12648,0.1431,0.8110,0.5479,35.278,-5.737,-11.658,57.305,-15.276,-1.093
12659,0.1514,0.6885,0.4761,40.039,7.996,-13.489,57.678,-15.073,-1.099
12669,0.2241,0.6460,0.4429,27.771,18.921,-8.911,57.903,-14.903,-0.983
12679,0.2720,0.6982,0.4331,6.592,20.691,-0.854,57.925,-14.826,-0.807
12689,0.3135,0.7925,0.4595,-11.963,15.442,7.019,57.783,-14.843,-0.632
12699,0.2954,0.8706,0.4800,-20.691,6.287,11.719,57.585,-14.925,-0.516
12708,0.2573,0.8926,0.4800,-19.653,-0.977,10.437,57.415,-15.007,-0.467
12718,0.2505,0.8726,0.4888,-11.841,-3.540,5.432,57.332,-15.062,-0.467
12729,0.2603,0.8198,0.4883,-4.395,-3.601,1.099,57.316,-15.095,-0.489
12739,0.2734,0.7778,0.4863,-1.953,-3.723,-0.122,57.310,-15.128,-0.522
12749,0.2896,0.7656,0.5044,-4.028,-4.028,1.404,57.272,-15.189,-0.549
12759,0.2837,0.7915,0.5186,-7.690,-4.456,3.418,57.195,-15.255,-0.571
12769,0.2876,0.8174,0.5391,-10.437,-4.211,4.028,57.090,-15.320,-0.582
12779,0.2827,0.8306,0.5474,-10.742,-4.089,3.418,56.981,-15.375,-0.599
12789,0.2642,0.8193,0.5347,-8.118,-4.150,1.526,56.909,-15.408,-0.626
12799,0.2803,0.7915,0.5366,-4.822,-3.662,0.244,56.860,-15.441,-0.659
12809,0.2900,0.7856,0.5444,-2.808,-3.845,1.160,56.821,-15.485,-0.687
12819,0.3003,0.7954,0.5571,-1.770,-5.127,3.296,56.794,-15.557,-0.709
12829,0.2842,0.8071,0.5576,-1.587,-6.226,5.432,56.766,-15.639,-0.736
12838,0.2427,0.8154,0.5386,-0.732,-4.883,6.165,56.761,-15.705,-0.742
12848,0.2354,0.8105,0.5132,-1.465,0.122,5.188,56.750,-15.727,-0.709
12859,0.2559,0.7896,0.4927,-3.662,4.822,2.930,56.706,-15.721,-0.654
12869,0.2788,0.7671,0.4834,-7.751,6.042,0.977,56.629,-15.710,-0.593
12879,0.3232,0.7866,0.5186,-13.123,3.479,0.671,56.486,-15.727,-0.560
12889,0.3218,0.8394,0.5513,-15.320,-2.686,2.563,56.338,-15.782,-0.571
12899,0.2871,0.8623,0.5679,-9.460,-8.240,4.272,56.261,-15.864,-0.615
12908,0.2192,0.8594,0.5503,0.732,-8.667,3.967,56.294,-15.903,-0.670
12918,0.2295,0.8345,0.5391,10.132,-3.601,2.808,56.409,-15.919,-0.681
12931,0.2666,0.8164,0.5337,14.404,0.488,3.296,56.547,-15.936,-0.659
12938,0.3101,0.8198,0.5474,12.329,0.244,3.601,56.662,-15.980,-0.637
12948,0.2983,0.8330,0.5576,6.409,-3.479,3.723,56.722,-16.035,-0.648
12958,0.2700,0.8569,0.5713,0.244,-5.859,2.014,56.733,-16.073,-0.687
12968,0.2388,0.8633,0.5630,-2.991,-4.700,-0.427,56.717,-16.062,-0.731
12978,0.2222,0.8389,0.5361,-2.014,-0.732,-2.563,56.706,-16.013,-0.747
12988,0.2344,0.8135,0.5107,-0.854,3.967,-3.174,56.706,-15.941,-0.731
12998,0.2700,0.7983,0.4941,1.648,6.165,-2.869,56.728,-15.886,-0.698
13009,0.3232,0.7993,0.5142,2.747,4.700,-0.671,56.750,-15.881,-0.659
13019,0.3379,0.8149,0.5464,3.479,-0.183,2.441,56.777,-15.936,-0.648
13028,0.3218,0.8306,0.5684,3.723,-5.127,3.906,56.805,-16.013,-0.670
13038,0.2837,0.8330,0.5776,3.174,-7.019,3.174,56.832,-16.073,-0.714
13048,0.2422,0.8130,0.5640,2.991,-4.272,1.221,56.854,-16.084,-0.742
13058,0.2290,0.7837,0.5366,2.502,2.136,-1.221,56.865,-16.035,-0.731
13068,0.2402,0.7681,0.5054,2.441,8.484,-2.258,56.871,-15.958,-0.670
13078,0.2715,0.7729,0.4800,3.784,12.268,-0.610,56.893,-15.892,-0.566
13088,0.3047,0.7881,0.4746,5.737,11.841,3.479,56.937,-15.881,-0.445
13098,0.3477,0.8335,0.4946,7.751,7.385,8.789,57.008,-15.952,-0.330
13108,0.3501,0.8784,0.5127,10.498,0.732,12.512,57.118,-16.084,-0.253
13118,0.3086,0.8745,0.5044,13.306,-5.005,12.756,57.272,-16.227,-0.225
13128,0.2739,0.8560,0.4966,13.184,-5.249,9.644,57.426,-16.326,-0.214
13138,0.2793,0.8315,0.4893,11.414,-1.953,4.272,57.557,-16.370,-0.209
13148,0.2949,0.8013,0.4946,6.104,0.916,-0.061,57.623,-16.375,-0.203
13159,0.2944,0.8032,0.4985,-0.366,2.136,-2.136,57.623,-16.359,-0.192
13168,0.3203,0.8281,0.5229,-5.615,1.648,-1.465,57.563,-16.353,-0.187
13178,0.3223,0.8691,0.5469,-6.470,-0.610,0.916,57.502,-16.375,-0.187
13188,0.3125,0.8838,0.5601,-1.770,-3.052,2.808,57.491,-16.419,-0.198
13198,0.2866,0.8770,0.5547,4.395,-3.418,3.296,57.541,-16.452,-0.209
13208,0.2627,0.8555,0.5366,8.972,-0.977,1.709,57.634,-16.452,-0.209
13218,0.2505,0.8276,0.5186,8.179,3.723,-0.916,57.706,-16.408,-0.181
13228,0.2700,0.8081,0.4702,3.601,9.399,-2.808,57.744,-16.331,-0.115
13238,0.2896,0.8047,0.4780,0.305,10.315,-2.930,57.744,-16.260,-0.038
13248,0.3057,0.8193,0.5029,-8.118,8.911,-2.502,57.651,-16.205,0.016
13258,0.3003,0.8306,0.4980,-13.306,5.737,-3.235,57.524,-16.155,0.049
13268,0.2803,0.8223,0.5020,-13.794,1.526,-5.066,57.404,-16.106,0.038
13278,0.2856,0.8091,0.5234,-11.963,-0.671,-7.874,57.294,-16.051,-0.005
13288,0.2676,0.7783,0.5171,-8.301,-1.709,-9.827,57.222,-15.974,-0.077
13298,0.2559,0.7485,0.5039,-4.944,-1.770,-9.766,57.184,-15.903,-0.148
13308,0.2661,0.7412,0.5005,-3.723,-0.732,-8.423,57.151,-15.842,-0.203
13318,0.2944,0.7471,0.5117,-2.930,-1.038,-6.165,57.118,-15.820,-0.247
13328,0.3315,0.7695,0.5396,-2.930,-2.991,-3.479,57.079,-15.842,-0.291
13338,0.3291,0.7808,0.5566,-1.831,-6.470,-1.770,57.052,-15.892,-0.357
13348,0.2803,0.7637,0.5435,1.099,-8.423,-2.258,57.063,-15.930,-0.445
13358,0.2388,0.7246,0.5137,3.601,-5.615,-4.028,57.090,-15.914,-0.516
13368,0.2192,0.6714,0.4824,3.906,-0.183,-4.639,57.112,-15.870,-0.544
13378,0.2354,0.6450,0.4712,0.793,4.089,-2.686,57.079,-15.831,-0.522
13388,0.2559,0.6621,0.4824,-4.089,4.150,1.221,56.997,-15.831,-0.478
13398,0.2666,0.6978,0.5093,-6.470,-0.183,6.226,56.893,-15.897,-0.445
13408,0.2754,0.7319,0.5464,-5.310,-5.676,11.902,56.799,-16.035,-0.428
13418,0.2603,0.7764,0.5723,-1.038,-9.460,17.273,56.750,-16.221,-0.412
13428,0.2310,0.7969,0.5698,4.395,-9.460,20.569,56.761,-16.414,-0.379
13438,0.2212,0.8057,0.5596,8.240,-5.310,21.423,56.805,-16.584,-0.302
13448,0.2437,0.8232,0.5596,8.179,0.244,20.813,56.843,-16.727,-0.181
13458,0.2759,0.8442,0.5713,4.395,3.784,19.226,56.838,-16.848,-0.038
13468,0.3091,0.8828,0.5977,-2.869,3.906,17.578,56.761,-16.968,0.093
13478,0.2964,0.9385,0.6099,-9.338,1.831,14.587,56.640,-17.056,0.192
13488,0.2695,0.9551,0.5977,-10.559,1.221,9.949,56.530,-17.095,0.258
13498,0.2627,0.9321,0.5757,-7.874,3.967,4.883,56.453,-17.078,0.324
13508,0.2549,0.8955,0.5337,-3.662,7.812,-0.122,56.426,-17.001,0.390
13518,0.2720,0.8569,0.5000,-0.061,10.681,-4.028,56.437,-16.891,0.461
13528,0.3096,0.8135,0.4824,0.732,10.071,-5.249,56.453,-16.804,0.516
13538,0.3442,0.8081,0.5000,-0.549,5.554,-3.479,56.459,-16.776,0.544
13548,0.3530,0.8223,0.5244,-0.671,-0.061,-0.671,56.464,-16.804,0.538
13558,0.3276,0.8174,0.5312,1.709,-4.272,1.099,56.497,-16.853,0.511
13568,0.3003,0.7983,0.5298,2.991,-4.333,1.282,56.536,-16.891,0.478
13578,0.3013,0.7842,0.5239,2.563,-0.977,0.671,56.558,-16.913,0.472
13588,0.3203,0.7720,0.5112,0.061,2.747,0.610,56.547,-16.924,0.500
13598,0.3350,0.7803,0.4995,-3.357,4.578,1.831,56.508,-16.946,0.555
13608,0.3486,0.8174,0.5034,-5.493,4.395,3.418,56.459,-16.979,0.610
13618,0.3604,0.8521,0.5146,-2.930,2.014,4.395,56.437,-17.034,0.654
13628,0.3398,0.8530,0.5166,2.563,-1.160,4.517,56.486,-17.095,0.670
13638,0.3115,0.8296,0.5059,7.202,-2.747,3.174,56.580,-17.144,0.665
13648,0.2769,0.7837,0.4741,8.545,-1.648,0.916,56.689,-17.155,0.654
13659,0.2505,0.7480,0.4453,5.676,1.648,-1.221,56.766,-17.128,0.659
13668,0.2881,0.7388,0.4517,-1.343,4.517,-1.160,56.761,-17.106,0.692
13678,0.3311,0.7637,0.4692,-9.033,3.113,2.197,56.678,-17.139,0.736
13688,0.3564,0.8276,0.5166,-14.343,-2.319,5.920,56.547,-17.227,0.747
13698,0.3506,0.8760,0.5562,-12.512,-9.399,7.507,56.442,-17.358,0.709
13708,0.3110,0.8755,0.5796,-4.700,-14.709,6.653,56.426,-17.485,0.621
13718,0.2651,0.8398,0.5786,4.822,-14.404,3.174,56.492,-17.562,0.511
13728,0.2388,0.7817,0.5586,11.475,-9.583,-1.160,56.613,-17.567,0.423
13738,0.2505,0.7344,0.5474,10.620,-3.845,-2.991,56.700,-17.540,0.368
13748,0.2744,0.7393,0.5522,2.747,-0.366,-0.366,56.695,-17.529,0.368
13758,0.2998,0.7788,0.5728,-6.226,0.061,3.967,56.596,-17.556,0.390
13768,0.3188,0.8306,0.6050,-10.681,-1.465,6.836,56.453,-17.622,0.417
13778,0.3057,0.8418,0.6147,-5.920,-3.174,6.897,56.365,-17.682,0.428
13788,0.2891,0.8037,0.6025,5.066,-2.014,4.700,56.382,-17.715,0.439
13798,0.2847,0.7593,0.5796,15.137,2.563,3.418,56.481,-17.715,0.478
13808,0.2803,0.7451,0.5449,20.752,7.446,5.371,56.635,-17.715,0.577
13818,0.2939,0.7676,0.5205,21.912,11.047,10.376,56.794,-17.737,0.731
13828,0.3071,0.8188,0.5161,20.752,11.780,15.625,56.953,-17.803,0.928
13838,0.3086,0.8599,0.5112,19.104,10.376,18.250,57.101,-17.891,1.121
13848,0.3003,0.8550,0.4912,18.005,8.667,16.846,57.261,-17.974,1.296
13858,0.2969,0.8364,0.4727,15.747,8.484,11.536,57.404,-18.018,1.434
13868,0.3384,0.8315,0.4946,10.681,8.545,5.615,57.497,-18.029,1.544
13878,0.3623,0.8394,0.5020,5.127,6.165,3.235,57.541,-18.051,1.615
13888,0.3516,0.8457,0.5078,3.479,2.563,3.052,57.579,-18.078,1.653
13898,0.3291,0.8345,0.5132,5.249,0.977,2.502,57.629,-18.094,1.681
13908,0.3003,0.7949,0.4966,8.484,1.831,0.732,57.711,-18.089,1.697
13918,0.2891,0.7568,0.4824,7.874,3.845,-1.221,57.783,-18.056,1.725
13928,0.2983,0.7363,0.4824,4.211,5.249,-1.587,57.799,-18.023,1.763
13938,0.3120,0.7368,0.4810,-1.648,4.456,0.122,57.761,-18.018,1.802
13948,0.3545,0.7891,0.5083,-8.118,2.075,3.052,57.667,-18.056,1.840
13958,0.3921,0.8599,0.5391,-11.963,-1.953,7.507,57.541,-18.160,1.862
13968,0.3843,0.9028,0.5469,-9.399,-6.165,10.681,57.458,-18.303,1.868
13978,0.3481,0.9126,0.5332,-4.150,-5.981,10.193,57.437,-18.419,1.873
13988,0.3359,0.8975,0.5156,0.671,-0.671,6.165,57.464,-18.468,1.906
13998,0.3413,0.8633,0.4878,3.052,6.104,1.282,57.502,-18.452,1.967
14008,0.3540,0.8438,0.4687,0.305,11.353,-1.648,57.513,-18.397,2.054
14018,0.3662,0.8530,0.4565,-5.554,13.184,-1.953,57.469,-18.331,2.164
14028,0.3818,0.8853,0.4575,-10.864,11.963,-0.732,57.382,-18.287,2.263
14038,0.3892,0.9121,0.4722,-12.207,8.484,-0.244,57.288,-18.265,2.340
14048,0.3735,0.8936,0.4766,-8.301,3.540,-2.319,57.250,-18.248,2.357
14058,0.3286,0.8423,0.4521,-1.587,0.244,-6.775,57.288,-18.193,2.324
14068,0.3164,0.7817,0.4399,4.211,0.610,-11.230,57.382,-18.111,2.263
14078,0.3311,0.7373,0.4370,7.019,1.221,-13.489,57.491,-18.023,2.197
14088,0.3071,0.7119,0.4077,10.803,0.610,-14.099,57.651,-17.924,2.120
14098,0.2939,0.6787,0.4004,13.916,-0.549,-11.536,57.827,-17.858,2.054
14108,0.3179,0.6826,0.4194,11.841,-3.113,-5.920,57.969,-17.864,1.994
14118,0.2930,0.6924,0.4155,8.667,-8.606,-0.488,58.090,-17.924,1.912
14128,0.2539,0.6895,0.4092,4.272,-12.939,1.770,58.173,-18.007,1.807
14138,0.2529,0.6753,0.4175,-1.587,-13.733,1.526,58.195,-18.083,1.692
14148,0.2744,0.6743,0.4370,-6.836,-13.733,0.122,58.156,-18.166,1.571
14159,0.3096,0.7104,0.4854,-11.230,-15.808,0.305,58.063,-18.265,1.434
14168,0.3613,0.7798,0.5557,-13.733,-20.691,5.127,57.936,-18.441,1.274
14178,0.3662,0.8613,0.6094,-11.963,-26.672,12.817,57.838,-18.699,1.110
14188,0.3437,0.9346,0.6475,-7.446,-28.320,18.005,57.788,-18.979,0.956
14198,0.3193,0.9673,0.6587,-1.282,-22.949,18.555,57.788,-19.221,0.857
14208,0.3037,0.9551,0.6431,4.150,-12.817,13.733,57.821,-19.358,0.818
14218,0.3208,0.9263,0.6172,3.357,-1.343,5.554,57.838,-19.380,0.835
14228,0.3350,0.9087,0.5859,-4.333,7.080,-2.747,57.772,-19.297,0.884
14238,0.3286,0.8999,0.5498,-14.404,11.353,-8.972,57.618,-19.138,0.934
14248,0.3374,0.8896,0.5371,-21.790,13.062,-12.573,57.398,-18.957,0.983
14258,0.3452,0.8838,0.5376,-23.315,11.902,-14.648,57.173,-18.765,1.005
14268,0.3325,0.8721,0.5264,-17.944,9.094,-15.747,57.019,-18.578,0.994
14278,0.3052,0.8354,0.5107,-7.996,5.981,-15.076,56.964,-18.408,0.961
14288,0.2930,0.7886,0.4888,1.221,4.395,-13.062,57.003,-18.265,0.923
14298,0.2705,0.7441,0.4487,7.690,4.333,-11.108,57.101,-18.138,0.901
14308,0.2671,0.7075,0.4136,10.376,5.127,-9.583,57.233,-18.034,0.890
14318,0.2866,0.6934,0.3999,8.850,5.676,-7.080,57.349,-17.963,0.901
14328,0.3013,0.7036,0.4062,3.357,2.991,-3.784,57.404,-17.935,0.906
14338,0.3022,0.7217,0.4263,-2.808,-2.441,-1.160,57.409,-17.957,0.879
14348,0.3257,0.7427,0.4624,-8.240,-8.606,0.244,57.354,-18.034,0.802
14358,0.3521,0.7695,0.5151,-11.780,-14.954,0.854,57.266,-18.144,0.676
14368,0.3467,0.7754,0.5625,-10.803,-20.447,0.549,57.184,-18.276,0.494
14378,0.3296,0.7661,0.6099,-8.240,-23.254,-0.549,57.107,-18.402,0.286
14388,0.3149,0.7637,0.6523,-5.737,-22.583,-1.892,57.041,-18.495,0.077
14398,0.3174,0.7729,0.6855,-3.662,-19.226,-2.747,56.975,-18.561,-0.104
14408,0.3242,0.8013,0.7070,-1.038,-15.198,-2.625,56.931,-18.605,-0.253
14418,0.2935,0.8306,0.6919,3.479,-10.071,-1.831,56.926,-18.611,-0.352
14428,0.2544,0.8428,0.6465,10.315,-2.319,-1.953,56.997,-18.556,-0.385
14438,0.2573,0.8408,0.5986,17.273,6.714,-2.625,57.129,-18.452,-0.341
14448,0.2695,0.8042,0.5605,22.705,13.367,-2.808,57.299,-18.325,-0.236
14458,0.2573,0.7461,0.5259,21.973,15.747,-2.869,57.453,-18.193,-0.115
14468,0.2554,0.7456,0.5083,12.207,15.869,-3.418,57.519,-18.056,0.000
14478,0.2915,0.7974,0.5234,0.000,13.489,-3.296,57.480,-17.946,0.104
14488,0.3145,0.8579,0.5371,-6.836,8.240,-2.380,57.404,-17.875,0.165
14498,0.3169,0.9053,0.5601,-6.775,3.540,-0.732,57.332,-17.836,0.192
14508,0.3027,0.9385,0.5659,-1.221,1.038,1.221,57.332,-17.820,0.203
14518,0.2861,0.9404,0.5537,9.766,1.526,1.892,57.442,-17.792,0.231
14528,0.2842,0.9238,0.5454,21.606,4.211,1.160,57.667,-17.754,0.275
14538,0.2690,0.8770,0.5186,28.564,6.165,-0.244,57.947,-17.688,0.330
14548,0.2603,0.8267,0.4922,29.175,8.301,-2.136,58.233,-17.600,0.390
14558,0.3066,0.8105,0.4976,21.057,10.559,-4.272,58.420,-17.512,0.461
14568,0.3657,0.8535,0.5322,8.545,10.193,-5.676,58.486,-17.435,0.522
14578,0.3896,0.9058,0.5610,-0.793,6.531,-6.836,58.469,-17.375,0.538
14588,0.3862,0.9414,0.5830,-2.319,2.014,-8.240,58.453,-17.309,0.511
14598,0.3569,0.9487,0.5889,4.150,0.244,-9.949,58.502,-17.232,0.461
14608,0.3071,0.9229,0.5537,16.296,3.052,-13.184,58.683,-17.089,0.417
14618,0.2842,0.8428,0.5034,26.184,8.972,-17.090,58.953,-16.891,0.401
14628,0.2749,0.7734,0.4521,28.442,15.076,-19.653,59.233,-16.650,0.434
14638,0.2739,0.7373,0.3999,23.254,20.325,-20.569,59.464,-16.386,0.505
14648,0.3086,0.7266,0.3823,12.024,22.949,-19.653,59.584,-16.144,0.604
14659,0.3379,0.7598,0.3862,-0.305,21.973,-17.517,59.584,-15.936,0.714
14668,0.3511,0.7993,0.3916,-8.850,17.273,-14.771,59.518,-15.782,0.791
14678,0.3413,0.8203,0.3965,-10.376,10.742,-12.329,59.458,-15.672,0.818
14688,0.3228,0.8164,0.4038,-6.287,5.615,-10.681,59.436,-15.590,0.813
14698,0.3027,0.7983,0.4038,-0.610,2.380,-9.583,59.474,-15.529,0.786
14708,0.2788,0.7734,0.3955,3.662,0.488,-9.460,59.557,-15.469,0.742
14718,0.2725,0.7490,0.3921,4.028,-0.366,-9.644,59.639,-15.408,0.687
14728,0.2637,0.7383,0.4062,0.366,-0.732,-9.277,59.672,-15.353,0.632
14738,0.2559,0.7305,0.4224,-7.080,-1.343,-8.057,59.623,-15.309,0.577
14748,0.2515,0.7490,0.4463,-16.296,-2.075,-6.836,59.469,-15.266,0.522
14758,0.2456,0.7783,0.4678,-23.010,-3.601,-5.859,59.255,-15.233,0.456
14768,0.2563,0.8164,0.5005,-23.743,-5.249,-5.127,59.030,-15.216,0.385
14778,0.2588,0.8579,0.5239,-17.700,-6.348,-4.517,58.870,-15.200,0.302
14788,0.2627,0.8696,0.5400,-6.958,-6.592,-3.052,58.815,-15.200,0.231
14798,0.2578,0.8711,0.5488,2.991,-6.409,-1.282,58.854,-15.211,0.165
14808,0.2646,0.8677,0.5464,10.376,-5.310,-0.610,58.958,-15.227,0.115
14818,0.2822,0.8701,0.5508,11.902,-3.540,-0.854,59.073,-15.238,0.077
14828,0.2681,0.8672,0.5439,9.338,-2.197,-2.563,59.161,-15.222,0.044
14838,0.2402,0.8535,0.5239,4.395,-0.061,-6.226,59.205,-15.150,0.011
14848,0.2412,0.8335,0.5127,-1.892,3.418,-10.681,59.183,-15.029,-0.011
14858,0.2544,0.8218,0.5034,-6.287,5.554,-12.878,59.123,-14.892,-0.027
14868,0.2710,0.8481,0.5000,-5.981,5.188,-12.817,59.073,-14.760,-0.049
14878,0.2954,0.8682,0.5093,1.831,1.892,-10.193,59.106,-14.678,-0.088
14888,0.2705,0.8804,0.5015,17.578,-2.808,-7.263,59.304,-14.634,-0.148
14898,0.2168,0.8345,0.4634,34.851,-5.432,-4.761,59.689,-14.601,-0.225
14908,0.1519,0.7749,0.3877,42.847,-3.235,-3.601,60.161,-14.540,-0.269
14918,0.1982,0.7588,0.3662,36.621,1.892,-6.531,60.568,-14.464,-0.286
14932,0.2720,0.7773,0.3892,20.142,2.380,-9.216,60.804,-14.403,-0.313
14938,0.3115,0.8389,0.4346,-0.366,-3.784,-9.949,60.837,-14.370,-0.396
14948,0.3174,0.9048,0.4771,-15.869,-12.451,-12.695,60.738,-14.354,-0.571
14958,0.1494,0.9106,0.4272,-15.564,-19.165,-20.203,60.688,-14.211,-0.846
14968,0.0498,0.8115,0.3677,-2.930,-16.113,-28.442,60.782,-13.931,-1.137
14978,0.0933,0.6909,0.3608,6.287,-8.240,-27.832,60.908,-13.661,-1.351
14988,0.2075,0.6455,0.4146,6.042,-7.263,-16.724,60.969,-13.568,-1.500
14998,0.2661,0.6826,0.4873,-2.686,-16.418,-0.488,60.914,-13.683,-1.648
15008,0.2515,0.7437,0.5381,-10.376,-28.625,11.597,60.787,-13.936,-1.851
15018,0.2241,0.8105,0.5981,-16.968,-32.593,16.296,60.601,-14.222,-2.060
15028,0.1982,0.8525,0.6187,-15.930,-27.832,15.381,60.419,-14.453,-2.230
15038,0.1709,0.8340,0.5947,-12.878,-16.418,13.367,60.249,-14.595,-2.313
15048,0.1851,0.8096,0.5713,-11.963,-2.502,12.878,60.068,-14.683,-2.269
15058,0.2402,0.8140,0.5635,-16.479,8.240,16.296,59.815,-14.771,-2.109
15068,0.2881,0.8442,0.5591,-20.752,11.902,22.522,59.518,-14.914,-1.890
15078,0.3257,0.8857,0.5728,-23.132,10.254,26.550,59.211,-15.112,-1.653
15088,0.3145,0.9248,0.5679,-21.729,6.836,23.987,58.936,-15.293,-1.467
15098,0.2769,0.9155,0.5444,-16.296,5.066,15.808,58.744,-15.392,-1.340
15108,0.2412,0.8647,0.5029,-10.376,7.019,7.141,58.629,-15.397,-1.236
15118,0.2227,0.8115,0.4497,-6.592,11.719,1.282,58.557,-15.331,-1.126
15128,0.2856,0.7935,0.4448,-8.118,15.381,0.305,58.464,-15.276,-0.989
15138,0.3691,0.8413,0.4873,-11.719,13.062,2.930,58.326,-15.287,-0.857
15148,0.3813,0.8979,0.5229,-11.414,4.089,5.127,58.211,-15.359,-0.797
15159,0.2749,0.8960,0.4883,-4.517,-4.089,3.052,58.206,-15.403,-0.813
15168,0.2056,0.8350,0.4360,2.930,-3.723,-2.747,58.288,-15.364,-0.862
15178,0.2109,0.7563,0.3872,7.935,1.465,-7.080,58.420,-15.287,-0.884
15188,0.2979,0.7202,0.3970,7.141,2.930,-7.507,58.519,-15.255,-0.901
15198,0.4546,0.8198,0.5186,0.732,-4.272,-3.540,58.535,-15.342,-0.961
15208,0.5625,0.9985,0.6841,0.732,-21.484,1.587,58.557,-15.562,-1.143
15218,0.3721,1.0444,0.7046,17.456,-39.001,1.709,58.793,-15.787,-1.478
15228,0.0464,0.9214,0.5391,40.955,-33.997,-5.737,59.299,-15.782,-1.807
15238,-0.1084,0.7046,0.3252,51.819,-3.967,-15.442,59.903,-15.430,-1.928
15248,-0.0522,0.5171,0.1523,38.635,28.137,-21.790,60.386,-14.897,-1.785
15258,0.2461,0.5259,0.1821,2.808,40.649,-16.846,60.447,-14.645,-1.511
15268,0.4707,0.7139,0.3359,-32.654,21.851,-1.099,60.123,-14.689,-1.318
15278,0.5576,0.9302,0.4941,-46.387,-15.381,14.282,59.694,-15.018,-1.384
15288,0.5273,1.1025,0.6782,-40.222,-48.767,21.729,59.370,-15.518,-1.703
15298,0.3906,1.1489,0.7998,-17.090,-62.256,20.203,59.277,-16.007,-2.153
15308,0.2529,1.0664,0.8208,7.263,-51.758,13.428,59.387,-16.331,-2.543
15318,0.1348,0.9131,0.7246,22.522,-26.001,2.625,59.590,-16.386,-2.763
15328,0.1382,0.7720,0.6353,21.240,6.348,-8.118,59.705,-16.199,-2.752
15338,0.2012,0.6816,0.5479,1.648,34.912,-11.108,59.568,-15.897,-2.494
15348,0.2065,0.6646,0.4590,-21.667,51.636,-7.324,59.194,-15.562,-2.071
15358,0.2305,0.6978,0.3975,-41.687,58.716,-0.793,58.656,-15.260,-1.549
15368,0.2661,0.7520,0.3657,-54.077,54.260,6.287,58.041,-15.057,-1.038
15378,0.2778,0.7881,0.3481,-55.481,38.879,10.803,57.469,-14.974,-0.637
15388,0.2705,0.7964,0.3364,-47.424,20.508,12.451,57.036,-14.991,-0.385
15398,0.2603,0.7793,0.3364,-36.926,3.418,12.146,56.739,-15.095,-0.291
15408,0.2891,0.7715,0.3750,-28.320,-9.949,12.207,56.536,-15.287,-0.308
15418,0.3643,0.8052,0.4604,-21.179,-19.592,13.000,56.387,-15.562,-0.401
15428,0.4072,0.8589,0.5850,-14.038,-27.283,13.794,56.283,-15.881,-0.560
15438,0.3833,0.8867,0.6777,-4.456,-31.494,12.878,56.255,-16.194,-0.758
15448,0.3125,0.8799,0.7241,5.066,-29.114,9.216,56.305,-16.419,-0.956
15458,0.2544,0.8413,0.7100,12.512,-19.226,3.479,56.404,-16.518,-1.099
15468,0.2231,0.7837,0.6562,14.038,-6.714,-1.648,56.503,-16.501,-1.170
15478,0.2520,0.7510,0.6108,10.010,4.944,-3.052,56.536,-16.430,-1.143
15488,0.3115,0.7793,0.5815,1.709,10.498,-0.671,56.497,-16.381,-1.055
15498,0.3706,0.8574,0.5908,-4.761,8.728,2.502,56.415,-16.386,-0.967
15508,0.4336,0.9414,0.6479,-3.967,1.831,4.395,56.354,-16.458,-0.923
15518,0.3306,0.9751,0.6348,9.338,-7.141,1.953,56.464,-16.507,-0.978
15528,0.1582,0.8774,0.5327,30.151,-8.057,-5.798,56.816,-16.425,-1.077
15538,0.1191,0.7295,0.4458,39.917,1.526,-11.963,57.244,-16.232,-1.132
15548,0.1509,0.6475,0.3628,32.959,11.963,-11.536,57.596,-16.024,-1.093
15558,0.2671,0.6772,0.3647,12.695,15.320,-7.385,57.733,-15.914,-1.000
15568,0.4292,0.8325,0.4771,-7.751,8.606,-0.488,57.662,-15.947,-0.928
15578,0.5234,0.9951,0.5972,-13.916,-8.484,4.211,57.552,-16.106,-0.978
15588,0.3818,1.0620,0.6401,-2.441,-26.917,1.831,57.601,-16.276,-1.203
15598,0.1816,0.9731,0.5630,19.775,-29.602,-8.362,57.909,-16.293,-1.511
15608,0.1021,0.7974,0.4697,34.180,-15.503,-17.334,58.326,-16.128,-1.747
15618,0.1382,0.6562,0.3975,30.884,1.526,-18.738,58.661,-15.903,-1.835
15628,0.2256,0.6138,0.3657,12.573,10.132,-12.207,58.788,-15.765,-1.807
15638,0.3091,0.6782,0.3882,-9.583,8.057,-2.197,58.689,-15.760,-1.752
15648,0.3467,0.7817,0.4297,-25.024,0.305,5.920,58.458,-15.864,-1.714
15659,0.4131,0.9058,0.5366,-28.809,-8.789,9.033,58.189,-16.046,-1.741
15668,0.4233,0.9604,0.6421,-17.944,-19.714,8.057,58.024,-16.254,-1.873
15678,0.3208,0.9067,0.6646,0.122,-27.039,3.967,58.046,-16.425,-2.093
15688,0.1528,0.7949,0.5835,12.573,-21.545,-2.258,58.184,-16.447,-2.296
15698,0.1211,0.6685,0.5166,14.282,-4.578,-8.301,58.288,-16.315,-2.379
15708,0.1938,0.5952,0.4829,6.348,13.062,-6.897,58.260,-16.166,-2.302
15718,0.2549,0.6123,0.4580,-6.470,22.644,0.732,58.085,-16.078,-2.098
15728,0.2993,0.6958,0.4629,-19.470,23.743,9.705,57.805,-16.073,-1.835
15738,0.3174,0.7969,0.4810,-26.611,18.433,15.808,57.486,-16.133,-1.582
15748,0.3218,0.8735,0.4985,-24.475,9.521,17.456,57.217,-16.249,-1.401
15758,0.3096,0.8979,0.5078,-16.846,0.793,15.076,57.057,-16.375,-1.313
15768,0.2676,0.8672,0.4966,-8.911,-5.493,10.254,57.003,-16.474,-1.302
15778,0.2554,0.8252,0.4785,-5.493,-6.897,5.249,56.981,-16.540,-1.329
15788,0.2700,0.8037,0.4736,-8.240,-5.432,2.441,56.937,-16.584,-1.368
15798,0.2988,0.8076,0.4824,-13.550,-2.930,2.075,56.827,-16.628,-1.379
15808,0.3706,0.8613,0.5356,-20.264,-1.831,2.380,56.640,-16.694,-1.384
15818,0.3989,0.9326,0.5879,-24.536,-4.517,2.258,56.415,-16.765,-1.406
15828,0.3389,0.9648,0.5913,-23.010,-8.728,0.183,56.234,-16.815,-1.483
15838,0.2759,0.9351,0.5596,-16.113,-8.484,-4.028,56.129,-16.804,-1.582
15848,0.2407,0.8613,0.5020,-7.141,-4.089,-7.996,56.118,-16.727,-1.664
15858,0.2290,0.7915,0.4404,-0.732,0.549,-9.949,56.173,-16.617,-1.714
15868,0.2998,0.7622,0.4053,1.953,2.502,-9.705,56.261,-16.551,-1.752
15878,0.3857,0.7705,0.4082,3.845,-2.014,-7.996,56.376,-16.567,-1.813
15888,0.4370,0.8052,0.4380,4.517,-12.573,-7.629,56.514,-16.661,-1.967
15898,0.4014,0.8296,0.4604,1.831,-25.146,-12.634,56.656,-16.760,-2.258
15908,0.2993,0.8076,0.4766,-2.991,-34.058,-22.156,56.777,-16.771,-2.681
15918,0.2334,0.7788,0.4907,-11.475,-34.546,-29.297,56.810,-16.688,-3.153
15928,0.2148,0.7378,0.5264,-19.409,-30.518,-26.489,56.711,-16.600,-3.571
15938,0.2305,0.7173,0.5796,-21.484,-24.780,-15.015,56.530,-16.589,-3.873
15948,0.2812,0.7515,0.6387,-17.578,-19.531,-1.038,56.338,-16.677,-4.048
15958,0.3145,0.7993,0.6978,-7.446,-16.541,9.583,56.212,-16.848,-4.136
15968,0.3232,0.8140,0.7319,6.226,-14.709,14.038,56.206,-17.040,-4.186
15978,0.2954,0.7886,0.7261,18.188,-11.047,13.977,56.299,-17.199,-4.197
15988,0.2622,0.7720,0.6855,23.010,-4.578,11.841,56.442,-17.292,-4.169
15998,0.2422,0.7637,0.6157,22.034,3.174,10.559,56.580,-17.325,-4.081
16008,0.2266,0.7729,0.5205,17.395,9.827,9.583,56.706,-17.314,-3.939
16018,0.2603,0.8032,0.4600,9.705,14.709,9.094,56.783,-17.298,-3.757
16028,0.3184,0.8335,0.4414,1.404,14.954,8.667,56.799,-17.298,-3.576
16038,0.3545,0.8657,0.4453,-4.517,9.644,6.165,56.777,-17.325,-3.455
16048,0.3525,0.8760,0.4736,-6.836,1.465,2.991,56.750,-17.364,-3.428
16058,0.3262,0.8428,0.5078,-4.272,-6.958,0.916,56.744,-17.419,-3.483
16068,0.2891,0.8179,0.5210,0.610,-12.756,-0.183,56.794,-17.479,-3.598
16078,0.2642,0.8032,0.5059,6.226,-13.916,0.671,56.898,-17.540,-3.713
16088,0.2744,0.8057,0.4834,9.338,-11.597,3.235,57.036,-17.617,-3.796
16098,0.2979,0.8066,0.4478,7.568,-8.728,5.615,57.167,-17.715,-3.840
16108,0.3359,0.7935,0.4341,3.662,-6.897,5.676,57.250,-17.825,-3.873
16118,0.3535,0.7598,0.4526,-3.723,-8.362,3.845,57.250,-17.941,-3.922
16128,0.3525,0.7461,0.4834,-12.634,-12.329,1.282,57.156,-18.056,-4.026
16138,0.3433,0.7393,0.5137,-18.433,-16.541,0.061,56.997,-18.171,-4.169
16148,0.3237,0.7505,0.5371,-18.372,-18.372,0.854,56.838,-18.292,-4.329
16158,0.3389,0.7808,0.5547,-13.489,-16.174,3.052,56.722,-18.413,-4.455
16168,0.3677,0.8091,0.5713,-4.456,-12.878,6.104,56.678,-18.556,-4.532
16178,0.3477,0.8145,0.5566,7.507,-9.583,7.874,56.755,-18.682,-4.570
16188,0.3818,0.8188,0.5654,13.672,-5.737,7.812,56.882,-18.798,-4.576
16198,0.3970,0.8433,0.5815,12.939,-5.249,5.005,56.997,-18.896,-4.592
16208,0.3408,0.8550,0.5659,9.155,-7.263,-1.831,57.107,-18.913,-4.669
16218,0.2993,0.8398,0.5391,2.563,-7.141,-9.094,57.173,-18.853,-4.785
16228,0.2681,0.8081,0.5127,-4.883,-5.005,-13.733,57.167,-18.732,-4.905
16238,0.2466,0.7847,0.4595,-9.460,-1.160,-16.174,57.134,-18.572,-5.010
16248,0.2871,0.7500,0.4277,-11.353,2.380,-14.832,57.074,-18.430,-5.070
16258,0.3320,0.7573,0.4248,-9.888,1.648,-9.888,57.025,-18.364,-5.114
16268,0.4126,0.7896,0.4751,-4.578,-3.784,-2.563,57.014,-18.424,-5.164
16278,0.4199,0.8252,0.5186,2.747,-12.878,4.333,57.074,-18.578,-5.251
16288,0.3691,0.8481,0.5474,9.155,-19.470,5.920,57.211,-18.748,-5.389
16298,0.3271,0.8447,0.5659,11.292,-19.897,3.784,57.360,-18.875,-5.548
16308,0.2749,0.8008,0.5454,11.658,-15.686,-0.183,57.508,-18.929,-5.685
16318,0.2705,0.7437,0.5317,8.057,-8.606,-3.906,57.585,-18.918,-5.784
16328,0.3037,0.7061,0.5327,1.282,-2.441,-4.395,57.568,-18.891,-5.834
16338,0.3384,0.7163,0.5469,-3.357,-0.061,-2.136,57.491,-18.891,-5.845
16348,0.4019,0.7759,0.6147,-4.822,-1.282,1.953,57.382,-18.946,-5.845
16358,0.3823,0.8193,0.6470,2.686,-5.737,5.798,57.360,-19.039,-5.861
16368,0.3550,0.8413,0.6562,13.550,-7.263,7.751,57.448,-19.133,-5.883
16378,0.3149,0.8169,0.6411,19.836,-4.822,7.935,57.585,-19.204,-5.883
16388,0.2388,0.7808,0.5737,22.583,0.427,5.737,57.761,-19.199,-5.845
16398,0.2041,0.7510,0.4961,18.494,9.277,2.502,57.898,-19.105,-5.746
16408,0.2334,0.7505,0.4419,10.376,17.761,2.136,57.964,-18.990,-5.576
16418,0.2788,0.7715,0.4199,2.991,19.958,4.395,57.958,-18.907,-5.372
16428,0.3496,0.8076,0.4375,-3.723,16.174,6.897,57.903,-18.896,-5.191
16438,0.3911,0.8608,0.4614,-8.179,7.690,7.202,57.827,-18.946,-5.081
16448,0.3594,0.8916,0.4565,-7.751,-0.854,4.578,57.794,-18.995,-5.059
16458,0.3120,0.8662,0.4399,-6.409,-4.883,0.854,57.794,-19.017,-5.103
16468,0.2964,0.8174,0.4326,-6.165,-3.662,-2.991,57.794,-19.001,-5.153
16478,0.2925,0.7729,0.4253,-9.216,-1.160,-5.920,57.750,-18.951,-5.197
16488,0.3081,0.7432,0.4272,-13.306,0.854,-5.676,57.651,-18.907,-5.219
16498,0.3467,0.7563,0.4463,-17.151,1.160,-2.563,57.497,-18.907,-5.224
16508,0.3809,0.8125,0.4819,-18.372,-1.343,1.892,57.332,-18.957,-5.224
16518,0.4053,0.8833,0.5234,-16.968,-5.249,5.737,57.189,-19.061,-5.240
16528,0.4062,0.9150,0.5562,-9.216,-9.460,6.042,57.129,-19.177,-5.290
16538,0.3687,0.8838,0.5635,1.526,-12.024,3.662,57.178,-19.276,-5.372
16548,0.3276,0.8105,0.5635,11.108,-10.681,0.366,57.299,-19.325,-5.466
16558,0.3013,0.7056,0.5459,17.090,-7.080,-1.892,57.442,-19.341,-5.543
16568,0.2920,0.6553,0.5322,16.541,-3.052,-0.183,57.552,-19.352,-5.570
16578,0.3301,0.6860,0.5420,12.329,-0.244,4.333,57.607,-19.407,-5.548
16588,0.3652,0.7583,0.5586,10.071,-0.854,10.376,57.651,-19.517,-5.493
16598,0.3413,0.8496,0.5630,10.559,-3.113,16.968,57.717,-19.666,-5.427
16608,0.3408,0.8506,0.5488,10.681,-2.014,14.587,57.799,-19.786,-5.361
16618,0.3091,0.8320,0.5127,8.301,-0.610,10.315,57.865,-19.852,-5.306
16628,0.2832,0.8101,0.4590,4.211,2.563,5.676,57.914,-19.858,-5.251
16638,0.3276,0.8159,0.4517,-1.038,5.615,2.808,57.914,-19.847,-5.186
16648,0.3687,0.8315,0.4551,-5.188,4.944,1.770,57.881,-19.852,-5.131
16658,0.3843,0.8584,0.4683,-8.057,0.244,0.000,57.832,-19.863,-5.131
16668,0.3770,0.8911,0.4678,-10.620,-5.981,-4.822,57.799,-19.863,-5.213
16678,0.3496,0.8999,0.4639,-10.986,-10.925,-11.108,57.794,-19.819,-5.372
16688,0.3423,0.8755,0.4634,-11.719,-13.123,-15.442,57.794,-19.753,-5.576
16698,0.3184,0.8433,0.4502,-11.475,-13.550,-17.517,57.794,-19.660,-5.801
16708,0.3169,0.8101,0.4429,-11.353,-13.123,-17.944,57.788,-19.572,-6.021
16718,0.3340,0.7827,0.4614,-11.108,-13.794,-17.273,57.772,-19.506,-6.240
16728,0.3682,0.7593,0.5093,-9.338,-16.724,-15.625,57.739,-19.490,-6.476
16738,0.3989,0.7549,0.5728,-7.568,-20.630,-13.184,57.700,-19.523,-6.740
16748,0.3682,0.7637,0.6050,-3.540,-22.888,-10.803,57.695,-19.567,-7.004
16758,0.3315,0.7573,0.6084,1.526,-19.775,-7.263,57.717,-19.600,-7.224
16768,0.2979,0.7461,0.5732,6.653,-10.864,-2.930,57.766,-19.616,-7.339
16778,0.2886,0.7285,0.5273,10.925,-0.183,0.061,57.838,-19.600,-7.339
16788,0.3198,0.7256,0.4907,11.841,8.179,2.625,57.909,-19.583,-7.251
16798,0.3564,0.7520,0.4702,9.827,10.559,4.578,57.964,-19.589,-7.130
16808,0.4043,0.7959,0.4878,7.751,6.165,4.700,58.019,-19.633,-7.048
16818,0.3892,0.8481,0.5049,7.568,-1.038,3.418,58.107,-19.687,-7.037
16828,0.3716,0.8647,0.5083,9.033,-6.531,1.038,58.228,-19.737,-7.092
16838,0.3506,0.8511,0.5161,9.644,-7.751,-1.709,58.354,-19.759,-7.169
16848,0.3184,0.8062,0.5059,8.606,-5.737,-5.127,58.458,-19.731,-7.251
16858,0.2925,0.7383,0.4834,6.287,-2.686,-7.996,58.530,-19.666,-7.322
16868,0.3105,0.7178,0.4805,0.916,0.427,-7.690,58.530,-19.600,-7.361
16878,0.3525,0.7524,0.4985,-3.296,0.977,-3.723,58.480,-19.578,-7.372
16888,0.3740,0.8105,0.5107,-2.991,-1.465,2.197,58.442,-19.622,-7.372
16898,0.3950,0.8730,0.5303,0.366,-3.723,6.531,58.447,-19.709,-7.366
16908,0.3804,0.9043,0.5215,5.981,-4.578,6.897,58.524,-19.797,-7.372
16918,0.3394,0.8696,0.4761,11.475,-2.441,3.479,58.667,-19.830,-7.377
16928,0.3008,0.7891,0.4263,11.536,2.136,-1.160,58.804,-19.797,-7.361
16938,0.2861,0.7290,0.3872,5.798,6.104,-4.700,58.887,-19.720,-7.333
16948,0.3276,0.7222,0.3911,-3.479,7.935,-4.456,58.859,-19.660,-7.284
16958,0.3848,0.7637,0.4429,-9.583,4.639,-0.549,58.766,-19.671,-7.245
16968,0.4053,0.8091,0.5083,-9.766,-2.197,3.845,58.656,-19.748,-7.245
16978,0.3765,0.8306,0.5381,-5.371,-7.507,6.104,58.601,-19.847,-7.278
16988,0.3252,0.8052,0.5303,1.282,-8.118,5.493,58.607,-19.924,-7.322
16998,0.3242,0.7705,0.5098,3.784,-3.235,3.540,58.629,-19.968,-7.333
17008,0.3530,0.7563,0.5083,1.953,1.709,3.113,58.612,-19.995,-7.300
17018,0.3564,0.7847,0.4937,-2.014,3.662,4.089,58.563,-20.023,-7.245
17028,0.3784,0.8198,0.5010,-4.822,3.052,5.371,58.497,-20.067,-7.185
17038,0.3657,0.8486,0.5005,-4.578,1.038,4.883,58.447,-20.105,-7.147
17048,0.3511,0.8506,0.4902,-1.587,-0.671,2.319,58.447,-20.121,-7.141
17058,0.3437,0.8232,0.4795,0.244,-0.793,0.427,58.464,-20.127,-7.147
17068,0.3271,0.7954,0.4551,0.000,-0.732,-0.183,58.486,-20.127,-7.152
17078,0.3584,0.7954,0.4609,-2.869,-0.366,0.305,58.469,-20.143,-7.158
17088,0.4067,0.8301,0.5024,-5.188,-1.770,1.770,58.425,-20.193,-7.163
17098,0.3682,0.8472,0.5156,-3.845,-5.127,2.319,58.398,-20.242,-7.196
17108,0.3271,0.8286,0.5332,-1.160,-5.615,0.244,58.392,-20.253,-7.245
17118,0.3198,0.8188,0.5493,0.427,-1.831,-2.502,58.387,-20.220,-7.278
17128,0.2612,0.7715,0.5034,5.371,2.625,-4.028,58.425,-20.127,-7.273
17137,0.2163,0.7051,0.4268,11.536,8.728,-5.432,58.524,-19.984,-7.224
17148,0.3320,0.7017,0.4199,11.536,14.221,-3.723,58.607,-19.896,-7.119
17158,0.4907,0.8008,0.4990,7.507,9.033,3.845,58.645,-19.962,-7.015
17168,0.5752,0.9272,0.5996,8.667,-6.287,11.841,58.711,-20.165,-7.004
17178,0.4717,0.9839,0.6475,14.893,-21.179,13.794,58.876,-20.413,-7.125
17187,0.2729,0.9565,0.6050,24.353,-21.057,6.470,59.161,-20.506,-7.278
