elapsed_ms,acc_x_g,acc_y_g,acc_z_g,gyro_x_dps,gyro_y_dps,gyro_z_dps,angle_x_deg,angle_y_deg,angle_z_deg
0,-0.3291,0.2852,-0.9248,-0.061,0.610,0.183,163.098,18.726,-62.512
10,-0.3291,0.2852,-0.9185,0.183,0.549,0.183,163.098,18.721,-62.512
20,-0.3262,0.2827,-0.9170,0.366,0.549,0.061,163.098,18.715,-62.512
30,-0.3262,0.2842,-0.9204,0.366,0.610,0.000,163.103,18.710,-62.512
40,-0.3276,0.2822,-0.9238,0.305,0.854,0.000,163.103,18.704,-62.512
50,-0.3281,0.2808,-0.9268,0.305,1.099,-0.061,163.109,18.693,-62.512
60,-0.3267,0.2803,-0.9268,0.000,1.160,-0.183,163.114,18.682,-62.512
70,-0.3257,0.2827,-0.9268,-0.305,0.854,-0.244,163.109,18.671,-62.512
80,-0.3281,0.2827,-0.9277,-0.244,0.427,-0.183,163.109,18.671,-62.512
90,-0.3257,0.2778,-0.9258,-0.122,0.061,-0.183,163.109,18.671,-62.512
100,-0.3267,0.2788,-0.9258,0.122,-0.061,-0.183,163.114,18.671,-62.512
110,-0.3281,0.2759,-0.9263,0.244,-0.122,-0.122,163.120,18.671,-62.512
120,-0.3286,0.2773,-0.9233,0.122,0.061,-0.122,163.120,18.671,-62.512
130,-0.3291,0.2769,-0.9229,-0.183,0.244,-0.061,163.120,18.671,-62.512
141,-0.3301,0.2788,-0.9209,-0.427,0.183,0.061,163.120,18.671,-62.512
150,-0.3311,0.2793,-0.9224,-0.488,0.061,0.061,163.114,18.677,-62.512
160,-0.3296,0.2803,-0.9209,-0.366,-0.061,0.183,163.109,18.677,-62.512
170,-0.3267,0.2812,-0.9214,-0.061,-0.061,0.244,163.103,18.677,-62.512
180,-0.3286,0.2808,-0.9219,0.122,0.000,0.244,163.103,18.682,-62.512
190,-0.3286,0.2812,-0.9229,0.061,0.122,0.244,163.103,18.677,-62.512
200,-0.3267,0.2822,-0.9219,-0.122,0.183,0.122,163.103,18.677,-62.512
210,-0.3257,0.2832,-0.9238,-0.366,0.122,0.061,163.098,18.677,-62.512
220,-0.3271,0.2842,-0.9224,-0.427,0.244,-0.061,163.092,18.671,-62.512
230,-0.3276,0.2866,-0.9238,-0.366,0.305,-0.122,163.087,18.671,-62.512
240,-0.3267,0.2852,-0.9253,0.000,0.305,-0.183,163.081,18.671,-62.512
250,-0.3276,0.2822,-0.9258,0.244,0.244,-0.244,163.087,18.666,-62.512
260,-0.3257,0.2808,-0.9263,0.122,0.000,-0.305,163.087,18.666,-62.512
270,-0.3286,0.2812,-0.9238,-0.305,-0.366,-0.305,163.087,18.671,-62.512
280,-0.3276,0.2832,-0.9277,-0.793,-0.427,-0.366,163.081,18.677,-62.512
290,-0.3276,0.2803,-0.9287,-0.854,-0.122,-0.427,163.070,18.682,-62.512
300,-0.3281,0.2783,-0.9233,-0.732,0.122,-0.549,163.070,18.682,-62.512
310,-0.3267,0.2769,-0.9233,-0.732,0.061,-0.610,163.065,18.682,-62.512
320,-0.3247,0.2783,-0.9243,-0.793,-0.366,-0.549,163.059,18.688,-62.512
330,-0.3281,0.2773,-0.9233,-0.671,-0.732,-0.305,163.059,18.699,-62.512
340,-0.3315,0.2759,-0.9194,-0.488,-0.793,-0.061,163.054,18.710,-62.512
350,-0.3320,0.2734,-0.9155,-0.366,-0.854,-0.061,163.054,18.721,-62.512
360,-0.3311,0.2725,-0.9180,-0.610,-0.732,0.061,163.048,18.732,-62.512
370,-0.3296,0.2778,-0.9199,-0.916,-0.244,0.183,163.043,18.737,-62.512
380,-0.3301,0.2803,-0.9199,-0.916,0.549,0.366,163.032,18.732,-62.512
390,-0.3271,0.2793,-0.9224,-0.732,0.916,0.366,163.026,18.721,-62.512
400,-0.3276,0.2812,-0.9263,-0.549,0.793,0.244,163.021,18.715,-62.512
410,-0.3252,0.2817,-0.9292,-0.488,0.366,0.305,163.015,18.710,-62.512
420,-0.3237,0.2822,-0.9302,-0.488,-0.061,0.366,163.010,18.704,-62.512
430,-0.3252,0.2788,-0.9297,-0.488,-0.244,0.427,163.010,18.704,-62.512
440,-0.3267,0.2788,-0.9268,-0.671,-0.427,0.427,163.004,18.704,-62.512
450,-0.3291,0.2798,-0.9253,-0.732,-0.549,0.427,162.993,18.710,-62.512
460,-0.3271,0.2822,-0.9233,-0.854,-0.549,0.549,162.982,18.715,-62.512
470,-0.3267,0.2832,-0.9214,-0.793,-0.610,0.671,162.971,18.715,-62.512
480,-0.3291,0.2822,-0.9204,-0.671,-0.854,0.610,162.966,18.726,-62.512
490,-0.3315,0.2852,-0.9180,-0.732,-1.099,0.549,162.949,18.737,-62.512
500,-0.3330,0.2861,-0.9160,-0.732,-0.977,0.549,162.938,18.748,-62.512
510,-0.3335,0.2866,-0.9150,-0.671,-0.610,0.549,162.927,18.759,-62.512
520,-0.3320,0.2847,-0.9136,-0.488,-0.183,0.427,162.916,18.765,-62.512
530,-0.3306,0.2866,-0.9180,-0.427,0.000,0.305,162.911,18.765,-62.512
540,-0.3301,0.2881,-0.9204,-0.244,0.061,0.305,162.905,18.765,-62.512
550,-0.3301,0.2866,-0.9199,0.061,0.122,0.366,162.900,18.765,-62.512
560,-0.3286,0.2856,-0.9165,0.122,0.122,0.244,162.900,18.765,-62.512
570,-0.3315,0.2876,-0.9180,0.000,0.000,0.183,162.894,18.765,-62.512
580,-0.3330,0.2866,-0.9214,-0.122,0.000,0.122,162.889,18.765,-62.512
590,-0.3325,0.2881,-0.9204,-0.305,0.183,0.122,162.883,18.765,-62.512
600,-0.3306,0.2905,-0.9204,-0.427,0.305,0.000,162.878,18.765,-62.512
610,-0.3286,0.2896,-0.9253,-0.305,0.366,-0.244,162.872,18.765,-62.512
620,-0.3291,0.2896,-0.9229,0.000,0.244,-0.366,162.872,18.759,-62.512
630,-0.3301,0.2852,-0.9204,0.183,0.061,-0.488,162.872,18.765,-62.512
641,-0.3296,0.2842,-0.9204,0.122,-0.183,-0.610,162.878,18.770,-62.512
650,-0.3301,0.2817,-0.9204,-0.122,-0.183,-0.671,162.878,18.776,-62.512
660,-0.3311,0.2817,-0.9199,-0.305,0.000,-0.610,162.878,18.776,-62.512
670,-0.3306,0.2822,-0.9185,-0.427,0.244,-0.488,162.878,18.781,-62.512
680,-0.3306,0.2798,-0.9219,-0.305,0.366,-0.427,162.878,18.776,-62.512
690,-0.3286,0.2783,-0.9224,-0.061,0.244,-0.366,162.883,18.776,-62.512
700,-0.3276,0.2788,-0.9233,0.122,0.061,-0.244,162.889,18.776,-62.512
710,-0.3276,0.2783,-0.9253,0.061,-0.122,-0.122,162.889,18.781,-62.512
720,-0.3291,0.2812,-0.9238,0.000,-0.183,-0.061,162.894,18.781,-62.512
730,-0.3301,0.2812,-0.9219,-0.061,0.000,0.000,162.894,18.781,-62.512
740,-0.3311,0.2783,-0.9214,-0.061,0.122,0.061,162.894,18.781,-62.512
750,-0.3306,0.2793,-0.9194,-0.122,-0.122,0.061,162.894,18.787,-62.512
760,-0.3315,0.2808,-0.9185,-0.183,-0.488,0.183,162.894,18.792,-62.512
770,-0.3325,0.2798,-0.9136,-0.305,-0.610,0.305,162.889,18.803,-62.512
780,-0.3330,0.2827,-0.9136,-0.427,-0.549,0.366,162.883,18.809,-62.512
790,-0.3325,0.2822,-0.9121,-0.671,-0.488,0.427,162.872,18.820,-62.512
800,-0.3315,0.2871,-0.9155,-0.671,0.000,0.427,162.861,18.820,-62.512
810,-0.3291,0.2905,-0.9185,-0.183,0.732,0.488,162.856,18.809,-62.512
820,-0.3286,0.2915,-0.9209,0.488,1.404,0.549,162.856,18.798,-62.512
830,-0.3276,0.2886,-0.9258,0.977,1.465,0.366,162.867,18.781,-62.512
840,-0.3276,0.2886,-0.9292,0.977,0.977,0.183,162.872,18.770,-62.512
850,-0.3315,0.2856,-0.9316,0.671,0.488,0.000,162.883,18.765,-62.512
860,-0.3320,0.2881,-0.9326,0.000,0.122,-0.122,162.883,18.765,-62.512
870,-0.3301,0.2910,-0.9316,-0.488,-0.061,-0.366,162.878,18.765,-62.512
880,-0.3296,0.2925,-0.9312,-0.488,-0.244,-0.488,162.867,18.765,-62.512
890,-0.3315,0.2910,-0.9272,-0.244,-0.366,-0.549,162.867,18.770,-62.512
900,-0.3271,0.2861,-0.9248,0.061,-0.671,-0.610,162.867,18.781,-62.512
910,-0.3262,0.2832,-0.9219,0.122,-0.977,-0.732,162.872,18.792,-62.512
920,-0.3296,0.2773,-0.9175,-0.122,-1.038,-0.854,162.872,18.803,-62.512
930,-0.3311,0.2754,-0.9106,-0.549,-1.038,-0.977,162.872,18.820,-62.512
940,-0.3335,0.2739,-0.9116,-0.916,-0.732,-0.916,162.872,18.836,-62.512
950,-0.3364,0.2769,-0.9077,-0.854,-0.244,-0.671,162.867,18.847,-62.512
960,-0.3374,0.2759,-0.9087,-0.305,0.366,-0.305,162.867,18.853,-62.512
970,-0.3335,0.2764,-0.9102,0.427,0.854,-0.061,162.872,18.847,-62.512
980,-0.3291,0.2759,-0.9136,0.854,0.916,0.122,162.889,18.842,-62.512
990,-0.3306,0.2759,-0.9185,0.671,0.916,0.244,162.894,18.831,-62.512
1000,-0.3306,0.2769,-0.9214,0.122,1.099,0.366,162.900,18.825,-62.512
1010,-0.3286,0.2812,-0.9253,-0.488,1.282,0.427,162.900,18.809,-62.512
1020,-0.3301,0.2866,-0.9277,-0.610,1.343,0.488,162.894,18.792,-62.512
1030,-0.3291,0.2886,-0.9321,-0.183,1.221,0.549,162.889,18.781,-62.512
1040,-0.3271,0.2881,-0.9331,0.549,0.916,0.549,162.894,18.765,-62.512
1050,-0.3247,0.2852,-0.9336,0.977,0.366,0.549,162.900,18.759,-62.512
1060,-0.3262,0.2837,-0.9326,0.793,-0.366,0.488,162.911,18.759,-62.512
1070,-0.3267,0.2822,-0.9282,0.122,-0.916,0.305,162.911,18.765,-62.512
1080,-0.3306,0.2832,-0.9243,-0.610,-1.160,0.183,162.905,18.776,-62.512
1090,-0.3325,0.2837,-0.9204,-0.977,-1.160,0.122,162.894,18.787,-62.512
1100,-0.3320,0.2852,-0.9165,-0.793,-0.977,0.122,162.883,18.803,-62.512
1110,-0.3320,0.2871,-0.9141,-0.183,-0.793,0.183,162.872,18.809,-62.512
1120,-0.3335,0.2866,-0.9155,0.549,-0.610,0.244,162.878,18.820,-62.512
1130,-0.3330,0.2822,-0.9136,0.977,-0.549,0.305,162.883,18.825,-62.512
1141,-0.3315,0.2837,-0.9146,0.916,-0.427,0.244,162.889,18.836,-62.512
1150,-0.3306,0.2832,-0.9160,0.427,-0.183,0.122,162.894,18.836,-62.512
1160,-0.3325,0.2827,-0.9155,-0.061,0.183,0.061,162.894,18.836,-62.512
1170,-0.3320,0.2847,-0.9160,-0.427,0.488,0.000,162.889,18.836,-62.512
1180,-0.3330,0.2861,-0.9170,-0.488,0.610,-0.061,162.878,18.831,-62.512
1190,-0.3330,0.2866,-0.9180,-0.122,0.671,0.000,162.878,18.831,-62.512
1200,-0.3311,0.2866,-0.9219,0.427,0.671,0.061,162.883,18.825,-62.512
1210,-0.3296,0.2871,-0.9214,0.610,0.549,0.000,162.883,18.820,-62.512
1220,-0.3296,0.2852,-0.9224,0.549,0.549,-0.122,162.889,18.814,-62.512
1230,-0.3296,0.2852,-0.9263,0.305,0.549,-0.244,162.894,18.809,-62.512
1240,-0.3301,0.2871,-0.9248,-0.061,0.488,-0.244,162.894,18.809,-62.512
1250,-0.3296,0.2886,-0.9258,-0.183,0.305,-0.305,162.894,18.803,-62.512
1260,-0.3281,0.2852,-0.9253,0.122,0.061,-0.366,162.894,18.803,-62.512
1270,-0.3281,0.2808,-0.9224,0.244,-0.244,-0.488,162.900,18.809,-62.512
1280,-0.3291,0.2827,-0.9253,0.122,-0.366,-0.488,162.905,18.814,-62.512
1290,-0.3276,0.2812,-0.9248,-0.122,-0.183,-0.488,162.905,18.814,-62.512
1300,-0.3296,0.2793,-0.9233,-0.366,0.061,-0.488,162.905,18.814,-62.512
1310,-0.3291,0.2793,-0.9233,-0.610,-0.061,-0.488,162.905,18.820,-62.512
1320,-0.3306,0.2803,-0.9233,-0.610,-0.305,-0.366,162.900,18.825,-62.512
1330,-0.3276,0.2803,-0.9238,-0.061,-0.427,-0.122,162.900,18.825,-62.512
1340,-0.3301,0.2783,-0.9209,0.488,-0.305,0.061,162.911,18.831,-62.512
1350,-0.3281,0.2783,-0.9214,0.671,-0.244,0.183,162.916,18.831,-62.512
1360,-0.3311,0.2764,-0.9175,0.549,-0.183,0.183,162.927,18.836,-62.512
1370,-0.3335,0.2773,-0.9185,0.061,-0.061,0.305,162.927,18.836,-62.512
1380,-0.3345,0.2803,-0.9160,-0.244,-0.061,0.366,162.927,18.842,-62.512
1390,-0.3335,0.2837,-0.9170,-0.488,-0.244,0.305,162.916,18.847,-62.512
1400,-0.3345,0.2861,-0.9180,-0.366,-0.244,0.366,162.911,18.853,-62.512
1410,-0.3311,0.2842,-0.9175,0.061,0.000,0.488,162.911,18.853,-62.512
1420,-0.3311,0.2842,-0.9175,0.183,0.305,0.488,162.905,18.847,-62.512
1430,-0.3291,0.2856,-0.9194,0.061,0.549,0.427,162.905,18.842,-62.512
1440,-0.3306,0.2886,-0.9229,0.061,0.732,0.427,162.905,18.836,-62.512
1450,-0.3262,0.2891,-0.9238,0.061,0.916,0.366,162.900,18.825,-62.512
1460,-0.3291,0.2881,-0.9224,0.000,0.793,0.183,162.900,18.814,-62.512
1470,-0.3296,0.2891,-0.9243,-0.183,0.427,0.000,162.894,18.809,-62.512
1480,-0.3296,0.2910,-0.9292,-0.183,0.244,-0.122,162.889,18.809,-62.512
1490,-0.3301,0.2891,-0.9258,-0.122,0.122,-0.244,162.889,18.809,-62.512
1500,-0.3301,0.2871,-0.9258,-0.061,0.061,-0.427,162.889,18.809,-62.512
1510,-0.3291,0.2866,-0.9233,-0.122,-0.183,-0.549,162.889,18.809,-62.512
1520,-0.3301,0.2847,-0.9194,-0.244,-0.488,-0.610,162.883,18.820,-62.512
1530,-0.3296,0.2822,-0.9185,-0.305,-0.549,-0.549,162.883,18.825,-62.512
1540,-0.3315,0.2803,-0.9160,-0.366,-0.488,-0.549,162.883,18.836,-62.512
1550,-0.3320,0.2812,-0.9146,-0.305,-0.183,-0.610,162.878,18.842,-62.512
1561,-0.3335,0.2808,-0.9146,-0.183,0.122,-0.488,162.883,18.847,-62.512
1571,-0.3320,0.2783,-0.9141,0.061,0.366,-0.366,162.883,18.847,-62.512
1581,-0.3320,0.2773,-0.9155,0.183,0.366,-0.244,162.889,18.847,-62.512
1591,-0.3296,0.2793,-0.9199,0.244,0.244,-0.061,162.894,18.847,-62.512
1600,-0.3311,0.2778,-0.9199,0.305,0.305,0.000,162.900,18.847,-62.512
1611,-0.3306,0.2778,-0.9209,0.244,0.427,0.122,162.905,18.842,-62.512
1621,-0.3311,0.2808,-0.9253,-0.061,0.488,0.122,162.911,18.836,-62.512
1631,-0.3286,0.2808,-0.9263,-0.305,0.549,0.122,162.911,18.831,-62.512
1641,-0.3281,0.2803,-0.9277,-0.244,0.488,0.244,162.911,18.825,-62.512
1650,-0.3267,0.2817,-0.9268,-0.183,0.122,0.305,162.905,18.820,-62.512
1661,-0.3286,0.2832,-0.9263,-0.122,-0.244,0.366,162.905,18.820,-62.512
1671,-0.3281,0.2837,-0.9253,-0.122,-0.549,0.427,162.905,18.825,-62.512
1681,-0.3301,0.2812,-0.9243,-0.183,-0.671,0.427,162.900,18.831,-62.512
1691,-0.3311,0.2822,-0.9238,-0.305,-0.671,0.427,162.894,18.836,-62.512
1701,-0.3315,0.2852,-0.9238,-0.366,-0.671,0.366,162.889,18.842,-62.512
1711,-0.3325,0.2837,-0.9219,-0.183,-0.610,0.427,162.889,18.847,-62.512
1721,-0.3320,0.2812,-0.9165,0.000,-0.732,0.427,162.883,18.858,-62.512
1731,-0.3320,0.2832,-0.9189,0.000,-0.793,0.427,162.883,18.864,-62.512
1741,-0.3340,0.2832,-0.9175,-0.122,-0.793,0.488,162.878,18.875,-62.512
1751,-0.3330,0.2817,-0.9155,-0.122,-0.549,0.549,162.878,18.880,-62.512
1761,-0.3315,0.2827,-0.9155,-0.183,-0.305,0.549,162.872,18.885,-62.512
1771,-0.3315,0.2871,-0.9160,-0.244,0.000,0.488,162.867,18.885,-62.512
1781,-0.3330,0.2852,-0.9185,-0.122,0.244,0.427,162.861,18.880,-62.512
1791,-0.3345,0.2847,-0.9175,0.000,0.427,0.427,162.861,18.880,-62.512
1801,-0.3315,0.2876,-0.9180,-0.061,0.427,0.305,162.856,18.875,-62.512
1811,-0.3330,0.2896,-0.9194,-0.122,0.305,0.244,162.850,18.875,-62.512
1821,-0.3335,0.2896,-0.9204,0.000,0.244,0.244,162.845,18.875,-62.512
1831,-0.3315,0.2876,-0.9189,0.244,0.244,0.122,162.845,18.875,-62.512
1841,-0.3325,0.2900,-0.9209,0.366,0.183,0.000,162.845,18.875,-62.512
1851,-0.3301,0.2896,-0.9233,0.366,0.122,-0.122,162.850,18.869,-62.512
1861,-0.3291,0.2896,-0.9224,0.366,0.122,-0.244,162.850,18.869,-62.512
1871,-0.3296,0.2876,-0.9243,0.305,0.061,-0.427,162.856,18.869,-62.512
1881,-0.3315,0.2866,-0.9224,0.061,-0.122,-0.549,162.856,18.875,-62.512
1891,-0.3306,0.2891,-0.9199,-0.183,-0.427,-0.610,162.850,18.880,-62.512
1901,-0.3296,0.2866,-0.9180,-0.183,-0.549,-0.610,162.850,18.885,-62.512
1911,-0.3320,0.2856,-0.9189,-0.122,-0.427,-0.671,162.850,18.896,-62.512
1921,-0.3320,0.2837,-0.9189,0.061,-0.183,-0.610,162.850,18.902,-62.512
1931,-0.3306,0.2832,-0.9209,0.122,0.061,-0.671,162.856,18.902,-62.512
1941,-0.3306,0.2822,-0.9233,0.122,0.183,-0.671,162.861,18.902,-62.512
1951,-0.3301,0.2803,-0.9253,0.122,0.122,-0.671,162.867,18.902,-62.512
1961,-0.3311,0.2788,-0.9229,-0.061,-0.183,-0.610,162.872,18.907,-62.512
1971,-0.3315,0.2803,-0.9214,-0.244,-0.427,-0.549,162.872,18.913,-62.512
1981,-0.3311,0.2803,-0.9238,-0.183,-0.427,-0.488,162.872,18.918,-62.512
1991,-0.3325,0.2788,-0.9175,-0.122,-0.183,-0.366,162.878,18.924,-62.512
2001,-0.3325,0.2803,-0.9160,-0.183,0.061,-0.305,162.878,18.924,-62.512
2011,-0.3325,0.2808,-0.9185,-0.366,0.000,-0.305,162.872,18.929,-62.512
2021,-0.3325,0.2812,-0.9170,-0.488,-0.183,-0.183,162.872,18.935,-62.512
2031,-0.3320,0.2803,-0.9165,-0.610,-0.305,-0.122,162.867,18.935,-62.512
2041,-0.3345,0.2803,-0.9150,-0.671,-0.366,-0.061,162.861,18.946,-62.512
2051,-0.3320,0.2842,-0.9185,-0.732,-0.183,-0.061,162.850,18.946,-62.512
2061,-0.3320,0.2856,-0.9238,-0.427,0.305,0.061,162.850,18.946,-62.512
2071,-0.3301,0.2847,-0.9263,-0.061,0.732,0.122,162.850,18.935,-62.512
2081,-0.3296,0.2837,-0.9248,0.061,0.793,0.061,162.850,18.929,-62.512
2091,-0.3296,0.2842,-0.9277,0.000,0.427,-0.061,162.850,18.924,-62.512
2101,-0.3311,0.2852,-0.9297,-0.427,-0.061,-0.122,162.850,18.918,-62.512
2111,-0.3296,0.2861,-0.9287,-0.854,-0.427,-0.122,162.839,18.924,-62.512
2121,-0.3320,0.2871,-0.9282,-1.038,-0.732,-0.244,162.828,18.929,-62.512
2131,-0.3291,0.2847,-0.9277,-0.854,-0.854,-0.244,162.823,18.940,-62.512
2141,-0.3291,0.2832,-0.9204,-0.488,-0.977,-0.244,162.817,18.946,-62.512
2151,-0.3286,0.2793,-0.9170,-0.183,-1.221,-0.183,162.817,18.957,-62.512
2161,-0.3325,0.2798,-0.9155,-0.244,-1.343,-0.061,162.817,18.973,-62.512
2171,-0.3335,0.2773,-0.9150,-0.549,-1.221,0.000,162.812,18.990,-62.512
2181,-0.3359,0.2778,-0.9141,-0.854,-0.854,0.122,162.806,19.001,-62.512
2191,-0.3364,0.2788,-0.9141,-0.977,-0.427,0.183,162.795,19.006,-62.512
2201,-0.3345,0.2812,-0.9131,-0.732,0.000,0.244,162.790,19.006,-62.512
2211,-0.3335,0.2812,-0.9189,-0.244,0.061,0.427,162.790,19.006,-62.512
2221,-0.3325,0.2822,-0.9194,0.366,-0.183,0.549,162.790,19.012,-62.512
2231,-0.3320,0.2812,-0.9185,0.549,-0.427,0.671,162.795,19.012,-62.512
2241,-0.3320,0.2808,-0.9209,0.183,-0.610,0.671,162.795,19.017,-62.512
2251,-0.3325,0.2856,-0.9209,-0.488,-0.488,0.671,162.790,19.017,-62.512
2261,-0.3335,0.2896,-0.9229,-0.916,-0.183,0.671,162.779,19.017,-62.512
2271,-0.3320,0.2891,-0.9194,-0.916,0.061,0.549,162.762,19.017,-62.512
2281,-0.3296,0.2920,-0.9214,-0.610,0.000,0.488,162.751,19.012,-62.512
2291,-0.3291,0.2915,-0.9229,-0.244,-0.305,0.427,162.746,19.012,-62.512
2301,-0.3286,0.2905,-0.9224,-0.061,-0.549,0.366,162.740,19.012,-62.512
2311,-0.3315,0.2861,-0.9209,-0.305,-0.610,0.244,162.735,19.017,-62.512
2321,-0.3325,0.2817,-0.9194,-0.854,-0.671,0.061,162.729,19.023,-62.512
2331,-0.3364,0.2847,-0.9170,-1.404,-0.671,0.061,162.713,19.034,-62.512
2341,-0.3350,0.2891,-0.9175,-1.282,-0.549,0.183,162.697,19.039,-62.512
2351,-0.3359,0.2905,-0.9165,-0.610,-0.366,0.366,162.686,19.045,-62.512
2361,-0.3354,0.2871,-0.9131,0.122,-0.427,0.427,162.686,19.050,-62.512
2371,-0.3350,0.2881,-0.9141,0.549,-0.549,0.427,162.686,19.056,-62.512
2381,-0.3345,0.2886,-0.9146,0.488,-0.549,0.366,162.691,19.061,-62.512
2391,-0.3340,0.2891,-0.9136,0.183,-0.244,0.244,162.686,19.067,-62.512
2401,-0.3369,0.2861,-0.9121,-0.244,0.122,0.000,162.686,19.067,-62.512
2411,-0.3369,0.2876,-0.9150,-0.671,0.305,-0.244,162.675,19.067,-62.512
2421,-0.3354,0.2920,-0.9185,-0.732,0.305,-0.305,162.669,19.067,-62.512
2431,-0.3335,0.2915,-0.9185,-0.305,0.366,-0.244,162.664,19.067,-62.512
2441,-0.3325,0.2886,-0.9194,0.183,0.305,-0.183,162.664,19.061,-62.512
2451,-0.3330,0.2861,-0.9238,0.366,0.122,-0.183,162.669,19.061,-62.512
2461,-0.3345,0.2842,-0.9224,0.244,-0.122,-0.183,162.675,19.067,-62.512
2471,-0.3350,0.2827,-0.9204,-0.122,-0.305,-0.183,162.675,19.067,-62.512
2481,-0.3350,0.2817,-0.9189,-0.549,-0.305,-0.244,162.675,19.072,-62.512
2491,-0.3335,0.2852,-0.9180,-0.671,-0.305,-0.305,162.669,19.078,-62.512
2501,-0.3325,0.2881,-0.9229,-0.488,-0.122,-0.305,162.664,19.078,-62.512
2511,-0.3335,0.2866,-0.9224,0.061,0.061,-0.305,162.669,19.078,-62.512
2521,-0.3325,0.2837,-0.9209,0.549,0.183,-0.183,162.675,19.078,-62.512
2531,-0.3306,0.2827,-0.9185,0.793,-0.061,-0.122,162.686,19.078,-62.512
2541,-0.3311,0.2812,-0.9189,0.732,-0.488,-0.061,162.697,19.083,-62.512
2551,-0.3335,0.2812,-0.9175,0.244,-0.732,0.000,162.702,19.089,-62.512
2561,-0.3350,0.2808,-0.9189,-0.244,-0.610,0.122,162.702,19.094,-62.512
2571,-0.3320,0.2847,-0.9204,-0.488,-0.183,0.122,162.697,19.100,-62.512
2581,-0.3320,0.2881,-0.9224,-0.244,0.244,0.122,162.691,19.094,-62.512
2591,-0.3335,0.2861,-0.9214,0.244,0.305,0.061,162.697,19.089,-62.512
2601,-0.3306,0.2852,-0.9229,0.488,0.000,0.122,162.702,19.089,-62.512
2611,-0.3315,0.2847,-0.9248,0.610,-0.488,0.244,162.708,19.089,-62.512
2621,-0.3320,0.2847,-0.9204,0.610,-0.732,0.305,162.713,19.094,-62.512
2631,-0.3350,0.2842,-0.9185,0.488,-0.793,0.366,162.719,19.105,-62.512
2641,-0.3379,0.2847,-0.9150,0.244,-0.732,0.366,162.719,19.111,-62.512
2651,-0.3398,0.2847,-0.9121,0.183,-0.549,0.366,162.719,19.122,-62.512
2661,-0.3398,0.2842,-0.9102,0.183,-0.427,0.488,162.719,19.127,-62.512
2671,-0.3379,0.2871,-0.9077,0.183,-0.305,0.488,162.713,19.133,-62.512
2681,-0.3350,0.2861,-0.9111,0.305,-0.122,0.488,162.713,19.133,-62.512
2691,-0.3350,0.2871,-0.9102,0.305,0.122,0.427,162.713,19.133,-62.512
2701,-0.3325,0.2896,-0.9131,0.122,0.488,0.366,162.713,19.127,-62.512
2711,-0.3340,0.2886,-0.9155,-0.061,0.793,0.244,162.708,19.122,-62.512
2721,-0.3335,0.2910,-0.9175,-0.183,0.977,0.122,162.702,19.111,-62.512
2731,-0.3350,0.2900,-0.9189,-0.122,0.977,-0.061,162.702,19.105,-62.512
2741,-0.3354,0.2910,-0.9199,-0.061,0.916,-0.183,162.702,19.094,-62.512
2751,-0.3335,0.2915,-0.9233,0.122,0.793,-0.305,162.702,19.089,-62.512
2761,-0.3340,0.2910,-0.9238,0.427,0.610,-0.305,162.702,19.083,-62.512
2771,-0.3330,0.2886,-0.9233,0.488,0.427,-0.366,162.708,19.078,-62.512
2781,-0.3301,0.2886,-0.9258,0.488,0.122,-0.427,162.719,19.078,-62.512
2791,-0.3325,0.2881,-0.9219,0.366,-0.122,-0.488,162.719,19.078,-62.512
2801,-0.3354,0.2866,-0.9243,0.244,-0.305,-0.549,162.724,19.083,-62.512
2811,-0.3359,0.2842,-0.9204,0.061,-0.366,-0.671,162.729,19.089,-62.512
2821,-0.3364,0.2832,-0.9219,-0.183,-0.244,-0.732,162.729,19.094,-62.512
2831,-0.3345,0.2827,-0.9185,-0.366,-0.122,-0.793,162.729,19.100,-62.512
2841,-0.3325,0.2812,-0.9150,-0.305,-0.122,-0.671,162.729,19.105,-62.512
2851,-0.3320,0.2793,-0.9146,-0.061,-0.183,-0.488,162.735,19.111,-62.512
2861,-0.3354,0.2773,-0.9146,0.305,-0.244,-0.366,162.746,19.116,-62.512
2871,-0.3359,0.2769,-0.9160,0.366,-0.122,-0.122,162.751,19.116,-62.512
2881,-0.3350,0.2793,-0.9165,0.244,0.061,0.061,162.757,19.116,-62.512
2891,-0.3369,0.2803,-0.9175,0.061,0.244,0.244,162.762,19.116,-62.512
2901,-0.3354,0.2842,-0.9209,0.000,0.488,0.244,162.762,19.111,-62.512
2911,-0.3340,0.2842,-0.9243,0.061,0.610,0.183,162.762,19.105,-62.512
2921,-0.3320,0.2842,-0.9258,0.122,0.488,0.122,162.768,19.100,-62.512
2931,-0.3320,0.2827,-0.9277,0.244,0.183,0.122,162.768,19.094,-62.512
2941,-0.3296,0.2803,-0.9263,0.122,-0.244,0.122,162.773,19.094,-62.512
2951,-0.3311,0.2783,-0.9258,-0.183,-0.671,0.183,162.779,19.100,-62.512
2961,-0.3306,0.2798,-0.9229,-0.427,-0.916,0.305,162.773,19.105,-62.512
2971,-0.3340,0.2812,-0.9199,-0.549,-0.916,0.488,162.768,19.111,-62.512
2981,-0.3364,0.2788,-0.9175,-0.488,-0.854,0.671,162.762,19.122,-62.512
2991,-0.3354,0.2827,-0.9160,-0.305,-0.793,0.793,162.757,19.127,-62.512
3001,-0.3359,0.2842,-0.9170,0.000,-0.549,0.916,162.757,19.133,-62.512
3011,-0.3345,0.2856,-0.9170,0.244,-0.244,0.977,162.751,19.133,-62.512
3021,-0.3350,0.2842,-0.9180,0.305,-0.122,0.916,162.751,19.133,-62.512
3031,-0.3330,0.2847,-0.9189,0.122,-0.183,0.793,162.751,19.127,-62.512
3041,-0.3330,0.2871,-0.9185,-0.122,-0.244,0.732,162.746,19.127,-62.512
3051,-0.3350,0.2900,-0.9189,-0.122,-0.183,0.671,162.740,19.127,-62.512
3061,-0.3354,0.2900,-0.9185,-0.061,-0.122,0.671,162.735,19.127,-62.512
3071,-0.3340,0.2900,-0.9185,0.122,-0.061,0.671,162.729,19.127,-62.512
3081,-0.3354,0.2891,-0.9199,0.305,-0.061,0.610,162.729,19.127,-62.512
3091,-0.3340,0.2920,-0.9170,0.244,-0.244,0.549,162.729,19.127,-62.512
3101,-0.3335,0.2915,-0.9160,0.122,-0.488,0.427,162.724,19.133,-62.512
3111,-0.3359,0.2905,-0.9165,-0.061,-0.610,0.244,162.719,19.138,-62.512
3121,-0.3374,0.2891,-0.9136,-0.061,-0.488,0.061,162.713,19.144,-62.512
3131,-0.3369,0.2886,-0.9126,0.000,-0.244,-0.122,162.713,19.149,-62.512
3142,-0.3359,0.2871,-0.9155,0.000,-0.061,-0.244,162.713,19.155,-62.512
3151,-0.3364,0.2866,-0.9185,0.183,0.244,-0.244,162.713,19.155,-62.512
3161,-0.3369,0.2847,-0.9204,0.244,0.427,-0.244,162.719,19.149,-62.512
3171,-0.3369,0.2856,-0.9189,0.244,0.366,-0.183,162.719,19.149,-62.512
3181,-0.3364,0.2861,-0.9189,0.183,0.183,-0.244,162.724,19.149,-62.512
3191,-0.3340,0.2842,-0.9189,0.061,0.000,-0.305,162.724,19.149,-62.512
3201,-0.3335,0.2847,-0.9199,-0.244,-0.183,-0.305,162.724,19.155,-62.512
3211,-0.3320,0.2852,-0.9199,-0.366,-0.122,-0.366,162.724,19.155,-62.512
3221,-0.3320,0.2827,-0.9185,-0.244,0.000,-0.366,162.724,19.155,-62.512
3231,-0.3311,0.2822,-0.9243,0.000,0.122,-0.427,162.729,19.149,-62.512
3241,-0.3315,0.2803,-0.9253,0.244,0.000,-0.427,162.735,19.149,-62.512
3251,-0.3325,0.2773,-0.9219,0.244,-0.183,-0.244,162.746,19.149,-62.512
3261,-0.3374,0.2764,-0.9214,0.122,-0.610,-0.061,162.751,19.160,-62.512
3271,-0.3389,0.2769,-0.9165,-0.061,-0.793,0.122,162.751,19.171,-62.512
3281,-0.3389,0.2783,-0.9160,-0.122,-0.671,0.305,162.751,19.177,-62.512
3291,-0.3359,0.2817,-0.9102,0.000,-0.427,0.488,162.751,19.182,-62.512
3301,-0.3374,0.2817,-0.9058,0.122,-0.366,0.549,162.751,19.188,-62.512
3311,-0.3374,0.2803,-0.9043,0.244,-0.244,0.610,162.751,19.193,-62.512
3321,-0.3379,0.2832,-0.9063,0.183,-0.061,0.671,162.751,19.199,-62.512
3331,-0.3389,0.2842,-0.9077,0.183,0.305,0.671,162.746,19.199,-62.512
3341,-0.3379,0.2856,-0.9131,0.122,0.916,0.610,162.746,19.188,-62.512
3351,-0.3350,0.2886,-0.9155,0.305,1.465,0.549,162.746,19.171,-62.512
3361,-0.3350,0.2886,-0.9209,0.488,1.770,0.488,162.751,19.155,-62.512
3371,-0.3345,0.2935,-0.9253,0.549,1.770,0.427,162.751,19.138,-62.512
3381,-0.3335,0.2939,-0.9297,0.549,1.526,0.366,162.757,19.116,-62.512
3391,-0.3286,0.2944,-0.9326,0.366,1.038,0.244,162.757,19.100,-62.512
3401,-0.3315,0.2939,-0.9326,0.183,0.488,-0.061,162.757,19.094,-62.512
3411,-0.3315,0.2920,-0.9272,0.000,-0.061,-0.366,162.757,19.094,-62.512
3421,-0.3311,0.2920,-0.9248,-0.244,-0.488,-0.610,162.751,19.094,-62.512
3431,-0.3335,0.2891,-0.9189,-0.366,-0.671,-0.732,162.746,19.105,-62.512
3441,-0.3364,0.2866,-0.9136,-0.183,-0.610,-0.854,162.746,19.116,-62.512
3451,-0.3359,0.2827,-0.9111,0.122,-0.305,-0.916,162.751,19.127,-62.512
3461,-0.3364,0.2798,-0.9111,0.305,0.122,-0.916,162.757,19.127,-62.512
3471,-0.3389,0.2769,-0.9131,0.183,0.549,-0.793,162.768,19.133,-62.512
3481,-0.3398,0.2778,-0.9141,0.000,0.854,-0.610,162.773,19.127,-62.512
3491,-0.3359,0.2773,-0.9141,0.000,0.977,-0.427,162.779,19.122,-62.512
3501,-0.3359,0.2798,-0.9146,0.305,0.977,-0.305,162.784,19.116,-62.512
3511,-0.3335,0.2778,-0.9180,0.610,0.977,-0.183,162.795,19.111,-62.512
3521,-0.3320,0.2788,-0.9229,0.610,1.038,-0.122,162.812,19.100,-62.512
3531,-0.3291,0.2808,-0.9248,0.366,1.038,-0.061,162.817,19.089,-62.512
3541,-0.3306,0.2827,-0.9258,0.061,1.099,0.000,162.823,19.072,-62.512
3551,-0.3262,0.2812,-0.9253,-0.122,1.038,0.061,162.823,19.061,-62.512
3561,-0.3286,0.2822,-0.9248,-0.061,0.916,0.061,162.823,19.045,-62.512
3571,-0.3291,0.2798,-0.9248,0.061,0.549,0.000,162.828,19.039,-62.512
3581,-0.3315,0.2788,-0.9238,0.000,0.244,0.122,162.834,19.034,-62.512
3591,-0.3320,0.2783,-0.9258,-0.244,0.122,0.183,162.834,19.034,-62.512
3601,-0.3325,0.2783,-0.9229,-0.488,0.122,0.244,162.834,19.034,-62.512
3611,-0.3335,0.2783,-0.9199,-0.610,0.122,0.305,162.828,19.034,-62.512
3621,-0.3320,0.2783,-0.9194,-0.610,0.183,0.366,162.828,19.028,-62.512
3631,-0.3320,0.2817,-0.9204,-0.427,0.183,0.488,162.823,19.028,-62.512
3642,-0.3330,0.2817,-0.9209,-0.305,0.061,0.671,162.817,19.023,-62.512
3651,-0.3340,0.2827,-0.9175,-0.183,0.061,0.732,162.812,19.023,-62.512
3661,-0.3335,0.2822,-0.9165,-0.183,-0.061,0.732,162.812,19.023,-62.512
3671,-0.3330,0.2847,-0.9165,-0.183,0.000,0.793,162.806,19.023,-62.512
3681,-0.3335,0.2866,-0.9180,-0.122,0.305,0.793,162.801,19.017,-62.512
3691,-0.3315,0.2881,-0.9175,-0.061,0.549,0.793,162.795,19.012,-62.512
3701,-0.3320,0.2886,-0.9185,0.000,0.732,0.671,162.790,19.001,-62.512
3711,-0.3320,0.2910,-0.9209,0.061,0.793,0.610,162.790,18.990,-62.512
3721,-0.3301,0.2920,-0.9209,0.000,0.793,0.488,162.784,18.979,-62.512
3731,-0.3315,0.2920,-0.9180,-0.122,0.610,0.305,162.779,18.973,-62.512
3741,-0.3325,0.2915,-0.9194,-0.122,0.366,0.183,162.773,18.973,-62.512
3751,-0.3335,0.2925,-0.9180,-0.061,0.183,0.122,162.768,18.968,-62.512
3761,-0.3335,0.2900,-0.9155,0.061,0.244,-0.061,162.762,18.968,-62.512
3771,-0.3369,0.2886,-0.9146,0.000,0.488,-0.244,162.762,18.968,-62.512
3781,-0.3364,0.2886,-0.9092,-0.122,0.793,-0.366,162.762,18.968,-62.512
3791,-0.3325,0.2896,-0.9106,-0.244,1.038,-0.488,162.757,18.962,-62.512
3801,-0.3330,0.2881,-0.9136,-0.305,1.282,-0.549,162.751,18.951,-62.512
3811,-0.3325,0.2881,-0.9131,-0.183,1.526,-0.549,162.751,18.940,-62.512
3821,-0.3330,0.2900,-0.9126,0.122,1.648,-0.610,162.751,18.929,-62.512
3831,-0.3306,0.2881,-0.9155,0.305,1.770,-0.610,162.757,18.918,-62.512
3841,-0.3296,0.2856,-0.9160,0.305,1.831,-0.610,162.762,18.902,-62.512
3851,-0.3291,0.2866,-0.9189,0.183,1.953,-0.610,162.768,18.885,-62.512
3861,-0.3281,0.2861,-0.9229,0.000,2.258,-0.671,162.773,18.864,-62.512
3871,-0.3301,0.2842,-0.9282,0.000,2.441,-0.732,162.779,18.842,-62.512
3881,-0.3291,0.2837,-0.9297,0.061,2.441,-0.793,162.790,18.820,-62.512
3891,-0.3267,0.2817,-0.9326,0.183,1.953,-0.854,162.801,18.803,-62.512
3901,-0.3242,0.2798,-0.9331,0.244,1.343,-0.793,162.812,18.787,-62.512
3912,-0.3247,0.2759,-0.9331,0.122,0.732,-0.671,162.823,18.781,-62.512
3921,-0.3242,0.2759,-0.9297,-0.183,0.305,-0.549,162.828,18.776,-62.512
3931,-0.3267,0.2754,-0.9277,-0.488,0.244,-0.427,162.834,18.776,-62.512
3941,-0.3296,0.2759,-0.9243,-0.549,0.244,-0.244,162.834,18.770,-62.512
3951,-0.3311,0.2749,-0.9204,-0.488,0.244,-0.122,162.834,18.776,-62.512
3961,-0.3330,0.2778,-0.9155,-0.427,0.122,0.061,162.834,18.776,-62.512
3971,-0.3340,0.2769,-0.9131,-0.305,0.000,0.244,162.834,18.781,-62.512
3981,-0.3335,0.2773,-0.9131,-0.061,0.244,0.488,162.834,18.781,-62.512
3991,-0.3325,0.2783,-0.9131,0.000,0.671,0.610,162.834,18.776,-62.512
4001,-0.3281,0.2783,-0.9136,0.000,1.038,0.671,162.834,18.770,-62.512
4011,-0.3252,0.2817,-0.9136,-0.061,1.282,0.732,162.834,18.754,-62.512
4021,-0.3242,0.2842,-0.9185,-0.183,1.465,0.793,162.828,18.737,-62.512
4031,-0.3271,0.2881,-0.9233,-0.244,1.648,0.793,162.823,18.715,-62.512
4041,-0.3271,0.2900,-0.9287,-0.183,1.831,0.732,162.823,18.699,-62.512
4051,-0.3267,0.2910,-0.9297,-0.061,1.953,0.549,162.817,18.677,-62.512
4061,-0.3267,0.2900,-0.9316,-0.183,1.709,0.366,162.817,18.655,-62.512
4071,-0.3252,0.2896,-0.9326,-0.488,1.099,0.183,162.812,18.644,-62.512
4081,-0.3271,0.2886,-0.9282,-0.793,0.549,0.122,162.801,18.638,-62.512
4091,-0.3247,0.2905,-0.9253,-0.916,0.061,0.122,162.790,18.633,-62.512
4101,-0.3252,0.2876,-0.9229,-0.732,-0.061,-0.061,162.784,18.633,-62.512
4111,-0.3242,0.2852,-0.9204,-0.610,0.061,-0.183,162.779,18.633,-62.512
4121,-0.3242,0.2847,-0.9199,-0.549,0.427,-0.183,162.773,18.633,-62.512
4131,-0.3237,0.2847,-0.9224,-0.549,0.854,-0.061,162.768,18.622,-62.512
4142,-0.3228,0.2871,-0.9272,-0.305,1.221,0.061,162.768,18.611,-62.512
4151,-0.3223,0.2896,-0.9268,0.183,1.343,0.122,162.768,18.594,-62.512
4161,-0.3213,0.2871,-0.9331,0.549,1.160,0.000,162.779,18.578,-62.512
4171,-0.3213,0.2871,-0.9355,0.427,0.793,-0.061,162.784,18.567,-62.512
4181,-0.3198,0.2896,-0.9370,0.000,0.366,-0.122,162.784,18.561,-62.512
4191,-0.3203,0.2881,-0.9380,-0.549,-0.061,-0.244,162.779,18.556,-62.512
4201,-0.3188,0.2856,-0.9355,-0.916,-0.549,-0.366,162.773,18.556,-62.512
4211,-0.3223,0.2842,-0.9331,-0.977,-1.038,-0.488,162.768,18.567,-62.512
4221,-0.3223,0.2798,-0.9316,-0.977,-1.526,-0.488,162.762,18.578,-62.512
4231,-0.3218,0.2769,-0.9287,-0.977,-1.892,-0.305,162.762,18.594,-62.512
4241,-0.3232,0.2744,-0.9268,-1.038,-1.953,-0.122,162.757,18.611,-62.512
4251,-0.3223,0.2734,-0.9253,-0.916,-1.831,0.061,162.751,18.627,-62.512
4261,-0.3232,0.2729,-0.9204,-0.793,-1.709,0.305,162.751,18.644,-62.512
4271,-0.3262,0.2754,-0.9214,-0.854,-1.770,0.549,162.746,18.660,-62.512
4281,-0.3306,0.2764,-0.9185,-0.854,-1.770,0.671,162.735,18.677,-62.512
4291,-0.3306,0.2783,-0.9185,-0.916,-1.709,0.977,162.724,18.693,-62.512
4301,-0.3276,0.2798,-0.9175,-0.977,-1.648,1.221,162.713,18.710,-62.529
4311,-0.3271,0.2852,-0.9170,-1.099,-1.587,1.343,162.697,18.721,-62.545
4321,-0.3271,0.2871,-0.9204,-0.977,-1.404,1.465,162.680,18.732,-62.567
4331,-0.3257,0.2871,-0.9229,-0.610,-1.343,1.526,162.669,18.737,-62.584
4341,-0.3257,0.2861,-0.9180,-0.549,-1.343,1.465,162.658,18.743,-62.606
4351,-0.3262,0.2871,-0.9150,-0.916,-1.648,1.465,162.642,18.759,-62.622
4361,-0.3252,0.2930,-0.9180,-1.282,-1.709,1.465,162.620,18.770,-62.644
4371,-0.3281,0.2959,-0.9204,-1.282,-1.343,1.465,162.598,18.776,-62.661
4381,-0.3320,0.2969,-0.9175,-1.038,-0.854,1.282,162.576,18.781,-62.677
4391,-0.3340,0.2969,-0.9165,-0.610,-0.671,1.038,162.559,18.787,-62.693
4401,-0.3345,0.2939,-0.9185,-0.488,-0.916,0.916,162.548,18.798,-62.704
4411,-0.3354,0.2905,-0.9150,-0.732,-1.221,0.732,162.537,18.814,-62.715
4421,-0.3359,0.2925,-0.9170,-1.282,-1.404,0.549,162.515,18.831,-62.726
4431,-0.3369,0.2944,-0.9155,-1.709,-1.343,0.427,162.493,18.847,-62.732
4441,-0.3350,0.2954,-0.9121,-1.831,-1.221,0.305,162.471,18.858,-62.737
4451,-0.3320,0.2925,-0.9102,-1.526,-1.099,0.183,162.449,18.875,-62.743
4461,-0.3296,0.2915,-0.9116,-1.099,-1.099,0.122,162.438,18.885,-62.748
4471,-0.3311,0.2910,-0.9136,-0.793,-0.916,0.122,162.427,18.891,-62.754
4481,-0.3354,0.2891,-0.9141,-0.793,-0.488,0.183,162.416,18.902,-62.759
4491,-0.3369,0.2881,-0.9121,-1.038,0.000,0.183,162.405,18.907,-62.759
4502,-0.3340,0.2910,-0.9175,-1.343,0.305,0.122,162.394,18.907,-62.759
4512,-0.3286,0.2939,-0.9233,-1.221,0.427,0.244,162.378,18.896,-62.759
4522,-0.3262,0.2925,-0.9238,-0.793,0.366,0.244,162.372,18.891,-62.765
4532,-0.3276,0.2905,-0.9204,-0.488,0.061,0.244,162.367,18.891,-62.765
4542,-0.3306,0.2896,-0.9199,-0.610,-0.549,0.183,162.361,18.896,-62.770
4552,-0.3296,0.2915,-0.9214,-1.038,-0.916,0.122,162.350,18.902,-62.770
4562,-0.3301,0.2930,-0.9180,-1.282,-0.854,0.061,162.339,18.907,-62.776
4572,-0.3315,0.2949,-0.9185,-1.465,-0.610,-0.061,162.323,18.918,-62.776
4582,-0.3345,0.2935,-0.9141,-1.404,-0.366,-0.183,162.307,18.924,-62.776
4592,-0.3354,0.2954,-0.9116,-1.099,-0.427,-0.183,162.290,18.929,-62.776
4602,-0.3345,0.2954,-0.9111,-0.793,-0.366,-0.183,162.285,18.940,-62.776
4612,-0.3325,0.2974,-0.9092,-0.671,-0.366,-0.122,162.274,18.946,-62.776
4622,-0.3340,0.2974,-0.9111,-0.427,-0.183,-0.183,162.263,18.951,-62.776
4632,-0.3315,0.2964,-0.9121,-0.305,0.183,-0.305,162.263,18.951,-62.770
4642,-0.3325,0.2954,-0.9121,-0.366,0.488,-0.366,162.257,18.946,-62.765
4652,-0.3311,0.2988,-0.9136,-0.610,0.671,-0.427,162.246,18.946,-62.759
4662,-0.3291,0.3013,-0.9224,-0.549,0.916,-0.427,162.241,18.935,-62.748
4672,-0.3296,0.3032,-0.9253,-0.061,1.343,-0.366,162.241,18.918,-62.743
4682,-0.3291,0.3003,-0.9277,0.427,1.465,-0.488,162.246,18.907,-62.732
4692,-0.3262,0.2974,-0.9268,0.671,1.038,-0.671,162.257,18.891,-62.721
4702,-0.3271,0.2944,-0.9243,0.366,0.183,-0.854,162.263,18.891,-62.715
4712,-0.3267,0.2964,-0.9277,-0.061,-0.427,-0.977,162.263,18.896,-62.704
4722,-0.3276,0.2944,-0.9282,-0.244,-0.549,-1.099,162.268,18.902,-62.699
4732,-0.3296,0.2920,-0.9268,-0.305,-0.427,-1.343,162.268,18.907,-62.682
4742,-0.3291,0.2910,-0.9248,-0.305,-0.244,-1.343,162.274,18.913,-62.672
4752,-0.3267,0.2900,-0.9258,0.061,-0.244,-1.160,162.279,18.913,-62.661
4762,-0.3247,0.2881,-0.9224,0.549,-0.488,-0.854,162.290,18.918,-62.655
4772,-0.3267,0.2812,-0.9199,0.916,-0.854,-0.671,162.312,18.929,-62.650
4782,-0.3291,0.2827,-0.9175,0.916,-1.343,-0.549,162.323,18.940,-62.650
4792,-0.3291,0.2827,-0.9185,0.732,-1.343,-0.305,162.339,18.957,-62.650
4802,-0.3301,0.2822,-0.9170,0.488,-0.916,-0.122,162.345,18.962,-62.650
4812,-0.3325,0.2817,-0.9165,0.305,-0.488,0.000,162.356,18.968,-62.655
4822,-0.3325,0.2847,-0.9189,0.305,-0.366,0.122,162.361,18.973,-62.655
4832,-0.3320,0.2842,-0.9194,0.366,-0.549,0.305,162.367,18.979,-62.661
4842,-0.3315,0.2842,-0.9199,0.488,-0.916,0.488,162.378,18.984,-62.666
4852,-0.3330,0.2832,-0.9175,0.366,-1.160,0.610,162.378,18.995,-62.677
4862,-0.3320,0.2842,-0.9141,0.183,-1.282,0.671,162.383,19.006,-62.688
4872,-0.3320,0.2871,-0.9126,0.000,-1.160,0.793,162.378,19.017,-62.699
4882,-0.3335,0.2876,-0.9136,-0.061,-0.793,0.977,162.378,19.023,-62.715
4892,-0.3340,0.2886,-0.9150,0.000,-0.366,1.038,162.372,19.028,-62.726
4902,-0.3340,0.2905,-0.9170,0.061,-0.244,1.038,162.372,19.028,-62.737
4912,-0.3340,0.2920,-0.9136,-0.122,-0.427,1.038,162.367,19.028,-62.748
4922,-0.3340,0.2949,-0.9170,-0.244,-0.671,1.099,162.356,19.034,-62.759
4932,-0.3325,0.2998,-0.9185,-0.122,-0.671,1.099,162.345,19.039,-62.776
4942,-0.3335,0.2988,-0.9170,0.305,-0.427,0.977,162.345,19.039,-62.787
4952,-0.3354,0.2993,-0.9175,0.732,-0.122,0.793,162.345,19.039,-62.792
4962,-0.3354,0.2974,-0.9175,0.854,-0.183,0.610,162.345,19.039,-62.798
4972,-0.3364,0.2979,-0.9185,0.610,-0.305,0.488,162.345,19.045,-62.809
4982,-0.3359,0.2993,-0.9175,0.244,-0.427,0.305,162.345,19.050,-62.809
4992,-0.3354,0.3008,-0.9146,0.000,-0.366,0.122,162.339,19.050,-62.814
5002,-0.3354,0.2993,-0.9121,0.000,-0.305,-0.061,162.334,19.056,-62.814
5012,-0.3340,0.2988,-0.9111,0.183,-0.366,-0.244,162.328,19.061,-62.814
5022,-0.3311,0.2974,-0.9106,0.488,-0.427,-0.366,162.328,19.067,-62.809
5032,-0.3345,0.2944,-0.9087,0.610,-0.366,-0.427,162.334,19.078,-62.809
5042,-0.3359,0.2910,-0.9092,0.488,-0.122,-0.549,162.339,19.083,-62.803
5052,-0.3345,0.2920,-0.9102,0.244,0.366,-0.610,162.345,19.083,-62.792
5062,-0.3340,0.2925,-0.9146,0.183,0.854,-0.549,162.350,19.078,-62.787
5072,-0.3330,0.2915,-0.9165,0.488,1.221,-0.488,162.356,19.067,-62.776
5082,-0.3340,0.2925,-0.9199,0.732,1.343,-0.549,162.367,19.056,-62.765
5092,-0.3345,0.2910,-0.9199,1.038,1.221,-0.549,162.378,19.045,-62.759
5102,-0.3330,0.2876,-0.9219,1.160,0.854,-0.488,162.400,19.039,-62.748
5112,-0.3320,0.2856,-0.9238,0.732,0.427,-0.549,162.411,19.039,-62.743
5122,-0.3325,0.2876,-0.9282,0.122,0.061,-0.610,162.416,19.034,-62.737
5132,-0.3306,0.2876,-0.9292,-0.122,0.244,-0.671,162.422,19.034,-62.732
5142,-0.3262,0.2861,-0.9287,0.000,0.305,-0.610,162.427,19.028,-62.721
5152,-0.3257,0.2842,-0.9287,0.122,0.061,-0.610,162.438,19.023,-62.715
5162,-0.3276,0.2827,-0.9272,0.366,-0.610,-0.488,162.449,19.028,-62.715
5172,-0.3291,0.2822,-0.9243,0.427,-1.221,-0.244,162.460,19.039,-62.715
5182,-0.3311,0.2783,-0.9199,0.305,-1.404,0.000,162.466,19.050,-62.721
5192,-0.3359,0.2788,-0.9146,-0.366,-0.916,0.244,162.466,19.061,-62.726
5202,-0.3359,0.2812,-0.9102,-0.549,-0.427,0.549,162.466,19.067,-62.732
5212,-0.3335,0.2837,-0.9087,-0.488,-0.183,0.793,162.460,19.072,-62.737
5222,-0.3350,0.2876,-0.9106,-0.305,-0.122,0.916,162.449,19.072,-62.748
5232,-0.3345,0.2905,-0.9136,-0.061,-0.122,1.038,162.449,19.072,-62.759
5242,-0.3350,0.2920,-0.9170,0.366,0.244,1.221,162.444,19.067,-62.770
5252,-0.3345,0.2915,-0.9204,0.488,0.671,1.160,162.449,19.056,-62.781
5262,-0.3320,0.2930,-0.9199,0.244,0.732,0.977,162.444,19.045,-62.787
5272,-0.3335,0.3008,-0.9204,-0.183,0.610,0.854,162.438,19.039,-62.798
5282,-0.3325,0.3042,-0.9243,-0.427,0.427,0.732,162.422,19.028,-62.803
5292,-0.3335,0.3018,-0.9258,-0.366,0.305,0.549,162.416,19.023,-62.803
5302,-0.3354,0.3013,-0.9238,-0.305,0.000,0.244,162.405,19.023,-62.809
5312,-0.3345,0.3018,-0.9209,-0.305,-0.366,-0.061,162.394,19.028,-62.809
5322,-0.3340,0.3027,-0.9233,-0.244,-0.671,-0.244,162.389,19.034,-62.809
5332,-0.3335,0.3013,-0.9189,-0.122,-0.671,-0.366,162.383,19.039,-62.809
5342,-0.3354,0.2983,-0.9146,0.122,-0.549,-0.549,162.378,19.050,-62.803
5352,-0.3359,0.2939,-0.9155,0.244,-0.549,-0.732,162.383,19.061,-62.798
5362,-0.3335,0.2905,-0.9131,0.122,-0.610,-0.916,162.383,19.067,-62.792
5372,-0.3335,0.2891,-0.9160,-0.061,-0.366,-0.916,162.389,19.078,-62.781
5382,-0.3340,0.2876,-0.9121,-0.366,0.061,-0.916,162.389,19.078,-62.770
5392,-0.3354,0.2837,-0.9102,-0.427,0.244,-0.916,162.389,19.083,-62.765
5402,-0.3359,0.2827,-0.9131,-0.305,0.183,-0.793,162.394,19.089,-62.754
5412,-0.3350,0.2827,-0.9146,0.061,0.122,-0.549,162.400,19.089,-62.748
5422,-0.3335,0.2808,-0.9155,0.366,0.122,-0.244,162.411,19.089,-62.743
5432,-0.3350,0.2808,-0.9155,0.305,0.244,-0.061,162.422,19.089,-62.743
5442,-0.3335,0.2832,-0.9180,0.244,0.488,0.000,162.427,19.083,-62.743
5452,-0.3320,0.2832,-0.9204,0.061,0.732,0.183,162.433,19.078,-62.743
5462,-0.3320,0.2837,-0.9219,-0.122,0.793,0.183,162.438,19.067,-62.743
5472,-0.3315,0.2866,-0.9253,-0.244,0.671,0.305,162.438,19.061,-62.743
5482,-0.3311,0.2881,-0.9287,-0.183,0.366,0.427,162.438,19.050,-62.743
5492,-0.3320,0.2886,-0.9277,0.061,0.122,0.549,162.438,19.050,-62.748
5502,-0.3296,0.2886,-0.9292,0.244,-0.183,0.549,162.444,19.045,-62.759
5512,-0.3306,0.2910,-0.9312,0.366,-0.549,0.549,162.449,19.045,-62.765
5522,-0.3306,0.2915,-0.9258,0.366,-0.854,0.549,162.449,19.050,-62.770
5532,-0.3330,0.2896,-0.9238,0.122,-1.160,0.488,162.449,19.056,-62.781
5542,-0.3340,0.2896,-0.9180,-0.183,-1.404,0.427,162.444,19.072,-62.792
5552,-0.3359,0.2910,-0.9150,-0.366,-1.465,0.427,162.438,19.083,-62.798
5562,-0.3350,0.2896,-0.9092,-0.488,-1.343,0.549,162.427,19.100,-62.809
5572,-0.3359,0.2925,-0.9087,-0.488,-1.038,0.488,162.416,19.111,-62.814
5582,-0.3379,0.2935,-0.9097,-0.183,-0.488,0.610,162.411,19.116,-62.825
5592,-0.3369,0.2939,-0.9106,0.244,0.183,0.549,162.405,19.116,-62.831
5602,-0.3359,0.2935,-0.9087,0.549,0.610,0.549,162.411,19.111,-62.831
5612,-0.3340,0.2935,-0.9131,0.549,0.671,0.427,162.411,19.105,-62.836
5622,-0.3350,0.2944,-0.9155,0.244,0.488,0.366,162.411,19.100,-62.836
5632,-0.3364,0.2959,-0.9199,0.000,0.488,0.305,162.405,19.094,-62.836
5642,-0.3354,0.2959,-0.9175,-0.061,0.549,0.122,162.405,19.089,-62.836
5652,-0.3354,0.2944,-0.9189,-0.061,0.549,-0.061,162.405,19.089,-62.836
5662,-0.3311,0.2954,-0.9199,-0.122,0.305,-0.122,162.400,19.083,-62.836
5672,-0.3306,0.2959,-0.9219,-0.061,0.122,-0.183,162.400,19.078,-62.831
5682,-0.3315,0.2925,-0.9214,0.183,0.122,-0.244,162.400,19.078,-62.831
5692,-0.3315,0.2915,-0.9243,0.244,0.183,-0.305,162.405,19.078,-62.825
5702,-0.3315,0.2900,-0.9248,0.427,0.122,-0.366,162.411,19.072,-62.820
5712,-0.3320,0.2910,-0.9199,0.305,-0.061,-0.305,162.416,19.072,-62.820
5722,-0.3315,0.2891,-0.9180,0.366,-0.366,-0.366,162.422,19.078,-62.814
5732,-0.3330,0.2842,-0.9126,0.183,-0.732,-0.427,162.427,19.089,-62.814
5742,-0.3354,0.2876,-0.9116,-0.305,-0.854,-0.488,162.427,19.100,-62.809
5752,-0.3350,0.2900,-0.9180,-0.427,-0.488,-0.488,162.422,19.105,-62.809
5762,-0.3315,0.2881,-0.9219,-0.244,0.183,-0.305,162.422,19.105,-62.803
5772,-0.3330,0.2861,-0.9214,0.244,0.732,-0.244,162.433,19.100,-62.798
5782,-0.3330,0.2837,-0.9229,0.671,0.610,-0.183,162.444,19.089,-62.798
5792,-0.3369,0.2827,-0.9204,0.732,-0.061,0.061,162.455,19.094,-62.798
5802,-0.3345,0.2837,-0.9194,0.488,-0.732,0.305,162.466,19.100,-62.803
5812,-0.3325,0.2832,-0.9189,0.366,-0.977,0.366,162.471,19.111,-62.809
5822,-0.3340,0.2837,-0.9136,0.122,-0.977,0.305,162.471,19.116,-62.814
5832,-0.3374,0.2827,-0.9106,-0.244,-0.732,0.244,162.471,19.127,-62.820
5842,-0.3384,0.2856,-0.9077,-0.671,-0.488,0.366,162.460,19.138,-62.825
5852,-0.3384,0.2881,-0.9053,-0.854,-0.122,0.549,162.449,19.138,-62.831
5862,-0.3369,0.2900,-0.9087,-0.488,0.305,0.671,162.444,19.138,-62.836
5872,-0.3364,0.2896,-0.9126,0.061,0.549,0.671,162.438,19.133,-62.842
5882,-0.3340,0.2905,-0.9170,0.549,0.549,0.671,162.444,19.127,-62.847
5892,-0.3335,0.2905,-0.9185,0.671,0.488,0.732,162.449,19.122,-62.853
5902,-0.3320,0.2915,-0.9204,0.427,0.488,0.793,162.449,19.111,-62.858
5913,-0.3325,0.2920,-0.9209,-0.061,0.427,0.610,162.449,19.105,-62.864
5922,-0.3335,0.2949,-0.9238,-0.427,0.305,0.427,162.444,19.100,-62.869
5932,-0.3325,0.2979,-0.9282,-0.305,0.305,0.244,162.433,19.094,-62.869
5942,-0.3315,0.2983,-0.9253,-0.122,0.305,0.061,162.433,19.089,-62.869
5952,-0.3335,0.2944,-0.9258,0.061,0.183,-0.183,162.433,19.083,-62.864
5962,-0.3306,0.2939,-0.9253,-0.122,-0.305,-0.366,162.433,19.083,-62.864
5972,-0.3306,0.2900,-0.9233,-0.488,-0.793,-0.488,162.427,19.094,-62.858
5982,-0.3320,0.2881,-0.9180,-0.916,-1.099,-0.488,162.422,19.105,-62.858
5992,-0.3306,0.2856,-0.9111,-1.221,-1.099,-0.549,162.411,19.116,-62.858
6002,-0.3330,0.2827,-0.9131,-1.282,-0.854,-0.549,162.405,19.127,-62.853
6012,-0.3340,0.2842,-0.9150,-1.160,-0.366,-0.366,162.394,19.133,-62.853
6022,-0.3335,0.2847,-0.9165,-0.854,0.000,-0.061,162.389,19.133,-62.853
6032,-0.3320,0.2817,-0.9150,-0.610,0.061,0.183,162.389,19.133,-62.853
6042,-0.3350,0.2822,-0.9160,-0.427,-0.061,0.366,162.389,19.133,-62.858
6052,-0.3374,0.2827,-0.9170,-0.427,-0.244,0.610,162.389,19.133,-62.864
6062,-0.3389,0.2852,-0.9194,-0.488,-0.305,0.610,162.383,19.138,-62.869
6072,-0.3403,0.2856,-0.9165,-0.732,-0.244,0.610,162.378,19.144,-62.880
6082,-0.3364,0.2896,-0.9199,-0.916,-0.183,0.610,162.367,19.144,-62.886
6092,-0.3345,0.2939,-0.9194,-0.793,-0.061,0.610,162.356,19.144,-62.891
6102,-0.3330,0.2935,-0.9199,-0.549,-0.183,0.671,162.350,19.138,-62.897
6112,-0.3320,0.2954,-0.9180,-0.305,-0.488,0.610,162.339,19.144,-62.908
6122,-0.3330,0.2959,-0.9180,-0.305,-0.854,0.549,162.334,19.149,-62.913
6132,-0.3350,0.2944,-0.9155,-0.488,-1.099,0.427,162.323,19.155,-62.924
6143,-0.3359,0.2944,-0.9121,-0.977,-1.160,0.305,162.312,19.171,-62.930
6152,-0.3374,0.2959,-0.9121,-1.404,-0.977,0.244,162.290,19.177,-62.935
6162,-0.3369,0.2988,-0.9126,-1.404,-0.549,0.244,162.274,19.188,-62.941
6172,-0.3369,0.2979,-0.9111,-0.977,-0.122,0.244,162.257,19.188,-62.941
6182,-0.3369,0.2954,-0.9111,-0.366,0.122,0.122,162.252,19.188,-62.941
6192,-0.3364,0.2964,-0.9116,0.000,0.122,0.061,162.246,19.188,-62.941
6202,-0.3350,0.2944,-0.9121,0.122,0.000,0.061,162.246,19.188,-62.946
6212,-0.3359,0.2954,-0.9121,-0.061,0.000,0.122,162.246,19.188,-62.946
6222,-0.3350,0.2930,-0.9082,-0.305,0.183,0.061,162.241,19.188,-62.946
6232,-0.3354,0.2969,-0.9097,-0.488,0.244,0.000,162.235,19.188,-62.946
6242,-0.3350,0.2979,-0.9150,-0.488,0.488,-0.122,162.224,19.182,-62.941
6252,-0.3345,0.2993,-0.9180,-0.122,0.854,-0.122,162.224,19.177,-62.941
6262,-0.3335,0.2964,-0.9185,0.244,1.099,-0.122,162.224,19.166,-62.941
6272,-0.3325,0.2939,-0.9243,0.305,0.916,-0.305,162.235,19.155,-62.941
6282,-0.3335,0.2939,-0.9233,0.183,0.549,-0.305,162.235,19.149,-62.941
6292,-0.3320,0.2915,-0.9253,-0.061,0.122,-0.305,162.241,19.144,-62.941
6302,-0.3330,0.2910,-0.9233,-0.244,-0.122,-0.244,162.241,19.144,-62.941
6312,-0.3345,0.2944,-0.9204,-0.366,-0.305,-0.244,162.241,19.149,-62.941
6322,-0.3345,0.2939,-0.9233,-0.122,-0.305,-0.244,162.241,19.149,-62.941
6332,-0.3325,0.2910,-0.9204,0.061,-0.244,-0.122,162.241,19.155,-62.941
6342,-0.3315,0.2910,-0.9165,0.244,-0.244,-0.122,162.246,19.155,-62.941
6352,-0.3359,0.2886,-0.9116,0.244,-0.366,0.000,162.252,19.160,-62.941
6362,-0.3359,0.2891,-0.9126,0.183,-0.366,0.122,162.252,19.166,-62.941
6372,-0.3340,0.2905,-0.9111,0.122,-0.244,0.122,162.252,19.166,-62.941
6382,-0.3350,0.2891,-0.9111,0.061,0.000,0.122,162.257,19.171,-62.941
6392,-0.3369,0.2920,-0.9136,-0.122,0.305,0.183,162.252,19.166,-62.941
6402,-0.3340,0.2920,-0.9155,-0.122,0.854,0.244,162.252,19.160,-62.941
6412,-0.3335,0.2939,-0.9180,0.000,1.221,0.305,162.252,19.144,-62.941
6422,-0.3345,0.2930,-0.9204,0.122,1.221,0.305,162.257,19.133,-62.941
6432,-0.3340,0.2925,-0.9209,0.305,0.793,0.305,162.263,19.122,-62.941
6442,-0.3311,0.2959,-0.9224,0.305,0.183,0.366,162.263,19.116,-62.941
6452,-0.3315,0.2939,-0.9199,0.366,-0.244,0.366,162.263,19.116,-62.941
6462,-0.3330,0.2905,-0.9150,0.427,-0.488,0.305,162.268,19.122,-62.941
6472,-0.3354,0.2910,-0.9141,0.183,-0.427,0.244,162.268,19.127,-62.941
6482,-0.3364,0.2910,-0.9097,-0.061,-0.305,0.183,162.268,19.133,-62.941
6492,-0.3384,0.2881,-0.9077,-0.305,-0.183,0.183,162.263,19.138,-62.941
6502,-0.3389,0.2856,-0.9033,-0.488,-0.061,0.244,162.263,19.144,-62.941
6512,-0.3403,0.2866,-0.9019,-0.549,0.122,0.305,162.257,19.149,-62.941
6522,-0.3389,0.2905,-0.9033,-0.366,0.549,0.488,162.252,19.144,-62.941
6532,-0.3359,0.2925,-0.9053,0.000,1.221,0.610,162.246,19.133,-62.941
6542,-0.3354,0.2920,-0.9087,0.366,1.953,0.671,162.252,19.116,-62.941
6552,-0.3330,0.2939,-0.9111,0.488,2.136,0.671,162.252,19.094,-62.941
6562,-0.3320,0.2983,-0.9185,0.366,1.953,0.610,162.257,19.072,-62.941
6572,-0.3320,0.3018,-0.9233,0.366,1.831,0.488,162.257,19.050,-62.941
6582,-0.3320,0.3027,-0.9263,0.488,1.709,0.366,162.257,19.034,-62.941
6592,-0.3311,0.3022,-0.9277,0.732,1.648,0.061,162.263,19.017,-62.941
6602,-0.3320,0.3018,-0.9302,0.732,1.343,-0.244,162.268,19.001,-62.941
6612,-0.3306,0.2988,-0.9277,0.549,0.854,-0.427,162.279,18.990,-62.941
6622,-0.3320,0.2974,-0.9233,0.183,0.305,-0.671,162.279,18.990,-62.941
6632,-0.3320,0.2949,-0.9194,-0.366,-0.183,-0.854,162.279,18.995,-62.941
6643,-0.3335,0.2949,-0.9185,-0.549,-0.366,-1.038,162.274,19.001,-62.930
6652,-0.3325,0.2915,-0.9155,-0.488,-0.122,-1.099,162.274,19.006,-62.919
6662,-0.3325,0.2886,-0.9121,-0.305,0.244,-1.038,162.274,19.006,-62.908
6672,-0.3311,0.2861,-0.9136,0.000,0.671,-0.916,162.285,19.006,-62.897
6682,-0.3315,0.2822,-0.9136,0.427,0.854,-0.671,162.296,19.001,-62.891
6692,-0.3320,0.2803,-0.9155,0.671,0.916,-0.427,162.312,18.995,-62.880
6702,-0.3315,0.2803,-0.9175,0.610,0.977,-0.244,162.328,18.984,-62.875
6712,-0.3325,0.2812,-0.9185,0.305,0.977,0.000,162.339,18.979,-62.875
6722,-0.3296,0.2808,-0.9219,-0.061,1.099,0.122,162.345,18.968,-62.869
6732,-0.3286,0.2852,-0.9219,-0.305,1.160,0.305,162.345,18.951,-62.869
6742,-0.3276,0.2896,-0.9253,-0.305,1.099,0.366,162.345,18.940,-62.869
6752,-0.3271,0.2896,-0.9307,0.061,0.977,0.488,162.350,18.924,-62.875
6762,-0.3267,0.2866,-0.9297,0.305,0.610,0.610,162.356,18.913,-62.875
6772,-0.3262,0.2881,-0.9292,0.305,0.183,0.610,162.361,18.907,-62.880
6782,-0.3271,0.2891,-0.9312,0.183,-0.183,0.671,162.367,18.902,-62.891
6792,-0.3281,0.2925,-0.9292,-0.122,-0.366,0.671,162.361,18.902,-62.897
6802,-0.3286,0.2920,-0.9238,-0.305,-0.488,0.732,162.356,18.902,-62.908
6812,-0.3291,0.2905,-0.9243,-0.427,-0.793,0.732,162.350,18.907,-62.919
6822,-0.3291,0.2920,-0.9209,-0.244,-1.099,0.671,162.345,18.913,-62.924
6832,-0.3301,0.2930,-0.9204,-0.183,-1.343,0.671,162.339,18.924,-62.935
6842,-0.3296,0.2920,-0.9155,-0.305,-1.343,0.671,162.334,18.935,-62.946
6852,-0.3306,0.2925,-0.9106,-0.610,-1.160,0.671,162.323,18.946,-62.957
6862,-0.3315,0.2959,-0.9116,-0.732,-0.793,0.732,162.312,18.951,-62.968
6872,-0.3350,0.2979,-0.9102,-0.549,-0.366,0.732,162.296,18.957,-62.979
6882,-0.3354,0.2979,-0.9146,-0.183,0.061,0.732,162.290,18.957,-62.985
6892,-0.3325,0.2988,-0.9141,0.183,0.366,0.732,162.285,18.951,-62.990
6902,-0.3325,0.2969,-0.9131,0.366,0.305,0.671,162.285,18.946,-62.996
6912,-0.3330,0.2988,-0.9165,0.244,0.183,0.549,162.285,18.946,-63.001
6922,-0.3345,0.2983,-0.9189,-0.061,0.122,0.366,162.279,18.946,-63.007
6932,-0.3335,0.2988,-0.9194,-0.427,0.244,0.122,162.274,18.940,-63.007
6942,-0.3350,0.2993,-0.9160,-0.610,0.244,0.000,162.263,18.940,-63.007
6952,-0.3311,0.2998,-0.9175,-0.366,0.183,-0.183,162.257,18.940,-63.001
6962,-0.3311,0.2979,-0.9180,0.000,0.000,-0.244,162.252,18.940,-63.001
6972,-0.3320,0.2959,-0.9170,0.244,-0.061,-0.305,162.257,18.946,-62.996
6982,-0.3301,0.2954,-0.9150,0.183,0.000,-0.305,162.257,18.946,-62.996
6992,-0.3281,0.2930,-0.9146,0.122,0.000,-0.366,162.257,18.946,-62.990
7002,-0.3296,0.2925,-0.9136,-0.061,0.061,-0.427,162.257,18.946,-62.985
7012,-0.3315,0.2935,-0.9199,-0.366,0.244,-0.488,162.257,18.946,-62.979
7022,-0.3311,0.2930,-0.9185,-0.366,0.610,-0.427,162.257,18.940,-62.974
7032,-0.3311,0.2910,-0.9233,-0.061,0.977,-0.427,162.263,18.935,-62.968
7042,-0.3296,0.2905,-0.9243,0.183,0.916,-0.488,162.268,18.924,-62.957
7052,-0.3276,0.2896,-0.9263,0.244,0.549,-0.488,162.279,18.918,-62.952
7062,-0.3291,0.2881,-0.9263,0.122,0.061,-0.427,162.285,18.918,-62.946
7072,-0.3276,0.2866,-0.9248,-0.061,-0.488,-0.244,162.290,18.918,-62.946
7082,-0.3291,0.2861,-0.9199,-0.244,-0.793,-0.061,162.290,18.929,-62.946
7092,-0.3286,0.2861,-0.9175,-0.366,-0.854,0.061,162.290,18.935,-62.952
7102,-0.3325,0.2866,-0.9155,-0.305,-0.732,0.183,162.290,18.940,-62.957
7112,-0.3320,0.2842,-0.9131,-0.244,-0.488,0.366,162.290,18.946,-62.963
7122,-0.3315,0.2852,-0.9106,-0.305,-0.366,0.427,162.285,18.951,-62.968
7132,-0.3335,0.2856,-0.9106,-0.305,-0.366,0.549,162.285,18.957,-62.974
7143,-0.3330,0.2886,-0.9126,-0.305,-0.244,0.671,162.279,18.962,-62.979
7152,-0.3330,0.2896,-0.9116,-0.183,0.000,0.793,162.279,18.962,-62.990
7162,-0.3325,0.2935,-0.9155,-0.122,0.244,0.854,162.274,18.957,-62.996
7172,-0.3320,0.2969,-0.9185,-0.061,0.488,0.793,162.268,18.951,-63.001
7182,-0.3296,0.2993,-0.9219,0.000,0.732,0.854,162.263,18.940,-63.007
7192,-0.3291,0.3008,-0.9229,0.061,0.793,0.732,162.257,18.929,-63.012
7202,-0.3306,0.3037,-0.9258,0.061,0.610,0.549,162.257,18.918,-63.018
7212,-0.3291,0.3022,-0.9272,-0.122,0.122,0.305,162.252,18.913,-63.018
7222,-0.3291,0.3032,-0.9268,-0.305,-0.366,0.000,162.241,18.913,-63.023
7232,-0.3301,0.3027,-0.9204,-0.427,-0.854,-0.244,162.235,18.924,-63.023
7242,-0.3340,0.3013,-0.9185,-0.366,-1.160,-0.427,162.224,18.935,-63.023
7252,-0.3350,0.2993,-0.9146,-0.183,-1.099,-0.549,162.224,18.951,-63.018
7262,-0.3335,0.2930,-0.9141,0.061,-0.732,-0.671,162.224,18.962,-63.012
7272,-0.3345,0.2910,-0.9121,0.000,-0.366,-0.732,162.224,18.968,-63.007
7282,-0.3330,0.2900,-0.9111,-0.366,-0.183,-0.671,162.224,18.973,-63.001
7292,-0.3320,0.2876,-0.9131,-0.610,-0.061,-0.549,162.224,18.979,-62.996
7302,-0.3335,0.2900,-0.9106,-0.610,-0.061,-0.427,162.219,18.984,-62.996
7312,-0.3330,0.2886,-0.9111,-0.305,-0.061,-0.305,162.219,18.990,-62.990
7322,-0.3335,0.2876,-0.9136,0.122,0.000,-0.244,162.224,18.990,-62.990
7332,-0.3335,0.2866,-0.9150,0.244,0.244,-0.122,162.235,18.990,-62.985
7342,-0.3330,0.2896,-0.9175,0.244,0.549,0.000,162.241,18.984,-62.985
7352,-0.3320,0.2896,-0.9214,0.122,0.732,0.061,162.241,18.979,-62.985
7362,-0.3296,0.2886,-0.9238,-0.061,0.671,0.061,162.246,18.973,-62.979
7372,-0.3306,0.2915,-0.9277,-0.183,0.305,0.061,162.246,18.968,-62.979
7382,-0.3296,0.2910,-0.9292,-0.122,-0.122,0.183,162.252,18.962,-62.985
7392,-0.3296,0.2886,-0.9258,-0.061,-0.549,0.244,162.252,18.968,-62.985
7402,-0.3315,0.2861,-0.9238,-0.244,-1.038,0.305,162.252,18.973,-62.996
7412,-0.3320,0.2871,-0.9180,-0.610,-1.465,0.305,162.246,18.990,-63.001
7422,-0.3311,0.2910,-0.9180,-0.977,-1.526,0.427,162.235,19.001,-63.012
7432,-0.3311,0.2930,-0.9189,-0.854,-1.221,0.610,162.224,19.012,-63.018
7442,-0.3301,0.2920,-0.9146,-0.305,-0.793,0.610,162.219,19.017,-63.029
7452,-0.3315,0.2925,-0.9126,0.183,-0.549,0.610,162.219,19.017,-63.034
7462,-0.3315,0.2900,-0.9121,0.366,-0.732,0.671,162.224,19.023,-63.045
7472,-0.3330,0.2920,-0.9126,0.183,-0.854,0.793,162.219,19.034,-63.056
7482,-0.3335,0.2939,-0.9111,-0.122,-0.732,0.916,162.213,19.039,-63.067
7492,-0.3364,0.2964,-0.9121,-0.366,-0.488,0.854,162.208,19.045,-63.078
7502,-0.3340,0.2979,-0.9131,-0.305,-0.244,0.671,162.197,19.045,-63.083
7512,-0.3330,0.2998,-0.9155,-0.183,-0.061,0.671,162.191,19.045,-63.094
7522,-0.3340,0.3013,-0.9170,-0.061,0.122,0.610,162.186,19.039,-63.100
7532,-0.3350,0.3008,-0.9155,0.122,0.244,0.488,162.180,19.039,-63.105
7542,-0.3330,0.2974,-0.9160,0.183,0.183,0.244,162.180,19.039,-63.105
7552,-0.3345,0.2969,-0.9131,0.000,0.000,0.122,162.180,19.039,-63.105
7562,-0.3335,0.2979,-0.9146,-0.366,-0.183,0.000,162.169,19.039,-63.105
7572,-0.3340,0.2988,-0.9185,-0.305,-0.061,-0.061,162.169,19.039,-63.105
7582,-0.3335,0.2979,-0.9180,0.000,0.244,-0.122,162.164,19.039,-63.105
7592,-0.3301,0.2983,-0.9204,0.366,0.427,-0.244,162.169,19.034,-63.100
7602,-0.3330,0.2988,-0.9214,0.610,0.305,-0.244,162.175,19.034,-63.094
7612,-0.3325,0.2983,-0.9209,0.610,0.000,-0.244,162.180,19.034,-63.094
7622,-0.3320,0.2939,-0.9175,0.305,-0.366,-0.366,162.186,19.034,-63.089
7632,-0.3320,0.2920,-0.9146,-0.305,-0.671,-0.549,162.186,19.045,-63.089
7643,-0.3340,0.2935,-0.9165,-0.854,-0.671,-0.671,162.180,19.056,-63.083
7652,-0.3345,0.2944,-0.9180,-1.038,-0.244,-0.732,162.169,19.061,-63.078
7662,-0.3325,0.2949,-0.9170,-0.671,0.305,-0.671,162.164,19.061,-63.078
7672,-0.3325,0.2905,-0.9165,-0.061,0.488,-0.549,162.169,19.056,-63.078
7682,-0.3311,0.2876,-0.9189,0.427,0.244,-0.427,162.180,19.056,-63.078
7692,-0.3301,0.2852,-0.9180,0.488,-0.244,-0.183,162.191,19.056,-63.078
7702,-0.3301,0.2847,-0.9189,0.061,-0.549,0.000,162.197,19.061,-63.078
7712,-0.3315,0.2856,-0.9175,-0.488,-0.427,0.122,162.197,19.061,-63.078
7722,-0.3325,0.2871,-0.9136,-0.916,-0.061,0.122,162.191,19.067,-63.078
7732,-0.3335,0.2910,-0.9150,-1.038,0.244,0.183,162.180,19.061,-63.078
7742,-0.3335,0.2939,-0.9175,-0.488,0.305,0.366,162.175,19.061,-63.078
7752,-0.3345,0.2949,-0.9180,0.305,0.244,0.488,162.180,19.056,-63.078
7762,-0.3340,0.2944,-0.9180,0.854,-0.061,0.488,162.186,19.056,-63.078
7772,-0.3345,0.2939,-0.9229,0.854,-0.488,0.427,162.191,19.061,-63.078
7782,-0.3315,0.2935,-0.9224,0.305,-0.671,0.366,162.197,19.061,-63.078
7792,-0.3320,0.2930,-0.9189,-0.427,-0.732,0.305,162.191,19.067,-63.078
7802,-0.3335,0.2964,-0.9175,-0.916,-0.610,0.183,162.180,19.072,-63.078
7812,-0.3330,0.2969,-0.9146,-0.916,-0.366,0.122,162.169,19.078,-63.078
7822,-0.3335,0.2983,-0.9165,-0.427,-0.183,0.122,162.164,19.078,-63.078
7832,-0.3335,0.2969,-0.9141,0.122,-0.122,0.183,162.158,19.078,-63.078
7842,-0.3350,0.2949,-0.9160,0.427,-0.244,0.183,162.164,19.083,-63.078
7852,-0.3335,0.2974,-0.9150,0.305,-0.366,0.061,162.164,19.083,-63.078
7862,-0.3345,0.2974,-0.9160,0.000,-0.427,0.000,162.164,19.089,-63.078
7872,-0.3330,0.2988,-0.9170,-0.244,-0.366,-0.061,162.158,19.094,-63.078
7882,-0.3330,0.2993,-0.9165,-0.244,-0.183,-0.183,162.153,19.094,-63.078
7892,-0.3306,0.2944,-0.9189,0.000,0.000,-0.305,162.153,19.094,-63.078
7902,-0.3301,0.2944,-0.9189,0.061,0.122,-0.305,162.158,19.094,-63.078
7914,-0.3311,0.2949,-0.9175,0.122,0.061,-0.244,162.158,19.089,-63.078
7922,-0.3325,0.2915,-0.9175,0.000,-0.122,-0.183,162.164,19.094,-63.078
7932,-0.3340,0.2930,-0.9209,0.000,-0.305,-0.061,162.164,19.094,-63.078
7942,-0.3330,0.2935,-0.9175,0.183,-0.549,-0.061,162.169,19.100,-63.078
7952,-0.3335,0.2920,-0.9155,0.305,-0.671,0.000,162.169,19.105,-63.078
7962,-0.3315,0.2905,-0.9165,0.244,-0.610,-0.061,162.175,19.111,-63.078
7972,-0.3311,0.2910,-0.9180,-0.061,-0.427,-0.122,162.175,19.116,-63.078
7982,-0.3320,0.2930,-0.9160,-0.366,-0.305,-0.183,162.175,19.116,-63.078
7992,-0.3340,0.2925,-0.9150,-0.427,-0.183,-0.122,162.169,19.122,-63.078
8002,-0.3350,0.2925,-0.9121,-0.366,-0.244,-0.183,162.169,19.127,-63.078
8012,-0.3345,0.2915,-0.9141,-0.305,-0.427,-0.061,162.164,19.133,-63.078
8022,-0.3354,0.2944,-0.9155,-0.183,-0.366,0.061,162.164,19.133,-63.078
8032,-0.3345,0.2930,-0.9185,0.000,-0.061,0.183,162.164,19.133,-63.078
8042,-0.3350,0.2910,-0.9165,0.061,0.244,0.122,162.169,19.133,-63.078
8052,-0.3340,0.2896,-0.9155,-0.122,0.183,0.122,162.169,19.133,-63.078
8062,-0.3354,0.2935,-0.9175,-0.366,-0.061,0.183,162.164,19.133,-63.078
8072,-0.3354,0.2949,-0.9170,-0.488,-0.244,0.305,162.158,19.133,-63.078
8082,-0.3340,0.2944,-0.9185,-0.366,-0.305,0.305,162.153,19.138,-63.078
8092,-0.3345,0.2954,-0.9180,-0.061,-0.305,0.244,162.153,19.138,-63.078
8102,-0.3354,0.2939,-0.9170,0.183,-0.305,0.244,162.153,19.138,-63.078
8112,-0.3340,0.2935,-0.9165,0.305,-0.366,0.244,162.158,19.144,-63.078
8122,-0.3325,0.2915,-0.9146,0.061,-0.366,0.244,162.158,19.144,-63.078
8132,-0.3340,0.2944,-0.9155,-0.305,-0.427,0.244,162.153,19.149,-63.078
8143,-0.3354,0.2959,-0.9155,-0.488,-0.305,0.244,162.147,19.155,-63.078
8152,-0.3340,0.2949,-0.9150,-0.305,0.122,0.244,162.142,19.149,-63.078
8162,-0.3340,0.2964,-0.9136,-0.061,0.366,0.244,162.142,19.149,-63.078
8172,-0.3369,0.2949,-0.9165,0.244,0.427,0.305,162.142,19.144,-63.078
8182,-0.3350,0.2939,-0.9170,0.549,0.366,0.366,162.147,19.138,-63.078
8192,-0.3359,0.2905,-0.9180,0.732,0.305,0.366,162.158,19.138,-63.078
8202,-0.3359,0.2935,-0.9175,0.549,0.122,0.366,162.164,19.133,-63.078
8212,-0.3354,0.2925,-0.9189,0.244,0.061,0.305,162.169,19.133,-63.078
8222,-0.3320,0.2920,-0.9214,0.122,0.061,0.244,162.169,19.133,-63.078
8232,-0.3320,0.2949,-0.9204,0.183,0.061,0.305,162.169,19.127,-63.078
8243,-0.3345,0.2944,-0.9170,0.244,-0.061,0.305,162.175,19.127,-63.078
8252,-0.3340,0.2969,-0.9131,0.305,-0.244,0.305,162.175,19.127,-63.078
8263,-0.3320,0.2944,-0.9121,0.244,-0.305,0.244,162.175,19.133,-63.078
8272,-0.3330,0.2954,-0.9160,0.000,-0.305,0.244,162.169,19.133,-63.078
8283,-0.3335,0.2959,-0.9160,-0.061,-0.061,0.244,162.169,19.133,-63.078
8293,-0.3345,0.2949,-0.9160,0.061,0.305,0.183,162.169,19.127,-63.078
8302,-0.3311,0.2949,-0.9165,0.183,0.427,0.183,162.169,19.122,-63.078
8313,-0.3320,0.2939,-0.9185,0.366,0.305,0.122,162.175,19.116,-63.078
8323,-0.3350,0.2954,-0.9209,0.427,-0.061,0.122,162.180,19.116,-63.078
8333,-0.3350,0.2930,-0.9170,0.488,-0.427,0.183,162.186,19.122,-63.078
8343,-0.3369,0.2935,-0.9175,0.366,-0.610,0.122,162.186,19.127,-63.078
8353,-0.3364,0.2930,-0.9131,0.122,-0.488,0.061,162.191,19.138,-63.078
8363,-0.3398,0.2925,-0.9106,-0.061,-0.305,0.061,162.186,19.144,-63.078
8373,-0.3394,0.2930,-0.9111,-0.122,-0.061,0.122,162.186,19.149,-63.078
8383,-0.3384,0.2959,-0.9092,-0.061,0.061,0.122,162.180,19.149,-63.078
8392,-0.3364,0.2949,-0.9092,0.244,0.000,0.183,162.180,19.149,-63.078
8403,-0.3364,0.2939,-0.9097,0.427,0.000,0.183,162.186,19.155,-63.078
8413,-0.3359,0.2954,-0.9121,0.488,0.183,0.183,162.191,19.155,-63.078
8423,-0.3345,0.2959,-0.9150,0.305,0.549,0.183,162.191,19.149,-63.078
8433,-0.3350,0.2988,-0.9175,0.061,0.916,0.122,162.191,19.138,-63.078
8443,-0.3335,0.3008,-0.9170,-0.061,1.099,0.000,162.186,19.127,-63.078
8453,-0.3345,0.2988,-0.9209,0.000,0.977,-0.122,162.186,19.116,-63.078
8463,-0.3350,0.2959,-0.9214,0.183,0.732,-0.183,162.191,19.111,-63.078
8473,-0.3354,0.2949,-0.9219,0.122,0.366,-0.244,162.191,19.111,-63.078
8483,-0.3354,0.2930,-0.9229,-0.061,-0.061,-0.305,162.197,19.111,-63.078
8493,-0.3350,0.2944,-0.9214,-0.183,-0.305,-0.305,162.197,19.116,-63.078
8503,-0.3340,0.2939,-0.9209,-0.061,-0.305,-0.183,162.197,19.116,-63.078
8513,-0.3364,0.2920,-0.9199,0.366,-0.244,-0.122,162.202,19.122,-63.078
8523,-0.3359,0.2900,-0.9180,0.549,-0.244,-0.122,162.208,19.122,-63.078
8533,-0.3350,0.2886,-0.9160,0.488,-0.427,-0.061,162.219,19.127,-63.078
8543,-0.3359,0.2881,-0.9204,0.122,-0.549,0.000,162.219,19.133,-63.078
8553,-0.3335,0.2891,-0.9180,-0.122,-0.427,0.061,162.224,19.138,-63.078
8563,-0.3315,0.2881,-0.9146,-0.061,-0.366,0.183,162.224,19.144,-63.078
8573,-0.3325,0.2891,-0.9126,0.183,-0.610,0.183,162.224,19.149,-63.078
8583,-0.3335,0.2876,-0.9146,0.244,-0.793,0.244,162.230,19.155,-63.078
8593,-0.3345,0.2871,-0.9116,0.183,-0.671,0.488,162.235,19.160,-63.078
8603,-0.3359,0.2861,-0.9106,-0.061,-0.305,0.671,162.235,19.166,-63.078
8613,-0.3359,0.2891,-0.9126,-0.305,0.000,0.793,162.230,19.160,-63.078
8623,-0.3374,0.2935,-0.9155,-0.244,0.183,0.854,162.224,19.160,-63.078
8633,-0.3345,0.2983,-0.9170,0.061,0.305,1.038,162.219,19.155,-63.089
8643,-0.3345,0.2979,-0.9185,0.549,0.305,1.099,162.219,19.149,-63.094
8653,-0.3354,0.2949,-0.9219,0.671,-0.061,1.038,162.224,19.144,-63.105
8663,-0.3345,0.2949,-0.9229,0.366,-0.549,0.854,162.224,19.144,-63.116
8673,-0.3330,0.2949,-0.9224,-0.122,-0.793,0.732,162.219,19.149,-63.127
8683,-0.3364,0.2935,-0.9189,-0.671,-0.854,0.671,162.213,19.155,-63.138
8693,-0.3364,0.2959,-0.9131,-0.916,-0.977,0.549,162.197,19.166,-63.144
8703,-0.3374,0.2954,-0.9116,-0.793,-1.160,0.549,162.186,19.177,-63.155
8713,-0.3384,0.2993,-0.9092,-0.427,-1.221,0.610,162.175,19.188,-63.166
8723,-0.3369,0.2988,-0.9111,0.305,-0.916,0.732,162.169,19.199,-63.177
8733,-0.3394,0.2974,-0.9136,0.916,-0.427,0.793,162.175,19.204,-63.182
8743,-0.3374,0.2949,-0.9126,0.977,-0.305,0.610,162.180,19.204,-63.193
8753,-0.3369,0.2949,-0.9136,0.488,-0.488,0.549,162.180,19.210,-63.199
8763,-0.3389,0.2949,-0.9116,-0.122,-0.549,0.427,162.175,19.215,-63.204
8773,-0.3403,0.2964,-0.9087,-0.549,-0.427,0.305,162.169,19.221,-63.210
8783,-0.3423,0.2988,-0.9087,-0.549,-0.244,0.244,162.158,19.232,-63.215
8793,-0.3408,0.2998,-0.9116,-0.244,0.000,0.122,162.153,19.232,-63.215
8803,-0.3394,0.2998,-0.9116,0.305,0.244,0.122,162.153,19.232,-63.215
8813,-0.3384,0.2983,-0.9116,0.671,0.427,0.183,162.153,19.232,-63.215
8823,-0.3394,0.2954,-0.9116,0.671,0.305,0.122,162.158,19.226,-63.215
8833,-0.3394,0.2959,-0.9136,0.305,0.122,0.122,162.164,19.232,-63.215
8843,-0.3394,0.2964,-0.9160,-0.061,0.183,0.061,162.158,19.232,-63.215
8853,-0.3369,0.2959,-0.9180,-0.305,0.366,0.000,162.158,19.226,-63.215
8863,-0.3384,0.2954,-0.9170,-0.366,0.427,-0.122,162.153,19.226,-63.210
8873,-0.3394,0.2954,-0.9146,-0.305,0.183,-0.122,162.153,19.226,-63.210
8883,-0.3394,0.2964,-0.9150,-0.122,0.061,-0.061,162.147,19.226,-63.210
8893,-0.3369,0.2949,-0.9150,0.183,0.061,0.061,162.153,19.226,-63.210
8903,-0.3350,0.2930,-0.9146,0.305,0.122,0.061,162.153,19.226,-63.210
8913,-0.3345,0.2915,-0.9155,0.122,0.183,0.000,162.158,19.221,-63.210
8923,-0.3345,0.2949,-0.9175,-0.122,0.061,0.061,162.158,19.221,-63.210
8933,-0.3345,0.2964,-0.9209,0.000,0.305,0.244,162.158,19.215,-63.210
8943,-0.3345,0.2944,-0.9233,0.427,0.427,0.366,162.158,19.210,-63.215
8953,-0.3325,0.2920,-0.9209,0.916,0.244,0.305,162.169,19.204,-63.215
8963,-0.3345,0.2891,-0.9180,0.977,-0.488,0.427,162.180,19.210,-63.221
8973,-0.3345,0.2886,-0.9165,0.610,-1.099,0.549,162.191,19.215,-63.232
8983,-0.3374,0.2896,-0.9146,0.061,-1.038,0.610,162.191,19.226,-63.243
8993,-0.3403,0.2920,-0.9136,-0.305,-0.549,0.610,162.186,19.232,-63.248
9003,-0.3408,0.2935,-0.9111,-0.427,-0.122,0.610,162.180,19.237,-63.254
9013,-0.3428,0.2949,-0.9087,-0.366,0.000,0.610,162.169,19.237,-63.259
9023,-0.3413,0.2969,-0.9072,-0.122,-0.061,0.732,162.164,19.243,-63.270
9033,-0.3403,0.2954,-0.9067,0.183,-0.183,0.793,162.158,19.243,-63.276
9043,-0.3408,0.2988,-0.9023,0.183,-0.183,0.671,162.153,19.248,-63.287
9053,-0.3398,0.3018,-0.9082,0.000,0.183,0.549,162.147,19.248,-63.292
9063,-0.3379,0.3037,-0.9102,0.000,0.854,0.488,162.142,19.243,-63.292
9073,-0.3374,0.3032,-0.9121,0.061,1.526,0.305,162.136,19.226,-63.292
9083,-0.3369,0.3057,-0.9150,0.061,1.709,0.061,162.131,19.210,-63.287
9093,-0.3394,0.3052,-0.9170,0.061,1.465,-0.183,162.131,19.199,-63.281
9103,-0.3398,0.3042,-0.9204,0.061,1.038,-0.427,162.131,19.193,-63.270
9113,-0.3389,0.3018,-0.9175,-0.122,0.610,-0.610,162.125,19.188,-63.265
9123,-0.3369,0.3042,-0.9175,-0.305,0.305,-0.916,162.125,19.188,-63.254
9133,-0.3379,0.3027,-0.9155,-0.244,0.244,-0.977,162.120,19.193,-63.243
9143,-0.3379,0.3003,-0.9126,0.000,0.427,-1.160,162.120,19.193,-63.232
9153,-0.3379,0.2964,-0.9126,0.061,0.549,-1.282,162.125,19.193,-63.215
9163,-0.3350,0.2920,-0.9126,-0.122,0.488,-1.404,162.131,19.193,-63.199
9173,-0.3369,0.2896,-0.9136,-0.549,0.366,-1.404,162.131,19.199,-63.182
9183,-0.3350,0.2891,-0.9141,-0.854,0.488,-1.282,162.131,19.199,-63.171
9193,-0.3335,0.2896,-0.9121,-0.793,0.610,-1.099,162.131,19.193,-63.155
9203,-0.3354,0.2886,-0.9126,-0.488,0.793,-0.916,162.131,19.188,-63.144
9213,-0.3379,0.2852,-0.9150,-0.061,0.854,-0.793,162.142,19.188,-63.133
9223,-0.3374,0.2842,-0.9150,0.000,0.854,-0.549,162.153,19.182,-63.127
9233,-0.3359,0.2861,-0.9155,-0.305,0.854,-0.366,162.153,19.177,-63.116
9243,-0.3359,0.2852,-0.9199,-0.671,0.916,-0.183,162.158,19.171,-63.111
9253,-0.3325,0.2905,-0.9204,-0.916,0.977,0.000,162.153,19.160,-63.111
9263,-0.3315,0.2920,-0.9238,-0.671,1.038,0.061,162.147,19.144,-63.105
9273,-0.3306,0.2925,-0.9224,-0.183,0.916,0.183,162.147,19.133,-63.105
9283,-0.3320,0.2910,-0.9219,0.000,0.549,0.305,162.153,19.127,-63.105
9293,-0.3335,0.2925,-0.9224,-0.244,0.061,0.366,162.153,19.122,-63.111
9303,-0.3359,0.2944,-0.9209,-0.610,-0.244,0.488,162.142,19.122,-63.116
9313,-0.3364,0.2949,-0.9155,-0.916,-0.427,0.549,162.131,19.127,-63.122
9323,-0.3359,0.2969,-0.9136,-1.099,-0.488,0.549,162.120,19.133,-63.133
9333,-0.3384,0.2979,-0.9111,-1.160,-0.488,0.488,162.103,19.138,-63.138
9343,-0.3394,0.2969,-0.9116,-1.038,-0.366,0.488,162.087,19.144,-63.144
9353,-0.3374,0.2998,-0.9082,-0.977,-0.122,0.427,162.076,19.149,-63.149
9363,-0.3389,0.3022,-0.9058,-0.793,0.000,0.488,162.059,19.149,-63.155
9373,-0.3384,0.3032,-0.9058,-0.427,0.122,0.427,162.048,19.149,-63.155
9383,-0.3398,0.3022,-0.9063,0.000,0.244,0.427,162.043,19.149,-63.160
9393,-0.3394,0.3013,-0.9102,0.244,0.427,0.366,162.043,19.149,-63.160
9403,-0.3389,0.3003,-0.9102,0.183,0.671,0.244,162.037,19.144,-63.166
9413,-0.3369,0.3027,-0.9106,0.061,0.916,0.183,162.037,19.138,-63.160
9423,-0.3389,0.3037,-0.9106,-0.061,1.038,0.061,162.032,19.133,-63.160
9433,-0.3394,0.3047,-0.9136,-0.122,1.099,-0.122,162.026,19.127,-63.155
9443,-0.3384,0.3057,-0.9146,0.061,1.038,-0.244,162.026,19.116,-63.149
9453,-0.3374,0.3032,-0.9126,0.305,1.099,-0.305,162.026,19.111,-63.144
9463,-0.3359,0.3018,-0.9146,0.366,1.160,-0.488,162.026,19.105,-63.133
9473,-0.3345,0.3027,-0.9155,0.427,1.221,-0.610,162.032,19.094,-63.122
9483,-0.3364,0.3018,-0.9185,0.366,1.221,-0.610,162.037,19.083,-63.111
9493,-0.3359,0.3008,-0.9150,0.427,1.099,-0.671,162.043,19.078,-63.100
9503,-0.3350,0.3013,-0.9121,0.549,0.977,-0.732,162.048,19.072,-63.094
9513,-0.3359,0.2954,-0.9121,0.549,0.732,-0.732,162.059,19.072,-63.083
9523,-0.3345,0.2954,-0.9165,0.427,0.671,-0.854,162.065,19.067,-63.073
9533,-0.3364,0.2944,-0.9165,0.061,0.916,-0.854,162.070,19.061,-63.062
9543,-0.3354,0.2944,-0.9160,-0.183,1.282,-0.854,162.076,19.056,-63.045
9553,-0.3325,0.2974,-0.9209,-0.183,1.526,-0.732,162.076,19.045,-63.034
9563,-0.3276,0.2954,-0.9253,0.244,1.526,-0.671,162.087,19.028,-63.023
9573,-0.3262,0.2910,-0.9219,0.793,1.221,-0.549,162.098,19.012,-63.012
9583,-0.3291,0.2891,-0.9214,1.221,0.610,-0.366,162.120,19.006,-63.007
9593,-0.3291,0.2861,-0.9204,1.099,0.122,-0.244,162.136,19.006,-63.007
9603,-0.3330,0.2866,-0.9189,0.488,-0.122,-0.122,162.147,19.006,-63.007
9613,-0.3350,0.2876,-0.9136,-0.183,0.000,0.000,162.147,19.006,-63.007
9623,-0.3354,0.2905,-0.9141,-0.671,0.244,0.061,162.147,19.006,-63.007
9633,-0.3364,0.2944,-0.9136,-0.671,0.366,0.183,162.136,19.006,-63.007
9644,-0.3359,0.2944,-0.9155,-0.183,0.427,0.366,162.136,19.006,-63.007
9653,-0.3374,0.2930,-0.9155,0.427,0.366,0.549,162.142,19.006,-63.012
9663,-0.3345,0.2925,-0.9155,0.793,0.305,0.610,162.147,19.001,-63.018
9673,-0.3340,0.2915,-0.9170,0.793,0.244,0.671,162.153,18.995,-63.023
9683,-0.3320,0.2939,-0.9209,0.427,0.305,0.671,162.158,18.990,-63.029
9693,-0.3315,0.2969,-0.9199,0.122,0.427,0.671,162.158,18.984,-63.034
9703,-0.3325,0.2979,-0.9194,0.000,0.549,0.671,162.153,18.979,-63.040
9713,-0.3311,0.3008,-0.9209,0.183,0.427,0.549,162.153,18.973,-63.045
9723,-0.3340,0.3018,-0.9189,0.366,0.305,0.488,162.153,18.968,-63.045
9733,-0.3345,0.3008,-0.9175,0.427,0.061,0.427,162.153,18.968,-63.051
9743,-0.3335,0.3003,-0.9165,0.366,-0.183,0.366,162.153,18.968,-63.056
9753,-0.3354,0.3003,-0.9146,0.183,-0.366,0.244,162.147,18.973,-63.062
9763,-0.3369,0.3003,-0.9131,0.122,-0.427,0.122,162.147,18.984,-63.062
9773,-0.3374,0.2998,-0.9121,0.183,-0.244,-0.061,162.142,18.990,-63.062
9783,-0.3359,0.2954,-0.9111,0.183,0.122,-0.183,162.147,18.990,-63.062
9793,-0.3359,0.2954,-0.9111,0.061,0.427,-0.244,162.147,18.990,-63.056
9803,-0.3345,0.2964,-0.9141,0.000,0.671,-0.244,162.147,18.990,-63.051
9813,-0.3325,0.2969,-0.9126,0.061,0.610,-0.183,162.147,18.984,-63.045
9823,-0.3311,0.2983,-0.9136,0.305,0.488,0.000,162.147,18.979,-63.045
9833,-0.3325,0.2949,-0.9141,0.671,0.427,0.061,162.153,18.979,-63.045
9843,-0.3345,0.2930,-0.9150,0.793,0.610,0.122,162.164,18.973,-63.045
9853,-0.3345,0.2910,-0.9175,0.610,0.793,0.122,162.175,18.968,-63.045
9863,-0.3330,0.2939,-0.9185,0.244,1.038,0.183,162.175,18.957,-63.040
9873,-0.3330,0.2959,-0.9185,-0.122,1.038,0.122,162.175,18.946,-63.040
9883,-0.3306,0.2954,-0.9185,-0.122,0.793,0.122,162.175,18.940,-63.040
9893,-0.3306,0.2964,-0.9194,0.061,0.549,0.122,162.175,18.935,-63.040
9903,-0.3320,0.2939,-0.9214,0.244,0.244,0.122,162.180,18.929,-63.040
9915,-0.3330,0.2935,-0.9199,0.366,0.122,0.122,162.180,18.929,-63.040
9923,-0.3320,0.2925,-0.9219,0.244,0.061,0.122,162.186,18.929,-63.040
9933,-0.3330,0.2925,-0.9194,0.122,0.061,0.183,162.191,18.929,-63.040
9943,-0.3330,0.2930,-0.9180,0.000,-0.061,0.244,162.191,18.929,-63.045
9953,-0.3320,0.2939,-0.9180,0.122,-0.244,0.244,162.191,18.935,-63.045
9963,-0.3330,0.2930,-0.9170,0.305,-0.366,0.305,162.191,18.935,-63.051
9973,-0.3325,0.2935,-0.9160,0.427,-0.427,0.366,162.197,18.940,-63.056
9983,-0.3330,0.2935,-0.9165,0.244,-0.427,0.366,162.197,18.946,-63.062
9993,-0.3350,0.2920,-0.9126,0.000,-0.244,0.366,162.197,18.951,-63.067
10003,-0.3330,0.2944,-0.9126,-0.244,0.000,0.366,162.191,18.951,-63.067
10013,-0.3350,0.2983,-0.9121,-0.366,0.244,0.366,162.186,18.951,-63.073
10023,-0.3330,0.2964,-0.9150,-0.122,0.488,0.427,162.180,18.946,-63.073
10033,-0.3335,0.2954,-0.9141,0.183,0.549,0.427,162.180,18.940,-63.078
10043,-0.3345,0.2969,-0.9185,0.305,0.488,0.427,162.180,18.940,-63.078
10053,-0.3350,0.2988,-0.9199,0.305,0.549,0.488,162.180,18.935,-63.083
10063,-0.3335,0.2969,-0.9194,0.366,0.610,0.427,162.186,18.929,-63.083
10073,-0.3335,0.2949,-0.9185,0.366,0.488,0.244,162.186,18.924,-63.089
10083,-0.3359,0.2974,-0.9199,0.122,0.061,0.183,162.186,18.924,-63.089
10093,-0.3350,0.3008,-0.9199,-0.122,-0.244,0.183,162.180,18.929,-63.089
10103,-0.3315,0.3003,-0.9165,-0.061,-0.305,0.183,162.180,18.929,-63.094
10113,-0.3306,0.2998,-0.9170,0.061,-0.366,0.000,162.175,18.935,-63.094
10123,-0.3335,0.3018,-0.9155,0.000,-0.366,-0.183,162.169,18.940,-63.094
10133,-0.3350,0.2998,-0.9165,0.122,-0.244,-0.305,162.169,18.946,-63.094
10144,-0.3330,0.2959,-0.9185,0.244,0.000,-0.305,162.175,18.946,-63.089
10153,-0.3315,0.2925,-0.9170,-0.061,-0.122,-0.366,162.175,18.951,-63.083
10163,-0.3340,0.2939,-0.9160,-0.427,-0.427,-0.366,162.169,18.957,-63.083
10173,-0.3350,0.2944,-0.9185,-0.488,-0.549,-0.244,162.169,18.962,-63.083
10183,-0.3345,0.2920,-0.9150,-0.244,-0.488,-0.061,162.164,18.973,-63.083
10193,-0.3350,0.2910,-0.9097,-0.122,-0.366,0.061,162.164,18.979,-63.083
10203,-0.3369,0.2925,-0.9092,-0.061,-0.366,0.183,162.164,18.984,-63.083
10213,-0.3374,0.2920,-0.9092,-0.061,-0.305,0.244,162.164,18.995,-63.083
10223,-0.3398,0.2915,-0.9072,-0.183,-0.122,0.305,162.158,19.001,-63.083
10233,-0.3384,0.2900,-0.9043,-0.549,0.000,0.244,162.153,19.006,-63.083
10243,-0.3379,0.2944,-0.9087,-0.793,0.061,0.183,162.142,19.006,-63.083
10253,-0.3379,0.2969,-0.9141,-0.427,0.427,0.244,162.136,19.006,-63.083
10263,-0.3359,0.2983,-0.9136,0.183,0.916,0.366,162.136,19.001,-63.083
10273,-0.3315,0.3013,-0.9189,0.610,1.160,0.366,162.142,18.990,-63.083
10283,-0.3320,0.3032,-0.9194,0.793,1.038,0.427,162.147,18.973,-63.083
10293,-0.3315,0.3013,-0.9214,0.671,0.793,0.366,162.147,18.968,-63.083
10303,-0.3330,0.3013,-0.9233,0.183,0.549,0.183,162.147,18.962,-63.083
10313,-0.3350,0.3057,-0.9253,-0.427,0.244,0.000,162.142,18.957,-63.083
10323,-0.3340,0.3047,-0.9238,-0.671,-0.061,-0.122,162.131,18.957,-63.083
10333,-0.3345,0.3032,-0.9209,-0.610,-0.244,-0.305,162.120,18.962,-63.083
10343,-0.3340,0.3027,-0.9180,-0.305,-0.671,-0.427,162.114,18.973,-63.083
10353,-0.3345,0.3027,-0.9141,0.000,-0.977,-0.549,162.109,18.984,-63.083
10363,-0.3345,0.2964,-0.9126,0.244,-0.977,-0.610,162.114,18.995,-63.083
10373,-0.3345,0.2944,-0.9106,0.183,-0.549,-0.671,162.114,19.006,-63.083
10383,-0.3359,0.2925,-0.9077,-0.122,-0.061,-0.732,162.120,19.012,-63.083
10393,-0.3379,0.2910,-0.9111,-0.427,0.366,-0.671,162.120,19.017,-63.083
10403,-0.3374,0.2915,-0.9092,-0.488,0.610,-0.427,162.114,19.017,-63.083
10413,-0.3369,0.2915,-0.9121,0.000,0.732,-0.061,162.120,19.012,-63.083
10423,-0.3335,0.2915,-0.9150,0.488,0.793,0.122,162.125,19.006,-63.083
10433,-0.3325,0.2930,-0.9224,0.732,0.732,0.244,162.136,19.001,-63.083
10443,-0.3311,0.2939,-0.9229,0.610,0.732,0.305,162.142,18.990,-63.083
10453,-0.3311,0.2954,-0.9253,0.244,0.732,0.427,162.147,18.979,-63.083
10463,-0.3291,0.2954,-0.9253,-0.122,0.610,0.305,162.147,18.973,-63.083
10473,-0.3286,0.2949,-0.9238,-0.244,0.244,0.244,162.147,18.968,-63.083
10483,-0.3311,0.2930,-0.9224,-0.183,-0.244,0.244,162.142,18.968,-63.083
10493,-0.3325,0.2905,-0.9199,-0.183,-0.671,0.244,162.142,18.973,-63.083
10503,-0.3354,0.2915,-0.9175,-0.427,-0.916,0.366,162.142,18.984,-63.083
10513,-0.3345,0.2959,-0.9185,-0.610,-0.732,0.549,162.131,18.990,-63.083
10523,-0.3335,0.2979,-0.9170,-0.427,-0.488,0.671,162.125,18.995,-63.083
10533,-0.3335,0.2979,-0.9155,0.000,-0.305,0.671,162.120,18.995,-63.083
10543,-0.3345,0.2974,-0.9165,0.366,-0.427,0.610,162.120,19.001,-63.083
10553,-0.3369,0.2969,-0.9141,0.427,-0.671,0.610,162.120,19.006,-63.083
10563,-0.3369,0.2974,-0.9102,0.183,-0.793,0.610,162.114,19.017,-63.083
10573,-0.3364,0.2979,-0.9111,-0.183,-0.610,0.610,162.109,19.023,-63.083
10583,-0.3389,0.3022,-0.9126,-0.366,-0.244,0.427,162.098,19.028,-63.083
10593,-0.3389,0.3003,-0.9155,-0.183,0.244,0.366,162.092,19.028,-63.083
10603,-0.3359,0.2998,-0.9141,0.244,0.427,0.366,162.092,19.023,-63.083
10613,-0.3325,0.3003,-0.9126,0.366,0.122,0.366,162.092,19.023,-63.083
10623,-0.3340,0.3018,-0.9141,0.244,-0.488,0.305,162.092,19.028,-63.083
10633,-0.3379,0.3022,-0.9136,0.061,-0.793,0.244,162.087,19.039,-63.083
10644,-0.3384,0.3003,-0.9106,0.061,-0.427,0.122,162.081,19.045,-63.083
10653,-0.3379,0.3003,-0.9077,0.000,0.061,0.000,162.076,19.050,-63.083
10663,-0.3354,0.3003,-0.9131,0.122,0.488,-0.122,162.076,19.045,-63.083
10673,-0.3350,0.2993,-0.9146,0.305,0.671,-0.183,162.081,19.045,-63.083
10683,-0.3340,0.2993,-0.9141,0.488,0.671,-0.183,162.081,19.039,-63.083
10693,-0.3350,0.2974,-0.9131,0.488,0.366,-0.183,162.087,19.039,-63.083
10703,-0.3340,0.2964,-0.9146,0.427,-0.061,-0.244,162.092,19.039,-63.083
10713,-0.3364,0.2949,-0.9141,0.061,-0.183,-0.244,162.092,19.045,-63.083
10723,-0.3379,0.2959,-0.9141,-0.366,0.061,-0.244,162.092,19.050,-63.083
10733,-0.3369,0.2969,-0.9170,-0.549,0.427,-0.183,162.087,19.045,-63.083
10743,-0.3364,0.3003,-0.9194,-0.305,0.732,-0.183,162.081,19.045,-63.083
10753,-0.3335,0.2983,-0.9199,0.244,0.671,-0.122,162.087,19.034,-63.083
10763,-0.3320,0.2949,-0.9165,0.671,0.366,-0.122,162.092,19.034,-63.083
10773,-0.3311,0.2935,-0.9189,0.671,-0.122,-0.122,162.103,19.034,-63.083
10783,-0.3330,0.2925,-0.9189,0.366,-0.488,0.061,162.109,19.039,-63.083
10793,-0.3369,0.2905,-0.9141,0.000,-0.488,0.122,162.109,19.045,-63.083
10803,-0.3418,0.2891,-0.9082,-0.305,-0.305,0.183,162.109,19.056,-63.083
10813,-0.3408,0.2935,-0.9058,-0.488,-0.244,0.305,162.103,19.061,-63.083
10823,-0.3394,0.2974,-0.9058,-0.366,-0.122,0.488,162.092,19.067,-63.083
10833,-0.3350,0.3022,-0.9097,0.244,0.183,0.671,162.087,19.067,-63.083
10843,-0.3359,0.2988,-0.9082,0.916,0.427,0.610,162.092,19.061,-63.083
10853,-0.3369,0.2959,-0.9082,1.038,0.549,0.366,162.103,19.061,-63.083
10863,-0.3354,0.2959,-0.9106,0.488,0.305,0.244,162.103,19.061,-63.083
10873,-0.3350,0.3013,-0.9131,-0.305,0.366,0.244,162.098,19.056,-63.083
10883,-0.3359,0.3047,-0.9185,-0.549,0.854,0.305,162.087,19.050,-63.083
10893,-0.3354,0.3047,-0.9180,-0.061,1.282,0.244,162.081,19.034,-63.083
10903,-0.3359,0.3037,-0.9219,0.610,1.404,0.061,162.087,19.023,-63.083
10913,-0.3345,0.3027,-0.9258,0.977,0.916,0.000,162.098,19.012,-63.083
10923,-0.3315,0.3013,-0.9233,0.854,0.183,-0.061,162.103,19.012,-63.083
10933,-0.3320,0.2964,-0.9199,0.305,-0.549,-0.183,162.109,19.017,-63.083
10943,-0.3354,0.2969,-0.9150,-0.427,-0.977,-0.427,162.103,19.028,-63.083
10953,-0.3374,0.2979,-0.9116,-1.038,-1.099,-0.610,162.092,19.045,-63.083
10963,-0.3384,0.3008,-0.9111,-1.038,-0.671,-0.549,162.076,19.056,-63.083
10973,-0.3330,0.2939,-0.9111,0.488,0.854,-0.427,162.087,19.050,-63.083
10983,-0.3340,0.2939,-0.9146,0.854,0.854,-0.366,162.098,19.045,-63.083
10993,-0.3330,0.2935,-0.9155,0.732,0.366,-0.183,162.109,19.045,-63.083
11003,-0.3340,0.2930,-0.9146,0.427,-0.061,0.061,162.114,19.045,-63.083
11013,-0.3350,0.2925,-0.9141,0.183,-0.183,0.244,162.114,19.050,-63.083
11023,-0.3379,0.2920,-0.9097,0.061,-0.122,0.183,162.114,19.050,-63.083
11033,-0.3384,0.2910,-0.9102,-0.061,0.122,0.244,162.114,19.056,-63.083
11043,-0.3354,0.2954,-0.9136,-0.183,0.366,0.305,162.114,19.050,-63.083
11053,-0.3350,0.2983,-0.9209,-0.061,0.977,0.366,162.109,19.045,-63.083
11063,-0.3320,0.2979,-0.9233,0.244,1.282,0.366,162.114,19.028,-63.083
11073,-0.3311,0.2979,-0.9253,0.366,1.099,0.305,162.120,19.017,-63.083
11083,-0.3335,0.2964,-0.9268,0.244,0.366,0.244,162.120,19.012,-63.083
11093,-0.3335,0.2969,-0.9243,-0.183,-0.427,0.305,162.120,19.012,-63.083
11103,-0.3369,0.2974,-0.9214,-0.488,-0.916,0.305,162.114,19.023,-63.083
11113,-0.3364,0.2983,-0.9199,-0.549,-1.099,0.305,162.103,19.034,-63.083
11123,-0.3354,0.2979,-0.9180,-0.183,-0.916,0.305,162.098,19.039,-63.083
11133,-0.3345,0.2983,-0.9116,0.244,-0.793,0.305,162.098,19.050,-63.083
11144,-0.3345,0.2964,-0.9106,0.488,-0.854,0.244,162.098,19.061,-63.083
11153,-0.3369,0.2969,-0.9082,0.183,-1.099,0.244,162.098,19.072,-63.083
11163,-0.3384,0.2969,-0.9077,-0.122,-1.099,0.244,162.092,19.089,-63.083
11173,-0.3398,0.2983,-0.9048,-0.244,-0.732,0.244,162.081,19.100,-63.083
11183,-0.3398,0.2969,-0.9038,-0.183,-0.305,0.183,162.076,19.105,-63.083
11193,-0.3384,0.3003,-0.9053,0.000,0.183,0.305,162.076,19.111,-63.083
11203,-0.3369,0.2988,-0.9058,0.366,0.610,0.305,162.076,19.105,-63.083
11213,-0.3369,0.2993,-0.9111,0.671,0.854,0.366,162.076,19.100,-63.083
11223,-0.3384,0.2988,-0.9155,0.671,0.916,0.305,162.081,19.089,-63.083
11233,-0.3359,0.2998,-0.9189,0.488,0.854,0.183,162.087,19.083,-63.083
11243,-0.3359,0.3008,-0.9214,0.122,0.732,0.122,162.087,19.078,-63.083
11253,-0.3369,0.3022,-0.9204,-0.183,0.610,0.061,162.081,19.072,-63.083
11263,-0.3340,0.3013,-0.9185,-0.305,0.244,0.000,162.076,19.067,-63.083
11273,-0.3354,0.3013,-0.9150,-0.305,-0.244,0.000,162.070,19.072,-63.083
11283,-0.3354,0.3052,-0.9155,-0.122,-0.549,-0.061,162.065,19.078,-63.083
11293,-0.3345,0.3071,-0.9165,0.427,-0.366,-0.183,162.059,19.083,-63.083
11303,-0.3345,0.3018,-0.9170,0.977,0.122,-0.305,162.070,19.083,-63.083
11313,-0.3340,0.2964,-0.9165,0.977,0.427,-0.488,162.081,19.083,-63.083
11323,-0.3359,0.2949,-0.9229,0.488,0.488,-0.549,162.092,19.078,-63.083
11333,-0.3359,0.2944,-0.9209,-0.122,0.366,-0.549,162.092,19.078,-63.083
11343,-0.3369,0.2954,-0.9204,-0.427,0.122,-0.488,162.092,19.078,-63.083
11353,-0.3340,0.2944,-0.9194,-0.366,-0.305,-0.488,162.092,19.083,-63.083
11363,-0.3340,0.2925,-0.9170,-0.122,-0.916,-0.366,162.092,19.094,-63.083
11373,-0.3325,0.2920,-0.9141,0.061,-1.404,-0.244,162.092,19.111,-63.083
11383,-0.3364,0.2935,-0.9160,0.244,-1.221,0.000,162.098,19.122,-63.083
11393,-0.3384,0.2910,-0.9136,0.427,-0.488,0.122,162.103,19.127,-63.083
11403,-0.3374,0.2900,-0.9111,0.488,0.061,0.183,162.109,19.133,-63.083
11413,-0.3394,0.2881,-0.9097,0.366,0.122,0.183,162.114,19.133,-63.083
11423,-0.3389,0.2905,-0.9116,0.000,-0.183,0.244,162.114,19.138,-63.083
11433,-0.3408,0.2920,-0.9092,-0.305,-0.488,0.366,162.114,19.149,-63.083
11443,-0.3379,0.2949,-0.9058,-0.488,-0.488,0.427,162.103,19.155,-63.083
11453,-0.3379,0.2993,-0.9121,-0.366,-0.061,0.427,162.098,19.155,-63.083
11463,-0.3345,0.2998,-0.9155,0.183,0.610,0.549,162.092,19.149,-63.083
11473,-0.3354,0.2993,-0.9136,0.549,1.038,0.488,162.098,19.138,-63.083
11483,-0.3359,0.2983,-0.9170,0.549,0.854,0.427,162.103,19.127,-63.083
11493,-0.3379,0.3003,-0.9199,0.061,0.366,0.305,162.098,19.127,-63.083
11503,-0.3384,0.3047,-0.9214,-0.305,-0.061,0.183,162.092,19.127,-63.083
11513,-0.3374,0.3037,-0.9189,-0.549,-0.183,0.000,162.081,19.127,-63.083
11523,-0.3354,0.3042,-0.9170,-0.610,-0.244,-0.244,162.070,19.133,-63.083
11533,-0.3345,0.3013,-0.9160,-0.488,-0.549,-0.488,162.065,19.138,-63.083
11543,-0.3350,0.3003,-0.9136,-0.366,-0.854,-0.549,162.059,19.149,-63.083
11553,-0.3364,0.2988,-0.9116,-0.244,-0.854,-0.549,162.054,19.160,-63.083
11563,-0.3389,0.2944,-0.9072,-0.305,-0.549,-0.549,162.054,19.171,-63.083
11573,-0.3413,0.2920,-0.9072,-0.305,-0.183,-0.549,162.054,19.182,-63.083
11583,-0.3418,0.2920,-0.9092,-0.427,0.183,-0.488,162.054,19.188,-63.083
11593,-0.3418,0.2935,-0.9102,-0.488,0.427,-0.305,162.048,19.188,-63.083
11603,-0.3394,0.2964,-0.9126,-0.305,0.488,-0.183,162.048,19.188,-63.083
11613,-0.3369,0.2954,-0.9131,0.061,0.427,0.000,162.048,19.182,-63.083
11623,-0.3345,0.2935,-0.9131,0.488,0.183,0.122,162.054,19.182,-63.083
11633,-0.3350,0.2954,-0.9175,0.671,0.183,0.061,162.065,19.182,-63.083
11644,-0.3350,0.2920,-0.9204,0.488,0.183,0.122,162.070,19.177,-63.083
11653,-0.3369,0.2954,-0.9209,0.061,0.244,0.122,162.070,19.177,-63.083
11663,-0.3374,0.2954,-0.9224,-0.244,0.122,0.122,162.070,19.177,-63.083
11673,-0.3359,0.2964,-0.9224,-0.366,-0.061,0.183,162.070,19.171,-63.083
11683,-0.3325,0.2964,-0.9233,-0.305,-0.427,0.122,162.065,19.177,-63.083
11693,-0.3315,0.2969,-0.9219,-0.122,-0.793,0.122,162.065,19.177,-63.083
11703,-0.3335,0.2930,-0.9170,-0.244,-1.160,0.122,162.065,19.188,-63.083
11713,-0.3369,0.2915,-0.9126,-0.671,-1.404,0.122,162.054,19.204,-63.083
11723,-0.3403,0.2939,-0.9082,-1.160,-1.282,0.183,162.043,19.221,-63.083
11733,-0.3389,0.2954,-0.9067,-1.221,-0.793,0.305,162.026,19.232,-63.083
11743,-0.3418,0.2949,-0.9082,-0.793,-0.244,0.427,162.015,19.237,-63.083
11753,-0.3398,0.2949,-0.9087,-0.244,0.183,0.549,162.015,19.237,-63.083
11763,-0.3394,0.2959,-0.9097,0.183,0.244,0.671,162.015,19.232,-63.083
11773,-0.3374,0.2983,-0.9136,0.305,0.183,0.732,162.015,19.232,-63.083
11783,-0.3379,0.2993,-0.9160,0.305,0.183,0.732,162.015,19.226,-63.083
11793,-0.3379,0.2993,-0.9180,0.122,0.122,0.671,162.010,19.226,-63.083
11803,-0.3384,0.3027,-0.9180,-0.183,0.000,0.488,162.004,19.226,-63.083
11813,-0.3408,0.3057,-0.9155,-0.244,-0.244,0.366,161.999,19.226,-63.083
11823,-0.3408,0.3062,-0.9194,-0.122,-0.366,0.366,161.988,19.232,-63.083
11833,-0.3379,0.3047,-0.9165,0.122,-0.549,0.244,161.988,19.237,-63.083
11843,-0.3374,0.3037,-0.9150,0.244,-0.671,0.000,161.982,19.243,-63.083
11853,-0.3359,0.3008,-0.9126,0.122,-0.793,-0.183,161.982,19.254,-63.083
11863,-0.3364,0.2974,-0.9121,-0.183,-0.732,-0.244,161.982,19.259,-63.083
11873,-0.3374,0.2964,-0.9087,-0.549,-0.427,-0.305,161.977,19.270,-63.083
11883,-0.3413,0.2944,-0.9092,-0.732,-0.183,-0.244,161.971,19.276,-63.083
11893,-0.3428,0.2964,-0.9072,-0.671,0.000,-0.244,161.960,19.281,-63.083
11903,-0.3428,0.2964,-0.9082,-0.366,0.122,-0.061,161.960,19.281,-63.083
11916,-0.3403,0.2964,-0.9087,0.061,0.244,0.061,161.960,19.281,-63.083
11923,-0.3398,0.2974,-0.9097,0.183,0.305,0.061,161.960,19.281,-63.083
11933,-0.3394,0.3003,-0.9150,0.122,0.427,0.000,161.960,19.281,-63.083
11943,-0.3374,0.2993,-0.9180,0.122,0.610,0.000,161.960,19.276,-63.083
11953,-0.3364,0.2983,-0.9214,0.061,0.793,-0.061,161.966,19.265,-63.083
11963,-0.3374,0.2983,-0.9243,0.000,0.610,-0.183,161.966,19.259,-63.083
11973,-0.3379,0.2983,-0.9238,0.061,0.183,-0.183,161.971,19.259,-63.083
11983,-0.3364,0.2979,-0.9209,0.122,-0.488,-0.122,161.971,19.265,-63.083
11993,-0.3359,0.2959,-0.9155,0.183,-1.038,-0.061,161.977,19.270,-63.083
12003,-0.3364,0.2954,-0.9131,0.244,-1.282,0.000,161.977,19.286,-63.083
12013,-0.3394,0.2939,-0.9102,0.122,-1.343,0.061,161.977,19.297,-63.083
12023,-0.3413,0.2949,-0.9058,0.000,-1.099,0.183,161.977,19.314,-63.083
12033,-0.3433,0.2935,-0.9014,-0.183,-0.793,0.183,161.971,19.325,-63.083
12043,-0.3437,0.2944,-0.9009,-0.305,-0.427,0.183,161.966,19.336,-63.083
12053,-0.3413,0.2959,-0.8999,-0.244,-0.061,0.244,161.960,19.341,-63.083
12063,-0.3403,0.2979,-0.9019,-0.061,0.427,0.305,161.960,19.341,-63.083
12073,-0.3394,0.2979,-0.9072,0.183,0.977,0.366,161.960,19.330,-63.083
12083,-0.3389,0.3027,-0.9102,0.366,1.343,0.366,161.960,19.319,-63.083
12093,-0.3379,0.3027,-0.9165,0.549,1.526,0.366,161.960,19.303,-63.083
12103,-0.3374,0.3057,-0.9224,0.732,1.404,0.305,161.966,19.286,-63.083
12113,-0.3364,0.3057,-0.9248,0.671,1.099,0.183,161.971,19.276,-63.083
12123,-0.3374,0.3052,-0.9253,0.427,0.488,0.000,161.977,19.270,-63.083
12134,-0.3364,0.3057,-0.9282,0.061,-0.122,-0.244,161.971,19.265,-63.083
12144,-0.3345,0.3047,-0.9238,-0.183,-0.549,-0.427,161.971,19.270,-63.083
12153,-0.3364,0.3022,-0.9189,-0.305,-0.854,-0.610,161.966,19.281,-63.083
12163,-0.3389,0.2998,-0.9121,-0.305,-1.099,-0.793,161.966,19.292,-63.083
12173,-0.3408,0.2959,-0.9106,-0.244,-1.099,-0.854,161.966,19.308,-63.083
12183,-0.3408,0.2925,-0.9087,-0.183,-0.916,-0.793,161.966,19.325,-63.083
12193,-0.3413,0.2896,-0.9063,-0.244,-0.488,-0.671,161.966,19.336,-63.083
12203,-0.3418,0.2891,-0.9058,-0.305,-0.122,-0.549,161.971,19.341,-63.083
12214,-0.3403,0.2900,-0.9067,-0.366,0.183,-0.366,161.971,19.347,-63.083
12224,-0.3403,0.2925,-0.9072,-0.122,0.427,-0.061,161.971,19.347,-63.083
12234,-0.3389,0.2910,-0.9092,0.244,0.549,0.183,161.977,19.341,-63.083
12244,-0.3394,0.2905,-0.9111,0.366,0.427,0.183,161.982,19.336,-63.083
12254,-0.3384,0.2920,-0.9136,0.305,0.305,0.244,161.988,19.336,-63.083
12264,-0.3403,0.2954,-0.9155,0.000,0.427,0.366,161.988,19.330,-63.083
12274,-0.3379,0.2983,-0.9170,-0.305,0.732,0.427,161.988,19.325,-63.083
12284,-0.3369,0.2979,-0.9160,-0.244,0.916,0.366,161.982,19.314,-63.083
12294,-0.3379,0.2988,-0.9194,-0.061,0.671,0.305,161.982,19.303,-63.083
12304,-0.3369,0.2983,-0.9185,0.122,0.366,0.366,161.982,19.303,-63.083
12314,-0.3369,0.2969,-0.9170,0.122,-0.061,0.366,161.982,19.297,-63.083
12324,-0.3374,0.2974,-0.9150,-0.183,-0.244,0.305,161.982,19.303,-63.083
12334,-0.3403,0.2988,-0.9160,-0.549,-0.427,0.183,161.971,19.308,-63.083
12344,-0.3403,0.2993,-0.9126,-0.854,-0.427,0.183,161.960,19.314,-63.083
12354,-0.3403,0.2983,-0.9097,-0.916,-0.366,0.183,161.949,19.319,-63.083
12364,-0.3398,0.3003,-0.9082,-0.488,-0.244,0.183,161.944,19.319,-63.083
12374,-0.3398,0.2983,-0.9136,0.122,-0.122,0.244,161.944,19.325,-63.083
12384,-0.3374,0.2974,-0.9116,0.610,0.000,0.305,161.949,19.325,-63.083
12393,-0.3359,0.2979,-0.9116,0.854,0.000,0.305,161.955,19.319,-63.083
12404,-0.3398,0.2988,-0.9126,0.671,-0.061,0.305,161.960,19.325,-63.083
12414,-0.3403,0.2988,-0.9111,0.305,-0.122,0.244,161.960,19.325,-63.083
12424,-0.3398,0.3013,-0.9131,0.000,-0.183,0.183,161.955,19.330,-63.083
12434,-0.3379,0.3013,-0.9160,-0.122,-0.061,0.122,161.955,19.330,-63.083
12444,-0.3394,0.3008,-0.9136,0.000,0.061,0.061,161.949,19.330,-63.083
12454,-0.3403,0.2983,-0.9097,0.183,0.122,0.061,161.955,19.330,-63.083
12464,-0.3398,0.2979,-0.9077,0.183,0.183,0.000,161.955,19.330,-63.083
12474,-0.3413,0.2998,-0.9067,0.122,0.122,0.000,161.955,19.330,-63.083
12484,-0.3408,0.2974,-0.9067,0.061,0.244,0.061,161.949,19.336,-63.083
12494,-0.3398,0.2993,-0.9058,-0.061,0.427,0.000,161.949,19.330,-63.083
12504,-0.3408,0.2993,-0.9063,-0.061,0.671,-0.061,161.949,19.330,-63.083
12514,-0.3398,0.2974,-0.9116,0.000,1.099,-0.122,161.949,19.319,-63.083
12524,-0.3389,0.2998,-0.9121,0.061,1.404,-0.122,161.949,19.308,-63.083
12534,-0.3403,0.3022,-0.9146,0.061,1.526,-0.122,161.949,19.297,-63.083
12544,-0.3394,0.3008,-0.9146,0.183,1.404,-0.122,161.949,19.286,-63.083
12554,-0.3384,0.2998,-0.9160,0.305,1.160,-0.183,161.955,19.276,-63.083
12564,-0.3398,0.2974,-0.9170,0.244,0.977,-0.244,161.960,19.270,-63.083
12574,-0.3374,0.3018,-0.9175,0.000,0.977,-0.305,161.960,19.259,-63.083
12584,-0.3350,0.2993,-0.9185,-0.122,1.099,-0.366,161.960,19.248,-63.083
12594,-0.3320,0.2983,-0.9185,-0.183,1.099,-0.488,161.966,19.237,-63.083
12604,-0.3345,0.2983,-0.9199,-0.122,0.916,-0.488,161.966,19.232,-63.083
12614,-0.3345,0.2949,-0.9155,0.122,0.610,-0.488,161.971,19.226,-63.083
12624,-0.3354,0.2920,-0.9170,0.244,0.244,-0.366,161.977,19.226,-63.083
12634,-0.3340,0.2905,-0.9170,0.305,0.122,-0.305,161.988,19.221,-63.083
12644,-0.3374,0.2896,-0.9131,0.183,0.183,-0.122,161.993,19.221,-63.083
12654,-0.3394,0.2905,-0.9072,-0.061,0.488,0.000,161.999,19.221,-63.083
12664,-0.3394,0.2920,-0.9063,-0.244,0.793,0.122,161.993,19.221,-63.083
12674,-0.3408,0.2935,-0.9072,-0.244,0.916,0.244,161.993,19.215,-63.083
12684,-0.3389,0.2949,-0.9058,-0.122,0.793,0.305,161.993,19.210,-63.083
12694,-0.3374,0.2939,-0.9102,0.061,0.793,0.366,161.993,19.204,-63.083
12704,-0.3374,0.2949,-0.9087,0.305,0.977,0.366,161.999,19.193,-63.083
12714,-0.3374,0.2969,-0.9116,0.305,1.343,0.366,161.999,19.182,-63.083
12724,-0.3354,0.2993,-0.9111,0.366,1.831,0.427,162.004,19.166,-63.083
12734,-0.3350,0.3018,-0.9155,0.366,2.197,0.366,162.004,19.144,-63.083
12744,-0.3330,0.3037,-0.9219,0.549,2.197,0.366,162.010,19.122,-63.083
12754,-0.3315,0.3047,-0.9248,0.732,2.014,0.183,162.015,19.100,-63.083
12764,-0.3315,0.3042,-0.9263,0.610,1.587,0.061,162.021,19.078,-63.083
12774,-0.3320,0.3032,-0.9258,0.366,1.099,-0.061,162.026,19.067,-63.083
12784,-0.3315,0.3018,-0.9243,0.061,0.793,-0.305,162.026,19.056,-63.083
12794,-0.3325,0.3022,-0.9209,-0.183,0.549,-0.488,162.021,19.050,-63.083
12804,-0.3315,0.3008,-0.9189,-0.244,0.366,-0.671,162.021,19.050,-63.083
12814,-0.3335,0.2988,-0.9150,-0.366,0.122,-0.854,162.021,19.050,-63.083
12824,-0.3369,0.2954,-0.9131,-0.366,0.122,-0.916,162.021,19.056,-63.083
12834,-0.3369,0.2939,-0.9111,-0.366,0.244,-0.916,162.021,19.061,-63.083
12844,-0.3345,0.2935,-0.9126,-0.305,0.549,-0.854,162.021,19.061,-63.083
12854,-0.3354,0.2930,-0.9102,-0.183,0.793,-0.732,162.026,19.056,-63.083
12864,-0.3354,0.2891,-0.9092,0.183,0.977,-0.549,162.032,19.050,-63.083
12874,-0.3354,0.2900,-0.9126,0.305,1.038,-0.305,162.043,19.045,-63.083
12884,-0.3340,0.2891,-0.9150,0.427,1.099,-0.122,162.054,19.039,-63.083
12894,-0.3335,0.2905,-0.9170,0.427,1.221,0.061,162.059,19.028,-63.083
12904,-0.3296,0.2944,-0.9209,0.305,1.343,0.061,162.065,19.012,-63.083
12914,-0.3301,0.2935,-0.9224,-0.061,1.343,0.000,162.070,18.995,-63.083
12924,-0.3315,0.2944,-0.9224,-0.366,1.160,-0.122,162.070,18.984,-63.083
12934,-0.3325,0.2910,-0.9219,-0.732,0.916,-0.122,162.070,18.979,-63.083
12944,-0.3335,0.2959,-0.9224,-0.854,0.610,-0.061,162.065,18.973,-63.083
12954,-0.3301,0.2974,-0.9214,-0.671,0.427,0.000,162.059,18.968,-63.083
12964,-0.3315,0.2954,-0.9189,-0.183,0.366,0.122,162.059,18.962,-63.083
12974,-0.3301,0.2949,-0.9189,0.061,0.183,0.183,162.059,18.962,-63.083
12984,-0.3311,0.2935,-0.9175,0.061,0.000,0.244,162.059,18.957,-63.083
12994,-0.3306,0.2939,-0.9165,-0.183,-0.061,0.305,162.059,18.957,-63.083
13004,-0.3311,0.2925,-0.9136,-0.427,-0.061,0.366,162.054,18.957,-63.083
13014,-0.3325,0.2954,-0.9150,-0.610,0.000,0.366,162.048,18.957,-63.083
13024,-0.3325,0.2974,-0.9155,-0.488,0.244,0.366,162.043,18.957,-63.083
13034,-0.3320,0.2974,-0.9165,-0.122,0.610,0.427,162.037,18.951,-63.083
13044,-0.3335,0.2974,-0.9155,0.183,0.732,0.488,162.043,18.946,-63.083
13054,-0.3306,0.2964,-0.9180,0.122,0.671,0.427,162.043,18.935,-63.083
13064,-0.3320,0.2979,-0.9214,-0.122,0.488,0.366,162.043,18.929,-63.083
13074,-0.3330,0.2974,-0.9194,-0.366,0.305,0.305,162.037,18.929,-63.083
13084,-0.3315,0.2993,-0.9189,-0.549,0.122,0.305,162.032,18.924,-63.083
13094,-0.3306,0.3037,-0.9194,-0.427,0.061,0.305,162.021,18.924,-63.083
13104,-0.3301,0.3047,-0.9170,-0.122,-0.061,0.244,162.015,18.924,-63.083
13114,-0.3296,0.3022,-0.9165,0.244,-0.244,0.244,162.015,18.924,-63.083
13124,-0.3315,0.2974,-0.9146,0.305,-0.366,0.122,162.015,18.929,-63.083
13134,-0.3340,0.2983,-0.9146,0.122,-0.427,-0.061,162.015,18.935,-63.083
13144,-0.3311,0.2979,-0.9102,-0.244,-0.244,-0.122,162.010,18.935,-63.083
13154,-0.3340,0.2964,-0.9102,-0.549,-0.061,-0.183,162.004,18.940,-63.083
13164,-0.3340,0.3003,-0.9116,-0.549,0.122,-0.183,161.999,18.946,-63.083
13174,-0.3330,0.3008,-0.9131,-0.122,0.244,-0.122,161.999,18.946,-63.083
13184,-0.3301,0.2988,-0.9170,0.305,0.366,-0.122,161.999,18.940,-63.083
13194,-0.3306,0.2969,-0.9185,0.488,0.366,0.000,162.004,18.935,-63.083
13204,-0.3296,0.2969,-0.9209,0.305,0.366,0.000,162.010,18.929,-63.083
13214,-0.3291,0.2979,-0.9224,-0.061,0.305,-0.061,162.010,18.929,-63.083
13224,-0.3296,0.2959,-0.9238,-0.488,0.122,-0.061,162.010,18.924,-63.083
13234,-0.3281,0.2959,-0.9214,-0.671,-0.244,-0.122,162.004,18.924,-63.083
13244,-0.3281,0.2969,-0.9204,-0.610,-0.549,-0.061,161.999,18.929,-63.083
13254,-0.3301,0.2959,-0.9229,-0.061,-0.671,-0.061,161.999,18.935,-63.083
13264,-0.3335,0.2920,-0.9189,0.488,-0.671,0.061,162.010,18.940,-63.083
13274,-0.3345,0.2915,-0.9146,0.610,-0.732,0.061,162.015,18.951,-63.083
13284,-0.3350,0.2905,-0.9126,0.305,-0.854,0.244,162.021,18.962,-63.083
13294,-0.3359,0.2930,-0.9082,-0.305,-0.916,0.305,162.015,18.973,-63.083
13304,-0.3350,0.2954,-0.9087,-0.671,-0.671,0.366,162.010,18.984,-63.083
13314,-0.3374,0.2974,-0.9077,-0.671,-0.366,0.427,161.999,18.990,-63.083
13324,-0.3354,0.3008,-0.9072,-0.427,-0.061,0.427,161.988,18.990,-63.083
13334,-0.3340,0.2998,-0.9131,0.061,0.244,0.549,161.988,18.990,-63.083
13344,-0.3315,0.3018,-0.9170,0.427,0.488,0.549,161.988,18.984,-63.083
13354,-0.3311,0.3003,-0.9194,0.488,0.549,0.488,161.988,18.973,-63.083
13364,-0.3311,0.3003,-0.9194,0.183,0.488,0.305,161.993,18.968,-63.083
13374,-0.3315,0.3022,-0.9233,-0.244,0.305,0.244,161.988,18.962,-63.083
13384,-0.3306,0.3047,-0.9243,-0.427,0.244,0.061,161.982,18.962,-63.083
13394,-0.3315,0.3042,-0.9248,-0.366,0.122,-0.061,161.977,18.957,-63.083
13404,-0.3320,0.3022,-0.9214,-0.122,-0.244,-0.183,161.971,18.962,-63.083
13414,-0.3320,0.3008,-0.9180,-0.061,-0.793,-0.244,161.971,18.968,-63.083
13424,-0.3335,0.3018,-0.9175,-0.244,-1.160,-0.305,161.966,18.979,-63.083
13434,-0.3354,0.2993,-0.9121,-0.427,-1.221,-0.366,161.960,18.995,-63.083
13444,-0.3379,0.2964,-0.9053,-0.549,-0.854,-0.488,161.955,19.012,-63.083
13454,-0.3340,0.2949,-0.9058,-0.671,-0.488,-0.610,161.949,19.023,-63.083
13464,-0.3359,0.2959,-0.9097,-0.610,-0.061,-0.549,161.944,19.028,-63.083
13474,-0.3350,0.2949,-0.9072,-0.305,0.427,-0.366,161.944,19.028,-63.083
13484,-0.3364,0.2935,-0.9111,0.061,0.610,-0.183,161.949,19.023,-63.083
13494,-0.3335,0.2954,-0.9131,0.366,0.488,0.000,161.955,19.023,-63.083
13504,-0.3325,0.2954,-0.9150,0.549,0.244,0.122,161.960,19.017,-63.083
13514,-0.3330,0.2949,-0.9165,0.488,0.183,0.183,161.966,19.017,-63.083
13524,-0.3335,0.2969,-0.9165,0.183,0.305,0.183,161.971,19.017,-63.083
13534,-0.3315,0.3003,-0.9199,-0.244,0.488,0.061,161.966,19.012,-63.083
13544,-0.3320,0.3003,-0.9243,-0.366,0.610,0.000,161.966,19.001,-63.083
13554,-0.3291,0.2998,-0.9229,-0.183,0.488,0.000,161.966,18.995,-63.083
13564,-0.3311,0.2959,-0.9253,0.000,0.183,-0.061,161.966,18.990,-63.083
13574,-0.3301,0.2949,-0.9224,0.061,-0.366,0.000,161.971,18.995,-63.083
13584,-0.3315,0.2939,-0.9204,-0.061,-0.732,0.061,161.971,19.001,-63.083
13594,-0.3330,0.2949,-0.9204,-0.366,-0.854,0.183,161.971,19.006,-63.083
13604,-0.3340,0.2939,-0.9180,-0.610,-0.793,0.244,161.966,19.017,-63.083
13614,-0.3335,0.2959,-0.9180,-0.549,-0.793,0.366,161.960,19.023,-63.083
13624,-0.3340,0.2964,-0.9150,-0.366,-0.854,0.427,161.955,19.028,-63.083
13634,-0.3340,0.2988,-0.9131,-0.061,-0.916,0.488,161.949,19.039,-63.083
13644,-0.3330,0.2969,-0.9131,0.183,-0.916,0.549,161.949,19.045,-63.083
13654,-0.3335,0.2964,-0.9116,0.122,-0.732,0.488,161.949,19.056,-63.083
13664,-0.3345,0.2974,-0.9111,0.061,-0.488,0.488,161.944,19.056,-63.083
13674,-0.3345,0.2983,-0.9102,0.000,-0.244,0.488,161.944,19.061,-63.083
13684,-0.3345,0.3003,-0.9126,0.000,0.000,0.488,161.938,19.061,-63.083
13694,-0.3350,0.3018,-0.9126,0.000,0.122,0.427,161.938,19.061,-63.083
13704,-0.3335,0.3027,-0.9116,0.000,0.061,0.366,161.933,19.061,-63.083
13714,-0.3340,0.3042,-0.9160,0.000,-0.122,0.305,161.927,19.061,-63.083
13724,-0.3359,0.3032,-0.9160,-0.122,-0.183,0.183,161.922,19.061,-63.083
13734,-0.3354,0.3052,-0.9121,-0.244,-0.305,0.061,161.917,19.067,-63.083
13744,-0.3359,0.3052,-0.9150,-0.244,-0.305,-0.061,161.911,19.072,-63.083
13754,-0.3359,0.3042,-0.9111,0.061,-0.122,-0.183,161.906,19.072,-63.083
13764,-0.3359,0.3022,-0.9126,0.366,0.000,-0.305,161.911,19.078,-63.083
13774,-0.3340,0.3003,-0.9150,0.549,0.183,-0.427,161.917,19.078,-63.083
13784,-0.3320,0.2979,-0.9165,0.488,0.183,-0.549,161.922,19.078,-63.083
13794,-0.3330,0.2998,-0.9150,0.183,0.122,-0.488,161.927,19.078,-63.083
13804,-0.3340,0.3008,-0.9150,-0.061,0.061,-0.488,161.927,19.078,-63.083
13814,-0.3320,0.2974,-0.9126,0.000,-0.122,-0.488,161.927,19.083,-63.083
13824,-0.3325,0.2979,-0.9121,0.122,-0.305,-0.488,161.933,19.089,-63.083
13834,-0.3354,0.2974,-0.9146,0.244,-0.183,-0.427,161.933,19.089,-63.083
13844,-0.3320,0.2944,-0.9160,0.366,0.122,-0.427,161.944,19.089,-63.083
13854,-0.3325,0.2920,-0.9155,0.305,0.427,-0.488,161.949,19.089,-63.083
13864,-0.3311,0.2910,-0.9209,0.183,0.427,-0.488,161.960,19.083,-63.083
13874,-0.3320,0.2920,-0.9214,0.122,0.244,-0.366,161.966,19.083,-63.083
13884,-0.3291,0.2905,-0.9199,0.244,-0.061,-0.122,161.977,19.078,-63.083
13894,-0.3354,0.2891,-0.9155,0.366,-0.427,0.061,161.982,19.083,-63.083
13904,-0.3369,0.2876,-0.9141,0.305,-0.610,0.244,161.988,19.094,-63.083
13917,-0.3408,0.2905,-0.9121,0.122,-0.488,0.427,161.993,19.100,-63.083
13924,-0.3364,0.2944,-0.9126,0.000,-0.244,0.549,161.993,19.105,-63.083
13934,-0.3364,0.2959,-0.9092,0.061,-0.061,0.610,161.988,19.105,-63.083
13944,-0.3354,0.2949,-0.9087,0.305,0.000,0.610,161.993,19.105,-63.083
13954,-0.3345,0.2964,-0.9126,0.244,0.000,0.549,161.993,19.105,-63.083
13964,-0.3340,0.2979,-0.9121,0.244,0.122,0.610,161.993,19.105,-63.083
13974,-0.3315,0.2998,-0.9155,0.000,0.366,0.610,161.988,19.100,-63.083
13984,-0.3330,0.3022,-0.9150,-0.183,0.671,0.549,161.982,19.089,-63.083
13994,-0.3354,0.3042,-0.9175,-0.122,0.916,0.488,161.977,19.078,-63.083
14004,-0.3359,0.3071,-0.9209,0.061,0.977,0.488,161.977,19.067,-63.083
14014,-0.3325,0.3091,-0.9229,0.427,0.732,0.427,161.971,19.061,-63.083
14024,-0.3306,0.3096,-0.9248,0.671,0.122,0.183,161.977,19.056,-63.083
14034,-0.3296,0.3071,-0.9248,0.549,-0.488,-0.061,161.977,19.056,-63.083
14044,-0.3330,0.3018,-0.9214,0.305,-0.793,-0.305,161.977,19.061,-63.083
14054,-0.3369,0.2988,-0.9160,-0.122,-0.916,-0.549,161.977,19.072,-63.083
14064,-0.3359,0.2983,-0.9136,-0.610,-0.854,-0.732,161.971,19.089,-63.083
14074,-0.3364,0.2988,-0.9097,-0.610,-0.671,-0.793,161.966,19.100,-63.083
14084,-0.3374,0.2969,-0.9082,-0.244,-0.305,-0.793,161.966,19.105,-63.083
14094,-0.3364,0.2935,-0.9111,0.122,0.061,-0.732,161.971,19.111,-63.083
14104,-0.3354,0.2915,-0.9111,0.183,0.122,-0.610,161.977,19.116,-63.083
14114,-0.3345,0.2915,-0.9126,0.000,0.061,-0.427,161.982,19.116,-63.083
14124,-0.3354,0.2910,-0.9141,-0.244,0.122,-0.305,161.982,19.116,-63.083
14134,-0.3340,0.2920,-0.9136,-0.305,0.244,-0.122,161.982,19.116,-63.083
14145,-0.3335,0.2935,-0.9116,-0.183,0.427,0.000,161.988,19.116,-63.083
14154,-0.3320,0.2939,-0.9165,0.000,0.488,0.061,161.988,19.111,-63.083
14164,-0.3315,0.2954,-0.9229,0.305,0.549,0.183,161.993,19.100,-63.083
14174,-0.3301,0.2925,-0.9209,0.427,0.488,0.183,161.999,19.094,-63.083
14184,-0.3311,0.2930,-0.9204,0.183,0.061,0.183,162.004,19.089,-63.083
14194,-0.3306,0.2944,-0.9214,-0.305,-0.366,0.183,162.004,19.089,-63.083
14204,-0.3306,0.2954,-0.9146,-0.793,-0.732,0.305,161.999,19.094,-63.083
14214,-0.3340,0.2959,-0.9146,-0.977,-0.793,0.427,161.982,19.100,-63.083
14224,-0.3340,0.2954,-0.9150,-0.793,-0.610,0.549,161.977,19.105,-63.083
14234,-0.3359,0.2983,-0.9131,-0.366,-0.427,0.610,161.971,19.111,-63.083
14244,-0.3364,0.2964,-0.9141,-0.061,-0.366,0.610,161.966,19.116,-63.083
14254,-0.3359,0.2954,-0.9136,-0.061,-0.244,0.671,161.966,19.116,-63.083
14264,-0.3374,0.2974,-0.9141,-0.305,-0.305,0.610,161.960,19.122,-63.083
14274,-0.3350,0.3013,-0.9150,-0.427,-0.305,0.610,161.949,19.122,-63.083
14284,-0.3359,0.3022,-0.9160,-0.366,-0.244,0.610,161.944,19.122,-63.083
14294,-0.3384,0.3022,-0.9146,-0.183,-0.244,0.549,161.938,19.127,-63.083
14304,-0.3374,0.3022,-0.9165,0.061,-0.305,0.488,161.933,19.127,-63.083
14314,-0.3359,0.3042,-0.9160,0.183,-0.305,0.366,161.933,19.133,-63.083
14324,-0.3359,0.3027,-0.9141,0.000,-0.366,0.244,161.927,19.133,-63.083
14334,-0.3369,0.3022,-0.9131,-0.244,-0.427,0.061,161.922,19.138,-63.083
14344,-0.3330,0.3022,-0.9141,-0.488,-0.366,-0.061,161.917,19.144,-63.083
14354,-0.3359,0.3027,-0.9126,-0.488,-0.183,-0.122,161.906,19.144,-63.083
14364,-0.3364,0.2998,-0.9121,-0.305,-0.122,-0.183,161.906,19.149,-63.083
14374,-0.3364,0.3008,-0.9097,-0.122,-0.061,-0.244,161.900,19.155,-63.083
14384,-0.3340,0.3013,-0.9116,-0.122,-0.061,-0.244,161.900,19.155,-63.083
14394,-0.3354,0.2993,-0.9141,-0.061,0.061,-0.183,161.900,19.155,-63.083
14404,-0.3354,0.2979,-0.9121,0.061,0.183,-0.122,161.900,19.155,-63.083
14414,-0.3350,0.2959,-0.9155,0.122,0.244,-0.122,161.906,19.155,-63.083
14424,-0.3359,0.2974,-0.9160,-0.061,0.183,-0.183,161.906,19.155,-63.083
14434,-0.3350,0.2974,-0.9170,-0.183,0.122,-0.122,161.906,19.155,-63.083
14444,-0.3354,0.2974,-0.9180,-0.122,0.183,-0.061,161.906,19.149,-63.083
14454,-0.3325,0.2944,-0.9146,-0.061,0.244,-0.061,161.906,19.149,-63.083
14464,-0.3340,0.2949,-0.9155,-0.183,0.122,-0.122,161.911,19.149,-63.083
14474,-0.3359,0.3008,-0.9165,-0.244,0.000,0.000,161.906,19.149,-63.083
14484,-0.3315,0.3027,-0.9199,0.061,0.000,0.122,161.906,19.144,-63.083
14494,-0.3311,0.3003,-0.9165,0.427,0.000,0.061,161.906,19.144,-63.083
14504,-0.3340,0.2998,-0.9185,0.488,-0.183,-0.122,161.911,19.144,-63.083
14514,-0.3350,0.2964,-0.9165,0.244,-0.549,-0.122,161.917,19.149,-63.083
14524,-0.3345,0.2954,-0.9180,-0.366,-0.671,-0.061,161.917,19.155,-63.083
14534,-0.3354,0.2964,-0.9185,-0.977,-0.610,0.000,161.906,19.160,-63.083
14544,-0.3359,0.2979,-0.9150,-0.977,-0.366,0.000,161.900,19.166,-63.083
14554,-0.3364,0.2939,-0.9111,-0.549,-0.183,0.061,161.895,19.171,-63.083
14564,-0.3364,0.2944,-0.9106,-0.244,-0.427,0.122,161.895,19.177,-63.083
14574,-0.3364,0.2935,-0.9150,-0.061,-0.610,0.305,161.895,19.182,-63.083
14584,-0.3354,0.2959,-0.9146,0.122,-0.488,0.549,161.895,19.188,-63.083
14594,-0.3369,0.2988,-0.9126,0.183,-0.244,0.610,161.895,19.188,-63.083
14604,-0.3379,0.2988,-0.9116,0.244,-0.061,0.549,161.895,19.188,-63.083
14614,-0.3369,0.3003,-0.9126,0.244,-0.183,0.549,161.895,19.188,-63.083
14624,-0.3398,0.2993,-0.9111,0.183,-0.488,0.488,161.889,19.193,-63.083
14634,-0.3398,0.3013,-0.9106,0.061,-0.610,0.427,161.889,19.204,-63.083
14645,-0.3389,0.3008,-0.9102,-0.122,-0.610,0.366,161.884,19.210,-63.083
14654,-0.3359,0.3018,-0.9077,-0.244,-0.427,0.305,161.878,19.215,-63.083
14664,-0.3359,0.3042,-0.9072,-0.427,-0.061,0.244,161.867,19.215,-63.083
14674,-0.3345,0.3062,-0.9102,-0.366,0.244,0.244,161.856,19.215,-63.083
14684,-0.3350,0.3062,-0.9141,-0.061,0.610,0.183,161.856,19.204,-63.083
14694,-0.3364,0.3052,-0.9155,0.183,0.671,0.061,161.856,19.199,-63.083
14704,-0.3379,0.3066,-0.9180,0.305,0.488,-0.122,161.856,19.199,-63.083
14714,-0.3364,0.3037,-0.9185,0.244,0.244,-0.305,161.856,19.193,-63.083
14724,-0.3374,0.3032,-0.9194,0.061,0.122,-0.427,161.856,19.193,-63.083
14734,-0.3345,0.3042,-0.9180,-0.122,-0.061,-0.488,161.856,19.199,-63.083
14744,-0.3330,0.3037,-0.9175,-0.061,-0.305,-0.610,161.856,19.199,-63.083
14754,-0.3345,0.2993,-0.9136,0.061,-0.549,-0.610,161.856,19.204,-63.083
14764,-0.3350,0.2983,-0.9111,0.061,-0.671,-0.610,161.862,19.215,-63.083
14774,-0.3364,0.2964,-0.9077,-0.122,-0.610,-0.610,161.862,19.226,-63.083
14784,-0.3364,0.2949,-0.9087,-0.244,-0.305,-0.610,161.862,19.232,-63.083
14794,-0.3398,0.2939,-0.9072,-0.305,0.061,-0.549,161.862,19.237,-63.083
14804,-0.3403,0.2944,-0.9097,-0.244,0.366,-0.427,161.862,19.237,-63.083
14814,-0.3369,0.2949,-0.9116,0.061,0.488,-0.244,161.867,19.237,-63.083
14824,-0.3359,0.2939,-0.9102,0.427,0.549,-0.061,161.873,19.232,-63.083
14834,-0.3350,0.2944,-0.9146,0.610,0.610,0.000,161.884,19.226,-63.083
14844,-0.3350,0.2930,-0.9199,0.488,0.549,0.061,161.895,19.221,-63.083
14854,-0.3330,0.2935,-0.9185,0.122,0.305,0.122,161.900,19.215,-63.083
14864,-0.3330,0.2935,-0.9204,-0.244,0.061,0.183,161.900,19.210,-63.083
14874,-0.3330,0.2959,-0.9219,-0.549,-0.244,0.183,161.895,19.210,-63.083
14884,-0.3340,0.2998,-0.9214,-0.488,-0.366,0.244,161.889,19.210,-63.083
14894,-0.3350,0.2949,-0.9199,-0.122,-0.427,0.305,161.889,19.215,-63.083
14904,-0.3369,0.2959,-0.9160,0.061,-0.549,0.305,161.895,19.221,-63.083
14914,-0.3354,0.2969,-0.9126,-0.061,-0.793,0.305,161.889,19.226,-63.083
14924,-0.3345,0.2969,-0.9111,-0.366,-0.916,0.427,161.884,19.232,-63.083
14934,-0.3379,0.2979,-0.9116,-0.427,-0.793,0.549,161.878,19.243,-63.083
14944,-0.3379,0.2974,-0.9092,-0.305,-0.488,0.610,161.873,19.248,-63.083
14954,-0.3398,0.2969,-0.9058,-0.183,-0.244,0.610,161.867,19.248,-63.083
14964,-0.3408,0.2993,-0.9072,-0.183,-0.305,0.671,161.862,19.254,-63.083
14974,-0.3403,0.3032,-0.9097,-0.061,-0.122,0.793,161.856,19.254,-63.083
14984,-0.3398,0.3057,-0.9146,0.305,0.305,0.854,161.856,19.254,-63.083
14994,-0.3359,0.3052,-0.9150,0.732,0.671,0.671,161.856,19.243,-63.083
15004,-0.3379,0.3042,-0.9180,0.854,0.488,0.427,161.862,19.237,-63.083
15014,-0.3374,0.3032,-0.9194,0.549,0.122,0.244,161.867,19.237,-63.083
15024,-0.3379,0.3037,-0.9185,0.122,-0.244,0.183,161.867,19.237,-63.083
15034,-0.3379,0.3057,-0.9160,-0.305,-0.366,0.000,161.856,19.243,-63.083
15044,-0.3389,0.3071,-0.9175,-0.488,-0.366,-0.183,161.851,19.248,-63.083
15054,-0.3418,0.3071,-0.9199,-0.366,-0.366,-0.244,161.845,19.254,-63.083
15064,-0.3379,0.3037,-0.9141,0.000,-0.183,-0.305,161.840,19.254,-63.083
15074,-0.3389,0.3003,-0.9126,0.061,-0.244,-0.366,161.845,19.259,-63.083
15084,-0.3389,0.2993,-0.9116,0.000,-0.427,-0.427,161.845,19.270,-63.083
15094,-0.3379,0.2988,-0.9106,-0.183,-0.427,-0.427,161.845,19.276,-63.083
15104,-0.3369,0.2939,-0.9063,-0.305,-0.427,-0.366,161.845,19.281,-63.083
15114,-0.3364,0.2964,-0.9053,-0.366,-0.305,-0.305,161.840,19.286,-63.083
15124,-0.3384,0.2983,-0.9102,-0.305,-0.061,-0.244,161.840,19.292,-63.083
15134,-0.3394,0.2959,-0.9116,0.061,0.549,-0.122,161.840,19.286,-63.083
15145,-0.3364,0.2939,-0.9121,0.305,1.038,0.000,161.851,19.281,-63.083
15154,-0.3350,0.2935,-0.9185,0.244,1.221,0.061,161.856,19.265,-63.083
15164,-0.3350,0.2974,-0.9233,0.061,0.977,0.122,161.862,19.254,-63.083
15174,-0.3364,0.2974,-0.9219,0.000,0.549,0.244,161.862,19.248,-63.083
15184,-0.3345,0.2969,-0.9209,0.000,0.061,0.244,161.867,19.243,-63.083
15194,-0.3354,0.2969,-0.9209,-0.122,-0.610,0.183,161.867,19.248,-63.083
15204,-0.3369,0.3003,-0.9219,-0.427,-0.916,0.183,161.862,19.254,-63.083
15214,-0.3364,0.2998,-0.9209,-0.366,-0.610,0.183,161.856,19.259,-63.083
15224,-0.3359,0.3003,-0.9160,-0.244,-0.244,0.244,161.851,19.259,-63.083
15234,-0.3350,0.2969,-0.9136,-0.122,-0.244,0.122,161.851,19.265,-63.083
15244,-0.3359,0.2954,-0.9141,-0.305,-0.793,0.122,161.851,19.270,-63.083
15254,-0.3350,0.2974,-0.9126,-0.488,-1.221,0.305,161.845,19.281,-63.083
15264,-0.3359,0.2964,-0.9097,-0.366,-1.221,0.427,161.840,19.292,-63.083
15274,-0.3398,0.2944,-0.9053,-0.183,-0.854,0.488,161.834,19.303,-63.083
15284,-0.3423,0.2939,-0.9014,-0.061,-0.549,0.488,161.834,19.308,-63.083
15294,-0.3437,0.2944,-0.9023,-0.366,-0.427,0.610,161.829,19.319,-63.083
15304,-0.3442,0.3003,-0.9048,-0.488,-0.061,0.793,161.818,19.319,-63.083
15314,-0.3442,0.3042,-0.9053,-0.244,0.488,0.916,161.812,19.319,-63.083
15324,-0.3389,0.3042,-0.9106,0.366,0.854,0.854,161.807,19.308,-63.083
15334,-0.3389,0.3022,-0.9131,0.793,0.793,0.671,161.812,19.303,-63.083
15344,-0.3379,0.3037,-0.9160,0.732,0.488,0.549,161.818,19.292,-63.083
15354,-0.3384,0.3027,-0.9160,0.183,0.122,0.488,161.818,19.292,-63.083
15364,-0.3384,0.3047,-0.9121,-0.488,-0.061,0.366,161.807,19.292,-63.083
15374,-0.3359,0.3081,-0.9165,-0.854,-0.061,0.122,161.796,19.292,-63.083
15384,-0.3359,0.3125,-0.9165,-0.610,0.305,-0.122,161.785,19.286,-63.083
15394,-0.3350,0.3110,-0.9189,0.122,0.671,-0.244,161.785,19.281,-63.083
15404,-0.3364,0.3071,-0.9185,0.671,0.732,-0.427,161.790,19.270,-63.083
15414,-0.3354,0.3013,-0.9185,0.793,0.244,-0.549,161.801,19.270,-63.083
15424,-0.3379,0.3008,-0.9199,0.366,-0.488,-0.671,161.807,19.276,-63.083
15434,-0.3374,0.3018,-0.9180,-0.122,-0.916,-0.732,161.807,19.286,-63.083
15444,-0.3374,0.2988,-0.9131,-0.366,-1.038,-0.854,161.807,19.303,-63.083
15454,-0.3374,0.2993,-0.9092,-0.305,-0.916,-0.854,161.801,19.314,-63.083
15464,-0.3389,0.2959,-0.9067,0.061,-0.549,-0.854,161.807,19.325,-63.083
15474,-0.3403,0.2915,-0.9058,0.427,-0.244,-0.793,161.818,19.330,-63.083
15484,-0.3384,0.2886,-0.9058,0.427,0.061,-0.732,161.829,19.336,-63.083
15494,-0.3364,0.2896,-0.9077,0.061,0.122,-0.549,161.834,19.336,-63.083
15504,-0.3364,0.2915,-0.9111,-0.183,0.244,-0.305,161.840,19.336,-63.083
15514,-0.3379,0.2910,-0.9121,-0.122,0.427,-0.061,161.845,19.336,-63.083
15524,-0.3389,0.2925,-0.9097,0.061,0.610,0.061,161.851,19.330,-63.083
15534,-0.3359,0.2935,-0.9150,0.244,0.549,0.183,161.856,19.325,-63.083
15544,-0.3369,0.2969,-0.9175,0.244,0.366,0.305,161.856,19.319,-63.083
15554,-0.3369,0.2959,-0.9175,0.183,0.305,0.427,161.862,19.314,-63.083
15564,-0.3350,0.2974,-0.9160,-0.061,0.305,0.427,161.862,19.308,-63.083
15574,-0.3359,0.2974,-0.9180,-0.183,0.183,0.305,161.862,19.303,-63.083
15584,-0.3359,0.2979,-0.9175,-0.305,-0.122,0.305,161.856,19.303,-63.083
15594,-0.3359,0.2983,-0.9155,-0.427,-0.427,0.366,161.851,19.308,-63.083
15604,-0.3379,0.2998,-0.9155,-0.366,-0.549,0.427,161.845,19.308,-63.083
15614,-0.3369,0.2988,-0.9126,-0.305,-0.488,0.366,161.845,19.314,-63.083
15624,-0.3384,0.2979,-0.9121,-0.305,-0.427,0.427,161.840,19.319,-63.083
15634,-0.3398,0.2998,-0.9082,-0.366,-0.366,0.488,161.834,19.325,-63.083
15645,-0.3389,0.3022,-0.9106,-0.305,-0.183,0.488,161.823,19.325,-63.083
15654,-0.3403,0.2998,-0.9058,-0.183,0.000,0.488,161.818,19.325,-63.083
15664,-0.3384,0.3013,-0.9067,-0.061,0.061,0.488,161.818,19.325,-63.083
15674,-0.3398,0.3037,-0.9077,-0.061,0.183,0.549,161.812,19.325,-63.083
15685,-0.3418,0.3008,-0.9082,0.122,0.366,0.488,161.807,19.325,-63.083
15695,-0.3403,0.3018,-0.9092,0.122,0.549,0.366,161.807,19.319,-63.083
15705,-0.3403,0.3037,-0.9097,0.000,0.549,0.305,161.807,19.314,-63.083
15715,-0.3389,0.3066,-0.9141,-0.122,0.610,0.244,161.801,19.308,-63.083
15725,-0.3394,0.3071,-0.9165,0.061,0.793,0.183,161.796,19.303,-63.083
15735,-0.3384,0.3057,-0.9136,0.305,0.916,0.061,161.801,19.292,-63.083
15745,-0.3389,0.3066,-0.9160,0.488,0.793,-0.122,161.801,19.286,-63.083
15755,-0.3403,0.3076,-0.9146,0.427,0.549,-0.305,161.801,19.281,-63.083
15765,-0.3384,0.3071,-0.9160,0.244,0.427,-0.366,161.807,19.281,-63.083
15775,-0.3374,0.3042,-0.9136,0.122,0.427,-0.549,161.807,19.281,-63.083
15785,-0.3345,0.3047,-0.9131,0.000,0.366,-0.732,161.807,19.276,-63.083
15795,-0.3359,0.3032,-0.9121,-0.061,0.366,-0.854,161.807,19.276,-63.083
15805,-0.3389,0.3013,-0.9092,0.061,0.366,-0.916,161.807,19.276,-63.083
15815,-0.3379,0.2998,-0.9092,0.122,0.366,-0.854,161.812,19.276,-63.083
15825,-0.3374,0.2983,-0.9102,0.122,0.488,-0.793,161.818,19.276,-63.083
15835,-0.3354,0.2969,-0.9121,0.305,0.793,-0.732,161.823,19.270,-63.083
15845,-0.3359,0.2949,-0.9116,0.488,1.099,-0.610,161.834,19.265,-63.083
15855,-0.3359,0.2944,-0.9136,0.488,1.221,-0.610,161.845,19.254,-63.083
15865,-0.3379,0.2939,-0.9150,0.366,1.160,-0.549,161.856,19.248,-63.083
15875,-0.3384,0.2959,-0.9160,0.305,1.038,-0.366,161.867,19.237,-63.083
15885,-0.3374,0.2979,-0.9170,0.305,1.038,-0.305,161.873,19.232,-63.083
15895,-0.3354,0.2969,-0.9180,0.549,0.916,-0.244,161.878,19.221,-63.083
15905,-0.3335,0.2974,-0.9170,0.610,0.671,-0.244,161.889,19.215,-63.083
15918,-0.3330,0.2954,-0.9199,0.427,0.427,-0.183,161.900,19.210,-63.083
15925,-0.3350,0.2954,-0.9160,0.183,0.427,-0.122,161.900,19.204,-63.083
15935,-0.3350,0.2944,-0.9116,-0.122,0.549,-0.122,161.906,19.204,-63.083
15945,-0.3340,0.2939,-0.9160,-0.305,0.610,-0.061,161.906,19.193,-63.083
15955,-0.3354,0.2935,-0.9146,-0.244,0.549,0.061,161.906,19.193,-63.083
15965,-0.3350,0.2949,-0.9141,0.061,0.488,0.244,161.911,19.188,-63.083
15975,-0.3345,0.2939,-0.9141,0.488,0.488,0.549,161.917,19.182,-63.083
15985,-0.3350,0.2925,-0.9160,0.854,0.488,0.671,161.927,19.171,-63.083
15995,-0.3350,0.2920,-0.9165,0.977,0.610,0.793,161.938,19.166,-63.083
16005,-0.3364,0.2925,-0.9136,0.671,0.610,0.793,161.944,19.160,-63.083
16015,-0.3379,0.2925,-0.9141,0.061,0.549,0.916,161.944,19.155,-63.083
16025,-0.3394,0.2949,-0.9131,-0.488,0.488,0.916,161.938,19.149,-63.083
16035,-0.3394,0.2993,-0.9146,-0.610,0.366,0.916,161.933,19.144,-63.083
16045,-0.3369,0.3018,-0.9146,-0.305,0.427,0.916,161.922,19.138,-63.083
16055,-0.3364,0.3047,-0.9126,0.244,0.549,0.977,161.922,19.133,-63.083
16065,-0.3335,0.3047,-0.9150,0.671,0.793,0.916,161.922,19.122,-63.083
16075,-0.3320,0.3057,-0.9141,0.732,0.977,0.854,161.922,19.111,-63.083
16085,-0.3325,0.3071,-0.9160,0.427,1.038,0.671,161.922,19.100,-63.083
16095,-0.3330,0.3071,-0.9155,0.061,0.977,0.549,161.917,19.083,-63.083
16105,-0.3345,0.3115,-0.9185,-0.183,0.977,0.305,161.906,19.072,-63.083
16115,-0.3359,0.3101,-0.9165,-0.183,0.977,0.000,161.900,19.067,-63.083
16125,-0.3359,0.3096,-0.9175,-0.061,0.793,-0.244,161.895,19.061,-63.083
16135,-0.3369,0.3081,-0.9160,0.061,0.549,-0.488,161.895,19.056,-63.083
16145,-0.3359,0.3042,-0.9131,0.061,0.305,-0.671,161.895,19.061,-63.083
16155,-0.3350,0.3013,-0.9102,0.000,0.122,-0.732,161.895,19.061,-63.083
16165,-0.3345,0.3018,-0.9092,-0.183,0.061,-0.854,161.895,19.067,-63.083
16175,-0.3354,0.3003,-0.9106,-0.244,0.305,-0.977,161.895,19.067,-63.083
16185,-0.3369,0.2954,-0.9082,-0.183,0.732,-1.038,161.895,19.067,-63.073
16195,-0.3359,0.2964,-0.9067,-0.183,1.160,-0.977,161.900,19.061,-63.056
16205,-0.3340,0.2969,-0.9106,-0.061,1.404,-0.916,161.900,19.056,-63.045
16215,-0.3340,0.2964,-0.9126,0.244,1.465,-0.671,161.911,19.045,-63.034
16225,-0.3345,0.2954,-0.9155,0.549,1.343,-0.549,161.922,19.034,-63.023
16235,-0.3330,0.2939,-0.9199,0.732,1.099,-0.366,161.933,19.028,-63.012
16245,-0.3330,0.2939,-0.9204,0.793,0.977,-0.305,161.949,19.017,-63.007
16255,-0.3311,0.2954,-0.9233,0.671,0.977,-0.305,161.960,19.006,-63.001
16265,-0.3306,0.2935,-0.9238,0.427,0.977,-0.244,161.971,18.995,-62.996
16275,-0.3296,0.2930,-0.9233,0.122,0.793,-0.305,161.977,18.990,-62.990
16285,-0.3281,0.2949,-0.9233,-0.061,0.549,-0.244,161.982,18.984,-62.985
16295,-0.3311,0.2925,-0.9224,0.000,0.244,-0.122,161.982,18.979,-62.985
16305,-0.3315,0.2930,-0.9224,0.122,0.061,0.000,161.988,18.979,-62.985
16315,-0.3335,0.2920,-0.9194,0.305,0.000,0.122,161.999,18.979,-62.985
16325,-0.3340,0.2905,-0.9170,0.427,-0.061,0.366,162.004,18.979,-62.990
16335,-0.3335,0.2930,-0.9150,0.366,-0.061,0.427,162.010,18.979,-62.996
16345,-0.3330,0.2939,-0.9160,0.366,-0.061,0.610,162.010,18.979,-63.001
16355,-0.3301,0.2939,-0.9160,0.366,0.000,0.732,162.015,18.979,-63.007
16365,-0.3320,0.2949,-0.9170,0.549,0.061,0.732,162.021,18.973,-63.012
16375,-0.3354,0.2969,-0.9150,0.732,0.061,0.732,162.026,18.973,-63.023
16385,-0.3350,0.3008,-0.9180,0.793,0.061,0.793,162.026,18.973,-63.029
16395,-0.3325,0.3018,-0.9189,0.854,0.122,0.793,162.032,18.968,-63.040
16405,-0.3311,0.3008,-0.9165,0.854,0.122,0.732,162.037,18.968,-63.045
16415,-0.3320,0.3003,-0.9170,0.671,-0.061,0.610,162.037,18.968,-63.051
16425,-0.3330,0.3013,-0.9185,0.305,-0.183,0.488,162.037,18.968,-63.056
16435,-0.3315,0.3027,-0.9165,0.061,-0.244,0.366,162.032,18.968,-63.062
16445,-0.3311,0.3003,-0.9146,-0.061,-0.183,0.244,162.032,18.968,-63.062
16455,-0.3330,0.3022,-0.9106,-0.122,-0.122,0.061,162.026,18.973,-63.067
16465,-0.3335,0.3003,-0.9126,-0.244,-0.244,-0.061,162.021,18.973,-63.067
16475,-0.3340,0.2998,-0.9111,-0.183,-0.122,-0.061,162.015,18.979,-63.067
16485,-0.3330,0.3032,-0.9141,0.061,0.244,0.000,162.015,18.979,-63.062
16495,-0.3340,0.2998,-0.9150,0.610,0.854,0.061,162.021,18.968,-63.062
16505,-0.3340,0.2979,-0.9150,0.916,1.160,-0.061,162.026,18.962,-63.056
16515,-0.3350,0.2964,-0.9175,0.793,0.977,-0.183,162.037,18.957,-63.051
16525,-0.3335,0.2979,-0.9214,0.366,0.488,-0.183,162.043,18.951,-63.051
16535,-0.3325,0.3013,-0.9209,0.061,0.305,-0.183,162.043,18.951,-63.045
16545,-0.3335,0.3032,-0.9185,-0.061,0.366,-0.183,162.043,18.946,-63.045
16555,-0.3335,0.3008,-0.9185,0.366,0.366,-0.305,162.043,18.946,-63.040
16565,-0.3306,0.2988,-0.9194,0.671,0.122,-0.488,162.054,18.946,-63.034
16575,-0.3325,0.2949,-0.9194,0.671,-0.183,-0.427,162.059,18.946,-63.029
16585,-0.3330,0.2969,-0.9180,0.305,-0.183,-0.366,162.065,18.951,-63.029
16595,-0.3311,0.2954,-0.9170,0.000,-0.061,-0.427,162.070,18.957,-63.023
16605,-0.3306,0.2949,-0.9189,-0.305,0.000,-0.549,162.070,18.957,-63.018
16615,-0.3296,0.2959,-0.9199,-0.366,-0.122,-0.488,162.065,18.957,-63.012
16625,-0.3286,0.2959,-0.9185,-0.061,-0.244,-0.366,162.070,18.957,-63.012
16635,-0.3301,0.2930,-0.9189,0.305,-0.366,-0.122,162.076,18.962,-63.012
16646,-0.3315,0.2920,-0.9155,0.488,-0.610,-0.061,162.081,18.968,-63.012
16655,-0.3340,0.2920,-0.9121,0.366,-0.793,0.000,162.087,18.979,-63.012
16665,-0.3335,0.2905,-0.9116,0.122,-0.732,0.061,162.087,18.990,-63.018
16675,-0.3359,0.2891,-0.9092,-0.183,-0.427,0.122,162.087,18.995,-63.018
16685,-0.3369,0.2935,-0.9082,-0.549,-0.061,0.244,162.081,19.001,-63.023
16695,-0.3369,0.2939,-0.9102,-0.366,0.122,0.366,162.076,19.001,-63.023
16705,-0.3359,0.2969,-0.9121,-0.061,0.366,0.488,162.076,19.001,-63.029
16715,-0.3340,0.2969,-0.9141,0.122,0.488,0.488,162.070,18.995,-63.034
