elapsed_ms,acc_x_g,acc_y_g,acc_z_g,gyro_x_dps,gyro_y_dps,gyro_z_dps,angle_x_deg,angle_y_deg,angle_z_deg
0,-0.0679,0.5767,-0.8540,-0.916,-1.648,0.061,145.602,3.137,-88.401
10,-0.0635,0.5806,-0.8486,-1.160,-2.380,0.061,145.591,3.159,-88.418
20,-0.0610,0.5796,-0.8442,-1.099,-3.174,-0.061,145.580,3.186,-88.434
30,-0.0566,0.5830,-0.8364,-0.854,-3.967,-0.244,145.563,3.219,-88.456
40,-0.0522,0.5874,-0.8345,-0.732,-4.578,-0.427,145.547,3.257,-88.478
50,-0.0508,0.5889,-0.8330,-0.671,-4.639,-0.732,145.530,3.296,-88.500
60,-0.0498,0.5884,-0.8335,-0.854,-4.150,-1.160,145.514,3.329,-88.511
70,-0.0474,0.5898,-0.8345,-1.160,-3.113,-1.587,145.497,3.356,-88.517
80,-0.0474,0.5908,-0.8315,-1.465,-1.892,-2.075,145.475,3.378,-88.511
90,-0.0464,0.5894,-0.8296,-1.343,-1.038,-2.563,145.453,3.395,-88.495
100,-0.0498,0.5840,-0.8325,-0.610,-0.427,-2.808,145.443,3.406,-88.473
110,-0.0547,0.5796,-0.8364,0.244,0.000,-2.930,145.443,3.422,-88.451
120,-0.0591,0.5732,-0.8384,0.977,0.427,-2.869,145.459,3.433,-88.423
130,-0.0630,0.5645,-0.8398,1.282,0.610,-2.686,145.481,3.444,-88.396
141,-0.0659,0.5615,-0.8418,1.465,0.549,-2.380,145.503,3.455,-88.374
150,-0.0649,0.5566,-0.8442,1.343,0.366,-2.014,145.530,3.466,-88.358
160,-0.0649,0.5522,-0.8452,1.160,0.183,-1.648,145.552,3.477,-88.341
170,-0.0625,0.5522,-0.8457,0.732,0.183,-1.343,145.574,3.483,-88.330
180,-0.0596,0.5493,-0.8457,0.244,0.061,-0.916,145.591,3.488,-88.325
190,-0.0542,0.5508,-0.8428,0.000,-0.305,-0.488,145.602,3.488,-88.319
200,-0.0503,0.5513,-0.8408,0.000,-0.854,-0.061,145.613,3.488,-88.325
210,-0.0483,0.5513,-0.8408,0.122,-1.343,0.488,145.629,3.488,-88.336
220,-0.0522,0.5537,-0.8364,0.244,-1.648,0.977,145.635,3.494,-88.352
230,-0.0547,0.5547,-0.8335,0.488,-1.465,1.465,145.646,3.494,-88.374
240,-0.0562,0.5586,-0.8340,0.610,-0.916,1.892,145.657,3.488,-88.396
250,-0.0596,0.5576,-0.8325,0.916,-0.183,2.197,145.673,3.472,-88.412
260,-0.0596,0.5596,-0.8350,1.221,0.549,2.319,145.690,3.455,-88.429
270,-0.0591,0.5601,-0.8369,1.465,1.099,2.563,145.706,3.433,-88.445
280,-0.0571,0.5630,-0.8384,1.587,1.404,2.869,145.723,3.400,-88.462
290,-0.0547,0.5645,-0.8379,1.648,1.282,3.174,145.745,3.373,-88.478
300,-0.0562,0.5649,-0.8398,1.953,0.916,3.479,145.767,3.340,-88.500
310,-0.0591,0.5698,-0.8447,2.197,0.732,3.723,145.789,3.318,-88.528
320,-0.0596,0.5742,-0.8491,2.197,0.671,3.845,145.811,3.290,-88.555
330,-0.0605,0.5762,-0.8486,2.014,0.488,3.906,145.827,3.263,-88.588
340,-0.0571,0.5791,-0.8486,1.465,0.061,3.845,145.838,3.241,-88.621
350,-0.0615,0.5845,-0.8491,0.671,-0.488,3.662,145.838,3.224,-88.654
360,-0.0605,0.5913,-0.8506,0.061,-0.854,3.357,145.833,3.214,-88.687
370,-0.0605,0.5952,-0.8501,-0.305,-1.038,3.052,145.816,3.208,-88.715
380,-0.0571,0.5952,-0.8472,-0.305,-1.038,2.625,145.805,3.203,-88.742
390,-0.0591,0.5947,-0.8452,-0.061,-1.282,2.136,145.794,3.203,-88.770
400,-0.0620,0.5942,-0.8442,0.000,-1.770,1.648,145.783,3.208,-88.792
410,-0.0620,0.5908,-0.8428,-0.061,-2.258,1.282,145.772,3.224,-88.813
420,-0.0586,0.5928,-0.8398,-0.305,-2.502,1.038,145.761,3.235,-88.835
430,-0.0601,0.5918,-0.8335,-0.366,-2.625,0.732,145.745,3.257,-88.857
440,-0.0620,0.5879,-0.8325,-0.244,-2.502,0.366,145.728,3.279,-88.874
450,-0.0645,0.5854,-0.8296,0.000,-2.136,0.000,145.717,3.296,-88.890
460,-0.0728,0.5806,-0.8267,0.122,-1.526,-0.305,145.712,3.318,-88.896
470,-0.0752,0.5786,-0.8257,0.000,-0.916,-0.549,145.706,3.340,-88.896
480,-0.0767,0.5757,-0.8218,-0.366,-0.549,-0.610,145.695,3.356,-88.890
490,-0.0776,0.5757,-0.8257,-0.610,-0.549,-0.671,145.684,3.378,-88.890
500,-0.0776,0.5767,-0.8276,-0.671,-0.488,-0.732,145.668,3.395,-88.885
510,-0.0767,0.5781,-0.8306,-0.732,-0.366,-0.671,145.657,3.411,-88.885
520,-0.0728,0.5762,-0.8281,-0.488,-0.183,-0.488,145.646,3.422,-88.879
530,-0.0688,0.5762,-0.8306,-0.061,-0.122,-0.488,145.646,3.433,-88.879
540,-0.0688,0.5781,-0.8315,0.183,-0.061,-0.610,145.640,3.439,-88.874
550,-0.0698,0.5796,-0.8345,0.305,0.244,-0.732,145.640,3.444,-88.863
560,-0.0688,0.5786,-0.8369,0.183,0.549,-0.916,145.640,3.450,-88.852
570,-0.0669,0.5781,-0.8330,-0.061,0.854,-1.099,145.635,3.455,-88.841
580,-0.0674,0.5737,-0.8345,-0.183,1.038,-1.282,145.635,3.455,-88.824
590,-0.0654,0.5728,-0.8369,-0.183,1.160,-1.343,145.635,3.455,-88.808
600,-0.0688,0.5718,-0.8408,0.061,1.343,-1.343,145.635,3.455,-88.786
610,-0.0693,0.5674,-0.8467,0.305,1.770,-1.343,145.646,3.455,-88.764
620,-0.0654,0.5640,-0.8477,0.366,1.892,-1.282,145.657,3.450,-88.748
631,-0.0640,0.5635,-0.8506,0.244,1.709,-0.977,145.668,3.439,-88.726
641,-0.0615,0.5664,-0.8506,-0.183,0.977,-0.732,145.673,3.439,-88.715
650,-0.0571,0.5713,-0.8496,-0.610,-0.061,-0.549,145.673,3.439,-88.709
660,-0.0581,0.5752,-0.8481,-0.854,-1.038,-0.549,145.668,3.450,-88.715
670,-0.0596,0.5815,-0.8438,-1.099,-1.587,-0.427,145.651,3.461,-88.720
681,-0.0591,0.5830,-0.8433,-1.099,-1.648,-0.427,145.640,3.477,-88.726
691,-0.0576,0.5825,-0.8403,-1.099,-1.282,-0.549,145.624,3.488,-88.726
701,-0.0601,0.5830,-0.8345,-0.977,-0.854,-0.854,145.607,3.499,-88.726
711,-0.0630,0.5811,-0.8369,-0.916,-0.305,-1.160,145.596,3.510,-88.715
721,-0.0625,0.5796,-0.8359,-1.038,0.244,-1.343,145.585,3.516,-88.704
731,-0.0615,0.5811,-0.8320,-1.099,0.427,-1.404,145.569,3.516,-88.693
741,-0.0620,0.5786,-0.8359,-1.099,0.183,-1.404,145.558,3.521,-88.676
751,-0.0625,0.5801,-0.8354,-0.977,-0.244,-1.404,145.541,3.532,-88.665
761,-0.0649,0.5796,-0.8345,-0.671,-0.488,-1.465,145.536,3.549,-88.660
771,-0.0635,0.5776,-0.8384,-0.427,-0.427,-1.465,145.530,3.560,-88.649
781,-0.0649,0.5732,-0.8408,-0.244,-0.061,-1.465,145.530,3.565,-88.638
791,-0.0620,0.5732,-0.8394,-0.183,0.488,-1.343,145.530,3.571,-88.621
801,-0.0615,0.5723,-0.8379,-0.427,0.732,-1.343,145.530,3.571,-88.610
811,-0.0596,0.5684,-0.8369,-0.549,0.732,-1.282,145.525,3.571,-88.594
821,-0.0596,0.5659,-0.8364,-0.549,0.610,-1.221,145.525,3.571,-88.577
831,-0.0615,0.5693,-0.8364,-0.610,0.671,-1.038,145.525,3.571,-88.566
841,-0.0601,0.5669,-0.8359,-0.427,0.793,-0.793,145.525,3.565,-88.555
851,-0.0630,0.5654,-0.8345,0.000,0.854,-0.732,145.525,3.565,-88.544
861,-0.0659,0.5635,-0.8364,0.305,0.916,-0.671,145.536,3.560,-88.533
871,-0.0718,0.5630,-0.8403,0.427,1.221,-0.488,145.547,3.560,-88.522
881,-0.0723,0.5645,-0.8413,0.305,1.526,-0.183,145.558,3.554,-88.511
891,-0.0684,0.5615,-0.8418,0.244,1.770,0.183,145.569,3.538,-88.506
901,-0.0679,0.5605,-0.8428,0.427,1.587,0.427,145.580,3.527,-88.500
911,-0.0698,0.5620,-0.8413,0.610,1.282,0.671,145.591,3.516,-88.495
921,-0.0684,0.5640,-0.8408,0.610,1.099,0.977,145.602,3.505,-88.500
931,-0.0645,0.5664,-0.8389,0.610,0.854,1.221,145.613,3.494,-88.506
941,-0.0659,0.5684,-0.8364,0.793,0.854,1.282,145.624,3.483,-88.511
951,-0.0664,0.5708,-0.8374,0.854,1.038,1.160,145.629,3.472,-88.511
961,-0.0645,0.5752,-0.8423,0.854,1.404,0.977,145.640,3.455,-88.517
971,-0.0625,0.5767,-0.8369,0.671,1.709,0.854,145.646,3.439,-88.511
981,-0.0615,0.5757,-0.8364,0.488,1.892,0.610,145.646,3.417,-88.506
991,-0.0615,0.5747,-0.8384,0.183,1.892,0.366,145.651,3.400,-88.500
1001,-0.0625,0.5767,-0.8379,-0.122,1.953,0.244,145.646,3.384,-88.489
1011,-0.0630,0.5771,-0.8374,-0.122,2.075,0.305,145.646,3.367,-88.478
1021,-0.0674,0.5771,-0.8384,0.183,2.197,0.366,145.646,3.351,-88.473
1031,-0.0630,0.5757,-0.8389,0.549,2.441,0.305,145.651,3.334,-88.462
1041,-0.0586,0.5757,-0.8457,0.916,2.502,0.183,145.662,3.312,-88.445
1051,-0.0557,0.5737,-0.8467,1.038,2.380,0.122,145.673,3.290,-88.434
1061,-0.0552,0.5728,-0.8467,0.977,2.319,0.183,145.684,3.268,-88.423
1071,-0.0522,0.5742,-0.8496,0.854,2.197,0.244,145.695,3.241,-88.412
1081,-0.0503,0.5708,-0.8496,0.793,2.014,0.366,145.712,3.219,-88.401
1091,-0.0532,0.5718,-0.8501,0.916,1.892,0.427,145.723,3.203,-88.396
1101,-0.0518,0.5737,-0.8491,0.977,1.770,0.549,145.734,3.181,-88.391
1111,-0.0503,0.5767,-0.8496,1.038,1.587,0.610,145.745,3.159,-88.385
1121,-0.0488,0.5791,-0.8501,1.038,1.404,0.427,145.756,3.142,-88.385
1131,-0.0522,0.5767,-0.8521,0.793,1.160,0.122,145.767,3.126,-88.380
1141,-0.0508,0.5752,-0.8491,0.305,0.793,0.000,145.772,3.120,-88.374
1151,-0.0498,0.5767,-0.8516,-0.244,0.366,0.061,145.772,3.115,-88.374
1161,-0.0542,0.5771,-0.8496,-0.549,-0.122,0.061,145.767,3.109,-88.374
1171,-0.0586,0.5786,-0.8491,-0.549,-0.488,0.000,145.761,3.115,-88.374
1181,-0.0596,0.5801,-0.8506,-0.305,-0.488,-0.183,145.756,3.126,-88.380
1191,-0.0586,0.5781,-0.8496,0.061,-0.305,-0.366,145.756,3.131,-88.374
1201,-0.0581,0.5737,-0.8506,0.061,-0.427,-0.427,145.761,3.137,-88.374
1211,-0.0571,0.5718,-0.8472,-0.427,-0.793,-0.488,145.756,3.148,-88.374
1221,-0.0547,0.5723,-0.8472,-1.099,-1.526,-0.366,145.750,3.159,-88.380
1231,-0.0576,0.5732,-0.8438,-1.526,-2.014,-0.244,145.734,3.181,-88.391
1241,-0.0610,0.5742,-0.8438,-1.465,-2.075,-0.183,145.717,3.197,-88.401
1251,-0.0615,0.5757,-0.8418,-1.099,-1.709,-0.183,145.706,3.219,-88.407
1261,-0.0625,0.5742,-0.8403,-0.732,-1.282,-0.122,145.701,3.230,-88.412
1271,-0.0615,0.5728,-0.8374,-0.610,-0.977,-0.061,145.690,3.241,-88.418
1281,-0.0625,0.5723,-0.8350,-0.793,-0.854,-0.122,145.684,3.252,-88.423
1291,-0.0630,0.5742,-0.8369,-1.099,-0.854,-0.183,145.668,3.263,-88.429
1301,-0.0645,0.5713,-0.8364,-1.221,-0.671,-0.366,145.657,3.274,-88.429
1311,-0.0664,0.5698,-0.8384,-0.977,-0.427,-0.427,145.651,3.285,-88.423
1321,-0.0674,0.5645,-0.8389,-0.427,-0.061,-0.549,145.651,3.296,-88.423
1331,-0.0674,0.5605,-0.8403,-0.061,0.122,-0.488,145.657,3.301,-88.418
1341,-0.0640,0.5615,-0.8359,0.061,-0.061,-0.366,145.662,3.307,-88.412
1351,-0.0625,0.5596,-0.8350,0.000,-0.549,-0.061,145.668,3.312,-88.418
1361,-0.0625,0.5566,-0.8379,0.000,-0.793,0.183,145.673,3.323,-88.423
1371,-0.0615,0.5615,-0.8394,-0.305,-0.549,0.427,145.673,3.323,-88.429
1381,-0.0610,0.5659,-0.8345,-0.488,-0.183,0.854,145.673,3.323,-88.440
1391,-0.0586,0.5664,-0.8320,-0.183,0.183,1.099,145.668,3.318,-88.445
1401,-0.0635,0.5649,-0.8315,0.122,0.488,1.099,145.673,3.307,-88.451
1411,-0.0659,0.5669,-0.8350,0.305,0.916,1.038,145.679,3.301,-88.456
1421,-0.0635,0.5674,-0.8403,0.427,1.526,0.977,145.684,3.285,-88.456
1431,-0.0576,0.5718,-0.8403,0.549,1.831,1.038,145.690,3.263,-88.451
1441,-0.0547,0.5732,-0.8423,0.366,1.648,0.977,145.695,3.241,-88.451
1451,-0.0562,0.5747,-0.8452,0.000,1.099,0.854,145.695,3.230,-88.451
1461,-0.0571,0.5771,-0.8457,-0.488,0.366,0.916,145.690,3.219,-88.456
1471,-0.0610,0.5801,-0.8462,-0.732,-0.061,1.038,145.679,3.214,-88.467
1481,-0.0654,0.5830,-0.8438,-0.793,-0.061,1.099,145.668,3.214,-88.478
1491,-0.0640,0.5835,-0.8423,-0.488,0.183,1.099,145.662,3.214,-88.484
1501,-0.0630,0.5820,-0.8389,-0.122,0.244,0.977,145.657,3.208,-88.489
1511,-0.0605,0.5815,-0.8350,0.183,-0.061,0.854,145.651,3.203,-88.500
1521,-0.0591,0.5820,-0.8359,0.000,-0.427,0.671,145.646,3.203,-88.506
1531,-0.0601,0.5815,-0.8350,-0.366,-0.427,0.549,145.635,3.208,-88.511
1541,-0.0601,0.5815,-0.8350,-0.671,0.000,0.244,145.624,3.208,-88.517
1551,-0.0576,0.5835,-0.8335,-0.732,0.427,0.000,145.613,3.203,-88.511
1561,-0.0576,0.5835,-0.8354,-0.549,0.732,-0.366,145.602,3.203,-88.506
1571,-0.0557,0.5811,-0.8384,-0.244,0.732,-0.732,145.596,3.197,-88.495
1581,-0.0547,0.5791,-0.8389,0.061,0.671,-1.038,145.596,3.197,-88.484
1591,-0.0542,0.5752,-0.8398,0.122,0.549,-1.160,145.596,3.197,-88.473
1601,-0.0542,0.5718,-0.8408,0.122,0.427,-1.038,145.602,3.197,-88.462
1611,-0.0537,0.5693,-0.8442,0.183,0.366,-0.916,145.607,3.197,-88.451
1621,-0.0532,0.5679,-0.8438,0.305,0.305,-0.671,145.613,3.197,-88.445
1631,-0.0537,0.5669,-0.8428,0.549,0.488,-0.427,145.624,3.197,-88.434
1641,-0.0508,0.5645,-0.8438,0.854,0.671,-0.183,145.640,3.186,-88.429
1651,-0.0488,0.5679,-0.8438,1.099,0.671,0.000,145.657,3.175,-88.429
1661,-0.0483,0.5713,-0.8433,1.282,0.488,0.122,145.668,3.170,-88.423
1671,-0.0508,0.5688,-0.8447,1.404,0.366,0.122,145.690,3.159,-88.423
1681,-0.0542,0.5669,-0.8442,1.221,0.305,0.000,145.706,3.159,-88.423
1691,-0.0552,0.5688,-0.8452,0.854,0.305,-0.183,145.717,3.153,-88.418
1701,-0.0547,0.5669,-0.8457,0.366,0.183,-0.183,145.723,3.153,-88.418
1711,-0.0537,0.5688,-0.8467,0.000,-0.061,0.000,145.728,3.153,-88.418
1721,-0.0566,0.5693,-0.8462,-0.061,-0.183,0.183,145.728,3.153,-88.418
1731,-0.0552,0.5737,-0.8442,-0.061,-0.366,0.427,145.728,3.153,-88.423
1741,-0.0552,0.5737,-0.8457,0.244,-0.488,0.610,145.734,3.153,-88.434
1751,-0.0552,0.5728,-0.8428,0.549,-0.549,0.671,145.739,3.153,-88.440
1761,-0.0571,0.5723,-0.8428,0.549,-0.488,0.732,145.745,3.153,-88.451
1771,-0.0591,0.5747,-0.8428,0.244,-0.427,0.732,145.745,3.153,-88.462
1781,-0.0605,0.5771,-0.8413,-0.183,-0.488,0.671,145.739,3.159,-88.467
1791,-0.0596,0.5776,-0.8403,-0.305,-0.549,0.549,145.734,3.159,-88.473
1801,-0.0615,0.5781,-0.8413,-0.122,-0.549,0.366,145.734,3.164,-88.484
1811,-0.0630,0.5786,-0.8403,0.061,-0.427,0.305,145.728,3.170,-88.484
1821,-0.0625,0.5781,-0.8394,0.061,-0.366,0.305,145.728,3.175,-88.489
1831,-0.0605,0.5791,-0.8374,0.000,-0.427,0.183,145.723,3.181,-88.495
1841,-0.0630,0.5762,-0.8340,-0.183,-0.671,0.244,145.717,3.192,-88.500
1851,-0.0684,0.5762,-0.8369,-0.305,-0.671,0.183,145.712,3.203,-88.506
1861,-0.0684,0.5781,-0.8369,-0.305,-0.305,0.122,145.706,3.208,-88.511
1871,-0.0620,0.5796,-0.8369,-0.122,0.122,0.122,145.701,3.208,-88.511
1881,-0.0591,0.5796,-0.8364,0.183,0.366,0.061,145.695,3.208,-88.506
1891,-0.0586,0.5762,-0.8340,0.427,0.305,-0.061,145.695,3.208,-88.506
1901,-0.0581,0.5737,-0.8345,0.366,0.305,-0.183,145.701,3.208,-88.500
1914,-0.0591,0.5723,-0.8374,0.000,0.427,-0.122,145.701,3.203,-88.500
1921,-0.0571,0.5728,-0.8379,-0.122,0.793,-0.061,145.695,3.197,-88.495
1931,-0.0566,0.5747,-0.8374,0.000,1.099,0.000,145.695,3.186,-88.489
1941,-0.0576,0.5728,-0.8394,0.366,1.282,0.000,145.701,3.181,-88.478
1951,-0.0610,0.5693,-0.8452,0.671,1.465,-0.061,145.712,3.170,-88.473
1961,-0.0605,0.5669,-0.8496,0.732,1.526,-0.122,145.723,3.159,-88.462
1971,-0.0562,0.5679,-0.8477,0.610,1.221,0.000,145.734,3.148,-88.456
1981,-0.0542,0.5669,-0.8477,0.366,0.671,0.183,145.745,3.142,-88.451
1991,-0.0532,0.5703,-0.8491,0.244,0.244,0.244,145.750,3.137,-88.451
2001,-0.0508,0.5737,-0.8481,0.183,-0.061,0.366,145.756,3.131,-88.456
2011,-0.0503,0.5767,-0.8477,0.305,-0.122,0.366,145.756,3.131,-88.462
2021,-0.0488,0.5732,-0.8491,0.488,-0.122,0.122,145.761,3.126,-88.462
2031,-0.0547,0.5698,-0.8467,0.427,-0.061,-0.061,145.772,3.126,-88.462
2041,-0.0562,0.5718,-0.8394,-0.244,-0.122,-0.183,145.767,3.126,-88.462
2051,-0.0571,0.5737,-0.8364,-0.854,-0.549,-0.122,145.756,3.131,-88.462
2061,-0.0610,0.5757,-0.8359,-0.793,-1.038,-0.122,145.745,3.148,-88.467
2071,-0.0610,0.5776,-0.8325,-0.305,-1.160,-0.244,145.739,3.159,-88.473
2081,-0.0630,0.5762,-0.8315,0.305,-0.549,-0.305,145.734,3.170,-88.473
2091,-0.0601,0.5728,-0.8335,0.793,0.427,-0.305,145.739,3.170,-88.467
2101,-0.0596,0.5713,-0.8335,0.671,0.977,-0.122,145.745,3.164,-88.462
2111,-0.0566,0.5693,-0.8335,0.122,1.160,-0.061,145.750,3.159,-88.456
2121,-0.0591,0.5723,-0.8359,-0.183,0.916,0.000,145.745,3.153,-88.451
2131,-0.0596,0.5757,-0.8398,-0.244,0.854,0.000,145.739,3.148,-88.445
2141,-0.0601,0.5762,-0.8403,-0.061,1.038,0.000,145.739,3.137,-88.440
2151,-0.0586,0.5757,-0.8457,0.244,1.099,-0.122,145.739,3.131,-88.434
2161,-0.0576,0.5752,-0.8472,0.366,1.038,-0.244,145.745,3.126,-88.423
2171,-0.0562,0.5767,-0.8516,0.244,0.916,-0.488,145.750,3.120,-88.412
2181,-0.0532,0.5771,-0.8525,0.061,0.671,-0.732,145.756,3.120,-88.407
2191,-0.0518,0.5757,-0.8530,-0.183,0.366,-0.916,145.756,3.120,-88.396
2201,-0.0527,0.5723,-0.8506,-0.488,0.061,-1.038,145.756,3.120,-88.385
2211,-0.0532,0.5713,-0.8491,-0.732,-0.244,-1.038,145.750,3.126,-88.380
2221,-0.0562,0.5698,-0.8467,-0.793,-0.488,-0.977,145.745,3.137,-88.374
2231,-0.0576,0.5693,-0.8413,-0.793,-0.793,-0.732,145.739,3.148,-88.374
2241,-0.0566,0.5698,-0.8389,-0.488,-0.793,-0.549,145.734,3.159,-88.374
2251,-0.0542,0.5728,-0.8408,0.000,-0.488,-0.366,145.734,3.164,-88.374
2261,-0.0537,0.5718,-0.8394,0.427,-0.061,-0.305,145.739,3.164,-88.369
2271,-0.0532,0.5674,-0.8423,0.610,0.366,-0.366,145.750,3.164,-88.363
2281,-0.0547,0.5630,-0.8442,0.488,0.610,-0.366,145.761,3.159,-88.358
2291,-0.0552,0.5654,-0.8472,0.000,0.427,-0.366,145.767,3.159,-88.352
2301,-0.0547,0.5688,-0.8467,-0.549,0.122,-0.244,145.761,3.159,-88.352
2311,-0.0566,0.5693,-0.8481,-0.671,-0.183,-0.183,145.761,3.159,-88.352
2321,-0.0581,0.5688,-0.8457,-0.610,-0.427,-0.122,145.756,3.164,-88.352
2331,-0.0586,0.5698,-0.8506,-0.488,-0.427,-0.061,145.756,3.170,-88.352
2341,-0.0576,0.5718,-0.8481,-0.366,-0.366,0.122,145.756,3.170,-88.358
2351,-0.0547,0.5713,-0.8481,-0.305,-0.366,0.244,145.756,3.170,-88.358
2361,-0.0547,0.5703,-0.8511,-0.305,-0.549,0.244,145.756,3.175,-88.363
2371,-0.0552,0.5718,-0.8486,-0.549,-0.732,0.122,145.750,3.181,-88.369
2381,-0.0547,0.5728,-0.8486,-0.854,-1.038,0.061,145.745,3.186,-88.374
2391,-0.0557,0.5728,-0.8457,-1.221,-1.465,0.000,145.734,3.197,-88.385
2401,-0.0581,0.5723,-0.8433,-1.465,-1.953,-0.061,145.723,3.214,-88.396
2411,-0.0605,0.5732,-0.8413,-1.465,-2.197,-0.122,145.706,3.235,-88.407
2421,-0.0601,0.5737,-0.8403,-1.160,-2.258,-0.122,145.695,3.252,-88.418
2431,-0.0645,0.5723,-0.8384,-0.732,-2.014,-0.122,145.684,3.274,-88.429
2441,-0.0635,0.5693,-0.8364,-0.366,-1.587,-0.061,145.684,3.290,-88.434
2451,-0.0630,0.5693,-0.8350,-0.305,-1.099,0.061,145.679,3.301,-88.445
2461,-0.0654,0.5688,-0.8335,-0.244,-0.916,0.183,145.673,3.312,-88.451
2471,-0.0649,0.5708,-0.8340,-0.244,-0.916,0.244,145.673,3.323,-88.456
2481,-0.0640,0.5703,-0.8311,-0.122,-1.038,0.305,145.668,3.334,-88.467
2491,-0.0664,0.5713,-0.8335,0.122,-0.977,0.366,145.668,3.345,-88.473
2501,-0.0664,0.5718,-0.8330,0.183,-0.610,0.244,145.668,3.351,-88.478
2511,-0.0630,0.5732,-0.8374,0.122,-0.244,0.244,145.668,3.356,-88.484
2521,-0.0630,0.5752,-0.8369,0.000,0.122,0.244,145.668,3.356,-88.484
2531,-0.0620,0.5742,-0.8403,-0.122,0.427,0.122,145.668,3.351,-88.484
2541,-0.0610,0.5747,-0.8403,-0.244,0.488,0.122,145.662,3.345,-88.484
2551,-0.0605,0.5752,-0.8438,-0.305,0.366,0.244,145.662,3.345,-88.484
2561,-0.0620,0.5742,-0.8413,-0.183,0.000,0.244,145.657,3.345,-88.484
2571,-0.0640,0.5752,-0.8394,0.061,-0.305,0.183,145.657,3.345,-88.489
2581,-0.0610,0.5771,-0.8398,0.122,-0.488,0.122,145.657,3.351,-88.489
2591,-0.0601,0.5767,-0.8389,0.122,-0.427,0.122,145.657,3.356,-88.495
2601,-0.0586,0.5771,-0.8408,0.122,-0.366,0.122,145.657,3.356,-88.495
2611,-0.0596,0.5796,-0.8447,-0.122,-0.183,0.000,145.657,3.356,-88.500
2621,-0.0581,0.5806,-0.8462,-0.305,0.061,-0.183,145.651,3.356,-88.495
2631,-0.0576,0.5796,-0.8433,-0.305,0.122,-0.366,145.646,3.356,-88.495
2642,-0.0610,0.5791,-0.8433,-0.061,-0.061,-0.488,145.646,3.362,-88.489
2651,-0.0630,0.5757,-0.8413,0.061,-0.427,-0.610,145.646,3.367,-88.484
2661,-0.0630,0.5757,-0.8423,0.061,-0.793,-0.549,145.646,3.378,-88.484
2671,-0.0640,0.5732,-0.8418,-0.122,-0.977,-0.549,145.646,3.395,-88.489
2681,-0.0654,0.5718,-0.8428,-0.366,-0.916,-0.549,145.646,3.406,-88.489
2691,-0.0659,0.5703,-0.8403,-0.610,-0.671,-0.549,145.640,3.417,-88.489
2701,-0.0649,0.5698,-0.8384,-0.671,-0.549,-0.427,145.635,3.428,-88.489
2711,-0.0659,0.5688,-0.8374,-0.549,-0.549,-0.305,145.629,3.439,-88.489
2721,-0.0664,0.5688,-0.8359,-0.305,-0.671,-0.183,145.629,3.444,-88.489
2731,-0.0630,0.5679,-0.8340,-0.122,-0.793,-0.061,145.629,3.455,-88.495
2741,-0.0591,0.5684,-0.8354,0.183,-0.793,0.061,145.629,3.461,-88.500
2751,-0.0610,0.5674,-0.8364,0.366,-0.793,0.183,145.635,3.466,-88.506
2761,-0.0645,0.5679,-0.8359,0.244,-0.427,0.244,145.640,3.466,-88.511
2771,-0.0640,0.5698,-0.8325,-0.122,-0.061,0.305,145.640,3.466,-88.511
2781,-0.0620,0.5688,-0.8325,-0.305,0.305,0.366,145.635,3.466,-88.511
2791,-0.0610,0.5698,-0.8335,-0.305,0.488,0.427,145.635,3.461,-88.511
2801,-0.0630,0.5747,-0.8389,-0.061,0.793,0.488,145.635,3.450,-88.511
2811,-0.0625,0.5791,-0.8389,0.427,1.038,0.671,145.635,3.439,-88.511
2821,-0.0605,0.5791,-0.8359,0.977,1.038,0.671,145.640,3.428,-88.511
2831,-0.0605,0.5781,-0.8413,1.221,0.732,0.671,145.651,3.417,-88.517
2841,-0.0625,0.5771,-0.8413,1.038,0.427,0.671,145.662,3.411,-88.517
2851,-0.0630,0.5776,-0.8462,0.793,0.488,0.610,145.668,3.400,-88.522
2861,-0.0601,0.5815,-0.8442,0.427,0.793,0.549,145.668,3.395,-88.522
2871,-0.0566,0.5820,-0.8433,0.427,0.977,0.427,145.673,3.378,-88.517
2881,-0.0576,0.5820,-0.8433,0.732,0.793,0.183,145.673,3.373,-88.517
2891,-0.0596,0.5796,-0.8447,1.404,0.549,0.061,145.690,3.367,-88.511
2901,-0.0625,0.5757,-0.8408,1.892,0.305,0.122,145.706,3.362,-88.511
2911,-0.0640,0.5776,-0.8413,1.953,0.061,0.061,145.723,3.367,-88.511
2921,-0.0654,0.5718,-0.8452,2.502,0.183,0.061,145.750,3.367,-88.511
2931,-0.0640,0.5693,-0.8418,2.502,0.366,0.244,145.778,3.362,-88.511
2941,-0.0601,0.5703,-0.8403,1.892,0.366,0.244,145.794,3.362,-88.511
2951,-0.0610,0.5684,-0.8418,1.343,0.244,0.183,145.811,3.356,-88.511
2961,-0.0640,0.5713,-0.8394,0.671,-0.183,0.244,145.816,3.362,-88.517
2971,-0.0610,0.5742,-0.8403,0.427,-0.244,0.244,145.822,3.362,-88.517
2981,-0.0615,0.5762,-0.8423,0.488,-0.061,0.122,145.822,3.362,-88.517
2991,-0.0630,0.5762,-0.8423,0.610,0.183,0.000,145.827,3.362,-88.517
3001,-0.0645,0.5742,-0.8408,0.732,0.366,-0.061,145.833,3.362,-88.517
3011,-0.0630,0.5698,-0.8408,0.610,0.366,0.000,145.838,3.362,-88.511
3021,-0.0620,0.5693,-0.8408,0.366,0.244,-0.061,145.844,3.362,-88.511
3031,-0.0610,0.5703,-0.8413,0.244,0.122,-0.061,145.844,3.362,-88.511
3041,-0.0605,0.5708,-0.8413,0.183,0.061,0.000,145.849,3.362,-88.511
3051,-0.0605,0.5708,-0.8423,0.366,0.122,0.000,145.849,3.362,-88.511
3061,-0.0615,0.5703,-0.8447,0.488,0.183,0.000,145.860,3.362,-88.506
3071,-0.0625,0.5703,-0.8447,0.488,0.366,0.000,145.865,3.356,-88.506
3081,-0.0640,0.5664,-0.8423,0.183,0.427,0.061,145.865,3.356,-88.506
3091,-0.0620,0.5693,-0.8442,0.061,0.305,0.061,145.871,3.356,-88.500
3101,-0.0605,0.5713,-0.8467,0.061,0.183,0.122,145.871,3.356,-88.500
3111,-0.0615,0.5708,-0.8442,0.183,0.183,0.122,145.876,3.351,-88.500
3121,-0.0610,0.5693,-0.8423,0.244,0.183,0.122,145.876,3.351,-88.500
3131,-0.0601,0.5693,-0.8418,0.305,0.183,0.122,145.882,3.351,-88.500
3142,-0.0566,0.5728,-0.8442,0.183,0.244,0.122,145.882,3.345,-88.500
3151,-0.0591,0.5718,-0.8462,0.000,0.366,0.000,145.882,3.340,-88.500
3161,-0.0581,0.5742,-0.8428,-0.244,0.549,-0.183,145.882,3.340,-88.495
3171,-0.0581,0.5713,-0.8433,-0.366,0.549,-0.305,145.876,3.334,-88.489
3181,-0.0605,0.5674,-0.8442,-0.305,0.427,-0.488,145.876,3.334,-88.484
3191,-0.0601,0.5674,-0.8442,-0.305,0.244,-0.488,145.876,3.334,-88.478
3201,-0.0581,0.5688,-0.8428,-0.366,0.183,-0.305,145.871,3.334,-88.473
3211,-0.0566,0.5732,-0.8442,-0.244,0.122,-0.061,145.871,3.334,-88.473
3221,-0.0552,0.5732,-0.8472,0.000,0.122,-0.122,145.871,3.329,-88.473
3231,-0.0557,0.5708,-0.8477,0.244,0.244,-0.305,145.876,3.329,-88.473
3241,-0.0547,0.5693,-0.8486,0.305,0.305,-0.366,145.882,3.323,-88.473
3251,-0.0542,0.5674,-0.8467,0.183,0.183,-0.427,145.887,3.323,-88.473
3261,-0.0552,0.5649,-0.8477,-0.122,-0.122,-0.488,145.887,3.323,-88.473
3271,-0.0571,0.5620,-0.8452,-0.366,-0.366,-0.488,145.893,3.329,-88.473
3281,-0.0566,0.5610,-0.8447,-0.427,-0.427,-0.366,145.893,3.334,-88.473
3291,-0.0601,0.5610,-0.8418,-0.366,-0.488,-0.183,145.893,3.340,-88.473
3301,-0.0601,0.5630,-0.8433,-0.122,-0.488,0.061,145.893,3.340,-88.473
3311,-0.0620,0.5645,-0.8418,-0.061,-0.427,0.244,145.898,3.345,-88.473
3321,-0.0625,0.5654,-0.8447,-0.122,-0.488,0.366,145.898,3.351,-88.473
3331,-0.0620,0.5693,-0.8462,-0.305,-0.732,0.366,145.893,3.356,-88.473
3341,-0.0610,0.5732,-0.8423,-0.488,-1.099,0.366,145.887,3.362,-88.473
3351,-0.0620,0.5767,-0.8413,-0.671,-1.221,0.244,145.876,3.373,-88.473
3361,-0.0605,0.5796,-0.8408,-0.671,-1.099,-0.122,145.865,3.384,-88.473
3371,-0.0586,0.5801,-0.8379,-0.549,-1.099,-0.610,145.854,3.395,-88.473
3381,-0.0591,0.5796,-0.8403,-0.488,-1.343,-1.099,145.849,3.411,-88.473
3391,-0.0596,0.5801,-0.8467,-0.671,-1.526,-1.648,145.838,3.428,-88.467
3401,-0.0625,0.5786,-0.8516,-0.977,-1.587,-2.014,145.827,3.455,-88.462
3411,-0.0645,0.5776,-0.8511,-1.282,-1.343,-2.197,145.816,3.477,-88.451
3421,-0.0630,0.5767,-0.8496,-1.343,-1.160,-2.197,145.805,3.499,-88.440
3431,-0.0654,0.5762,-0.8477,-1.282,-1.282,-2.014,145.794,3.527,-88.429
3441,-0.0669,0.5728,-0.8447,-0.916,-1.526,-1.831,145.783,3.549,-88.423
3451,-0.0679,0.5728,-0.8462,-0.854,-1.770,-1.587,145.778,3.576,-88.418
3461,-0.0669,0.5723,-0.8403,-0.916,-1.831,-1.343,145.767,3.598,-88.418
3471,-0.0649,0.5732,-0.8369,-0.671,-1.648,-1.099,145.761,3.620,-88.418
3481,-0.0659,0.5703,-0.8403,-0.061,-1.282,-1.038,145.761,3.636,-88.418
3491,-0.0659,0.5693,-0.8394,0.244,-0.671,-1.221,145.761,3.653,-88.412
3501,-0.0635,0.5684,-0.8379,0.244,-0.366,-1.343,145.767,3.658,-88.401
3511,-0.0645,0.5654,-0.8330,0.000,-0.244,-1.221,145.767,3.669,-88.391
3521,-0.0640,0.5654,-0.8374,-0.244,-0.305,-1.099,145.767,3.675,-88.385
3531,-0.0664,0.5664,-0.8408,-0.366,-0.061,-0.916,145.767,3.686,-88.380
3541,-0.0664,0.5684,-0.8408,-0.305,0.427,-0.671,145.767,3.686,-88.369
3551,-0.0635,0.5659,-0.8398,0.061,0.854,-0.366,145.772,3.680,-88.363
3561,-0.0649,0.5674,-0.8394,0.549,0.793,-0.122,145.778,3.675,-88.358
3571,-0.0664,0.5703,-0.8413,0.916,0.366,-0.061,145.789,3.669,-88.352
3581,-0.0669,0.5713,-0.8462,1.038,-0.061,-0.061,145.800,3.669,-88.352
3591,-0.0669,0.5708,-0.8481,0.793,-0.244,-0.122,145.811,3.675,-88.352
3601,-0.0669,0.5713,-0.8481,0.183,-0.244,-0.122,145.816,3.680,-88.358
3611,-0.0693,0.5728,-0.8472,-0.427,-0.305,-0.244,145.811,3.686,-88.352
3621,-0.0693,0.5728,-0.8442,-0.732,-0.305,-0.305,145.805,3.691,-88.352
3631,-0.0679,0.5737,-0.8423,-0.549,-0.488,-0.305,145.800,3.697,-88.352
3642,-0.0664,0.5747,-0.8379,-0.244,-0.854,-0.244,145.794,3.708,-88.358
3651,-0.0693,0.5742,-0.8398,0.305,-1.160,-0.305,145.794,3.719,-88.363
3661,-0.0713,0.5718,-0.8418,0.610,-1.221,-0.305,145.800,3.735,-88.363
3671,-0.0718,0.5737,-0.8408,0.488,-0.854,-0.305,145.805,3.746,-88.369
3681,-0.0708,0.5728,-0.8394,0.122,-0.366,-0.366,145.805,3.752,-88.369
3691,-0.0698,0.5723,-0.8394,-0.305,-0.061,-0.427,145.800,3.757,-88.363
3701,-0.0703,0.5742,-0.8398,-0.488,-0.061,-0.427,145.794,3.763,-88.358
3711,-0.0698,0.5757,-0.8408,-0.427,-0.183,-0.488,145.789,3.768,-88.358
3721,-0.0688,0.5767,-0.8408,-0.122,-0.366,-0.549,145.783,3.774,-88.352
3731,-0.0679,0.5781,-0.8379,0.244,-0.610,-0.610,145.783,3.785,-88.352
3741,-0.0684,0.5747,-0.8403,0.488,-0.549,-0.610,145.789,3.790,-88.352
3751,-0.0703,0.5723,-0.8408,0.244,-0.122,-0.610,145.789,3.796,-88.347
3761,-0.0693,0.5723,-0.8398,-0.244,0.305,-0.488,145.789,3.801,-88.341
3771,-0.0698,0.5728,-0.8379,-0.488,0.549,-0.488,145.783,3.801,-88.336
3781,-0.0718,0.5718,-0.8340,-0.488,0.488,-0.549,145.772,3.801,-88.325
3791,-0.0718,0.5688,-0.8311,-0.122,0.244,-0.549,145.772,3.807,-88.319
3801,-0.0703,0.5698,-0.8345,0.122,0.122,-0.671,145.772,3.807,-88.314
3811,-0.0688,0.5737,-0.8325,0.244,0.122,-0.671,145.772,3.812,-88.308
3821,-0.0688,0.5718,-0.8364,0.488,0.488,-0.610,145.778,3.812,-88.303
3831,-0.0664,0.5688,-0.8433,0.488,0.977,-0.549,145.783,3.807,-88.292
3841,-0.0669,0.5664,-0.8433,0.427,1.343,-0.488,145.794,3.801,-88.281
3851,-0.0698,0.5630,-0.8447,0.427,1.648,-0.305,145.800,3.790,-88.264
3861,-0.0674,0.5645,-0.8477,0.427,1.526,-0.061,145.811,3.774,-88.259
3871,-0.0649,0.5649,-0.8501,0.488,1.160,0.122,145.822,3.763,-88.253
3881,-0.0674,0.5649,-0.8496,0.671,0.549,0.244,145.833,3.757,-88.253
3891,-0.0688,0.5654,-0.8506,0.427,0.061,0.366,145.844,3.757,-88.253
3901,-0.0674,0.5659,-0.8481,0.122,-0.183,0.366,145.849,3.757,-88.259
3915,-0.0679,0.5674,-0.8481,-0.122,-0.305,0.427,145.854,3.757,-88.264
3921,-0.0693,0.5684,-0.8481,-0.366,-0.305,0.427,145.849,3.757,-88.270
3931,-0.0703,0.5713,-0.8452,-0.549,-0.183,0.427,145.849,3.757,-88.275
3941,-0.0688,0.5723,-0.8438,-0.427,-0.183,0.366,145.844,3.763,-88.275
3951,-0.0654,0.5703,-0.8413,-0.061,-0.366,0.305,145.844,3.763,-88.281
3961,-0.0649,0.5708,-0.8413,0.183,-0.549,0.244,145.844,3.763,-88.286
3971,-0.0640,0.5737,-0.8394,0.061,-0.427,0.183,145.844,3.763,-88.292
3981,-0.0649,0.5737,-0.8398,-0.122,-0.244,0.183,145.838,3.763,-88.292
3991,-0.0654,0.5737,-0.8379,-0.305,-0.183,0.122,145.833,3.763,-88.297
4001,-0.0684,0.5742,-0.8394,-0.366,-0.122,0.000,145.827,3.763,-88.297
4011,-0.0713,0.5762,-0.8398,-0.305,0.244,-0.122,145.822,3.768,-88.292
4021,-0.0718,0.5728,-0.8384,0.061,0.610,-0.183,145.822,3.763,-88.286
4031,-0.0684,0.5698,-0.8369,0.488,0.732,-0.183,145.827,3.763,-88.281
4041,-0.0679,0.5688,-0.8330,0.671,0.732,-0.122,145.833,3.757,-88.281
4051,-0.0708,0.5679,-0.8354,0.549,0.610,-0.061,145.838,3.752,-88.275
4061,-0.0713,0.5693,-0.8394,0.366,0.854,0.061,145.838,3.752,-88.270
4071,-0.0669,0.5723,-0.8433,0.244,1.404,0.305,145.844,3.735,-88.264
4081,-0.0625,0.5708,-0.8472,0.549,1.831,0.427,145.849,3.719,-88.259
4091,-0.0615,0.5679,-0.8472,1.038,1.892,0.305,145.865,3.697,-88.248
4101,-0.0605,0.5679,-0.8491,1.099,1.526,0.183,145.876,3.680,-88.242
4111,-0.0591,0.5664,-0.8491,0.732,0.732,0.122,145.893,3.669,-88.237
4121,-0.0620,0.5659,-0.8501,0.305,0.122,0.122,145.898,3.664,-88.242
4131,-0.0640,0.5630,-0.8481,-0.061,0.061,0.122,145.904,3.664,-88.242
4142,-0.0645,0.5640,-0.8462,-0.183,0.366,0.122,145.904,3.658,-88.237
4151,-0.0635,0.5664,-0.8481,-0.305,0.671,0.244,145.904,3.653,-88.237
4161,-0.0596,0.5659,-0.8467,-0.122,0.549,0.366,145.909,3.642,-88.237
4171,-0.0581,0.5664,-0.8442,0.122,0.000,0.427,145.909,3.636,-88.242
4181,-0.0620,0.5669,-0.8457,0.183,-0.488,0.488,145.915,3.636,-88.248
4191,-0.0654,0.5654,-0.8457,0.061,-0.488,0.671,145.920,3.636,-88.259
4201,-0.0630,0.5693,-0.8457,-0.122,-0.366,0.732,145.920,3.636,-88.264
4211,-0.0615,0.5703,-0.8457,-0.366,-0.427,0.732,145.915,3.631,-88.275
4221,-0.0659,0.5703,-0.8467,-0.610,-0.732,0.610,145.909,3.636,-88.281
4231,-0.0684,0.5723,-0.8472,-0.854,-0.916,0.488,145.898,3.642,-88.292
4241,-0.0679,0.5762,-0.8472,-0.916,-0.916,0.488,145.887,3.647,-88.303
4251,-0.0684,0.5762,-0.8442,-0.610,-0.916,0.427,145.882,3.658,-88.308
4261,-0.0693,0.5752,-0.8423,-0.244,-0.977,0.305,145.876,3.664,-88.319
4271,-0.0713,0.5757,-0.8379,-0.183,-1.099,0.305,145.871,3.675,-88.325
4281,-0.0723,0.5757,-0.8350,-0.305,-1.221,0.366,145.860,3.686,-88.336
4291,-0.0737,0.5742,-0.8350,-0.427,-1.160,0.305,145.854,3.702,-88.347
4301,-0.0718,0.5742,-0.8340,-0.610,-0.854,0.244,145.844,3.708,-88.352
4311,-0.0688,0.5791,-0.8311,-0.793,-0.427,0.000,145.827,3.713,-88.352
4321,-0.0688,0.5767,-0.8306,-0.610,-0.061,-0.244,145.816,3.719,-88.352
4332,-0.0713,0.5713,-0.8311,-0.366,0.122,-0.366,145.811,3.724,-88.347
4342,-0.0708,0.5737,-0.8315,-0.183,0.549,-0.366,145.805,3.724,-88.341
4352,-0.0684,0.5747,-0.8350,-0.061,0.977,-0.244,145.800,3.719,-88.336
4361,-0.0679,0.5723,-0.8359,0.244,1.282,-0.122,145.800,3.708,-88.325
4372,-0.0698,0.5674,-0.8364,0.610,1.465,0.061,145.805,3.697,-88.319
4382,-0.0688,0.5659,-0.8379,0.671,1.587,0.122,145.816,3.686,-88.314
4391,-0.0679,0.5688,-0.8423,0.488,1.526,0.244,145.822,3.675,-88.303
4402,-0.0649,0.5698,-0.8428,0.305,1.221,0.244,145.827,3.664,-88.297
4412,-0.0664,0.5713,-0.8418,0.244,0.854,0.061,145.833,3.658,-88.297
4422,-0.0649,0.5732,-0.8472,0.000,0.671,-0.183,145.833,3.653,-88.292
4432,-0.0635,0.5757,-0.8477,-0.427,0.671,-0.244,145.827,3.647,-88.286
4442,-0.0620,0.5762,-0.8462,-0.610,0.549,-0.183,145.822,3.642,-88.281
4452,-0.0620,0.5762,-0.8447,-0.488,0.366,-0.183,145.816,3.636,-88.275
4462,-0.0669,0.5737,-0.8477,-0.122,0.244,-0.305,145.816,3.636,-88.270
4472,-0.0698,0.5703,-0.8481,0.000,0.427,-0.427,145.816,3.642,-88.264
4482,-0.0679,0.5674,-0.8452,-0.305,0.549,-0.427,145.816,3.636,-88.259
4492,-0.0615,0.5664,-0.8438,-0.549,0.305,-0.366,145.816,3.636,-88.253
4502,-0.0630,0.5659,-0.8418,-0.549,-0.061,-0.366,145.816,3.636,-88.253
4512,-0.0654,0.5684,-0.8398,-0.427,-0.427,-0.183,145.811,3.642,-88.253
4521,-0.0674,0.5703,-0.8389,-0.244,-0.244,0.000,145.805,3.647,-88.253
4531,-0.0664,0.5708,-0.8369,0.122,0.061,0.122,145.805,3.647,-88.253
4541,-0.0635,0.5679,-0.8364,0.305,0.305,0.122,145.811,3.642,-88.253
4551,-0.0659,0.5659,-0.8389,0.366,0.549,0.183,145.816,3.636,-88.253
4561,-0.0679,0.5693,-0.8413,0.061,0.854,0.244,145.816,3.631,-88.253
4571,-0.0654,0.5728,-0.8433,-0.183,0.977,0.305,145.816,3.620,-88.253
4582,-0.0640,0.5693,-0.8384,-0.061,0.977,0.244,145.816,3.615,-88.253
4591,-0.0664,0.5703,-0.8418,0.000,0.854,0.122,145.816,3.609,-88.253
4601,-0.0664,0.5718,-0.8408,0.000,0.793,0.061,145.816,3.604,-88.253
4611,-0.0640,0.5737,-0.8413,0.000,0.610,0.122,145.816,3.598,-88.253
4622,-0.0654,0.5708,-0.8423,0.122,0.671,0.122,145.816,3.593,-88.253
4632,-0.0664,0.5723,-0.8457,0.183,0.793,0.061,145.822,3.587,-88.253
4642,-0.0645,0.5752,-0.8457,0.183,0.977,0.061,145.822,3.576,-88.253
4651,-0.0649,0.5752,-0.8442,0.366,0.916,0.122,145.827,3.571,-88.253
4661,-0.0640,0.5762,-0.8423,0.488,0.732,0.183,145.827,3.560,-88.253
4672,-0.0659,0.5742,-0.8428,0.488,0.488,0.061,145.833,3.560,-88.253
4682,-0.0664,0.5742,-0.8428,0.488,0.366,-0.061,145.838,3.560,-88.253
4692,-0.0625,0.5742,-0.8438,0.366,0.427,-0.183,145.838,3.554,-88.253
4702,-0.0601,0.5752,-0.8447,0.122,0.671,-0.244,145.838,3.549,-88.253
4712,-0.0591,0.5713,-0.8447,-0.122,0.671,-0.366,145.838,3.543,-88.253
4722,-0.0615,0.5674,-0.8462,0.000,0.732,-0.488,145.844,3.538,-88.253
4732,-0.0601,0.5649,-0.8442,0.183,0.671,-0.488,145.849,3.532,-88.253
4742,-0.0635,0.5684,-0.8394,0.732,0.549,-0.427,145.860,3.532,-88.253
4752,-0.0615,0.5581,-0.8408,2.014,0.732,-0.061,145.882,3.527,-88.253
4762,-0.0640,0.5474,-0.8423,3.296,1.160,0.549,145.926,3.516,-88.253
4772,-0.0596,0.5498,-0.8408,2.991,1.465,1.038,145.964,3.494,-88.253
4782,-0.0571,0.5566,-0.8418,2.502,1.465,1.343,145.997,3.472,-88.259
4792,-0.0537,0.5576,-0.8452,2.747,1.404,1.648,146.030,3.450,-88.264
4802,-0.0522,0.5620,-0.8486,2.319,0.977,1.648,146.058,3.428,-88.270
4812,-0.0576,0.5649,-0.8511,2.380,0.854,1.587,146.085,3.411,-88.281
4822,-0.0605,0.5664,-0.8525,2.441,1.038,1.648,146.107,3.389,-88.286
4832,-0.0586,0.5684,-0.8550,2.075,1.160,1.526,146.135,3.373,-88.292
4842,-0.0586,0.5703,-0.8530,1.709,1.038,1.343,146.151,3.356,-88.297
4852,-0.0610,0.5728,-0.8550,1.038,0.427,0.977,146.162,3.345,-88.303
4862,-0.0674,0.5737,-0.8535,0.305,-0.122,0.793,146.162,3.345,-88.314
4872,-0.0679,0.5767,-0.8550,-0.305,-0.549,0.671,146.157,3.351,-88.319
4882,-0.0659,0.5776,-0.8491,-0.488,-0.793,0.610,146.146,3.356,-88.330
4892,-0.0669,0.5786,-0.8486,-0.305,-0.732,0.549,146.140,3.367,-88.336
4902,-0.0659,0.5767,-0.8442,0.000,-0.732,0.366,146.135,3.373,-88.347
4912,-0.0625,0.5752,-0.8408,0.366,-0.854,0.183,146.135,3.378,-88.352
4922,-0.0630,0.5747,-0.8384,0.427,-0.854,0.061,146.129,3.389,-88.358
4932,-0.0649,0.5732,-0.8369,0.061,-0.671,-0.061,146.124,3.395,-88.358
4942,-0.0649,0.5732,-0.8398,-0.305,-0.305,-0.183,146.118,3.400,-88.358
4952,-0.0620,0.5723,-0.8413,-0.366,0.122,-0.366,146.113,3.406,-88.358
4962,-0.0610,0.5693,-0.8403,-0.244,0.610,-0.549,146.107,3.400,-88.347
4972,-0.0601,0.5688,-0.8403,0.061,1.038,-0.671,146.107,3.400,-88.336
4982,-0.0596,0.5679,-0.8428,0.305,1.343,-0.732,146.107,3.389,-88.325
4992,-0.0610,0.5640,-0.8418,0.549,1.526,-0.732,146.118,3.384,-88.308
5002,-0.0601,0.5605,-0.8457,0.610,1.465,-0.671,146.129,3.373,-88.297
5012,-0.0605,0.5581,-0.8481,0.488,1.221,-0.610,146.140,3.367,-88.281
5022,-0.0596,0.5591,-0.8472,0.183,0.916,-0.488,146.146,3.362,-88.275
5032,-0.0576,0.5605,-0.8486,-0.061,0.671,-0.244,146.146,3.356,-88.270
5042,-0.0562,0.5601,-0.8486,0.000,0.427,0.000,146.151,3.351,-88.264
5052,-0.0557,0.5645,-0.8481,0.183,0.427,0.061,146.157,3.345,-88.264
5062,-0.0537,0.5669,-0.8472,0.366,0.305,0.000,146.162,3.340,-88.264
5072,-0.0557,0.5640,-0.8506,0.610,0.183,-0.061,146.168,3.334,-88.259
5082,-0.0571,0.5630,-0.8511,0.732,0.061,-0.061,146.179,3.334,-88.259
5092,-0.0576,0.5605,-0.8545,0.488,0.183,-0.061,146.190,3.334,-88.259
5102,-0.0576,0.5605,-0.8550,0.000,0.244,0.061,146.195,3.329,-88.259
5112,-0.0571,0.5586,-0.8501,-0.305,0.061,0.183,146.201,3.329,-88.259
5122,-0.0581,0.5601,-0.8516,-0.427,-0.305,0.366,146.201,3.329,-88.264
5132,-0.0620,0.5596,-0.8477,-0.305,-0.732,0.488,146.201,3.334,-88.270
5142,-0.0664,0.5581,-0.8442,-0.061,-0.732,0.732,146.201,3.340,-88.281
5152,-0.0649,0.5596,-0.8433,0.183,-0.488,0.916,146.206,3.340,-88.292
5162,-0.0601,0.5645,-0.8423,0.305,-0.122,1.221,146.206,3.334,-88.303
5172,-0.0576,0.5654,-0.8423,0.610,0.122,1.221,146.212,3.329,-88.314
5182,-0.0586,0.5669,-0.8467,0.732,0.244,1.038,146.217,3.318,-88.319
5192,-0.0591,0.5679,-0.8472,0.549,0.122,0.793,146.223,3.312,-88.325
5202,-0.0566,0.5713,-0.8462,0.183,-0.061,0.671,146.223,3.307,-88.330
5212,-0.0581,0.5718,-0.8472,-0.122,-0.244,0.610,146.217,3.307,-88.336
5222,-0.0635,0.5747,-0.8447,-0.244,-0.183,0.549,146.212,3.307,-88.341
5232,-0.0620,0.5747,-0.8442,-0.061,0.061,0.427,146.206,3.307,-88.347
5242,-0.0620,0.5732,-0.8433,0.244,0.183,0.305,146.201,3.307,-88.347
5252,-0.0591,0.5708,-0.8423,0.366,0.183,0.305,146.201,3.301,-88.352
5262,-0.0620,0.5708,-0.8433,0.244,0.000,0.244,146.201,3.301,-88.352
5272,-0.0645,0.5698,-0.8438,0.122,-0.122,0.122,146.201,3.307,-88.352
5282,-0.0625,0.5723,-0.8447,0.122,-0.061,-0.061,146.201,3.307,-88.352
5292,-0.0586,0.5698,-0.8433,0.244,0.244,-0.183,146.201,3.307,-88.352
5302,-0.0586,0.5679,-0.8472,0.488,0.732,-0.244,146.206,3.301,-88.347
5312,-0.0581,0.5659,-0.8477,0.427,1.099,-0.305,146.212,3.296,-88.336
5322,-0.0547,0.5630,-0.8467,0.305,0.916,-0.305,146.217,3.285,-88.330
5332,-0.0557,0.5620,-0.8496,0.305,0.549,-0.305,146.223,3.279,-88.325
5342,-0.0566,0.5596,-0.8481,0.244,0.122,-0.427,146.228,3.285,-88.319
5352,-0.0605,0.5576,-0.8491,0.183,0.122,-0.366,146.234,3.285,-88.314
5362,-0.0620,0.5527,-0.8511,0.244,0.427,-0.122,146.245,3.285,-88.314
5372,-0.0581,0.5566,-0.8511,0.122,0.854,0.183,146.250,3.274,-88.308
5382,-0.0562,0.5615,-0.8491,-0.061,0.916,0.488,146.255,3.263,-88.308
5392,-0.0557,0.5659,-0.8521,-0.061,0.732,0.610,146.255,3.252,-88.308
5402,-0.0576,0.5635,-0.8535,0.122,0.366,0.488,146.261,3.246,-88.308
5412,-0.0571,0.5669,-0.8545,0.244,0.183,0.366,146.261,3.241,-88.314
5422,-0.0576,0.5649,-0.8511,0.183,0.061,0.366,146.266,3.241,-88.314
5432,-0.0562,0.5640,-0.8521,0.122,-0.183,0.305,146.266,3.241,-88.319
5442,-0.0596,0.5640,-0.8486,-0.061,-0.488,0.305,146.272,3.241,-88.325
5452,-0.0596,0.5645,-0.8462,-0.305,-0.732,0.305,146.266,3.246,-88.330
5462,-0.0586,0.5674,-0.8447,-0.427,-0.671,0.305,146.261,3.252,-88.336
5472,-0.0605,0.5698,-0.8457,-0.488,-0.488,0.305,146.250,3.257,-88.341
5482,-0.0601,0.5703,-0.8447,-0.366,-0.183,0.305,146.245,3.257,-88.347
5492,-0.0615,0.5703,-0.8438,-0.183,0.000,0.122,146.239,3.257,-88.347
5502,-0.0625,0.5669,-0.8418,-0.183,0.122,-0.061,146.239,3.263,-88.347
5512,-0.0625,0.5654,-0.8428,-0.427,0.183,-0.183,146.234,3.263,-88.341
5522,-0.0620,0.5654,-0.8418,-0.732,0.183,-0.183,146.223,3.263,-88.341
5532,-0.0620,0.5645,-0.8418,-0.977,0.122,-0.183,146.212,3.268,-88.336
5542,-0.0630,0.5654,-0.8413,-0.916,0.122,-0.061,146.206,3.268,-88.336
5552,-0.0615,0.5669,-0.8398,-0.488,0.122,0.000,146.195,3.268,-88.336
5562,-0.0620,0.5654,-0.8403,0.061,0.244,0.122,146.195,3.268,-88.336
5572,-0.0601,0.5635,-0.8408,0.549,0.549,0.244,146.201,3.263,-88.336
5582,-0.0586,0.5625,-0.8447,0.793,0.793,0.183,146.212,3.257,-88.330
5592,-0.0562,0.5640,-0.8472,0.549,0.977,0.183,146.217,3.246,-88.330
5602,-0.0576,0.5649,-0.8462,0.305,0.977,0.183,146.223,3.241,-88.325
5612,-0.0610,0.5605,-0.8447,0.122,0.793,0.183,146.223,3.235,-88.319
5622,-0.0596,0.5596,-0.8447,0.061,0.732,0.122,146.228,3.230,-88.319
5632,-0.0605,0.5615,-0.8486,0.244,0.854,0.305,146.234,3.219,-88.314
5643,-0.0601,0.5630,-0.8496,0.671,1.099,0.610,146.245,3.208,-88.314
5652,-0.0581,0.5605,-0.8481,1.282,1.465,0.732,146.255,3.197,-88.314
5662,-0.0542,0.5610,-0.8511,1.404,1.526,0.610,146.277,3.175,-88.308
5672,-0.0552,0.5635,-0.8574,1.160,1.282,0.488,146.294,3.164,-88.308
5682,-0.0552,0.5645,-0.8550,0.732,1.038,0.427,146.299,3.153,-88.303
5692,-0.0542,0.5630,-0.8501,0.244,0.671,0.366,146.305,3.142,-88.303
5702,-0.0537,0.5610,-0.8491,0.000,0.488,0.366,146.310,3.137,-88.303
5712,-0.0581,0.5586,-0.8477,0.061,0.305,0.488,146.310,3.131,-88.308
5722,-0.0601,0.5576,-0.8496,0.488,0.366,0.610,146.321,3.126,-88.308
5732,-0.0586,0.5591,-0.8481,0.793,0.549,0.916,146.332,3.120,-88.314
5742,-0.0571,0.5576,-0.8457,1.038,0.488,1.038,146.343,3.109,-88.319
5752,-0.0566,0.5557,-0.8462,1.038,0.122,1.038,146.354,3.104,-88.330
5762,-0.0581,0.5591,-0.8491,0.610,-0.366,0.977,146.365,3.104,-88.336
5772,-0.0605,0.5635,-0.8530,0.061,-0.366,0.977,146.365,3.104,-88.347
5782,-0.0596,0.5654,-0.8511,-0.366,-0.244,0.977,146.365,3.104,-88.358
5792,-0.0566,0.5659,-0.8472,-0.610,-0.122,0.916,146.354,3.098,-88.363
5802,-0.0571,0.5698,-0.8477,-0.488,-0.122,0.916,146.349,3.098,-88.374
5812,-0.0552,0.5718,-0.8467,-0.183,-0.244,0.854,146.343,3.093,-88.385
5822,-0.0552,0.5713,-0.8452,0.305,-0.427,0.793,146.338,3.093,-88.391
5832,-0.0571,0.5693,-0.8457,0.366,-0.549,0.671,146.338,3.098,-88.401
5842,-0.0566,0.5698,-0.8428,0.183,-0.488,0.610,146.338,3.098,-88.407
5852,-0.0571,0.5728,-0.8467,-0.244,-0.366,0.427,146.332,3.098,-88.412
5862,-0.0562,0.5747,-0.8442,-0.488,-0.244,0.244,146.321,3.098,-88.418
5872,-0.0552,0.5737,-0.8447,-0.488,-0.183,0.061,146.310,3.104,-88.418
5882,-0.0576,0.5747,-0.8452,-0.366,-0.244,-0.244,146.299,3.104,-88.418
5892,-0.0586,0.5747,-0.8467,-0.122,-0.122,-0.427,146.294,3.109,-88.412
5902,-0.0576,0.5718,-0.8516,0.000,0.122,-0.610,146.294,3.115,-88.407
5916,-0.0557,0.5684,-0.8506,0.000,0.305,-0.793,146.294,3.115,-88.401
5922,-0.0552,0.5664,-0.8506,-0.183,0.244,-0.854,146.294,3.120,-88.391
5932,-0.0547,0.5649,-0.8477,-0.366,-0.122,-0.854,146.288,3.126,-88.385
5942,-0.0576,0.5645,-0.8457,-0.244,-0.610,-0.854,146.288,3.137,-88.380
5952,-0.0605,0.5601,-0.8442,0.000,-0.854,-0.793,146.288,3.148,-88.380
5962,-0.0615,0.5576,-0.8433,0.122,-0.854,-0.671,146.294,3.164,-88.380
5972,-0.0601,0.5542,-0.8433,0.183,-0.488,-0.610,146.299,3.175,-88.380
5982,-0.0562,0.5547,-0.8442,-0.061,-0.183,-0.366,146.299,3.175,-88.374
5992,-0.0537,0.5552,-0.8447,-0.244,0.122,-0.061,146.305,3.175,-88.374
6002,-0.0537,0.5591,-0.8442,-0.366,0.183,0.122,146.299,3.170,-88.374
6012,-0.0527,0.5615,-0.8481,-0.244,0.183,0.244,146.299,3.164,-88.374
6022,-0.0537,0.5620,-0.8491,0.122,0.183,0.305,146.305,3.159,-88.374
6032,-0.0566,0.5601,-0.8501,0.366,0.122,0.244,146.310,3.159,-88.380
6042,-0.0576,0.5591,-0.8496,0.305,0.183,0.183,146.316,3.159,-88.380
6052,-0.0605,0.5591,-0.8511,0.061,0.244,0.244,146.321,3.159,-88.380
6062,-0.0596,0.5596,-0.8491,-0.244,0.122,0.366,146.321,3.153,-88.380
6072,-0.0605,0.5635,-0.8477,-0.305,0.000,0.427,146.321,3.153,-88.385
6082,-0.0601,0.5645,-0.8457,-0.061,-0.122,0.549,146.316,3.153,-88.391
6092,-0.0605,0.5630,-0.8447,0.488,-0.183,0.671,146.321,3.159,-88.396
6102,-0.0591,0.5620,-0.8433,1.038,-0.122,0.793,146.332,3.153,-88.401
6112,-0.0601,0.5586,-0.8428,1.282,0.061,0.854,146.343,3.153,-88.412
6122,-0.0591,0.5581,-0.8438,1.282,0.427,0.854,146.360,3.148,-88.418
6132,-0.0576,0.5581,-0.8433,1.099,0.916,0.977,146.371,3.131,-88.418
6143,-0.0542,0.5601,-0.8442,0.732,1.343,1.221,146.382,3.115,-88.423
6152,-0.0508,0.5640,-0.8462,0.488,1.282,1.282,146.382,3.093,-88.423
6162,-0.0532,0.5625,-0.8496,0.366,1.099,0.977,146.387,3.082,-88.429
6172,-0.0518,0.5630,-0.8550,0.183,0.854,0.732,146.393,3.065,-88.429
6182,-0.0562,0.5679,-0.8594,-0.122,0.793,0.549,146.393,3.060,-88.429
6192,-0.0542,0.5688,-0.8599,-0.305,0.793,0.366,146.393,3.049,-88.429
6202,-0.0518,0.5703,-0.8618,-0.488,0.610,0.183,146.387,3.043,-88.423
6212,-0.0537,0.5679,-0.8604,-0.610,0.244,0.061,146.382,3.038,-88.423
6222,-0.0586,0.5679,-0.8564,-0.671,-0.305,0.000,146.376,3.043,-88.429
6232,-0.0571,0.5669,-0.8511,-0.732,-0.916,-0.061,146.371,3.054,-88.429
6242,-0.0547,0.5674,-0.8496,-0.732,-1.465,-0.122,146.360,3.065,-88.440
6252,-0.0532,0.5684,-0.8486,-0.732,-1.770,-0.183,146.349,3.082,-88.445
6262,-0.0537,0.5693,-0.8472,-0.610,-1.709,-0.305,146.343,3.093,-88.451
6272,-0.0557,0.5654,-0.8442,-0.427,-1.221,-0.366,146.338,3.109,-88.456
6282,-0.0576,0.5645,-0.8413,-0.366,-0.610,-0.488,146.332,3.115,-88.456
6292,-0.0576,0.5620,-0.8408,-0.122,-0.183,-0.427,146.327,3.120,-88.451
6302,-0.0625,0.5586,-0.8389,0.183,-0.061,-0.366,146.332,3.126,-88.451
6312,-0.0610,0.5557,-0.8433,0.244,0.061,-0.244,146.338,3.131,-88.451
6322,-0.0591,0.5552,-0.8394,0.244,0.244,-0.061,146.338,3.131,-88.445
6332,-0.0586,0.5557,-0.8433,0.244,0.366,0.183,146.343,3.131,-88.445
6342,-0.0581,0.5566,-0.8457,0.366,0.488,0.366,146.354,3.126,-88.445
6352,-0.0537,0.5576,-0.8477,0.427,0.610,0.427,146.360,3.120,-88.445
6362,-0.0518,0.5601,-0.8501,0.427,0.610,0.427,146.365,3.109,-88.445
6372,-0.0522,0.5605,-0.8525,0.549,0.610,0.488,146.376,3.098,-88.445
6382,-0.0576,0.5571,-0.8564,0.610,0.549,0.488,146.387,3.093,-88.451
6392,-0.0566,0.5620,-0.8521,0.488,0.671,0.610,146.393,3.087,-88.451
6402,-0.0542,0.5620,-0.8496,0.366,0.671,0.671,146.398,3.076,-88.451
6412,-0.0532,0.5635,-0.8491,0.488,0.305,0.671,146.404,3.071,-88.456
6422,-0.0542,0.5625,-0.8516,0.610,-0.122,0.671,146.409,3.065,-88.462
6432,-0.0566,0.5640,-0.8506,0.488,-0.305,0.671,146.415,3.065,-88.467
6442,-0.0552,0.5635,-0.8472,0.305,-0.122,0.732,146.415,3.065,-88.478
6452,-0.0527,0.5674,-0.8457,0.000,0.000,0.732,146.415,3.060,-88.484
6462,-0.0562,0.5684,-0.8457,-0.183,0.061,0.610,146.409,3.054,-88.489
6472,-0.0562,0.5698,-0.8467,-0.427,0.000,0.305,146.398,3.054,-88.489
6482,-0.0557,0.5728,-0.8457,-0.610,-0.061,0.122,146.387,3.054,-88.489
6492,-0.0537,0.5742,-0.8452,-0.488,-0.122,0.000,146.376,3.054,-88.489
6502,-0.0562,0.5723,-0.8462,-0.183,-0.061,-0.122,146.371,3.060,-88.489
6512,-0.0591,0.5703,-0.8452,0.061,0.061,-0.366,146.371,3.060,-88.489
6522,-0.0562,0.5688,-0.8452,0.244,0.183,-0.427,146.371,3.065,-88.484
6532,-0.0562,0.5693,-0.8418,0.305,0.244,-0.366,146.365,3.065,-88.478
6542,-0.0542,0.5654,-0.8428,0.427,0.366,-0.427,146.371,3.065,-88.473
6552,-0.0542,0.5625,-0.8438,0.427,0.488,-0.549,146.376,3.060,-88.467
6562,-0.0547,0.5571,-0.8442,0.488,0.671,-0.610,146.382,3.060,-88.456
6572,-0.0557,0.5542,-0.8472,0.549,1.099,-0.610,146.393,3.054,-88.445
6582,-0.0557,0.5503,-0.8467,0.366,1.404,-0.488,146.404,3.049,-88.434
6592,-0.0562,0.5522,-0.8447,0.061,1.404,-0.183,146.409,3.038,-88.423
6602,-0.0552,0.5503,-0.8452,0.061,1.160,0.122,146.415,3.027,-88.418
6612,-0.0566,0.5532,-0.8457,0.244,0.916,0.305,146.420,3.021,-88.418
6622,-0.0571,0.5527,-0.8472,0.488,0.916,0.488,146.431,3.016,-88.418
6632,-0.0576,0.5518,-0.8477,0.854,1.221,0.793,146.442,2.999,-88.418
6643,-0.0547,0.5537,-0.8491,0.977,1.648,1.038,146.459,2.983,-88.412
6652,-0.0537,0.5557,-0.8535,1.038,1.953,1.099,146.470,2.961,-88.412
6662,-0.0532,0.5576,-0.8550,1.099,2.014,1.160,146.486,2.939,-88.412
6672,-0.0527,0.5596,-0.8545,1.038,1.648,1.160,146.503,2.917,-88.412
6682,-0.0537,0.5630,-0.8564,0.854,1.465,1.160,146.508,2.900,-88.412
6692,-0.0493,0.5625,-0.8530,0.610,1.099,1.160,146.519,2.884,-88.418
6702,-0.0474,0.5640,-0.8569,0.366,0.732,1.099,146.519,2.867,-88.423
6712,-0.0503,0.5669,-0.8599,0.183,0.366,0.916,146.525,2.862,-88.429
6722,-0.0498,0.5698,-0.8613,-0.122,0.122,0.671,146.525,2.856,-88.434
6732,-0.0498,0.5723,-0.8628,-0.366,-0.122,0.427,146.519,2.851,-88.440
6742,-0.0488,0.5713,-0.8623,-0.671,-0.610,0.244,146.508,2.856,-88.445
6752,-0.0513,0.5693,-0.8584,-0.732,-0.977,0.000,146.503,2.862,-88.451
6762,-0.0527,0.5693,-0.8579,-0.977,-1.282,-0.183,146.492,2.873,-88.456
6772,-0.0518,0.5703,-0.8516,-1.282,-1.587,-0.183,146.475,2.889,-88.462
6782,-0.0503,0.5698,-0.8481,-1.282,-1.831,-0.305,146.459,2.906,-88.467
6792,-0.0522,0.5674,-0.8438,-1.099,-2.014,-0.427,146.442,2.922,-88.478
6802,-0.0581,0.5649,-0.8408,-0.854,-1.831,-0.488,146.431,2.944,-88.484
6812,-0.0581,0.5664,-0.8384,-0.732,-1.099,-0.427,146.420,2.961,-88.484
6822,-0.0562,0.5659,-0.8364,-0.610,-0.488,-0.427,146.409,2.972,-88.484
6832,-0.0557,0.5664,-0.8369,-0.366,-0.122,-0.366,146.398,2.972,-88.484
6842,-0.0557,0.5635,-0.8384,-0.122,0.000,-0.427,146.398,2.977,-88.478
6852,-0.0586,0.5635,-0.8389,0.061,0.244,-0.488,146.393,2.983,-88.473
6862,-0.0566,0.5630,-0.8408,0.122,0.610,-0.488,146.393,2.983,-88.467
6872,-0.0518,0.5620,-0.8442,0.183,1.099,-0.366,146.393,2.977,-88.456
6882,-0.0488,0.5615,-0.8496,0.305,1.404,-0.244,146.398,2.961,-88.445
6893,-0.0493,0.5645,-0.8521,0.366,1.587,-0.244,146.404,2.950,-88.434
6903,-0.0469,0.5630,-0.8540,0.549,1.465,-0.305,146.415,2.933,-88.423
6913,-0.0469,0.5630,-0.8608,0.854,0.977,-0.427,146.426,2.928,-88.418
6923,-0.0498,0.5625,-0.8667,0.977,0.671,-0.427,146.442,2.922,-88.407
6933,-0.0493,0.5605,-0.8662,0.793,0.305,-0.366,146.459,2.917,-88.401
6943,-0.0508,0.5566,-0.8638,0.366,0.061,-0.366,146.470,2.917,-88.401
6953,-0.0508,0.5566,-0.8633,-0.244,-0.488,-0.366,146.470,2.922,-88.401
6963,-0.0508,0.5547,-0.8564,-0.732,-1.160,-0.305,146.470,2.933,-88.401
6973,-0.0513,0.5576,-0.8569,-1.038,-1.770,-0.244,146.464,2.950,-88.412
6983,-0.0557,0.5576,-0.8555,-1.221,-2.197,-0.122,146.459,2.972,-88.423
6993,-0.0571,0.5596,-0.8501,-1.099,-2.380,-0.061,146.448,2.994,-88.434
7003,-0.0581,0.5571,-0.8428,-0.916,-2.502,0.000,146.437,3.016,-88.451
7013,-0.0581,0.5537,-0.8403,-0.854,-2.441,0.122,146.431,3.038,-88.462
7023,-0.0640,0.5552,-0.8389,-0.854,-2.075,0.244,146.420,3.060,-88.478
7033,-0.0610,0.5571,-0.8374,-0.854,-1.404,0.427,146.415,3.076,-88.489
7043,-0.0586,0.5586,-0.8354,-0.732,-0.732,0.488,146.404,3.082,-88.495
7053,-0.0601,0.5591,-0.8384,-0.427,-0.305,0.549,146.398,3.082,-88.500
7063,-0.0601,0.5610,-0.8384,-0.244,-0.122,0.549,146.393,3.082,-88.506
7073,-0.0586,0.5649,-0.8408,0.000,0.183,0.549,146.387,3.082,-88.511
7083,-0.0591,0.5664,-0.8452,0.244,0.488,0.549,146.387,3.076,-88.511
7093,-0.0566,0.5698,-0.8486,0.488,0.916,0.427,146.393,3.065,-88.511
7103,-0.0557,0.5708,-0.8486,0.610,1.221,0.244,146.393,3.054,-88.506
7113,-0.0537,0.5698,-0.8506,0.732,1.099,0.061,146.398,3.049,-88.500
7123,-0.0518,0.5688,-0.8530,0.549,0.916,-0.061,146.404,3.038,-88.495
7133,-0.0562,0.5669,-0.8550,0.183,0.549,-0.183,146.409,3.038,-88.489
7143,-0.0557,0.5674,-0.8540,-0.061,0.244,-0.244,146.409,3.038,-88.489
7153,-0.0542,0.5669,-0.8530,-0.183,0.183,-0.305,146.404,3.038,-88.484
7163,-0.0498,0.5688,-0.8540,-0.122,0.061,-0.488,146.404,3.038,-88.478
7173,-0.0498,0.5654,-0.8560,0.244,-0.122,-0.671,146.409,3.038,-88.473
7183,-0.0498,0.5610,-0.8535,0.366,-0.183,-0.732,146.415,3.038,-88.473
7193,-0.0522,0.5576,-0.8511,0.061,-0.183,-0.732,146.420,3.043,-88.467
7203,-0.0532,0.5518,-0.8462,-0.122,-0.183,-0.610,146.420,3.049,-88.462
7213,-0.0557,0.5498,-0.8467,-0.183,-0.183,-0.427,146.426,3.054,-88.456
7223,-0.0596,0.5493,-0.8496,-0.122,0.000,-0.244,146.431,3.060,-88.456
7233,-0.0566,0.5522,-0.8506,0.000,0.366,0.000,146.437,3.060,-88.456
7243,-0.0522,0.5542,-0.8501,0.244,0.549,0.244,146.448,3.049,-88.451
7253,-0.0518,0.5562,-0.8516,0.366,0.427,0.427,146.453,3.043,-88.456
7263,-0.0532,0.5596,-0.8530,0.305,0.366,0.610,146.459,3.038,-88.456
7273,-0.0503,0.5610,-0.8569,0.244,0.305,0.732,146.464,3.027,-88.462
7283,-0.0469,0.5630,-0.8564,0.244,0.305,0.732,146.470,3.016,-88.467
7293,-0.0503,0.5615,-0.8555,0.366,0.061,0.671,146.475,3.010,-88.473
7303,-0.0532,0.5620,-0.8560,0.122,-0.488,0.488,146.475,3.010,-88.478
7313,-0.0542,0.5659,-0.8525,-0.244,-1.099,0.366,146.475,3.021,-88.489
7323,-0.0547,0.5654,-0.8516,-0.549,-1.526,0.244,146.470,3.032,-88.500
7333,-0.0576,0.5635,-0.8511,-0.610,-1.587,0.183,146.459,3.043,-88.511
7343,-0.0586,0.5664,-0.8516,-0.549,-1.221,0.183,146.453,3.054,-88.517
7353,-0.0581,0.5684,-0.8481,-0.427,-1.160,0.183,146.448,3.065,-88.522
7363,-0.0581,0.5664,-0.8447,-0.183,-1.282,0.244,146.442,3.076,-88.533
7373,-0.0576,0.5654,-0.8447,-0.061,-1.526,0.183,146.437,3.093,-88.544
7383,-0.0615,0.5645,-0.8447,-0.244,-1.526,0.061,146.431,3.109,-88.555
7393,-0.0615,0.5674,-0.8423,-0.488,-1.221,0.000,146.426,3.120,-88.561
7403,-0.0620,0.5664,-0.8379,-0.610,-0.916,0.000,146.415,3.131,-88.566
7413,-0.0596,0.5669,-0.8330,-0.488,-0.549,-0.061,146.404,3.137,-88.566
7423,-0.0596,0.5669,-0.8379,-0.244,-0.183,-0.183,146.393,3.142,-88.566
7433,-0.0625,0.5640,-0.8384,-0.061,0.122,-0.122,146.393,3.148,-88.566
7443,-0.0605,0.5635,-0.8398,0.061,0.488,-0.061,146.387,3.148,-88.561
7453,-0.0581,0.5664,-0.8428,0.122,0.671,0.061,146.387,3.142,-88.561
7463,-0.0562,0.5674,-0.8438,0.183,0.671,0.000,146.387,3.137,-88.555
7473,-0.0620,0.5659,-0.8462,0.183,0.671,-0.183,146.387,3.137,-88.550
7483,-0.0645,0.5649,-0.8491,0.244,0.854,-0.366,146.387,3.137,-88.544
7493,-0.0610,0.5620,-0.8486,0.122,1.038,-0.549,146.393,3.131,-88.533
7503,-0.0566,0.5640,-0.8472,-0.061,1.038,-0.549,146.393,3.126,-88.522
7513,-0.0566,0.5630,-0.8472,-0.122,0.671,-0.366,146.393,3.126,-88.517
7523,-0.0576,0.5625,-0.8501,0.000,0.488,-0.305,146.393,3.126,-88.511
7533,-0.0542,0.5649,-0.8535,-0.061,0.549,-0.305,146.393,3.120,-88.506
7543,-0.0537,0.5630,-0.8584,0.122,0.671,-0.366,146.398,3.115,-88.495
7553,-0.0532,0.5601,-0.8584,0.366,0.671,-0.427,146.404,3.109,-88.489
7563,-0.0537,0.5566,-0.8594,0.061,0.244,-0.488,146.415,3.109,-88.484
7573,-0.0532,0.5542,-0.8560,-0.366,-0.366,-0.549,146.415,3.115,-88.484
7583,-0.0562,0.5518,-0.8545,-0.854,-0.977,-0.427,146.415,3.126,-88.484
7593,-0.0596,0.5513,-0.8481,-1.038,-1.221,-0.122,146.409,3.137,-88.489
7603,-0.0591,0.5522,-0.8447,-0.854,-0.916,0.122,146.404,3.148,-88.495
7613,-0.0591,0.5532,-0.8438,-0.427,-0.488,0.366,146.404,3.153,-88.500
7623,-0.0591,0.5518,-0.8418,0.000,-0.244,0.610,146.409,3.153,-88.506
7633,-0.0591,0.5542,-0.8408,0.122,-0.244,0.793,146.409,3.153,-88.517
7643,-0.0586,0.5542,-0.8442,0.000,-0.244,1.038,146.415,3.148,-88.528
7653,-0.0566,0.5586,-0.8438,-0.183,-0.244,1.160,146.409,3.148,-88.539
7663,-0.0552,0.5635,-0.8442,-0.122,-0.122,1.099,146.409,3.142,-88.544
7673,-0.0562,0.5649,-0.8467,0.122,0.244,0.977,146.409,3.131,-88.555
7683,-0.0557,0.5649,-0.8477,0.427,0.610,0.854,146.409,3.126,-88.555
7693,-0.0522,0.5640,-0.8462,0.549,0.916,0.732,146.415,3.109,-88.555
7703,-0.0527,0.5649,-0.8496,0.488,0.977,0.610,146.420,3.098,-88.555
7713,-0.0527,0.5605,-0.8530,0.427,0.854,0.610,146.426,3.087,-88.555
7723,-0.0513,0.5610,-0.8545,0.427,0.671,0.610,146.431,3.076,-88.561
7733,-0.0518,0.5610,-0.8525,0.549,0.427,0.610,146.442,3.065,-88.561
7743,-0.0537,0.5620,-0.8525,0.793,0.305,0.671,146.453,3.060,-88.566
7753,-0.0547,0.5596,-0.8530,0.854,0.122,0.732,146.464,3.054,-88.572
7763,-0.0547,0.5576,-0.8530,0.854,0.122,0.793,146.475,3.049,-88.577
7773,-0.0547,0.5586,-0.8516,0.732,0.122,0.793,146.481,3.043,-88.583
7783,-0.0522,0.5596,-0.8511,0.488,0.122,0.793,146.492,3.038,-88.588
7793,-0.0527,0.5601,-0.8525,0.366,0.122,0.854,146.497,3.032,-88.594
7803,-0.0547,0.5605,-0.8491,0.427,0.061,0.854,146.497,3.027,-88.605
7813,-0.0557,0.5610,-0.8486,0.549,0.000,0.916,146.503,3.021,-88.610
7823,-0.0586,0.5610,-0.8472,0.427,-0.122,0.977,146.508,3.021,-88.621
7833,-0.0605,0.5635,-0.8438,0.305,-0.061,1.038,146.508,3.021,-88.627
7843,-0.0596,0.5654,-0.8447,0.244,0.061,1.038,146.508,3.016,-88.638
7853,-0.0586,0.5674,-0.8472,0.061,0.183,0.916,146.503,3.010,-88.643
7863,-0.0562,0.5703,-0.8501,0.000,0.183,0.793,146.503,3.010,-88.649
7873,-0.0552,0.5718,-0.8530,0.061,0.122,0.610,146.497,3.005,-88.654
7883,-0.0547,0.5718,-0.8525,-0.061,0.000,0.488,146.492,3.005,-88.660
7893,-0.0547,0.5688,-0.8521,-0.305,-0.183,0.244,146.486,3.005,-88.660
7903,-0.0552,0.5684,-0.8501,-0.488,-0.305,0.122,146.481,3.005,-88.665
7917,-0.0586,0.5679,-0.8501,-0.732,-0.305,0.122,146.470,3.010,-88.665
7923,-0.0581,0.5669,-0.8481,-0.732,-0.183,0.061,146.459,3.016,-88.665
7933,-0.0591,0.5649,-0.8462,-0.610,-0.061,0.000,146.453,3.016,-88.665
7943,-0.0601,0.5649,-0.8462,-0.366,-0.061,0.000,146.448,3.021,-88.665
7953,-0.0596,0.5630,-0.8462,-0.183,-0.061,-0.061,146.442,3.027,-88.665
7963,-0.0581,0.5630,-0.8486,-0.122,-0.061,-0.122,146.442,3.027,-88.665
7973,-0.0581,0.5620,-0.8491,-0.305,-0.183,-0.122,146.442,3.032,-88.665
7983,-0.0557,0.5649,-0.8486,-0.610,-0.244,-0.122,146.431,3.038,-88.665
7993,-0.0586,0.5645,-0.8462,-0.854,-0.244,-0.183,146.426,3.043,-88.665
8003,-0.0571,0.5649,-0.8452,-0.916,-0.305,-0.244,146.415,3.049,-88.665
8013,-0.0566,0.5654,-0.8467,-0.732,-0.305,-0.305,146.404,3.054,-88.665
8023,-0.0581,0.5645,-0.8496,-0.427,-0.305,-0.244,146.398,3.060,-88.665
8033,-0.0576,0.5649,-0.8462,-0.183,-0.183,-0.305,146.398,3.065,-88.665
8043,-0.0566,0.5640,-0.8457,0.000,-0.061,-0.305,146.398,3.071,-88.660
8053,-0.0557,0.5620,-0.8477,0.061,0.061,-0.427,146.398,3.071,-88.660
8063,-0.0571,0.5610,-0.8452,-0.244,0.183,-0.488,146.398,3.076,-88.654
8073,-0.0576,0.5630,-0.8442,-0.610,0.183,-0.488,146.387,3.076,-88.649
8083,-0.0596,0.5630,-0.8447,-0.854,0.244,-0.366,146.382,3.082,-88.643
8093,-0.0581,0.5630,-0.8442,-0.793,0.366,-0.244,146.371,3.082,-88.638
8103,-0.0547,0.5630,-0.8418,-0.366,0.549,-0.183,146.365,3.076,-88.632
8113,-0.0542,0.5620,-0.8472,0.061,0.793,-0.244,146.371,3.071,-88.627
8123,-0.0547,0.5596,-0.8447,0.244,0.916,-0.183,146.371,3.065,-88.621
8133,-0.0576,0.5537,-0.8447,0.183,0.977,-0.183,146.376,3.060,-88.616
8144,-0.0581,0.5503,-0.8462,-0.122,1.099,-0.183,146.382,3.054,-88.605
8153,-0.0547,0.5518,-0.8477,-0.549,1.282,0.000,146.382,3.043,-88.599
8163,-0.0522,0.5562,-0.8511,-0.610,1.343,0.305,146.382,3.032,-88.594
8173,-0.0508,0.5571,-0.8481,-0.305,1.221,0.671,146.382,3.016,-88.594
8183,-0.0488,0.5571,-0.8516,0.244,1.038,0.916,146.387,2.999,-88.594
8193,-0.0464,0.5586,-0.8506,0.610,1.038,1.038,146.398,2.977,-88.599
8203,-0.0454,0.5615,-0.8516,0.854,1.099,1.160,146.409,2.961,-88.605
8213,-0.0474,0.5625,-0.8525,0.854,1.221,1.160,146.420,2.939,-88.605
8223,-0.0469,0.5620,-0.8525,0.732,1.221,1.038,146.426,2.922,-88.605
8233,-0.0493,0.5649,-0.8535,0.488,1.038,0.854,146.431,2.906,-88.610
8243,-0.0513,0.5654,-0.8540,0.244,0.977,0.793,146.437,2.895,-88.610
8253,-0.0518,0.5654,-0.8521,0.244,0.854,0.732,146.437,2.884,-88.610
8263,-0.0522,0.5635,-0.8535,0.366,0.671,0.610,146.442,2.873,-88.610
8273,-0.0542,0.5625,-0.8530,0.488,0.427,0.549,146.448,2.867,-88.616
8283,-0.0537,0.5610,-0.8501,0.427,0.122,0.427,146.453,2.867,-88.616
8293,-0.0513,0.5591,-0.8516,0.244,-0.061,0.427,146.459,2.867,-88.621
8303,-0.0547,0.5610,-0.8511,0.000,-0.122,0.427,146.459,2.867,-88.627
8313,-0.0537,0.5620,-0.8481,-0.244,-0.122,0.488,146.459,2.867,-88.632
8323,-0.0532,0.5610,-0.8438,-0.122,-0.122,0.610,146.453,2.867,-88.638
8333,-0.0522,0.5625,-0.8438,0.183,0.000,0.671,146.453,2.862,-88.643
8343,-0.0547,0.5640,-0.8452,0.610,0.244,0.671,146.459,2.856,-88.649
8353,-0.0557,0.5645,-0.8462,0.916,0.488,0.671,146.470,2.856,-88.649
8363,-0.0537,0.5640,-0.8452,1.099,0.732,0.671,146.475,2.845,-88.649
8373,-0.0518,0.5615,-0.8433,1.099,0.854,0.671,146.486,2.834,-88.649
8383,-0.0518,0.5635,-0.8467,0.793,0.793,0.549,146.492,2.829,-88.654
8393,-0.0542,0.5659,-0.8477,0.549,0.916,0.488,146.497,2.818,-88.649
8403,-0.0532,0.5703,-0.8491,0.427,1.099,0.488,146.497,2.807,-88.649
8413,-0.0542,0.5718,-0.8486,0.549,1.160,0.305,146.497,2.802,-88.643
8423,-0.0542,0.5693,-0.8506,0.610,1.038,0.122,146.503,2.791,-88.638
8433,-0.0518,0.5708,-0.8530,0.427,0.854,-0.061,146.503,2.785,-88.632
8443,-0.0479,0.5688,-0.8540,0.122,0.610,-0.183,146.503,2.780,-88.632
8453,-0.0464,0.5688,-0.8540,-0.122,0.305,-0.366,146.497,2.780,-88.627
8463,-0.0483,0.5669,-0.8530,-0.305,-0.122,-0.549,146.497,2.785,-88.621
8473,-0.0503,0.5654,-0.8511,-0.366,-0.305,-0.671,146.492,2.791,-88.616
8483,-0.0513,0.5635,-0.8467,-0.305,-0.305,-0.732,146.486,2.796,-88.610
8493,-0.0532,0.5576,-0.8452,-0.305,-0.122,-0.793,146.486,2.802,-88.605
8503,-0.0542,0.5562,-0.8452,-0.305,0.000,-0.732,146.481,2.813,-88.599
8513,-0.0508,0.5557,-0.8467,-0.244,0.183,-0.732,146.486,2.813,-88.594
8523,-0.0522,0.5537,-0.8462,-0.122,0.427,-0.549,146.486,2.813,-88.588
8533,-0.0522,0.5518,-0.8501,0.061,0.610,-0.305,146.492,2.813,-88.583
8543,-0.0493,0.5532,-0.8491,0.244,0.549,-0.122,146.497,2.807,-88.577
8553,-0.0493,0.5576,-0.8511,0.427,0.427,0.000,146.508,2.807,-88.572
8563,-0.0498,0.5581,-0.8516,0.427,0.427,0.061,146.514,2.802,-88.572
8573,-0.0479,0.5586,-0.8525,0.244,0.366,0.122,146.519,2.796,-88.572
8583,-0.0488,0.5596,-0.8516,0.061,0.366,0.183,146.519,2.791,-88.572
8593,-0.0513,0.5610,-0.8540,0.000,0.366,0.244,146.519,2.791,-88.572
8603,-0.0532,0.5635,-0.8535,0.122,0.366,0.244,146.525,2.785,-88.572
8613,-0.0527,0.5645,-0.8535,0.427,0.427,0.244,146.530,2.780,-88.572
8623,-0.0513,0.5615,-0.8540,0.671,0.427,0.244,146.536,2.780,-88.572
8633,-0.0503,0.5596,-0.8540,0.671,0.427,0.183,146.547,2.774,-88.572
8644,-0.0513,0.5630,-0.8545,0.366,0.244,0.122,146.547,2.774,-88.572
8653,-0.0508,0.5649,-0.8511,0.061,0.061,0.122,146.547,2.774,-88.572
8663,-0.0488,0.5659,-0.8501,-0.183,-0.122,0.122,146.547,2.774,-88.572
8673,-0.0513,0.5669,-0.8511,-0.122,-0.305,0.000,146.541,2.774,-88.572
8683,-0.0508,0.5630,-0.8496,0.000,-0.305,-0.183,146.541,2.780,-88.572
8693,-0.0532,0.5610,-0.8467,0.000,-0.244,-0.183,146.541,2.785,-88.572
8703,-0.0537,0.5581,-0.8457,-0.122,-0.061,-0.183,146.541,2.791,-88.572
8713,-0.0547,0.5591,-0.8462,-0.244,0.122,-0.122,146.536,2.791,-88.572
8723,-0.0493,0.5571,-0.8438,-0.366,0.244,0.000,146.536,2.791,-88.572
8733,-0.0493,0.5591,-0.8442,-0.305,0.305,0.061,146.530,2.785,-88.566
8743,-0.0498,0.5630,-0.8462,-0.122,0.305,0.183,146.525,2.785,-88.566
8753,-0.0493,0.5605,-0.8472,0.183,0.488,0.244,146.530,2.780,-88.566
8763,-0.0527,0.5581,-0.8481,0.488,0.671,0.183,146.536,2.774,-88.566
8773,-0.0537,0.5552,-0.8477,0.671,0.916,0.183,146.541,2.769,-88.561
8783,-0.0518,0.5552,-0.8491,0.488,1.099,0.122,146.552,2.758,-88.555
8793,-0.0503,0.5586,-0.8545,0.183,1.038,0.183,146.558,2.752,-88.550
8803,-0.0493,0.5581,-0.8560,-0.061,0.916,0.305,146.558,2.741,-88.550
8813,-0.0479,0.5576,-0.8564,-0.122,0.854,0.427,146.563,2.730,-88.550
8823,-0.0454,0.5620,-0.8584,0.061,0.732,0.427,146.563,2.719,-88.550
8833,-0.0439,0.5620,-0.8594,0.366,0.610,0.427,146.569,2.708,-88.550
8843,-0.0444,0.5625,-0.8589,0.610,0.488,0.366,146.580,2.703,-88.550
8853,-0.0464,0.5605,-0.8594,0.549,0.183,0.244,146.585,2.697,-88.550
8863,-0.0459,0.5625,-0.8579,0.122,-0.183,0.122,146.591,2.697,-88.550
8873,-0.0483,0.5630,-0.8579,-0.427,-0.427,0.000,146.585,2.703,-88.555
8883,-0.0498,0.5645,-0.8555,-0.732,-0.488,-0.183,146.580,2.708,-88.555
8893,-0.0498,0.5615,-0.8535,-0.793,-0.427,-0.305,146.574,2.714,-88.555
8903,-0.0488,0.5571,-0.8501,-0.610,-0.366,-0.305,146.569,2.719,-88.555
8913,-0.0498,0.5542,-0.8477,-0.427,-0.610,-0.244,146.569,2.725,-88.555
8923,-0.0542,0.5522,-0.8496,-0.305,-0.916,-0.061,146.569,2.736,-88.561
8933,-0.0532,0.5562,-0.8472,-0.305,-0.977,0.122,146.563,2.747,-88.566
8943,-0.0522,0.5576,-0.8447,-0.244,-0.854,0.305,146.563,2.752,-88.572
8953,-0.0498,0.5581,-0.8428,-0.122,-0.549,0.488,146.563,2.758,-88.583
8963,-0.0479,0.5630,-0.8438,-0.183,-0.366,0.488,146.558,2.758,-88.588
8973,-0.0483,0.5664,-0.8438,-0.122,-0.061,0.366,146.552,2.752,-88.588
8983,-0.0464,0.5684,-0.8457,0.122,0.183,0.305,146.547,2.752,-88.594
8993,-0.0483,0.5664,-0.8477,0.366,0.549,0.183,146.547,2.741,-88.588
9003,-0.0498,0.5654,-0.8472,0.549,0.732,0.000,146.552,2.736,-88.588
9013,-0.0498,0.5645,-0.8501,0.488,0.793,-0.122,146.552,2.736,-88.583
9023,-0.0474,0.5645,-0.8501,0.244,0.671,-0.122,146.558,2.725,-88.577
9033,-0.0479,0.5659,-0.8481,-0.061,0.488,-0.183,146.552,2.725,-88.572
9043,-0.0522,0.5679,-0.8511,-0.183,0.366,-0.244,146.547,2.725,-88.566
9053,-0.0537,0.5649,-0.8516,-0.061,0.427,-0.366,146.547,2.725,-88.561
9063,-0.0493,0.5635,-0.8540,0.061,0.610,-0.366,146.547,2.725,-88.555
9073,-0.0464,0.5625,-0.8540,0.183,0.671,-0.366,146.552,2.719,-88.550
9083,-0.0449,0.5581,-0.8516,0.244,0.488,-0.488,146.558,2.714,-88.544
9093,-0.0439,0.5571,-0.8506,0.183,0.183,-0.549,146.558,2.714,-88.539
9103,-0.0449,0.5547,-0.8496,0.122,-0.061,-0.488,146.563,2.714,-88.533
9113,-0.0469,0.5527,-0.8477,0.122,-0.122,-0.427,146.569,2.719,-88.528
9123,-0.0483,0.5493,-0.8462,0.305,0.000,-0.366,146.574,2.719,-88.528
9133,-0.0483,0.5483,-0.8462,0.488,0.427,-0.183,146.585,2.719,-88.522
9144,-0.0479,0.5474,-0.8496,0.610,0.916,0.000,146.596,2.708,-88.517
9153,-0.0493,0.5503,-0.8516,0.671,1.221,0.244,146.613,2.697,-88.511
9163,-0.0479,0.5547,-0.8550,0.488,1.282,0.427,146.618,2.686,-88.511
9173,-0.0479,0.5586,-0.8594,0.610,1.099,0.549,146.629,2.675,-88.511
9183,-0.0503,0.5586,-0.8623,0.793,0.732,0.610,146.640,2.664,-88.511
9193,-0.0503,0.5601,-0.8647,0.854,0.305,0.610,146.656,2.659,-88.511
9203,-0.0474,0.5630,-0.8599,0.610,-0.061,0.549,146.662,2.659,-88.517
9213,-0.0508,0.5625,-0.8550,0.244,-0.610,0.427,146.662,2.664,-88.528
9223,-0.0513,0.5586,-0.8550,-0.122,-1.099,0.305,146.662,2.675,-88.528
9233,-0.0532,0.5601,-0.8550,-0.427,-1.343,0.183,146.662,2.686,-88.528
9243,-0.0552,0.5635,-0.8501,-0.793,-1.282,0.183,146.651,2.697,-88.528
9253,-0.0542,0.5649,-0.8457,-0.854,-1.221,0.366,146.635,2.714,-88.528
9263,-0.0532,0.5649,-0.8413,-0.671,-1.038,0.488,146.624,2.719,-88.528
9273,-0.0527,0.5625,-0.8403,-0.366,-0.916,0.488,146.618,2.730,-88.528
9283,-0.0547,0.5640,-0.8379,0.000,-0.671,0.366,146.613,2.736,-88.528
9293,-0.0557,0.5664,-0.8418,0.427,-0.122,0.305,146.607,2.736,-88.528
9303,-0.0557,0.5654,-0.8433,0.671,0.366,0.244,146.613,2.736,-88.528
9313,-0.0537,0.5659,-0.8442,0.549,0.854,0.122,146.613,2.730,-88.528
9323,-0.0527,0.5640,-0.8496,0.305,1.038,-0.122,146.613,2.725,-88.528
9333,-0.0518,0.5640,-0.8496,0.122,0.854,-0.244,146.613,2.725,-88.528
9343,-0.0522,0.5635,-0.8486,-0.061,0.427,-0.305,146.613,2.725,-88.528
9353,-0.0513,0.5630,-0.8516,-0.061,0.122,-0.183,146.607,2.725,-88.528
9363,-0.0513,0.5645,-0.8555,-0.183,0.061,-0.122,146.607,2.725,-88.528
9373,-0.0518,0.5654,-0.8530,-0.305,0.122,-0.305,146.602,2.730,-88.528
9383,-0.0508,0.5669,-0.8535,-0.366,0.244,-0.366,146.596,2.730,-88.528
9393,-0.0508,0.5654,-0.8540,-0.427,0.305,-0.549,146.591,2.730,-88.528
9403,-0.0493,0.5654,-0.8501,-0.488,0.061,-0.671,146.585,2.736,-88.528
9413,-0.0498,0.5659,-0.8516,-0.549,-0.427,-0.732,146.580,2.741,-88.528
9423,-0.0508,0.5654,-0.8511,-0.549,-0.793,-0.854,146.569,2.758,-88.528
9433,-0.0527,0.5625,-0.8496,-0.549,-1.038,-0.977,146.563,2.769,-88.528
9443,-0.0542,0.5591,-0.8457,-0.610,-0.977,-1.038,146.558,2.785,-88.522
9453,-0.0513,0.5576,-0.8438,-0.854,-0.732,-1.038,146.552,2.802,-88.517
9464,-0.0532,0.5571,-0.8438,-0.977,-0.427,-0.977,146.541,2.813,-88.511
9474,-0.0527,0.5576,-0.8418,-0.732,-0.122,-0.854,146.536,2.818,-88.506
9484,-0.0518,0.5596,-0.8418,-0.427,0.061,-0.793,146.530,2.823,-88.500
9494,-0.0479,0.5615,-0.8481,0.061,0.244,-0.793,146.530,2.823,-88.489
9504,-0.0479,0.5596,-0.8506,0.366,0.427,-0.793,146.536,2.823,-88.484
9514,-0.0464,0.5596,-0.8535,0.488,0.488,-0.732,146.541,2.823,-88.473
9524,-0.0488,0.5566,-0.8550,0.183,0.488,-0.610,146.547,2.818,-88.462
9534,-0.0483,0.5557,-0.8516,-0.122,0.366,-0.488,146.552,2.818,-88.456
9544,-0.0513,0.5557,-0.8545,-0.244,0.305,-0.427,146.552,2.818,-88.451
9554,-0.0522,0.5562,-0.8530,-0.305,0.244,-0.305,146.552,2.818,-88.451
9564,-0.0513,0.5542,-0.8545,-0.305,0.244,-0.244,146.552,2.818,-88.445
9574,-0.0522,0.5562,-0.8540,-0.244,-0.061,-0.061,146.558,2.823,-88.445
9584,-0.0532,0.5576,-0.8530,-0.183,-0.366,0.061,146.558,2.829,-88.451
9594,-0.0518,0.5571,-0.8530,-0.061,-0.610,0.122,146.558,2.829,-88.451
9604,-0.0522,0.5591,-0.8496,0.000,-0.671,0.122,146.558,2.840,-88.456
9614,-0.0503,0.5596,-0.8452,0.061,-0.610,0.183,146.558,2.840,-88.462
9624,-0.0498,0.5596,-0.8452,0.122,-0.305,0.122,146.558,2.845,-88.467
9634,-0.0518,0.5601,-0.8428,0.122,-0.061,0.183,146.558,2.845,-88.467
9644,-0.0522,0.5635,-0.8423,0.183,0.183,0.122,146.558,2.840,-88.467
9654,-0.0522,0.5649,-0.8447,0.183,0.488,0.000,146.558,2.840,-88.462
9664,-0.0518,0.5640,-0.8472,0.244,0.854,-0.122,146.558,2.834,-88.456
9674,-0.0518,0.5620,-0.8496,0.183,1.160,-0.183,146.558,2.823,-88.451
9684,-0.0508,0.5625,-0.8521,0.122,1.282,-0.305,146.558,2.818,-88.440
9694,-0.0493,0.5645,-0.8530,0.000,1.038,-0.366,146.558,2.813,-88.434
9704,-0.0493,0.5640,-0.8530,-0.061,0.549,-0.366,146.558,2.807,-88.423
9714,-0.0488,0.5630,-0.8535,-0.122,0.183,-0.366,146.558,2.807,-88.423
9724,-0.0508,0.5635,-0.8560,-0.244,-0.061,-0.366,146.558,2.807,-88.418
9734,-0.0537,0.5635,-0.8516,-0.305,0.000,-0.427,146.552,2.813,-88.418
9744,-0.0513,0.5630,-0.8530,-0.305,0.122,-0.610,146.552,2.818,-88.412
9754,-0.0508,0.5645,-0.8545,-0.183,0.244,-0.793,146.552,2.818,-88.401
9764,-0.0508,0.5635,-0.8540,-0.183,0.244,-0.977,146.547,2.823,-88.391
9774,-0.0493,0.5605,-0.8525,0.000,0.061,-1.099,146.552,2.829,-88.385
9784,-0.0503,0.5591,-0.8511,0.061,-0.183,-1.160,146.552,2.834,-88.374
9794,-0.0522,0.5586,-0.8496,0.183,-0.244,-1.099,146.558,2.845,-88.369
9804,-0.0518,0.5557,-0.8525,0.244,-0.122,-0.916,146.563,2.851,-88.358
9814,-0.0518,0.5557,-0.8481,0.183,0.183,-0.854,146.569,2.856,-88.352
9824,-0.0503,0.5547,-0.8506,0.122,0.366,-0.671,146.569,2.856,-88.341
9834,-0.0503,0.5552,-0.8516,0.122,0.366,-0.549,146.574,2.856,-88.336
9844,-0.0498,0.5562,-0.8525,0.244,0.122,-0.488,146.580,2.856,-88.330
9854,-0.0508,0.5566,-0.8516,0.366,0.000,-0.427,146.591,2.856,-88.330
9864,-0.0527,0.5581,-0.8511,0.366,-0.244,-0.366,146.591,2.862,-88.325
9874,-0.0503,0.5576,-0.8525,0.366,-0.244,-0.244,146.602,2.867,-88.325
9884,-0.0513,0.5576,-0.8516,0.244,-0.183,-0.244,146.602,2.867,-88.325
9894,-0.0513,0.5571,-0.8496,0.061,0.000,-0.244,146.607,2.873,-88.325
9904,-0.0498,0.5562,-0.8462,-0.122,0.061,-0.183,146.607,2.873,-88.319
9918,-0.0503,0.5547,-0.8462,-0.061,0.000,-0.122,146.607,2.873,-88.319
9924,-0.0537,0.5562,-0.8467,0.122,-0.122,0.000,146.607,2.873,-88.319
9934,-0.0532,0.5576,-0.8486,0.427,-0.183,0.061,146.613,2.878,-88.325
9944,-0.0547,0.5596,-0.8491,0.549,-0.061,0.061,146.618,2.878,-88.325
9954,-0.0547,0.5576,-0.8501,0.488,0.183,0.000,146.624,2.878,-88.325
9964,-0.0562,0.5601,-0.8521,0.183,0.244,-0.061,146.629,2.878,-88.319
9974,-0.0537,0.5596,-0.8525,-0.122,0.244,-0.061,146.629,2.878,-88.319
9984,-0.0532,0.5605,-0.8555,-0.366,0.244,-0.122,146.624,2.878,-88.314
9994,-0.0532,0.5610,-0.8516,-0.488,0.244,-0.122,146.618,2.878,-88.314
10004,-0.0527,0.5610,-0.8540,-0.488,0.183,-0.122,146.618,2.878,-88.314
10014,-0.0518,0.5596,-0.8491,-0.427,0.000,-0.183,146.613,2.878,-88.308
10024,-0.0562,0.5591,-0.8491,-0.183,-0.061,-0.305,146.613,2.884,-88.308
10034,-0.0542,0.5591,-0.8516,-0.061,0.000,-0.244,146.613,2.889,-88.308
10044,-0.0542,0.5596,-0.8486,-0.061,0.183,-0.183,146.613,2.889,-88.303
10054,-0.0503,0.5591,-0.8472,-0.183,0.305,-0.122,146.607,2.889,-88.303
10064,-0.0498,0.5625,-0.8496,-0.244,0.305,-0.183,146.607,2.884,-88.297
10074,-0.0503,0.5645,-0.8501,-0.122,0.183,-0.183,146.602,2.884,-88.297
10084,-0.0513,0.5654,-0.8506,-0.061,0.122,-0.305,146.602,2.884,-88.292
10094,-0.0498,0.5654,-0.8521,-0.244,0.244,-0.427,146.596,2.884,-88.286
10104,-0.0532,0.5654,-0.8521,-0.427,0.244,-0.549,146.591,2.884,-88.281
10114,-0.0601,0.5645,-0.8506,-0.427,0.305,-0.610,146.585,2.889,-88.275
10124,-0.0571,0.5620,-0.8477,-0.244,0.427,-0.610,146.580,2.895,-88.264
10134,-0.0537,0.5586,-0.8496,-0.122,0.244,-0.549,146.580,2.895,-88.259
10144,-0.0542,0.5586,-0.8486,-0.061,0.122,-0.366,146.580,2.900,-88.259
10154,-0.0542,0.5591,-0.8516,-0.061,-0.122,-0.305,146.580,2.900,-88.253
10164,-0.0503,0.5625,-0.8530,0.000,-0.305,-0.427,146.580,2.906,-88.253
10174,-0.0483,0.5630,-0.8506,0.122,-0.488,-0.549,146.585,2.911,-88.253
10184,-0.0498,0.5630,-0.8516,0.061,-0.671,-0.732,146.585,2.922,-88.248
10194,-0.0508,0.5630,-0.8521,-0.061,-0.671,-0.732,146.580,2.928,-88.248
10204,-0.0527,0.5596,-0.8501,-0.244,-0.488,-0.793,146.580,2.939,-88.242
10214,-0.0542,0.5581,-0.8481,-0.488,-0.244,-0.793,146.574,2.944,-88.237
10224,-0.0552,0.5586,-0.8496,-0.610,0.061,-0.671,146.574,2.950,-88.231
10234,-0.0547,0.5562,-0.8506,-0.488,0.244,-0.549,146.569,2.950,-88.226
10244,-0.0532,0.5557,-0.8486,-0.183,0.183,-0.366,146.569,2.955,-88.220
10254,-0.0518,0.5532,-0.8506,0.244,0.000,-0.244,146.574,2.955,-88.220
10264,-0.0542,0.5518,-0.8511,0.366,-0.244,-0.061,146.585,2.955,-88.220
10274,-0.0537,0.5518,-0.8501,0.305,-0.305,0.122,146.591,2.961,-88.220
10284,-0.0527,0.5537,-0.8462,0.244,-0.305,0.305,146.596,2.961,-88.226
10294,-0.0522,0.5532,-0.8467,0.244,0.000,0.610,146.602,2.955,-88.231
10304,-0.0542,0.5542,-0.8442,0.305,0.366,0.671,146.607,2.950,-88.237
10314,-0.0552,0.5586,-0.8428,0.427,0.793,0.732,146.607,2.944,-88.237
10324,-0.0518,0.5605,-0.8462,0.671,0.977,0.732,146.613,2.933,-88.237
10334,-0.0527,0.5640,-0.8472,0.732,0.916,0.610,146.618,2.922,-88.237
10344,-0.0532,0.5625,-0.8496,0.793,0.732,0.488,146.624,2.911,-88.237
10354,-0.0542,0.5630,-0.8535,0.671,0.671,0.366,146.629,2.906,-88.237
10364,-0.0527,0.5654,-0.8540,0.366,0.732,0.305,146.635,2.900,-88.237
10374,-0.0532,0.5684,-0.8530,0.183,0.854,0.244,146.629,2.889,-88.231
10384,-0.0522,0.5674,-0.8530,0.183,0.793,0.183,146.629,2.884,-88.231
10394,-0.0518,0.5674,-0.8525,0.305,0.610,0.000,146.629,2.878,-88.226
10404,-0.0542,0.5654,-0.8516,0.488,0.488,-0.122,146.635,2.878,-88.226
10414,-0.0527,0.5640,-0.8525,0.610,0.488,-0.305,146.640,2.873,-88.220
10424,-0.0522,0.5625,-0.8516,0.549,0.671,-0.427,146.646,2.873,-88.209
10434,-0.0513,0.5615,-0.8516,0.366,0.610,-0.549,146.646,2.873,-88.204
10444,-0.0518,0.5581,-0.8530,0.183,0.488,-0.610,146.651,2.867,-88.193
10454,-0.0527,0.5566,-0.8545,0.000,0.305,-0.671,146.656,2.873,-88.187
10464,-0.0518,0.5566,-0.8525,-0.122,0.244,-0.671,146.656,2.873,-88.182
10474,-0.0508,0.5562,-0.8521,0.000,0.122,-0.610,146.656,2.878,-88.176
10484,-0.0513,0.5557,-0.8540,0.000,0.000,-0.549,146.662,2.878,-88.171
10494,-0.0508,0.5562,-0.8550,-0.061,-0.122,-0.488,146.662,2.884,-88.165
10504,-0.0479,0.5566,-0.8525,-0.183,-0.183,-0.427,146.662,2.884,-88.165
10514,-0.0483,0.5576,-0.8516,-0.183,-0.305,-0.305,146.662,2.889,-88.165
10524,-0.0479,0.5566,-0.8521,-0.183,-0.427,-0.244,146.662,2.889,-88.165
10534,-0.0498,0.5562,-0.8516,-0.122,-0.427,-0.183,146.662,2.895,-88.165
10544,-0.0518,0.5557,-0.8511,-0.183,-0.366,-0.122,146.662,2.895,-88.165
10554,-0.0518,0.5581,-0.8525,-0.305,-0.244,-0.061,146.662,2.900,-88.165
10564,-0.0508,0.5591,-0.8501,-0.366,-0.183,-0.061,146.656,2.900,-88.165
10574,-0.0527,0.5601,-0.8491,-0.427,-0.244,-0.183,146.651,2.906,-88.165
10584,-0.0581,0.5601,-0.8521,-0.366,-0.244,-0.244,146.651,2.911,-88.165
10594,-0.0586,0.5591,-0.8516,-0.305,-0.122,-0.244,146.646,2.917,-88.165
10604,-0.0557,0.5586,-0.8491,-0.183,-0.061,-0.183,146.646,2.922,-88.165
10614,-0.0542,0.5601,-0.8516,-0.122,-0.183,-0.061,146.646,2.922,-88.165
10624,-0.0557,0.5581,-0.8501,0.000,-0.244,-0.061,146.646,2.928,-88.165
10634,-0.0547,0.5610,-0.8506,-0.061,-0.305,-0.061,146.646,2.933,-88.165
10645,-0.0557,0.5625,-0.8447,-0.183,-0.427,-0.061,146.640,2.939,-88.171
10654,-0.0566,0.5610,-0.8472,-0.122,-0.549,-0.122,146.635,2.944,-88.171
10664,-0.0566,0.5615,-0.8486,-0.122,-0.488,-0.305,146.635,2.955,-88.171
10674,-0.0557,0.5640,-0.8472,-0.183,-0.305,-0.427,146.629,2.961,-88.171
10684,-0.0532,0.5630,-0.8452,-0.244,-0.061,-0.488,146.624,2.966,-88.165
10694,-0.0498,0.5625,-0.8477,-0.183,0.061,-0.549,146.618,2.966,-88.160
10704,-0.0522,0.5596,-0.8467,-0.061,0.061,-0.488,146.618,2.966,-88.154
10714,-0.0542,0.5625,-0.8491,0.122,0.122,-0.610,146.618,2.972,-88.149
10724,-0.0562,0.5601,-0.8506,0.244,0.183,-0.671,146.624,2.977,-88.143
10734,-0.0562,0.5581,-0.8521,0.183,0.122,-0.793,146.624,2.977,-88.138
10744,-0.0576,0.5547,-0.8506,0.122,0.122,-0.732,146.629,2.988,-88.127
10754,-0.0566,0.5576,-0.8535,-0.061,0.122,-0.610,146.635,2.988,-88.121
10764,-0.0552,0.5591,-0.8525,-0.366,0.183,-0.427,146.629,2.994,-88.121
10774,-0.0527,0.5620,-0.8525,-0.549,0.122,-0.366,146.624,2.994,-88.116
10784,-0.0513,0.5610,-0.8525,-0.427,0.061,-0.366,146.618,2.994,-88.110
10794,-0.0532,0.5591,-0.8501,-0.183,-0.061,-0.427,146.618,2.994,-88.110
10804,-0.0596,0.5610,-0.8477,-0.122,0.122,-0.488,146.618,2.999,-88.110
10814,-0.0571,0.5581,-0.8506,-0.061,0.488,-0.671,146.618,3.005,-88.110
10824,-0.0557,0.5596,-0.8511,-0.122,0.610,-0.854,146.618,3.005,-88.110
10834,-0.0552,0.5591,-0.8535,-0.183,0.549,-0.977,146.618,3.005,-88.110
10844,-0.0527,0.5610,-0.8550,-0.244,0.427,-1.038,146.618,3.005,-88.099
10854,-0.0503,0.5630,-0.8555,-0.244,0.244,-0.977,146.618,3.010,-88.088
10864,-0.0493,0.5674,-0.8564,-0.122,0.061,-1.038,146.613,3.010,-88.083
10874,-0.0508,0.5649,-0.8604,0.366,0.000,-1.160,146.618,3.016,-88.072
10884,-0.0527,0.5635,-0.8589,0.793,0.000,-1.221,146.629,3.021,-88.061
10894,-0.0532,0.5586,-0.8535,0.854,-0.122,-1.282,146.640,3.027,-88.050
10904,-0.0542,0.5566,-0.8516,0.488,-0.427,-1.404,146.646,3.038,-88.044
10914,-0.0581,0.5552,-0.8540,-0.061,-0.732,-1.526,146.651,3.054,-88.033
10924,-0.0586,0.5537,-0.8525,-0.732,-0.671,-1.526,146.646,3.071,-88.022
10934,-0.0537,0.5630,-0.8481,-1.770,-0.793,-1.282,146.624,3.087,-88.017
10944,-0.0576,0.5605,-0.8467,-1.526,-0.732,-1.465,146.613,3.104,-88.011
10954,-0.0601,0.5576,-0.8433,-0.793,-0.549,-1.404,146.602,3.115,-88.000
10964,-0.0625,0.5571,-0.8413,-0.183,-0.244,-1.221,146.602,3.131,-87.995
10974,-0.0601,0.5542,-0.8408,0.427,0.000,-1.099,146.602,3.137,-87.984
10984,-0.0605,0.5498,-0.8394,0.427,0.061,-0.977,146.613,3.148,-87.973
10994,-0.0605,0.5498,-0.8452,-0.061,0.061,-0.916,146.613,3.153,-87.968
11004,-0.0596,0.5518,-0.8428,-0.732,0.244,-0.854,146.607,3.159,-87.957
11014,-0.0581,0.5552,-0.8428,-0.977,0.488,-0.732,146.602,3.159,-87.951
11024,-0.0605,0.5562,-0.8467,-0.610,0.793,-0.610,146.596,3.159,-87.940
11034,-0.0591,0.5562,-0.8491,-0.061,1.038,-0.488,146.596,3.153,-87.929
11044,-0.0557,0.5557,-0.8477,0.549,1.282,-0.366,146.607,3.148,-87.918
11054,-0.0542,0.5547,-0.8521,0.610,1.282,-0.244,146.613,3.137,-87.913
11064,-0.0542,0.5571,-0.8525,0.305,1.038,-0.183,146.618,3.126,-87.902
11074,-0.0557,0.5576,-0.8550,-0.061,0.793,-0.061,146.624,3.120,-87.902
11084,-0.0542,0.5605,-0.8535,-0.549,0.610,0.061,146.618,3.115,-87.896
11094,-0.0547,0.5615,-0.8516,-0.671,0.549,-0.061,146.613,3.109,-87.891
11104,-0.0562,0.5625,-0.8516,-0.427,0.671,-0.122,146.607,3.104,-87.891
11114,-0.0542,0.5645,-0.8535,-0.183,0.916,-0.183,146.602,3.098,-87.880
11124,-0.0508,0.5605,-0.8530,0.183,1.038,-0.183,146.607,3.087,-87.874
11134,-0.0513,0.5557,-0.8550,0.366,1.038,-0.305,146.613,3.082,-87.863
11145,-0.0513,0.5552,-0.8574,0.183,0.854,-0.366,146.624,3.071,-87.858
11154,-0.0518,0.5547,-0.8535,-0.244,0.549,-0.366,146.624,3.065,-87.852
11164,-0.0532,0.5542,-0.8535,-0.366,0.244,-0.366,146.624,3.065,-87.847
11174,-0.0547,0.5527,-0.8589,-0.366,0.183,-0.305,146.624,3.065,-87.847
11184,-0.0552,0.5532,-0.8560,-0.122,0.427,-0.122,146.629,3.065,-87.841
11194,-0.0518,0.5508,-0.8564,0.122,0.732,0.061,146.640,3.054,-87.836
11204,-0.0498,0.5498,-0.8555,0.366,0.610,0.427,146.646,3.049,-87.836
11214,-0.0493,0.5483,-0.8545,0.366,0.244,0.610,146.656,3.038,-87.841
11224,-0.0527,0.5454,-0.8545,0.122,-0.122,0.793,146.667,3.032,-87.847
11234,-0.0552,0.5483,-0.8496,-0.244,-0.244,1.099,146.667,3.032,-87.858
11244,-0.0527,0.5493,-0.8511,-0.183,-0.183,1.282,146.673,3.027,-87.869
11254,-0.0542,0.5532,-0.8521,-0.061,-0.061,1.404,146.673,3.021,-87.885
11264,-0.0537,0.5562,-0.8486,0.000,0.061,1.465,146.673,3.010,-87.896
11274,-0.0542,0.5596,-0.8506,0.000,0.061,1.465,146.673,3.005,-87.907
11284,-0.0562,0.5596,-0.8521,0.000,0.000,1.343,146.673,2.994,-87.918
11294,-0.0586,0.5610,-0.8521,-0.122,-0.061,1.282,146.667,2.994,-87.929
11304,-0.0566,0.5649,-0.8540,-0.183,-0.061,1.221,146.667,2.988,-87.940
11314,-0.0581,0.5640,-0.8535,-0.061,-0.061,1.282,146.662,2.983,-87.951
11324,-0.0571,0.5654,-0.8540,0.061,0.000,1.282,146.662,2.977,-87.962
11334,-0.0576,0.5664,-0.8511,0.000,-0.122,1.221,146.656,2.977,-87.973
11344,-0.0571,0.5674,-0.8501,-0.122,-0.366,1.160,146.651,2.977,-87.984
11354,-0.0586,0.5654,-0.8481,-0.244,-0.549,1.038,146.646,2.977,-87.995
11364,-0.0591,0.5684,-0.8452,-0.427,-0.488,0.854,146.635,2.983,-88.006
11374,-0.0581,0.5708,-0.8442,-0.610,-0.305,0.671,146.624,2.983,-88.011
11384,-0.0547,0.5698,-0.8442,-0.549,-0.183,0.427,146.613,2.983,-88.017
11394,-0.0557,0.5674,-0.8433,-0.305,0.000,0.244,146.602,2.983,-88.017
11404,-0.0557,0.5669,-0.8438,-0.122,0.183,0.122,146.596,2.983,-88.017
11414,-0.0562,0.5645,-0.8447,0.061,0.549,0.122,146.591,2.977,-88.017
11424,-0.0581,0.5645,-0.8452,0.183,0.854,0.000,146.591,2.972,-88.011
11434,-0.0576,0.5654,-0.8462,0.000,1.099,-0.061,146.591,2.966,-88.006
11444,-0.0552,0.5625,-0.8491,-0.061,1.099,-0.061,146.585,2.961,-88.000
11454,-0.0542,0.5615,-0.8486,-0.122,0.977,-0.061,146.585,2.955,-87.995
11464,-0.0527,0.5630,-0.8501,-0.305,0.732,-0.183,146.580,2.950,-87.990
11474,-0.0527,0.5620,-0.8516,-0.366,0.549,-0.244,146.580,2.944,-87.984
11484,-0.0542,0.5610,-0.8501,-0.244,0.305,-0.244,146.574,2.944,-87.979
11494,-0.0562,0.5576,-0.8486,-0.122,0.305,-0.305,146.574,2.944,-87.973
11504,-0.0562,0.5586,-0.8496,-0.244,0.610,-0.244,146.574,2.944,-87.968
11514,-0.0513,0.5615,-0.8501,-0.427,0.732,-0.122,146.569,2.939,-87.962
11524,-0.0503,0.5620,-0.8486,-0.244,0.854,-0.061,146.569,2.933,-87.957
11534,-0.0508,0.5571,-0.8525,0.000,0.854,-0.183,146.569,2.922,-87.951
11544,-0.0513,0.5566,-0.8545,0.000,0.916,-0.244,146.574,2.917,-87.946
11554,-0.0483,0.5562,-0.8569,0.061,1.038,-0.061,146.580,2.906,-87.940
11564,-0.0479,0.5527,-0.8555,0.244,1.160,0.183,146.585,2.895,-87.935
11574,-0.0498,0.5518,-0.8550,0.366,1.038,0.427,146.596,2.884,-87.935
11584,-0.0498,0.5547,-0.8555,0.305,0.916,0.549,146.607,2.873,-87.935
11594,-0.0518,0.5566,-0.8535,0.244,0.732,0.671,146.607,2.862,-87.935
11604,-0.0522,0.5571,-0.8564,0.427,0.610,0.732,146.618,2.851,-87.935
11614,-0.0513,0.5586,-0.8579,0.305,0.610,0.610,146.624,2.845,-87.940
11624,-0.0493,0.5601,-0.8569,-0.122,0.427,0.427,146.624,2.840,-87.940
11634,-0.0483,0.5620,-0.8589,-0.427,0.000,0.305,146.624,2.834,-87.940
11645,-0.0464,0.5649,-0.8589,-0.610,-0.549,0.366,146.618,2.834,-87.946
11654,-0.0503,0.5669,-0.8550,-0.549,-0.854,0.305,146.607,2.840,-87.957
11664,-0.0513,0.5679,-0.8540,-0.366,-0.916,0.244,146.602,2.845,-87.962
11674,-0.0498,0.5664,-0.8496,-0.183,-0.916,0.061,146.596,2.851,-87.968
11684,-0.0503,0.5645,-0.8477,0.000,-0.977,-0.061,146.596,2.862,-87.973
11694,-0.0532,0.5635,-0.8481,-0.183,-1.038,-0.183,146.591,2.873,-87.979
11704,-0.0537,0.5659,-0.8491,-0.549,-0.916,-0.244,146.580,2.884,-87.979
11714,-0.0537,0.5664,-0.8462,-0.732,-0.671,-0.366,146.569,2.889,-87.979
11724,-0.0532,0.5659,-0.8433,-0.549,-0.488,-0.427,146.563,2.900,-87.979
11734,-0.0522,0.5649,-0.8438,-0.183,-0.427,-0.488,146.558,2.906,-87.979
11744,-0.0527,0.5654,-0.8428,0.305,-0.305,-0.549,146.552,2.911,-87.973
11754,-0.0522,0.5635,-0.8418,0.549,-0.122,-0.549,146.558,2.917,-87.973
11764,-0.0537,0.5630,-0.8428,0.366,0.000,-0.671,146.558,2.922,-87.968
11775,-0.0591,0.5601,-0.8462,0.061,0.244,-0.732,146.558,2.928,-87.957
11785,-0.0581,0.5625,-0.8516,-0.427,0.610,-0.854,146.552,2.928,-87.946
11795,-0.0527,0.5625,-0.8511,-0.549,0.916,-0.854,146.547,2.928,-87.935
11805,-0.0483,0.5601,-0.8560,-0.244,0.916,-0.854,146.552,2.922,-87.924
11815,-0.0479,0.5591,-0.8555,0.183,0.488,-0.916,146.552,2.922,-87.913
11825,-0.0503,0.5576,-0.8569,0.427,-0.061,-0.977,146.563,2.928,-87.907
11835,-0.0522,0.5552,-0.8555,0.549,-0.427,-0.916,146.574,2.933,-87.902
11845,-0.0518,0.5518,-0.8530,0.427,-0.610,-0.854,146.585,2.944,-87.896
11855,-0.0527,0.5513,-0.8481,0.000,-0.549,-0.793,146.585,2.955,-87.891
11865,-0.0527,0.5513,-0.8496,-0.366,-0.305,-0.671,146.591,2.961,-87.891
11875,-0.0518,0.5508,-0.8521,-0.366,-0.061,-0.488,146.591,2.961,-87.885
11885,-0.0518,0.5518,-0.8501,-0.122,0.061,-0.366,146.596,2.961,-87.880
11895,-0.0532,0.5513,-0.8481,0.183,0.000,-0.122,146.602,2.966,-87.880
11905,-0.0537,0.5542,-0.8496,0.366,-0.061,0.061,146.607,2.966,-87.880
11919,-0.0542,0.5527,-0.8545,0.488,-0.122,0.183,146.613,2.966,-87.885
11925,-0.0518,0.5522,-0.8501,0.549,-0.061,0.244,146.624,2.966,-87.885
11935,-0.0537,0.5552,-0.8511,0.366,-0.061,0.305,146.629,2.966,-87.891
11945,-0.0542,0.5601,-0.8535,0.000,-0.061,0.366,146.629,2.961,-87.891
11955,-0.0522,0.5620,-0.8530,-0.061,-0.122,0.427,146.629,2.961,-87.896
11965,-0.0532,0.5610,-0.8530,0.122,-0.183,0.427,146.629,2.961,-87.902
11975,-0.0552,0.5615,-0.8516,0.366,-0.244,0.244,146.635,2.961,-87.902
11985,-0.0581,0.5645,-0.8535,0.427,-0.305,0.183,146.640,2.966,-87.907
11995,-0.0552,0.5669,-0.8545,0.244,-0.427,0.183,146.640,2.972,-87.913
12005,-0.0527,0.5664,-0.8516,0.183,-0.488,0.183,146.635,2.972,-87.918
12015,-0.0542,0.5669,-0.8506,-0.061,-0.549,0.061,146.635,2.977,-87.918
12025,-0.0552,0.5669,-0.8516,-0.427,-0.610,-0.122,146.624,2.983,-87.924
12035,-0.0552,0.5679,-0.8496,-0.427,-0.671,-0.244,146.618,2.994,-87.924
12045,-0.0527,0.5645,-0.8491,-0.183,-0.732,-0.305,146.613,2.999,-87.924
12055,-0.0557,0.5630,-0.8472,0.061,-0.732,-0.427,146.613,3.010,-87.924
12065,-0.0576,0.5610,-0.8423,0.183,-0.549,-0.610,146.613,3.021,-87.924
12075,-0.0571,0.5635,-0.8423,0.122,-0.427,-0.610,146.607,3.032,-87.918
12085,-0.0566,0.5601,-0.8428,0.244,-0.183,-0.549,146.607,3.038,-87.918
12095,-0.0542,0.5581,-0.8423,0.305,0.122,-0.488,146.613,3.038,-87.913
12105,-0.0562,0.5601,-0.8452,0.244,0.488,-0.488,146.613,3.038,-87.907
12115,-0.0571,0.5581,-0.8472,0.244,0.916,-0.488,146.613,3.032,-87.896
12125,-0.0542,0.5581,-0.8486,0.366,1.343,-0.366,146.618,3.027,-87.885
12135,-0.0518,0.5566,-0.8501,0.488,1.404,-0.366,146.624,3.016,-87.874
12145,-0.0552,0.5542,-0.8530,0.610,1.221,-0.366,146.635,3.010,-87.863
12155,-0.0586,0.5493,-0.8525,0.610,0.916,-0.366,146.651,3.005,-87.858
12165,-0.0562,0.5479,-0.8521,0.366,0.793,-0.244,146.656,2.999,-87.852
12175,-0.0527,0.5537,-0.8535,0.122,0.549,0.000,146.662,2.999,-87.847
12185,-0.0503,0.5576,-0.8525,0.183,0.427,0.244,146.667,2.988,-87.847
12195,-0.0513,0.5605,-0.8545,0.427,0.366,0.305,146.673,2.983,-87.847
12205,-0.0483,0.5625,-0.8564,0.671,0.427,0.183,146.678,2.977,-87.847
12215,-0.0493,0.5635,-0.8569,0.854,0.488,0.122,146.689,2.972,-87.847
12225,-0.0518,0.5601,-0.8594,0.793,0.427,0.061,146.695,2.966,-87.841
12235,-0.0518,0.5576,-0.8604,0.610,0.305,-0.061,146.706,2.961,-87.841
12245,-0.0503,0.5576,-0.8584,0.122,0.000,-0.183,146.711,2.961,-87.841
12255,-0.0513,0.5562,-0.8564,-0.183,-0.427,-0.244,146.711,2.966,-87.841
12265,-0.0532,0.5542,-0.8545,-0.305,-0.732,-0.122,146.711,2.972,-87.841
12275,-0.0542,0.5557,-0.8530,-0.305,-0.854,0.000,146.711,2.983,-87.847
12285,-0.0571,0.5586,-0.8481,-0.183,-0.732,0.183,146.706,2.988,-87.852
12295,-0.0557,0.5566,-0.8462,0.061,-0.610,0.366,146.706,2.994,-87.858
12305,-0.0537,0.5571,-0.8423,0.366,-0.549,0.427,146.711,2.994,-87.869
12315,-0.0557,0.5591,-0.8438,0.427,-0.488,0.305,146.711,2.999,-87.874
12325,-0.0581,0.5596,-0.8452,0.305,-0.061,0.244,146.711,2.999,-87.874
12335,-0.0586,0.5566,-0.8472,-0.061,0.488,0.122,146.711,2.999,-87.874
12345,-0.0581,0.5581,-0.8491,-0.305,0.854,0.183,146.706,2.994,-87.869
12355,-0.0557,0.5596,-0.8481,-0.366,0.916,0.183,146.700,2.988,-87.869
12365,-0.0542,0.5615,-0.8501,-0.305,0.610,0.183,146.700,2.983,-87.869
12375,-0.0571,0.5640,-0.8481,-0.061,0.305,0.183,146.695,2.983,-87.869
12385,-0.0566,0.5649,-0.8496,0.122,0.061,0.183,146.695,2.983,-87.869
12395,-0.0571,0.5645,-0.8521,0.244,0.122,0.122,146.695,2.983,-87.869
12405,-0.0566,0.5649,-0.8555,0.122,0.366,-0.061,146.695,2.983,-87.869
12415,-0.0542,0.5645,-0.8550,-0.183,0.549,-0.183,146.689,2.977,-87.869
12425,-0.0522,0.5659,-0.8511,-0.366,0.366,-0.305,146.684,2.977,-87.869
12435,-0.0527,0.5659,-0.8511,-0.366,0.061,-0.366,146.678,2.977,-87.869
12445,-0.0522,0.5669,-0.8525,-0.122,-0.244,-0.427,146.673,2.983,-87.869
12455,-0.0522,0.5659,-0.8525,0.122,-0.427,-0.488,146.673,2.988,-87.869
12465,-0.0483,0.5630,-0.8491,0.366,-0.366,-0.610,146.673,2.988,-87.869
12475,-0.0498,0.5596,-0.8491,0.427,-0.061,-0.732,146.678,2.994,-87.869
12485,-0.0518,0.5571,-0.8521,0.183,0.183,-0.854,146.678,2.994,-87.869
12495,-0.0532,0.5537,-0.8481,-0.244,0.427,-0.916,146.678,2.994,-87.869
12505,-0.0537,0.5532,-0.8481,-0.488,0.427,-0.793,146.678,2.999,-87.869
12515,-0.0537,0.5503,-0.8472,-0.427,0.305,-0.732,146.678,2.999,-87.869
12525,-0.0547,0.5474,-0.8521,-0.122,0.244,-0.488,146.684,2.999,-87.869
12535,-0.0522,0.5469,-0.8540,0.305,0.549,-0.305,146.695,2.999,-87.869
12545,-0.0532,0.5469,-0.8560,0.610,0.671,0.122,146.706,2.988,-87.869
12555,-0.0522,0.5488,-0.8535,0.793,0.610,0.488,146.717,2.983,-87.869
12565,-0.0503,0.5513,-0.8564,0.793,0.305,0.671,146.733,2.977,-87.869
12575,-0.0508,0.5537,-0.8604,0.488,-0.061,0.671,146.744,2.972,-87.869
12585,-0.0508,0.5576,-0.8613,0.122,-0.183,0.610,146.744,2.966,-87.869
12595,-0.0493,0.5601,-0.8608,-0.183,-0.244,0.549,146.744,2.966,-87.869
12605,-0.0474,0.5596,-0.8560,-0.183,-0.427,0.366,146.744,2.961,-87.869
12615,-0.0488,0.5586,-0.8535,0.000,-0.610,0.305,146.744,2.966,-87.869
12625,-0.0542,0.5557,-0.8535,0.122,-0.854,0.244,146.750,2.972,-87.869
12635,-0.0586,0.5542,-0.8477,0.244,-0.793,0.366,146.750,2.977,-87.869
12645,-0.0601,0.5547,-0.8486,0.122,-0.488,0.427,146.750,2.983,-87.869
12655,-0.0601,0.5542,-0.8486,0.183,-0.244,0.427,146.755,2.988,-87.869
12665,-0.0605,0.5527,-0.8467,0.305,-0.183,0.488,146.761,2.994,-87.869
12675,-0.0605,0.5562,-0.8472,0.366,-0.183,0.549,146.761,2.994,-87.869
12685,-0.0586,0.5532,-0.8496,0.488,-0.061,0.610,146.766,2.994,-87.869
12695,-0.0557,0.5566,-0.8442,0.427,0.000,0.854,146.772,2.994,-87.869
12705,-0.0522,0.5601,-0.8447,0.488,0.000,0.916,146.772,2.988,-87.869
12715,-0.0522,0.5591,-0.8491,0.610,0.122,0.854,146.777,2.977,-87.869
12725,-0.0542,0.5620,-0.8511,0.549,0.427,0.793,146.777,2.972,-87.869
12735,-0.0552,0.5640,-0.8530,0.427,0.671,0.671,146.777,2.966,-87.869
12745,-0.0537,0.5635,-0.8545,0.305,0.732,0.488,146.783,2.955,-87.869
12755,-0.0542,0.5640,-0.8564,0.061,0.549,0.305,146.783,2.950,-87.869
12765,-0.0557,0.5630,-0.8564,-0.122,0.183,0.183,146.777,2.950,-87.869
12775,-0.0547,0.5640,-0.8560,-0.122,-0.061,0.061,146.777,2.950,-87.869
12785,-0.0552,0.5615,-0.8579,-0.061,-0.305,-0.122,146.772,2.955,-87.869
12795,-0.0566,0.5615,-0.8569,-0.122,-0.549,-0.244,146.772,2.961,-87.869
12805,-0.0586,0.5615,-0.8545,-0.305,-0.732,-0.244,146.772,2.972,-87.869
12815,-0.0562,0.5620,-0.8511,-0.488,-0.793,-0.305,146.761,2.983,-87.869
12825,-0.0576,0.5610,-0.8433,-0.610,-0.854,-0.366,146.750,2.994,-87.869
12835,-0.0566,0.5571,-0.8413,-0.549,-0.916,-0.549,146.744,3.010,-87.869
12845,-0.0547,0.5576,-0.8433,-0.427,-0.732,-0.549,146.739,3.016,-87.869
12855,-0.0547,0.5581,-0.8418,-0.122,-0.366,-0.488,146.733,3.027,-87.869
12865,-0.0522,0.5542,-0.8438,0.244,0.122,-0.366,146.733,3.027,-87.869
12875,-0.0503,0.5537,-0.8477,0.549,0.671,-0.366,146.744,3.021,-87.869
12885,-0.0518,0.5537,-0.8486,0.610,1.038,-0.305,146.750,3.010,-87.869
12895,-0.0532,0.5522,-0.8506,0.916,1.221,-0.183,146.761,3.005,-87.869
12905,-0.0513,0.5469,-0.8560,1.038,1.343,-0.122,146.777,2.988,-87.869
12915,-0.0522,0.5488,-0.8569,0.854,1.221,0.000,146.794,2.983,-87.869
12925,-0.0522,0.5498,-0.8608,0.549,0.977,0.244,146.805,2.972,-87.869
12935,-0.0522,0.5542,-0.8623,0.305,0.549,0.427,146.816,2.961,-87.869
12945,-0.0522,0.5547,-0.8623,0.061,0.244,0.610,146.821,2.955,-87.869
12955,-0.0527,0.5581,-0.8608,-0.061,-0.122,0.610,146.821,2.955,-87.869
12965,-0.0518,0.5576,-0.8618,-0.122,-0.305,0.610,146.821,2.955,-87.869
12975,-0.0518,0.5596,-0.8574,-0.244,-0.671,0.610,146.821,2.955,-87.869
12985,-0.0522,0.5601,-0.8516,-0.366,-1.038,0.549,146.816,2.961,-87.869
12995,-0.0566,0.5586,-0.8496,-0.488,-1.221,0.427,146.805,2.972,-87.869
13005,-0.0557,0.5591,-0.8442,-0.488,-1.221,0.305,146.799,2.983,-87.869
13015,-0.0562,0.5620,-0.8433,-0.305,-0.916,0.305,146.788,2.988,-87.869
13025,-0.0547,0.5625,-0.8418,0.000,-0.427,0.305,146.783,2.988,-87.869
13035,-0.0562,0.5625,-0.8403,0.183,0.061,0.305,146.777,2.988,-87.869
13045,-0.0557,0.5610,-0.8447,0.244,0.488,0.183,146.777,2.988,-87.869
13055,-0.0581,0.5625,-0.8477,0.305,0.854,0.061,146.777,2.983,-87.869
13065,-0.0552,0.5630,-0.8486,0.366,1.160,-0.183,146.777,2.977,-87.869
13075,-0.0557,0.5625,-0.8516,0.305,1.282,-0.366,146.783,2.966,-87.869
13085,-0.0552,0.5610,-0.8555,0.244,1.282,-0.488,146.783,2.961,-87.869
13095,-0.0522,0.5605,-0.8584,0.244,1.160,-0.488,146.788,2.955,-87.869
13105,-0.0493,0.5615,-0.8540,0.305,0.732,-0.427,146.788,2.950,-87.869
13115,-0.0532,0.5576,-0.8560,0.427,0.366,-0.488,146.794,2.950,-87.869
13125,-0.0537,0.5581,-0.8564,0.427,0.366,-0.549,146.799,2.950,-87.869
13135,-0.0522,0.5596,-0.8550,0.183,0.427,-0.610,146.805,2.950,-87.869
13146,-0.0483,0.5601,-0.8530,0.000,0.488,-0.671,146.799,2.944,-87.869
13155,-0.0488,0.5571,-0.8564,-0.183,0.305,-0.793,146.799,2.944,-87.869
13165,-0.0513,0.5552,-0.8569,-0.244,0.183,-0.916,146.805,2.950,-87.869
13175,-0.0493,0.5537,-0.8545,-0.305,0.061,-0.977,146.805,2.950,-87.869
13185,-0.0508,0.5498,-0.8540,-0.244,-0.122,-0.916,146.805,2.955,-87.869
13195,-0.0498,0.5488,-0.8535,-0.305,-0.305,-0.793,146.805,2.961,-87.869
13205,-0.0532,0.5479,-0.8535,-0.305,-0.366,-0.610,146.810,2.966,-87.869
13215,-0.0513,0.5498,-0.8545,-0.183,-0.183,-0.366,146.810,2.972,-87.869
13225,-0.0498,0.5508,-0.8501,0.061,0.061,-0.122,146.816,2.972,-87.869
13235,-0.0488,0.5522,-0.8550,0.366,0.183,0.000,146.821,2.966,-87.869
13245,-0.0474,0.5542,-0.8574,0.305,0.061,0.000,146.827,2.961,-87.869
13255,-0.0493,0.5562,-0.8564,0.000,-0.122,0.000,146.827,2.961,-87.869
13265,-0.0522,0.5542,-0.8574,-0.305,-0.183,0.000,146.827,2.961,-87.869
13275,-0.0503,0.5537,-0.8550,-0.488,-0.244,0.000,146.827,2.961,-87.869
13285,-0.0518,0.5527,-0.8540,-0.366,-0.305,-0.061,146.827,2.966,-87.869
13295,-0.0562,0.5532,-0.8530,-0.244,-0.366,-0.061,146.827,2.972,-87.869
13305,-0.0591,0.5542,-0.8555,-0.183,-0.427,0.000,146.827,2.977,-87.869
13315,-0.0581,0.5552,-0.8550,-0.122,-0.427,0.122,146.827,2.983,-87.869
13325,-0.0581,0.5586,-0.8530,-0.183,-0.366,0.183,146.821,2.988,-87.869
13335,-0.0557,0.5581,-0.8521,-0.183,-0.427,0.183,146.821,2.994,-87.869
13345,-0.0571,0.5605,-0.8521,-0.061,-0.427,0.183,146.816,2.994,-87.869
13355,-0.0547,0.5571,-0.8511,0.000,-0.366,0.183,146.816,2.999,-87.869
13365,-0.0522,0.5581,-0.8481,0.122,-0.366,0.183,146.816,2.999,-87.869
13375,-0.0562,0.5596,-0.8501,0.061,-0.549,0.183,146.816,3.005,-87.869
13385,-0.0586,0.5581,-0.8496,-0.061,-0.549,0.122,146.816,3.010,-87.869
13395,-0.0601,0.5610,-0.8496,-0.244,-0.366,0.000,146.810,3.021,-87.869
13405,-0.0576,0.5635,-0.8501,-0.427,-0.122,-0.061,146.799,3.021,-87.869
13415,-0.0562,0.5640,-0.8511,-0.427,0.122,-0.122,146.794,3.021,-87.869
13425,-0.0552,0.5630,-0.8521,-0.244,0.244,-0.305,146.788,3.021,-87.869
13435,-0.0532,0.5620,-0.8535,0.000,0.305,-0.427,146.788,3.021,-87.869
13445,-0.0542,0.5586,-0.8506,0.061,0.122,-0.488,146.788,3.027,-87.869
13455,-0.0562,0.5576,-0.8530,0.000,-0.061,-0.549,146.788,3.032,-87.869
13465,-0.0557,0.5566,-0.8540,-0.122,0.000,-0.549,146.788,3.032,-87.869
13475,-0.0557,0.5562,-0.8545,-0.061,0.122,-0.549,146.788,3.038,-87.869
13485,-0.0566,0.5537,-0.8506,-0.061,0.122,-0.671,146.788,3.043,-87.869
13495,-0.0591,0.5508,-0.8496,-0.122,-0.061,-0.671,146.794,3.049,-87.869
13505,-0.0576,0.5532,-0.8525,-0.366,-0.061,-0.549,146.788,3.054,-87.869
13515,-0.0537,0.5537,-0.8525,-0.427,-0.061,-0.427,146.788,3.054,-87.869
13525,-0.0513,0.5537,-0.8525,-0.122,0.061,-0.305,146.788,3.054,-87.869
13535,-0.0537,0.5522,-0.8525,0.122,0.183,-0.305,146.794,3.054,-87.869
13545,-0.0562,0.5518,-0.8535,0.366,0.366,-0.305,146.799,3.054,-87.869
13555,-0.0542,0.5518,-0.8535,0.488,0.549,-0.244,146.810,3.054,-87.869
13565,-0.0527,0.5493,-0.8530,0.488,0.488,-0.122,146.816,3.049,-87.869
13575,-0.0537,0.5483,-0.8521,0.366,0.122,0.000,146.827,3.049,-87.869
13585,-0.0552,0.5464,-0.8550,0.244,-0.122,0.061,146.832,3.049,-87.869
13595,-0.0557,0.5508,-0.8560,0.183,-0.244,0.305,146.838,3.049,-87.869
13605,-0.0552,0.5552,-0.8545,0.183,-0.122,0.549,146.843,3.049,-87.869
13615,-0.0547,0.5566,-0.8530,0.366,-0.122,0.610,146.849,3.043,-87.869
13625,-0.0552,0.5566,-0.8545,0.427,-0.244,0.488,146.849,3.043,-87.869
13635,-0.0562,0.5571,-0.8564,0.305,-0.305,0.427,146.854,3.049,-87.869
13646,-0.0557,0.5576,-0.8530,-0.061,-0.366,0.244,146.854,3.049,-87.869
13655,-0.0562,0.5610,-0.8521,-0.488,-0.366,0.183,146.849,3.054,-87.869
13665,-0.0532,0.5605,-0.8496,-0.793,-0.305,0.061,146.838,3.054,-87.869
13675,-0.0537,0.5615,-0.8481,-0.732,-0.305,-0.061,146.827,3.054,-87.869
13685,-0.0542,0.5620,-0.8491,-0.488,-0.366,-0.183,146.816,3.060,-87.869
13695,-0.0557,0.5591,-0.8506,-0.061,-0.427,-0.305,146.816,3.065,-87.869
13705,-0.0591,0.5586,-0.8481,0.122,-0.244,-0.366,146.816,3.071,-87.869
13715,-0.0586,0.5596,-0.8491,0.000,0.122,-0.488,146.810,3.076,-87.869
13725,-0.0581,0.5581,-0.8521,0.000,0.427,-0.488,146.810,3.076,-87.869
13735,-0.0562,0.5591,-0.8481,0.000,0.671,-0.488,146.810,3.076,-87.869
13745,-0.0547,0.5566,-0.8491,0.122,0.793,-0.427,146.810,3.071,-87.869
13755,-0.0532,0.5586,-0.8516,0.427,0.793,-0.427,146.816,3.065,-87.869
13765,-0.0508,0.5562,-0.8501,0.549,0.671,-0.427,146.821,3.060,-87.869
13775,-0.0527,0.5537,-0.8530,0.732,0.549,-0.427,146.832,3.060,-87.869
13785,-0.0532,0.5518,-0.8564,0.610,0.549,-0.427,146.843,3.054,-87.869
13795,-0.0552,0.5532,-0.8579,0.244,0.793,-0.427,146.849,3.049,-87.869
13806,-0.0532,0.5566,-0.8589,-0.061,0.916,-0.427,146.849,3.043,-87.869
13816,-0.0513,0.5552,-0.8589,-0.122,0.793,-0.488,146.849,3.038,-87.869
13826,-0.0493,0.5547,-0.8569,-0.183,0.488,-0.549,146.854,3.032,-87.869
13836,-0.0513,0.5552,-0.8584,-0.122,0.122,-0.549,146.854,3.038,-87.869
13846,-0.0518,0.5532,-0.8608,-0.061,-0.061,-0.610,146.860,3.038,-87.869
13856,-0.0518,0.5518,-0.8579,-0.061,-0.244,-0.549,146.860,3.043,-87.869
13866,-0.0518,0.5503,-0.8589,-0.183,-0.305,-0.488,146.865,3.043,-87.869
13876,-0.0518,0.5498,-0.8569,-0.305,-0.305,-0.366,146.865,3.049,-87.869
13886,-0.0508,0.5518,-0.8579,-0.427,-0.366,-0.244,146.865,3.049,-87.869
13896,-0.0498,0.5522,-0.8540,-0.549,-0.488,-0.122,146.865,3.054,-87.869
13906,-0.0503,0.5513,-0.8545,-0.427,-0.671,0.061,146.860,3.054,-87.869
13920,-0.0522,0.5532,-0.8550,-0.122,-0.671,0.122,146.860,3.060,-87.869
13926,-0.0522,0.5518,-0.8525,0.061,-0.488,0.244,146.865,3.060,-87.869
13936,-0.0513,0.5518,-0.8550,0.122,-0.305,0.183,146.871,3.060,-87.869
13946,-0.0527,0.5518,-0.8555,0.122,-0.366,0.183,146.871,3.060,-87.869
13956,-0.0547,0.5508,-0.8530,-0.061,-0.427,0.183,146.876,3.065,-87.869
13966,-0.0542,0.5522,-0.8535,-0.305,-0.427,0.244,146.876,3.065,-87.869
13976,-0.0537,0.5542,-0.8530,-0.366,-0.366,0.366,146.871,3.065,-87.869
13986,-0.0591,0.5527,-0.8535,-0.244,-0.305,0.427,146.871,3.071,-87.869
13996,-0.0596,0.5571,-0.8530,-0.061,-0.244,0.488,146.871,3.071,-87.869
14006,-0.0581,0.5566,-0.8521,0.061,-0.305,0.488,146.871,3.076,-87.869
14016,-0.0596,0.5586,-0.8506,0.244,-0.366,0.427,146.871,3.076,-87.869
14026,-0.0596,0.5591,-0.8477,0.244,-0.305,0.427,146.871,3.082,-87.869
14036,-0.0557,0.5630,-0.8491,0.000,-0.244,0.366,146.865,3.082,-87.869
14046,-0.0542,0.5645,-0.8486,-0.183,-0.183,0.305,146.860,3.082,-87.869
14056,-0.0532,0.5620,-0.8521,-0.061,0.061,0.122,146.854,3.076,-87.869
14066,-0.0547,0.5610,-0.8521,0.061,0.244,-0.122,146.854,3.076,-87.869
14076,-0.0552,0.5605,-0.8511,0.061,0.366,-0.305,146.849,3.076,-87.869
14086,-0.0562,0.5586,-0.8550,-0.061,0.305,-0.488,146.849,3.076,-87.869
14096,-0.0552,0.5562,-0.8545,-0.366,0.183,-0.549,146.849,3.076,-87.869
14106,-0.0586,0.5562,-0.8540,-0.732,0.244,-0.488,146.843,3.082,-87.869
14116,-0.0552,0.5557,-0.8550,-0.793,0.244,-0.488,146.838,3.082,-87.869
14126,-0.0542,0.5522,-0.8564,-0.549,0.244,-0.366,146.832,3.082,-87.869
14136,-0.0527,0.5527,-0.8560,-0.244,0.183,-0.183,146.838,3.082,-87.869
14147,-0.0547,0.5518,-0.8555,-0.061,0.061,-0.122,146.838,3.082,-87.869
14156,-0.0562,0.5488,-0.8530,0.122,-0.122,0.000,146.843,3.082,-87.869
14166,-0.0537,0.5493,-0.8540,0.000,-0.244,-0.061,146.849,3.082,-87.869
14176,-0.0562,0.5518,-0.8511,-0.244,-0.244,0.000,146.849,3.087,-87.869
14186,-0.0566,0.5522,-0.8545,-0.366,0.000,0.122,146.843,3.087,-87.869
14196,-0.0513,0.5557,-0.8525,-0.427,0.244,0.244,146.843,3.082,-87.869
14206,-0.0508,0.5576,-0.8535,-0.305,0.427,0.305,146.838,3.076,-87.869
14216,-0.0498,0.5571,-0.8564,0.000,0.366,0.183,146.838,3.065,-87.869
14226,-0.0522,0.5557,-0.8564,0.183,0.244,0.122,146.843,3.065,-87.869
14236,-0.0532,0.5562,-0.8564,0.122,0.305,0.061,146.849,3.060,-87.869
14246,-0.0513,0.5542,-0.8574,-0.122,0.305,0.061,146.849,3.054,-87.869
14256,-0.0542,0.5527,-0.8555,-0.427,0.061,0.000,146.849,3.054,-87.869
14266,-0.0547,0.5542,-0.8560,-0.549,-0.122,0.122,146.843,3.054,-87.869
14276,-0.0537,0.5527,-0.8516,-0.549,-0.122,0.244,146.838,3.054,-87.869
14286,-0.0542,0.5547,-0.8535,-0.244,-0.061,0.427,146.838,3.054,-87.869
14296,-0.0566,0.5503,-0.8550,0.122,0.122,0.488,146.843,3.049,-87.869
14306,-0.0566,0.5513,-0.8516,0.244,0.183,0.549,146.849,3.049,-87.869
14316,-0.0542,0.5522,-0.8516,0.061,0.183,0.610,146.849,3.043,-87.869
14326,-0.0552,0.5518,-0.8525,-0.061,0.122,0.671,146.854,3.038,-87.869
14336,-0.0547,0.5562,-0.8516,-0.244,0.061,0.671,146.849,3.032,-87.869
14346,-0.0547,0.5586,-0.8545,-0.244,0.183,0.610,146.849,3.027,-87.869
14356,-0.0532,0.5596,-0.8530,-0.305,0.244,0.549,146.843,3.021,-87.869
14366,-0.0518,0.5605,-0.8535,-0.183,0.366,0.427,146.838,3.016,-87.869
14376,-0.0522,0.5615,-0.8535,-0.244,0.366,0.244,146.832,3.010,-87.869
14386,-0.0527,0.5645,-0.8530,-0.488,0.305,0.122,146.827,3.010,-87.869
14396,-0.0522,0.5645,-0.8491,-0.549,0.244,-0.061,146.816,3.005,-87.869
14406,-0.0522,0.5645,-0.8521,-0.305,0.244,-0.183,146.810,3.005,-87.869
14416,-0.0522,0.5620,-0.8525,-0.183,0.427,-0.305,146.805,2.999,-87.869
14426,-0.0518,0.5620,-0.8511,-0.122,0.488,-0.366,146.805,2.999,-87.869
14436,-0.0508,0.5586,-0.8506,0.061,0.610,-0.427,146.805,2.994,-87.869
14446,-0.0537,0.5571,-0.8516,0.122,0.671,-0.488,146.805,2.994,-87.869
14456,-0.0527,0.5571,-0.8525,0.000,0.793,-0.488,146.805,2.988,-87.869
14466,-0.0483,0.5547,-0.8521,0.000,0.977,-0.488,146.805,2.977,-87.869
14476,-0.0464,0.5537,-0.8545,0.183,0.977,-0.488,146.810,2.972,-87.869
14486,-0.0483,0.5469,-0.8545,0.244,0.854,-0.488,146.821,2.961,-87.869
14496,-0.0474,0.5479,-0.8564,0.244,0.732,-0.427,146.827,2.955,-87.869
14506,-0.0469,0.5479,-0.8584,0.122,0.610,-0.183,146.838,2.950,-87.869
14516,-0.0449,0.5435,-0.8569,0.000,0.549,0.000,146.843,2.939,-87.869
14526,-0.0474,0.5454,-0.8579,-0.061,0.427,0.122,146.849,2.933,-87.869
14536,-0.0483,0.5513,-0.8594,-0.061,0.305,0.305,146.854,2.928,-87.869
14546,-0.0488,0.5522,-0.8589,0.122,0.366,0.427,146.860,2.917,-87.869
14556,-0.0464,0.5532,-0.8579,0.122,0.305,0.488,146.865,2.911,-87.869
14566,-0.0474,0.5537,-0.8574,-0.061,0.244,0.427,146.865,2.906,-87.869
14576,-0.0503,0.5542,-0.8584,-0.305,0.000,0.366,146.865,2.900,-87.869
14586,-0.0522,0.5557,-0.8579,-0.549,-0.244,0.427,146.865,2.900,-87.869
14596,-0.0537,0.5581,-0.8574,-0.549,-0.610,0.427,146.860,2.906,-87.869
14606,-0.0537,0.5562,-0.8535,-0.488,-0.732,0.366,146.854,2.911,-87.869
14616,-0.0547,0.5596,-0.8525,-0.427,-0.732,0.366,146.849,2.917,-87.869
14626,-0.0542,0.5591,-0.8516,-0.427,-0.732,0.366,146.843,2.922,-87.869
14636,-0.0542,0.5605,-0.8486,-0.305,-0.732,0.305,146.832,2.928,-87.869
14646,-0.0527,0.5601,-0.8491,-0.244,-0.671,0.244,146.832,2.933,-87.869
14656,-0.0557,0.5586,-0.8501,-0.244,-0.427,0.122,146.827,2.939,-87.869
14666,-0.0542,0.5601,-0.8472,-0.122,-0.122,0.122,146.821,2.939,-87.869
14676,-0.0537,0.5566,-0.8481,0.122,0.183,0.061,146.821,2.939,-87.869
14686,-0.0527,0.5542,-0.8496,0.244,0.427,0.061,146.827,2.933,-87.869
14696,-0.0542,0.5527,-0.8516,0.305,0.610,0.061,146.832,2.928,-87.869
14706,-0.0552,0.5527,-0.8525,0.244,0.671,0.183,146.832,2.922,-87.869
14716,-0.0518,0.5518,-0.8506,0.244,0.793,0.183,146.838,2.917,-87.869
14726,-0.0527,0.5532,-0.8530,0.183,0.793,0.305,146.843,2.911,-87.869
14736,-0.0522,0.5547,-0.8511,0.122,0.793,0.366,146.843,2.900,-87.869
14746,-0.0513,0.5581,-0.8521,0.183,0.732,0.366,146.843,2.895,-87.869
14756,-0.0493,0.5586,-0.8535,0.305,0.671,0.366,146.849,2.884,-87.869
14766,-0.0483,0.5596,-0.8530,0.244,0.549,0.305,146.849,2.878,-87.869
14776,-0.0498,0.5605,-0.8594,0.244,0.549,0.183,146.854,2.867,-87.869
14786,-0.0503,0.5581,-0.8579,0.061,0.549,0.061,146.854,2.862,-87.869
14796,-0.0532,0.5557,-0.8564,-0.183,0.427,-0.122,146.854,2.862,-87.869
14806,-0.0562,0.5562,-0.8550,-0.427,0.244,-0.244,146.849,2.862,-87.869
14816,-0.0552,0.5596,-0.8550,-0.732,0.122,-0.183,146.843,2.867,-87.869
14826,-0.0522,0.5640,-0.8545,-0.610,0.000,-0.061,146.832,2.867,-87.869
14836,-0.0493,0.5596,-0.8555,0.000,0.000,-0.061,146.832,2.867,-87.869
14846,-0.0493,0.5596,-0.8579,0.488,0.122,-0.183,146.838,2.867,-87.869
14856,-0.0483,0.5615,-0.8594,0.488,0.183,-0.427,146.843,2.867,-87.869
14866,-0.0464,0.5586,-0.8560,0.244,0.183,-0.488,146.849,2.862,-87.869
14876,-0.0454,0.5562,-0.8555,-0.061,0.000,-0.549,146.849,2.862,-87.869
14886,-0.0488,0.5503,-0.8574,-0.427,-0.122,-0.610,146.849,2.867,-87.869
14896,-0.0488,0.5522,-0.8545,-0.671,-0.061,-0.549,146.843,2.867,-87.869
14906,-0.0483,0.5537,-0.8535,-0.549,0.061,-0.366,146.843,2.867,-87.869
14916,-0.0483,0.5479,-0.8545,-0.061,0.000,-0.183,146.849,2.867,-87.869
14926,-0.0513,0.5454,-0.8545,0.244,-0.183,-0.122,146.854,2.873,-87.869
14936,-0.0527,0.5479,-0.8535,0.244,-0.244,0.000,146.860,2.873,-87.869
14946,-0.0493,0.5488,-0.8521,-0.061,-0.366,0.122,146.865,2.873,-87.869
14956,-0.0503,0.5474,-0.8535,-0.305,-0.427,0.244,146.865,2.878,-87.869
14966,-0.0513,0.5488,-0.8521,-0.427,-0.427,0.366,146.865,2.878,-87.869
14976,-0.0498,0.5513,-0.8496,-0.366,-0.183,0.427,146.860,2.878,-87.869
14986,-0.0474,0.5542,-0.8501,-0.122,0.122,0.610,146.860,2.873,-87.869
14996,-0.0469,0.5566,-0.8525,0.244,0.183,0.732,146.865,2.862,-87.869
15006,-0.0479,0.5586,-0.8569,0.488,0.122,0.610,146.871,2.856,-87.869
15016,-0.0493,0.5601,-0.8564,0.244,0.000,0.549,146.871,2.851,-87.869
15026,-0.0483,0.5605,-0.8564,0.061,0.000,0.488,146.871,2.851,-87.869
15036,-0.0474,0.5601,-0.8550,-0.061,0.122,0.366,146.865,2.845,-87.869
15046,-0.0483,0.5596,-0.8540,-0.061,0.122,0.183,146.865,2.840,-87.869
15056,-0.0513,0.5601,-0.8564,0.000,0.122,0.000,146.865,2.840,-87.869
15066,-0.0498,0.5615,-0.8516,-0.061,-0.061,-0.061,146.860,2.840,-87.869
15076,-0.0522,0.5625,-0.8506,0.000,-0.244,-0.122,146.860,2.845,-87.869
15086,-0.0503,0.5601,-0.8525,0.122,-0.366,-0.244,146.860,2.845,-87.869
15096,-0.0488,0.5620,-0.8545,0.122,-0.244,-0.366,146.860,2.851,-87.869
15106,-0.0474,0.5601,-0.8540,0.183,0.000,-0.488,146.860,2.851,-87.869
15116,-0.0464,0.5552,-0.8525,0.305,0.244,-0.610,146.865,2.851,-87.869
15126,-0.0479,0.5513,-0.8530,0.244,0.122,-0.732,146.871,2.851,-87.869
15136,-0.0483,0.5488,-0.8506,0.000,-0.061,-0.732,146.871,2.856,-87.869
15147,-0.0527,0.5449,-0.8535,-0.061,-0.122,-0.549,146.876,2.862,-87.869
15156,-0.0542,0.5459,-0.8530,-0.061,0.061,-0.305,146.882,2.862,-87.869
15166,-0.0503,0.5498,-0.8521,0.122,0.366,0.000,146.887,2.862,-87.869
15176,-0.0469,0.5483,-0.8540,0.488,0.366,0.183,146.893,2.851,-87.869
15186,-0.0479,0.5503,-0.8564,0.671,0.183,0.244,146.904,2.851,-87.869
15196,-0.0483,0.5542,-0.8584,0.488,0.061,0.366,146.909,2.845,-87.869
15206,-0.0474,0.5552,-0.8579,0.244,-0.122,0.366,146.915,2.840,-87.869
15216,-0.0493,0.5532,-0.8589,0.061,-0.305,0.366,146.920,2.840,-87.869
15226,-0.0474,0.5552,-0.8564,-0.122,-0.427,0.244,146.920,2.840,-87.869
15236,-0.0513,0.5532,-0.8564,-0.122,-0.488,0.061,146.920,2.845,-87.869
15246,-0.0518,0.5508,-0.8589,-0.061,-0.427,0.061,146.926,2.851,-87.869
15256,-0.0503,0.5527,-0.8564,-0.122,-0.366,0.122,146.926,2.851,-87.869
15266,-0.0503,0.5503,-0.8535,-0.122,-0.610,0.183,146.926,2.856,-87.869
15276,-0.0503,0.5522,-0.8555,0.061,-0.793,0.366,146.926,2.862,-87.869
15286,-0.0493,0.5557,-0.8545,0.122,-0.977,0.427,146.931,2.867,-87.869
15296,-0.0493,0.5581,-0.8516,0.244,-0.977,0.427,146.931,2.867,-87.869
15306,-0.0503,0.5571,-0.8491,0.366,-0.916,0.366,146.931,2.873,-87.869
15316,-0.0522,0.5552,-0.8486,0.244,-0.671,0.305,146.931,2.878,-87.869
15326,-0.0562,0.5508,-0.8481,0.183,-0.305,0.244,146.931,2.884,-87.869
15336,-0.0537,0.5503,-0.8501,0.183,0.244,0.366,146.937,2.884,-87.869
15346,-0.0518,0.5547,-0.8511,0.183,0.610,0.488,146.937,2.873,-87.869
15356,-0.0488,0.5566,-0.8521,0.366,0.549,0.549,146.942,2.867,-87.869
15366,-0.0498,0.5557,-0.8584,0.610,0.061,0.549,146.948,2.862,-87.869
15376,-0.0503,0.5562,-0.8589,0.427,-0.427,0.427,146.953,2.862,-87.869
15386,-0.0503,0.5601,-0.8569,-0.366,-0.427,0.244,146.948,2.862,-87.869
15396,-0.0527,0.5586,-0.8564,-0.305,-0.183,0.061,146.942,2.867,-87.869
15406,-0.0518,0.5586,-0.8560,-0.122,0.061,-0.061,146.942,2.867,-87.869
15416,-0.0508,0.5605,-0.8555,-0.061,0.000,-0.183,146.942,2.867,-87.869
15426,-0.0503,0.5576,-0.8550,-0.122,-0.366,-0.183,146.937,2.867,-87.869
15436,-0.0532,0.5557,-0.8535,-0.427,-0.793,-0.183,146.937,2.878,-87.869
15446,-0.0542,0.5522,-0.8550,-0.671,-1.099,-0.122,146.931,2.889,-87.869
15456,-0.0527,0.5557,-0.8511,-0.732,-1.099,-0.061,146.920,2.900,-87.869
15466,-0.0518,0.5610,-0.8467,-0.610,-0.916,-0.061,146.909,2.906,-87.869
15476,-0.0518,0.5566,-0.8472,-0.122,-0.549,-0.122,146.909,2.911,-87.869
15486,-0.0527,0.5557,-0.8481,0.244,-0.122,-0.305,146.909,2.917,-87.869
15496,-0.0513,0.5518,-0.8506,0.305,0.305,-0.427,146.915,2.917,-87.869
15506,-0.0513,0.5493,-0.8560,0.305,0.671,-0.427,146.920,2.911,-87.869
15516,-0.0493,0.5454,-0.8569,0.183,0.916,-0.244,146.926,2.906,-87.869
15526,-0.0498,0.5459,-0.8555,0.122,0.671,-0.122,146.937,2.900,-87.869
15536,-0.0508,0.5503,-0.8579,0.244,0.183,0.122,146.942,2.895,-87.869
15546,-0.0508,0.5522,-0.8560,0.549,-0.366,0.366,146.948,2.895,-87.869
15556,-0.0537,0.5498,-0.8574,0.793,-0.488,0.488,146.959,2.900,-87.869
15566,-0.0527,0.5493,-0.8569,0.610,-0.488,0.610,146.970,2.900,-87.869
15576,-0.0518,0.5488,-0.8579,0.183,-0.366,0.610,146.975,2.900,-87.869
15586,-0.0518,0.5527,-0.8564,-0.305,-0.366,0.610,146.975,2.900,-87.869
15596,-0.0522,0.5537,-0.8540,-0.549,-0.427,0.610,146.970,2.900,-87.869
15606,-0.0513,0.5552,-0.8535,-0.488,-0.549,0.549,146.964,2.906,-87.869
15616,-0.0513,0.5581,-0.8530,-0.122,-0.549,0.488,146.959,2.906,-87.869
15626,-0.0508,0.5581,-0.8540,0.366,-0.671,0.366,146.964,2.906,-87.869
15636,-0.0522,0.5562,-0.8540,0.244,-0.793,0.366,146.964,2.911,-87.869
15647,-0.0522,0.5581,-0.8530,-0.427,-0.793,0.366,146.959,2.917,-87.869
15656,-0.0508,0.5630,-0.8506,-0.977,-0.671,0.305,146.942,2.922,-87.869
15666,-0.0508,0.5610,-0.8496,-0.977,-0.549,0.061,146.931,2.922,-87.869
15676,-0.0508,0.5596,-0.8491,-0.671,-0.427,-0.122,146.920,2.928,-87.869
15686,-0.0522,0.5601,-0.8501,-0.305,-0.122,-0.305,146.915,2.928,-87.869
15696,-0.0513,0.5615,-0.8477,-0.061,0.122,-0.366,146.909,2.933,-87.869
15706,-0.0483,0.5605,-0.8481,0.183,0.122,-0.366,146.904,2.928,-87.869
15716,-0.0493,0.5591,-0.8486,0.305,0.000,-0.549,146.909,2.933,-87.869
15726,-0.0493,0.5552,-0.8535,0.183,0.183,-0.732,146.909,2.933,-87.869
15736,-0.0508,0.5532,-0.8555,0.000,0.671,-0.793,146.909,2.928,-87.869
15746,-0.0474,0.5547,-0.8569,-0.122,1.160,-0.610,146.915,2.922,-87.869
15756,-0.0444,0.5537,-0.8594,0.122,1.038,-0.549,146.920,2.911,-87.869
15766,-0.0435,0.5527,-0.8584,0.549,0.549,-0.610,146.926,2.906,-87.869
15776,-0.0479,0.5474,-0.8618,0.732,0.000,-0.610,146.942,2.906,-87.869
15786,-0.0508,0.5435,-0.8633,0.793,-0.061,-0.610,146.959,2.911,-87.869
15796,-0.0527,0.5435,-0.8608,0.366,0.183,-0.427,146.970,2.911,-87.869
15806,-0.0513,0.5439,-0.8613,-0.183,0.183,-0.244,146.975,2.911,-87.869
15816,-0.0488,0.5464,-0.8604,-0.549,-0.122,-0.122,146.975,2.911,-87.869
15826,-0.0479,0.5488,-0.8594,-0.610,-0.549,0.122,146.975,2.911,-87.869
15836,-0.0469,0.5532,-0.8613,-0.244,-0.916,0.366,146.975,2.917,-87.869
15846,-0.0449,0.5542,-0.8545,0.305,-1.160,0.488,146.975,2.917,-87.869
15856,-0.0459,0.5552,-0.8550,0.671,-1.282,0.549,146.986,2.922,-87.869
15866,-0.0488,0.5537,-0.8535,0.732,-1.221,0.549,146.992,2.928,-87.869
15876,-0.0508,0.5542,-0.8535,0.305,-0.854,0.427,146.992,2.933,-87.869
15886,-0.0518,0.5547,-0.8545,-0.183,-0.488,0.183,146.992,2.933,-87.869
15896,-0.0547,0.5537,-0.8555,-0.549,-0.305,0.000,146.986,2.939,-87.869
15906,-0.0547,0.5518,-0.8521,-0.671,-0.183,0.000,146.981,2.939,-87.869
15921,-0.0557,0.5527,-0.8525,-0.366,-0.305,0.122,146.975,2.944,-87.869
15926,-0.0542,0.5513,-0.8535,0.244,-0.427,0.244,146.981,2.950,-87.869
15936,-0.0522,0.5542,-0.8535,0.732,-0.488,0.427,146.986,2.950,-87.869
15946,-0.0498,0.5562,-0.8555,0.916,-0.427,0.488,146.997,2.950,-87.869
15956,-0.0508,0.5527,-0.8545,0.854,-0.427,0.488,147.008,2.950,-87.869
15966,-0.0513,0.5513,-0.8599,0.488,-0.366,0.366,147.014,2.950,-87.869
15976,-0.0488,0.5532,-0.8579,-0.122,-0.488,0.244,147.014,2.950,-87.869
15986,-0.0508,0.5542,-0.8564,-0.549,-0.671,0.122,147.008,2.955,-87.869
15996,-0.0532,0.5562,-0.8604,-0.671,-0.793,0.061,147.003,2.961,-87.869
16006,-0.0542,0.5566,-0.8599,-0.549,-0.732,0.000,146.997,2.966,-87.869
16016,-0.0542,0.5581,-0.8579,-0.244,-0.732,-0.061,146.997,2.972,-87.869
16026,-0.0552,0.5571,-0.8540,-0.122,-0.854,-0.061,146.992,2.983,-87.869
16036,-0.0542,0.5542,-0.8579,-0.122,-1.099,0.061,146.992,2.994,-87.869
16046,-0.0552,0.5527,-0.8545,-0.366,-1.160,0.122,146.992,3.005,-87.869
16056,-0.0532,0.5576,-0.8540,-0.671,-1.282,0.183,146.981,3.010,-87.869
16066,-0.0522,0.5581,-0.8477,-0.732,-1.282,0.183,146.970,3.021,-87.869
16076,-0.0527,0.5581,-0.8472,-0.488,-1.221,0.000,146.964,3.032,-87.869
16086,-0.0522,0.5605,-0.8481,-0.305,-0.916,-0.183,146.953,3.038,-87.869
16096,-0.0532,0.5601,-0.8472,-0.244,-0.549,-0.244,146.948,3.043,-87.869
16106,-0.0532,0.5542,-0.8438,-0.122,-0.183,-0.366,146.942,3.049,-87.869
16116,-0.0557,0.5518,-0.8438,0.000,0.122,-0.549,146.942,3.049,-87.869
16126,-0.0557,0.5513,-0.8530,-0.122,0.549,-0.671,146.942,3.049,-87.869
16136,-0.0537,0.5508,-0.8525,-0.183,0.793,-0.488,146.942,3.043,-87.869
16147,-0.0498,0.5513,-0.8530,0.061,0.854,-0.366,146.948,3.038,-87.869
16156,-0.0498,0.5513,-0.8550,0.427,0.671,-0.183,146.953,3.032,-87.869
16166,-0.0503,0.5498,-0.8589,0.854,0.427,-0.122,146.970,3.027,-87.869
16176,-0.0488,0.5493,-0.8604,1.099,0.427,0.000,146.981,3.021,-87.869
16186,-0.0474,0.5464,-0.8604,1.099,0.610,0.122,147.003,3.010,-87.869
16196,-0.0479,0.5439,-0.8579,0.793,0.610,0.183,147.014,2.999,-87.869
16206,-0.0474,0.5454,-0.8560,0.366,0.366,0.244,147.025,2.994,-87.869
16216,-0.0518,0.5469,-0.8579,0.183,0.183,0.305,147.030,2.988,-87.869
16226,-0.0537,0.5469,-0.8608,0.427,0.305,0.488,147.041,2.983,-87.869
16236,-0.0532,0.5469,-0.8594,0.610,0.610,0.671,147.047,2.977,-87.869
16246,-0.0532,0.5474,-0.8564,0.732,0.671,0.793,147.057,2.966,-87.869
16256,-0.0518,0.5508,-0.8569,0.427,0.366,0.977,147.068,2.955,-87.869
16266,-0.0508,0.5537,-0.8584,0.122,-0.183,1.038,147.068,2.950,-87.880
16276,-0.0522,0.5542,-0.8589,-0.183,-0.427,0.977,147.068,2.950,-87.891
16286,-0.0513,0.5591,-0.8569,-0.366,-0.549,0.854,147.057,2.950,-87.902
16296,-0.0518,0.5615,-0.8555,-0.427,-0.488,0.488,147.052,2.950,-87.907
16306,-0.0532,0.5591,-0.8555,-0.305,-0.488,0.183,147.047,2.955,-87.913
16316,-0.0542,0.5586,-0.8511,-0.488,-0.427,-0.122,147.041,2.961,-87.913
16326,-0.0557,0.5571,-0.8535,-0.549,-0.305,-0.366,147.030,2.966,-87.913
16336,-0.0527,0.5581,-0.8555,-0.671,-0.122,-0.427,147.025,2.966,-87.907
16346,-0.0522,0.5596,-0.8530,-0.488,-0.061,-0.427,147.014,2.972,-87.902
16356,-0.0493,0.5562,-0.8511,0.183,-0.061,-0.488,147.014,2.972,-87.902
16366,-0.0479,0.5527,-0.8491,0.610,-0.061,-0.549,147.019,2.972,-87.896
16376,-0.0518,0.5474,-0.8516,0.793,0.000,-0.488,147.030,2.972,-87.891
16386,-0.0547,0.5474,-0.8530,0.549,0.427,-0.305,147.041,2.972,-87.885
16396,-0.0518,0.5503,-0.8525,0.183,0.793,-0.183,147.041,2.966,-87.880
16406,-0.0474,0.5532,-0.8540,0.000,0.854,-0.183,147.047,2.961,-87.874
16416,-0.0464,0.5518,-0.8584,0.000,0.671,-0.183,147.047,2.950,-87.869
16427,-0.0474,0.5503,-0.8589,0.244,0.488,-0.122,147.052,2.944,-87.869
16437,-0.0464,0.5479,-0.8638,0.488,0.488,-0.061,147.063,2.939,-87.863
16446,-0.0444,0.5464,-0.8623,0.366,0.244,0.000,147.074,2.928,-87.863
16457,-0.0449,0.5474,-0.8599,0.244,0.061,0.122,147.079,2.922,-87.863
16466,-0.0503,0.5444,-0.8618,0.305,-0.183,0.122,147.090,2.922,-87.863
16477,-0.0527,0.5444,-0.8623,0.061,-0.061,0.183,147.096,2.922,-87.869
16487,-0.0513,0.5459,-0.8628,-0.122,0.122,0.244,147.101,2.922,-87.869
16497,-0.0513,0.5474,-0.8574,-0.122,0.061,0.305,147.101,2.917,-87.869
16507,-0.0488,0.5498,-0.8613,-0.122,-0.244,0.488,147.101,2.917,-87.874
16517,-0.0479,0.5532,-0.8638,-0.183,-0.671,0.549,147.107,2.917,-87.885
16527,-0.0479,0.5591,-0.8608,-0.244,-1.038,0.671,147.101,2.917,-87.896
16537,-0.0474,0.5581,-0.8584,-0.122,-1.099,0.549,147.096,2.922,-87.907
16547,-0.0493,0.5562,-0.8584,-0.122,-1.099,0.244,147.096,2.928,-87.913
16557,-0.0552,0.5532,-0.8574,-0.427,-1.038,-0.061,147.090,2.939,-87.918
16567,-0.0562,0.5532,-0.8535,-0.732,-0.793,-0.183,147.085,2.950,-87.924
16577,-0.0542,0.5518,-0.8501,-0.916,-0.671,-0.183,147.074,2.955,-87.924
16587,-0.0542,0.5498,-0.8491,-0.671,-0.732,-0.122,147.068,2.966,-87.929
16597,-0.0547,0.5479,-0.8491,-0.122,-0.793,0.061,147.068,2.972,-87.929
16607,-0.0532,0.5503,-0.8501,0.244,-0.793,0.183,147.068,2.977,-87.935
16617,-0.0532,0.5518,-0.8506,0.366,-0.671,0.366,147.074,2.983,-87.946
16627,-0.0518,0.5522,-0.8486,0.427,-0.488,0.427,147.074,2.983,-87.951
16637,-0.0537,0.5527,-0.8501,0.122,-0.305,0.305,147.074,2.983,-87.957
16647,-0.0547,0.5542,-0.8516,-0.244,-0.061,0.183,147.068,2.983,-87.957
16657,-0.0518,0.5562,-0.8525,-0.549,0.122,0.061,147.063,2.983,-87.957
16667,-0.0508,0.5562,-0.8516,-0.427,0.305,0.000,147.057,2.977,-87.957
16677,-0.0503,0.5542,-0.8516,-0.183,0.305,0.000,147.052,2.977,-87.951
16687,-0.0537,0.5508,-0.8545,0.183,0.244,0.000,147.057,2.972,-87.951
16697,-0.0532,0.5513,-0.8574,0.366,0.305,0.122,147.063,2.972,-87.951
16707,-0.0518,0.5522,-0.8555,0.305,0.305,0.244,147.068,2.966,-87.951
16717,-0.0522,0.5527,-0.8599,0.244,0.244,0.305,147.068,2.961,-87.951
16727,-0.0532,0.5586,-0.8594,0.000,0.122,0.122,147.068,2.961,-87.951
16737,-0.0542,0.5615,-0.8599,-0.305,0.122,-0.122,147.063,2.961,-87.951
16747,-0.0518,0.5601,-0.8608,-0.427,0.061,-0.305,147.057,2.961,-87.946
16757,-0.0483,0.5591,-0.8613,-0.488,0.000,-0.549,147.052,2.961,-87.946
16767,-0.0483,0.5576,-0.8584,-0.427,-0.061,-0.671,147.052,2.961,-87.940
16777,-0.0527,0.5532,-0.8569,-0.366,-0.183,-0.671,147.047,2.966,-87.935
16787,-0.0522,0.5513,-0.8550,-0.244,-0.305,-0.671,147.047,2.972,-87.929
16797,-0.0498,0.5479,-0.8540,-0.061,-0.305,-0.610,147.047,2.977,-87.924
16807,-0.0498,0.5459,-0.8530,-0.122,-0.305,-0.549,147.052,2.983,-87.924
16817,-0.0503,0.5474,-0.8501,-0.305,-0.244,-0.366,147.052,2.983,-87.924
16827,-0.0488,0.5498,-0.8525,-0.366,-0.183,-0.244,147.047,2.983,-87.918
16837,-0.0479,0.5508,-0.8545,-0.061,0.061,-0.244,147.047,2.983,-87.918
16847,-0.0474,0.5508,-0.8525,0.488,0.366,-0.183,147.052,2.977,-87.913
16857,-0.0459,0.5469,-0.8521,0.977,0.549,-0.183,147.068,2.972,-87.913
16867,-0.0488,0.5420,-0.8574,1.221,0.671,-0.061,147.085,2.961,-87.907
16877,-0.0483,0.5410,-0.8599,0.916,0.732,0.122,147.101,2.955,-87.902
16887,-0.0488,0.5420,-0.8589,0.244,0.549,0.305,147.112,2.944,-87.902
16897,-0.0508,0.5454,-0.8599,-0.183,0.305,0.488,147.112,2.939,-87.907
16907,-0.0527,0.5498,-0.8623,-0.366,0.000,0.610,147.112,2.939,-87.913
16917,-0.0527,0.5522,-0.8623,-0.305,-0.183,0.732,147.112,2.933,-87.918
16927,-0.0513,0.5532,-0.8618,0.000,-0.305,0.793,147.112,2.933,-87.924
16937,-0.0483,0.5518,-0.8589,0.183,-0.549,0.732,147.118,2.928,-87.935
