elapsed_ms,acc_x_g,acc_y_g,acc_z_g,gyro_x_dps,gyro_y_dps,gyro_z_dps,angle_x_deg,angle_y_deg,angle_z_deg
0,-0.4507,0.3149,-0.8672,-3.296,1.709,-0.427,159.763,26.098,-55.091
10,-0.4502,0.3193,-0.8677,-3.540,1.404,-0.488,159.736,26.087,-55.080
20,-0.4546,0.3188,-0.8657,-3.357,1.038,-0.610,159.708,26.082,-55.069
30,-0.4531,0.3169,-0.8643,-3.052,0.793,-0.732,159.681,26.076,-55.058
40,-0.4536,0.3169,-0.8613,-2.686,0.427,-0.732,159.664,26.076,-55.047
50,-0.4497,0.3188,-0.8604,-2.319,-0.183,-0.732,159.642,26.082,-55.042
60,-0.4502,0.3140,-0.8555,-2.136,-0.488,-0.488,159.626,26.093,-55.036
70,-0.4492,0.3135,-0.8579,-2.136,-0.488,-0.244,159.604,26.098,-55.036
80,-0.4473,0.3145,-0.8589,-2.014,0.000,0.000,159.587,26.098,-55.036
90,-0.4434,0.3145,-0.8564,-1.831,0.427,0.122,159.571,26.093,-55.036
100,-0.4453,0.3130,-0.8584,-1.709,0.732,0.244,159.560,26.082,-55.036
110,-0.4502,0.3130,-0.8618,-1.770,0.793,0.427,159.549,26.076,-55.036
120,-0.4507,0.3159,-0.8604,-1.953,0.854,0.610,159.527,26.065,-55.042
130,-0.4512,0.3198,-0.8662,-1.953,0.793,0.854,159.510,26.054,-55.047
140,-0.4512,0.3223,-0.8706,-1.526,0.610,0.977,159.494,26.043,-55.052
150,-0.4492,0.3257,-0.8721,-0.854,0.305,1.099,159.483,26.032,-55.063
160,-0.4512,0.3276,-0.8774,-0.122,0.000,1.160,159.472,26.027,-55.080
170,-0.4512,0.3306,-0.8784,0.488,-0.427,1.282,159.472,26.021,-55.091
180,-0.4468,0.3325,-0.8779,0.732,-1.038,1.221,159.472,26.021,-55.107
190,-0.4409,0.3335,-0.8750,0.916,-1.770,0.977,159.467,26.027,-55.124
200,-0.4395,0.3354,-0.8716,0.854,-2.441,0.732,159.461,26.038,-55.146
210,-0.4404,0.3345,-0.8657,0.549,-2.930,0.366,159.456,26.060,-55.157
220,-0.4424,0.3364,-0.8613,0.122,-3.296,0.061,159.445,26.087,-55.173
230,-0.4434,0.3379,-0.8584,-0.305,-3.418,-0.183,159.428,26.115,-55.184
240,-0.4443,0.3354,-0.8477,-0.671,-3.357,-0.488,159.406,26.142,-55.190
250,-0.4453,0.3330,-0.8462,-0.977,-3.052,-0.732,159.384,26.175,-55.195
260,-0.4468,0.3345,-0.8447,-1.404,-2.625,-1.038,159.362,26.202,-55.195
270,-0.4492,0.3345,-0.8413,-1.831,-2.319,-1.038,159.335,26.230,-55.195
280,-0.4502,0.3311,-0.8364,-1.953,-2.014,-1.221,159.307,26.257,-55.190
290,-0.4468,0.3291,-0.8330,-2.197,-1.831,-1.343,159.280,26.279,-55.184
300,-0.4517,0.3257,-0.8311,-2.197,-1.526,-1.465,159.258,26.307,-55.173
310,-0.4541,0.3228,-0.8330,-2.258,-0.916,-1.404,159.236,26.323,-55.162
320,-0.4590,0.3228,-0.8340,-2.258,-0.061,-1.404,159.214,26.340,-55.146
330,-0.4629,0.3252,-0.8374,-2.441,0.977,-1.221,159.192,26.345,-55.129
341,-0.4604,0.3296,-0.8452,-2.319,1.709,-1.099,159.175,26.340,-55.113
350,-0.4561,0.3301,-0.8481,-1.648,2.136,-1.038,159.159,26.323,-55.091
360,-0.4497,0.3296,-0.8530,-1.160,1.953,-1.099,159.153,26.307,-55.074
370,-0.4478,0.3281,-0.8608,-0.793,1.526,-1.343,159.153,26.296,-55.052
380,-0.4458,0.3267,-0.8647,-1.099,1.038,-1.526,159.153,26.285,-55.036
390,-0.4463,0.3252,-0.8667,-1.648,0.854,-1.648,159.148,26.279,-55.014
400,-0.4478,0.3276,-0.8711,-2.258,0.793,-1.770,159.137,26.274,-54.992
410,-0.4502,0.3267,-0.8691,-2.747,0.549,-1.770,159.126,26.268,-54.970
420,-0.4502,0.3247,-0.8638,-2.747,0.122,-1.709,159.109,26.274,-54.954
430,-0.4502,0.3218,-0.8564,-2.625,-0.671,-1.648,159.093,26.285,-54.937
440,-0.4536,0.3198,-0.8486,-2.380,-1.404,-1.465,159.077,26.301,-54.926
450,-0.4546,0.3154,-0.8423,-2.136,-1.892,-1.343,159.060,26.329,-54.921
460,-0.4604,0.3115,-0.8384,-2.014,-1.892,-1.221,159.049,26.362,-54.915
470,-0.4644,0.3125,-0.8335,-2.136,-1.221,-1.038,159.033,26.389,-54.910
480,-0.4663,0.3115,-0.8345,-1.953,-0.122,-0.732,159.022,26.406,-54.904
490,-0.4629,0.3159,-0.8364,-1.587,1.038,-0.244,159.011,26.406,-54.899
500,-0.4590,0.3203,-0.8438,-0.916,1.892,0.183,159.005,26.395,-54.893
510,-0.4546,0.3223,-0.8501,0.183,2.319,0.549,159.011,26.373,-54.888
520,-0.4507,0.3198,-0.8530,1.099,2.319,0.793,159.027,26.345,-54.888
530,-0.4473,0.3198,-0.8599,1.099,1.831,0.793,159.044,26.323,-54.888
540,-0.4443,0.3252,-0.8696,0.427,1.282,0.793,159.055,26.301,-54.893
550,-0.4473,0.3306,-0.8745,-0.427,0.916,0.732,159.049,26.285,-54.893
560,-0.4468,0.3320,-0.8730,-0.854,0.671,0.732,159.038,26.268,-54.899
570,-0.4487,0.3335,-0.8696,-0.977,0.122,0.610,159.027,26.257,-54.904
580,-0.4463,0.3335,-0.8647,-0.793,-0.916,0.610,159.011,26.257,-54.915
590,-0.4478,0.3320,-0.8599,-0.488,-1.953,0.610,159.000,26.274,-54.932
600,-0.4502,0.3262,-0.8555,-0.244,-2.502,0.671,158.994,26.290,-54.948
610,-0.4517,0.3188,-0.8433,-0.366,-2.502,0.732,158.983,26.318,-54.965
620,-0.4536,0.3198,-0.8374,-0.854,-2.136,0.793,158.967,26.340,-54.981
630,-0.4580,0.3213,-0.8345,-1.465,-1.465,0.916,158.950,26.356,-54.998
641,-0.4595,0.3271,-0.8296,-1.465,-0.427,1.221,158.923,26.367,-55.014
651,-0.4604,0.3242,-0.8291,0.122,1.343,1.770,158.917,26.356,-55.025
661,-0.4570,0.3286,-0.8325,0.610,1.343,1.892,158.912,26.345,-55.036
670,-0.4551,0.3345,-0.8418,0.793,1.465,2.075,158.906,26.329,-55.052
680,-0.4570,0.3354,-0.8501,0.854,2.075,2.197,158.901,26.301,-55.069
690,-0.4575,0.3350,-0.8511,0.671,2.747,2.075,158.901,26.274,-55.080
700,-0.4551,0.3374,-0.8506,0.366,2.869,1.831,158.895,26.241,-55.085
711,-0.4551,0.3398,-0.8481,-0.061,2.319,1.587,158.884,26.213,-55.096
721,-0.4536,0.3442,-0.8521,-0.244,1.587,1.343,158.868,26.197,-55.102
731,-0.4531,0.3467,-0.8555,0.061,1.282,1.099,158.857,26.180,-55.107
741,-0.4502,0.3477,-0.8555,0.549,1.282,0.854,158.851,26.164,-55.113
751,-0.4478,0.3457,-0.8550,0.977,1.587,0.610,158.851,26.142,-55.113
761,-0.4448,0.3433,-0.8579,1.099,1.709,0.366,158.857,26.125,-55.107
771,-0.4458,0.3437,-0.8599,0.732,1.648,0.122,158.862,26.104,-55.102
781,-0.4443,0.3472,-0.8604,0.305,1.709,-0.183,158.862,26.082,-55.096
791,-0.4429,0.3511,-0.8647,0.305,1.831,-0.549,158.862,26.060,-55.080
801,-0.4429,0.3477,-0.8677,0.610,1.831,-0.916,158.868,26.043,-55.063
811,-0.4399,0.3472,-0.8682,0.916,1.465,-1.221,158.879,26.021,-55.047
821,-0.4404,0.3447,-0.8691,0.977,0.793,-1.465,158.890,26.016,-55.031
831,-0.4414,0.3418,-0.8672,0.854,0.122,-1.648,158.901,26.010,-55.009
841,-0.4434,0.3350,-0.8599,0.610,-0.427,-1.831,158.912,26.016,-54.992
851,-0.4453,0.3340,-0.8560,0.244,-0.732,-2.075,158.923,26.032,-54.976
861,-0.4463,0.3335,-0.8579,0.061,-0.610,-2.197,158.928,26.043,-54.954
871,-0.4492,0.3330,-0.8550,0.366,-0.122,-2.197,158.939,26.054,-54.932
881,-0.4502,0.3252,-0.8496,0.732,0.244,-2.197,158.961,26.060,-54.910
891,-0.4531,0.3218,-0.8467,0.916,0.305,-2.136,158.978,26.071,-54.882
901,-0.4531,0.3198,-0.8457,0.854,0.000,-2.014,159.000,26.082,-54.866
911,-0.4561,0.3174,-0.8462,0.854,-0.061,-1.709,159.022,26.098,-54.844
921,-0.4546,0.3154,-0.8438,0.916,0.183,-1.404,159.044,26.109,-54.833
931,-0.4517,0.3208,-0.8477,0.977,0.671,-1.099,159.060,26.109,-54.816
941,-0.4482,0.3242,-0.8540,1.404,1.282,-0.916,159.082,26.098,-54.800
951,-0.4463,0.3247,-0.8574,2.075,1.892,-0.671,159.109,26.082,-54.789
961,-0.4429,0.3203,-0.8574,2.441,2.136,-0.488,159.142,26.065,-54.772
971,-0.4409,0.3218,-0.8652,2.258,2.014,-0.427,159.175,26.038,-54.761
981,-0.4414,0.3223,-0.8711,1.770,1.770,-0.366,159.203,26.021,-54.750
991,-0.4404,0.3232,-0.8726,1.160,1.465,-0.305,159.225,25.999,-54.739
1001,-0.4395,0.3242,-0.8730,0.671,1.038,-0.305,159.236,25.983,-54.734
1011,-0.4414,0.3271,-0.8730,0.427,0.427,-0.366,159.247,25.977,-54.728
1021,-0.4429,0.3237,-0.8701,0.427,-0.244,-0.305,159.258,25.972,-54.728
1031,-0.4424,0.3208,-0.8667,0.488,-0.793,-0.305,159.263,25.977,-54.728
1041,-0.4453,0.3198,-0.8652,0.427,-1.160,-0.244,159.274,25.988,-54.728
1051,-0.4512,0.3179,-0.8594,0.244,-1.404,-0.122,159.280,26.005,-54.734
1061,-0.4502,0.3149,-0.8511,0.122,-1.526,0.061,159.280,26.021,-54.739
1071,-0.4521,0.3140,-0.8467,0.122,-1.587,0.244,159.280,26.043,-54.750
1081,-0.4531,0.3135,-0.8423,0.305,-1.465,0.549,159.280,26.060,-54.761
1091,-0.4551,0.3145,-0.8413,0.610,-1.160,0.793,159.285,26.076,-54.772
1101,-0.4536,0.3159,-0.8394,0.977,-0.610,1.099,159.291,26.087,-54.789
1111,-0.4556,0.3130,-0.8384,1.221,-0.061,1.343,159.296,26.087,-54.800
1121,-0.4575,0.3140,-0.8384,1.160,0.427,1.526,159.302,26.093,-54.816
1131,-0.4551,0.3179,-0.8423,0.977,0.916,1.709,159.307,26.082,-54.827
1141,-0.4512,0.3218,-0.8452,0.977,1.465,1.892,159.307,26.065,-54.844
1151,-0.4512,0.3218,-0.8472,0.977,1.770,2.014,159.313,26.049,-54.855
1161,-0.4478,0.3301,-0.8560,0.916,1.831,2.075,159.313,26.021,-54.871
1171,-0.4468,0.3354,-0.8608,1.099,1.892,2.075,159.307,25.999,-54.888
1181,-0.4443,0.3354,-0.8618,1.343,2.014,2.014,159.313,25.966,-54.899
1191,-0.4453,0.3340,-0.8618,1.343,1.831,1.770,159.313,25.944,-54.910
1201,-0.4443,0.3350,-0.8633,0.916,1.343,1.465,159.313,25.922,-54.921
1211,-0.4458,0.3389,-0.8657,0.366,1.038,1.099,159.307,25.906,-54.926
1221,-0.4438,0.3389,-0.8652,0.122,0.854,0.916,159.302,25.889,-54.932
1231,-0.4443,0.3369,-0.8594,-0.061,0.732,0.671,159.291,25.878,-54.937
1241,-0.4453,0.3350,-0.8535,-0.183,0.488,0.366,159.280,25.873,-54.937
1251,-0.4478,0.3320,-0.8491,-0.427,0.122,0.122,159.269,25.873,-54.943
1261,-0.4492,0.3301,-0.8433,-0.488,-0.061,0.061,159.258,25.878,-54.943
1271,-0.4492,0.3315,-0.8447,-0.488,0.305,0.183,159.247,25.884,-54.943
1281,-0.4497,0.3330,-0.8481,-0.122,1.282,0.183,159.241,25.873,-54.937
1291,-0.4497,0.3315,-0.8516,0.671,2.502,0.244,159.241,25.851,-54.932
1301,-0.4487,0.3296,-0.8589,1.343,3.601,0.305,159.258,25.818,-54.921
1311,-0.4453,0.3320,-0.8618,0.916,4.517,0.732,159.269,25.774,-54.910
1321,-0.4414,0.3296,-0.8647,0.793,5.066,0.793,159.280,25.724,-54.899
1331,-0.4395,0.3267,-0.8647,0.671,5.127,0.671,159.291,25.670,-54.888
1341,-0.4424,0.3271,-0.8643,0.244,4.639,0.244,159.302,25.626,-54.871
1351,-0.4395,0.3315,-0.8677,0.183,3.601,-0.122,159.307,25.587,-54.855
1361,-0.4360,0.3320,-0.8691,0.366,2.441,-0.244,159.313,25.560,-54.844
1371,-0.4351,0.3301,-0.8716,0.793,1.343,-0.427,159.329,25.543,-54.833
1381,-0.4370,0.3291,-0.8691,1.099,0.305,-0.732,159.340,25.543,-54.822
1391,-0.4404,0.3267,-0.8721,1.221,-0.427,-0.916,159.357,25.549,-54.816
1401,-0.4375,0.3267,-0.8706,1.099,-0.732,-0.854,159.373,25.554,-54.811
1411,-0.4355,0.3232,-0.8677,1.038,-0.671,-0.732,159.384,25.560,-54.805
1421,-0.4365,0.3203,-0.8633,1.099,-0.549,-0.732,159.401,25.565,-54.800
1431,-0.4351,0.3193,-0.8604,1.099,-0.671,-0.671,159.417,25.571,-54.794
1441,-0.4360,0.3179,-0.8589,1.099,-0.793,-0.671,159.434,25.582,-54.789
1451,-0.4390,0.3149,-0.8550,1.099,-0.977,-0.427,159.445,25.593,-54.789
1461,-0.4399,0.3130,-0.8496,0.916,-0.916,-0.244,159.456,25.604,-54.794
1471,-0.4429,0.3110,-0.8491,0.549,-0.793,-0.122,159.467,25.615,-54.794
1481,-0.4458,0.3154,-0.8506,0.244,-0.488,0.061,159.472,25.626,-54.794
1491,-0.4473,0.3169,-0.8550,0.427,0.183,0.366,159.478,25.631,-54.800
1501,-0.4463,0.3145,-0.8555,0.732,0.732,0.549,159.483,25.626,-54.800
1511,-0.4463,0.3149,-0.8530,0.977,0.793,0.610,159.494,25.620,-54.805
1521,-0.4419,0.3198,-0.8608,0.977,0.610,0.732,159.505,25.615,-54.811
1531,-0.4424,0.3218,-0.8633,1.038,0.488,0.916,159.510,25.604,-54.816
1541,-0.4409,0.3228,-0.8618,1.160,0.488,0.977,159.521,25.598,-54.827
1551,-0.4404,0.3242,-0.8618,1.038,0.427,0.916,159.527,25.593,-54.833
1561,-0.4399,0.3262,-0.8633,0.793,0.305,0.793,159.527,25.582,-54.844
1571,-0.4385,0.3296,-0.8677,0.732,0.366,0.671,159.527,25.576,-54.849
1581,-0.4399,0.3286,-0.8662,0.854,0.366,0.549,159.532,25.565,-54.849
1591,-0.4399,0.3311,-0.8706,0.793,0.122,0.366,159.532,25.565,-54.855
1601,-0.4380,0.3340,-0.8711,0.549,-0.244,0.244,159.532,25.560,-54.860
1611,-0.4375,0.3306,-0.8701,0.549,-0.488,0.183,159.532,25.560,-54.860
1621,-0.4360,0.3267,-0.8662,0.549,-0.549,0.061,159.538,25.560,-54.866
1631,-0.4385,0.3262,-0.8633,0.305,-0.610,-0.183,159.538,25.565,-54.866
1641,-0.4409,0.3257,-0.8623,-0.122,-0.732,-0.427,159.532,25.576,-54.866
1651,-0.4414,0.3228,-0.8604,-0.366,-0.854,-0.488,159.532,25.587,-54.860
1661,-0.4429,0.3242,-0.8584,-0.427,-1.038,-0.427,159.521,25.598,-54.860
1671,-0.4429,0.3242,-0.8564,-0.183,-0.977,-0.366,159.521,25.609,-54.860
1681,-0.4438,0.3208,-0.8560,0.366,-0.854,-0.305,159.521,25.620,-54.860
1691,-0.4438,0.3159,-0.8506,0.793,-0.671,-0.183,159.532,25.637,-54.860
1701,-0.4453,0.3154,-0.8516,0.732,-0.427,-0.122,159.538,25.642,-54.860
1711,-0.4458,0.3174,-0.8525,0.366,-0.305,-0.061,159.543,25.653,-54.860
1721,-0.4434,0.3159,-0.8511,0.061,-0.244,0.061,159.543,25.659,-54.866
1731,-0.4419,0.3159,-0.8506,-0.183,-0.061,0.183,159.543,25.659,-54.866
1741,-0.4434,0.3164,-0.8521,-0.244,0.061,0.244,159.538,25.664,-54.871
1751,-0.4414,0.3208,-0.8579,-0.305,0.366,0.366,159.532,25.659,-54.871
1761,-0.4414,0.3223,-0.8613,0.061,0.793,0.488,159.532,25.648,-54.871
1771,-0.4414,0.3203,-0.8599,0.366,1.160,0.610,159.538,25.637,-54.877
1781,-0.4390,0.3228,-0.8638,0.366,1.160,0.671,159.538,25.620,-54.877
1791,-0.4385,0.3267,-0.8696,0.366,0.854,0.671,159.538,25.609,-54.882
1801,-0.4380,0.3267,-0.8711,0.488,0.549,0.732,159.543,25.598,-54.888
1811,-0.4370,0.3271,-0.8730,0.549,0.183,0.671,159.543,25.587,-54.893
1821,-0.4365,0.3291,-0.8745,0.427,-0.183,0.549,159.543,25.582,-54.899
1831,-0.4370,0.3267,-0.8726,0.366,-0.671,0.366,159.543,25.582,-54.904
1842,-0.4404,0.3257,-0.8691,0.122,-1.221,0.122,159.543,25.593,-54.910
1851,-0.4419,0.3262,-0.8647,-0.305,-1.587,0.000,159.532,25.604,-54.921
1861,-0.4429,0.3242,-0.8599,-0.610,-1.892,-0.183,159.521,25.626,-54.926
1871,-0.4438,0.3218,-0.8540,-0.793,-2.014,-0.305,159.510,25.648,-54.926
1881,-0.4419,0.3203,-0.8496,-0.977,-2.075,-0.305,159.500,25.670,-54.932
1891,-0.4453,0.3223,-0.8472,-1.038,-1.892,-0.183,159.483,25.692,-54.937
1901,-0.4458,0.3213,-0.8477,-0.671,-1.404,0.061,159.472,25.714,-54.943
1913,-0.4448,0.3208,-0.8428,-0.183,-0.610,0.183,159.467,25.724,-54.948
1921,-0.4473,0.3169,-0.8442,0.244,-0.061,0.244,159.467,25.730,-54.954
1931,-0.4468,0.3164,-0.8447,0.244,0.122,0.305,159.467,25.735,-54.954
1941,-0.4507,0.3218,-0.8511,-0.122,0.366,0.427,159.461,25.735,-54.959
1951,-0.4502,0.3237,-0.8496,-0.305,0.793,0.549,159.456,25.730,-54.959
1961,-0.4458,0.3228,-0.8516,-0.244,1.038,0.488,159.450,25.724,-54.959
1971,-0.4458,0.3223,-0.8555,-0.366,1.099,0.366,159.445,25.714,-54.959
1981,-0.4473,0.3242,-0.8628,-0.732,0.977,0.183,159.439,25.708,-54.959
1991,-0.4463,0.3247,-0.8667,-1.099,0.977,0.122,159.428,25.697,-54.954
2001,-0.4443,0.3237,-0.8691,-1.648,0.732,0.061,159.417,25.692,-54.954
2011,-0.4390,0.3262,-0.8706,-1.953,0.183,-0.061,159.395,25.686,-54.954
2021,-0.4365,0.3296,-0.8711,-1.953,-0.732,-0.183,159.373,25.686,-54.954
2031,-0.4316,0.3306,-0.8726,-1.587,-1.404,-0.122,159.357,25.692,-54.959
2041,-0.4287,0.3271,-0.8730,-0.854,-1.648,0.061,159.346,25.697,-54.965
2051,-0.4272,0.3242,-0.8672,-0.427,-1.709,0.122,159.340,25.703,-54.970
2061,-0.4316,0.3242,-0.8628,-0.427,-1.648,0.305,159.335,25.708,-54.981
2071,-0.4360,0.3218,-0.8594,-0.854,-1.648,0.549,159.318,25.719,-54.992
2081,-0.4414,0.3242,-0.8540,-1.221,-1.465,0.732,159.302,25.730,-55.009
2091,-0.4463,0.3276,-0.8486,-1.160,-1.160,0.916,159.280,25.746,-55.020
2101,-0.4507,0.3276,-0.8472,-0.793,-0.793,0.977,159.263,25.752,-55.036
2111,-0.4507,0.3286,-0.8462,-0.305,-0.488,0.977,159.247,25.763,-55.047
2121,-0.4512,0.3267,-0.8472,0.244,-0.305,1.038,159.241,25.768,-55.058
2131,-0.4497,0.3271,-0.8486,0.610,-0.122,1.160,159.241,25.768,-55.069
2141,-0.4482,0.3291,-0.8525,0.732,0.183,1.099,159.241,25.768,-55.080
2151,-0.4478,0.3325,-0.8555,0.732,0.488,0.977,159.236,25.763,-55.091
2161,-0.4468,0.3345,-0.8564,0.732,0.793,0.793,159.236,25.752,-55.096
2171,-0.4468,0.3364,-0.8618,0.549,0.916,0.610,159.236,25.746,-55.096
2181,-0.4473,0.3398,-0.8628,0.427,0.854,0.427,159.230,25.735,-55.102
2191,-0.4424,0.3384,-0.8643,0.427,0.549,0.122,159.230,25.724,-55.096
2201,-0.4424,0.3394,-0.8657,0.366,0.183,-0.183,159.230,25.724,-55.096
2211,-0.4443,0.3374,-0.8623,0.305,-0.305,-0.610,159.230,25.724,-55.091
2221,-0.4434,0.3335,-0.8589,0.061,-0.732,-0.854,159.225,25.735,-55.085
2231,-0.4414,0.3311,-0.8574,-0.427,-1.038,-1.160,159.225,25.752,-55.074
2241,-0.4414,0.3301,-0.8579,-0.793,-0.977,-1.221,159.214,25.763,-55.069
2251,-0.4419,0.3301,-0.8525,-0.732,-0.671,-1.221,159.208,25.774,-55.058
2261,-0.4443,0.3286,-0.8486,-0.366,-0.244,-1.038,159.208,25.779,-55.047
2271,-0.4434,0.3257,-0.8481,0.122,0.061,-0.854,159.208,25.785,-55.042
2281,-0.4463,0.3228,-0.8511,0.549,0.244,-0.671,159.219,25.790,-55.031
2291,-0.4482,0.3203,-0.8521,0.610,0.488,-0.549,159.230,25.790,-55.025
2301,-0.4502,0.3203,-0.8545,0.427,0.671,-0.427,159.236,25.790,-55.014
2311,-0.4478,0.3242,-0.8535,0.244,0.977,-0.427,159.247,25.785,-55.009
2321,-0.4458,0.3223,-0.8545,0.122,1.160,-0.366,159.252,25.779,-54.998
2331,-0.4434,0.3247,-0.8545,0.183,1.160,-0.366,159.252,25.774,-54.992
2342,-0.4409,0.3237,-0.8579,0.244,0.854,-0.305,159.263,25.763,-54.987
2351,-0.4429,0.3237,-0.8613,0.305,0.488,-0.183,159.269,25.757,-54.981
2361,-0.4414,0.3252,-0.8652,0.366,0.366,-0.061,159.274,25.752,-54.981
2371,-0.4395,0.3237,-0.8662,0.427,0.305,0.000,159.280,25.746,-54.976
2381,-0.4414,0.3228,-0.8652,0.366,0.183,0.000,159.285,25.746,-54.976
2391,-0.4419,0.3252,-0.8662,0.122,-0.122,0.061,159.291,25.741,-54.976
2401,-0.4409,0.3257,-0.8643,0.061,-0.305,0.061,159.291,25.741,-54.981
2411,-0.4404,0.3247,-0.8604,0.122,-0.305,0.122,159.291,25.746,-54.981
2421,-0.4414,0.3237,-0.8569,0.244,-0.427,0.183,159.291,25.746,-54.987
2431,-0.4414,0.3232,-0.8555,0.305,-0.549,0.183,159.291,25.752,-54.992
2441,-0.4448,0.3223,-0.8545,0.244,-0.610,0.305,159.291,25.757,-54.998
2451,-0.4434,0.3262,-0.8550,0.122,-0.427,0.427,159.291,25.763,-55.003
2461,-0.4429,0.3296,-0.8574,0.305,0.061,0.488,159.285,25.757,-55.009
2471,-0.4453,0.3267,-0.8564,0.488,0.549,0.549,159.291,25.752,-55.009
2481,-0.4468,0.3237,-0.8555,0.488,0.671,0.488,159.291,25.746,-55.014
2491,-0.4473,0.3228,-0.8521,0.244,0.305,0.427,159.291,25.746,-55.014
2501,-0.4473,0.3281,-0.8555,-0.183,-0.122,0.427,159.285,25.752,-55.020
2511,-0.4463,0.3320,-0.8584,-0.244,0.000,0.488,159.274,25.752,-55.025
2521,-0.4487,0.3296,-0.8579,0.305,0.488,0.427,159.274,25.746,-55.031
2531,-0.4468,0.3262,-0.8521,0.732,0.916,0.305,159.280,25.741,-55.031
2541,-0.4448,0.3262,-0.8550,0.732,0.793,0.183,159.285,25.735,-55.025
2551,-0.4438,0.3325,-0.8613,0.549,0.671,0.183,159.291,25.730,-55.025
2561,-0.4409,0.3330,-0.8633,0.427,0.671,0.183,159.291,25.719,-55.025
2571,-0.4414,0.3320,-0.8623,0.427,0.610,0.000,159.291,25.714,-55.025
2581,-0.4429,0.3325,-0.8638,0.305,0.366,-0.244,159.291,25.708,-55.020
2591,-0.4424,0.3335,-0.8657,0.122,0.122,-0.427,159.291,25.708,-55.014
2601,-0.4424,0.3306,-0.8687,0.061,0.061,-0.488,159.296,25.703,-55.009
2611,-0.4409,0.3330,-0.8667,0.061,0.122,-0.610,159.296,25.703,-55.003
2621,-0.4414,0.3320,-0.8682,0.305,0.000,-0.732,159.296,25.703,-54.992
2631,-0.4390,0.3301,-0.8657,0.488,-0.427,-0.793,159.302,25.703,-54.987
2641,-0.4390,0.3252,-0.8638,0.671,-0.854,-0.732,159.313,25.714,-54.981
2651,-0.4419,0.3218,-0.8604,0.671,-1.282,-0.732,159.324,25.724,-54.981
2661,-0.4438,0.3184,-0.8540,0.305,-1.465,-0.732,159.329,25.746,-54.981
2671,-0.4478,0.3174,-0.8501,-0.122,-1.404,-0.793,159.329,25.768,-54.976
2681,-0.4468,0.3184,-0.8472,-0.549,-1.099,-0.671,159.329,25.785,-54.976
2691,-0.4468,0.3174,-0.8457,-0.549,-0.671,-0.488,159.324,25.796,-54.970
2701,-0.4473,0.3174,-0.8452,-0.244,-0.183,-0.244,159.324,25.807,-54.970
2711,-0.4478,0.3149,-0.8457,0.244,0.244,0.061,159.329,25.807,-54.970
2721,-0.4492,0.3174,-0.8472,0.610,0.488,0.305,159.335,25.807,-54.970
2731,-0.4478,0.3218,-0.8521,0.732,0.793,0.488,159.340,25.801,-54.970
2741,-0.4448,0.3242,-0.8574,0.793,1.221,0.610,159.346,25.790,-54.976
2751,-0.4429,0.3257,-0.8618,0.916,1.587,0.610,159.357,25.774,-54.976
2761,-0.4409,0.3286,-0.8643,0.854,1.648,0.549,159.362,25.752,-54.976
2771,-0.4404,0.3311,-0.8687,0.671,1.404,0.488,159.368,25.735,-54.970
2781,-0.4424,0.3335,-0.8726,0.549,0.916,0.366,159.368,25.719,-54.976
2791,-0.4419,0.3335,-0.8706,0.427,0.488,0.244,159.373,25.714,-54.976
2801,-0.4395,0.3315,-0.8682,0.183,-0.061,0.000,159.368,25.708,-54.976
2811,-0.4419,0.3311,-0.8667,0.000,-0.671,-0.244,159.368,25.714,-54.976
2821,-0.4414,0.3320,-0.8652,-0.183,-0.977,-0.366,159.362,25.719,-54.976
2831,-0.4434,0.3296,-0.8599,-0.122,-0.916,-0.549,159.357,25.730,-54.970
2842,-0.4443,0.3267,-0.8579,-0.122,-0.610,-0.671,159.357,25.741,-54.965
2851,-0.4473,0.3213,-0.8491,-0.183,-0.488,-0.732,159.357,25.752,-54.959
2861,-0.4468,0.3184,-0.8452,-0.305,-0.488,-0.671,159.357,25.763,-54.959
2871,-0.4478,0.3213,-0.8472,-0.305,-0.549,-0.549,159.351,25.779,-54.954
2881,-0.4473,0.3213,-0.8501,-0.061,0.000,-0.305,159.351,25.785,-54.948
2891,-0.4473,0.3198,-0.8501,0.366,0.732,-0.183,159.357,25.779,-54.943
2901,-0.4463,0.3188,-0.8540,0.488,1.282,-0.122,159.368,25.774,-54.937
2911,-0.4438,0.3218,-0.8594,0.305,1.404,-0.061,159.373,25.763,-54.932
2921,-0.4409,0.3242,-0.8599,0.061,1.221,-0.061,159.379,25.746,-54.926
2931,-0.4395,0.3242,-0.8657,-0.122,0.977,-0.061,159.379,25.735,-54.921
2941,-0.4395,0.3262,-0.8687,-0.305,0.610,-0.122,159.379,25.724,-54.921
2951,-0.4355,0.3296,-0.8706,-0.183,0.488,-0.061,159.379,25.719,-54.915
2961,-0.4355,0.3286,-0.8755,0.183,0.366,0.000,159.379,25.708,-54.915
2971,-0.4360,0.3262,-0.8726,0.366,0.122,0.061,159.384,25.697,-54.915
2981,-0.4380,0.3276,-0.8706,0.305,-0.305,0.000,159.384,25.697,-54.915
2991,-0.4399,0.3252,-0.8687,0.183,-0.854,0.000,159.390,25.703,-54.921
3001,-0.4438,0.3218,-0.8604,0.000,-1.282,0.061,159.384,25.714,-54.926
3011,-0.4473,0.3213,-0.8564,-0.183,-1.587,0.061,159.384,25.730,-54.932
3021,-0.4487,0.3228,-0.8501,-0.305,-1.831,0.000,159.373,25.752,-54.937
3031,-0.4478,0.3242,-0.8496,-0.061,-1.709,0.000,159.368,25.774,-54.948
3041,-0.4468,0.3223,-0.8472,0.305,-1.221,0.122,159.368,25.790,-54.954
3051,-0.4492,0.3218,-0.8472,0.671,-0.671,0.305,159.368,25.801,-54.959
3061,-0.4448,0.3228,-0.8452,0.793,-0.183,0.427,159.373,25.807,-54.965
3071,-0.4463,0.3228,-0.8486,0.793,0.122,0.427,159.373,25.807,-54.965
3081,-0.4468,0.3223,-0.8530,0.732,0.549,0.549,159.379,25.801,-54.970
3091,-0.4478,0.3232,-0.8574,0.549,0.916,0.488,159.384,25.796,-54.970
3101,-0.4487,0.3271,-0.8560,0.305,0.854,0.366,159.384,25.790,-54.970
3111,-0.4458,0.3281,-0.8569,0.061,0.427,0.244,159.384,25.785,-54.976
3121,-0.4448,0.3311,-0.8608,-0.061,-0.061,0.122,159.379,25.785,-54.976
3131,-0.4424,0.3311,-0.8584,0.061,-0.427,0.000,159.373,25.785,-54.976
3141,-0.4414,0.3291,-0.8589,0.122,-0.610,-0.244,159.368,25.790,-54.976
3151,-0.4419,0.3291,-0.8594,0.061,-0.671,-0.427,159.368,25.801,-54.976
3161,-0.4434,0.3311,-0.8633,-0.305,-0.671,-0.549,159.362,25.807,-54.970
3171,-0.4429,0.3291,-0.8604,-0.610,-0.732,-0.671,159.357,25.812,-54.970
3181,-0.4434,0.3306,-0.8584,-0.977,-0.977,-0.916,159.346,25.823,-54.959
3191,-0.4463,0.3320,-0.8623,-1.404,-1.343,-1.099,159.329,25.840,-54.954
3201,-0.4492,0.3311,-0.8608,-1.526,-1.465,-1.282,159.313,25.862,-54.948
3211,-0.4497,0.3271,-0.8623,-1.404,-1.282,-1.343,159.302,25.878,-54.937
3221,-0.4473,0.3252,-0.8608,-1.221,-1.099,-1.343,159.296,25.895,-54.932
3231,-0.4487,0.3252,-0.8584,-0.977,-1.160,-1.404,159.291,25.911,-54.921
3241,-0.4468,0.3267,-0.8604,-0.793,-1.465,-1.343,159.285,25.928,-54.910
3251,-0.4468,0.3247,-0.8579,-0.610,-1.770,-1.160,159.280,25.950,-54.904
3261,-0.4443,0.3228,-0.8569,-0.427,-1.709,-1.038,159.280,25.966,-54.904
3271,-0.4434,0.3247,-0.8550,-0.305,-1.404,-0.977,159.274,25.983,-54.899
3281,-0.4463,0.3237,-0.8550,-0.122,-0.977,-0.854,159.274,25.994,-54.893
3291,-0.4482,0.3213,-0.8521,-0.061,-0.488,-0.671,159.280,26.005,-54.888
3301,-0.4478,0.3203,-0.8535,-0.183,-0.366,-0.549,159.280,26.010,-54.882
3311,-0.4492,0.3223,-0.8516,-0.366,-0.488,-0.427,159.280,26.021,-54.882
3321,-0.4507,0.3252,-0.8501,-0.427,-0.488,-0.366,159.274,26.032,-54.877
3331,-0.4507,0.3232,-0.8506,-0.305,-0.549,-0.366,159.269,26.038,-54.877
3342,-0.4517,0.3198,-0.8481,-0.305,-0.610,-0.366,159.269,26.049,-54.877
3351,-0.4502,0.3228,-0.8501,-0.488,-0.671,-0.427,159.263,26.060,-54.871
3361,-0.4482,0.3267,-0.8525,-0.549,-0.366,-0.366,159.258,26.065,-54.871
3371,-0.4492,0.3276,-0.8550,-0.305,0.122,-0.122,159.252,26.065,-54.871
3381,-0.4492,0.3247,-0.8530,0.061,0.549,-0.122,159.252,26.065,-54.866
3391,-0.4487,0.3218,-0.8506,0.244,0.732,-0.122,159.258,26.060,-54.860
3401,-0.4473,0.3232,-0.8540,0.061,0.549,-0.061,159.258,26.054,-54.860
3411,-0.4463,0.3286,-0.8574,-0.122,0.488,-0.061,159.258,26.049,-54.855
3421,-0.4482,0.3286,-0.8594,-0.122,0.549,-0.061,159.252,26.043,-54.855
3431,-0.4482,0.3276,-0.8604,-0.061,0.732,-0.061,159.252,26.038,-54.849
3441,-0.4463,0.3267,-0.8604,-0.183,0.488,-0.305,159.252,26.032,-54.844
3451,-0.4443,0.3276,-0.8623,-0.549,0.061,-0.366,159.252,26.027,-54.844
3461,-0.4443,0.3281,-0.8633,-0.732,-0.183,-0.366,159.241,26.027,-54.838
3471,-0.4473,0.3257,-0.8589,-0.549,-0.244,-0.305,159.241,26.032,-54.838
3481,-0.4487,0.3237,-0.8555,-0.305,-0.305,-0.305,159.236,26.038,-54.833
3491,-0.4487,0.3252,-0.8560,-0.244,-0.427,-0.305,159.236,26.043,-54.833
3501,-0.4473,0.3213,-0.8540,-0.122,-0.549,-0.183,159.236,26.049,-54.833
3511,-0.4468,0.3193,-0.8496,-0.122,-0.488,-0.061,159.236,26.054,-54.833
3521,-0.4468,0.3208,-0.8501,-0.305,-0.366,0.000,159.230,26.060,-54.833
3531,-0.4473,0.3237,-0.8550,-0.427,-0.061,0.061,159.230,26.060,-54.838
3541,-0.4478,0.3228,-0.8545,-0.183,0.366,0.183,159.225,26.054,-54.838
3551,-0.4478,0.3218,-0.8540,0.061,0.732,0.244,159.230,26.049,-54.838
3561,-0.4458,0.3193,-0.8521,0.000,0.793,0.305,159.230,26.043,-54.838
3571,-0.4482,0.3232,-0.8574,-0.244,0.427,0.366,159.230,26.038,-54.838
3581,-0.4502,0.3247,-0.8584,-0.366,0.183,0.427,159.225,26.032,-54.844
3591,-0.4492,0.3267,-0.8594,-0.366,0.122,0.549,159.219,26.032,-54.849
3601,-0.4497,0.3247,-0.8560,-0.244,0.061,0.427,159.214,26.032,-54.849
3611,-0.4478,0.3267,-0.8564,-0.183,-0.061,0.366,159.208,26.032,-54.855
3621,-0.4487,0.3262,-0.8545,-0.122,-0.183,0.427,159.203,26.032,-54.860
3631,-0.4487,0.3247,-0.8516,-0.183,-0.305,0.488,159.197,26.032,-54.866
3641,-0.4502,0.3267,-0.8457,-0.366,-0.305,0.427,159.192,26.038,-54.871
3651,-0.4478,0.3296,-0.8496,-0.610,-0.305,0.427,159.175,26.043,-54.877
3661,-0.4468,0.3330,-0.8516,-0.366,0.061,0.427,159.164,26.038,-54.882
3671,-0.4497,0.3301,-0.8525,0.122,0.610,0.549,159.164,26.032,-54.888
3681,-0.4463,0.3315,-0.8540,0.427,0.977,0.549,159.164,26.021,-54.888
3691,-0.4468,0.3335,-0.8564,0.610,1.221,0.427,159.164,26.010,-54.888
3701,-0.4478,0.3315,-0.8589,0.671,1.038,0.366,159.170,25.999,-54.888
3712,-0.4468,0.3311,-0.8594,0.610,0.549,0.244,159.170,25.988,-54.888
3721,-0.4497,0.3311,-0.8584,0.244,0.000,0.000,159.170,25.988,-54.888
3732,-0.4517,0.3311,-0.8599,-0.061,-0.488,-0.122,159.170,25.999,-54.888
3741,-0.4478,0.3301,-0.8564,-0.122,-0.793,-0.244,159.164,26.005,-54.888
3752,-0.4492,0.3276,-0.8521,-0.061,-0.854,-0.366,159.164,26.016,-54.888
3762,-0.4497,0.3262,-0.8477,-0.061,-0.793,-0.427,159.159,26.027,-54.888
3772,-0.4512,0.3237,-0.8472,-0.122,-0.549,-0.488,159.159,26.038,-54.882
3782,-0.4492,0.3252,-0.8433,-0.305,-0.305,-0.427,159.153,26.049,-54.882
3792,-0.4473,0.3237,-0.8433,-0.305,0.061,-0.366,159.153,26.054,-54.877
3802,-0.4502,0.3267,-0.8447,-0.244,0.427,-0.305,159.148,26.054,-54.871
3812,-0.4492,0.3247,-0.8486,-0.061,1.038,-0.183,159.148,26.049,-54.866
3822,-0.4502,0.3252,-0.8525,0.183,1.709,-0.061,159.153,26.032,-54.860
3831,-0.4478,0.3281,-0.8599,0.488,2.075,0.061,159.164,26.010,-54.849
3842,-0.4492,0.3291,-0.8662,0.793,1.953,0.122,159.175,25.994,-54.844
3851,-0.4448,0.3281,-0.8667,0.977,1.404,0.122,159.186,25.977,-54.838
3862,-0.4438,0.3271,-0.8623,0.916,0.610,0.061,159.197,25.966,-54.838
3872,-0.4443,0.3291,-0.8643,0.488,-0.244,-0.061,159.203,25.966,-54.838
3882,-0.4424,0.3335,-0.8667,0.366,-0.488,-0.122,159.203,25.966,-54.838
3892,-0.4424,0.3330,-0.8706,0.549,-0.183,-0.305,159.208,25.966,-54.838
3902,-0.4453,0.3301,-0.8687,0.549,0.244,-0.488,159.214,25.961,-54.833
3914,-0.4468,0.3281,-0.8643,0.244,0.183,-0.610,159.219,25.961,-54.822
3922,-0.4473,0.3271,-0.8608,-0.305,-0.549,-0.610,159.219,25.966,-54.822
3932,-0.4482,0.3281,-0.8574,-0.671,-1.404,-0.610,159.208,25.983,-54.816
3942,-0.4487,0.3281,-0.8530,-0.610,-1.953,-0.610,159.203,26.005,-54.822
3952,-0.4468,0.3296,-0.8535,-0.244,-1.892,-0.671,159.197,26.021,-54.822
3962,-0.4458,0.3271,-0.8501,0.366,-1.343,-0.671,159.197,26.038,-54.822
3972,-0.4448,0.3252,-0.8477,0.854,-0.671,-0.549,159.203,26.049,-54.816
3982,-0.4473,0.3223,-0.8501,0.854,-0.244,-0.488,159.214,26.054,-54.811
3992,-0.4497,0.3242,-0.8496,0.549,0.000,-0.427,159.219,26.060,-54.805
4002,-0.4502,0.3262,-0.8530,0.183,0.183,-0.427,159.225,26.060,-54.800
4012,-0.4507,0.3271,-0.8540,0.183,0.427,-0.366,159.225,26.060,-54.794
4022,-0.4526,0.3286,-0.8550,0.244,0.610,-0.427,159.230,26.054,-54.789
4032,-0.4502,0.3301,-0.8555,0.305,0.366,-0.549,159.230,26.054,-54.783
4042,-0.4492,0.3311,-0.8594,0.427,0.244,-0.549,159.236,26.054,-54.778
4052,-0.4473,0.3281,-0.8623,0.610,0.305,-0.610,159.247,26.054,-54.767
4062,-0.4492,0.3267,-0.8638,0.549,0.305,-0.671,159.252,26.049,-54.761
4072,-0.4497,0.3257,-0.8604,0.183,0.183,-0.793,159.258,26.054,-54.750
4082,-0.4482,0.3262,-0.8594,-0.061,-0.244,-0.916,159.263,26.054,-54.745
4092,-0.4492,0.3247,-0.8540,-0.183,-0.549,-0.793,159.263,26.065,-54.739
4102,-0.4492,0.3218,-0.8530,-0.122,-0.793,-0.671,159.263,26.076,-54.734
4112,-0.4497,0.3218,-0.8521,0.061,-0.793,-0.671,159.269,26.087,-54.728
4122,-0.4507,0.3198,-0.8496,0.305,-0.549,-0.610,159.274,26.098,-54.723
4132,-0.4492,0.3184,-0.8486,0.366,-0.183,-0.427,159.280,26.104,-54.723
4142,-0.4497,0.3179,-0.8481,0.183,0.122,-0.305,159.285,26.109,-54.717
4152,-0.4487,0.3188,-0.8491,-0.122,0.244,-0.122,159.285,26.109,-54.717
4162,-0.4487,0.3179,-0.8540,-0.244,0.366,0.000,159.285,26.104,-54.712
4172,-0.4487,0.3184,-0.8545,-0.122,0.488,0.183,159.291,26.104,-54.712
4182,-0.4502,0.3198,-0.8535,0.122,0.549,0.366,159.291,26.098,-54.717
4192,-0.4487,0.3228,-0.8574,0.244,0.610,0.549,159.291,26.093,-54.717
4202,-0.4478,0.3257,-0.8613,0.366,0.671,0.732,159.296,26.082,-54.723
4212,-0.4453,0.3262,-0.8608,0.671,0.671,0.793,159.296,26.065,-54.728
4222,-0.4458,0.3252,-0.8613,0.793,0.549,0.732,159.302,26.060,-54.734
4232,-0.4492,0.3267,-0.8647,0.549,0.122,0.671,159.307,26.054,-54.739
4242,-0.4492,0.3276,-0.8652,0.244,-0.366,0.610,159.302,26.054,-54.750
4252,-0.4458,0.3276,-0.8657,0.183,-0.671,0.549,159.302,26.054,-54.756
4262,-0.4468,0.3271,-0.8608,0.183,-0.977,0.427,159.302,26.060,-54.756
4272,-0.4478,0.3301,-0.8535,0.000,-1.221,0.305,159.291,26.071,-54.756
4282,-0.4482,0.3315,-0.8550,-0.122,-1.160,0.244,159.280,26.082,-54.756
4292,-0.4492,0.3296,-0.8555,0.061,-0.610,0.244,159.274,26.087,-54.756
4302,-0.4492,0.3291,-0.8501,0.305,-0.183,0.183,159.274,26.087,-54.756
4312,-0.4521,0.3267,-0.8481,0.305,0.000,0.061,159.274,26.093,-54.756
4322,-0.4541,0.3252,-0.8447,0.122,-0.061,0.000,159.274,26.098,-54.756
4332,-0.4526,0.3252,-0.8462,0.000,-0.122,0.000,159.269,26.104,-54.756
4342,-0.4517,0.3262,-0.8452,0.061,-0.122,0.061,159.263,26.109,-54.756
4352,-0.4526,0.3276,-0.8452,0.122,0.061,0.061,159.263,26.109,-54.756
4362,-0.4502,0.3311,-0.8506,0.244,0.549,0.061,159.258,26.109,-54.756
4372,-0.4487,0.3311,-0.8545,0.732,1.221,0.000,159.263,26.098,-54.756
4382,-0.4497,0.3296,-0.8530,1.038,1.709,0.000,159.274,26.082,-54.756
4392,-0.4478,0.3267,-0.8511,0.854,1.587,-0.183,159.285,26.065,-54.756
4402,-0.4478,0.3271,-0.8574,0.427,0.854,-0.366,159.291,26.060,-54.756
4412,-0.4478,0.3311,-0.8613,0.000,0.183,-0.488,159.285,26.060,-54.756
4422,-0.4473,0.3311,-0.8628,-0.061,0.122,-0.549,159.285,26.060,-54.756
4432,-0.4487,0.3281,-0.8613,0.122,0.366,-0.671,159.291,26.054,-54.756
4442,-0.4458,0.3286,-0.8633,0.244,0.549,-0.793,159.296,26.049,-54.756
4452,-0.4463,0.3271,-0.8667,0.366,0.488,-0.916,159.307,26.043,-54.756
4462,-0.4453,0.3228,-0.8647,0.549,0.244,-0.793,159.318,26.043,-54.756
4472,-0.4458,0.3193,-0.8584,0.488,-0.244,-0.732,159.329,26.049,-54.756
4482,-0.4453,0.3174,-0.8540,0.305,-0.793,-0.732,159.335,26.060,-54.756
4492,-0.4463,0.3164,-0.8491,-0.122,-1.282,-0.671,159.335,26.071,-54.756
4502,-0.4478,0.3188,-0.8486,-0.305,-1.160,-0.549,159.335,26.087,-54.756
4512,-0.4487,0.3188,-0.8506,-0.122,-0.427,-0.366,159.335,26.093,-54.756
4522,-0.4482,0.3164,-0.8506,0.061,0.305,-0.244,159.340,26.093,-54.756
4532,-0.4482,0.3184,-0.8486,0.000,0.610,-0.122,159.346,26.093,-54.756
4542,-0.4478,0.3208,-0.8516,0.000,0.610,0.061,159.346,26.087,-54.756
4552,-0.4492,0.3208,-0.8589,0.061,0.549,0.305,159.346,26.082,-54.756
4562,-0.4497,0.3213,-0.8584,0.122,0.610,0.366,159.346,26.076,-54.756
4572,-0.4492,0.3252,-0.8604,0.061,0.671,0.366,159.346,26.065,-54.756
4582,-0.4468,0.3281,-0.8623,0.122,0.671,0.305,159.346,26.060,-54.756
4592,-0.4463,0.3262,-0.8628,0.122,0.671,0.244,159.346,26.049,-54.756
4602,-0.4492,0.3242,-0.8574,0.000,0.488,0.122,159.346,26.043,-54.756
4612,-0.4517,0.3267,-0.8604,-0.427,0.061,0.000,159.340,26.043,-54.756
4622,-0.4526,0.3296,-0.8604,-0.610,-0.183,-0.122,159.335,26.049,-54.756
4632,-0.4526,0.3291,-0.8584,-0.488,-0.122,-0.122,159.324,26.049,-54.756
4642,-0.4502,0.3271,-0.8521,-0.183,-0.061,-0.183,159.318,26.054,-54.756
4652,-0.4507,0.3252,-0.8481,-0.061,-0.183,-0.366,159.318,26.060,-54.756
4662,-0.4517,0.3223,-0.8511,-0.122,-0.305,-0.427,159.318,26.071,-54.756
4672,-0.4536,0.3203,-0.8467,-0.366,-0.366,-0.305,159.313,26.076,-54.756
4682,-0.4536,0.3198,-0.8472,-0.488,0.000,-0.305,159.313,26.087,-54.756
4692,-0.4541,0.3223,-0.8457,-0.549,0.366,-0.244,159.307,26.087,-54.756
4702,-0.4517,0.3242,-0.8491,-0.244,0.793,-0.122,159.302,26.087,-54.756
4712,-0.4512,0.3247,-0.8521,0.366,1.160,0.061,159.307,26.076,-54.756
4722,-0.4497,0.3242,-0.8511,0.916,1.404,0.244,159.313,26.065,-54.756
4732,-0.4478,0.3247,-0.8560,1.099,1.465,0.244,159.329,26.049,-54.756
4742,-0.4448,0.3276,-0.8618,0.977,1.404,0.183,159.335,26.032,-54.756
4752,-0.4438,0.3276,-0.8618,0.549,1.160,0.122,159.340,26.021,-54.756
4762,-0.4424,0.3276,-0.8652,0.061,0.916,-0.061,159.346,26.005,-54.756
4772,-0.4419,0.3301,-0.8667,-0.366,0.732,-0.183,159.340,25.994,-54.756
4782,-0.4404,0.3320,-0.8672,-0.549,0.549,-0.305,159.335,25.983,-54.756
4792,-0.4404,0.3315,-0.8652,-0.366,0.366,-0.366,159.329,25.977,-54.756
4802,-0.4429,0.3301,-0.8652,-0.244,0.061,-0.427,159.329,25.972,-54.756
4812,-0.4438,0.3267,-0.8652,-0.244,-0.244,-0.549,159.324,25.972,-54.756
4822,-0.4458,0.3247,-0.8628,-0.305,-0.610,-0.488,159.324,25.983,-54.756
4832,-0.4478,0.3228,-0.8599,-0.366,-0.854,-0.488,159.324,25.988,-54.756
4842,-0.4463,0.3223,-0.8579,-0.549,-1.038,-0.488,159.318,25.999,-54.756
4852,-0.4478,0.3213,-0.8555,-0.488,-0.977,-0.427,159.313,26.010,-54.756
4862,-0.4487,0.3203,-0.8521,-0.305,-0.732,-0.305,159.313,26.021,-54.756
4872,-0.4512,0.3184,-0.8496,-0.061,-0.427,-0.122,159.313,26.032,-54.756
4882,-0.4497,0.3184,-0.8481,0.061,-0.244,0.000,159.313,26.038,-54.756
4892,-0.4492,0.3184,-0.8501,0.061,-0.122,0.183,159.318,26.043,-54.756
4902,-0.4497,0.3198,-0.8530,0.000,-0.061,0.305,159.318,26.043,-54.756
4912,-0.4468,0.3218,-0.8506,0.000,0.061,0.366,159.313,26.043,-54.756
4922,-0.4458,0.3237,-0.8560,-0.061,0.244,0.488,159.313,26.038,-54.756
4932,-0.4468,0.3257,-0.8564,0.061,0.488,0.488,159.307,26.032,-54.756
4942,-0.4453,0.3276,-0.8594,0.305,0.671,0.488,159.307,26.021,-54.756
4952,-0.4448,0.3262,-0.8569,0.305,0.610,0.488,159.307,26.010,-54.756
4962,-0.4473,0.3252,-0.8530,0.000,0.305,0.488,159.307,26.010,-54.756
4972,-0.4482,0.3257,-0.8540,-0.427,-0.061,0.427,159.296,26.010,-54.756
4982,-0.4482,0.3286,-0.8550,-0.793,0.000,0.488,159.285,26.010,-54.756
4992,-0.4492,0.3291,-0.8545,-0.610,0.244,0.427,159.274,26.005,-54.756
5002,-0.4517,0.3252,-0.8506,-0.366,0.488,0.488,159.269,26.005,-54.756
5012,-0.4531,0.3228,-0.8447,-0.183,0.671,0.427,159.263,25.999,-54.756
5022,-0.4517,0.3203,-0.8428,-0.183,0.427,0.488,159.258,25.999,-54.756
5032,-0.4507,0.3232,-0.8452,-0.488,0.244,0.610,159.247,26.005,-54.756
5042,-0.4492,0.3281,-0.8525,-0.549,0.671,0.671,159.241,25.994,-54.756
5052,-0.4487,0.3281,-0.8574,0.000,1.587,0.793,159.236,25.977,-54.756
5062,-0.4453,0.3267,-0.8599,0.549,2.502,0.793,159.241,25.950,-54.756
5072,-0.4468,0.3291,-0.8633,0.732,2.747,0.671,159.252,25.922,-54.756
5082,-0.4458,0.3291,-0.8662,0.610,2.136,0.732,159.258,25.900,-54.756
5092,-0.4434,0.3320,-0.8672,0.183,1.282,0.793,159.252,25.878,-54.756
5102,-0.4419,0.3340,-0.8735,0.061,0.488,0.671,159.252,25.867,-54.756
5112,-0.4409,0.3335,-0.8677,0.183,0.122,0.488,159.247,25.856,-54.756
5122,-0.4424,0.3315,-0.8662,0.366,-0.183,0.244,159.247,25.856,-54.756
5132,-0.4429,0.3301,-0.8638,0.122,-0.549,0.000,159.247,25.856,-54.756
5142,-0.4448,0.3301,-0.8618,-0.366,-0.977,-0.183,159.241,25.867,-54.756
5152,-0.4453,0.3306,-0.8569,-0.793,-1.221,-0.305,159.230,25.878,-54.756
5162,-0.4482,0.3296,-0.8486,-0.854,-1.160,-0.305,159.214,25.895,-54.756
5172,-0.4502,0.3262,-0.8433,-0.671,-0.916,-0.366,159.203,25.911,-54.756
5182,-0.4482,0.3271,-0.8438,-0.366,-0.732,-0.366,159.197,25.922,-54.756
5192,-0.4482,0.3276,-0.8447,-0.122,-0.427,-0.244,159.192,25.933,-54.756
5202,-0.4468,0.3267,-0.8457,0.244,0.305,-0.122,159.192,25.933,-54.756
5212,-0.4482,0.3281,-0.8491,0.549,0.977,0.000,159.197,25.928,-54.756
5222,-0.4487,0.3267,-0.8511,0.732,1.526,-0.122,159.203,25.917,-54.756
5232,-0.4473,0.3281,-0.8530,0.671,1.648,-0.122,159.214,25.900,-54.756
5242,-0.4478,0.3330,-0.8604,0.549,1.648,-0.183,159.219,25.889,-54.756
5252,-0.4448,0.3359,-0.8608,0.549,1.648,-0.244,159.219,25.873,-54.756
5262,-0.4434,0.3330,-0.8618,0.732,1.404,-0.427,159.230,25.856,-54.756
5272,-0.4438,0.3306,-0.8643,0.671,0.977,-0.732,159.241,25.851,-54.756
5282,-0.4424,0.3276,-0.8638,0.427,0.366,-0.977,159.247,25.845,-54.756
5292,-0.4429,0.3315,-0.8667,-0.122,0.122,-1.099,159.252,25.845,-54.745
5302,-0.4424,0.3330,-0.8682,-0.305,0.244,-1.099,159.252,25.845,-54.734
5312,-0.4424,0.3315,-0.8667,0.000,0.366,-1.099,159.252,25.840,-54.723
5322,-0.4424,0.3271,-0.8667,0.488,0.366,-1.160,159.263,25.840,-54.706
5332,-0.4419,0.3242,-0.8652,0.977,0.122,-1.160,159.285,25.840,-54.695
5342,-0.4434,0.3223,-0.8613,0.977,-0.427,-1.099,159.296,25.845,-54.684
5352,-0.4438,0.3198,-0.8569,0.610,-0.916,-1.038,159.313,25.856,-54.679
5362,-0.4438,0.3193,-0.8569,0.061,-1.160,-0.977,159.318,25.873,-54.673
5372,-0.4429,0.3174,-0.8545,-0.244,-0.977,-0.977,159.318,25.884,-54.668
5382,-0.4419,0.3184,-0.8521,-0.305,-0.610,-0.916,159.324,25.895,-54.657
5392,-0.4443,0.3179,-0.8525,-0.183,-0.305,-0.793,159.324,25.900,-54.651
5402,-0.4473,0.3140,-0.8525,0.061,-0.122,-0.549,159.329,25.906,-54.646
5412,-0.4473,0.3130,-0.8506,0.244,0.000,-0.305,159.340,25.911,-54.641
5422,-0.4468,0.3149,-0.8540,0.305,-0.122,-0.061,159.346,25.917,-54.641
5432,-0.4458,0.3169,-0.8560,0.305,-0.122,0.183,159.351,25.917,-54.646
5442,-0.4458,0.3174,-0.8564,0.305,0.000,0.427,159.357,25.917,-54.651
5452,-0.4463,0.3218,-0.8569,0.427,0.244,0.610,159.362,25.911,-54.657
5462,-0.4458,0.3223,-0.8555,0.671,0.366,0.671,159.362,25.906,-54.662
5472,-0.4463,0.3257,-0.8579,0.854,0.244,0.732,159.368,25.906,-54.668
5482,-0.4448,0.3267,-0.8584,0.916,0.061,0.793,159.373,25.900,-54.673
5492,-0.4463,0.3257,-0.8579,0.854,-0.122,0.732,159.373,25.900,-54.684
5502,-0.4468,0.3262,-0.8569,0.549,-0.244,0.671,159.373,25.900,-54.690
5512,-0.4448,0.3281,-0.8569,0.244,-0.366,0.549,159.373,25.900,-54.701
5522,-0.4458,0.3315,-0.8540,0.061,-0.427,0.488,159.362,25.906,-54.706
5532,-0.4482,0.3301,-0.8535,0.061,-0.366,0.427,159.357,25.906,-54.712
5542,-0.4487,0.3296,-0.8506,0.061,-0.244,0.305,159.351,25.911,-54.717
5552,-0.4468,0.3306,-0.8525,0.244,0.000,0.244,159.346,25.911,-54.717
5562,-0.4453,0.3281,-0.8511,0.488,0.305,0.183,159.346,25.911,-54.717
5572,-0.4487,0.3247,-0.8496,0.549,0.488,0.122,159.346,25.906,-54.717
5582,-0.4487,0.3281,-0.8506,0.366,0.610,0.061,159.346,25.906,-54.717
5592,-0.4492,0.3311,-0.8569,0.366,0.854,-0.061,159.351,25.900,-54.712
5602,-0.4482,0.3296,-0.8574,0.488,1.160,-0.122,159.351,25.889,-54.706
5612,-0.4468,0.3281,-0.8608,0.610,1.160,-0.305,159.357,25.878,-54.701
5622,-0.4478,0.3291,-0.8604,0.549,0.732,-0.427,159.362,25.878,-54.690
5632,-0.4458,0.3296,-0.8594,0.366,0.122,-0.549,159.368,25.878,-54.684
5642,-0.4438,0.3281,-0.8594,0.244,-0.305,-0.671,159.368,25.878,-54.679
5652,-0.4434,0.3291,-0.8623,0.122,-0.183,-0.732,159.373,25.884,-54.673
5662,-0.4463,0.3271,-0.8633,0.305,0.183,-0.854,159.379,25.884,-54.662
5672,-0.4448,0.3242,-0.8613,0.488,0.610,-0.977,159.390,25.878,-54.651
5682,-0.4448,0.3232,-0.8618,0.366,0.671,-1.099,159.395,25.878,-54.635
5692,-0.4443,0.3218,-0.8628,0.183,0.366,-1.099,159.406,25.878,-54.624
5702,-0.4448,0.3198,-0.8594,0.000,-0.244,-0.977,159.412,25.884,-54.613
5712,-0.4443,0.3188,-0.8589,0.000,-0.671,-0.854,159.417,25.889,-54.608
5722,-0.4448,0.3184,-0.8521,0.061,-0.977,-0.793,159.423,25.906,-54.602
5732,-0.4458,0.3145,-0.8496,0.000,-0.916,-0.671,159.423,25.917,-54.602
5742,-0.4478,0.3154,-0.8491,-0.183,-0.610,-0.427,159.428,25.928,-54.597
5752,-0.4478,0.3193,-0.8486,-0.366,0.061,-0.244,159.423,25.933,-54.597
5762,-0.4487,0.3193,-0.8467,-0.244,0.793,-0.061,159.423,25.928,-54.591
5772,-0.4507,0.3193,-0.8481,-0.061,1.343,0.000,159.423,25.922,-54.586
5782,-0.4502,0.3228,-0.8530,0.061,1.465,0.122,159.423,25.911,-54.580
5792,-0.4497,0.3223,-0.8550,0.183,1.343,0.183,159.428,25.900,-54.580
5802,-0.4507,0.3223,-0.8560,0.244,1.099,0.244,159.428,25.895,-54.575
5812,-0.4468,0.3262,-0.8589,0.061,0.854,0.183,159.428,25.884,-54.575
5822,-0.4438,0.3286,-0.8608,0.000,0.671,0.122,159.423,25.878,-54.575
5832,-0.4448,0.3276,-0.8569,0.000,0.610,0.061,159.423,25.873,-54.575
5843,-0.4438,0.3262,-0.8584,-0.122,0.732,-0.061,159.423,25.867,-54.569
5852,-0.4448,0.3276,-0.8589,-0.427,0.732,-0.183,159.417,25.856,-54.564
5862,-0.4453,0.3271,-0.8564,-0.427,0.732,-0.305,159.412,25.851,-54.558
5872,-0.4458,0.3276,-0.8545,-0.549,0.610,-0.366,159.401,25.851,-54.553
5882,-0.4482,0.3252,-0.8555,-0.610,0.549,-0.427,159.395,25.851,-54.547
5892,-0.4453,0.3232,-0.8560,-0.488,0.488,-0.488,159.395,25.845,-54.536
5902,-0.4443,0.3198,-0.8560,-0.488,0.610,-0.549,159.395,25.845,-54.531
5915,-0.4438,0.3228,-0.8540,-0.488,0.732,-0.488,159.395,25.840,-54.520
5922,-0.4463,0.3208,-0.8555,-0.610,0.732,-0.488,159.390,25.834,-54.514
5932,-0.4473,0.3193,-0.8535,-0.610,0.793,-0.366,159.390,25.834,-54.509
5942,-0.4463,0.3208,-0.8535,-0.427,0.854,-0.183,159.384,25.829,-54.503
5952,-0.4448,0.3198,-0.8550,-0.366,0.916,-0.061,159.384,25.823,-54.498
5962,-0.4443,0.3237,-0.8579,-0.122,1.160,0.000,159.384,25.812,-54.492
5972,-0.4443,0.3232,-0.8608,0.000,1.465,0.122,159.390,25.796,-54.487
5982,-0.4443,0.3218,-0.8638,0.000,1.648,0.122,159.390,25.779,-54.481
5992,-0.4404,0.3232,-0.8657,-0.244,1.526,0.061,159.395,25.763,-54.476
6002,-0.4404,0.3252,-0.8701,-0.549,1.160,0.061,159.390,25.752,-54.476
6012,-0.4409,0.3262,-0.8687,-0.793,0.732,0.061,159.384,25.741,-54.470
6022,-0.4404,0.3257,-0.8696,-0.793,0.305,0.061,159.379,25.730,-54.470
6032,-0.4424,0.3228,-0.8662,-0.671,-0.061,0.122,159.373,25.730,-54.470
6042,-0.4443,0.3242,-0.8667,-0.549,-0.366,0.122,159.368,25.735,-54.476
6052,-0.4409,0.3267,-0.8647,-0.366,-0.549,0.183,159.362,25.735,-54.481
6062,-0.4390,0.3262,-0.8662,-0.122,-0.549,0.244,159.357,25.735,-54.487
6072,-0.4395,0.3223,-0.8604,-0.061,-0.610,0.244,159.357,25.741,-54.487
6082,-0.4409,0.3218,-0.8613,-0.305,-0.793,0.305,159.351,25.746,-54.498
6092,-0.4434,0.3242,-0.8555,-0.610,-0.732,0.366,159.340,25.752,-54.503
6102,-0.4424,0.3252,-0.8564,-0.549,-0.427,0.549,159.329,25.752,-54.509
6112,-0.4448,0.3242,-0.8540,-0.244,-0.122,0.610,159.324,25.752,-54.514
6122,-0.4434,0.3247,-0.8521,-0.061,0.061,0.671,159.318,25.752,-54.525
6132,-0.4438,0.3247,-0.8545,0.000,0.061,0.671,159.313,25.752,-54.531
6142,-0.4434,0.3242,-0.8545,-0.061,0.061,0.732,159.313,25.752,-54.536
6152,-0.4438,0.3286,-0.8569,-0.244,0.061,0.732,159.302,25.746,-54.547
6162,-0.4453,0.3296,-0.8560,-0.366,0.061,0.549,159.291,25.746,-54.553
6172,-0.4458,0.3291,-0.8589,-0.427,0.000,0.488,159.285,25.746,-54.553
6182,-0.4463,0.3306,-0.8550,-0.427,-0.122,0.427,159.274,25.746,-54.558
6192,-0.4448,0.3276,-0.8540,-0.427,-0.305,0.366,159.263,25.752,-54.564
6202,-0.4458,0.3325,-0.8579,-0.488,-0.244,0.305,159.252,25.752,-54.569
6212,-0.4443,0.3369,-0.8569,-0.305,0.244,0.305,159.241,25.752,-54.569
6222,-0.4434,0.3320,-0.8564,0.122,0.671,0.305,159.236,25.741,-54.575
6232,-0.4409,0.3296,-0.8550,0.305,0.732,0.183,159.236,25.735,-54.569
6242,-0.4424,0.3296,-0.8569,0.183,0.305,0.061,159.236,25.730,-54.569
6252,-0.4468,0.3325,-0.8599,-0.244,0.061,0.000,159.230,25.735,-54.569
6262,-0.4478,0.3335,-0.8599,-0.366,0.244,-0.061,159.225,25.735,-54.569
6272,-0.4438,0.3311,-0.8599,-0.183,0.488,-0.244,159.219,25.730,-54.564
6282,-0.4414,0.3301,-0.8579,0.000,0.549,-0.427,159.219,25.724,-54.558
6292,-0.4404,0.3296,-0.8604,0.061,0.183,-0.488,159.225,25.724,-54.553
6302,-0.4404,0.3262,-0.8633,0.244,-0.061,-0.427,159.230,25.724,-54.547
6312,-0.4395,0.3247,-0.8608,0.305,-0.183,-0.366,159.230,25.724,-54.542
6322,-0.4399,0.3237,-0.8594,0.183,-0.305,-0.427,159.236,25.724,-54.542
6332,-0.4424,0.3237,-0.8574,-0.061,-0.427,-0.427,159.241,25.735,-54.536
6343,-0.4458,0.3237,-0.8569,-0.305,-0.427,-0.366,159.236,25.741,-54.536
6352,-0.4478,0.3218,-0.8516,-0.488,-0.244,-0.244,159.236,25.746,-54.536
6362,-0.4502,0.3223,-0.8516,-0.488,0.000,-0.183,159.230,25.752,-54.531
6372,-0.4473,0.3232,-0.8521,-0.305,0.122,-0.061,159.225,25.757,-54.531
6382,-0.4473,0.3237,-0.8535,0.061,0.183,0.061,159.230,25.757,-54.531
6392,-0.4448,0.3228,-0.8545,0.366,0.244,0.183,159.230,25.757,-54.531
6402,-0.4448,0.3232,-0.8545,0.610,0.366,0.244,159.236,25.757,-54.536
6412,-0.4414,0.3247,-0.8564,0.549,0.488,0.244,159.241,25.752,-54.536
6422,-0.4385,0.3286,-0.8584,0.366,0.732,0.305,159.247,25.741,-54.536
6432,-0.4385,0.3306,-0.8618,0.366,0.977,0.366,159.247,25.724,-54.536
6442,-0.4414,0.3311,-0.8628,0.427,1.221,0.366,159.247,25.714,-54.536
6452,-0.4424,0.3301,-0.8638,0.488,1.160,0.244,159.252,25.697,-54.531
6462,-0.4414,0.3315,-0.8657,0.366,0.732,0.122,159.252,25.692,-54.531
6472,-0.4443,0.3320,-0.8672,0.122,0.244,0.000,159.252,25.686,-54.531
6482,-0.4424,0.3301,-0.8613,0.061,-0.183,-0.305,159.252,25.686,-54.525
6492,-0.4419,0.3281,-0.8599,-0.061,-0.244,-0.488,159.252,25.692,-54.520
6502,-0.4409,0.3320,-0.8594,-0.122,-0.244,-0.488,159.252,25.697,-54.520
6512,-0.4404,0.3296,-0.8569,0.061,0.000,-0.427,159.252,25.697,-54.514
6522,-0.4424,0.3281,-0.8545,0.366,0.183,-0.366,159.252,25.697,-54.509
6532,-0.4424,0.3247,-0.8540,0.488,0.183,-0.427,159.258,25.697,-54.503
6542,-0.4419,0.3247,-0.8530,0.366,0.183,-0.427,159.263,25.697,-54.498
6552,-0.4424,0.3232,-0.8545,0.183,0.244,-0.305,159.269,25.697,-54.492
6562,-0.4438,0.3247,-0.8540,0.000,0.488,-0.244,159.269,25.697,-54.492
6572,-0.4443,0.3232,-0.8550,-0.122,0.732,-0.244,159.269,25.692,-54.487
6582,-0.4448,0.3262,-0.8555,-0.122,0.793,-0.183,159.269,25.692,-54.481
6592,-0.4429,0.3262,-0.8608,0.000,0.977,-0.061,159.269,25.681,-54.476
6602,-0.4429,0.3247,-0.8599,0.366,1.160,0.183,159.274,25.670,-54.470
6612,-0.4419,0.3237,-0.8604,0.488,1.099,0.244,159.285,25.659,-54.470
6622,-0.4409,0.3228,-0.8594,0.366,0.854,0.122,159.291,25.653,-54.470
6632,-0.4409,0.3257,-0.8623,0.061,0.488,0.122,159.291,25.642,-54.470
6642,-0.4409,0.3267,-0.8647,0.061,0.427,0.183,159.291,25.637,-54.470
6652,-0.4380,0.3276,-0.8677,0.244,0.488,0.244,159.291,25.631,-54.470
6662,-0.4365,0.3286,-0.8672,0.488,0.366,0.183,159.296,25.620,-54.470
6672,-0.4341,0.3286,-0.8691,0.671,-0.061,0.122,159.302,25.615,-54.470
6682,-0.4365,0.3267,-0.8682,0.610,-0.427,0.122,159.307,25.615,-54.476
6692,-0.4390,0.3267,-0.8662,0.305,-0.671,0.122,159.307,25.620,-54.476
6702,-0.4419,0.3276,-0.8643,0.061,-0.793,0.061,159.307,25.626,-54.476
6712,-0.4424,0.3281,-0.8613,-0.183,-0.977,0.061,159.302,25.637,-54.476
6722,-0.4429,0.3257,-0.8560,-0.183,-1.099,0.000,159.296,25.648,-54.476
6732,-0.4443,0.3242,-0.8521,-0.183,-1.160,0.000,159.291,25.659,-54.476
6742,-0.4443,0.3242,-0.8477,-0.122,-1.160,0.061,159.285,25.675,-54.476
6752,-0.4448,0.3242,-0.8477,-0.061,-0.977,0.122,159.280,25.686,-54.476
6762,-0.4453,0.3218,-0.8467,0.122,-0.488,0.183,159.280,25.697,-54.476
6772,-0.4468,0.3237,-0.8467,0.305,0.183,0.305,159.280,25.697,-54.476
6782,-0.4453,0.3228,-0.8496,0.427,0.671,0.366,159.285,25.697,-54.476
6792,-0.4438,0.3247,-0.8521,0.427,0.977,0.427,159.285,25.686,-54.476
6802,-0.4429,0.3276,-0.8613,0.366,1.038,0.427,159.291,25.675,-54.476
6812,-0.4429,0.3301,-0.8604,0.366,0.977,0.427,159.291,25.664,-54.476
6822,-0.4414,0.3315,-0.8589,0.488,0.671,0.366,159.291,25.659,-54.476
6832,-0.4409,0.3330,-0.8608,0.427,0.427,0.244,159.291,25.653,-54.476
6843,-0.4409,0.3330,-0.8652,0.366,0.305,0.122,159.291,25.648,-54.476
6852,-0.4404,0.3306,-0.8643,0.366,0.427,-0.061,159.291,25.642,-54.476
6862,-0.4404,0.3301,-0.8628,0.244,0.427,-0.305,159.291,25.637,-54.476
6872,-0.4414,0.3301,-0.8608,0.000,0.122,-0.488,159.291,25.637,-54.476
6882,-0.4409,0.3301,-0.8613,-0.183,-0.488,-0.549,159.291,25.642,-54.476
6892,-0.4395,0.3325,-0.8594,-0.122,-0.671,-0.488,159.285,25.648,-54.476
6902,-0.4404,0.3281,-0.8589,0.244,-0.549,-0.488,159.285,25.653,-54.476
6912,-0.4434,0.3223,-0.8535,0.488,-0.305,-0.549,159.296,25.664,-54.476
6922,-0.4453,0.3198,-0.8491,0.305,-0.305,-0.610,159.302,25.675,-54.476
6932,-0.4448,0.3169,-0.8467,-0.244,-0.549,-0.488,159.302,25.686,-54.476
6942,-0.4463,0.3154,-0.8418,-0.916,-0.549,-0.427,159.296,25.697,-54.476
6952,-0.4487,0.3203,-0.8442,-1.160,-0.183,-0.244,159.285,25.708,-54.476
6962,-0.4473,0.3257,-0.8467,-0.732,0.671,0.000,159.274,25.708,-54.476
6972,-0.4448,0.3223,-0.8486,0.366,1.587,0.183,159.280,25.697,-54.476
6982,-0.4448,0.3232,-0.8525,1.221,2.197,0.305,159.291,25.681,-54.476
6992,-0.4443,0.3247,-0.8613,1.404,2.319,0.366,159.307,25.659,-54.476
7002,-0.4390,0.3271,-0.8701,1.160,2.136,0.427,159.324,25.631,-54.476
7012,-0.4360,0.3301,-0.8701,0.793,1.770,0.427,159.329,25.609,-54.476
7022,-0.4375,0.3315,-0.8721,0.366,1.221,0.183,159.335,25.593,-54.476
7032,-0.4365,0.3330,-0.8706,0.000,0.671,0.000,159.335,25.582,-54.476
7042,-0.4370,0.3364,-0.8711,-0.244,0.366,-0.244,159.329,25.571,-54.476
7052,-0.4375,0.3340,-0.8696,0.000,0.244,-0.366,159.324,25.565,-54.476
7062,-0.4390,0.3281,-0.8667,0.122,0.000,-0.610,159.329,25.565,-54.476
7072,-0.4380,0.3276,-0.8638,0.000,-0.366,-0.793,159.329,25.571,-54.476
7082,-0.4419,0.3257,-0.8618,-0.183,-0.793,-0.916,159.329,25.582,-54.476
7092,-0.4419,0.3237,-0.8604,-0.427,-0.977,-0.854,159.329,25.598,-54.476
7102,-0.4429,0.3213,-0.8545,-0.610,-0.977,-0.854,159.329,25.609,-54.476
7112,-0.4438,0.3203,-0.8525,-0.549,-0.854,-0.732,159.324,25.626,-54.476
7122,-0.4443,0.3193,-0.8496,-0.305,-0.610,-0.610,159.324,25.637,-54.476
7132,-0.4434,0.3184,-0.8516,0.183,-0.244,-0.366,159.329,25.648,-54.476
7142,-0.4434,0.3169,-0.8501,0.549,0.061,-0.183,159.335,25.648,-54.476
7152,-0.4424,0.3169,-0.8555,0.610,0.244,0.000,159.346,25.648,-54.476
7162,-0.4434,0.3198,-0.8545,0.549,0.488,0.183,159.351,25.648,-54.476
7172,-0.4434,0.3198,-0.8564,0.488,0.732,0.305,159.362,25.642,-54.476
7182,-0.4404,0.3257,-0.8608,0.366,0.854,0.305,159.362,25.631,-54.476
7192,-0.4390,0.3306,-0.8638,0.549,0.916,0.305,159.368,25.620,-54.476
7202,-0.4395,0.3276,-0.8662,0.671,0.916,0.305,159.373,25.609,-54.476
7212,-0.4390,0.3276,-0.8696,0.671,0.671,0.183,159.379,25.598,-54.476
7222,-0.4399,0.3301,-0.8677,0.366,0.122,0.122,159.379,25.593,-54.476
7232,-0.4399,0.3306,-0.8687,0.061,-0.488,-0.061,159.379,25.598,-54.476
7242,-0.4390,0.3301,-0.8643,-0.244,-1.038,-0.122,159.373,25.604,-54.476
7252,-0.4419,0.3296,-0.8613,-0.244,-1.160,-0.183,159.362,25.615,-54.476
7262,-0.4419,0.3276,-0.8569,-0.061,-1.099,-0.305,159.362,25.626,-54.476
7272,-0.4404,0.3252,-0.8530,0.183,-0.977,-0.244,159.357,25.637,-54.476
7282,-0.4419,0.3232,-0.8521,0.244,-0.793,-0.244,159.362,25.648,-54.476
7292,-0.4443,0.3213,-0.8516,0.183,-0.488,-0.122,159.362,25.659,-54.476
7302,-0.4473,0.3198,-0.8501,0.122,-0.122,0.000,159.362,25.664,-54.476
7312,-0.4458,0.3213,-0.8501,0.000,0.183,0.122,159.362,25.670,-54.476
7322,-0.4434,0.3237,-0.8496,-0.061,0.488,0.183,159.357,25.664,-54.476
7332,-0.4438,0.3271,-0.8501,0.183,0.854,0.305,159.357,25.659,-54.476
7343,-0.4448,0.3247,-0.8530,0.549,1.099,0.366,159.362,25.653,-54.476
7352,-0.4453,0.3218,-0.8555,0.671,1.038,0.549,159.368,25.642,-54.476
7362,-0.4424,0.3232,-0.8560,0.610,0.916,0.549,159.373,25.637,-54.476
7372,-0.4438,0.3257,-0.8574,0.244,0.793,0.488,159.368,25.626,-54.476
7382,-0.4409,0.3296,-0.8613,0.061,0.977,0.488,159.368,25.615,-54.476
7392,-0.4404,0.3286,-0.8652,0.183,1.282,0.427,159.368,25.598,-54.476
7402,-0.4399,0.3281,-0.8652,0.427,1.465,0.305,159.373,25.582,-54.476
7412,-0.4390,0.3306,-0.8682,0.427,1.282,0.183,159.373,25.571,-54.476
7422,-0.4360,0.3311,-0.8682,0.305,0.732,0.122,159.379,25.560,-54.476
7432,-0.4365,0.3301,-0.8687,0.122,0.183,0.061,159.373,25.554,-54.476
7442,-0.4390,0.3306,-0.8677,0.000,-0.122,-0.061,159.373,25.549,-54.476
7452,-0.4419,0.3296,-0.8677,-0.061,-0.122,-0.305,159.373,25.554,-54.476
7462,-0.4414,0.3286,-0.8667,-0.122,-0.122,-0.488,159.373,25.554,-54.476
7472,-0.4390,0.3257,-0.8657,-0.183,-0.183,-0.610,159.373,25.554,-54.476
7482,-0.4395,0.3247,-0.8628,-0.244,-0.488,-0.610,159.373,25.560,-54.476
7492,-0.4395,0.3208,-0.8579,-0.244,-0.854,-0.488,159.373,25.571,-54.476
7502,-0.4390,0.3228,-0.8535,-0.183,-0.977,-0.366,159.368,25.582,-54.476
7512,-0.4409,0.3208,-0.8501,0.000,-0.671,-0.244,159.368,25.593,-54.476
7522,-0.4419,0.3159,-0.8486,0.061,-0.305,-0.061,159.373,25.604,-54.476
7532,-0.4434,0.3169,-0.8477,-0.061,0.183,0.000,159.373,25.604,-54.476
7542,-0.4438,0.3203,-0.8486,-0.305,0.732,0.183,159.368,25.604,-54.476
7552,-0.4458,0.3223,-0.8491,-0.366,1.099,0.305,159.362,25.598,-54.476
7562,-0.4448,0.3237,-0.8535,-0.183,1.282,0.427,159.362,25.587,-54.476
7572,-0.4414,0.3271,-0.8574,0.000,1.465,0.549,159.357,25.571,-54.476
7582,-0.4399,0.3276,-0.8628,0.305,1.587,0.549,159.362,25.554,-54.476
7592,-0.4404,0.3286,-0.8682,0.366,1.587,0.488,159.362,25.538,-54.476
7602,-0.4365,0.3291,-0.8735,-0.061,1.648,0.549,159.362,25.516,-54.476
7612,-0.4365,0.3301,-0.8721,-0.793,1.953,0.671,159.357,25.488,-54.476
7622,-0.4346,0.3330,-0.8687,-1.526,2.319,0.732,159.335,25.461,-54.476
7632,-0.4355,0.3301,-0.8682,-1.343,2.502,0.427,159.324,25.433,-54.476
7642,-0.4365,0.3335,-0.8647,-1.282,2.502,0.244,159.307,25.406,-54.476
7652,-0.4370,0.3340,-0.8628,-0.732,2.014,0.000,159.302,25.389,-54.476
7662,-0.4375,0.3271,-0.8608,-0.305,1.282,-0.244,159.302,25.378,-54.476
7672,-0.4375,0.3262,-0.8613,-0.366,0.366,-0.305,159.296,25.373,-54.476
7682,-0.4375,0.3232,-0.8584,-0.427,-0.244,-0.366,159.296,25.378,-54.476
7692,-0.4390,0.3218,-0.8584,-0.549,-0.366,-0.488,159.296,25.389,-54.476
7702,-0.4375,0.3237,-0.8594,-0.610,-0.122,-0.488,159.291,25.389,-54.476
7712,-0.4395,0.3242,-0.8628,-0.549,0.305,-0.427,159.291,25.389,-54.476
7722,-0.4385,0.3203,-0.8599,-0.366,0.610,-0.366,159.291,25.389,-54.476
7732,-0.4370,0.3223,-0.8618,-0.122,0.549,-0.183,159.291,25.384,-54.476
7742,-0.4355,0.3208,-0.8564,0.061,0.305,-0.061,159.296,25.384,-54.476
7752,-0.4380,0.3213,-0.8579,0.122,0.122,0.000,159.296,25.384,-54.476
7762,-0.4365,0.3208,-0.8604,0.000,0.122,0.061,159.302,25.384,-54.476
7772,-0.4360,0.3203,-0.8618,-0.183,0.183,0.122,159.302,25.378,-54.476
7782,-0.4365,0.3228,-0.8633,-0.305,0.305,0.183,159.302,25.373,-54.476
7792,-0.4360,0.3218,-0.8638,-0.427,0.427,0.305,159.296,25.367,-54.476
7802,-0.4380,0.3247,-0.8643,-0.427,0.427,0.366,159.296,25.362,-54.476
7812,-0.4351,0.3262,-0.8643,-0.305,0.244,0.427,159.291,25.362,-54.476
7822,-0.4370,0.3267,-0.8677,-0.122,0.183,0.549,159.285,25.356,-54.476
7832,-0.4375,0.3262,-0.8657,-0.061,0.122,0.549,159.285,25.351,-54.476
7843,-0.4355,0.3286,-0.8687,-0.183,0.061,0.549,159.280,25.345,-54.476
7852,-0.4370,0.3276,-0.8711,-0.183,-0.061,0.549,159.280,25.345,-54.476
7862,-0.4341,0.3271,-0.8677,-0.183,-0.183,0.488,159.274,25.340,-54.476
7872,-0.4341,0.3286,-0.8657,-0.183,-0.366,0.427,159.269,25.340,-54.476
7882,-0.4355,0.3296,-0.8647,-0.122,-0.488,0.488,159.263,25.340,-54.476
7892,-0.4355,0.3306,-0.8623,-0.183,-0.549,0.488,159.258,25.345,-54.476
7902,-0.4380,0.3291,-0.8618,-0.122,-0.549,0.366,159.252,25.351,-54.476
7916,-0.4390,0.3286,-0.8628,-0.122,-0.549,0.305,159.247,25.351,-54.476
7922,-0.4380,0.3267,-0.8594,-0.244,-0.549,0.305,159.241,25.356,-54.476
7932,-0.4370,0.3286,-0.8564,-0.366,-0.549,0.244,159.236,25.362,-54.476
7942,-0.4380,0.3271,-0.8550,-0.488,-0.549,0.183,159.225,25.373,-54.476
7952,-0.4395,0.3286,-0.8491,-0.488,-0.488,0.122,159.214,25.378,-54.476
7962,-0.4414,0.3252,-0.8496,-0.427,-0.305,0.122,159.208,25.384,-54.476
7972,-0.4404,0.3276,-0.8511,-0.183,0.000,0.183,159.203,25.389,-54.476
7982,-0.4424,0.3276,-0.8516,0.061,0.427,0.244,159.203,25.389,-54.476
7992,-0.4399,0.3281,-0.8584,0.305,0.732,0.244,159.203,25.384,-54.476
8002,-0.4395,0.3276,-0.8613,0.427,0.916,0.183,159.208,25.378,-54.476
8012,-0.4395,0.3286,-0.8594,0.244,0.916,0.122,159.208,25.367,-54.476
8022,-0.4370,0.3291,-0.8589,0.000,0.732,0.122,159.208,25.362,-54.476
8032,-0.4341,0.3315,-0.8613,-0.122,0.427,0.000,159.203,25.356,-54.476
8042,-0.4341,0.3335,-0.8647,-0.061,0.244,-0.061,159.203,25.351,-54.476
8052,-0.4351,0.3320,-0.8682,0.183,0.244,-0.183,159.203,25.345,-54.476
8062,-0.4355,0.3315,-0.8691,0.305,0.305,-0.366,159.208,25.345,-54.476
8072,-0.4360,0.3311,-0.8706,0.244,0.366,-0.427,159.214,25.340,-54.476
8082,-0.4341,0.3276,-0.8687,0.183,0.061,-0.488,159.219,25.340,-54.476
8092,-0.4331,0.3242,-0.8677,0.000,-0.366,-0.488,159.225,25.340,-54.476
8102,-0.4336,0.3242,-0.8647,-0.183,-0.977,-0.488,159.225,25.351,-54.476
8112,-0.4346,0.3223,-0.8633,-0.122,-1.343,-0.427,159.225,25.362,-54.476
8122,-0.4375,0.3193,-0.8564,0.061,-1.282,-0.244,159.230,25.378,-54.476
8132,-0.4380,0.3193,-0.8530,0.183,-1.038,-0.061,159.230,25.389,-54.476
8142,-0.4390,0.3184,-0.8521,0.122,-0.549,0.122,159.230,25.400,-54.476
8152,-0.4395,0.3193,-0.8491,0.000,-0.061,0.305,159.236,25.400,-54.476
8162,-0.4395,0.3188,-0.8516,-0.122,0.244,0.549,159.230,25.400,-54.476
8172,-0.4395,0.3213,-0.8540,-0.122,0.305,0.610,159.230,25.400,-54.476
8182,-0.4409,0.3247,-0.8574,-0.061,0.366,0.671,159.230,25.395,-54.476
8192,-0.4424,0.3267,-0.8584,0.122,0.427,0.671,159.225,25.395,-54.476
8202,-0.4404,0.3257,-0.8599,0.183,0.488,0.671,159.225,25.389,-54.476
8212,-0.4380,0.3286,-0.8594,0.183,0.488,0.732,159.225,25.384,-54.476
8222,-0.4370,0.3350,-0.8618,0.183,0.671,0.732,159.219,25.373,-54.476
8232,-0.4351,0.3364,-0.8667,0.305,0.977,0.671,159.214,25.356,-54.476
8242,-0.4336,0.3354,-0.8657,0.427,0.977,0.427,159.214,25.345,-54.476
8252,-0.4336,0.3345,-0.8643,0.366,0.610,0.244,159.214,25.334,-54.476
8262,-0.4365,0.3354,-0.8628,0.122,0.122,0.061,159.214,25.334,-54.476
8272,-0.4360,0.3359,-0.8623,-0.061,-0.183,-0.122,159.208,25.334,-54.476
8282,-0.4365,0.3350,-0.8618,-0.061,-0.244,-0.366,159.203,25.340,-54.476
8292,-0.4351,0.3315,-0.8638,-0.061,-0.305,-0.610,159.203,25.340,-54.476
8302,-0.4360,0.3301,-0.8628,-0.122,-0.305,-0.793,159.203,25.345,-54.476
8312,-0.4375,0.3291,-0.8618,-0.366,-0.183,-0.854,159.203,25.351,-54.476
8322,-0.4390,0.3276,-0.8618,-0.488,0.000,-0.854,159.203,25.356,-54.476
8332,-0.4385,0.3252,-0.8589,-0.427,0.061,-0.793,159.203,25.356,-54.476
8343,-0.4360,0.3218,-0.8545,-0.183,0.061,-0.732,159.203,25.362,-54.476
8352,-0.4370,0.3232,-0.8564,0.000,-0.061,-0.610,159.208,25.367,-54.476
8362,-0.4351,0.3223,-0.8604,0.305,0.000,-0.488,159.214,25.367,-54.476
8372,-0.4351,0.3184,-0.8584,0.488,0.244,-0.366,159.225,25.367,-54.476
8382,-0.4355,0.3179,-0.8608,0.305,0.427,-0.244,159.236,25.367,-54.476
8392,-0.4351,0.3203,-0.8633,0.000,0.488,-0.183,159.241,25.362,-54.476
8402,-0.4355,0.3213,-0.8667,-0.183,0.549,-0.061,159.247,25.356,-54.476
8412,-0.4341,0.3188,-0.8652,-0.183,0.671,0.061,159.252,25.345,-54.476
8422,-0.4326,0.3198,-0.8677,-0.183,0.549,0.183,159.252,25.340,-54.476
8432,-0.4326,0.3223,-0.8696,-0.183,0.305,0.305,159.252,25.329,-54.476
8442,-0.4336,0.3247,-0.8682,0.000,0.000,0.427,159.252,25.329,-54.476
8452,-0.4312,0.3242,-0.8677,0.244,-0.244,0.549,159.258,25.323,-54.476
8462,-0.4321,0.3247,-0.8687,0.183,-0.427,0.488,159.258,25.323,-54.476
8472,-0.4346,0.3286,-0.8677,0.183,-0.671,0.488,159.258,25.323,-54.476
8482,-0.4346,0.3271,-0.8652,0.122,-0.793,0.549,159.252,25.329,-54.476
8492,-0.4346,0.3281,-0.8647,-0.061,-0.977,0.549,159.252,25.334,-54.476
8502,-0.4375,0.3271,-0.8594,-0.183,-1.160,0.549,159.241,25.345,-54.476
8512,-0.4375,0.3281,-0.8560,-0.122,-1.282,0.549,159.236,25.356,-54.476
8522,-0.4390,0.3281,-0.8555,-0.061,-1.282,0.549,159.225,25.367,-54.476
8532,-0.4375,0.3281,-0.8560,-0.061,-1.038,0.549,159.219,25.378,-54.476
8542,-0.4385,0.3267,-0.8535,0.061,-0.732,0.488,159.214,25.384,-54.476
8552,-0.4404,0.3242,-0.8496,0.061,-0.366,0.488,159.214,25.389,-54.476
8562,-0.4429,0.3257,-0.8501,-0.122,-0.061,0.549,159.208,25.395,-54.476
8572,-0.4414,0.3247,-0.8472,-0.366,0.000,0.488,159.197,25.400,-54.476
8582,-0.4409,0.3306,-0.8496,-0.427,0.244,0.488,159.192,25.400,-54.476
8592,-0.4414,0.3315,-0.8564,-0.061,0.732,0.488,159.186,25.395,-54.476
8602,-0.4385,0.3306,-0.8618,0.488,1.221,0.488,159.186,25.378,-54.476
8612,-0.4360,0.3311,-0.8628,0.671,1.404,0.366,159.192,25.367,-54.476
8622,-0.4351,0.3325,-0.8672,0.549,1.282,0.183,159.197,25.351,-54.476
8632,-0.4341,0.3335,-0.8701,0.305,0.854,0.061,159.203,25.340,-54.476
8642,-0.4321,0.3335,-0.8682,0.000,0.305,-0.061,159.197,25.334,-54.476
8652,-0.4321,0.3335,-0.8701,-0.122,-0.183,-0.244,159.197,25.329,-54.476
8662,-0.4336,0.3330,-0.8672,-0.183,-0.610,-0.427,159.192,25.334,-54.476
8672,-0.4370,0.3306,-0.8662,-0.183,-0.671,-0.549,159.192,25.340,-54.476
8682,-0.4351,0.3276,-0.8662,-0.244,-0.671,-0.671,159.192,25.345,-54.476
8692,-0.4351,0.3271,-0.8662,-0.366,-0.549,-0.732,159.192,25.356,-54.476
8702,-0.4346,0.3247,-0.8652,-0.305,-0.427,-0.732,159.192,25.356,-54.476
8712,-0.4360,0.3228,-0.8618,-0.183,-0.549,-0.732,159.197,25.367,-54.476
8722,-0.4375,0.3188,-0.8599,-0.061,-0.854,-0.610,159.203,25.378,-54.476
8732,-0.4365,0.3179,-0.8599,0.000,-1.282,-0.366,159.208,25.389,-54.476
8742,-0.4365,0.3169,-0.8564,-0.122,-1.465,-0.183,159.208,25.406,-54.476
8752,-0.4355,0.3198,-0.8535,-0.183,-1.221,0.000,159.208,25.422,-54.476
8762,-0.4404,0.3179,-0.8550,-0.183,-0.732,0.183,159.208,25.428,-54.476
8772,-0.4395,0.3188,-0.8530,-0.305,-0.244,0.305,159.208,25.433,-54.476
8782,-0.4404,0.3218,-0.8525,-0.366,0.000,0.427,159.203,25.439,-54.476
8792,-0.4404,0.3242,-0.8550,-0.305,0.305,0.549,159.197,25.433,-54.476
8802,-0.4390,0.3252,-0.8550,0.000,0.549,0.610,159.197,25.428,-54.476
8812,-0.4375,0.3267,-0.8594,0.183,0.671,0.610,159.197,25.422,-54.476
8822,-0.4365,0.3286,-0.8657,0.183,0.671,0.549,159.197,25.411,-54.476
8832,-0.4365,0.3315,-0.8657,0.000,0.610,0.549,159.192,25.400,-54.476
8843,-0.4365,0.3330,-0.8657,-0.061,0.427,0.488,159.186,25.395,-54.476
8852,-0.4360,0.3345,-0.8662,-0.061,0.305,0.244,159.186,25.389,-54.476
8862,-0.4370,0.3354,-0.8672,-0.061,0.061,0.061,159.181,25.384,-54.476
8872,-0.4365,0.3354,-0.8677,0.061,-0.183,-0.061,159.175,25.384,-54.476
8882,-0.4360,0.3340,-0.8652,0.061,-0.305,-0.122,159.175,25.384,-54.476
8892,-0.4351,0.3325,-0.8633,0.061,-0.366,-0.244,159.175,25.389,-54.476
8902,-0.4380,0.3315,-0.8604,-0.061,-0.305,-0.366,159.170,25.395,-54.476
8912,-0.4395,0.3267,-0.8589,-0.122,-0.305,-0.549,159.175,25.400,-54.476
8922,-0.4385,0.3242,-0.8584,-0.427,-0.244,-0.671,159.170,25.406,-54.476
8932,-0.4390,0.3257,-0.8604,-0.671,-0.183,-0.671,159.170,25.411,-54.476
8942,-0.4395,0.3271,-0.8604,-0.488,0.122,-0.610,159.170,25.411,-54.476
8952,-0.4380,0.3237,-0.8564,-0.061,0.305,-0.488,159.170,25.411,-54.476
8962,-0.4370,0.3242,-0.8594,0.244,0.244,-0.427,159.175,25.411,-54.476
8972,-0.4360,0.3242,-0.8584,0.427,0.061,-0.244,159.186,25.411,-54.476
8982,-0.4360,0.3208,-0.8604,0.488,0.122,-0.061,159.192,25.411,-54.476
8992,-0.4375,0.3203,-0.8584,0.366,0.305,0.000,159.203,25.411,-54.476
9002,-0.4375,0.3203,-0.8589,0.061,0.427,0.000,159.203,25.406,-54.476
9012,-0.4351,0.3237,-0.8623,-0.305,0.488,0.122,159.203,25.400,-54.476
9022,-0.4355,0.3257,-0.8667,-0.244,0.732,0.244,159.203,25.389,-54.476
9032,-0.4331,0.3252,-0.8672,0.122,0.916,0.305,159.208,25.378,-54.476
9042,-0.4321,0.3252,-0.8657,0.305,0.793,0.305,159.214,25.367,-54.476
9052,-0.4346,0.3271,-0.8716,0.305,0.305,0.366,159.219,25.362,-54.476
9062,-0.4365,0.3262,-0.8721,0.183,-0.244,0.427,159.219,25.356,-54.476
9072,-0.4370,0.3262,-0.8682,0.000,-0.549,0.488,159.219,25.362,-54.476
9082,-0.4355,0.3271,-0.8701,-0.122,-0.671,0.366,159.214,25.362,-54.476
9092,-0.4331,0.3271,-0.8662,-0.183,-0.854,0.305,159.214,25.367,-54.476
9102,-0.4346,0.3267,-0.8633,-0.183,-1.038,0.244,159.208,25.373,-54.476
9112,-0.4360,0.3247,-0.8628,-0.244,-1.160,0.183,159.203,25.384,-54.476
9122,-0.4390,0.3257,-0.8574,-0.366,-1.282,0.305,159.197,25.395,-54.476
9132,-0.4409,0.3257,-0.8555,-0.366,-1.221,0.366,159.192,25.411,-54.476
9142,-0.4404,0.3271,-0.8535,-0.183,-0.977,0.488,159.181,25.422,-54.476
9152,-0.4395,0.3262,-0.8530,0.061,-0.610,0.488,159.181,25.428,-54.476
9162,-0.4404,0.3267,-0.8530,0.244,-0.244,0.427,159.175,25.433,-54.476
9172,-0.4409,0.3271,-0.8516,0.183,-0.122,0.427,159.175,25.433,-54.476
9182,-0.4404,0.3286,-0.8560,-0.061,0.061,0.366,159.170,25.433,-54.476
9192,-0.4399,0.3320,-0.8604,-0.122,0.183,0.305,159.164,25.433,-54.476
9202,-0.4399,0.3340,-0.8623,0.000,0.488,0.305,159.164,25.428,-54.476
9212,-0.4370,0.3345,-0.8647,0.305,0.732,0.183,159.164,25.417,-54.476
9222,-0.4385,0.3311,-0.8652,0.366,0.671,0.061,159.164,25.411,-54.476
9232,-0.4370,0.3315,-0.8652,0.305,0.244,-0.183,159.170,25.406,-54.476
9242,-0.4370,0.3301,-0.8672,-0.061,-0.305,-0.366,159.170,25.411,-54.476
9252,-0.4346,0.3291,-0.8677,-0.366,-0.793,-0.488,159.170,25.417,-54.476
9262,-0.4365,0.3267,-0.8633,-0.549,-1.099,-0.671,159.164,25.428,-54.476
9272,-0.4375,0.3262,-0.8604,-0.671,-1.160,-0.671,159.159,25.439,-54.476
9282,-0.4390,0.3242,-0.8569,-0.549,-0.977,-0.610,159.153,25.455,-54.476
9292,-0.4365,0.3223,-0.8564,-0.244,-0.793,-0.488,159.159,25.461,-54.476
9302,-0.4370,0.3193,-0.8535,-0.122,-0.610,-0.366,159.159,25.472,-54.476
9312,-0.4385,0.3188,-0.8555,-0.061,-0.305,-0.244,159.164,25.477,-54.476
9322,-0.4395,0.3184,-0.8579,-0.061,0.183,-0.122,159.170,25.477,-54.476
9332,-0.4385,0.3203,-0.8618,-0.122,0.671,0.000,159.170,25.472,-54.476
9343,-0.4380,0.3188,-0.8628,-0.244,0.916,0.122,159.175,25.461,-54.476
9352,-0.4375,0.3237,-0.8657,-0.122,0.916,0.244,159.181,25.450,-54.476
9362,-0.4365,0.3276,-0.8662,0.122,0.488,0.366,159.181,25.444,-54.476
9372,-0.4355,0.3257,-0.8672,0.427,0.000,0.488,159.186,25.439,-54.476
9382,-0.4380,0.3232,-0.8657,0.427,-0.427,0.488,159.192,25.439,-54.476
9392,-0.4375,0.3208,-0.8608,0.122,-0.671,0.366,159.192,25.444,-54.476
9402,-0.4370,0.3237,-0.8594,-0.488,-0.916,0.366,159.186,25.455,-54.476
9412,-0.4390,0.3247,-0.8540,-1.038,-0.916,0.366,159.170,25.461,-54.476
9422,-0.4419,0.3252,-0.8521,-1.160,-0.671,0.427,159.159,25.472,-54.476
9432,-0.4438,0.3271,-0.8521,-0.916,-0.366,0.488,159.142,25.477,-54.476
9442,-0.4448,0.3271,-0.8540,-0.427,0.122,0.610,159.137,25.477,-54.476
9452,-0.4434,0.3271,-0.8501,0.061,0.610,0.732,159.131,25.477,-54.476
9462,-0.4424,0.3276,-0.8511,0.305,0.977,0.793,159.131,25.466,-54.476
9472,-0.4399,0.3252,-0.8535,0.305,1.160,0.732,159.131,25.455,-54.476
9482,-0.4390,0.3291,-0.8608,0.000,1.221,0.610,159.131,25.444,-54.476
9492,-0.4385,0.3315,-0.8623,-0.244,1.221,0.488,159.126,25.428,-54.476
9502,-0.4365,0.3354,-0.8667,-0.305,1.282,0.366,159.120,25.417,-54.476
9512,-0.4351,0.3354,-0.8677,-0.183,1.221,0.244,159.120,25.400,-54.476
9522,-0.4351,0.3345,-0.8696,0.000,0.916,0.061,159.120,25.384,-54.476
9532,-0.4326,0.3340,-0.8672,0.000,0.366,-0.122,159.120,25.378,-54.476
9542,-0.4341,0.3345,-0.8667,-0.183,-0.183,-0.305,159.115,25.378,-54.476
9552,-0.4341,0.3345,-0.8672,-0.488,-0.549,-0.488,159.109,25.384,-54.476
9562,-0.4360,0.3335,-0.8672,-0.732,-0.671,-0.671,159.104,25.389,-54.476
9572,-0.4370,0.3301,-0.8638,-0.854,-0.610,-0.793,159.099,25.395,-54.476
9582,-0.4390,0.3276,-0.8584,-0.854,-0.244,-0.854,159.093,25.400,-54.476
9592,-0.4380,0.3262,-0.8550,-0.610,-0.122,-0.854,159.088,25.411,-54.476
9602,-0.4380,0.3232,-0.8560,-0.305,-0.122,-0.671,159.093,25.411,-54.476
9612,-0.4375,0.3213,-0.8535,-0.122,-0.244,-0.549,159.093,25.422,-54.476
9622,-0.4390,0.3188,-0.8525,-0.122,-0.244,-0.366,159.099,25.428,-54.476
9632,-0.4380,0.3193,-0.8540,-0.122,0.061,-0.122,159.104,25.428,-54.476
9642,-0.4365,0.3213,-0.8555,-0.122,0.488,0.061,159.104,25.428,-54.476
9652,-0.4375,0.3208,-0.8579,-0.122,0.916,0.122,159.109,25.417,-54.476
9662,-0.4375,0.3242,-0.8584,-0.244,1.160,0.305,159.109,25.406,-54.476
9672,-0.4365,0.3262,-0.8579,-0.183,1.282,0.427,159.109,25.395,-54.476
9682,-0.4355,0.3257,-0.8647,-0.061,1.221,0.610,159.109,25.378,-54.476
9692,-0.4351,0.3271,-0.8657,0.122,1.038,0.610,159.109,25.367,-54.476
9702,-0.4346,0.3291,-0.8672,0.183,0.854,0.610,159.115,25.351,-54.476
9712,-0.4346,0.3286,-0.8696,0.183,0.610,0.549,159.115,25.340,-54.476
9722,-0.4355,0.3296,-0.8706,0.122,0.366,0.549,159.115,25.334,-54.476
9732,-0.4346,0.3315,-0.8691,0.000,0.000,0.488,159.115,25.329,-54.476
9742,-0.4351,0.3306,-0.8677,-0.183,-0.305,0.366,159.109,25.329,-54.476
9752,-0.4336,0.3325,-0.8662,-0.244,-0.610,0.244,159.104,25.329,-54.476
9762,-0.4341,0.3320,-0.8623,-0.305,-0.732,0.183,159.099,25.334,-54.476
9772,-0.4336,0.3311,-0.8618,-0.183,-0.793,0.183,159.093,25.340,-54.476
9782,-0.4380,0.3281,-0.8594,-0.122,-0.610,0.183,159.088,25.345,-54.476
9792,-0.4375,0.3296,-0.8589,-0.183,-0.488,0.183,159.088,25.351,-54.476
9802,-0.4385,0.3281,-0.8550,-0.183,-0.305,0.122,159.082,25.356,-54.476
9812,-0.4404,0.3271,-0.8550,-0.244,-0.305,0.122,159.077,25.362,-54.476
9823,-0.4409,0.3291,-0.8530,-0.183,-0.244,0.122,159.071,25.367,-54.476
9832,-0.4414,0.3301,-0.8516,0.000,-0.122,0.183,159.071,25.373,-54.476
9843,-0.4414,0.3286,-0.8535,0.244,0.061,0.183,159.071,25.373,-54.476
9852,-0.4399,0.3281,-0.8560,0.305,0.305,0.244,159.071,25.373,-54.476
9862,-0.4404,0.3291,-0.8589,0.244,0.610,0.183,159.077,25.373,-54.476
9872,-0.4409,0.3315,-0.8584,0.244,0.977,0.183,159.077,25.362,-54.476
9882,-0.4375,0.3325,-0.8613,0.305,1.221,0.122,159.077,25.351,-54.476
9892,-0.4365,0.3325,-0.8623,0.244,1.038,0.000,159.082,25.340,-54.476
9903,-0.4380,0.3335,-0.8638,0.122,0.732,-0.061,159.082,25.334,-54.476
9917,-0.4365,0.3330,-0.8643,0.122,0.305,-0.061,159.082,25.329,-54.476
9922,-0.4360,0.3301,-0.8604,0.244,0.061,-0.183,159.082,25.329,-54.476
9932,-0.4360,0.3281,-0.8574,0.305,0.000,-0.305,159.088,25.334,-54.476
9943,-0.4409,0.3276,-0.8560,0.061,0.122,-0.366,159.093,25.334,-54.476
9953,-0.4380,0.3311,-0.8613,-0.061,0.610,-0.366,159.093,25.334,-54.476
9963,-0.4365,0.3320,-0.8672,0.183,1.221,-0.366,159.099,25.323,-54.476
9973,-0.4365,0.3286,-0.8701,0.610,1.648,-0.366,159.109,25.307,-54.476
9983,-0.4341,0.3271,-0.8706,0.793,1.343,-0.427,159.126,25.291,-54.476
9993,-0.4331,0.3262,-0.8716,0.732,0.549,-0.488,159.137,25.285,-54.476
10003,-0.4321,0.3252,-0.8721,0.488,-0.305,-0.366,159.148,25.285,-54.476
10013,-0.4321,0.3247,-0.8657,0.305,-0.854,-0.366,159.153,25.291,-54.476
10023,-0.4341,0.3242,-0.8638,0.061,-1.038,-0.427,159.159,25.302,-54.476
10033,-0.4351,0.3252,-0.8628,-0.122,-0.916,-0.488,159.159,25.312,-54.476
10043,-0.4395,0.3223,-0.8579,-0.122,-0.610,-0.427,159.159,25.323,-54.476
10053,-0.4404,0.3223,-0.8550,-0.122,-0.305,-0.305,159.164,25.329,-54.476
10063,-0.4429,0.3213,-0.8530,-0.122,-0.305,-0.244,159.164,25.340,-54.476
10073,-0.4429,0.3213,-0.8501,-0.122,-0.427,-0.061,159.164,25.351,-54.476
10083,-0.4424,0.3218,-0.8545,0.061,-0.305,0.122,159.164,25.356,-54.476
10093,-0.4395,0.3218,-0.8525,0.427,0.061,0.366,159.170,25.362,-54.476
10103,-0.4355,0.3218,-0.8535,0.671,0.488,0.427,159.175,25.356,-54.476
10113,-0.4355,0.3252,-0.8564,0.732,0.854,0.427,159.181,25.345,-54.476
10123,-0.4351,0.3291,-0.8608,0.732,1.221,0.549,159.186,25.334,-54.476
10133,-0.4365,0.3306,-0.8633,0.854,1.465,0.610,159.197,25.318,-54.476
10143,-0.4355,0.3311,-0.8652,0.793,1.465,0.488,159.203,25.302,-54.476
10153,-0.4360,0.3286,-0.8667,0.610,0.916,0.366,159.208,25.291,-54.476
10163,-0.4341,0.3320,-0.8701,0.305,0.305,0.305,159.208,25.285,-54.476
10173,-0.4365,0.3369,-0.8721,0.122,0.000,0.244,159.208,25.280,-54.476
10183,-0.4360,0.3364,-0.8726,0.305,0.000,0.061,159.208,25.274,-54.476
10193,-0.4341,0.3315,-0.8662,0.488,0.061,-0.183,159.208,25.274,-54.476
10203,-0.4365,0.3271,-0.8662,0.244,-0.244,-0.427,159.214,25.280,-54.476
10213,-0.4360,0.3276,-0.8647,-0.183,-0.732,-0.549,159.214,25.285,-54.476
10223,-0.4355,0.3271,-0.8613,-0.427,-0.977,-0.549,159.214,25.296,-54.476
10233,-0.4365,0.3247,-0.8555,-0.366,-1.038,-0.488,159.208,25.312,-54.476
10243,-0.4370,0.3218,-0.8511,-0.122,-0.977,-0.488,159.208,25.323,-54.476
10253,-0.4395,0.3208,-0.8486,0.061,-0.916,-0.427,159.208,25.340,-54.476
10263,-0.4395,0.3208,-0.8496,0.122,-0.488,-0.183,159.214,25.351,-54.476
10273,-0.4399,0.3198,-0.8545,0.244,0.244,0.061,159.219,25.351,-54.476
10283,-0.4380,0.3179,-0.8521,0.305,0.977,0.183,159.225,25.345,-54.476
10293,-0.4395,0.3193,-0.8530,0.305,1.343,0.244,159.230,25.334,-54.476
10303,-0.4370,0.3213,-0.8584,0.183,1.282,0.244,159.236,25.323,-54.476
10313,-0.4365,0.3286,-0.8682,0.122,1.221,0.427,159.236,25.312,-54.476
10323,-0.4341,0.3306,-0.8706,0.427,1.343,0.549,159.241,25.296,-54.476
10333,-0.4331,0.3311,-0.8721,0.793,1.160,0.488,159.252,25.280,-54.476
10343,-0.4326,0.3301,-0.8735,0.793,0.427,0.305,159.258,25.269,-54.476
10353,-0.4336,0.3301,-0.8765,0.610,-0.366,0.122,159.263,25.269,-54.476
10363,-0.4341,0.3296,-0.8721,0.122,-1.038,0.000,159.263,25.274,-54.476
10373,-0.4341,0.3301,-0.8672,-0.427,-1.282,-0.183,159.258,25.285,-54.476
10383,-0.4360,0.3301,-0.8638,-0.671,-1.343,-0.244,159.247,25.296,-54.476
10393,-0.4365,0.3306,-0.8613,-0.427,-1.160,-0.366,159.241,25.307,-54.476
10403,-0.4370,0.3267,-0.8569,-0.183,-0.916,-0.305,159.236,25.323,-54.476
10413,-0.4365,0.3237,-0.8540,0.061,-0.671,-0.244,159.236,25.329,-54.476
10423,-0.4390,0.3203,-0.8491,0.000,-0.671,-0.183,159.236,25.340,-54.476
10433,-0.4424,0.3193,-0.8506,-0.183,-0.549,-0.183,159.236,25.356,-54.476
10443,-0.4429,0.3203,-0.8511,-0.305,-0.122,-0.061,159.236,25.362,-54.476
10453,-0.4409,0.3232,-0.8516,-0.183,0.427,0.061,159.236,25.362,-54.476
10463,-0.4399,0.3213,-0.8501,-0.061,0.793,0.122,159.236,25.356,-54.476
10473,-0.4380,0.3247,-0.8545,0.000,0.916,0.122,159.236,25.351,-54.476
10483,-0.4375,0.3276,-0.8608,0.244,1.038,0.244,159.236,25.340,-54.476
10493,-0.4365,0.3291,-0.8633,0.610,1.343,0.427,159.241,25.329,-54.476
10503,-0.4351,0.3286,-0.8657,0.732,1.404,0.427,159.252,25.312,-54.476
10513,-0.4346,0.3291,-0.8696,0.488,1.099,0.244,159.258,25.296,-54.476
10523,-0.4331,0.3325,-0.8735,0.244,0.732,0.122,159.258,25.285,-54.476
10533,-0.4341,0.3330,-0.8750,0.061,0.488,0.061,159.258,25.280,-54.476
10543,-0.4341,0.3315,-0.8726,0.000,0.244,-0.183,159.258,25.274,-54.476
10553,-0.4346,0.3306,-0.8721,-0.183,-0.122,-0.427,159.258,25.274,-54.476
10563,-0.4346,0.3296,-0.8687,-0.244,-0.488,-0.549,159.258,25.280,-54.476
10573,-0.4321,0.3267,-0.8657,-0.183,-0.793,-0.610,159.258,25.285,-54.476
10583,-0.4312,0.3242,-0.8618,-0.244,-0.916,-0.671,159.258,25.296,-54.476
10593,-0.4365,0.3228,-0.8608,-0.366,-0.977,-0.671,159.258,25.307,-54.476
10603,-0.4370,0.3228,-0.8594,-0.427,-0.854,-0.671,159.258,25.318,-54.476
10613,-0.4385,0.3223,-0.8604,-0.427,-0.488,-0.549,159.258,25.323,-54.476
10623,-0.4370,0.3203,-0.8584,-0.244,-0.183,-0.427,159.258,25.329,-54.476
10633,-0.4380,0.3159,-0.8545,-0.061,-0.122,-0.305,159.263,25.334,-54.476
10643,-0.4375,0.3184,-0.8574,-0.061,-0.244,-0.122,159.269,25.340,-54.476
10653,-0.4380,0.3208,-0.8618,0.061,-0.244,0.122,159.269,25.345,-54.476
10663,-0.4375,0.3208,-0.8633,0.305,0.000,0.305,159.274,25.345,-54.476
10673,-0.4380,0.3203,-0.8604,0.366,0.244,0.366,159.280,25.340,-54.476
10683,-0.4360,0.3208,-0.8613,0.122,0.122,0.366,159.280,25.340,-54.476
10693,-0.4375,0.3242,-0.8604,-0.305,-0.122,0.427,159.280,25.340,-54.476
10703,-0.4404,0.3232,-0.8584,-0.549,-0.305,0.549,159.269,25.345,-54.476
10713,-0.4404,0.3237,-0.8560,-0.610,-0.427,0.549,159.263,25.351,-54.476
10723,-0.4380,0.3276,-0.8564,-0.427,-0.366,0.549,159.252,25.356,-54.476
10733,-0.4395,0.3291,-0.8599,0.061,-0.061,0.549,159.247,25.356,-54.476
10743,-0.4380,0.3291,-0.8608,0.427,0.305,0.488,159.247,25.351,-54.476
10753,-0.4385,0.3296,-0.8623,0.427,0.427,0.427,159.252,25.345,-54.476
10763,-0.4360,0.3301,-0.8618,0.183,0.366,0.244,159.252,25.340,-54.476
10773,-0.4360,0.3311,-0.8613,-0.122,0.122,0.122,159.247,25.340,-54.476
10783,-0.4341,0.3320,-0.8608,-0.244,0.061,0.000,159.241,25.334,-54.476
10793,-0.4375,0.3320,-0.8623,-0.183,0.183,-0.122,159.236,25.334,-54.476
10803,-0.4395,0.3320,-0.8647,0.000,0.305,-0.183,159.236,25.334,-54.476
10813,-0.4385,0.3301,-0.8643,0.122,0.366,-0.305,159.236,25.334,-54.476
10823,-0.4351,0.3291,-0.8623,0.244,0.183,-0.305,159.241,25.329,-54.476
10833,-0.4365,0.3257,-0.8643,0.122,0.000,-0.427,159.241,25.329,-54.476
10843,-0.4390,0.3257,-0.8647,-0.122,-0.244,-0.610,159.247,25.334,-54.476
10853,-0.4399,0.3242,-0.8608,-0.366,-0.305,-0.671,159.247,25.345,-54.476
10863,-0.4404,0.3232,-0.8589,-0.488,-0.122,-0.671,159.247,25.351,-54.476
10873,-0.4390,0.3237,-0.8579,-0.488,-0.122,-0.610,159.241,25.356,-54.476
10883,-0.4385,0.3223,-0.8574,-0.244,-0.244,-0.549,159.247,25.362,-54.476
10893,-0.4404,0.3213,-0.8540,0.061,-0.244,-0.427,159.247,25.373,-54.476
10903,-0.4409,0.3193,-0.8535,0.305,-0.305,-0.183,159.252,25.378,-54.476
10913,-0.4395,0.3193,-0.8550,0.305,-0.122,0.000,159.258,25.384,-54.476
10923,-0.4370,0.3198,-0.8560,0.183,0.183,0.122,159.263,25.384,-54.476
10933,-0.4365,0.3203,-0.8589,0.061,0.671,0.244,159.269,25.378,-54.476
10943,-0.4370,0.3203,-0.8594,0.122,1.160,0.305,159.269,25.367,-54.476
10953,-0.4370,0.3223,-0.8604,0.122,1.404,0.366,159.274,25.351,-54.476
10963,-0.4370,0.3262,-0.8672,0.122,1.221,0.366,159.280,25.340,-54.476
10973,-0.4365,0.3281,-0.8672,0.122,0.732,0.427,159.280,25.329,-54.476
10983,-0.4375,0.3281,-0.8677,0.122,0.183,0.366,159.280,25.323,-54.476
10993,-0.4365,0.3257,-0.8677,0.000,-0.305,0.305,159.280,25.329,-54.476
11003,-0.4370,0.3306,-0.8657,-0.122,-0.549,0.183,159.274,25.329,-54.476
11013,-0.4365,0.3301,-0.8652,0.000,-0.549,0.183,159.269,25.334,-54.476
11023,-0.4365,0.3271,-0.8618,0.122,-0.549,0.122,159.269,25.340,-54.476
11033,-0.4351,0.3232,-0.8579,0.122,-0.671,0.061,159.269,25.345,-54.476
11043,-0.4365,0.3242,-0.8579,0.000,-0.793,0.061,159.269,25.351,-54.476
11053,-0.4390,0.3232,-0.8569,0.061,-0.732,0.183,159.269,25.362,-54.476
11063,-0.4399,0.3213,-0.8540,0.122,-0.366,0.244,159.269,25.367,-54.476
11073,-0.4409,0.3213,-0.8496,0.183,-0.061,0.305,159.269,25.373,-54.476
11083,-0.4390,0.3237,-0.8501,0.183,0.061,0.366,159.269,25.373,-54.476
11093,-0.4395,0.3271,-0.8564,0.244,0.244,0.427,159.269,25.373,-54.476
11103,-0.4404,0.3271,-0.8574,0.488,0.671,0.488,159.269,25.367,-54.476
11113,-0.4385,0.3276,-0.8623,0.671,1.038,0.427,159.274,25.356,-54.476
11123,-0.4375,0.3291,-0.8633,0.671,1.160,0.305,159.280,25.345,-54.476
11133,-0.4365,0.3296,-0.8682,0.610,0.977,0.244,159.285,25.334,-54.476
11143,-0.4375,0.3301,-0.8662,0.427,0.671,0.183,159.291,25.329,-54.476
11153,-0.4375,0.3306,-0.8682,0.183,0.366,0.000,159.291,25.323,-54.476
11163,-0.4380,0.3320,-0.8672,0.061,0.000,-0.183,159.291,25.323,-54.476
11173,-0.4355,0.3320,-0.8647,0.061,-0.305,-0.305,159.291,25.323,-54.476
11183,-0.4365,0.3281,-0.8633,0.183,-0.366,-0.366,159.291,25.329,-54.476
11193,-0.4380,0.3232,-0.8594,0.244,-0.427,-0.488,159.296,25.334,-54.476
11203,-0.4395,0.3213,-0.8569,0.061,-0.488,-0.610,159.296,25.345,-54.476
11213,-0.4375,0.3218,-0.8564,-0.244,-0.427,-0.549,159.302,25.356,-54.476
11223,-0.4375,0.3242,-0.8550,-0.305,-0.183,-0.488,159.296,25.362,-54.476
11233,-0.4404,0.3218,-0.8555,-0.122,0.122,-0.427,159.296,25.362,-54.476
11243,-0.4399,0.3208,-0.8530,0.122,0.366,-0.305,159.302,25.367,-54.476
11253,-0.4355,0.3232,-0.8569,0.305,0.488,-0.122,159.307,25.362,-54.476
11263,-0.4346,0.3262,-0.8604,0.488,0.732,0.000,159.313,25.356,-54.476
11273,-0.4380,0.3262,-0.8638,0.732,1.038,0.122,159.324,25.345,-54.476
11283,-0.4399,0.3267,-0.8677,0.671,1.343,0.061,159.329,25.334,-54.476
11293,-0.4370,0.3271,-0.8701,0.427,1.282,0.000,159.335,25.318,-54.476
11303,-0.4370,0.3276,-0.8735,0.183,0.793,0.000,159.340,25.312,-54.476
11313,-0.4346,0.3271,-0.8716,0.061,0.244,-0.061,159.346,25.307,-54.476
11323,-0.4326,0.3262,-0.8677,0.061,-0.366,-0.122,159.346,25.307,-54.476
11333,-0.4346,0.3247,-0.8691,0.244,-0.793,-0.122,159.346,25.312,-54.476
11344,-0.4365,0.3218,-0.8667,0.366,-0.854,-0.122,159.351,25.318,-54.476
11353,-0.4351,0.3198,-0.8613,0.305,-0.793,-0.061,159.357,25.329,-54.476
11363,-0.4380,0.3174,-0.8555,-0.183,-0.732,-0.061,159.357,25.340,-54.476
11373,-0.4414,0.3188,-0.8511,-0.732,-0.916,0.000,159.351,25.351,-54.476
11383,-0.4424,0.3247,-0.8530,-1.038,-0.916,0.061,159.335,25.367,-54.476
11393,-0.4429,0.3247,-0.8481,-0.549,-0.549,0.244,159.324,25.378,-54.476
11403,-0.4434,0.3223,-0.8457,0.183,-0.061,0.305,159.324,25.384,-54.476
11413,-0.4419,0.3193,-0.8467,0.671,0.366,0.366,159.329,25.384,-54.476
11423,-0.4404,0.3203,-0.8472,0.610,0.671,0.488,159.335,25.384,-54.476
11433,-0.4399,0.3252,-0.8564,0.366,1.099,0.549,159.335,25.373,-54.476
11443,-0.4390,0.3291,-0.8623,0.366,1.770,0.610,159.340,25.356,-54.476
11453,-0.4375,0.3291,-0.8618,0.427,2.197,0.488,159.340,25.334,-54.476
11463,-0.4370,0.3311,-0.8696,0.610,2.075,0.305,159.346,25.312,-54.476
11473,-0.4355,0.3350,-0.8745,0.610,1.526,0.183,159.351,25.291,-54.476
11483,-0.4326,0.3330,-0.8760,0.610,0.916,0.061,159.357,25.280,-54.476
11493,-0.4336,0.3335,-0.8740,0.427,0.305,-0.244,159.362,25.274,-54.476
11503,-0.4321,0.3311,-0.8740,0.122,-0.244,-0.610,159.362,25.274,-54.476
11513,-0.4336,0.3296,-0.8706,-0.183,-0.610,-0.793,159.362,25.280,-54.476
11523,-0.4346,0.3281,-0.8652,-0.488,-0.732,-0.977,159.362,25.285,-54.476
11533,-0.4355,0.3237,-0.8594,-0.671,-0.854,-1.160,159.357,25.302,-54.465
11543,-0.4390,0.3208,-0.8599,-0.793,-0.854,-1.160,159.357,25.312,-54.459
11553,-0.4404,0.3188,-0.8560,-0.671,-0.732,-1.038,159.351,25.329,-54.448
11563,-0.4390,0.3154,-0.8535,-0.244,-0.366,-0.732,159.357,25.340,-54.443
11573,-0.4380,0.3154,-0.8535,0.061,-0.183,-0.488,159.362,25.345,-54.437
11583,-0.4390,0.3154,-0.8564,0.305,0.000,-0.244,159.373,25.351,-54.437
11593,-0.4375,0.3164,-0.8589,0.427,0.366,0.000,159.379,25.351,-54.432
11603,-0.4365,0.3149,-0.8599,0.488,0.671,0.183,159.390,25.345,-54.432
11613,-0.4360,0.3169,-0.8628,0.305,0.854,0.305,159.401,25.334,-54.432
11623,-0.4360,0.3223,-0.8667,0.061,0.916,0.305,159.401,25.323,-54.432
11633,-0.4355,0.3232,-0.8716,0.000,0.916,0.366,159.406,25.312,-54.432
11643,-0.4331,0.3242,-0.8726,0.122,0.793,0.427,159.406,25.302,-54.437
11653,-0.4326,0.3257,-0.8730,0.122,0.366,0.366,159.406,25.291,-54.437
11663,-0.4316,0.3271,-0.8740,-0.061,-0.122,0.305,159.406,25.291,-54.443
11673,-0.4336,0.3257,-0.8730,-0.305,-0.549,0.244,159.401,25.291,-54.443
11683,-0.4331,0.3262,-0.8716,-0.427,-0.854,0.244,159.395,25.291,-54.454
11693,-0.4336,0.3232,-0.8677,-0.488,-1.099,0.061,159.390,25.302,-54.454
11703,-0.4365,0.3252,-0.8652,-0.549,-1.343,0.061,159.384,25.312,-54.459
11713,-0.4385,0.3237,-0.8599,-0.549,-1.465,0.122,159.373,25.329,-54.470
11723,-0.4395,0.3213,-0.8530,-0.366,-1.343,0.244,159.368,25.345,-54.476
11733,-0.4390,0.3213,-0.8525,-0.305,-1.160,0.305,159.362,25.356,-54.487
11743,-0.4404,0.3247,-0.8516,-0.183,-0.854,0.366,159.357,25.367,-54.492
11753,-0.4404,0.3218,-0.8521,-0.061,-0.427,0.427,159.351,25.373,-54.498
11763,-0.4399,0.3242,-0.8516,0.000,0.000,0.549,159.346,25.378,-54.503
11773,-0.4429,0.3267,-0.8545,0.000,0.427,0.488,159.340,25.378,-54.509
11783,-0.4434,0.3281,-0.8574,0.000,0.671,0.488,159.340,25.373,-54.509
11793,-0.4395,0.3296,-0.8589,0.122,0.671,0.427,159.335,25.367,-54.509
11803,-0.4390,0.3320,-0.8594,0.122,0.549,0.427,159.329,25.362,-54.514
11813,-0.4404,0.3301,-0.8618,0.061,0.366,0.305,159.329,25.356,-54.514
11823,-0.4385,0.3315,-0.8623,0.000,0.183,0.122,159.324,25.356,-54.514
11833,-0.4370,0.3306,-0.8657,-0.061,0.061,-0.061,159.324,25.356,-54.514
11844,-0.4375,0.3291,-0.8638,-0.122,0.061,-0.183,159.318,25.356,-54.514
11853,-0.4365,0.3267,-0.8633,-0.183,0.061,-0.305,159.318,25.356,-54.509
11863,-0.4380,0.3267,-0.8638,-0.244,-0.061,-0.366,159.318,25.356,-54.503
11873,-0.4360,0.3267,-0.8604,-0.244,-0.061,-0.427,159.318,25.356,-54.503
11883,-0.4375,0.3237,-0.8613,-0.122,0.000,-0.427,159.318,25.362,-54.498
11893,-0.4375,0.3228,-0.8569,0.061,0.122,-0.366,159.318,25.362,-54.492
11903,-0.4375,0.3218,-0.8574,0.122,0.366,-0.305,159.324,25.362,-54.487
11918,-0.4370,0.3218,-0.8599,0.061,0.549,-0.244,159.329,25.356,-54.481
11923,-0.4404,0.3198,-0.8599,0.061,0.610,-0.183,159.335,25.356,-54.481
11933,-0.4404,0.3228,-0.8579,0.122,0.610,-0.122,159.335,25.356,-54.476
11943,-0.4365,0.3223,-0.8574,0.122,0.366,-0.122,159.340,25.351,-54.470
11953,-0.4360,0.3218,-0.8647,0.122,0.122,-0.061,159.346,25.351,-54.470
11963,-0.4365,0.3242,-0.8662,0.183,0.183,0.061,159.346,25.351,-54.470
11973,-0.4346,0.3228,-0.8662,0.244,0.488,0.183,159.351,25.340,-54.470
11983,-0.4346,0.3242,-0.8687,0.244,0.671,0.183,159.357,25.334,-54.470
11993,-0.4346,0.3237,-0.8677,0.183,0.549,0.183,159.362,25.323,-54.470
12003,-0.4321,0.3223,-0.8662,0.122,0.061,0.244,159.362,25.323,-54.470
12013,-0.4341,0.3213,-0.8682,0.000,-0.427,0.305,159.362,25.323,-54.476
12023,-0.4365,0.3218,-0.8667,0.061,-0.671,0.366,159.362,25.329,-54.487
12033,-0.4355,0.3203,-0.8623,0.000,-0.854,0.366,159.362,25.334,-54.492
12043,-0.4375,0.3193,-0.8594,-0.061,-0.732,0.366,159.362,25.340,-54.498
12053,-0.4404,0.3188,-0.8594,-0.183,-0.549,0.427,159.362,25.345,-54.503
12063,-0.4404,0.3228,-0.8564,-0.366,-0.427,0.427,159.357,25.351,-54.509
12073,-0.4404,0.3232,-0.8535,-0.366,-0.305,0.488,159.346,25.356,-54.514
12083,-0.4409,0.3267,-0.8535,-0.244,-0.244,0.549,159.340,25.362,-54.525
12093,-0.4414,0.3252,-0.8560,0.000,-0.183,0.610,159.335,25.367,-54.531
12103,-0.4404,0.3262,-0.8569,0.183,0.000,0.610,159.335,25.367,-54.536
12113,-0.4395,0.3271,-0.8584,0.366,0.366,0.610,159.329,25.362,-54.542
12123,-0.4385,0.3311,-0.8594,0.305,0.671,0.488,159.329,25.356,-54.542
12133,-0.4365,0.3335,-0.8599,0.183,0.916,0.366,159.324,25.345,-54.542
12143,-0.4365,0.3325,-0.8638,0.122,0.916,0.183,159.324,25.334,-54.542
12153,-0.4360,0.3335,-0.8633,0.061,0.793,0.000,159.324,25.329,-54.542
12163,-0.4399,0.3325,-0.8662,0.000,0.610,-0.183,159.318,25.323,-54.536
12173,-0.4395,0.3340,-0.8672,-0.061,0.427,-0.427,159.318,25.323,-54.531
12183,-0.4380,0.3311,-0.8638,0.000,0.244,-0.549,159.318,25.323,-54.525
12193,-0.4351,0.3291,-0.8623,0.061,0.000,-0.671,159.318,25.323,-54.514
12203,-0.4360,0.3271,-0.8613,-0.061,-0.183,-0.732,159.318,25.329,-54.509
12213,-0.4385,0.3218,-0.8599,-0.183,-0.183,-0.793,159.324,25.334,-54.503
12223,-0.4365,0.3223,-0.8604,-0.305,-0.061,-0.854,159.324,25.340,-54.492
12233,-0.4360,0.3218,-0.8579,-0.488,0.183,-0.854,159.324,25.340,-54.481
12243,-0.4385,0.3213,-0.8594,-0.488,0.366,-0.854,159.329,25.340,-54.470
12253,-0.4365,0.3228,-0.8599,-0.244,0.549,-0.732,159.329,25.340,-54.465
12263,-0.4365,0.3184,-0.8608,0.122,0.549,-0.549,159.340,25.340,-54.454
12273,-0.4385,0.3159,-0.8589,0.305,0.427,-0.366,159.346,25.340,-54.448
12283,-0.4370,0.3149,-0.8599,0.183,0.061,-0.244,159.357,25.340,-54.448
12293,-0.4380,0.3149,-0.8584,-0.122,-0.122,-0.122,159.362,25.345,-54.448
12303,-0.4390,0.3154,-0.8560,-0.366,-0.061,0.061,159.362,25.345,-54.448
12313,-0.4370,0.3184,-0.8589,-0.488,0.244,0.244,159.357,25.345,-54.448
12323,-0.4360,0.3218,-0.8633,-0.305,0.671,0.427,159.357,25.340,-54.448
12333,-0.4346,0.3198,-0.8662,0.183,1.099,0.610,159.362,25.323,-54.454
12344,-0.4351,0.3213,-0.8667,0.427,1.160,0.732,159.368,25.312,-54.454
12353,-0.4341,0.3223,-0.8701,0.366,0.916,0.793,159.373,25.296,-54.459
12363,-0.4360,0.3208,-0.8730,0.183,0.549,0.854,159.373,25.285,-54.465
12373,-0.4355,0.3232,-0.8716,-0.183,0.122,0.916,159.373,25.280,-54.476
12383,-0.4346,0.3262,-0.8735,-0.305,-0.183,0.916,159.368,25.274,-54.487
12393,-0.4331,0.3291,-0.8696,-0.183,-0.305,0.916,159.357,25.274,-54.498
12403,-0.4360,0.3286,-0.8652,0.122,-0.366,0.916,159.357,25.274,-54.509
12413,-0.4370,0.3271,-0.8608,0.366,-0.671,0.671,159.351,25.280,-54.520
12423,-0.4370,0.3281,-0.8613,0.122,-0.854,0.610,159.346,25.285,-54.525
12433,-0.4385,0.3296,-0.8594,-0.061,-0.793,0.488,159.340,25.291,-54.536
12443,-0.4385,0.3262,-0.8564,-0.244,-0.549,0.427,159.335,25.302,-54.542
12453,-0.4409,0.3296,-0.8545,-0.305,-0.366,0.366,159.324,25.307,-54.547
12463,-0.4414,0.3320,-0.8555,-0.183,-0.122,0.305,159.313,25.307,-54.553
12473,-0.4395,0.3311,-0.8525,0.183,0.244,0.244,159.313,25.307,-54.553
12483,-0.4390,0.3296,-0.8535,0.488,0.610,0.183,159.313,25.307,-54.553
12493,-0.4395,0.3271,-0.8540,0.488,0.732,0.061,159.313,25.302,-54.547
12503,-0.4399,0.3276,-0.8584,0.244,0.549,-0.122,159.318,25.302,-54.547
12513,-0.4395,0.3296,-0.8623,0.000,0.488,-0.244,159.313,25.302,-54.542
12523,-0.4365,0.3301,-0.8638,-0.061,0.671,-0.305,159.313,25.296,-54.536
12533,-0.4365,0.3296,-0.8618,0.000,0.854,-0.427,159.318,25.285,-54.525
12543,-0.4351,0.3315,-0.8667,0.122,0.916,-0.549,159.318,25.280,-54.520
12553,-0.4341,0.3291,-0.8672,0.305,0.671,-0.549,159.324,25.274,-54.520
12563,-0.4355,0.3281,-0.8657,0.366,0.488,-0.610,159.329,25.269,-54.520
12573,-0.4351,0.3262,-0.8652,0.305,0.244,-0.610,159.335,25.269,-54.520
12583,-0.4336,0.3247,-0.8662,0.183,0.000,-0.732,159.340,25.269,-54.520
12593,-0.4351,0.3232,-0.8652,0.061,-0.122,-0.732,159.346,25.274,-54.520
12603,-0.4360,0.3223,-0.8633,-0.061,-0.122,-0.793,159.351,25.280,-54.520
12613,-0.4380,0.3218,-0.8608,-0.122,0.000,-0.732,159.357,25.285,-54.520
12623,-0.4370,0.3213,-0.8599,-0.122,0.122,-0.671,159.357,25.285,-54.520
12633,-0.4380,0.3223,-0.8613,-0.061,0.244,-0.549,159.362,25.285,-54.520
12643,-0.4385,0.3198,-0.8599,0.061,0.305,-0.488,159.368,25.291,-54.520
12653,-0.4336,0.3174,-0.8618,0.183,0.122,-0.427,159.379,25.291,-54.520
12663,-0.4336,0.3188,-0.8623,0.000,-0.122,-0.366,159.379,25.291,-54.520
12673,-0.4390,0.3198,-0.8623,-0.305,-0.183,-0.305,159.384,25.296,-54.520
12683,-0.4380,0.3208,-0.8638,-0.488,-0.061,-0.244,159.379,25.296,-54.520
12693,-0.4375,0.3203,-0.8633,-0.488,0.122,-0.183,159.379,25.302,-54.520
12703,-0.4360,0.3228,-0.8647,-0.366,0.183,0.000,159.379,25.296,-54.520
12713,-0.4360,0.3228,-0.8643,-0.122,0.122,0.183,159.379,25.296,-54.520
12723,-0.4336,0.3203,-0.8657,0.122,0.000,0.244,159.379,25.296,-54.520
12733,-0.4346,0.3193,-0.8638,0.244,-0.244,0.366,159.384,25.296,-54.520
12743,-0.4351,0.3174,-0.8628,0.122,-0.488,0.488,159.384,25.296,-54.520
12753,-0.4375,0.3203,-0.8589,-0.183,-0.549,0.549,159.384,25.302,-54.520
12763,-0.4375,0.3223,-0.8584,-0.549,-0.427,0.610,159.373,25.307,-54.520
12773,-0.4380,0.3218,-0.8569,-0.610,-0.061,0.610,159.368,25.307,-54.520
12783,-0.4409,0.3223,-0.8564,-0.610,0.061,0.671,159.357,25.307,-54.520
12793,-0.4409,0.3242,-0.8550,-0.549,0.000,0.732,159.346,25.312,-54.520
12803,-0.4404,0.3276,-0.8579,-0.488,-0.061,0.732,159.335,25.312,-54.520
12813,-0.4395,0.3286,-0.8579,-0.183,0.122,0.793,159.329,25.312,-54.520
12823,-0.4380,0.3291,-0.8574,0.183,0.610,0.793,159.324,25.307,-54.520
12833,-0.4365,0.3291,-0.8555,0.427,0.916,0.671,159.324,25.296,-54.520
12844,-0.4355,0.3315,-0.8608,0.305,0.977,0.488,159.324,25.285,-54.520
12853,-0.4346,0.3315,-0.8623,0.183,0.854,0.366,159.318,25.274,-54.520
12863,-0.4370,0.3325,-0.8657,0.061,0.793,0.305,159.318,25.263,-54.520
12873,-0.4375,0.3340,-0.8628,-0.061,0.732,0.061,159.313,25.258,-54.520
12883,-0.4385,0.3325,-0.8623,0.000,0.671,-0.061,159.313,25.252,-54.520
12893,-0.4370,0.3306,-0.8618,0.000,0.488,-0.183,159.307,25.252,-54.520
12903,-0.4351,0.3311,-0.8604,0.000,0.488,-0.244,159.307,25.247,-54.520
12913,-0.4370,0.3301,-0.8608,0.000,0.488,-0.305,159.307,25.247,-54.520
12923,-0.4380,0.3276,-0.8589,0.061,0.610,-0.305,159.307,25.241,-54.520
12933,-0.4390,0.3252,-0.8555,0.122,0.854,-0.427,159.313,25.241,-54.520
12943,-0.4409,0.3228,-0.8555,0.061,1.038,-0.549,159.318,25.236,-54.520
12953,-0.4409,0.3232,-0.8540,-0.061,1.221,-0.549,159.318,25.236,-54.520
12963,-0.4395,0.3218,-0.8540,-0.122,1.465,-0.488,159.324,25.225,-54.520
12973,-0.4370,0.3213,-0.8560,0.061,1.587,-0.427,159.329,25.219,-54.520
12983,-0.4336,0.3203,-0.8579,0.305,1.587,-0.305,159.340,25.203,-54.520
12993,-0.4326,0.3193,-0.8618,0.549,1.648,-0.122,159.351,25.192,-54.520
13003,-0.4297,0.3213,-0.8657,0.671,1.892,0.000,159.362,25.170,-54.520
13013,-0.4282,0.3198,-0.8687,0.732,2.197,0.122,159.379,25.148,-54.520
13023,-0.4297,0.3213,-0.8730,0.610,2.319,0.183,159.390,25.120,-54.520
13033,-0.4297,0.3223,-0.8760,0.183,2.136,0.183,159.401,25.098,-54.520
13043,-0.4292,0.3213,-0.8765,-0.366,1.648,0.183,159.401,25.076,-54.520
13053,-0.4277,0.3218,-0.8813,-0.671,1.038,0.183,159.401,25.060,-54.520
13063,-0.4287,0.3213,-0.8799,-0.732,0.488,0.183,159.401,25.049,-54.520
13073,-0.4302,0.3228,-0.8789,-0.610,0.122,0.183,159.395,25.043,-54.520
13083,-0.4282,0.3218,-0.8784,-0.427,-0.183,0.244,159.395,25.043,-54.520
13093,-0.4297,0.3198,-0.8745,-0.366,-0.549,0.305,159.395,25.043,-54.520
13103,-0.4302,0.3174,-0.8706,-0.610,-0.916,0.427,159.390,25.049,-54.520
13113,-0.4316,0.3188,-0.8672,-0.854,-1.160,0.549,159.384,25.054,-54.520
13123,-0.4326,0.3218,-0.8672,-1.038,-1.160,0.732,159.368,25.065,-54.520
13133,-0.4331,0.3223,-0.8618,-0.793,-0.854,0.916,159.357,25.071,-54.520
13143,-0.4331,0.3228,-0.8589,-0.488,-0.610,1.099,159.346,25.076,-54.531
13153,-0.4346,0.3223,-0.8579,-0.244,-0.488,1.160,159.340,25.076,-54.547
13163,-0.4360,0.3237,-0.8594,-0.183,-0.366,1.282,159.335,25.082,-54.564
13173,-0.4360,0.3271,-0.8618,-0.122,-0.244,1.343,159.324,25.082,-54.575
13183,-0.4360,0.3262,-0.8564,-0.244,-0.122,1.343,159.313,25.082,-54.591
13193,-0.4370,0.3296,-0.8564,-0.427,-0.244,1.221,159.302,25.082,-54.602
13203,-0.4360,0.3315,-0.8608,-0.549,-0.244,1.160,159.285,25.082,-54.619
13213,-0.4370,0.3330,-0.8594,-0.427,-0.183,1.099,159.274,25.082,-54.630
13223,-0.4355,0.3306,-0.8560,-0.366,-0.122,0.977,159.258,25.087,-54.641
13233,-0.4375,0.3359,-0.8594,-0.366,-0.122,0.854,159.247,25.087,-54.646
13244,-0.4370,0.3374,-0.8608,-0.305,-0.122,0.732,159.236,25.087,-54.657
13254,-0.4351,0.3359,-0.8608,-0.122,0.122,0.549,159.225,25.087,-54.662
13264,-0.4355,0.3384,-0.8618,-0.061,0.305,0.427,159.214,25.082,-54.662
13274,-0.4341,0.3379,-0.8638,-0.122,0.427,0.122,159.208,25.076,-54.662
13284,-0.4351,0.3369,-0.8623,-0.122,0.549,-0.183,159.203,25.076,-54.662
13294,-0.4360,0.3350,-0.8628,-0.183,0.549,-0.366,159.203,25.071,-54.657
13304,-0.4341,0.3359,-0.8628,-0.305,0.366,-0.549,159.197,25.071,-54.646
13314,-0.4360,0.3345,-0.8618,-0.305,0.183,-0.793,159.192,25.076,-54.641
13324,-0.4360,0.3320,-0.8604,-0.244,-0.061,-0.854,159.192,25.082,-54.630
13334,-0.4360,0.3271,-0.8545,-0.244,-0.183,-0.916,159.192,25.087,-54.619
13344,-0.4341,0.3262,-0.8535,-0.244,-0.305,-0.916,159.192,25.098,-54.613
13353,-0.4341,0.3257,-0.8574,-0.122,0.061,-0.977,159.192,25.104,-54.602
13363,-0.4341,0.3242,-0.8579,0.061,0.793,-0.793,159.197,25.098,-54.591
13373,-0.4326,0.3228,-0.8584,0.183,1.465,-0.732,159.208,25.093,-54.580
13384,-0.4316,0.3228,-0.8652,0.122,1.709,-0.671,159.219,25.076,-54.564
13394,-0.4297,0.3237,-0.8682,0.183,1.587,-0.549,159.230,25.065,-54.553
13404,-0.4297,0.3223,-0.8726,0.366,1.343,-0.427,159.241,25.049,-54.542
13414,-0.4316,0.3198,-0.8701,0.427,0.732,-0.366,159.252,25.043,-54.536
13424,-0.4321,0.3228,-0.8716,0.244,0.122,-0.183,159.263,25.043,-54.536
13434,-0.4297,0.3228,-0.8755,0.061,-0.122,-0.061,159.269,25.038,-54.536
13443,-0.4272,0.3203,-0.8687,0.061,-0.244,0.000,159.274,25.038,-54.536
13453,-0.4302,0.3203,-0.8643,-0.061,-0.610,0.000,159.274,25.043,-54.536
13464,-0.4321,0.3174,-0.8618,-0.366,-1.038,0.061,159.274,25.054,-54.542
13474,-0.4331,0.3218,-0.8608,-0.671,-1.221,0.244,159.269,25.065,-54.547
13484,-0.4341,0.3232,-0.8608,-0.488,-0.916,0.488,159.258,25.076,-54.558
13494,-0.4336,0.3218,-0.8579,-0.061,-0.305,0.671,159.258,25.082,-54.564
13504,-0.4341,0.3228,-0.8545,0.366,0.061,0.671,159.258,25.082,-54.575
13513,-0.4336,0.3223,-0.8589,0.366,0.000,0.732,159.263,25.082,-54.580
13524,-0.4297,0.3262,-0.8613,0.183,0.061,0.854,159.258,25.076,-54.591
13534,-0.4297,0.3306,-0.8638,0.122,0.305,0.977,159.258,25.065,-54.597
13544,-0.4277,0.3315,-0.8677,0.183,0.488,0.916,159.252,25.054,-54.608
13554,-0.4292,0.3345,-0.8701,0.366,0.549,0.671,159.252,25.043,-54.608
13564,-0.4336,0.3364,-0.8716,0.488,0.366,0.427,159.252,25.038,-54.613
13574,-0.4326,0.3364,-0.8726,0.366,0.061,0.244,159.252,25.038,-54.613
13584,-0.4312,0.3350,-0.8667,0.122,-0.427,0.061,159.247,25.038,-54.619
13594,-0.4307,0.3354,-0.8672,-0.183,-0.977,-0.244,159.241,25.049,-54.619
13604,-0.4351,0.3374,-0.8662,-0.305,-1.343,-0.488,159.230,25.060,-54.619
13614,-0.4355,0.3330,-0.8608,-0.244,-1.404,-0.732,159.225,25.076,-54.619
13624,-0.4360,0.3296,-0.8560,-0.305,-1.160,-0.916,159.225,25.098,-54.613
13634,-0.4360,0.3271,-0.8555,-0.427,-1.038,-1.038,159.219,25.115,-54.608
13644,-0.4336,0.3262,-0.8540,-0.488,-0.854,-1.038,159.219,25.126,-54.597
13654,-0.4360,0.3257,-0.8545,-0.244,-0.549,-0.916,159.219,25.137,-54.591
13664,-0.4365,0.3232,-0.8506,0.061,-0.305,-0.671,159.219,25.148,-54.586
13674,-0.4365,0.3198,-0.8481,0.366,-0.183,-0.549,159.225,25.159,-54.580
13684,-0.4351,0.3203,-0.8560,0.488,0.061,-0.427,159.236,25.164,-54.575
13694,-0.4355,0.3218,-0.8594,0.610,0.610,-0.305,159.247,25.159,-54.569
13704,-0.4351,0.3228,-0.8584,0.610,1.099,-0.183,159.258,25.153,-54.564
13714,-0.4341,0.3223,-0.8608,0.366,1.221,-0.244,159.263,25.142,-54.558
13724,-0.4326,0.3252,-0.8696,0.183,1.099,-0.183,159.274,25.131,-54.553
13734,-0.4341,0.3257,-0.8721,0.244,1.038,0.061,159.280,25.120,-54.547
13744,-0.4326,0.3267,-0.8750,0.488,0.977,0.061,159.285,25.109,-54.542
13754,-0.4316,0.3252,-0.8760,0.610,0.488,-0.061,159.296,25.104,-54.542
13764,-0.4331,0.3242,-0.8755,0.427,-0.244,-0.183,159.307,25.104,-54.542
13774,-0.4341,0.3232,-0.8735,0.122,-1.099,-0.244,159.313,25.115,-54.542
13784,-0.4316,0.3223,-0.8701,-0.366,-1.709,-0.305,159.307,25.126,-54.547
13794,-0.4307,0.3237,-0.8657,-0.610,-1.953,-0.305,159.302,25.148,-54.547
13804,-0.4321,0.3262,-0.8652,-0.549,-1.831,-0.305,159.296,25.164,-54.553
13814,-0.4331,0.3237,-0.8594,-0.061,-1.343,-0.122,159.296,25.175,-54.558
13824,-0.4351,0.3223,-0.8550,0.427,-0.977,0.000,159.296,25.186,-54.564
13834,-0.4390,0.3188,-0.8511,0.427,-0.793,0.122,159.302,25.203,-54.564
13844,-0.4399,0.3184,-0.8496,0.122,-0.793,0.244,159.302,25.214,-54.569
13854,-0.4399,0.3223,-0.8516,-0.305,-0.671,0.366,159.296,25.225,-54.580
13864,-0.4399,0.3237,-0.8525,-0.305,-0.183,0.488,159.291,25.230,-54.586
13874,-0.4414,0.3247,-0.8535,0.061,0.549,0.610,159.285,25.230,-54.586
13884,-0.4385,0.3252,-0.8545,0.427,1.160,0.610,159.291,25.219,-54.591
13894,-0.4380,0.3281,-0.8604,0.610,1.343,0.610,159.291,25.208,-54.591
13904,-0.4351,0.3296,-0.8623,0.671,1.221,0.610,159.296,25.197,-54.591
13914,-0.4341,0.3330,-0.8682,0.671,1.038,0.549,159.302,25.181,-54.591
13924,-0.4336,0.3340,-0.8726,0.427,0.793,0.305,159.302,25.170,-54.597
13934,-0.4331,0.3340,-0.8740,0.366,0.671,0.183,159.302,25.159,-54.591
13944,-0.4336,0.3325,-0.8711,0.244,0.488,-0.061,159.307,25.153,-54.591
13954,-0.4331,0.3311,-0.8711,0.061,0.183,-0.366,159.307,25.153,-54.586
13964,-0.4326,0.3330,-0.8716,-0.183,-0.305,-0.549,159.302,25.153,-54.580
13974,-0.4346,0.3311,-0.8696,-0.366,-0.671,-0.610,159.302,25.159,-54.580
13984,-0.4355,0.3262,-0.8647,-0.366,-0.793,-0.732,159.302,25.170,-54.575
13994,-0.4370,0.3237,-0.8599,-0.366,-0.854,-0.793,159.296,25.186,-54.569
14004,-0.4360,0.3223,-0.8584,-0.366,-0.854,-0.793,159.296,25.197,-54.564
14014,-0.4375,0.3198,-0.8584,-0.366,-0.793,-0.793,159.302,25.214,-54.558
14024,-0.4380,0.3198,-0.8545,-0.305,-0.549,-0.610,159.302,25.225,-54.553
14034,-0.4351,0.3188,-0.8530,-0.183,-0.244,-0.488,159.302,25.230,-54.553
14044,-0.4355,0.3179,-0.8569,-0.061,-0.061,-0.366,159.307,25.236,-54.547
14054,-0.4370,0.3218,-0.8574,0.061,0.183,-0.122,159.307,25.236,-54.547
14064,-0.4375,0.3247,-0.8623,0.183,0.549,0.061,159.313,25.230,-54.542
14074,-0.4346,0.3257,-0.8652,0.366,0.916,0.183,159.318,25.225,-54.542
14084,-0.4336,0.3257,-0.8691,0.549,0.916,0.183,159.324,25.214,-54.542
14094,-0.4302,0.3247,-0.8711,0.549,0.671,0.244,159.335,25.203,-54.542
14104,-0.4297,0.3232,-0.8730,0.366,0.122,0.244,159.340,25.197,-54.542
14114,-0.4336,0.3257,-0.8701,0.244,-0.427,0.305,159.340,25.197,-54.547
14124,-0.4346,0.3247,-0.8667,0.061,-0.793,0.305,159.340,25.203,-54.553
14134,-0.4355,0.3228,-0.8618,-0.244,-0.977,0.244,159.335,25.214,-54.558
14144,-0.4375,0.3247,-0.8594,-0.427,-1.038,0.183,159.329,25.225,-54.564
14154,-0.4390,0.3237,-0.8579,-0.427,-0.854,0.305,159.324,25.236,-54.569
14164,-0.4399,0.3232,-0.8550,-0.366,-0.610,0.366,159.313,25.241,-54.580
14174,-0.4399,0.3223,-0.8550,-0.305,-0.427,0.366,159.307,25.252,-54.586
14184,-0.4395,0.3228,-0.8560,-0.183,-0.366,0.366,159.307,25.258,-54.591
14194,-0.4390,0.3223,-0.8540,-0.061,-0.305,0.427,159.302,25.263,-54.597
14204,-0.4380,0.3247,-0.8574,0.000,-0.061,0.427,159.302,25.263,-54.597
14214,-0.4355,0.3267,-0.8579,0.183,0.183,0.366,159.302,25.263,-54.602
14224,-0.4336,0.3296,-0.8613,0.183,0.366,0.366,159.296,25.258,-54.602
14234,-0.4351,0.3311,-0.8667,0.122,0.427,0.305,159.296,25.252,-54.608
14244,-0.4336,0.3296,-0.8662,0.061,0.427,0.183,159.296,25.241,-54.608
14254,-0.4346,0.3311,-0.8643,0.061,0.427,0.122,159.296,25.241,-54.608
14264,-0.4380,0.3325,-0.8657,-0.122,0.305,0.000,159.291,25.236,-54.602
14274,-0.4365,0.3301,-0.8647,-0.183,0.000,-0.122,159.285,25.236,-54.602
14284,-0.4336,0.3286,-0.8643,-0.305,-0.244,-0.244,159.285,25.241,-54.602
14294,-0.4346,0.3301,-0.8638,-0.488,-0.488,-0.366,159.280,25.247,-54.602
14304,-0.4355,0.3286,-0.8594,-0.549,-0.610,-0.549,159.269,25.252,-54.597
14314,-0.4360,0.3281,-0.8584,-0.488,-0.488,-0.610,159.269,25.263,-54.591
14324,-0.4375,0.3242,-0.8594,-0.488,-0.122,-0.610,159.263,25.263,-54.586
14334,-0.4395,0.3223,-0.8589,-0.488,0.061,-0.610,159.263,25.269,-54.580
14344,-0.4399,0.3242,-0.8604,-0.427,0.183,-0.549,159.263,25.274,-54.575
14354,-0.4399,0.3247,-0.8584,-0.122,0.244,-0.427,159.263,25.274,-54.569
14364,-0.4385,0.3208,-0.8564,0.122,0.244,-0.305,159.269,25.280,-54.564
14374,-0.4385,0.3193,-0.8555,0.244,0.122,-0.183,159.274,25.280,-54.564
14384,-0.4399,0.3193,-0.8545,0.183,0.183,-0.122,159.280,25.285,-54.558
14394,-0.4380,0.3257,-0.8599,-0.183,0.427,-0.061,159.280,25.285,-54.558
14404,-0.4351,0.3296,-0.8647,-0.122,1.099,0.061,159.280,25.274,-54.553
14414,-0.4341,0.3271,-0.8652,0.183,1.526,0.061,159.285,25.258,-54.547
14424,-0.4326,0.3252,-0.8657,0.366,1.404,0.000,159.291,25.241,-54.542
14434,-0.4316,0.3262,-0.8701,0.183,0.732,-0.061,159.296,25.230,-54.542
14444,-0.4326,0.3286,-0.8750,-0.122,0.061,0.000,159.296,25.230,-54.536
14454,-0.4312,0.3325,-0.8799,-0.183,-0.244,0.061,159.291,25.225,-54.542
14464,-0.4302,0.3315,-0.8774,0.000,-0.183,-0.061,159.291,25.219,-54.542
14474,-0.4336,0.3286,-0.8740,0.183,-0.366,-0.244,159.296,25.219,-54.542
14484,-0.4351,0.3242,-0.8696,0.061,-1.038,-0.366,159.296,25.230,-54.542
14494,-0.4355,0.3237,-0.8652,-0.305,-1.770,-0.427,159.296,25.247,-54.542
14504,-0.4404,0.3228,-0.8599,-0.610,-2.136,-0.366,159.291,25.274,-54.547
14514,-0.4409,0.3218,-0.8521,-0.732,-2.136,-0.305,159.280,25.302,-54.553
14524,-0.4399,0.3203,-0.8486,-0.488,-1.770,-0.183,159.274,25.323,-54.558
14534,-0.4399,0.3208,-0.8472,-0.122,-1.221,0.000,159.269,25.340,-54.564
14544,-0.4395,0.3203,-0.8472,0.183,-0.610,0.244,159.269,25.351,-54.569
14554,-0.4409,0.3203,-0.8486,0.305,0.122,0.488,159.274,25.351,-54.569
14564,-0.4414,0.3213,-0.8506,0.366,0.671,0.671,159.274,25.351,-54.575
14574,-0.4409,0.3247,-0.8535,0.427,0.977,0.732,159.274,25.340,-54.580
14584,-0.4399,0.3271,-0.8589,0.549,1.221,0.732,159.280,25.329,-54.580
14594,-0.4385,0.3306,-0.8638,0.671,1.404,0.732,159.280,25.318,-54.586
14604,-0.4375,0.3320,-0.8696,0.793,1.343,0.610,159.285,25.302,-54.586
14614,-0.4355,0.3311,-0.8687,0.671,0.916,0.366,159.291,25.291,-54.586
14624,-0.4346,0.3330,-0.8696,0.427,0.244,0.183,159.296,25.285,-54.586
14634,-0.4331,0.3320,-0.8696,0.122,-0.366,0.000,159.291,25.285,-54.586
14644,-0.4370,0.3335,-0.8647,-0.122,-0.671,-0.183,159.285,25.291,-54.586
14654,-0.4360,0.3315,-0.8618,-0.305,-0.793,-0.366,159.280,25.296,-54.586
14664,-0.4365,0.3315,-0.8623,-0.366,-0.854,-0.610,159.274,25.307,-54.586
14674,-0.4365,0.3281,-0.8574,-0.244,-0.732,-0.610,159.274,25.318,-54.586
14684,-0.4380,0.3262,-0.8550,-0.122,-0.488,-0.610,159.274,25.329,-54.586
14694,-0.4399,0.3228,-0.8530,0.000,-0.183,-0.610,159.274,25.334,-54.586
14704,-0.4395,0.3228,-0.8535,0.000,0.122,-0.549,159.274,25.340,-54.586
14714,-0.4385,0.3213,-0.8579,0.000,0.366,-0.488,159.280,25.340,-54.586
14724,-0.4409,0.3223,-0.8564,0.000,0.671,-0.366,159.285,25.340,-54.586
14734,-0.4380,0.3237,-0.8584,0.183,0.854,-0.244,159.291,25.334,-54.586
14744,-0.4365,0.3242,-0.8618,0.427,0.854,-0.183,159.296,25.329,-54.586
14754,-0.4360,0.3223,-0.8647,0.488,0.732,-0.122,159.307,25.323,-54.586
14764,-0.4399,0.3218,-0.8662,0.427,0.671,-0.183,159.318,25.318,-54.586
14774,-0.4375,0.3237,-0.8672,0.183,0.549,-0.122,159.324,25.312,-54.586
14784,-0.4370,0.3252,-0.8687,-0.061,0.427,-0.122,159.324,25.307,-54.586
14794,-0.4351,0.3252,-0.8721,-0.061,0.305,-0.122,159.324,25.302,-54.586
14804,-0.4331,0.3218,-0.8711,0.000,0.000,-0.122,159.329,25.302,-54.586
14814,-0.4321,0.3213,-0.8638,0.000,-0.549,-0.061,159.335,25.302,-54.586
14824,-0.4321,0.3223,-0.8623,-0.061,-1.038,0.061,159.329,25.312,-54.586
14834,-0.4355,0.3232,-0.8623,-0.122,-1.160,0.183,159.329,25.323,-54.586
14845,-0.4375,0.3203,-0.8564,-0.183,-0.793,0.305,159.324,25.329,-54.586
14854,-0.4399,0.3184,-0.8535,-0.305,-0.427,0.427,159.324,25.340,-54.586
14864,-0.4409,0.3208,-0.8511,-0.427,-0.183,0.488,159.318,25.345,-54.586
14874,-0.4414,0.3252,-0.8540,-0.549,-0.183,0.549,159.307,25.345,-54.586
14884,-0.4429,0.3271,-0.8584,-0.244,0.061,0.671,159.302,25.351,-54.586
14894,-0.4419,0.3267,-0.8555,0.183,0.305,0.793,159.296,25.345,-54.586
14904,-0.4409,0.3271,-0.8545,0.366,0.427,0.671,159.296,25.345,-54.586
14914,-0.4380,0.3301,-0.8589,0.305,0.427,0.671,159.291,25.340,-54.586
14924,-0.4360,0.3311,-0.8643,0.183,0.427,0.610,159.291,25.334,-54.586
14934,-0.4355,0.3320,-0.8633,0.183,0.671,0.549,159.285,25.323,-54.586
14944,-0.4375,0.3340,-0.8618,0.122,0.916,0.305,159.285,25.312,-54.586
14954,-0.4355,0.3335,-0.8599,0.000,0.854,0.122,159.280,25.307,-54.586
14964,-0.4375,0.3374,-0.8638,0.000,0.732,-0.061,159.274,25.296,-54.586
14974,-0.4375,0.3335,-0.8667,0.061,0.610,-0.183,159.274,25.291,-54.586
14984,-0.4375,0.3320,-0.8677,0.183,0.488,-0.427,159.274,25.291,-54.586
14994,-0.4365,0.3291,-0.8623,0.061,0.244,-0.671,159.280,25.291,-54.586
15004,-0.4355,0.3267,-0.8638,-0.244,-0.183,-0.793,159.280,25.291,-54.586
15014,-0.4370,0.3281,-0.8633,-0.610,-0.549,-0.793,159.274,25.302,-54.586
15024,-0.4365,0.3247,-0.8638,-0.610,-0.305,-0.793,159.274,25.307,-54.586
15034,-0.4375,0.3193,-0.8579,-0.366,0.244,-0.732,159.274,25.307,-54.586
15044,-0.4390,0.3179,-0.8540,-0.183,0.549,-0.732,159.280,25.312,-54.586
15054,-0.4375,0.3169,-0.8560,-0.122,0.488,-0.610,159.291,25.312,-54.586
15064,-0.4375,0.3184,-0.8584,-0.183,0.244,-0.366,159.291,25.312,-54.586
15074,-0.4351,0.3184,-0.8618,0.061,0.427,-0.061,159.296,25.307,-54.586
15084,-0.4370,0.3193,-0.8589,0.366,0.610,0.122,159.307,25.307,-54.586
15094,-0.4355,0.3203,-0.8618,0.488,0.732,0.183,159.313,25.296,-54.586
15104,-0.4331,0.3232,-0.8662,0.427,0.793,0.305,159.318,25.291,-54.586
15114,-0.4321,0.3232,-0.8691,0.305,0.732,0.427,159.324,25.280,-54.586
15124,-0.4336,0.3218,-0.8701,0.061,0.610,0.427,159.329,25.269,-54.586
15134,-0.4341,0.3228,-0.8682,-0.244,0.183,0.366,159.329,25.263,-54.586
15144,-0.4336,0.3262,-0.8711,-0.488,-0.305,0.366,159.324,25.263,-54.586
15154,-0.4341,0.3252,-0.8691,-0.427,-0.488,0.427,159.318,25.263,-54.586
15164,-0.4351,0.3237,-0.8696,-0.122,-0.549,0.488,159.313,25.263,-54.586
15174,-0.4370,0.3247,-0.8667,0.061,-0.671,0.427,159.313,25.269,-54.586
15184,-0.4360,0.3267,-0.8652,0.122,-0.916,0.366,159.313,25.280,-54.586
15194,-0.4380,0.3247,-0.8633,0.061,-1.221,0.366,159.307,25.291,-54.586
15204,-0.4365,0.3242,-0.8584,-0.122,-1.404,0.427,159.302,25.302,-54.586
15214,-0.4404,0.3242,-0.8550,-0.366,-1.465,0.427,159.296,25.318,-54.586
15224,-0.4404,0.3267,-0.8545,-0.305,-1.343,0.427,159.285,25.334,-54.586
15234,-0.4414,0.3276,-0.8516,-0.061,-0.916,0.427,159.280,25.345,-54.586
15244,-0.4404,0.3257,-0.8511,0.183,-0.488,0.427,159.274,25.351,-54.586
15254,-0.4429,0.3247,-0.8457,0.244,-0.305,0.488,159.274,25.362,-54.586
15264,-0.4419,0.3276,-0.8501,0.061,-0.122,0.427,159.269,25.367,-54.586
15274,-0.4404,0.3311,-0.8545,0.000,0.244,0.488,159.263,25.362,-54.586
15284,-0.4414,0.3301,-0.8564,0.183,0.793,0.488,159.258,25.356,-54.586
15294,-0.4414,0.3286,-0.8564,0.366,0.977,0.305,159.263,25.351,-54.586
15304,-0.4404,0.3296,-0.8594,0.366,0.793,0.183,159.263,25.345,-54.586
15314,-0.4395,0.3320,-0.8643,0.183,0.610,0.122,159.263,25.340,-54.586
15324,-0.4385,0.3330,-0.8672,0.183,0.488,0.000,159.263,25.334,-54.586
15334,-0.4390,0.3340,-0.8662,0.305,0.549,-0.244,159.263,25.329,-54.586
15344,-0.4375,0.3311,-0.8672,0.244,0.488,-0.427,159.269,25.329,-54.586
15354,-0.4336,0.3320,-0.8667,0.183,0.061,-0.610,159.269,25.323,-54.586
15364,-0.4346,0.3296,-0.8643,0.061,-0.305,-0.671,159.269,25.329,-54.586
15374,-0.4380,0.3271,-0.8628,-0.061,-0.549,-0.671,159.274,25.334,-54.586
15384,-0.4385,0.3237,-0.8564,-0.183,-0.549,-0.671,159.274,25.345,-54.586
15394,-0.4404,0.3242,-0.8579,-0.244,-0.549,-0.671,159.274,25.356,-54.586
15404,-0.4390,0.3242,-0.8569,-0.183,-0.244,-0.610,159.274,25.362,-54.586
15414,-0.4360,0.3203,-0.8589,0.122,0.244,-0.488,159.280,25.367,-54.586
15424,-0.4380,0.3159,-0.8589,0.305,0.488,-0.427,159.291,25.362,-54.586
15434,-0.4414,0.3164,-0.8613,0.244,0.610,-0.305,159.302,25.362,-54.586
15444,-0.4395,0.3188,-0.8589,0.122,0.488,-0.122,159.307,25.362,-54.586
15454,-0.4355,0.3203,-0.8589,0.122,0.305,0.000,159.307,25.356,-54.586
15464,-0.4351,0.3213,-0.8633,0.122,0.183,0.122,159.313,25.356,-54.586
15474,-0.4385,0.3223,-0.8672,0.244,0.366,0.244,159.318,25.351,-54.586
15484,-0.4385,0.3218,-0.8667,0.488,0.549,0.305,159.324,25.345,-54.586
15494,-0.4365,0.3218,-0.8657,0.488,0.610,0.305,159.335,25.340,-54.586
15504,-0.4365,0.3228,-0.8706,0.244,0.244,0.183,159.340,25.334,-54.586
15514,-0.4355,0.3247,-0.8716,-0.061,-0.183,0.183,159.340,25.334,-54.586
15524,-0.4316,0.3257,-0.8687,-0.122,-0.549,0.305,159.335,25.334,-54.586
15534,-0.4326,0.3203,-0.8633,0.061,-0.793,0.305,159.340,25.340,-54.586
15544,-0.4360,0.3213,-0.8604,0.061,-1.038,0.305,159.335,25.345,-54.586
15554,-0.4385,0.3232,-0.8618,0.000,-0.977,0.366,159.335,25.356,-54.586
15564,-0.4409,0.3232,-0.8545,0.000,-0.793,0.427,159.329,25.367,-54.586
15574,-0.4424,0.3232,-0.8506,-0.183,-0.488,0.488,159.324,25.373,-54.586
15584,-0.4443,0.3218,-0.8521,-0.305,-0.488,0.549,159.318,25.384,-54.586
15594,-0.4453,0.3247,-0.8540,-0.488,-0.427,0.549,159.307,25.389,-54.586
15604,-0.4419,0.3262,-0.8545,-0.244,-0.061,0.610,159.302,25.395,-54.586
15614,-0.4395,0.3262,-0.8521,0.061,0.488,0.671,159.296,25.389,-54.586
15624,-0.4404,0.3257,-0.8550,0.366,0.732,0.610,159.296,25.384,-54.586
15634,-0.4390,0.3276,-0.8589,0.427,0.854,0.549,159.302,25.378,-54.586
15644,-0.4385,0.3286,-0.8594,0.549,1.038,0.427,159.302,25.367,-54.586
15654,-0.4390,0.3291,-0.8604,0.427,0.977,0.366,159.307,25.356,-54.586
15664,-0.4385,0.3311,-0.8628,0.122,0.916,0.183,159.302,25.351,-54.586
15674,-0.4390,0.3340,-0.8667,-0.122,0.671,0.000,159.302,25.340,-54.586
15684,-0.4375,0.3330,-0.8696,-0.061,0.549,-0.122,159.296,25.334,-54.586
15694,-0.4375,0.3296,-0.8682,0.122,0.549,-0.305,159.302,25.329,-54.586
15704,-0.4365,0.3276,-0.8667,0.061,0.366,-0.488,159.302,25.329,-54.586
15714,-0.4351,0.3271,-0.8613,0.000,0.122,-0.671,159.307,25.329,-54.586
15724,-0.4355,0.3228,-0.8589,-0.305,-0.244,-0.732,159.307,25.334,-54.586
15734,-0.4360,0.3223,-0.8628,-0.549,-0.183,-0.793,159.307,25.340,-54.586
15744,-0.4390,0.3223,-0.8594,-0.610,0.061,-0.854,159.307,25.345,-54.586
15754,-0.4404,0.3208,-0.8589,-0.610,0.305,-0.793,159.307,25.345,-54.586
15764,-0.4404,0.3208,-0.8560,-0.366,0.488,-0.671,159.307,25.345,-54.586
15774,-0.4390,0.3159,-0.8574,0.000,0.427,-0.488,159.313,25.351,-54.586
15784,-0.4409,0.3179,-0.8594,0.183,0.244,-0.305,159.324,25.351,-54.586
15794,-0.4399,0.3169,-0.8594,0.183,0.183,-0.122,159.329,25.351,-54.586
15804,-0.4385,0.3154,-0.8613,0.122,0.427,0.000,159.335,25.351,-54.586
15814,-0.4346,0.3184,-0.8604,-0.122,0.671,0.122,159.340,25.345,-54.586
15824,-0.4336,0.3208,-0.8657,-0.244,0.854,0.183,159.340,25.334,-54.586
15834,-0.4336,0.3213,-0.8657,-0.244,0.916,0.244,159.340,25.323,-54.586
15844,-0.4326,0.3237,-0.8652,-0.183,0.732,0.305,159.340,25.312,-54.586
15854,-0.4326,0.3232,-0.8677,-0.122,0.427,0.427,159.340,25.307,-54.586
15864,-0.4326,0.3232,-0.8716,-0.061,0.183,0.488,159.340,25.296,-54.586
15874,-0.4326,0.3237,-0.8706,0.000,0.061,0.488,159.340,25.291,-54.586
15884,-0.4351,0.3247,-0.8677,-0.122,-0.244,0.366,159.340,25.291,-54.586
15894,-0.4341,0.3228,-0.8662,-0.366,-0.488,0.305,159.335,25.296,-54.586
15904,-0.4365,0.3237,-0.8623,-0.549,-0.854,0.305,159.329,25.302,-54.586
15914,-0.4365,0.3267,-0.8613,-0.549,-0.977,0.305,159.318,25.312,-54.586
15924,-0.4385,0.3237,-0.8574,-0.427,-0.916,0.427,159.313,25.318,-54.586
15934,-0.4385,0.3257,-0.8574,-0.305,-0.793,0.427,159.307,25.329,-54.586
15944,-0.4414,0.3237,-0.8564,-0.061,-0.488,0.488,159.302,25.334,-54.586
15954,-0.4409,0.3218,-0.8516,0.061,-0.061,0.610,159.302,25.340,-54.586
15964,-0.4399,0.3232,-0.8530,0.000,0.305,0.610,159.296,25.340,-54.586
15974,-0.4424,0.3237,-0.8545,-0.122,0.427,0.610,159.291,25.334,-54.586
15984,-0.4409,0.3257,-0.8560,-0.122,0.549,0.610,159.291,25.334,-54.586
15994,-0.4399,0.3257,-0.8569,0.000,0.671,0.610,159.285,25.329,-54.586
16004,-0.4380,0.3286,-0.8623,0.000,0.732,0.488,159.285,25.318,-54.586
16014,-0.4375,0.3296,-0.8638,0.122,0.854,0.427,159.285,25.312,-54.586
16024,-0.4370,0.3306,-0.8643,0.183,0.854,0.366,159.280,25.302,-54.586
16034,-0.4375,0.3301,-0.8623,0.061,0.671,0.244,159.280,25.296,-54.586
16044,-0.4385,0.3315,-0.8657,-0.183,0.427,0.000,159.280,25.291,-54.586
16054,-0.4395,0.3306,-0.8687,-0.427,0.183,-0.122,159.274,25.291,-54.586
16064,-0.4390,0.3271,-0.8638,-0.488,-0.061,-0.244,159.269,25.291,-54.586
16074,-0.4375,0.3247,-0.8574,-0.549,-0.244,-0.366,159.263,25.296,-54.586
16084,-0.4380,0.3271,-0.8574,-0.610,-0.305,-0.427,159.258,25.307,-54.586
16094,-0.4390,0.3242,-0.8584,-0.427,0.000,-0.305,159.258,25.307,-54.586
16104,-0.4380,0.3247,-0.8560,-0.122,0.427,-0.244,159.258,25.307,-54.586
16114,-0.4365,0.3247,-0.8589,0.061,0.671,-0.183,159.258,25.302,-54.586
16124,-0.4380,0.3228,-0.8613,0.183,0.854,-0.061,159.263,25.296,-54.586
16134,-0.4365,0.3223,-0.8599,0.183,0.977,0.000,159.269,25.291,-54.586
16144,-0.4365,0.3213,-0.8608,0.122,1.038,0.000,159.274,25.280,-54.586
16154,-0.4375,0.3252,-0.8638,-0.061,1.038,0.000,159.280,25.274,-54.586
16164,-0.4360,0.3257,-0.8623,-0.061,1.099,0.000,159.280,25.263,-54.586
16174,-0.4326,0.3252,-0.8657,0.122,0.916,-0.061,159.285,25.252,-54.586
16184,-0.4316,0.3257,-0.8672,0.122,0.671,-0.061,159.285,25.247,-54.586
16194,-0.4360,0.3262,-0.8682,0.000,0.610,-0.122,159.291,25.236,-54.586
16204,-0.4351,0.3237,-0.8696,-0.244,0.610,-0.183,159.291,25.230,-54.586
16214,-0.4355,0.3242,-0.8706,-0.488,0.488,-0.183,159.291,25.225,-54.586
16224,-0.4346,0.3252,-0.8696,-0.549,0.305,-0.244,159.291,25.225,-54.586
16234,-0.4351,0.3228,-0.8687,-0.427,-0.061,-0.122,159.291,25.225,-54.586
16244,-0.4336,0.3223,-0.8662,-0.183,-0.244,0.000,159.291,25.225,-54.586
16254,-0.4351,0.3198,-0.8643,0.122,-0.488,0.000,159.296,25.230,-54.586
16264,-0.4365,0.3164,-0.8599,0.000,-0.671,0.061,159.296,25.241,-54.586
16274,-0.4385,0.3159,-0.8555,-0.488,-0.793,0.061,159.296,25.252,-54.586
16284,-0.4385,0.3174,-0.8560,-0.977,-0.671,0.183,159.285,25.258,-54.586
16294,-0.4409,0.3198,-0.8521,-1.160,-0.305,0.366,159.274,25.269,-54.586
16304,-0.4409,0.3223,-0.8496,-0.977,0.183,0.549,159.263,25.269,-54.586
16314,-0.4429,0.3208,-0.8491,-0.427,0.549,0.732,159.258,25.269,-54.586
16324,-0.4399,0.3228,-0.8521,0.122,0.854,0.916,159.258,25.263,-54.586
16334,-0.4375,0.3223,-0.8569,0.427,1.160,0.977,159.258,25.252,-54.586
16345,-0.4365,0.3257,-0.8604,0.366,1.282,0.977,159.258,25.241,-54.586
16354,-0.4351,0.3291,-0.8643,0.183,1.404,0.916,159.258,25.219,-54.586
16364,-0.4321,0.3325,-0.8662,-0.061,1.465,0.793,159.258,25.203,-54.586
16374,-0.4360,0.3325,-0.8691,-0.244,1.404,0.610,159.252,25.186,-54.586
16384,-0.4346,0.3354,-0.8701,-0.305,1.160,0.427,159.241,25.175,-54.586
16394,-0.4316,0.3354,-0.8706,-0.305,0.854,0.183,159.236,25.159,-54.586
16404,-0.4336,0.3330,-0.8662,-0.244,0.488,-0.061,159.236,25.153,-54.586
16414,-0.4351,0.3330,-0.8667,-0.366,0.122,-0.244,159.230,25.153,-54.586
16424,-0.4341,0.3306,-0.8682,-0.488,-0.061,-0.427,159.225,25.153,-54.586
16434,-0.4360,0.3296,-0.8623,-0.610,-0.183,-0.610,159.219,25.159,-54.586
16444,-0.4370,0.3267,-0.8604,-0.732,-0.244,-0.671,159.214,25.170,-54.586
16454,-0.4385,0.3252,-0.8579,-0.854,-0.122,-0.793,159.208,25.175,-54.586
16464,-0.4404,0.3262,-0.8579,-0.854,0.183,-0.732,159.203,25.181,-54.586
16474,-0.4395,0.3252,-0.8545,-0.610,0.549,-0.610,159.203,25.181,-54.586
16484,-0.4375,0.3237,-0.8579,-0.244,0.793,-0.427,159.203,25.181,-54.586
16494,-0.4355,0.3228,-0.8584,0.122,0.854,-0.305,159.208,25.175,-54.586
16504,-0.4355,0.3203,-0.8599,0.366,0.854,-0.183,159.219,25.170,-54.586
16514,-0.4336,0.3188,-0.8623,0.366,0.916,-0.122,159.230,25.164,-54.586
16524,-0.4341,0.3198,-0.8623,0.061,0.916,-0.061,159.236,25.159,-54.586
16534,-0.4307,0.3223,-0.8672,-0.244,0.916,0.000,159.241,25.148,-54.586
16544,-0.4287,0.3232,-0.8687,-0.549,0.793,0.000,159.241,25.137,-54.586
16554,-0.4307,0.3247,-0.8691,-0.610,0.732,0.061,159.236,25.126,-54.586
16564,-0.4331,0.3228,-0.8711,-0.427,0.610,0.183,159.236,25.120,-54.586
16574,-0.4331,0.3247,-0.8706,-0.244,0.366,0.305,159.236,25.115,-54.586
16584,-0.4312,0.3232,-0.8716,-0.122,0.061,0.366,159.236,25.109,-54.586
16594,-0.4321,0.3237,-0.8721,-0.122,-0.244,0.488,159.236,25.109,-54.586
16604,-0.4336,0.3223,-0.8716,-0.122,-0.488,0.488,159.241,25.109,-54.586
16614,-0.4321,0.3252,-0.8711,-0.183,-0.671,0.488,159.236,25.115,-54.586
16624,-0.4326,0.3242,-0.8662,-0.244,-0.793,0.549,159.230,25.115,-54.586
16634,-0.4326,0.3247,-0.8672,-0.183,-0.977,0.549,159.230,25.126,-54.586
16644,-0.4336,0.3247,-0.8643,-0.122,-1.099,0.610,159.225,25.131,-54.586
16654,-0.4341,0.3247,-0.8628,-0.122,-1.160,0.671,159.219,25.142,-54.586
16664,-0.4341,0.3252,-0.8618,-0.122,-1.160,0.793,159.214,25.148,-54.586
16674,-0.4336,0.3247,-0.8589,-0.122,-1.038,0.916,159.208,25.159,-54.586
16684,-0.4370,0.3267,-0.8564,-0.122,-0.854,1.038,159.203,25.164,-54.602
16694,-0.4351,0.3276,-0.8574,-0.061,-0.671,1.038,159.192,25.170,-54.613
16704,-0.4365,0.3291,-0.8564,0.122,-0.488,1.038,159.186,25.175,-54.630
16714,-0.4355,0.3281,-0.8584,0.183,-0.366,1.038,159.181,25.175,-54.641
16724,-0.4370,0.3296,-0.8589,0.061,-0.305,0.977,159.175,25.175,-54.651
