elapsed_ms,acc_x_g,acc_y_g,acc_z_g,gyro_x_dps,gyro_y_dps,gyro_z_dps,angle_x_deg,angle_y_deg,angle_z_deg
0,-0.0679,0.4497,-0.9092,0.061,0.610,0.305,153.973,3.691,-88.781
10,-0.0693,0.4492,-0.9116,0.244,0.732,0.183,153.979,3.686,-88.781
20,-0.0693,0.4468,-0.9097,0.244,0.793,-0.061,153.979,3.680,-88.781
30,-0.0679,0.4482,-0.9106,0.000,0.977,-0.183,153.973,3.675,-88.781
40,-0.0688,0.4497,-0.9146,-0.183,1.160,-0.183,153.973,3.669,-88.781
50,-0.0654,0.4502,-0.9141,-0.122,1.343,-0.183,153.968,3.658,-88.781
60,-0.0654,0.4482,-0.9155,0.183,1.587,-0.244,153.973,3.647,-88.781
70,-0.0649,0.4473,-0.9185,0.488,1.526,-0.244,153.979,3.631,-88.781
80,-0.0645,0.4443,-0.9209,0.671,1.404,-0.122,153.990,3.620,-88.781
90,-0.0645,0.4429,-0.9229,0.610,1.160,-0.061,153.995,3.609,-88.781
100,-0.0635,0.4409,-0.9229,0.244,0.671,0.000,154.006,3.604,-88.781
110,-0.0659,0.4424,-0.9233,-0.183,0.366,0.000,154.006,3.598,-88.781
120,-0.0669,0.4409,-0.9204,-0.366,0.183,0.061,154.006,3.598,-88.781
130,-0.0659,0.4399,-0.9189,-0.488,0.061,0.061,154.006,3.598,-88.781
140,-0.0669,0.4404,-0.9165,-0.488,-0.061,0.183,154.006,3.604,-88.781
150,-0.0679,0.4404,-0.9175,-0.427,-0.183,0.366,154.006,3.604,-88.781
160,-0.0688,0.4429,-0.9160,-0.305,-0.305,0.488,154.001,3.609,-88.781
170,-0.0684,0.4438,-0.9126,-0.183,-0.366,0.610,154.001,3.609,-88.781
180,-0.0684,0.4468,-0.9106,-0.122,-0.244,0.610,154.001,3.615,-88.781
190,-0.0693,0.4497,-0.9126,0.000,-0.061,0.549,153.995,3.615,-88.781
200,-0.0693,0.4502,-0.9097,0.000,0.366,0.488,153.990,3.609,-88.781
210,-0.0679,0.4517,-0.9121,0.000,0.732,0.305,153.990,3.604,-88.781
220,-0.0654,0.4521,-0.9126,-0.061,0.854,0.122,153.984,3.598,-88.781
230,-0.0688,0.4521,-0.9155,0.000,0.793,0.000,153.984,3.593,-88.781
240,-0.0679,0.4512,-0.9170,0.122,0.549,-0.061,153.984,3.593,-88.781
250,-0.0664,0.4502,-0.9204,0.305,0.366,-0.122,153.984,3.587,-88.781
260,-0.0645,0.4507,-0.9194,0.366,0.305,-0.244,153.990,3.587,-88.781
270,-0.0640,0.4497,-0.9175,0.366,0.183,-0.305,153.990,3.587,-88.781
280,-0.0630,0.4502,-0.9150,0.122,0.061,-0.366,153.990,3.587,-88.781
290,-0.0640,0.4487,-0.9146,-0.122,-0.061,-0.427,153.990,3.593,-88.781
300,-0.0664,0.4468,-0.9165,-0.183,0.061,-0.549,153.984,3.593,-88.781
310,-0.0659,0.4458,-0.9180,-0.183,0.366,-0.549,153.984,3.593,-88.781
320,-0.0630,0.4448,-0.9170,0.061,0.671,-0.488,153.990,3.587,-88.781
330,-0.0596,0.4419,-0.9189,0.366,0.610,-0.549,153.995,3.582,-88.781
340,-0.0620,0.4380,-0.9175,0.366,0.305,-0.488,154.006,3.582,-88.781
350,-0.0615,0.4375,-0.9165,0.061,-0.061,-0.305,154.012,3.582,-88.781
360,-0.0645,0.4390,-0.9150,-0.122,-0.366,-0.061,154.012,3.587,-88.781
370,-0.0645,0.4390,-0.9146,0.000,-0.427,0.183,154.017,3.593,-88.781
380,-0.0645,0.4409,-0.9121,0.183,-0.366,0.366,154.017,3.593,-88.781
390,-0.0649,0.4434,-0.9146,0.427,-0.061,0.549,154.023,3.593,-88.781
400,-0.0649,0.4438,-0.9165,0.671,0.183,0.671,154.034,3.587,-88.781
410,-0.0645,0.4438,-0.9204,0.732,0.427,0.549,154.039,3.582,-88.781
420,-0.0635,0.4419,-0.9189,0.549,0.427,0.427,154.050,3.576,-88.781
430,-0.0640,0.4424,-0.9185,0.244,0.183,0.366,154.056,3.571,-88.781
440,-0.0649,0.4424,-0.9209,0.000,-0.244,0.366,154.056,3.571,-88.781
450,-0.0684,0.4448,-0.9204,-0.122,-0.549,0.366,154.056,3.582,-88.781
460,-0.0688,0.4429,-0.9189,-0.183,-0.793,0.427,154.056,3.587,-88.781
470,-0.0698,0.4458,-0.9141,-0.061,-0.977,0.549,154.056,3.598,-88.781
480,-0.0703,0.4463,-0.9102,0.061,-1.221,0.610,154.050,3.609,-88.781
490,-0.0703,0.4463,-0.9097,0.122,-1.343,0.671,154.050,3.620,-88.781
500,-0.0693,0.4463,-0.9072,0.122,-1.282,0.610,154.050,3.631,-88.781
510,-0.0679,0.4473,-0.9067,0.122,-0.916,0.488,154.045,3.642,-88.781
520,-0.0708,0.4482,-0.9053,0.305,-0.488,0.427,154.045,3.647,-88.781
530,-0.0698,0.4497,-0.9077,0.488,-0.183,0.427,154.045,3.647,-88.781
540,-0.0684,0.4482,-0.9087,0.549,0.061,0.366,154.050,3.647,-88.781
550,-0.0713,0.4478,-0.9097,0.610,0.244,0.305,154.050,3.647,-88.781
560,-0.0708,0.4497,-0.9131,0.366,0.305,0.244,154.050,3.647,-88.781
570,-0.0708,0.4487,-0.9175,0.183,0.427,0.244,154.050,3.647,-88.781
580,-0.0703,0.4482,-0.9189,0.061,0.366,0.183,154.050,3.647,-88.781
590,-0.0698,0.4526,-0.9160,-0.061,0.183,0.061,154.050,3.647,-88.781
600,-0.0703,0.4521,-0.9150,-0.122,0.000,-0.061,154.045,3.653,-88.781
610,-0.0669,0.4512,-0.9180,-0.061,-0.122,-0.183,154.039,3.653,-88.781
620,-0.0664,0.4507,-0.9199,-0.122,-0.244,-0.305,154.039,3.658,-88.781
630,-0.0664,0.4497,-0.9185,-0.244,-0.244,-0.427,154.034,3.664,-88.781
640,-0.0698,0.4482,-0.9155,-0.488,-0.366,-0.549,154.028,3.669,-88.781
650,-0.0698,0.4443,-0.9121,-0.549,-0.610,-0.610,154.023,3.680,-88.781
660,-0.0713,0.4443,-0.9116,-0.732,-0.671,-0.732,154.017,3.691,-88.781
670,-0.0703,0.4453,-0.9087,-0.854,-0.793,-0.671,154.006,3.708,-88.781
680,-0.0684,0.4424,-0.9106,-0.671,-0.732,-0.610,154.001,3.719,-88.781
690,-0.0679,0.4424,-0.9131,-0.305,-0.427,-0.488,154.001,3.724,-88.781
700,-0.0635,0.4404,-0.9160,0.000,-0.061,-0.427,154.006,3.724,-88.781
710,-0.0610,0.4399,-0.9150,0.244,0.244,-0.244,154.012,3.719,-88.781
720,-0.0620,0.4390,-0.9185,0.244,0.244,-0.122,154.017,3.719,-88.781
730,-0.0645,0.4399,-0.9194,0.122,0.000,-0.061,154.023,3.713,-88.781
740,-0.0679,0.4414,-0.9209,-0.061,-0.244,0.061,154.023,3.719,-88.781
750,-0.0679,0.4414,-0.9189,-0.244,-0.488,0.183,154.023,3.724,-88.781
760,-0.0688,0.4429,-0.9160,-0.244,-0.610,0.366,154.023,3.730,-88.781
770,-0.0713,0.4434,-0.9155,-0.183,-0.610,0.488,154.023,3.735,-88.781
780,-0.0723,0.4438,-0.9126,-0.061,-0.549,0.549,154.023,3.741,-88.781
790,-0.0698,0.4438,-0.9141,0.000,-0.671,0.610,154.023,3.746,-88.781
800,-0.0703,0.4458,-0.9116,0.000,-0.732,0.671,154.023,3.752,-88.781
810,-0.0723,0.4487,-0.9121,-0.061,-0.793,0.671,154.017,3.757,-88.781
820,-0.0732,0.4487,-0.9087,-0.061,-0.671,0.549,154.012,3.768,-88.781
830,-0.0732,0.4517,-0.9106,0.000,-0.549,0.427,154.012,3.774,-88.781
840,-0.0732,0.4507,-0.9106,-0.122,-0.366,0.305,154.006,3.779,-88.781
850,-0.0728,0.4526,-0.9097,-0.122,-0.244,0.244,154.001,3.785,-88.781
860,-0.0737,0.4536,-0.9092,-0.061,-0.244,0.122,153.990,3.790,-88.781
870,-0.0732,0.4541,-0.9106,0.000,-0.183,-0.122,153.990,3.796,-88.781
880,-0.0747,0.4526,-0.9097,0.061,0.061,-0.183,153.984,3.796,-88.781
890,-0.0723,0.4536,-0.9097,0.183,0.183,-0.244,153.979,3.801,-88.781
900,-0.0708,0.4502,-0.9102,0.244,0.244,-0.244,153.979,3.801,-88.781
910,-0.0688,0.4482,-0.9097,0.366,0.244,-0.244,153.984,3.801,-88.781
920,-0.0703,0.4473,-0.9102,0.488,0.305,-0.305,153.984,3.801,-88.781
930,-0.0698,0.4463,-0.9126,0.488,0.488,-0.427,153.990,3.801,-88.781
940,-0.0693,0.4458,-0.9155,0.488,0.793,-0.427,153.995,3.796,-88.781
950,-0.0669,0.4434,-0.9160,0.366,0.916,-0.488,154.001,3.790,-88.781
960,-0.0649,0.4419,-0.9194,0.183,0.732,-0.549,154.006,3.785,-88.781
970,-0.0674,0.4424,-0.9194,0.000,0.305,-0.549,154.012,3.785,-88.781
980,-0.0688,0.4414,-0.9194,-0.183,-0.122,-0.427,154.012,3.785,-88.781
990,-0.0693,0.4419,-0.9180,-0.244,-0.366,-0.305,154.012,3.790,-88.781
1000,-0.0708,0.4404,-0.9160,-0.244,-0.488,-0.183,154.012,3.801,-88.781
1010,-0.0698,0.4419,-0.9175,-0.122,-0.549,-0.061,154.017,3.807,-88.781
1020,-0.0708,0.4434,-0.9175,-0.122,-0.549,0.000,154.017,3.812,-88.781
1030,-0.0698,0.4448,-0.9146,-0.061,-0.488,0.122,154.017,3.818,-88.781
1040,-0.0674,0.4434,-0.9131,-0.061,-0.488,0.244,154.017,3.818,-88.781
1050,-0.0669,0.4458,-0.9136,-0.061,-0.488,0.244,154.012,3.823,-88.781
1060,-0.0679,0.4463,-0.9160,-0.122,-0.427,0.244,154.012,3.823,-88.781
1070,-0.0698,0.4487,-0.9155,-0.183,-0.427,0.183,154.012,3.829,-88.781
1080,-0.0713,0.4487,-0.9180,-0.183,-0.366,0.122,154.006,3.834,-88.781
1090,-0.0708,0.4473,-0.9180,-0.183,-0.366,0.000,154.006,3.840,-88.781
1100,-0.0703,0.4463,-0.9180,-0.244,-0.488,0.000,154.001,3.845,-88.781
1110,-0.0723,0.4443,-0.9146,-0.366,-0.671,0.000,154.001,3.851,-88.781
1120,-0.0728,0.4429,-0.9136,-0.427,-0.854,0.061,153.995,3.862,-88.781
1130,-0.0732,0.4463,-0.9141,-0.305,-0.977,0.183,153.995,3.873,-88.781
1140,-0.0742,0.4443,-0.9092,-0.122,-0.977,0.305,153.990,3.884,-88.781
1150,-0.0728,0.4463,-0.9082,0.122,-0.916,0.305,153.990,3.889,-88.781
1160,-0.0718,0.4468,-0.9077,0.244,-0.732,0.305,153.990,3.900,-88.781
1170,-0.0732,0.4458,-0.9087,0.183,-0.488,0.183,153.990,3.906,-88.781
1180,-0.0737,0.4468,-0.9082,0.000,-0.183,0.122,153.990,3.906,-88.781
1190,-0.0728,0.4478,-0.9072,-0.061,0.244,0.000,153.984,3.906,-88.781
1200,-0.0737,0.4458,-0.9102,-0.122,0.488,0.000,153.984,3.906,-88.781
1210,-0.0737,0.4458,-0.9126,-0.061,0.549,-0.061,153.984,3.906,-88.781
1220,-0.0728,0.4438,-0.9150,0.061,0.488,0.061,153.984,3.900,-88.781
1230,-0.0728,0.4443,-0.9141,0.122,0.183,0.122,153.990,3.900,-88.781
1240,-0.0732,0.4448,-0.9170,0.183,-0.122,0.183,153.990,3.906,-88.781
1250,-0.0742,0.4453,-0.9180,0.183,-0.183,0.244,153.995,3.906,-88.781
1260,-0.0732,0.4458,-0.9155,0.122,-0.061,0.183,153.995,3.906,-88.781
1270,-0.0708,0.4473,-0.9165,0.000,0.061,0.061,153.995,3.906,-88.781
1280,-0.0723,0.4473,-0.9170,-0.122,0.183,0.000,153.995,3.906,-88.781
1290,-0.0762,0.4429,-0.9141,-0.122,0.122,0.000,153.995,3.911,-88.781
1300,-0.0762,0.4409,-0.9126,-0.183,-0.122,0.000,153.995,3.917,-88.781
1310,-0.0747,0.4429,-0.9111,-0.244,-0.305,0.061,153.990,3.922,-88.781
1320,-0.0737,0.4453,-0.9121,-0.122,-0.244,0.183,153.990,3.922,-88.781
1330,-0.0708,0.4487,-0.9106,0.244,-0.061,0.366,153.990,3.922,-88.781
1340,-0.0708,0.4487,-0.9160,0.671,0.305,0.427,153.995,3.922,-88.781
1350,-0.0688,0.4487,-0.9175,0.854,0.549,0.244,154.006,3.911,-88.781
1360,-0.0693,0.4473,-0.9180,0.793,0.549,0.244,154.012,3.906,-88.781
1370,-0.0698,0.4438,-0.9170,0.488,0.244,0.183,154.017,3.906,-88.781
1380,-0.0718,0.4453,-0.9165,0.061,-0.183,0.122,154.017,3.906,-88.781
1390,-0.0718,0.4463,-0.9199,-0.244,-0.549,0.061,154.017,3.911,-88.781
1400,-0.0737,0.4458,-0.9185,-0.305,-0.732,0.183,154.017,3.922,-88.781
1410,-0.0752,0.4429,-0.9170,-0.183,-0.854,0.244,154.017,3.928,-88.781
1420,-0.0747,0.4424,-0.9111,-0.183,-0.854,0.366,154.012,3.939,-88.781
1430,-0.0762,0.4429,-0.9121,-0.305,-0.916,0.488,154.012,3.950,-88.781
1440,-0.0742,0.4443,-0.9116,-0.305,-0.916,0.488,154.006,3.955,-88.781
1450,-0.0732,0.4443,-0.9116,-0.366,-0.793,0.427,154.001,3.966,-88.781
1460,-0.0757,0.4463,-0.9087,-0.427,-0.671,0.305,153.995,3.972,-88.781
1470,-0.0767,0.4458,-0.9082,-0.427,-0.488,0.305,153.990,3.977,-88.781
1480,-0.0786,0.4458,-0.9043,-0.305,-0.305,0.366,153.984,3.983,-88.781
1490,-0.0767,0.4497,-0.9067,-0.244,-0.122,0.366,153.979,3.988,-88.781
1500,-0.0767,0.4487,-0.9033,0.000,0.000,0.366,153.973,3.988,-88.781
1510,-0.0752,0.4502,-0.9048,0.244,0.183,0.305,153.973,3.988,-88.781
1520,-0.0742,0.4507,-0.9082,0.427,0.366,0.244,153.973,3.988,-88.781
1530,-0.0732,0.4531,-0.9131,0.488,0.610,0.061,153.973,3.983,-88.781
1540,-0.0732,0.4521,-0.9131,0.427,0.854,-0.122,153.973,3.977,-88.781
1550,-0.0718,0.4521,-0.9141,0.366,0.977,-0.305,153.979,3.972,-88.781
1560,-0.0718,0.4517,-0.9141,0.183,0.916,-0.427,153.979,3.961,-88.781
1570,-0.0718,0.4497,-0.9160,0.000,0.671,-0.488,153.973,3.961,-88.781
1580,-0.0718,0.4482,-0.9170,-0.061,0.427,-0.549,153.973,3.961,-88.781
1590,-0.0718,0.4482,-0.9204,-0.061,0.305,-0.488,153.973,3.961,-88.781
1600,-0.0713,0.4453,-0.9180,-0.061,0.183,-0.488,153.979,3.961,-88.781
1610,-0.0684,0.4448,-0.9204,0.061,0.000,-0.366,153.979,3.961,-88.781
1620,-0.0688,0.4434,-0.9209,0.061,-0.305,-0.244,153.984,3.961,-88.781
1630,-0.0693,0.4409,-0.9209,0.061,-0.549,-0.244,153.990,3.966,-88.781
1640,-0.0723,0.4385,-0.9194,-0.061,-0.610,-0.122,153.995,3.977,-88.781
1650,-0.0732,0.4365,-0.9165,-0.122,-0.549,-0.061,153.995,3.983,-88.781
1660,-0.0708,0.4370,-0.9160,-0.366,-0.549,0.061,154.001,3.988,-88.781
1670,-0.0703,0.4380,-0.9175,-0.427,-0.549,0.244,154.001,3.988,-88.781
1680,-0.0713,0.4395,-0.9141,-0.305,-0.610,0.427,154.001,3.994,-88.781
1690,-0.0747,0.4419,-0.9121,-0.122,-0.732,0.488,154.001,3.999,-88.781
1700,-0.0752,0.4434,-0.9106,0.122,-0.671,0.610,154.001,4.005,-88.781
1710,-0.0762,0.4429,-0.9111,0.305,-0.549,0.732,154.001,4.010,-88.781
1720,-0.0786,0.4429,-0.9106,0.366,-0.427,0.732,154.006,4.016,-88.781
1730,-0.0806,0.4448,-0.9097,0.244,-0.366,0.549,154.006,4.021,-88.781
1740,-0.0815,0.4429,-0.9136,0.122,-0.366,0.427,154.012,4.026,-88.781
1750,-0.0806,0.4429,-0.9111,-0.183,-0.366,0.427,154.006,4.037,-88.781
1760,-0.0791,0.4438,-0.9102,-0.305,-0.488,0.488,154.006,4.043,-88.781
1770,-0.0801,0.4458,-0.9092,-0.183,-0.732,0.549,154.001,4.048,-88.781
1780,-0.0806,0.4473,-0.9072,0.000,-0.732,0.671,153.995,4.059,-88.781
1790,-0.0791,0.4497,-0.9033,0.183,-0.610,0.732,153.995,4.065,-88.781
1800,-0.0815,0.4482,-0.9023,0.427,-0.244,0.732,153.995,4.070,-88.781
1810,-0.0811,0.4492,-0.9023,0.549,0.183,0.732,153.995,4.070,-88.781
1820,-0.0801,0.4512,-0.9033,0.549,0.610,0.671,153.995,4.065,-88.781
1830,-0.0781,0.4512,-0.9077,0.427,0.854,0.549,153.995,4.059,-88.781
1840,-0.0757,0.4546,-0.9063,0.244,0.977,0.427,153.990,4.054,-88.781
1850,-0.0767,0.4536,-0.9102,0.122,1.099,0.366,153.984,4.043,-88.781
1860,-0.0771,0.4546,-0.9126,0.122,1.099,0.244,153.984,4.037,-88.781
1870,-0.0757,0.4561,-0.9121,0.122,1.099,0.122,153.979,4.026,-88.781
1880,-0.0742,0.4556,-0.9155,0.122,1.038,0.000,153.973,4.021,-88.781
1890,-0.0752,0.4531,-0.9150,0.061,0.977,-0.183,153.973,4.016,-88.781
1900,-0.0752,0.4531,-0.9150,-0.061,0.854,-0.366,153.968,4.010,-88.781
1911,-0.0752,0.4512,-0.9160,-0.244,0.671,-0.488,153.968,4.005,-88.781
1920,-0.0728,0.4512,-0.9180,-0.305,0.610,-0.488,153.962,4.005,-88.781
1930,-0.0693,0.4492,-0.9165,-0.305,0.549,-0.549,153.957,3.999,-88.781
1940,-0.0669,0.4487,-0.9170,-0.305,0.488,-0.610,153.957,3.999,-88.781
1950,-0.0645,0.4443,-0.9165,-0.244,0.366,-0.610,153.957,3.994,-88.781
1960,-0.0669,0.4414,-0.9150,-0.183,0.122,-0.610,153.957,3.994,-88.781
1970,-0.0688,0.4395,-0.9155,-0.244,0.000,-0.610,153.962,3.994,-88.781
1980,-0.0674,0.4399,-0.9160,-0.427,0.061,-0.427,153.962,3.994,-88.781
1990,-0.0654,0.4414,-0.9165,-0.305,0.183,-0.244,153.962,3.988,-88.781
2000,-0.0640,0.4399,-0.9185,0.122,0.305,-0.122,153.968,3.983,-88.781
2010,-0.0649,0.4424,-0.9209,0.488,0.488,-0.122,153.973,3.977,-88.781
2020,-0.0635,0.4424,-0.9229,0.732,0.488,-0.061,153.984,3.966,-88.781
2030,-0.0649,0.4385,-0.9214,0.366,-0.244,0.244,153.995,3.966,-88.781
2040,-0.0684,0.4409,-0.9209,-0.122,-0.671,0.366,153.995,3.966,-88.781
2050,-0.0718,0.4429,-0.9185,-0.427,-1.038,0.549,153.995,3.977,-88.781
2060,-0.0752,0.4429,-0.9146,-0.488,-1.099,0.610,153.990,3.983,-88.781
2070,-0.0781,0.4429,-0.9170,-0.366,-1.038,0.671,153.990,3.994,-88.781
2080,-0.0781,0.4443,-0.9106,-0.183,-0.977,0.793,153.984,4.005,-88.781
2090,-0.0771,0.4468,-0.9106,-0.122,-0.977,0.793,153.984,4.016,-88.781
2100,-0.0762,0.4473,-0.9097,-0.061,-1.160,0.732,153.979,4.021,-88.781
2110,-0.0776,0.4478,-0.9077,-0.183,-1.221,0.732,153.973,4.032,-88.781
2120,-0.0776,0.4517,-0.9033,-0.305,-1.038,0.671,153.968,4.043,-88.781
2130,-0.0786,0.4561,-0.9014,-0.366,-0.732,0.610,153.951,4.054,-88.781
2140,-0.0757,0.4575,-0.9023,-0.183,-0.427,0.549,153.946,4.054,-88.781
2150,-0.0767,0.4565,-0.9033,0.061,-0.061,0.366,153.935,4.059,-88.781
2160,-0.0786,0.4556,-0.9048,0.305,0.305,0.183,153.935,4.059,-88.781
2170,-0.0786,0.4536,-0.9067,0.366,0.549,-0.061,153.929,4.059,-88.781
2180,-0.0801,0.4512,-0.9126,0.305,0.793,-0.244,153.929,4.054,-88.781
2190,-0.0791,0.4492,-0.9150,0.183,0.854,-0.366,153.935,4.054,-88.781
2200,-0.0767,0.4487,-0.9150,0.122,0.671,-0.427,153.935,4.054,-88.781
2210,-0.0776,0.4468,-0.9165,0.122,0.488,-0.549,153.935,4.054,-88.781
2220,-0.0771,0.4443,-0.9180,-0.061,0.183,-0.488,153.940,4.054,-88.781
2230,-0.0771,0.4448,-0.9175,-0.366,-0.061,-0.488,153.940,4.059,-88.781
2240,-0.0781,0.4438,-0.9131,-0.549,-0.244,-0.427,153.935,4.070,-88.781
2250,-0.0767,0.4458,-0.9141,-0.793,-0.305,-0.366,153.929,4.076,-88.781
2260,-0.0752,0.4453,-0.9102,-0.732,-0.183,-0.305,153.918,4.081,-88.781
2270,-0.0723,0.4458,-0.9121,-0.427,-0.061,-0.305,153.918,4.081,-88.781
2280,-0.0767,0.4438,-0.9106,-0.183,0.000,-0.366,153.913,4.087,-88.781
2290,-0.0771,0.4414,-0.9077,-0.183,0.000,-0.305,153.913,4.092,-88.781
2300,-0.0806,0.4409,-0.9097,-0.305,0.000,-0.122,153.913,4.092,-88.781
2310,-0.0776,0.4404,-0.9087,-0.488,0.122,-0.061,153.913,4.098,-88.781
2320,-0.0771,0.4429,-0.9092,-0.549,0.305,0.122,153.907,4.098,-88.781
2330,-0.0767,0.4443,-0.9116,-0.366,0.549,0.183,153.907,4.092,-88.781
2340,-0.0757,0.4453,-0.9126,-0.244,0.732,0.244,153.902,4.087,-88.781
2350,-0.0747,0.4487,-0.9121,-0.183,0.610,0.244,153.902,4.081,-88.781
2360,-0.0757,0.4497,-0.9160,-0.122,0.549,0.183,153.896,4.076,-88.781
2370,-0.0771,0.4487,-0.9146,-0.244,0.366,0.122,153.896,4.076,-88.781
2380,-0.0781,0.4492,-0.9131,-0.366,0.183,0.061,153.891,4.076,-88.781
2390,-0.0776,0.4497,-0.9106,-0.488,0.122,0.000,153.885,4.081,-88.781
2400,-0.0767,0.4492,-0.9097,-0.488,0.122,0.061,153.880,4.081,-88.781
2410,-0.0771,0.4468,-0.9111,-0.427,0.061,0.122,153.875,4.081,-88.781
2420,-0.0762,0.4492,-0.9097,-0.305,0.183,0.122,153.869,4.081,-88.781
2430,-0.0757,0.4492,-0.9116,-0.305,0.183,0.183,153.864,4.081,-88.781
2440,-0.0752,0.4492,-0.9116,-0.183,0.244,0.183,153.864,4.081,-88.781
2450,-0.0762,0.4468,-0.9131,-0.122,0.366,0.122,153.864,4.076,-88.781
2460,-0.0757,0.4448,-0.9106,-0.366,0.427,0.122,153.858,4.076,-88.781
2470,-0.0762,0.4463,-0.9131,-0.549,0.427,0.122,153.858,4.076,-88.781
2480,-0.0757,0.4468,-0.9106,-0.488,0.427,0.244,153.853,4.070,-88.781
2490,-0.0752,0.4438,-0.9102,-0.427,0.549,0.305,153.847,4.065,-88.781
2500,-0.0728,0.4448,-0.9111,-0.305,0.549,0.305,153.847,4.059,-88.781
2510,-0.0728,0.4463,-0.9126,-0.122,0.488,0.366,153.847,4.054,-88.781
2520,-0.0728,0.4468,-0.9155,-0.122,0.549,0.366,153.847,4.048,-88.781
2530,-0.0737,0.4478,-0.9146,-0.183,0.488,0.305,153.847,4.043,-88.781
2540,-0.0742,0.4468,-0.9131,-0.183,0.427,0.244,153.842,4.037,-88.781
2550,-0.0747,0.4458,-0.9126,-0.183,0.427,0.183,153.842,4.037,-88.781
2560,-0.0762,0.4448,-0.9126,-0.244,0.427,0.183,153.842,4.037,-88.781
2570,-0.0776,0.4463,-0.9126,-0.183,0.671,0.244,153.842,4.032,-88.781
2580,-0.0723,0.4448,-0.9126,-0.122,0.732,0.305,153.842,4.026,-88.781
2590,-0.0723,0.4429,-0.9126,-0.061,0.793,0.366,153.842,4.016,-88.781
2600,-0.0723,0.4443,-0.9116,0.122,0.671,0.488,153.847,4.010,-88.781
2610,-0.0762,0.4424,-0.9097,0.366,0.549,0.488,153.853,4.005,-88.781
2620,-0.0762,0.4463,-0.9092,0.427,0.427,0.488,153.858,3.999,-88.781
2630,-0.0747,0.4473,-0.9092,0.244,0.488,0.549,153.858,3.999,-88.781
2640,-0.0728,0.4473,-0.9087,0.244,0.793,0.610,153.858,3.988,-88.781
2650,-0.0693,0.4482,-0.9116,0.244,1.099,0.671,153.864,3.977,-88.781
2660,-0.0693,0.4507,-0.9146,0.305,1.404,0.610,153.864,3.961,-88.781
2670,-0.0693,0.4502,-0.9160,0.427,1.465,0.610,153.869,3.944,-88.781
2680,-0.0684,0.4482,-0.9199,0.488,1.160,0.549,153.875,3.928,-88.781
2690,-0.0703,0.4492,-0.9199,0.305,0.793,0.549,153.880,3.917,-88.781
2700,-0.0732,0.4502,-0.9170,0.000,0.366,0.610,153.880,3.917,-88.781
2710,-0.0742,0.4497,-0.9155,-0.183,0.000,0.610,153.875,3.917,-88.781
2720,-0.0771,0.4521,-0.9146,-0.305,-0.061,0.610,153.869,3.917,-88.781
2730,-0.0757,0.4502,-0.9126,-0.305,0.122,0.488,153.864,3.917,-88.781
2740,-0.0742,0.4497,-0.9097,-0.183,0.366,0.427,153.864,3.917,-88.781
2750,-0.0747,0.4482,-0.9102,-0.122,0.427,0.366,153.858,3.911,-88.781
2760,-0.0732,0.4453,-0.9087,-0.183,0.366,0.244,153.858,3.911,-88.781
2770,-0.0742,0.4424,-0.9087,-0.305,0.305,0.305,153.858,3.911,-88.781
2780,-0.0728,0.4419,-0.9067,-0.305,0.427,0.366,153.853,3.906,-88.781
2790,-0.0723,0.4438,-0.9087,-0.122,0.549,0.427,153.853,3.900,-88.781
2800,-0.0732,0.4434,-0.9053,0.183,0.671,0.488,153.858,3.895,-88.781
2810,-0.0723,0.4458,-0.9043,0.366,0.854,0.671,153.858,3.884,-88.781
2820,-0.0732,0.4458,-0.9038,0.610,1.038,0.732,153.864,3.878,-88.781
2830,-0.0737,0.4473,-0.9077,0.916,1.404,0.793,153.875,3.862,-88.781
2840,-0.0708,0.4517,-0.9092,1.160,1.831,0.671,153.880,3.845,-88.781
2850,-0.0684,0.4521,-0.9131,1.343,2.075,0.549,153.891,3.823,-88.781
2860,-0.0698,0.4497,-0.9185,1.465,2.258,0.488,153.907,3.801,-88.781
2870,-0.0698,0.4512,-0.9229,1.343,2.197,0.244,153.924,3.785,-88.781
2880,-0.0688,0.4512,-0.9258,0.916,1.831,0.122,153.929,3.768,-88.781
2890,-0.0674,0.4526,-0.9224,0.549,1.343,0.061,153.935,3.752,-88.781
2900,-0.0679,0.4526,-0.9258,0.305,0.916,0.000,153.940,3.746,-88.781
2910,-0.0649,0.4517,-0.9238,0.366,0.549,-0.061,153.946,3.741,-88.781
2920,-0.0645,0.4512,-0.9243,0.488,0.366,-0.061,153.951,3.735,-88.781
2930,-0.0625,0.4507,-0.9224,0.610,0.122,0.000,153.957,3.730,-88.781
2940,-0.0625,0.4468,-0.9204,0.427,-0.244,-0.061,153.962,3.730,-88.781
2950,-0.0625,0.4453,-0.9160,-0.183,-0.549,-0.061,153.962,3.735,-88.781
2960,-0.0654,0.4478,-0.9126,-0.610,-0.671,0.061,153.951,3.741,-88.781
2970,-0.0664,0.4502,-0.9092,-0.732,-0.671,0.061,153.940,3.746,-88.781
2980,-0.0688,0.4502,-0.9087,-0.549,-0.427,0.000,153.935,3.752,-88.781
2990,-0.0698,0.4473,-0.9102,-0.122,-0.183,0.000,153.929,3.757,-88.781
3000,-0.0728,0.4448,-0.9102,0.183,0.000,0.061,153.935,3.757,-88.781
3010,-0.0737,0.4468,-0.9116,0.427,0.061,0.061,153.935,3.763,-88.781
3020,-0.0718,0.4473,-0.9106,0.427,0.061,0.061,153.940,3.763,-88.781
3030,-0.0718,0.4473,-0.9141,0.488,0.000,0.122,153.946,3.763,-88.781
3040,-0.0708,0.4473,-0.9146,0.427,-0.122,0.122,153.951,3.768,-88.781
3050,-0.0698,0.4473,-0.9180,0.427,-0.183,0.061,153.951,3.768,-88.781
3060,-0.0684,0.4453,-0.9170,0.366,-0.244,0.000,153.957,3.774,-88.781
3070,-0.0688,0.4468,-0.9194,0.244,-0.366,-0.061,153.962,3.779,-88.781
3080,-0.0688,0.4443,-0.9170,0.061,-0.610,-0.061,153.962,3.785,-88.781
3090,-0.0698,0.4419,-0.9185,-0.122,-0.610,-0.061,153.968,3.790,-88.781
3100,-0.0693,0.4424,-0.9155,-0.122,-0.610,-0.061,153.968,3.796,-88.781
3110,-0.0723,0.4399,-0.9131,0.061,-0.366,0.000,153.973,3.807,-88.781
3120,-0.0718,0.4385,-0.9102,0.244,-0.183,0.183,153.979,3.807,-88.781
3130,-0.0732,0.4380,-0.9072,0.366,-0.244,0.244,153.984,3.812,-88.781
3140,-0.0723,0.4360,-0.9131,0.366,-0.305,0.366,153.990,3.818,-88.781
3150,-0.0718,0.4375,-0.9131,0.366,-0.305,0.488,154.001,3.818,-88.781
3160,-0.0713,0.4380,-0.9150,0.305,-0.244,0.610,154.006,3.823,-88.781
3170,-0.0703,0.4390,-0.9155,0.183,-0.305,0.732,154.012,3.823,-88.781
3180,-0.0713,0.4429,-0.9136,0.000,-0.549,0.916,154.012,3.823,-88.781
3190,-0.0693,0.4463,-0.9126,-0.061,-0.671,0.977,154.006,3.829,-88.781
3200,-0.0698,0.4492,-0.9126,-0.061,-0.732,0.977,154.006,3.829,-88.781
3210,-0.0703,0.4512,-0.9141,-0.061,-0.671,0.854,154.001,3.834,-88.781
3220,-0.0708,0.4541,-0.9150,-0.183,-0.549,0.671,153.995,3.834,-88.781
3230,-0.0718,0.4551,-0.9116,-0.305,-0.427,0.549,153.984,3.840,-88.781
3240,-0.0742,0.4546,-0.9063,-0.427,-0.427,0.305,153.973,3.845,-88.781
3250,-0.0752,0.4561,-0.9082,-0.427,-0.488,0.122,153.962,3.856,-88.781
3260,-0.0752,0.4585,-0.9077,-0.427,-0.366,-0.122,153.951,3.862,-88.781
3270,-0.0718,0.4585,-0.9087,-0.061,-0.122,-0.183,153.946,3.867,-88.781
3280,-0.0693,0.4546,-0.9097,0.427,0.183,-0.305,153.946,3.867,-88.781
3290,-0.0674,0.4526,-0.9102,0.671,0.610,-0.488,153.946,3.862,-88.781
3300,-0.0654,0.4487,-0.9155,0.671,0.854,-0.671,153.951,3.856,-88.781
3310,-0.0615,0.4458,-0.9189,0.549,0.916,-0.671,153.962,3.845,-88.781
3320,-0.0625,0.4424,-0.9199,0.244,0.610,-0.610,153.968,3.840,-88.781
3330,-0.0654,0.4395,-0.9219,-0.122,0.305,-0.549,153.973,3.834,-88.781
3340,-0.0674,0.4380,-0.9243,-0.244,-0.061,-0.427,153.979,3.840,-88.781
3350,-0.0698,0.4351,-0.9229,-0.244,-0.305,-0.244,153.984,3.845,-88.781
3360,-0.0703,0.4355,-0.9209,-0.183,-0.488,-0.061,153.990,3.851,-88.781
3370,-0.0693,0.4351,-0.9194,-0.061,-0.610,0.183,153.995,3.856,-88.781
3380,-0.0703,0.4351,-0.9175,0.061,-0.671,0.427,154.001,3.856,-88.781
3390,-0.0703,0.4365,-0.9146,0.122,-0.671,0.671,154.006,3.862,-88.781
3400,-0.0703,0.4399,-0.9131,0.183,-0.549,0.854,154.012,3.867,-88.781
3410,-0.0693,0.4429,-0.9131,0.244,-0.305,0.977,154.012,3.862,-88.781
3420,-0.0708,0.4458,-0.9136,0.183,-0.183,1.099,154.012,3.862,-88.792
3430,-0.0703,0.4492,-0.9106,0.244,-0.061,1.038,154.012,3.862,-88.802
3440,-0.0732,0.4512,-0.9116,0.366,0.122,0.854,154.012,3.856,-88.808
3450,-0.0742,0.4541,-0.9146,0.488,0.122,0.732,154.012,3.856,-88.813
3460,-0.0747,0.4546,-0.9116,0.427,0.061,0.549,154.012,3.856,-88.819
3470,-0.0737,0.4551,-0.9131,0.244,-0.061,0.366,154.006,3.856,-88.824
3480,-0.0732,0.4551,-0.9121,0.000,-0.183,0.244,154.001,3.862,-88.824
3490,-0.0752,0.4575,-0.9092,-0.061,-0.244,0.122,153.995,3.867,-88.830
3500,-0.0757,0.4551,-0.9063,0.061,-0.305,0.000,153.990,3.873,-88.830
3510,-0.0757,0.4536,-0.9053,0.244,-0.305,-0.061,153.984,3.878,-88.830
3520,-0.0757,0.4536,-0.9077,0.366,-0.122,-0.183,153.984,3.884,-88.830
3530,-0.0747,0.4502,-0.9097,0.427,0.244,-0.244,153.984,3.889,-88.824
3540,-0.0703,0.4487,-0.9150,0.366,0.671,-0.305,153.990,3.884,-88.819
3550,-0.0698,0.4478,-0.9150,0.488,0.977,-0.305,153.990,3.878,-88.813
3560,-0.0713,0.4448,-0.9155,0.427,0.854,-0.366,153.995,3.873,-88.808
3570,-0.0713,0.4438,-0.9180,0.305,0.488,-0.305,154.001,3.873,-88.802
3580,-0.0723,0.4443,-0.9180,0.183,0.000,-0.244,154.006,3.873,-88.797
3590,-0.0718,0.4453,-0.9175,0.000,-0.305,-0.122,154.006,3.878,-88.797
3600,-0.0718,0.4443,-0.9204,-0.122,-0.488,-0.122,154.006,3.884,-88.802
3610,-0.0723,0.4453,-0.9146,-0.244,-0.427,-0.122,154.006,3.889,-88.802
3620,-0.0723,0.4468,-0.9180,-0.427,-0.427,-0.061,154.001,3.895,-88.802
3630,-0.0713,0.4487,-0.9185,-0.488,-0.610,-0.061,153.995,3.900,-88.802
3640,-0.0703,0.4482,-0.9141,-0.488,-0.732,-0.122,153.990,3.911,-88.808
3650,-0.0713,0.4482,-0.9150,-0.427,-0.854,-0.244,153.984,3.922,-88.808
3660,-0.0723,0.4487,-0.9136,-0.488,-1.038,-0.366,153.979,3.933,-88.808
3670,-0.0728,0.4443,-0.9121,-0.610,-1.099,-0.427,153.973,3.944,-88.808
3680,-0.0762,0.4448,-0.9141,-0.793,-1.099,-0.488,153.968,3.961,-88.813
3690,-0.0776,0.4458,-0.9102,-0.793,-0.916,-0.427,153.957,3.977,-88.813
3700,-0.0771,0.4458,-0.9111,-0.671,-0.732,-0.366,153.951,3.988,-88.813
3710,-0.0767,0.4448,-0.9087,-0.305,-0.671,-0.244,153.946,3.999,-88.813
3720,-0.0781,0.4468,-0.9092,0.000,-0.549,-0.183,153.946,4.005,-88.813
3730,-0.0757,0.4448,-0.9121,0.122,-0.366,-0.183,153.946,4.016,-88.813
3740,-0.0747,0.4443,-0.9121,0.000,-0.244,-0.183,153.946,4.016,-88.813
3750,-0.0728,0.4438,-0.9131,-0.244,-0.122,-0.183,153.946,4.021,-88.813
3760,-0.0728,0.4487,-0.9155,-0.549,-0.122,-0.183,153.940,4.021,-88.808
3770,-0.0742,0.4478,-0.9155,-0.732,-0.305,-0.183,153.935,4.026,-88.808
3780,-0.0757,0.4463,-0.9155,-0.671,-0.427,-0.122,153.929,4.037,-88.808
3790,-0.0781,0.4458,-0.9111,-0.427,-0.488,0.000,153.924,4.043,-88.813
3800,-0.0767,0.4424,-0.9126,-0.183,-0.427,0.000,153.924,4.048,-88.813
3810,-0.0747,0.4438,-0.9087,-0.183,-0.488,0.061,153.924,4.054,-88.819
3820,-0.0728,0.4468,-0.9058,-0.183,-0.488,0.061,153.918,4.059,-88.819
3830,-0.0747,0.4453,-0.9072,-0.305,-0.488,0.061,153.913,4.065,-88.824
3840,-0.0757,0.4487,-0.9102,-0.305,-0.366,0.061,153.907,4.070,-88.824
3850,-0.0742,0.4521,-0.9102,-0.244,-0.122,-0.061,153.902,4.070,-88.824
3860,-0.0737,0.4521,-0.9126,0.000,0.061,-0.305,153.902,4.076,-88.819
3870,-0.0728,0.4482,-0.9170,0.183,0.244,-0.488,153.902,4.076,-88.813
3880,-0.0781,0.4478,-0.9175,-0.061,0.183,-0.549,153.907,4.076,-88.808
3890,-0.0796,0.4448,-0.9141,-0.427,-0.061,-0.610,153.902,4.087,-88.802
3900,-0.0771,0.4438,-0.9155,-0.732,-0.366,-0.610,153.896,4.092,-88.802
3912,-0.0767,0.4448,-0.9131,-0.793,-0.549,-0.549,153.891,4.103,-88.797
3920,-0.0728,0.4473,-0.9131,-0.488,-0.488,-0.427,153.885,4.109,-88.797
3930,-0.0728,0.4458,-0.9136,0.000,-0.244,-0.427,153.885,4.114,-88.797
3940,-0.0713,0.4448,-0.9160,0.244,-0.061,-0.427,153.891,4.114,-88.792
3950,-0.0708,0.4429,-0.9155,0.244,-0.061,-0.366,153.896,4.114,-88.786
3960,-0.0728,0.4409,-0.9160,0.000,-0.366,-0.305,153.902,4.120,-88.786
3970,-0.0742,0.4390,-0.9170,-0.366,-0.732,-0.244,153.902,4.125,-88.786
3980,-0.0747,0.4375,-0.9160,-0.732,-0.916,0.000,153.902,4.136,-88.792
3990,-0.0752,0.4395,-0.9126,-0.610,-0.793,0.244,153.902,4.142,-88.797
4000,-0.0786,0.4385,-0.9092,-0.305,-0.793,0.488,153.902,4.153,-88.808
4010,-0.0767,0.4399,-0.9072,0.122,-0.854,0.732,153.902,4.158,-88.813
4020,-0.0767,0.4458,-0.9067,0.366,-0.793,0.916,153.902,4.164,-88.830
4030,-0.0786,0.4487,-0.9072,0.427,-0.549,0.977,153.907,4.164,-88.841
4040,-0.0806,0.4502,-0.9082,0.305,-0.305,0.977,153.902,4.169,-88.846
4050,-0.0796,0.4507,-0.9082,0.061,0.000,0.793,153.902,4.169,-88.857
4060,-0.0806,0.4526,-0.9082,-0.183,0.305,0.549,153.896,4.169,-88.857
4070,-0.0786,0.4531,-0.9097,-0.366,0.427,0.366,153.891,4.164,-88.863
4080,-0.0791,0.4526,-0.9097,-0.305,0.427,0.244,153.880,4.164,-88.863
4090,-0.0781,0.4561,-0.9116,0.000,0.366,0.183,153.875,4.158,-88.863
4100,-0.0801,0.4526,-0.9121,0.244,0.183,0.122,153.875,4.164,-88.863
4110,-0.0786,0.4521,-0.9131,0.488,0.122,0.061,153.880,4.164,-88.863
4120,-0.0771,0.4521,-0.9126,0.427,0.183,0.000,153.880,4.164,-88.863
4130,-0.0776,0.4526,-0.9111,0.305,0.305,-0.061,153.880,4.164,-88.857
4140,-0.0767,0.4541,-0.9126,0.244,0.305,-0.061,153.880,4.158,-88.857
4150,-0.0752,0.4517,-0.9097,0.183,0.183,-0.244,153.880,4.164,-88.852
4160,-0.0762,0.4502,-0.9102,0.244,0.122,-0.366,153.880,4.164,-88.852
4170,-0.0781,0.4482,-0.9111,0.244,0.122,-0.427,153.880,4.164,-88.846
4180,-0.0801,0.4463,-0.9131,0.183,0.305,-0.488,153.885,4.169,-88.841
4190,-0.0752,0.4468,-0.9165,-0.061,0.488,-0.427,153.885,4.169,-88.835
4200,-0.0747,0.4448,-0.9165,-0.061,0.549,-0.366,153.891,4.164,-88.830
4210,-0.0747,0.4429,-0.9141,0.061,0.427,-0.366,153.891,4.164,-88.824
4220,-0.0747,0.4409,-0.9146,0.122,0.244,-0.244,153.896,4.164,-88.819
4230,-0.0752,0.4424,-0.9131,0.122,-0.061,-0.122,153.902,4.164,-88.819
4240,-0.0762,0.4424,-0.9121,0.122,-0.244,0.000,153.902,4.169,-88.819
4250,-0.0747,0.4419,-0.9116,0.122,-0.244,0.000,153.907,4.169,-88.819
4260,-0.0757,0.4429,-0.9126,0.061,-0.183,0.061,153.907,4.169,-88.824
4270,-0.0737,0.4468,-0.9126,0.000,0.061,0.183,153.907,4.169,-88.824
4280,-0.0747,0.4458,-0.9150,0.122,0.305,0.305,153.913,4.164,-88.824
4290,-0.0752,0.4473,-0.9141,0.183,0.305,0.305,153.913,4.164,-88.824
4300,-0.0757,0.4453,-0.9146,0.183,0.122,0.305,153.918,4.164,-88.830
4310,-0.0767,0.4448,-0.9180,0.122,-0.122,0.244,153.918,4.164,-88.830
4320,-0.0776,0.4463,-0.9175,0.061,-0.183,0.305,153.924,4.164,-88.835
4330,-0.0767,0.4468,-0.9170,-0.061,-0.183,0.305,153.924,4.169,-88.841
4340,-0.0786,0.4453,-0.9170,-0.244,-0.244,0.244,153.924,4.169,-88.841
4350,-0.0806,0.4458,-0.9136,-0.244,-0.488,0.244,153.918,4.175,-88.846
4360,-0.0801,0.4473,-0.9131,-0.305,-0.854,0.244,153.913,4.186,-88.852
4370,-0.0786,0.4487,-0.9111,-0.183,-0.854,0.366,153.913,4.197,-88.857
4380,-0.0776,0.4463,-0.9102,0.122,-0.732,0.427,153.913,4.202,-88.868
4390,-0.0767,0.4473,-0.9092,0.305,-0.427,0.488,153.913,4.202,-88.874
4400,-0.0776,0.4482,-0.9063,0.244,-0.244,0.488,153.913,4.208,-88.879
4410,-0.0776,0.4546,-0.9053,0.061,-0.244,0.427,153.907,4.208,-88.885
4420,-0.0771,0.4541,-0.9072,-0.061,-0.183,0.305,153.902,4.208,-88.885
4430,-0.0801,0.4526,-0.9116,-0.061,0.000,0.183,153.896,4.213,-88.885
4440,-0.0791,0.4531,-0.9092,-0.122,0.244,-0.061,153.891,4.213,-88.885
4450,-0.0801,0.4507,-0.9097,-0.122,0.488,-0.183,153.891,4.213,-88.885
4460,-0.0796,0.4502,-0.9121,-0.122,0.427,-0.183,153.885,4.213,-88.885
4470,-0.0796,0.4487,-0.9111,-0.122,0.244,-0.183,153.885,4.213,-88.885
4480,-0.0815,0.4473,-0.9141,-0.061,0.000,-0.122,153.885,4.219,-88.885
4490,-0.0801,0.4473,-0.9126,0.061,-0.122,-0.122,153.885,4.224,-88.885
4500,-0.0776,0.4482,-0.9116,0.061,0.000,-0.061,153.885,4.224,-88.885
4510,-0.0747,0.4502,-0.9131,0.000,0.000,-0.122,153.885,4.224,-88.885
4520,-0.0757,0.4521,-0.9136,-0.061,-0.061,-0.244,153.880,4.224,-88.885
4530,-0.0791,0.4487,-0.9102,-0.183,-0.183,-0.366,153.880,4.230,-88.885
4540,-0.0786,0.4468,-0.9146,-0.305,-0.122,-0.549,153.875,4.235,-88.885
4550,-0.0786,0.4473,-0.9155,-0.488,0.122,-0.549,153.875,4.241,-88.885
4560,-0.0776,0.4482,-0.9141,-0.488,0.122,-0.427,153.869,4.241,-88.885
4570,-0.0757,0.4478,-0.9170,-0.305,0.061,-0.244,153.869,4.241,-88.885
4580,-0.0771,0.4487,-0.9189,0.061,-0.061,-0.305,153.869,4.246,-88.885
4590,-0.0762,0.4463,-0.9194,0.366,-0.244,-0.305,153.875,4.246,-88.885
4600,-0.0757,0.4424,-0.9185,0.488,-0.305,-0.305,153.885,4.252,-88.885
4610,-0.0776,0.4399,-0.9170,0.244,-0.366,-0.244,153.891,4.257,-88.885
4620,-0.0781,0.4399,-0.9136,-0.244,-0.488,-0.122,153.891,4.263,-88.885
4630,-0.0796,0.4414,-0.9121,-0.610,-0.732,0.000,153.891,4.274,-88.885
4640,-0.0791,0.4429,-0.9121,-0.549,-0.793,0.183,153.885,4.279,-88.885
4650,-0.0806,0.4429,-0.9097,-0.305,-0.549,0.366,153.885,4.285,-88.885
4660,-0.0801,0.4458,-0.9087,-0.061,-0.305,0.549,153.880,4.290,-88.885
4670,-0.0806,0.4468,-0.9077,0.122,-0.244,0.671,153.880,4.290,-88.885
4680,-0.0796,0.4468,-0.9067,0.183,-0.244,0.671,153.880,4.290,-88.885
4690,-0.0835,0.4482,-0.9058,0.122,-0.244,0.671,153.880,4.296,-88.885
4700,-0.0840,0.4482,-0.9067,0.061,0.061,0.610,153.880,4.296,-88.885
4710,-0.0806,0.4502,-0.9077,0.000,0.610,0.610,153.875,4.290,-88.885
4720,-0.0796,0.4531,-0.9072,0.122,0.977,0.488,153.875,4.285,-88.885
4730,-0.0781,0.4521,-0.9111,0.305,0.977,0.305,153.875,4.274,-88.885
4740,-0.0801,0.4531,-0.9131,0.305,0.732,0.183,153.875,4.268,-88.885
4750,-0.0767,0.4546,-0.9150,0.122,0.488,0.000,153.875,4.263,-88.885
4760,-0.0767,0.4556,-0.9141,-0.061,0.366,-0.122,153.869,4.263,-88.885
4770,-0.0781,0.4551,-0.9136,-0.183,0.244,-0.244,153.864,4.263,-88.885
4780,-0.0762,0.4541,-0.9136,-0.122,0.183,-0.366,153.858,4.263,-88.885
4790,-0.0762,0.4531,-0.9165,-0.061,0.244,-0.427,153.858,4.263,-88.885
4800,-0.0767,0.4521,-0.9141,-0.183,0.305,-0.427,153.853,4.263,-88.885
4810,-0.0762,0.4492,-0.9131,-0.244,0.122,-0.488,153.853,4.263,-88.885
4820,-0.0776,0.4468,-0.9146,-0.305,0.000,-0.549,153.853,4.268,-88.885
4830,-0.0771,0.4482,-0.9121,-0.427,-0.061,-0.610,153.847,4.268,-88.885
4840,-0.0752,0.4463,-0.9136,-0.366,0.000,-0.549,153.842,4.274,-88.885
4850,-0.0752,0.4438,-0.9131,-0.244,0.000,-0.610,153.842,4.274,-88.885
4860,-0.0771,0.4404,-0.9121,-0.122,-0.183,-0.671,153.847,4.279,-88.885
4870,-0.0781,0.4395,-0.9121,-0.366,-0.244,-0.549,153.847,4.285,-88.885
4880,-0.0791,0.4429,-0.9121,-0.549,-0.305,-0.427,153.847,4.290,-88.885
4890,-0.0791,0.4438,-0.9146,-0.549,-0.305,-0.427,153.842,4.296,-88.885
4900,-0.0781,0.4434,-0.9170,-0.610,-0.366,-0.427,153.842,4.307,-88.885
4910,-0.0776,0.4438,-0.9175,-0.610,-0.305,-0.366,153.836,4.307,-88.885
4920,-0.0767,0.4443,-0.9155,-0.427,-0.305,-0.183,153.836,4.312,-88.885
4930,-0.0767,0.4443,-0.9155,-0.366,-0.366,-0.061,153.836,4.318,-88.885
4940,-0.0801,0.4458,-0.9155,-0.427,-0.427,0.000,153.831,4.323,-88.885
4950,-0.0801,0.4478,-0.9146,-0.427,-0.549,0.122,153.831,4.329,-88.885
4960,-0.0786,0.4478,-0.9126,-0.366,-0.793,0.122,153.825,4.334,-88.885
4970,-0.0806,0.4482,-0.9141,-0.488,-1.160,0.000,153.820,4.345,-88.885
4980,-0.0811,0.4478,-0.9136,-0.916,-1.465,-0.061,153.814,4.362,-88.885
4990,-0.0830,0.4497,-0.9102,-1.160,-1.465,-0.061,153.798,4.378,-88.885
5000,-0.0830,0.4507,-0.9058,-1.221,-1.221,0.000,153.787,4.395,-88.885
5010,-0.0850,0.4512,-0.9038,-1.038,-0.916,0.061,153.770,4.406,-88.885
5020,-0.0825,0.4512,-0.9038,-0.671,-0.488,0.000,153.759,4.411,-88.885
5030,-0.0840,0.4512,-0.9014,-0.366,-0.244,0.000,153.754,4.417,-88.885
5040,-0.0845,0.4512,-0.9028,-0.244,0.000,0.061,153.748,4.422,-88.885
5050,-0.0830,0.4526,-0.9053,-0.183,0.427,0.061,153.743,4.422,-88.885
5060,-0.0815,0.4521,-0.9063,-0.244,0.793,0.061,153.737,4.417,-88.885
5070,-0.0820,0.4541,-0.9087,-0.305,0.977,0.000,153.732,4.406,-88.885
5080,-0.0786,0.4526,-0.9102,-0.244,1.099,-0.061,153.726,4.400,-88.885
5090,-0.0815,0.4517,-0.9111,-0.183,1.099,-0.122,153.726,4.389,-88.885
5100,-0.0825,0.4478,-0.9092,-0.183,1.038,-0.183,153.726,4.384,-88.885
5110,-0.0820,0.4463,-0.9126,-0.183,0.977,-0.061,153.726,4.378,-88.885
5120,-0.0806,0.4448,-0.9106,-0.183,0.977,0.000,153.726,4.373,-88.885
5130,-0.0786,0.4424,-0.9102,-0.305,0.854,0.183,153.726,4.362,-88.885
5140,-0.0776,0.4424,-0.9087,-0.366,0.671,0.427,153.726,4.356,-88.885
5150,-0.0776,0.4424,-0.9053,-0.305,0.671,0.610,153.726,4.351,-88.885
5160,-0.0781,0.4424,-0.9063,-0.122,0.854,0.854,153.726,4.340,-88.885
5170,-0.0786,0.4448,-0.9033,0.122,1.099,1.038,153.726,4.323,-88.890
5180,-0.0811,0.4438,-0.9004,0.427,1.343,1.160,153.732,4.312,-88.896
5190,-0.0815,0.4468,-0.9038,0.549,1.648,1.282,153.737,4.296,-88.901
5200,-0.0786,0.4507,-0.9058,0.610,2.014,1.343,153.743,4.274,-88.901
5210,-0.0757,0.4546,-0.9121,0.671,2.258,1.343,153.743,4.246,-88.907
5220,-0.0771,0.4561,-0.9146,0.671,2.380,1.282,153.748,4.219,-88.907
5230,-0.0742,0.4590,-0.9204,0.732,2.380,1.160,153.754,4.191,-88.907
5240,-0.0718,0.4590,-0.9272,0.854,2.319,0.916,153.759,4.164,-88.901
5250,-0.0718,0.4595,-0.9258,0.793,1.953,0.610,153.770,4.142,-88.901
5260,-0.0742,0.4551,-0.9253,0.427,1.282,0.427,153.776,4.131,-88.901
5270,-0.0801,0.4570,-0.9204,-0.183,0.549,0.305,153.770,4.125,-88.901
5280,-0.0806,0.4546,-0.9233,-0.671,-0.061,0.183,153.765,4.131,-88.901
5291,-0.0830,0.4541,-0.9238,-0.671,-0.244,0.000,153.759,4.136,-88.901
5300,-0.0820,0.4492,-0.9170,-0.549,-0.305,-0.061,153.754,4.142,-88.901
5310,-0.0801,0.4448,-0.9106,-0.549,-0.488,-0.061,153.748,4.153,-88.907
5320,-0.0791,0.4429,-0.9092,-0.671,-0.854,0.122,153.743,4.164,-88.907
5330,-0.0796,0.4443,-0.9033,-0.916,-1.099,0.305,153.737,4.175,-88.918
5340,-0.0796,0.4448,-0.9004,-0.854,-0.977,0.366,153.726,4.186,-88.923
5350,-0.0811,0.4434,-0.8979,-0.610,-0.366,0.488,153.721,4.191,-88.929
5360,-0.0791,0.4438,-0.8960,-0.244,0.610,0.671,153.715,4.186,-88.934
5370,-0.0791,0.4419,-0.8970,0.183,1.343,0.854,153.721,4.175,-88.934
5380,-0.0815,0.4458,-0.8975,0.549,1.709,0.916,153.721,4.158,-88.934
5390,-0.0806,0.4497,-0.9004,0.610,1.831,0.916,153.726,4.142,-88.934
5400,-0.0811,0.4526,-0.9063,0.549,1.953,0.854,153.732,4.125,-88.934
5410,-0.0786,0.4541,-0.9082,0.610,2.197,0.854,153.732,4.103,-88.934
5420,-0.0771,0.4546,-0.9106,0.732,2.380,0.793,153.737,4.081,-88.929
5430,-0.0732,0.4575,-0.9150,0.854,2.441,0.610,153.743,4.059,-88.923
5440,-0.0718,0.4541,-0.9185,0.916,2.258,0.549,153.754,4.037,-88.918
5450,-0.0718,0.4561,-0.9185,0.793,1.892,0.488,153.759,4.016,-88.918
5460,-0.0737,0.4570,-0.9180,0.488,1.465,0.427,153.759,4.005,-88.912
5470,-0.0703,0.4556,-0.9199,0.366,1.221,0.244,153.765,3.988,-88.912
5480,-0.0703,0.4546,-0.9199,0.427,1.221,0.061,153.770,3.977,-88.907
5490,-0.0684,0.4517,-0.9199,0.549,1.160,-0.061,153.776,3.966,-88.901
5500,-0.0674,0.4497,-0.9189,0.610,0.977,-0.183,153.781,3.955,-88.896
5510,-0.0679,0.4482,-0.9160,0.366,0.549,-0.122,153.787,3.950,-88.890
5520,-0.0688,0.4458,-0.9175,0.122,0.244,-0.061,153.792,3.950,-88.890
5530,-0.0708,0.4448,-0.9141,-0.061,0.061,0.122,153.792,3.950,-88.890
5540,-0.0713,0.4438,-0.9131,-0.305,0.122,0.305,153.792,3.944,-88.890
5550,-0.0713,0.4434,-0.9126,-0.366,0.305,0.427,153.792,3.944,-88.896
5560,-0.0698,0.4443,-0.9102,-0.183,0.427,0.488,153.792,3.939,-88.896
5570,-0.0693,0.4448,-0.9150,0.122,0.366,0.549,153.798,3.928,-88.901
5580,-0.0693,0.4458,-0.9185,0.305,0.244,0.610,153.803,3.922,-88.901
5590,-0.0693,0.4468,-0.9185,0.244,0.000,0.671,153.809,3.922,-88.912
5600,-0.0693,0.4497,-0.9180,0.122,-0.183,0.671,153.809,3.922,-88.918
5610,-0.0698,0.4468,-0.9194,-0.122,-0.427,0.610,153.809,3.922,-88.923
5620,-0.0713,0.4478,-0.9165,-0.366,-0.549,0.549,153.809,3.922,-88.929
5630,-0.0728,0.4517,-0.9165,-0.427,-0.549,0.549,153.803,3.928,-88.940
5640,-0.0747,0.4497,-0.9150,-0.366,-0.610,0.488,153.798,3.933,-88.945
5650,-0.0737,0.4487,-0.9106,-0.427,-0.732,0.427,153.792,3.939,-88.951
5660,-0.0728,0.4482,-0.9121,-0.305,-0.977,0.427,153.787,3.950,-88.962
5670,-0.0732,0.4507,-0.9102,-0.305,-1.099,0.427,153.787,3.961,-88.967
5680,-0.0747,0.4497,-0.9082,-0.244,-1.038,0.427,153.781,3.966,-88.978
5690,-0.0752,0.4521,-0.9043,-0.122,-0.793,0.427,153.776,3.977,-88.984
5700,-0.0732,0.4492,-0.9038,0.061,-0.549,0.427,153.776,3.983,-88.989
5710,-0.0747,0.4487,-0.9019,0.122,-0.427,0.488,153.770,3.983,-89.000
5720,-0.0767,0.4482,-0.9019,0.061,-0.244,0.549,153.770,3.988,-89.006
5730,-0.0767,0.4487,-0.8994,0.061,0.000,0.671,153.765,3.988,-89.011
5740,-0.0747,0.4507,-0.9019,0.183,0.427,0.671,153.765,3.983,-89.017
5750,-0.0742,0.4521,-0.9058,0.427,0.671,0.671,153.765,3.977,-89.017
5760,-0.0737,0.4521,-0.9072,0.671,0.854,0.610,153.770,3.972,-89.017
5770,-0.0737,0.4546,-0.9121,0.793,0.854,0.427,153.776,3.961,-89.017
5780,-0.0752,0.4546,-0.9141,0.671,0.854,0.366,153.781,3.955,-89.017
5791,-0.0747,0.4536,-0.9111,0.488,0.732,0.244,153.781,3.950,-89.017
5800,-0.0776,0.4507,-0.9121,0.427,0.610,0.061,153.787,3.950,-89.017
5810,-0.0776,0.4517,-0.9131,0.244,0.366,-0.061,153.787,3.950,-89.011
5820,-0.0747,0.4531,-0.9136,0.122,0.244,-0.061,153.787,3.950,-89.011
5830,-0.0708,0.4531,-0.9102,0.122,0.305,0.000,153.787,3.950,-89.011
5840,-0.0708,0.4536,-0.9131,0.244,0.427,-0.122,153.787,3.944,-89.006
5850,-0.0713,0.4526,-0.9165,0.366,0.610,-0.366,153.792,3.944,-89.000
5860,-0.0674,0.4517,-0.9185,0.366,0.854,-0.488,153.792,3.933,-88.995
5870,-0.0659,0.4473,-0.9194,0.427,0.854,-0.488,153.803,3.928,-88.984
5880,-0.0688,0.4429,-0.9194,0.305,0.549,-0.427,153.809,3.922,-88.978
5890,-0.0713,0.4390,-0.9136,0.061,0.061,-0.366,153.814,3.922,-88.973
5900,-0.0742,0.4390,-0.9155,-0.122,-0.305,-0.183,153.820,3.933,-88.973
5913,-0.0752,0.4365,-0.9111,-0.122,-0.366,0.183,153.825,3.939,-88.978
5920,-0.0732,0.4375,-0.9097,0.000,-0.122,0.427,153.831,3.939,-88.984
5930,-0.0713,0.4390,-0.9106,0.183,-0.061,0.671,153.836,3.939,-88.989
5940,-0.0698,0.4414,-0.9111,0.244,0.000,0.854,153.842,3.933,-88.995
5950,-0.0698,0.4443,-0.9111,0.427,0.000,0.977,153.847,3.928,-89.006
5960,-0.0703,0.4492,-0.9126,0.549,0.061,1.038,153.847,3.922,-89.017
5970,-0.0718,0.4521,-0.9150,0.610,0.244,1.038,153.853,3.917,-89.022
5980,-0.0713,0.4546,-0.9141,0.610,0.305,0.854,153.858,3.911,-89.028
5990,-0.0718,0.4561,-0.9155,0.427,0.244,0.610,153.858,3.906,-89.033
6000,-0.0757,0.4575,-0.9126,0.061,0.122,0.427,153.853,3.911,-89.039
6010,-0.0776,0.4580,-0.9150,-0.183,0.000,0.244,153.847,3.911,-89.039
6020,-0.0767,0.4585,-0.9150,-0.122,0.122,0.122,153.842,3.917,-89.039
6030,-0.0752,0.4585,-0.9136,0.000,0.122,-0.061,153.836,3.917,-89.039
6040,-0.0723,0.4595,-0.9111,0.305,-0.061,-0.305,153.831,3.917,-89.033
6050,-0.0728,0.4565,-0.9111,0.305,-0.427,-0.488,153.831,3.928,-89.033
6060,-0.0737,0.4551,-0.9067,-0.061,-0.671,-0.610,153.825,3.939,-89.033
6070,-0.0732,0.4502,-0.9053,-0.427,-0.549,-0.732,153.820,3.950,-89.028
6080,-0.0742,0.4492,-0.9082,-0.549,0.000,-0.854,153.814,3.955,-89.017
6090,-0.0718,0.4482,-0.9102,-0.366,0.549,-0.793,153.809,3.955,-89.011
6100,-0.0708,0.4448,-0.9102,0.244,0.916,-0.732,153.814,3.950,-89.000
6110,-0.0703,0.4429,-0.9121,0.732,0.793,-0.549,153.825,3.944,-88.989
6120,-0.0708,0.4390,-0.9141,0.977,0.610,-0.305,153.842,3.939,-88.984
6130,-0.0732,0.4390,-0.9146,0.916,0.305,-0.183,153.853,3.939,-88.984
6140,-0.0742,0.4390,-0.9170,0.671,0.122,0.000,153.869,3.944,-88.984
6150,-0.0742,0.4414,-0.9175,0.549,0.122,0.122,153.875,3.944,-88.984
6160,-0.0732,0.4414,-0.9160,0.366,0.244,0.305,153.885,3.939,-88.984
6170,-0.0737,0.4443,-0.9170,0.427,0.244,0.427,153.891,3.939,-88.984
6180,-0.0713,0.4463,-0.9180,0.610,0.244,0.488,153.896,3.933,-88.989
6190,-0.0718,0.4463,-0.9204,0.793,0.122,0.610,153.907,3.933,-88.995
6200,-0.0728,0.4478,-0.9209,0.793,-0.183,0.732,153.918,3.933,-89.000
6210,-0.0732,0.4473,-0.9214,0.488,-0.427,0.732,153.924,3.933,-89.011
6220,-0.0737,0.4507,-0.9243,0.000,-0.732,0.610,153.924,3.939,-89.017
6230,-0.0742,0.4512,-0.9258,-0.549,-1.099,0.488,153.918,3.950,-89.028
6240,-0.0757,0.4541,-0.9209,-0.977,-1.465,0.366,153.907,3.961,-89.039
6250,-0.0767,0.4536,-0.9185,-1.099,-1.770,0.244,153.891,3.983,-89.050
6260,-0.0767,0.4521,-0.9150,-0.916,-2.075,0.183,153.880,3.999,-89.061
6270,-0.0747,0.4517,-0.9121,-0.854,-2.441,0.122,153.869,4.026,-89.072
6280,-0.0776,0.4502,-0.9077,-0.854,-2.686,0.061,153.858,4.054,-89.083
6291,-0.0781,0.4502,-0.9023,-0.916,-2.625,0.061,153.842,4.081,-89.094
6300,-0.0791,0.4502,-0.8984,-0.977,-2.014,0.061,153.831,4.103,-89.105
6310,-0.0796,0.4526,-0.8989,-0.854,-1.282,0.061,153.814,4.114,-89.110
6320,-0.0791,0.4546,-0.8945,-0.488,-0.610,0.000,153.803,4.125,-89.116
6330,-0.0791,0.4531,-0.8994,0.000,-0.244,-0.061,153.798,4.131,-89.116
6340,-0.0771,0.4517,-0.9058,0.366,0.122,-0.122,153.798,4.131,-89.110
6350,-0.0771,0.4526,-0.9097,0.549,0.488,-0.183,153.798,4.131,-89.110
6360,-0.0737,0.4512,-0.9097,0.305,0.854,-0.122,153.803,4.125,-89.105
6370,-0.0737,0.4512,-0.9092,0.183,0.916,-0.122,153.803,4.120,-89.099
6380,-0.0728,0.4502,-0.9111,0.122,0.671,-0.183,153.803,4.114,-89.094
6390,-0.0747,0.4492,-0.9136,0.122,0.427,-0.244,153.803,4.109,-89.088
6400,-0.0723,0.4512,-0.9141,0.000,0.366,-0.183,153.803,4.109,-89.088
6410,-0.0718,0.4482,-0.9141,0.122,0.244,-0.183,153.803,4.103,-89.083
6420,-0.0737,0.4478,-0.9136,0.366,0.122,-0.244,153.809,4.103,-89.083
6430,-0.0732,0.4473,-0.9165,0.427,0.244,-0.305,153.814,4.103,-89.077
6440,-0.0737,0.4448,-0.9131,0.549,0.366,-0.305,153.825,4.103,-89.072
6450,-0.0757,0.4443,-0.9116,0.671,0.366,-0.244,153.831,4.103,-89.072
6460,-0.0762,0.4448,-0.9131,0.610,0.305,-0.244,153.842,4.103,-89.066
6470,-0.0762,0.4468,-0.9146,0.488,0.305,-0.183,153.847,4.103,-89.061
6480,-0.0752,0.4478,-0.9170,0.488,0.305,-0.061,153.853,4.103,-89.061
6490,-0.0757,0.4507,-0.9194,0.488,0.244,-0.183,153.858,4.103,-89.061
6500,-0.0737,0.4492,-0.9214,0.549,0.122,-0.183,153.864,4.103,-89.055
6510,-0.0732,0.4487,-0.9233,0.549,-0.061,-0.244,153.875,4.103,-89.055
6520,-0.0718,0.4473,-0.9224,0.366,-0.366,-0.244,153.880,4.103,-89.055
6530,-0.0732,0.4448,-0.9189,-0.061,-0.793,-0.244,153.880,4.114,-89.055
6540,-0.0767,0.4473,-0.9155,-0.610,-1.282,-0.244,153.875,4.125,-89.061
6550,-0.0791,0.4497,-0.9146,-1.038,-1.587,-0.244,153.864,4.147,-89.061
6560,-0.0776,0.4502,-0.9111,-1.160,-1.587,-0.183,153.853,4.164,-89.066
6570,-0.0796,0.4497,-0.9092,-0.977,-1.526,-0.183,153.842,4.180,-89.072
6580,-0.0811,0.4482,-0.9048,-0.671,-1.465,-0.122,153.831,4.197,-89.077
6590,-0.0845,0.4497,-0.9014,-0.427,-1.404,-0.122,153.825,4.219,-89.083
6600,-0.0859,0.4478,-0.9014,-0.305,-1.282,-0.183,153.820,4.235,-89.088
6610,-0.0854,0.4468,-0.9019,-0.366,-1.038,-0.305,153.814,4.252,-89.088
6620,-0.0854,0.4463,-0.9043,-0.366,-0.549,-0.366,153.809,4.268,-89.088
6630,-0.0835,0.4463,-0.9028,-0.427,-0.061,-0.244,153.803,4.274,-89.088
6640,-0.0845,0.4487,-0.9053,-0.427,0.244,-0.122,153.798,4.274,-89.083
6650,-0.0845,0.4478,-0.9053,-0.244,0.305,0.000,153.792,4.279,-89.083
6660,-0.0815,0.4497,-0.9038,0.183,0.366,0.061,153.792,4.279,-89.083
6670,-0.0811,0.4521,-0.9048,0.610,0.549,0.061,153.798,4.274,-89.083
6680,-0.0801,0.4492,-0.9111,0.977,0.916,0.000,153.803,4.268,-89.077
6690,-0.0781,0.4497,-0.9121,0.977,1.343,-0.183,153.814,4.257,-89.072
6700,-0.0732,0.4478,-0.9141,0.793,1.526,-0.305,153.825,4.246,-89.061
6710,-0.0728,0.4468,-0.9150,0.488,1.343,-0.366,153.831,4.235,-89.050
6720,-0.0747,0.4473,-0.9165,0.366,0.977,-0.305,153.836,4.224,-89.044
6730,-0.0767,0.4478,-0.9199,0.366,0.488,-0.244,153.842,4.224,-89.039
6740,-0.0771,0.4502,-0.9199,0.549,0.305,-0.122,153.847,4.224,-89.039
6750,-0.0767,0.4487,-0.9219,0.732,0.305,-0.122,153.858,4.219,-89.033
6760,-0.0757,0.4482,-0.9209,0.732,0.305,-0.061,153.869,4.219,-89.033
6770,-0.0752,0.4482,-0.9199,0.427,0.122,-0.122,153.875,4.219,-89.028
6780,-0.0752,0.4473,-0.9185,-0.061,-0.305,-0.183,153.875,4.219,-89.028
6791,-0.0776,0.4478,-0.9165,-0.427,-0.671,-0.244,153.869,4.230,-89.033
6800,-0.0801,0.4463,-0.9146,-0.610,-0.854,-0.366,153.864,4.241,-89.033
6810,-0.0811,0.4473,-0.9126,-0.610,-0.854,-0.305,153.858,4.252,-89.033
6820,-0.0796,0.4473,-0.9097,-0.366,-0.732,-0.244,153.858,4.263,-89.033
6830,-0.0806,0.4473,-0.9067,-0.183,-0.610,-0.061,153.853,4.274,-89.033
6840,-0.0776,0.4478,-0.9058,0.000,-0.488,0.061,153.853,4.279,-89.039
6850,-0.0742,0.4473,-0.9053,0.061,-0.427,0.122,153.853,4.279,-89.039
6860,-0.0762,0.4473,-0.9077,0.061,-0.488,0.122,153.847,4.285,-89.044
6870,-0.0781,0.4478,-0.9092,-0.061,-0.366,0.061,153.847,4.290,-89.044
6880,-0.0776,0.4478,-0.9097,-0.122,-0.122,0.061,153.847,4.290,-89.050
6890,-0.0771,0.4468,-0.9097,-0.061,0.183,0.061,153.847,4.290,-89.050
6900,-0.0786,0.4448,-0.9111,0.000,0.244,0.061,153.847,4.285,-89.050
6910,-0.0786,0.4434,-0.9111,0.183,0.183,0.183,153.853,4.285,-89.050
6920,-0.0806,0.4458,-0.9116,0.366,0.000,0.244,153.853,4.290,-89.050
6930,-0.0820,0.4473,-0.9131,0.488,-0.061,0.366,153.858,4.290,-89.055
6940,-0.0791,0.4473,-0.9146,0.610,0.061,0.427,153.869,4.290,-89.055
6950,-0.0791,0.4473,-0.9131,0.549,0.122,0.427,153.875,4.290,-89.061
6960,-0.0801,0.4482,-0.9136,0.305,0.122,0.488,153.875,4.285,-89.066
6970,-0.0796,0.4487,-0.9131,0.061,0.061,0.549,153.875,4.285,-89.066
6980,-0.0781,0.4497,-0.9106,0.061,0.122,0.549,153.875,4.285,-89.066
6990,-0.0781,0.4492,-0.9087,0.305,0.183,0.549,153.875,4.279,-89.066
7000,-0.0781,0.4478,-0.9082,0.549,0.244,0.549,153.880,4.279,-89.066
7010,-0.0781,0.4463,-0.9126,0.671,0.488,0.610,153.885,4.274,-89.066
7020,-0.0786,0.4478,-0.9155,0.488,0.732,0.488,153.891,4.263,-89.066
7030,-0.0806,0.4507,-0.9160,0.244,0.732,0.305,153.891,4.257,-89.066
7040,-0.0796,0.4512,-0.9219,0.122,0.427,0.183,153.891,4.257,-89.066
7050,-0.0801,0.4507,-0.9185,-0.183,-0.061,0.061,153.891,4.257,-89.066
7060,-0.0796,0.4497,-0.9170,-0.305,-0.366,0.061,153.885,4.263,-89.066
7070,-0.0781,0.4507,-0.9150,-0.366,-0.488,0.122,153.880,4.268,-89.066
7080,-0.0796,0.4502,-0.9116,-0.305,-0.488,0.183,153.880,4.274,-89.066
7090,-0.0815,0.4507,-0.9067,-0.183,-0.549,0.244,153.875,4.279,-89.066
7100,-0.0840,0.4492,-0.9048,-0.061,-0.488,0.244,153.869,4.290,-89.066
7110,-0.0820,0.4502,-0.9067,-0.061,-0.427,0.061,153.864,4.296,-89.066
7120,-0.0815,0.4517,-0.9092,-0.122,-0.305,-0.122,153.864,4.301,-89.066
7130,-0.0811,0.4526,-0.9077,-0.122,-0.061,-0.183,153.858,4.307,-89.066
7140,-0.0796,0.4526,-0.9111,-0.061,0.305,-0.244,153.853,4.307,-89.066
7150,-0.0771,0.4497,-0.9136,0.061,0.549,-0.305,153.853,4.301,-89.066
7160,-0.0767,0.4478,-0.9136,0.305,0.549,-0.366,153.858,4.301,-89.066
7170,-0.0767,0.4434,-0.9097,0.610,0.427,-0.244,153.864,4.296,-89.066
7180,-0.0811,0.4419,-0.9097,0.549,0.244,-0.183,153.875,4.296,-89.066
7190,-0.0845,0.4414,-0.9126,0.305,0.183,0.000,153.880,4.301,-89.066
7200,-0.0840,0.4429,-0.9131,0.061,0.366,0.183,153.880,4.301,-89.066
7210,-0.0811,0.4429,-0.9155,0.000,0.549,0.305,153.885,4.296,-89.066
7220,-0.0791,0.4438,-0.9155,-0.061,0.427,0.305,153.885,4.296,-89.066
7230,-0.0767,0.4443,-0.9189,-0.061,0.122,0.305,153.891,4.290,-89.066
7240,-0.0757,0.4438,-0.9170,-0.122,-0.183,0.305,153.891,4.290,-89.066
7250,-0.0747,0.4438,-0.9160,-0.183,-0.427,0.366,153.891,4.290,-89.066
7260,-0.0771,0.4463,-0.9116,-0.366,-0.610,0.305,153.885,4.296,-89.066
7270,-0.0791,0.4468,-0.9121,-0.488,-0.610,0.305,153.880,4.301,-89.066
7280,-0.0786,0.4473,-0.9077,-0.549,-0.610,0.366,153.875,4.307,-89.066
7291,-0.0786,0.4492,-0.9067,-0.427,-0.427,0.366,153.869,4.312,-89.066
7300,-0.0811,0.4487,-0.9082,-0.122,-0.183,0.366,153.864,4.312,-89.066
7310,-0.0806,0.4497,-0.9063,0.122,0.000,0.244,153.864,4.318,-89.066
7320,-0.0801,0.4502,-0.9082,0.244,0.122,0.244,153.864,4.318,-89.066
7330,-0.0806,0.4507,-0.9063,0.122,0.244,0.305,153.864,4.312,-89.066
7340,-0.0806,0.4512,-0.9072,0.122,0.366,0.244,153.858,4.312,-89.066
7350,-0.0771,0.4526,-0.9048,0.305,0.488,0.183,153.858,4.307,-89.066
7360,-0.0771,0.4512,-0.9067,0.549,0.671,0.061,153.858,4.301,-89.066
7370,-0.0791,0.4517,-0.9072,0.671,0.671,0.000,153.864,4.296,-89.066
7380,-0.0786,0.4512,-0.9146,0.671,0.854,-0.061,153.869,4.290,-89.066
7390,-0.0771,0.4536,-0.9146,0.427,0.977,-0.122,153.875,4.285,-89.066
7400,-0.0757,0.4512,-0.9189,0.305,0.916,-0.244,153.875,4.274,-89.066
7410,-0.0752,0.4492,-0.9180,0.366,0.854,-0.305,153.880,4.268,-89.066
7420,-0.0767,0.4478,-0.9175,0.488,0.549,-0.366,153.885,4.268,-89.066
7430,-0.0796,0.4448,-0.9180,0.549,0.366,-0.427,153.896,4.268,-89.066
7440,-0.0771,0.4424,-0.9175,0.427,0.244,-0.366,153.902,4.268,-89.066
7450,-0.0757,0.4404,-0.9150,0.183,0.000,-0.183,153.907,4.268,-89.066
7460,-0.0781,0.4404,-0.9146,0.061,-0.183,-0.061,153.913,4.268,-89.066
7470,-0.0762,0.4414,-0.9136,-0.122,-0.122,0.000,153.913,4.274,-89.066
7480,-0.0757,0.4429,-0.9170,0.000,-0.122,0.183,153.918,4.274,-89.066
7490,-0.0762,0.4424,-0.9150,0.122,0.000,0.305,153.924,4.268,-89.066
7500,-0.0767,0.4395,-0.9131,0.244,0.000,0.427,153.929,4.268,-89.066
7510,-0.0791,0.4385,-0.9180,0.366,-0.122,0.427,153.935,4.268,-89.066
7520,-0.0806,0.4404,-0.9175,0.305,-0.122,0.427,153.940,4.274,-89.066
7530,-0.0796,0.4404,-0.9170,0.061,-0.305,0.549,153.946,4.274,-89.066
7540,-0.0806,0.4414,-0.9175,-0.183,-0.427,0.549,153.946,4.279,-89.066
7550,-0.0811,0.4424,-0.9160,-0.549,-0.671,0.549,153.946,4.285,-89.066
7560,-0.0815,0.4463,-0.9141,-0.671,-0.793,0.610,153.940,4.290,-89.066
7570,-0.0811,0.4453,-0.9106,-0.610,-0.854,0.610,153.929,4.301,-89.066
7580,-0.0801,0.4482,-0.9063,-0.488,-1.038,0.671,153.924,4.307,-89.066
7590,-0.0835,0.4497,-0.9019,-0.244,-1.038,0.671,153.913,4.318,-89.066
7600,-0.0830,0.4517,-0.9033,0.000,-0.916,0.671,153.907,4.329,-89.066
7610,-0.0825,0.4517,-0.9038,0.061,-0.427,0.671,153.907,4.334,-89.066
7620,-0.0825,0.4541,-0.9019,0.061,0.061,0.671,153.896,4.334,-89.066
7630,-0.0825,0.4541,-0.9023,0.061,0.549,0.549,153.891,4.329,-89.066
7640,-0.0811,0.4546,-0.9033,0.122,0.854,0.427,153.891,4.323,-89.066
7650,-0.0815,0.4551,-0.9048,0.244,1.038,0.305,153.885,4.312,-89.066
7660,-0.0776,0.4526,-0.9092,0.427,1.221,0.183,153.885,4.301,-89.066
7670,-0.0801,0.4536,-0.9102,0.366,1.221,0.122,153.885,4.296,-89.066
7680,-0.0781,0.4507,-0.9126,0.244,1.221,0.122,153.885,4.285,-89.066
7690,-0.0767,0.4512,-0.9146,0.000,0.977,0.061,153.885,4.274,-89.066
7700,-0.0767,0.4512,-0.9160,-0.183,0.854,-0.061,153.885,4.268,-89.066
7710,-0.0771,0.4512,-0.9150,-0.427,0.732,-0.061,153.880,4.263,-89.066
7720,-0.0771,0.4517,-0.9131,-0.488,0.671,-0.122,153.869,4.257,-89.066
7730,-0.0757,0.4526,-0.9175,-0.183,0.732,-0.244,153.869,4.252,-89.066
7740,-0.0776,0.4507,-0.9150,0.061,0.793,-0.305,153.869,4.246,-89.066
7750,-0.0801,0.4492,-0.9102,0.183,0.732,-0.427,153.869,4.246,-89.066
7760,-0.0781,0.4458,-0.9102,0.122,0.549,-0.610,153.875,4.241,-89.066
7770,-0.0806,0.4453,-0.9092,-0.244,0.488,-0.610,153.869,4.246,-89.066
7780,-0.0781,0.4458,-0.9092,-0.488,0.488,-0.488,153.864,4.246,-89.066
7791,-0.0757,0.4448,-0.9155,-0.488,0.610,-0.427,153.864,4.241,-89.066
7800,-0.0767,0.4468,-0.9136,-0.122,0.854,-0.427,153.864,4.235,-89.066
7810,-0.0747,0.4463,-0.9185,0.244,0.977,-0.366,153.869,4.230,-89.066
7820,-0.0752,0.4419,-0.9189,0.488,1.038,-0.427,153.880,4.219,-89.066
7830,-0.0742,0.4390,-0.9204,0.305,0.793,-0.305,153.891,4.213,-89.066
7840,-0.0776,0.4375,-0.9185,-0.122,0.427,-0.183,153.896,4.213,-89.066
7850,-0.0801,0.4399,-0.9155,-0.427,0.061,0.000,153.896,4.213,-89.066
7860,-0.0806,0.4404,-0.9155,-0.488,-0.244,0.122,153.891,4.219,-89.066
7870,-0.0825,0.4414,-0.9146,-0.366,-0.305,0.305,153.891,4.224,-89.066
7880,-0.0815,0.4399,-0.9102,-0.305,-0.427,0.427,153.891,4.230,-89.066
7890,-0.0796,0.4399,-0.9102,-0.305,-0.488,0.610,153.891,4.235,-89.066
7900,-0.0806,0.4424,-0.9092,-0.366,-0.610,0.671,153.891,4.241,-89.066
7914,-0.0801,0.4434,-0.9102,-0.610,-0.488,0.671,153.885,4.246,-89.066
7920,-0.0806,0.4453,-0.9048,-0.610,-0.244,0.549,153.875,4.246,-89.066
7930,-0.0830,0.4448,-0.9063,-0.610,0.061,0.610,153.869,4.252,-89.066
7940,-0.0825,0.4458,-0.9033,-0.488,0.244,0.671,153.864,4.246,-89.066
7950,-0.0825,0.4502,-0.9048,-0.366,0.366,0.732,153.858,4.246,-89.066
7960,-0.0811,0.4517,-0.9033,-0.122,0.488,0.793,153.853,4.241,-89.066
7970,-0.0776,0.4541,-0.9058,0.061,0.610,0.793,153.847,4.235,-89.066
7980,-0.0767,0.4570,-0.9097,0.183,0.793,0.732,153.842,4.224,-89.066
7990,-0.0767,0.4604,-0.9082,0.122,0.916,0.610,153.836,4.213,-89.066
8000,-0.0757,0.4595,-0.9106,-0.061,1.038,0.366,153.831,4.202,-89.066
8010,-0.0752,0.4600,-0.9106,-0.183,1.221,0.061,153.820,4.191,-89.066
8020,-0.0732,0.4590,-0.9126,-0.305,1.221,-0.122,153.814,4.180,-89.066
8030,-0.0732,0.4575,-0.9136,-0.366,1.099,-0.305,153.809,4.175,-89.066
8040,-0.0757,0.4551,-0.9155,-0.305,0.977,-0.488,153.803,4.169,-89.066
8050,-0.0771,0.4536,-0.9204,-0.244,0.916,-0.671,153.798,4.164,-89.066
8060,-0.0767,0.4502,-0.9185,-0.244,0.854,-0.793,153.798,4.158,-89.066
8070,-0.0732,0.4448,-0.9175,-0.244,0.732,-0.793,153.803,4.158,-89.066
8080,-0.0703,0.4419,-0.9165,-0.244,0.427,-0.793,153.803,4.153,-89.066
8090,-0.0728,0.4380,-0.9150,-0.427,0.122,-0.610,153.809,4.153,-89.066
8100,-0.0737,0.4346,-0.9136,-0.488,0.000,-0.305,153.809,4.158,-89.066
8110,-0.0737,0.4351,-0.9106,-0.427,0.061,-0.061,153.809,4.158,-89.066
8120,-0.0728,0.4375,-0.9106,-0.305,0.122,0.183,153.814,4.153,-89.066
8130,-0.0728,0.4385,-0.9106,0.000,0.244,0.427,153.820,4.147,-89.066
8140,-0.0762,0.4385,-0.9102,0.244,0.366,0.610,153.825,4.147,-89.066
8150,-0.0752,0.4424,-0.9106,0.305,0.549,0.793,153.831,4.136,-89.066
8160,-0.0752,0.4458,-0.9111,0.122,0.671,0.916,153.831,4.131,-89.066
8170,-0.0752,0.4468,-0.9131,-0.061,0.610,0.977,153.831,4.120,-89.066
8180,-0.0747,0.4517,-0.9141,-0.183,0.549,1.038,153.831,4.114,-89.072
8190,-0.0786,0.4517,-0.9165,-0.122,0.305,0.916,153.825,4.109,-89.077
8200,-0.0791,0.4531,-0.9175,-0.122,0.000,0.793,153.825,4.109,-89.083
8210,-0.0791,0.4536,-0.9141,-0.183,-0.305,0.732,153.820,4.109,-89.094
8220,-0.0801,0.4551,-0.9136,-0.183,-0.549,0.610,153.814,4.114,-89.099
8230,-0.0801,0.4531,-0.9067,-0.305,-0.549,0.549,153.803,4.125,-89.110
8240,-0.0786,0.4546,-0.9023,-0.427,-0.427,0.549,153.798,4.125,-89.116
8250,-0.0762,0.4561,-0.9033,-0.427,-0.305,0.488,153.787,4.131,-89.121
8260,-0.0781,0.4575,-0.9038,-0.183,-0.061,0.427,153.776,4.131,-89.127
8270,-0.0781,0.4570,-0.9058,0.183,0.366,0.244,153.770,4.131,-89.127
8280,-0.0786,0.4546,-0.9063,0.366,0.854,0.061,153.770,4.125,-89.121
8291,-0.0801,0.4521,-0.9063,0.366,1.221,-0.122,153.776,4.120,-89.116
8300,-0.0771,0.4507,-0.9097,0.183,1.282,-0.244,153.776,4.109,-89.110
8310,-0.0771,0.4512,-0.9106,-0.122,1.099,-0.244,153.770,4.103,-89.099
8320,-0.0771,0.4507,-0.9116,-0.183,1.038,-0.244,153.770,4.098,-89.094
8330,-0.0752,0.4487,-0.9150,-0.122,0.916,-0.183,153.770,4.092,-89.088
8340,-0.0742,0.4463,-0.9155,0.122,0.793,-0.122,153.776,4.087,-89.083
8350,-0.0728,0.4458,-0.9131,0.305,0.610,-0.122,153.781,4.081,-89.083
8360,-0.0703,0.4438,-0.9155,0.244,0.488,-0.122,153.787,4.076,-89.077
8370,-0.0723,0.4468,-0.9175,0.061,0.488,-0.061,153.787,4.070,-89.072
8380,-0.0708,0.4453,-0.9170,-0.061,0.549,-0.061,153.792,4.065,-89.072
8390,-0.0708,0.4429,-0.9185,-0.122,0.366,-0.122,153.798,4.065,-89.066
8400,-0.0757,0.4404,-0.9136,-0.122,0.061,-0.061,153.798,4.065,-89.066
8410,-0.0762,0.4409,-0.9146,-0.183,-0.244,0.061,153.803,4.070,-89.072
8420,-0.0723,0.4429,-0.9155,-0.122,-0.305,0.305,153.803,4.070,-89.072
8430,-0.0718,0.4458,-0.9092,0.061,-0.244,0.488,153.803,4.070,-89.077
8440,-0.0718,0.4492,-0.9102,0.427,-0.122,0.610,153.809,4.070,-89.083
8450,-0.0703,0.4497,-0.9141,0.610,0.183,0.671,153.814,4.065,-89.088
8460,-0.0679,0.4502,-0.9150,0.610,0.427,0.732,153.820,4.054,-89.094
8470,-0.0664,0.4482,-0.9146,0.671,0.488,0.610,153.825,4.043,-89.099
8480,-0.0708,0.4473,-0.9155,0.488,0.366,0.549,153.831,4.037,-89.099
8490,-0.0737,0.4497,-0.9175,0.244,0.122,0.488,153.836,4.032,-89.105
8500,-0.0767,0.4487,-0.9194,0.000,-0.061,0.427,153.836,4.037,-89.110
8510,-0.0757,0.4487,-0.9165,-0.061,-0.244,0.427,153.836,4.037,-89.116
8520,-0.0757,0.4478,-0.9175,0.000,-0.427,0.427,153.836,4.043,-89.121
8530,-0.0762,0.4463,-0.9170,0.061,-0.549,0.488,153.842,4.048,-89.127
8540,-0.0776,0.4448,-0.9116,0.061,-0.671,0.610,153.842,4.054,-89.138
8550,-0.0767,0.4468,-0.9067,-0.061,-0.793,0.610,153.836,4.059,-89.143
8560,-0.0762,0.4492,-0.9053,-0.183,-0.916,0.610,153.836,4.070,-89.154
8570,-0.0757,0.4497,-0.9048,-0.122,-0.793,0.610,153.831,4.076,-89.165
8580,-0.0767,0.4521,-0.9053,0.244,-0.488,0.488,153.825,4.081,-89.171
8590,-0.0771,0.4502,-0.9067,0.549,-0.061,0.488,153.831,4.081,-89.176
8600,-0.0771,0.4517,-0.9053,0.610,0.305,0.366,153.831,4.081,-89.176
8610,-0.0771,0.4526,-0.9072,0.488,0.488,0.305,153.836,4.076,-89.176
8620,-0.0791,0.4521,-0.9097,0.305,0.488,0.183,153.836,4.076,-89.176
8630,-0.0776,0.4526,-0.9106,0.183,0.488,0.122,153.836,4.070,-89.176
8640,-0.0767,0.4526,-0.9106,0.366,0.549,0.061,153.836,4.070,-89.171
8650,-0.0776,0.4526,-0.9121,0.671,0.671,0.000,153.842,4.065,-89.171
8660,-0.0762,0.4517,-0.9131,0.793,0.671,-0.122,153.847,4.065,-89.165
8670,-0.0757,0.4492,-0.9116,0.732,0.488,-0.244,153.853,4.059,-89.160
8680,-0.0771,0.4478,-0.9146,0.610,0.427,-0.305,153.858,4.065,-89.160
8690,-0.0713,0.4463,-0.9160,0.244,0.793,-0.366,153.864,4.054,-89.149
8700,-0.0688,0.4438,-0.9180,0.305,0.916,-0.427,153.869,4.048,-89.143
8710,-0.0708,0.4434,-0.9189,0.427,0.793,-0.366,153.880,4.043,-89.138
8720,-0.0723,0.4414,-0.9155,0.305,0.366,-0.183,153.885,4.037,-89.132
8730,-0.0728,0.4409,-0.9141,0.183,-0.122,0.061,153.891,4.043,-89.132
8740,-0.0742,0.4424,-0.9146,0.122,-0.488,0.122,153.896,4.048,-89.138
8750,-0.0747,0.4419,-0.9131,0.061,-0.610,0.244,153.896,4.054,-89.143
8760,-0.0737,0.4438,-0.9131,0.000,-0.305,0.366,153.902,4.054,-89.149
8770,-0.0732,0.4453,-0.9111,0.000,-0.122,0.366,153.902,4.054,-89.149
8780,-0.0718,0.4478,-0.9146,0.183,0.000,0.427,153.902,4.054,-89.154
8791,-0.0732,0.4497,-0.9170,0.305,0.000,0.366,153.902,4.054,-89.160
8800,-0.0728,0.4517,-0.9150,0.427,-0.122,0.305,153.907,4.054,-89.160
8810,-0.0728,0.4507,-0.9146,0.427,-0.244,0.244,153.907,4.054,-89.165
8820,-0.0732,0.4478,-0.9141,0.244,-0.366,0.122,153.913,4.054,-89.165
8830,-0.0757,0.4482,-0.9111,-0.122,-0.488,0.000,153.907,4.065,-89.171
8840,-0.0776,0.4458,-0.9126,-0.244,-0.549,0.000,153.907,4.070,-89.171
8850,-0.0781,0.4473,-0.9116,-0.122,-0.427,-0.061,153.907,4.076,-89.171
8860,-0.0771,0.4438,-0.9102,0.061,-0.366,0.000,153.907,4.081,-89.176
8870,-0.0742,0.4434,-0.9106,0.305,-0.427,0.061,153.913,4.087,-89.176
8880,-0.0757,0.4438,-0.9131,0.366,-0.549,0.183,153.918,4.092,-89.182
8890,-0.0737,0.4478,-0.9077,0.366,-0.549,0.305,153.918,4.098,-89.187
8900,-0.0723,0.4478,-0.9082,0.366,-0.305,0.366,153.918,4.098,-89.193
8910,-0.0728,0.4482,-0.9072,0.366,0.061,0.366,153.918,4.098,-89.193
8920,-0.0742,0.4458,-0.9087,0.488,0.366,0.305,153.924,4.092,-89.193
8930,-0.0757,0.4458,-0.9170,0.488,0.610,0.244,153.929,4.087,-89.193
8940,-0.0752,0.4463,-0.9189,0.305,0.610,0.305,153.935,4.081,-89.193
8950,-0.0771,0.4473,-0.9180,0.122,0.305,0.366,153.935,4.081,-89.198
8960,-0.0786,0.4487,-0.9150,0.000,-0.244,0.488,153.935,4.087,-89.203
8970,-0.0801,0.4507,-0.9146,-0.061,-0.671,0.610,153.935,4.092,-89.209
8980,-0.0791,0.4531,-0.9111,0.061,-0.671,0.671,153.929,4.098,-89.220
8990,-0.0791,0.4536,-0.9106,0.183,-0.610,0.610,153.924,4.103,-89.225
9000,-0.0771,0.4541,-0.9067,0.183,-0.549,0.427,153.924,4.109,-89.231
9010,-0.0767,0.4541,-0.9102,0.061,-0.366,0.183,153.918,4.114,-89.236
9020,-0.0786,0.4541,-0.9106,-0.061,-0.244,0.000,153.913,4.120,-89.236
9030,-0.0806,0.4526,-0.9077,-0.122,-0.122,-0.183,153.907,4.125,-89.236
9040,-0.0820,0.4507,-0.9092,-0.122,-0.061,-0.305,153.902,4.131,-89.236
9050,-0.0825,0.4478,-0.9092,-0.183,0.061,-0.427,153.902,4.142,-89.231
9060,-0.0806,0.4482,-0.9111,-0.305,0.061,-0.427,153.896,4.142,-89.225
9070,-0.0786,0.4478,-0.9106,-0.122,0.122,-0.305,153.896,4.147,-89.225
9080,-0.0747,0.4468,-0.9150,0.183,0.183,-0.366,153.896,4.147,-89.220
9090,-0.0752,0.4473,-0.9155,0.366,0.183,-0.427,153.902,4.147,-89.214
9100,-0.0747,0.4473,-0.9170,0.488,0.122,-0.549,153.907,4.153,-89.209
9110,-0.0737,0.4434,-0.9170,0.488,0.000,-0.488,153.918,4.153,-89.203
9120,-0.0747,0.4414,-0.9146,0.305,-0.122,-0.427,153.924,4.158,-89.203
9130,-0.0762,0.4414,-0.9155,-0.122,-0.366,-0.244,153.924,4.164,-89.198
9140,-0.0771,0.4404,-0.9126,-0.305,-0.488,-0.061,153.924,4.169,-89.203
9150,-0.0776,0.4429,-0.9126,-0.061,-0.427,0.183,153.929,4.175,-89.203
9160,-0.0791,0.4409,-0.9111,0.183,-0.122,0.305,153.929,4.175,-89.209
9170,-0.0767,0.4429,-0.9087,0.427,-0.061,0.366,153.935,4.175,-89.214
9180,-0.0786,0.4438,-0.9082,0.427,-0.183,0.366,153.940,4.180,-89.214
9190,-0.0791,0.4443,-0.9121,0.061,-0.366,0.366,153.940,4.186,-89.214
9200,-0.0796,0.4453,-0.9126,-0.488,-0.305,0.366,153.935,4.186,-89.214
9210,-0.0796,0.4487,-0.9121,-0.732,-0.122,0.366,153.929,4.191,-89.214
9220,-0.0786,0.4497,-0.9121,-0.671,0.061,0.244,153.918,4.191,-89.214
9230,-0.0786,0.4502,-0.9141,-0.305,0.061,0.122,153.913,4.191,-89.214
9240,-0.0811,0.4478,-0.9111,-0.061,0.000,0.061,153.913,4.197,-89.214
9250,-0.0791,0.4482,-0.9102,0.061,-0.122,0.061,153.913,4.197,-89.214
9260,-0.0767,0.4502,-0.9067,0.061,-0.122,0.000,153.907,4.202,-89.214
9270,-0.0771,0.4507,-0.9058,0.000,-0.061,0.000,153.907,4.202,-89.214
9280,-0.0767,0.4512,-0.9082,0.061,0.000,-0.061,153.902,4.202,-89.214
9291,-0.0776,0.4492,-0.9092,0.366,0.183,-0.061,153.907,4.208,-89.214
9300,-0.0747,0.4478,-0.9092,0.671,0.488,-0.061,153.913,4.202,-89.214
9310,-0.0757,0.4468,-0.9082,0.977,0.793,-0.061,153.918,4.197,-89.214
9320,-0.0771,0.4434,-0.9077,1.038,0.977,-0.183,153.929,4.191,-89.214
9330,-0.0742,0.4448,-0.9150,0.793,1.099,-0.183,153.940,4.180,-89.214
9340,-0.0747,0.4463,-0.9175,0.549,1.343,-0.183,153.946,4.169,-89.214
9350,-0.0762,0.4453,-0.9189,0.427,1.526,-0.183,153.957,4.158,-89.214
9360,-0.0728,0.4424,-0.9209,0.427,1.343,-0.122,153.962,4.142,-89.214
9370,-0.0723,0.4419,-0.9214,0.427,0.793,-0.061,153.973,4.136,-89.214
9380,-0.0757,0.4404,-0.9209,0.305,0.061,0.061,153.979,4.136,-89.214
9390,-0.0767,0.4409,-0.9180,0.122,-0.549,0.122,153.984,4.142,-89.214
9400,-0.0742,0.4419,-0.9185,0.000,-0.793,0.183,153.984,4.147,-89.214
9410,-0.0747,0.4443,-0.9146,0.000,-0.610,0.305,153.990,4.153,-89.214
9420,-0.0767,0.4429,-0.9146,0.000,-0.427,0.366,153.990,4.158,-89.214
9430,-0.0747,0.4443,-0.9102,0.000,-0.305,0.366,153.990,4.158,-89.214
9440,-0.0757,0.4438,-0.9116,-0.061,-0.488,0.366,153.990,4.164,-89.214
9450,-0.0742,0.4448,-0.9136,-0.061,-0.549,0.305,153.990,4.169,-89.214
9460,-0.0752,0.4473,-0.9111,0.000,-0.488,0.305,153.984,4.169,-89.214
9470,-0.0752,0.4458,-0.9131,0.061,-0.244,0.305,153.984,4.175,-89.214
9480,-0.0776,0.4438,-0.9141,0.000,-0.122,0.244,153.984,4.175,-89.214
9490,-0.0776,0.4429,-0.9126,-0.183,-0.183,0.244,153.984,4.175,-89.214
9500,-0.0776,0.4473,-0.9116,-0.244,-0.183,0.366,153.984,4.180,-89.214
9510,-0.0791,0.4473,-0.9092,-0.183,-0.122,0.427,153.979,4.180,-89.214
9520,-0.0796,0.4473,-0.9102,0.061,0.061,0.366,153.979,4.180,-89.214
9530,-0.0781,0.4468,-0.9136,0.244,0.061,0.244,153.979,4.180,-89.214
9540,-0.0796,0.4478,-0.9160,0.244,-0.061,0.244,153.979,4.186,-89.214
9550,-0.0806,0.4478,-0.9126,0.061,-0.183,0.305,153.979,4.186,-89.214
9560,-0.0786,0.4487,-0.9121,-0.122,-0.366,0.366,153.979,4.191,-89.214
9570,-0.0771,0.4487,-0.9111,-0.244,-0.366,0.366,153.973,4.197,-89.214
9580,-0.0767,0.4487,-0.9106,-0.244,-0.366,0.305,153.968,4.197,-89.214
9590,-0.0786,0.4507,-0.9102,-0.183,-0.366,0.305,153.962,4.202,-89.214
9600,-0.0791,0.4517,-0.9102,-0.183,-0.305,0.244,153.957,4.208,-89.214
9610,-0.0806,0.4507,-0.9102,-0.305,-0.305,0.061,153.951,4.213,-89.214
9620,-0.0791,0.4497,-0.9111,-0.366,-0.305,-0.061,153.946,4.219,-89.214
9630,-0.0806,0.4521,-0.9097,-0.488,-0.183,-0.183,153.935,4.224,-89.214
9640,-0.0806,0.4502,-0.9146,-0.488,0.061,-0.244,153.929,4.224,-89.214
9650,-0.0806,0.4473,-0.9097,-0.183,0.305,-0.305,153.924,4.230,-89.214
9660,-0.0781,0.4468,-0.9111,0.122,0.366,-0.244,153.929,4.230,-89.214
9670,-0.0762,0.4478,-0.9136,0.366,0.488,-0.183,153.929,4.224,-89.214
9680,-0.0767,0.4497,-0.9121,0.488,0.488,-0.122,153.935,4.224,-89.214
9690,-0.0771,0.4468,-0.9136,0.488,0.427,-0.122,153.940,4.219,-89.214
9700,-0.0801,0.4443,-0.9150,0.244,0.366,-0.244,153.946,4.219,-89.214
9710,-0.0791,0.4448,-0.9155,-0.122,0.305,-0.244,153.946,4.219,-89.214
9720,-0.0767,0.4453,-0.9150,-0.366,0.244,-0.244,153.940,4.219,-89.214
9730,-0.0752,0.4453,-0.9160,-0.305,0.305,-0.244,153.940,4.219,-89.214
9740,-0.0742,0.4468,-0.9160,-0.183,0.305,-0.244,153.940,4.219,-89.214
9750,-0.0737,0.4468,-0.9185,0.122,0.244,-0.244,153.940,4.213,-89.214
9760,-0.0757,0.4443,-0.9165,0.366,0.000,-0.244,153.946,4.219,-89.214
9770,-0.0747,0.4434,-0.9165,0.305,-0.244,-0.305,153.951,4.219,-89.214
9780,-0.0752,0.4409,-0.9185,-0.122,-0.488,-0.244,153.957,4.224,-89.214
9791,-0.0762,0.4419,-0.9180,-0.488,-0.671,-0.122,153.957,4.230,-89.214
9800,-0.0771,0.4409,-0.9136,-0.610,-0.793,-0.061,153.951,4.241,-89.214
9810,-0.0786,0.4414,-0.9097,-0.549,-0.732,0.122,153.946,4.246,-89.214
9820,-0.0791,0.4414,-0.9087,-0.305,-0.610,0.244,153.946,4.257,-89.214
9830,-0.0771,0.4429,-0.9067,-0.061,-0.549,0.427,153.946,4.257,-89.214
9840,-0.0781,0.4443,-0.9072,0.061,-0.427,0.488,153.946,4.263,-89.214
9850,-0.0796,0.4429,-0.9087,0.183,-0.305,0.488,153.946,4.268,-89.214
9860,-0.0801,0.4468,-0.9053,0.061,-0.061,0.427,153.946,4.268,-89.214
9870,-0.0811,0.4497,-0.9063,0.000,0.244,0.366,153.940,4.268,-89.214
9880,-0.0791,0.4478,-0.9111,0.061,0.610,0.305,153.940,4.263,-89.214
9890,-0.0806,0.4487,-0.9131,0.183,0.732,0.244,153.940,4.257,-89.214
9900,-0.0801,0.4502,-0.9126,0.183,0.671,0.244,153.940,4.252,-89.214
9915,-0.0791,0.4512,-0.9131,0.183,0.427,0.183,153.940,4.252,-89.214
9920,-0.0776,0.4478,-0.9131,0.183,0.183,0.122,153.940,4.246,-89.214
9930,-0.0776,0.4517,-0.9141,0.122,0.122,0.061,153.940,4.246,-89.214
9940,-0.0762,0.4517,-0.9126,0.000,0.183,-0.061,153.935,4.246,-89.214
9950,-0.0752,0.4531,-0.9136,0.061,0.244,-0.122,153.935,4.246,-89.214
9960,-0.0742,0.4502,-0.9131,0.061,0.244,-0.244,153.935,4.241,-89.214
9970,-0.0757,0.4502,-0.9136,-0.061,0.183,-0.305,153.929,4.241,-89.214
9980,-0.0786,0.4507,-0.9150,-0.061,0.122,-0.427,153.929,4.246,-89.214
9990,-0.0786,0.4492,-0.9146,-0.183,0.244,-0.488,153.929,4.246,-89.214
10000,-0.0781,0.4463,-0.9150,-0.244,0.366,-0.549,153.924,4.246,-89.214
10010,-0.0781,0.4473,-0.9155,-0.122,0.366,-0.549,153.924,4.246,-89.214
10020,-0.0767,0.4429,-0.9150,0.122,0.305,-0.610,153.929,4.246,-89.214
10030,-0.0776,0.4414,-0.9160,0.122,0.122,-0.549,153.935,4.252,-89.214
10040,-0.0791,0.4370,-0.9165,0.061,0.000,-0.488,153.940,4.257,-89.214
10050,-0.0786,0.4365,-0.9131,-0.183,-0.122,-0.305,153.946,4.257,-89.214
10060,-0.0771,0.4375,-0.9106,-0.366,0.000,-0.183,153.946,4.263,-89.214
10070,-0.0771,0.4399,-0.9136,-0.183,0.183,0.061,153.946,4.263,-89.214
10080,-0.0747,0.4390,-0.9160,0.183,0.366,0.244,153.951,4.257,-89.214
10090,-0.0742,0.4414,-0.9160,0.427,0.305,0.427,153.962,4.252,-89.214
10100,-0.0742,0.4395,-0.9180,0.549,0.366,0.549,153.968,4.241,-89.214
10110,-0.0767,0.4409,-0.9189,0.427,0.244,0.610,153.979,4.241,-89.214
10120,-0.0767,0.4419,-0.9194,0.122,0.183,0.671,153.984,4.235,-89.214
10130,-0.0771,0.4448,-0.9185,-0.244,0.061,0.732,153.979,4.230,-89.214
10140,-0.0791,0.4453,-0.9165,-0.488,-0.305,0.732,153.979,4.235,-89.214
10150,-0.0796,0.4478,-0.9180,-0.549,-0.610,0.793,153.973,4.241,-89.214
10160,-0.0815,0.4507,-0.9141,-0.549,-1.038,0.732,153.962,4.246,-89.214
10170,-0.0825,0.4521,-0.9097,-0.427,-1.282,0.732,153.951,4.257,-89.214
10180,-0.0845,0.4512,-0.9077,-0.366,-1.221,0.549,153.946,4.274,-89.214
10190,-0.0840,0.4521,-0.9053,-0.549,-1.038,0.427,153.935,4.285,-89.214
10200,-0.0830,0.4517,-0.9058,-0.732,-0.610,0.305,153.924,4.296,-89.214
10210,-0.0830,0.4507,-0.9019,-0.732,-0.305,0.183,153.907,4.301,-89.214
10220,-0.0815,0.4521,-0.9043,-0.549,-0.122,0.061,153.902,4.301,-89.214
10230,-0.0811,0.4512,-0.9058,-0.183,0.061,0.061,153.896,4.307,-89.214
10240,-0.0820,0.4492,-0.9063,0.061,0.305,0.000,153.891,4.307,-89.214
10250,-0.0801,0.4492,-0.9072,0.183,0.549,0.000,153.891,4.301,-89.214
10260,-0.0806,0.4468,-0.9072,0.244,0.732,-0.061,153.891,4.301,-89.214
10270,-0.0815,0.4458,-0.9092,0.244,0.793,-0.122,153.896,4.296,-89.214
10280,-0.0806,0.4453,-0.9111,-0.061,0.916,-0.122,153.896,4.290,-89.214
10291,-0.0796,0.4443,-0.9136,-0.061,0.916,-0.122,153.896,4.285,-89.214
10300,-0.0771,0.4429,-0.9189,-0.122,0.793,-0.122,153.902,4.279,-89.214
10310,-0.0781,0.4478,-0.9175,-0.305,0.732,0.000,153.896,4.274,-89.214
10320,-0.0791,0.4434,-0.9175,-0.183,0.488,0.061,153.902,4.268,-89.214
10330,-0.0762,0.4458,-0.9175,-0.061,0.244,0.122,153.902,4.268,-89.214
10340,-0.0767,0.4458,-0.9155,-0.244,-0.122,0.183,153.902,4.268,-89.214
10350,-0.0801,0.4453,-0.9126,-0.488,-0.366,0.183,153.896,4.274,-89.214
10360,-0.0820,0.4448,-0.9116,-0.671,-0.427,0.183,153.891,4.279,-89.214
10370,-0.0801,0.4482,-0.9087,-0.916,-0.244,0.183,153.880,4.285,-89.214
10380,-0.0796,0.4492,-0.9092,-0.854,-0.122,0.183,153.869,4.285,-89.214
10390,-0.0791,0.4507,-0.9102,-0.488,0.000,0.183,153.864,4.285,-89.214
10400,-0.0767,0.4517,-0.9087,0.000,0.183,0.122,153.858,4.285,-89.214
10410,-0.0752,0.4536,-0.9126,0.305,0.305,0.000,153.858,4.279,-89.214
10420,-0.0771,0.4517,-0.9111,0.427,0.549,-0.122,153.864,4.279,-89.214
10430,-0.0767,0.4482,-0.9136,0.183,0.671,-0.183,153.864,4.274,-89.214
10440,-0.0767,0.4434,-0.9136,-0.244,0.671,-0.183,153.864,4.268,-89.214
10450,-0.0781,0.4424,-0.9106,-0.610,0.610,-0.122,153.858,4.263,-89.214
10460,-0.0781,0.4404,-0.9106,-0.488,0.366,0.122,153.858,4.263,-89.214
10470,-0.0801,0.4395,-0.9116,-0.122,0.122,0.305,153.864,4.263,-89.214
10480,-0.0815,0.4390,-0.9106,0.366,0.122,0.549,153.869,4.263,-89.214
10490,-0.0791,0.4385,-0.9087,0.549,0.183,0.854,153.875,4.257,-89.214
10500,-0.0781,0.4434,-0.9082,0.488,0.183,0.977,153.880,4.257,-89.214
10510,-0.0762,0.4463,-0.9116,0.183,0.244,1.038,153.885,4.246,-89.220
10520,-0.0786,0.4502,-0.9136,-0.122,0.366,1.038,153.880,4.241,-89.225
10530,-0.0767,0.4526,-0.9136,-0.183,0.427,0.977,153.875,4.235,-89.236
10540,-0.0781,0.4565,-0.9136,0.000,0.549,0.793,153.869,4.230,-89.242
10550,-0.0786,0.4570,-0.9092,0.122,0.549,0.610,153.869,4.224,-89.242
10560,-0.0825,0.4565,-0.9111,0.244,0.488,0.427,153.864,4.219,-89.242
10570,-0.0835,0.4565,-0.9092,0.122,0.427,0.244,153.858,4.219,-89.247
10580,-0.0830,0.4585,-0.9087,-0.061,0.427,0.183,153.853,4.219,-89.242
10590,-0.0820,0.4595,-0.9102,-0.183,0.488,0.122,153.847,4.219,-89.242
10600,-0.0791,0.4614,-0.9116,-0.061,0.671,-0.061,153.836,4.213,-89.242
10610,-0.0767,0.4595,-0.9106,0.061,0.793,-0.244,153.831,4.208,-89.236
10620,-0.0752,0.4565,-0.9116,0.122,0.854,-0.427,153.831,4.202,-89.225
10630,-0.0767,0.4536,-0.9116,0.061,0.854,-0.671,153.831,4.202,-89.214
10640,-0.0781,0.4536,-0.9121,-0.183,0.671,-0.854,153.825,4.202,-89.209
10650,-0.0781,0.4502,-0.9131,-0.366,0.671,-0.977,153.820,4.202,-89.193
10660,-0.0762,0.4478,-0.9160,-0.427,0.854,-1.038,153.820,4.197,-89.182
10670,-0.0752,0.4448,-0.9160,-0.244,0.977,-0.916,153.820,4.191,-89.171
10680,-0.0752,0.4399,-0.9165,0.061,0.977,-0.854,153.825,4.191,-89.160
10690,-0.0747,0.4321,-0.9160,0.061,0.671,-0.610,153.836,4.186,-89.149
10700,-0.0747,0.4346,-0.9141,0.000,0.244,-0.244,153.847,4.186,-89.143
10710,-0.0742,0.4346,-0.9131,-0.061,-0.061,0.061,153.853,4.186,-89.149
10720,-0.0762,0.4385,-0.9126,0.000,-0.061,0.244,153.858,4.186,-89.149
10730,-0.0747,0.4414,-0.9121,0.000,0.183,0.366,153.858,4.186,-89.149
10740,-0.0747,0.4414,-0.9116,0.061,0.488,0.549,153.864,4.175,-89.154
10750,-0.0757,0.4434,-0.9121,0.061,0.610,0.671,153.864,4.169,-89.160
10760,-0.0762,0.4463,-0.9111,0.061,0.610,0.732,153.864,4.164,-89.160
10770,-0.0781,0.4458,-0.9131,0.122,0.488,0.793,153.869,4.158,-89.165
10780,-0.0786,0.4473,-0.9150,0.366,0.610,0.793,153.875,4.153,-89.171
10791,-0.0776,0.4478,-0.9160,0.427,0.732,0.793,153.875,4.142,-89.176
10800,-0.0747,0.4487,-0.9180,0.305,0.549,0.793,153.880,4.136,-89.182
10810,-0.0771,0.4487,-0.9185,0.061,0.122,0.793,153.880,4.131,-89.187
10820,-0.0767,0.4507,-0.9185,-0.305,-0.549,0.732,153.875,4.136,-89.193
10830,-0.0781,0.4517,-0.9160,-0.366,-0.793,0.732,153.869,4.142,-89.203
10840,-0.0786,0.4546,-0.9136,-0.305,-0.610,0.732,153.864,4.147,-89.214
10850,-0.0776,0.4546,-0.9097,-0.122,-0.305,0.671,153.858,4.147,-89.220
10860,-0.0781,0.4561,-0.9082,0.122,-0.122,0.610,153.853,4.147,-89.225
10870,-0.0776,0.4556,-0.9092,0.183,-0.122,0.427,153.853,4.147,-89.231
10880,-0.0771,0.4531,-0.9082,0.183,-0.061,0.183,153.847,4.153,-89.231
10890,-0.0771,0.4512,-0.9077,0.122,0.122,0.122,153.847,4.153,-89.236
10900,-0.0776,0.4502,-0.9087,0.000,0.305,0.000,153.847,4.153,-89.231
10910,-0.0791,0.4492,-0.9053,-0.122,0.305,0.000,153.842,4.153,-89.231
10920,-0.0776,0.4482,-0.9053,-0.183,0.244,0.000,153.836,4.153,-89.231
10930,-0.0776,0.4478,-0.9077,0.000,0.305,0.061,153.836,4.153,-89.231
10940,-0.0767,0.4478,-0.9077,0.305,0.610,0.122,153.842,4.147,-89.225
10950,-0.0737,0.4478,-0.9097,0.610,0.854,0.122,153.847,4.142,-89.225
10960,-0.0742,0.4473,-0.9136,0.793,1.038,0.061,153.853,4.131,-89.220
10970,-0.0742,0.4478,-0.9175,0.610,1.038,0.061,153.864,4.120,-89.220
10980,-0.0737,0.4463,-0.9189,0.366,0.793,0.061,153.869,4.114,-89.214
10990,-0.0747,0.4463,-0.9180,0.000,0.427,0.000,153.869,4.109,-89.214
11000,-0.0752,0.4453,-0.9189,-0.183,0.122,0.000,153.869,4.109,-89.214
11010,-0.0728,0.4463,-0.9155,-0.305,-0.061,0.122,153.869,4.109,-89.214
11020,-0.0737,0.4473,-0.9131,-0.122,-0.183,0.366,153.869,4.109,-89.220
11030,-0.0737,0.4463,-0.9111,0.305,-0.061,0.366,153.869,4.109,-89.220
11040,-0.0747,0.4443,-0.9141,0.671,0.061,0.305,153.880,4.109,-89.225
11050,-0.0737,0.4463,-0.9175,0.793,0.244,0.305,153.891,4.103,-89.225
11060,-0.0752,0.4478,-0.9170,0.732,0.366,0.305,153.896,4.103,-89.225
11070,-0.0742,0.4434,-0.9155,0.427,0.244,0.305,153.902,4.098,-89.225
11080,-0.0767,0.4463,-0.9131,0.122,0.000,0.244,153.907,4.103,-89.231
11090,-0.0781,0.4487,-0.9136,-0.061,-0.122,0.305,153.902,4.103,-89.231
11100,-0.0776,0.4458,-0.9106,0.000,-0.122,0.305,153.902,4.103,-89.236
11110,-0.0776,0.4458,-0.9092,0.122,-0.122,0.366,153.902,4.109,-89.242
11120,-0.0801,0.4458,-0.9072,0.244,-0.244,0.427,153.907,4.114,-89.247
11130,-0.0776,0.4458,-0.9106,0.305,-0.183,0.427,153.907,4.114,-89.247
11140,-0.0757,0.4482,-0.9136,0.366,-0.122,0.427,153.913,4.114,-89.253
11150,-0.0757,0.4458,-0.9136,0.244,-0.061,0.488,153.913,4.114,-89.258
11160,-0.0762,0.4482,-0.9121,0.244,0.000,0.366,153.913,4.114,-89.264
11170,-0.0767,0.4492,-0.9146,0.122,-0.122,0.305,153.913,4.120,-89.264
11180,-0.0762,0.4482,-0.9121,0.061,-0.366,0.244,153.913,4.120,-89.269
11190,-0.0776,0.4502,-0.9082,0.000,-0.366,0.244,153.913,4.125,-89.275
11200,-0.0757,0.4502,-0.9067,0.061,-0.183,0.305,153.907,4.125,-89.275
11210,-0.0771,0.4482,-0.9077,0.244,0.000,0.244,153.907,4.131,-89.280
11220,-0.0791,0.4502,-0.9063,0.488,0.305,0.244,153.913,4.131,-89.280
11230,-0.0752,0.4502,-0.9053,0.610,0.671,0.305,153.913,4.120,-89.280
11240,-0.0767,0.4502,-0.9087,0.793,0.916,0.244,153.918,4.114,-89.280
11250,-0.0752,0.4517,-0.9102,0.793,0.977,0.183,153.924,4.109,-89.275
11260,-0.0767,0.4512,-0.9106,0.610,0.916,0.000,153.929,4.103,-89.269
11270,-0.0771,0.4536,-0.9141,0.366,0.793,-0.183,153.929,4.098,-89.264
11280,-0.0752,0.4526,-0.9150,0.244,0.916,-0.305,153.929,4.092,-89.258
11291,-0.0728,0.4512,-0.9199,0.305,1.038,-0.427,153.929,4.081,-89.253
11300,-0.0703,0.4482,-0.9204,0.427,0.916,-0.610,153.935,4.076,-89.242
11310,-0.0713,0.4434,-0.9224,0.488,0.732,-0.732,153.946,4.070,-89.231
11320,-0.0718,0.4399,-0.9233,0.183,0.366,-0.671,153.957,4.070,-89.225
11330,-0.0723,0.4380,-0.9219,-0.244,-0.122,-0.610,153.957,4.076,-89.220
11340,-0.0708,0.4375,-0.9194,-0.549,-0.610,-0.427,153.957,4.081,-89.220
11350,-0.0713,0.4395,-0.9175,-0.610,-0.854,-0.183,153.957,4.087,-89.220
11360,-0.0732,0.4399,-0.9160,-0.305,-0.793,0.061,153.957,4.098,-89.225
11370,-0.0728,0.4390,-0.9160,0.061,-0.610,0.183,153.962,4.098,-89.231
11380,-0.0742,0.4375,-0.9136,0.122,-0.549,0.305,153.968,4.103,-89.231
11390,-0.0732,0.4404,-0.9150,0.061,-0.671,0.366,153.973,4.109,-89.242
11400,-0.0752,0.4429,-0.9160,0.000,-0.732,0.366,153.973,4.114,-89.247
11410,-0.0781,0.4448,-0.9165,-0.183,-0.671,0.366,153.973,4.120,-89.253
11420,-0.0801,0.4463,-0.9150,-0.244,-0.610,0.427,153.968,4.131,-89.258
11430,-0.0801,0.4473,-0.9146,-0.244,-0.671,0.488,153.968,4.136,-89.264
11440,-0.0801,0.4487,-0.9131,-0.244,-0.916,0.488,153.962,4.147,-89.275
11450,-0.0786,0.4482,-0.9126,-0.122,-0.977,0.549,153.957,4.158,-89.286
11460,-0.0791,0.4502,-0.9097,-0.061,-0.977,0.549,153.957,4.164,-89.291
11470,-0.0806,0.4492,-0.9077,0.000,-0.916,0.549,153.951,4.175,-89.302
11480,-0.0781,0.4512,-0.9048,-0.061,-0.793,0.427,153.946,4.180,-89.308
11490,-0.0796,0.4546,-0.9033,-0.061,-0.549,0.366,153.940,4.191,-89.313
11500,-0.0796,0.4531,-0.9067,0.122,-0.244,0.183,153.935,4.191,-89.319
11510,-0.0830,0.4531,-0.9106,0.305,0.183,-0.061,153.935,4.197,-89.319
11520,-0.0801,0.4502,-0.9116,0.305,0.610,-0.244,153.935,4.197,-89.313
11530,-0.0820,0.4492,-0.9141,0.061,0.671,-0.244,153.935,4.197,-89.308
11540,-0.0811,0.4492,-0.9155,-0.122,0.427,-0.183,153.935,4.197,-89.302
11550,-0.0801,0.4482,-0.9146,-0.122,0.061,-0.122,153.929,4.197,-89.302
11560,-0.0791,0.4478,-0.9136,0.000,-0.122,-0.122,153.929,4.202,-89.302
11570,-0.0796,0.4443,-0.9131,0.122,-0.183,-0.061,153.935,4.208,-89.302
11580,-0.0771,0.4448,-0.9131,0.122,-0.122,-0.061,153.935,4.208,-89.302
11590,-0.0762,0.4458,-0.9092,-0.061,-0.061,0.000,153.935,4.213,-89.302
11600,-0.0757,0.4443,-0.9116,-0.244,0.000,0.000,153.935,4.213,-89.302
11610,-0.0757,0.4468,-0.9136,-0.244,0.122,-0.061,153.929,4.213,-89.302
11620,-0.0771,0.4492,-0.9165,-0.122,0.183,0.000,153.929,4.208,-89.302
11630,-0.0776,0.4458,-0.9160,0.061,0.183,0.061,153.929,4.208,-89.297
11640,-0.0801,0.4453,-0.9160,0.122,0.000,0.000,153.935,4.213,-89.297
11650,-0.0815,0.4468,-0.9155,-0.244,-0.244,0.061,153.929,4.219,-89.302
11660,-0.0801,0.4497,-0.9141,-0.427,-0.549,0.122,153.924,4.224,-89.302
11670,-0.0796,0.4487,-0.9092,-0.305,-0.671,0.183,153.918,4.235,-89.302
11680,-0.0781,0.4497,-0.9102,-0.122,-0.671,0.061,153.918,4.241,-89.302
11690,-0.0762,0.4512,-0.9121,0.000,-0.488,0.000,153.913,4.246,-89.302
11700,-0.0776,0.4497,-0.9116,0.122,-0.305,-0.061,153.913,4.252,-89.302
11710,-0.0767,0.4468,-0.9116,0.061,-0.305,-0.122,153.913,4.252,-89.302
11720,-0.0781,0.4453,-0.9097,-0.183,-0.427,-0.122,153.913,4.257,-89.302
11730,-0.0786,0.4468,-0.9053,-0.244,-0.427,-0.061,153.907,4.263,-89.302
11740,-0.0820,0.4463,-0.9082,-0.061,-0.183,0.000,153.907,4.268,-89.302
11750,-0.0815,0.4453,-0.9092,0.305,0.183,0.122,153.907,4.274,-89.302
11760,-0.0815,0.4414,-0.9082,0.488,0.488,0.244,153.913,4.268,-89.302
11770,-0.0801,0.4409,-0.9121,0.549,0.488,0.305,153.924,4.268,-89.302
11780,-0.0791,0.4414,-0.9116,0.488,0.427,0.427,153.929,4.263,-89.302
11791,-0.0776,0.4443,-0.9131,0.366,0.305,0.549,153.935,4.257,-89.302
11800,-0.0771,0.4473,-0.9141,0.366,0.183,0.549,153.940,4.257,-89.302
11810,-0.0796,0.4473,-0.9155,0.305,0.183,0.549,153.940,4.252,-89.302
11820,-0.0776,0.4502,-0.9121,0.061,0.122,0.488,153.940,4.252,-89.302
11830,-0.0771,0.4487,-0.9126,-0.122,0.061,0.488,153.935,4.252,-89.302
11840,-0.0786,0.4492,-0.9102,-0.244,0.000,0.427,153.929,4.252,-89.302
11850,-0.0796,0.4526,-0.9111,-0.183,0.000,0.366,153.924,4.252,-89.302
11860,-0.0786,0.4546,-0.9121,0.122,0.000,0.244,153.924,4.252,-89.302
11870,-0.0806,0.4517,-0.9121,0.366,-0.061,0.122,153.924,4.252,-89.302
11880,-0.0820,0.4521,-0.9106,0.366,0.061,-0.061,153.924,4.257,-89.302
11890,-0.0820,0.4517,-0.9087,0.244,0.244,-0.183,153.924,4.257,-89.302
11900,-0.0806,0.4536,-0.9063,0.122,0.366,-0.305,153.918,4.263,-89.302
11910,-0.0850,0.4487,-0.9082,0.244,0.488,-0.549,153.918,4.263,-89.302
11920,-0.0776,0.4482,-0.9116,0.488,0.732,-0.732,153.924,4.263,-89.302
11930,-0.0752,0.4482,-0.9170,0.366,0.854,-0.671,153.929,4.257,-89.302
11940,-0.0742,0.4463,-0.9170,0.244,0.732,-0.549,153.935,4.252,-89.302
11950,-0.0737,0.4438,-0.9199,0.366,0.427,-0.610,153.940,4.246,-89.302
11960,-0.0747,0.4419,-0.9189,0.244,0.183,-0.610,153.946,4.246,-89.302
11970,-0.0771,0.4404,-0.9165,0.061,0.183,-0.549,153.951,4.252,-89.302
11980,-0.0771,0.4375,-0.9131,0.122,0.122,-0.366,153.957,4.252,-89.302
11990,-0.0757,0.4365,-0.9136,0.122,0.061,-0.244,153.962,4.252,-89.302
12000,-0.0752,0.4385,-0.9170,0.061,-0.061,-0.122,153.968,4.252,-89.302
12010,-0.0747,0.4404,-0.9170,0.000,-0.183,0.061,153.973,4.257,-89.302
12020,-0.0752,0.4404,-0.9189,0.122,-0.244,0.305,153.979,4.257,-89.302
12030,-0.0752,0.4399,-0.9150,0.183,-0.305,0.366,153.984,4.257,-89.302
12040,-0.0771,0.4438,-0.9141,0.122,-0.488,0.427,153.984,4.257,-89.302
12050,-0.0781,0.4458,-0.9155,0.061,-0.549,0.427,153.984,4.263,-89.302
12060,-0.0786,0.4478,-0.9146,-0.122,-0.549,0.427,153.984,4.268,-89.302
12070,-0.0776,0.4478,-0.9126,-0.305,-0.549,0.366,153.979,4.274,-89.302
12080,-0.0791,0.4478,-0.9106,-0.427,-0.732,0.366,153.973,4.279,-89.302
12090,-0.0801,0.4492,-0.9131,-0.366,-0.793,0.427,153.968,4.285,-89.302
12100,-0.0815,0.4482,-0.9106,-0.183,-0.916,0.427,153.962,4.296,-89.302
12110,-0.0801,0.4473,-0.9072,0.000,-0.916,0.366,153.962,4.307,-89.302
12120,-0.0791,0.4463,-0.9102,0.061,-0.793,0.305,153.957,4.312,-89.302
12130,-0.0830,0.4487,-0.9106,-0.061,-0.610,0.244,153.957,4.318,-89.302
12140,-0.0835,0.4512,-0.9067,-0.244,-0.305,0.183,153.951,4.323,-89.302
12150,-0.0825,0.4512,-0.9067,-0.366,-0.183,0.000,153.940,4.329,-89.302
12160,-0.0815,0.4492,-0.9063,-0.305,-0.122,-0.122,153.935,4.334,-89.302
12170,-0.0811,0.4482,-0.9053,-0.122,0.000,-0.061,153.929,4.340,-89.302
12180,-0.0806,0.4468,-0.9092,0.183,0.122,-0.122,153.935,4.340,-89.302
12190,-0.0791,0.4443,-0.9097,0.305,0.305,-0.183,153.935,4.340,-89.302
12200,-0.0801,0.4438,-0.9087,0.305,0.427,-0.183,153.940,4.340,-89.302
12210,-0.0835,0.4448,-0.9111,0.122,0.427,-0.061,153.940,4.340,-89.302
12220,-0.0825,0.4497,-0.9121,0.000,0.305,0.061,153.940,4.340,-89.302
12230,-0.0796,0.4478,-0.9106,0.000,0.366,0.061,153.940,4.334,-89.302
12240,-0.0771,0.4458,-0.9111,0.183,0.488,0.000,153.940,4.334,-89.302
12250,-0.0776,0.4463,-0.9165,0.244,0.549,0.000,153.946,4.329,-89.302
12260,-0.0786,0.4468,-0.9170,0.305,0.488,-0.061,153.946,4.323,-89.302
12270,-0.0791,0.4458,-0.9170,0.061,0.305,-0.061,153.951,4.323,-89.302
12280,-0.0840,0.4458,-0.9126,-0.183,-0.061,-0.061,153.946,4.329,-89.302
12291,-0.0825,0.4458,-0.9155,-0.305,-0.305,-0.061,153.946,4.334,-89.302
12300,-0.0806,0.4473,-0.9155,-0.427,-0.427,-0.061,153.940,4.340,-89.302
12310,-0.0791,0.4463,-0.9146,-0.427,-0.366,0.061,153.940,4.345,-89.302
12320,-0.0786,0.4468,-0.9111,-0.183,-0.244,0.061,153.935,4.345,-89.302
12330,-0.0786,0.4463,-0.9092,0.000,-0.183,0.061,153.935,4.351,-89.302
12340,-0.0786,0.4473,-0.9131,0.244,-0.122,0.000,153.935,4.351,-89.302
12350,-0.0767,0.4453,-0.9097,0.366,0.061,0.000,153.940,4.351,-89.302
12360,-0.0786,0.4434,-0.9136,0.305,0.000,0.000,153.946,4.351,-89.302
12370,-0.0796,0.4429,-0.9146,0.000,-0.122,-0.061,153.946,4.351,-89.302
12380,-0.0811,0.4429,-0.9150,-0.366,-0.366,0.000,153.946,4.356,-89.302
12390,-0.0825,0.4429,-0.9121,-0.610,-0.549,0.183,153.940,4.367,-89.302
12400,-0.0815,0.4443,-0.9082,-0.366,-0.549,0.305,153.935,4.373,-89.302
12410,-0.0825,0.4443,-0.9092,-0.122,-0.427,0.427,153.935,4.378,-89.302
12420,-0.0811,0.4458,-0.9072,0.183,-0.305,0.488,153.935,4.378,-89.302
12430,-0.0801,0.4458,-0.9072,0.305,-0.244,0.488,153.935,4.378,-89.302
12440,-0.0830,0.4448,-0.9063,0.183,-0.244,0.488,153.935,4.384,-89.302
12450,-0.0815,0.4473,-0.9072,0.000,-0.061,0.427,153.935,4.384,-89.302
12460,-0.0815,0.4473,-0.9077,-0.061,0.183,0.366,153.935,4.384,-89.302
12470,-0.0796,0.4468,-0.9082,0.000,0.427,0.244,153.929,4.378,-89.302
12480,-0.0811,0.4478,-0.9102,0.183,0.488,0.305,153.929,4.378,-89.302
12490,-0.0825,0.4487,-0.9097,0.366,0.610,0.244,153.935,4.373,-89.302
12500,-0.0811,0.4502,-0.9106,0.427,0.732,0.244,153.935,4.367,-89.302
12510,-0.0801,0.4502,-0.9126,0.427,0.793,0.183,153.940,4.362,-89.302
12520,-0.0796,0.4497,-0.9141,0.305,0.732,0.183,153.940,4.351,-89.302
12530,-0.0791,0.4492,-0.9150,0.061,0.488,0.061,153.940,4.351,-89.302
12540,-0.0796,0.4507,-0.9146,-0.122,0.305,0.000,153.935,4.345,-89.302
12550,-0.0786,0.4502,-0.9160,-0.183,0.183,-0.061,153.935,4.345,-89.302
12560,-0.0786,0.4492,-0.9136,-0.122,0.183,-0.122,153.929,4.345,-89.302
12570,-0.0815,0.4473,-0.9150,-0.061,0.305,-0.244,153.929,4.345,-89.302
12580,-0.0815,0.4463,-0.9136,-0.061,0.366,-0.244,153.929,4.345,-89.302
12590,-0.0811,0.4473,-0.9165,-0.061,0.366,-0.244,153.929,4.345,-89.302
12600,-0.0796,0.4443,-0.9141,0.000,0.366,-0.244,153.935,4.345,-89.302
12610,-0.0776,0.4424,-0.9131,0.000,0.366,-0.244,153.935,4.345,-89.302
12620,-0.0781,0.4404,-0.9146,0.000,0.183,-0.244,153.940,4.345,-89.302
12630,-0.0786,0.4380,-0.9102,-0.122,0.122,-0.122,153.940,4.345,-89.302
12640,-0.0796,0.4404,-0.9116,-0.305,0.061,0.000,153.940,4.345,-89.302
12650,-0.0791,0.4419,-0.9116,-0.366,0.061,0.183,153.940,4.345,-89.302
12660,-0.0791,0.4458,-0.9116,-0.244,0.122,0.244,153.935,4.345,-89.302
12670,-0.0781,0.4468,-0.9131,-0.122,0.305,0.244,153.935,4.340,-89.302
12680,-0.0791,0.4468,-0.9141,0.000,0.366,0.244,153.935,4.340,-89.302
12690,-0.0781,0.4458,-0.9165,0.000,0.305,0.305,153.935,4.334,-89.302
12700,-0.0791,0.4458,-0.9141,-0.061,0.122,0.244,153.935,4.334,-89.302
12710,-0.0776,0.4473,-0.9136,-0.244,0.000,0.183,153.935,4.334,-89.302
12720,-0.0791,0.4468,-0.9150,-0.305,-0.122,0.183,153.929,4.334,-89.302
12730,-0.0806,0.4448,-0.9131,-0.366,-0.244,0.183,153.929,4.340,-89.302
12740,-0.0830,0.4463,-0.9102,-0.427,-0.366,0.183,153.924,4.345,-89.302
12750,-0.0825,0.4478,-0.9106,-0.427,-0.427,0.244,153.918,4.351,-89.302
12760,-0.0815,0.4468,-0.9092,-0.305,-0.366,0.244,153.913,4.356,-89.302
12770,-0.0806,0.4468,-0.9058,-0.183,-0.244,0.305,153.907,4.356,-89.302
12780,-0.0806,0.4487,-0.9043,-0.183,-0.061,0.244,153.907,4.356,-89.302
12791,-0.0806,0.4482,-0.9058,-0.183,0.244,0.305,153.902,4.356,-89.302
12800,-0.0825,0.4473,-0.9058,-0.061,0.610,0.244,153.896,4.356,-89.302
12810,-0.0815,0.4453,-0.9067,0.122,0.977,0.244,153.896,4.345,-89.302
12820,-0.0811,0.4473,-0.9082,0.244,1.160,0.183,153.902,4.340,-89.302
12830,-0.0815,0.4478,-0.9150,0.244,1.160,0.244,153.902,4.329,-89.302
12840,-0.0786,0.4492,-0.9155,0.183,1.038,0.244,153.902,4.318,-89.302
12850,-0.0786,0.4507,-0.9189,0.061,0.854,0.183,153.907,4.312,-89.302
12860,-0.0820,0.4492,-0.9170,-0.122,0.671,0.122,153.902,4.307,-89.302
12870,-0.0796,0.4502,-0.9165,-0.183,0.427,-0.061,153.902,4.307,-89.302
12880,-0.0815,0.4502,-0.9160,-0.183,0.244,-0.061,153.902,4.307,-89.302
12890,-0.0806,0.4478,-0.9121,-0.244,0.183,-0.122,153.896,4.307,-89.302
12900,-0.0791,0.4458,-0.9121,-0.305,0.122,-0.061,153.896,4.307,-89.302
12910,-0.0791,0.4482,-0.9111,-0.244,0.183,0.000,153.891,4.307,-89.302
12920,-0.0811,0.4487,-0.9111,-0.183,0.183,0.122,153.885,4.307,-89.302
12930,-0.0835,0.4463,-0.9111,-0.061,0.122,0.122,153.885,4.312,-89.302
12940,-0.0820,0.4463,-0.9092,0.000,0.183,0.122,153.885,4.312,-89.302
12950,-0.0801,0.4487,-0.9116,-0.061,0.244,0.122,153.885,4.312,-89.302
12960,-0.0791,0.4512,-0.9116,-0.061,0.427,0.122,153.880,4.307,-89.302
12970,-0.0771,0.4512,-0.9160,0.000,0.549,0.122,153.880,4.301,-89.302
12980,-0.0767,0.4526,-0.9170,0.122,0.549,-0.061,153.880,4.296,-89.302
12990,-0.0752,0.4521,-0.9194,0.244,0.549,-0.305,153.885,4.296,-89.302
13000,-0.0747,0.4487,-0.9238,0.244,0.366,-0.366,153.891,4.290,-89.302
13010,-0.0728,0.4482,-0.9209,0.000,0.061,-0.427,153.891,4.290,-89.302
13020,-0.0742,0.4468,-0.9185,-0.427,-0.305,-0.366,153.885,4.290,-89.302
13030,-0.0791,0.4487,-0.9194,-0.732,-0.671,-0.244,153.880,4.301,-89.302
13040,-0.0820,0.4468,-0.9136,-0.854,-0.916,-0.183,153.875,4.312,-89.302
13050,-0.0806,0.4463,-0.9111,-0.854,-1.099,-0.122,153.864,4.323,-89.302
13060,-0.0830,0.4468,-0.9077,-0.793,-1.099,-0.061,153.858,4.340,-89.302
13070,-0.0825,0.4463,-0.9058,-0.610,-0.977,0.000,153.847,4.351,-89.302
13080,-0.0830,0.4468,-0.9067,-0.671,-0.793,0.000,153.842,4.362,-89.302
13090,-0.0815,0.4468,-0.9063,-0.732,-0.610,0.000,153.831,4.367,-89.302
13100,-0.0835,0.4443,-0.9019,-0.732,-0.427,0.122,153.825,4.378,-89.302
13110,-0.0835,0.4482,-0.8999,-0.610,-0.122,0.122,153.814,4.378,-89.302
13120,-0.0835,0.4502,-0.8975,-0.366,0.183,0.122,153.809,4.384,-89.302
13130,-0.0830,0.4521,-0.9033,-0.061,0.610,0.122,153.803,4.378,-89.302
13140,-0.0811,0.4536,-0.9043,0.244,0.977,0.061,153.803,4.373,-89.302
13150,-0.0815,0.4526,-0.9072,0.305,1.465,-0.061,153.803,4.362,-89.302
13160,-0.0801,0.4502,-0.9082,0.305,1.831,-0.122,153.803,4.345,-89.302
13170,-0.0806,0.4512,-0.9111,0.305,2.136,-0.183,153.803,4.329,-89.302
13180,-0.0791,0.4512,-0.9131,0.244,2.075,-0.183,153.809,4.312,-89.302
13190,-0.0767,0.4531,-0.9180,0.244,1.831,-0.183,153.809,4.301,-89.302
13200,-0.0771,0.4536,-0.9185,0.183,1.465,-0.244,153.814,4.285,-89.302
13210,-0.0781,0.4492,-0.9175,0.183,1.099,-0.305,153.814,4.279,-89.302
13220,-0.0767,0.4497,-0.9185,0.000,0.977,-0.366,153.814,4.274,-89.302
13230,-0.0762,0.4497,-0.9209,-0.244,0.977,-0.427,153.814,4.263,-89.302
13240,-0.0718,0.4492,-0.9189,-0.244,1.038,-0.488,153.814,4.257,-89.302
13250,-0.0732,0.4487,-0.9180,-0.122,0.916,-0.488,153.814,4.246,-89.302
13260,-0.0728,0.4453,-0.9146,-0.122,0.671,-0.427,153.820,4.241,-89.302
13270,-0.0732,0.4424,-0.9170,-0.122,0.305,-0.366,153.820,4.241,-89.302
13280,-0.0767,0.4414,-0.9165,-0.122,0.061,-0.305,153.825,4.241,-89.302
13291,-0.0757,0.4434,-0.9155,-0.183,0.000,-0.244,153.825,4.241,-89.302
13300,-0.0752,0.4438,-0.9155,-0.305,0.122,-0.305,153.825,4.241,-89.302
13310,-0.0747,0.4443,-0.9170,-0.305,0.244,-0.305,153.825,4.241,-89.302
13320,-0.0767,0.4438,-0.9165,-0.244,0.244,-0.122,153.831,4.241,-89.302
13330,-0.0762,0.4458,-0.9150,-0.122,0.305,0.000,153.831,4.241,-89.302
13340,-0.0757,0.4448,-0.9165,0.000,0.244,0.183,153.831,4.235,-89.302
13350,-0.0747,0.4443,-0.9180,0.244,0.061,0.244,153.836,4.235,-89.302
13360,-0.0757,0.4434,-0.9175,0.366,-0.122,0.244,153.847,4.235,-89.302
13370,-0.0776,0.4448,-0.9170,0.183,-0.305,0.305,153.847,4.235,-89.302
13380,-0.0781,0.4448,-0.9131,-0.122,-0.488,0.366,153.847,4.241,-89.302
13390,-0.0762,0.4458,-0.9106,-0.183,-0.549,0.488,153.847,4.241,-89.302
13400,-0.0757,0.4453,-0.9087,-0.122,-0.549,0.488,153.847,4.246,-89.302
13410,-0.0742,0.4468,-0.9106,0.000,-0.427,0.427,153.847,4.246,-89.302
13420,-0.0776,0.4482,-0.9077,0.183,-0.366,0.549,153.847,4.252,-89.302
13430,-0.0757,0.4492,-0.9097,0.427,-0.305,0.610,153.847,4.252,-89.302
13440,-0.0771,0.4478,-0.9082,0.610,-0.183,0.732,153.853,4.252,-89.302
13450,-0.0757,0.4502,-0.9067,0.610,0.061,0.671,153.858,4.246,-89.302
13460,-0.0762,0.4512,-0.9092,0.610,0.305,0.610,153.858,4.241,-89.302
13470,-0.0771,0.4517,-0.9082,0.549,0.427,0.610,153.864,4.235,-89.302
13480,-0.0781,0.4502,-0.9106,0.488,0.427,0.549,153.864,4.230,-89.302
13490,-0.0811,0.4487,-0.9077,0.366,0.488,0.610,153.864,4.230,-89.302
13500,-0.0806,0.4497,-0.9097,0.427,0.549,0.610,153.869,4.224,-89.302
13510,-0.0786,0.4517,-0.9106,0.488,0.549,0.671,153.869,4.219,-89.302
13520,-0.0776,0.4541,-0.9131,0.610,0.549,0.549,153.875,4.213,-89.302
13530,-0.0752,0.4546,-0.9155,0.671,0.427,0.427,153.875,4.208,-89.302
13540,-0.0757,0.4561,-0.9150,0.427,0.305,0.305,153.875,4.202,-89.302
13550,-0.0796,0.4521,-0.9121,0.183,0.122,0.061,153.875,4.202,-89.302
13560,-0.0786,0.4502,-0.9106,0.000,-0.061,-0.061,153.875,4.208,-89.302
13570,-0.0767,0.4492,-0.9092,-0.122,-0.061,-0.183,153.869,4.208,-89.302
13580,-0.0781,0.4492,-0.9072,-0.061,0.000,-0.122,153.869,4.213,-89.302
13590,-0.0781,0.4473,-0.9048,0.366,0.244,0.000,153.869,4.213,-89.302
13600,-0.0771,0.4443,-0.9116,0.854,0.671,0.000,153.880,4.208,-89.302
13610,-0.0728,0.4463,-0.9150,1.038,0.793,0.000,153.891,4.197,-89.302
13620,-0.0713,0.4434,-0.9175,1.038,0.916,0.061,153.907,4.186,-89.302
13630,-0.0713,0.4429,-0.9224,0.854,0.732,0.061,153.918,4.180,-89.302
13640,-0.0718,0.4453,-0.9204,0.244,0.366,0.061,153.924,4.175,-89.302
13650,-0.0747,0.4468,-0.9185,-0.122,-0.061,0.122,153.924,4.175,-89.302
13660,-0.0771,0.4453,-0.9165,-0.122,-0.305,0.244,153.924,4.175,-89.302
13670,-0.0771,0.4419,-0.9155,0.000,-0.427,0.305,153.929,4.180,-89.302
13680,-0.0796,0.4424,-0.9150,0.122,-0.366,0.427,153.929,4.186,-89.302
13690,-0.0776,0.4443,-0.9131,0.122,-0.427,0.549,153.935,4.191,-89.302
13700,-0.0762,0.4482,-0.9116,0.061,-0.549,0.732,153.929,4.191,-89.302
13710,-0.0757,0.4497,-0.9087,-0.061,-0.793,0.732,153.929,4.197,-89.302
13720,-0.0767,0.4521,-0.9087,-0.061,-0.793,0.732,153.924,4.202,-89.302
13730,-0.0752,0.4575,-0.9072,-0.061,-0.549,0.610,153.913,4.202,-89.302
13740,-0.0767,0.4570,-0.9067,0.061,-0.244,0.488,153.907,4.208,-89.302
13750,-0.0771,0.4556,-0.9087,0.183,0.000,0.305,153.902,4.208,-89.302
13760,-0.0776,0.4575,-0.9082,0.244,0.122,0.183,153.902,4.202,-89.302
13770,-0.0796,0.4570,-0.9087,0.366,0.244,0.061,153.896,4.208,-89.302
13780,-0.0781,0.4570,-0.9097,0.427,0.427,-0.061,153.896,4.202,-89.302
13791,-0.0781,0.4561,-0.9111,0.488,0.488,-0.183,153.896,4.202,-89.302
13800,-0.0762,0.4541,-0.9126,0.488,0.427,-0.305,153.896,4.202,-89.302
13810,-0.0728,0.4546,-0.9131,0.427,0.244,-0.366,153.896,4.197,-89.302
13820,-0.0742,0.4536,-0.9111,0.366,0.000,-0.427,153.902,4.202,-89.302
13830,-0.0767,0.4507,-0.9136,0.244,-0.122,-0.549,153.902,4.202,-89.302
13840,-0.0771,0.4492,-0.9141,0.122,0.000,-0.549,153.902,4.208,-89.302
13850,-0.0762,0.4521,-0.9121,0.122,0.366,-0.610,153.902,4.208,-89.302
13860,-0.0757,0.4502,-0.9160,0.305,0.671,-0.610,153.902,4.202,-89.302
13870,-0.0747,0.4473,-0.9155,0.427,0.671,-0.732,153.907,4.202,-89.302
13880,-0.0742,0.4438,-0.9160,0.244,0.427,-0.793,153.913,4.202,-89.302
13890,-0.0767,0.4458,-0.9141,-0.122,0.000,-0.610,153.913,4.208,-89.302
13900,-0.0771,0.4429,-0.9131,-0.183,-0.488,-0.488,153.913,4.213,-89.302
13910,-0.0752,0.4443,-0.9116,-0.122,-0.732,-0.305,153.913,4.219,-89.302
13920,-0.0767,0.4434,-0.9111,0.122,-0.610,-0.244,153.918,4.230,-89.302
13930,-0.0767,0.4399,-0.9126,0.244,-0.366,-0.122,153.924,4.235,-89.302
13940,-0.0796,0.4419,-0.9092,0.244,-0.122,0.000,153.924,4.235,-89.302
13950,-0.0767,0.4448,-0.9111,0.122,0.061,0.061,153.929,4.235,-89.302
13960,-0.0776,0.4448,-0.9136,0.122,0.122,0.122,153.929,4.235,-89.302
13970,-0.0771,0.4448,-0.9175,0.122,-0.061,0.061,153.935,4.241,-89.302
13980,-0.0776,0.4487,-0.9185,-0.061,-0.244,-0.061,153.935,4.241,-89.302
13990,-0.0801,0.4502,-0.9155,-0.244,-0.427,-0.183,153.929,4.246,-89.302
14000,-0.0801,0.4512,-0.9165,-0.366,-0.671,-0.244,153.924,4.257,-89.302
14010,-0.0811,0.4497,-0.9150,-0.549,-1.038,-0.244,153.918,4.274,-89.302
14020,-0.0806,0.4502,-0.9131,-0.549,-1.221,-0.305,153.913,4.285,-89.302
14030,-0.0830,0.4507,-0.9077,-0.488,-1.343,-0.366,153.902,4.301,-89.302
14040,-0.0830,0.4521,-0.9077,-0.427,-1.404,-0.366,153.896,4.323,-89.302
14050,-0.0815,0.4502,-0.9067,-0.244,-1.282,-0.488,153.891,4.340,-89.302
14060,-0.0815,0.4507,-0.9009,-0.244,-1.038,-0.610,153.880,4.351,-89.302
14070,-0.0801,0.4507,-0.9019,-0.183,-0.732,-0.671,153.875,4.362,-89.302
14080,-0.0811,0.4478,-0.9033,-0.183,-0.366,-0.732,153.869,4.373,-89.302
14090,-0.0815,0.4482,-0.9043,-0.183,0.061,-0.732,153.869,4.378,-89.302
14100,-0.0781,0.4458,-0.9077,-0.122,0.549,-0.610,153.869,4.378,-89.302
14110,-0.0796,0.4443,-0.9087,0.000,0.732,-0.610,153.869,4.373,-89.302
14120,-0.0791,0.4429,-0.9102,0.244,0.671,-0.549,153.875,4.373,-89.302
14130,-0.0781,0.4424,-0.9111,0.244,0.549,-0.427,153.880,4.367,-89.302
14140,-0.0781,0.4424,-0.9131,0.183,0.549,-0.305,153.885,4.367,-89.302
14150,-0.0771,0.4434,-0.9160,0.183,0.610,-0.183,153.891,4.362,-89.302
14160,-0.0757,0.4458,-0.9165,0.061,0.610,-0.061,153.891,4.351,-89.302
14170,-0.0742,0.4463,-0.9194,0.122,0.549,-0.122,153.896,4.345,-89.302
14180,-0.0752,0.4463,-0.9214,0.122,0.366,-0.183,153.896,4.345,-89.302
14190,-0.0771,0.4478,-0.9199,0.000,0.000,-0.183,153.902,4.345,-89.302
14200,-0.0781,0.4453,-0.9175,-0.061,-0.305,-0.244,153.902,4.345,-89.302
14210,-0.0801,0.4438,-0.9146,-0.183,-0.488,-0.244,153.902,4.356,-89.302
14220,-0.0771,0.4448,-0.9126,-0.366,-0.610,-0.061,153.896,4.362,-89.302
14230,-0.0771,0.4468,-0.9106,-0.244,-0.549,0.000,153.896,4.367,-89.302
14240,-0.0776,0.4473,-0.9087,0.061,-0.305,0.061,153.896,4.367,-89.302
14250,-0.0781,0.4448,-0.9077,0.244,-0.061,0.061,153.896,4.367,-89.302
14260,-0.0767,0.4443,-0.9116,0.427,0.061,0.061,153.902,4.367,-89.302
14270,-0.0781,0.4434,-0.9106,0.488,0.000,0.122,153.907,4.367,-89.302
14280,-0.0796,0.4414,-0.9116,0.488,0.000,0.244,153.918,4.367,-89.302
14291,-0.0801,0.4424,-0.9126,0.366,0.061,0.366,153.924,4.367,-89.302
14300,-0.0830,0.4434,-0.9102,0.366,0.244,0.427,153.924,4.367,-89.302
14310,-0.0815,0.4448,-0.9126,0.488,0.366,0.549,153.929,4.362,-89.302
14320,-0.0811,0.4463,-0.9126,0.610,0.488,0.671,153.940,4.356,-89.302
14330,-0.0796,0.4468,-0.9155,0.549,0.427,0.671,153.946,4.351,-89.302
14340,-0.0796,0.4463,-0.9141,0.488,0.122,0.732,153.946,4.351,-89.302
14350,-0.0786,0.4473,-0.9155,0.366,-0.183,0.732,153.951,4.345,-89.302
14360,-0.0786,0.4487,-0.9131,0.244,-0.366,0.732,153.951,4.351,-89.302
14370,-0.0786,0.4502,-0.9116,0.061,-0.366,0.793,153.951,4.351,-89.302
14380,-0.0801,0.4502,-0.9106,0.061,-0.305,0.671,153.946,4.351,-89.302
14390,-0.0840,0.4517,-0.9092,0.122,-0.244,0.610,153.946,4.351,-89.302
14400,-0.0845,0.4526,-0.9126,0.122,-0.183,0.427,153.940,4.356,-89.302
14410,-0.0840,0.4541,-0.9106,0.061,-0.183,0.244,153.935,4.362,-89.302
14420,-0.0850,0.4531,-0.9092,0.061,-0.122,0.183,153.935,4.367,-89.302
14430,-0.0830,0.4551,-0.9082,0.122,-0.061,0.122,153.929,4.367,-89.302
14440,-0.0806,0.4561,-0.9092,0.366,0.061,0.061,153.929,4.367,-89.302
14450,-0.0801,0.4561,-0.9092,0.488,0.183,0.061,153.924,4.367,-89.302
14460,-0.0786,0.4561,-0.9092,0.488,0.183,-0.122,153.924,4.367,-89.302
14470,-0.0801,0.4551,-0.9082,0.366,0.061,-0.244,153.924,4.373,-89.302
14480,-0.0815,0.4541,-0.9092,0.122,0.122,-0.366,153.918,4.373,-89.302
14490,-0.0815,0.4526,-0.9126,0.000,0.427,-0.549,153.918,4.373,-89.302
14500,-0.0806,0.4531,-0.9141,0.061,0.793,-0.671,153.918,4.373,-89.302
14510,-0.0801,0.4502,-0.9146,0.305,0.977,-0.854,153.918,4.367,-89.302
14520,-0.0796,0.4468,-0.9175,0.427,0.793,-0.916,153.924,4.367,-89.302
14530,-0.0786,0.4443,-0.9170,0.244,0.305,-0.854,153.929,4.367,-89.302
14540,-0.0781,0.4424,-0.9189,-0.244,-0.305,-0.732,153.935,4.373,-89.302
14550,-0.0796,0.4414,-0.9175,-0.549,-0.732,-0.610,153.929,4.384,-89.302
14560,-0.0781,0.4414,-0.9136,-0.610,-0.916,-0.549,153.929,4.395,-89.302
14570,-0.0781,0.4424,-0.9121,-0.488,-0.916,-0.427,153.924,4.406,-89.302
14580,-0.0762,0.4429,-0.9131,-0.305,-0.732,-0.244,153.924,4.411,-89.302
14590,-0.0767,0.4458,-0.9102,-0.183,-0.671,-0.061,153.924,4.417,-89.302
14600,-0.0771,0.4478,-0.9092,-0.122,-0.671,0.000,153.918,4.422,-89.302
14610,-0.0776,0.4473,-0.9131,-0.122,-0.671,-0.122,153.918,4.427,-89.302
14620,-0.0825,0.4473,-0.9136,-0.183,-0.549,-0.122,153.913,4.433,-89.302
14630,-0.0825,0.4463,-0.9106,-0.305,-0.183,-0.122,153.913,4.438,-89.302
14640,-0.0811,0.4453,-0.9092,-0.366,-0.061,-0.122,153.907,4.438,-89.302
14650,-0.0830,0.4458,-0.9102,-0.305,-0.305,-0.122,153.907,4.444,-89.302
14660,-0.0835,0.4448,-0.9116,-0.061,-0.610,-0.061,153.907,4.455,-89.302
14670,-0.0835,0.4448,-0.9126,0.305,-0.671,0.061,153.907,4.460,-89.302
14680,-0.0820,0.4438,-0.9092,0.427,-0.488,0.183,153.913,4.466,-89.302
14690,-0.0825,0.4438,-0.9072,0.305,-0.305,0.244,153.918,4.471,-89.302
14700,-0.0840,0.4448,-0.9102,0.061,-0.305,0.244,153.918,4.477,-89.302
14710,-0.0850,0.4463,-0.9087,0.000,-0.183,0.244,153.918,4.477,-89.302
14720,-0.0811,0.4482,-0.9087,0.183,0.000,0.244,153.918,4.477,-89.302
14730,-0.0815,0.4473,-0.9087,0.366,0.183,0.183,153.918,4.477,-89.302
14740,-0.0796,0.4487,-0.9146,0.488,0.244,0.122,153.924,4.477,-89.302
14750,-0.0815,0.4487,-0.9146,0.366,0.183,0.183,153.924,4.471,-89.302
14760,-0.0801,0.4473,-0.9121,0.183,0.305,0.244,153.929,4.471,-89.302
14770,-0.0815,0.4473,-0.9121,0.000,0.244,0.366,153.924,4.466,-89.302
14780,-0.0825,0.4492,-0.9092,-0.061,0.122,0.427,153.924,4.466,-89.302
14791,-0.0811,0.4531,-0.9102,0.122,-0.061,0.488,153.918,4.466,-89.302
14800,-0.0850,0.4556,-0.9136,0.305,-0.183,0.366,153.918,4.471,-89.302
14810,-0.0850,0.4570,-0.9136,0.427,0.000,0.305,153.918,4.471,-89.302
14820,-0.0869,0.4561,-0.9087,0.244,0.122,0.122,153.913,4.471,-89.302
14830,-0.0874,0.4546,-0.9087,-0.183,0.000,-0.122,153.907,4.477,-89.302
14840,-0.0854,0.4541,-0.9121,-0.488,-0.183,-0.427,153.896,4.482,-89.302
14850,-0.0845,0.4556,-0.9146,-0.671,-0.122,-0.549,153.891,4.488,-89.302
14860,-0.0820,0.4531,-0.9121,-0.488,-0.061,-0.549,153.880,4.493,-89.302
14870,-0.0820,0.4517,-0.9116,-0.122,-0.122,-0.549,153.880,4.499,-89.302
14880,-0.0806,0.4507,-0.9121,0.244,-0.183,-0.549,153.880,4.504,-89.302
14890,-0.0806,0.4497,-0.9136,0.427,-0.183,-0.671,153.885,4.510,-89.302
14900,-0.0811,0.4453,-0.9116,0.427,-0.122,-0.671,153.891,4.515,-89.302
14910,-0.0811,0.4414,-0.9141,0.061,-0.061,-0.732,153.891,4.515,-89.302
14920,-0.0825,0.4409,-0.9106,-0.366,0.000,-0.732,153.891,4.521,-89.302
14930,-0.0835,0.4399,-0.9116,-0.488,-0.061,-0.549,153.891,4.526,-89.302
14940,-0.0830,0.4399,-0.9111,-0.244,0.000,-0.305,153.891,4.532,-89.302
14950,-0.0835,0.4399,-0.9121,0.244,0.183,-0.061,153.896,4.532,-89.302
14960,-0.0820,0.4395,-0.9121,0.732,0.305,0.244,153.907,4.526,-89.302
14970,-0.0811,0.4414,-0.9077,0.854,0.244,0.427,153.918,4.526,-89.302
14980,-0.0815,0.4434,-0.9116,0.610,0.061,0.488,153.924,4.521,-89.302
14990,-0.0820,0.4478,-0.9121,0.122,0.000,0.427,153.924,4.521,-89.302
15000,-0.0820,0.4507,-0.9106,-0.366,0.061,0.366,153.918,4.521,-89.302
15010,-0.0815,0.4551,-0.9126,-0.427,0.061,0.244,153.913,4.521,-89.302
15020,-0.0830,0.4551,-0.9121,-0.305,0.061,0.122,153.902,4.521,-89.302
15030,-0.0820,0.4551,-0.9102,-0.061,0.061,0.000,153.896,4.521,-89.302
15040,-0.0850,0.4551,-0.9111,0.122,0.122,-0.183,153.896,4.521,-89.302
15050,-0.0845,0.4517,-0.9106,0.183,0.183,-0.366,153.896,4.526,-89.302
15060,-0.0845,0.4512,-0.9126,0.000,0.183,-0.488,153.891,4.526,-89.302
15070,-0.0835,0.4517,-0.9116,-0.183,0.244,-0.610,153.891,4.526,-89.302
15080,-0.0801,0.4517,-0.9097,-0.122,0.183,-0.610,153.885,4.532,-89.302
15090,-0.0791,0.4502,-0.9087,0.183,0.183,-0.671,153.885,4.532,-89.302
15100,-0.0811,0.4468,-0.9087,0.366,0.305,-0.671,153.891,4.532,-89.302
15110,-0.0820,0.4443,-0.9102,0.610,0.610,-0.671,153.896,4.526,-89.302
15120,-0.0806,0.4409,-0.9116,0.610,1.099,-0.671,153.907,4.521,-89.302
15130,-0.0786,0.4385,-0.9141,0.610,1.465,-0.610,153.918,4.510,-89.302
15140,-0.0767,0.4375,-0.9194,0.671,1.648,-0.549,153.929,4.499,-89.302
15150,-0.0771,0.4375,-0.9209,0.549,1.343,-0.427,153.946,4.482,-89.302
15160,-0.0747,0.4365,-0.9214,0.305,0.916,-0.244,153.957,4.477,-89.302
15170,-0.0771,0.4341,-0.9214,0.122,0.366,0.000,153.962,4.471,-89.302
15180,-0.0806,0.4360,-0.9204,-0.061,-0.122,0.305,153.973,4.471,-89.302
15190,-0.0796,0.4395,-0.9189,-0.122,-0.427,0.549,153.973,4.471,-89.302
15200,-0.0806,0.4434,-0.9180,-0.061,-0.488,0.732,153.973,4.471,-89.302
15210,-0.0806,0.4443,-0.9150,-0.061,-0.549,0.854,153.973,4.477,-89.302
15220,-0.0815,0.4478,-0.9141,-0.183,-0.549,0.854,153.973,4.477,-89.302
15230,-0.0806,0.4492,-0.9126,-0.305,-0.671,0.854,153.968,4.482,-89.302
15240,-0.0820,0.4512,-0.9116,-0.366,-0.732,0.793,153.957,4.482,-89.302
15250,-0.0864,0.4512,-0.9126,-0.366,-0.732,0.671,153.951,4.493,-89.302
15260,-0.0859,0.4517,-0.9077,-0.366,-0.549,0.549,153.940,4.499,-89.302
15270,-0.0884,0.4521,-0.9082,-0.305,-0.366,0.366,153.935,4.504,-89.302
15280,-0.0884,0.4536,-0.9048,-0.305,-0.305,0.244,153.924,4.510,-89.302
15291,-0.0884,0.4517,-0.9009,-0.305,-0.366,0.122,153.918,4.521,-89.302
15300,-0.0889,0.4507,-0.9014,-0.366,-0.366,0.061,153.907,4.526,-89.302
15310,-0.0874,0.4482,-0.9023,-0.122,-0.122,0.000,153.902,4.532,-89.302
15320,-0.0869,0.4458,-0.9053,0.061,0.305,0.061,153.902,4.532,-89.302
15330,-0.0825,0.4463,-0.9053,0.183,0.793,0.183,153.902,4.526,-89.302
15340,-0.0820,0.4473,-0.9067,0.305,1.099,0.183,153.907,4.515,-89.302
15350,-0.0830,0.4463,-0.9082,0.427,1.221,0.305,153.907,4.504,-89.302
15360,-0.0820,0.4468,-0.9121,0.488,1.404,0.305,153.913,4.493,-89.302
15370,-0.0825,0.4458,-0.9150,0.427,1.404,0.244,153.918,4.482,-89.302
15380,-0.0830,0.4453,-0.9141,0.244,1.343,0.183,153.924,4.471,-89.302
15390,-0.0806,0.4453,-0.9160,0.061,1.160,0.183,153.924,4.460,-89.302
15400,-0.0811,0.4478,-0.9165,-0.122,0.854,0.183,153.924,4.455,-89.302
15410,-0.0801,0.4482,-0.9189,-0.244,0.488,0.244,153.924,4.449,-89.302
15420,-0.0806,0.4502,-0.9185,-0.244,0.183,0.244,153.918,4.444,-89.302
15430,-0.0776,0.4507,-0.9160,-0.305,-0.122,0.183,153.918,4.444,-89.302
15440,-0.0786,0.4497,-0.9185,-0.366,-0.244,0.122,153.913,4.444,-89.302
15450,-0.0815,0.4512,-0.9136,-0.488,-0.244,0.000,153.907,4.449,-89.302
15460,-0.0820,0.4487,-0.9102,-0.549,-0.244,-0.183,153.896,4.455,-89.302
15470,-0.0825,0.4492,-0.9082,-0.549,-0.122,-0.122,153.891,4.455,-89.302
15480,-0.0815,0.4497,-0.9058,-0.427,-0.061,-0.061,153.885,4.460,-89.302
15490,-0.0811,0.4517,-0.9072,-0.122,0.122,0.000,153.880,4.460,-89.302
15500,-0.0801,0.4497,-0.9102,0.061,0.305,0.000,153.880,4.455,-89.302
15510,-0.0786,0.4502,-0.9121,0.366,0.488,0.000,153.880,4.455,-89.302
15520,-0.0786,0.4507,-0.9141,0.488,0.549,0.000,153.885,4.449,-89.302
15530,-0.0771,0.4478,-0.9126,0.305,0.610,-0.061,153.885,4.444,-89.302
15540,-0.0806,0.4453,-0.9146,-0.122,0.488,-0.061,153.885,4.438,-89.302
15550,-0.0806,0.4482,-0.9136,-0.427,0.244,0.000,153.885,4.438,-89.302
15560,-0.0840,0.4478,-0.9121,-0.610,0.061,0.122,153.875,4.438,-89.302
15570,-0.0825,0.4473,-0.9111,-0.488,0.000,0.183,153.875,4.438,-89.302
15580,-0.0830,0.4463,-0.9106,-0.305,-0.122,0.305,153.869,4.444,-89.302
15590,-0.0815,0.4473,-0.9106,-0.122,-0.244,0.366,153.869,4.444,-89.302
15600,-0.0820,0.4478,-0.9092,-0.183,-0.305,0.488,153.864,4.444,-89.302
15610,-0.0820,0.4478,-0.9053,-0.305,-0.366,0.549,153.858,4.449,-89.302
15620,-0.0825,0.4492,-0.9058,-0.366,-0.122,0.488,153.853,4.449,-89.302
15630,-0.0815,0.4526,-0.9048,-0.305,0.122,0.366,153.847,4.449,-89.302
15640,-0.0801,0.4517,-0.9043,-0.244,0.305,0.305,153.836,4.444,-89.302
15650,-0.0815,0.4517,-0.9077,-0.183,0.427,0.183,153.836,4.444,-89.302
15660,-0.0830,0.4521,-0.9072,-0.183,0.549,0.061,153.831,4.438,-89.302
15670,-0.0830,0.4536,-0.9058,-0.122,0.671,-0.061,153.825,4.438,-89.302
15680,-0.0825,0.4551,-0.9058,0.000,0.793,-0.061,153.820,4.433,-89.302
15690,-0.0811,0.4531,-0.9038,0.244,0.977,-0.122,153.820,4.427,-89.302
15700,-0.0815,0.4531,-0.9072,0.427,1.160,-0.122,153.820,4.417,-89.302
15710,-0.0791,0.4512,-0.9097,0.610,1.343,-0.122,153.825,4.406,-89.302
15720,-0.0786,0.4512,-0.9092,0.671,1.465,-0.122,153.825,4.395,-89.302
15730,-0.0771,0.4526,-0.9106,0.610,1.465,-0.244,153.831,4.384,-89.302
15740,-0.0767,0.4502,-0.9131,0.427,1.526,-0.366,153.836,4.367,-89.302
15750,-0.0757,0.4517,-0.9165,0.305,1.648,-0.488,153.842,4.356,-89.302
15760,-0.0752,0.4497,-0.9209,0.183,1.648,-0.549,153.842,4.340,-89.302
15770,-0.0737,0.4463,-0.9199,0.183,1.465,-0.549,153.847,4.329,-89.302
15780,-0.0742,0.4424,-0.9224,0.061,0.977,-0.488,153.853,4.318,-89.302
15791,-0.0747,0.4414,-0.9204,-0.183,0.366,-0.366,153.858,4.318,-89.302
15800,-0.0757,0.4429,-0.9170,-0.244,-0.183,-0.061,153.858,4.318,-89.302
15810,-0.0762,0.4434,-0.9165,-0.244,-0.366,0.122,153.858,4.323,-89.302
15820,-0.0776,0.4443,-0.9150,-0.183,-0.427,0.244,153.858,4.323,-89.302
15830,-0.0767,0.4463,-0.9131,-0.122,-0.305,0.305,153.858,4.323,-89.302
15840,-0.0762,0.4468,-0.9116,-0.061,-0.061,0.305,153.858,4.323,-89.302
15850,-0.0781,0.4482,-0.9126,-0.122,0.122,0.305,153.858,4.323,-89.302
15860,-0.0771,0.4492,-0.9136,-0.183,0.183,0.305,153.858,4.318,-89.302
15870,-0.0776,0.4507,-0.9155,-0.183,0.122,0.244,153.853,4.318,-89.302
15880,-0.0801,0.4512,-0.9155,0.000,-0.061,0.183,153.853,4.318,-89.302
15890,-0.0796,0.4502,-0.9150,0.122,-0.244,0.183,153.853,4.323,-89.302
15900,-0.0811,0.4487,-0.9121,0.122,-0.488,0.122,153.853,4.329,-89.302
15910,-0.0806,0.4497,-0.9102,0.061,-0.610,0.183,153.853,4.334,-89.302
15920,-0.0825,0.4478,-0.9102,-0.061,-0.610,0.244,153.853,4.340,-89.302
15930,-0.0811,0.4473,-0.9097,-0.061,-0.488,0.244,153.847,4.345,-89.302
15940,-0.0820,0.4492,-0.9067,0.061,-0.183,0.244,153.847,4.351,-89.302
15950,-0.0796,0.4487,-0.9082,0.305,-0.122,0.183,153.847,4.351,-89.302
15960,-0.0781,0.4502,-0.9082,0.488,-0.061,0.244,153.853,4.351,-89.302
15970,-0.0796,0.4502,-0.9102,0.610,-0.061,0.305,153.853,4.351,-89.302
15980,-0.0791,0.4507,-0.9097,0.549,-0.061,0.305,153.858,4.356,-89.302
15990,-0.0781,0.4492,-0.9106,0.427,0.122,0.305,153.864,4.351,-89.302
16000,-0.0791,0.4492,-0.9111,0.122,0.244,0.366,153.864,4.351,-89.302
16010,-0.0806,0.4512,-0.9082,-0.122,0.305,0.366,153.858,4.345,-89.302
16020,-0.0781,0.4536,-0.9072,-0.122,0.183,0.366,153.853,4.345,-89.302
16030,-0.0786,0.4551,-0.9077,0.061,0.122,0.366,153.847,4.340,-89.302
16040,-0.0786,0.4570,-0.9082,0.366,0.183,0.305,153.847,4.340,-89.302
16050,-0.0811,0.4565,-0.9092,0.671,0.305,0.122,153.847,4.340,-89.302
16060,-0.0801,0.4551,-0.9082,0.732,0.427,0.000,153.847,4.334,-89.302
16070,-0.0840,0.4487,-0.9082,0.488,0.427,-0.183,153.853,4.340,-89.302
16080,-0.0820,0.4482,-0.9097,0.061,0.427,-0.366,153.853,4.340,-89.302
16090,-0.0806,0.4512,-0.9102,-0.305,0.427,-0.366,153.847,4.340,-89.302
16100,-0.0786,0.4517,-0.9102,-0.244,0.366,-0.183,153.842,4.334,-89.302
16110,-0.0776,0.4502,-0.9121,0.244,0.427,-0.183,153.847,4.334,-89.302
16120,-0.0752,0.4497,-0.9155,0.854,0.610,-0.244,153.853,4.329,-89.302
16130,-0.0747,0.4463,-0.9150,1.099,0.793,-0.244,153.869,4.323,-89.302
16140,-0.0737,0.4434,-0.9185,1.099,0.854,-0.244,153.880,4.312,-89.302
16150,-0.0742,0.4399,-0.9189,0.610,0.671,-0.183,153.891,4.307,-89.302
16160,-0.0752,0.4395,-0.9209,-0.061,0.244,-0.122,153.896,4.301,-89.302
16170,-0.0781,0.4429,-0.9185,-0.305,-0.183,0.000,153.896,4.307,-89.302
16180,-0.0786,0.4414,-0.9175,-0.061,-0.488,0.183,153.902,4.312,-89.302
16190,-0.0781,0.4404,-0.9131,0.244,-0.549,0.427,153.907,4.312,-89.302
16200,-0.0786,0.4419,-0.9121,0.366,-0.732,0.488,153.913,4.318,-89.302
16210,-0.0786,0.4434,-0.9092,0.244,-0.916,0.610,153.913,4.329,-89.302
16220,-0.0801,0.4468,-0.9067,0.000,-0.977,0.671,153.913,4.334,-89.302
16230,-0.0811,0.4492,-0.9043,-0.305,-0.671,0.610,153.907,4.340,-89.302
16240,-0.0815,0.4517,-0.9033,-0.244,-0.183,0.549,153.896,4.340,-89.302
16250,-0.0825,0.4507,-0.9038,0.122,0.366,0.488,153.896,4.340,-89.302
16260,-0.0811,0.4531,-0.9019,0.366,0.732,0.488,153.891,4.334,-89.302
16270,-0.0811,0.4570,-0.9072,0.488,0.732,0.427,153.891,4.329,-89.302
16280,-0.0806,0.4570,-0.9116,0.610,0.610,0.305,153.891,4.323,-89.302
16291,-0.0801,0.4590,-0.9131,0.549,0.549,0.122,153.891,4.318,-89.302
16300,-0.0791,0.4580,-0.9141,0.488,0.610,-0.122,153.891,4.318,-89.302
16310,-0.0801,0.4570,-0.9131,0.427,0.793,-0.305,153.891,4.312,-89.302
16320,-0.0771,0.4546,-0.9126,0.305,0.793,-0.488,153.891,4.307,-89.302
16330,-0.0747,0.4502,-0.9146,0.244,0.793,-0.610,153.896,4.301,-89.302
16340,-0.0757,0.4492,-0.9150,0.244,0.610,-0.732,153.896,4.296,-89.302
16350,-0.0786,0.4453,-0.9165,0.244,0.427,-0.732,153.902,4.296,-89.302
16360,-0.0771,0.4448,-0.9165,0.183,0.427,-0.732,153.907,4.296,-89.302
16370,-0.0752,0.4438,-0.9136,0.183,0.427,-0.610,153.913,4.296,-89.302
16380,-0.0728,0.4424,-0.9141,0.244,0.305,-0.549,153.918,4.296,-89.302
16390,-0.0708,0.4404,-0.9136,0.427,0.000,-0.427,153.924,4.290,-89.302
16400,-0.0718,0.4365,-0.9146,0.366,-0.183,-0.305,153.935,4.296,-89.302
16410,-0.0757,0.4390,-0.9165,0.305,-0.366,-0.183,153.940,4.296,-89.302
16420,-0.0781,0.4385,-0.9150,0.366,-0.244,0.061,153.951,4.301,-89.302
16430,-0.0771,0.4404,-0.9126,0.183,-0.061,0.305,153.951,4.301,-89.302
16440,-0.0776,0.4438,-0.9111,0.122,0.061,0.427,153.957,4.296,-89.302
16450,-0.0771,0.4463,-0.9131,0.122,0.000,0.549,153.957,4.296,-89.302
16460,-0.0776,0.4512,-0.9150,0.000,-0.183,0.549,153.951,4.296,-89.302
16470,-0.0781,0.4521,-0.9160,-0.061,-0.366,0.549,153.951,4.296,-89.302
16480,-0.0781,0.4497,-0.9165,-0.122,-0.305,0.427,153.946,4.301,-89.302
16490,-0.0806,0.4521,-0.9121,-0.061,-0.366,0.305,153.946,4.301,-89.302
16500,-0.0820,0.4521,-0.9126,0.000,-0.488,0.183,153.940,4.312,-89.302
16510,-0.0835,0.4473,-0.9136,0.000,-0.610,0.000,153.940,4.318,-89.302
16520,-0.0830,0.4487,-0.9111,-0.061,-0.671,0.000,153.935,4.329,-89.302
16530,-0.0835,0.4487,-0.9092,-0.061,-0.671,0.061,153.935,4.340,-89.302
16540,-0.0830,0.4478,-0.9053,-0.061,-0.610,0.061,153.929,4.345,-89.302
16550,-0.0820,0.4478,-0.9072,0.122,-0.488,0.000,153.929,4.356,-89.302
16560,-0.0806,0.4487,-0.9063,0.427,-0.305,0.000,153.929,4.356,-89.302
16570,-0.0806,0.4453,-0.9067,0.549,0.000,0.122,153.935,4.362,-89.302
16580,-0.0811,0.4443,-0.9087,0.549,0.305,0.244,153.940,4.356,-89.302
16590,-0.0820,0.4473,-0.9102,0.427,0.366,0.366,153.946,4.356,-89.302
16600,-0.0801,0.4497,-0.9131,0.305,0.305,0.305,153.946,4.356,-89.302
16610,-0.0815,0.4507,-0.9141,0.244,0.183,0.244,153.946,4.351,-89.302
16620,-0.0801,0.4526,-0.9126,0.061,0.000,0.122,153.940,4.356,-89.302
16630,-0.0811,0.4546,-0.9141,-0.122,-0.244,0.000,153.940,4.356,-89.302
16640,-0.0806,0.4536,-0.9141,-0.366,-0.427,-0.061,153.929,4.362,-89.302
16650,-0.0820,0.4521,-0.9102,-0.427,-0.488,-0.183,153.924,4.373,-89.302
16660,-0.0811,0.4521,-0.9082,-0.366,-0.488,-0.183,153.913,4.378,-89.302
16670,-0.0811,0.4487,-0.9063,-0.122,-0.366,-0.122,153.913,4.384,-89.302
16680,-0.0791,0.4482,-0.9067,0.122,0.000,-0.061,153.913,4.384,-89.302
16690,-0.0811,0.4463,-0.9102,0.366,0.427,0.061,153.913,4.384,-89.302
16700,-0.0806,0.4492,-0.9102,0.488,0.610,0.183,153.918,4.378,-89.302
16710,-0.0811,0.4497,-0.9106,0.610,0.549,0.122,153.918,4.373,-89.302
16720,-0.0815,0.4492,-0.9126,0.671,0.305,-0.061,153.924,4.373,-89.302
16730,-0.0811,0.4497,-0.9121,0.305,0.244,-0.366,153.929,4.378,-89.302
16740,-0.0776,0.4502,-0.9150,-0.122,0.305,-0.427,153.924,4.373,-89.302
16750,-0.0757,0.4497,-0.9141,-0.366,0.366,-0.427,153.924,4.373,-89.302
16760,-0.0752,0.4497,-0.9136,-0.366,0.366,-0.488,153.918,4.367,-89.302
16770,-0.0791,0.4468,-0.9150,-0.061,0.305,-0.427,153.918,4.367,-89.302
16780,-0.0771,0.4458,-0.9199,0.488,0.305,-0.305,153.924,4.367,-89.302
16791,-0.0742,0.4434,-0.9199,0.793,0.183,-0.122,153.935,4.362,-89.302
16800,-0.0752,0.4429,-0.9189,0.732,-0.122,-0.122,153.946,4.362,-89.302
16810,-0.0776,0.4414,-0.9150,0.183,-0.671,-0.183,153.951,4.373,-89.302
16820,-0.0762,0.4443,-0.9175,-0.366,-1.221,-0.183,153.951,4.384,-89.302
16830,-0.0781,0.4438,-0.9121,-0.671,-1.282,-0.122,153.946,4.395,-89.302
16840,-0.0801,0.4443,-0.9092,-0.671,-1.038,0.000,153.935,4.406,-89.302
16850,-0.0820,0.4443,-0.9063,-0.305,-0.793,0.122,153.935,4.411,-89.302
16860,-0.0845,0.4419,-0.9077,0.000,-0.488,0.244,153.935,4.422,-89.302
16870,-0.0825,0.4443,-0.9053,0.244,-0.183,0.427,153.935,4.422,-89.302
16880,-0.0850,0.4458,-0.9072,0.244,-0.061,0.488,153.935,4.422,-89.302
16890,-0.0835,0.4453,-0.9082,0.183,-0.061,0.488,153.935,4.427,-89.302
16900,-0.0815,0.4482,-0.9097,0.122,-0.122,0.366,153.935,4.427,-89.302
16910,-0.0830,0.4507,-0.9092,0.061,0.061,0.305,153.935,4.427,-89.302
16920,-0.0815,0.4502,-0.9092,0.183,0.244,0.244,153.935,4.427,-89.302
16930,-0.0801,0.4521,-0.9102,0.305,0.427,0.183,153.929,4.422,-89.302
16940,-0.0791,0.4526,-0.9106,0.488,0.488,0.122,153.935,4.417,-89.302
16950,-0.0796,0.4521,-0.9126,0.671,0.366,0.122,153.935,4.417,-89.302
16960,-0.0796,0.4536,-0.9116,0.732,0.122,0.122,153.940,4.411,-89.302
