elapsed_ms,acc_x_g,acc_y_g,acc_z_g,gyro_x_dps,gyro_y_dps,gyro_z_dps,angle_x_deg,angle_y_deg,angle_z_deg
0,-0.1499,0.3291,-0.9487,-0.183,-0.610,-0.916,160.362,8.575,-79.640
10,-0.1479,0.3301,-0.9482,-0.244,-0.610,-0.793,160.367,8.580,-79.634
20,-0.1479,0.3262,-0.9482,-0.122,-0.549,-0.610,160.373,8.586,-79.629
30,-0.1489,0.3252,-0.9487,0.000,-0.427,-0.549,160.378,8.591,-79.623
40,-0.1499,0.3247,-0.9473,-0.061,-0.366,-0.244,160.389,8.591,-79.623
50,-0.1499,0.3262,-0.9443,0.305,-0.366,0.000,160.395,8.597,-79.623
60,-0.1504,0.3267,-0.9473,0.427,-0.427,0.183,160.406,8.597,-79.629
70,-0.1533,0.3276,-0.9458,0.305,-0.427,0.427,160.411,8.602,-79.634
80,-0.1577,0.3281,-0.9443,0.122,-0.366,0.610,160.417,8.608,-79.640
90,-0.1597,0.3320,-0.9473,-0.183,-0.183,0.671,160.417,8.613,-79.645
100,-0.1611,0.3315,-0.9468,-0.427,-0.061,0.732,160.411,8.613,-79.656
110,-0.1621,0.3345,-0.9438,-0.427,0.061,0.732,160.411,8.619,-79.662
120,-0.1606,0.3374,-0.9463,-0.305,0.061,0.793,160.406,8.619,-79.667
130,-0.1606,0.3359,-0.9458,0.000,0.000,0.793,160.406,8.619,-79.678
140,-0.1616,0.3379,-0.9434,0.122,-0.061,0.854,160.400,8.624,-79.684
150,-0.1606,0.3408,-0.9453,0.061,-0.122,0.854,160.400,8.624,-79.695
160,-0.1602,0.3433,-0.9448,-0.061,0.000,0.854,160.395,8.630,-79.700
170,-0.1577,0.3442,-0.9443,-0.183,0.183,0.793,160.389,8.624,-79.711
180,-0.1558,0.3467,-0.9409,-0.427,0.183,0.610,160.378,8.624,-79.711
190,-0.1572,0.3486,-0.9419,-0.488,0.183,0.366,160.362,8.624,-79.717
200,-0.1592,0.3477,-0.9414,-0.427,0.427,0.244,160.351,8.624,-79.717
210,-0.1592,0.3491,-0.9409,-0.366,0.732,-0.122,160.345,8.624,-79.717
220,-0.1572,0.3496,-0.9424,-0.244,0.977,-0.305,160.334,8.619,-79.706
230,-0.1577,0.3486,-0.9424,-0.061,1.221,-0.427,160.329,8.608,-79.700
240,-0.1582,0.3477,-0.9443,0.061,1.282,-0.488,160.323,8.602,-79.689
250,-0.1562,0.3452,-0.9468,0.122,1.343,-0.610,160.323,8.591,-79.678
260,-0.1543,0.3423,-0.9478,0.183,1.404,-0.793,160.323,8.586,-79.667
270,-0.1538,0.3408,-0.9458,0.000,1.343,-0.916,160.329,8.575,-79.656
280,-0.1514,0.3413,-0.9487,-0.122,1.282,-0.977,160.329,8.569,-79.640
290,-0.1499,0.3389,-0.9492,-0.183,1.221,-0.977,160.329,8.558,-79.629
300,-0.1484,0.3354,-0.9507,-0.061,1.221,-0.977,160.329,8.547,-79.612
311,-0.1499,0.3306,-0.9536,0.122,1.343,-0.916,160.340,8.536,-79.601
320,-0.1509,0.3306,-0.9536,0.061,1.343,-0.671,160.345,8.525,-79.590
330,-0.1494,0.3320,-0.9517,-0.122,1.099,-0.366,160.351,8.514,-79.585
340,-0.1509,0.3330,-0.9536,-0.305,0.793,-0.122,160.351,8.509,-79.579
350,-0.1509,0.3345,-0.9531,-0.244,0.549,0.000,160.351,8.503,-79.579
360,-0.1494,0.3350,-0.9517,0.061,0.610,0.122,160.356,8.498,-79.574
370,-0.1484,0.3306,-0.9526,0.244,0.671,0.183,160.362,8.487,-79.574
380,-0.1489,0.3311,-0.9526,0.183,0.732,0.305,160.373,8.481,-79.574
390,-0.1504,0.3345,-0.9531,-0.122,0.671,0.427,160.373,8.470,-79.579
400,-0.1509,0.3350,-0.9512,-0.366,0.488,0.610,160.367,8.465,-79.579
410,-0.1543,0.3403,-0.9526,-0.488,0.305,0.793,160.362,8.465,-79.590
420,-0.1562,0.3433,-0.9517,-0.488,0.000,0.732,160.356,8.465,-79.596
430,-0.1577,0.3452,-0.9487,-0.427,-0.305,0.671,160.345,8.470,-79.601
440,-0.1597,0.3462,-0.9497,-0.366,-0.427,0.488,160.340,8.476,-79.607
450,-0.1606,0.3462,-0.9458,-0.610,-0.549,0.305,160.329,8.487,-79.612
460,-0.1597,0.3472,-0.9443,-0.793,-0.488,0.061,160.312,8.498,-79.618
470,-0.1592,0.3467,-0.9434,-0.916,-0.244,-0.183,160.302,8.503,-79.612
480,-0.1577,0.3472,-0.9414,-0.793,0.061,-0.427,160.285,8.509,-79.612
490,-0.1572,0.3442,-0.9404,-0.549,0.427,-0.549,160.280,8.509,-79.601
500,-0.1572,0.3408,-0.9375,-0.366,0.732,-0.549,160.274,8.509,-79.596
510,-0.1567,0.3413,-0.9414,-0.122,0.916,-0.488,160.274,8.509,-79.590
520,-0.1558,0.3423,-0.9434,0.122,1.038,-0.488,160.274,8.503,-79.579
530,-0.1533,0.3408,-0.9443,0.183,1.343,-0.488,160.274,8.492,-79.568
540,-0.1519,0.3398,-0.9468,0.122,1.648,-0.671,160.280,8.481,-79.557
550,-0.1509,0.3374,-0.9468,-0.244,1.709,-0.854,160.280,8.470,-79.547
560,-0.1504,0.3359,-0.9497,-0.549,1.648,-0.916,160.274,8.454,-79.530
570,-0.1499,0.3340,-0.9507,-0.793,1.648,-0.732,160.274,8.443,-79.519
580,-0.1504,0.3325,-0.9521,-0.610,1.587,-0.610,160.274,8.432,-79.508
590,-0.1479,0.3315,-0.9531,-0.183,1.465,-0.488,160.280,8.416,-79.497
600,-0.1489,0.3320,-0.9517,0.122,1.282,-0.305,160.285,8.405,-79.492
610,-0.1450,0.3320,-0.9507,0.183,1.038,-0.122,160.296,8.394,-79.486
620,-0.1445,0.3350,-0.9541,0.061,1.221,0.000,160.296,8.383,-79.481
630,-0.1426,0.3379,-0.9521,-0.305,1.038,0.061,160.296,8.366,-79.481
640,-0.1421,0.3359,-0.9570,-0.061,1.282,-0.061,160.302,8.355,-79.475
650,-0.1450,0.3359,-0.9561,-0.061,1.160,-0.061,160.307,8.339,-79.470
660,-0.1465,0.3311,-0.9502,-0.061,0.854,0.000,160.307,8.333,-79.464
670,-0.1494,0.3281,-0.9487,0.061,0.610,0.061,160.318,8.328,-79.464
680,-0.1504,0.3320,-0.9478,-0.366,0.305,0.244,160.318,8.328,-79.464
690,-0.1514,0.3340,-0.9468,-0.488,0.244,0.488,160.312,8.322,-79.470
700,-0.1523,0.3359,-0.9419,-0.244,0.366,0.610,160.312,8.322,-79.475
710,-0.1533,0.3359,-0.9458,0.122,0.732,0.610,160.312,8.317,-79.475
720,-0.1509,0.3350,-0.9482,0.488,1.221,0.549,160.318,8.306,-79.481
730,-0.1460,0.3374,-0.9492,0.732,1.465,0.488,160.329,8.289,-79.481
740,-0.1450,0.3379,-0.9482,0.671,1.404,0.427,160.334,8.273,-79.475
750,-0.1445,0.3384,-0.9512,0.427,1.160,0.427,160.340,8.262,-79.475
760,-0.1484,0.3384,-0.9531,0.122,0.977,0.488,160.340,8.251,-79.481
770,-0.1509,0.3384,-0.9517,-0.061,1.038,0.549,160.340,8.240,-79.481
780,-0.1528,0.3394,-0.9502,-0.122,1.099,0.488,160.340,8.234,-79.481
790,-0.1528,0.3394,-0.9502,-0.183,0.854,0.488,160.340,8.229,-79.481
800,-0.1533,0.3379,-0.9497,-0.305,0.488,0.488,160.334,8.223,-79.486
811,-0.1504,0.3384,-0.9482,-0.488,0.183,0.549,160.329,8.223,-79.492
820,-0.1523,0.3389,-0.9473,-0.549,0.122,0.549,160.323,8.223,-79.497
830,-0.1533,0.3389,-0.9453,-0.488,0.366,0.549,160.318,8.223,-79.497
840,-0.1519,0.3394,-0.9443,-0.305,0.671,0.549,160.312,8.223,-79.503
850,-0.1494,0.3384,-0.9429,-0.183,0.854,0.549,160.312,8.212,-79.503
860,-0.1479,0.3413,-0.9434,-0.061,0.977,0.488,160.307,8.207,-79.508
870,-0.1475,0.3437,-0.9409,0.061,0.977,0.488,160.307,8.196,-79.508
880,-0.1494,0.3437,-0.9424,0.244,1.099,0.366,160.307,8.185,-79.508
890,-0.1475,0.3418,-0.9434,0.366,1.343,0.183,160.307,8.174,-79.503
900,-0.1484,0.3457,-0.9453,0.427,1.831,0.061,160.307,8.163,-79.497
910,-0.1470,0.3467,-0.9473,0.427,2.075,0.000,160.307,8.141,-79.492
920,-0.1465,0.3457,-0.9512,0.549,2.014,-0.122,160.312,8.124,-79.486
930,-0.1445,0.3433,-0.9575,0.732,1.770,-0.305,160.318,8.108,-79.475
940,-0.1440,0.3423,-0.9629,0.671,1.465,-0.366,160.329,8.097,-79.464
950,-0.1431,0.3403,-0.9624,0.366,1.160,-0.427,160.334,8.086,-79.459
960,-0.1421,0.3398,-0.9609,0.061,0.854,-0.488,160.340,8.075,-79.453
970,-0.1411,0.3374,-0.9600,0.000,0.488,-0.488,160.345,8.075,-79.453
980,-0.1401,0.3354,-0.9585,0.122,0.244,-0.549,160.351,8.069,-79.453
990,-0.1411,0.3325,-0.9575,0.122,-0.061,-0.488,160.356,8.069,-79.453
1000,-0.1440,0.3291,-0.9541,-0.061,-0.488,-0.244,160.362,8.075,-79.453
1010,-0.1440,0.3291,-0.9507,-0.366,-1.038,0.000,160.362,8.086,-79.453
1020,-0.1450,0.3311,-0.9463,-0.671,-1.404,0.244,160.356,8.102,-79.453
1030,-0.1440,0.3325,-0.9424,-0.549,-1.343,0.427,160.356,8.113,-79.453
1040,-0.1440,0.3325,-0.9390,-0.122,-0.916,0.610,160.351,8.119,-79.453
1050,-0.1431,0.3325,-0.9375,0.366,-0.183,0.732,160.356,8.119,-79.453
1060,-0.1440,0.3325,-0.9375,0.732,0.427,0.793,160.362,8.113,-79.453
1070,-0.1455,0.3306,-0.9414,0.854,0.793,0.916,160.373,8.108,-79.453
1080,-0.1450,0.3335,-0.9448,0.732,1.221,1.099,160.384,8.091,-79.459
1090,-0.1455,0.3398,-0.9482,0.549,1.343,1.221,160.384,8.075,-79.464
1100,-0.1450,0.3462,-0.9512,0.671,1.221,1.160,160.389,8.064,-79.470
1110,-0.1465,0.3457,-0.9556,0.854,0.793,0.977,160.395,8.053,-79.475
1120,-0.1460,0.3472,-0.9585,0.732,0.366,0.793,160.395,8.047,-79.486
1130,-0.1465,0.3457,-0.9595,0.549,0.061,0.671,160.400,8.047,-79.492
1140,-0.1475,0.3437,-0.9565,0.366,-0.061,0.488,160.400,8.047,-79.497
1150,-0.1484,0.3442,-0.9556,0.244,-0.061,0.366,160.400,8.047,-79.497
1160,-0.1470,0.3467,-0.9556,0.244,-0.183,0.305,160.400,8.053,-79.503
1170,-0.1465,0.3452,-0.9580,0.671,-0.427,0.244,160.400,8.058,-79.508
1180,-0.1465,0.3442,-0.9531,0.549,-0.732,0.122,160.406,8.064,-79.508
1190,-0.1465,0.3428,-0.9478,0.244,-1.099,0.000,160.406,8.075,-79.514
1200,-0.1455,0.3437,-0.9458,-0.122,-1.343,-0.122,160.400,8.091,-79.519
1210,-0.1445,0.3433,-0.9443,-0.366,-1.221,-0.183,160.389,8.102,-79.519
1220,-0.1465,0.3403,-0.9419,-0.305,-0.854,-0.305,160.384,8.113,-79.519
1230,-0.1470,0.3369,-0.9395,0.000,-0.305,-0.305,160.384,8.124,-79.519
1240,-0.1479,0.3340,-0.9365,0.305,0.183,-0.183,160.389,8.124,-79.514
1250,-0.1484,0.3311,-0.9404,0.549,0.305,-0.061,160.395,8.124,-79.514
1260,-0.1509,0.3345,-0.9453,0.671,0.366,0.061,160.400,8.124,-79.514
1270,-0.1479,0.3379,-0.9443,0.549,0.366,0.122,160.406,8.124,-79.514
1280,-0.1489,0.3403,-0.9497,0.610,0.549,0.122,160.411,8.124,-79.514
1291,-0.1479,0.3408,-0.9551,0.671,0.732,0.061,160.417,8.119,-79.508
1300,-0.1460,0.3413,-0.9536,0.610,0.732,-0.061,160.422,8.113,-79.508
1311,-0.1460,0.3408,-0.9546,0.488,0.549,-0.061,160.428,8.108,-79.503
1320,-0.1479,0.3364,-0.9531,0.366,0.244,-0.122,160.433,8.108,-79.503
1330,-0.1484,0.3350,-0.9507,0.366,0.000,-0.183,160.439,8.108,-79.503
1340,-0.1479,0.3369,-0.9492,0.366,-0.183,-0.244,160.444,8.113,-79.497
1350,-0.1479,0.3364,-0.9478,0.244,-0.305,-0.122,160.444,8.119,-79.497
1360,-0.1484,0.3359,-0.9473,0.305,-0.305,-0.061,160.450,8.124,-79.497
1370,-0.1479,0.3350,-0.9473,0.427,-0.122,-0.122,160.455,8.130,-79.497
1380,-0.1509,0.3364,-0.9478,0.488,0.122,-0.183,160.461,8.135,-79.497
1390,-0.1494,0.3359,-0.9482,0.549,0.427,-0.122,160.466,8.135,-79.492
1400,-0.1484,0.3364,-0.9478,0.671,0.671,-0.061,160.472,8.130,-79.492
1410,-0.1450,0.3359,-0.9512,0.671,0.732,0.061,160.477,8.124,-79.492
1420,-0.1460,0.3384,-0.9521,0.549,0.671,0.000,160.483,8.119,-79.486
1430,-0.1455,0.3379,-0.9517,0.427,0.610,-0.061,160.488,8.113,-79.486
1440,-0.1445,0.3350,-0.9512,0.183,0.305,-0.122,160.494,8.113,-79.481
1451,-0.1470,0.3350,-0.9526,-0.244,0.122,-0.183,160.494,8.113,-79.481
1461,-0.1484,0.3359,-0.9517,-0.549,0.122,-0.122,160.488,8.113,-79.481
1471,-0.1450,0.3359,-0.9521,-0.488,0.305,-0.061,160.483,8.113,-79.475
1481,-0.1450,0.3354,-0.9502,-0.244,0.366,-0.061,160.483,8.108,-79.475
1491,-0.1455,0.3359,-0.9492,0.061,0.183,-0.061,160.483,8.108,-79.475
1500,-0.1450,0.3354,-0.9507,0.000,-0.061,0.000,160.483,8.113,-79.475
1511,-0.1450,0.3369,-0.9507,-0.305,-0.305,0.000,160.483,8.113,-79.475
1521,-0.1450,0.3403,-0.9492,-0.488,-0.488,-0.061,160.472,8.119,-79.475
1531,-0.1470,0.3433,-0.9497,-0.610,-0.549,-0.122,160.466,8.130,-79.475
1541,-0.1460,0.3447,-0.9502,-0.549,-0.549,-0.183,160.455,8.135,-79.475
1551,-0.1445,0.3477,-0.9507,-0.305,-0.366,-0.305,160.444,8.141,-79.475
1561,-0.1440,0.3462,-0.9526,-0.122,-0.244,-0.549,160.439,8.141,-79.470
1571,-0.1445,0.3457,-0.9546,0.061,-0.061,-0.732,160.439,8.146,-79.464
1581,-0.1440,0.3403,-0.9531,0.183,0.122,-0.854,160.439,8.146,-79.453
1591,-0.1436,0.3374,-0.9517,0.061,0.000,-0.916,160.444,8.146,-79.448
1601,-0.1445,0.3354,-0.9521,-0.183,-0.244,-0.854,160.444,8.152,-79.437
1611,-0.1470,0.3345,-0.9536,-0.366,-0.488,-0.793,160.444,8.163,-79.431
1621,-0.1460,0.3345,-0.9561,-0.244,-0.610,-0.671,160.444,8.168,-79.431
1631,-0.1450,0.3340,-0.9551,0.061,-0.671,-0.671,160.450,8.179,-79.426
1641,-0.1455,0.3330,-0.9551,0.366,-0.732,-0.549,160.455,8.185,-79.420
1651,-0.1460,0.3301,-0.9526,0.427,-0.793,-0.366,160.466,8.196,-79.420
1661,-0.1479,0.3291,-0.9502,0.244,-0.916,-0.305,160.472,8.207,-79.420
1671,-0.1475,0.3286,-0.9512,0.000,-1.099,-0.305,160.477,8.218,-79.420
1681,-0.1484,0.3296,-0.9512,-0.305,-1.221,-0.244,160.477,8.234,-79.426
1691,-0.1514,0.3301,-0.9497,-0.488,-1.404,-0.122,160.477,8.251,-79.426
1701,-0.1509,0.3335,-0.9487,-0.549,-1.465,0.061,160.472,8.267,-79.431
1711,-0.1514,0.3354,-0.9502,-0.366,-1.282,0.183,160.466,8.284,-79.437
1721,-0.1543,0.3398,-0.9468,-0.366,-1.221,0.244,160.461,8.295,-79.448
1731,-0.1567,0.3403,-0.9453,-0.244,-1.282,0.244,160.455,8.311,-79.453
1741,-0.1582,0.3428,-0.9453,-0.244,-1.343,0.183,160.444,8.333,-79.459
1751,-0.1592,0.3457,-0.9458,-0.244,-1.282,0.061,160.439,8.350,-79.464
1761,-0.1582,0.3472,-0.9448,-0.122,-1.160,-0.061,160.428,8.366,-79.464
1771,-0.1577,0.3477,-0.9443,0.000,-0.916,-0.305,160.422,8.383,-79.470
1781,-0.1577,0.3462,-0.9458,0.000,-0.610,-0.549,160.417,8.394,-79.464
1791,-0.1558,0.3472,-0.9458,-0.244,-0.488,-0.793,160.411,8.405,-79.459
1801,-0.1572,0.3467,-0.9453,-0.366,-0.427,-0.977,160.406,8.416,-79.448
1811,-0.1558,0.3442,-0.9434,-0.427,-0.305,-1.099,160.395,8.427,-79.442
1821,-0.1567,0.3398,-0.9448,-0.427,-0.122,-1.221,160.389,8.438,-79.431
1831,-0.1567,0.3379,-0.9429,-0.366,-0.122,-1.282,160.389,8.448,-79.420
1841,-0.1562,0.3354,-0.9438,-0.305,-0.183,-1.282,160.389,8.459,-79.404
1851,-0.1543,0.3340,-0.9453,-0.183,-0.183,-1.282,160.389,8.465,-79.393
1861,-0.1523,0.3320,-0.9443,-0.305,-0.061,-1.221,160.389,8.470,-79.382
1871,-0.1509,0.3315,-0.9438,-0.366,0.183,-1.099,160.389,8.476,-79.371
1881,-0.1494,0.3301,-0.9458,-0.305,0.488,-0.977,160.395,8.476,-79.360
1891,-0.1504,0.3315,-0.9453,-0.122,0.793,-0.854,160.395,8.470,-79.349
1901,-0.1489,0.3301,-0.9468,0.244,0.977,-0.732,160.406,8.465,-79.338
1911,-0.1489,0.3276,-0.9502,0.305,1.160,-0.488,160.411,8.454,-79.332
1921,-0.1465,0.3311,-0.9536,0.305,1.221,-0.244,160.422,8.443,-79.327
1931,-0.1489,0.3306,-0.9565,0.183,1.099,-0.122,160.428,8.432,-79.321
1941,-0.1470,0.3320,-0.9595,0.061,0.793,0.061,160.433,8.421,-79.316
1951,-0.1465,0.3350,-0.9624,-0.061,0.427,0.122,160.439,8.416,-79.316
1961,-0.1475,0.3359,-0.9619,-0.244,0.061,0.122,160.439,8.410,-79.316
1971,-0.1475,0.3379,-0.9609,-0.366,-0.366,0.000,160.439,8.416,-79.321
1981,-0.1470,0.3384,-0.9614,-0.366,-0.732,-0.061,160.433,8.421,-79.321
1991,-0.1499,0.3345,-0.9561,-0.366,-1.099,-0.122,160.433,8.427,-79.327
2001,-0.1519,0.3345,-0.9541,-0.549,-1.404,-0.061,160.428,8.443,-79.327
2011,-0.1533,0.3359,-0.9487,-0.732,-1.587,-0.061,160.422,8.459,-79.332
2021,-0.1538,0.3350,-0.9424,-0.610,-1.587,0.000,160.417,8.476,-79.338
2031,-0.1543,0.3330,-0.9409,-0.183,-1.282,-0.122,160.417,8.492,-79.343
2041,-0.1548,0.3315,-0.9409,0.183,-0.977,-0.183,160.417,8.509,-79.343
2051,-0.1548,0.3296,-0.9395,0.366,-0.610,-0.183,160.422,8.514,-79.343
2060,-0.1519,0.3281,-0.9409,0.549,-0.305,0.000,160.433,8.520,-79.343
2071,-0.1538,0.3262,-0.9448,0.610,0.000,0.244,160.444,8.520,-79.349
2081,-0.1533,0.3276,-0.9414,0.366,0.244,0.427,160.450,8.520,-79.349
2091,-0.1548,0.3296,-0.9395,0.305,0.366,0.671,160.455,8.520,-79.354
2101,-0.1562,0.3306,-0.9468,0.366,0.488,0.793,160.461,8.514,-79.360
2111,-0.1553,0.3325,-0.9507,0.427,0.732,0.916,160.466,8.509,-79.365
2121,-0.1548,0.3340,-0.9487,0.488,0.916,0.854,160.472,8.498,-79.371
2131,-0.1553,0.3369,-0.9512,0.488,0.977,0.854,160.477,8.487,-79.376
2141,-0.1558,0.3384,-0.9517,0.305,0.671,0.854,160.477,8.481,-79.382
2151,-0.1558,0.3394,-0.9565,-0.061,0.305,0.793,160.477,8.481,-79.387
2161,-0.1582,0.3418,-0.9546,-0.305,0.000,0.671,160.472,8.481,-79.398
2171,-0.1597,0.3413,-0.9517,-0.366,-0.244,0.549,160.466,8.487,-79.404
2181,-0.1577,0.3442,-0.9487,-0.305,-0.305,0.305,160.455,8.492,-79.404
2191,-0.1587,0.3447,-0.9448,-0.183,-0.305,0.122,160.450,8.498,-79.409
2201,-0.1567,0.3428,-0.9448,-0.183,-0.244,-0.061,160.444,8.503,-79.409
2211,-0.1572,0.3403,-0.9438,-0.244,-0.061,-0.183,160.439,8.509,-79.409
2221,-0.1558,0.3428,-0.9404,-0.366,0.122,-0.305,160.433,8.514,-79.404
2231,-0.1548,0.3398,-0.9399,-0.427,0.366,-0.305,160.422,8.514,-79.398
2241,-0.1553,0.3413,-0.9395,-0.366,0.610,-0.305,160.417,8.514,-79.393
2251,-0.1514,0.3418,-0.9409,-0.122,0.793,-0.244,160.411,8.509,-79.387
2261,-0.1523,0.3418,-0.9429,0.183,0.977,-0.244,160.411,8.498,-79.382
2271,-0.1519,0.3408,-0.9487,0.305,1.221,-0.244,160.417,8.492,-79.376
2281,-0.1519,0.3403,-0.9487,0.305,1.465,-0.305,160.417,8.476,-79.371
2291,-0.1514,0.3408,-0.9526,0.244,1.526,-0.427,160.422,8.465,-79.360
2301,-0.1489,0.3413,-0.9561,0.305,1.526,-0.610,160.422,8.454,-79.349
2311,-0.1455,0.3418,-0.9634,0.366,1.404,-0.732,160.428,8.438,-79.338
2321,-0.1421,0.3369,-0.9668,0.305,1.160,-0.854,160.439,8.427,-79.327
2331,-0.1440,0.3335,-0.9644,0.061,0.488,-0.916,160.444,8.421,-79.316
2341,-0.1450,0.3335,-0.9648,-0.427,-0.305,-0.854,160.444,8.421,-79.310
2351,-0.1475,0.3311,-0.9629,-0.732,-1.099,-0.732,160.444,8.432,-79.305
2361,-0.1479,0.3311,-0.9570,-0.793,-1.404,-0.671,160.444,8.448,-79.305
2371,-0.1475,0.3296,-0.9536,-0.671,-1.343,-0.427,160.439,8.459,-79.305
2381,-0.1470,0.3306,-0.9497,-0.488,-1.221,-0.183,160.439,8.470,-79.305
2391,-0.1475,0.3286,-0.9473,-0.427,-1.282,0.000,160.439,8.481,-79.310
2401,-0.1494,0.3301,-0.9473,-0.488,-1.221,0.183,160.439,8.492,-79.316
2411,-0.1514,0.3311,-0.9429,-0.549,-0.977,0.244,160.433,8.503,-79.321
2421,-0.1509,0.3330,-0.9438,-0.427,-0.671,0.305,160.428,8.509,-79.327
2431,-0.1509,0.3350,-0.9419,-0.183,-0.366,0.427,160.428,8.509,-79.332
2441,-0.1523,0.3345,-0.9448,0.061,-0.183,0.549,160.428,8.509,-79.338
2451,-0.1519,0.3340,-0.9448,0.244,-0.183,0.671,160.428,8.509,-79.343
2461,-0.1543,0.3350,-0.9434,0.305,-0.183,0.793,160.433,8.514,-79.354
2471,-0.1548,0.3350,-0.9438,0.244,-0.244,0.793,160.433,8.514,-79.360
2481,-0.1572,0.3364,-0.9434,0.183,-0.061,0.916,160.433,8.514,-79.371
2491,-0.1562,0.3413,-0.9468,0.183,0.183,0.854,160.428,8.514,-79.376
2501,-0.1572,0.3418,-0.9453,0.305,0.305,0.793,160.428,8.514,-79.387
2511,-0.1602,0.3423,-0.9473,0.488,0.244,0.671,160.428,8.514,-79.393
2521,-0.1577,0.3452,-0.9478,0.427,0.122,0.610,160.428,8.514,-79.398
2531,-0.1587,0.3447,-0.9478,0.366,0.000,0.549,160.428,8.520,-79.404
2541,-0.1562,0.3477,-0.9473,0.244,-0.122,0.366,160.422,8.520,-79.404
2551,-0.1558,0.3467,-0.9497,0.122,0.000,0.122,160.422,8.520,-79.404
2561,-0.1562,0.3462,-0.9487,0.000,0.122,-0.061,160.417,8.525,-79.404
2571,-0.1553,0.3452,-0.9512,-0.122,0.183,-0.244,160.411,8.525,-79.404
2581,-0.1553,0.3442,-0.9482,-0.122,0.183,-0.427,160.406,8.525,-79.398
2591,-0.1538,0.3433,-0.9453,-0.061,-0.061,-0.549,160.406,8.531,-79.393
2601,-0.1543,0.3403,-0.9482,-0.122,-0.122,-0.671,160.400,8.536,-79.387
2611,-0.1553,0.3394,-0.9482,-0.183,-0.122,-0.732,160.400,8.542,-79.382
2621,-0.1548,0.3384,-0.9478,-0.305,0.061,-0.671,160.395,8.547,-79.371
2631,-0.1543,0.3379,-0.9497,-0.244,0.183,-0.671,160.395,8.547,-79.365
2641,-0.1548,0.3364,-0.9468,0.000,0.183,-0.610,160.395,8.553,-79.360
2651,-0.1567,0.3335,-0.9487,0.122,0.061,-0.549,160.400,8.553,-79.354
2661,-0.1553,0.3354,-0.9482,-0.061,-0.122,-0.610,160.400,8.558,-79.349
2671,-0.1538,0.3374,-0.9492,-0.366,-0.183,-0.610,160.400,8.564,-79.343
2681,-0.1528,0.3389,-0.9463,-0.427,-0.183,-0.549,160.395,8.569,-79.338
2691,-0.1519,0.3408,-0.9463,-0.366,-0.122,-0.549,160.389,8.575,-79.332
2701,-0.1523,0.3403,-0.9473,-0.122,-0.122,-0.610,160.389,8.575,-79.327
2711,-0.1523,0.3389,-0.9492,0.122,0.000,-0.732,160.389,8.580,-79.321
2721,-0.1528,0.3345,-0.9497,0.305,0.183,-0.732,160.395,8.580,-79.316
2731,-0.1533,0.3335,-0.9497,0.122,0.122,-0.671,160.400,8.580,-79.310
2741,-0.1548,0.3330,-0.9468,-0.244,-0.061,-0.610,160.400,8.586,-79.299
2751,-0.1543,0.3315,-0.9487,-0.183,-0.122,-0.549,160.406,8.591,-79.299
2761,-0.1558,0.3315,-0.9487,-0.061,0.061,-0.427,160.406,8.591,-79.294
2771,-0.1558,0.3315,-0.9482,0.061,0.244,-0.305,160.411,8.597,-79.288
2781,-0.1538,0.3311,-0.9482,0.183,0.366,-0.183,160.417,8.591,-79.288
2791,-0.1519,0.3330,-0.9497,0.244,0.305,-0.122,160.422,8.591,-79.283
2801,-0.1538,0.3335,-0.9502,0.061,0.183,-0.061,160.428,8.591,-79.283
2811,-0.1553,0.3345,-0.9487,-0.061,0.000,-0.061,160.428,8.591,-79.283
2821,-0.1553,0.3330,-0.9463,-0.061,-0.122,-0.122,160.428,8.597,-79.283
2831,-0.1548,0.3325,-0.9482,-0.061,-0.061,-0.122,160.428,8.597,-79.283
2841,-0.1543,0.3340,-0.9478,-0.244,0.000,-0.122,160.428,8.597,-79.277
2851,-0.1562,0.3335,-0.9463,-0.244,0.000,-0.122,160.428,8.602,-79.277
2861,-0.1548,0.3345,-0.9458,-0.183,-0.061,-0.061,160.428,8.602,-79.277
2870,-0.1528,0.3340,-0.9453,-0.183,0.000,0.000,160.428,8.608,-79.277
2881,-0.1543,0.3345,-0.9453,-0.122,0.122,0.061,160.428,8.608,-79.277
2891,-0.1548,0.3379,-0.9443,0.000,0.183,0.061,160.428,8.608,-79.277
2901,-0.1528,0.3398,-0.9404,0.244,0.244,0.000,160.428,8.602,-79.277
2911,-0.1543,0.3418,-0.9448,0.366,0.427,-0.122,160.428,8.602,-79.277
2921,-0.1528,0.3423,-0.9473,0.488,0.610,-0.244,160.428,8.597,-79.277
2931,-0.1528,0.3398,-0.9473,0.427,0.854,-0.366,160.433,8.591,-79.277
2941,-0.1538,0.3394,-0.9497,0.244,1.099,-0.488,160.433,8.580,-79.277
2951,-0.1528,0.3389,-0.9502,0.244,1.160,-0.610,160.439,8.575,-79.277
2961,-0.1533,0.3364,-0.9526,0.305,1.099,-0.732,160.444,8.569,-79.277
2971,-0.1514,0.3335,-0.9580,0.366,0.977,-0.793,160.455,8.558,-79.277
2981,-0.1533,0.3306,-0.9575,0.183,0.732,-0.671,160.461,8.558,-79.277
2991,-0.1514,0.3281,-0.9556,-0.122,0.305,-0.366,160.466,8.553,-79.277
3001,-0.1533,0.3301,-0.9531,-0.305,-0.183,-0.122,160.466,8.558,-79.277
3011,-0.1514,0.3330,-0.9502,-0.427,-0.610,0.122,160.466,8.564,-79.277
3021,-0.1543,0.3374,-0.9478,-0.244,-0.610,0.244,160.461,8.569,-79.277
3031,-0.1548,0.3384,-0.9458,0.061,-0.366,0.305,160.461,8.575,-79.277
3041,-0.1523,0.3389,-0.9448,0.244,-0.122,0.244,160.461,8.575,-79.277
3051,-0.1543,0.3384,-0.9458,0.305,-0.061,0.183,160.461,8.575,-79.277
3061,-0.1567,0.3389,-0.9473,0.183,-0.122,0.122,160.461,8.580,-79.277
3071,-0.1582,0.3433,-0.9487,0.122,0.000,0.122,160.461,8.580,-79.277
3081,-0.1572,0.3447,-0.9512,0.122,0.244,-0.061,160.455,8.580,-79.277
3091,-0.1587,0.3442,-0.9517,0.244,0.366,-0.244,160.455,8.580,-79.277
3101,-0.1582,0.3442,-0.9546,0.305,0.244,-0.366,160.455,8.586,-79.277
3111,-0.1592,0.3389,-0.9551,0.183,-0.061,-0.549,160.461,8.591,-79.277
3121,-0.1606,0.3364,-0.9517,-0.122,-0.305,-0.671,160.461,8.602,-79.277
3131,-0.1587,0.3364,-0.9502,-0.244,-0.549,-0.732,160.461,8.613,-79.277
3141,-0.1572,0.3350,-0.9502,-0.305,-0.671,-0.732,160.455,8.624,-79.277
3151,-0.1562,0.3330,-0.9468,-0.122,-0.610,-0.732,160.461,8.630,-79.277
3161,-0.1553,0.3306,-0.9478,-0.061,-0.427,-0.732,160.461,8.641,-79.277
3171,-0.1548,0.3301,-0.9438,0.000,-0.427,-0.671,160.466,8.646,-79.277
3181,-0.1523,0.3276,-0.9443,-0.122,-0.366,-0.549,160.466,8.652,-79.277
3191,-0.1543,0.3301,-0.9434,-0.305,-0.244,-0.488,160.466,8.657,-79.277
3201,-0.1562,0.3291,-0.9434,-0.305,-0.122,-0.305,160.466,8.663,-79.277
3211,-0.1553,0.3267,-0.9458,-0.061,0.183,-0.183,160.472,8.663,-79.277
3221,-0.1553,0.3286,-0.9473,0.122,0.488,-0.061,160.477,8.663,-79.277
3231,-0.1562,0.3291,-0.9473,0.183,0.610,0.122,160.483,8.657,-79.277
3241,-0.1558,0.3311,-0.9478,0.061,0.549,0.305,160.488,8.652,-79.277
3251,-0.1543,0.3315,-0.9502,-0.061,0.305,0.366,160.488,8.646,-79.277
3261,-0.1572,0.3335,-0.9526,-0.183,0.183,0.427,160.488,8.646,-79.277
3271,-0.1562,0.3379,-0.9531,-0.366,0.061,0.488,160.483,8.646,-79.277
3281,-0.1538,0.3418,-0.9487,-0.305,0.061,0.549,160.477,8.646,-79.277
3291,-0.1562,0.3437,-0.9468,-0.061,0.000,0.488,160.472,8.646,-79.277
3301,-0.1572,0.3423,-0.9473,0.122,-0.122,0.305,160.472,8.646,-79.277
3311,-0.1553,0.3423,-0.9448,0.183,-0.183,0.061,160.466,8.652,-79.277
3321,-0.1538,0.3398,-0.9443,0.000,-0.061,0.000,160.466,8.652,-79.277
3331,-0.1548,0.3398,-0.9473,-0.183,0.183,0.000,160.461,8.652,-79.277
3341,-0.1538,0.3408,-0.9453,-0.122,0.549,0.000,160.455,8.646,-79.277
3351,-0.1523,0.3398,-0.9487,0.244,0.793,-0.061,160.455,8.635,-79.277
3361,-0.1509,0.3369,-0.9541,0.671,0.916,0.000,160.466,8.630,-79.277
3371,-0.1489,0.3384,-0.9546,0.854,0.854,0.122,160.477,8.619,-79.277
3381,-0.1489,0.3379,-0.9570,0.793,0.610,0.183,160.483,8.608,-79.277
3391,-0.1494,0.3379,-0.9600,0.488,0.305,0.183,160.488,8.602,-79.277
3401,-0.1499,0.3379,-0.9590,0.183,-0.122,0.183,160.494,8.602,-79.277
3411,-0.1553,0.3364,-0.9570,0.000,-0.366,0.183,160.494,8.602,-79.277
3421,-0.1577,0.3335,-0.9531,-0.122,-0.549,0.183,160.494,8.613,-79.277
3431,-0.1602,0.3306,-0.9507,-0.122,-0.671,0.244,160.494,8.619,-79.277
3441,-0.1602,0.3315,-0.9478,0.000,-0.793,0.305,160.494,8.630,-79.277
3451,-0.1631,0.3291,-0.9468,0.061,-0.916,0.366,160.499,8.646,-79.277
3461,-0.1636,0.3271,-0.9443,0.244,-0.977,0.549,160.505,8.657,-79.277
3471,-0.1631,0.3237,-0.9448,0.427,-0.854,0.610,160.510,8.674,-79.277
3481,-0.1602,0.3267,-0.9424,0.488,-0.610,0.671,160.521,8.679,-79.277
3491,-0.1606,0.3286,-0.9438,0.427,-0.427,0.854,160.527,8.685,-79.277
3501,-0.1602,0.3286,-0.9443,0.488,-0.244,0.916,160.532,8.690,-79.277
3511,-0.1597,0.3315,-0.9434,0.671,0.000,0.977,160.538,8.690,-79.277
3521,-0.1592,0.3325,-0.9434,0.671,0.244,0.854,160.543,8.685,-79.277
3531,-0.1567,0.3359,-0.9463,0.671,0.610,0.793,160.549,8.679,-79.277
3541,-0.1553,0.3374,-0.9478,0.610,0.793,0.671,160.554,8.674,-79.277
3551,-0.1558,0.3374,-0.9492,0.366,0.977,0.549,160.554,8.663,-79.277
3561,-0.1548,0.3394,-0.9521,0.061,0.854,0.366,160.554,8.652,-79.277
3571,-0.1548,0.3403,-0.9541,-0.244,0.549,0.183,160.549,8.646,-79.277
3581,-0.1562,0.3418,-0.9536,-0.610,0.061,-0.061,160.543,8.652,-79.277
3591,-0.1587,0.3423,-0.9561,-0.916,-0.305,-0.305,160.532,8.657,-79.277
3601,-0.1577,0.3452,-0.9546,-1.099,-0.427,-0.427,160.516,8.663,-79.277
3611,-0.1567,0.3452,-0.9551,-1.160,-0.549,-0.488,160.499,8.668,-79.277
3621,-0.1577,0.3418,-0.9502,-1.038,-0.732,-0.671,160.488,8.679,-79.277
3631,-0.1548,0.3408,-0.9473,-1.038,-0.916,-0.732,160.477,8.690,-79.277
3641,-0.1577,0.3403,-0.9443,-1.221,-0.977,-0.732,160.461,8.707,-79.277
3651,-0.1538,0.3403,-0.9429,-1.343,-0.916,-0.671,160.444,8.718,-79.277
3661,-0.1533,0.3374,-0.9414,-1.282,-0.610,-0.671,160.433,8.723,-79.277
3671,-0.1538,0.3389,-0.9399,-1.099,-0.061,-0.671,160.417,8.729,-79.277
3681,-0.1528,0.3384,-0.9375,-0.671,0.427,-0.610,160.411,8.729,-79.277
3691,-0.1528,0.3359,-0.9404,-0.244,0.793,-0.427,160.406,8.718,-79.277
3701,-0.1499,0.3354,-0.9438,0.000,0.916,-0.183,160.411,8.712,-79.277
3711,-0.1494,0.3369,-0.9463,0.244,1.038,-0.061,160.411,8.696,-79.277
3721,-0.1499,0.3359,-0.9521,0.366,1.160,0.000,160.417,8.685,-79.277
3731,-0.1499,0.3364,-0.9556,0.366,1.160,-0.061,160.422,8.674,-79.277
3741,-0.1504,0.3374,-0.9541,0.244,0.977,0.000,160.428,8.663,-79.277
3751,-0.1538,0.3374,-0.9561,0.122,0.671,0.000,160.433,8.652,-79.277
3761,-0.1548,0.3369,-0.9585,0.000,0.244,0.061,160.433,8.652,-79.277
3771,-0.1548,0.3359,-0.9541,-0.122,0.000,0.122,160.433,8.652,-79.277
3781,-0.1567,0.3369,-0.9526,-0.122,-0.305,0.183,160.433,8.657,-79.277
3791,-0.1597,0.3384,-0.9487,-0.122,-0.549,0.244,160.428,8.663,-79.277
3801,-0.1597,0.3413,-0.9458,-0.122,-0.610,0.305,160.428,8.674,-79.277
3811,-0.1602,0.3398,-0.9458,0.122,-0.427,0.305,160.422,8.679,-79.277
3821,-0.1616,0.3403,-0.9448,0.244,-0.305,0.122,160.422,8.685,-79.277
3831,-0.1626,0.3408,-0.9453,0.122,-0.122,-0.061,160.422,8.690,-79.277
3841,-0.1636,0.3408,-0.9409,-0.122,0.061,-0.183,160.417,8.696,-79.277
3851,-0.1650,0.3442,-0.9429,-0.305,0.183,-0.244,160.411,8.701,-79.277
3861,-0.1655,0.3442,-0.9419,-0.366,0.305,-0.366,160.400,8.707,-79.277
3871,-0.1650,0.3437,-0.9434,-0.244,0.427,-0.549,160.395,8.712,-79.277
3881,-0.1650,0.3423,-0.9453,-0.122,0.610,-0.793,160.395,8.718,-79.277
3891,-0.1655,0.3394,-0.9453,-0.122,0.732,-0.916,160.395,8.718,-79.277
3901,-0.1655,0.3398,-0.9438,-0.305,0.732,-1.038,160.389,8.723,-79.266
3911,-0.1660,0.3379,-0.9453,-0.488,0.732,-1.099,160.389,8.723,-79.250
3921,-0.1660,0.3389,-0.9453,-0.732,0.671,-1.160,160.378,8.729,-79.239
3931,-0.1621,0.3369,-0.9473,-0.732,0.732,-1.282,160.378,8.729,-79.222
3941,-0.1616,0.3374,-0.9463,-0.732,0.793,-1.343,160.373,8.734,-79.211
3951,-0.1587,0.3364,-0.9492,-0.488,0.977,-1.465,160.367,8.729,-79.189
3961,-0.1606,0.3330,-0.9468,-0.244,1.038,-1.587,160.373,8.729,-79.173
3971,-0.1577,0.3271,-0.9502,-0.427,0.977,-1.526,160.378,8.729,-79.156
3981,-0.1533,0.3281,-0.9507,-0.732,1.038,-1.465,160.378,8.723,-79.140
3991,-0.1523,0.3281,-0.9526,-0.732,0.977,-1.282,160.378,8.718,-79.124
4001,-0.1484,0.3252,-0.9517,-0.305,0.916,-1.038,160.384,8.707,-79.107
4011,-0.1494,0.3271,-0.9541,-0.244,0.916,-0.854,160.395,8.701,-79.096
4021,-0.1475,0.3276,-0.9507,0.122,0.671,-0.610,160.400,8.690,-79.091
4031,-0.1465,0.3281,-0.9531,0.244,0.549,-0.366,160.411,8.685,-79.085
4041,-0.1460,0.3276,-0.9531,0.122,0.427,-0.183,160.417,8.674,-79.080
4051,-0.1460,0.3271,-0.9546,-0.244,0.183,-0.061,160.422,8.668,-79.080
4061,-0.1509,0.3257,-0.9556,-0.427,0.061,0.061,160.428,8.668,-79.080
4071,-0.1543,0.3267,-0.9512,-0.488,0.061,0.244,160.428,8.668,-79.085
4081,-0.1533,0.3296,-0.9512,-0.610,0.061,0.427,160.422,8.663,-79.085
4091,-0.1543,0.3291,-0.9502,-0.549,0.000,0.610,160.422,8.663,-79.091
4101,-0.1553,0.3325,-0.9487,-0.366,-0.183,0.793,160.422,8.663,-79.102
4111,-0.1553,0.3354,-0.9478,-0.244,-0.366,0.854,160.417,8.663,-79.113
4121,-0.1548,0.3384,-0.9463,-0.122,-0.366,0.916,160.411,8.663,-79.118
4131,-0.1553,0.3374,-0.9443,-0.061,-0.244,0.854,160.411,8.668,-79.129
4141,-0.1553,0.3389,-0.9453,-0.061,0.061,0.793,160.406,8.663,-79.135
4151,-0.1548,0.3403,-0.9458,0.000,0.427,0.732,160.406,8.657,-79.140
4161,-0.1558,0.3403,-0.9438,0.061,0.671,0.610,160.400,8.652,-79.146
4171,-0.1543,0.3423,-0.9458,0.122,0.610,0.549,160.400,8.646,-79.151
4181,-0.1567,0.3413,-0.9492,0.183,0.488,0.488,160.400,8.641,-79.151
4191,-0.1572,0.3452,-0.9507,0.122,0.427,0.427,160.395,8.635,-79.156
4201,-0.1567,0.3447,-0.9507,0.122,0.488,0.427,160.395,8.635,-79.156
4211,-0.1587,0.3437,-0.9487,0.183,0.549,0.305,160.395,8.630,-79.156
4221,-0.1562,0.3442,-0.9502,0.122,0.549,0.183,160.389,8.624,-79.156
4231,-0.1562,0.3442,-0.9502,-0.061,0.305,0.122,160.389,8.624,-79.156
4241,-0.1582,0.3418,-0.9497,-0.244,0.000,0.061,160.384,8.624,-79.156
4251,-0.1582,0.3423,-0.9526,-0.366,-0.122,-0.122,160.378,8.630,-79.156
4261,-0.1558,0.3428,-0.9482,-0.305,0.122,-0.244,160.373,8.630,-79.156
4271,-0.1519,0.3408,-0.9482,-0.061,0.488,-0.366,160.373,8.630,-79.151
4281,-0.1528,0.3389,-0.9478,0.183,0.610,-0.549,160.373,8.624,-79.140
4291,-0.1538,0.3359,-0.9497,0.305,0.427,-0.549,160.378,8.624,-79.135
4301,-0.1548,0.3354,-0.9482,0.122,0.244,-0.427,160.384,8.624,-79.129
4312,-0.1548,0.3335,-0.9463,-0.061,0.122,-0.244,160.384,8.624,-79.129
4321,-0.1548,0.3379,-0.9482,-0.183,0.183,-0.183,160.384,8.624,-79.124
4331,-0.1538,0.3364,-0.9521,-0.183,0.366,-0.122,160.384,8.624,-79.124
4341,-0.1543,0.3384,-0.9526,-0.183,0.610,0.000,160.384,8.619,-79.124
4351,-0.1548,0.3394,-0.9507,-0.061,0.610,0.061,160.384,8.613,-79.118
4361,-0.1533,0.3384,-0.9526,0.061,0.488,0.061,160.384,8.608,-79.118
4371,-0.1533,0.3374,-0.9565,0.122,0.244,-0.061,160.389,8.602,-79.118
4381,-0.1528,0.3384,-0.9575,0.183,0.061,-0.061,160.389,8.602,-79.118
4391,-0.1548,0.3394,-0.9561,0.061,-0.183,-0.122,160.389,8.608,-79.118
4401,-0.1553,0.3384,-0.9561,-0.122,-0.427,-0.183,160.389,8.613,-79.118
4411,-0.1538,0.3384,-0.9536,-0.305,-0.732,-0.244,160.389,8.619,-79.118
4421,-0.1509,0.3389,-0.9512,-0.427,-1.038,-0.183,160.384,8.630,-79.118
4431,-0.1528,0.3394,-0.9478,-0.427,-1.221,-0.061,160.378,8.641,-79.124
4441,-0.1553,0.3408,-0.9468,-0.427,-1.282,0.000,160.373,8.652,-79.124
4451,-0.1577,0.3408,-0.9424,-0.305,-1.221,0.061,160.367,8.668,-79.129
4461,-0.1572,0.3398,-0.9409,-0.183,-1.038,0.061,160.362,8.679,-79.135
4471,-0.1582,0.3428,-0.9385,-0.122,-0.732,-0.061,160.356,8.690,-79.135
4481,-0.1572,0.3418,-0.9395,-0.122,-0.366,-0.183,160.351,8.696,-79.135
4491,-0.1562,0.3418,-0.9424,-0.061,0.122,-0.305,160.345,8.701,-79.135
4501,-0.1558,0.3408,-0.9434,0.000,0.427,-0.366,160.345,8.696,-79.129
4511,-0.1577,0.3394,-0.9463,0.244,0.549,-0.366,160.351,8.696,-79.124
4521,-0.1558,0.3394,-0.9478,0.366,0.488,-0.366,160.351,8.696,-79.118
4531,-0.1572,0.3389,-0.9497,0.366,0.427,-0.305,160.356,8.690,-79.113
4541,-0.1567,0.3364,-0.9507,0.244,0.427,-0.305,160.362,8.690,-79.107
4551,-0.1558,0.3364,-0.9512,0.061,0.366,-0.305,160.362,8.690,-79.102
4561,-0.1558,0.3364,-0.9526,0.000,0.488,-0.305,160.367,8.685,-79.102
4571,-0.1562,0.3354,-0.9526,0.000,0.488,-0.366,160.367,8.685,-79.096
4581,-0.1562,0.3374,-0.9526,0.122,0.305,-0.305,160.373,8.685,-79.091
4591,-0.1567,0.3350,-0.9478,0.183,-0.122,-0.305,160.378,8.685,-79.085
4601,-0.1562,0.3350,-0.9482,0.000,-0.549,-0.305,160.378,8.696,-79.085
4611,-0.1577,0.3364,-0.9482,-0.122,-0.732,-0.305,160.378,8.707,-79.085
4621,-0.1567,0.3359,-0.9497,-0.061,-0.610,-0.427,160.378,8.712,-79.085
4631,-0.1558,0.3350,-0.9453,-0.061,-0.305,-0.427,160.378,8.718,-79.080
4641,-0.1548,0.3350,-0.9473,0.061,-0.061,-0.366,160.384,8.723,-79.080
4651,-0.1523,0.3354,-0.9473,0.305,0.183,-0.305,160.389,8.718,-79.074
4661,-0.1538,0.3350,-0.9482,0.488,0.183,-0.183,160.395,8.718,-79.074
4671,-0.1562,0.3364,-0.9478,0.427,0.000,-0.122,160.400,8.718,-79.069
4681,-0.1597,0.3345,-0.9482,0.244,-0.183,0.061,160.406,8.723,-79.074
4691,-0.1606,0.3345,-0.9473,-0.061,-0.305,0.061,160.406,8.729,-79.074
4701,-0.1626,0.3354,-0.9473,-0.366,-0.244,0.000,160.400,8.734,-79.074
4711,-0.1616,0.3345,-0.9448,-0.366,-0.061,-0.061,160.400,8.740,-79.074
4721,-0.1606,0.3330,-0.9453,-0.244,0.183,-0.061,160.400,8.745,-79.074
4731,-0.1602,0.3359,-0.9473,0.000,0.366,0.000,160.400,8.745,-79.074
4741,-0.1592,0.3374,-0.9487,0.183,0.488,0.122,160.400,8.740,-79.069
4751,-0.1567,0.3364,-0.9492,0.244,0.366,0.244,160.406,8.740,-79.074
4761,-0.1577,0.3379,-0.9482,0.122,0.122,0.244,160.406,8.740,-79.074
4771,-0.1597,0.3423,-0.9507,-0.061,-0.122,0.183,160.400,8.740,-79.074
4781,-0.1587,0.3408,-0.9482,-0.244,-0.122,0.122,160.400,8.745,-79.080
4791,-0.1582,0.3428,-0.9443,-0.305,-0.061,-0.061,160.389,8.745,-79.080
4801,-0.1567,0.3413,-0.9443,-0.305,0.122,-0.305,160.384,8.745,-79.074
4812,-0.1592,0.3384,-0.9473,-0.244,0.244,-0.488,160.384,8.751,-79.069
4821,-0.1582,0.3413,-0.9463,-0.122,0.366,-0.549,160.384,8.751,-79.063
4831,-0.1602,0.3398,-0.9482,0.183,0.488,-0.488,160.384,8.751,-79.058
4841,-0.1572,0.3374,-0.9463,0.488,0.488,-0.427,160.389,8.745,-79.052
4851,-0.1577,0.3359,-0.9478,0.610,0.427,-0.488,160.395,8.745,-79.047
4861,-0.1543,0.3354,-0.9502,0.549,0.488,-0.549,160.406,8.745,-79.036
4871,-0.1528,0.3379,-0.9526,0.244,0.671,-0.610,160.411,8.740,-79.030
4881,-0.1499,0.3354,-0.9531,0.122,0.732,-0.610,160.411,8.729,-79.019
4891,-0.1504,0.3315,-0.9502,0.061,0.427,-0.610,160.417,8.723,-79.014
4901,-0.1523,0.3301,-0.9521,-0.061,-0.122,-0.549,160.422,8.729,-79.008
4911,-0.1558,0.3271,-0.9492,-0.061,-0.427,-0.427,160.428,8.734,-79.008
4921,-0.1577,0.3237,-0.9458,0.000,-0.427,-0.183,160.433,8.740,-79.008
4931,-0.1592,0.3237,-0.9458,0.183,-0.061,0.061,160.444,8.745,-79.008
4941,-0.1597,0.3271,-0.9448,0.244,0.366,0.366,160.450,8.745,-79.008
4951,-0.1572,0.3325,-0.9453,0.366,0.671,0.732,160.455,8.734,-79.014
4961,-0.1562,0.3364,-0.9473,0.488,0.671,0.854,160.461,8.729,-79.019
4971,-0.1548,0.3418,-0.9536,0.488,0.427,0.854,160.461,8.723,-79.025
4981,-0.1582,0.3447,-0.9561,0.305,0.183,0.732,160.461,8.718,-79.030
4991,-0.1572,0.3452,-0.9541,0.000,0.000,0.549,160.455,8.718,-79.036
5001,-0.1592,0.3472,-0.9526,-0.305,-0.183,0.305,160.450,8.718,-79.036
5011,-0.1611,0.3457,-0.9536,-0.488,-0.305,0.061,160.439,8.723,-79.036
5021,-0.1602,0.3437,-0.9526,-0.488,-0.427,-0.183,160.433,8.734,-79.036
5031,-0.1606,0.3433,-0.9521,-0.427,-0.732,-0.366,160.422,8.745,-79.036
5041,-0.1616,0.3413,-0.9517,-0.488,-1.160,-0.427,160.417,8.762,-79.036
5051,-0.1631,0.3389,-0.9478,-0.427,-1.404,-0.488,160.411,8.778,-79.036
5061,-0.1621,0.3394,-0.9458,-0.427,-1.404,-0.488,160.406,8.795,-79.036
5071,-0.1626,0.3359,-0.9409,-0.305,-1.160,-0.549,160.406,8.817,-79.036
5081,-0.1621,0.3330,-0.9404,-0.183,-0.732,-0.488,160.400,8.828,-79.036
5091,-0.1592,0.3325,-0.9404,-0.244,-0.305,-0.366,160.400,8.833,-79.036
5101,-0.1611,0.3345,-0.9385,-0.122,-0.122,-0.305,160.400,8.839,-79.036
5111,-0.1606,0.3354,-0.9409,0.061,0.000,-0.244,160.400,8.844,-79.036
5121,-0.1616,0.3345,-0.9458,0.061,0.122,-0.183,160.406,8.844,-79.036
5131,-0.1597,0.3335,-0.9414,0.061,0.244,-0.183,160.406,8.844,-79.036
5141,-0.1577,0.3340,-0.9434,0.000,0.427,-0.183,160.406,8.844,-79.036
5151,-0.1577,0.3364,-0.9404,-0.061,0.610,-0.122,160.406,8.839,-79.036
5161,-0.1597,0.3359,-0.9434,0.061,0.671,-0.122,160.406,8.833,-79.036
5171,-0.1577,0.3374,-0.9458,0.244,0.854,-0.061,160.411,8.828,-79.036
5181,-0.1592,0.3379,-0.9478,0.366,1.099,0.000,160.411,8.822,-79.036
5191,-0.1582,0.3350,-0.9487,0.427,1.099,0.061,160.422,8.811,-79.036
5201,-0.1562,0.3384,-0.9507,0.427,0.854,0.061,160.422,8.800,-79.036
5211,-0.1562,0.3413,-0.9565,0.305,0.427,-0.061,160.428,8.800,-79.036
5221,-0.1582,0.3403,-0.9556,0.366,0.183,-0.183,160.428,8.800,-79.036
5231,-0.1577,0.3374,-0.9526,0.183,0.122,-0.305,160.433,8.800,-79.036
5241,-0.1567,0.3369,-0.9507,-0.122,0.000,-0.305,160.433,8.800,-79.036
5251,-0.1577,0.3369,-0.9453,-0.305,-0.122,-0.244,160.428,8.806,-79.036
5261,-0.1577,0.3374,-0.9473,-0.061,-0.183,-0.183,160.428,8.806,-79.036
5271,-0.1597,0.3340,-0.9502,0.305,0.061,-0.244,160.433,8.811,-79.036
5281,-0.1577,0.3345,-0.9507,0.610,0.427,-0.122,160.444,8.806,-79.036
5291,-0.1562,0.3335,-0.9507,0.732,0.488,-0.061,160.455,8.800,-79.036
5301,-0.1558,0.3354,-0.9502,0.610,0.305,0.000,160.461,8.800,-79.036
5312,-0.1558,0.3354,-0.9482,0.305,-0.061,0.122,160.461,8.800,-79.036
5321,-0.1577,0.3369,-0.9482,0.061,-0.244,0.061,160.461,8.800,-79.036
5331,-0.1602,0.3340,-0.9458,0.000,-0.122,0.122,160.466,8.806,-79.036
5341,-0.1602,0.3315,-0.9482,0.061,0.122,0.122,160.466,8.806,-79.036
5351,-0.1611,0.3311,-0.9507,0.000,0.366,0.122,160.472,8.806,-79.036
5361,-0.1602,0.3325,-0.9512,-0.183,0.366,0.244,160.472,8.806,-79.036
5371,-0.1621,0.3354,-0.9526,-0.244,0.061,0.366,160.472,8.806,-79.036
5381,-0.1602,0.3384,-0.9507,-0.305,-0.305,0.366,160.466,8.811,-79.036
5391,-0.1577,0.3423,-0.9517,-0.244,-0.549,0.244,160.461,8.811,-79.036
5401,-0.1592,0.3413,-0.9497,-0.122,-0.549,0.061,160.455,8.822,-79.036
5411,-0.1592,0.3384,-0.9453,-0.183,-0.427,-0.122,160.450,8.828,-79.036
5421,-0.1611,0.3384,-0.9424,-0.305,-0.427,-0.244,160.450,8.833,-79.036
5431,-0.1606,0.3369,-0.9419,-0.427,-0.305,-0.305,160.444,8.839,-79.036
5441,-0.1616,0.3394,-0.9434,-0.305,-0.061,-0.366,160.439,8.844,-79.036
5451,-0.1621,0.3389,-0.9458,-0.122,0.244,-0.305,160.433,8.849,-79.036
5461,-0.1602,0.3394,-0.9463,0.183,0.366,-0.244,160.433,8.849,-79.036
5471,-0.1597,0.3398,-0.9473,0.488,0.305,-0.366,160.439,8.849,-79.036
5481,-0.1592,0.3403,-0.9478,0.427,0.183,-0.427,160.444,8.849,-79.036
5491,-0.1592,0.3398,-0.9482,0.183,0.061,-0.488,160.444,8.849,-79.036
5501,-0.1592,0.3394,-0.9473,0.061,0.122,-0.549,160.444,8.855,-79.036
5511,-0.1562,0.3398,-0.9482,-0.183,0.183,-0.671,160.439,8.855,-79.036
5521,-0.1562,0.3379,-0.9497,-0.122,0.305,-0.854,160.439,8.855,-79.036
5531,-0.1558,0.3359,-0.9526,0.000,0.549,-0.916,160.444,8.849,-79.036
5541,-0.1562,0.3325,-0.9536,0.061,0.610,-0.793,160.450,8.844,-79.036
5551,-0.1562,0.3315,-0.9512,0.061,0.366,-0.610,160.455,8.844,-79.036
5561,-0.1562,0.3325,-0.9507,0.061,-0.122,-0.427,160.455,8.844,-79.036
5571,-0.1587,0.3320,-0.9487,0.122,-0.488,-0.305,160.461,8.855,-79.036
5581,-0.1621,0.3301,-0.9482,0.305,-0.549,-0.305,160.466,8.860,-79.036
5591,-0.1577,0.3281,-0.9473,0.366,-0.305,-0.183,160.477,8.866,-79.036
5601,-0.1553,0.3286,-0.9473,0.122,-0.183,-0.183,160.483,8.866,-79.036
5611,-0.1543,0.3281,-0.9478,-0.061,-0.183,-0.061,160.483,8.871,-79.036
5621,-0.1572,0.3301,-0.9521,-0.061,-0.183,0.000,160.488,8.871,-79.036
5631,-0.1597,0.3296,-0.9531,0.122,0.122,0.122,160.494,8.871,-79.036
5641,-0.1611,0.3306,-0.9517,0.061,0.305,0.427,160.499,8.866,-79.036
5651,-0.1606,0.3340,-0.9536,0.122,0.122,0.549,160.499,8.866,-79.036
5661,-0.1611,0.3389,-0.9551,0.183,-0.366,0.549,160.499,8.871,-79.036
5671,-0.1606,0.3394,-0.9561,0.000,-0.854,0.549,160.499,8.877,-79.036
5681,-0.1626,0.3394,-0.9531,-0.122,-1.099,0.366,160.494,8.888,-79.036
5691,-0.1631,0.3398,-0.9507,-0.366,-1.160,0.244,160.488,8.904,-79.036
5701,-0.1626,0.3389,-0.9468,-0.488,-1.282,0.122,160.483,8.915,-79.036
5711,-0.1646,0.3374,-0.9448,-0.427,-1.221,0.000,160.477,8.932,-79.036
5721,-0.1641,0.3389,-0.9438,-0.122,-0.977,0.061,160.472,8.943,-79.036
5731,-0.1636,0.3408,-0.9419,-0.183,-0.977,0.061,160.466,8.959,-79.036
5741,-0.1646,0.3437,-0.9404,-0.183,-0.977,-0.061,160.455,8.970,-79.036
5751,-0.1660,0.3428,-0.9385,-0.122,-0.671,-0.244,160.450,8.981,-79.036
5761,-0.1660,0.3408,-0.9404,-0.122,-0.183,-0.427,160.444,8.987,-79.036
5771,-0.1650,0.3369,-0.9385,-0.061,0.305,-0.549,160.444,8.992,-79.036
5781,-0.1631,0.3340,-0.9434,-0.061,0.488,-0.610,160.444,8.992,-79.036
5791,-0.1636,0.3364,-0.9453,-0.122,0.427,-0.488,160.444,8.992,-79.036
5801,-0.1655,0.3374,-0.9438,-0.122,0.244,-0.305,160.444,8.992,-79.036
5812,-0.1636,0.3374,-0.9473,0.061,0.183,-0.244,160.444,8.998,-79.036
5821,-0.1636,0.3364,-0.9478,0.305,0.244,-0.305,160.450,8.998,-79.036
5831,-0.1611,0.3379,-0.9497,0.366,0.427,-0.427,160.450,8.998,-79.036
5841,-0.1626,0.3350,-0.9507,0.366,0.488,-0.427,160.455,8.992,-79.036
5851,-0.1641,0.3350,-0.9492,0.122,0.305,-0.427,160.461,8.998,-79.036
5861,-0.1646,0.3354,-0.9434,-0.244,0.183,-0.427,160.461,8.998,-79.036
5871,-0.1626,0.3369,-0.9453,-0.427,0.122,-0.427,160.455,9.003,-79.036
5881,-0.1631,0.3403,-0.9458,-0.305,0.183,-0.305,160.450,9.003,-79.036
5891,-0.1606,0.3413,-0.9458,0.061,0.305,-0.366,160.450,9.003,-79.036
5901,-0.1577,0.3418,-0.9468,0.427,0.549,-0.488,160.450,8.998,-79.036
5912,-0.1567,0.3413,-0.9482,0.793,0.732,-0.610,160.455,8.992,-79.036
5921,-0.1562,0.3403,-0.9512,0.916,0.732,-0.671,160.466,8.987,-79.036
5931,-0.1577,0.3374,-0.9482,0.793,0.671,-0.732,160.477,8.981,-79.036
5941,-0.1592,0.3369,-0.9497,0.610,0.427,-0.793,160.483,8.976,-79.036
5951,-0.1621,0.3350,-0.9541,0.366,0.427,-0.854,160.488,8.976,-79.036
5961,-0.1641,0.3291,-0.9565,0.244,0.549,-0.793,160.499,8.976,-79.036
5971,-0.1626,0.3276,-0.9570,0.061,0.549,-0.732,160.505,8.976,-79.036
5981,-0.1655,0.3262,-0.9575,-0.183,0.183,-0.610,160.510,8.981,-79.036
5991,-0.1646,0.3232,-0.9565,-0.366,-0.549,-0.366,160.516,8.987,-79.036
6001,-0.1636,0.3232,-0.9546,-0.549,-1.160,-0.061,160.516,9.003,-79.036
6011,-0.1646,0.3262,-0.9492,-0.610,-1.465,0.122,160.516,9.020,-79.036
6021,-0.1646,0.3267,-0.9443,-0.549,-1.465,0.244,160.516,9.036,-79.036
6031,-0.1631,0.3296,-0.9404,-0.549,-1.282,0.305,160.510,9.047,-79.036
6041,-0.1621,0.3306,-0.9399,-0.488,-0.916,0.366,160.505,9.058,-79.036
6051,-0.1616,0.3330,-0.9370,-0.549,-0.610,0.427,160.499,9.064,-79.036
6061,-0.1636,0.3320,-0.9336,-0.488,-0.244,0.488,160.488,9.069,-79.036
6071,-0.1626,0.3364,-0.9355,-0.305,0.244,0.488,160.483,9.064,-79.036
6081,-0.1626,0.3394,-0.9370,-0.061,0.732,0.427,160.477,9.058,-79.036
6091,-0.1621,0.3413,-0.9404,0.305,1.160,0.366,160.477,9.047,-79.036
6101,-0.1646,0.3413,-0.9414,0.671,1.526,0.305,160.483,9.036,-79.036
6111,-0.1636,0.3413,-0.9438,0.610,1.892,0.244,160.483,9.020,-79.036
6121,-0.1626,0.3452,-0.9512,0.671,2.136,0.122,160.488,9.003,-79.036
6131,-0.1611,0.3437,-0.9561,0.488,2.075,-0.061,160.488,8.981,-79.036
6141,-0.1631,0.3428,-0.9585,0.244,1.770,-0.183,160.494,8.965,-79.036
6151,-0.1616,0.3447,-0.9609,0.000,1.404,-0.244,160.494,8.954,-79.036
6161,-0.1597,0.3452,-0.9629,-0.183,0.977,-0.366,160.488,8.948,-79.036
6171,-0.1582,0.3394,-0.9644,-0.122,0.549,-0.488,160.488,8.943,-79.036
6181,-0.1582,0.3359,-0.9609,-0.061,0.061,-0.610,160.494,8.943,-79.036
6191,-0.1602,0.3335,-0.9585,-0.305,-0.549,-0.610,160.494,8.948,-79.036
6201,-0.1611,0.3330,-0.9531,-0.732,-0.977,-0.549,160.488,8.959,-79.036
6211,-0.1611,0.3335,-0.9502,-1.099,-1.160,-0.549,160.477,8.976,-79.036
6221,-0.1597,0.3325,-0.9468,-1.160,-1.099,-0.488,160.472,8.987,-79.036
6231,-0.1606,0.3311,-0.9414,-0.977,-0.916,-0.366,160.461,8.998,-79.036
6241,-0.1616,0.3306,-0.9424,-0.671,-0.610,-0.244,160.455,9.009,-79.036
6251,-0.1597,0.3306,-0.9414,-0.366,-0.305,-0.122,160.455,9.014,-79.036
6261,-0.1592,0.3330,-0.9414,-0.061,-0.183,0.061,160.455,9.014,-79.036
6271,-0.1602,0.3340,-0.9424,0.061,0.000,0.122,160.455,9.014,-79.036
6281,-0.1636,0.3359,-0.9424,-0.061,0.000,0.122,160.455,9.014,-79.036
6291,-0.1621,0.3350,-0.9458,-0.305,0.061,0.061,160.450,9.020,-79.036
6301,-0.1655,0.3345,-0.9492,-0.427,0.183,0.000,160.450,9.020,-79.036
6312,-0.1641,0.3350,-0.9478,-0.610,0.366,0.061,160.444,9.020,-79.036
6321,-0.1650,0.3369,-0.9468,-0.549,0.488,0.061,160.439,9.014,-79.036
6331,-0.1631,0.3384,-0.9463,-0.305,0.427,0.061,160.433,9.014,-79.036
6341,-0.1641,0.3374,-0.9463,-0.122,0.305,0.061,160.433,9.014,-79.036
6351,-0.1665,0.3364,-0.9463,-0.061,0.305,0.000,160.433,9.014,-79.036
6361,-0.1641,0.3384,-0.9443,-0.183,0.305,0.061,160.428,9.014,-79.036
6371,-0.1626,0.3369,-0.9424,-0.244,0.366,0.000,160.428,9.014,-79.036
6381,-0.1631,0.3359,-0.9443,-0.305,0.427,-0.122,160.422,9.014,-79.036
6391,-0.1636,0.3340,-0.9463,-0.122,0.732,-0.122,160.422,9.009,-79.036
6401,-0.1611,0.3350,-0.9478,-0.122,0.977,-0.122,160.422,8.998,-79.036
6411,-0.1597,0.3335,-0.9468,0.000,1.038,-0.061,160.428,8.992,-79.036
6421,-0.1602,0.3350,-0.9443,-0.061,0.916,-0.061,160.428,8.981,-79.036
6431,-0.1606,0.3374,-0.9463,-0.244,0.793,-0.122,160.422,8.976,-79.036
6441,-0.1621,0.3379,-0.9482,-0.366,0.732,-0.122,160.422,8.970,-79.036
6451,-0.1616,0.3374,-0.9512,-0.427,0.732,-0.122,160.417,8.970,-79.036
6461,-0.1621,0.3384,-0.9512,-0.427,0.732,-0.122,160.417,8.965,-79.036
6471,-0.1631,0.3374,-0.9517,-0.366,0.732,-0.061,160.411,8.959,-79.036
6481,-0.1621,0.3364,-0.9492,-0.061,0.610,-0.061,160.411,8.954,-79.036
6491,-0.1611,0.3340,-0.9478,0.244,0.305,-0.122,160.417,8.954,-79.036
6501,-0.1631,0.3340,-0.9443,0.061,0.122,-0.183,160.417,8.954,-79.036
6511,-0.1621,0.3374,-0.9448,-0.427,0.061,-0.122,160.411,8.959,-79.036
6521,-0.1587,0.3379,-0.9443,-0.671,0.244,-0.061,160.406,8.954,-79.036
6531,-0.1572,0.3389,-0.9453,-0.549,0.488,-0.183,160.400,8.954,-79.036
6541,-0.1572,0.3379,-0.9458,-0.244,0.732,-0.305,160.400,8.943,-79.036
6551,-0.1562,0.3359,-0.9473,0.183,0.916,-0.305,160.400,8.937,-79.036
6561,-0.1553,0.3296,-0.9473,0.549,1.038,-0.183,160.411,8.926,-79.036
6571,-0.1553,0.3286,-0.9482,0.549,0.916,-0.061,160.422,8.915,-79.036
6581,-0.1572,0.3291,-0.9507,0.122,0.671,0.244,160.428,8.910,-79.036
6591,-0.1577,0.3291,-0.9531,-0.244,0.427,0.488,160.433,8.904,-79.036
6601,-0.1606,0.3296,-0.9531,-0.366,0.244,0.671,160.433,8.899,-79.036
6611,-0.1636,0.3311,-0.9492,-0.488,0.183,0.793,160.428,8.899,-79.036
6621,-0.1660,0.3340,-0.9482,-0.549,0.061,0.916,160.422,8.899,-79.036
6631,-0.1641,0.3340,-0.9458,-0.488,-0.122,0.854,160.417,8.904,-79.036
6641,-0.1636,0.3369,-0.9448,-0.427,-0.122,0.854,160.411,8.904,-79.036
6651,-0.1636,0.3408,-0.9448,-0.366,-0.061,0.854,160.406,8.904,-79.036
6661,-0.1606,0.3433,-0.9482,-0.305,0.122,0.732,160.400,8.904,-79.036
6671,-0.1621,0.3428,-0.9468,-0.244,0.244,0.610,160.389,8.904,-79.036
6681,-0.1616,0.3462,-0.9463,-0.427,0.244,0.488,160.384,8.899,-79.036
6691,-0.1616,0.3467,-0.9448,-0.549,0.122,0.305,160.373,8.899,-79.036
6701,-0.1611,0.3467,-0.9419,-0.427,0.244,0.183,160.362,8.899,-79.036
6711,-0.1602,0.3462,-0.9404,-0.305,0.488,0.000,160.351,8.899,-79.036
6721,-0.1587,0.3428,-0.9419,0.000,0.793,-0.244,160.351,8.893,-79.036
6731,-0.1621,0.3408,-0.9424,0.244,1.160,-0.366,160.351,8.882,-79.036
6741,-0.1602,0.3403,-0.9438,0.366,1.404,-0.427,160.356,8.877,-79.036
6751,-0.1577,0.3403,-0.9443,0.305,1.404,-0.427,160.356,8.866,-79.036
6761,-0.1587,0.3418,-0.9473,0.122,1.343,-0.427,160.356,8.855,-79.036
6771,-0.1587,0.3394,-0.9482,0.061,1.160,-0.427,160.356,8.844,-79.036
6781,-0.1582,0.3369,-0.9517,0.183,1.221,-0.488,160.362,8.839,-79.036
6791,-0.1572,0.3384,-0.9551,0.305,1.587,-0.488,160.367,8.822,-79.036
6801,-0.1543,0.3369,-0.9551,0.427,1.770,-0.427,160.378,8.806,-79.036
6812,-0.1523,0.3335,-0.9536,0.549,1.526,-0.488,160.389,8.789,-79.036
6821,-0.1533,0.3320,-0.9585,0.366,0.854,-0.366,160.395,8.784,-79.036
6831,-0.1548,0.3340,-0.9590,0.061,0.305,-0.122,160.400,8.778,-79.036
6841,-0.1562,0.3369,-0.9556,-0.183,-0.061,0.061,160.400,8.778,-79.036
6851,-0.1553,0.3374,-0.9521,-0.366,-0.305,0.061,160.400,8.784,-79.036
6861,-0.1558,0.3379,-0.9507,-0.305,-0.366,-0.061,160.395,8.784,-79.036
6871,-0.1567,0.3354,-0.9541,-0.122,-0.366,-0.122,160.395,8.789,-79.036
6881,-0.1577,0.3340,-0.9526,-0.122,-0.244,-0.061,160.400,8.795,-79.036
6891,-0.1558,0.3340,-0.9487,-0.244,-0.061,0.061,160.400,8.795,-79.036
6901,-0.1572,0.3354,-0.9482,-0.183,-0.061,0.183,160.395,8.795,-79.036
6911,-0.1582,0.3345,-0.9473,0.061,-0.183,0.244,160.400,8.795,-79.036
6921,-0.1582,0.3369,-0.9468,0.244,-0.366,0.305,160.400,8.800,-79.036
6931,-0.1597,0.3364,-0.9458,0.366,-0.488,0.427,160.406,8.806,-79.036
6941,-0.1582,0.3394,-0.9478,0.244,-0.549,0.305,160.406,8.811,-79.036
6951,-0.1606,0.3389,-0.9468,0.000,-0.549,0.244,160.400,8.817,-79.036
6961,-0.1636,0.3389,-0.9453,-0.244,-0.610,0.183,160.400,8.828,-79.036
6971,-0.1616,0.3413,-0.9424,-0.244,-0.488,0.122,160.395,8.833,-79.036
6981,-0.1606,0.3408,-0.9429,-0.061,-0.244,0.061,160.389,8.839,-79.036
6991,-0.1582,0.3389,-0.9414,0.244,0.061,0.000,160.389,8.839,-79.036
7001,-0.1587,0.3379,-0.9424,0.488,0.183,0.000,160.395,8.839,-79.036
7011,-0.1592,0.3369,-0.9438,0.610,0.183,0.061,160.400,8.839,-79.036
7021,-0.1597,0.3364,-0.9458,0.488,0.183,0.061,160.406,8.839,-79.036
7031,-0.1602,0.3374,-0.9438,0.244,0.305,0.000,160.406,8.839,-79.036
7041,-0.1616,0.3389,-0.9434,0.000,0.610,-0.061,160.406,8.839,-79.036
7051,-0.1621,0.3379,-0.9448,-0.122,0.916,0.000,160.400,8.833,-79.036
7061,-0.1606,0.3389,-0.9434,-0.061,0.916,0.000,160.400,8.828,-79.036
7071,-0.1611,0.3394,-0.9482,0.244,0.854,-0.122,160.400,8.822,-79.036
7081,-0.1606,0.3369,-0.9521,0.549,0.854,-0.244,160.411,8.817,-79.036
7091,-0.1587,0.3345,-0.9561,0.610,0.793,-0.244,160.422,8.811,-79.036
7101,-0.1616,0.3325,-0.9497,0.427,0.671,-0.183,160.428,8.811,-79.036
7111,-0.1631,0.3330,-0.9492,0.061,0.244,-0.122,160.433,8.811,-79.036
7121,-0.1616,0.3379,-0.9487,-0.427,-0.122,0.000,160.428,8.817,-79.036
7131,-0.1597,0.3433,-0.9458,-0.610,-0.244,0.122,160.417,8.817,-79.036
7141,-0.1577,0.3428,-0.9443,-0.244,-0.122,0.000,160.411,8.822,-79.036
7151,-0.1582,0.3413,-0.9438,0.244,0.122,-0.305,160.411,8.822,-79.036
7161,-0.1567,0.3418,-0.9473,0.427,0.427,-0.549,160.411,8.822,-79.036
7171,-0.1528,0.3389,-0.9492,0.488,0.793,-0.549,160.417,8.811,-79.036
7181,-0.1519,0.3359,-0.9497,0.366,0.977,-0.610,160.422,8.806,-79.036
7191,-0.1543,0.3320,-0.9521,0.305,0.916,-0.610,160.433,8.795,-79.036
7201,-0.1567,0.3301,-0.9517,0.122,0.671,-0.427,160.439,8.789,-79.036
7211,-0.1597,0.3286,-0.9502,0.061,0.427,-0.183,160.444,8.789,-79.036
7221,-0.1587,0.3281,-0.9512,0.061,0.366,-0.061,160.450,8.789,-79.036
7231,-0.1582,0.3306,-0.9507,-0.061,0.366,0.000,160.455,8.789,-79.036
7241,-0.1567,0.3325,-0.9517,-0.061,0.305,0.122,160.455,8.784,-79.036
7251,-0.1572,0.3340,-0.9531,0.122,0.183,0.183,160.461,8.784,-79.036
7261,-0.1562,0.3340,-0.9507,0.244,0.061,0.244,160.461,8.784,-79.036
7271,-0.1558,0.3359,-0.9512,0.244,0.000,0.244,160.466,8.778,-79.036
7281,-0.1572,0.3364,-0.9502,0.122,0.061,0.244,160.466,8.778,-79.036
7291,-0.1577,0.3379,-0.9487,-0.122,0.000,0.305,160.466,8.778,-79.036
7301,-0.1602,0.3394,-0.9478,-0.366,-0.183,0.244,160.461,8.784,-79.036
7312,-0.1602,0.3433,-0.9463,-0.671,-0.366,0.122,160.450,8.789,-79.036
7321,-0.1631,0.3457,-0.9468,-0.610,-0.427,0.061,160.439,8.795,-79.036
7331,-0.1611,0.3437,-0.9438,-0.305,-0.366,-0.122,160.428,8.806,-79.036
7341,-0.1602,0.3428,-0.9448,0.061,-0.183,-0.244,160.428,8.811,-79.036
7351,-0.1602,0.3428,-0.9463,0.427,0.122,-0.366,160.428,8.811,-79.036
7361,-0.1572,0.3408,-0.9463,0.488,0.366,-0.427,160.433,8.811,-79.036
7371,-0.1533,0.3379,-0.9463,0.427,0.366,-0.488,160.433,8.806,-79.036
7381,-0.1543,0.3374,-0.9443,0.122,0.244,-0.671,160.439,8.806,-79.036
7391,-0.1548,0.3350,-0.9492,-0.061,0.244,-0.671,160.439,8.806,-79.036
7401,-0.1562,0.3354,-0.9512,-0.122,0.427,-0.671,160.439,8.806,-79.036
7411,-0.1543,0.3330,-0.9507,0.122,0.671,-0.549,160.444,8.800,-79.036
7421,-0.1548,0.3296,-0.9487,0.610,0.671,-0.366,160.455,8.795,-79.036
7431,-0.1558,0.3286,-0.9502,0.854,0.305,-0.183,160.472,8.789,-79.036
7441,-0.1577,0.3286,-0.9468,0.793,-0.122,0.000,160.483,8.795,-79.036
7451,-0.1572,0.3311,-0.9487,0.610,-0.244,0.122,160.488,8.795,-79.036
7461,-0.1582,0.3306,-0.9521,0.183,-0.183,0.122,160.494,8.800,-79.036
7471,-0.1597,0.3330,-0.9536,-0.122,-0.061,0.061,160.494,8.800,-79.036
7481,-0.1611,0.3359,-0.9507,-0.366,0.000,0.122,160.494,8.806,-79.036
7491,-0.1606,0.3379,-0.9507,-0.427,-0.061,0.305,160.488,8.806,-79.036
7501,-0.1602,0.3389,-0.9507,-0.244,-0.244,0.427,160.483,8.811,-79.036
7511,-0.1606,0.3398,-0.9507,0.183,-0.488,0.427,160.483,8.811,-79.036
7521,-0.1597,0.3418,-0.9507,0.488,-0.610,0.305,160.483,8.822,-79.036
7531,-0.1611,0.3418,-0.9507,0.427,-0.732,0.183,160.483,8.828,-79.036
7541,-0.1616,0.3379,-0.9463,0.061,-0.732,0.000,160.483,8.839,-79.036
7551,-0.1611,0.3364,-0.9429,-0.244,-0.732,-0.244,160.477,8.849,-79.036
7561,-0.1631,0.3359,-0.9424,-0.549,-0.671,-0.366,160.472,8.860,-79.036
7571,-0.1646,0.3359,-0.9419,-0.610,-0.549,-0.244,160.466,8.871,-79.036
7581,-0.1646,0.3369,-0.9429,-0.366,-0.366,-0.061,160.461,8.882,-79.036
7591,-0.1650,0.3359,-0.9380,0.183,-0.183,0.000,160.461,8.888,-79.036
7601,-0.1641,0.3364,-0.9385,0.671,0.000,0.000,160.466,8.893,-79.036
7611,-0.1626,0.3364,-0.9424,0.854,0.366,-0.061,160.472,8.893,-79.036
7621,-0.1616,0.3345,-0.9443,0.732,0.793,-0.122,160.483,8.888,-79.036
7631,-0.1592,0.3330,-0.9468,0.427,1.038,-0.244,160.488,8.877,-79.036
7641,-0.1592,0.3330,-0.9487,0.183,0.977,-0.305,160.494,8.871,-79.036
7651,-0.1616,0.3330,-0.9517,0.000,0.854,-0.305,160.494,8.866,-79.036
7661,-0.1626,0.3330,-0.9517,-0.122,0.671,-0.122,160.499,8.866,-79.036
7671,-0.1611,0.3335,-0.9526,-0.061,0.427,0.061,160.499,8.860,-79.036
7681,-0.1616,0.3364,-0.9497,-0.061,0.000,0.061,160.499,8.866,-79.036
7691,-0.1621,0.3384,-0.9531,-0.183,-0.305,0.122,160.494,8.871,-79.036
7701,-0.1606,0.3379,-0.9517,-0.183,-0.366,0.000,160.494,8.877,-79.036
7711,-0.1592,0.3389,-0.9473,-0.183,-0.244,-0.061,160.488,8.877,-79.036
7721,-0.1577,0.3384,-0.9478,-0.122,-0.061,-0.183,160.488,8.882,-79.036
7731,-0.1606,0.3359,-0.9458,0.000,0.122,-0.244,160.488,8.882,-79.036
7741,-0.1606,0.3350,-0.9458,0.000,0.000,-0.244,160.488,8.882,-79.036
7751,-0.1636,0.3359,-0.9443,-0.122,-0.183,-0.183,160.488,8.893,-79.036
7761,-0.1641,0.3398,-0.9448,-0.366,-0.305,-0.122,160.477,8.899,-79.036
7771,-0.1631,0.3403,-0.9473,-0.244,-0.183,-0.244,160.477,8.904,-79.036
7781,-0.1592,0.3394,-0.9517,-0.061,0.305,-0.488,160.472,8.904,-79.036
7791,-0.1582,0.3359,-0.9497,0.061,0.549,-0.610,160.477,8.899,-79.036
7801,-0.1577,0.3335,-0.9492,0.183,0.732,-0.671,160.483,8.893,-79.036
7812,-0.1562,0.3301,-0.9492,0.305,0.671,-0.488,160.488,8.888,-79.036
7821,-0.1572,0.3271,-0.9482,0.244,0.366,-0.305,160.494,8.888,-79.036
7831,-0.1587,0.3262,-0.9478,0.183,0.183,-0.061,160.505,8.888,-79.036
7841,-0.1592,0.3276,-0.9478,0.305,0.061,0.183,160.510,8.888,-79.036
7851,-0.1587,0.3281,-0.9482,0.305,0.061,0.305,160.516,8.888,-79.036
7861,-0.1582,0.3291,-0.9507,0.183,0.000,0.366,160.521,8.888,-79.036
7871,-0.1587,0.3311,-0.9482,0.000,-0.061,0.305,160.527,8.888,-79.036
7881,-0.1592,0.3296,-0.9463,0.000,-0.122,0.366,160.527,8.888,-79.036
7891,-0.1611,0.3315,-0.9492,0.000,-0.061,0.366,160.527,8.888,-79.036
7901,-0.1606,0.3330,-0.9492,0.122,0.061,0.366,160.532,8.888,-79.036
7913,-0.1616,0.3325,-0.9478,0.244,0.000,0.427,160.532,8.893,-79.036
7921,-0.1602,0.3335,-0.9468,0.305,-0.061,0.427,160.538,8.893,-79.036
7931,-0.1592,0.3350,-0.9482,0.061,0.000,0.366,160.538,8.893,-79.036
7941,-0.1616,0.3379,-0.9458,-0.183,0.000,0.366,160.532,8.893,-79.036
7951,-0.1636,0.3384,-0.9443,-0.183,-0.061,0.305,160.527,8.899,-79.036
7961,-0.1626,0.3403,-0.9424,-0.122,-0.122,0.122,160.521,8.899,-79.036
7971,-0.1616,0.3437,-0.9434,-0.061,0.000,0.061,160.516,8.904,-79.036
7981,-0.1621,0.3423,-0.9424,0.183,0.244,0.000,160.510,8.904,-79.036
7991,-0.1606,0.3418,-0.9438,0.427,0.366,-0.122,160.510,8.904,-79.036
8001,-0.1602,0.3403,-0.9458,0.427,0.671,-0.244,160.516,8.899,-79.036
8011,-0.1602,0.3408,-0.9468,0.244,0.793,-0.366,160.516,8.893,-79.036
8021,-0.1611,0.3394,-0.9473,0.000,0.793,-0.427,160.516,8.888,-79.036
8032,-0.1597,0.3384,-0.9463,-0.061,0.732,-0.549,160.510,8.888,-79.036
8042,-0.1572,0.3379,-0.9517,0.122,0.854,-0.610,160.516,8.877,-79.036
8052,-0.1553,0.3364,-0.9526,0.488,1.038,-0.732,160.521,8.871,-79.036
8061,-0.1548,0.3311,-0.9536,0.671,1.038,-0.793,160.532,8.860,-79.036
8072,-0.1567,0.3271,-0.9551,0.549,0.732,-0.732,160.543,8.855,-79.036
8082,-0.1558,0.3247,-0.9556,0.183,0.366,-0.549,160.554,8.855,-79.036
8092,-0.1567,0.3247,-0.9546,-0.244,0.061,-0.305,160.560,8.855,-79.036
8102,-0.1558,0.3262,-0.9521,-0.366,-0.061,-0.061,160.560,8.855,-79.036
8112,-0.1562,0.3276,-0.9531,-0.183,-0.183,0.061,160.565,8.855,-79.036
8122,-0.1562,0.3281,-0.9531,0.061,-0.244,0.244,160.571,8.855,-79.036
8132,-0.1562,0.3306,-0.9497,0.244,-0.366,0.366,160.571,8.860,-79.036
8142,-0.1553,0.3306,-0.9512,0.427,-0.427,0.488,160.576,8.860,-79.036
8152,-0.1558,0.3320,-0.9487,0.366,-0.366,0.488,160.582,8.860,-79.036
8162,-0.1572,0.3359,-0.9507,0.122,-0.366,0.366,160.582,8.866,-79.036
8172,-0.1597,0.3389,-0.9502,-0.122,-0.427,0.366,160.576,8.866,-79.036
8182,-0.1616,0.3359,-0.9512,-0.244,-0.488,0.427,160.576,8.871,-79.036
8192,-0.1636,0.3359,-0.9526,-0.122,-0.610,0.305,160.571,8.882,-79.036
8202,-0.1631,0.3374,-0.9507,-0.061,-0.732,0.183,160.571,8.893,-79.036
8212,-0.1641,0.3374,-0.9517,-0.122,-0.854,0.122,160.565,8.904,-79.036
8222,-0.1621,0.3359,-0.9502,-0.305,-0.854,0.122,160.565,8.910,-79.036
8232,-0.1655,0.3369,-0.9463,-0.549,-0.793,0.122,160.554,8.921,-79.036
8242,-0.1631,0.3359,-0.9453,-0.549,-0.671,0.061,160.549,8.932,-79.036
8252,-0.1616,0.3374,-0.9438,-0.305,-0.549,0.000,160.543,8.937,-79.036
8262,-0.1631,0.3359,-0.9409,0.122,-0.488,0.000,160.543,8.948,-79.036
8272,-0.1631,0.3345,-0.9424,0.366,-0.366,0.000,160.543,8.954,-79.036
8282,-0.1636,0.3384,-0.9424,0.305,-0.183,0.000,160.543,8.959,-79.036
8292,-0.1611,0.3354,-0.9443,0.122,-0.061,0.000,160.543,8.959,-79.036
8302,-0.1626,0.3369,-0.9458,-0.183,0.122,-0.122,160.543,8.965,-79.036
8312,-0.1631,0.3364,-0.9458,-0.366,0.366,-0.122,160.538,8.965,-79.036
8322,-0.1602,0.3394,-0.9507,-0.366,0.488,-0.183,160.532,8.959,-79.036
8332,-0.1616,0.3408,-0.9497,-0.183,0.427,-0.183,160.527,8.959,-79.036
8342,-0.1626,0.3384,-0.9492,-0.061,0.244,-0.244,160.527,8.959,-79.036
8352,-0.1636,0.3374,-0.9526,0.000,0.061,-0.244,160.527,8.959,-79.036
8362,-0.1616,0.3384,-0.9502,-0.122,-0.244,-0.183,160.527,8.965,-79.036
8372,-0.1626,0.3359,-0.9497,-0.183,-0.488,-0.183,160.521,8.970,-79.036
8382,-0.1626,0.3359,-0.9482,-0.366,-0.732,-0.244,160.516,8.981,-79.036
8392,-0.1626,0.3369,-0.9443,-0.610,-0.854,-0.244,160.510,8.992,-79.036
8402,-0.1621,0.3389,-0.9443,-0.671,-0.671,-0.244,160.499,9.003,-79.036
8412,-0.1616,0.3403,-0.9438,-0.488,-0.366,-0.305,160.494,9.009,-79.036
8422,-0.1577,0.3354,-0.9424,-0.061,0.000,-0.488,160.494,9.009,-79.036
8432,-0.1582,0.3315,-0.9478,0.366,0.244,-0.610,160.499,9.009,-79.036
8442,-0.1597,0.3325,-0.9502,0.427,0.366,-0.488,160.505,9.009,-79.036
8452,-0.1602,0.3335,-0.9492,0.183,0.183,-0.305,160.510,9.003,-79.036
8462,-0.1611,0.3296,-0.9487,0.061,-0.061,-0.122,160.516,9.009,-79.036
8472,-0.1641,0.3320,-0.9521,0.000,-0.305,0.000,160.516,9.014,-79.036
8482,-0.1655,0.3315,-0.9512,0.122,-0.183,0.061,160.521,9.020,-79.036
8492,-0.1655,0.3340,-0.9512,0.183,-0.061,0.183,160.521,9.020,-79.036
8502,-0.1641,0.3345,-0.9487,0.183,-0.061,0.244,160.527,9.025,-79.036
8512,-0.1646,0.3350,-0.9473,0.122,-0.183,0.244,160.527,9.025,-79.036
8522,-0.1655,0.3379,-0.9487,-0.244,-0.366,0.183,160.521,9.031,-79.036
8532,-0.1660,0.3394,-0.9468,-0.610,-0.488,0.122,160.516,9.042,-79.036
8542,-0.1665,0.3408,-0.9463,-0.732,-0.549,0.122,160.505,9.047,-79.036
8552,-0.1660,0.3398,-0.9448,-0.793,-0.610,0.000,160.494,9.058,-79.036
8562,-0.1660,0.3437,-0.9443,-0.610,-0.549,-0.244,160.483,9.069,-79.036
8572,-0.1670,0.3437,-0.9429,-0.427,-0.366,-0.366,160.472,9.075,-79.036
8582,-0.1665,0.3413,-0.9419,-0.183,-0.061,-0.488,160.466,9.080,-79.036
8592,-0.1655,0.3384,-0.9385,-0.061,0.244,-0.671,160.466,9.086,-79.036
8602,-0.1626,0.3369,-0.9399,-0.061,0.427,-0.854,160.461,9.086,-79.036
8612,-0.1636,0.3389,-0.9448,0.061,0.610,-0.977,160.461,9.086,-79.036
8622,-0.1626,0.3379,-0.9473,0.305,0.854,-1.038,160.466,9.080,-79.025
8632,-0.1631,0.3354,-0.9453,0.366,1.099,-1.099,160.472,9.075,-79.008
8642,-0.1577,0.3311,-0.9502,0.549,1.099,-0.977,160.483,9.069,-78.997
8652,-0.1582,0.3320,-0.9497,0.549,1.038,-0.854,160.494,9.058,-78.986
8662,-0.1582,0.3311,-0.9492,0.427,0.916,-0.793,160.505,9.053,-78.975
8672,-0.1587,0.3286,-0.9526,0.305,0.916,-0.732,160.510,9.042,-78.964
8682,-0.1572,0.3291,-0.9531,0.244,0.916,-0.610,160.521,9.036,-78.959
8692,-0.1553,0.3262,-0.9556,0.427,0.854,-0.549,160.532,9.025,-78.948
8702,-0.1562,0.3262,-0.9570,0.610,0.793,-0.366,160.543,9.020,-78.942
8712,-0.1558,0.3247,-0.9585,0.610,0.427,-0.122,160.560,9.014,-78.937
8722,-0.1582,0.3257,-0.9570,0.427,-0.061,0.000,160.571,9.009,-78.942
8732,-0.1597,0.3281,-0.9570,0.061,-0.610,0.122,160.576,9.014,-78.942
8742,-0.1606,0.3311,-0.9565,-0.305,-0.916,0.183,160.576,9.025,-78.948
8752,-0.1616,0.3320,-0.9517,-0.427,-0.916,0.244,160.571,9.031,-78.953
8762,-0.1616,0.3345,-0.9492,-0.427,-0.854,0.244,160.565,9.042,-78.959
8772,-0.1587,0.3354,-0.9492,-0.305,-0.854,0.244,160.560,9.047,-78.964
8782,-0.1611,0.3340,-0.9473,-0.183,-0.854,0.244,160.560,9.053,-78.970
8792,-0.1626,0.3350,-0.9448,-0.183,-0.916,0.244,160.554,9.064,-78.975
8802,-0.1621,0.3345,-0.9424,-0.244,-0.916,0.244,160.554,9.075,-78.981
8812,-0.1646,0.3330,-0.9438,-0.305,-0.732,0.244,160.549,9.080,-78.986
8822,-0.1665,0.3330,-0.9438,-0.427,-0.549,0.244,160.543,9.091,-78.986
8832,-0.1655,0.3359,-0.9453,-0.366,-0.366,0.244,160.538,9.097,-78.992
8842,-0.1650,0.3330,-0.9419,-0.244,-0.244,0.305,160.532,9.102,-78.997
8852,-0.1660,0.3320,-0.9438,-0.183,-0.244,0.366,160.532,9.102,-79.003
8862,-0.1660,0.3335,-0.9448,-0.122,-0.122,0.427,160.532,9.108,-79.003
8872,-0.1665,0.3350,-0.9443,0.061,-0.061,0.488,160.532,9.108,-79.008
8882,-0.1650,0.3350,-0.9429,0.061,0.061,0.488,160.532,9.108,-79.014
8892,-0.1655,0.3359,-0.9434,0.000,0.061,0.488,160.527,9.108,-79.019
8902,-0.1626,0.3354,-0.9438,-0.122,0.183,0.488,160.527,9.108,-79.025
8912,-0.1650,0.3359,-0.9448,-0.183,0.244,0.488,160.521,9.108,-79.025
8922,-0.1670,0.3354,-0.9482,-0.244,0.244,0.427,160.516,9.108,-79.030
8932,-0.1655,0.3345,-0.9463,-0.183,0.244,0.305,160.516,9.108,-79.030
8942,-0.1660,0.3354,-0.9443,-0.061,0.183,0.244,160.516,9.108,-79.036
8952,-0.1670,0.3345,-0.9482,-0.061,0.061,0.244,160.516,9.108,-79.036
8962,-0.1665,0.3359,-0.9448,-0.183,0.061,0.305,160.510,9.108,-79.036
8972,-0.1670,0.3384,-0.9443,-0.183,0.122,0.305,160.505,9.108,-79.041
8982,-0.1660,0.3369,-0.9463,-0.061,0.244,0.305,160.505,9.108,-79.041
8992,-0.1675,0.3384,-0.9468,-0.061,0.244,0.244,160.505,9.108,-79.047
9002,-0.1660,0.3364,-0.9448,-0.244,0.305,0.183,160.499,9.108,-79.047
9012,-0.1689,0.3335,-0.9414,-0.366,0.305,0.061,160.494,9.113,-79.047
9022,-0.1699,0.3359,-0.9414,-0.610,0.183,-0.061,160.488,9.113,-79.041
9032,-0.1685,0.3379,-0.9443,-0.793,0.244,-0.061,160.477,9.119,-79.041
9042,-0.1675,0.3394,-0.9419,-0.610,0.488,0.061,160.472,9.119,-79.041
9052,-0.1641,0.3394,-0.9414,-0.183,0.732,0.000,160.466,9.113,-79.036
9062,-0.1621,0.3359,-0.9453,0.244,0.916,-0.122,160.466,9.102,-79.036
9072,-0.1626,0.3345,-0.9512,0.488,1.160,-0.122,160.477,9.097,-79.030
9082,-0.1606,0.3330,-0.9497,0.366,1.160,-0.061,160.483,9.086,-79.025
9092,-0.1587,0.3330,-0.9512,0.122,0.916,0.000,160.483,9.075,-79.019
9102,-0.1597,0.3350,-0.9497,-0.183,0.671,0.061,160.483,9.064,-79.019
9112,-0.1631,0.3345,-0.9517,-0.305,0.488,0.183,160.483,9.064,-79.019
9122,-0.1646,0.3335,-0.9502,-0.183,0.610,0.305,160.483,9.058,-79.019
9132,-0.1646,0.3330,-0.9482,-0.183,0.671,0.244,160.483,9.053,-79.019
9142,-0.1646,0.3350,-0.9487,-0.183,0.549,0.244,160.483,9.047,-79.019
9152,-0.1641,0.3345,-0.9492,-0.244,0.427,0.244,160.477,9.047,-79.025
9162,-0.1636,0.3330,-0.9497,-0.244,0.488,0.244,160.477,9.042,-79.025
9172,-0.1621,0.3345,-0.9463,-0.305,0.488,0.305,160.477,9.036,-79.025
9182,-0.1577,0.3359,-0.9458,-0.366,0.366,0.366,160.472,9.031,-79.025
9192,-0.1602,0.3354,-0.9453,-0.305,0.183,0.427,160.466,9.031,-79.030
9202,-0.1602,0.3413,-0.9438,-0.305,0.122,0.427,160.461,9.031,-79.036
9212,-0.1606,0.3403,-0.9443,-0.183,0.305,0.366,160.455,9.025,-79.036
9222,-0.1636,0.3403,-0.9429,-0.183,0.671,0.122,160.450,9.020,-79.036
9232,-0.1646,0.3389,-0.9434,-0.305,0.916,0.000,160.450,9.014,-79.030
9242,-0.1636,0.3384,-0.9434,-0.366,0.977,-0.061,160.444,9.009,-79.030
9252,-0.1611,0.3408,-0.9429,-0.305,1.160,-0.122,160.439,8.998,-79.025
9262,-0.1597,0.3413,-0.9429,-0.061,1.282,-0.183,160.433,8.987,-79.019
9272,-0.1602,0.3403,-0.9463,0.244,1.221,-0.244,160.433,8.981,-79.008
9282,-0.1611,0.3389,-0.9492,0.366,1.160,-0.366,160.439,8.970,-79.003
9292,-0.1606,0.3379,-0.9526,0.183,1.221,-0.427,160.444,8.959,-78.992
9302,-0.1606,0.3384,-0.9512,-0.183,1.282,-0.427,160.444,8.948,-78.986
9313,-0.1597,0.3384,-0.9526,-0.305,1.343,-0.488,160.439,8.943,-78.975
9322,-0.1572,0.3354,-0.9531,-0.183,1.343,-0.549,160.439,8.926,-78.970
9332,-0.1587,0.3320,-0.9546,0.061,1.282,-0.671,160.450,8.921,-78.959
9342,-0.1577,0.3301,-0.9526,0.244,0.977,-0.488,160.455,8.910,-78.948
9352,-0.1567,0.3291,-0.9531,0.061,0.366,-0.305,160.461,8.910,-78.942
9362,-0.1567,0.3286,-0.9536,-0.305,-0.122,-0.122,160.466,8.910,-78.942
9372,-0.1616,0.3281,-0.9517,-0.549,-0.183,0.000,160.461,8.910,-78.942
9382,-0.1602,0.3325,-0.9487,-0.793,0.122,0.122,160.455,8.910,-78.942
9392,-0.1602,0.3335,-0.9473,-0.610,0.427,0.305,160.455,8.910,-78.948
9402,-0.1621,0.3350,-0.9492,-0.366,0.488,0.366,160.450,8.904,-78.948
9412,-0.1582,0.3350,-0.9497,-0.183,0.305,0.427,160.450,8.899,-78.953
9422,-0.1592,0.3374,-0.9497,0.000,0.061,0.366,160.450,8.899,-78.953
9432,-0.1597,0.3394,-0.9492,-0.061,-0.122,0.366,160.444,8.899,-78.959
9442,-0.1606,0.3384,-0.9473,-0.305,-0.183,0.305,160.439,8.904,-78.964
9452,-0.1626,0.3374,-0.9463,-0.488,-0.244,0.122,160.433,8.910,-78.964
9462,-0.1641,0.3408,-0.9458,-0.549,-0.061,0.061,160.428,8.910,-78.964
9472,-0.1636,0.3413,-0.9434,-0.549,0.122,0.122,160.417,8.915,-78.964
9482,-0.1641,0.3389,-0.9429,-0.305,0.244,0.061,160.411,8.915,-78.964
9492,-0.1611,0.3389,-0.9438,0.061,0.366,0.000,160.411,8.915,-78.964
9502,-0.1602,0.3384,-0.9443,0.244,0.427,0.000,160.417,8.910,-78.964
9512,-0.1602,0.3384,-0.9458,0.427,0.549,-0.061,160.417,8.910,-78.959
9522,-0.1592,0.3364,-0.9458,0.427,0.610,-0.122,160.422,8.904,-78.959
9532,-0.1602,0.3364,-0.9507,0.244,0.549,-0.183,160.428,8.899,-78.953
9542,-0.1616,0.3340,-0.9487,-0.061,0.610,-0.183,160.428,8.899,-78.948
9552,-0.1616,0.3354,-0.9482,-0.366,0.488,-0.122,160.428,8.899,-78.948
9562,-0.1626,0.3359,-0.9473,-0.549,0.305,-0.061,160.422,8.899,-78.942
9572,-0.1611,0.3394,-0.9492,-0.549,0.183,-0.061,160.417,8.899,-78.942
9582,-0.1626,0.3428,-0.9482,-0.427,0.183,-0.061,160.406,8.899,-78.942
9592,-0.1626,0.3413,-0.9497,-0.183,0.244,-0.183,160.406,8.899,-78.942
9602,-0.1602,0.3413,-0.9526,0.000,0.183,-0.305,160.406,8.899,-78.937
9612,-0.1611,0.3418,-0.9521,-0.122,0.000,-0.488,160.400,8.904,-78.931
9622,-0.1606,0.3398,-0.9487,-0.366,-0.122,-0.549,160.400,8.904,-78.926
9632,-0.1606,0.3389,-0.9468,-0.610,-0.244,-0.549,160.389,8.910,-78.926
9642,-0.1606,0.3374,-0.9429,-0.671,-0.244,-0.610,160.384,8.921,-78.926
9652,-0.1611,0.3359,-0.9409,-0.488,-0.244,-0.610,160.378,8.926,-78.926
9662,-0.1592,0.3379,-0.9380,-0.305,-0.061,-0.610,160.378,8.932,-78.926
9672,-0.1558,0.3354,-0.9385,0.183,0.183,-0.549,160.378,8.932,-78.926
9682,-0.1543,0.3325,-0.9399,0.671,0.610,-0.610,160.389,8.926,-78.926
9692,-0.1538,0.3320,-0.9434,0.793,1.099,-0.610,160.400,8.915,-78.926
9702,-0.1528,0.3301,-0.9492,0.793,1.526,-0.488,160.411,8.899,-78.926
9712,-0.1509,0.3271,-0.9512,0.854,1.709,-0.244,160.428,8.882,-78.926
9722,-0.1523,0.3237,-0.9536,0.793,1.526,0.000,160.444,8.860,-78.926
9732,-0.1558,0.3232,-0.9551,0.671,1.099,0.244,160.461,8.849,-78.926
9742,-0.1562,0.3223,-0.9551,0.610,0.732,0.488,160.477,8.844,-78.926
9752,-0.1597,0.3252,-0.9561,0.488,0.427,0.732,160.488,8.839,-78.926
9762,-0.1606,0.3281,-0.9526,0.244,0.122,0.854,160.494,8.833,-78.926
9772,-0.1606,0.3315,-0.9531,-0.061,-0.183,0.916,160.494,8.839,-78.926
9782,-0.1597,0.3359,-0.9536,-0.244,-0.427,0.977,160.494,8.839,-78.926
9792,-0.1606,0.3394,-0.9482,-0.244,-0.549,0.977,160.483,8.844,-78.926
9802,-0.1597,0.3423,-0.9453,-0.244,-0.549,0.977,160.477,8.844,-78.926
9813,-0.1592,0.3437,-0.9458,-0.122,-0.427,0.916,160.472,8.849,-78.926
9822,-0.1597,0.3437,-0.9424,0.183,-0.305,0.793,160.466,8.849,-78.926
9832,-0.1606,0.3408,-0.9453,0.427,-0.183,0.549,160.466,8.855,-78.926
9842,-0.1616,0.3423,-0.9438,0.427,-0.122,0.366,160.466,8.855,-78.926
9852,-0.1636,0.3452,-0.9453,0.183,-0.122,0.183,160.461,8.860,-78.926
9862,-0.1641,0.3452,-0.9458,0.000,0.061,0.000,160.455,8.866,-78.926
9872,-0.1636,0.3428,-0.9443,0.000,0.366,-0.183,160.455,8.866,-78.926
9882,-0.1621,0.3423,-0.9458,0.305,0.732,-0.305,160.455,8.860,-78.926
9892,-0.1592,0.3394,-0.9463,0.488,1.038,-0.244,160.455,8.855,-78.926
9902,-0.1587,0.3394,-0.9458,0.671,1.099,-0.244,160.461,8.844,-78.926
9914,-0.1597,0.3413,-0.9463,0.671,0.793,-0.427,160.466,8.844,-78.926
9922,-0.1602,0.3384,-0.9482,0.427,0.488,-0.610,160.472,8.839,-78.926
9932,-0.1597,0.3403,-0.9507,0.000,0.488,-0.671,160.472,8.839,-78.926
9942,-0.1577,0.3389,-0.9531,-0.183,0.610,-0.793,160.472,8.839,-78.926
9952,-0.1553,0.3379,-0.9517,-0.183,0.732,-0.916,160.472,8.833,-78.926
9962,-0.1553,0.3330,-0.9507,0.000,0.732,-0.854,160.472,8.828,-78.926
9972,-0.1577,0.3306,-0.9512,0.183,0.549,-0.732,160.483,8.828,-78.926
9982,-0.1577,0.3281,-0.9517,0.244,0.366,-0.488,160.488,8.828,-78.926
9992,-0.1572,0.3286,-0.9478,0.305,0.183,-0.244,160.494,8.828,-78.926
10002,-0.1553,0.3301,-0.9521,0.366,0.122,-0.122,160.505,8.822,-78.926
10012,-0.1562,0.3291,-0.9536,0.244,0.122,-0.122,160.510,8.822,-78.926
10022,-0.1572,0.3306,-0.9531,-0.061,0.122,0.000,160.516,8.822,-78.926
10032,-0.1558,0.3350,-0.9541,-0.366,0.061,0.122,160.510,8.822,-78.926
10042,-0.1572,0.3369,-0.9546,-0.488,-0.061,0.183,160.505,8.822,-78.926
10052,-0.1597,0.3379,-0.9531,-0.305,-0.305,0.122,160.505,8.822,-78.926
10062,-0.1611,0.3364,-0.9526,-0.061,-0.427,0.122,160.505,8.828,-78.926
10072,-0.1611,0.3359,-0.9546,0.183,-0.610,0.122,160.505,8.839,-78.926
10082,-0.1641,0.3364,-0.9507,0.244,-0.793,0.122,160.505,8.849,-78.926
10092,-0.1636,0.3364,-0.9434,0.061,-0.854,0.061,160.505,8.860,-78.926
10102,-0.1641,0.3389,-0.9434,-0.183,-0.793,0.122,160.499,8.871,-78.926
10112,-0.1621,0.3408,-0.9424,-0.183,-0.488,0.122,160.494,8.877,-78.926
10122,-0.1616,0.3403,-0.9434,0.061,-0.183,0.000,160.494,8.882,-78.926
10132,-0.1616,0.3384,-0.9443,0.488,0.122,-0.122,160.494,8.888,-78.926
10142,-0.1611,0.3364,-0.9473,0.854,0.305,-0.183,160.505,8.888,-78.926
10152,-0.1611,0.3354,-0.9468,0.916,0.427,-0.122,160.510,8.882,-78.926
10162,-0.1606,0.3340,-0.9487,0.610,0.488,-0.061,160.521,8.882,-78.926
10172,-0.1592,0.3330,-0.9478,0.305,0.549,-0.061,160.527,8.877,-78.926
10182,-0.1582,0.3340,-0.9478,0.122,0.549,0.061,160.527,8.871,-78.926
10192,-0.1602,0.3335,-0.9463,0.122,0.549,0.122,160.527,8.871,-78.926
10202,-0.1597,0.3354,-0.9478,0.244,0.366,0.122,160.532,8.866,-78.926
10212,-0.1621,0.3345,-0.9473,0.427,0.244,0.061,160.538,8.866,-78.926
10222,-0.1636,0.3359,-0.9487,0.549,0.061,0.000,160.538,8.871,-78.926
10232,-0.1641,0.3359,-0.9517,0.488,-0.061,-0.183,160.543,8.877,-78.926
10242,-0.1636,0.3350,-0.9492,0.427,-0.061,-0.244,160.549,8.882,-78.926
10252,-0.1631,0.3369,-0.9521,0.305,0.122,-0.366,160.554,8.882,-78.926
10262,-0.1602,0.3379,-0.9517,0.183,0.244,-0.366,160.554,8.882,-78.926
10272,-0.1582,0.3350,-0.9512,0.244,0.183,-0.427,160.560,8.882,-78.926
10282,-0.1611,0.3320,-0.9492,0.183,-0.183,-0.549,160.560,8.888,-78.926
10292,-0.1631,0.3301,-0.9482,-0.122,-0.671,-0.610,160.565,8.899,-78.926
10302,-0.1606,0.3320,-0.9468,-0.610,-0.854,-0.427,160.560,8.915,-78.926
10313,-0.1602,0.3369,-0.9463,-0.732,-0.732,-0.366,160.549,8.921,-78.926
10322,-0.1602,0.3369,-0.9468,-0.488,-0.488,-0.427,160.543,8.932,-78.926
10332,-0.1548,0.3350,-0.9492,-0.183,-0.122,-0.610,160.543,8.932,-78.926
10342,-0.1553,0.3306,-0.9473,0.061,0.244,-0.549,160.549,8.926,-78.926
10352,-0.1548,0.3315,-0.9497,0.305,0.549,-0.427,160.554,8.921,-78.926
10362,-0.1543,0.3301,-0.9502,0.366,0.549,-0.183,160.560,8.915,-78.926
10372,-0.1538,0.3291,-0.9531,0.488,0.244,-0.122,160.571,8.910,-78.926
10382,-0.1577,0.3296,-0.9546,0.488,-0.061,-0.061,160.576,8.915,-78.926
10392,-0.1597,0.3291,-0.9541,0.244,-0.366,0.000,160.587,8.915,-78.926
10402,-0.1606,0.3306,-0.9536,-0.183,-0.610,0.061,160.587,8.926,-78.926
10412,-0.1626,0.3325,-0.9487,-0.732,-0.671,0.061,160.576,8.932,-78.926
10422,-0.1631,0.3354,-0.9492,-0.854,-0.610,0.122,160.571,8.943,-78.926
10432,-0.1602,0.3359,-0.9463,-0.610,-0.488,0.183,160.560,8.948,-78.926
10442,-0.1606,0.3359,-0.9463,-0.183,-0.488,0.183,160.560,8.954,-78.926
10452,-0.1606,0.3374,-0.9448,0.244,-0.549,0.183,160.560,8.959,-78.926
10462,-0.1611,0.3374,-0.9468,0.488,-0.488,0.122,160.560,8.965,-78.926
10472,-0.1621,0.3389,-0.9448,0.366,-0.244,0.061,160.560,8.965,-78.926
10482,-0.1621,0.3398,-0.9429,0.183,-0.061,0.000,160.560,8.970,-78.926
10492,-0.1626,0.3408,-0.9429,0.061,0.061,-0.183,160.554,8.970,-78.926
10502,-0.1636,0.3423,-0.9448,0.122,0.122,-0.427,160.554,8.976,-78.926
10512,-0.1616,0.3403,-0.9463,0.366,0.305,-0.610,160.554,8.976,-78.926
10522,-0.1616,0.3384,-0.9468,0.488,0.549,-0.732,160.560,8.976,-78.926
10532,-0.1621,0.3369,-0.9492,0.427,0.732,-0.854,160.565,8.970,-78.926
10542,-0.1611,0.3354,-0.9507,0.366,0.549,-0.916,160.565,8.970,-78.926
10552,-0.1606,0.3359,-0.9517,0.305,0.366,-0.916,160.571,8.970,-78.926
10562,-0.1611,0.3345,-0.9497,0.061,0.244,-0.916,160.576,8.976,-78.926
10572,-0.1616,0.3311,-0.9517,0.061,0.061,-0.916,160.582,8.976,-78.926
10582,-0.1592,0.3320,-0.9482,0.061,0.000,-0.977,160.582,8.981,-78.926
10592,-0.1582,0.3311,-0.9497,0.122,0.122,-0.916,160.587,8.981,-78.926
10602,-0.1572,0.3267,-0.9517,0.305,0.183,-0.916,160.598,8.981,-78.926
10612,-0.1606,0.3237,-0.9521,0.305,0.000,-0.854,160.609,8.987,-78.926
10622,-0.1621,0.3242,-0.9507,0.061,-0.244,-0.732,160.615,8.992,-78.926
10632,-0.1611,0.3237,-0.9497,-0.122,-0.427,-0.488,160.620,8.998,-78.926
10642,-0.1602,0.3208,-0.9468,-0.305,-0.549,-0.305,160.620,9.009,-78.926
10652,-0.1626,0.3247,-0.9453,-0.366,-0.488,-0.122,160.620,9.014,-78.926
10662,-0.1602,0.3281,-0.9492,-0.244,-0.366,0.000,160.626,9.020,-78.926
10672,-0.1572,0.3296,-0.9492,0.061,-0.061,0.122,160.626,9.020,-78.926
10682,-0.1582,0.3271,-0.9482,0.244,0.183,0.183,160.631,9.014,-78.926
10692,-0.1582,0.3286,-0.9492,0.244,0.305,0.183,160.637,9.009,-78.926
10702,-0.1597,0.3306,-0.9526,0.183,0.366,0.244,160.642,9.003,-78.926
10712,-0.1616,0.3320,-0.9492,0.183,0.305,0.366,160.642,9.003,-78.926
10722,-0.1621,0.3301,-0.9497,0.183,0.122,0.366,160.648,9.003,-78.926
10732,-0.1626,0.3330,-0.9546,0.122,0.061,0.305,160.648,9.003,-78.926
10742,-0.1641,0.3330,-0.9551,-0.061,0.000,0.366,160.648,9.003,-78.926
10752,-0.1611,0.3350,-0.9541,-0.122,-0.122,0.427,160.648,9.003,-78.926
10762,-0.1631,0.3325,-0.9536,-0.122,-0.427,0.488,160.648,9.009,-78.926
10772,-0.1636,0.3340,-0.9521,-0.122,-0.610,0.610,160.642,9.014,-78.926
10782,-0.1621,0.3325,-0.9487,0.000,-0.671,0.671,160.642,9.020,-78.926
10792,-0.1626,0.3315,-0.9497,0.061,-0.671,0.793,160.642,9.025,-78.926
10802,-0.1650,0.3330,-0.9453,-0.122,-0.610,0.732,160.637,9.031,-78.926
10813,-0.1650,0.3364,-0.9414,-0.366,-0.488,0.732,160.631,9.036,-78.926
10822,-0.1660,0.3403,-0.9434,-0.427,-0.366,0.671,160.620,9.042,-78.926
10832,-0.1660,0.3423,-0.9438,-0.244,-0.183,0.549,160.615,9.042,-78.926
10842,-0.1665,0.3408,-0.9468,0.061,0.061,0.427,160.609,9.047,-78.926
10852,-0.1650,0.3398,-0.9424,0.244,0.183,0.305,160.604,9.047,-78.926
10862,-0.1680,0.3374,-0.9438,0.305,0.244,0.244,160.604,9.047,-78.926
10872,-0.1660,0.3394,-0.9443,0.183,0.183,0.122,160.604,9.047,-78.926
10882,-0.1660,0.3384,-0.9458,0.061,0.000,0.000,160.604,9.053,-78.926
10892,-0.1660,0.3369,-0.9453,0.000,-0.183,-0.122,160.598,9.058,-78.926
10902,-0.1660,0.3384,-0.9478,0.122,-0.061,-0.122,160.598,9.064,-78.926
10912,-0.1665,0.3374,-0.9468,0.122,0.244,-0.122,160.598,9.064,-78.926
10922,-0.1646,0.3359,-0.9458,0.122,0.427,-0.183,160.598,9.064,-78.926
10932,-0.1646,0.3364,-0.9443,0.183,0.183,-0.244,160.598,9.064,-78.926
10942,-0.1670,0.3354,-0.9448,0.061,-0.061,-0.305,160.598,9.069,-78.926
10952,-0.1660,0.3345,-0.9468,-0.183,0.000,-0.427,160.598,9.075,-78.926
10962,-0.1670,0.3354,-0.9478,-0.305,0.183,-0.427,160.593,9.080,-78.926
10972,-0.1631,0.3364,-0.9443,-0.122,0.488,-0.488,160.593,9.075,-78.926
10982,-0.1611,0.3359,-0.9478,0.244,0.671,-0.549,160.593,9.069,-78.926
10992,-0.1602,0.3320,-0.9507,0.549,0.793,-0.488,160.598,9.064,-78.926
11002,-0.1577,0.3306,-0.9502,0.549,0.671,-0.366,160.609,9.058,-78.926
11012,-0.1602,0.3291,-0.9497,0.305,0.305,-0.305,160.615,9.058,-78.926
11022,-0.1631,0.3301,-0.9521,0.000,0.061,-0.183,160.620,9.058,-78.926
11032,-0.1660,0.3335,-0.9507,-0.305,0.000,-0.122,160.615,9.064,-78.926
11042,-0.1646,0.3325,-0.9502,-0.427,0.000,-0.061,160.615,9.064,-78.926
11052,-0.1636,0.3306,-0.9507,-0.305,0.061,-0.122,160.615,9.064,-78.926
11062,-0.1646,0.3296,-0.9512,-0.244,0.061,-0.122,160.615,9.069,-78.926
11072,-0.1636,0.3291,-0.9531,-0.183,0.183,-0.061,160.615,9.069,-78.926
11082,-0.1577,0.3301,-0.9497,-0.122,0.122,0.000,160.615,9.064,-78.926
11092,-0.1602,0.3296,-0.9502,-0.122,-0.122,0.061,160.615,9.064,-78.926
11102,-0.1621,0.3311,-0.9487,-0.244,-0.427,0.061,160.615,9.069,-78.926
11112,-0.1606,0.3311,-0.9468,-0.366,-0.427,0.122,160.615,9.075,-78.926
11122,-0.1641,0.3325,-0.9448,-0.427,-0.244,0.183,160.609,9.080,-78.926
11132,-0.1641,0.3345,-0.9419,-0.305,0.000,0.122,160.604,9.080,-78.926
11142,-0.1611,0.3354,-0.9434,-0.183,0.244,0.122,160.598,9.080,-78.926
11152,-0.1621,0.3364,-0.9438,0.122,0.549,0.122,160.598,9.075,-78.926
11162,-0.1646,0.3359,-0.9453,0.366,0.793,0.061,160.598,9.069,-78.926
11172,-0.1626,0.3350,-0.9453,0.549,0.977,0.000,160.604,9.064,-78.926
11182,-0.1621,0.3350,-0.9507,0.610,0.977,-0.122,160.615,9.053,-78.926
11192,-0.1631,0.3354,-0.9502,0.549,0.977,-0.183,160.620,9.047,-78.926
11202,-0.1621,0.3354,-0.9551,0.366,0.977,-0.244,160.620,9.036,-78.926
11212,-0.1611,0.3340,-0.9531,0.122,0.854,-0.183,160.626,9.031,-78.926
11222,-0.1621,0.3354,-0.9526,0.061,0.610,-0.122,160.626,9.025,-78.926
11232,-0.1616,0.3345,-0.9551,0.122,0.488,-0.122,160.626,9.025,-78.926
11242,-0.1606,0.3354,-0.9556,0.122,0.427,-0.183,160.631,9.020,-78.926
11252,-0.1592,0.3325,-0.9561,0.122,0.366,-0.244,160.637,9.014,-78.926
11262,-0.1587,0.3320,-0.9570,0.000,0.122,-0.244,160.637,9.014,-78.926
11272,-0.1611,0.3335,-0.9536,-0.305,-0.305,-0.183,160.637,9.020,-78.926
11282,-0.1650,0.3335,-0.9512,-0.427,-0.671,-0.061,160.631,9.025,-78.926
11292,-0.1636,0.3330,-0.9492,-0.366,-0.732,0.000,160.626,9.036,-78.926
11302,-0.1636,0.3320,-0.9468,-0.183,-0.549,-0.061,160.626,9.042,-78.926
11313,-0.1621,0.3320,-0.9468,-0.061,-0.305,-0.122,160.626,9.047,-78.926
11322,-0.1626,0.3325,-0.9453,0.061,-0.183,0.061,160.626,9.053,-78.926
11332,-0.1616,0.3320,-0.9443,-0.061,-0.183,0.061,160.626,9.053,-78.926
11342,-0.1626,0.3345,-0.9463,-0.183,-0.183,0.061,160.620,9.058,-78.926
11352,-0.1631,0.3340,-0.9468,-0.305,-0.122,0.061,160.620,9.058,-78.926
11362,-0.1621,0.3364,-0.9473,-0.122,0.061,0.000,160.615,9.058,-78.926
11372,-0.1641,0.3364,-0.9482,0.000,0.244,-0.061,160.615,9.058,-78.926
11382,-0.1631,0.3330,-0.9507,0.122,0.183,-0.183,160.615,9.058,-78.926
11392,-0.1646,0.3330,-0.9526,0.183,0.000,-0.183,160.620,9.064,-78.926
11402,-0.1646,0.3306,-0.9536,-0.061,-0.122,-0.122,160.620,9.069,-78.926
11412,-0.1670,0.3325,-0.9526,-0.244,-0.305,-0.061,160.620,9.075,-78.926
11422,-0.1665,0.3345,-0.9531,-0.366,-0.427,0.061,160.615,9.080,-78.926
11432,-0.1675,0.3350,-0.9502,-0.244,-0.549,0.061,160.615,9.091,-78.926
11442,-0.1670,0.3359,-0.9531,-0.183,-0.610,0.000,160.609,9.097,-78.926
11452,-0.1665,0.3364,-0.9507,-0.183,-0.732,-0.061,160.609,9.108,-78.926
11462,-0.1665,0.3389,-0.9482,-0.366,-0.854,-0.183,160.604,9.119,-78.926
11472,-0.1670,0.3364,-0.9482,-0.610,-0.977,-0.305,160.593,9.130,-78.926
11482,-0.1655,0.3379,-0.9468,-0.793,-0.916,-0.366,160.582,9.146,-78.926
11492,-0.1665,0.3394,-0.9468,-0.854,-0.732,-0.549,160.571,9.157,-78.926
11502,-0.1665,0.3350,-0.9448,-0.793,-0.671,-0.610,160.565,9.168,-78.926
11512,-0.1670,0.3359,-0.9438,-0.793,-0.610,-0.549,160.554,9.174,-78.926
11522,-0.1675,0.3384,-0.9424,-0.732,-0.488,-0.488,160.543,9.185,-78.926
11532,-0.1680,0.3374,-0.9414,-0.549,-0.244,-0.549,160.538,9.196,-78.926
11542,-0.1694,0.3379,-0.9424,-0.305,0.122,-0.671,160.532,9.201,-78.926
11552,-0.1670,0.3359,-0.9409,-0.122,0.427,-0.793,160.532,9.201,-78.926
11562,-0.1636,0.3350,-0.9448,0.061,0.671,-0.793,160.532,9.196,-78.926
11572,-0.1641,0.3301,-0.9497,0.122,0.732,-0.793,160.538,9.196,-78.926
11582,-0.1660,0.3276,-0.9487,0.122,0.549,-0.793,160.549,9.190,-78.926
11592,-0.1641,0.3267,-0.9473,-0.183,0.305,-0.732,160.549,9.196,-78.926
11602,-0.1636,0.3286,-0.9478,-0.427,0.122,-0.610,160.549,9.196,-78.926
11612,-0.1636,0.3286,-0.9487,-0.366,0.183,-0.488,160.549,9.196,-78.926
11622,-0.1641,0.3311,-0.9517,-0.061,0.488,-0.427,160.554,9.196,-78.926
11632,-0.1597,0.3296,-0.9517,0.366,0.732,-0.427,160.560,9.185,-78.926
11642,-0.1597,0.3276,-0.9541,0.610,0.793,-0.488,160.576,9.179,-78.926
11652,-0.1587,0.3257,-0.9565,0.488,0.610,-0.366,160.587,9.168,-78.926
11662,-0.1582,0.3242,-0.9556,0.122,0.244,-0.183,160.593,9.168,-78.926
11672,-0.1592,0.3276,-0.9541,-0.244,-0.061,0.061,160.598,9.163,-78.926
11682,-0.1597,0.3262,-0.9531,-0.183,-0.305,0.244,160.598,9.168,-78.926
11692,-0.1631,0.3252,-0.9487,0.000,-0.488,0.366,160.604,9.168,-78.926
11702,-0.1646,0.3257,-0.9468,0.122,-0.610,0.427,160.609,9.174,-78.926
11712,-0.1646,0.3267,-0.9487,0.061,-0.610,0.610,160.609,9.179,-78.926
11722,-0.1660,0.3291,-0.9443,-0.244,-0.488,0.732,160.609,9.185,-78.926
11732,-0.1665,0.3330,-0.9443,-0.244,-0.427,0.793,160.604,9.190,-78.926
11742,-0.1675,0.3354,-0.9453,-0.244,-0.366,0.793,160.598,9.190,-78.926
11752,-0.1680,0.3389,-0.9414,-0.183,-0.305,0.793,160.593,9.196,-78.926
11762,-0.1665,0.3423,-0.9458,-0.061,-0.244,0.427,160.587,9.201,-78.926
11772,-0.1675,0.3423,-0.9473,-0.305,-0.183,0.183,160.576,9.201,-78.926
11782,-0.1699,0.3437,-0.9458,-0.549,-0.061,-0.061,160.565,9.207,-78.926
11792,-0.1709,0.3433,-0.9448,-0.671,0.000,-0.366,160.554,9.212,-78.926
11802,-0.1704,0.3418,-0.9453,-0.671,0.122,-0.671,160.543,9.218,-78.926
11813,-0.1685,0.3389,-0.9443,-0.427,0.244,-0.793,160.538,9.223,-78.926
11822,-0.1670,0.3379,-0.9448,-0.183,0.366,-0.732,160.538,9.223,-78.926
11832,-0.1646,0.3354,-0.9434,0.183,0.427,-0.671,160.538,9.223,-78.926
11842,-0.1597,0.3350,-0.9448,0.366,0.366,-0.610,160.543,9.218,-78.926
11852,-0.1606,0.3325,-0.9468,0.427,0.427,-0.610,160.549,9.218,-78.926
11862,-0.1616,0.3306,-0.9482,0.366,0.549,-0.610,160.554,9.212,-78.926
11872,-0.1616,0.3296,-0.9487,0.061,0.793,-0.671,160.560,9.207,-78.926
11882,-0.1602,0.3262,-0.9492,0.000,0.854,-0.610,160.565,9.201,-78.926
11892,-0.1577,0.3262,-0.9512,0.061,0.732,-0.610,160.576,9.190,-78.926
11902,-0.1606,0.3237,-0.9517,0.122,0.732,-0.549,160.582,9.185,-78.926
11915,-0.1631,0.3228,-0.9541,0.183,0.671,-0.305,160.593,9.179,-78.926
11922,-0.1646,0.3218,-0.9512,0.183,0.488,0.000,160.604,9.179,-78.926
11932,-0.1616,0.3252,-0.9526,0.122,0.183,0.244,160.609,9.174,-78.926
11942,-0.1641,0.3286,-0.9526,-0.122,-0.244,0.427,160.609,9.174,-78.926
11952,-0.1646,0.3311,-0.9507,-0.305,-0.488,0.549,160.609,9.179,-78.926
11962,-0.1626,0.3369,-0.9521,-0.305,-0.427,0.549,160.604,9.179,-78.926
11972,-0.1616,0.3350,-0.9487,-0.366,-0.366,0.549,160.598,9.179,-78.926
11982,-0.1646,0.3364,-0.9468,-0.366,-0.305,0.427,160.593,9.185,-78.926
11992,-0.1641,0.3394,-0.9478,-0.366,-0.366,0.305,160.582,9.190,-78.926
12002,-0.1660,0.3384,-0.9468,-0.305,-0.488,0.244,160.576,9.196,-78.926
12012,-0.1694,0.3389,-0.9453,-0.244,-0.427,0.183,160.571,9.201,-78.926
12022,-0.1709,0.3364,-0.9438,-0.183,-0.305,0.061,160.571,9.207,-78.926
12032,-0.1709,0.3364,-0.9438,-0.244,-0.061,0.061,160.565,9.212,-78.926
12042,-0.1694,0.3345,-0.9429,-0.244,0.122,0.122,160.560,9.218,-78.926
12052,-0.1724,0.3350,-0.9438,-0.122,0.061,0.183,160.560,9.218,-78.926
12062,-0.1724,0.3369,-0.9443,0.000,-0.061,0.122,160.554,9.223,-78.926
12072,-0.1714,0.3369,-0.9424,0.000,0.000,0.061,160.554,9.229,-78.926
12082,-0.1704,0.3389,-0.9438,-0.061,0.122,0.122,160.549,9.234,-78.926
12092,-0.1699,0.3374,-0.9453,-0.183,0.305,0.061,160.543,9.234,-78.926
12102,-0.1670,0.3389,-0.9434,-0.305,0.305,0.000,160.538,9.234,-78.926
12112,-0.1650,0.3389,-0.9448,-0.366,0.366,-0.061,160.532,9.229,-78.926
12122,-0.1650,0.3369,-0.9438,-0.183,0.305,-0.183,160.532,9.229,-78.926
12132,-0.1650,0.3364,-0.9473,-0.061,0.305,-0.305,160.532,9.229,-78.926
12142,-0.1650,0.3379,-0.9468,-0.183,0.305,-0.305,160.527,9.229,-78.926
12152,-0.1665,0.3354,-0.9463,-0.244,0.366,-0.305,160.527,9.229,-78.926
12162,-0.1665,0.3340,-0.9458,-0.427,0.244,-0.305,160.521,9.229,-78.926
12172,-0.1685,0.3340,-0.9492,-0.549,0.244,-0.244,160.516,9.229,-78.926
12182,-0.1685,0.3350,-0.9497,-0.549,0.366,-0.183,160.510,9.229,-78.926
12192,-0.1655,0.3364,-0.9487,-0.366,0.549,-0.244,160.510,9.223,-78.926
12202,-0.1675,0.3384,-0.9517,-0.122,0.488,-0.366,160.510,9.223,-78.926
12212,-0.1660,0.3374,-0.9487,-0.061,0.366,-0.366,160.505,9.223,-78.926
12222,-0.1650,0.3359,-0.9458,-0.244,0.244,-0.366,160.505,9.223,-78.926
12232,-0.1660,0.3325,-0.9429,-0.488,0.183,-0.305,160.499,9.223,-78.926
12242,-0.1655,0.3340,-0.9458,-0.732,0.244,-0.305,160.494,9.223,-78.926
12252,-0.1650,0.3403,-0.9443,-0.732,0.427,-0.244,160.483,9.223,-78.926
12262,-0.1670,0.3374,-0.9448,-0.427,0.671,-0.305,160.483,9.218,-78.926
12272,-0.1655,0.3374,-0.9478,0.000,0.732,-0.427,160.483,9.218,-78.926
12282,-0.1650,0.3364,-0.9512,0.305,0.732,-0.488,160.483,9.212,-78.926
12292,-0.1641,0.3340,-0.9531,0.427,0.732,-0.488,160.494,9.207,-78.926
12302,-0.1631,0.3345,-0.9521,0.183,0.610,-0.427,160.499,9.201,-78.926
12313,-0.1602,0.3345,-0.9521,-0.244,0.305,-0.366,160.499,9.196,-78.926
12322,-0.1636,0.3354,-0.9526,-0.549,0.000,-0.366,160.494,9.201,-78.926
12332,-0.1660,0.3369,-0.9507,-0.671,-0.183,-0.183,160.488,9.201,-78.926
12342,-0.1665,0.3354,-0.9482,-0.610,-0.305,-0.122,160.483,9.207,-78.926
12352,-0.1689,0.3350,-0.9487,-0.427,-0.305,-0.183,160.477,9.218,-78.926
12362,-0.1680,0.3340,-0.9468,-0.427,-0.366,-0.305,160.472,9.223,-78.926
12372,-0.1680,0.3335,-0.9458,-0.549,-0.244,-0.305,160.472,9.229,-78.926
12382,-0.1689,0.3311,-0.9458,-0.732,-0.061,-0.305,160.466,9.234,-78.926
12392,-0.1665,0.3315,-0.9443,-0.793,0.061,-0.244,160.461,9.234,-78.926
12402,-0.1646,0.3335,-0.9419,-0.732,0.183,-0.183,160.455,9.234,-78.926
12412,-0.1636,0.3335,-0.9424,-0.488,0.183,-0.183,160.450,9.234,-78.926
12422,-0.1626,0.3330,-0.9419,-0.305,0.122,-0.122,160.450,9.234,-78.926
12432,-0.1636,0.3340,-0.9399,-0.183,0.122,-0.061,160.444,9.234,-78.926
12442,-0.1655,0.3389,-0.9409,-0.183,0.366,-0.061,160.444,9.234,-78.926
12452,-0.1650,0.3394,-0.9414,-0.122,0.732,-0.183,160.439,9.229,-78.926
12462,-0.1660,0.3389,-0.9438,0.000,1.038,-0.366,160.439,9.223,-78.926
12472,-0.1641,0.3394,-0.9478,0.122,1.404,-0.488,160.439,9.212,-78.926
12482,-0.1616,0.3374,-0.9507,0.183,1.587,-0.549,160.444,9.196,-78.926
12492,-0.1611,0.3350,-0.9507,0.244,1.404,-0.549,160.450,9.185,-78.926
12502,-0.1626,0.3345,-0.9512,0.122,0.977,-0.488,160.450,9.174,-78.926
12512,-0.1641,0.3335,-0.9521,-0.122,0.488,-0.427,160.455,9.174,-78.926
12522,-0.1621,0.3325,-0.9507,-0.244,0.183,-0.427,160.455,9.174,-78.926
12532,-0.1616,0.3340,-0.9517,-0.183,0.061,-0.488,160.455,9.174,-78.926
12542,-0.1611,0.3325,-0.9487,-0.061,0.000,-0.488,160.461,9.174,-78.926
12552,-0.1606,0.3311,-0.9453,0.122,-0.122,-0.427,160.461,9.174,-78.926
12562,-0.1611,0.3267,-0.9478,0.122,-0.366,-0.305,160.472,9.179,-78.926
12572,-0.1606,0.3267,-0.9429,0.183,-0.610,-0.244,160.477,9.185,-78.926
12582,-0.1631,0.3291,-0.9443,0.366,-0.854,-0.122,160.483,9.196,-78.926
12592,-0.1626,0.3301,-0.9453,0.610,-1.099,-0.122,160.488,9.207,-78.926
12602,-0.1636,0.3325,-0.9468,1.099,-1.343,-0.061,160.505,9.218,-78.926
12612,-0.1636,0.3345,-0.9512,1.404,-1.404,-0.061,160.516,9.234,-78.926
12622,-0.1650,0.3384,-0.9585,1.221,-1.282,0.183,160.527,9.245,-78.926
12632,-0.1670,0.3379,-0.9604,0.854,-0.977,0.366,160.538,9.250,-78.926
12642,-0.1660,0.3374,-0.9561,0.244,-0.732,0.427,160.538,9.256,-78.926
12652,-0.1660,0.3398,-0.9551,-0.244,-0.854,0.366,160.532,9.267,-78.926
12662,-0.1670,0.3408,-0.9536,-0.549,-1.282,0.244,160.527,9.278,-78.926
12672,-0.1680,0.3398,-0.9482,-0.549,-1.709,0.122,160.516,9.294,-78.926
12682,-0.1733,0.3403,-0.9473,-0.549,-1.953,0.061,160.505,9.316,-78.926
12692,-0.1738,0.3384,-0.9419,-0.549,-1.892,0.061,160.499,9.338,-78.926
12702,-0.1729,0.3403,-0.9375,-0.488,-1.587,0.000,160.488,9.360,-78.926
12712,-0.1738,0.3384,-0.9326,-0.366,-1.160,-0.122,160.477,9.377,-78.926
12722,-0.1729,0.3359,-0.9351,-0.061,-0.610,-0.366,160.477,9.388,-78.926
12732,-0.1709,0.3354,-0.9355,0.244,-0.122,-0.488,160.477,9.393,-78.926
12742,-0.1694,0.3345,-0.9409,0.305,0.305,-0.549,160.483,9.399,-78.926
12752,-0.1699,0.3345,-0.9443,0.366,0.549,-0.549,160.483,9.393,-78.926
12762,-0.1709,0.3354,-0.9463,0.427,0.671,-0.427,160.488,9.393,-78.926
12772,-0.1699,0.3359,-0.9463,0.488,0.916,-0.305,160.494,9.388,-78.926
12782,-0.1680,0.3325,-0.9482,0.488,1.099,-0.305,160.505,9.382,-78.926
12792,-0.1680,0.3320,-0.9507,0.427,1.160,-0.183,160.510,9.371,-78.926
12802,-0.1660,0.3330,-0.9536,0.244,1.038,-0.122,160.516,9.360,-78.926
12813,-0.1655,0.3340,-0.9556,0.061,0.732,-0.122,160.521,9.355,-78.926
12822,-0.1685,0.3340,-0.9565,0.000,0.366,-0.183,160.521,9.349,-78.926
12832,-0.1675,0.3330,-0.9570,-0.122,0.000,-0.244,160.527,9.355,-78.926
12842,-0.1675,0.3330,-0.9521,-0.305,-0.244,-0.183,160.521,9.355,-78.926
12852,-0.1665,0.3315,-0.9502,-0.427,-0.549,-0.122,160.521,9.360,-78.926
12862,-0.1665,0.3340,-0.9448,-0.549,-0.732,-0.061,160.516,9.371,-78.926
12872,-0.1699,0.3340,-0.9414,-0.488,-0.610,0.000,160.510,9.377,-78.926
12882,-0.1665,0.3374,-0.9380,-0.366,-0.244,0.000,160.505,9.382,-78.926
12892,-0.1665,0.3398,-0.9365,-0.183,0.122,0.061,160.499,9.382,-78.926
12902,-0.1665,0.3408,-0.9370,0.183,0.610,0.000,160.494,9.377,-78.926
12912,-0.1675,0.3369,-0.9409,0.427,0.977,-0.183,160.499,9.371,-78.926
12922,-0.1655,0.3364,-0.9419,0.610,1.282,-0.244,160.505,9.360,-78.926
12932,-0.1626,0.3350,-0.9468,0.854,1.526,-0.305,160.516,9.344,-78.926
12942,-0.1650,0.3340,-0.9531,0.916,1.648,-0.305,160.527,9.327,-78.926
12952,-0.1655,0.3301,-0.9556,0.793,1.526,-0.244,160.538,9.316,-78.926
12962,-0.1665,0.3276,-0.9561,0.549,1.221,-0.061,160.549,9.305,-78.926
12972,-0.1680,0.3286,-0.9590,0.183,0.854,0.000,160.560,9.300,-78.926
12982,-0.1680,0.3267,-0.9580,-0.183,0.427,0.183,160.560,9.294,-78.926
12992,-0.1694,0.3271,-0.9551,-0.366,0.000,0.366,160.565,9.294,-78.926
13002,-0.1670,0.3286,-0.9502,-0.366,-0.305,0.488,160.560,9.300,-78.926
13012,-0.1685,0.3286,-0.9497,-0.305,-0.549,0.549,160.560,9.305,-78.926
13022,-0.1680,0.3311,-0.9482,-0.183,-0.671,0.549,160.560,9.311,-78.926
13032,-0.1646,0.3320,-0.9463,-0.244,-0.732,0.610,160.560,9.316,-78.926
13042,-0.1680,0.3354,-0.9429,-0.366,-0.732,0.671,160.549,9.322,-78.926
13052,-0.1719,0.3374,-0.9419,-0.488,-0.671,0.671,160.543,9.327,-78.926
13062,-0.1699,0.3398,-0.9419,-0.549,-0.610,0.610,160.532,9.338,-78.926
13072,-0.1699,0.3418,-0.9395,-0.305,-0.427,0.488,160.521,9.344,-78.926
13082,-0.1714,0.3433,-0.9365,0.000,-0.183,0.305,160.516,9.349,-78.926
13092,-0.1699,0.3437,-0.9360,0.244,0.183,0.183,160.510,9.349,-78.926
13102,-0.1685,0.3403,-0.9395,0.488,0.549,0.000,160.510,9.344,-78.926
13112,-0.1680,0.3398,-0.9404,0.671,0.793,-0.244,160.516,9.338,-78.926
13123,-0.1685,0.3408,-0.9414,0.427,1.099,-0.305,160.516,9.333,-78.926
13132,-0.1689,0.3389,-0.9448,0.244,1.221,-0.366,160.516,9.327,-78.926
13142,-0.1694,0.3384,-0.9478,0.000,1.282,-0.366,160.516,9.316,-78.926
13152,-0.1675,0.3398,-0.9492,0.000,1.343,-0.427,160.516,9.305,-78.926
13163,-0.1646,0.3384,-0.9502,0.244,1.404,-0.488,160.521,9.294,-78.926
13172,-0.1621,0.3340,-0.9556,0.549,1.465,-0.549,160.527,9.283,-78.926
13183,-0.1602,0.3320,-0.9556,0.488,1.343,-0.488,160.538,9.267,-78.926
13193,-0.1631,0.3291,-0.9531,0.244,0.854,-0.488,160.543,9.261,-78.926
13203,-0.1631,0.3262,-0.9517,-0.122,0.244,-0.427,160.549,9.256,-78.926
13213,-0.1641,0.3291,-0.9507,-0.366,-0.244,-0.366,160.549,9.261,-78.926
13223,-0.1655,0.3286,-0.9521,-0.488,-0.305,-0.244,160.549,9.267,-78.926
13233,-0.1655,0.3306,-0.9526,-0.366,-0.122,-0.061,160.549,9.267,-78.926
13243,-0.1650,0.3296,-0.9531,-0.183,-0.122,0.061,160.549,9.267,-78.926
13253,-0.1655,0.3306,-0.9497,-0.183,-0.305,0.122,160.554,9.272,-78.926
13263,-0.1660,0.3325,-0.9492,-0.183,-0.549,0.244,160.549,9.278,-78.926
13273,-0.1650,0.3389,-0.9521,-0.305,-0.671,0.305,160.543,9.283,-78.926
13283,-0.1650,0.3389,-0.9492,-0.183,-0.549,0.183,160.543,9.289,-78.926
13293,-0.1655,0.3379,-0.9473,0.000,-0.488,0.061,160.538,9.294,-78.926
13303,-0.1675,0.3354,-0.9482,0.000,-0.549,-0.061,160.538,9.300,-78.926
13313,-0.1685,0.3350,-0.9482,-0.183,-0.549,-0.061,160.538,9.305,-78.926
13323,-0.1699,0.3359,-0.9473,-0.366,-0.549,-0.061,160.532,9.316,-78.926
13333,-0.1694,0.3345,-0.9453,-0.305,-0.549,0.000,160.527,9.322,-78.926
13343,-0.1685,0.3350,-0.9463,-0.061,-0.427,0.061,160.527,9.327,-78.926
13353,-0.1685,0.3345,-0.9434,0.244,-0.183,0.183,160.527,9.333,-78.926
13363,-0.1680,0.3345,-0.9429,0.366,-0.122,0.183,160.532,9.333,-78.926
13373,-0.1685,0.3369,-0.9424,0.183,-0.183,0.122,160.532,9.338,-78.926
13383,-0.1685,0.3345,-0.9443,-0.061,-0.305,0.061,160.532,9.344,-78.926
13393,-0.1709,0.3364,-0.9438,-0.183,-0.305,0.000,160.527,9.349,-78.926
13403,-0.1699,0.3369,-0.9409,-0.244,-0.122,-0.061,160.521,9.355,-78.926
13413,-0.1714,0.3364,-0.9424,-0.183,0.061,-0.183,160.516,9.355,-78.926
13423,-0.1685,0.3374,-0.9434,0.000,0.183,-0.183,160.516,9.360,-78.926
13433,-0.1699,0.3379,-0.9438,0.122,0.366,-0.122,160.516,9.360,-78.926
13443,-0.1709,0.3379,-0.9434,0.244,0.488,-0.122,160.516,9.355,-78.926
13453,-0.1704,0.3340,-0.9473,0.244,0.549,-0.183,160.521,9.355,-78.926
13463,-0.1704,0.3350,-0.9502,0.183,0.488,-0.244,160.521,9.355,-78.926
13473,-0.1719,0.3350,-0.9487,0.061,0.488,-0.244,160.527,9.355,-78.926
13483,-0.1685,0.3374,-0.9512,-0.061,0.488,-0.305,160.527,9.349,-78.926
13493,-0.1699,0.3340,-0.9507,0.000,0.488,-0.366,160.527,9.349,-78.926
13503,-0.1685,0.3315,-0.9482,-0.061,0.244,-0.427,160.527,9.349,-78.926
13513,-0.1704,0.3320,-0.9468,-0.244,-0.061,-0.366,160.527,9.355,-78.926
13523,-0.1694,0.3320,-0.9482,-0.488,-0.305,-0.244,160.527,9.360,-78.926
13533,-0.1685,0.3350,-0.9473,-0.610,-0.488,-0.183,160.521,9.366,-78.926
13543,-0.1685,0.3364,-0.9463,-0.244,-0.366,-0.183,160.516,9.371,-78.926
13553,-0.1655,0.3330,-0.9468,0.183,-0.061,-0.244,160.521,9.377,-78.926
13563,-0.1655,0.3325,-0.9463,0.549,0.366,-0.244,160.527,9.371,-78.926
13573,-0.1641,0.3306,-0.9478,0.610,0.549,-0.183,160.538,9.366,-78.926
13583,-0.1636,0.3301,-0.9463,0.427,0.366,-0.122,160.543,9.360,-78.926
13593,-0.1665,0.3311,-0.9453,0.122,0.122,0.000,160.543,9.360,-78.926
13602,-0.1689,0.3311,-0.9438,-0.061,0.000,0.061,160.543,9.366,-78.926
13613,-0.1685,0.3311,-0.9473,0.000,0.183,0.183,160.549,9.366,-78.926
13623,-0.1685,0.3311,-0.9507,0.183,0.549,0.244,160.554,9.360,-78.926
13633,-0.1689,0.3315,-0.9521,0.183,0.671,0.305,160.554,9.355,-78.926
13643,-0.1694,0.3335,-0.9502,0.061,0.549,0.366,160.560,9.349,-78.926
13653,-0.1694,0.3325,-0.9512,-0.061,0.061,0.427,160.560,9.349,-78.926
13663,-0.1699,0.3350,-0.9497,-0.183,-0.427,0.488,160.554,9.355,-78.926
13673,-0.1689,0.3354,-0.9492,-0.244,-0.549,0.549,160.549,9.360,-78.926
13683,-0.1699,0.3354,-0.9453,-0.122,-0.610,0.366,160.549,9.366,-78.926
13693,-0.1689,0.3374,-0.9429,-0.183,-0.671,0.244,160.543,9.371,-78.926
13703,-0.1714,0.3408,-0.9434,-0.427,-0.671,0.244,160.532,9.382,-78.926
13713,-0.1699,0.3394,-0.9409,-0.427,-0.549,0.061,160.527,9.388,-78.926
13723,-0.1709,0.3413,-0.9385,-0.305,-0.305,-0.122,160.516,9.393,-78.926
13733,-0.1685,0.3408,-0.9385,0.000,0.122,-0.305,160.516,9.399,-78.926
13743,-0.1694,0.3389,-0.9409,0.427,0.549,-0.427,160.516,9.399,-78.926
13753,-0.1680,0.3364,-0.9438,0.549,0.854,-0.488,160.521,9.393,-78.926
13763,-0.1680,0.3345,-0.9438,0.671,0.916,-0.549,160.527,9.388,-78.926
13773,-0.1689,0.3354,-0.9482,0.427,0.732,-0.549,160.532,9.382,-78.926
13783,-0.1694,0.3345,-0.9507,0.183,0.488,-0.549,160.538,9.382,-78.926
13793,-0.1685,0.3330,-0.9521,0.000,0.549,-0.549,160.538,9.377,-78.926
13803,-0.1646,0.3359,-0.9507,-0.061,0.671,-0.549,160.543,9.371,-78.926
13813,-0.1621,0.3311,-0.9546,0.061,0.732,-0.610,160.549,9.366,-78.926
13823,-0.1650,0.3286,-0.9551,0.183,0.610,-0.549,160.554,9.360,-78.926
13833,-0.1665,0.3257,-0.9526,0.122,0.305,-0.366,160.560,9.360,-78.926
13843,-0.1680,0.3271,-0.9512,0.000,-0.183,-0.244,160.565,9.366,-78.926
13853,-0.1709,0.3301,-0.9492,-0.061,-0.549,-0.061,160.571,9.371,-78.926
13863,-0.1689,0.3296,-0.9512,-0.061,-0.610,0.000,160.571,9.377,-78.926
13873,-0.1680,0.3315,-0.9517,0.000,-0.488,0.061,160.571,9.382,-78.926
13883,-0.1680,0.3320,-0.9478,0.000,-0.488,0.122,160.571,9.388,-78.926
13893,-0.1650,0.3325,-0.9473,-0.061,-0.549,0.122,160.571,9.393,-78.926
13903,-0.1665,0.3340,-0.9473,-0.122,-0.610,0.183,160.571,9.399,-78.926
13916,-0.1685,0.3359,-0.9453,0.000,-0.549,0.183,160.571,9.404,-78.926
13923,-0.1685,0.3306,-0.9463,0.183,-0.122,0.122,160.571,9.404,-78.926
13933,-0.1699,0.3325,-0.9443,0.122,0.305,0.183,160.576,9.404,-78.926
13943,-0.1685,0.3354,-0.9438,0.061,0.305,0.305,160.571,9.404,-78.926
13953,-0.1704,0.3359,-0.9487,0.061,0.000,0.305,160.571,9.404,-78.926
13963,-0.1724,0.3369,-0.9502,0.061,-0.427,0.305,160.571,9.410,-78.926
13973,-0.1733,0.3389,-0.9512,0.061,-0.549,0.244,160.571,9.415,-78.926
13983,-0.1733,0.3379,-0.9473,0.122,-0.366,0.122,160.565,9.426,-78.926
13993,-0.1733,0.3354,-0.9434,0.061,-0.244,-0.061,160.565,9.432,-78.926
14003,-0.1709,0.3335,-0.9404,-0.061,-0.244,-0.183,160.565,9.437,-78.926
14013,-0.1709,0.3335,-0.9419,-0.122,-0.366,-0.183,160.565,9.443,-78.926
14023,-0.1714,0.3291,-0.9424,-0.183,-0.122,-0.061,160.565,9.448,-78.926
14033,-0.1704,0.3315,-0.9414,-0.061,0.366,0.122,160.565,9.448,-78.926
14043,-0.1680,0.3335,-0.9424,0.183,0.610,0.183,160.565,9.443,-78.926
14053,-0.1670,0.3359,-0.9453,0.427,0.671,0.244,160.565,9.432,-78.926
14063,-0.1694,0.3364,-0.9458,0.427,0.427,0.122,160.571,9.432,-78.926
14073,-0.1699,0.3354,-0.9487,0.183,0.183,0.061,160.571,9.432,-78.926
14083,-0.1699,0.3364,-0.9473,-0.122,0.183,0.000,160.571,9.432,-78.926
14093,-0.1699,0.3359,-0.9497,-0.305,0.305,-0.061,160.565,9.432,-78.926
14103,-0.1704,0.3369,-0.9507,-0.244,0.366,-0.061,160.565,9.426,-78.926
14113,-0.1709,0.3359,-0.9507,-0.061,0.427,-0.122,160.565,9.426,-78.926
14123,-0.1704,0.3384,-0.9517,0.183,0.366,-0.061,160.565,9.426,-78.926
14133,-0.1675,0.3364,-0.9521,0.305,0.061,-0.122,160.565,9.426,-78.926
14143,-0.1709,0.3340,-0.9497,0.183,-0.366,-0.244,160.571,9.432,-78.926
14153,-0.1694,0.3359,-0.9473,-0.305,-0.671,-0.366,160.565,9.437,-78.926
14163,-0.1694,0.3389,-0.9468,-0.732,-0.793,-0.366,160.554,9.448,-78.926
14173,-0.1670,0.3374,-0.9434,-0.732,-0.610,-0.366,160.543,9.454,-78.926
14183,-0.1685,0.3340,-0.9434,-0.244,-0.305,-0.488,160.543,9.459,-78.926
14193,-0.1689,0.3340,-0.9458,0.244,0.183,-0.549,160.549,9.465,-78.926
14203,-0.1680,0.3315,-0.9478,0.488,0.488,-0.366,160.554,9.459,-78.926
14213,-0.1655,0.3320,-0.9487,0.488,0.305,-0.244,160.560,9.454,-78.926
14223,-0.1694,0.3330,-0.9468,0.305,-0.122,-0.183,160.565,9.459,-78.926
14233,-0.1699,0.3340,-0.9487,-0.122,-0.488,-0.244,160.565,9.465,-78.926
14243,-0.1714,0.3345,-0.9478,-0.244,-0.488,-0.244,160.560,9.476,-78.926
14253,-0.1719,0.3335,-0.9443,-0.061,-0.183,-0.244,160.560,9.481,-78.926
14263,-0.1729,0.3311,-0.9453,0.061,-0.061,-0.244,160.565,9.481,-78.926
14273,-0.1729,0.3271,-0.9453,0.122,0.000,-0.244,160.571,9.487,-78.926
14283,-0.1699,0.3296,-0.9443,0.000,0.000,-0.122,160.571,9.487,-78.926
14293,-0.1704,0.3320,-0.9434,-0.183,0.000,0.122,160.571,9.492,-78.926
14303,-0.1689,0.3306,-0.9390,-0.244,-0.061,0.122,160.565,9.492,-78.926
14314,-0.1685,0.3330,-0.9424,-0.122,-0.244,0.122,160.565,9.492,-78.926
14323,-0.1704,0.3330,-0.9438,0.183,-0.183,0.244,160.565,9.498,-78.926
14333,-0.1724,0.3340,-0.9424,0.366,0.000,0.244,160.571,9.498,-78.926
14343,-0.1704,0.3335,-0.9458,0.366,0.244,0.061,160.571,9.498,-78.926
14353,-0.1685,0.3350,-0.9458,0.244,0.427,-0.061,160.576,9.492,-78.926
14363,-0.1714,0.3374,-0.9468,0.000,0.488,-0.122,160.571,9.492,-78.926
14373,-0.1733,0.3369,-0.9478,-0.183,0.549,-0.183,160.571,9.492,-78.926
14383,-0.1724,0.3384,-0.9497,-0.244,0.732,-0.183,160.565,9.487,-78.926
14393,-0.1704,0.3413,-0.9497,-0.061,0.732,-0.183,160.565,9.481,-78.926
14403,-0.1675,0.3403,-0.9478,0.305,0.488,-0.244,160.565,9.476,-78.926
14413,-0.1670,0.3384,-0.9487,0.488,0.061,-0.366,160.565,9.476,-78.926
14423,-0.1694,0.3369,-0.9487,0.366,-0.366,-0.427,160.571,9.481,-78.926
14433,-0.1699,0.3389,-0.9526,-0.061,-0.427,-0.549,160.571,9.487,-78.926
14443,-0.1685,0.3379,-0.9512,-0.488,-0.183,-0.671,160.565,9.492,-78.926
14453,-0.1670,0.3364,-0.9482,-0.549,0.122,-0.793,160.560,9.492,-78.926
14463,-0.1675,0.3320,-0.9468,-0.244,0.183,-0.854,160.560,9.492,-78.926
14473,-0.1680,0.3247,-0.9482,0.000,0.122,-0.793,160.565,9.498,-78.926
14483,-0.1699,0.3232,-0.9468,0.122,0.000,-0.488,160.571,9.498,-78.926
14493,-0.1694,0.3237,-0.9458,0.305,-0.244,-0.183,160.582,9.503,-78.926
14503,-0.1709,0.3237,-0.9453,0.366,-0.366,0.000,160.593,9.509,-78.926
14513,-0.1719,0.3281,-0.9453,0.183,-0.366,0.122,160.593,9.514,-78.926
14523,-0.1704,0.3325,-0.9507,0.000,-0.122,0.244,160.593,9.514,-78.926
14533,-0.1689,0.3340,-0.9502,-0.122,0.244,0.305,160.593,9.514,-78.926
14543,-0.1685,0.3354,-0.9512,-0.122,0.305,0.244,160.593,9.509,-78.926
14553,-0.1704,0.3364,-0.9517,-0.061,0.000,0.122,160.593,9.509,-78.926
14563,-0.1714,0.3359,-0.9541,-0.061,-0.305,0.122,160.593,9.514,-78.926
14573,-0.1719,0.3384,-0.9531,0.000,-0.549,0.183,160.587,9.520,-78.926
14583,-0.1714,0.3374,-0.9531,0.000,-0.854,0.122,160.587,9.525,-78.926
14593,-0.1733,0.3369,-0.9492,0.000,-1.160,0.000,160.587,9.542,-78.926
14603,-0.1748,0.3340,-0.9478,-0.244,-1.465,-0.061,160.582,9.558,-78.926
14613,-0.1753,0.3345,-0.9482,-0.549,-1.465,-0.061,160.576,9.575,-78.926
14623,-0.1743,0.3340,-0.9458,-0.610,-1.282,-0.122,160.571,9.591,-78.926
14633,-0.1748,0.3354,-0.9419,-0.427,-1.282,-0.122,160.560,9.608,-78.926
14643,-0.1758,0.3325,-0.9409,-0.427,-1.404,-0.183,160.554,9.624,-78.926
14653,-0.1772,0.3315,-0.9395,-0.244,-1.099,-0.122,160.554,9.635,-78.926
14663,-0.1748,0.3330,-0.9375,-0.061,-0.732,0.000,160.554,9.646,-78.926
14673,-0.1748,0.3311,-0.9395,0.000,-0.488,-0.061,160.554,9.657,-78.926
14683,-0.1748,0.3320,-0.9399,-0.061,-0.183,-0.122,160.549,9.662,-78.926
14693,-0.1738,0.3325,-0.9409,-0.183,0.000,-0.122,160.549,9.662,-78.926
14703,-0.1748,0.3335,-0.9399,-0.244,0.122,-0.122,160.549,9.668,-78.926
14713,-0.1738,0.3340,-0.9419,-0.244,0.244,-0.183,160.543,9.668,-78.926
14723,-0.1758,0.3345,-0.9443,0.000,0.427,-0.183,160.543,9.662,-78.926
14733,-0.1763,0.3350,-0.9434,0.427,0.549,-0.122,160.549,9.662,-78.926
14743,-0.1748,0.3345,-0.9468,0.427,0.549,-0.061,160.554,9.662,-78.926
14753,-0.1748,0.3340,-0.9473,0.366,0.610,-0.061,160.554,9.657,-78.926
14763,-0.1733,0.3379,-0.9497,0.122,0.488,-0.122,160.554,9.657,-78.926
14773,-0.1738,0.3374,-0.9487,-0.122,0.244,-0.244,160.554,9.651,-78.926
14783,-0.1772,0.3350,-0.9473,-0.366,0.061,-0.427,160.554,9.657,-78.926
14793,-0.1763,0.3374,-0.9478,-0.549,-0.122,-0.549,160.543,9.662,-78.926
14803,-0.1758,0.3369,-0.9463,-0.610,-0.305,-0.549,160.538,9.673,-78.926
14813,-0.1743,0.3354,-0.9458,-0.244,-0.183,-0.610,160.538,9.679,-78.926
14823,-0.1733,0.3311,-0.9458,0.061,0.122,-0.671,160.538,9.679,-78.926
14833,-0.1699,0.3301,-0.9468,0.244,0.305,-0.732,160.543,9.679,-78.926
14843,-0.1719,0.3276,-0.9448,0.305,0.427,-0.549,160.554,9.679,-78.926
14853,-0.1694,0.3257,-0.9424,0.244,0.427,-0.366,160.560,9.673,-78.926
14863,-0.1709,0.3242,-0.9414,0.244,0.305,-0.183,160.565,9.673,-78.926
14873,-0.1719,0.3267,-0.9414,0.183,0.183,-0.061,160.571,9.673,-78.926
14883,-0.1743,0.3252,-0.9409,0.244,0.244,0.122,160.576,9.673,-78.926
14893,-0.1763,0.3267,-0.9443,0.305,0.549,0.305,160.587,9.668,-78.926
14903,-0.1763,0.3262,-0.9458,0.244,0.916,0.366,160.593,9.662,-78.926
14913,-0.1777,0.3271,-0.9482,-0.061,1.038,0.427,160.593,9.657,-78.926
14923,-0.1768,0.3296,-0.9512,-0.244,0.977,0.549,160.593,9.646,-78.926
14933,-0.1763,0.3306,-0.9512,-0.305,0.671,0.671,160.593,9.641,-78.926
14943,-0.1733,0.3335,-0.9507,-0.244,0.427,0.732,160.593,9.635,-78.926
14953,-0.1748,0.3369,-0.9507,-0.183,0.122,0.671,160.587,9.635,-78.926
14963,-0.1733,0.3384,-0.9482,-0.122,-0.122,0.549,160.582,9.635,-78.926
14973,-0.1738,0.3408,-0.9468,-0.244,-0.244,0.305,160.576,9.641,-78.926
14983,-0.1753,0.3408,-0.9448,-0.549,-0.244,0.183,160.565,9.641,-78.926
14993,-0.1743,0.3433,-0.9409,-0.854,-0.061,0.000,160.549,9.646,-78.926
15003,-0.1753,0.3408,-0.9414,-0.854,0.061,-0.244,160.538,9.651,-78.926
15013,-0.1753,0.3384,-0.9419,-0.671,0.366,-0.488,160.527,9.651,-78.926
15023,-0.1743,0.3398,-0.9409,-0.427,0.610,-0.549,160.521,9.646,-78.926
15033,-0.1738,0.3379,-0.9448,-0.061,0.671,-0.488,160.521,9.646,-78.926
15043,-0.1729,0.3350,-0.9438,0.244,0.610,-0.488,160.521,9.641,-78.926
15053,-0.1729,0.3330,-0.9438,0.244,0.732,-0.488,160.527,9.641,-78.926
15063,-0.1733,0.3335,-0.9463,0.000,0.854,-0.549,160.532,9.635,-78.926
15073,-0.1709,0.3335,-0.9453,-0.244,1.160,-0.610,160.527,9.624,-78.926
15083,-0.1689,0.3335,-0.9487,-0.183,1.404,-0.671,160.532,9.613,-78.926
15093,-0.1689,0.3335,-0.9507,-0.488,1.221,-0.671,160.527,9.602,-78.926
15103,-0.1675,0.3296,-0.9512,0.000,1.221,-0.549,160.532,9.591,-78.926
15113,-0.1694,0.3286,-0.9517,-0.244,0.671,-0.366,160.538,9.586,-78.926
15123,-0.1685,0.3252,-0.9497,-0.610,0.000,-0.122,160.538,9.586,-78.926
15133,-0.1699,0.3271,-0.9521,-0.549,-0.122,0.000,160.538,9.591,-78.926
15143,-0.1743,0.3291,-0.9482,-0.244,-0.122,0.122,160.538,9.591,-78.926
15153,-0.1719,0.3276,-0.9458,-0.061,-0.122,0.305,160.538,9.591,-78.926
15163,-0.1709,0.3301,-0.9463,-0.305,0.000,0.488,160.538,9.591,-78.926
15173,-0.1699,0.3330,-0.9458,-0.244,0.122,0.610,160.532,9.591,-78.926
15183,-0.1699,0.3345,-0.9438,-0.183,0.183,0.671,160.532,9.586,-78.926
15193,-0.1709,0.3359,-0.9443,-0.366,0.244,0.610,160.527,9.586,-78.926
15203,-0.1729,0.3379,-0.9473,-0.366,0.244,0.549,160.521,9.580,-78.926
15213,-0.1738,0.3354,-0.9473,-0.061,0.183,0.549,160.516,9.580,-78.926
15223,-0.1763,0.3330,-0.9487,0.000,0.122,0.427,160.521,9.580,-78.926
15233,-0.1763,0.3330,-0.9487,-0.305,0.122,0.427,160.516,9.580,-78.926
15243,-0.1772,0.3335,-0.9448,-0.488,-0.061,0.488,160.510,9.586,-78.926
15253,-0.1777,0.3364,-0.9443,-0.793,-0.305,0.549,160.499,9.591,-78.926
15263,-0.1772,0.3408,-0.9409,-0.854,-0.366,0.549,160.488,9.597,-78.926
15273,-0.1787,0.3423,-0.9385,-0.549,-0.061,0.427,160.477,9.602,-78.926
15283,-0.1768,0.3418,-0.9380,-0.183,0.061,0.305,160.466,9.602,-78.926
15293,-0.1768,0.3384,-0.9380,0.061,0.183,0.122,160.466,9.608,-78.926
15303,-0.1748,0.3359,-0.9360,0.122,0.427,-0.061,160.466,9.608,-78.926
15313,-0.1714,0.3379,-0.9404,-0.061,0.732,-0.183,160.461,9.602,-78.926
15323,-0.1743,0.3359,-0.9414,-0.427,0.977,-0.244,160.461,9.597,-78.926
15333,-0.1753,0.3350,-0.9438,-0.549,1.160,-0.183,160.455,9.591,-78.926
15343,-0.1743,0.3345,-0.9443,-0.549,1.221,-0.122,160.450,9.580,-78.926
15353,-0.1724,0.3340,-0.9438,-0.244,1.221,-0.122,160.450,9.575,-78.926
15363,-0.1719,0.3340,-0.9443,0.122,1.343,-0.061,160.450,9.564,-78.926
15373,-0.1719,0.3315,-0.9419,0.305,1.404,-0.061,160.455,9.553,-78.926
15383,-0.1709,0.3325,-0.9448,0.305,1.404,-0.061,160.461,9.542,-78.926
15393,-0.1724,0.3311,-0.9482,0.183,1.343,-0.122,160.466,9.531,-78.926
15403,-0.1714,0.3335,-0.9507,-0.183,1.343,0.000,160.472,9.520,-78.926
15413,-0.1704,0.3350,-0.9497,-0.305,1.282,0.122,160.466,9.509,-78.926
15423,-0.1704,0.3340,-0.9492,-0.305,0.977,0.183,160.466,9.498,-78.926
15433,-0.1719,0.3359,-0.9473,-0.366,0.549,0.244,160.461,9.492,-78.926
15443,-0.1714,0.3384,-0.9458,-0.305,0.427,0.244,160.461,9.492,-78.926
15453,-0.1714,0.3374,-0.9438,-0.122,0.488,0.183,160.455,9.487,-78.926
15463,-0.1685,0.3369,-0.9438,0.000,0.793,0.000,160.455,9.481,-78.926
15473,-0.1650,0.3379,-0.9448,0.122,1.099,-0.122,160.455,9.470,-78.926
15483,-0.1646,0.3345,-0.9448,0.122,1.343,-0.122,160.461,9.454,-78.926
15493,-0.1646,0.3345,-0.9478,0.061,1.343,-0.061,160.461,9.443,-78.926
15503,-0.1631,0.3330,-0.9512,0.061,1.160,0.000,160.466,9.426,-78.926
15513,-0.1660,0.3315,-0.9521,0.183,0.916,0.122,160.472,9.421,-78.926
15523,-0.1704,0.3315,-0.9521,0.366,0.793,0.244,160.477,9.410,-78.926
15533,-0.1733,0.3267,-0.9517,0.366,0.732,0.305,160.488,9.410,-78.926
15543,-0.1719,0.3296,-0.9517,0.122,0.732,0.305,160.494,9.404,-78.926
15553,-0.1709,0.3286,-0.9487,-0.244,0.549,0.366,160.494,9.399,-78.926
15563,-0.1709,0.3301,-0.9497,-0.427,0.366,0.549,160.494,9.399,-78.926
15573,-0.1694,0.3330,-0.9512,-0.366,0.183,0.671,160.488,9.393,-78.926
15583,-0.1665,0.3340,-0.9497,-0.183,0.122,0.732,160.488,9.388,-78.926
15593,-0.1675,0.3345,-0.9492,-0.061,-0.061,0.793,160.488,9.388,-78.926
15603,-0.1680,0.3379,-0.9468,-0.061,-0.183,0.793,160.483,9.388,-78.926
15613,-0.1689,0.3384,-0.9443,-0.244,-0.244,0.732,160.477,9.393,-78.926
15623,-0.1704,0.3403,-0.9448,-0.366,-0.183,0.610,160.472,9.393,-78.926
15633,-0.1704,0.3418,-0.9424,-0.488,0.122,0.366,160.461,9.393,-78.926
15643,-0.1729,0.3413,-0.9399,-0.427,0.488,0.122,160.450,9.393,-78.926
15653,-0.1743,0.3428,-0.9438,-0.183,0.732,0.000,160.444,9.388,-78.926
15663,-0.1733,0.3423,-0.9453,0.122,0.916,-0.061,160.444,9.388,-78.926
15673,-0.1729,0.3418,-0.9438,0.366,0.916,-0.183,160.444,9.382,-78.926
15683,-0.1675,0.3433,-0.9478,0.488,0.854,-0.244,160.450,9.377,-78.926
15693,-0.1689,0.3398,-0.9468,0.366,0.671,-0.305,160.450,9.371,-78.926
15703,-0.1660,0.3403,-0.9473,0.244,0.549,-0.488,160.450,9.366,-78.926
15713,-0.1680,0.3379,-0.9521,0.000,0.671,-0.671,160.455,9.366,-78.926
15723,-0.1660,0.3345,-0.9526,-0.061,0.916,-0.793,160.455,9.360,-78.926
15733,-0.1650,0.3320,-0.9531,0.061,0.977,-0.854,160.461,9.349,-78.926
15743,-0.1646,0.3281,-0.9517,0.244,0.793,-0.793,160.472,9.344,-78.926
15753,-0.1665,0.3257,-0.9507,0.305,0.366,-0.671,160.483,9.344,-78.926
15763,-0.1670,0.3242,-0.9512,0.122,0.061,-0.366,160.488,9.344,-78.926
15773,-0.1675,0.3232,-0.9487,-0.061,-0.061,-0.061,160.499,9.349,-78.926
15783,-0.1660,0.3247,-0.9478,-0.183,0.000,0.183,160.499,9.349,-78.926
15793,-0.1655,0.3296,-0.9468,-0.061,0.122,0.366,160.505,9.344,-78.926
15803,-0.1636,0.3291,-0.9473,0.183,0.244,0.488,160.505,9.344,-78.926
15813,-0.1641,0.3315,-0.9497,0.488,0.366,0.671,160.516,9.333,-78.926
15823,-0.1655,0.3345,-0.9487,0.610,0.427,0.732,160.521,9.327,-78.926
15833,-0.1680,0.3379,-0.9482,0.549,0.488,0.732,160.521,9.322,-78.926
15843,-0.1670,0.3369,-0.9507,0.427,0.427,0.732,160.527,9.316,-78.926
15853,-0.1694,0.3354,-0.9487,0.366,0.305,0.610,160.527,9.316,-78.926
15863,-0.1714,0.3384,-0.9497,0.244,0.122,0.488,160.527,9.316,-78.926
15873,-0.1729,0.3398,-0.9492,0.122,-0.122,0.366,160.527,9.322,-78.926
15883,-0.1724,0.3379,-0.9526,0.061,-0.366,0.305,160.527,9.327,-78.926
15893,-0.1748,0.3398,-0.9497,0.061,-0.610,0.183,160.527,9.338,-78.926
15903,-0.1748,0.3413,-0.9453,0.122,-0.671,0.122,160.521,9.349,-78.926
15917,-0.1748,0.3418,-0.9429,0.366,-0.549,0.061,160.521,9.360,-78.926
15923,-0.1719,0.3403,-0.9434,0.671,-0.366,-0.061,160.521,9.366,-78.926
15933,-0.1714,0.3364,-0.9468,0.610,-0.122,-0.183,160.527,9.371,-78.926
15943,-0.1704,0.3330,-0.9458,0.305,-0.061,-0.244,160.532,9.371,-78.926
15953,-0.1699,0.3354,-0.9458,-0.061,0.000,-0.244,160.532,9.377,-78.926
15963,-0.1709,0.3359,-0.9468,-0.244,-0.061,-0.183,160.527,9.382,-78.926
15973,-0.1709,0.3364,-0.9443,-0.244,-0.061,-0.183,160.527,9.388,-78.926
15983,-0.1729,0.3340,-0.9468,0.061,0.000,-0.183,160.527,9.388,-78.926
15993,-0.1738,0.3325,-0.9468,0.366,-0.061,-0.183,160.532,9.393,-78.926
16003,-0.1743,0.3320,-0.9468,0.366,-0.183,-0.244,160.538,9.404,-78.926
16013,-0.1719,0.3350,-0.9473,0.122,-0.305,-0.244,160.538,9.410,-78.926
16023,-0.1753,0.3364,-0.9482,-0.122,-0.366,-0.183,160.538,9.415,-78.926
16033,-0.1758,0.3374,-0.9448,-0.305,-0.305,-0.183,160.532,9.426,-78.926
16043,-0.1743,0.3374,-0.9429,-0.183,-0.305,-0.244,160.527,9.437,-78.926
16053,-0.1724,0.3403,-0.9453,-0.061,-0.305,-0.427,160.521,9.443,-78.926
16063,-0.1689,0.3428,-0.9448,-0.122,-0.305,-0.488,160.521,9.448,-78.926
16073,-0.1694,0.3413,-0.9438,-0.061,-0.061,-0.671,160.516,9.454,-78.926
16083,-0.1685,0.3408,-0.9478,0.000,0.183,-0.854,160.516,9.454,-78.926
16093,-0.1675,0.3384,-0.9473,0.061,0.427,-0.977,160.516,9.454,-78.926
16103,-0.1670,0.3374,-0.9541,0.122,0.549,-0.977,160.516,9.448,-78.926
16113,-0.1650,0.3340,-0.9546,0.305,0.366,-0.854,160.521,9.448,-78.926
16123,-0.1670,0.3320,-0.9546,0.366,0.000,-0.854,160.532,9.448,-78.926
16133,-0.1689,0.3315,-0.9570,0.183,-0.305,-0.854,160.538,9.454,-78.926
16143,-0.1699,0.3296,-0.9551,-0.122,-0.549,-0.793,160.543,9.465,-78.926
16153,-0.1689,0.3286,-0.9497,-0.305,-0.732,-0.732,160.543,9.476,-78.926
16163,-0.1689,0.3252,-0.9473,-0.366,-0.854,-0.610,160.543,9.487,-78.926
16173,-0.1729,0.3247,-0.9468,-0.366,-0.916,-0.488,160.549,9.498,-78.926
16183,-0.1724,0.3232,-0.9443,-0.427,-0.977,-0.305,160.549,9.509,-78.926
16193,-0.1719,0.3252,-0.9409,-0.366,-0.977,-0.061,160.549,9.525,-78.926
16203,-0.1724,0.3301,-0.9409,-0.244,-0.854,0.122,160.549,9.536,-78.926
16213,-0.1719,0.3350,-0.9414,-0.122,-0.671,0.183,160.543,9.542,-78.926
16223,-0.1724,0.3364,-0.9404,0.244,-0.366,0.183,160.543,9.547,-78.926
16233,-0.1714,0.3379,-0.9404,0.305,-0.061,0.000,160.543,9.547,-78.926
16243,-0.1714,0.3379,-0.9399,0.122,0.183,-0.183,160.543,9.553,-78.926
16253,-0.1724,0.3374,-0.9429,-0.061,0.366,-0.366,160.538,9.553,-78.926
16263,-0.1738,0.3389,-0.9443,-0.305,0.488,-0.549,160.532,9.553,-78.926
16273,-0.1738,0.3398,-0.9478,-0.183,0.549,-0.671,160.532,9.547,-78.926
16283,-0.1733,0.3394,-0.9502,0.183,0.610,-0.671,160.532,9.547,-78.926
16293,-0.1733,0.3350,-0.9463,0.549,0.671,-0.671,160.538,9.547,-78.926
16303,-0.1709,0.3330,-0.9487,0.793,0.610,-0.732,160.549,9.542,-78.926
16314,-0.1724,0.3296,-0.9468,0.671,0.427,-0.732,160.560,9.547,-78.926
16323,-0.1729,0.3281,-0.9492,0.305,0.366,-0.793,160.571,9.547,-78.926
16333,-0.1724,0.3281,-0.9507,-0.061,0.427,-0.854,160.571,9.547,-78.926
16343,-0.1724,0.3271,-0.9517,-0.061,0.610,-0.732,160.576,9.547,-78.926
16353,-0.1724,0.3257,-0.9507,0.122,0.610,-0.549,160.587,9.542,-78.926
16363,-0.1724,0.3228,-0.9507,0.305,0.244,-0.305,160.598,9.542,-78.926
16373,-0.1719,0.3237,-0.9487,0.427,-0.183,-0.122,160.604,9.547,-78.926
16383,-0.1743,0.3242,-0.9492,0.305,-0.549,0.122,160.615,9.558,-78.926
16393,-0.1738,0.3262,-0.9478,0.183,-0.671,0.305,160.620,9.564,-78.926
16403,-0.1729,0.3291,-0.9478,-0.061,-0.427,0.366,160.620,9.569,-78.926
16413,-0.1724,0.3306,-0.9463,-0.122,-0.244,0.366,160.620,9.569,-78.926
16423,-0.1719,0.3311,-0.9478,-0.122,-0.244,0.305,160.620,9.575,-78.926
16433,-0.1729,0.3345,-0.9473,-0.122,-0.366,0.427,160.615,9.580,-78.926
16443,-0.1733,0.3384,-0.9448,-0.305,-0.549,0.549,160.609,9.586,-78.926
16453,-0.1719,0.3418,-0.9429,-0.244,-0.732,0.610,160.598,9.591,-78.926
16463,-0.1724,0.3442,-0.9434,0.000,-0.854,0.427,160.593,9.597,-78.926
16473,-0.1758,0.3428,-0.9434,0.061,-0.793,0.183,160.587,9.608,-78.926
16483,-0.1772,0.3433,-0.9473,-0.122,-0.549,-0.061,160.582,9.619,-78.926
16493,-0.1763,0.3423,-0.9448,-0.427,-0.244,-0.183,160.571,9.624,-78.926
16503,-0.1758,0.3403,-0.9448,-0.610,-0.183,-0.366,160.560,9.630,-78.926
16513,-0.1768,0.3384,-0.9473,-0.488,-0.183,-0.488,160.554,9.635,-78.926
16523,-0.1753,0.3384,-0.9448,-0.305,-0.244,-0.488,160.549,9.641,-78.926
16533,-0.1738,0.3369,-0.9438,0.000,-0.183,-0.427,160.549,9.646,-78.926
16543,-0.1729,0.3340,-0.9438,0.244,-0.183,-0.427,160.549,9.651,-78.926
16553,-0.1719,0.3320,-0.9448,0.244,-0.061,-0.427,160.554,9.657,-78.926
16563,-0.1709,0.3315,-0.9458,0.061,-0.061,-0.488,160.560,9.657,-78.926
16573,-0.1699,0.3311,-0.9458,-0.122,0.000,-0.488,160.560,9.657,-78.926
16583,-0.1729,0.3296,-0.9463,-0.244,0.061,-0.488,160.560,9.662,-78.926
16593,-0.1733,0.3286,-0.9434,-0.183,0.183,-0.488,160.560,9.662,-78.926
16603,-0.1733,0.3286,-0.9443,0.000,0.244,-0.305,160.565,9.662,-78.926
16613,-0.1738,0.3252,-0.9424,0.183,0.244,-0.122,160.571,9.662,-78.926
16623,-0.1758,0.3257,-0.9438,0.183,0.122,0.122,160.576,9.668,-78.926
16633,-0.1738,0.3262,-0.9429,0.427,0.122,0.244,160.582,9.668,-78.926
16643,-0.1743,0.3276,-0.9478,0.366,0.122,0.366,160.587,9.668,-78.926
16653,-0.1738,0.3330,-0.9517,0.366,0.183,0.427,160.593,9.662,-78.926
16663,-0.1719,0.3335,-0.9487,0.183,0.244,0.366,160.593,9.662,-78.926
16673,-0.1738,0.3364,-0.9502,0.061,0.061,0.244,160.593,9.662,-78.926
16683,-0.1777,0.3335,-0.9478,0.061,-0.122,0.122,160.593,9.662,-78.926
16693,-0.1777,0.3320,-0.9482,-0.183,-0.305,0.061,160.593,9.673,-78.926
16703,-0.1792,0.3345,-0.9497,-0.549,-0.488,0.183,160.587,9.679,-78.926
16713,-0.1772,0.3354,-0.9482,-0.549,-0.549,0.305,160.582,9.684,-78.926
16723,-0.1758,0.3384,-0.9463,-0.244,-0.488,0.244,160.576,9.690,-78.926
16733,-0.1748,0.3374,-0.9478,0.122,-0.427,0.061,160.576,9.695,-78.926
16743,-0.1724,0.3350,-0.9497,0.427,-0.366,-0.061,160.576,9.701,-78.926
16753,-0.1719,0.3311,-0.9497,0.305,-0.366,-0.122,160.582,9.706,-78.926
16763,-0.1758,0.3296,-0.9463,-0.183,-0.549,-0.122,160.582,9.712,-78.926
16773,-0.1787,0.3296,-0.9448,-0.610,-0.793,0.000,160.582,9.723,-78.926
16783,-0.1821,0.3330,-0.9434,-0.671,-0.793,0.122,160.571,9.739,-78.926
16793,-0.1846,0.3345,-0.9424,-0.488,-0.549,0.244,160.565,9.750,-78.926
16803,-0.1826,0.3350,-0.9395,-0.305,-0.305,0.244,160.560,9.756,-78.926
16814,-0.1870,0.3374,-0.9399,-0.366,-0.244,0.244,160.554,9.767,-78.926
16823,-0.1875,0.3394,-0.9414,-0.671,-0.244,0.183,160.543,9.778,-78.926
16833,-0.1895,0.3433,-0.9404,-1.038,-0.244,0.061,160.527,9.789,-78.926
16843,-0.1904,0.3491,-0.9424,-1.343,-0.183,-0.122,160.505,9.800,-78.926
16853,-0.1934,0.3535,-0.9448,-1.404,-0.061,-0.488,160.477,9.811,-78.926
16863,-0.1929,0.3564,-0.9478,-1.465,0.000,-0.977,160.455,9.827,-78.926
16873,-0.1899,0.3574,-0.9502,-1.770,-0.183,-1.465,160.428,9.838,-78.915
16883,-0.1890,0.3579,-0.9536,-2.258,-0.610,-1.953,160.400,9.860,-78.898
16893,-0.1890,0.3594,-0.9512,-2.686,-1.099,-2.441,160.367,9.882,-78.876
16903,-0.1885,0.3574,-0.9507,-3.174,-1.587,-2.869,160.329,9.915,-78.854
16913,-0.1875,0.3555,-0.9468,-3.418,-1.831,-3.296,160.291,9.948,-78.832
