elapsed_ms,acc_x_g,acc_y_g,acc_z_g,gyro_x_dps,gyro_y_dps,gyro_z_dps,angle_x_deg,angle_y_deg,angle_z_deg
0,-0.2793,0.7139,-0.7383,-10.071,-8.301,3.418,137.994,12.788,-67.835
10,-0.2817,0.7153,-0.7383,-10.498,-9.094,3.784,137.851,12.854,-67.928
20,-0.2773,0.7241,-0.7246,-11.719,-10.315,4.639,137.681,12.925,-68.033
30,-0.2739,0.7402,-0.7075,-13.000,-12.451,5.554,137.488,12.997,-68.165
40,-0.2715,0.7515,-0.6943,-12.939,-14.709,5.981,137.280,13.085,-68.307
50,-0.2666,0.7563,-0.6841,-11.108,-16.418,5.615,137.082,13.178,-68.467
61,-0.2612,0.7505,-0.6821,-8.362,-16.724,4.822,136.917,13.282,-68.621
70,-0.2544,0.7412,-0.6885,-5.554,-15.320,3.967,136.791,13.376,-68.758
80,-0.2373,0.7319,-0.7119,-3.784,-12.451,3.174,136.697,13.442,-68.868
90,-0.2178,0.7339,-0.7397,-2.380,-8.667,2.686,136.642,13.469,-68.950
100,-0.1997,0.7329,-0.7607,0.061,-4.395,2.686,136.626,13.453,-69.000
110,-0.1934,0.7251,-0.7681,3.845,-0.671,3.296,136.659,13.403,-69.027
120,-0.1865,0.7021,-0.7749,8.667,1.770,4.395,136.752,13.332,-69.049
130,-0.1826,0.6826,-0.7808,13.184,1.831,5.859,136.895,13.244,-69.082
140,-0.1836,0.6650,-0.7910,16.113,0.183,7.324,137.071,13.162,-69.137
150,-0.1826,0.6587,-0.8096,17.395,-2.014,8.728,137.263,13.085,-69.214
160,-0.1753,0.6499,-0.8276,18.250,-3.174,9.766,137.472,13.008,-69.313
170,-0.1665,0.6479,-0.8389,17.517,-4.578,10.986,137.664,12.925,-69.423
180,-0.1636,0.6421,-0.8325,15.320,-6.592,12.329,137.834,12.849,-69.565
190,-0.1655,0.6460,-0.8267,12.085,-10.132,13.184,137.955,12.799,-69.736
200,-0.1719,0.6450,-0.8252,9.033,-14.465,13.611,138.043,12.777,-69.939
210,-0.1797,0.6494,-0.8174,5.310,-19.104,13.916,138.076,12.799,-70.175
220,-0.1860,0.6562,-0.8013,2.441,-23.560,14.038,138.071,12.854,-70.444
230,-0.1958,0.6587,-0.7788,-0.793,-27.832,14.343,138.010,12.942,-70.741
240,-0.1997,0.6641,-0.7495,-4.639,-32.349,14.709,137.895,13.068,-71.076
250,-0.2080,0.6821,-0.7295,-9.094,-36.743,14.587,137.714,13.228,-71.439
260,-0.2168,0.7192,-0.7290,-12.878,-39.490,13.672,137.477,13.409,-71.818
270,-0.2256,0.7637,-0.7354,-12.390,-39.368,12.146,137.236,13.601,-72.186
280,-0.2305,0.7827,-0.7373,-6.836,-36.377,10.681,137.054,13.782,-72.521
290,-0.2393,0.7812,-0.7280,2.014,-31.860,9.460,136.961,13.936,-72.812
300,-0.2466,0.7666,-0.7036,11.047,-28.870,8.850,136.961,14.079,-73.081
310,-0.2593,0.7437,-0.6807,18.250,-29.053,9.033,137.032,14.233,-73.356
320,-0.2739,0.7256,-0.6660,20.874,-31.921,10.071,137.120,14.409,-73.658
330,-0.2900,0.7100,-0.6523,19.104,-35.583,11.353,137.181,14.612,-73.993
340,-0.3042,0.6987,-0.6460,14.038,-37.476,11.536,137.192,14.837,-74.344
350,-0.3159,0.6875,-0.6431,7.812,-36.621,10.498,137.142,15.073,-74.680
360,-0.3193,0.6802,-0.6367,1.648,-33.386,8.484,137.038,15.293,-74.976
370,-0.3179,0.6758,-0.6255,-4.822,-29.297,6.714,136.879,15.502,-75.234
380,-0.3130,0.6738,-0.6113,-10.437,-25.452,5.493,136.670,15.683,-75.460
390,-0.3022,0.6680,-0.5991,-14.160,-21.973,4.883,136.434,15.837,-75.652
400,-0.2910,0.6699,-0.5835,-16.296,-20.081,4.700,136.170,15.969,-75.833
410,-0.2798,0.6719,-0.5806,-15.320,-19.104,3.906,135.917,16.095,-75.998
420,-0.2744,0.6670,-0.5962,-11.475,-18.127,2.502,135.725,16.216,-76.146
430,-0.2754,0.6572,-0.6123,-6.104,-16.479,1.587,135.599,16.331,-76.278
440,-0.2734,0.6431,-0.6191,-2.380,-14.160,1.770,135.527,16.425,-76.399
450,-0.2808,0.6313,-0.6265,0.244,-11.963,2.502,135.489,16.507,-76.503
461,-0.2847,0.6270,-0.6392,1.526,-9.521,3.174,135.478,16.562,-76.597
471,-0.2837,0.6274,-0.6465,1.770,-7.385,3.662,135.478,16.595,-76.679
480,-0.2803,0.6294,-0.6514,1.587,-5.493,3.845,135.478,16.617,-76.745
490,-0.2783,0.6348,-0.6616,0.488,-4.028,4.028,135.472,16.617,-76.805
500,-0.2754,0.6392,-0.6768,-2.136,-2.319,4.211,135.450,16.606,-76.855
511,-0.2773,0.6479,-0.7036,-4.578,-0.244,4.089,135.417,16.573,-76.888
521,-0.2798,0.6519,-0.7334,-7.568,3.174,3.479,135.368,16.518,-76.888
531,-0.2773,0.6523,-0.7588,-9.277,6.348,2.686,135.324,16.447,-76.860
540,-0.2690,0.6538,-0.7686,-8.911,9.094,2.136,135.291,16.353,-76.811
550,-0.2593,0.6558,-0.7607,-8.423,9.033,2.686,135.264,16.249,-76.767
561,-0.2539,0.6528,-0.7417,-6.836,6.226,3.906,135.236,16.161,-76.750
570,-0.2549,0.6548,-0.7349,-4.883,1.587,4.517,135.209,16.100,-76.772
580,-0.2632,0.6523,-0.7388,-0.977,-2.380,4.211,135.220,16.078,-76.816
591,-0.2681,0.6436,-0.7480,2.869,-3.845,3.540,135.275,16.073,-76.871
601,-0.2725,0.6294,-0.7598,6.470,-2.380,2.991,135.379,16.062,-76.910
611,-0.2754,0.6167,-0.7568,8.484,0.793,2.869,135.511,16.035,-76.926
621,-0.2822,0.6064,-0.7432,8.545,3.357,3.296,135.648,15.991,-76.926
631,-0.2910,0.5962,-0.7246,7.202,4.089,4.028,135.769,15.947,-76.926
641,-0.2998,0.5933,-0.6963,5.005,2.747,5.066,135.851,15.914,-76.948
651,-0.2974,0.5972,-0.6616,1.404,0.000,6.226,135.873,15.897,-76.992
661,-0.2925,0.6064,-0.6382,-2.625,-3.296,7.446,135.835,15.892,-77.069
671,-0.2915,0.6162,-0.6284,-6.836,-5.798,8.728,135.736,15.897,-77.179
681,-0.2905,0.6245,-0.6274,-11.047,-6.104,9.521,135.588,15.897,-77.294
691,-0.2915,0.6377,-0.6348,-15.015,-3.967,10.071,135.401,15.875,-77.399
701,-0.2979,0.6611,-0.6362,-18.799,-0.244,10.925,135.181,15.826,-77.481
711,-0.2998,0.6875,-0.6323,-21.240,3.906,11.719,134.929,15.732,-77.536
721,-0.3003,0.7139,-0.6338,-21.240,7.446,11.841,134.676,15.617,-77.569
731,-0.2983,0.7324,-0.6450,-18.433,10.498,11.292,134.456,15.480,-77.574
741,-0.2915,0.7412,-0.6758,-12.878,12.939,10.315,134.313,15.320,-77.552
751,-0.2871,0.7490,-0.7114,-6.653,15.747,9.094,134.253,15.150,-77.503
761,-0.2808,0.7520,-0.7363,-0.854,18.311,8.179,134.269,14.963,-77.426
771,-0.2729,0.7529,-0.7417,3.418,18.250,7.324,134.324,14.782,-77.344
781,-0.2661,0.7563,-0.7446,6.714,15.625,6.226,134.412,14.623,-77.272
791,-0.2656,0.7632,-0.7432,8.667,10.986,5.005,134.506,14.502,-77.228
801,-0.2671,0.7593,-0.7471,11.292,6.775,3.540,134.626,14.431,-77.206
811,-0.2725,0.7500,-0.7520,13.245,4.089,1.770,134.764,14.387,-77.190
821,-0.2729,0.7349,-0.7549,14.160,4.089,-0.122,134.923,14.359,-77.157
831,-0.2681,0.7231,-0.7544,13.733,5.249,-1.709,135.082,14.337,-77.108
840,-0.2612,0.7075,-0.7539,12.756,7.019,-2.991,135.247,14.304,-77.031
851,-0.2500,0.6929,-0.7432,11.902,8.057,-3.784,135.401,14.271,-76.948
861,-0.2461,0.6816,-0.7339,10.986,7.019,-4.456,135.549,14.249,-76.860
871,-0.2437,0.6636,-0.7310,10.376,4.761,-5.005,135.692,14.244,-76.789
881,-0.2422,0.6479,-0.7334,9.827,2.991,-5.493,135.829,14.260,-76.729
891,-0.2422,0.6333,-0.7388,8.545,2.380,-5.554,135.967,14.277,-76.674
901,-0.2402,0.6191,-0.7515,7.080,3.418,-5.249,136.099,14.282,-76.608
910,-0.2349,0.6040,-0.7559,4.883,5.127,-4.272,136.214,14.271,-76.542
921,-0.2256,0.5986,-0.7510,2.747,6.470,-2.808,136.313,14.233,-76.470
931,-0.2183,0.5972,-0.7446,0.732,6.226,-0.916,136.379,14.183,-76.421
941,-0.2148,0.6055,-0.7349,-0.244,3.967,1.465,136.423,14.128,-76.404
951,-0.2109,0.6250,-0.7261,-1.282,0.244,4.028,136.434,14.084,-76.432
961,-0.2153,0.6431,-0.7197,-1.404,-3.235,6.042,136.423,14.052,-76.498
971,-0.2280,0.6577,-0.7168,-0.671,-5.188,7.385,136.401,14.030,-76.591
981,-0.2471,0.6680,-0.7148,0.244,-5.005,8.057,136.384,14.008,-76.690
991,-0.2632,0.6714,-0.7104,1.282,-3.052,8.362,136.379,13.986,-76.772
1001,-0.2759,0.6719,-0.6963,1.648,-0.854,8.850,136.379,13.953,-76.844
1011,-0.2734,0.6772,-0.6870,1.282,0.244,9.521,136.362,13.903,-76.915
1021,-0.2681,0.6807,-0.6777,0.366,0.000,10.071,136.335,13.848,-76.987
1031,-0.2632,0.6924,-0.6782,-0.427,-1.221,10.376,136.291,13.804,-77.075
1041,-0.2651,0.6997,-0.6826,-0.366,-1.831,10.193,136.247,13.760,-77.162
1051,-0.2642,0.7065,-0.6895,0.061,-1.404,9.827,136.208,13.716,-77.245
1061,-0.2588,0.7095,-0.6836,0.366,-0.732,9.460,136.170,13.661,-77.322
1071,-0.2510,0.7104,-0.6797,0.061,-0.610,9.277,136.132,13.612,-77.393
1081,-0.2456,0.7197,-0.6699,-1.221,-1.343,9.338,136.066,13.563,-77.476
1091,-0.2495,0.7290,-0.6670,-2.502,-2.441,8.850,135.989,13.524,-77.558
1101,-0.2524,0.7383,-0.6689,-2.502,-2.563,7.751,135.906,13.497,-77.635
1111,-0.2588,0.7510,-0.6831,-0.854,-1.038,6.348,135.851,13.469,-77.684
1121,-0.2622,0.7563,-0.6997,2.808,2.258,4.944,135.840,13.425,-77.706
1131,-0.2612,0.7446,-0.7178,7.874,6.409,3.845,135.906,13.359,-77.690
1141,-0.2549,0.7285,-0.7275,11.719,9.521,3.113,136.022,13.277,-77.646
1151,-0.2466,0.7139,-0.7324,13.245,10.254,2.563,136.165,13.189,-77.591
1161,-0.2412,0.7021,-0.7339,12.634,8.362,1.709,136.296,13.118,-77.542
1171,-0.2432,0.6987,-0.7373,10.559,5.005,0.732,136.412,13.085,-77.514
1181,-0.2432,0.7070,-0.7383,7.874,2.014,-0.183,136.494,13.074,-77.498
1191,-0.2407,0.7124,-0.7368,6.165,0.427,-1.099,136.549,13.079,-77.487
1201,-0.2339,0.7070,-0.7446,6.042,0.732,-2.319,136.615,13.085,-77.465
1211,-0.2266,0.6968,-0.7544,6.287,2.258,-3.601,136.692,13.090,-77.421
1221,-0.2202,0.6860,-0.7529,5.920,3.540,-4.517,136.774,13.085,-77.360
1231,-0.2134,0.6768,-0.7515,4.639,3.540,-4.883,136.846,13.079,-77.300
1241,-0.2163,0.6709,-0.7495,2.869,2.136,-4.883,136.901,13.090,-77.250
1251,-0.2222,0.6709,-0.7451,1.648,0.488,-4.822,136.934,13.112,-77.212
1261,-0.2231,0.6631,-0.7427,1.038,-0.610,-4.944,136.967,13.145,-77.179
1271,-0.2178,0.6616,-0.7368,0.366,-1.038,-5.005,136.989,13.178,-77.146
1281,-0.2148,0.6533,-0.7261,0.122,-0.793,-4.639,137.005,13.206,-77.119
1291,-0.2129,0.6509,-0.7231,-1.282,-1.160,-3.784,137.005,13.233,-77.097
1301,-0.2163,0.6558,-0.7212,-3.174,-1.221,-3.052,136.989,13.255,-77.086
1311,-0.2227,0.6621,-0.7207,-4.272,-0.610,-2.563,136.950,13.271,-77.069
1321,-0.2212,0.6660,-0.7148,-3.967,0.671,-2.319,136.917,13.277,-77.047
1331,-0.2158,0.6660,-0.7139,-2.747,1.953,-2.136,136.901,13.271,-77.014
1341,-0.2183,0.6616,-0.7134,-0.610,2.502,-1.953,136.901,13.260,-76.987
1351,-0.2217,0.6528,-0.7178,1.587,2.563,-1.282,136.934,13.244,-76.954
1361,-0.2266,0.6460,-0.7178,2.991,2.441,-0.305,136.978,13.228,-76.937
1371,-0.2285,0.6431,-0.7187,3.845,2.502,0.732,137.032,13.206,-76.926
1381,-0.2300,0.6392,-0.7217,4.089,2.686,1.404,137.087,13.178,-76.915
1391,-0.2300,0.6392,-0.7275,3.540,2.686,1.892,137.137,13.151,-76.910
1401,-0.2314,0.6392,-0.7314,2.258,2.747,2.441,137.181,13.118,-76.910
1411,-0.2300,0.6372,-0.7314,0.854,2.930,2.991,137.203,13.079,-76.915
1421,-0.2271,0.6382,-0.7290,-0.366,2.808,3.723,137.214,13.035,-76.921
1431,-0.2266,0.6431,-0.7217,-1.282,2.136,4.578,137.208,12.986,-76.943
1441,-0.2314,0.6519,-0.7222,-1.770,1.221,5.249,137.192,12.947,-76.970
1451,-0.2339,0.6602,-0.7173,-1.709,0.793,5.615,137.170,12.909,-77.009
1461,-0.2363,0.6636,-0.7178,-0.916,1.160,5.798,137.153,12.870,-77.047
1471,-0.2344,0.6704,-0.7222,0.305,2.197,5.798,137.148,12.821,-77.075
1481,-0.2295,0.6748,-0.7261,1.587,3.174,5.798,137.159,12.761,-77.097
1491,-0.2261,0.6748,-0.7280,2.747,3.723,5.798,137.181,12.695,-77.113
1501,-0.2227,0.6772,-0.7300,3.479,3.723,5.798,137.214,12.629,-77.130
1511,-0.2222,0.6851,-0.7300,3.784,3.296,5.676,137.241,12.563,-77.151
1521,-0.2207,0.6904,-0.7310,4.272,2.563,5.615,137.274,12.508,-77.173
1531,-0.2222,0.6895,-0.7344,5.127,2.258,5.371,137.313,12.453,-77.201
1541,-0.2222,0.6860,-0.7378,5.676,2.686,5.005,137.362,12.398,-77.217
1551,-0.2158,0.6870,-0.7373,5.249,3.052,4.822,137.406,12.343,-77.234
1561,-0.2104,0.6885,-0.7402,4.150,3.113,4.761,137.444,12.283,-77.245
1571,-0.2070,0.6899,-0.7446,2.930,2.808,4.578,137.466,12.222,-77.261
1581,-0.2036,0.6953,-0.7485,1.648,2.258,4.395,137.477,12.167,-77.278
1591,-0.2061,0.7017,-0.7451,0.671,1.648,4.089,137.472,12.118,-77.300
1601,-0.2070,0.7021,-0.7441,0.610,1.221,3.662,137.466,12.079,-77.316
1611,-0.2090,0.7012,-0.7451,0.732,0.916,3.174,137.461,12.047,-77.338
1621,-0.2114,0.6982,-0.7451,0.916,0.732,2.686,137.461,12.019,-77.349
1631,-0.2153,0.6919,-0.7456,1.221,0.732,2.197,137.466,11.997,-77.360
1641,-0.2183,0.6865,-0.7422,1.465,0.916,1.892,137.477,11.981,-77.371
1651,-0.2183,0.6802,-0.7393,1.404,1.160,1.831,137.488,11.964,-77.377
1661,-0.2202,0.6802,-0.7339,0.854,0.854,2.014,137.494,11.948,-77.388
1671,-0.2246,0.6787,-0.7373,0.549,0.122,2.014,137.494,11.942,-77.399
1681,-0.2256,0.6802,-0.7393,0.366,-0.671,1.587,137.494,11.942,-77.415
1691,-0.2266,0.6807,-0.7373,0.488,-1.099,1.343,137.494,11.948,-77.432
1701,-0.2236,0.6792,-0.7363,1.038,-1.099,1.160,137.499,11.953,-77.448
1711,-0.2212,0.6733,-0.7407,1.831,-0.671,1.160,137.516,11.959,-77.465
1721,-0.2173,0.6729,-0.7393,2.075,-0.244,1.282,137.532,11.953,-77.476
1731,-0.2148,0.6709,-0.7339,1.953,-0.427,1.587,137.549,11.948,-77.492
1741,-0.2153,0.6699,-0.7271,1.587,-0.977,1.953,137.560,11.948,-77.514
1751,-0.2173,0.6714,-0.7261,0.854,-1.648,2.014,137.560,11.948,-77.536
1761,-0.2217,0.6763,-0.7256,-0.183,-1.770,1.831,137.549,11.959,-77.563
1771,-0.2227,0.6763,-0.7246,-1.526,-1.465,1.648,137.521,11.964,-77.585
1781,-0.2241,0.6758,-0.7256,-2.930,-0.793,1.404,137.483,11.970,-77.602
1791,-0.2231,0.6792,-0.7271,-4.150,0.000,1.160,137.439,11.964,-77.613
1801,-0.2202,0.6865,-0.7256,-5.127,0.366,0.977,137.379,11.964,-77.618
1811,-0.2187,0.6885,-0.7212,-5.188,0.122,0.977,137.313,11.959,-77.624
1821,-0.2168,0.6880,-0.7183,-4.333,-0.549,0.977,137.258,11.959,-77.635
1831,-0.2163,0.6909,-0.7192,-2.991,-0.977,1.099,137.214,11.964,-77.651
1841,-0.2163,0.6924,-0.7187,-1.038,-0.977,1.221,137.186,11.964,-77.662
1851,-0.2168,0.6875,-0.7163,1.221,-0.610,1.526,137.186,11.959,-77.679
1861,-0.2148,0.6777,-0.7173,3.235,0.061,1.770,137.214,11.953,-77.695
1871,-0.2139,0.6748,-0.7183,4.272,0.793,1.892,137.247,11.937,-77.701
1881,-0.2139,0.6729,-0.7207,4.333,1.343,2.014,137.285,11.915,-77.706
1891,-0.2139,0.6729,-0.7246,3.967,1.648,2.075,137.324,11.893,-77.712
1901,-0.2144,0.6714,-0.7241,3.357,1.831,2.075,137.357,11.871,-77.717
1912,-0.2124,0.6680,-0.7339,3.052,2.014,2.014,137.390,11.843,-77.717
1921,-0.2104,0.6660,-0.7427,2.808,2.380,1.831,137.422,11.816,-77.712
1931,-0.2104,0.6626,-0.7417,2.075,2.197,2.075,137.450,11.788,-77.712
1941,-0.2095,0.6611,-0.7451,1.099,1.404,2.502,137.472,11.761,-77.723
1951,-0.2061,0.6602,-0.7412,0.122,0.183,2.869,137.477,11.739,-77.745
1961,-0.2036,0.6636,-0.7393,-0.488,-0.916,3.174,137.472,11.722,-77.772
1971,-0.2017,0.6650,-0.7368,-0.061,-1.526,3.418,137.466,11.706,-77.811
1981,-0.1997,0.6694,-0.7373,0.977,-1.526,3.479,137.472,11.695,-77.849
1991,-0.1987,0.6709,-0.7422,2.197,-0.916,3.418,137.494,11.673,-77.877
2001,-0.1978,0.6699,-0.7544,3.235,0.061,3.235,137.527,11.646,-77.904
2011,-0.1934,0.6689,-0.7568,3.357,0.916,3.174,137.565,11.607,-77.921
2021,-0.1919,0.6758,-0.7554,2.502,0.916,3.540,137.593,11.569,-77.943
2031,-0.1890,0.6851,-0.7524,1.587,0.183,3.723,137.604,11.530,-77.970
2041,-0.1919,0.6938,-0.7446,0.671,-1.282,3.784,137.598,11.508,-78.003
2051,-0.1943,0.7031,-0.7402,0.061,-2.808,3.479,137.582,11.497,-78.052
2061,-0.1973,0.7085,-0.7363,0.122,-3.784,2.991,137.554,11.497,-78.096
2071,-0.2017,0.7090,-0.7305,0.488,-3.784,2.380,137.538,11.508,-78.140
2081,-0.2031,0.7075,-0.7280,1.099,-2.869,1.648,137.521,11.519,-78.173
2091,-0.2061,0.7026,-0.7222,1.709,-1.587,0.916,137.521,11.525,-78.195
2101,-0.2056,0.6948,-0.7231,2.136,-0.183,0.305,137.527,11.525,-78.195
2111,-0.2061,0.6885,-0.7207,2.625,0.977,-0.183,137.543,11.519,-78.190
2121,-0.2041,0.6821,-0.7280,3.235,2.014,-0.488,137.571,11.508,-78.173
2131,-0.2031,0.6753,-0.7329,4.089,2.747,-0.793,137.615,11.492,-78.146
2141,-0.2021,0.6694,-0.7358,4.639,3.113,-0.793,137.664,11.475,-78.118
2151,-0.1992,0.6660,-0.7393,4.944,3.113,-0.732,137.725,11.453,-78.091
2161,-0.1978,0.6650,-0.7461,4.944,2.808,-0.610,137.780,11.437,-78.069
2171,-0.2012,0.6616,-0.7529,4.700,2.563,-0.549,137.840,11.420,-78.047
2181,-0.1992,0.6592,-0.7505,4.211,2.441,-0.305,137.895,11.404,-78.025
2191,-0.2021,0.6567,-0.7563,3.784,2.197,-0.244,137.950,11.387,-78.008
2201,-0.2056,0.6553,-0.7544,3.235,1.892,0.000,137.994,11.376,-77.997
2211,-0.2056,0.6592,-0.7495,2.441,1.282,0.366,138.027,11.365,-77.992
2221,-0.2095,0.6597,-0.7437,2.075,0.305,0.854,138.049,11.365,-77.997
2231,-0.2124,0.6611,-0.7358,2.136,-0.549,1.160,138.065,11.371,-78.008
2241,-0.2109,0.6660,-0.7354,2.441,-1.099,1.343,138.087,11.376,-78.025
2251,-0.2104,0.6685,-0.7388,3.418,-0.793,1.343,138.115,11.376,-78.041
2261,-0.2075,0.6665,-0.7373,4.089,0.061,1.404,138.153,11.371,-78.052
2271,-0.2061,0.6646,-0.7334,4.028,0.793,1.526,138.186,11.360,-78.058
2281,-0.2095,0.6621,-0.7266,3.540,1.160,1.526,138.214,11.349,-78.063
2291,-0.2090,0.6719,-0.7251,2.563,1.038,1.404,138.230,11.338,-78.063
2301,-0.2095,0.6738,-0.7324,2.014,0.916,1.221,138.241,11.327,-78.069
2311,-0.2100,0.6758,-0.7373,2.197,1.648,1.099,138.257,11.310,-78.063
2321,-0.2085,0.6763,-0.7363,2.136,2.625,1.160,138.268,11.288,-78.058
2331,-0.2085,0.6763,-0.7441,2.380,3.296,1.038,138.290,11.266,-78.041
2341,-0.2065,0.6743,-0.7490,2.441,3.235,0.854,138.312,11.239,-78.025
2351,-0.2046,0.6733,-0.7510,2.197,2.563,0.854,138.334,11.217,-78.014
2361,-0.2012,0.6738,-0.7510,2.136,1.953,0.916,138.356,11.195,-78.008
2371,-0.2021,0.6729,-0.7520,2.075,1.526,0.732,138.378,11.179,-78.003
2381,-0.2007,0.6709,-0.7554,2.136,1.221,0.427,138.400,11.168,-77.997
2391,-0.2036,0.6689,-0.7554,2.075,0.916,0.305,138.422,11.162,-77.997
2401,-0.2065,0.6714,-0.7534,1.404,0.671,0.549,138.433,11.157,-77.997
2411,-0.2070,0.6763,-0.7529,0.732,0.488,0.671,138.439,11.157,-77.997
2421,-0.2061,0.6768,-0.7534,0.244,0.183,0.427,138.433,11.151,-77.997
2431,-0.2051,0.6768,-0.7549,-0.305,-0.183,-0.122,138.428,11.157,-77.997
2441,-0.2046,0.6763,-0.7524,-0.732,-0.488,-0.549,138.417,11.168,-77.997
2451,-0.2002,0.6724,-0.7549,-0.977,-0.549,-0.793,138.406,11.179,-77.997
2461,-0.2007,0.6733,-0.7539,-1.282,-0.366,-0.916,138.395,11.190,-77.992
2471,-0.2002,0.6694,-0.7510,-1.221,-0.122,-1.099,138.384,11.195,-77.986
2481,-0.1992,0.6631,-0.7476,-0.854,-0.061,-1.221,138.378,11.206,-77.975
2491,-0.1982,0.6626,-0.7461,-0.244,-0.122,-1.160,138.373,11.212,-77.970
2501,-0.1953,0.6597,-0.7451,0.488,-0.122,-0.854,138.384,11.217,-77.959
2511,-0.1958,0.6548,-0.7466,0.977,-0.061,-0.793,138.395,11.223,-77.953
2521,-0.1968,0.6533,-0.7524,1.038,0.305,-0.793,138.417,11.228,-77.948
2531,-0.1938,0.6543,-0.7573,0.854,0.549,-0.732,138.433,11.223,-77.937
2541,-0.1919,0.6543,-0.7583,0.488,0.549,-0.610,138.444,11.223,-77.932
2551,-0.1914,0.6567,-0.7559,0.061,0.122,-0.488,138.455,11.217,-77.926
2562,-0.1943,0.6597,-0.7563,-0.488,-0.793,-0.366,138.455,11.228,-77.926
2571,-0.1948,0.6611,-0.7554,-0.610,-1.587,-0.183,138.450,11.234,-77.937
2581,-0.1968,0.6592,-0.7622,-0.305,-1.770,-0.122,138.450,11.250,-77.948
2591,-0.1978,0.6582,-0.7651,-0.183,-1.404,-0.061,138.455,11.255,-77.959
2601,-0.1953,0.6587,-0.7656,-0.305,-1.160,0.061,138.461,11.261,-77.964
2611,-0.1924,0.6587,-0.7593,-0.488,-1.465,0.244,138.455,11.266,-77.975
2621,-0.1909,0.6611,-0.7559,-1.038,-2.563,0.427,138.450,11.277,-77.997
2631,-0.1943,0.6665,-0.7480,-1.404,-3.906,0.488,138.428,11.299,-78.030
2641,-0.1958,0.6675,-0.7417,-1.343,-4.761,0.488,138.400,11.332,-78.063
2651,-0.1973,0.6689,-0.7358,-0.854,-4.700,0.488,138.378,11.360,-78.102
2661,-0.2007,0.6665,-0.7290,0.061,-3.601,0.366,138.367,11.387,-78.129
2671,-0.2026,0.6602,-0.7300,0.977,-2.014,0.244,138.367,11.404,-78.140
2681,-0.2046,0.6587,-0.7275,1.404,-0.305,0.366,138.378,11.404,-78.146
2691,-0.2021,0.6562,-0.7266,1.343,0.854,0.671,138.384,11.398,-78.146
2701,-0.2041,0.6572,-0.7271,1.526,1.282,0.793,138.395,11.387,-78.146
2711,-0.2061,0.6577,-0.7324,1.892,1.282,0.854,138.411,11.376,-78.140
2721,-0.2056,0.6572,-0.7363,2.319,1.343,0.977,138.433,11.365,-78.140
2731,-0.2080,0.6592,-0.7402,2.747,1.587,1.038,138.461,11.349,-78.140
2741,-0.2090,0.6548,-0.7412,3.113,1.892,0.977,138.494,11.338,-78.135
2751,-0.2085,0.6504,-0.7417,2.930,2.197,0.854,138.527,11.321,-78.124
2761,-0.2114,0.6504,-0.7520,2.625,2.625,0.854,138.560,11.299,-78.113
2771,-0.2095,0.6558,-0.7588,1.770,2.991,0.977,138.587,11.277,-78.102
2781,-0.2061,0.6602,-0.7583,0.854,2.869,1.282,138.598,11.250,-78.091
2791,-0.2065,0.6606,-0.7612,0.427,2.502,1.404,138.609,11.228,-78.085
2801,-0.2056,0.6650,-0.7612,0.061,1.709,1.343,138.615,11.206,-78.085
2811,-0.2021,0.6670,-0.7603,-0.183,0.732,1.282,138.609,11.195,-78.085
2821,-0.2036,0.6685,-0.7578,-0.122,-0.061,1.282,138.609,11.190,-78.096
2831,-0.2031,0.6699,-0.7534,-0.061,-0.549,1.160,138.604,11.190,-78.113
2841,-0.2017,0.6699,-0.7524,-0.061,-0.671,0.916,138.598,11.190,-78.124
2851,-0.2012,0.6675,-0.7476,-0.122,-0.488,0.610,138.593,11.190,-78.129
2861,-0.1987,0.6685,-0.7446,-0.366,-0.244,0.366,138.582,11.190,-78.135
2871,-0.1997,0.6660,-0.7412,-0.610,-0.061,0.305,138.571,11.190,-78.135
2881,-0.1992,0.6655,-0.7427,-0.977,0.061,0.244,138.554,11.190,-78.140
2891,-0.2002,0.6680,-0.7402,-1.099,0.183,0.244,138.538,11.184,-78.140
2901,-0.1987,0.6670,-0.7383,-0.732,0.488,0.305,138.521,11.184,-78.140
2911,-0.1987,0.6685,-0.7407,-0.244,0.916,0.305,138.516,11.173,-78.135
2921,-0.2002,0.6689,-0.7427,0.305,1.221,0.183,138.516,11.168,-78.129
2931,-0.2002,0.6670,-0.7456,0.610,1.465,0.061,138.521,11.157,-78.118
2941,-0.1958,0.6675,-0.7510,0.610,1.831,0.000,138.527,11.140,-78.107
2951,-0.1963,0.6680,-0.7573,0.488,2.075,-0.061,138.538,11.124,-78.091
2961,-0.1958,0.6655,-0.7568,0.305,2.014,-0.061,138.543,11.107,-78.080
2971,-0.1968,0.6650,-0.7598,0.305,1.648,-0.061,138.549,11.096,-78.063
2981,-0.1987,0.6670,-0.7622,0.305,1.221,-0.183,138.560,11.091,-78.058
2991,-0.2007,0.6646,-0.7651,0.366,0.793,-0.366,138.565,11.085,-78.047
3001,-0.1997,0.6616,-0.7681,0.366,0.549,-0.427,138.582,11.085,-78.041
3011,-0.1982,0.6602,-0.7671,0.061,0.183,-0.427,138.587,11.085,-78.036
3021,-0.1948,0.6665,-0.7637,-0.549,-0.488,-0.366,138.587,11.091,-78.036
3031,-0.1938,0.6733,-0.7612,-1.099,-1.465,-0.244,138.571,11.102,-78.047
3041,-0.1938,0.6719,-0.7568,-1.099,-2.380,-0.183,138.554,11.118,-78.058
3051,-0.1978,0.6714,-0.7554,-1.099,-2.747,-0.244,138.538,11.140,-78.074
3062,-0.2007,0.6685,-0.7554,-1.160,-2.380,-0.366,138.527,11.157,-78.091
3071,-0.1987,0.6709,-0.7515,-1.709,-2.075,-0.488,138.505,11.179,-78.102
3081,-0.1992,0.6733,-0.7466,-2.136,-2.014,-0.610,138.477,11.195,-78.107
3091,-0.1992,0.6719,-0.7422,-2.197,-2.075,-0.793,138.444,11.217,-78.118
3101,-0.2041,0.6729,-0.7402,-2.136,-2.197,-1.160,138.417,11.245,-78.124
3111,-0.2075,0.6714,-0.7368,-1.587,-2.014,-1.343,138.395,11.272,-78.124
3121,-0.2070,0.6694,-0.7324,-0.854,-1.709,-1.404,138.378,11.299,-78.129
3131,-0.2100,0.6655,-0.7329,-0.244,-1.343,-1.404,138.367,11.327,-78.124
3141,-0.2100,0.6636,-0.7319,0.000,-0.854,-1.465,138.362,11.349,-78.118
3151,-0.2104,0.6631,-0.7334,0.061,-0.366,-1.526,138.362,11.371,-78.113
3161,-0.2095,0.6587,-0.7363,0.366,0.061,-1.465,138.362,11.382,-78.102
3171,-0.2080,0.6553,-0.7412,0.610,0.671,-1.343,138.373,11.393,-78.085
3181,-0.2051,0.6558,-0.7412,0.549,1.038,-1.038,138.384,11.393,-78.069
3191,-0.2031,0.6592,-0.7432,0.366,0.854,-0.610,138.389,11.393,-78.058
3201,-0.2031,0.6577,-0.7407,0.244,0.244,-0.244,138.395,11.398,-78.058
3211,-0.2036,0.6616,-0.7437,0.305,-0.305,0.000,138.395,11.398,-78.058
3221,-0.2056,0.6646,-0.7466,0.366,-0.488,0.061,138.400,11.404,-78.063
3231,-0.2065,0.6675,-0.7480,0.366,-0.427,0.244,138.400,11.409,-78.069
3241,-0.2075,0.6655,-0.7456,0.427,-0.183,0.305,138.400,11.415,-78.069
3251,-0.2100,0.6636,-0.7441,0.244,0.000,0.305,138.400,11.415,-78.074
3261,-0.2104,0.6650,-0.7407,-0.305,0.000,0.366,138.395,11.420,-78.074
3271,-0.2095,0.6670,-0.7397,-0.549,-0.244,0.427,138.384,11.420,-78.080
3281,-0.2104,0.6694,-0.7378,-0.488,-0.366,0.549,138.373,11.426,-78.085
3291,-0.2075,0.6724,-0.7378,-0.366,-0.366,0.610,138.362,11.426,-78.096
3301,-0.2046,0.6733,-0.7397,0.000,-0.122,0.488,138.351,11.426,-78.096
3311,-0.2051,0.6738,-0.7393,0.122,0.122,0.427,138.345,11.426,-78.102
3321,-0.2085,0.6748,-0.7368,-0.122,0.305,0.244,138.334,11.426,-78.102
3331,-0.2080,0.6763,-0.7388,-0.366,0.549,0.061,138.323,11.420,-78.096
3341,-0.2085,0.6753,-0.7407,-0.671,0.854,-0.244,138.312,11.420,-78.091
3351,-0.2070,0.6763,-0.7427,-0.854,1.038,-0.488,138.301,11.420,-78.080
3361,-0.2070,0.6763,-0.7437,-0.793,1.099,-0.671,138.290,11.420,-78.069
3371,-0.2065,0.6719,-0.7480,-0.305,1.221,-0.854,138.285,11.415,-78.052
3381,-0.2061,0.6680,-0.7500,0.122,1.221,-1.038,138.290,11.415,-78.036
3391,-0.2026,0.6660,-0.7476,0.427,1.038,-1.221,138.301,11.415,-78.019
3401,-0.2017,0.6616,-0.7485,0.671,0.854,-1.221,138.312,11.420,-78.003
3411,-0.1987,0.6606,-0.7485,0.732,0.671,-1.160,138.323,11.420,-77.992
3421,-0.1978,0.6597,-0.7485,0.488,0.549,-1.038,138.334,11.420,-77.981
3431,-0.1982,0.6587,-0.7466,0.183,0.488,-0.916,138.340,11.420,-77.970
3441,-0.1978,0.6616,-0.7432,-0.061,0.488,-0.793,138.340,11.420,-77.959
3451,-0.1973,0.6650,-0.7397,-0.183,0.488,-0.549,138.340,11.420,-77.953
3461,-0.1987,0.6680,-0.7397,-0.366,0.488,-0.427,138.329,11.415,-77.943
3471,-0.1992,0.6689,-0.7412,-0.244,0.671,-0.427,138.323,11.415,-77.937
3481,-0.1982,0.6660,-0.7432,0.305,1.343,-0.549,138.329,11.404,-77.926
3491,-0.1978,0.6646,-0.7461,0.549,1.892,-0.671,138.340,11.393,-77.904
3501,-0.1982,0.6650,-0.7476,0.610,1.953,-0.732,138.351,11.382,-77.888
3511,-0.1987,0.6597,-0.7495,0.427,1.770,-0.732,138.356,11.371,-77.871
3521,-0.2002,0.6582,-0.7510,0.122,1.404,-0.671,138.367,11.365,-77.855
3531,-0.1987,0.6572,-0.7539,-0.061,1.282,-0.671,138.373,11.360,-77.844
3542,-0.1968,0.6567,-0.7524,-0.427,1.099,-0.610,138.378,11.354,-77.827
3552,-0.1953,0.6548,-0.7559,-0.366,0.977,-0.671,138.384,11.349,-77.816
3562,-0.1982,0.6479,-0.7583,-0.549,0.610,-0.854,138.389,11.349,-77.805
3571,-0.2002,0.6509,-0.7622,-1.221,0.183,-0.977,138.389,11.354,-77.800
3582,-0.1978,0.6558,-0.7617,-2.014,-0.061,-0.427,138.384,11.354,-77.794
3592,-0.1948,0.6548,-0.7607,-2.075,-0.366,0.244,138.367,11.349,-77.800
3602,-0.1904,0.6567,-0.7593,-1.831,-0.549,0.549,138.356,11.343,-77.805
3612,-0.1904,0.6646,-0.7603,-1.282,-0.549,0.610,138.345,11.338,-77.816
3622,-0.1919,0.6699,-0.7593,-0.793,-0.916,0.732,138.340,11.332,-77.827
3632,-0.1924,0.6699,-0.7544,-0.061,-1.160,0.732,138.334,11.332,-77.844
3642,-0.1934,0.6685,-0.7520,0.244,-1.282,0.488,138.340,11.332,-77.855
3652,-0.1958,0.6675,-0.7505,0.427,-1.221,0.183,138.340,11.338,-77.866
3662,-0.1982,0.6641,-0.7480,0.427,-1.038,-0.122,138.345,11.343,-77.871
3672,-0.2012,0.6611,-0.7544,0.671,-0.610,-0.366,138.356,11.354,-77.871
3682,-0.2041,0.6567,-0.7559,0.732,0.061,-0.305,138.367,11.354,-77.866
3692,-0.2036,0.6558,-0.7524,0.793,0.305,-0.061,138.384,11.354,-77.866
3702,-0.2026,0.6553,-0.7510,0.977,0.183,0.061,138.395,11.354,-77.866
3712,-0.2026,0.6523,-0.7500,1.099,-0.488,0.244,138.411,11.360,-77.871
3722,-0.2031,0.6504,-0.7549,1.343,-0.977,0.366,138.433,11.365,-77.877
3732,-0.2031,0.6484,-0.7544,1.221,-0.977,0.549,138.450,11.371,-77.888
3742,-0.2026,0.6519,-0.7515,0.549,-0.854,0.977,138.461,11.371,-77.904
3752,-0.2012,0.6562,-0.7480,-0.061,-0.916,1.282,138.461,11.371,-77.921
3762,-0.2017,0.6626,-0.7466,-0.366,-1.160,1.404,138.450,11.371,-77.937
3772,-0.2041,0.6680,-0.7480,-0.183,-1.282,1.343,138.444,11.371,-77.959
3782,-0.2046,0.6680,-0.7466,0.305,-1.343,1.282,138.439,11.376,-77.975
3792,-0.2041,0.6655,-0.7466,0.977,-1.160,1.160,138.444,11.376,-77.992
3802,-0.2041,0.6631,-0.7471,1.099,-0.916,1.099,138.455,11.382,-78.008
3812,-0.2041,0.6689,-0.7427,0.244,-1.099,1.221,138.450,11.382,-78.025
3822,-0.2041,0.6753,-0.7393,-0.732,-1.526,1.404,138.428,11.387,-78.047
3832,-0.2051,0.6792,-0.7363,-0.977,-1.831,1.404,138.400,11.393,-78.069
3842,-0.2070,0.6836,-0.7373,-0.671,-1.709,1.160,138.378,11.398,-78.091
3852,-0.2056,0.6826,-0.7407,-0.061,-1.160,0.793,138.367,11.404,-78.102
3862,-0.2036,0.6777,-0.7397,0.244,-0.610,0.549,138.356,11.404,-78.113
3872,-0.2026,0.6748,-0.7402,0.122,-0.244,0.427,138.351,11.404,-78.113
3882,-0.2036,0.6689,-0.7407,-0.305,-0.183,0.183,138.345,11.404,-78.118
3892,-0.2085,0.6660,-0.7437,-0.549,-0.122,-0.061,138.334,11.409,-78.118
3902,-0.2100,0.6680,-0.7402,-0.671,0.122,-0.122,138.323,11.415,-78.118
3913,-0.2109,0.6660,-0.7407,-0.549,0.305,-0.061,138.318,11.420,-78.113
3922,-0.2075,0.6621,-0.7363,-0.366,0.183,0.061,138.312,11.420,-78.113
3932,-0.2085,0.6626,-0.7334,-0.061,-0.305,0.122,138.307,11.426,-78.118
3942,-0.2080,0.6646,-0.7339,0.305,-0.610,0.122,138.301,11.437,-78.124
3952,-0.2090,0.6655,-0.7373,0.854,-0.305,0.244,138.307,11.442,-78.124
3962,-0.2109,0.6621,-0.7397,1.099,0.549,0.183,138.318,11.442,-78.124
3972,-0.2080,0.6631,-0.7412,0.793,1.465,0.244,138.323,11.431,-78.113
3982,-0.2075,0.6665,-0.7461,0.122,1.709,0.244,138.329,11.420,-78.107
3992,-0.2075,0.6704,-0.7471,-0.671,1.404,0.305,138.318,11.409,-78.096
4002,-0.2056,0.6714,-0.7471,-0.916,0.916,0.305,138.307,11.404,-78.096
4012,-0.2070,0.6719,-0.7485,-0.671,0.610,0.183,138.301,11.404,-78.091
4022,-0.2041,0.6709,-0.7480,-0.122,0.427,-0.122,138.296,11.398,-78.085
4032,-0.1997,0.6699,-0.7466,0.244,0.427,-0.244,138.301,11.398,-78.085
4042,-0.1978,0.6675,-0.7510,0.610,0.488,-0.244,138.307,11.393,-78.080
4052,-0.1997,0.6646,-0.7505,0.366,0.549,-0.244,138.312,11.387,-78.074
4062,-0.2017,0.6699,-0.7515,-0.366,0.671,-0.366,138.312,11.387,-78.063
4072,-0.1987,0.6729,-0.7505,-1.038,0.610,-0.366,138.301,11.382,-78.058
4082,-0.2012,0.6748,-0.7534,-1.099,0.366,-0.488,138.290,11.382,-78.052
4092,-0.2021,0.6743,-0.7515,-0.854,0.061,-0.671,138.279,11.382,-78.047
4102,-0.2041,0.6738,-0.7515,-0.549,-0.305,-0.977,138.274,11.393,-78.041
4112,-0.2026,0.6714,-0.7524,-0.427,-0.488,-1.160,138.268,11.404,-78.036
4122,-0.2002,0.6680,-0.7500,-0.671,-0.610,-1.221,138.263,11.415,-78.030
4132,-0.1992,0.6665,-0.7500,-1.160,-0.671,-1.404,138.257,11.426,-78.025
4142,-0.2002,0.6650,-0.7471,-1.770,-0.854,-1.465,138.241,11.442,-78.019
4152,-0.1963,0.6655,-0.7471,-1.831,-1.099,-1.465,138.224,11.459,-78.014
4162,-0.1992,0.6650,-0.7466,-1.465,-1.160,-1.526,138.208,11.475,-78.008
4172,-0.2007,0.6616,-0.7480,-0.916,-0.977,-1.587,138.203,11.492,-78.003
4182,-0.2017,0.6602,-0.7471,-0.549,-0.671,-1.587,138.203,11.503,-77.997
4192,-0.2017,0.6602,-0.7471,-0.244,-0.244,-1.526,138.208,11.514,-77.986
4202,-0.2026,0.6602,-0.7466,-0.183,0.122,-1.343,138.208,11.525,-77.975
4212,-0.2056,0.6611,-0.7451,-0.305,0.244,-1.038,138.214,11.530,-77.970
4222,-0.2065,0.6616,-0.7456,-0.366,0.183,-0.916,138.214,11.536,-77.959
4232,-0.2046,0.6650,-0.7432,-0.671,0.122,-0.732,138.208,11.541,-77.953
4242,-0.2046,0.6704,-0.7471,-1.221,-0.122,-0.549,138.192,11.547,-77.948
4252,-0.2036,0.6768,-0.7461,-1.770,-0.427,-0.549,138.170,11.552,-77.948
4262,-0.2017,0.6807,-0.7490,-2.197,-0.793,-0.793,138.148,11.558,-77.948
4272,-0.2026,0.6841,-0.7510,-2.563,-1.099,-1.099,138.115,11.574,-77.948
4282,-0.2056,0.6812,-0.7529,-2.502,-1.282,-1.343,138.087,11.591,-77.948
4292,-0.2080,0.6748,-0.7510,-2.319,-1.526,-1.526,138.065,11.613,-77.943
4302,-0.2100,0.6733,-0.7427,-2.319,-1.953,-1.526,138.038,11.640,-77.948
4312,-0.2100,0.6694,-0.7383,-2.441,-2.563,-1.343,138.010,11.667,-77.953
4322,-0.2124,0.6694,-0.7363,-2.563,-2.991,-1.221,137.983,11.700,-77.964
4332,-0.2144,0.6689,-0.7339,-2.869,-3.235,-1.221,137.944,11.739,-77.975
4342,-0.2168,0.6694,-0.7266,-3.174,-3.174,-1.282,137.906,11.777,-77.992
4352,-0.2183,0.6729,-0.7236,-3.113,-2.930,-1.343,137.867,11.816,-77.997
4362,-0.2173,0.6719,-0.7251,-2.563,-2.258,-1.404,137.834,11.843,-78.003
4372,-0.2163,0.6685,-0.7290,-1.709,-1.221,-1.587,137.812,11.871,-78.003
4382,-0.2129,0.6626,-0.7314,-1.038,-0.183,-1.709,137.807,11.887,-77.986
4392,-0.2129,0.6562,-0.7344,-0.854,0.549,-1.648,137.802,11.898,-77.970
4402,-0.2114,0.6558,-0.7334,-1.099,0.488,-1.343,137.802,11.904,-77.959
4412,-0.2119,0.6602,-0.7349,-1.221,0.122,-0.977,137.791,11.909,-77.948
4422,-0.2114,0.6650,-0.7402,-1.038,-0.122,-0.793,137.785,11.920,-77.948
4432,-0.2080,0.6641,-0.7427,-0.427,0.000,-0.793,137.785,11.920,-77.937
4442,-0.2080,0.6616,-0.7446,0.244,0.488,-0.793,137.796,11.920,-77.932
4452,-0.2080,0.6646,-0.7505,0.549,1.038,-0.854,137.812,11.920,-77.915
4462,-0.2065,0.6636,-0.7539,0.488,1.160,-0.793,137.829,11.915,-77.904
4472,-0.2070,0.6611,-0.7539,0.183,0.977,-0.732,137.840,11.909,-77.888
4482,-0.2090,0.6616,-0.7573,-0.244,0.488,-0.671,137.851,11.909,-77.882
4492,-0.2095,0.6616,-0.7573,-0.488,-0.183,-0.549,137.856,11.909,-77.877
4502,-0.2065,0.6636,-0.7544,-0.671,-0.977,-0.305,137.856,11.915,-77.882
4512,-0.2065,0.6646,-0.7510,-0.793,-1.648,0.000,137.851,11.926,-77.893
4522,-0.2051,0.6660,-0.7500,-0.793,-2.197,0.061,137.845,11.937,-77.910
4532,-0.2051,0.6665,-0.7495,-0.671,-2.380,0.122,137.840,11.953,-77.926
4542,-0.2061,0.6675,-0.7427,-0.732,-2.625,0.305,137.834,11.964,-77.948
4552,-0.2095,0.6611,-0.7383,-0.366,-2.502,0.366,137.829,11.981,-77.970
4563,-0.2124,0.6626,-0.7329,-0.305,-2.319,0.427,137.823,11.997,-77.986
4572,-0.2148,0.6655,-0.7285,-0.305,-2.136,0.671,137.812,12.008,-78.008
4582,-0.2144,0.6660,-0.7241,-0.122,-2.014,1.038,137.802,12.019,-78.030
4592,-0.2168,0.6655,-0.7231,0.488,-1.831,1.282,137.802,12.030,-78.052
4602,-0.2168,0.6660,-0.7222,1.038,-1.526,1.343,137.802,12.036,-78.069
4612,-0.2168,0.6675,-0.7231,1.404,-0.793,1.465,137.807,12.036,-78.085
4622,-0.2163,0.6680,-0.7227,1.282,-0.244,1.709,137.807,12.030,-78.102
4632,-0.2178,0.6704,-0.7236,0.977,0.305,1.892,137.812,12.019,-78.113
4642,-0.2197,0.6738,-0.7280,0.732,0.610,1.831,137.807,12.008,-78.124
4652,-0.2202,0.6787,-0.7305,0.610,0.793,1.648,137.807,11.997,-78.129
4662,-0.2163,0.6812,-0.7354,0.854,0.977,1.648,137.807,11.981,-78.135
4672,-0.2173,0.6802,-0.7349,1.465,1.038,1.526,137.818,11.964,-78.140
4682,-0.2168,0.6777,-0.7378,1.831,0.916,1.221,137.829,11.953,-78.146
4692,-0.2168,0.6772,-0.7397,1.648,0.610,0.854,137.840,11.942,-78.146
4702,-0.2173,0.6772,-0.7402,1.221,0.427,0.732,137.851,11.937,-78.151
4712,-0.2178,0.6802,-0.7358,0.610,0.061,0.671,137.851,11.937,-78.157
4722,-0.2158,0.6816,-0.7334,0.305,-0.244,0.488,137.845,11.937,-78.157
4732,-0.2144,0.6831,-0.7319,0.427,-0.305,0.183,137.840,11.942,-78.162
4742,-0.2119,0.6812,-0.7388,0.916,0.061,-0.122,137.845,11.942,-78.162
4752,-0.2104,0.6772,-0.7432,1.465,0.854,-0.305,137.856,11.937,-78.151
4762,-0.2070,0.6709,-0.7432,1.526,1.526,-0.305,137.878,11.926,-78.140
4772,-0.2070,0.6641,-0.7432,1.282,1.587,-0.183,137.895,11.909,-78.129
4782,-0.2070,0.6636,-0.7422,0.916,1.099,-0.122,137.906,11.904,-78.118
4792,-0.2085,0.6641,-0.7456,0.793,0.366,0.061,137.922,11.898,-78.118
4802,-0.2100,0.6626,-0.7480,1.160,0.122,0.183,137.939,11.898,-78.118
4812,-0.2114,0.6602,-0.7480,1.282,0.366,0.488,137.955,11.893,-78.118
4822,-0.2104,0.6606,-0.7451,0.793,0.305,0.854,137.966,11.882,-78.124
4832,-0.2114,0.6650,-0.7427,0.305,-0.183,1.038,137.972,11.876,-78.135
4842,-0.2119,0.6689,-0.7441,-0.305,-0.977,1.038,137.966,11.882,-78.146
4852,-0.2139,0.6772,-0.7407,-0.732,-1.343,1.038,137.950,11.882,-78.162
4862,-0.2173,0.6802,-0.7437,-0.671,-1.099,0.916,137.939,11.887,-78.179
4872,-0.2148,0.6777,-0.7407,-0.122,-0.488,0.610,137.928,11.893,-78.190
4882,-0.2114,0.6763,-0.7388,0.122,-0.122,0.305,137.928,11.887,-78.190
4892,-0.2104,0.6748,-0.7422,-0.061,-0.244,0.244,137.922,11.887,-78.195
4902,-0.2114,0.6748,-0.7422,-0.244,-0.732,0.305,137.917,11.893,-78.201
4912,-0.2114,0.6787,-0.7412,-0.610,-1.404,0.366,137.906,11.898,-78.212
4922,-0.2134,0.6831,-0.7368,-0.610,-1.709,0.366,137.889,11.909,-78.228
4932,-0.2163,0.6870,-0.7373,-0.122,-1.709,0.244,137.878,11.926,-78.239
4942,-0.2178,0.6836,-0.7363,0.488,-1.282,0.000,137.873,11.937,-78.250
4952,-0.2168,0.6797,-0.7339,0.488,-0.732,-0.366,137.867,11.948,-78.250
4962,-0.2183,0.6763,-0.7319,0.000,-0.305,-0.732,137.862,11.959,-78.250
4972,-0.2178,0.6743,-0.7319,-0.488,-0.122,-1.038,137.856,11.970,-78.245
4982,-0.2197,0.6724,-0.7349,-0.854,0.122,-1.099,137.845,11.981,-78.234
4992,-0.2192,0.6699,-0.7310,-0.916,0.122,-0.977,137.834,11.992,-78.223
5002,-0.2197,0.6675,-0.7300,-0.549,-0.061,-0.916,137.829,12.003,-78.217
5012,-0.2173,0.6660,-0.7290,0.122,-0.183,-0.854,137.829,12.014,-78.212
5022,-0.2163,0.6636,-0.7295,0.671,-0.122,-0.732,137.834,12.025,-78.206
5032,-0.2144,0.6636,-0.7319,0.793,0.122,-0.549,137.840,12.030,-78.201
5042,-0.2139,0.6626,-0.7329,0.732,0.488,-0.488,137.851,12.030,-78.195
5052,-0.2134,0.6641,-0.7344,0.610,0.793,-0.488,137.862,12.030,-78.190
5063,-0.2100,0.6660,-0.7383,0.366,1.160,-0.427,137.867,12.025,-78.173
5072,-0.2100,0.6680,-0.7358,0.244,1.221,-0.244,137.867,12.014,-78.168
5082,-0.2100,0.6685,-0.7397,0.427,1.160,-0.122,137.878,12.008,-78.157
5092,-0.2104,0.6670,-0.7397,0.732,1.038,-0.122,137.884,11.997,-78.151
5102,-0.2080,0.6680,-0.7432,0.977,0.977,-0.183,137.900,11.992,-78.140
5112,-0.2095,0.6685,-0.7544,1.221,1.343,-0.244,137.917,11.981,-78.129
5122,-0.2070,0.6685,-0.7539,1.099,1.709,-0.061,137.939,11.964,-78.118
5132,-0.2065,0.6665,-0.7573,0.793,1.709,0.000,137.955,11.948,-78.107
5142,-0.2080,0.6655,-0.7554,0.671,1.221,-0.183,137.972,11.937,-78.096
5152,-0.2090,0.6655,-0.7578,0.427,0.366,-0.305,137.983,11.931,-78.091
5162,-0.2100,0.6670,-0.7578,0.427,-0.427,-0.244,137.994,11.937,-78.091
5172,-0.2095,0.6646,-0.7563,0.549,-0.854,-0.122,138.005,11.942,-78.096
5182,-0.2075,0.6650,-0.7520,0.244,-1.099,0.183,138.010,11.948,-78.107
5192,-0.2085,0.6709,-0.7446,-0.305,-1.587,0.305,138.005,11.953,-78.118
5202,-0.2104,0.6724,-0.7397,-0.488,-2.136,0.305,137.994,11.964,-78.135
5212,-0.2119,0.6733,-0.7349,-0.244,-2.319,0.183,137.983,11.981,-78.151
5222,-0.2173,0.6748,-0.7339,0.061,-1.953,-0.061,137.972,12.003,-78.168
5232,-0.2178,0.6738,-0.7290,0.549,-1.282,-0.305,137.972,12.014,-78.173
5242,-0.2217,0.6670,-0.7319,0.854,-0.427,-0.427,137.977,12.030,-78.173
5252,-0.2231,0.6636,-0.7324,0.671,0.366,-0.427,137.983,12.036,-78.168
5262,-0.2202,0.6675,-0.7310,0.122,0.671,-0.305,137.983,12.036,-78.162
5272,-0.2183,0.6724,-0.7310,-0.061,0.427,-0.244,137.977,12.041,-78.157
5282,-0.2163,0.6724,-0.7324,0.366,0.000,-0.244,137.977,12.041,-78.151
5292,-0.2158,0.6714,-0.7358,1.038,-0.122,-0.305,137.983,12.047,-78.151
5302,-0.2153,0.6704,-0.7393,1.648,0.122,-0.427,137.999,12.052,-78.146
5312,-0.2153,0.6660,-0.7412,1.770,0.427,-0.610,138.016,12.052,-78.140
5322,-0.2139,0.6641,-0.7407,1.343,0.732,-0.732,138.032,12.052,-78.129
5332,-0.2124,0.6660,-0.7432,0.366,0.977,-0.732,138.043,12.052,-78.118
5342,-0.2144,0.6704,-0.7456,-0.549,0.977,-0.610,138.038,12.047,-78.107
5352,-0.2124,0.6709,-0.7461,-0.854,0.671,-0.488,138.032,12.047,-78.096
5362,-0.2144,0.6719,-0.7446,-0.793,0.244,-0.488,138.021,12.047,-78.091
5372,-0.2139,0.6724,-0.7456,-0.366,-0.183,-0.549,138.021,12.052,-78.091
5382,-0.2153,0.6680,-0.7480,0.305,-0.427,-0.671,138.027,12.057,-78.085
5392,-0.2134,0.6631,-0.7485,0.366,-0.366,-0.793,138.032,12.068,-78.085
5402,-0.2144,0.6626,-0.7461,-0.122,-0.366,-0.793,138.038,12.074,-78.080
5412,-0.2139,0.6611,-0.7441,-0.671,-0.549,-0.732,138.032,12.085,-78.080
5422,-0.2168,0.6587,-0.7397,-0.916,-0.977,-0.427,138.027,12.096,-78.080
5432,-0.2134,0.6597,-0.7427,-0.793,-1.221,-0.183,138.021,12.107,-78.091
5442,-0.2144,0.6626,-0.7393,-0.366,-1.099,0.183,138.016,12.118,-78.096
5452,-0.2168,0.6626,-0.7358,0.061,-1.099,0.610,138.016,12.123,-78.107
5462,-0.2168,0.6602,-0.7295,0.366,-1.160,0.916,138.016,12.129,-78.124
5472,-0.2153,0.6616,-0.7285,0.183,-1.160,0.977,138.010,12.134,-78.140
5482,-0.2163,0.6714,-0.7261,-0.488,-1.160,1.038,137.994,12.134,-78.157
5492,-0.2197,0.6772,-0.7227,-0.732,-0.916,1.160,137.972,12.140,-78.173
5502,-0.2241,0.6802,-0.7266,-0.488,-0.183,0.977,137.955,12.140,-78.179
5512,-0.2236,0.6797,-0.7334,0.000,0.793,0.610,137.944,12.134,-78.179
5522,-0.2217,0.6802,-0.7334,0.305,1.465,0.366,137.944,12.123,-78.173
5532,-0.2192,0.6782,-0.7339,0.366,1.465,0.244,137.944,12.112,-78.162
5542,-0.2168,0.6772,-0.7368,0.305,1.160,0.000,137.939,12.107,-78.157
5552,-0.2139,0.6777,-0.7446,0.305,0.732,-0.427,137.944,12.101,-78.146
5563,-0.2129,0.6758,-0.7456,0.488,0.549,-0.793,137.950,12.101,-78.135
5572,-0.2124,0.6738,-0.7461,0.793,0.549,-0.977,137.961,12.101,-78.124
5582,-0.2139,0.6665,-0.7510,1.221,0.732,-1.160,137.977,12.107,-78.113
5592,-0.2119,0.6602,-0.7544,1.404,0.977,-1.404,138.005,12.107,-78.096
5602,-0.2119,0.6523,-0.7549,1.404,1.099,-1.526,138.032,12.107,-78.074
5612,-0.2104,0.6450,-0.7554,1.465,1.160,-1.343,138.065,12.107,-78.058
5622,-0.2070,0.6440,-0.7539,1.465,0.977,-1.099,138.098,12.101,-78.041
5632,-0.2085,0.6406,-0.7549,1.404,0.549,-0.671,138.131,12.101,-78.036
5642,-0.2085,0.6382,-0.7539,1.465,0.061,-0.183,138.159,12.101,-78.030
5652,-0.2070,0.6431,-0.7500,1.221,-0.488,0.427,138.186,12.096,-78.036
5662,-0.2070,0.6494,-0.7466,1.099,-1.038,1.099,138.197,12.096,-78.052
5672,-0.2085,0.6514,-0.7393,1.160,-1.343,1.526,138.208,12.096,-78.074
5682,-0.2095,0.6533,-0.7354,1.160,-1.343,1.892,138.219,12.090,-78.096
5692,-0.2114,0.6587,-0.7339,1.038,-0.977,2.197,138.224,12.085,-78.124
5702,-0.2109,0.6641,-0.7314,0.854,-0.488,2.319,138.224,12.074,-78.140
5712,-0.2109,0.6689,-0.7319,0.671,-0.061,2.319,138.219,12.057,-78.162
5723,-0.2124,0.6753,-0.7339,0.427,0.122,2.258,138.214,12.041,-78.179
5733,-0.2139,0.6812,-0.7324,0.244,0.061,2.136,138.197,12.025,-78.195
5742,-0.2144,0.6841,-0.7368,0.305,0.000,2.014,138.186,12.014,-78.206
5753,-0.2148,0.6885,-0.7388,0.366,0.305,1.770,138.181,11.997,-78.217
5763,-0.2168,0.6885,-0.7383,0.610,0.793,1.404,138.170,11.986,-78.223
5773,-0.2153,0.6851,-0.7388,0.977,1.221,0.854,138.170,11.970,-78.223
5783,-0.2139,0.6826,-0.7427,1.282,1.343,0.244,138.175,11.959,-78.217
5793,-0.2139,0.6777,-0.7485,1.404,1.282,-0.183,138.192,11.953,-78.206
5803,-0.2134,0.6733,-0.7500,1.221,1.404,-0.488,138.203,11.942,-78.195
5813,-0.2109,0.6714,-0.7510,0.732,1.282,-0.671,138.214,11.937,-78.179
5823,-0.2095,0.6699,-0.7500,0.183,0.854,-0.793,138.219,11.937,-78.168
5833,-0.2085,0.6704,-0.7524,0.000,0.244,-0.916,138.219,11.937,-78.157
5843,-0.2104,0.6719,-0.7549,0.183,-0.122,-1.038,138.224,11.942,-78.151
5853,-0.2119,0.6689,-0.7554,0.549,0.122,-1.160,138.235,11.948,-78.140
5863,-0.2124,0.6650,-0.7563,0.610,0.305,-1.099,138.246,11.953,-78.129
5873,-0.2129,0.6646,-0.7544,0.366,0.000,-1.099,138.257,11.959,-78.124
5883,-0.2173,0.6611,-0.7500,-0.244,-0.732,-1.038,138.257,11.975,-78.118
5893,-0.2168,0.6631,-0.7505,-0.916,-1.526,-0.977,138.252,11.997,-78.124
5903,-0.2187,0.6650,-0.7446,-1.282,-1.953,-0.916,138.235,12.019,-78.129
5914,-0.2187,0.6621,-0.7412,-1.099,-2.014,-0.854,138.224,12.047,-78.135
5923,-0.2163,0.6611,-0.7378,-0.610,-1.953,-0.793,138.214,12.068,-78.146
5933,-0.2158,0.6592,-0.7363,0.000,-1.709,-0.732,138.214,12.085,-78.151
5943,-0.2163,0.6577,-0.7354,0.122,-1.465,-0.610,138.214,12.107,-78.157
5953,-0.2178,0.6592,-0.7329,-0.244,-1.221,-0.366,138.208,12.118,-78.162
5963,-0.2173,0.6606,-0.7349,-0.488,-0.977,-0.183,138.203,12.129,-78.168
5973,-0.2173,0.6616,-0.7349,-0.610,-0.610,0.000,138.192,12.140,-78.168
5983,-0.2192,0.6621,-0.7354,-0.488,-0.244,0.061,138.186,12.140,-78.173
5993,-0.2202,0.6650,-0.7378,-0.366,0.122,0.122,138.181,12.145,-78.173
6003,-0.2202,0.6660,-0.7397,-0.244,0.244,0.183,138.175,12.145,-78.173
6013,-0.2173,0.6650,-0.7397,-0.183,0.183,0.183,138.170,12.145,-78.173
6023,-0.2173,0.6675,-0.7437,-0.183,-0.122,0.000,138.170,12.145,-78.173
6033,-0.2187,0.6680,-0.7437,-0.061,-0.183,-0.122,138.170,12.151,-78.173
6043,-0.2158,0.6665,-0.7427,0.183,-0.061,-0.122,138.170,12.151,-78.173
6053,-0.2144,0.6646,-0.7417,0.305,0.061,-0.122,138.170,12.151,-78.173
6063,-0.2158,0.6636,-0.7388,0.366,0.122,-0.183,138.175,12.156,-78.168
6073,-0.2197,0.6665,-0.7363,0.427,0.183,-0.122,138.175,12.156,-78.168
6083,-0.2207,0.6660,-0.7388,0.488,0.366,-0.061,138.181,12.156,-78.162
6093,-0.2168,0.6655,-0.7373,0.549,0.549,-0.122,138.181,12.156,-78.157
6103,-0.2139,0.6665,-0.7354,0.549,0.671,-0.183,138.186,12.151,-78.151
6113,-0.2153,0.6675,-0.7383,0.671,0.793,-0.244,138.192,12.151,-78.146
6123,-0.2148,0.6660,-0.7437,1.038,1.221,-0.305,138.203,12.140,-78.135
6133,-0.2144,0.6636,-0.7456,1.282,1.709,-0.366,138.219,12.129,-78.118
6143,-0.2129,0.6592,-0.7417,1.587,1.953,-0.244,138.241,12.118,-78.107
6153,-0.2124,0.6558,-0.7495,1.892,1.831,-0.183,138.268,12.107,-78.091
6163,-0.2119,0.6558,-0.7534,1.648,1.648,-0.061,138.296,12.090,-78.080
6173,-0.2100,0.6562,-0.7568,1.038,1.221,0.183,138.312,12.079,-78.074
6183,-0.2104,0.6567,-0.7568,0.488,0.671,0.427,138.323,12.068,-78.074
6193,-0.2095,0.6611,-0.7559,0.122,0.000,0.610,138.329,12.063,-78.074
6203,-0.2119,0.6631,-0.7529,-0.061,-0.549,0.671,138.329,12.063,-78.085
6213,-0.2134,0.6621,-0.7524,0.183,-0.671,0.671,138.334,12.063,-78.096
6223,-0.2148,0.6572,-0.7524,0.366,-0.427,0.671,138.340,12.063,-78.102
6233,-0.2139,0.6587,-0.7500,0.000,-0.244,0.793,138.345,12.057,-78.113
6243,-0.2134,0.6611,-0.7480,-0.671,-0.549,0.977,138.334,12.057,-78.124
6253,-0.2144,0.6636,-0.7456,-0.916,-1.038,1.099,138.323,12.057,-78.140
6263,-0.2178,0.6714,-0.7432,-1.099,-1.587,1.099,138.307,12.063,-78.157
6273,-0.2187,0.6763,-0.7383,-0.916,-1.953,1.099,138.285,12.074,-78.179
6283,-0.2183,0.6733,-0.7383,-0.244,-1.709,0.916,138.268,12.079,-78.195
6293,-0.2183,0.6704,-0.7334,0.183,-1.404,0.671,138.263,12.090,-78.212
6303,-0.2173,0.6719,-0.7314,0.000,-1.038,0.427,138.252,12.096,-78.223
6313,-0.2178,0.6719,-0.7310,-0.427,-0.854,0.244,138.235,12.107,-78.228
6323,-0.2217,0.6743,-0.7310,-0.793,-0.488,0.244,138.219,12.112,-78.234
6333,-0.2168,0.6719,-0.7300,-0.793,-0.183,0.183,138.203,12.112,-78.239
6343,-0.2187,0.6694,-0.7285,-0.244,0.183,0.061,138.192,12.118,-78.239
6353,-0.2187,0.6660,-0.7290,0.366,0.305,0.061,138.192,12.118,-78.234
6363,-0.2187,0.6631,-0.7310,0.854,0.366,0.122,138.197,12.118,-78.234
6373,-0.2173,0.6606,-0.7329,1.038,0.671,0.183,138.203,12.112,-78.228
6383,-0.2148,0.6606,-0.7368,1.099,1.160,0.366,138.214,12.107,-78.223
6393,-0.2144,0.6597,-0.7422,1.160,1.709,0.488,138.230,12.090,-78.217
6403,-0.2144,0.6572,-0.7412,1.221,1.953,0.610,138.246,12.074,-78.206
6413,-0.2124,0.6572,-0.7466,1.465,1.831,0.793,138.263,12.052,-78.201
6423,-0.2114,0.6553,-0.7456,1.831,1.526,1.038,138.290,12.036,-78.201
6433,-0.2109,0.6572,-0.7471,1.953,1.160,1.282,138.312,12.019,-78.201
6443,-0.2119,0.6597,-0.7480,2.014,0.854,1.526,138.334,12.003,-78.206
6453,-0.2153,0.6616,-0.7495,1.831,0.732,1.587,138.351,11.986,-78.217
6463,-0.2158,0.6597,-0.7495,1.709,0.977,1.648,138.367,11.970,-78.223
6473,-0.2134,0.6641,-0.7544,1.465,1.526,1.648,138.384,11.948,-78.223
6483,-0.2139,0.6680,-0.7544,0.977,1.587,1.648,138.395,11.926,-78.223
6493,-0.2139,0.6704,-0.7515,0.916,1.221,1.404,138.406,11.909,-78.228
6503,-0.2144,0.6704,-0.7554,0.854,0.732,1.160,138.411,11.898,-78.234
6513,-0.2148,0.6738,-0.7598,0.427,0.244,0.977,138.417,11.887,-78.239
6523,-0.2153,0.6763,-0.7607,0.183,0.122,0.732,138.417,11.882,-78.239
6533,-0.2148,0.6748,-0.7588,0.061,0.000,0.488,138.417,11.882,-78.245
6543,-0.2144,0.6748,-0.7559,-0.122,-0.244,0.122,138.411,11.882,-78.250
6553,-0.2124,0.6763,-0.7544,-0.488,-0.793,-0.183,138.400,11.887,-78.250
6564,-0.2124,0.6758,-0.7520,-0.977,-1.343,-0.549,138.389,11.904,-78.256
6573,-0.2095,0.6738,-0.7476,-1.465,-1.709,-0.793,138.367,11.920,-78.261
6583,-0.2080,0.6748,-0.7422,-1.709,-1.831,-0.977,138.345,11.937,-78.267
6593,-0.2100,0.6724,-0.7397,-1.526,-1.648,-1.282,138.323,11.959,-78.267
6603,-0.2124,0.6719,-0.7368,-0.977,-1.343,-1.587,138.307,11.975,-78.267
6613,-0.2134,0.6660,-0.7378,-0.488,-0.916,-1.709,138.301,11.997,-78.261
6623,-0.2114,0.6660,-0.7358,0.061,-0.305,-1.709,138.296,12.014,-78.250
6633,-0.2095,0.6631,-0.7383,0.122,0.244,-1.587,138.301,12.019,-78.234
6643,-0.2095,0.6626,-0.7388,-0.061,0.488,-1.404,138.301,12.025,-78.223
6653,-0.2109,0.6597,-0.7407,-0.305,0.488,-1.282,138.301,12.030,-78.206
6663,-0.2129,0.6587,-0.7441,-0.549,0.610,-1.282,138.296,12.030,-78.195
6673,-0.2124,0.6611,-0.7466,-0.671,0.793,-1.221,138.296,12.036,-78.179
6683,-0.2148,0.6577,-0.7441,-0.305,1.038,-1.160,138.301,12.036,-78.162
6693,-0.2158,0.6538,-0.7407,0.244,0.854,-0.977,138.307,12.041,-78.151
6703,-0.2144,0.6479,-0.7422,0.793,0.671,-0.854,138.323,12.041,-78.140
6713,-0.2148,0.6455,-0.7412,1.038,0.793,-0.488,138.340,12.041,-78.129
6723,-0.2129,0.6489,-0.7441,0.610,0.854,0.061,138.356,12.036,-78.124
6733,-0.2100,0.6519,-0.7456,0.244,1.099,0.427,138.362,12.025,-78.118
6743,-0.2100,0.6548,-0.7451,-0.061,0.977,0.610,138.367,12.014,-78.118
6753,-0.2104,0.6567,-0.7495,-0.244,0.732,0.671,138.367,12.003,-78.118
6763,-0.2104,0.6572,-0.7500,0.061,0.549,0.793,138.373,11.992,-78.118
6773,-0.2080,0.6553,-0.7520,0.244,0.427,0.916,138.378,11.981,-78.124
6783,-0.2109,0.6582,-0.7529,0.183,0.305,1.099,138.384,11.970,-78.129
6793,-0.2124,0.6602,-0.7529,-0.061,0.183,1.282,138.384,11.959,-78.140
6803,-0.2124,0.6675,-0.7520,-0.610,0.000,1.404,138.378,11.953,-78.151
6813,-0.2119,0.6724,-0.7485,-0.854,-0.366,1.404,138.362,11.942,-78.162
6823,-0.2139,0.6733,-0.7485,-0.671,-0.671,1.221,138.351,11.942,-78.179
6833,-0.2153,0.6738,-0.7495,-0.427,-0.793,0.916,138.340,11.942,-78.190
6843,-0.2183,0.6724,-0.7451,-0.244,-0.732,0.610,138.329,11.948,-78.201
6853,-0.2163,0.6670,-0.7422,-0.305,-0.549,0.427,138.323,11.953,-78.206
6863,-0.2183,0.6646,-0.7417,-0.793,-0.366,0.366,138.312,11.959,-78.212
6873,-0.2183,0.6631,-0.7358,-1.404,-0.305,0.427,138.296,11.959,-78.217
6883,-0.2178,0.6616,-0.7329,-1.709,-0.305,0.610,138.274,11.964,-78.223
6893,-0.2183,0.6621,-0.7324,-1.709,-0.305,0.916,138.252,11.964,-78.234
6903,-0.2134,0.6641,-0.7305,-1.343,-0.244,1.160,138.230,11.959,-78.245
6913,-0.2119,0.6641,-0.7280,-0.854,-0.122,1.282,138.214,11.953,-78.256
6923,-0.2104,0.6685,-0.7290,-0.366,0.183,1.221,138.203,11.948,-78.261
6933,-0.2100,0.6714,-0.7319,0.000,0.793,1.038,138.192,11.931,-78.267
6943,-0.2095,0.6743,-0.7344,0.244,1.465,0.854,138.186,11.915,-78.261
6953,-0.2104,0.6733,-0.7402,0.427,2.014,0.671,138.192,11.898,-78.250
6963,-0.2119,0.6748,-0.7456,0.427,2.319,0.427,138.192,11.876,-78.239
6973,-0.2124,0.6772,-0.7490,0.061,2.136,0.305,138.192,11.860,-78.228
6983,-0.2119,0.6802,-0.7490,-0.122,1.587,0.244,138.186,11.843,-78.217
6993,-0.2080,0.6792,-0.7520,-0.183,1.099,0.061,138.186,11.832,-78.212
7003,-0.2070,0.6787,-0.7573,0.061,0.977,-0.305,138.186,11.827,-78.201
7013,-0.2041,0.6758,-0.7563,0.488,1.221,-0.549,138.197,11.816,-78.190
7023,-0.2051,0.6719,-0.7554,0.793,1.404,-0.854,138.208,11.810,-78.173
7033,-0.2026,0.6675,-0.7559,0.854,1.221,-1.038,138.224,11.799,-78.157
7043,-0.2051,0.6636,-0.7588,0.671,0.732,-1.221,138.241,11.799,-78.146
7053,-0.2061,0.6626,-0.7593,0.427,0.305,-1.221,138.252,11.805,-78.129
7064,-0.2085,0.6621,-0.7603,0.427,0.183,-1.038,138.263,11.810,-78.124
7073,-0.2100,0.6553,-0.7617,0.610,0.183,-0.854,138.285,11.810,-78.113
7083,-0.2109,0.6548,-0.7607,0.732,0.061,-0.671,138.301,11.816,-78.107
7093,-0.2114,0.6519,-0.7554,0.549,-0.488,-0.244,138.312,11.827,-78.113
7103,-0.2124,0.6479,-0.7524,0.061,-1.465,0.244,138.323,11.838,-78.124
7113,-0.2129,0.6494,-0.7437,-0.671,-2.441,0.732,138.318,11.854,-78.146
7123,-0.2153,0.6538,-0.7363,-1.160,-2.930,0.977,138.301,11.871,-78.173
7133,-0.2168,0.6582,-0.7339,-1.099,-2.747,1.099,138.285,11.893,-78.201
7143,-0.2158,0.6621,-0.7290,-1.038,-2.075,1.160,138.263,11.904,-78.223
7153,-0.2144,0.6626,-0.7251,-0.732,-1.404,1.221,138.246,11.909,-78.239
7163,-0.2124,0.6631,-0.7285,-0.366,-0.854,1.221,138.230,11.909,-78.256
7173,-0.2129,0.6680,-0.7314,-0.122,-0.549,1.160,138.219,11.909,-78.267
7183,-0.2119,0.6709,-0.7319,0.061,-0.183,1.221,138.214,11.904,-78.278
7193,-0.2119,0.6738,-0.7319,0.305,0.122,1.282,138.208,11.898,-78.289
7203,-0.2139,0.6733,-0.7349,0.671,0.427,1.282,138.203,11.887,-78.294
7213,-0.2124,0.6733,-0.7363,0.977,0.610,1.099,138.208,11.876,-78.300
7223,-0.2119,0.6729,-0.7368,1.221,0.793,0.854,138.214,11.865,-78.300
7233,-0.2109,0.6714,-0.7432,1.404,1.099,0.671,138.224,11.854,-78.300
7243,-0.2114,0.6694,-0.7466,1.465,1.465,0.488,138.235,11.838,-78.294
7253,-0.2104,0.6714,-0.7495,1.099,1.465,0.366,138.246,11.827,-78.283
7263,-0.2085,0.6704,-0.7510,0.854,1.099,0.305,138.257,11.816,-78.278
7273,-0.2080,0.6714,-0.7554,0.732,0.610,0.244,138.268,11.805,-78.278
7283,-0.2085,0.6689,-0.7529,0.671,0.183,0.244,138.274,11.805,-78.278
7293,-0.2100,0.6636,-0.7480,0.916,-0.061,0.183,138.285,11.805,-78.278
7303,-0.2090,0.6597,-0.7471,1.221,-0.061,0.000,138.301,11.805,-78.278
7313,-0.2080,0.6558,-0.7485,1.465,0.183,-0.061,138.318,11.805,-78.278
7323,-0.2065,0.6523,-0.7524,1.221,0.610,0.061,138.340,11.799,-78.272
7333,-0.2061,0.6587,-0.7534,0.610,0.854,0.366,138.351,11.788,-78.272
7343,-0.2075,0.6631,-0.7534,0.183,0.671,0.610,138.356,11.777,-78.272
7353,-0.2075,0.6670,-0.7568,0.183,0.183,0.793,138.362,11.766,-78.278
7363,-0.2075,0.6680,-0.7563,0.610,-0.366,0.854,138.367,11.766,-78.283
7373,-0.2065,0.6675,-0.7549,1.038,-0.854,0.916,138.373,11.761,-78.300
7383,-0.2100,0.6665,-0.7554,0.977,-1.160,0.854,138.384,11.766,-78.311
7394,-0.2104,0.6680,-0.7490,0.244,-1.526,0.671,138.384,11.772,-78.327
7404,-0.2119,0.6714,-0.7407,-0.793,-1.953,0.610,138.362,11.783,-78.344
7414,-0.2163,0.6738,-0.7368,-1.343,-2.075,0.488,138.340,11.805,-78.365
7424,-0.2183,0.6738,-0.7310,-1.404,-2.014,0.366,138.312,11.821,-78.382
7434,-0.2183,0.6704,-0.7290,-0.793,-1.587,0.244,138.290,11.838,-78.393
7444,-0.2187,0.6631,-0.7290,0.244,-0.732,0.183,138.290,11.849,-78.398
7454,-0.2148,0.6650,-0.7305,0.427,-0.244,0.244,138.285,11.854,-78.404
7464,-0.2119,0.6670,-0.7319,0.366,-0.061,0.366,138.279,11.854,-78.404
7474,-0.2114,0.6714,-0.7305,0.305,-0.122,0.305,138.274,11.854,-78.409
7484,-0.2119,0.6714,-0.7324,0.061,0.061,0.122,138.268,11.854,-78.409
7494,-0.2144,0.6694,-0.7329,0.183,0.488,-0.061,138.263,11.854,-78.404
7504,-0.2129,0.6689,-0.7334,0.610,1.099,-0.061,138.263,11.849,-78.398
7514,-0.2109,0.6719,-0.7397,1.160,1.831,-0.061,138.274,11.838,-78.387
7524,-0.2080,0.6714,-0.7441,1.587,2.441,-0.183,138.290,11.816,-78.365
7534,-0.2080,0.6724,-0.7515,1.648,2.563,-0.366,138.307,11.799,-78.349
7544,-0.2065,0.6738,-0.7539,1.404,2.136,-0.549,138.329,11.783,-78.327
7554,-0.2095,0.6758,-0.7598,0.854,1.282,-0.732,138.340,11.777,-78.316
7564,-0.2080,0.6743,-0.7607,0.366,0.671,-0.916,138.345,11.777,-78.300
7574,-0.2065,0.6753,-0.7607,0.183,0.305,-1.160,138.351,11.783,-78.294
7584,-0.2070,0.6738,-0.7603,0.244,0.305,-1.221,138.356,11.783,-78.278
7594,-0.2070,0.6714,-0.7578,0.366,0.061,-1.343,138.362,11.788,-78.267
7604,-0.2080,0.6675,-0.7583,0.610,-0.305,-1.587,138.373,11.799,-78.261
7614,-0.2090,0.6621,-0.7593,0.427,-0.793,-1.709,138.384,11.816,-78.250
7624,-0.2129,0.6592,-0.7549,0.000,-1.160,-1.831,138.389,11.838,-78.245
7634,-0.2109,0.6562,-0.7480,-0.366,-1.526,-1.770,138.389,11.865,-78.245
7644,-0.2070,0.6558,-0.7422,-0.671,-1.770,-1.648,138.384,11.887,-78.239
7654,-0.2065,0.6543,-0.7393,-0.732,-1.892,-1.526,138.378,11.909,-78.245
7664,-0.2100,0.6533,-0.7427,-0.427,-1.465,-1.404,138.378,11.931,-78.245
7674,-0.2114,0.6514,-0.7393,-0.244,-0.977,-1.038,138.378,11.948,-78.239
7684,-0.2100,0.6533,-0.7354,-0.061,-0.549,-0.671,138.378,11.959,-78.239
7694,-0.2100,0.6543,-0.7397,0.183,-0.488,-0.549,138.378,11.964,-78.239
7704,-0.2134,0.6543,-0.7422,0.488,-0.427,-0.488,138.389,11.975,-78.239
7714,-0.2129,0.6538,-0.7422,0.610,-0.183,-0.366,138.395,11.981,-78.234
7724,-0.2163,0.6519,-0.7446,0.549,0.122,-0.183,138.406,11.981,-78.234
7734,-0.2158,0.6543,-0.7432,0.305,0.366,0.000,138.411,11.981,-78.234
7744,-0.2158,0.6577,-0.7437,0.244,0.427,0.183,138.417,11.981,-78.228
7754,-0.2153,0.6567,-0.7422,0.366,0.305,0.244,138.422,11.981,-78.228
7764,-0.2148,0.6553,-0.7451,0.549,0.183,0.305,138.428,11.981,-78.228
7774,-0.2158,0.6548,-0.7407,0.793,0.000,0.427,138.439,11.981,-78.234
7784,-0.2148,0.6528,-0.7407,0.977,0.061,0.610,138.444,11.981,-78.239
7794,-0.2153,0.6567,-0.7417,1.038,0.183,0.671,138.455,11.975,-78.245
7804,-0.2168,0.6587,-0.7397,1.099,0.427,0.793,138.466,11.970,-78.245
7814,-0.2139,0.6606,-0.7402,1.099,0.610,0.854,138.472,11.964,-78.250
7824,-0.2148,0.6655,-0.7412,0.916,0.671,0.854,138.477,11.953,-78.250
7834,-0.2119,0.6655,-0.7461,0.854,0.610,0.793,138.483,11.942,-78.250
7844,-0.2124,0.6650,-0.7510,0.793,0.854,0.610,138.494,11.931,-78.250
7854,-0.2124,0.6660,-0.7490,0.427,0.977,0.610,138.494,11.920,-78.250
7864,-0.2109,0.6694,-0.7480,0.061,0.854,0.610,138.494,11.915,-78.250
7874,-0.2104,0.6709,-0.7471,0.061,0.427,0.488,138.488,11.904,-78.250
7884,-0.2114,0.6680,-0.7480,0.488,0.061,0.244,138.494,11.904,-78.250
7894,-0.2119,0.6670,-0.7476,0.854,0.122,0.000,138.499,11.904,-78.250
7904,-0.2153,0.6616,-0.7451,0.854,0.305,-0.122,138.505,11.904,-78.245
7915,-0.2104,0.6592,-0.7432,0.916,0.610,-0.183,138.516,11.904,-78.239
7924,-0.2114,0.6587,-0.7417,0.793,0.793,-0.244,138.521,11.898,-78.234
7934,-0.2114,0.6597,-0.7471,0.793,0.977,-0.122,138.532,11.893,-78.228
7944,-0.2090,0.6611,-0.7515,1.160,1.343,-0.061,138.549,11.882,-78.217
7954,-0.2085,0.6587,-0.7559,1.526,1.587,-0.122,138.571,11.871,-78.206
7964,-0.2070,0.6558,-0.7568,1.709,1.526,-0.183,138.593,11.860,-78.195
7974,-0.2070,0.6533,-0.7622,1.343,1.038,-0.122,138.615,11.849,-78.184
7984,-0.2065,0.6553,-0.7622,0.610,0.366,0.122,138.631,11.843,-78.184
7994,-0.2061,0.6538,-0.7588,0.000,-0.244,0.244,138.636,11.843,-78.184
8004,-0.2085,0.6567,-0.7593,-0.305,-0.732,0.305,138.636,11.843,-78.195
8014,-0.2100,0.6597,-0.7573,-0.305,-0.854,0.366,138.631,11.849,-78.201
8024,-0.2104,0.6597,-0.7573,-0.122,-0.854,0.427,138.631,11.849,-78.212
8034,-0.2104,0.6587,-0.7549,0.061,-0.977,0.427,138.636,11.854,-78.223
8044,-0.2090,0.6567,-0.7515,-0.183,-1.099,0.488,138.631,11.860,-78.234
8054,-0.2104,0.6597,-0.7461,-0.610,-1.282,0.671,138.625,11.865,-78.245
8064,-0.2095,0.6621,-0.7407,-0.610,-1.404,0.793,138.609,11.871,-78.261
8074,-0.2104,0.6650,-0.7407,-0.427,-1.404,0.793,138.598,11.876,-78.278
8084,-0.2114,0.6680,-0.7393,-0.244,-1.160,0.793,138.587,11.882,-78.294
8094,-0.2119,0.6694,-0.7402,0.061,-0.854,0.671,138.576,11.882,-78.305
8104,-0.2119,0.6680,-0.7378,0.366,-0.488,0.549,138.571,11.887,-78.311
8114,-0.2114,0.6665,-0.7388,0.366,-0.122,0.366,138.565,11.887,-78.316
8124,-0.2104,0.6670,-0.7402,0.183,0.183,0.122,138.565,11.882,-78.316
8134,-0.2124,0.6660,-0.7437,0.122,0.488,0.061,138.560,11.882,-78.311
8144,-0.2104,0.6660,-0.7451,0.244,0.732,0.000,138.560,11.876,-78.305
8154,-0.2090,0.6680,-0.7466,0.366,0.793,-0.061,138.560,11.871,-78.300
8164,-0.2085,0.6660,-0.7515,0.671,0.793,-0.244,138.571,11.865,-78.294
8174,-0.2080,0.6636,-0.7510,0.793,0.671,-0.305,138.576,11.860,-78.283
8184,-0.2090,0.6587,-0.7505,0.977,0.549,-0.305,138.593,11.854,-78.278
8194,-0.2090,0.6597,-0.7510,0.854,0.610,-0.244,138.598,11.854,-78.272
8204,-0.2070,0.6611,-0.7515,0.671,0.610,-0.061,138.609,11.849,-78.267
8214,-0.2090,0.6592,-0.7520,1.038,0.610,-0.183,138.620,11.843,-78.261
8224,-0.2104,0.6553,-0.7554,1.282,0.610,-0.366,138.642,11.843,-78.256
8234,-0.2109,0.6553,-0.7554,1.099,0.366,-0.366,138.658,11.843,-78.250
8244,-0.2114,0.6533,-0.7520,0.854,0.000,-0.183,138.669,11.843,-78.250
8254,-0.2124,0.6528,-0.7485,0.488,-0.366,0.061,138.675,11.849,-78.250
8264,-0.2119,0.6548,-0.7466,0.061,-0.610,0.183,138.675,11.854,-78.256
8274,-0.2139,0.6597,-0.7476,-0.061,-0.427,0.244,138.675,11.860,-78.261
8284,-0.2139,0.6616,-0.7461,0.183,0.000,0.366,138.669,11.860,-78.267
8294,-0.2129,0.6631,-0.7490,0.366,0.244,0.366,138.675,11.854,-78.267
8304,-0.2104,0.6631,-0.7485,0.183,0.122,0.244,138.675,11.854,-78.267
8314,-0.2119,0.6660,-0.7534,-0.122,-0.366,0.122,138.669,11.854,-78.272
8324,-0.2134,0.6665,-0.7544,-0.305,-0.671,0.061,138.664,11.860,-78.278
8334,-0.2153,0.6660,-0.7520,-0.427,-0.854,0.000,138.658,11.871,-78.283
8344,-0.2178,0.6631,-0.7471,-0.427,-0.793,-0.183,138.647,11.882,-78.289
8354,-0.2178,0.6641,-0.7466,-0.488,-0.732,-0.244,138.642,11.893,-78.289
8364,-0.2173,0.6660,-0.7456,-0.610,-0.732,-0.305,138.631,11.904,-78.294
8374,-0.2163,0.6650,-0.7427,-0.549,-0.732,-0.305,138.620,11.915,-78.294
8384,-0.2134,0.6636,-0.7461,-0.244,-0.671,-0.488,138.615,11.926,-78.294
8394,-0.2134,0.6602,-0.7480,0.122,-0.305,-0.732,138.615,11.931,-78.294
8404,-0.2153,0.6587,-0.7466,0.122,-0.061,-0.793,138.615,11.942,-78.289
8414,-0.2129,0.6543,-0.7441,-0.122,0.000,-0.671,138.620,11.948,-78.283
8424,-0.2139,0.6528,-0.7427,-0.488,-0.244,-0.549,138.615,11.959,-78.278
8434,-0.2139,0.6567,-0.7422,-0.732,-0.488,-0.427,138.604,11.964,-78.278
8444,-0.2134,0.6567,-0.7427,-0.427,-0.488,-0.244,138.598,11.970,-78.278
8454,-0.2139,0.6533,-0.7422,0.122,-0.061,-0.122,138.604,11.975,-78.278
8464,-0.2119,0.6543,-0.7461,0.549,0.610,0.000,138.609,11.970,-78.278
8474,-0.2114,0.6538,-0.7466,0.610,0.977,0.244,138.620,11.964,-78.272
8484,-0.2090,0.6538,-0.7471,0.549,1.038,0.366,138.625,11.953,-78.267
8494,-0.2085,0.6543,-0.7485,0.427,0.793,0.549,138.631,11.942,-78.267
8504,-0.2119,0.6577,-0.7500,0.305,0.549,0.671,138.636,11.931,-78.267
8514,-0.2124,0.6602,-0.7485,0.549,0.488,0.793,138.642,11.926,-78.267
8524,-0.2104,0.6611,-0.7515,0.854,0.488,0.732,138.647,11.915,-78.272
8534,-0.2100,0.6641,-0.7485,0.916,0.488,0.793,138.653,11.909,-78.272
8544,-0.2090,0.6646,-0.7520,0.854,0.488,0.793,138.664,11.898,-78.278
8554,-0.2109,0.6665,-0.7544,0.671,0.610,0.732,138.669,11.887,-78.278
8565,-0.2129,0.6680,-0.7534,0.488,0.793,0.549,138.669,11.876,-78.278
8574,-0.2124,0.6670,-0.7573,0.488,0.977,0.305,138.675,11.871,-78.272
8584,-0.2114,0.6641,-0.7554,0.549,0.610,0.183,138.680,11.865,-78.272
8594,-0.2090,0.6621,-0.7549,0.549,0.122,0.183,138.686,11.860,-78.272
8604,-0.2095,0.6582,-0.7534,0.488,-0.427,0.183,138.691,11.860,-78.278
8614,-0.2109,0.6592,-0.7529,0.366,-0.610,0.122,138.697,11.865,-78.283
8624,-0.2129,0.6587,-0.7510,0.183,-0.549,0.183,138.697,11.871,-78.283
8634,-0.2104,0.6582,-0.7485,0.061,-0.427,0.305,138.697,11.871,-78.289
8644,-0.2119,0.6602,-0.7500,-0.061,-0.427,0.366,138.697,11.876,-78.294
8654,-0.2109,0.6602,-0.7515,-0.061,-0.427,0.305,138.691,11.876,-78.300
8664,-0.2104,0.6597,-0.7495,0.122,-0.305,0.244,138.691,11.876,-78.305
8674,-0.2124,0.6577,-0.7466,0.061,-0.366,0.244,138.691,11.882,-78.305
8684,-0.2119,0.6577,-0.7427,-0.244,-0.549,0.305,138.686,11.882,-78.305
8694,-0.2114,0.6587,-0.7422,-0.427,-0.793,0.366,138.675,11.887,-78.305
8704,-0.2124,0.6597,-0.7432,-0.488,-0.854,0.366,138.669,11.893,-78.305
8714,-0.2153,0.6616,-0.7383,-0.305,-0.610,0.427,138.658,11.898,-78.305
8724,-0.2124,0.6646,-0.7358,0.244,0.000,0.488,138.653,11.898,-78.305
8734,-0.2104,0.6626,-0.7412,0.854,0.610,0.366,138.658,11.893,-78.305
8744,-0.2085,0.6616,-0.7427,1.221,1.160,0.305,138.664,11.882,-78.305
8754,-0.2085,0.6641,-0.7441,1.343,1.465,0.366,138.675,11.865,-78.305
8764,-0.2090,0.6636,-0.7471,1.282,1.526,0.305,138.686,11.854,-78.305
8774,-0.2104,0.6631,-0.7495,1.160,1.465,0.183,138.697,11.843,-78.305
8784,-0.2095,0.6621,-0.7500,1.038,1.282,0.122,138.708,11.832,-78.305
8794,-0.2090,0.6616,-0.7520,1.038,1.160,0.061,138.719,11.821,-78.305
8804,-0.2100,0.6597,-0.7520,1.099,1.160,0.122,138.735,11.810,-78.305
8814,-0.2100,0.6567,-0.7549,1.160,1.343,0.122,138.746,11.799,-78.305
8824,-0.2070,0.6567,-0.7573,1.038,1.465,0.244,138.763,11.788,-78.305
8834,-0.2041,0.6597,-0.7563,0.854,1.160,0.427,138.774,11.772,-78.305
8844,-0.2051,0.6597,-0.7534,0.854,0.793,0.549,138.785,11.761,-78.305
8854,-0.2085,0.6616,-0.7515,0.793,0.244,0.549,138.790,11.755,-78.305
8864,-0.2104,0.6602,-0.7510,0.732,0.061,0.488,138.796,11.755,-78.305
8874,-0.2114,0.6606,-0.7500,0.610,0.183,0.427,138.801,11.750,-78.305
8884,-0.2100,0.6553,-0.7529,0.427,0.427,0.427,138.807,11.744,-78.305
8894,-0.2134,0.6519,-0.7549,0.122,0.549,0.427,138.812,11.744,-78.305
8904,-0.2114,0.6514,-0.7515,-0.366,0.427,0.488,138.807,11.739,-78.305
8914,-0.2124,0.6509,-0.7549,-0.610,0.122,0.610,138.807,11.739,-78.305
8924,-0.2124,0.6504,-0.7563,-0.610,-0.183,0.793,138.801,11.739,-78.305
8934,-0.2080,0.6499,-0.7568,-0.244,-0.244,0.977,138.807,11.733,-78.305
8944,-0.2065,0.6519,-0.7578,0.366,-0.183,1.160,138.812,11.728,-78.316
8954,-0.2065,0.6538,-0.7573,0.671,-0.366,1.282,138.818,11.717,-78.327
8964,-0.2070,0.6558,-0.7583,0.610,-0.732,1.404,138.823,11.717,-78.344
8974,-0.2104,0.6562,-0.7559,0.366,-1.038,1.343,138.829,11.717,-78.360
8984,-0.2100,0.6626,-0.7524,-0.183,-1.099,1.160,138.818,11.717,-78.376
8994,-0.2104,0.6699,-0.7534,-0.427,-0.916,0.977,138.807,11.717,-78.393
9004,-0.2080,0.6724,-0.7510,-0.183,-0.549,0.793,138.801,11.717,-78.398
9014,-0.2080,0.6704,-0.7539,0.305,-0.183,0.427,138.796,11.717,-78.404
9024,-0.2090,0.6680,-0.7520,0.366,-0.061,0.000,138.796,11.717,-78.404
9034,-0.2095,0.6685,-0.7534,-0.061,-0.366,-0.427,138.790,11.722,-78.404
9044,-0.2114,0.6689,-0.7485,-0.549,-0.793,-0.671,138.779,11.733,-78.404
9054,-0.2124,0.6670,-0.7461,-0.916,-1.160,-0.977,138.763,11.750,-78.404
9065,-0.2124,0.6646,-0.7417,-0.854,-1.099,-1.099,138.752,11.772,-78.404
9074,-0.2100,0.6592,-0.7451,-0.244,-0.793,-1.221,138.746,11.783,-78.398
9084,-0.2090,0.6553,-0.7451,0.610,-0.183,-1.160,138.752,11.794,-78.393
9094,-0.2075,0.6519,-0.7476,1.099,0.305,-1.038,138.768,11.799,-78.382
9104,-0.2065,0.6494,-0.7495,1.160,0.610,-0.916,138.785,11.799,-78.371
9114,-0.2085,0.6479,-0.7524,1.038,0.671,-0.793,138.801,11.799,-78.360
9124,-0.2119,0.6479,-0.7520,0.549,0.549,-0.549,138.812,11.805,-78.354
9134,-0.2129,0.6499,-0.7520,0.000,0.244,-0.305,138.818,11.805,-78.349
9144,-0.2109,0.6533,-0.7515,-0.366,-0.183,-0.061,138.818,11.810,-78.349
9154,-0.2109,0.6577,-0.7500,-0.610,-0.549,0.183,138.807,11.816,-78.354
9164,-0.2095,0.6636,-0.7485,-0.610,-0.671,0.366,138.796,11.816,-78.360
9174,-0.2100,0.6670,-0.7490,-0.366,-0.549,0.305,138.785,11.821,-78.371
9184,-0.2085,0.6699,-0.7510,-0.122,-0.183,0.122,138.779,11.816,-78.371
9194,-0.2100,0.6724,-0.7529,0.000,0.183,-0.183,138.774,11.816,-78.365
9204,-0.2085,0.6675,-0.7515,-0.122,0.305,-0.488,138.774,11.816,-78.360
9214,-0.2085,0.6660,-0.7544,-0.427,0.366,-0.854,138.768,11.821,-78.354
9224,-0.2100,0.6655,-0.7505,-0.732,0.183,-1.099,138.757,11.827,-78.344
9234,-0.2119,0.6641,-0.7529,-0.610,-0.061,-1.221,138.752,11.832,-78.333
9244,-0.2100,0.6602,-0.7544,-0.183,-0.244,-1.343,138.752,11.843,-78.327
9254,-0.2100,0.6567,-0.7559,0.183,-0.305,-1.343,138.757,11.854,-78.316
9264,-0.2109,0.6562,-0.7563,0.427,-0.244,-1.221,138.768,11.865,-78.311
9274,-0.2124,0.6519,-0.7554,0.427,-0.244,-1.160,138.779,11.876,-78.305
9284,-0.2100,0.6499,-0.7539,0.183,-0.366,-1.160,138.785,11.887,-78.294
9294,-0.2095,0.6494,-0.7520,-0.305,-0.671,-1.099,138.785,11.898,-78.294
9304,-0.2100,0.6519,-0.7500,-0.793,-0.916,-0.916,138.779,11.915,-78.289
9314,-0.2104,0.6558,-0.7485,-1.038,-1.099,-0.732,138.768,11.926,-78.294
9324,-0.2114,0.6562,-0.7471,-0.854,-1.099,-0.549,138.763,11.937,-78.294
9334,-0.2109,0.6538,-0.7466,-0.488,-0.977,-0.427,138.757,11.948,-78.300
9344,-0.2139,0.6523,-0.7451,-0.061,-0.916,-0.305,138.757,11.959,-78.305
9354,-0.2139,0.6558,-0.7441,0.061,-0.732,-0.183,138.752,11.970,-78.305
9364,-0.2124,0.6592,-0.7451,-0.183,-0.610,-0.122,138.746,11.975,-78.311
9374,-0.2124,0.6597,-0.7446,-0.366,-0.732,-0.244,138.741,11.981,-78.311
9384,-0.2129,0.6631,-0.7466,-0.671,-0.854,-0.305,138.730,11.992,-78.316
9394,-0.2139,0.6650,-0.7441,-0.793,-0.793,-0.244,138.719,12.003,-78.322
9404,-0.2129,0.6641,-0.7461,-0.671,-0.610,-0.244,138.708,12.008,-78.322
9414,-0.2109,0.6626,-0.7422,-0.366,-0.427,-0.244,138.697,12.014,-78.322
9424,-0.2095,0.6611,-0.7441,0.122,0.000,-0.305,138.697,12.014,-78.322
9434,-0.2104,0.6582,-0.7490,0.427,0.427,-0.366,138.702,12.008,-78.316
9444,-0.2119,0.6562,-0.7485,0.610,0.671,-0.305,138.708,12.008,-78.311
9454,-0.2119,0.6533,-0.7520,0.793,0.854,-0.366,138.719,12.003,-78.300
9464,-0.2144,0.6533,-0.7534,0.793,0.916,-0.366,138.735,12.003,-78.289
9474,-0.2134,0.6519,-0.7534,0.732,0.793,-0.244,138.746,11.997,-78.283
9484,-0.2134,0.6523,-0.7495,0.671,0.366,0.000,138.757,11.997,-78.283
9494,-0.2129,0.6548,-0.7520,0.366,-0.122,0.244,138.763,11.997,-78.283
9504,-0.2129,0.6553,-0.7539,0.366,-0.427,0.366,138.768,11.997,-78.289
9514,-0.2139,0.6562,-0.7524,0.366,-0.427,0.488,138.768,11.997,-78.294
9524,-0.2139,0.6597,-0.7554,0.244,-0.427,0.549,138.774,11.997,-78.305
9534,-0.2124,0.6597,-0.7539,0.061,-0.549,0.549,138.774,11.997,-78.311
9544,-0.2163,0.6597,-0.7520,-0.122,-0.732,0.427,138.768,12.003,-78.322
9554,-0.2168,0.6641,-0.7500,-0.549,-0.916,0.366,138.757,12.008,-78.327
9565,-0.2183,0.6685,-0.7446,-0.854,-1.038,0.305,138.741,12.019,-78.338
9574,-0.2173,0.6685,-0.7417,-0.732,-0.977,0.183,138.724,12.025,-78.344
9584,-0.2197,0.6660,-0.7407,-0.366,-0.854,-0.061,138.713,12.036,-78.349
9595,-0.2207,0.6655,-0.7446,-0.183,-0.549,-0.366,138.708,12.047,-78.354
9605,-0.2173,0.6621,-0.7446,-0.427,-0.061,-0.549,138.697,12.052,-78.349
9615,-0.2153,0.6572,-0.7451,-0.427,-0.061,-0.671,138.697,12.063,-78.344
9625,-0.2144,0.6543,-0.7456,-0.488,-0.061,-0.671,138.691,12.068,-78.338
9635,-0.2134,0.6548,-0.7446,-0.305,-0.122,-0.549,138.686,12.074,-78.333
9645,-0.2134,0.6538,-0.7437,-0.061,-0.183,-0.183,138.686,12.074,-78.333
9655,-0.2144,0.6504,-0.7446,0.244,-0.122,0.000,138.691,12.079,-78.338
9665,-0.2168,0.6475,-0.7446,0.427,0.244,0.061,138.697,12.079,-78.333
9675,-0.2173,0.6509,-0.7456,0.366,0.549,0.122,138.702,12.079,-78.333
9685,-0.2139,0.6553,-0.7466,0.305,0.671,0.305,138.708,12.074,-78.327
9695,-0.2139,0.6543,-0.7495,0.427,0.610,0.427,138.713,12.063,-78.327
9705,-0.2134,0.6572,-0.7524,0.305,0.488,0.427,138.719,12.057,-78.327
9715,-0.2134,0.6616,-0.7534,-0.061,0.244,0.427,138.719,12.052,-78.333
9725,-0.2139,0.6636,-0.7529,-0.183,0.122,0.305,138.713,12.052,-78.333
9735,-0.2148,0.6606,-0.7515,-0.244,0.122,0.122,138.713,12.047,-78.333
9745,-0.2183,0.6616,-0.7510,-0.366,0.244,0.061,138.708,12.047,-78.333
9755,-0.2168,0.6621,-0.7480,-0.366,0.122,-0.122,138.702,12.052,-78.327
9765,-0.2134,0.6611,-0.7490,-0.122,0.183,-0.244,138.702,12.052,-78.327
9775,-0.2119,0.6611,-0.7466,0.122,0.122,-0.244,138.702,12.052,-78.322
9785,-0.2100,0.6582,-0.7500,0.366,0.244,-0.305,138.702,12.052,-78.322
9795,-0.2109,0.6587,-0.7500,0.427,0.488,-0.305,138.708,12.047,-78.316
9805,-0.2124,0.6533,-0.7500,0.488,0.793,-0.305,138.719,12.041,-78.305
9815,-0.2104,0.6514,-0.7534,0.671,0.916,-0.366,138.730,12.036,-78.300
9825,-0.2080,0.6484,-0.7554,0.793,0.793,-0.183,138.746,12.030,-78.289
9835,-0.2065,0.6436,-0.7529,0.793,0.549,0.122,138.763,12.025,-78.289
9845,-0.2100,0.6411,-0.7554,0.854,0.427,0.488,138.779,12.019,-78.289
9855,-0.2100,0.6445,-0.7549,0.610,0.366,0.854,138.790,12.008,-78.294
9865,-0.2104,0.6475,-0.7524,0.366,0.183,1.221,138.801,11.997,-78.300
9875,-0.2124,0.6489,-0.7529,0.305,-0.061,1.465,138.807,11.992,-78.311
9885,-0.2158,0.6519,-0.7524,0.183,-0.305,1.526,138.807,11.986,-78.327
9895,-0.2163,0.6592,-0.7534,-0.122,-0.488,1.587,138.801,11.981,-78.344
9905,-0.2168,0.6606,-0.7529,-0.366,-0.549,1.587,138.796,11.975,-78.360
9916,-0.2178,0.6616,-0.7515,-0.488,-0.549,1.526,138.785,11.975,-78.371
9925,-0.2158,0.6670,-0.7480,-0.732,-0.610,1.404,138.768,11.970,-78.387
9935,-0.2173,0.6689,-0.7490,-0.793,-0.854,1.160,138.752,11.970,-78.404
9945,-0.2178,0.6699,-0.7485,-0.610,-1.160,1.038,138.735,11.975,-78.420
9955,-0.2144,0.6714,-0.7402,-0.549,-1.160,0.916,138.719,11.981,-78.431
9965,-0.2104,0.6733,-0.7441,-0.488,-0.854,0.610,138.702,11.981,-78.442
9975,-0.2100,0.6719,-0.7412,-0.244,-0.610,0.366,138.691,11.981,-78.448
9985,-0.2134,0.6694,-0.7407,-0.061,-0.366,0.183,138.680,11.986,-78.453
9995,-0.2139,0.6655,-0.7368,-0.061,-0.305,0.061,138.675,11.986,-78.459
10005,-0.2119,0.6650,-0.7358,-0.122,-0.061,-0.183,138.664,11.992,-78.453
10015,-0.2144,0.6650,-0.7393,0.000,0.366,-0.305,138.658,11.992,-78.453
10025,-0.2168,0.6626,-0.7407,0.183,0.977,-0.488,138.658,11.992,-78.442
10035,-0.2153,0.6577,-0.7393,0.305,1.526,-0.488,138.658,11.986,-78.426
10045,-0.2124,0.6572,-0.7407,0.366,1.648,-0.427,138.664,11.975,-78.415
10055,-0.2129,0.6572,-0.7446,0.549,1.587,-0.305,138.675,11.970,-78.398
10065,-0.2139,0.6558,-0.7441,0.732,1.526,-0.122,138.680,11.959,-78.387
10075,-0.2148,0.6548,-0.7456,1.099,1.526,0.061,138.697,11.948,-78.376
10085,-0.2134,0.6533,-0.7500,1.282,1.587,0.122,138.713,11.937,-78.371
10095,-0.2129,0.6543,-0.7490,1.099,1.526,0.122,138.724,11.926,-78.360
10105,-0.2124,0.6553,-0.7490,0.549,1.404,0.183,138.735,11.920,-78.349
10115,-0.2129,0.6543,-0.7549,-0.183,1.221,0.122,138.735,11.909,-78.344
10125,-0.2134,0.6592,-0.7539,-0.916,1.038,0.122,138.730,11.904,-78.338
10135,-0.2114,0.6655,-0.7495,-1.343,0.854,0.122,138.713,11.893,-78.333
10145,-0.2095,0.6709,-0.7461,-1.343,0.610,0.183,138.697,11.887,-78.333
10155,-0.2114,0.6729,-0.7427,-0.977,0.366,0.183,138.675,11.882,-78.327
10165,-0.2134,0.6729,-0.7397,-0.671,0.305,-0.061,138.658,11.882,-78.327
10175,-0.2119,0.6699,-0.7368,-0.610,0.488,-0.305,138.647,11.882,-78.322
10185,-0.2139,0.6665,-0.7378,-0.671,0.916,-0.549,138.636,11.882,-78.311
10195,-0.2139,0.6650,-0.7397,-0.732,1.587,-0.793,138.625,11.876,-78.294
10205,-0.2144,0.6611,-0.7456,-0.732,2.197,-1.160,138.620,11.871,-78.272
10215,-0.2114,0.6606,-0.7500,-0.671,2.747,-1.282,138.620,11.860,-78.239
10225,-0.2100,0.6562,-0.7563,-0.488,2.869,-1.221,138.625,11.849,-78.212
10235,-0.2114,0.6538,-0.7603,-0.061,2.625,-1.099,138.636,11.838,-78.184
10245,-0.2080,0.6514,-0.7607,0.244,2.197,-0.854,138.653,11.827,-78.168
10255,-0.2075,0.6504,-0.7642,0.244,1.587,-0.610,138.664,11.816,-78.151
10265,-0.2085,0.6499,-0.7642,0.244,1.099,-0.427,138.680,11.810,-78.140
10275,-0.2056,0.6484,-0.7646,0.061,0.732,-0.305,138.691,11.805,-78.129
10285,-0.2051,0.6494,-0.7632,-0.122,0.549,-0.244,138.702,11.799,-78.124
10295,-0.2056,0.6523,-0.7612,-0.122,0.305,-0.244,138.708,11.794,-78.124
10305,-0.2041,0.6509,-0.7612,0.122,0.122,-0.122,138.719,11.794,-78.118
10315,-0.2031,0.6470,-0.7588,0.427,0.122,0.000,138.730,11.788,-78.118
10325,-0.2021,0.6470,-0.7593,0.549,0.000,0.305,138.741,11.783,-78.124
10335,-0.2012,0.6523,-0.7568,0.610,-0.183,0.732,138.752,11.777,-78.129
10345,-0.2017,0.6577,-0.7598,0.793,-0.488,1.160,138.763,11.766,-78.140
10355,-0.2026,0.6606,-0.7593,1.038,-0.793,1.282,138.768,11.761,-78.157
10365,-0.2046,0.6621,-0.7598,1.099,-1.160,1.282,138.779,11.761,-78.173
10375,-0.2051,0.6665,-0.7563,0.854,-1.465,1.282,138.785,11.761,-78.195
10385,-0.2056,0.6694,-0.7559,0.610,-1.587,1.160,138.779,11.761,-78.212
10395,-0.2065,0.6729,-0.7559,0.061,-1.770,1.038,138.774,11.766,-78.234
10405,-0.2109,0.6768,-0.7549,-0.183,-1.892,0.854,138.763,11.772,-78.250
10415,-0.2109,0.6763,-0.7578,-0.061,-1.953,0.488,138.752,11.783,-78.272
10425,-0.2144,0.6782,-0.7529,0.061,-2.075,0.244,138.741,11.799,-78.283
10435,-0.2134,0.6768,-0.7539,0.366,-2.319,0.061,138.735,11.816,-78.300
10445,-0.2129,0.6758,-0.7529,0.549,-2.747,-0.122,138.730,11.838,-78.322
10455,-0.2139,0.6724,-0.7466,0.366,-3.113,-0.183,138.724,11.865,-78.338
10465,-0.2139,0.6699,-0.7427,-0.061,-3.479,-0.305,138.713,11.898,-78.360
10475,-0.2158,0.6680,-0.7397,-0.366,-3.601,-0.427,138.697,11.931,-78.382
10485,-0.2187,0.6670,-0.7354,-0.610,-3.296,-0.549,138.675,11.964,-78.398
10495,-0.2192,0.6655,-0.7314,-0.732,-2.747,-0.732,138.658,11.992,-78.409
10505,-0.2197,0.6602,-0.7271,-0.793,-2.136,-0.854,138.636,12.019,-78.420
10515,-0.2217,0.6606,-0.7241,-0.732,-1.831,-0.732,138.620,12.047,-78.426
10525,-0.2207,0.6606,-0.7241,-0.610,-1.404,-0.671,138.604,12.068,-78.431
10535,-0.2202,0.6626,-0.7241,-0.366,-0.916,-0.488,138.587,12.085,-78.431
10545,-0.2212,0.6606,-0.7256,0.122,-0.244,-0.427,138.582,12.096,-78.431
10555,-0.2227,0.6597,-0.7266,0.610,0.549,-0.366,138.582,12.096,-78.426
10566,-0.2227,0.6582,-0.7280,0.916,1.221,-0.366,138.582,12.101,-78.415
10575,-0.2227,0.6582,-0.7349,1.038,1.831,-0.427,138.593,12.096,-78.398
10585,-0.2197,0.6587,-0.7412,0.916,2.136,-0.488,138.604,12.085,-78.382
10595,-0.2183,0.6592,-0.7461,0.671,2.319,-0.488,138.615,12.074,-78.360
10605,-0.2153,0.6592,-0.7515,0.671,2.319,-0.549,138.625,12.063,-78.338
10615,-0.2139,0.6621,-0.7573,0.977,2.258,-0.610,138.642,12.047,-78.322
10625,-0.2095,0.6616,-0.7603,1.221,2.075,-0.610,138.658,12.036,-78.300
10635,-0.2085,0.6616,-0.7646,1.282,1.648,-0.610,138.680,12.019,-78.289
10645,-0.2095,0.6582,-0.7637,1.343,1.038,-0.671,138.702,12.014,-78.272
10655,-0.2095,0.6611,-0.7666,1.404,0.549,-0.732,138.724,12.014,-78.267
10665,-0.2090,0.6597,-0.7676,1.465,0.427,-0.610,138.746,12.008,-78.256
10675,-0.2070,0.6611,-0.7656,1.343,0.183,-0.671,138.763,12.008,-78.250
10685,-0.2109,0.6558,-0.7690,1.648,0.244,-1.038,138.790,12.014,-78.239
10695,-0.2114,0.6528,-0.7729,1.465,0.244,-1.221,138.818,12.014,-78.228
10705,-0.2100,0.6489,-0.7671,1.038,-0.061,-1.282,138.840,12.025,-78.223
10715,-0.2100,0.6470,-0.7656,0.732,-0.793,-1.160,138.856,12.036,-78.217
10725,-0.2104,0.6416,-0.7637,0.549,-1.648,-0.977,138.873,12.052,-78.223
10735,-0.2134,0.6392,-0.7588,0.427,-2.136,-0.732,138.884,12.074,-78.228
10745,-0.2153,0.6396,-0.7534,0.305,-2.258,-0.427,138.895,12.096,-78.239
10755,-0.2158,0.6406,-0.7505,0.366,-2.258,-0.061,138.900,12.112,-78.256
10765,-0.2124,0.6372,-0.7466,0.366,-2.075,0.305,138.906,12.129,-78.272
10775,-0.2158,0.6436,-0.7417,0.305,-1.892,0.610,138.906,12.140,-78.289
10785,-0.2163,0.6460,-0.7363,0.427,-1.709,0.916,138.906,12.151,-78.311
10795,-0.2173,0.6455,-0.7363,0.732,-1.404,1.038,138.906,12.156,-78.327
10805,-0.2173,0.6499,-0.7388,1.038,-0.916,1.160,138.911,12.162,-78.338
10815,-0.2178,0.6533,-0.7378,1.343,-0.244,1.282,138.922,12.156,-78.354
10825,-0.2197,0.6548,-0.7397,1.587,0.244,1.465,138.928,12.151,-78.360
10835,-0.2187,0.6533,-0.7388,1.709,0.549,1.465,138.939,12.140,-78.371
10845,-0.2202,0.6562,-0.7427,1.770,0.671,1.404,138.950,12.129,-78.376
10855,-0.2207,0.6553,-0.7451,1.770,0.732,1.404,138.966,12.118,-78.382
10865,-0.2212,0.6592,-0.7480,1.831,0.977,1.343,138.977,12.107,-78.387
10875,-0.2202,0.6616,-0.7510,2.197,1.282,1.221,138.999,12.090,-78.387
10885,-0.2158,0.6675,-0.7544,2.930,1.465,0.977,139.021,12.074,-78.382
10895,-0.2173,0.6714,-0.7578,3.906,1.282,0.793,139.054,12.063,-78.382
10905,-0.2168,0.6631,-0.7578,5.371,1.160,0.671,139.109,12.047,-78.376
10915,-0.2173,0.6602,-0.7603,6.104,0.793,0.549,139.164,12.041,-78.376
10925,-0.2173,0.6572,-0.7603,6.226,0.427,0.366,139.230,12.036,-78.376
10935,-0.2148,0.6514,-0.7568,5.737,0.122,0.244,139.285,12.036,-78.376
10945,-0.2129,0.6533,-0.7559,4.639,0.061,0.061,139.329,12.036,-78.376
10955,-0.2153,0.6499,-0.7559,3.418,0.122,-0.122,139.362,12.036,-78.376
10965,-0.2144,0.6533,-0.7539,1.892,0.183,-0.244,139.378,12.036,-78.376
10975,-0.2168,0.6528,-0.7549,0.671,0.305,-0.366,139.384,12.041,-78.371
10985,-0.2173,0.6514,-0.7549,-0.183,0.244,-0.488,139.384,12.041,-78.365
10995,-0.2153,0.6519,-0.7539,-0.793,0.000,-0.488,139.373,12.047,-78.360
11005,-0.2153,0.6528,-0.7515,-0.916,-0.183,-0.427,139.362,12.052,-78.360
11015,-0.2163,0.6533,-0.7495,-0.427,-0.122,-0.366,139.351,12.057,-78.354
11025,-0.2124,0.6499,-0.7524,0.366,0.305,-0.549,139.356,12.057,-78.349
11035,-0.2124,0.6440,-0.7588,0.916,0.854,-0.610,139.373,12.057,-78.338
11045,-0.2104,0.6421,-0.7588,0.671,1.404,-0.549,139.384,12.052,-78.327
11055,-0.2095,0.6436,-0.7593,0.061,1.343,-0.183,139.389,12.041,-78.316
11066,-0.2104,0.6460,-0.7568,-0.366,0.793,0.061,139.389,12.030,-78.311
11075,-0.2085,0.6509,-0.7612,-0.366,0.061,0.061,139.384,12.030,-78.311
11085,-0.2070,0.6562,-0.7661,0.183,-0.183,0.061,139.389,12.025,-78.311
11095,-0.2070,0.6538,-0.7686,0.916,-0.061,0.183,139.400,12.019,-78.316
11105,-0.2070,0.6489,-0.7686,1.099,0.244,0.244,139.411,12.014,-78.316
11115,-0.2065,0.6460,-0.7686,0.549,0.183,0.244,139.422,12.008,-78.316
11125,-0.2100,0.6445,-0.7676,-0.305,-0.305,0.244,139.427,12.003,-78.322
11135,-0.2104,0.6475,-0.7656,-1.099,-0.977,0.244,139.417,12.008,-78.327
11145,-0.2139,0.6475,-0.7617,-1.282,-1.587,0.244,139.406,12.019,-78.338
11155,-0.2158,0.6470,-0.7593,-0.793,-1.831,0.244,139.395,12.036,-78.354
11165,-0.2129,0.6475,-0.7524,-0.122,-1.831,0.244,139.389,12.047,-78.365
11175,-0.2124,0.6455,-0.7524,0.366,-1.648,0.183,139.389,12.057,-78.382
11185,-0.2129,0.6426,-0.7529,0.610,-1.221,0.183,139.395,12.068,-78.387
11195,-0.2153,0.6411,-0.7544,0.305,-0.671,0.305,139.400,12.074,-78.398
11205,-0.2134,0.6445,-0.7544,-0.183,-0.183,0.366,139.400,12.074,-78.398
11215,-0.2134,0.6470,-0.7544,-0.427,-0.061,0.488,139.395,12.068,-78.404
11225,-0.2119,0.6484,-0.7554,-0.244,-0.244,0.610,139.389,12.068,-78.409
11235,-0.2095,0.6528,-0.7588,0.183,-0.366,0.732,139.389,12.063,-78.420
11245,-0.2075,0.6567,-0.7603,0.488,-0.427,0.793,139.389,12.057,-78.426
11255,-0.2095,0.6553,-0.7598,0.977,-0.488,0.732,139.395,12.052,-78.437
11265,-0.2109,0.6509,-0.7578,1.160,-0.427,0.488,139.406,12.052,-78.442
11275,-0.2139,0.6509,-0.7588,0.854,-0.366,0.366,139.411,12.052,-78.448
11285,-0.2129,0.6519,-0.7588,0.305,-0.183,0.366,139.411,12.052,-78.453
11295,-0.2139,0.6577,-0.7583,0.000,-0.122,0.366,139.411,12.052,-78.459
11305,-0.2119,0.6562,-0.7578,0.061,-0.305,0.183,139.406,12.052,-78.459
11315,-0.2134,0.6558,-0.7612,0.183,-0.671,-0.061,139.406,12.052,-78.464
11325,-0.2144,0.6562,-0.7622,0.305,-1.038,-0.122,139.406,12.063,-78.470
11335,-0.2168,0.6572,-0.7646,0.366,-1.099,-0.122,139.406,12.074,-78.475
11345,-0.2153,0.6538,-0.7578,0.000,-1.038,-0.183,139.406,12.079,-78.481
11355,-0.2158,0.6528,-0.7529,-0.549,-1.099,-0.244,139.395,12.096,-78.486
11365,-0.2197,0.6494,-0.7495,-0.732,-1.160,-0.244,139.384,12.107,-78.492
11375,-0.2202,0.6504,-0.7480,-0.732,-1.099,-0.183,139.367,12.123,-78.497
11385,-0.2173,0.6504,-0.7466,-0.549,-0.916,-0.122,139.362,12.129,-78.503
11395,-0.2158,0.6489,-0.7451,-0.122,-0.671,-0.183,139.351,12.140,-78.508
11405,-0.2163,0.6450,-0.7461,0.244,-0.366,-0.183,139.351,12.145,-78.508
11415,-0.2192,0.6426,-0.7451,0.305,-0.061,-0.061,139.356,12.151,-78.508
11425,-0.2173,0.6465,-0.7437,0.061,0.183,0.122,139.351,12.151,-78.508
11435,-0.2173,0.6519,-0.7397,-0.122,0.244,0.305,139.345,12.151,-78.508
11445,-0.2183,0.6543,-0.7417,0.000,0.366,0.366,139.334,12.151,-78.508
11455,-0.2192,0.6558,-0.7485,0.427,0.610,0.122,139.334,12.145,-78.508
11465,-0.2197,0.6577,-0.7505,0.793,1.038,-0.122,139.340,12.140,-78.497
11475,-0.2158,0.6567,-0.7529,0.793,1.465,-0.183,139.345,12.134,-78.486
11485,-0.2144,0.6543,-0.7524,0.671,1.709,-0.122,139.351,12.118,-78.475
11495,-0.2139,0.6543,-0.7549,0.488,1.709,-0.244,139.356,12.107,-78.464
11505,-0.2148,0.6562,-0.7598,0.305,1.648,-0.305,139.362,12.096,-78.448
11515,-0.2134,0.6558,-0.7617,0.610,1.526,-0.549,139.367,12.090,-78.431
11525,-0.2144,0.6509,-0.7612,0.854,1.282,-0.793,139.378,12.085,-78.420
11535,-0.2163,0.6445,-0.7637,0.916,0.977,-0.793,139.395,12.085,-78.404
11545,-0.2144,0.6411,-0.7671,0.671,0.916,-0.732,139.411,12.079,-78.393
11555,-0.2119,0.6396,-0.7681,0.305,0.732,-0.488,139.427,12.079,-78.387
11566,-0.2095,0.6411,-0.7646,0.061,0.305,-0.244,139.433,12.074,-78.382
11575,-0.2095,0.6411,-0.7646,0.000,-0.183,-0.122,139.438,12.074,-78.382
11585,-0.2114,0.6440,-0.7627,0.061,-0.488,0.061,139.444,12.079,-78.387
11595,-0.2124,0.6436,-0.7627,0.244,-0.488,0.244,139.449,12.079,-78.393
11605,-0.2124,0.6411,-0.7637,0.305,-0.183,0.366,139.455,12.079,-78.393
11615,-0.2124,0.6431,-0.7617,0.244,-0.061,0.488,139.460,12.074,-78.398
11625,-0.2153,0.6465,-0.7612,-0.122,-0.122,0.610,139.460,12.074,-78.404
11635,-0.2139,0.6494,-0.7593,-0.244,-0.244,0.793,139.455,12.068,-78.415
11645,-0.2134,0.6519,-0.7598,-0.061,-0.549,0.916,139.449,12.068,-78.426
11655,-0.2119,0.6504,-0.7583,0.183,-0.793,0.916,139.449,12.063,-78.437
11665,-0.2153,0.6533,-0.7568,0.305,-0.977,0.916,139.449,12.068,-78.448
11675,-0.2173,0.6519,-0.7524,0.305,-1.038,0.854,139.444,12.074,-78.464
11685,-0.2158,0.6538,-0.7510,0.183,-0.977,0.854,139.438,12.074,-78.475
11695,-0.2134,0.6592,-0.7563,-0.061,-0.732,0.671,139.433,12.074,-78.486
11705,-0.2139,0.6631,-0.7568,-0.061,-0.549,0.549,139.422,12.074,-78.492
11715,-0.2158,0.6636,-0.7603,0.244,-0.366,0.366,139.417,12.079,-78.497
11725,-0.2163,0.6611,-0.7588,0.366,-0.305,0.122,139.417,12.079,-78.503
11735,-0.2168,0.6606,-0.7578,0.244,-0.488,-0.122,139.411,12.085,-78.503
11745,-0.2187,0.6567,-0.7573,-0.061,-0.793,-0.366,139.411,12.096,-78.508
11755,-0.2202,0.6523,-0.7568,-0.427,-1.160,-0.488,139.400,12.112,-78.514
11765,-0.2183,0.6528,-0.7554,-0.671,-1.343,-0.488,139.389,12.123,-78.514
11775,-0.2178,0.6519,-0.7515,-0.610,-1.343,-0.366,139.384,12.140,-78.525
11785,-0.2183,0.6475,-0.7476,-0.244,-1.221,-0.244,139.373,12.156,-78.530
11795,-0.2192,0.6416,-0.7461,0.244,-1.099,-0.183,139.373,12.167,-78.536
11805,-0.2212,0.6392,-0.7437,0.488,-0.793,0.061,139.378,12.178,-78.541
11815,-0.2207,0.6416,-0.7427,0.549,-0.305,0.305,139.378,12.184,-78.547
11825,-0.2222,0.6372,-0.7378,0.549,0.244,0.549,139.384,12.184,-78.547
11835,-0.2222,0.6357,-0.7354,0.366,0.732,0.732,139.384,12.184,-78.547
11845,-0.2197,0.6426,-0.7378,0.183,1.221,0.916,139.384,12.173,-78.547
11855,-0.2178,0.6489,-0.7417,0.366,1.526,1.099,139.378,12.156,-78.547
11865,-0.2178,0.6519,-0.7466,0.793,1.831,1.282,139.384,12.134,-78.541
11875,-0.2163,0.6538,-0.7476,1.099,2.197,1.221,139.389,12.112,-78.536
11885,-0.2158,0.6567,-0.7505,1.404,2.380,1.099,139.400,12.090,-78.530
11895,-0.2148,0.6582,-0.7554,1.404,2.502,0.854,139.411,12.063,-78.519
11905,-0.2144,0.6616,-0.7617,1.221,2.563,0.610,139.422,12.041,-78.508
11917,-0.2139,0.6616,-0.7642,0.977,2.502,0.305,139.433,12.019,-78.492
11925,-0.2139,0.6606,-0.7681,0.732,2.197,-0.061,139.438,12.003,-78.481
11935,-0.2148,0.6577,-0.7720,0.549,1.770,-0.366,139.449,11.992,-78.464
11945,-0.2148,0.6567,-0.7725,0.305,1.099,-0.549,139.455,11.986,-78.453
11955,-0.2148,0.6533,-0.7666,0.244,0.610,-0.671,139.460,11.986,-78.442
11965,-0.2148,0.6484,-0.7666,0.183,0.366,-0.732,139.471,11.992,-78.437
11975,-0.2144,0.6470,-0.7666,0.000,0.305,-0.854,139.477,11.992,-78.426
11985,-0.2129,0.6426,-0.7637,0.122,0.366,-0.916,139.482,11.997,-78.415
11995,-0.2129,0.6396,-0.7632,0.244,0.488,-0.854,139.493,11.997,-78.409
12005,-0.2104,0.6396,-0.7612,0.122,0.488,-0.732,139.499,11.997,-78.398
12015,-0.2095,0.6357,-0.7578,0.000,0.244,-0.549,139.504,12.003,-78.393
12025,-0.2075,0.6362,-0.7573,-0.061,-0.061,-0.305,139.510,12.003,-78.393
12035,-0.2095,0.6406,-0.7578,-0.183,-0.183,0.000,139.510,12.003,-78.393
12045,-0.2090,0.6421,-0.7588,-0.061,-0.122,0.305,139.510,12.003,-78.393
12055,-0.2095,0.6406,-0.7627,0.305,0.244,0.549,139.521,11.992,-78.398
12066,-0.2095,0.6431,-0.7642,0.427,0.732,0.793,139.526,11.981,-78.398
12075,-0.2095,0.6460,-0.7642,0.305,0.916,1.038,139.532,11.964,-78.398
12085,-0.2095,0.6475,-0.7661,0.366,0.732,1.160,139.537,11.953,-78.404
12095,-0.2119,0.6475,-0.7637,0.366,0.244,1.160,139.543,11.942,-78.415
12105,-0.2168,0.6519,-0.7627,0.122,-0.244,1.038,139.543,11.942,-78.420
12115,-0.2148,0.6558,-0.7632,-0.122,-0.610,0.916,139.532,11.942,-78.431
12125,-0.2153,0.6558,-0.7612,-0.305,-0.977,0.671,139.526,11.942,-78.448
12135,-0.2163,0.6533,-0.7573,-0.549,-1.099,0.366,139.515,11.953,-78.453
12146,-0.2153,0.6519,-0.7539,-0.854,-1.160,0.061,139.504,11.964,-78.464
12155,-0.2139,0.6484,-0.7515,-0.916,-0.977,0.000,139.488,11.975,-78.470
12165,-0.2144,0.6489,-0.7524,-0.732,-0.671,-0.061,139.477,11.981,-78.475
12175,-0.2168,0.6475,-0.7500,-0.366,-0.122,0.122,139.471,11.986,-78.475
12186,-0.2134,0.6450,-0.7480,0.122,0.366,0.305,139.471,11.981,-78.475
12196,-0.2119,0.6455,-0.7495,0.549,0.610,0.366,139.471,11.975,-78.475
12206,-0.2109,0.6445,-0.7520,0.854,0.793,0.427,139.482,11.970,-78.470
12216,-0.2104,0.6465,-0.7539,0.977,1.038,0.549,139.488,11.959,-78.470
12226,-0.2109,0.6465,-0.7568,0.854,1.282,0.671,139.499,11.942,-78.464
12236,-0.2100,0.6489,-0.7603,0.671,1.526,0.732,139.510,11.926,-78.464
12246,-0.2100,0.6528,-0.7612,0.305,1.404,0.732,139.510,11.909,-78.459
12256,-0.2109,0.6533,-0.7651,0.061,0.977,0.671,139.510,11.898,-78.459
12266,-0.2124,0.6562,-0.7676,-0.122,0.427,0.610,139.510,11.887,-78.459
12276,-0.2109,0.6567,-0.7656,-0.366,-0.122,0.549,139.504,11.887,-78.464
12286,-0.2090,0.6553,-0.7686,-0.366,-0.305,0.366,139.499,11.882,-78.470
12296,-0.2085,0.6543,-0.7686,-0.366,-0.366,0.183,139.493,11.882,-78.475
12306,-0.2056,0.6558,-0.7686,-0.488,-0.427,0.122,139.488,11.882,-78.475
12316,-0.2046,0.6558,-0.7686,-0.549,-0.549,0.061,139.482,11.882,-78.481
12326,-0.2017,0.6558,-0.7681,-0.610,-0.854,0.000,139.477,11.882,-78.486
12336,-0.2031,0.6543,-0.7690,-0.488,-1.099,0.000,139.471,11.887,-78.492
12346,-0.2056,0.6494,-0.7729,-0.061,-1.221,0.000,139.477,11.893,-78.503
12356,-0.2046,0.6465,-0.7764,0.427,-1.160,-0.061,139.482,11.893,-78.508
12366,-0.2046,0.6484,-0.7759,0.610,-1.343,0.061,139.493,11.898,-78.519
12376,-0.2061,0.6494,-0.7783,0.488,-1.892,0.244,139.504,11.909,-78.536
12386,-0.2065,0.6489,-0.7749,0.244,-2.625,0.244,139.510,11.926,-78.552
12396,-0.2114,0.6489,-0.7715,-0.183,-3.357,0.061,139.504,11.948,-78.574
12406,-0.2129,0.6494,-0.7695,-0.671,-3.845,-0.061,139.499,11.975,-78.602
12416,-0.2163,0.6489,-0.7607,-0.977,-4.272,-0.061,139.482,12.014,-78.629
12426,-0.2207,0.6445,-0.7480,-1.343,-4.639,0.000,139.460,12.052,-78.657
12436,-0.2231,0.6401,-0.7402,-1.648,-4.761,0.000,139.433,12.096,-78.690
12446,-0.2241,0.6411,-0.7339,-1.892,-4.395,0.000,139.406,12.140,-78.717
12456,-0.2241,0.6396,-0.7290,-1.709,-3.540,0.244,139.373,12.173,-78.745
12466,-0.2246,0.6392,-0.7266,-1.343,-2.380,0.549,139.351,12.195,-78.766
12476,-0.2207,0.6416,-0.7236,-0.977,-1.526,0.793,139.329,12.206,-78.783
12486,-0.2207,0.6455,-0.7231,-0.671,-0.977,0.977,139.307,12.217,-78.794
12496,-0.2212,0.6489,-0.7275,-0.366,-0.610,1.282,139.290,12.217,-78.810
12506,-0.2236,0.6548,-0.7310,0.122,0.000,1.526,139.279,12.211,-78.821
12516,-0.2256,0.6548,-0.7310,0.549,0.793,1.648,139.268,12.206,-78.827
12526,-0.2241,0.6562,-0.7349,1.160,1.648,1.587,139.268,12.189,-78.832
12536,-0.2227,0.6567,-0.7461,1.587,2.502,1.343,139.279,12.162,-78.821
12546,-0.2192,0.6587,-0.7510,1.343,2.930,1.099,139.290,12.140,-78.810
12556,-0.2197,0.6606,-0.7573,0.793,2.686,0.977,139.296,12.112,-78.805
12566,-0.2178,0.6616,-0.7617,0.244,2.136,0.732,139.301,12.090,-78.794
12576,-0.2158,0.6626,-0.7588,-0.122,1.404,0.488,139.296,12.079,-78.788
12586,-0.2148,0.6650,-0.7578,-0.305,0.916,0.305,139.285,12.068,-78.783
12596,-0.2153,0.6660,-0.7544,-0.061,0.549,0.061,139.279,12.063,-78.783
12606,-0.2134,0.6670,-0.7520,0.183,0.366,-0.183,139.274,12.063,-78.777
12616,-0.2119,0.6646,-0.7471,0.366,0.427,-0.488,139.268,12.063,-78.772
12626,-0.2134,0.6626,-0.7476,0.732,0.793,-0.793,139.268,12.063,-78.761
12636,-0.2148,0.6567,-0.7520,0.854,1.587,-1.160,139.279,12.057,-78.739
12646,-0.2129,0.6528,-0.7515,0.793,2.502,-1.404,139.290,12.047,-78.712
12656,-0.2104,0.6455,-0.7544,0.671,3.174,-1.526,139.307,12.036,-78.679
12666,-0.2080,0.6416,-0.7588,0.732,3.418,-1.526,139.323,12.014,-78.646
12676,-0.2065,0.6367,-0.7622,1.038,3.418,-1.404,139.351,11.997,-78.613
12686,-0.2061,0.6353,-0.7646,1.160,3.052,-0.916,139.378,11.975,-78.585
12696,-0.2046,0.6367,-0.7676,1.526,2.563,-0.427,139.406,11.959,-78.563
12706,-0.2036,0.6338,-0.7695,1.770,2.075,-0.061,139.438,11.937,-78.547
12716,-0.2036,0.6323,-0.7681,1.709,1.709,0.244,139.466,11.920,-78.541
12726,-0.2036,0.6318,-0.7720,1.953,1.770,0.488,139.499,11.898,-78.530
12736,-0.2026,0.6328,-0.7778,2.197,2.197,0.671,139.537,11.871,-78.525
12746,-0.2026,0.6353,-0.7808,2.136,2.441,0.916,139.570,11.843,-78.514
12756,-0.2036,0.6338,-0.7808,2.014,2.197,1.038,139.609,11.816,-78.508
12766,-0.2056,0.6348,-0.7812,1.587,1.221,1.099,139.636,11.799,-78.508
12776,-0.2070,0.6328,-0.7798,0.977,0.000,1.221,139.658,11.788,-78.519
12786,-0.2085,0.6382,-0.7832,0.488,-0.916,1.526,139.669,11.783,-78.536
12796,-0.2075,0.6465,-0.7769,0.000,-1.587,1.892,139.669,11.783,-78.558
12806,-0.2051,0.6519,-0.7739,-0.244,-2.197,2.075,139.664,11.783,-78.591
12816,-0.2061,0.6577,-0.7681,-0.366,-2.625,1.892,139.653,11.788,-78.624
12826,-0.2095,0.6606,-0.7607,-0.549,-3.052,1.587,139.631,11.799,-78.657
12836,-0.2124,0.6626,-0.7607,-0.549,-3.052,1.221,139.614,11.816,-78.684
12846,-0.2129,0.6626,-0.7549,-0.305,-2.441,1.038,139.598,11.827,-78.712
12856,-0.2148,0.6611,-0.7505,-0.061,-1.709,0.793,139.587,11.838,-78.728
12866,-0.2153,0.6602,-0.7441,0.183,-1.160,0.671,139.570,11.849,-78.739
12876,-0.2187,0.6592,-0.7402,0.488,-1.038,0.610,139.559,11.860,-78.750
12886,-0.2192,0.6543,-0.7349,0.793,-1.099,0.488,139.554,11.871,-78.761
12896,-0.2192,0.6543,-0.7324,0.916,-0.793,0.366,139.548,11.882,-78.772
12906,-0.2183,0.6523,-0.7358,1.099,-0.061,0.183,139.548,11.887,-78.772
12916,-0.2178,0.6533,-0.7427,1.221,0.916,0.061,139.554,11.882,-78.766
12926,-0.2148,0.6538,-0.7476,1.099,1.709,0.122,139.559,11.876,-78.755
12936,-0.2158,0.6538,-0.7480,0.916,2.014,0.122,139.565,11.860,-78.745
12946,-0.2153,0.6509,-0.7505,0.793,1.831,0.183,139.570,11.849,-78.734
12956,-0.2139,0.6528,-0.7563,0.854,1.587,0.122,139.576,11.838,-78.723
12966,-0.2144,0.6528,-0.7593,0.854,1.343,0.122,139.581,11.832,-78.717
12976,-0.2139,0.6499,-0.7642,0.671,1.160,0.061,139.592,11.827,-78.706
12986,-0.2109,0.6494,-0.7656,0.305,1.038,0.000,139.598,11.816,-78.701
12996,-0.2114,0.6504,-0.7622,-0.244,0.793,0.000,139.592,11.810,-78.695
13006,-0.2153,0.6475,-0.7598,-0.488,0.610,0.000,139.587,11.810,-78.690
13016,-0.2095,0.6509,-0.7617,-0.732,0.549,0.000,139.581,11.805,-78.690
13026,-0.2065,0.6558,-0.7612,-0.549,0.488,0.061,139.576,11.799,-78.684
13036,-0.2075,0.6548,-0.7627,0.122,0.427,0.061,139.576,11.794,-78.684
13046,-0.2061,0.6567,-0.7642,0.610,0.305,-0.244,139.576,11.794,-78.679
13056,-0.2051,0.6548,-0.7700,0.916,0.366,-0.549,139.587,11.788,-78.673
13066,-0.2075,0.6509,-0.7710,0.854,0.671,-0.793,139.603,11.788,-78.662
13076,-0.2061,0.6455,-0.7700,0.427,0.854,-0.916,139.614,11.788,-78.651
13086,-0.2046,0.6421,-0.7729,-0.061,0.732,-0.977,139.620,11.783,-78.635
13096,-0.2046,0.6426,-0.7744,-0.427,0.366,-0.854,139.625,11.783,-78.629
13106,-0.2065,0.6406,-0.7729,-0.488,-0.183,-0.549,139.631,11.788,-78.624
13116,-0.2061,0.6377,-0.7671,-0.061,-0.610,-0.305,139.636,11.794,-78.629
13126,-0.2104,0.6333,-0.7666,0.305,-0.854,-0.122,139.642,11.799,-78.629
13136,-0.2075,0.6318,-0.7622,0.427,-1.099,0.122,139.653,11.810,-78.640
13146,-0.2095,0.6284,-0.7583,0.488,-1.282,0.427,139.664,11.816,-78.651
13156,-0.2129,0.6284,-0.7549,0.488,-1.343,0.793,139.669,11.827,-78.668
13166,-0.2153,0.6323,-0.7544,0.305,-1.038,1.160,139.675,11.832,-78.684
13176,-0.2139,0.6382,-0.7510,0.244,-0.671,1.526,139.675,11.832,-78.701
13186,-0.2119,0.6436,-0.7495,0.122,-0.488,1.770,139.669,11.827,-78.717
13196,-0.2119,0.6523,-0.7500,0.061,-0.671,1.770,139.658,11.821,-78.734
13206,-0.2134,0.6582,-0.7524,-0.183,-0.854,1.709,139.642,11.821,-78.755
13216,-0.2129,0.6675,-0.7563,-0.366,-0.732,1.526,139.625,11.816,-78.772
13226,-0.2114,0.6724,-0.7588,-0.427,-0.183,1.160,139.609,11.810,-78.777
13236,-0.2090,0.6729,-0.7617,-0.244,0.549,0.732,139.592,11.799,-78.783
13246,-0.2075,0.6694,-0.7617,0.061,0.916,0.183,139.587,11.788,-78.777
13256,-0.2095,0.6670,-0.7622,0.244,0.916,-0.305,139.581,11.783,-78.766
13266,-0.2095,0.6626,-0.7617,0.366,0.610,-0.671,139.581,11.783,-78.761
13276,-0.2100,0.6597,-0.7607,0.549,0.244,-0.916,139.581,11.788,-78.750
13286,-0.2085,0.6538,-0.7607,0.793,-0.122,-1.099,139.592,11.794,-78.745
13296,-0.2109,0.6470,-0.7578,1.160,-0.183,-1.221,139.603,11.805,-78.734
13306,-0.2095,0.6431,-0.7617,1.221,0.061,-1.282,139.620,11.816,-78.723
13316,-0.2090,0.6406,-0.7617,1.038,0.488,-1.160,139.636,11.816,-78.712
13326,-0.2090,0.6377,-0.7598,0.793,0.854,-1.038,139.647,11.821,-78.701
13336,-0.2080,0.6353,-0.7588,0.488,0.854,-0.916,139.664,11.821,-78.684
13346,-0.2104,0.6313,-0.7632,0.122,0.610,-0.732,139.669,11.821,-78.673
13356,-0.2095,0.6313,-0.7646,0.000,0.305,-0.427,139.680,11.821,-78.673
13366,-0.2090,0.6323,-0.7612,-0.122,0.000,-0.061,139.686,11.821,-78.668
13376,-0.2095,0.6348,-0.7637,-0.061,-0.183,0.183,139.691,11.827,-78.673
13386,-0.2095,0.6372,-0.7598,0.183,-0.305,0.427,139.697,11.827,-78.679
13396,-0.2100,0.6382,-0.7549,0.305,-0.427,0.732,139.697,11.827,-78.684
13406,-0.2119,0.6387,-0.7568,0.366,-0.366,0.977,139.697,11.827,-78.695
13416,-0.2129,0.6455,-0.7534,0.183,-0.061,1.038,139.697,11.821,-78.706
13426,-0.2134,0.6504,-0.7524,0.000,0.183,1.099,139.691,11.816,-78.712
13436,-0.2129,0.6548,-0.7563,0.122,0.488,0.977,139.686,11.810,-78.717
13446,-0.2124,0.6597,-0.7598,0.183,0.671,0.793,139.680,11.799,-78.717
13456,-0.2119,0.6587,-0.7622,0.244,0.793,0.549,139.675,11.788,-78.717
13466,-0.2119,0.6577,-0.7627,0.427,0.854,0.366,139.675,11.783,-78.717
13476,-0.2085,0.6548,-0.7656,0.488,0.854,0.183,139.680,11.772,-78.712
13486,-0.2109,0.6538,-0.7666,0.427,0.732,-0.061,139.686,11.766,-78.706
13496,-0.2095,0.6548,-0.7681,0.366,0.427,-0.183,139.686,11.766,-78.701
13506,-0.2065,0.6509,-0.7671,0.488,0.183,-0.427,139.691,11.766,-78.695
13516,-0.2065,0.6504,-0.7661,0.549,0.000,-0.671,139.697,11.766,-78.690
13526,-0.2085,0.6460,-0.7632,0.427,-0.305,-0.793,139.702,11.777,-78.690
13536,-0.2109,0.6450,-0.7573,0.427,-0.488,-0.854,139.708,11.788,-78.684
13546,-0.2114,0.6436,-0.7529,0.427,-0.488,-0.854,139.713,11.799,-78.679
13556,-0.2114,0.6436,-0.7515,0.671,-0.183,-0.793,139.713,11.810,-78.673
13567,-0.2134,0.6401,-0.7476,1.221,0.366,-0.854,139.724,11.816,-78.668
13576,-0.2119,0.6343,-0.7485,1.709,1.038,-0.854,139.746,11.816,-78.651
13586,-0.2109,0.6304,-0.7549,1.892,1.831,-0.671,139.774,11.810,-78.635
13596,-0.2095,0.6279,-0.7544,1.648,2.197,-0.366,139.796,11.799,-78.618
13606,-0.2075,0.6279,-0.7607,1.343,2.319,0.061,139.818,11.783,-78.602
13616,-0.2051,0.6333,-0.7656,1.099,2.197,0.549,139.839,11.761,-78.591
13626,-0.2031,0.6406,-0.7671,0.977,1.831,0.916,139.850,11.739,-78.591
13636,-0.2046,0.6416,-0.7681,1.282,1.465,1.160,139.867,11.717,-78.585
13646,-0.2056,0.6416,-0.7739,1.465,1.221,1.282,139.889,11.700,-78.591
13656,-0.2061,0.6426,-0.7773,1.282,1.404,1.282,139.905,11.678,-78.591
13666,-0.2046,0.6475,-0.7798,0.549,1.465,1.404,139.911,11.656,-78.591
13676,-0.2056,0.6523,-0.7778,-0.305,1.099,1.465,139.911,11.635,-78.596
13686,-0.2080,0.6548,-0.7749,-0.732,0.183,1.282,139.900,11.624,-78.607
13696,-0.2080,0.6597,-0.7744,-1.099,-0.854,1.038,139.883,11.624,-78.618
13706,-0.2090,0.6646,-0.7710,-1.099,-1.648,0.854,139.861,11.629,-78.635
13716,-0.2070,0.6636,-0.7676,-0.854,-2.014,0.549,139.845,11.640,-78.651
13726,-0.2075,0.6621,-0.7676,-0.671,-1.892,0.061,139.828,11.656,-78.668
13736,-0.2065,0.6597,-0.7656,-0.854,-1.526,-0.488,139.812,11.667,-78.673
13746,-0.2056,0.6558,-0.7651,-1.099,-1.099,-0.854,139.796,11.678,-78.673
13756,-0.2051,0.6519,-0.7612,-1.160,-0.916,-1.038,139.785,11.695,-78.673
13766,-0.2041,0.6475,-0.7617,-1.038,-0.977,-1.099,139.774,11.706,-78.668
13776,-0.2036,0.6450,-0.7578,-0.549,-1.038,-1.038,139.763,11.717,-78.668
13786,-0.2056,0.6401,-0.7559,0.061,-1.099,-0.977,139.763,11.733,-78.668
13796,-0.2080,0.6362,-0.7559,0.488,-0.916,-0.793,139.774,11.750,-78.668
13806,-0.2080,0.6338,-0.7559,0.671,-0.610,-0.488,139.779,11.755,-78.668
13816,-0.2100,0.6313,-0.7568,0.671,-0.122,-0.305,139.790,11.761,-78.668
13826,-0.2100,0.6270,-0.7627,0.366,0.427,-0.183,139.801,11.761,-78.662
13836,-0.2109,0.6260,-0.7642,0.000,0.610,0.183,139.812,11.761,-78.657
13846,-0.2109,0.6284,-0.7627,-0.183,0.366,0.610,139.818,11.755,-78.662
13856,-0.2104,0.6309,-0.7642,-0.305,-0.244,1.099,139.818,11.755,-78.673
13866,-0.2095,0.6353,-0.7622,-0.305,-0.854,1.465,139.818,11.750,-78.690
13876,-0.2090,0.6426,-0.7593,-0.061,-1.160,1.648,139.812,11.750,-78.712
13886,-0.2090,0.6445,-0.7554,0.244,-1.038,1.770,139.807,11.750,-78.728
13896,-0.2090,0.6470,-0.7549,0.305,-0.610,1.770,139.801,11.744,-78.750
13906,-0.2090,0.6509,-0.7573,0.000,0.061,1.709,139.796,11.733,-78.761
13918,-0.2061,0.6577,-0.7568,-0.610,0.427,1.709,139.779,11.717,-78.772
13926,-0.2061,0.6621,-0.7588,-0.793,0.549,1.526,139.757,11.700,-78.777
13936,-0.2090,0.6621,-0.7607,-0.610,0.427,1.160,139.746,11.689,-78.783
13946,-0.2100,0.6631,-0.7593,-0.305,0.183,0.793,139.730,11.684,-78.788
13956,-0.2100,0.6611,-0.7588,0.244,0.183,0.488,139.724,11.684,-78.794
13966,-0.2090,0.6602,-0.7632,0.427,0.244,0.244,139.724,11.678,-78.794
13976,-0.2104,0.6562,-0.7603,0.305,0.366,-0.061,139.724,11.678,-78.788
13986,-0.2085,0.6528,-0.7617,-0.122,0.549,-0.366,139.719,11.678,-78.783
13996,-0.2070,0.6543,-0.7622,-0.488,0.549,-0.549,139.713,11.678,-78.777
14006,-0.2056,0.6538,-0.7661,-0.488,0.610,-0.610,139.708,11.673,-78.766
14016,-0.2046,0.6504,-0.7690,0.000,0.793,-0.793,139.708,11.673,-78.755
14026,-0.2056,0.6455,-0.7686,0.549,0.854,-0.916,139.719,11.667,-78.745
14036,-0.2090,0.6372,-0.7661,0.610,0.549,-0.854,139.735,11.673,-78.734
14046,-0.2085,0.6348,-0.7617,0.366,0.000,-0.732,139.741,11.678,-78.728
14056,-0.2090,0.6343,-0.7612,-0.122,-0.671,-0.610,139.746,11.689,-78.728
14067,-0.2090,0.6372,-0.7632,-0.549,-0.977,-0.427,139.746,11.700,-78.728
14076,-0.2100,0.6396,-0.7583,-0.427,-0.732,-0.183,139.741,11.711,-78.734
14086,-0.2095,0.6367,-0.7568,0.000,-0.244,0.061,139.741,11.717,-78.734
14096,-0.2080,0.6401,-0.7559,0.488,0.061,0.305,139.746,11.717,-78.739
14106,-0.2065,0.6426,-0.7529,0.671,0.000,0.488,139.752,11.711,-78.739
14116,-0.2065,0.6470,-0.7520,0.671,-0.244,0.610,139.752,11.711,-78.750
14126,-0.2114,0.6509,-0.7505,0.732,-0.305,0.549,139.752,11.711,-78.755
14136,-0.2144,0.6489,-0.7573,0.977,0.244,0.305,139.757,11.711,-78.755
14146,-0.2129,0.6504,-0.7612,0.977,1.038,0.122,139.763,11.706,-78.750
14156,-0.2104,0.6494,-0.7632,0.977,1.587,0.000,139.774,11.695,-78.739
14166,-0.2109,0.6455,-0.7646,0.916,1.648,-0.061,139.785,11.689,-78.728
14176,-0.2090,0.6421,-0.7681,0.671,1.282,-0.122,139.796,11.678,-78.717
14186,-0.2085,0.6426,-0.7681,0.183,0.671,-0.183,139.801,11.678,-78.712
14196,-0.2100,0.6426,-0.7690,0.000,0.122,-0.122,139.807,11.678,-78.712
14206,-0.2080,0.6416,-0.7695,0.000,-0.061,-0.061,139.812,11.678,-78.712
14216,-0.2080,0.6416,-0.7710,0.000,0.183,-0.122,139.818,11.678,-78.706
14226,-0.2070,0.6426,-0.7686,0.000,0.305,0.000,139.818,11.678,-78.706
14236,-0.2061,0.6396,-0.7666,0.122,0.183,0.061,139.823,11.673,-78.706
14246,-0.2061,0.6377,-0.7651,0.061,-0.061,0.061,139.828,11.673,-78.706
14256,-0.2056,0.6377,-0.7656,-0.061,-0.244,0.122,139.828,11.673,-78.706
14266,-0.2041,0.6396,-0.7671,-0.122,-0.305,0.183,139.834,11.673,-78.712
14276,-0.2070,0.6406,-0.7666,-0.061,-0.244,0.305,139.834,11.673,-78.717
14286,-0.2056,0.6411,-0.7622,0.061,-0.305,0.427,139.834,11.673,-78.723
14296,-0.2041,0.6450,-0.7612,0.122,-0.549,0.488,139.834,11.673,-78.728
14306,-0.2061,0.6460,-0.7593,0.244,-0.732,0.549,139.828,11.678,-78.739
14316,-0.2051,0.6465,-0.7617,0.427,-0.610,0.671,139.828,11.678,-78.745
14326,-0.2056,0.6470,-0.7603,0.549,-0.122,0.610,139.834,11.673,-78.750
14336,-0.2051,0.6455,-0.7617,0.732,0.183,0.549,139.839,11.667,-78.755
14346,-0.2065,0.6445,-0.7622,0.793,0.366,0.488,139.845,11.662,-78.755
14356,-0.2070,0.6455,-0.7651,0.732,0.427,0.549,139.850,11.656,-78.761
14366,-0.2056,0.6494,-0.7632,0.366,0.183,0.732,139.850,11.651,-78.761
14376,-0.2095,0.6494,-0.7661,0.244,-0.183,0.732,139.850,11.646,-78.772
14386,-0.2095,0.6499,-0.7637,0.427,-0.610,0.549,139.850,11.651,-78.777
14396,-0.2095,0.6519,-0.7646,0.427,-0.732,0.366,139.850,11.656,-78.788
14406,-0.2100,0.6523,-0.7627,0.366,-0.732,0.305,139.850,11.656,-78.794
14416,-0.2080,0.6519,-0.7617,0.244,-0.732,0.183,139.845,11.662,-78.799
14426,-0.2090,0.6523,-0.7622,0.061,-0.610,0.000,139.845,11.667,-78.805
14436,-0.2080,0.6533,-0.7642,-0.183,-0.488,-0.183,139.839,11.673,-78.805
14446,-0.2075,0.6523,-0.7627,-0.244,-0.427,-0.305,139.828,11.678,-78.805
14456,-0.2070,0.6484,-0.7627,-0.122,-0.549,-0.366,139.828,11.689,-78.805
14466,-0.2075,0.6479,-0.7607,-0.183,-0.671,-0.488,139.823,11.695,-78.805
14476,-0.2080,0.6484,-0.7612,-0.183,-0.732,-0.549,139.818,11.706,-78.805
14486,-0.2095,0.6450,-0.7598,-0.305,-0.671,-0.488,139.812,11.717,-78.810
14496,-0.2104,0.6436,-0.7559,-0.488,-0.610,-0.427,139.807,11.722,-78.810
14506,-0.2114,0.6382,-0.7529,-0.488,-0.549,-0.427,139.801,11.733,-78.810
14516,-0.2109,0.6382,-0.7549,-0.610,-0.549,-0.366,139.796,11.744,-78.810
14526,-0.2100,0.6387,-0.7559,-0.305,-0.427,-0.183,139.790,11.750,-78.810
14536,-0.2070,0.6367,-0.7578,0.244,0.122,-0.061,139.796,11.750,-78.810
14546,-0.2070,0.6362,-0.7622,0.610,0.671,0.061,139.807,11.744,-78.805
14556,-0.2065,0.6348,-0.7642,0.732,0.854,0.183,139.818,11.739,-78.799
14567,-0.2085,0.6387,-0.7646,0.427,0.671,0.305,139.828,11.733,-78.799
14576,-0.2090,0.6421,-0.7651,-0.244,0.366,0.427,139.823,11.728,-78.799
14586,-0.2061,0.6479,-0.7700,-0.427,0.122,0.549,139.823,11.722,-78.805
14596,-0.2061,0.6509,-0.7686,-0.183,0.122,0.427,139.818,11.717,-78.805
14606,-0.2026,0.6528,-0.7720,0.183,0.122,0.244,139.818,11.711,-78.805
14616,-0.2046,0.6528,-0.7686,0.305,0.061,0.061,139.823,11.706,-78.810
14626,-0.2046,0.6519,-0.7690,0.122,-0.183,-0.061,139.823,11.706,-78.810
14636,-0.2061,0.6519,-0.7676,-0.305,-0.549,-0.244,139.818,11.711,-78.810
14646,-0.2061,0.6523,-0.7627,-0.610,-0.854,-0.427,139.807,11.717,-78.810
14656,-0.2095,0.6489,-0.7622,-0.610,-1.099,-0.610,139.796,11.733,-78.816
14666,-0.2109,0.6465,-0.7578,-0.305,-1.099,-0.671,139.790,11.744,-78.816
14676,-0.2104,0.6470,-0.7573,-0.122,-0.977,-0.671,139.785,11.761,-78.816
14686,-0.2085,0.6450,-0.7568,-0.061,-0.732,-0.610,139.785,11.772,-78.816
14696,-0.2061,0.6455,-0.7563,0.000,-0.427,-0.488,139.779,11.777,-78.816
14706,-0.2061,0.6436,-0.7578,0.244,-0.122,-0.427,139.785,11.777,-78.816
14716,-0.2056,0.6421,-0.7588,0.549,0.305,-0.427,139.790,11.777,-78.810
14726,-0.2065,0.6431,-0.7598,0.732,0.488,-0.305,139.796,11.777,-78.805
14736,-0.2065,0.6421,-0.7617,0.916,0.305,-0.183,139.807,11.777,-78.799
14746,-0.2075,0.6401,-0.7598,0.977,0.183,-0.122,139.818,11.772,-78.799
14756,-0.2085,0.6392,-0.7622,0.671,0.061,0.061,139.828,11.772,-78.799
14766,-0.2124,0.6431,-0.7612,0.366,0.000,0.122,139.828,11.777,-78.799
14776,-0.2114,0.6436,-0.7612,0.366,0.061,0.183,139.834,11.777,-78.799
14786,-0.2109,0.6460,-0.7627,0.549,0.305,0.122,139.839,11.777,-78.799
14796,-0.2119,0.6455,-0.7676,0.793,0.427,0.122,139.845,11.772,-78.799
14806,-0.2104,0.6440,-0.7681,0.793,0.427,0.061,139.856,11.772,-78.794
14816,-0.2109,0.6440,-0.7656,0.488,0.122,0.000,139.861,11.772,-78.794
14826,-0.2114,0.6421,-0.7700,0.061,-0.366,0.000,139.867,11.772,-78.794
14836,-0.2134,0.6426,-0.7642,-0.427,-0.793,-0.061,139.861,11.783,-78.799
14846,-0.2144,0.6450,-0.7622,-0.793,-0.916,0.000,139.850,11.794,-78.805
14856,-0.2124,0.6475,-0.7583,-0.793,-0.854,-0.061,139.839,11.805,-78.810
14866,-0.2100,0.6494,-0.7568,-0.549,-0.732,-0.122,139.828,11.810,-78.816
14876,-0.2109,0.6475,-0.7568,-0.427,-0.793,-0.183,139.818,11.821,-78.821
14886,-0.2114,0.6455,-0.7520,-0.427,-0.793,-0.183,139.812,11.827,-78.821
14896,-0.2129,0.6440,-0.7500,-0.427,-0.549,-0.122,139.801,11.838,-78.827
14906,-0.2124,0.6426,-0.7515,-0.305,-0.122,-0.061,139.796,11.838,-78.827
14916,-0.2114,0.6445,-0.7544,-0.305,0.427,0.000,139.790,11.838,-78.821
14926,-0.2119,0.6465,-0.7544,-0.305,0.732,0.122,139.785,11.832,-78.821
14936,-0.2109,0.6479,-0.7554,-0.366,0.671,0.122,139.774,11.832,-78.821
14946,-0.2104,0.6514,-0.7588,-0.427,0.549,0.000,139.768,11.827,-78.821
14956,-0.2104,0.6489,-0.7627,-0.305,0.549,-0.183,139.763,11.827,-78.821
14966,-0.2104,0.6484,-0.7651,0.000,0.732,-0.305,139.763,11.821,-78.821
14976,-0.2080,0.6450,-0.7651,0.122,0.977,-0.488,139.768,11.816,-78.821
14986,-0.2114,0.6440,-0.7642,0.183,1.038,-0.610,139.774,11.816,-78.821
14996,-0.2114,0.6431,-0.7646,0.061,0.793,-0.549,139.779,11.810,-78.821
15006,-0.2119,0.6431,-0.7651,0.122,0.427,-0.549,139.785,11.816,-78.821
15016,-0.2114,0.6426,-0.7661,0.183,0.122,-0.610,139.790,11.816,-78.821
15026,-0.2109,0.6421,-0.7637,0.244,0.061,-0.610,139.796,11.821,-78.821
15036,-0.2085,0.6392,-0.7637,0.244,0.061,-0.549,139.801,11.827,-78.821
15046,-0.2080,0.6377,-0.7642,0.244,0.305,-0.488,139.807,11.827,-78.821
15056,-0.2056,0.6392,-0.7681,0.061,0.610,-0.427,139.812,11.821,-78.821
15067,-0.2051,0.6396,-0.7671,0.000,0.854,-0.366,139.818,11.816,-78.821
15076,-0.2080,0.6387,-0.7651,0.061,0.854,-0.183,139.823,11.810,-78.821
15086,-0.2100,0.6372,-0.7622,0.366,0.671,-0.122,139.828,11.805,-78.821
15096,-0.2100,0.6377,-0.7642,0.427,0.488,0.061,139.839,11.805,-78.821
15106,-0.2090,0.6426,-0.7651,0.244,0.366,0.366,139.845,11.799,-78.821
15116,-0.2075,0.6450,-0.7686,0.061,0.305,0.549,139.845,11.794,-78.821
15126,-0.2100,0.6484,-0.7710,-0.305,0.183,0.488,139.839,11.788,-78.821
15136,-0.2134,0.6533,-0.7700,-0.671,0.000,0.305,139.834,11.788,-78.821
15146,-0.2104,0.6558,-0.7710,-0.366,0.000,0.061,139.828,11.788,-78.821
15156,-0.2104,0.6499,-0.7715,-0.061,-0.122,-0.061,139.828,11.788,-78.821
15166,-0.2119,0.6440,-0.7686,-0.732,-1.038,-0.427,139.823,11.799,-78.821
15176,-0.2114,0.6489,-0.7622,-1.465,-1.587,-0.366,139.801,11.816,-78.821
15186,-0.2104,0.6504,-0.7588,-1.770,-1.709,-0.366,139.779,11.832,-78.821
15196,-0.2129,0.6514,-0.7598,-1.526,-1.526,-0.549,139.757,11.849,-78.821
15206,-0.2124,0.6475,-0.7554,-1.099,-1.038,-0.793,139.746,11.865,-78.821
15216,-0.2119,0.6421,-0.7529,-0.671,-0.610,-0.854,139.735,11.876,-78.821
15226,-0.2104,0.6392,-0.7559,-0.671,-0.366,-0.854,139.730,11.887,-78.821
15236,-0.2104,0.6401,-0.7563,-0.854,-0.183,-0.732,139.724,11.893,-78.821
15246,-0.2109,0.6411,-0.7544,-1.038,-0.122,-0.610,139.713,11.898,-78.821
15256,-0.2119,0.6416,-0.7563,-0.793,-0.061,-0.488,139.708,11.904,-78.821
15266,-0.2114,0.6406,-0.7559,-0.305,0.122,-0.427,139.702,11.909,-78.821
15276,-0.2134,0.6392,-0.7583,0.122,0.366,-0.366,139.708,11.909,-78.821
15286,-0.2104,0.6411,-0.7603,0.305,0.671,-0.244,139.713,11.904,-78.821
15296,-0.2095,0.6411,-0.7607,0.244,0.854,0.000,139.719,11.898,-78.821
15306,-0.2056,0.6387,-0.7612,0.244,0.916,0.122,139.724,11.887,-78.821
15316,-0.2056,0.6392,-0.7666,0.244,0.854,0.122,139.735,11.882,-78.821
15326,-0.2056,0.6392,-0.7646,0.244,0.854,0.183,139.741,11.871,-78.821
15336,-0.2065,0.6401,-0.7661,0.122,0.793,0.305,139.746,11.860,-78.821
15346,-0.2046,0.6411,-0.7666,-0.122,0.610,0.427,139.746,11.849,-78.821
15356,-0.2036,0.6426,-0.7676,-0.366,0.305,0.549,139.746,11.838,-78.821
15366,-0.2041,0.6431,-0.7666,-0.488,0.183,0.549,139.746,11.832,-78.821
15376,-0.2051,0.6436,-0.7637,-0.305,0.244,0.549,139.741,11.827,-78.821
15386,-0.2036,0.6431,-0.7666,0.122,0.610,0.671,139.746,11.810,-78.821
15396,-0.2017,0.6416,-0.7734,0.671,1.038,0.671,139.757,11.794,-78.821
15406,-0.2051,0.6421,-0.7803,0.977,1.099,0.549,139.779,11.783,-78.821
15416,-0.2051,0.6440,-0.7803,0.977,0.732,0.549,139.796,11.766,-78.821
15426,-0.2031,0.6494,-0.7812,0.488,-0.122,0.671,139.801,11.761,-78.821
15436,-0.2051,0.6519,-0.7803,0.183,-0.977,0.732,139.807,11.761,-78.821
15446,-0.2070,0.6519,-0.7764,0.061,-1.648,0.488,139.801,11.766,-78.821
15456,-0.2114,0.6504,-0.7729,-0.244,-1.892,0.183,139.801,11.783,-78.821
15466,-0.2134,0.6484,-0.7681,-0.549,-1.892,0.000,139.790,11.799,-78.821
15476,-0.2144,0.6440,-0.7563,-0.977,-1.953,-0.122,139.779,11.816,-78.821
15486,-0.2144,0.6431,-0.7544,-1.343,-2.014,-0.183,139.757,11.838,-78.821
15496,-0.2163,0.6436,-0.7485,-1.343,-1.892,-0.122,139.741,11.854,-78.821
15506,-0.2163,0.6440,-0.7441,-0.854,-1.587,0.061,139.724,11.876,-78.821
15517,-0.2148,0.6431,-0.7422,0.061,-1.099,0.244,139.713,11.887,-78.821
15527,-0.2153,0.6396,-0.7427,0.793,-0.610,0.427,139.719,11.893,-78.821
15537,-0.2148,0.6392,-0.7437,0.977,-0.183,0.488,139.719,11.893,-78.821
15547,-0.2153,0.6406,-0.7461,0.916,0.244,0.610,139.724,11.893,-78.821
15557,-0.2158,0.6436,-0.7495,0.671,0.793,0.732,139.730,11.887,-78.821
15567,-0.2158,0.6470,-0.7534,0.488,1.282,0.793,139.730,11.876,-78.821
15576,-0.2153,0.6484,-0.7563,0.549,1.709,0.793,139.735,11.860,-78.821
15587,-0.2163,0.6504,-0.7578,0.488,1.770,0.732,139.735,11.849,-78.821
15597,-0.2148,0.6548,-0.7622,0.244,1.526,0.732,139.735,11.832,-78.821
15607,-0.2139,0.6567,-0.7612,0.061,1.038,0.732,139.730,11.821,-78.821
15617,-0.2153,0.6553,-0.7646,-0.061,0.610,0.549,139.724,11.816,-78.821
15627,-0.2153,0.6572,-0.7656,-0.183,0.488,0.305,139.719,11.816,-78.821
15636,-0.2114,0.6577,-0.7666,-0.244,0.610,0.000,139.719,11.810,-78.821
15647,-0.2100,0.6553,-0.7681,-0.427,0.671,-0.305,139.713,11.805,-78.821
15657,-0.2075,0.6548,-0.7661,-0.671,0.549,-0.610,139.702,11.805,-78.821
15667,-0.2085,0.6538,-0.7651,-0.916,0.244,-0.854,139.697,11.805,-78.821
15677,-0.2104,0.6528,-0.7666,-0.916,-0.061,-0.916,139.686,11.810,-78.821
15687,-0.2090,0.6504,-0.7676,-0.671,-0.122,-0.977,139.680,11.816,-78.821
15697,-0.2070,0.6455,-0.7656,-0.488,0.000,-0.977,139.680,11.821,-78.821
15707,-0.2070,0.6416,-0.7646,-0.427,0.000,-1.038,139.680,11.827,-78.810
15717,-0.2065,0.6377,-0.7646,-0.610,-0.244,-0.977,139.680,11.838,-78.805
15727,-0.2065,0.6382,-0.7622,-0.793,-0.488,-0.916,139.675,11.843,-78.805
15737,-0.2095,0.6357,-0.7622,-0.793,-0.671,-0.793,139.675,11.854,-78.799
15747,-0.2085,0.6318,-0.7598,-0.671,-0.671,-0.671,139.675,11.865,-78.799
15757,-0.2051,0.6328,-0.7598,-0.488,-0.366,-0.427,139.675,11.871,-78.799
15767,-0.2061,0.6338,-0.7612,-0.244,0.000,-0.061,139.675,11.871,-78.799
15777,-0.2041,0.6323,-0.7612,0.000,0.305,0.305,139.686,11.860,-78.799
15787,-0.2041,0.6328,-0.7661,0.244,0.549,0.488,139.691,11.854,-78.799
15797,-0.2021,0.6357,-0.7710,0.427,0.549,0.671,139.702,11.838,-78.799
15807,-0.2017,0.6377,-0.7754,0.549,0.427,0.916,139.719,11.827,-78.805
15817,-0.2007,0.6377,-0.7788,0.488,0.000,1.160,139.730,11.810,-78.816
15827,-0.2017,0.6392,-0.7783,0.183,-0.488,1.282,139.741,11.805,-78.827
15837,-0.2041,0.6421,-0.7729,-0.183,-1.038,1.343,139.741,11.799,-78.843
15847,-0.2056,0.6445,-0.7715,-0.488,-1.404,1.404,139.735,11.799,-78.865
15857,-0.2075,0.6489,-0.7661,-0.549,-1.526,1.404,139.724,11.799,-78.887
15867,-0.2085,0.6514,-0.7676,-0.488,-1.648,1.282,139.713,11.805,-78.904
15877,-0.2095,0.6484,-0.7637,-0.244,-1.709,1.099,139.708,11.810,-78.926
15887,-0.2134,0.6460,-0.7622,-0.122,-1.770,1.038,139.702,11.816,-78.948
15897,-0.2134,0.6470,-0.7588,-0.183,-1.770,1.038,139.697,11.827,-78.964
15907,-0.2134,0.6470,-0.7563,-0.305,-1.770,1.099,139.686,11.838,-78.986
15919,-0.2134,0.6504,-0.7524,-0.183,-1.709,1.099,139.675,11.843,-79.008
15927,-0.2163,0.6479,-0.7505,0.000,-1.587,0.977,139.664,11.854,-79.025
15937,-0.2158,0.6509,-0.7510,0.061,-1.282,0.916,139.658,11.865,-79.041
15947,-0.2129,0.6543,-0.7466,0.000,-0.916,1.038,139.647,11.865,-79.052
15957,-0.2139,0.6543,-0.7461,0.122,-0.793,0.977,139.636,11.871,-79.069
15967,-0.2139,0.6543,-0.7476,0.305,-0.610,0.793,139.625,11.871,-79.080
15977,-0.2124,0.6587,-0.7495,0.366,-0.366,0.427,139.620,11.871,-79.085
15987,-0.2114,0.6592,-0.7505,0.488,0.244,0.244,139.614,11.871,-79.085
15997,-0.2104,0.6567,-0.7520,0.488,0.793,0.122,139.614,11.865,-79.080
16007,-0.2119,0.6523,-0.7520,0.366,1.099,-0.122,139.614,11.860,-79.069
16017,-0.2119,0.6523,-0.7539,0.305,1.099,-0.366,139.614,11.854,-79.058
16027,-0.2129,0.6528,-0.7568,0.305,1.160,-0.366,139.614,11.849,-79.052
16037,-0.2129,0.6494,-0.7593,0.488,1.282,-0.427,139.620,11.843,-79.036
16047,-0.2109,0.6450,-0.7603,0.793,1.465,-0.488,139.631,11.838,-79.025
16057,-0.2080,0.6440,-0.7671,1.038,1.404,-0.488,139.647,11.827,-79.014
16067,-0.2061,0.6411,-0.7710,1.160,1.099,-0.488,139.669,11.821,-79.003
16077,-0.2075,0.6338,-0.7700,1.099,0.854,-0.366,139.691,11.816,-78.992
16087,-0.2061,0.6343,-0.7700,0.732,0.793,-0.061,139.708,11.810,-78.986
16097,-0.2046,0.6401,-0.7695,0.122,0.671,0.244,139.713,11.799,-78.986
16107,-0.2056,0.6440,-0.7700,0.061,0.427,0.366,139.719,11.794,-78.986
16117,-0.2061,0.6465,-0.7690,0.122,0.061,0.305,139.719,11.788,-78.986
16127,-0.2095,0.6479,-0.7710,0.000,-0.305,0.183,139.724,11.788,-78.992
16137,-0.2139,0.6494,-0.7700,-0.244,-0.488,0.061,139.719,11.794,-78.992
16147,-0.2148,0.6519,-0.7671,-0.671,-0.732,0.000,139.713,11.799,-78.997
16157,-0.2148,0.6509,-0.7617,-0.977,-0.916,-0.244,139.702,11.810,-79.003
16167,-0.2148,0.6533,-0.7607,-1.160,-1.099,-0.549,139.686,11.827,-79.003
16177,-0.2148,0.6543,-0.7598,-1.160,-1.160,-0.793,139.669,11.843,-79.008
16187,-0.2144,0.6514,-0.7583,-0.916,-1.038,-0.793,139.658,11.860,-79.008
16197,-0.2114,0.6465,-0.7539,-0.488,-0.916,-0.916,139.647,11.876,-79.008
16207,-0.2104,0.6426,-0.7549,-0.122,-0.610,-1.099,139.647,11.887,-79.003
16217,-0.2104,0.6416,-0.7563,0.183,-0.305,-1.099,139.653,11.898,-78.997
16227,-0.2109,0.6377,-0.7568,0.305,0.122,-0.916,139.658,11.904,-78.986
16237,-0.2109,0.6313,-0.7563,0.427,0.488,-0.732,139.669,11.904,-78.975
16247,-0.2109,0.6274,-0.7573,0.366,0.732,-0.610,139.680,11.904,-78.970
16257,-0.2104,0.6279,-0.7617,0.427,0.793,-0.305,139.697,11.904,-78.959
16267,-0.2104,0.6289,-0.7607,0.610,0.916,0.061,139.708,11.898,-78.953
16277,-0.2090,0.6279,-0.7632,0.732,0.916,0.488,139.724,11.887,-78.953
16287,-0.2095,0.6284,-0.7627,0.671,0.854,0.732,139.741,11.876,-78.953
16297,-0.2090,0.6377,-0.7632,0.305,0.488,0.977,139.746,11.865,-78.959
16307,-0.2109,0.6460,-0.7622,0.061,0.000,1.160,139.746,11.860,-78.964
16317,-0.2134,0.6479,-0.7617,0.000,-0.244,1.221,139.741,11.854,-78.975
16327,-0.2104,0.6519,-0.7617,-0.183,-0.244,1.099,139.735,11.849,-78.986
16337,-0.2134,0.6533,-0.7607,0.000,0.061,0.854,139.730,11.849,-78.992
16347,-0.2139,0.6509,-0.7598,0.183,0.427,0.610,139.730,11.843,-78.997
16357,-0.2139,0.6523,-0.7593,0.000,0.671,0.366,139.724,11.838,-78.992
16367,-0.2129,0.6533,-0.7588,-0.305,0.610,0.244,139.719,11.832,-78.992
16377,-0.2124,0.6538,-0.7598,-0.427,0.366,0.244,139.708,11.827,-78.992
16387,-0.2114,0.6548,-0.7627,-0.366,0.305,0.183,139.702,11.827,-78.992
16397,-0.2104,0.6582,-0.7612,-0.122,0.183,0.122,139.697,11.827,-78.992
16407,-0.2129,0.6553,-0.7598,0.061,0.122,0.000,139.691,11.827,-78.992
16417,-0.2075,0.6519,-0.7607,0.000,0.122,-0.183,139.686,11.821,-78.986
16427,-0.2056,0.6519,-0.7607,-0.610,0.183,-0.366,139.680,11.821,-78.986
16437,-0.2061,0.6523,-0.7617,-0.977,0.305,-0.549,139.669,11.821,-78.975
16447,-0.2080,0.6499,-0.7612,-0.916,0.671,-0.793,139.658,11.821,-78.964
16457,-0.2080,0.6499,-0.7671,-0.488,1.099,-0.977,139.658,11.816,-78.953
16467,-0.2085,0.6455,-0.7695,-0.061,1.404,-1.099,139.664,11.810,-78.931
16477,-0.2070,0.6421,-0.7739,0.183,1.343,-0.977,139.675,11.805,-78.915
16487,-0.2051,0.6392,-0.7725,0.122,0.916,-0.793,139.686,11.805,-78.904
16497,-0.2046,0.6377,-0.7754,-0.305,0.305,-0.671,139.697,11.805,-78.898
16507,-0.2070,0.6392,-0.7749,-0.610,-0.122,-0.610,139.697,11.805,-78.893
16517,-0.2051,0.6372,-0.7720,-0.854,-0.305,-0.488,139.697,11.810,-78.893
16527,-0.2046,0.6372,-0.7695,-0.854,-0.427,-0.366,139.697,11.810,-78.893
16537,-0.2046,0.6367,-0.7671,-0.671,-0.671,-0.305,139.697,11.816,-78.893
16547,-0.2070,0.6348,-0.7642,-0.427,-1.099,-0.183,139.697,11.827,-78.898
16557,-0.2090,0.6343,-0.7651,-0.122,-1.282,0.000,139.697,11.838,-78.909
16568,-0.2104,0.6328,-0.7607,-0.061,-1.282,0.122,139.702,11.849,-78.920
16577,-0.2139,0.6343,-0.7593,-0.122,-1.038,0.366,139.702,11.854,-78.926
16587,-0.2134,0.6382,-0.7612,-0.427,-0.793,0.610,139.702,11.860,-78.937
16597,-0.2129,0.6436,-0.7578,-0.793,-0.549,0.793,139.691,11.860,-78.948
16607,-0.2129,0.6504,-0.7578,-0.977,-0.549,0.854,139.675,11.860,-78.959
16617,-0.2109,0.6543,-0.7563,-0.793,-0.549,0.793,139.658,11.860,-78.970
16627,-0.2119,0.6572,-0.7578,-0.244,-0.549,0.610,139.647,11.865,-78.975
16637,-0.2129,0.6538,-0.7588,0.244,-0.366,0.427,139.647,11.865,-78.981
16647,-0.2114,0.6543,-0.7559,0.610,-0.122,0.366,139.647,11.865,-78.986
16657,-0.2095,0.6533,-0.7559,0.671,0.000,0.244,139.647,11.860,-78.986
16667,-0.2109,0.6548,-0.7559,0.671,0.183,0.061,139.647,11.860,-78.986
16677,-0.2095,0.6567,-0.7573,0.366,0.244,-0.122,139.647,11.860,-78.986
16687,-0.2119,0.6553,-0.7578,0.183,0.244,-0.305,139.647,11.860,-78.981
16697,-0.2100,0.6528,-0.7603,0.122,0.183,-0.549,139.642,11.860,-78.975
16707,-0.2114,0.6528,-0.7612,-0.061,0.061,-0.793,139.642,11.865,-78.970
16717,-0.2104,0.6523,-0.7607,-0.183,0.061,-0.854,139.642,11.871,-78.959
