elapsed_ms,acc_x_g,acc_y_g,acc_z_g,gyro_x_dps,gyro_y_dps,gyro_z_dps,angle_x_deg,angle_y_deg,angle_z_deg
0,-0.1973,-0.0586,-0.9824,0.061,-0.305,-0.244,-176.754,11.063,-79.058
10,-0.1968,-0.0562,-0.9854,0.061,-0.183,-0.305,-176.754,11.063,-79.058
20,-0.1909,-0.0562,-0.9917,0.183,0.610,-0.549,-176.748,11.058,-79.052
30,-0.1929,-0.0571,-0.9902,0.305,0.793,-0.610,-176.743,11.047,-79.047
40,-0.1948,-0.0576,-0.9941,0.427,0.732,-0.671,-176.737,11.041,-79.041
50,-0.1938,-0.0605,-0.9927,0.488,0.427,-0.671,-176.732,11.036,-79.030
60,-0.1924,-0.0620,-0.9937,0.366,0.183,-0.610,-176.721,11.036,-79.025
70,-0.1924,-0.0645,-0.9937,0.122,0.061,-0.610,-176.715,11.030,-79.019
80,-0.1934,-0.0654,-0.9980,-0.122,0.061,-0.549,-176.710,11.030,-79.014
90,-0.1904,-0.0674,-0.9976,-0.122,0.000,-0.305,-176.704,11.025,-79.014
100,-0.1934,-0.0693,-0.9956,0.000,-0.244,-0.061,-176.699,11.030,-79.014
110,-0.1978,-0.0684,-0.9937,0.000,-0.610,0.122,-176.693,11.036,-79.014
120,-0.1938,-0.0654,-0.9951,0.000,-0.732,0.305,-176.688,11.047,-79.014
130,-0.1963,-0.0615,-0.9956,0.122,-0.671,0.488,-176.688,11.052,-79.014
140,-0.1948,-0.0605,-0.9951,0.305,-0.671,0.488,-176.682,11.058,-79.014
150,-0.1934,-0.0586,-0.9922,0.244,-0.732,0.427,-176.682,11.063,-79.014
160,-0.1938,-0.0571,-0.9893,-0.122,-0.793,0.427,-176.682,11.074,-79.014
170,-0.1958,-0.0562,-0.9888,-0.549,-0.977,0.488,-176.688,11.085,-79.014
180,-0.1997,-0.0537,-0.9849,-0.793,-0.977,0.427,-176.699,11.096,-79.014
190,-0.2012,-0.0513,-0.9790,-0.732,-0.854,0.305,-176.710,11.113,-79.014
200,-0.1997,-0.0522,-0.9751,-0.427,-0.549,0.061,-176.715,11.124,-79.014
210,-0.1997,-0.0537,-0.9741,-0.305,-0.244,-0.122,-176.721,11.129,-79.014
220,-0.1982,-0.0547,-0.9761,-0.183,0.366,-0.183,-176.721,11.129,-79.014
230,-0.1997,-0.0527,-0.9775,-0.244,0.977,-0.122,-176.726,11.124,-79.014
240,-0.2007,-0.0513,-0.9800,-0.183,1.526,-0.061,-176.732,11.113,-79.014
250,-0.2041,-0.0483,-0.9844,0.000,2.014,0.000,-176.737,11.096,-79.014
260,-0.2070,-0.0439,-0.9917,0.488,2.502,-0.122,-176.737,11.080,-79.014
270,-0.2075,-0.0425,-0.9971,1.038,2.686,-0.427,-176.737,11.058,-79.014
280,-0.2031,-0.0439,-1.0015,1.404,2.502,-0.916,-176.726,11.041,-79.014
290,-0.2012,-0.0469,-1.0063,1.282,1.953,-1.282,-176.721,11.019,-79.003
300,-0.1997,-0.0508,-1.0078,0.916,1.221,-1.526,-176.710,11.008,-78.986
310,-0.1992,-0.0566,-1.0098,0.427,0.427,-1.831,-176.704,11.008,-78.970
320,-0.1982,-0.0615,-1.0083,0.061,-0.183,-2.136,-176.699,11.008,-78.948
330,-0.1982,-0.0630,-1.0024,-0.244,-0.671,-2.380,-176.693,11.014,-78.920
340,-0.1924,-0.0635,-0.9966,-0.305,-1.221,-2.441,-176.688,11.025,-78.898
350,-0.1895,-0.0698,-0.9961,-0.366,-1.953,-2.319,-176.677,11.041,-78.871
360,-0.1875,-0.0664,-0.9902,-0.366,-2.136,-2.319,-176.671,11.058,-78.849
370,-0.1885,-0.0688,-0.9873,-0.488,-2.075,-2.197,-176.666,11.074,-78.821
380,-0.1851,-0.0713,-0.9790,-0.854,-1.892,-1.831,-176.666,11.085,-78.805
390,-0.1870,-0.0708,-0.9761,-0.671,-1.404,-1.770,-176.660,11.096,-78.783
400,-0.1924,-0.0713,-0.9678,-0.732,-1.160,-1.587,-176.655,11.107,-78.766
410,-0.1924,-0.0698,-0.9663,-1.038,-0.793,-1.343,-176.655,11.118,-78.755
420,-0.1953,-0.0674,-0.9639,-0.854,0.122,-1.282,-176.655,11.118,-78.739
430,-0.1899,-0.0645,-0.9619,-0.854,0.671,-1.160,-176.655,11.113,-78.728
440,-0.1963,-0.0601,-0.9639,0.183,1.831,-1.709,-176.649,11.096,-78.712
450,-0.1958,-0.0586,-0.9688,1.160,2.991,-1.892,-176.633,11.069,-78.695
460,-0.1885,-0.0615,-0.9727,1.770,3.662,-1.648,-176.611,11.030,-78.684
470,-0.1855,-0.0674,-0.9829,2.869,4.272,-1.648,-176.572,10.981,-78.668
480,-0.1885,-0.0679,-0.9907,3.357,4.578,-1.526,-176.528,10.931,-78.657
491,-0.1880,-0.0659,-0.9927,2.869,4.395,-1.282,-176.495,10.887,-78.646
500,-0.1904,-0.0718,-0.9990,2.869,4.395,-1.221,-176.462,10.844,-78.635
510,-0.1934,-0.0796,-0.9966,2.502,4.211,-1.221,-176.424,10.800,-78.624
520,-0.1924,-0.0771,-0.9976,1.282,3.601,-0.793,-176.402,10.767,-78.618
530,-0.1914,-0.0723,-1.0059,0.854,3.479,-0.549,-176.385,10.728,-78.618
540,-0.1890,-0.0669,-1.0117,0.977,3.418,-0.122,-176.375,10.695,-78.618
550,-0.1870,-0.0635,-1.0127,1.221,3.235,0.061,-176.364,10.662,-78.618
560,-0.1855,-0.0679,-1.0220,1.953,3.235,-0.244,-176.342,10.624,-78.618
570,-0.1841,-0.0693,-1.0254,2.014,2.869,-0.488,-176.320,10.591,-78.618
580,-0.1816,-0.0645,-1.0225,1.282,1.770,-0.427,-176.309,10.569,-78.613
590,-0.1787,-0.0674,-1.0264,0.488,0.671,-0.549,-176.303,10.552,-78.607
600,-0.1753,-0.0684,-1.0264,-0.549,-0.427,-0.732,-176.303,10.547,-78.602
610,-0.1709,-0.0620,-1.0190,-2.075,-1.648,-0.549,-176.325,10.552,-78.591
620,-0.1685,-0.0640,-1.0181,-2.991,-2.197,-0.366,-176.358,10.563,-78.591
630,-0.1724,-0.0635,-1.0166,-3.174,-2.563,-0.244,-176.385,10.580,-78.585
640,-0.1748,-0.0630,-1.0103,-3.357,-2.991,0.061,-176.418,10.602,-78.585
650,-0.1753,-0.0605,-1.0059,-3.113,-3.174,0.244,-176.451,10.624,-78.585
660,-0.1782,-0.0591,-1.0005,-2.747,-3.601,0.427,-176.484,10.657,-78.585
670,-0.1797,-0.0571,-0.9971,-2.625,-4.089,0.427,-176.512,10.690,-78.585
680,-0.1826,-0.0571,-0.9927,-2.808,-4.211,0.244,-176.539,10.728,-78.585
690,-0.1851,-0.0576,-0.9893,-2.991,-4.150,0.122,-176.572,10.772,-78.585
700,-0.1851,-0.0566,-0.9844,-2.808,-4.028,0.000,-176.600,10.811,-78.585
710,-0.1880,-0.0610,-0.9814,-2.075,-3.784,-0.122,-176.616,10.844,-78.580
720,-0.1890,-0.0586,-0.9800,-1.160,-3.662,-0.305,-176.627,10.882,-78.574
730,-0.1919,-0.0625,-0.9785,0.122,-3.479,-0.549,-176.622,10.920,-78.569
740,-0.1914,-0.0708,-0.9785,0.854,-2.991,-0.427,-176.605,10.948,-78.563
750,-0.1914,-0.0698,-0.9775,0.366,-2.563,-0.366,-176.594,10.975,-78.558
760,-0.1924,-0.0674,-0.9775,-0.305,-2.258,-0.305,-176.589,10.997,-78.552
770,-0.1934,-0.0649,-0.9775,-0.427,-1.831,-0.244,-176.589,11.019,-78.547
780,-0.1929,-0.0654,-0.9800,-0.061,-1.282,-0.244,-176.589,11.030,-78.547
790,-0.1924,-0.0664,-0.9863,0.610,-0.427,-0.183,-176.578,11.036,-78.541
800,-0.1909,-0.0674,-0.9927,1.404,0.305,-0.244,-176.556,11.030,-78.541
810,-0.1860,-0.0664,-0.9971,2.014,0.427,-0.122,-176.534,11.019,-78.541
820,-0.1855,-0.0664,-1.0005,2.258,0.000,0.183,-176.506,11.014,-78.541
830,-0.1855,-0.0669,-1.0044,1.709,-0.488,0.488,-176.490,11.014,-78.547
840,-0.1855,-0.0664,-1.0039,0.549,-0.916,0.732,-176.479,11.019,-78.552
850,-0.1890,-0.0659,-1.0044,-0.610,-1.526,1.038,-176.484,11.030,-78.563
860,-0.1929,-0.0645,-1.0000,-1.465,-2.075,1.343,-176.501,11.052,-78.574
870,-0.1968,-0.0610,-0.9976,-1.892,-2.441,1.526,-176.523,11.080,-78.591
880,-0.1997,-0.0596,-0.9932,-1.892,-2.563,1.709,-176.545,11.107,-78.602
890,-0.2026,-0.0566,-0.9902,-1.465,-2.502,1.892,-176.567,11.135,-78.624
900,-0.2056,-0.0547,-0.9873,-1.099,-2.441,2.014,-176.583,11.168,-78.640
910,-0.2100,-0.0522,-0.9863,-0.854,-2.502,2.014,-176.600,11.201,-78.662
920,-0.2144,-0.0498,-0.9824,-0.793,-2.502,1.831,-176.616,11.239,-78.679
930,-0.2163,-0.0488,-0.9844,-1.038,-2.441,1.587,-176.633,11.277,-78.690
940,-0.2163,-0.0498,-0.9854,-1.404,-2.197,1.160,-176.655,11.310,-78.701
950,-0.2153,-0.0488,-0.9863,-1.770,-2.136,0.854,-176.677,11.338,-78.712
960,-0.2163,-0.0498,-0.9814,-1.892,-2.136,0.671,-176.699,11.371,-78.717
970,-0.2173,-0.0508,-0.9814,-1.831,-2.258,0.610,-176.726,11.404,-78.717
980,-0.2202,-0.0508,-0.9814,-1.953,-2.502,0.549,-176.748,11.442,-78.723
991,-0.2192,-0.0503,-0.9824,-2.075,-2.441,0.488,-176.770,11.481,-78.728
1000,-0.2197,-0.0498,-0.9839,-2.136,-2.197,0.427,-176.797,11.514,-78.728
1010,-0.2197,-0.0459,-0.9819,-2.197,-1.892,0.183,-176.825,11.541,-78.734
1020,-0.2173,-0.0444,-0.9844,-2.014,-1.465,-0.244,-176.847,11.563,-78.728
1030,-0.2158,-0.0464,-0.9868,-1.648,-1.221,-0.732,-176.869,11.585,-78.723
1040,-0.2139,-0.0513,-0.9907,-1.404,-1.160,-1.160,-176.880,11.602,-78.706
1050,-0.2153,-0.0537,-0.9961,-1.465,-1.221,-1.465,-176.891,11.618,-78.690
1060,-0.2148,-0.0537,-1.0010,-1.770,-1.160,-1.587,-176.907,11.635,-78.673
1070,-0.2144,-0.0591,-1.0029,-2.075,-1.221,-1.770,-176.924,11.651,-78.657
1080,-0.2114,-0.0610,-1.0059,-2.380,-1.770,-1.831,-176.935,11.667,-78.635
1090,-0.2090,-0.0605,-1.0073,-2.686,-2.686,-1.831,-176.957,11.695,-78.618
1100,-0.2080,-0.0640,-1.0093,-2.747,-3.784,-2.014,-176.973,11.728,-78.596
1110,-0.2080,-0.0645,-1.0068,-3.662,-5.005,-1.770,-177.001,11.777,-78.574
1120,-0.2065,-0.0610,-1.0015,-4.700,-5.859,-1.465,-177.034,11.832,-78.558
1130,-0.2051,-0.0571,-0.9946,-5.798,-6.592,-1.221,-177.089,11.893,-78.541
1140,-0.2036,-0.0527,-0.9888,-6.165,-6.897,-1.282,-177.144,11.959,-78.525
1150,-0.2031,-0.0522,-0.9834,-5.981,-6.531,-1.587,-177.198,12.019,-78.503
1160,-0.2026,-0.0508,-0.9771,-5.981,-6.042,-1.587,-177.248,12.074,-78.486
1170,-0.2046,-0.0518,-0.9658,-5.981,-5.554,-1.404,-177.303,12.129,-78.464
1180,-0.2090,-0.0518,-0.9575,-6.104,-5.188,-1.221,-177.358,12.184,-78.453
1190,-0.2168,-0.0479,-0.9512,-6.165,-4.578,-1.343,-177.413,12.233,-78.437
1200,-0.2183,-0.0454,-0.9482,-5.676,-3.357,-1.770,-177.462,12.272,-78.415
1210,-0.2124,-0.0439,-0.9497,-4.700,-1.709,-2.136,-177.501,12.294,-78.393
1220,-0.2090,-0.0464,-0.9536,-3.479,-0.061,-2.258,-177.528,12.294,-78.371
1230,-0.2070,-0.0479,-0.9609,-2.197,1.221,-2.441,-177.545,12.277,-78.344
1240,-0.2051,-0.0474,-0.9678,-1.038,2.014,-2.441,-177.545,12.255,-78.322
1251,-0.2036,-0.0439,-0.9756,-0.061,2.686,-2.319,-177.539,12.222,-78.300
1261,-0.1997,-0.0420,-0.9844,0.977,3.235,-2.625,-177.523,12.178,-78.272
1271,-0.1978,-0.0464,-0.9956,1.831,3.723,-3.113,-177.495,12.134,-78.245
1281,-0.1943,-0.0513,-1.0044,2.014,3.601,-3.418,-177.468,12.085,-78.212
1291,-0.1919,-0.0557,-1.0093,1.587,2.991,-3.296,-177.435,12.041,-78.179
1301,-0.1880,-0.0576,-1.0142,0.549,2.075,-2.930,-177.418,12.003,-78.151
1311,-0.1860,-0.0532,-1.0127,-0.488,1.038,-2.380,-177.413,11.975,-78.124
1321,-0.1860,-0.0493,-1.0103,-1.038,0.122,-1.953,-177.418,11.959,-78.107
1331,-0.1855,-0.0493,-1.0161,-0.427,0.244,-1.892,-177.418,11.937,-78.085
1341,-0.1899,-0.0522,-1.0181,-0.122,0.488,-1.587,-177.413,11.915,-78.069
1351,-0.1904,-0.0547,-1.0142,-0.305,0.427,-1.160,-177.407,11.898,-78.058
1361,-0.1904,-0.0571,-1.0132,-0.671,-0.305,-0.610,-177.407,11.887,-78.052
1371,-0.1948,-0.0537,-1.0137,-1.648,-1.709,0.061,-177.418,11.898,-78.052
1381,-0.1997,-0.0483,-1.0098,-2.869,-3.052,0.488,-177.446,11.920,-78.058
1391,-0.2051,-0.0493,-1.0044,-3.601,-3.601,0.671,-177.479,11.953,-78.063
1401,-0.2109,-0.0493,-0.9961,-4.028,-3.723,0.671,-177.517,11.986,-78.069
1411,-0.2178,-0.0410,-0.9834,-4.150,-3.662,0.732,-177.561,12.030,-78.074
1421,-0.2217,-0.0400,-0.9810,-4.028,-3.784,0.854,-177.605,12.074,-78.080
1431,-0.2222,-0.0430,-0.9805,-2.930,-3.296,0.488,-177.632,12.112,-78.085
1441,-0.2251,-0.0400,-0.9814,-2.563,-2.930,0.305,-177.660,12.151,-78.085
1451,-0.2246,-0.0342,-0.9766,-2.747,-2.563,0.305,-177.687,12.184,-78.085
1461,-0.2251,-0.0376,-0.9810,-2.136,-2.380,0.122,-177.709,12.217,-78.085
1471,-0.2261,-0.0420,-0.9873,-1.526,-2.014,-0.427,-177.726,12.244,-78.080
1481,-0.2271,-0.0405,-0.9829,-1.648,-1.892,-0.610,-177.737,12.266,-78.074
1491,-0.2266,-0.0488,-0.9858,-1.465,-1.709,-0.916,-177.742,12.294,-78.063
1501,-0.2271,-0.0542,-0.9868,-1.160,-1.587,-1.160,-177.742,12.310,-78.052
1511,-0.2266,-0.0547,-0.9824,-1.404,-1.892,-1.038,-177.748,12.338,-78.041
1521,-0.2271,-0.0659,-0.9824,-0.977,-1.953,-1.038,-177.737,12.365,-78.030
1531,-0.2275,-0.0742,-0.9873,-0.427,-1.892,-0.916,-177.720,12.387,-78.019
1541,-0.2290,-0.0742,-0.9849,-0.183,-1.709,-0.427,-177.698,12.409,-78.014
1551,-0.2314,-0.0752,-0.9824,-0.122,-1.831,0.305,-177.682,12.437,-78.014
1561,-0.2324,-0.0742,-0.9839,-0.122,-2.319,1.282,-177.665,12.469,-78.030
1571,-0.2344,-0.0669,-0.9814,-0.793,-2.747,2.319,-177.660,12.508,-78.052
1581,-0.2354,-0.0547,-0.9824,-1.648,-3.052,3.296,-177.676,12.546,-78.085
1591,-0.2324,-0.0381,-0.9790,-2.197,-3.296,3.967,-177.709,12.590,-78.124
1601,-0.2295,-0.0273,-0.9805,-2.197,-3.235,4.211,-177.742,12.629,-78.162
1611,-0.2285,-0.0166,-0.9751,-2.136,-3.235,4.211,-177.786,12.667,-78.206
1621,-0.2251,-0.0063,-0.9712,-2.563,-3.357,3.967,-177.841,12.706,-78.245
1630,-0.2241,0.0024,-0.9688,-3.418,-3.418,3.662,179.852,12.744,-78.283
1641,-0.2246,0.0117,-0.9604,-4.333,-3.113,3.052,179.797,12.777,-78.316
1651,-0.2217,0.0156,-0.9639,-5.066,-2.686,2.319,179.736,12.810,-78.338
1661,-0.2251,0.0215,-0.9624,-4.639,-1.343,0.977,179.676,12.827,-78.349
1671,-0.2241,0.0166,-0.9653,-3.723,0.183,-0.427,179.632,12.827,-78.344
1681,-0.2241,0.0107,-0.9707,-2.441,1.770,-1.831,179.610,12.810,-78.322
1691,-0.2227,-0.0010,-0.9805,-1.099,3.113,-3.052,-179.940,12.777,-78.294
1701,-0.2207,-0.0117,-0.9897,-0.366,3.845,-3.845,-179.929,12.739,-78.256
1711,-0.2197,-0.0200,-0.9995,-0.244,4.089,-4.211,-179.912,12.695,-78.212
1721,-0.2163,-0.0317,-1.0044,-0.366,3.906,-4.333,-179.890,12.651,-78.168
1731,-0.2163,-0.0396,-1.0107,-0.549,3.357,-4.211,-179.863,12.612,-78.124
1741,-0.2173,-0.0488,-1.0151,-0.854,2.869,-4.089,-179.835,12.579,-78.080
1751,-0.2144,-0.0537,-1.0137,-1.099,2.258,-3.784,-179.808,12.546,-78.041
1761,-0.2124,-0.0581,-1.0088,-0.977,1.282,-3.357,-179.780,12.530,-78.008
1771,-0.2144,-0.0659,-1.0073,-0.549,0.183,-3.113,-179.742,12.524,-77.975
1781,-0.2187,-0.0708,-1.0024,-0.488,-0.671,-2.686,-179.703,12.524,-77.948
1791,-0.2197,-0.0718,-1.0034,-0.732,-0.977,-2.197,-179.670,12.535,-77.926
1801,-0.2158,-0.0698,-0.9966,-0.977,-1.160,-1.404,-179.637,12.541,-77.910
1811,-0.2119,-0.0659,-0.9917,-1.099,-1.587,-0.427,-179.615,12.552,-77.910
1821,-0.2119,-0.0576,-0.9917,-0.854,-2.014,0.427,-179.594,12.568,-77.910
1831,-0.2085,-0.0503,-0.9932,-0.244,-1.953,0.977,-179.577,12.579,-77.921
1841,-0.2017,-0.0405,-0.9922,0.366,-1.648,1.343,-179.555,12.585,-77.937
1851,-0.2017,-0.0391,-0.9946,1.221,-1.160,1.404,-179.528,12.585,-77.948
1861,-0.2041,-0.0425,-0.9937,1.343,-0.732,1.404,-179.500,12.585,-77.964
1871,-0.2046,-0.0410,-0.9873,0.366,-1.282,1.770,-179.478,12.585,-77.981
1881,-0.2119,-0.0366,-0.9771,-1.038,-2.197,2.319,-179.478,12.607,-78.003
1891,-0.2217,-0.0308,-0.9697,-2.808,-3.357,2.991,-179.500,12.640,-78.036
1901,-0.2329,-0.0195,-0.9619,-4.211,-3.723,3.296,-179.544,12.689,-78.069
1911,-0.2368,-0.0146,-0.9585,-4.944,-3.052,3.235,-179.594,12.728,-78.102
1921,-0.2422,-0.0156,-0.9551,-4.761,-1.282,2.686,-179.643,12.755,-78.129
1931,-0.2446,-0.0156,-0.9570,-3.845,0.549,2.014,-179.676,12.766,-78.151
1941,-0.2422,-0.0195,-0.9644,-2.441,2.136,1.282,-179.698,12.761,-78.162
1951,-0.2319,-0.0215,-0.9683,-1.160,2.930,0.854,-179.698,12.739,-78.173
1961,-0.2329,-0.0229,-0.9727,-0.244,2.747,0.732,-179.692,12.717,-78.179
1971,-0.2300,-0.0278,-0.9766,-0.244,2.502,0.549,-179.687,12.700,-78.184
1981,-0.2261,-0.0312,-0.9780,-0.671,2.319,0.183,-179.676,12.678,-78.190
1991,-0.2266,-0.0337,-0.9839,-1.526,2.380,-0.244,-179.676,12.656,-78.184
2001,-0.2178,-0.0303,-0.9863,-2.380,2.686,-0.427,-179.681,12.629,-78.179
2011,-0.2095,-0.0249,-0.9863,-2.686,2.808,-0.183,-179.698,12.596,-78.179
2021,-0.2065,-0.0215,-0.9849,-2.686,2.319,0.244,-179.714,12.563,-78.184
2031,-0.2095,-0.0186,-0.9897,-2.258,1.953,0.366,-179.731,12.541,-78.184
2041,-0.2095,-0.0142,-0.9951,-1.709,2.319,0.122,-179.742,12.508,-78.184
2051,-0.2124,-0.0142,-0.9937,-1.038,2.869,-0.366,-179.747,12.475,-78.184
2061,-0.2178,-0.0176,-0.9956,-0.366,3.418,-1.038,-179.742,12.442,-78.173
2071,-0.2202,-0.0278,-0.9956,0.427,3.723,-1.709,-179.720,12.404,-78.157
2081,-0.2173,-0.0342,-0.9971,0.793,3.296,-2.136,-179.687,12.371,-78.135
2091,-0.2158,-0.0405,-1.0029,0.732,2.441,-2.136,-179.659,12.343,-78.113
2101,-0.2129,-0.0444,-1.0049,0.671,1.831,-1.648,-179.626,12.321,-78.096
2111,-0.2109,-0.0415,-1.0044,0.916,1.892,-1.282,-179.594,12.299,-78.080
2121,-0.2070,-0.0405,-1.0059,1.465,2.014,-0.671,-179.561,12.272,-78.074
2131,-0.2031,-0.0376,-1.0073,2.258,2.197,-0.122,-179.517,12.244,-78.074
2141,-0.2021,-0.0347,-1.0063,2.991,1.953,0.305,-179.473,12.211,-78.080
2151,-0.2017,-0.0327,-1.0044,2.869,1.282,0.732,-179.434,12.195,-78.085
2161,-0.1997,-0.0288,-1.0034,2.136,0.610,1.038,-179.407,12.178,-78.096
2171,-0.1987,-0.0239,-0.9980,1.465,0.305,1.099,-179.385,12.167,-78.107
2181,-0.1963,-0.0186,-0.9971,1.038,0.122,1.099,-179.374,12.151,-78.118
2191,-0.1997,-0.0156,-0.9946,1.160,0.244,1.038,-179.363,12.145,-78.129
2201,-0.2046,-0.0161,-0.9956,1.648,0.610,0.977,-179.346,12.134,-78.140
2211,-0.2065,-0.0181,-0.9985,2.136,0.793,0.793,-179.319,12.118,-78.146
2221,-0.2119,-0.0244,-0.9951,2.319,0.854,0.488,-179.291,12.112,-78.151
2231,-0.2183,-0.0283,-0.9976,2.258,0.732,0.244,-179.258,12.107,-78.157
2241,-0.2227,-0.0347,-0.9961,1.892,0.488,0.000,-179.231,12.107,-78.157
2251,-0.2280,-0.0381,-0.9917,1.282,0.122,-0.061,-179.203,12.112,-78.157
2261,-0.2280,-0.0415,-0.9917,0.671,-0.366,-0.061,-179.182,12.123,-78.151
2271,-0.2285,-0.0449,-0.9927,0.305,-0.732,0.183,-179.160,12.140,-78.157
2281,-0.2285,-0.0400,-0.9932,0.000,-0.916,0.610,-179.143,12.156,-78.162
2291,-0.2251,-0.0356,-0.9941,-0.305,-1.099,1.282,-179.138,12.173,-78.173
2301,-0.2217,-0.0273,-0.9956,-0.549,-1.282,1.831,-179.143,12.189,-78.195
2311,-0.2217,-0.0176,-0.9995,-0.793,-1.526,2.075,-179.154,12.211,-78.212
2321,-0.2207,-0.0137,-0.9980,-1.038,-1.709,1.953,-179.165,12.228,-78.234
2331,-0.2197,-0.0107,-0.9990,-1.343,-1.831,1.465,-179.187,12.250,-78.250
2341,-0.2173,-0.0088,-0.9971,-2.014,-2.014,0.977,-179.209,12.272,-78.256
2351,-0.2173,-0.0103,-0.9971,-2.686,-2.441,0.610,-179.242,12.294,-78.267
2361,-0.2192,-0.0098,-0.9927,-3.052,-2.869,0.244,-179.275,12.327,-78.267
2371,-0.2222,-0.0122,-0.9888,-3.235,-3.235,-0.122,-179.302,12.360,-78.267
2381,-0.2256,-0.0132,-0.9858,-3.174,-3.296,-0.366,-179.335,12.398,-78.261
2391,-0.2285,-0.0181,-0.9819,-2.808,-2.991,-0.549,-179.357,12.437,-78.256
2401,-0.2334,-0.0181,-0.9814,-2.380,-2.625,-0.977,-179.374,12.469,-78.245
2411,-0.2314,-0.0210,-0.9761,-2.197,-2.380,-1.404,-179.385,12.502,-78.228
2421,-0.2300,-0.0234,-0.9736,-1.831,-2.319,-1.892,-179.396,12.530,-78.212
2431,-0.2266,-0.0264,-0.9746,-1.526,-2.441,-2.136,-179.396,12.563,-78.190
2441,-0.2246,-0.0225,-0.9766,-1.526,-2.502,-1.953,-179.396,12.590,-78.168
2451,-0.2227,-0.0259,-0.9751,-1.221,-2.258,-1.831,-179.396,12.612,-78.146
2461,-0.2231,-0.0264,-0.9741,-0.671,-1.709,-1.831,-179.390,12.634,-78.129
2471,-0.2285,-0.0244,-0.9678,-0.122,-1.038,-2.014,-179.379,12.651,-78.107
2481,-0.2300,-0.0308,-0.9639,0.671,-0.122,-2.380,-179.352,12.662,-78.085
2491,-0.2324,-0.0391,-0.9648,0.977,0.732,-2.747,-179.319,12.662,-78.058
2501,-0.2344,-0.0396,-0.9678,0.549,1.221,-2.930,-179.291,12.656,-78.025
2511,-0.2300,-0.0430,-0.9722,-0.122,1.587,-2.747,-179.269,12.645,-77.997
2521,-0.2261,-0.0430,-0.9736,-0.549,1.648,-2.441,-179.253,12.634,-77.975
2531,-0.2236,-0.0396,-0.9810,-0.610,1.770,-2.258,-179.236,12.618,-77.948
2541,-0.2202,-0.0386,-0.9873,-0.244,2.075,-2.075,-179.220,12.596,-77.932
2551,-0.2158,-0.0400,-0.9927,0.244,2.258,-1.892,-179.198,12.574,-77.910
2561,-0.2144,-0.0400,-0.9976,0.366,2.197,-1.587,-179.176,12.546,-77.893
2571,-0.2124,-0.0420,-1.0054,0.183,2.075,-1.465,-179.154,12.519,-77.882
2581,-0.2085,-0.0425,-1.0137,-0.244,1.831,-1.282,-179.138,12.491,-77.866
2591,-0.2061,-0.0439,-1.0151,-0.610,1.221,-0.977,-179.127,12.469,-77.860
2601,-0.2046,-0.0464,-1.0132,-1.160,0.122,-0.488,-179.121,12.458,-77.855
2611,-0.2104,-0.0469,-1.0122,-1.709,-1.282,0.122,-179.121,12.464,-77.855
2621,-0.2129,-0.0415,-1.0044,-2.197,-2.319,0.671,-179.127,12.480,-77.860
2631,-0.2187,-0.0381,-0.9951,-2.319,-2.930,1.038,-179.138,12.508,-77.871
2641,-0.2212,-0.0312,-0.9897,-2.014,-3.052,1.160,-179.154,12.541,-77.882
2651,-0.2222,-0.0283,-0.9858,-1.587,-2.869,1.099,-179.165,12.568,-77.893
2661,-0.2212,-0.0303,-0.9849,-1.099,-2.563,1.099,-179.165,12.596,-77.904
2671,-0.2217,-0.0254,-0.9805,-1.099,-2.197,1.099,-179.176,12.618,-77.915
2681,-0.2212,-0.0205,-0.9834,-1.343,-2.319,1.160,-179.187,12.645,-77.926
2691,-0.2231,-0.0161,-0.9814,-1.160,-1.892,0.977,-179.198,12.662,-77.937
2701,-0.2212,-0.0127,-0.9780,-1.343,-1.770,0.854,-179.214,12.684,-77.943
2711,-0.2212,-0.0103,-0.9800,-0.977,-1.160,0.244,-179.225,12.695,-77.948
2721,-0.2227,-0.0107,-0.9819,-0.549,-0.549,-0.427,-179.231,12.700,-77.943
2731,-0.2187,-0.0088,-0.9834,-0.549,-0.122,-0.916,-179.236,12.700,-77.932
2741,-0.2148,-0.0073,-0.9883,-0.427,0.122,-1.282,-179.242,12.695,-77.921
2751,-0.2124,-0.0093,-0.9902,-0.305,0.061,-1.526,-179.242,12.689,-77.904
2761,-0.2134,-0.0117,-0.9946,-0.061,0.000,-1.831,-179.242,12.684,-77.888
2771,-0.2148,-0.0151,-0.9932,0.061,0.122,-2.136,-179.236,12.673,-77.866
2781,-0.2139,-0.0186,-0.9985,0.244,0.244,-2.380,-179.225,12.667,-77.838
2791,-0.2168,-0.0259,-1.0029,0.549,0.244,-2.686,-179.203,12.656,-77.811
2801,-0.2148,-0.0342,-1.0039,0.610,0.000,-2.808,-179.182,12.651,-77.783
2811,-0.2163,-0.0381,-1.0034,0.610,-0.305,-2.869,-179.154,12.651,-77.750
2821,-0.2153,-0.0459,-1.0020,0.488,-0.854,-2.625,-179.127,12.651,-77.728
2831,-0.2153,-0.0503,-1.0005,0.122,-1.587,-2.136,-179.099,12.662,-77.706
2841,-0.2158,-0.0518,-0.9995,-0.366,-2.319,-1.526,-179.083,12.684,-77.690
2851,-0.2163,-0.0493,-0.9961,-0.854,-2.869,-1.038,-179.066,12.706,-77.679
2861,-0.2168,-0.0479,-0.9902,-1.221,-3.174,-0.488,-179.061,12.733,-77.673
2871,-0.2207,-0.0449,-0.9888,-1.404,-3.235,-0.061,-179.055,12.761,-77.668
2881,-0.2202,-0.0435,-0.9844,-1.343,-2.991,0.305,-179.055,12.794,-77.673
2891,-0.2207,-0.0405,-0.9771,-1.160,-2.625,0.610,-179.055,12.816,-77.679
2901,-0.2227,-0.0356,-0.9741,-1.038,-2.258,0.854,-179.055,12.838,-77.684
2911,-0.2207,-0.0342,-0.9712,-0.916,-1.831,1.038,-179.055,12.859,-77.695
2921,-0.2222,-0.0283,-0.9722,-0.732,-1.221,1.221,-179.055,12.870,-77.712
2931,-0.2202,-0.0234,-0.9697,-0.610,-0.793,1.221,-179.061,12.876,-77.723
2941,-0.2231,-0.0234,-0.9731,-0.427,-0.427,1.038,-179.066,12.881,-77.734
2951,-0.2266,-0.0200,-0.9736,-0.183,-0.244,0.916,-179.066,12.887,-77.739
2961,-0.2295,-0.0186,-0.9775,-0.183,-0.061,0.671,-179.066,12.892,-77.750
2971,-0.2290,-0.0186,-0.9805,-0.183,0.183,0.488,-179.066,12.892,-77.756
2981,-0.2314,-0.0200,-0.9863,-0.244,0.488,0.366,-179.072,12.887,-77.756
2992,-0.2319,-0.0210,-0.9868,-0.122,0.671,0.244,-179.066,12.887,-77.761
3001,-0.2305,-0.0215,-0.9888,0.061,0.732,0.183,-179.066,12.881,-77.761
3011,-0.2324,-0.0225,-0.9858,0.122,0.671,0.183,-179.061,12.876,-77.767
3021,-0.2363,-0.0234,-0.9897,0.122,0.427,0.183,-179.055,12.881,-77.767
3031,-0.2388,-0.0229,-0.9917,0.061,0.305,0.183,-179.050,12.881,-77.767
3041,-0.2349,-0.0220,-0.9980,-0.122,0.305,0.244,-179.050,12.881,-77.772
3051,-0.2339,-0.0190,-1.0005,-0.183,0.122,0.305,-179.050,12.887,-77.772
3061,-0.2344,-0.0195,-0.9985,-0.061,-0.122,0.244,-179.050,12.892,-77.778
3071,-0.2334,-0.0215,-0.9971,-0.061,-0.427,0.061,-179.050,12.898,-77.778
3081,-0.2329,-0.0210,-0.9976,-0.244,-0.793,-0.122,-179.050,12.909,-77.778
3091,-0.2324,-0.0234,-0.9961,-0.732,-1.099,-0.183,-179.050,12.920,-77.772
3101,-0.2295,-0.0259,-0.9912,-1.160,-1.343,-0.244,-179.055,12.936,-77.772
3111,-0.2310,-0.0239,-0.9888,-1.465,-1.526,-0.305,-179.066,12.953,-77.767
3121,-0.2285,-0.0229,-0.9868,-1.526,-1.831,-0.366,-179.077,12.969,-77.761
3131,-0.2285,-0.0215,-0.9824,-1.404,-2.075,-0.427,-179.083,12.991,-77.756
3141,-0.2324,-0.0229,-0.9819,-1.099,-2.014,-0.488,-179.088,13.013,-77.756
3151,-0.2314,-0.0220,-0.9785,-0.854,-1.648,-0.671,-179.094,13.035,-77.745
3161,-0.2310,-0.0215,-0.9775,-0.671,-1.282,-0.793,-179.094,13.052,-77.739
3171,-0.2295,-0.0215,-0.9795,-0.427,-1.160,-0.916,-179.094,13.063,-77.728
3181,-0.2295,-0.0215,-0.9829,-0.183,-0.977,-1.038,-179.088,13.074,-77.717
3191,-0.2290,-0.0264,-0.9805,-0.183,-0.916,-1.160,-179.083,13.085,-77.706
3201,-0.2295,-0.0269,-0.9810,-0.305,-0.977,-1.160,-179.077,13.090,-77.695
3211,-0.2300,-0.0278,-0.9819,-0.366,-0.916,-1.038,-179.072,13.101,-77.684
3221,-0.2310,-0.0254,-0.9819,-0.366,-0.732,-0.916,-179.066,13.112,-77.673
3231,-0.2280,-0.0254,-0.9839,-0.122,-0.427,-0.854,-179.061,13.112,-77.662
3241,-0.2261,-0.0298,-0.9854,0.366,-0.244,-0.916,-179.044,13.112,-77.657
3251,-0.2266,-0.0332,-0.9858,0.793,-0.183,-0.916,-179.028,13.112,-77.646
3261,-0.2236,-0.0361,-0.9902,0.793,-0.061,-0.793,-179.006,13.112,-77.635
3271,-0.2222,-0.0366,-0.9863,0.610,-0.122,-0.610,-178.989,13.107,-77.629
3281,-0.2212,-0.0381,-0.9868,0.305,-0.122,-0.305,-178.973,13.107,-77.629
3291,-0.2251,-0.0352,-0.9902,0.000,-0.183,0.000,-178.962,13.101,-77.629
3301,-0.2251,-0.0347,-0.9868,-0.244,-0.244,0.244,-178.956,13.101,-77.629
3311,-0.2246,-0.0342,-0.9829,-0.305,-0.305,0.488,-178.951,13.101,-77.635
3321,-0.2290,-0.0312,-0.9834,-0.366,-0.183,0.610,-178.945,13.107,-77.640
3331,-0.2344,-0.0308,-0.9800,-0.366,-0.061,0.732,-178.945,13.107,-77.646
3341,-0.2349,-0.0317,-0.9795,-0.244,0.061,0.793,-178.940,13.112,-77.657
3351,-0.2349,-0.0283,-0.9829,-0.122,0.305,0.793,-178.940,13.112,-77.662
3361,-0.2339,-0.0254,-0.9829,0.183,0.549,0.916,-178.934,13.112,-77.673
3371,-0.2310,-0.0264,-0.9844,0.366,0.732,1.038,-178.929,13.107,-77.684
3381,-0.2314,-0.0244,-0.9839,0.427,0.793,1.099,-178.923,13.096,-77.695
3391,-0.2300,-0.0234,-0.9863,0.305,0.854,1.099,-178.918,13.090,-77.706
3401,-0.2314,-0.0210,-0.9863,0.122,0.793,1.038,-178.918,13.085,-77.717
3411,-0.2329,-0.0200,-0.9854,0.122,0.793,0.854,-178.918,13.079,-77.728
3421,-0.2344,-0.0205,-0.9917,0.183,0.732,0.610,-178.918,13.074,-77.734
3431,-0.2334,-0.0205,-0.9922,0.244,0.610,0.427,-178.912,13.068,-77.739
3441,-0.2319,-0.0195,-0.9927,0.244,0.305,0.488,-178.912,13.068,-77.745
3451,-0.2314,-0.0186,-0.9946,0.122,0.183,0.427,-178.912,13.063,-77.750
3461,-0.2290,-0.0195,-0.9951,-0.122,0.061,0.366,-178.912,13.063,-77.750
3471,-0.2310,-0.0186,-0.9907,-0.610,-0.061,0.366,-178.923,13.063,-77.756
3481,-0.2354,-0.0195,-0.9912,-1.038,-0.183,0.244,-178.934,13.068,-77.756
3492,-0.2344,-0.0190,-0.9902,-1.038,-0.244,0.000,-178.940,13.074,-77.756
3501,-0.2334,-0.0166,-0.9912,-1.038,-0.427,-0.305,-178.951,13.079,-77.756
3511,-0.2310,-0.0176,-0.9941,-0.854,-0.732,-0.488,-178.962,13.085,-77.750
3521,-0.2266,-0.0190,-0.9922,-0.671,-1.038,-0.549,-178.967,13.096,-77.745
3531,-0.2300,-0.0210,-0.9932,-0.671,-1.587,-0.549,-178.967,13.112,-77.739
3541,-0.2310,-0.0200,-0.9888,-0.977,-1.953,-0.427,-178.973,13.129,-77.734
3551,-0.2300,-0.0205,-0.9863,-1.221,-1.892,-0.427,-178.984,13.151,-77.728
3561,-0.2300,-0.0215,-0.9814,-1.343,-1.526,-0.549,-178.995,13.162,-77.723
3571,-0.2319,-0.0229,-0.9819,-1.282,-1.099,-0.793,-179.000,13.178,-77.712
3581,-0.2314,-0.0244,-0.9844,-1.160,-0.854,-0.977,-179.006,13.184,-77.706
3591,-0.2339,-0.0244,-0.9858,-0.916,-0.793,-1.038,-179.011,13.195,-77.695
3601,-0.2339,-0.0244,-0.9878,-0.610,-0.916,-1.099,-179.006,13.206,-77.684
3611,-0.2300,-0.0269,-0.9868,-0.549,-1.221,-1.221,-179.006,13.217,-77.668
3621,-0.2285,-0.0254,-0.9888,-0.671,-1.648,-1.221,-179.006,13.228,-77.657
3631,-0.2310,-0.0229,-0.9858,-1.099,-2.075,-1.160,-179.011,13.250,-77.646
3641,-0.2314,-0.0225,-0.9858,-1.587,-2.319,-1.099,-179.017,13.271,-77.635
3651,-0.2310,-0.0215,-0.9834,-2.014,-2.319,-1.160,-179.033,13.293,-77.618
3661,-0.2354,-0.0220,-0.9790,-2.075,-2.014,-1.404,-179.050,13.315,-77.607
3671,-0.2368,-0.0220,-0.9751,-1.892,-1.587,-1.709,-179.061,13.332,-77.585
3681,-0.2378,-0.0239,-0.9702,-1.709,-1.282,-1.892,-179.066,13.348,-77.569
3691,-0.2412,-0.0254,-0.9678,-1.831,-1.099,-1.953,-179.072,13.370,-77.547
3701,-0.2393,-0.0244,-0.9717,-2.258,-1.038,-1.770,-179.088,13.381,-77.531
3711,-0.2358,-0.0181,-0.9683,-2.747,-0.916,-1.526,-179.110,13.392,-77.514
3721,-0.2358,-0.0156,-0.9683,-2.808,-0.488,-1.343,-179.132,13.403,-77.498
3731,-0.2412,-0.0146,-0.9683,-2.625,0.305,-1.404,-179.154,13.403,-77.487
3741,-0.2417,-0.0137,-0.9692,-2.258,1.282,-1.526,-179.176,13.398,-77.470
3751,-0.2422,-0.0142,-0.9707,-1.892,2.197,-1.648,-179.187,13.381,-77.454
3761,-0.2407,-0.0166,-0.9746,-1.648,2.747,-1.709,-179.198,13.359,-77.437
3771,-0.2397,-0.0186,-0.9780,-1.465,3.052,-1.709,-179.209,13.332,-77.421
3781,-0.2363,-0.0186,-0.9814,-1.526,3.113,-1.648,-179.214,13.304,-77.404
3791,-0.2329,-0.0151,-0.9902,-1.648,3.052,-1.526,-179.231,13.271,-77.388
3801,-0.2314,-0.0161,-0.9966,-1.831,3.052,-1.343,-179.242,13.239,-77.371
3811,-0.2295,-0.0137,-1.0005,-1.953,2.991,-1.282,-179.258,13.206,-77.360
3821,-0.2324,-0.0161,-1.0039,-1.831,2.747,-1.404,-179.269,13.178,-77.349
3831,-0.2290,-0.0161,-1.0083,-1.465,2.380,-1.709,-179.280,13.151,-77.327
3841,-0.2271,-0.0205,-1.0107,-1.160,1.831,-1.892,-179.280,13.129,-77.311
3851,-0.2222,-0.0259,-1.0122,-0.977,1.099,-2.014,-179.280,13.107,-77.289
3861,-0.2222,-0.0283,-1.0078,-1.099,0.305,-1.831,-179.280,13.101,-77.272
3871,-0.2227,-0.0298,-1.0044,-1.404,-0.488,-1.587,-179.280,13.096,-77.256
3881,-0.2217,-0.0269,-1.0000,-1.709,-1.038,-1.282,-179.286,13.101,-77.239
3891,-0.2241,-0.0264,-0.9946,-1.648,-1.221,-1.099,-179.291,13.107,-77.228
3901,-0.2241,-0.0249,-0.9902,-1.221,-1.099,-0.977,-179.291,13.118,-77.217
3911,-0.2241,-0.0225,-0.9873,-0.793,-0.793,-0.916,-179.291,13.123,-77.212
3921,-0.2212,-0.0244,-0.9868,-0.549,-0.549,-0.793,-179.286,13.123,-77.201
3931,-0.2187,-0.0249,-0.9883,-0.427,-0.549,-0.671,-179.286,13.118,-77.195
3941,-0.2192,-0.0249,-0.9888,-0.366,-0.793,-0.549,-179.280,13.123,-77.190
3951,-0.2217,-0.0244,-0.9897,-0.244,-0.916,-0.427,-179.275,13.123,-77.184
3961,-0.2227,-0.0269,-0.9854,-0.122,-0.854,-0.305,-179.264,13.129,-77.179
3971,-0.2246,-0.0293,-0.9829,0.061,-0.732,-0.183,-179.253,13.134,-77.179
3981,-0.2290,-0.0327,-0.9849,0.122,-0.732,-0.061,-179.242,13.140,-77.179
3992,-0.2310,-0.0342,-0.9858,0.000,-0.671,0.244,-179.231,13.151,-77.179
4001,-0.2319,-0.0356,-0.9839,-0.061,-0.549,0.671,-179.220,13.156,-77.190
4011,-0.2305,-0.0317,-0.9834,0.000,-0.488,1.038,-179.209,13.162,-77.201
4021,-0.2319,-0.0293,-0.9819,0.244,-0.610,1.465,-179.203,13.167,-77.212
4031,-0.2329,-0.0264,-0.9785,0.488,-0.854,1.709,-179.193,13.178,-77.228
4041,-0.2354,-0.0229,-0.9751,0.427,-1.099,1.770,-179.187,13.195,-77.250
4051,-0.2329,-0.0181,-0.9731,0.000,-1.099,1.892,-179.193,13.206,-77.267
4061,-0.2349,-0.0112,-0.9707,-0.427,-0.916,1.892,-179.198,13.222,-77.289
4071,-0.2344,-0.0054,-0.9717,-0.427,-0.427,1.831,-179.214,13.228,-77.305
4081,-0.2349,-0.0029,-0.9663,-0.122,0.122,1.709,-179.225,13.233,-77.322
4091,-0.2344,-0.0015,-0.9668,0.244,0.854,1.404,-179.231,13.228,-77.338
4101,-0.2334,0.0000,-0.9668,0.427,1.648,1.038,-180.000,13.217,-77.349
4111,-0.2324,-0.0005,-0.9678,0.610,2.441,0.732,-179.967,13.195,-77.355
4121,-0.2344,-0.0005,-0.9727,0.671,3.418,0.305,-179.962,13.162,-77.360
4131,-0.2358,-0.0034,-0.9746,1.160,4.211,-0.183,-179.951,13.129,-77.360
4141,-0.2354,-0.0054,-0.9814,1.648,4.578,-0.671,-179.929,13.085,-77.349
4151,-0.2329,-0.0078,-0.9878,2.136,4.700,-1.038,-179.901,13.041,-77.338
4161,-0.2275,-0.0127,-0.9956,2.502,4.578,-1.099,-179.868,12.991,-77.327
4171,-0.2222,-0.0146,-0.9990,2.197,4.211,-1.038,-179.835,12.947,-77.316
4181,-0.2187,-0.0151,-1.0063,1.953,3.906,-0.916,-179.808,12.903,-77.311
4191,-0.2178,-0.0166,-1.0098,1.831,3.723,-0.793,-179.780,12.859,-77.300
4201,-0.2197,-0.0186,-1.0117,1.770,3.479,-0.793,-179.753,12.816,-77.294
4211,-0.2173,-0.0190,-1.0093,1.831,3.052,-0.671,-179.725,12.777,-77.289
4221,-0.2148,-0.0205,-1.0127,2.014,2.319,-0.549,-179.692,12.750,-77.283
4231,-0.2119,-0.0239,-1.0142,1.953,1.465,-0.427,-179.665,12.722,-77.278
4241,-0.2139,-0.0239,-1.0122,1.587,0.671,-0.305,-179.637,12.711,-77.272
4251,-0.2139,-0.0205,-1.0083,0.977,0.183,-0.122,-179.621,12.700,-77.272
4261,-0.2134,-0.0186,-1.0029,0.610,-0.061,-0.122,-179.604,12.695,-77.272
4271,-0.2144,-0.0181,-0.9966,1.038,-0.366,-0.244,-179.588,12.695,-77.267
4281,-0.2178,-0.0200,-0.9937,1.465,-0.671,-0.427,-179.566,12.695,-77.267
4291,-0.2217,-0.0234,-0.9883,1.770,-0.732,-0.549,-179.539,12.700,-77.261
4301,-0.2251,-0.0229,-0.9873,1.587,-0.793,-0.488,-179.511,12.711,-77.256
4311,-0.2271,-0.0239,-0.9854,1.221,-0.610,-0.305,-179.489,12.722,-77.250
4321,-0.2275,-0.0249,-0.9854,1.099,-0.122,-0.244,-179.467,12.722,-77.250
4331,-0.2275,-0.0254,-0.9819,1.099,0.183,-0.244,-179.451,12.728,-77.245
4341,-0.2305,-0.0269,-0.9800,1.282,0.244,-0.244,-179.423,12.728,-77.245
4351,-0.2344,-0.0288,-0.9795,1.465,0.061,-0.244,-179.401,12.733,-77.239
4361,-0.2358,-0.0322,-0.9771,1.404,-0.305,0.000,-179.374,12.744,-77.239
4371,-0.2354,-0.0308,-0.9731,1.221,-0.427,0.244,-179.346,12.761,-77.245
4381,-0.2354,-0.0303,-0.9746,1.038,-0.122,0.427,-179.330,12.766,-77.245
4391,-0.2339,-0.0293,-0.9736,0.854,0.427,0.732,-179.313,12.772,-77.256
4401,-0.2334,-0.0249,-0.9751,0.854,1.038,1.099,-179.297,12.766,-77.267
4411,-0.2305,-0.0244,-0.9727,1.221,1.648,1.221,-179.280,12.755,-77.278
4421,-0.2275,-0.0210,-0.9741,1.770,1.953,1.282,-179.258,12.744,-77.294
4431,-0.2266,-0.0186,-0.9741,2.014,1.831,1.221,-179.242,12.728,-77.305
4441,-0.2295,-0.0200,-0.9756,2.258,2.075,0.916,-179.214,12.711,-77.316
4451,-0.2280,-0.0215,-0.9785,2.075,2.380,0.610,-179.193,12.695,-77.322
4461,-0.2280,-0.0210,-0.9810,1.770,2.869,0.305,-179.171,12.667,-77.327
4471,-0.2231,-0.0239,-0.9829,1.587,3.174,0.122,-179.149,12.640,-77.327
4481,-0.2236,-0.0259,-0.9839,1.709,3.235,0.061,-179.127,12.607,-77.327
4492,-0.2241,-0.0259,-0.9863,2.075,3.052,0.061,-179.099,12.579,-77.327
4501,-0.2227,-0.0298,-0.9912,2.502,2.930,0.000,-179.066,12.552,-77.327
4511,-0.2246,-0.0283,-0.9883,2.686,2.808,-0.061,-179.033,12.524,-77.327
4521,-0.2212,-0.0278,-0.9941,2.563,2.441,0.122,-179.000,12.502,-77.333
4531,-0.2227,-0.0273,-0.9946,2.625,2.380,0.000,-178.973,12.480,-77.333
4541,-0.2192,-0.0273,-0.9922,2.197,1.892,0.122,-178.945,12.458,-77.333
4551,-0.2192,-0.0288,-0.9927,2.197,2.014,-0.061,-178.918,12.442,-77.333
4561,-0.2231,-0.0308,-0.9907,2.075,1.953,-0.061,-178.890,12.426,-77.333
4571,-0.2280,-0.0322,-0.9927,2.380,2.197,-0.305,-178.857,12.409,-77.327
4581,-0.2251,-0.0376,-0.9888,2.686,2.075,-0.366,-178.819,12.393,-77.327
4591,-0.2202,-0.0376,-0.9917,2.441,1.770,-0.061,-178.786,12.376,-77.327
4601,-0.2192,-0.0337,-0.9946,1.953,1.587,0.488,-178.759,12.360,-77.333
4611,-0.2183,-0.0322,-0.9985,1.648,1.465,0.916,-178.737,12.343,-77.344
4621,-0.2153,-0.0322,-1.0000,1.648,1.770,0.977,-178.720,12.327,-77.349
4631,-0.2153,-0.0327,-1.0000,1.831,2.136,0.732,-178.698,12.305,-77.360
4641,-0.2124,-0.0361,-1.0029,1.892,2.075,0.610,-178.671,12.277,-77.366
4651,-0.2090,-0.0396,-1.0024,1.648,1.526,0.732,-178.649,12.261,-77.377
4661,-0.2100,-0.0371,-1.0005,0.916,0.671,0.916,-178.632,12.250,-77.382
4671,-0.2090,-0.0361,-1.0005,0.000,-0.183,1.099,-178.627,12.244,-77.393
4681,-0.2109,-0.0356,-0.9941,-0.549,-0.549,1.038,-178.627,12.250,-77.404
4691,-0.2095,-0.0366,-0.9912,-0.549,-0.549,0.977,-178.627,12.250,-77.415
4701,-0.2134,-0.0337,-0.9888,0.000,-0.488,0.854,-178.627,12.255,-77.426
4711,-0.2183,-0.0361,-0.9854,0.732,-0.305,0.732,-178.610,12.261,-77.432
4721,-0.2197,-0.0410,-0.9844,0.732,0.061,0.732,-178.594,12.261,-77.437
4731,-0.2148,-0.0400,-0.9810,0.183,0.183,0.793,-178.588,12.261,-77.448
4741,-0.2158,-0.0376,-0.9780,-0.061,0.122,0.793,-178.583,12.261,-77.454
4751,-0.2144,-0.0381,-0.9795,-0.122,0.061,0.854,-178.577,12.261,-77.465
4761,-0.2104,-0.0381,-0.9800,0.183,0.305,0.977,-178.566,12.261,-77.476
4771,-0.2104,-0.0371,-0.9819,0.854,0.854,0.854,-178.555,12.250,-77.481
4781,-0.2080,-0.0386,-0.9854,1.282,1.221,0.793,-178.533,12.233,-77.492
4791,-0.2017,-0.0386,-0.9839,1.526,1.404,0.732,-178.511,12.211,-77.498
4801,-0.2017,-0.0381,-0.9819,1.465,1.343,0.610,-178.495,12.195,-77.503
4811,-0.2012,-0.0400,-0.9849,1.160,1.282,0.488,-178.473,12.173,-77.509
4821,-0.2007,-0.0400,-0.9873,0.977,1.465,0.305,-178.456,12.151,-77.514
4831,-0.1987,-0.0415,-0.9893,1.038,1.709,0.305,-178.440,12.129,-77.520
4841,-0.1987,-0.0435,-0.9917,1.465,2.258,0.366,-178.418,12.096,-77.525
4851,-0.1982,-0.0444,-0.9937,1.892,2.563,0.366,-178.391,12.063,-77.525
4861,-0.1973,-0.0483,-0.9971,2.197,2.563,0.427,-178.358,12.030,-77.531
4871,-0.1948,-0.0508,-0.9956,2.319,2.380,0.549,-178.325,11.997,-77.536
4881,-0.1968,-0.0522,-0.9966,2.014,1.892,0.854,-178.292,11.970,-77.547
4891,-0.2021,-0.0518,-0.9956,1.526,1.709,1.099,-178.264,11.948,-77.558
4901,-0.2031,-0.0513,-0.9897,0.854,1.404,1.709,-178.248,11.931,-77.580
4911,-0.2051,-0.0454,-0.9834,0.732,1.404,2.197,-178.237,11.915,-77.602
4921,-0.2056,-0.0420,-0.9790,0.793,1.221,2.625,-178.226,11.904,-77.629
4931,-0.2100,-0.0386,-0.9761,1.038,1.282,2.747,-178.220,11.893,-77.657
4941,-0.2148,-0.0356,-0.9790,1.221,1.953,2.502,-178.209,11.882,-77.684
4951,-0.2144,-0.0337,-0.9834,1.221,2.930,2.197,-178.198,11.860,-77.706
4961,-0.2129,-0.0327,-0.9893,1.282,3.479,1.953,-178.193,11.827,-77.728
4971,-0.2114,-0.0308,-0.9956,1.343,3.296,1.770,-178.182,11.794,-77.745
4981,-0.2104,-0.0308,-1.0005,1.343,2.441,1.709,-178.171,11.772,-77.761
4992,-0.2109,-0.0303,-1.0059,1.160,1.587,1.709,-178.165,11.761,-77.783
5001,-0.2119,-0.0288,-1.0073,0.732,0.916,1.587,-178.165,11.750,-77.800
5011,-0.2129,-0.0259,-1.0059,0.183,0.671,1.404,-178.165,11.744,-77.811
5021,-0.2144,-0.0264,-1.0117,-0.122,0.610,1.160,-178.176,11.744,-77.827
5031,-0.2158,-0.0283,-1.0151,-0.244,0.488,0.854,-178.182,11.739,-77.833
5041,-0.2148,-0.0308,-1.0156,-0.366,0.061,0.549,-178.187,11.744,-77.838
5051,-0.2168,-0.0322,-1.0161,-0.549,-0.793,0.488,-178.193,11.755,-77.844
5061,-0.2173,-0.0361,-1.0151,-1.099,-1.831,0.671,-178.204,11.777,-77.849
5071,-0.2207,-0.0312,-1.0112,-1.831,-2.930,0.977,-178.226,11.810,-77.860
5081,-0.2241,-0.0283,-1.0034,-2.502,-3.845,1.282,-178.253,11.854,-77.871
5091,-0.2261,-0.0278,-0.9995,-3.174,-4.456,1.343,-178.286,11.909,-77.882
5101,-0.2266,-0.0244,-0.9951,-3.723,-4.822,1.160,-178.330,11.964,-77.893
5111,-0.2271,-0.0244,-0.9922,-4.395,-5.066,0.977,-178.380,12.025,-77.904
5121,-0.2300,-0.0195,-0.9873,-5.188,-5.310,0.916,-178.434,12.090,-77.910
5131,-0.2314,-0.0171,-0.9844,-5.737,-5.371,0.854,-178.500,12.156,-77.915
5141,-0.2305,-0.0127,-0.9839,-5.859,-5.310,0.610,-178.566,12.217,-77.921
5151,-0.2285,-0.0132,-0.9790,-5.615,-5.249,0.122,-178.627,12.277,-77.921
5161,-0.2271,-0.0107,-0.9756,-5.554,-5.066,-0.305,-178.687,12.338,-77.921
5171,-0.2280,-0.0078,-0.9751,-5.798,-4.883,-0.549,-178.753,12.393,-77.910
5181,-0.2334,-0.0054,-0.9683,-6.042,-4.761,-0.977,-178.819,12.453,-77.899
5191,-0.2393,-0.0083,-0.9688,-6.165,-4.395,-1.709,-178.885,12.508,-77.882
5201,-0.2402,-0.0068,-0.9648,-6.104,-3.967,-2.563,-178.945,12.563,-77.855
5211,-0.2407,-0.0098,-0.9648,-5.676,-3.235,-3.296,-179.000,12.607,-77.822
5221,-0.2329,-0.0132,-0.9697,-4.944,-2.502,-3.967,-179.044,12.640,-77.778
5231,-0.2256,-0.0107,-0.9712,-3.967,-1.953,-4.395,-179.077,12.667,-77.734
5241,-0.2197,-0.0146,-0.9761,-2.808,-1.587,-4.517,-179.094,12.678,-77.690
5251,-0.2183,-0.0146,-0.9785,-1.526,-1.099,-4.944,-179.099,12.689,-77.635
5261,-0.2163,-0.0151,-0.9839,-0.427,-0.488,-5.432,-179.088,12.689,-77.580
5271,-0.2104,-0.0190,-0.9844,0.305,0.183,-6.042,-179.072,12.684,-77.520
5281,-0.2056,-0.0210,-0.9868,0.610,0.488,-6.287,-179.050,12.667,-77.454
5291,-0.2031,-0.0269,-0.9937,0.488,0.549,-6.348,-179.022,12.651,-77.388
5301,-0.1958,-0.0342,-1.0024,0.122,0.427,-6.104,-179.000,12.629,-77.327
5311,-0.1880,-0.0356,-1.0078,-0.244,0.549,-5.798,-178.978,12.601,-77.267
5321,-0.1870,-0.0405,-1.0137,-0.305,0.671,-5.310,-178.956,12.574,-77.212
5331,-0.1855,-0.0479,-1.0161,-0.122,0.671,-4.700,-178.929,12.541,-77.168
5341,-0.1880,-0.0571,-1.0103,0.122,0.366,-3.845,-178.901,12.519,-77.124
5351,-0.1904,-0.0659,-1.0117,-0.305,-0.610,-2.930,-178.868,12.502,-77.097
5361,-0.1953,-0.0703,-1.0068,-1.221,-1.709,-1.770,-178.852,12.502,-77.080
5371,-0.2002,-0.0728,-0.9990,-2.563,-2.625,-0.610,-178.841,12.519,-77.069
5381,-0.2046,-0.0674,-0.9927,-3.662,-3.174,0.366,-178.852,12.541,-77.075
5391,-0.2085,-0.0649,-0.9863,-4.028,-3.357,1.099,-178.868,12.568,-77.086
5401,-0.2158,-0.0610,-0.9780,-3.967,-3.296,1.770,-178.885,12.601,-77.102
5411,-0.2178,-0.0596,-0.9746,-3.906,-2.991,2.563,-178.907,12.629,-77.130
5421,-0.2197,-0.0537,-0.9702,-3.845,-2.441,3.418,-178.934,12.656,-77.162
5431,-0.2207,-0.0493,-0.9634,-3.601,-1.831,4.150,-178.956,12.678,-77.206
5441,-0.2192,-0.0459,-0.9644,-3.113,-1.099,4.517,-178.984,12.689,-77.250
5451,-0.2187,-0.0376,-0.9619,-2.808,-0.305,5.005,-179.011,12.695,-77.300
5461,-0.2187,-0.0269,-0.9585,-2.563,0.305,5.554,-179.039,12.695,-77.360
5471,-0.2178,-0.0215,-0.9663,-1.587,1.282,5.493,-179.066,12.684,-77.415
5481,-0.2158,-0.0205,-0.9736,-0.671,2.319,5.066,-179.083,12.656,-77.470
5492,-0.2158,-0.0107,-0.9756,-0.671,2.991,4.944,-179.099,12.629,-77.520
5501,-0.2148,-0.0054,-0.9814,-0.732,3.235,5.005,-179.127,12.596,-77.569
5511,-0.2109,-0.0054,-0.9941,0.061,3.418,4.578,-179.143,12.552,-77.618
5521,-0.2158,-0.0015,-0.9985,0.427,3.357,4.150,-179.154,12.519,-77.662
5531,-0.2217,0.0024,-1.0005,0.610,3.296,3.906,179.857,12.486,-77.701
5541,-0.2212,-0.0049,-1.0088,1.404,3.357,3.174,-179.720,12.453,-77.734
5551,-0.2192,-0.0132,-1.0122,1.526,2.930,2.747,-179.709,12.420,-77.761
5561,-0.2305,-0.0161,-1.0117,0.000,1.831,3.235,-179.709,12.404,-77.794
5571,-0.2407,-0.0151,-1.0107,-1.770,0.854,3.906,-179.725,12.409,-77.833
5581,-0.2402,-0.0107,-1.0088,-2.808,-0.061,4.028,-179.758,12.420,-77.877
5591,-0.2354,-0.0020,-1.0068,-3.296,-0.916,3.784,-179.802,12.437,-77.915
5601,-0.2383,0.0024,-1.0015,-2.808,-1.526,3.601,179.857,12.458,-77.953
5611,-0.2402,0.0000,-0.9951,-1.953,-1.648,3.235,179.835,12.486,-77.986
5621,-0.2363,-0.0029,-0.9912,-1.526,-1.709,2.563,-179.830,12.513,-78.014
5631,-0.2358,-0.0034,-0.9868,-2.136,-2.014,1.770,-179.852,12.541,-78.030
5641,-0.2334,-0.0024,-0.9854,-2.747,-2.258,0.977,-179.885,12.574,-78.041
5651,-0.2261,-0.0005,-0.9834,-3.052,-2.380,0.427,-179.912,12.601,-78.041
5661,-0.2217,0.0039,-0.9839,-3.174,-2.380,0.061,179.769,12.623,-78.047
5671,-0.2148,0.0029,-0.9873,-2.747,-2.136,-0.366,179.742,12.640,-78.041
5681,-0.2109,0.0049,-0.9893,-2.014,-1.770,-0.916,179.725,12.656,-78.030
5691,-0.2153,0.0034,-0.9927,-1.526,-1.404,-1.465,179.714,12.662,-78.014
5701,-0.2187,-0.0024,-0.9937,-1.221,-1.099,-2.014,-179.857,12.673,-77.997
5711,-0.2197,-0.0078,-0.9888,-1.465,-1.160,-2.380,-179.863,12.684,-77.970
5721,-0.2241,-0.0127,-0.9863,-2.380,-1.770,-2.319,-179.874,12.700,-77.948
5731,-0.2275,-0.0146,-0.9863,-3.174,-2.380,-2.136,-179.896,12.728,-77.926
5741,-0.2271,-0.0137,-0.9897,-3.296,-2.625,-2.014,-179.918,12.755,-77.904
5751,-0.2344,-0.0146,-0.9907,-2.930,-2.625,-2.136,-179.934,12.788,-77.882
5761,-0.2363,-0.0195,-0.9878,-2.136,-2.502,-2.258,-179.940,12.816,-77.860
5771,-0.2393,-0.0239,-0.9873,-1.465,-2.563,-2.319,-179.934,12.854,-77.838
5781,-0.2334,-0.0205,-0.9834,-1.709,-3.052,-2.075,-179.934,12.887,-77.816
5791,-0.2363,-0.0239,-0.9883,-2.014,-3.418,-2.136,-179.934,12.925,-77.794
5801,-0.2358,-0.0283,-0.9883,-2.625,-3.357,-2.136,-179.940,12.964,-77.772
5811,-0.2329,-0.0244,-0.9829,-3.418,-3.052,-2.075,-179.956,12.997,-77.750
5821,-0.2251,-0.0229,-0.9868,-3.357,-2.686,-2.014,-179.973,13.024,-77.728
5831,-0.2158,-0.0200,-0.9819,-2.869,-2.563,-1.953,-179.984,13.041,-77.706
5841,-0.2197,-0.0200,-0.9805,-2.258,-3.113,-1.709,-179.995,13.068,-77.690
5851,-0.2197,-0.0156,-0.9775,-2.808,-3.601,-1.282,179.995,13.101,-77.679
5861,-0.2231,-0.0146,-0.9775,-2.441,-3.296,-1.099,179.978,13.129,-77.668
5871,-0.2241,-0.0103,-0.9785,-2.686,-2.686,-1.160,179.962,13.156,-77.657
5881,-0.2261,-0.0020,-0.9766,-2.502,-1.892,-1.282,179.940,13.173,-77.640
5891,-0.2271,-0.0059,-0.9800,-2.136,-1.648,-1.343,179.929,13.189,-77.629
5901,-0.2319,-0.0093,-0.9829,-1.709,-0.977,-1.587,179.918,13.200,-77.613
5912,-0.2319,-0.0137,-0.9863,-1.465,-0.610,-1.648,179.918,13.206,-77.596
5921,-0.2295,-0.0176,-0.9800,-1.831,-0.549,-1.526,179.918,13.211,-77.580
5931,-0.2314,-0.0195,-0.9790,-1.892,-0.916,-1.282,179.912,13.222,-77.563
5941,-0.2397,-0.0210,-0.9731,-2.014,-1.221,-0.854,179.907,13.239,-77.558
5951,-0.2446,-0.0190,-0.9751,-1.831,-1.099,-0.427,179.901,13.255,-77.552
5961,-0.2427,-0.0156,-0.9746,-1.099,-0.305,-0.183,179.901,13.266,-77.552
5971,-0.2368,-0.0127,-0.9766,-0.366,0.305,0.122,179.907,13.266,-77.552
5981,-0.2339,-0.0137,-0.9731,0.366,0.610,0.366,179.918,13.266,-77.558
5992,-0.2295,-0.0112,-0.9766,0.732,0.488,0.488,179.934,13.260,-77.563
6001,-0.2261,-0.0088,-0.9814,0.244,0.061,0.732,179.940,13.255,-77.569
6011,-0.2241,-0.0024,-0.9844,-0.366,0.061,0.854,179.934,13.250,-77.580
6021,-0.2212,-0.0005,-0.9858,-0.610,0.427,0.854,179.929,13.239,-77.585
6031,-0.2163,0.0005,-0.9868,-0.427,1.038,0.793,179.967,13.222,-77.596
6041,-0.2119,0.0044,-0.9917,0.183,1.587,0.793,179.967,13.195,-77.602
6051,-0.2090,0.0039,-0.9946,0.732,1.953,0.854,179.973,13.162,-77.613
6061,-0.2085,-0.0029,-1.0024,1.221,2.319,0.854,-179.830,13.123,-77.618
6071,-0.2061,-0.0039,-1.0098,1.038,2.441,0.916,-179.819,13.085,-77.629
6081,-0.2070,-0.0068,-1.0137,0.427,2.258,1.160,-179.819,13.046,-77.640
6091,-0.2119,-0.0132,-1.0171,-0.061,1.831,1.160,-179.813,13.013,-77.651
6101,-0.2173,-0.0146,-1.0176,-0.610,0.977,1.160,-179.819,12.997,-77.668
6111,-0.2236,-0.0166,-1.0161,-1.282,-0.061,1.343,-179.824,12.991,-77.679
6121,-0.2285,-0.0205,-1.0112,-1.587,-1.099,1.648,-179.835,13.002,-77.695
6131,-0.2310,-0.0239,-1.0078,-1.953,-2.197,1.953,-179.846,13.019,-77.717
6141,-0.2358,-0.0215,-0.9990,-2.319,-3.052,2.319,-179.863,13.052,-77.739
6151,-0.2412,-0.0210,-0.9897,-2.502,-3.540,2.747,-179.885,13.096,-77.767
6161,-0.2500,-0.0132,-0.9673,-2.625,-3.784,3.418,-179.912,13.145,-77.805
6171,-0.2500,-0.0034,-0.9619,-2.625,-3.296,3.540,-179.945,13.195,-77.838
6181,-0.2456,0.0054,-0.9551,-2.319,-2.502,3.418,179.676,13.233,-77.877
6191,-0.2412,0.0088,-0.9536,-1.587,-1.526,3.174,179.648,13.255,-77.910
6201,-0.2402,0.0078,-0.9507,-0.854,-0.610,2.747,179.632,13.271,-77.937
6211,-0.2373,0.0049,-0.9502,-0.671,0.305,2.319,179.621,13.277,-77.959
6221,-0.2378,0.0020,-0.9507,-0.732,1.160,2.197,179.610,13.271,-77.981
6231,-0.2383,0.0059,-0.9585,-0.916,2.136,2.136,179.599,13.255,-78.003
6241,-0.2383,0.0073,-0.9634,-0.366,3.357,1.953,179.588,13.228,-78.025
6251,-0.2363,0.0073,-0.9717,0.732,4.517,1.709,179.594,13.189,-78.041
6261,-0.2334,0.0054,-0.9873,2.075,5.249,1.282,179.610,13.140,-78.052
6271,-0.2310,-0.0005,-0.9951,3.174,5.310,0.793,-179.967,13.085,-78.063
6281,-0.2280,-0.0054,-1.0049,3.235,4.517,0.671,-179.934,13.035,-78.069
6291,-0.2241,-0.0049,-1.0068,2.258,3.174,0.793,-179.912,13.002,-78.074
6301,-0.2295,-0.0029,-1.0068,0.916,1.770,1.099,-179.907,12.980,-78.085
6311,-0.2354,-0.0015,-1.0068,-0.305,0.610,1.282,-179.912,12.975,-78.102
6321,-0.2383,0.0029,-1.0054,-1.099,0.061,1.282,179.830,12.980,-78.113
6331,-0.2383,0.0044,-1.0020,-1.404,-0.183,1.221,179.813,12.986,-78.124
6341,-0.2378,0.0059,-0.9932,-1.343,-0.305,1.160,179.797,12.991,-78.140
6351,-0.2383,0.0088,-0.9888,-1.099,-0.488,1.160,179.780,13.002,-78.151
6361,-0.2363,0.0132,-0.9854,-0.916,-0.793,1.221,179.764,13.019,-78.162
6371,-0.2344,0.0166,-0.9854,-0.793,-0.732,1.160,179.742,13.030,-78.173
6381,-0.2344,0.0190,-0.9854,-0.793,-0.244,0.732,179.725,13.035,-78.184
6391,-0.2314,0.0200,-0.9839,-1.038,0.244,0.305,179.703,13.035,-78.184
6401,-0.2300,0.0200,-0.9839,-1.099,0.610,-0.183,179.687,13.030,-78.184
6411,-0.2280,0.0151,-0.9873,-1.038,0.732,-0.671,179.670,13.019,-78.179
6421,-0.2275,0.0112,-0.9946,-1.038,0.793,-0.977,179.659,13.013,-78.168
6431,-0.2256,0.0107,-1.0020,-1.160,0.671,-1.038,179.648,13.002,-78.157
6441,-0.2251,0.0068,-1.0015,-1.038,0.244,-0.977,179.643,12.997,-78.146
6451,-0.2295,0.0029,-1.0034,-0.732,-0.366,-0.916,179.637,12.997,-78.135
6461,-0.2285,0.0020,-1.0044,-0.854,-0.854,-0.854,179.632,13.008,-78.129
6471,-0.2295,0.0015,-1.0020,-0.916,-1.160,-0.854,179.626,13.013,-78.118
6481,-0.2285,-0.0034,-0.9956,-1.038,-1.465,-0.916,-179.802,13.030,-78.107
6492,-0.2290,-0.0063,-0.9946,-1.099,-1.831,-1.038,-179.808,13.046,-78.096
6501,-0.2256,-0.0015,-0.9907,-1.099,-2.197,-0.977,-179.819,13.068,-78.091
6511,-0.2222,-0.0005,-0.9868,-0.732,-2.502,-0.793,-179.824,13.085,-78.080
6521,-0.2202,-0.0024,-0.9844,-0.061,-2.441,-0.732,-179.824,13.107,-78.074
6531,-0.2217,-0.0054,-0.9829,0.183,-2.197,-0.671,-179.819,13.123,-78.063
6541,-0.2241,-0.0063,-0.9790,-0.122,-1.770,-0.549,-179.819,13.140,-78.058
6551,-0.2241,-0.0078,-0.9771,-0.610,-1.404,-0.366,-179.819,13.151,-78.058
6561,-0.2280,-0.0093,-0.9771,-0.854,-0.916,-0.244,-179.824,13.162,-78.052
6571,-0.2275,-0.0068,-0.9775,-0.977,-0.549,-0.305,-179.830,13.167,-78.052
6581,-0.2266,-0.0039,-0.9785,-0.671,-0.427,-0.305,-179.835,13.167,-78.047
6591,-0.2280,-0.0029,-0.9766,-0.183,-0.427,-0.305,-179.835,13.173,-78.047
6601,-0.2319,-0.0059,-0.9746,0.000,-0.366,-0.305,-179.835,13.178,-78.041
6611,-0.2324,-0.0034,-0.9736,-0.244,-0.244,-0.305,-179.835,13.184,-78.036
6621,-0.2354,-0.0044,-0.9727,-0.549,0.122,-0.122,-179.841,13.184,-78.036
6631,-0.2383,-0.0054,-0.9702,-0.610,0.610,0.000,-179.846,13.184,-78.036
6641,-0.2393,-0.0059,-0.9697,-0.366,1.221,0.061,-179.846,13.178,-78.036
6651,-0.2363,-0.0049,-0.9717,0.122,1.770,0.122,-179.841,13.167,-78.041
6661,-0.2349,-0.0049,-0.9731,0.732,2.319,0.244,-179.835,13.151,-78.041
6671,-0.2339,-0.0049,-0.9771,1.160,2.563,0.427,-179.824,13.129,-78.047
6681,-0.2334,-0.0020,-0.9800,1.282,2.563,0.488,-179.813,13.101,-78.052
6691,-0.2349,-0.0015,-0.9844,1.038,2.686,0.488,-179.802,13.079,-78.058
6701,-0.2324,0.0010,-0.9907,0.732,2.991,0.366,179.940,13.052,-78.058
6711,-0.2285,0.0024,-0.9966,0.732,3.113,0.183,179.945,13.019,-78.063
6721,-0.2266,0.0029,-0.9976,1.038,2.930,0.061,179.956,12.991,-78.063
6731,-0.2280,-0.0005,-0.9976,1.221,2.380,0.000,-179.967,12.964,-78.063
6741,-0.2300,0.0015,-1.0005,1.038,1.526,0.122,179.912,12.947,-78.063
6751,-0.2285,0.0034,-0.9995,0.671,0.916,0.183,179.918,12.936,-78.063
6761,-0.2295,0.0020,-1.0024,0.488,0.610,0.122,179.923,12.931,-78.069
6771,-0.2305,0.0020,-1.0029,0.366,0.427,0.000,179.929,12.931,-78.069
6781,-0.2300,-0.0005,-1.0010,0.122,0.183,0.000,-179.967,12.925,-78.069
6791,-0.2295,-0.0024,-1.0020,-0.305,-0.122,0.122,-179.973,12.925,-78.069
6801,-0.2295,-0.0024,-0.9990,-0.488,-0.488,0.366,-179.978,12.931,-78.069
6811,-0.2295,-0.0015,-0.9932,-0.427,-0.793,0.488,-179.978,12.942,-78.074
6821,-0.2319,-0.0034,-0.9888,-0.305,-1.038,0.549,-179.984,12.953,-78.080
6831,-0.2314,-0.0020,-0.9849,-0.305,-1.099,0.671,-179.989,12.969,-78.091
6841,-0.2319,-0.0005,-0.9819,-0.488,-1.038,0.610,-179.995,12.980,-78.096
6851,-0.2310,-0.0020,-0.9795,-0.671,-0.977,0.610,-180.000,12.991,-78.102
6861,-0.2319,0.0005,-0.9805,-0.793,-0.977,0.427,179.967,13.008,-78.107
6871,-0.2300,0.0010,-0.9771,-0.732,-0.854,0.366,179.962,13.019,-78.107
6881,-0.2300,-0.0005,-0.9780,-0.732,-0.549,0.305,-179.967,13.024,-78.113
6891,-0.2314,0.0005,-0.9756,-0.732,-0.061,0.183,179.967,13.030,-78.113
6901,-0.2310,0.0024,-0.9741,-0.427,0.488,0.061,179.962,13.024,-78.113
6911,-0.2324,0.0029,-0.9775,0.122,1.160,-0.183,179.962,13.019,-78.113
6921,-0.2339,-0.0010,-0.9824,0.488,1.770,-0.366,-179.940,13.008,-78.107
6931,-0.2319,-0.0005,-0.9854,0.549,2.197,-0.305,-179.934,12.986,-78.107
6941,-0.2271,0.0000,-0.9873,0.427,2.136,-0.122,-180.000,12.964,-78.107
6951,-0.2251,0.0000,-0.9932,0.366,1.770,0.000,-180.000,12.947,-78.107
6961,-0.2212,0.0020,-0.9985,0.305,1.465,-0.122,-179.995,12.925,-78.102
6971,-0.2187,0.0024,-1.0034,0.244,1.221,-0.244,-179.995,12.909,-78.102
6981,-0.2202,0.0059,-1.0059,0.183,1.099,-0.366,-179.995,12.892,-78.096
6992,-0.2217,0.0049,-1.0063,-0.061,0.488,-0.244,-180.000,12.881,-78.096
7001,-0.2217,0.0078,-1.0044,-0.610,-0.366,-0.122,179.989,12.881,-78.096
7011,-0.2241,0.0098,-1.0020,-1.038,-1.282,-0.183,179.973,12.892,-78.091
7021,-0.2241,0.0122,-1.0000,-1.465,-1.709,-0.366,179.956,12.903,-78.091
7031,-0.2251,0.0137,-0.9980,-1.160,-1.648,-0.732,179.940,12.920,-78.080
7041,-0.2261,0.0073,-0.9971,-0.793,-1.526,-0.977,179.929,12.931,-78.069
7051,-0.2271,0.0029,-0.9927,-0.305,-1.404,-1.160,179.929,12.947,-78.058
7061,-0.2251,0.0000,-0.9937,-0.244,-1.648,-1.404,179.929,12.964,-78.047
7071,-0.2231,-0.0049,-0.9961,-0.671,-1.770,-1.587,-179.714,12.975,-78.030
7082,-0.2207,-0.0107,-0.9941,-1.099,-2.014,-1.465,-179.720,12.991,-78.014
7091,-0.2227,-0.0137,-0.9878,-1.526,-2.258,-1.160,-179.725,13.008,-78.003
7102,-0.2246,-0.0132,-0.9854,-1.404,-2.441,-0.916,-179.736,13.030,-77.992
7112,-0.2271,-0.0151,-0.9829,-0.977,-2.502,-0.732,-179.736,13.057,-77.986
7122,-0.2275,-0.0132,-0.9819,-0.427,-2.319,-0.488,-179.736,13.079,-77.981
7132,-0.2241,-0.0083,-0.9800,-0.183,-2.136,-0.244,-179.731,13.101,-77.975
7142,-0.2222,-0.0078,-0.9761,-0.122,-1.892,-0.122,-179.731,13.118,-77.975
7152,-0.2217,-0.0093,-0.9771,-0.366,-1.526,0.000,-179.731,13.129,-77.975
7162,-0.2256,-0.0063,-0.9790,-1.038,-1.160,0.244,-179.742,13.134,-77.975
7172,-0.2280,-0.0049,-0.9766,-1.526,-0.793,0.549,-179.758,13.145,-77.981
7182,-0.2310,-0.0054,-0.9766,-1.404,-0.488,0.610,-179.775,13.151,-77.992
7192,-0.2349,-0.0029,-0.9771,-0.671,-0.122,0.366,-179.780,13.156,-77.992
7202,-0.2407,-0.0068,-0.9805,0.305,0.244,0.122,-179.775,13.162,-77.992
7212,-0.2402,-0.0122,-0.9834,0.977,0.549,0.061,-179.764,13.162,-77.997
7222,-0.2383,-0.0137,-0.9863,0.854,0.549,0.305,-179.747,13.162,-77.997
7232,-0.2373,-0.0132,-0.9854,0.305,0.122,0.610,-179.742,13.162,-78.003
7242,-0.2368,-0.0068,-0.9888,-0.244,-0.305,1.038,-179.747,13.167,-78.014
7252,-0.2349,-0.0029,-0.9902,-0.305,-0.793,1.282,-179.753,13.178,-78.030
7262,-0.2354,0.0010,-0.9917,-0.122,-1.038,1.404,179.940,13.189,-78.041
7272,-0.2368,0.0054,-0.9863,0.000,-1.099,1.465,179.934,13.206,-78.058
7282,-0.2378,0.0078,-0.9854,0.000,-1.160,1.465,179.929,13.217,-78.074
7292,-0.2412,0.0083,-0.9834,-0.427,-1.099,1.404,179.918,13.233,-78.085
7302,-0.2427,0.0103,-0.9824,-0.977,-1.038,1.221,179.896,13.250,-78.102
7312,-0.2407,0.0161,-0.9790,-1.343,-0.916,1.099,179.874,13.266,-78.113
7322,-0.2412,0.0200,-0.9819,-1.404,-0.732,1.099,179.846,13.277,-78.124
7332,-0.2437,0.0181,-0.9785,-0.977,-0.488,1.038,179.824,13.293,-78.135
7342,-0.2490,0.0195,-0.9746,-0.488,-0.244,0.793,179.808,13.304,-78.140
7352,-0.2515,0.0220,-0.9736,-0.244,-0.122,0.427,179.797,13.315,-78.146
7362,-0.2505,0.0225,-0.9761,-0.122,0.183,-0.061,179.780,13.326,-78.146
7372,-0.2485,0.0249,-0.9805,-0.183,0.610,-0.427,179.769,13.326,-78.140
7382,-0.2422,0.0278,-0.9849,-0.366,1.160,-0.732,179.753,13.321,-78.135
7392,-0.2397,0.0278,-0.9897,-0.244,1.587,-0.977,179.742,13.310,-78.124
7402,-0.2373,0.0264,-0.9932,0.183,1.526,-1.282,179.731,13.293,-78.107
7412,-0.2363,0.0332,-0.9893,0.427,0.977,-1.587,179.725,13.288,-78.091
7422,-0.2402,0.0273,-0.9932,1.221,0.244,-2.075,179.725,13.288,-78.074
7432,-0.2417,0.0181,-0.9980,1.709,0.244,-2.686,179.742,13.288,-78.047
7442,-0.2402,0.0146,-0.9990,1.282,0.488,-2.930,179.758,13.288,-78.014
7452,-0.2349,0.0117,-0.9995,0.549,0.732,-2.991,179.764,13.277,-77.981
7462,-0.2310,0.0151,-0.9956,0.000,0.366,-2.869,179.764,13.271,-77.953
7472,-0.2290,0.0127,-0.9995,0.244,-0.488,-2.869,179.769,13.271,-77.926
7482,-0.2280,0.0068,-1.0020,0.732,-1.038,-3.052,179.780,13.282,-77.893
7492,-0.2295,0.0029,-0.9937,0.549,-1.465,-2.808,179.797,13.293,-77.866
7502,-0.2339,0.0029,-0.9878,0.366,-1.587,-2.686,179.802,13.310,-77.838
7512,-0.2373,0.0029,-0.9868,0.305,-1.343,-2.747,179.813,13.321,-77.811
7522,-0.2393,0.0015,-0.9956,0.366,-1.038,-2.991,179.824,13.337,-77.778
7532,-0.2368,0.0010,-0.9976,0.793,-0.427,-3.296,179.841,13.343,-77.745
7542,-0.2329,-0.0020,-1.0005,1.282,-0.183,-3.418,-179.885,13.337,-77.706
7552,-0.2305,-0.0059,-1.0073,1.709,-0.427,-3.357,-179.857,13.337,-77.673
7562,-0.2295,-0.0083,-1.0039,1.953,-1.282,-3.357,-179.830,13.348,-77.640
7572,-0.2305,-0.0078,-1.0034,1.770,-2.563,-3.235,-179.802,13.370,-77.607
7582,-0.2305,-0.0049,-1.0054,1.038,-3.784,-2.930,-179.780,13.403,-77.574
7592,-0.2324,-0.0029,-0.9990,0.000,-4.456,-2.747,-179.775,13.442,-77.547
7602,-0.2300,0.0024,-1.0000,-1.099,-4.517,-2.747,179.857,13.480,-77.520
7612,-0.2227,0.0103,-0.9990,-2.197,-4.517,-2.625,179.835,13.519,-77.492
7622,-0.2202,0.0117,-1.0020,-2.441,-4.639,-2.563,179.813,13.552,-77.465
7632,-0.2227,0.0112,-1.0010,-2.136,-5.005,-2.625,179.797,13.590,-77.437
7642,-0.2256,0.0083,-0.9985,-1.953,-5.310,-2.930,179.780,13.634,-77.410
7652,-0.2329,0.0034,-0.9966,-1.953,-5.554,-3.418,179.769,13.683,-77.377
7662,-0.2407,-0.0044,-0.9951,-2.075,-5.676,-3.845,-179.742,13.744,-77.333
7672,-0.2427,-0.0093,-0.9956,-2.380,-5.859,-4.089,-179.753,13.799,-77.294
7682,-0.2466,-0.0146,-0.9917,-2.625,-6.165,-4.089,-179.764,13.859,-77.250
7692,-0.2456,-0.0200,-0.9897,-2.686,-6.531,-3.967,-179.775,13.925,-77.212
7702,-0.2446,-0.0234,-0.9844,-2.686,-6.775,-3.662,-179.780,13.997,-77.173
7712,-0.2427,-0.0259,-0.9814,-2.869,-6.897,-3.113,-179.786,14.063,-77.141
7722,-0.2476,-0.0283,-0.9727,-2.930,-6.958,-2.441,-179.797,14.134,-77.113
7732,-0.2505,-0.0283,-0.9653,-2.808,-6.836,-1.953,-179.802,14.205,-77.091
7742,-0.2495,-0.0278,-0.9609,-2.808,-6.775,-1.526,-179.813,14.277,-77.075
7752,-0.2480,-0.0259,-0.9541,-3.296,-6.714,-1.099,-179.830,14.343,-77.064
7762,-0.2437,-0.0249,-0.9463,-3.967,-6.348,-0.610,-179.852,14.409,-77.058
7772,-0.2422,-0.0181,-0.9429,-4.211,-5.554,-0.244,-179.885,14.464,-77.058
7782,-0.2432,-0.0122,-0.9375,-4.089,-4.517,0.122,-179.918,14.507,-77.058
7792,-0.2446,-0.0112,-0.9380,-2.991,-2.869,0.000,-179.940,14.535,-77.058
7802,-0.2451,-0.0073,-0.9316,-1.404,-1.160,-0.305,-179.951,14.551,-77.053
7812,-0.2485,-0.0063,-0.9307,0.061,0.183,-0.549,-179.945,14.551,-77.047
7822,-0.2505,-0.0127,-0.9375,1.404,1.587,-0.916,-179.923,14.540,-77.042
7832,-0.2534,-0.0171,-0.9438,2.075,2.869,-1.221,-179.890,14.518,-77.025
7842,-0.2637,-0.0215,-0.9526,1.709,4.028,-1.160,-179.857,14.485,-77.014
7852,-0.2676,-0.0249,-0.9644,1.648,5.249,-0.977,-179.824,14.447,-77.003
7862,-0.2607,-0.0288,-0.9790,2.380,6.104,-0.916,-179.786,14.392,-76.998
7872,-0.2485,-0.0293,-0.9932,2.930,5.920,-0.427,-179.742,14.326,-76.992
7882,-0.2388,-0.0288,-1.0024,2.808,4.822,0.793,-179.698,14.271,-76.998
7892,-0.2378,-0.0273,-1.0117,2.319,3.418,2.319,-179.670,14.227,-77.025
7902,-0.2402,-0.0181,-1.0122,0.977,1.892,3.662,-179.665,14.200,-77.064
7913,-0.2451,-0.0039,-1.0107,-0.366,1.221,4.456,-179.676,14.183,-77.108
7922,-0.2490,0.0063,-1.0068,-1.221,0.916,4.578,179.637,14.172,-77.157
7932,-0.2515,0.0151,-1.0010,-1.587,0.549,4.395,179.604,14.161,-77.201
7942,-0.2500,0.0205,-0.9966,-1.404,0.061,3.967,179.572,14.161,-77.239
7952,-0.2544,0.0200,-0.9951,-1.343,-0.488,3.418,179.544,14.167,-77.278
7962,-0.2593,0.0186,-0.9907,-1.282,-0.854,2.747,179.517,14.183,-77.305
7972,-0.2642,0.0156,-0.9858,-1.282,-0.793,2.136,179.495,14.200,-77.327
7982,-0.2637,0.0176,-0.9819,-1.343,-0.732,1.770,179.473,14.211,-77.344
7992,-0.2637,0.0215,-0.9790,-1.160,-0.977,1.709,179.451,14.233,-77.366
8002,-0.2632,0.0249,-0.9766,-0.916,-0.793,1.648,179.429,14.249,-77.382
8012,-0.2593,0.0264,-0.9766,-0.793,-0.366,1.343,179.407,14.255,-77.393
8022,-0.2559,0.0264,-0.9800,-0.793,-0.122,0.854,179.385,14.260,-77.404
8032,-0.2529,0.0293,-0.9800,-0.610,-0.061,0.427,179.368,14.266,-77.410
8042,-0.2544,0.0303,-0.9761,-0.427,-0.122,-0.061,179.352,14.271,-77.404
8052,-0.2539,0.0288,-0.9741,-0.305,-0.427,-0.732,179.341,14.277,-77.399
8062,-0.2520,0.0229,-0.9775,-0.549,-0.549,-1.465,179.330,14.282,-77.382
8072,-0.2500,0.0229,-0.9790,-0.977,-0.305,-1.953,179.319,14.288,-77.366
8082,-0.2446,0.0234,-0.9771,-1.404,0.183,-2.197,179.308,14.282,-77.344
8092,-0.2407,0.0210,-0.9771,-1.404,1.038,-2.319,179.291,14.271,-77.316
8102,-0.2417,0.0151,-0.9800,-0.549,1.831,-2.502,179.291,14.249,-77.289
8112,-0.2388,0.0103,-0.9810,0.610,2.258,-2.808,179.308,14.222,-77.261
8122,-0.2358,0.0044,-0.9854,1.831,2.258,-2.991,179.335,14.189,-77.228
8132,-0.2383,-0.0044,-0.9902,2.563,2.075,-3.113,-179.742,14.161,-77.201
8142,-0.2373,-0.0093,-0.9956,2.380,1.770,-3.052,-179.709,14.139,-77.168
8152,-0.2363,-0.0146,-0.9971,1.770,1.282,-2.930,-179.681,14.117,-77.135
8162,-0.2358,-0.0210,-0.9961,1.038,0.916,-2.686,-179.654,14.101,-77.108
8172,-0.2397,-0.0229,-0.9946,0.488,0.488,-2.319,-179.632,14.090,-77.086
8182,-0.2427,-0.0244,-0.9941,0.183,0.183,-1.770,-179.615,14.084,-77.069
8192,-0.2412,-0.0244,-0.9873,0.366,-0.061,-1.099,-179.599,14.079,-77.058
8202,-0.2383,-0.0234,-0.9775,0.671,-0.427,-0.244,-179.583,14.079,-77.053
8212,-0.2368,-0.0215,-0.9712,0.793,-0.610,0.488,-179.566,14.084,-77.058
8222,-0.2427,-0.0234,-0.9702,0.549,-0.427,1.160,-179.555,14.084,-77.069
8232,-0.2446,-0.0146,-0.9707,0.061,0.366,1.587,-179.555,14.084,-77.086
8242,-0.2427,-0.0103,-0.9751,0.061,1.465,1.770,-179.555,14.068,-77.108
8252,-0.2427,-0.0137,-0.9766,0.916,2.441,1.709,-179.550,14.046,-77.124
8262,-0.2417,-0.0117,-0.9766,1.282,2.380,1.953,-179.539,14.019,-77.146
8272,-0.2437,-0.0107,-0.9800,1.526,1.587,2.258,-179.528,14.002,-77.168
8282,-0.2461,-0.0068,-0.9849,1.404,0.732,2.441,-179.522,13.997,-77.190
8292,-0.2476,-0.0039,-0.9863,0.488,0.305,2.686,-179.522,13.997,-77.217
8302,-0.2485,0.0010,-0.9878,-0.366,0.549,2.869,179.940,13.991,-77.250
8312,-0.2471,0.0059,-0.9893,-0.732,0.977,2.991,179.923,13.980,-77.278
8322,-0.2485,0.0068,-0.9873,-0.549,1.160,3.052,179.907,13.969,-77.311
8332,-0.2480,0.0093,-0.9839,-0.305,0.977,3.174,179.890,13.964,-77.344
8342,-0.2505,0.0112,-0.9814,0.122,0.549,3.174,179.879,13.958,-77.377
8352,-0.2520,0.0146,-0.9819,0.244,0.183,2.991,179.868,13.964,-77.410
8362,-0.2524,0.0161,-0.9814,-0.122,0.244,2.747,179.852,13.964,-77.437
8372,-0.2549,0.0151,-0.9800,-0.488,0.549,2.441,179.835,13.964,-77.459
8382,-0.2563,0.0171,-0.9780,-0.732,0.977,2.197,179.813,13.964,-77.481
8392,-0.2563,0.0181,-0.9785,-0.732,1.282,1.770,179.791,13.958,-77.503
8402,-0.2563,0.0210,-0.9785,-0.427,1.404,1.343,179.775,13.953,-77.514
8412,-0.2568,0.0210,-0.9810,0.183,1.587,0.977,179.764,13.942,-77.525
8422,-0.2539,0.0200,-0.9849,0.732,1.770,0.488,179.758,13.931,-77.531
8432,-0.2480,0.0176,-0.9883,0.916,1.831,0.061,179.764,13.914,-77.531
8442,-0.2461,0.0142,-0.9883,0.732,1.587,-0.305,179.764,13.898,-77.531
8452,-0.2441,0.0063,-0.9912,0.427,1.160,-0.488,179.769,13.887,-77.525
8462,-0.2417,0.0029,-0.9897,-0.061,0.671,-0.610,179.769,13.876,-77.514
8472,-0.2402,0.0000,-0.9873,-0.671,0.305,-0.488,179.764,13.876,-77.514
8482,-0.2412,-0.0029,-0.9844,-0.854,0.122,-0.366,-179.824,13.870,-77.509
8493,-0.2417,-0.0034,-0.9824,-0.732,0.061,-0.183,-179.835,13.870,-77.509
8502,-0.2397,-0.0024,-0.9814,-0.366,0.183,0.061,-179.835,13.865,-77.509
8512,-0.2378,0.0010,-0.9771,0.061,0.427,0.305,179.940,13.859,-77.509
8522,-0.2354,0.0020,-0.9756,0.366,0.732,0.427,179.940,13.848,-77.514
8532,-0.2363,0.0049,-0.9756,0.366,0.977,0.610,179.940,13.837,-77.520
8542,-0.2383,0.0024,-0.9800,0.488,1.404,0.732,179.945,13.821,-77.531
8552,-0.2363,0.0098,-0.9766,0.244,1.709,0.854,179.940,13.804,-77.536
8562,-0.2349,0.0127,-0.9775,0.366,1.770,0.854,179.934,13.782,-77.547
8572,-0.2373,0.0098,-0.9814,1.221,2.075,0.488,179.940,13.760,-77.552
8582,-0.2407,0.0073,-0.9839,1.587,2.319,0.183,179.951,13.738,-77.552
8592,-0.2407,0.0039,-0.9854,1.709,2.747,-0.122,179.967,13.711,-77.552
8602,-0.2417,0.0015,-0.9863,1.770,2.930,-0.366,179.984,13.683,-77.547
8612,-0.2432,0.0034,-0.9902,1.648,2.747,-0.366,-180.000,13.656,-77.542
8622,-0.2422,0.0024,-0.9922,1.587,2.380,-0.244,-179.984,13.634,-77.542
8632,-0.2402,0.0044,-0.9961,1.709,2.136,-0.183,-179.973,13.612,-77.542
8642,-0.2402,0.0059,-0.9941,2.014,1.831,-0.122,-179.956,13.590,-77.536
8652,-0.2393,0.0020,-0.9946,2.258,1.587,-0.244,-179.934,13.574,-77.536
8662,-0.2373,0.0020,-0.9956,2.136,1.587,-0.427,-179.912,13.557,-77.531
8672,-0.2363,0.0000,-0.9941,1.709,1.404,-0.488,-179.896,13.541,-77.525
8682,-0.2349,-0.0029,-0.9927,1.282,1.038,-0.549,-179.830,13.530,-77.520
8692,-0.2354,-0.0039,-0.9917,0.854,0.427,-0.610,-179.819,13.524,-77.514
8702,-0.2349,-0.0049,-0.9883,0.610,-0.183,-0.610,-179.808,13.524,-77.509
8712,-0.2349,-0.0073,-0.9873,0.671,-0.427,-0.549,-179.797,13.530,-77.503
8722,-0.2402,-0.0098,-0.9814,0.610,-0.427,-0.488,-179.786,13.535,-77.498
8732,-0.2432,-0.0107,-0.9771,0.427,-0.122,-0.427,-179.780,13.541,-77.492
8742,-0.2437,-0.0098,-0.9751,0.305,0.427,-0.305,-179.769,13.541,-77.492
8752,-0.2412,-0.0078,-0.9741,0.427,0.977,-0.305,-179.764,13.535,-77.487
8762,-0.2412,-0.0078,-0.9766,0.854,1.404,-0.305,-179.753,13.524,-77.481
8772,-0.2393,-0.0063,-0.9795,1.404,1.526,-0.427,-179.736,13.508,-77.481
8782,-0.2358,-0.0083,-0.9790,1.770,1.465,-0.549,-179.714,13.497,-77.476
8792,-0.2329,-0.0103,-0.9795,1.648,1.221,-0.305,-179.692,13.480,-77.470
8802,-0.2334,-0.0132,-0.9790,1.160,0.977,-0.122,-179.676,13.475,-77.470
8812,-0.2324,-0.0107,-0.9805,0.610,1.160,-0.122,-179.670,13.458,-77.470
8822,-0.2344,-0.0068,-0.9785,0.427,1.526,-0.183,-179.665,13.447,-77.465
8832,-0.2339,-0.0068,-0.9795,0.671,2.014,-0.183,-179.654,13.425,-77.465
8842,-0.2334,-0.0083,-0.9805,1.160,2.258,-0.183,-179.643,13.403,-77.465
8852,-0.2334,-0.0107,-0.9824,1.343,2.197,-0.122,-179.626,13.381,-77.459
8862,-0.2349,-0.0103,-0.9839,1.282,1.953,0.000,-179.610,13.359,-77.459
8872,-0.2373,-0.0103,-0.9839,1.099,1.953,0.061,-179.599,13.343,-77.465
8882,-0.2349,-0.0107,-0.9844,0.916,2.197,0.000,-179.588,13.321,-77.465
8892,-0.2329,-0.0093,-0.9849,1.160,2.686,-0.061,-179.577,13.293,-77.465
8902,-0.2314,-0.0107,-0.9854,1.465,3.052,-0.183,-179.555,13.266,-77.459
8912,-0.2290,-0.0132,-0.9873,1.648,2.991,-0.183,-179.539,13.233,-77.459
8922,-0.2314,-0.0127,-0.9883,1.587,2.747,-0.061,-179.517,13.206,-77.459
8932,-0.2319,-0.0122,-0.9878,1.282,2.441,0.183,-179.506,13.184,-77.459
8942,-0.2285,-0.0078,-0.9844,0.977,2.258,0.366,-179.495,13.156,-77.465
8952,-0.2261,-0.0044,-0.9839,0.916,2.258,0.366,-179.489,13.134,-77.470
8962,-0.2256,-0.0044,-0.9839,1.038,2.319,0.305,-179.484,13.107,-77.470
8972,-0.2266,-0.0054,-0.9863,1.343,2.686,0.183,-179.473,13.079,-77.476
8982,-0.2271,-0.0078,-0.9834,1.282,3.113,0.000,-179.462,13.046,-77.476
8993,-0.2261,-0.0068,-0.9849,1.160,3.418,-0.122,-179.451,13.013,-77.476
9002,-0.2236,-0.0073,-0.9893,1.404,3.662,-0.122,-179.440,12.975,-77.470
9012,-0.2251,-0.0093,-0.9932,1.770,3.662,-0.244,-179.418,12.936,-77.470
9022,-0.2222,-0.0098,-0.9966,2.075,3.357,-0.427,-179.401,12.898,-77.465
9032,-0.2197,-0.0112,-0.9946,2.075,2.686,-0.549,-179.374,12.870,-77.459
9042,-0.2197,-0.0112,-0.9946,1.587,1.892,-0.366,-179.357,12.843,-77.459
9052,-0.2207,-0.0112,-0.9946,1.099,1.221,-0.244,-179.346,12.832,-77.454
9062,-0.2212,-0.0103,-0.9917,0.671,1.160,-0.183,-179.341,12.816,-77.454
9072,-0.2192,-0.0098,-0.9912,0.549,1.465,-0.244,-179.335,12.799,-77.454
9082,-0.2173,-0.0103,-0.9907,0.916,1.892,-0.305,-179.330,12.772,-77.448
9092,-0.2187,-0.0161,-0.9932,1.404,2.258,-0.305,-179.308,12.750,-77.443
9102,-0.2183,-0.0190,-0.9956,1.770,2.258,-0.183,-179.286,12.722,-77.443
9112,-0.2192,-0.0195,-0.9966,1.709,1.831,-0.061,-179.269,12.700,-77.443
9122,-0.2222,-0.0234,-0.9990,1.587,1.282,0.244,-179.247,12.689,-77.448
9132,-0.2241,-0.0215,-1.0005,1.282,0.854,0.549,-179.231,12.678,-77.454
9142,-0.2261,-0.0200,-1.0010,1.038,0.671,0.793,-179.220,12.673,-77.459
9152,-0.2275,-0.0210,-1.0010,0.916,0.427,0.916,-179.209,12.667,-77.470
9162,-0.2271,-0.0186,-1.0015,0.916,0.244,1.099,-179.198,12.667,-77.481
9172,-0.2271,-0.0195,-1.0000,0.916,-0.122,1.282,-179.187,12.667,-77.492
9182,-0.2256,-0.0171,-0.9995,0.793,-0.549,1.343,-179.182,12.678,-77.509
9192,-0.2300,-0.0142,-0.9976,0.488,-1.038,1.526,-179.182,12.689,-77.525
9202,-0.2314,-0.0122,-0.9966,0.122,-1.465,1.648,-179.182,12.706,-77.542
9212,-0.2329,-0.0103,-0.9937,-0.122,-1.709,1.709,-179.193,12.728,-77.558
9222,-0.2329,-0.0098,-0.9961,-0.305,-1.770,1.587,-179.198,12.750,-77.574
9232,-0.2334,-0.0073,-0.9937,-0.427,-1.770,1.465,-179.209,12.777,-77.585
9242,-0.2339,-0.0073,-0.9902,-0.488,-1.831,1.465,-179.220,12.799,-77.602
9252,-0.2354,-0.0049,-0.9888,-0.610,-1.953,1.465,-179.236,12.821,-77.618
9262,-0.2344,-0.0034,-0.9834,-0.854,-2.136,1.343,-179.253,12.849,-77.629
9272,-0.2363,0.0020,-0.9775,-1.160,-2.258,1.282,179.885,12.881,-77.646
9282,-0.2378,0.0068,-0.9766,-1.465,-2.075,1.221,179.863,12.909,-77.657
9292,-0.2344,0.0083,-0.9771,-1.587,-1.709,0.977,179.841,12.931,-77.668
9302,-0.2344,0.0112,-0.9751,-1.648,-1.343,0.732,179.819,12.953,-77.673
9312,-0.2329,0.0122,-0.9761,-1.465,-0.916,0.366,179.797,12.964,-77.679
9322,-0.2305,0.0112,-0.9761,-1.038,-0.488,-0.061,179.780,12.975,-77.679
9332,-0.2305,0.0073,-0.9810,-0.732,-0.183,-0.549,179.775,12.975,-77.673
9342,-0.2310,0.0034,-0.9834,-0.488,0.000,-0.977,179.775,12.980,-77.662
9352,-0.2305,-0.0015,-0.9888,-0.366,0.305,-1.404,-179.912,12.980,-77.646
9362,-0.2305,-0.0034,-0.9893,-0.427,0.488,-1.587,-179.912,12.975,-77.629
9372,-0.2285,-0.0073,-0.9888,-0.305,0.366,-1.770,-179.907,12.969,-77.613
9382,-0.2290,-0.0112,-0.9927,-0.183,-0.061,-1.831,-179.901,12.969,-77.591
9392,-0.2300,-0.0127,-0.9951,-0.244,-0.549,-1.709,-179.890,12.980,-77.574
9402,-0.2295,-0.0127,-0.9946,-0.488,-0.793,-1.465,-179.885,12.986,-77.563
9412,-0.2246,-0.0137,-0.9927,-0.549,-0.732,-1.343,-179.885,12.991,-77.547
9422,-0.2217,-0.0137,-0.9937,-0.244,-0.549,-1.465,-179.874,12.991,-77.531
9432,-0.2217,-0.0146,-0.9917,0.122,-0.427,-1.648,-179.863,12.991,-77.514
9442,-0.2183,-0.0161,-0.9893,0.427,-0.488,-1.648,-179.846,12.991,-77.498
9452,-0.2202,-0.0190,-0.9878,0.366,-0.671,-1.404,-179.830,12.991,-77.481
9462,-0.2202,-0.0195,-0.9854,0.061,-0.977,-1.160,-179.819,12.997,-77.470
9472,-0.2202,-0.0205,-0.9878,-0.305,-1.038,-0.977,-179.808,13.008,-77.459
9482,-0.2217,-0.0190,-0.9858,-0.427,-0.854,-0.854,-179.802,13.008,-77.454
9493,-0.2236,-0.0161,-0.9844,-0.427,-0.610,-0.732,-179.797,13.013,-77.448
9502,-0.2246,-0.0171,-0.9834,-0.183,-0.244,-0.671,-179.791,13.013,-77.437
9512,-0.2231,-0.0186,-0.9819,0.183,0.000,-0.793,-179.775,13.013,-77.432
9522,-0.2222,-0.0190,-0.9810,0.427,0.122,-0.854,-179.764,13.008,-77.421
9532,-0.2202,-0.0220,-0.9839,0.488,0.183,-0.793,-179.742,13.002,-77.415
9542,-0.2192,-0.0215,-0.9854,0.488,0.244,-0.732,-179.725,12.997,-77.404
9552,-0.2192,-0.0239,-0.9873,0.427,0.183,-0.732,-179.709,12.991,-77.399
9562,-0.2173,-0.0234,-0.9912,0.488,0.183,-0.671,-179.692,12.980,-77.393
9572,-0.2183,-0.0273,-0.9907,0.549,0.183,-0.488,-179.676,12.975,-77.388
9582,-0.2163,-0.0273,-0.9937,0.732,0.122,-0.183,-179.654,12.964,-77.382
9592,-0.2207,-0.0288,-0.9927,0.732,-0.122,0.122,-179.632,12.964,-77.388
9602,-0.2275,-0.0327,-0.9888,0.488,-0.427,0.366,-179.615,12.969,-77.388
9612,-0.2314,-0.0298,-0.9858,0.061,-0.610,0.610,-179.599,12.975,-77.399
9622,-0.2339,-0.0278,-0.9844,-0.427,-0.671,0.793,-179.594,12.986,-77.404
9632,-0.2334,-0.0239,-0.9839,-0.793,-0.549,1.038,-179.594,12.997,-77.415
9642,-0.2334,-0.0215,-0.9849,-0.854,-0.427,1.221,-179.599,13.002,-77.426
9652,-0.2334,-0.0190,-0.9829,-0.610,-0.061,1.343,-179.599,13.008,-77.443
9662,-0.2295,-0.0151,-0.9844,-0.305,0.061,1.587,-179.604,13.008,-77.459
9672,-0.2275,-0.0112,-0.9844,-0.061,0.122,1.770,-179.604,13.008,-77.476
9682,-0.2271,-0.0044,-0.9873,0.244,0.061,1.831,-179.610,13.008,-77.492
9692,-0.2295,-0.0044,-0.9878,0.183,-0.122,1.709,-179.610,13.008,-77.514
9702,-0.2300,-0.0024,-0.9883,-0.183,0.000,1.587,-179.621,13.008,-77.531
9712,-0.2290,-0.0005,-0.9878,-0.671,0.183,1.404,-179.632,13.008,-77.542
9722,-0.2271,0.0015,-0.9868,-1.038,0.366,1.221,179.912,13.002,-77.552
9732,-0.2261,0.0010,-0.9883,-1.038,0.488,0.977,179.901,12.997,-77.563
9742,-0.2266,0.0000,-0.9878,-0.916,0.549,0.854,179.890,12.991,-77.574
9752,-0.2280,-0.0034,-0.9902,-0.549,0.610,0.732,-179.797,12.986,-77.580
9762,-0.2290,-0.0059,-0.9888,-0.122,0.854,0.549,-179.802,12.975,-77.585
9772,-0.2305,-0.0073,-0.9941,0.061,0.854,0.366,-179.797,12.969,-77.591
9782,-0.2290,-0.0068,-0.9956,0.061,0.549,0.244,-179.797,12.964,-77.591
9792,-0.2295,-0.0088,-0.9961,-0.183,0.061,0.244,-179.797,12.964,-77.596
9802,-0.2329,-0.0112,-0.9941,-0.427,-0.427,0.305,-179.797,12.969,-77.596
9812,-0.2344,-0.0112,-0.9927,-0.671,-0.793,0.427,-179.797,12.980,-77.602
9822,-0.2339,-0.0107,-0.9897,-0.732,-0.854,0.427,-179.802,12.991,-77.607
9832,-0.2319,-0.0117,-0.9897,-0.671,-0.793,0.366,-179.808,13.002,-77.613
9842,-0.2339,-0.0083,-0.9897,-0.610,-0.671,0.427,-179.808,13.013,-77.618
9852,-0.2310,-0.0073,-0.9858,-0.488,-0.549,0.549,-179.813,13.019,-77.624
9862,-0.2300,-0.0044,-0.9878,-0.305,-0.427,0.671,-179.819,13.024,-77.629
9872,-0.2290,-0.0054,-0.9849,-0.183,-0.427,0.671,-179.819,13.030,-77.635
9882,-0.2285,-0.0063,-0.9854,-0.061,-0.427,0.549,-179.819,13.035,-77.640
9892,-0.2285,-0.0059,-0.9883,-0.183,-0.549,0.305,-179.819,13.041,-77.646
9902,-0.2275,-0.0039,-0.9888,-0.244,-0.793,0.000,-179.824,13.046,-77.646
9914,-0.2285,-0.0059,-0.9878,-0.366,-1.038,-0.183,-179.824,13.057,-77.640
9922,-0.2266,-0.0044,-0.9854,-0.732,-1.343,-0.183,-179.830,13.068,-77.640
9932,-0.2285,-0.0049,-0.9839,-1.099,-1.526,-0.305,-179.841,13.085,-77.635
9942,-0.2339,-0.0078,-0.9844,-1.038,-1.282,-0.366,-179.846,13.101,-77.635
9952,-0.2363,-0.0088,-0.9829,-1.038,-0.854,-0.488,-179.852,13.112,-77.629
9962,-0.2393,-0.0107,-0.9810,-0.916,-0.427,-0.427,-179.852,13.123,-77.624
9972,-0.2383,-0.0098,-0.9819,-0.549,-0.244,-0.366,-179.857,13.129,-77.618
9982,-0.2383,-0.0107,-0.9849,-0.305,-0.427,-0.427,-179.852,13.140,-77.613
9993,-0.2373,-0.0088,-0.9844,-0.366,-0.732,-0.427,-179.852,13.151,-77.613
10002,-0.2363,-0.0083,-0.9800,-0.610,-1.038,-0.427,-179.852,13.162,-77.607
10012,-0.2339,-0.0063,-0.9780,-0.854,-1.099,-0.427,-179.857,13.178,-77.602
10022,-0.2373,-0.0039,-0.9795,-0.916,-0.793,-0.549,-179.863,13.189,-77.596
10032,-0.2373,-0.0059,-0.9819,-0.671,-0.122,-0.732,-179.868,13.195,-77.591
10042,-0.2354,-0.0073,-0.9800,-0.183,0.610,-0.854,-179.863,13.195,-77.580
10052,-0.2305,-0.0098,-0.9858,0.122,0.916,-0.916,-179.857,13.184,-77.569
10062,-0.2285,-0.0093,-0.9863,0.305,0.854,-0.916,-179.846,13.173,-77.563
10072,-0.2285,-0.0127,-0.9888,0.244,0.427,-0.916,-179.835,13.167,-77.552
10082,-0.2285,-0.0171,-0.9902,0.000,0.061,-0.916,-179.824,13.167,-77.542
10092,-0.2305,-0.0161,-0.9858,-0.366,-0.183,-0.977,-179.819,13.167,-77.531
10102,-0.2305,-0.0186,-0.9868,-0.549,-0.183,-1.099,-179.813,13.167,-77.520
10112,-0.2280,-0.0195,-0.9839,-0.488,0.061,-1.099,-179.808,13.167,-77.509
10122,-0.2236,-0.0229,-0.9849,-0.244,0.183,-0.977,-179.797,13.162,-77.498
10132,-0.2236,-0.0234,-0.9844,0.122,0.305,-0.671,-179.780,13.156,-77.492
10142,-0.2241,-0.0264,-0.9868,0.488,0.305,-0.305,-179.764,13.145,-77.492
10152,-0.2246,-0.0244,-0.9839,0.732,0.366,0.061,-179.742,13.140,-77.492
10162,-0.2251,-0.0244,-0.9873,0.793,0.610,0.305,-179.725,13.134,-77.492
10172,-0.2241,-0.0249,-0.9863,0.732,0.793,0.610,-179.709,13.118,-77.498
10182,-0.2217,-0.0215,-0.9863,0.427,0.610,1.160,-179.698,13.112,-77.514
10192,-0.2217,-0.0176,-0.9878,0.183,0.427,1.526,-179.692,13.101,-77.525
10202,-0.2227,-0.0122,-0.9858,0.000,0.366,1.831,-179.692,13.096,-77.547
10212,-0.2231,-0.0068,-0.9868,-0.122,0.305,1.953,-179.698,13.085,-77.569
10222,-0.2271,-0.0078,-0.9893,0.061,0.488,1.709,-179.698,13.079,-77.585
10232,-0.2319,-0.0073,-0.9873,0.061,0.793,1.404,-179.698,13.074,-77.596
10242,-0.2305,-0.0024,-0.9888,0.000,0.977,1.160,-179.703,13.063,-77.613
10252,-0.2305,-0.0034,-0.9912,0.061,0.854,0.977,-179.703,13.057,-77.618
10262,-0.2305,-0.0059,-0.9912,0.183,0.427,0.793,-179.703,13.052,-77.629
10272,-0.2324,-0.0063,-0.9927,0.183,0.061,0.732,-179.703,13.052,-77.635
10282,-0.2314,-0.0078,-0.9907,0.122,0.061,0.671,-179.703,13.052,-77.646
10292,-0.2275,-0.0068,-0.9893,0.244,0.244,0.671,-179.703,13.052,-77.651
10302,-0.2290,-0.0068,-0.9902,0.549,0.305,0.610,-179.698,13.046,-77.657
10312,-0.2305,-0.0083,-0.9902,0.671,0.244,0.610,-179.687,13.046,-77.662
10322,-0.2300,-0.0098,-0.9888,0.671,0.122,0.610,-179.681,13.046,-77.668
10332,-0.2285,-0.0112,-0.9883,0.488,-0.122,0.671,-179.676,13.046,-77.673
10342,-0.2285,-0.0122,-0.9854,0.183,-0.366,0.671,-179.670,13.052,-77.684
10352,-0.2324,-0.0117,-0.9844,-0.061,-0.366,0.732,-179.670,13.057,-77.690
10362,-0.2319,-0.0127,-0.9854,-0.244,-0.183,0.732,-179.670,13.057,-77.695
10372,-0.2305,-0.0078,-0.9858,-0.183,0.122,0.671,-179.670,13.057,-77.706
10382,-0.2329,-0.0063,-0.9854,0.122,0.305,0.610,-179.670,13.057,-77.712
10392,-0.2319,-0.0088,-0.9844,0.549,0.366,0.488,-179.665,13.057,-77.717
10402,-0.2329,-0.0112,-0.9849,0.732,0.427,0.305,-179.654,13.057,-77.717
10412,-0.2314,-0.0117,-0.9878,0.610,0.305,0.183,-179.648,13.052,-77.723
10422,-0.2319,-0.0137,-0.9873,0.244,0.183,0.183,-179.637,13.052,-77.723
10432,-0.2290,-0.0127,-0.9863,-0.061,0.183,0.183,-179.637,13.052,-77.723
10442,-0.2310,-0.0142,-0.9854,-0.061,0.061,0.244,-179.632,13.052,-77.728
10452,-0.2305,-0.0137,-0.9868,0.000,0.244,0.183,-179.632,13.052,-77.728
10462,-0.2305,-0.0151,-0.9878,0.183,0.549,0.305,-179.621,13.046,-77.734
10472,-0.2295,-0.0146,-0.9863,0.366,0.671,0.488,-179.615,13.041,-77.739
10482,-0.2261,-0.0142,-0.9824,0.366,0.488,0.610,-179.610,13.035,-77.745
10493,-0.2261,-0.0132,-0.9780,0.122,0.183,0.793,-179.604,13.035,-77.750
10502,-0.2310,-0.0142,-0.9780,-0.122,0.061,0.854,-179.604,13.035,-77.761
10512,-0.2358,-0.0132,-0.9761,-0.183,0.305,0.610,-179.604,13.035,-77.767
10522,-0.2339,-0.0122,-0.9814,-0.488,0.854,0.549,-179.610,13.035,-77.772
10532,-0.2324,-0.0137,-0.9790,-0.427,1.404,0.610,-179.610,13.024,-77.778
10542,-0.2300,-0.0156,-0.9800,-0.244,1.404,0.732,-179.610,13.008,-77.789
10552,-0.2300,-0.0137,-0.9849,-0.244,1.160,0.793,-179.610,13.002,-77.794
10562,-0.2290,-0.0093,-0.9917,-0.244,1.038,0.793,-179.610,12.991,-77.805
10572,-0.2256,-0.0063,-0.9937,-0.183,1.099,0.732,-179.615,12.975,-77.811
10582,-0.2246,-0.0059,-0.9941,-0.122,1.221,0.671,-179.615,12.964,-77.816
10592,-0.2246,-0.0054,-0.9961,0.000,1.282,0.488,-179.621,12.947,-77.822
10602,-0.2246,-0.0059,-0.9971,0.061,1.160,0.366,-179.621,12.931,-77.827
10612,-0.2246,-0.0063,-0.9961,0.061,0.916,0.305,-179.621,12.920,-77.827
10622,-0.2261,-0.0068,-0.9927,-0.061,0.488,0.244,-179.621,12.914,-77.833
10632,-0.2275,-0.0059,-0.9922,-0.305,0.000,0.061,-179.626,12.914,-77.833
10643,-0.2271,-0.0034,-0.9927,-0.488,-0.122,-0.122,-179.632,12.920,-77.833
10653,-0.2285,-0.0039,-0.9907,-0.610,-0.061,-0.366,-179.637,12.920,-77.827
10662,-0.2295,-0.0103,-0.9927,-0.305,0.305,-0.671,-179.637,12.914,-77.822
10673,-0.2280,-0.0117,-0.9902,0.061,0.488,-0.793,-179.632,12.914,-77.811
10682,-0.2290,-0.0117,-0.9917,0.305,0.427,-0.610,-179.626,12.909,-77.805
10692,-0.2275,-0.0142,-0.9917,0.610,0.122,-0.244,-179.615,12.909,-77.805
10703,-0.2256,-0.0156,-0.9912,0.671,-0.122,-0.061,-179.599,12.909,-77.805
10712,-0.2261,-0.0137,-0.9883,0.366,-0.305,-0.061,-179.594,12.909,-77.805
10723,-0.2261,-0.0137,-0.9868,-0.061,-0.488,-0.183,-179.588,12.914,-77.800
10733,-0.2290,-0.0151,-0.9854,-0.549,-0.732,-0.244,-179.588,12.925,-77.800
10743,-0.2300,-0.0107,-0.9863,-1.221,-1.038,-0.061,-179.599,12.936,-77.800
10753,-0.2310,-0.0088,-0.9849,-1.587,-1.160,0.061,-179.615,12.953,-77.800
10763,-0.2334,-0.0073,-0.9863,-1.282,-1.038,0.061,-179.626,12.964,-77.800
10772,-0.2344,-0.0093,-0.9858,-0.671,-0.610,0.000,-179.632,12.975,-77.800
10783,-0.2388,-0.0107,-0.9819,-0.183,-0.183,-0.122,-179.632,12.986,-77.800
10792,-0.2368,-0.0127,-0.9800,-0.427,-0.122,0.000,-179.632,12.991,-77.800
10803,-0.2368,-0.0122,-0.9839,-1.160,-0.427,0.183,-179.637,13.002,-77.800
10813,-0.2402,-0.0117,-0.9873,-1.892,-0.488,0.122,-179.654,13.013,-77.800
10823,-0.2378,-0.0103,-0.9907,-2.808,-0.305,0.122,-179.681,13.019,-77.800
10833,-0.2358,-0.0088,-0.9932,-3.418,-0.061,0.000,-179.714,13.024,-77.800
10843,-0.2358,-0.0083,-0.9956,-3.296,0.000,-0.122,-179.742,13.024,-77.800
10853,-0.2388,-0.0112,-0.9980,-3.052,-0.366,-0.122,-179.769,13.035,-77.800
10863,-0.2358,-0.0176,-1.0029,-3.113,-1.160,0.000,-179.791,13.046,-77.800
10873,-0.2368,-0.0137,-0.9980,-3.296,-1.770,0.305,-179.819,13.068,-77.800
10883,-0.2319,-0.0112,-0.9985,-4.150,-2.625,0.977,-179.857,13.096,-77.811
10893,-0.2329,-0.0068,-1.0015,-4.578,-3.113,1.404,-179.907,13.123,-77.827
10902,-0.2334,0.0015,-1.0000,-5.005,-3.540,1.709,179.912,13.162,-77.844
10913,-0.2388,0.0093,-1.0020,-5.371,-3.845,1.770,179.852,13.200,-77.860
10923,-0.2422,0.0107,-0.9995,-5.249,-3.967,1.465,179.791,13.244,-77.877
10933,-0.2461,0.0146,-0.9941,-5.127,-4.333,0.854,179.731,13.293,-77.888
10943,-0.2495,0.0181,-0.9883,-5.005,-4.883,0.122,179.676,13.354,-77.888
10953,-0.2529,0.0142,-0.9795,-4.822,-5.310,-0.671,179.621,13.414,-77.882
10963,-0.2539,0.0122,-0.9717,-4.761,-5.554,-1.404,179.577,13.480,-77.866
10973,-0.2510,0.0093,-0.9653,-4.700,-5.432,-1.831,179.533,13.546,-77.849
10983,-0.2461,0.0127,-0.9663,-4.333,-5.005,-2.075,179.489,13.607,-77.827
10993,-0.2417,0.0137,-0.9639,-3.479,-4.150,-2.258,179.462,13.651,-77.805
11002,-0.2368,0.0146,-0.9692,-2.258,-3.174,-2.380,179.440,13.683,-77.783
11013,-0.2314,0.0137,-0.9731,-1.038,-2.258,-2.563,179.434,13.700,-77.756
11023,-0.2275,0.0127,-0.9785,-0.122,-1.709,-2.686,179.434,13.711,-77.728
11033,-0.2236,0.0098,-0.9858,0.183,-1.404,-2.686,179.445,13.716,-77.701
11043,-0.2217,0.0103,-0.9878,-0.122,-1.404,-2.747,179.451,13.722,-77.673
11053,-0.2227,0.0093,-0.9927,-0.549,-1.160,-2.747,179.451,13.722,-77.646
11063,-0.2236,0.0083,-0.9937,-0.793,-0.854,-2.808,179.451,13.722,-77.613
11073,-0.2246,0.0107,-0.9922,-0.671,-0.549,-2.747,179.451,13.716,-77.585
11083,-0.2261,0.0117,-0.9849,-0.061,-0.427,-2.747,179.456,13.716,-77.558
11093,-0.2275,0.0107,-0.9839,0.854,-0.488,-2.808,179.467,13.711,-77.531
11103,-0.2261,0.0112,-0.9849,1.770,-0.549,-2.991,179.495,13.711,-77.498
11113,-0.2246,0.0098,-0.9912,2.502,-0.305,-3.418,179.522,13.705,-77.465
11123,-0.2207,0.0083,-0.9937,2.869,0.244,-3.784,179.561,13.689,-77.426
11132,-0.2183,-0.0024,-0.9937,2.869,0.610,-4.028,-179.857,13.672,-77.382
11143,-0.2217,-0.0137,-0.9917,2.380,0.427,-4.089,-179.819,13.656,-77.338
11153,-0.2251,-0.0254,-0.9946,1.038,-0.061,-3.723,-179.786,13.645,-77.305
11163,-0.2285,-0.0308,-0.9907,-0.610,-0.610,-3.052,-179.769,13.645,-77.272
11173,-0.2368,-0.0352,-0.9932,-1.282,-0.732,-2.686,-179.758,13.651,-77.245
11183,-0.2412,-0.0352,-0.9917,-1.282,-0.366,-2.258,-179.747,13.656,-77.223
11193,-0.2402,-0.0337,-0.9917,-0.610,-0.122,-1.648,-179.731,13.656,-77.201
11203,-0.2412,-0.0337,-0.9907,0.549,-0.244,-0.916,-179.703,13.656,-77.195
11213,-0.2402,-0.0356,-0.9897,1.465,-0.793,-0.061,-179.676,13.667,-77.195
11223,-0.2422,-0.0283,-0.9858,1.465,-1.709,0.732,-179.648,13.683,-77.201
11233,-0.2422,-0.0166,-0.9746,0.732,-2.563,1.526,-179.637,13.711,-77.217
11243,-0.2427,-0.0107,-0.9712,-0.183,-2.991,2.075,-179.643,13.744,-77.239
11253,-0.2471,-0.0005,-0.9648,-0.854,-2.625,2.197,-179.659,13.777,-77.261
11262,-0.2490,0.0088,-0.9575,-1.282,-1.831,2.075,179.473,13.804,-77.283
11273,-0.2510,0.0103,-0.9502,-1.099,-0.793,1.648,179.456,13.821,-77.300
11283,-0.2480,0.0107,-0.9531,-0.244,0.366,1.099,179.451,13.826,-77.311
11293,-0.2441,0.0146,-0.9570,0.488,1.282,0.488,179.451,13.815,-77.316
11303,-0.2407,0.0151,-0.9580,1.160,1.953,0.366,179.456,13.799,-77.316
11313,-0.2397,0.0107,-0.9624,1.831,2.441,0.305,179.473,13.777,-77.322
11323,-0.2417,0.0073,-0.9653,1.892,2.686,0.122,179.495,13.755,-77.322
11333,-0.2417,0.0049,-0.9707,1.343,2.991,-0.061,179.511,13.727,-77.322
11342,-0.2422,0.0000,-0.9785,0.610,3.479,-0.244,179.522,13.694,-77.316
11353,-0.2480,-0.0059,-0.9849,0.244,4.211,-0.366,-179.654,13.656,-77.316
11363,-0.2461,-0.0068,-0.9927,0.000,4.761,-0.488,-179.654,13.612,-77.311
11373,-0.2393,-0.0107,-0.9995,0.183,4.639,-0.610,-179.648,13.568,-77.305
11383,-0.2388,-0.0156,-1.0024,0.916,3.967,-0.854,-179.632,13.524,-77.294
11393,-0.2397,-0.0234,-1.0039,1.343,2.930,-1.038,-179.604,13.497,-77.283
11403,-0.2378,-0.0273,-1.0068,0.671,1.953,-0.916,-179.588,13.475,-77.272
11413,-0.2329,-0.0269,-1.0049,-0.549,1.160,-0.488,-179.577,13.458,-77.272
11423,-0.2246,-0.0254,-1.0010,-1.587,0.427,0.122,-179.583,13.447,-77.272
11433,-0.2241,-0.0200,-0.9976,-2.136,-0.122,0.427,-179.599,13.436,-77.278
11443,-0.2212,-0.0181,-0.9922,-2.197,-0.549,0.427,-179.615,13.436,-77.278
11453,-0.2222,-0.0200,-0.9907,-1.892,-0.549,0.427,-179.626,13.431,-77.283
11463,-0.2246,-0.0186,-0.9854,-1.953,-0.366,0.671,-179.643,13.431,-77.289
11473,-0.2246,-0.0122,-0.9863,-2.258,-0.244,1.038,-179.665,13.425,-77.300
11483,-0.2231,-0.0078,-0.9829,-2.319,-0.183,1.465,-179.687,13.420,-77.316
11493,-0.2246,-0.0068,-0.9839,-2.319,-0.244,1.587,-179.714,13.420,-77.333
11503,-0.2251,-0.0049,-0.9829,-2.136,-0.244,1.648,-179.742,13.414,-77.349
11513,-0.2271,-0.0034,-0.9795,-1.892,-0.122,1.770,-179.764,13.414,-77.366
11523,-0.2314,-0.0024,-0.9795,-1.587,0.244,1.770,-179.786,13.409,-77.388
11533,-0.2354,-0.0034,-0.9834,-1.099,0.610,1.648,-179.797,13.403,-77.404
11543,-0.2344,-0.0029,-0.9839,-0.610,1.038,1.526,-179.808,13.392,-77.421
11553,-0.2363,-0.0024,-0.9868,-0.061,1.160,1.587,-179.813,13.381,-77.437
11563,-0.2368,-0.0039,-0.9854,0.305,1.099,1.587,-179.813,13.376,-77.454
11573,-0.2383,-0.0039,-0.9854,0.427,0.854,1.587,-179.813,13.370,-77.470
11583,-0.2393,-0.0034,-0.9873,0.244,0.610,1.587,-179.813,13.365,-77.487
11593,-0.2383,-0.0005,-0.9868,-0.061,0.366,1.526,-179.819,13.365,-77.498
11602,-0.2388,0.0000,-0.9863,-0.244,0.061,1.465,-180.000,13.365,-77.514
11612,-0.2412,0.0054,-0.9839,-0.671,-0.427,1.587,179.984,13.376,-77.531
11622,-0.2393,0.0127,-0.9829,-0.854,-0.732,1.648,179.962,13.381,-77.547
11633,-0.2402,0.0181,-0.9780,-0.732,-0.671,1.709,179.945,13.392,-77.563
11643,-0.2393,0.0220,-0.9756,-0.427,-0.366,1.587,179.923,13.403,-77.580
11653,-0.2427,0.0234,-0.9731,-0.244,0.183,1.343,179.901,13.409,-77.596
11663,-0.2383,0.0244,-0.9766,-0.305,0.793,1.038,179.885,13.403,-77.607
11673,-0.2373,0.0220,-0.9785,-0.549,1.343,0.610,179.868,13.392,-77.613
11683,-0.2378,0.0171,-0.9810,-0.977,1.648,0.244,179.846,13.376,-77.613
11693,-0.2373,0.0161,-0.9854,-1.282,1.953,-0.122,179.830,13.359,-77.613
11703,-0.2358,0.0142,-0.9893,-1.099,2.319,-0.549,179.813,13.337,-77.607
11713,-0.2349,0.0103,-0.9946,-0.610,2.380,-0.732,179.802,13.310,-77.602
11723,-0.2354,0.0068,-1.0000,-0.061,2.197,-0.854,179.802,13.288,-77.591
11733,-0.2358,0.0034,-1.0034,0.061,1.831,-0.854,179.802,13.271,-77.585
11743,-0.2324,0.0029,-1.0039,-0.122,1.221,-0.610,179.808,13.255,-77.574
11753,-0.2290,0.0044,-1.0024,-0.610,0.366,-0.366,179.797,13.250,-77.574
11763,-0.2319,0.0078,-1.0000,-1.343,-0.488,-0.244,179.786,13.250,-77.569
11773,-0.2368,0.0117,-0.9995,-1.953,-1.099,-0.427,179.764,13.266,-77.569
11783,-0.2393,0.0137,-0.9951,-2.258,-1.465,-0.671,179.736,13.282,-77.558
11793,-0.2407,0.0161,-0.9922,-2.197,-1.648,-0.916,179.709,13.299,-77.552
11803,-0.2412,0.0156,-0.9893,-1.892,-1.770,-1.221,179.687,13.321,-77.536
11813,-0.2383,0.0146,-0.9854,-1.709,-2.014,-1.526,179.670,13.343,-77.520
11823,-0.2358,0.0122,-0.9849,-1.587,-2.014,-1.709,179.654,13.365,-77.503
11833,-0.2368,0.0107,-0.9795,-1.526,-1.953,-1.831,179.637,13.387,-77.487
11843,-0.2378,0.0098,-0.9746,-1.709,-1.587,-1.892,179.626,13.409,-77.465
11853,-0.2373,0.0156,-0.9707,-2.258,-1.099,-1.587,179.599,13.420,-77.448
11863,-0.2393,0.0151,-0.9673,-2.075,-0.183,-1.526,179.577,13.431,-77.437
11873,-0.2397,0.0186,-0.9692,-1.709,0.671,-1.770,179.561,13.425,-77.415
11883,-0.2417,0.0171,-0.9766,-0.793,1.648,-2.380,179.550,13.414,-77.393
11893,-0.2378,0.0117,-0.9849,0.000,2.502,-2.869,179.555,13.392,-77.360
11903,-0.2329,0.0083,-0.9912,0.732,2.991,-3.113,179.572,13.359,-77.327
11915,-0.2251,-0.0049,-0.9990,0.916,2.686,-2.930,-179.720,13.326,-77.300
11923,-0.2192,-0.0088,-1.0024,0.549,2.014,-2.625,-179.703,13.299,-77.272
11933,-0.2153,-0.0137,-1.0083,-0.061,0.854,-2.075,-179.692,13.277,-77.250
11943,-0.2119,-0.0186,-1.0078,-0.854,-0.061,-1.343,-179.692,13.266,-77.239
11953,-0.2139,-0.0229,-1.0054,-1.404,-0.854,-0.732,-179.692,13.260,-77.228
11963,-0.2231,-0.0254,-1.0005,-1.709,-1.282,-0.183,-179.698,13.266,-77.228
11973,-0.2241,-0.0244,-0.9946,-2.075,-1.709,0.366,-179.709,13.277,-77.234
11983,-0.2275,-0.0225,-0.9902,-2.014,-2.014,0.671,-179.720,13.293,-77.239
11993,-0.2300,-0.0171,-0.9844,-1.770,-2.258,1.038,-179.736,13.315,-77.250
12003,-0.2314,-0.0127,-0.9795,-1.648,-2.441,1.465,-179.747,13.337,-77.267
12013,-0.2344,-0.0088,-0.9731,-1.160,-1.648,2.014,-179.764,13.354,-77.283
12023,-0.2368,0.0005,-0.9697,-1.160,-1.038,2.258,179.967,13.370,-77.305
12033,-0.2368,0.0044,-0.9658,-0.977,-0.549,2.258,179.951,13.381,-77.333
12043,-0.2402,0.0093,-0.9648,-0.549,-0.122,2.075,179.934,13.387,-77.355
12053,-0.2417,0.0137,-0.9683,-0.366,0.366,1.892,179.918,13.387,-77.371
12063,-0.2402,0.0190,-0.9712,-0.244,0.977,1.709,179.901,13.387,-77.388
12073,-0.2358,0.0215,-0.9746,-0.061,1.465,1.587,179.885,13.370,-77.404
12083,-0.2319,0.0259,-0.9800,0.000,1.770,1.404,179.868,13.354,-77.421
12093,-0.2344,0.0254,-0.9873,0.305,2.075,1.038,179.857,13.332,-77.432
12103,-0.2358,0.0229,-0.9902,0.488,2.258,0.732,179.846,13.310,-77.437
12113,-0.2349,0.0205,-0.9922,0.427,2.380,0.488,179.841,13.288,-77.443
12123,-0.2344,0.0181,-0.9976,0.305,2.197,0.244,179.835,13.266,-77.448
12133,-0.2373,0.0151,-1.0000,0.000,1.587,0.122,179.830,13.250,-77.448
12143,-0.2397,0.0171,-0.9976,-0.671,0.916,0.305,179.813,13.244,-77.448
12153,-0.2407,0.0166,-0.9946,-1.099,0.305,0.488,179.791,13.244,-77.454
12163,-0.2373,0.0176,-0.9927,-1.404,-0.061,0.488,179.769,13.250,-77.459
12173,-0.2393,0.0234,-0.9912,-1.465,-0.122,0.183,179.742,13.250,-77.465
12183,-0.2368,0.0239,-0.9902,-1.160,0.061,-0.305,179.720,13.255,-77.459
12193,-0.2334,0.0210,-0.9893,-0.671,0.366,-0.977,179.709,13.250,-77.448
12203,-0.2314,0.0146,-0.9883,-0.366,0.427,-1.648,179.703,13.244,-77.432
12213,-0.2339,0.0132,-0.9839,-0.488,0.244,-2.136,179.698,13.244,-77.410
12223,-0.2354,0.0083,-0.9844,-0.916,0.000,-2.319,179.692,13.244,-77.388
12233,-0.2368,0.0039,-0.9854,-0.793,0.244,-2.502,179.692,13.244,-77.360
12243,-0.2334,0.0029,-0.9883,-0.732,0.427,-2.441,179.692,13.244,-77.333
12253,-0.2305,0.0015,-0.9873,-0.244,0.610,-2.319,179.698,13.239,-77.311
12263,-0.2285,0.0005,-0.9873,0.427,0.610,-2.075,179.709,13.228,-77.289
12273,-0.2271,-0.0029,-0.9863,0.732,0.305,-1.831,-179.830,13.222,-77.272
12283,-0.2227,-0.0034,-0.9829,0.732,0.061,-1.648,-179.813,13.217,-77.256
12293,-0.2261,-0.0039,-0.9780,0.549,-0.061,-1.404,-179.808,13.217,-77.239
12303,-0.2275,0.0029,-0.9785,0.000,0.000,-1.099,179.824,13.217,-77.228
12313,-0.2300,0.0078,-0.9785,-0.244,0.183,-0.732,179.824,13.211,-77.223
12323,-0.2305,0.0103,-0.9824,0.061,0.610,-0.488,179.819,13.206,-77.217
12333,-0.2324,0.0117,-0.9824,0.610,0.977,-0.610,179.824,13.200,-77.212
12343,-0.2358,0.0117,-0.9849,0.916,1.282,-0.793,179.830,13.189,-77.201
12353,-0.2378,0.0107,-0.9873,1.099,1.404,-1.038,179.835,13.178,-77.190
12363,-0.2378,0.0063,-0.9922,1.038,1.465,-1.099,179.846,13.167,-77.179
12373,-0.2354,0.0039,-0.9937,0.671,1.343,-0.977,179.857,13.156,-77.168
12383,-0.2339,0.0034,-0.9971,0.305,1.160,-0.610,179.857,13.145,-77.162
12393,-0.2314,0.0068,-1.0015,-0.122,0.793,-0.183,179.857,13.134,-77.162
12403,-0.2305,0.0127,-1.0054,-0.244,0.366,0.122,179.846,13.129,-77.162
12413,-0.2285,0.0200,-1.0078,-0.122,-0.061,0.183,179.835,13.123,-77.162
12423,-0.2295,0.0210,-1.0073,0.122,-0.427,-0.122,179.830,13.129,-77.162
12433,-0.2295,0.0176,-1.0068,0.122,-0.977,-0.671,179.824,13.134,-77.157
12443,-0.2314,0.0093,-1.0073,-0.427,-1.648,-1.343,179.819,13.151,-77.141
12453,-0.2310,0.0020,-1.0039,-1.343,-2.258,-1.709,179.808,13.167,-77.124
12463,-0.2334,-0.0029,-0.9990,-2.258,-2.808,-1.648,-179.830,13.195,-77.108
12473,-0.2349,-0.0020,-0.9951,-2.563,-3.174,-1.343,-179.852,13.228,-77.097
12483,-0.2329,0.0005,-0.9917,-2.197,-3.418,-0.793,179.967,13.260,-77.086
12493,-0.2324,0.0000,-0.9868,-1.404,-3.540,-0.244,179.956,13.299,-77.086
12503,-0.2329,0.0015,-0.9829,-0.854,-3.540,-0.061,179.945,13.332,-77.086
12513,-0.2339,0.0029,-0.9810,-0.793,-3.479,-0.122,179.940,13.370,-77.080
12523,-0.2310,0.0024,-0.9805,-1.160,-3.113,-0.244,179.929,13.398,-77.080
12533,-0.2319,-0.0024,-0.9756,-1.709,-2.808,-0.244,-179.852,13.425,-77.075
12543,-0.2324,-0.0029,-0.9707,-2.075,-2.686,-0.122,-179.874,13.453,-77.075
12553,-0.2324,-0.0059,-0.9688,-2.197,-2.625,0.183,-179.896,13.480,-77.075
12563,-0.2324,-0.0063,-0.9653,-1.892,-2.380,0.549,-179.912,13.502,-77.086
12573,-0.2339,-0.0112,-0.9673,-1.282,-1.831,0.793,-179.918,13.524,-77.091
12583,-0.2363,-0.0166,-0.9648,-0.610,-1.099,0.977,-179.918,13.535,-77.102
12593,-0.2388,-0.0259,-0.9634,-0.244,-0.427,1.160,-179.912,13.541,-77.113
12603,-0.2397,-0.0361,-0.9595,-0.366,0.061,1.404,-179.896,13.546,-77.130
12613,-0.2393,-0.0400,-0.9580,-1.404,0.183,2.136,-179.890,13.552,-77.151
12623,-0.2427,-0.0366,-0.9531,-2.808,0.305,3.235,-179.907,13.557,-77.184
12633,-0.2437,-0.0278,-0.9531,-4.211,0.549,4.456,-179.945,13.557,-77.228
12643,-0.2412,-0.0205,-0.9487,-5.310,1.099,5.432,-179.995,13.552,-77.283
12653,-0.2402,-0.0093,-0.9478,-5.920,1.892,5.920,179.934,13.541,-77.344
12663,-0.2373,0.0015,-0.9453,-5.493,2.869,6.042,179.907,13.519,-77.410
12673,-0.2329,0.0098,-0.9448,-4.883,3.540,6.226,179.841,13.486,-77.470
12683,-0.2334,0.0200,-0.9517,-3.784,4.395,5.920,179.780,13.447,-77.531
12693,-0.2290,0.0288,-0.9634,-2.441,5.554,5.310,179.725,13.387,-77.585
12703,-0.2227,0.0381,-0.9756,-0.854,6.897,4.639,179.687,13.315,-77.635
12713,-0.2192,0.0430,-0.9868,1.343,8.118,3.967,179.670,13.228,-77.673
12723,-0.2153,0.0464,-0.9980,3.418,8.850,3.296,179.670,13.129,-77.706
12733,-0.2124,0.0459,-1.0122,4.517,8.911,2.869,179.687,13.030,-77.734
12743,-0.2124,0.0459,-1.0264,4.639,8.545,2.502,179.709,12.931,-77.761
12753,-0.2065,0.0474,-1.0391,4.150,7.935,2.136,179.720,12.832,-77.783
12763,-0.2051,0.0513,-1.0498,3.357,7.019,1.770,179.725,12.744,-77.800
12773,-0.2061,0.0522,-1.0562,2.808,5.676,1.221,179.725,12.673,-77.811
12783,-0.2080,0.0430,-1.0576,2.502,3.845,0.427,179.725,12.618,-77.816
12793,-0.2129,0.0352,-1.0571,1.587,1.648,-0.061,179.725,12.590,-77.816
12803,-0.2168,0.0283,-1.0522,-0.122,-0.610,-0.061,179.714,12.585,-77.816
12813,-0.2207,0.0293,-1.0425,-1.953,-2.625,0.122,179.681,12.607,-77.816
12823,-0.2261,0.0303,-1.0342,-3.113,-4.089,0.183,179.632,12.645,-77.822
12833,-0.2300,0.0269,-1.0273,-3.296,-4.883,0.000,179.588,12.695,-77.822
12843,-0.2314,0.0298,-1.0181,-2.747,-5.066,-0.305,179.550,12.744,-77.816
12853,-0.2295,0.0234,-1.0117,-1.892,-5.127,-0.488,179.522,12.794,-77.811
12863,-0.2275,0.0181,-1.0063,-1.221,-5.310,-0.549,179.506,12.849,-77.805
12873,-0.2275,0.0132,-0.9966,-1.221,-5.798,-0.488,179.495,12.903,-77.805
12883,-0.2314,0.0063,-0.9888,-1.526,-6.104,-0.366,179.484,12.969,-77.800
12893,-0.2363,0.0039,-0.9814,-2.136,-6.226,-0.244,179.462,13.035,-77.800
12903,-0.2393,-0.0010,-0.9751,-2.747,-5.981,-0.183,-179.940,13.101,-77.794
12913,-0.2417,-0.0039,-0.9668,-3.052,-5.493,0.061,-179.967,13.167,-77.800
12923,-0.2441,-0.0073,-0.9590,-3.235,-5.066,0.549,-180.000,13.228,-77.805
12933,-0.2451,-0.0059,-0.9565,-2.930,-4.517,1.099,179.973,13.282,-77.816
12943,-0.2422,-0.0073,-0.9536,-2.380,-3.662,1.709,179.951,13.326,-77.833
12953,-0.2358,-0.0049,-0.9580,-1.831,-2.808,2.258,179.934,13.359,-77.855
12963,-0.2383,-0.0015,-0.9561,-1.404,-1.953,2.747,179.912,13.387,-77.882
12973,-0.2437,-0.0010,-0.9502,-0.977,-1.099,3.052,179.896,13.409,-77.915
12983,-0.2476,0.0039,-0.9468,-0.549,-0.305,2.869,179.758,13.425,-77.943
12994,-0.2495,0.0049,-0.9453,-0.183,-0.244,2.319,179.753,13.442,-77.970
13003,-0.2529,0.0068,-0.9482,0.488,-0.427,1.831,179.753,13.458,-77.986
13013,-0.2510,0.0093,-0.9595,0.793,-0.488,1.892,179.753,13.475,-78.008
13023,-0.2495,0.0142,-0.9629,0.488,-0.244,2.441,179.747,13.486,-78.030
13033,-0.2446,0.0249,-0.9683,0.305,0.366,2.930,179.731,13.491,-78.063
13043,-0.2466,0.0356,-0.9663,0.854,0.977,3.113,179.714,13.491,-78.091
13053,-0.2544,0.0405,-0.9707,1.587,1.221,3.052,179.698,13.491,-78.124
13063,-0.2646,0.0425,-0.9702,2.319,1.282,2.686,179.692,13.491,-78.151
13073,-0.2705,0.0425,-0.9741,2.380,1.465,2.258,179.692,13.497,-78.173
13083,-0.2656,0.0454,-0.9790,1.892,1.953,2.136,179.681,13.497,-78.195
13093,-0.2603,0.0459,-0.9917,1.343,2.686,2.197,179.665,13.480,-78.217
13103,-0.2500,0.0469,-1.0000,1.160,3.113,2.319,179.648,13.458,-78.245
13113,-0.2432,0.0479,-1.0088,1.404,2.991,2.441,179.632,13.425,-78.267
13123,-0.2388,0.0459,-1.0132,1.892,2.136,2.441,179.621,13.403,-78.294
13133,-0.2417,0.0454,-1.0171,2.136,0.916,2.136,179.615,13.392,-78.316
13143,-0.2456,0.0405,-1.0176,1.953,-0.183,1.526,179.615,13.398,-78.333
13153,-0.2480,0.0352,-1.0127,1.160,-1.099,0.549,179.610,13.414,-78.338
13163,-0.2505,0.0269,-1.0112,0.000,-1.953,-0.244,179.599,13.436,-78.333
13173,-0.2480,0.0293,-1.0024,-1.465,-2.930,-0.366,179.572,13.469,-78.333
13183,-0.2456,0.0366,-1.0015,-2.380,-3.601,0.122,179.528,13.508,-78.333
13193,-0.2412,0.0425,-0.9985,-2.136,-3.906,0.671,179.489,13.546,-78.338
13203,-0.2397,0.0444,-1.0015,-0.854,-3.296,0.793,179.456,13.579,-78.349
13213,-0.2378,0.0449,-1.0063,0.732,-2.380,0.366,179.445,13.601,-78.349
13223,-0.2295,0.0444,-1.0063,1.404,-1.648,0.061,179.434,13.607,-78.354
13233,-0.2266,0.0381,-1.0132,1.587,-1.587,-0.244,179.440,13.612,-78.349
13243,-0.2153,0.0332,-1.0142,1.038,-2.136,-0.671,179.434,13.618,-78.344
13253,-0.2153,0.0259,-1.0098,-0.183,-3.479,-1.099,179.429,13.640,-78.333
13263,-0.2148,0.0176,-1.0039,-1.221,-4.700,-1.465,179.412,13.667,-78.316
13273,-0.2173,0.0127,-1.0000,-2.075,-5.432,-1.404,179.396,13.711,-78.305
13283,-0.2183,0.0083,-0.9917,-2.563,-5.493,-1.160,179.374,13.749,-78.294
13293,-0.2187,0.0049,-0.9810,-2.258,-4.883,-0.916,179.357,13.788,-78.283
13303,-0.2153,-0.0015,-0.9766,-1.343,-4.211,-0.793,-179.912,13.815,-78.278
13313,-0.2153,-0.0068,-0.9688,-0.305,-3.784,-0.488,-179.912,13.837,-78.272
13323,-0.2183,-0.0127,-0.9561,-0.122,-3.723,0.183,-179.907,13.865,-78.272
13333,-0.2275,-0.0151,-0.9409,-1.038,-3.662,1.160,-179.912,13.903,-78.283
13343,-0.2373,-0.0146,-0.9336,-2.991,-3.418,2.563,-179.940,13.936,-78.311
13353,-0.2456,-0.0073,-0.9312,-5.371,-2.747,3.845,-179.995,13.975,-78.349
13363,-0.2563,0.0049,-0.9263,-6.775,-1.221,4.578,179.698,14.002,-78.398
13373,-0.2642,0.0146,-0.9316,-6.897,0.916,4.700,179.610,14.008,-78.448
13383,-0.2661,0.0166,-0.9404,-5.493,3.113,4.333,179.539,13.997,-78.492
13393,-0.2676,0.0127,-0.9482,-3.174,4.822,4.089,179.495,13.964,-78.530
13403,-0.2646,0.0063,-0.9551,-1.282,5.737,3.845,179.473,13.925,-78.574
13413,-0.2598,0.0083,-0.9673,0.000,5.798,3.662,179.462,13.876,-78.607
13423,-0.2593,0.0107,-0.9771,0.977,5.310,3.174,179.467,13.832,-78.640
13433,-0.2607,0.0103,-0.9863,1.831,4.883,2.563,179.478,13.793,-78.668
13443,-0.2578,0.0156,-0.9897,2.197,4.517,2.136,179.489,13.760,-78.690
13453,-0.2500,0.0269,-0.9946,1.770,3.967,2.197,179.489,13.722,-78.712
13463,-0.2441,0.0342,-0.9956,1.343,3.357,2.319,179.484,13.689,-78.734
13473,-0.2407,0.0444,-1.0020,1.099,2.747,2.136,179.473,13.661,-78.755
13483,-0.2402,0.0552,-1.0059,0.916,2.502,1.526,179.451,13.634,-78.772
13494,-0.2397,0.0615,-1.0034,0.916,2.441,0.793,179.429,13.607,-78.777
13503,-0.2388,0.0591,-1.0010,1.160,2.197,0.000,179.412,13.585,-78.777
13513,-0.2437,0.0518,-1.0020,1.343,1.892,-0.916,179.401,13.563,-78.772
13523,-0.2524,0.0410,-1.0010,1.099,1.465,-1.709,179.401,13.557,-78.750
13533,-0.2520,0.0366,-0.9971,0.244,0.610,-2.014,179.390,13.557,-78.734
13543,-0.2515,0.0312,-0.9922,-0.305,-0.244,-1.953,179.379,13.568,-78.712
13553,-0.2549,0.0283,-0.9893,-0.305,-0.977,-2.014,179.374,13.585,-78.690
13563,-0.2520,0.0264,-0.9922,0.305,-0.916,-2.258,179.374,13.601,-78.668
13573,-0.2485,0.0220,-0.9912,0.977,-0.305,-2.502,179.379,13.607,-78.640
13583,-0.2393,0.0195,-0.9907,1.465,-0.122,-2.502,179.396,13.612,-78.618
13593,-0.2368,0.0171,-0.9839,1.831,-0.671,-2.380,179.418,13.618,-78.591
13603,-0.2368,0.0127,-0.9771,1.404,-1.465,-2.197,179.434,13.629,-78.569
13613,-0.2378,0.0107,-0.9756,0.854,-1.465,-2.136,179.445,13.645,-78.547
13623,-0.2329,0.0171,-0.9766,0.305,-0.610,-2.075,179.451,13.651,-78.525
13633,-0.2261,0.0156,-0.9819,0.610,0.732,-2.197,179.456,13.634,-78.503
13643,-0.2197,0.0161,-0.9849,1.648,1.709,-2.502,179.478,13.607,-78.475
13653,-0.2212,0.0142,-0.9902,2.563,1.648,-2.686,179.506,13.585,-78.448
13663,-0.2212,0.0083,-0.9937,3.113,1.221,-2.686,179.544,13.563,-78.420
13673,-0.2227,0.0044,-0.9971,2.869,0.671,-2.380,179.577,13.546,-78.398
13683,-0.2217,0.0029,-0.9932,1.953,0.488,-1.892,179.604,13.530,-78.376
13693,-0.2227,0.0024,-0.9902,1.221,0.610,-1.465,179.626,13.513,-78.360
13703,-0.2231,0.0029,-0.9883,0.977,0.793,-1.160,179.637,13.502,-78.349
13713,-0.2222,0.0044,-0.9888,1.282,0.977,-0.732,179.654,13.480,-78.344
13723,-0.2212,0.0029,-0.9824,1.831,0.977,-0.305,179.676,13.464,-78.338
13733,-0.2178,0.0015,-0.9844,2.075,0.793,0.122,179.698,13.447,-78.344
13743,-0.2104,-0.0005,-0.9883,1.953,0.793,0.671,-179.967,13.425,-78.349
13753,-0.2012,0.0054,-0.9888,1.038,0.793,1.648,179.687,13.398,-78.365
13763,-0.2012,0.0083,-0.9893,0.183,0.610,2.441,179.681,13.370,-78.387
13773,-0.2070,0.0078,-0.9941,-0.488,0.427,2.991,179.665,13.354,-78.420
13783,-0.2158,0.0098,-0.9966,-0.427,0.671,3.235,179.654,13.332,-78.453
13793,-0.2236,0.0078,-0.9932,-0.305,0.793,3.418,179.643,13.321,-78.486
13803,-0.2305,0.0034,-0.9971,0.183,0.793,3.357,179.637,13.310,-78.525
13813,-0.2393,0.0000,-0.9990,0.549,0.366,3.357,179.637,13.304,-78.558
13823,-0.2412,0.0015,-0.9951,0.244,-0.610,3.662,179.632,13.315,-78.596
13833,-0.2417,0.0039,-0.9912,-0.122,-1.587,3.967,179.626,13.332,-78.635
13843,-0.2422,0.0059,-0.9927,-0.244,-2.197,4.089,179.615,13.359,-78.679
13853,-0.2476,0.0083,-0.9927,-0.427,-2.136,4.028,179.599,13.387,-78.723
13863,-0.2485,0.0166,-0.9834,-0.793,-1.831,4.333,179.577,13.414,-78.766
13873,-0.2490,0.0244,-0.9761,-0.549,-1.831,4.578,179.550,13.436,-78.810
13883,-0.2520,0.0220,-0.9756,0.488,-1.648,4.211,179.533,13.464,-78.854
13893,-0.2554,0.0225,-0.9741,0.916,-1.282,3.723,179.528,13.491,-78.893
13903,-0.2520,0.0293,-0.9673,0.427,-0.610,3.784,179.511,13.508,-78.931
13916,-0.2476,0.0400,-0.9614,0.244,0.000,3.784,179.484,13.513,-78.970
13923,-0.2441,0.0483,-0.9590,0.854,0.305,3.174,179.462,13.519,-79.003
13933,-0.2451,0.0493,-0.9565,1.526,0.488,2.258,179.445,13.524,-79.025
13943,-0.2524,0.0430,-0.9580,2.014,1.343,1.282,179.445,13.524,-79.041
13953,-0.2559,0.0352,-0.9619,2.136,2.869,0.366,179.451,13.508,-79.041
13963,-0.2485,0.0337,-0.9644,1.709,4.211,-0.244,179.451,13.475,-79.041
13973,-0.2432,0.0337,-0.9707,1.526,4.822,-0.671,179.456,13.431,-79.036
13983,-0.2417,0.0293,-0.9805,1.892,4.578,-1.099,179.462,13.392,-79.019
13994,-0.2407,0.0254,-0.9888,1.892,3.601,-1.282,179.478,13.359,-79.008
14003,-0.2407,0.0239,-0.9932,1.282,2.563,-1.343,179.484,13.337,-78.992
14013,-0.2368,0.0249,-0.9961,0.427,2.014,-1.465,179.484,13.315,-78.981
14023,-0.2349,0.0249,-1.0000,-0.061,1.953,-1.648,179.478,13.299,-78.964
14033,-0.2334,0.0244,-1.0005,-0.061,2.136,-1.892,179.473,13.277,-78.942
14043,-0.2319,0.0220,-0.9990,0.427,2.319,-2.014,179.473,13.250,-78.920
14053,-0.2285,0.0215,-0.9985,0.977,2.258,-2.197,179.478,13.222,-78.898
14063,-0.2261,0.0186,-0.9995,1.404,1.770,-2.441,179.495,13.200,-78.871
14073,-0.2236,0.0161,-1.0005,1.587,1.160,-2.747,179.511,13.184,-78.843
14083,-0.2227,0.0122,-1.0000,1.343,0.793,-2.991,179.533,13.173,-78.816
14093,-0.2202,0.0093,-1.0000,0.977,0.977,-3.235,179.550,13.156,-78.783
14103,-0.2168,0.0034,-1.0005,0.916,1.282,-3.296,179.566,13.134,-78.745
14113,-0.2158,-0.0044,-1.0044,1.160,1.587,-3.479,-179.747,13.107,-78.712
14123,-0.2168,-0.0107,-1.0034,1.648,1.648,-3.357,-179.720,13.079,-78.679
14133,-0.2173,-0.0151,-1.0068,2.014,1.221,-2.930,-179.687,13.057,-78.646
14143,-0.2139,-0.0181,-1.0059,1.892,0.305,-2.197,-179.654,13.046,-78.624
14153,-0.2134,-0.0161,-1.0029,1.221,-0.977,-1.221,-179.637,13.046,-78.613
14163,-0.2129,-0.0098,-1.0005,0.061,-2.319,-0.305,-179.632,13.057,-78.607
14173,-0.2153,-0.0005,-0.9971,-0.977,-2.991,0.366,-179.643,13.079,-78.613
14183,-0.2187,0.0073,-0.9922,-1.831,-3.052,0.671,179.577,13.101,-78.618
14193,-0.2212,0.0156,-0.9863,-2.380,-2.808,0.793,179.544,13.123,-78.629
14203,-0.2217,0.0176,-0.9839,-2.563,-2.625,0.793,179.511,13.145,-78.635
14213,-0.2227,0.0195,-0.9810,-2.625,-2.686,0.610,179.478,13.173,-78.640
14223,-0.2256,0.0200,-0.9810,-2.808,-2.930,0.305,179.440,13.195,-78.646
14233,-0.2290,0.0239,-0.9800,-2.808,-3.113,-0.366,179.407,13.228,-78.640
14243,-0.2314,0.0264,-0.9819,-2.563,-3.357,-1.343,179.374,13.260,-78.629
14253,-0.2344,0.0244,-0.9883,-2.136,-3.906,-2.686,179.352,13.299,-78.602
14263,-0.2388,0.0229,-0.9990,-1.587,-4.700,-3.967,179.341,13.348,-78.563
14273,-0.2412,0.0181,-1.0078,-1.404,-5.432,-4.639,179.330,13.403,-78.514
14283,-0.2461,0.0156,-1.0117,-1.282,-5.981,-4.700,179.330,13.469,-78.464
14293,-0.2480,0.0142,-1.0122,-0.916,-6.531,-4.333,179.330,13.535,-78.420
14303,-0.2520,0.0142,-1.0103,-0.183,-6.897,-3.784,179.335,13.607,-78.382
14313,-0.2534,0.0146,-1.0024,0.916,-6.897,-3.235,179.346,13.683,-78.354
14323,-0.2524,0.0161,-1.0010,1.892,-6.531,-2.808,179.368,13.755,-78.322
14333,-0.2505,0.0181,-0.9922,2.258,-5.920,-2.258,179.396,13.815,-78.300
14343,-0.2515,0.0186,-0.9819,2.136,-5.188,-1.770,179.412,13.870,-78.283
14353,-0.2505,0.0171,-0.9731,1.709,-4.395,-1.465,179.429,13.920,-78.267
14363,-0.2520,0.0161,-0.9663,1.465,-3.662,-1.343,179.445,13.964,-78.256
14373,-0.2500,0.0142,-0.9585,0.977,-3.113,-0.977,179.456,14.002,-78.245
14383,-0.2544,0.0156,-0.9517,1.038,-2.441,-0.793,179.462,14.035,-78.239
14393,-0.2539,0.0098,-0.9478,1.770,-1.221,-0.671,179.478,14.057,-78.234
14403,-0.2559,0.0068,-0.9482,2.869,0.427,-0.671,179.511,14.063,-78.223
14413,-0.2554,0.0029,-0.9443,3.906,2.319,-0.549,179.555,14.052,-78.217
14423,-0.2490,0.0005,-0.9468,4.883,4.272,-0.244,179.610,14.019,-78.217
14433,-0.2456,-0.0039,-0.9512,5.188,6.042,0.305,-179.764,13.964,-78.217
14443,-0.2446,-0.0020,-0.9551,4.578,7.996,0.977,-179.720,13.887,-78.228
14453,-0.2432,-0.0020,-0.9595,3.723,9.705,1.465,-179.687,13.793,-78.245
14463,-0.2412,-0.0005,-0.9658,2.625,11.414,1.770,-179.670,13.683,-78.261
14473,-0.2378,-0.0005,-0.9746,1.648,13.123,2.136,-179.659,13.552,-78.283
14483,-0.2334,-0.0020,-0.9839,0.549,14.343,2.686,-179.665,13.409,-78.316
14494,-0.2290,-0.0024,-0.9863,-0.366,14.893,3.113,-179.676,13.260,-78.349
14503,-0.2256,-0.0020,-0.9937,-1.160,14.709,3.174,-179.698,13.107,-78.382
14513,-0.2236,0.0005,-0.9956,-1.282,13.733,3.174,179.967,12.969,-78.415
14523,-0.2222,-0.0015,-0.9946,-1.038,12.451,3.174,-179.912,12.843,-78.448
14533,-0.2187,0.0024,-0.9961,-0.793,11.047,2.991,179.857,12.728,-78.475
14543,-0.2163,0.0059,-0.9971,-0.610,9.216,2.319,179.846,12.634,-78.503
14553,-0.2158,0.0044,-1.0020,-0.854,7.629,1.770,179.830,12.552,-78.519
14563,-0.2119,0.0107,-1.0029,-1.404,6.531,1.526,179.808,12.480,-78.536
14573,-0.2056,0.0132,-1.0049,-1.404,4.883,0.977,179.786,12.426,-78.541
14583,-0.2012,0.0132,-1.0054,-0.793,2.502,0.183,179.775,12.387,-78.547
14593,-0.2046,0.0146,-1.0107,-0.305,-0.244,-0.427,179.764,12.382,-78.541
14603,-0.2114,0.0127,-1.0146,0.000,-2.319,-0.549,179.764,12.398,-78.536
14613,-0.2163,0.0098,-1.0083,0.122,-3.113,-0.366,179.758,12.426,-78.530
14623,-0.2168,0.0107,-1.0044,-0.061,-2.991,-0.122,179.758,12.453,-78.530
14633,-0.2212,0.0127,-1.0039,-0.305,-2.319,-0.244,179.747,12.475,-78.530
14643,-0.2207,0.0142,-1.0020,-0.366,-1.587,-0.305,179.742,12.491,-78.525
14653,-0.2183,0.0112,-0.9946,-0.061,-0.977,-0.244,179.736,12.497,-78.525
14663,-0.2178,0.0068,-0.9927,0.549,-0.793,-0.183,179.742,12.502,-78.519
14673,-0.2212,0.0049,-0.9897,0.854,-0.854,-0.183,179.747,12.513,-78.519
14683,-0.2207,0.0054,-0.9863,0.671,-1.282,0.061,179.753,12.530,-78.519
14693,-0.2197,0.0078,-0.9805,0.549,-1.648,0.366,179.758,12.546,-78.525
14703,-0.2197,0.0117,-0.9790,0.305,-1.831,0.427,179.753,12.563,-78.530
14713,-0.2212,0.0098,-0.9819,0.305,-1.526,0.061,179.753,12.579,-78.530
14723,-0.2241,0.0059,-0.9829,0.427,-0.793,-0.366,179.758,12.590,-78.525
14733,-0.2251,0.0044,-0.9814,0.549,-0.061,-0.488,179.764,12.596,-78.519
14743,-0.2251,-0.0020,-0.9810,0.671,0.427,-0.244,-179.885,12.596,-78.519
14753,-0.2261,-0.0063,-0.9795,0.793,0.427,0.061,-179.874,12.596,-78.519
14763,-0.2246,-0.0068,-0.9800,0.732,0.305,0.427,-179.863,12.596,-78.525
14773,-0.2236,-0.0059,-0.9771,0.793,0.122,0.671,-179.857,12.596,-78.530
14783,-0.2231,-0.0034,-0.9722,0.916,0.305,0.916,-179.846,12.596,-78.541
14793,-0.2212,-0.0005,-0.9756,1.160,0.732,1.038,-179.841,12.590,-78.552
14803,-0.2187,0.0010,-0.9736,1.526,1.160,0.977,179.940,12.579,-78.558
14813,-0.2192,0.0024,-0.9766,2.136,1.526,0.854,179.956,12.568,-78.569
14823,-0.2197,0.0024,-0.9785,2.808,1.709,0.916,179.984,12.552,-78.580
14833,-0.2217,0.0010,-0.9790,3.296,1.831,1.160,-179.989,12.535,-78.591
14843,-0.2231,0.0039,-0.9780,3.418,1.953,1.404,-179.962,12.519,-78.602
14853,-0.2231,0.0093,-0.9805,3.418,2.136,1.648,-179.934,12.502,-78.624
14863,-0.2227,0.0117,-0.9810,3.479,2.319,1.587,-179.912,12.480,-78.640
14873,-0.2256,0.0098,-0.9863,3.845,2.686,1.221,-179.885,12.458,-78.651
14883,-0.2290,0.0063,-0.9907,4.333,3.052,0.671,-179.846,12.431,-78.657
14893,-0.2261,0.0039,-0.9951,4.456,3.357,0.244,-179.808,12.404,-78.662
14903,-0.2241,0.0010,-0.9995,4.272,3.479,0.061,-179.769,12.371,-78.662
14913,-0.2241,-0.0034,-1.0049,4.028,3.235,0.000,-179.802,12.343,-78.662
14923,-0.2197,-0.0044,-1.0083,3.662,2.869,-0.183,-179.764,12.310,-78.657
14933,-0.2148,-0.0068,-1.0088,3.296,2.441,-0.366,-179.731,12.283,-78.657
14943,-0.2124,-0.0083,-1.0078,2.869,1.709,-0.488,-179.698,12.266,-78.651
14953,-0.2090,-0.0088,-1.0068,2.380,1.038,-0.244,-179.670,12.250,-78.646
14963,-0.2095,-0.0054,-1.0054,1.587,0.610,0.244,-179.659,12.239,-78.651
14973,-0.2095,-0.0010,-1.0010,0.916,0.305,0.488,-179.654,12.228,-78.657
14983,-0.2104,0.0005,-0.9946,0.488,0.000,0.549,179.967,12.228,-78.662
14994,-0.2100,0.0015,-0.9907,0.183,-0.183,0.427,179.967,12.228,-78.668
15003,-0.2090,0.0005,-0.9873,0.000,-0.183,0.366,179.967,12.228,-78.668
15013,-0.2134,-0.0029,-0.9839,-0.122,0.305,0.183,-179.824,12.222,-78.673
15023,-0.2153,0.0000,-0.9873,-0.061,1.221,0.000,-180.000,12.211,-78.673
15033,-0.2119,0.0000,-0.9883,0.366,2.197,-0.244,-180.000,12.189,-78.668
15043,-0.2080,-0.0049,-0.9927,1.038,2.747,-0.427,-179.714,12.156,-78.662
15053,-0.2061,-0.0088,-0.9912,1.404,2.502,-0.488,-179.698,12.129,-78.657
15063,-0.2046,-0.0098,-0.9897,1.099,1.587,-0.488,-179.681,12.107,-78.657
15073,-0.2090,-0.0103,-0.9932,0.854,0.549,-0.671,-179.670,12.101,-78.646
15083,-0.2134,-0.0146,-0.9971,0.854,-0.061,-0.916,-179.654,12.101,-78.640
15093,-0.2148,-0.0166,-0.9976,0.549,-0.244,-0.977,-179.643,12.107,-78.629
15103,-0.2153,-0.0146,-0.9976,0.061,-0.305,-0.916,-179.632,12.107,-78.618
15113,-0.2124,-0.0137,-0.9966,-0.488,-0.549,-0.732,-179.632,12.112,-78.613
15123,-0.2114,-0.0132,-0.9937,-0.916,-0.854,-0.488,-179.637,12.118,-78.607
15133,-0.2124,-0.0093,-0.9912,-0.916,-1.221,-0.366,-179.643,12.134,-78.602
15143,-0.2104,-0.0088,-0.9868,-0.671,-1.221,-0.183,-179.648,12.145,-78.602
15153,-0.2119,-0.0093,-0.9868,-0.305,-0.854,-0.061,-179.648,12.151,-78.602
15163,-0.2090,-0.0044,-0.9873,-0.305,-0.305,-0.122,-179.654,12.151,-78.596
15173,-0.2095,-0.0020,-0.9868,-0.366,0.183,-0.183,-179.659,12.151,-78.596
15183,-0.2090,0.0000,-0.9888,-0.366,0.305,-0.183,-180.000,12.145,-78.596
15193,-0.2090,0.0020,-0.9888,-0.305,0.000,-0.244,179.995,12.140,-78.591
15203,-0.2139,0.0000,-0.9917,-0.366,-0.183,-0.244,179.989,12.145,-78.591
15213,-0.2163,-0.0015,-0.9893,-0.366,-0.122,-0.305,-179.912,12.145,-78.585
15224,-0.2187,-0.0020,-0.9829,-0.366,0.183,-0.366,-179.918,12.151,-78.585
15234,-0.2212,-0.0044,-0.9761,-0.061,0.488,-0.488,-179.912,12.151,-78.580
15243,-0.2236,-0.0103,-0.9702,0.183,0.732,-0.488,-179.907,12.151,-78.574
15253,-0.2236,-0.0156,-0.9668,0.305,1.038,-0.427,-179.890,12.151,-78.569
15263,-0.2241,-0.0210,-0.9639,0.488,1.831,-0.183,-179.874,12.140,-78.569
15273,-0.2236,-0.0220,-0.9658,0.793,3.052,0.061,-179.857,12.118,-78.569
15283,-0.2192,-0.0181,-0.9692,1.404,4.517,0.366,-179.835,12.079,-78.569
15293,-0.2134,-0.0156,-0.9727,2.625,5.859,0.610,-179.802,12.025,-78.580
15303,-0.2036,-0.0107,-0.9731,4.028,6.592,0.916,-179.758,11.959,-78.585
15313,-0.1958,-0.0044,-0.9824,5.371,6.653,0.732,-179.709,11.887,-78.596
15323,-0.1948,-0.0054,-0.9922,6.714,6.165,0.244,-179.643,11.816,-78.596
15333,-0.1958,0.0005,-1.0010,7.324,5.249,-0.305,179.967,11.755,-78.596
15343,-0.2012,0.0020,-1.0142,7.996,4.517,-0.671,-179.951,11.706,-78.591
15353,-0.2051,-0.0005,-1.0254,8.362,4.211,-0.671,-179.973,11.662,-78.580
15363,-0.2056,-0.0029,-1.0303,7.812,4.211,-0.610,-179.890,11.618,-78.574
15373,-0.1978,-0.0068,-1.0361,6.287,3.601,-0.488,-179.824,11.574,-78.569
15383,-0.1968,-0.0083,-1.0366,4.028,1.892,-0.366,-179.780,11.547,-78.569
15393,-0.2021,-0.0078,-1.0381,1.465,-0.610,-0.244,-179.764,11.547,-78.563
15403,-0.2056,-0.0034,-1.0352,-1.038,-3.113,-0.061,-179.775,11.574,-78.563
15413,-0.2109,0.0010,-1.0278,-2.747,-4.639,0.061,179.945,11.618,-78.563
15423,-0.2100,0.0054,-1.0176,-3.296,-5.310,0.061,179.907,11.673,-78.563
15434,-0.2095,0.0063,-1.0083,-2.930,-5.493,-0.183,179.874,11.728,-78.563
15443,-0.2065,0.0068,-1.0029,-2.319,-5.737,-0.488,179.852,11.783,-78.558
15453,-0.2139,0.0039,-0.9980,-1.526,-5.798,-0.977,179.835,11.843,-78.547
15463,-0.2183,0.0000,-0.9932,-1.282,-5.737,-1.282,179.830,11.909,-78.536
15473,-0.2227,-0.0034,-0.9839,-1.648,-5.615,-1.404,-179.797,11.970,-78.519
15484,-0.2231,-0.0034,-0.9775,-2.197,-5.249,-1.404,-179.819,12.030,-78.508
15494,-0.2197,-0.0029,-0.9692,-2.686,-4.639,-1.404,-179.841,12.085,-78.492
15503,-0.2178,-0.0039,-0.9629,-2.869,-3.906,-1.465,-179.863,12.129,-78.475
15514,-0.2148,-0.0068,-0.9551,-2.563,-3.174,-1.648,-179.885,12.167,-78.459
15523,-0.2178,-0.0137,-0.9546,-1.526,-2.686,-1.770,-179.890,12.200,-78.442
15534,-0.2227,-0.0244,-0.9624,-0.244,-1.953,-2.014,-179.874,12.228,-78.420
15544,-0.2241,-0.0332,-0.9717,0.427,-0.916,-1.953,-179.846,12.244,-78.398
15554,-0.2231,-0.0347,-0.9780,0.427,0.244,-1.526,-179.819,12.250,-78.387
15564,-0.2139,-0.0293,-0.9858,0.183,1.038,-0.916,-179.802,12.239,-78.376
15574,-0.2095,-0.0269,-0.9902,0.244,1.343,-0.488,-179.786,12.222,-78.371
15584,-0.2026,-0.0239,-0.9937,0.610,1.404,-0.183,-179.764,12.200,-78.371
15593,-0.2002,-0.0210,-1.0000,0.793,1.221,0.000,-179.747,12.178,-78.371
15604,-0.1963,-0.0186,-1.0010,0.610,1.038,0.061,-179.736,12.156,-78.371
15614,-0.1982,-0.0190,-0.9946,0.061,0.732,0.183,-179.725,12.145,-78.371
15624,-0.2056,-0.0161,-0.9941,-0.610,0.488,0.305,-179.725,12.134,-78.376
15634,-0.2114,-0.0146,-0.9912,-0.977,0.488,0.427,-179.731,12.129,-78.376
15644,-0.2124,-0.0127,-0.9922,-0.916,0.916,0.610,-179.736,12.118,-78.387
15654,-0.2114,-0.0112,-0.9937,-0.488,1.526,0.671,-179.736,12.101,-78.393
15664,-0.2109,-0.0137,-0.9951,0.244,2.075,0.427,-179.731,12.079,-78.398
15674,-0.2080,-0.0151,-0.9966,0.977,2.197,0.305,-179.714,12.057,-78.398
15684,-0.2065,-0.0200,-0.9961,1.221,1.892,0.366,-179.698,12.036,-78.404
15694,-0.2056,-0.0195,-0.9966,1.038,1.282,0.549,-179.681,12.019,-78.409
15704,-0.2065,-0.0161,-0.9951,0.549,0.610,0.793,-179.670,12.008,-78.420
15714,-0.2080,-0.0137,-0.9932,0.122,0.000,0.916,-179.665,12.008,-78.426
15724,-0.2124,-0.0132,-0.9902,-0.122,-0.244,0.977,-179.665,12.008,-78.437
15734,-0.2134,-0.0112,-0.9893,-0.122,0.061,0.854,-179.665,12.008,-78.448
15744,-0.2144,-0.0122,-0.9883,0.366,0.671,0.671,-179.659,12.008,-78.453
15754,-0.2163,-0.0151,-0.9863,1.099,1.038,0.610,-179.643,11.997,-78.459
15764,-0.2134,-0.0200,-0.9849,1.526,1.099,0.671,-179.621,11.992,-78.464
15774,-0.2124,-0.0210,-0.9854,1.526,0.854,0.916,-179.599,11.986,-78.475
15784,-0.2139,-0.0190,-0.9863,1.343,0.732,1.221,-179.583,11.981,-78.486
15794,-0.2134,-0.0156,-0.9858,1.160,0.854,1.587,-179.572,11.975,-78.503
15804,-0.2148,-0.0112,-0.9814,1.160,1.282,1.770,-179.561,11.964,-78.525
15814,-0.2148,-0.0073,-0.9795,1.587,1.831,1.770,-179.550,11.953,-78.541
15824,-0.2124,-0.0044,-0.9819,2.258,2.441,1.587,-179.533,11.931,-78.558
15834,-0.2124,-0.0059,-0.9814,3.052,3.235,1.343,-179.506,11.898,-78.569
15844,-0.2100,-0.0103,-0.9814,3.662,3.845,1.099,-179.467,11.865,-78.585
15854,-0.2075,-0.0146,-0.9824,4.150,4.150,0.854,-179.429,11.821,-78.591
15864,-0.2075,-0.0171,-0.9824,4.333,4.150,0.671,-179.379,11.783,-78.602
15874,-0.2085,-0.0200,-0.9858,4.272,3.906,0.610,-179.335,11.744,-78.607
15884,-0.2085,-0.0239,-0.9893,4.089,3.601,0.610,-179.286,11.711,-78.613
15894,-0.2090,-0.0244,-0.9951,3.479,3.479,0.793,-179.247,11.678,-78.618
15904,-0.2080,-0.0225,-0.9956,2.625,3.601,0.916,-179.220,11.646,-78.629
15917,-0.2075,-0.0239,-1.0029,1.953,3.662,0.916,-179.198,11.607,-78.640
15924,-0.2075,-0.0234,-1.0068,1.282,3.540,0.793,-179.182,11.574,-78.651
15934,-0.2031,-0.0220,-1.0078,0.793,3.174,0.671,-179.171,11.541,-78.657
15944,-0.1982,-0.0176,-1.0103,0.549,2.441,0.427,-179.165,11.514,-78.662
15954,-0.1978,-0.0186,-1.0112,0.793,1.221,0.244,-179.154,11.497,-78.662
15964,-0.1997,-0.0200,-1.0117,0.793,-0.122,0.061,-179.143,11.497,-78.662
15974,-0.2036,-0.0210,-1.0117,0.488,-1.099,-0.122,-179.132,11.503,-78.662
15984,-0.2031,-0.0190,-1.0068,-0.122,-1.648,-0.122,-179.132,11.519,-78.662
15994,-0.2041,-0.0156,-0.9985,-0.793,-2.014,-0.244,-179.138,11.541,-78.657
16004,-0.1997,-0.0166,-0.9941,-1.099,-2.380,-0.549,-179.149,11.563,-78.651
16014,-0.2031,-0.0176,-0.9932,-1.099,-2.625,-0.793,-179.154,11.585,-78.646
16024,-0.2061,-0.0225,-0.9961,-0.854,-2.258,-1.038,-179.160,11.613,-78.635
16034,-0.2051,-0.0229,-0.9976,-0.671,-1.404,-1.099,-179.160,11.624,-78.624
16044,-0.2031,-0.0264,-0.9961,-0.366,-0.793,-0.977,-179.154,11.629,-78.613
16054,-0.1987,-0.0278,-0.9971,0.061,-0.793,-0.732,-179.143,11.635,-78.602
16064,-0.1982,-0.0312,-0.9956,0.549,-1.343,-0.610,-179.127,11.646,-78.596
16074,-0.1987,-0.0342,-0.9941,0.610,-1.953,-0.305,-179.110,11.662,-78.596
16083,-0.2002,-0.0337,-0.9907,0.000,-2.319,0.000,-179.099,11.678,-78.596
16094,-0.2026,-0.0327,-0.9878,-0.732,-2.319,0.305,-179.094,11.700,-78.596
16104,-0.2012,-0.0293,-0.9814,-1.404,-2.258,0.732,-179.105,11.722,-78.602
16114,-0.2007,-0.0220,-0.9790,-1.648,-2.136,1.038,-179.116,11.744,-78.613
16124,-0.2031,-0.0190,-0.9741,-1.404,-1.831,1.099,-179.132,11.761,-78.624
16134,-0.2056,-0.0142,-0.9751,-0.671,-1.221,0.916,-179.143,11.777,-78.635
16144,-0.2065,-0.0142,-0.9727,0.244,-0.671,0.549,-179.138,11.783,-78.640
16154,-0.2104,-0.0161,-0.9731,0.793,-0.366,0.122,-179.132,11.794,-78.640
16164,-0.2139,-0.0186,-0.9731,0.977,-0.061,-0.183,-179.121,11.799,-78.640
16174,-0.2134,-0.0200,-0.9746,0.793,-0.061,-0.427,-179.105,11.805,-78.635
16184,-0.2119,-0.0176,-0.9795,0.671,-0.305,-0.610,-179.099,11.810,-78.629
16194,-0.2124,-0.0151,-0.9810,0.916,-0.732,-0.854,-179.088,11.821,-78.618
16204,-0.2124,-0.0122,-0.9863,1.648,-1.099,-1.160,-179.072,11.838,-78.607
16214,-0.2114,-0.0132,-0.9888,2.686,-1.404,-1.404,-179.044,11.854,-78.591
16224,-0.2104,-0.0117,-0.9941,3.784,-1.831,-1.648,-179.006,11.871,-78.574
16234,-0.2100,-0.0166,-1.0000,5.066,-2.197,-2.014,-178.951,11.893,-78.552
16244,-0.2075,-0.0200,-1.0039,5.493,-2.197,-2.136,-178.890,11.915,-78.530
16254,-0.2100,-0.0264,-1.0059,5.066,-2.380,-2.014,-178.830,11.937,-78.514
16264,-0.2134,-0.0283,-1.0098,3.845,-2.380,-1.770,-178.786,11.959,-78.492
16274,-0.2134,-0.0273,-1.0093,2.563,-2.075,-1.404,-178.753,11.981,-78.481
16284,-0.2129,-0.0239,-1.0049,1.587,-1.892,-1.221,-178.737,11.997,-78.464
16294,-0.2104,-0.0254,-1.0010,0.671,-2.014,-1.099,-178.726,12.014,-78.453
16304,-0.2114,-0.0225,-0.9980,0.061,-2.136,-0.977,-178.720,12.036,-78.442
16314,-0.2168,-0.0234,-1.0020,-0.061,-2.075,-0.977,-178.720,12.057,-78.431
16324,-0.2129,-0.0234,-1.0034,-0.061,-1.831,-0.916,-178.715,12.074,-78.420
16334,-0.2114,-0.0229,-1.0010,-0.061,-1.892,-0.977,-178.715,12.090,-78.415
16344,-0.2080,-0.0229,-0.9976,-0.244,-2.441,-1.038,-178.715,12.112,-78.404
