elapsed_ms,acc_x_g,acc_y_g,acc_z_g,gyro_x_dps,gyro_y_dps,gyro_z_dps,angle_x_deg,angle_y_deg,angle_z_deg
0,-0.3281,0.2842,-0.9224,0.244,0.183,0.488,163.015,18.787,-63.353
10,-0.3286,0.2861,-0.9253,0.183,-0.061,0.427,163.015,18.787,-63.353
20,-0.3276,0.2861,-0.9219,0.183,-0.244,0.366,163.010,18.787,-63.353
30,-0.3286,0.2827,-0.9224,0.061,-0.366,0.244,163.010,18.792,-63.353
40,-0.3301,0.2827,-0.9209,-0.183,-0.488,0.122,163.010,18.798,-63.353
50,-0.3291,0.2856,-0.9214,-0.427,-0.488,0.061,162.999,18.798,-63.353
60,-0.3291,0.2866,-0.9243,-0.305,-0.305,0.122,162.993,18.803,-63.353
70,-0.3301,0.2852,-0.9219,0.122,-0.061,0.061,162.993,18.803,-63.353
80,-0.3320,0.2842,-0.9209,0.427,-0.061,0.000,162.999,18.809,-63.353
90,-0.3306,0.2812,-0.9199,0.549,-0.305,-0.122,163.004,18.809,-63.353
100,-0.3286,0.2808,-0.9185,0.305,-0.549,-0.122,163.004,18.820,-63.353
110,-0.3286,0.2808,-0.9189,-0.061,-0.610,-0.122,163.004,18.825,-63.353
120,-0.3306,0.2803,-0.9209,-0.427,-0.305,-0.183,162.999,18.831,-63.353
130,-0.3296,0.2842,-0.9194,-0.488,0.183,-0.183,162.993,18.831,-63.353
140,-0.3276,0.2837,-0.9180,0.000,0.671,-0.122,162.993,18.825,-63.353
150,-0.3286,0.2793,-0.9238,0.610,0.793,-0.061,163.004,18.814,-63.353
160,-0.3291,0.2769,-0.9233,0.916,0.488,0.000,163.015,18.809,-63.353
170,-0.3276,0.2793,-0.9258,0.671,-0.122,0.061,163.026,18.809,-63.353
180,-0.3291,0.2783,-0.9287,0.244,-0.610,0.122,163.026,18.814,-63.353
190,-0.3306,0.2793,-0.9253,-0.061,-0.610,0.183,163.026,18.820,-63.353
200,-0.3281,0.2788,-0.9199,-0.244,-0.366,0.122,163.026,18.825,-63.353
210,-0.3301,0.2798,-0.9204,-0.183,-0.183,0.122,163.026,18.825,-63.353
220,-0.3315,0.2798,-0.9160,0.061,-0.305,0.183,163.026,18.831,-63.353
230,-0.3335,0.2803,-0.9155,0.244,-0.427,0.305,163.026,18.842,-63.353
240,-0.3330,0.2803,-0.9155,0.305,-0.366,0.305,163.026,18.847,-63.353
250,-0.3311,0.2798,-0.9170,0.305,-0.122,0.244,163.026,18.847,-63.353
260,-0.3306,0.2793,-0.9204,0.061,0.183,0.183,163.026,18.847,-63.353
270,-0.3286,0.2822,-0.9204,-0.183,0.549,0.183,163.026,18.842,-63.353
280,-0.3276,0.2856,-0.9194,-0.122,0.732,0.183,163.021,18.831,-63.353
290,-0.3271,0.2856,-0.9219,0.061,0.854,0.122,163.021,18.825,-63.353
300,-0.3281,0.2856,-0.9258,0.244,0.732,0.061,163.021,18.814,-63.353
310,-0.3291,0.2871,-0.9292,0.549,0.671,0.000,163.026,18.809,-63.353
320,-0.3267,0.2852,-0.9292,0.671,0.488,-0.122,163.032,18.803,-63.353
330,-0.3267,0.2827,-0.9297,0.427,0.244,-0.183,163.037,18.798,-63.353
340,-0.3286,0.2832,-0.9297,0.061,-0.061,-0.305,163.043,18.798,-63.353
350,-0.3286,0.2817,-0.9248,-0.244,-0.366,-0.427,163.037,18.803,-63.353
360,-0.3276,0.2827,-0.9233,-0.366,-0.549,-0.488,163.037,18.809,-63.353
370,-0.3286,0.2812,-0.9229,-0.427,-0.549,-0.488,163.032,18.814,-63.353
380,-0.3296,0.2788,-0.9199,-0.305,-0.427,-0.488,163.032,18.820,-63.353
390,-0.3315,0.2778,-0.9189,-0.183,-0.366,-0.488,163.032,18.831,-63.353
400,-0.3325,0.2749,-0.9180,-0.061,-0.244,-0.427,163.037,18.836,-63.353
410,-0.3315,0.2749,-0.9175,-0.122,-0.183,-0.305,163.037,18.842,-63.353
420,-0.3330,0.2764,-0.9165,-0.122,-0.061,-0.122,163.037,18.847,-63.353
430,-0.3315,0.2759,-0.9189,0.061,0.122,0.000,163.043,18.847,-63.353
440,-0.3296,0.2754,-0.9185,0.061,0.305,0.061,163.048,18.842,-63.353
450,-0.3286,0.2769,-0.9238,-0.061,0.366,0.122,163.048,18.842,-63.353
460,-0.3291,0.2778,-0.9233,0.000,0.488,0.244,163.048,18.836,-63.353
470,-0.3271,0.2812,-0.9243,0.000,0.549,0.305,163.048,18.825,-63.353
480,-0.3281,0.2798,-0.9248,0.000,0.427,0.305,163.048,18.820,-63.353
490,-0.3281,0.2793,-0.9253,-0.122,0.183,0.244,163.048,18.820,-63.353
500,-0.3291,0.2803,-0.9268,-0.366,-0.061,0.244,163.048,18.820,-63.353
510,-0.3291,0.2812,-0.9233,-0.488,-0.061,0.244,163.043,18.820,-63.353
520,-0.3291,0.2832,-0.9238,-0.549,-0.061,0.183,163.032,18.820,-63.353
530,-0.3291,0.2837,-0.9204,-0.549,-0.122,0.183,163.026,18.820,-63.353
540,-0.3291,0.2827,-0.9199,-0.305,-0.244,0.244,163.021,18.820,-63.353
550,-0.3296,0.2808,-0.9170,-0.061,-0.244,0.305,163.021,18.825,-63.353
560,-0.3330,0.2783,-0.9170,0.000,-0.183,0.305,163.021,18.831,-63.353
570,-0.3315,0.2808,-0.9165,-0.122,-0.122,0.305,163.015,18.831,-63.353
580,-0.3306,0.2822,-0.9160,-0.305,0.122,0.305,163.010,18.831,-63.353
590,-0.3301,0.2832,-0.9160,-0.427,0.427,0.305,163.004,18.831,-63.353
600,-0.3320,0.2852,-0.9194,-0.427,0.671,0.305,162.999,18.825,-63.353
610,-0.3296,0.2861,-0.9214,-0.244,0.854,0.244,162.993,18.814,-63.353
620,-0.3286,0.2856,-0.9224,-0.061,0.916,0.244,162.988,18.803,-63.353
630,-0.3281,0.2856,-0.9219,0.061,0.916,0.183,162.988,18.798,-63.353
640,-0.3291,0.2881,-0.9229,0.000,0.610,0.122,162.988,18.787,-63.353
650,-0.3301,0.2871,-0.9224,-0.061,0.427,0.061,162.982,18.787,-63.353
660,-0.3296,0.2847,-0.9263,0.000,0.366,-0.061,162.982,18.781,-63.353
670,-0.3306,0.2822,-0.9233,0.000,0.427,-0.183,162.982,18.781,-63.353
680,-0.3276,0.2827,-0.9229,-0.122,0.427,-0.244,162.982,18.776,-63.353
690,-0.3291,0.2842,-0.9219,-0.244,0.366,-0.305,162.982,18.776,-63.353
700,-0.3281,0.2832,-0.9248,-0.366,0.488,-0.366,162.977,18.770,-63.353
710,-0.3281,0.2808,-0.9214,-0.427,0.549,-0.366,162.977,18.765,-63.353
720,-0.3291,0.2817,-0.9214,-0.427,0.732,-0.427,162.977,18.765,-63.353
730,-0.3276,0.2822,-0.9209,-0.305,0.732,-0.305,162.971,18.759,-63.353
740,-0.3296,0.2812,-0.9185,0.000,0.671,-0.244,162.977,18.754,-63.353
750,-0.3281,0.2803,-0.9175,0.305,0.610,-0.244,162.977,18.748,-63.353
760,-0.3301,0.2808,-0.9229,0.366,0.549,-0.244,162.988,18.748,-63.353
770,-0.3271,0.2793,-0.9258,0.305,0.671,-0.244,162.993,18.737,-63.353
780,-0.3252,0.2778,-0.9263,0.061,0.977,-0.244,162.999,18.732,-63.353
790,-0.3252,0.2793,-0.9292,-0.183,0.977,-0.244,162.999,18.721,-63.353
800,-0.3262,0.2798,-0.9292,-0.244,0.793,-0.244,163.004,18.710,-63.353
810,-0.3257,0.2793,-0.9282,-0.244,0.488,-0.183,163.004,18.704,-63.353
820,-0.3252,0.2798,-0.9268,-0.122,0.000,-0.061,163.004,18.704,-63.353
830,-0.3257,0.2778,-0.9253,0.000,-0.305,0.000,163.004,18.704,-63.353
840,-0.3267,0.2764,-0.9204,0.061,-0.427,0.122,163.010,18.710,-63.353
850,-0.3291,0.2769,-0.9199,0.000,-0.244,0.183,163.010,18.715,-63.353
860,-0.3315,0.2764,-0.9150,-0.122,0.000,0.244,163.010,18.721,-63.353
870,-0.3330,0.2778,-0.9155,-0.183,0.244,0.366,163.010,18.721,-63.353
880,-0.3335,0.2798,-0.9141,-0.122,0.366,0.366,163.004,18.721,-63.353
890,-0.3315,0.2778,-0.9146,-0.061,0.488,0.488,163.004,18.721,-63.353
900,-0.3301,0.2798,-0.9165,0.000,0.732,0.488,163.004,18.715,-63.353
910,-0.3291,0.2832,-0.9175,0.061,1.038,0.549,163.004,18.704,-63.353
920,-0.3276,0.2832,-0.9194,0.122,1.404,0.549,163.004,18.688,-63.353
931,-0.3252,0.2876,-0.9219,0.183,1.465,0.427,162.999,18.671,-63.353
940,-0.3242,0.2886,-0.9258,0.183,1.343,0.244,162.999,18.660,-63.353
950,-0.3232,0.2886,-0.9292,0.061,1.160,0.183,162.999,18.644,-63.353
960,-0.3237,0.2900,-0.9272,-0.122,0.977,-0.061,162.993,18.633,-63.353
970,-0.3252,0.2886,-0.9297,-0.244,0.916,-0.183,162.993,18.622,-63.353
980,-0.3232,0.2891,-0.9307,-0.305,0.793,-0.244,162.988,18.616,-63.353
990,-0.3242,0.2881,-0.9297,-0.122,0.610,-0.366,162.988,18.605,-63.353
1000,-0.3252,0.2852,-0.9243,0.061,0.366,-0.488,162.988,18.605,-63.353
1010,-0.3276,0.2842,-0.9229,0.061,0.061,-0.549,162.988,18.605,-63.353
1020,-0.3267,0.2812,-0.9248,0.000,0.000,-0.671,162.993,18.611,-63.353
1030,-0.3267,0.2798,-0.9224,-0.244,0.122,-0.671,162.993,18.611,-63.353
1040,-0.3271,0.2803,-0.9224,-0.366,0.183,-0.732,162.993,18.616,-63.353
1050,-0.3267,0.2812,-0.9224,-0.244,0.305,-0.732,162.993,18.616,-63.353
1060,-0.3271,0.2788,-0.9229,0.000,0.244,-0.610,162.999,18.616,-63.353
1070,-0.3271,0.2764,-0.9224,0.244,0.183,-0.488,163.004,18.616,-63.353
1080,-0.3257,0.2778,-0.9224,0.244,0.183,-0.366,163.010,18.616,-63.353
1090,-0.3223,0.2778,-0.9253,0.122,0.305,-0.244,163.015,18.611,-63.353
1100,-0.3228,0.2773,-0.9253,-0.061,0.366,-0.122,163.021,18.605,-63.353
1110,-0.3242,0.2783,-0.9258,-0.305,0.427,-0.122,163.021,18.605,-63.353
1120,-0.3242,0.2793,-0.9297,-0.183,0.366,-0.061,163.021,18.600,-63.353
1130,-0.3242,0.2798,-0.9272,0.000,0.183,0.061,163.021,18.594,-63.353
1140,-0.3257,0.2788,-0.9282,0.183,-0.122,0.122,163.026,18.594,-63.353
1150,-0.3247,0.2773,-0.9277,0.305,-0.427,0.183,163.032,18.600,-63.353
1160,-0.3252,0.2749,-0.9277,0.122,-0.549,0.244,163.037,18.605,-63.353
1170,-0.3252,0.2769,-0.9282,-0.183,-0.610,0.305,163.037,18.611,-63.353
1180,-0.3223,0.2803,-0.9302,-0.427,-0.488,0.427,163.032,18.611,-63.353
1190,-0.3242,0.2798,-0.9297,-0.244,-0.427,0.549,163.032,18.611,-63.353
1200,-0.3267,0.2900,-0.9282,0.183,-0.488,0.610,163.026,18.611,-63.353
1210,-0.3262,0.2817,-0.9292,1.343,-0.610,0.793,163.037,18.616,-63.353
1220,-0.3247,0.2778,-0.9258,1.892,-0.977,0.916,163.054,18.622,-63.353
1230,-0.3267,0.2773,-0.9268,1.465,-1.465,0.671,163.070,18.633,-63.353
1240,-0.3271,0.2798,-0.9238,0.610,-1.892,0.610,163.070,18.649,-63.353
1250,-0.3252,0.2812,-0.9224,-0.305,-1.892,0.549,163.065,18.666,-63.353
1260,-0.3281,0.2822,-0.9204,-0.854,-1.648,0.366,163.054,18.682,-63.353
1270,-0.3311,0.2866,-0.9160,-0.671,-1.282,0.305,163.037,18.699,-63.353
1280,-0.3296,0.2856,-0.9131,0.000,-0.977,0.305,163.032,18.710,-63.353
1290,-0.3301,0.2803,-0.9146,0.671,-0.793,0.488,163.037,18.721,-63.353
1300,-0.3330,0.2788,-0.9121,0.854,-0.793,0.549,163.043,18.732,-63.353
1310,-0.3335,0.2817,-0.9092,0.610,-0.671,0.549,163.043,18.743,-63.353
1320,-0.3330,0.2827,-0.9116,0.183,-0.427,0.366,163.043,18.748,-63.353
1330,-0.3325,0.2842,-0.9111,-0.122,-0.122,0.244,163.032,18.754,-63.353
1340,-0.3315,0.2861,-0.9106,-0.305,0.122,0.122,163.026,18.759,-63.353
1350,-0.3296,0.2871,-0.9121,-0.183,0.244,0.000,163.021,18.759,-63.353
1360,-0.3311,0.2881,-0.9170,0.183,0.549,-0.061,163.015,18.754,-63.353
1370,-0.3301,0.2876,-0.9189,0.671,0.916,-0.061,163.021,18.748,-63.353
1380,-0.3281,0.2842,-0.9185,0.854,1.099,-0.244,163.032,18.737,-63.353
1390,-0.3296,0.2832,-0.9243,0.671,1.099,-0.366,163.037,18.732,-63.353
1400,-0.3286,0.2852,-0.9282,0.244,0.916,-0.488,163.043,18.721,-63.353
1410,-0.3276,0.2847,-0.9287,-0.122,0.854,-0.549,163.043,18.715,-63.353
1420,-0.3262,0.2852,-0.9321,-0.244,0.671,-0.671,163.043,18.710,-63.353
1431,-0.3257,0.2832,-0.9351,-0.061,0.488,-0.793,163.043,18.704,-63.353
1440,-0.3247,0.2803,-0.9326,0.427,0.183,-0.732,163.054,18.704,-63.353
1450,-0.3232,0.2749,-0.9292,0.793,-0.305,-0.610,163.070,18.704,-63.353
1460,-0.3271,0.2729,-0.9263,0.732,-0.732,-0.488,163.081,18.710,-63.353
1470,-0.3286,0.2720,-0.9272,0.366,-0.916,-0.427,163.092,18.721,-63.353
1480,-0.3301,0.2705,-0.9194,-0.183,-0.854,-0.305,163.092,18.737,-63.353
1490,-0.3320,0.2710,-0.9136,-0.732,-0.732,-0.183,163.092,18.748,-63.353
1500,-0.3325,0.2729,-0.9116,-0.916,-0.610,-0.122,163.087,18.759,-63.353
1510,-0.3340,0.2754,-0.9102,-0.732,-0.366,0.000,163.076,18.770,-63.353
1520,-0.3330,0.2754,-0.9102,-0.366,-0.061,0.244,163.076,18.770,-63.353
1530,-0.3311,0.2769,-0.9146,0.061,0.305,0.427,163.076,18.770,-63.353
1540,-0.3276,0.2773,-0.9160,0.488,0.732,0.610,163.081,18.765,-63.353
1550,-0.3271,0.2783,-0.9189,0.732,1.221,0.793,163.087,18.754,-63.353
1560,-0.3232,0.2793,-0.9258,0.610,1.587,0.732,163.092,18.732,-63.353
1570,-0.3237,0.2817,-0.9307,0.305,1.648,0.671,163.092,18.710,-63.353
1580,-0.3262,0.2808,-0.9312,-0.122,1.404,0.610,163.092,18.693,-63.353
1590,-0.3237,0.2856,-0.9316,-0.549,0.977,0.427,163.087,18.682,-63.353
1600,-0.3218,0.2896,-0.9355,-0.732,0.427,0.305,163.076,18.671,-63.353
1610,-0.3232,0.2861,-0.9321,-0.549,-0.061,0.183,163.070,18.666,-63.353
1620,-0.3237,0.2891,-0.9321,-0.244,-0.427,0.122,163.065,18.666,-63.353
1630,-0.3247,0.2905,-0.9312,-0.061,-0.671,0.000,163.059,18.671,-63.353
1640,-0.3271,0.2876,-0.9272,0.244,-0.732,-0.122,163.059,18.677,-63.353
1650,-0.3271,0.2827,-0.9248,0.244,-0.854,-0.305,163.059,18.688,-63.353
1660,-0.3286,0.2817,-0.9204,-0.061,-0.977,-0.488,163.059,18.699,-63.353
1670,-0.3301,0.2812,-0.9209,-0.488,-1.160,-0.549,163.054,18.715,-63.353
1680,-0.3306,0.2798,-0.9185,-0.610,-1.221,-0.549,163.048,18.732,-63.353
1690,-0.3301,0.2793,-0.9146,-0.488,-1.038,-0.488,163.043,18.743,-63.353
1700,-0.3286,0.2788,-0.9150,-0.183,-0.671,-0.427,163.043,18.754,-63.353
1710,-0.3296,0.2744,-0.9126,0.183,-0.183,-0.305,163.048,18.759,-63.353
1720,-0.3286,0.2715,-0.9160,0.183,0.305,-0.183,163.054,18.759,-63.353
1730,-0.3267,0.2729,-0.9204,-0.122,0.732,-0.122,163.059,18.754,-63.353
1740,-0.3267,0.2739,-0.9253,-0.427,0.854,-0.061,163.059,18.748,-63.353
1750,-0.3267,0.2769,-0.9268,-0.671,0.732,0.000,163.059,18.737,-63.353
1760,-0.3262,0.2803,-0.9297,-0.610,0.488,0.122,163.054,18.732,-63.353
1770,-0.3262,0.2793,-0.9307,-0.366,0.183,0.183,163.048,18.726,-63.353
1780,-0.3223,0.2783,-0.9326,-0.183,-0.122,0.244,163.054,18.726,-63.353
1790,-0.3242,0.2788,-0.9302,-0.183,-0.427,0.305,163.048,18.726,-63.353
1800,-0.3257,0.2798,-0.9312,-0.305,-0.793,0.305,163.048,18.732,-63.353
1810,-0.3271,0.2783,-0.9297,-0.366,-0.977,0.366,163.043,18.737,-63.353
1820,-0.3271,0.2773,-0.9224,-0.305,-1.099,0.305,163.043,18.748,-63.353
1830,-0.3271,0.2793,-0.9165,-0.366,-1.221,0.366,163.037,18.759,-63.353
1840,-0.3306,0.2808,-0.9146,-0.427,-1.221,0.427,163.026,18.770,-63.353
1850,-0.3315,0.2842,-0.9141,-0.183,-1.099,0.488,163.021,18.781,-63.353
1860,-0.3311,0.2832,-0.9131,0.061,-0.732,0.549,163.015,18.792,-63.353
1870,-0.3325,0.2808,-0.9136,0.183,-0.549,0.549,163.015,18.798,-63.353
1880,-0.3315,0.2817,-0.9121,0.122,-0.366,0.488,163.010,18.803,-63.353
1890,-0.3306,0.2817,-0.9131,-0.122,-0.183,0.427,163.010,18.809,-63.353
1900,-0.3271,0.2852,-0.9150,-0.366,0.000,0.366,162.999,18.809,-63.353
1910,-0.3306,0.2886,-0.9204,-0.427,0.366,0.305,162.993,18.803,-63.353
1920,-0.3306,0.2896,-0.9189,-0.122,0.671,0.244,162.982,18.798,-63.353
1931,-0.3301,0.2876,-0.9209,0.305,0.793,0.244,162.982,18.792,-63.353
1940,-0.3291,0.2871,-0.9209,0.488,0.488,0.122,162.988,18.787,-63.353
1950,-0.3281,0.2886,-0.9243,0.366,0.061,0.000,162.988,18.787,-63.353
1960,-0.3281,0.2886,-0.9263,0.305,-0.122,-0.061,162.988,18.787,-63.353
1970,-0.3271,0.2861,-0.9268,0.244,-0.061,-0.122,162.988,18.787,-63.353
1980,-0.3291,0.2847,-0.9248,0.122,0.000,-0.366,162.988,18.787,-63.353
1990,-0.3276,0.2837,-0.9253,-0.061,-0.061,-0.488,162.988,18.787,-63.353
2000,-0.3262,0.2817,-0.9248,-0.122,-0.183,-0.549,162.993,18.792,-63.353
2010,-0.3286,0.2817,-0.9204,-0.244,-0.305,-0.488,162.988,18.792,-63.353
2020,-0.3301,0.2808,-0.9146,-0.305,-0.549,-0.427,162.988,18.803,-63.353
2030,-0.3291,0.2808,-0.9189,-0.122,-0.610,-0.366,162.988,18.809,-63.353
2040,-0.3315,0.2783,-0.9194,0.183,-0.366,-0.244,162.993,18.820,-63.353
2050,-0.3286,0.2773,-0.9199,0.305,0.122,-0.183,162.999,18.820,-63.353
2060,-0.3286,0.2759,-0.9209,0.305,0.427,-0.183,163.004,18.814,-63.353
2070,-0.3291,0.2788,-0.9219,0.000,0.549,-0.122,163.004,18.809,-63.353
2080,-0.3301,0.2803,-0.9243,-0.061,0.488,0.000,163.010,18.809,-63.353
2090,-0.3271,0.2773,-0.9253,0.000,0.305,0.122,163.010,18.803,-63.353
2100,-0.3286,0.2783,-0.9258,0.183,0.000,0.183,163.015,18.803,-63.353
2110,-0.3281,0.2798,-0.9253,0.427,-0.305,0.183,163.021,18.803,-63.353
2120,-0.3301,0.2783,-0.9243,0.488,-0.366,0.305,163.026,18.809,-63.353
2130,-0.3320,0.2788,-0.9238,0.305,-0.305,0.305,163.026,18.809,-63.353
2140,-0.3325,0.2812,-0.9209,-0.122,-0.305,0.305,163.026,18.814,-63.353
2150,-0.3315,0.2827,-0.9175,-0.427,-0.366,0.305,163.021,18.820,-63.353
2160,-0.3306,0.2837,-0.9175,-0.366,-0.366,0.244,163.010,18.825,-63.353
2170,-0.3325,0.2822,-0.9175,-0.122,-0.366,0.305,163.010,18.831,-63.353
2180,-0.3301,0.2832,-0.9160,0.061,-0.305,0.305,163.004,18.836,-63.353
2190,-0.3315,0.2817,-0.9175,0.183,-0.122,0.305,163.004,18.836,-63.353
2200,-0.3291,0.2832,-0.9189,0.122,0.305,0.305,163.004,18.831,-63.353
2210,-0.3286,0.2837,-0.9189,0.000,0.610,0.244,163.004,18.825,-63.353
2220,-0.3286,0.2866,-0.9229,-0.122,0.793,0.122,162.999,18.820,-63.353
2230,-0.3306,0.2871,-0.9248,-0.122,0.977,0.061,162.999,18.809,-63.353
2240,-0.3330,0.2847,-0.9272,-0.061,0.916,-0.061,162.999,18.803,-63.353
2250,-0.3296,0.2842,-0.9277,-0.061,0.671,-0.183,162.999,18.798,-63.353
2260,-0.3281,0.2856,-0.9277,-0.061,0.305,-0.244,162.999,18.792,-63.353
2270,-0.3286,0.2852,-0.9287,-0.061,0.122,-0.244,162.993,18.792,-63.353
2280,-0.3267,0.2817,-0.9258,0.000,-0.183,-0.305,162.999,18.792,-63.353
2290,-0.3267,0.2822,-0.9233,0.000,-0.427,-0.366,162.999,18.798,-63.353
2300,-0.3267,0.2832,-0.9253,0.000,-0.671,-0.427,162.999,18.803,-63.353
2310,-0.3267,0.2812,-0.9263,0.122,-0.549,-0.488,163.004,18.809,-63.353
2320,-0.3281,0.2778,-0.9194,0.122,-0.366,-0.488,163.004,18.814,-63.353
2330,-0.3306,0.2734,-0.9150,-0.122,-0.305,-0.549,163.010,18.820,-63.353
2340,-0.3315,0.2759,-0.9155,-0.488,-0.488,-0.488,163.010,18.831,-63.353
2350,-0.3276,0.2783,-0.9185,-0.610,-0.366,-0.305,163.004,18.836,-63.353
2360,-0.3291,0.2773,-0.9165,-0.183,0.000,-0.061,163.004,18.836,-63.353
2370,-0.3286,0.2759,-0.9165,0.244,0.305,0.061,163.010,18.836,-63.353
2380,-0.3306,0.2778,-0.9229,0.488,0.427,0.122,163.015,18.831,-63.353
2390,-0.3301,0.2788,-0.9238,0.427,0.427,0.122,163.021,18.825,-63.353
2400,-0.3281,0.2773,-0.9253,0.122,0.427,0.305,163.026,18.820,-63.353
2410,-0.3257,0.2812,-0.9282,-0.244,0.427,0.305,163.026,18.814,-63.353
2420,-0.3281,0.2822,-0.9316,-0.427,0.305,0.244,163.021,18.809,-63.353
2431,-0.3276,0.2803,-0.9297,-0.305,0.061,0.244,163.021,18.803,-63.353
2440,-0.3252,0.2793,-0.9272,-0.366,-0.305,0.244,163.015,18.803,-63.353
2450,-0.3271,0.2808,-0.9312,-0.427,-0.610,0.244,163.015,18.809,-63.353
2460,-0.3296,0.2808,-0.9263,-0.366,-0.793,0.366,163.010,18.814,-63.353
2470,-0.3311,0.2788,-0.9194,-0.244,-0.916,0.427,163.004,18.825,-63.353
2480,-0.3306,0.2798,-0.9194,-0.244,-0.916,0.427,162.999,18.831,-63.353
2490,-0.3330,0.2812,-0.9170,-0.244,-0.732,0.427,162.993,18.842,-63.353
2500,-0.3335,0.2827,-0.9170,-0.061,-0.549,0.427,162.993,18.847,-63.353
2510,-0.3325,0.2817,-0.9121,0.061,-0.305,0.427,162.988,18.853,-63.353
2520,-0.3301,0.2808,-0.9146,0.061,-0.183,0.427,162.988,18.858,-63.353
2530,-0.3330,0.2808,-0.9160,0.000,0.000,0.427,162.988,18.858,-63.353
2540,-0.3311,0.2822,-0.9170,-0.122,0.244,0.366,162.982,18.858,-63.353
2550,-0.3320,0.2852,-0.9175,-0.366,0.427,0.366,162.977,18.853,-63.353
2560,-0.3320,0.2886,-0.9209,-0.488,0.488,0.244,162.966,18.847,-63.353
2570,-0.3315,0.2871,-0.9209,-0.122,0.549,0.183,162.966,18.847,-63.353
2580,-0.3306,0.2856,-0.9219,0.244,0.610,0.183,162.966,18.842,-63.353
2590,-0.3301,0.2856,-0.9224,0.366,0.366,0.061,162.966,18.836,-63.353
2600,-0.3325,0.2856,-0.9248,0.305,0.061,0.000,162.966,18.836,-63.353
2610,-0.3311,0.2861,-0.9233,0.244,-0.061,0.000,162.966,18.836,-63.353
2620,-0.3291,0.2837,-0.9219,0.183,-0.061,-0.122,162.971,18.842,-63.353
2630,-0.3296,0.2847,-0.9229,0.183,-0.122,-0.305,162.971,18.842,-63.353
2640,-0.3271,0.2837,-0.9243,0.183,-0.183,-0.366,162.971,18.842,-63.353
2650,-0.3267,0.2827,-0.9224,0.122,-0.183,-0.427,162.977,18.847,-63.353
2660,-0.3271,0.2808,-0.9204,-0.061,-0.244,-0.488,162.977,18.847,-63.353
2670,-0.3306,0.2803,-0.9238,-0.183,-0.305,-0.427,162.977,18.853,-63.353
2680,-0.3350,0.2788,-0.9233,-0.183,-0.244,-0.427,162.977,18.858,-63.353
2690,-0.3335,0.2788,-0.9189,0.061,-0.122,-0.305,162.982,18.864,-63.353
2700,-0.3306,0.2788,-0.9175,0.488,-0.061,-0.244,162.988,18.869,-63.353
2710,-0.3301,0.2778,-0.9204,0.610,-0.122,-0.183,162.999,18.869,-63.353
2720,-0.3291,0.2778,-0.9214,0.427,0.000,-0.061,163.004,18.869,-63.353
2730,-0.3286,0.2778,-0.9219,0.122,0.305,0.000,163.010,18.869,-63.353
2740,-0.3271,0.2778,-0.9238,-0.122,0.610,0.000,163.010,18.858,-63.353
2750,-0.3267,0.2788,-0.9272,-0.244,0.671,-0.061,163.010,18.853,-63.353
2760,-0.3271,0.2793,-0.9297,-0.061,0.366,0.000,163.015,18.847,-63.353
2770,-0.3271,0.2798,-0.9297,0.366,-0.061,0.122,163.021,18.842,-63.353
2780,-0.3286,0.2798,-0.9258,0.671,-0.488,0.305,163.026,18.847,-63.353
2790,-0.3315,0.2788,-0.9253,0.793,-0.854,0.366,163.032,18.853,-63.353
2800,-0.3306,0.2773,-0.9229,0.610,-0.916,0.427,163.037,18.864,-63.353
2810,-0.3340,0.2778,-0.9199,0.122,-0.854,0.488,163.037,18.875,-63.353
2820,-0.3330,0.2808,-0.9150,-0.488,-0.732,0.427,163.032,18.880,-63.353
2830,-0.3345,0.2827,-0.9126,-0.854,-0.671,0.427,163.021,18.891,-63.353
2840,-0.3315,0.2832,-0.9146,-0.671,-0.488,0.427,163.010,18.896,-63.353
2850,-0.3315,0.2852,-0.9121,-0.183,-0.122,0.549,162.999,18.896,-63.353
2860,-0.3311,0.2837,-0.9150,0.366,0.244,0.549,162.999,18.896,-63.353
2870,-0.3315,0.2847,-0.9180,0.610,0.610,0.488,163.004,18.891,-63.353
2880,-0.3325,0.2861,-0.9194,0.488,0.854,0.427,163.004,18.880,-63.353
2890,-0.3306,0.2871,-0.9214,0.305,0.916,0.366,163.004,18.875,-63.353
2900,-0.3301,0.2891,-0.9233,0.000,0.854,0.183,162.999,18.864,-63.353
2910,-0.3291,0.2900,-0.9282,-0.061,0.732,0.000,162.999,18.853,-63.353
2920,-0.3286,0.2891,-0.9302,0.122,0.610,-0.244,162.999,18.847,-63.353
2931,-0.3286,0.2861,-0.9272,0.305,0.366,-0.427,162.999,18.842,-63.353
2940,-0.3286,0.2856,-0.9258,0.183,0.000,-0.549,163.004,18.847,-63.353
2950,-0.3271,0.2847,-0.9258,-0.061,-0.305,-0.671,163.004,18.847,-63.353
2960,-0.3301,0.2812,-0.9229,-0.244,-0.549,-0.671,163.004,18.853,-63.353
2970,-0.3296,0.2773,-0.9204,-0.366,-0.610,-0.671,163.004,18.864,-63.353
2980,-0.3320,0.2783,-0.9189,-0.427,-0.610,-0.732,163.004,18.875,-63.353
2990,-0.3296,0.2788,-0.9189,-0.305,-0.305,-0.671,163.004,18.880,-63.353
3000,-0.3306,0.2778,-0.9209,0.122,0.122,-0.427,163.004,18.880,-63.353
3010,-0.3301,0.2759,-0.9194,0.366,0.427,-0.366,163.015,18.880,-63.353
3020,-0.3296,0.2754,-0.9170,0.549,0.427,-0.305,163.026,18.875,-63.353
3030,-0.3301,0.2734,-0.9224,0.488,0.122,-0.244,163.032,18.875,-63.353
3040,-0.3306,0.2734,-0.9238,0.183,-0.122,-0.122,163.043,18.880,-63.353
3050,-0.3291,0.2754,-0.9224,-0.122,-0.244,0.000,163.043,18.880,-63.353
3060,-0.3296,0.2764,-0.9229,-0.244,-0.183,0.061,163.043,18.880,-63.353
3070,-0.3291,0.2778,-0.9229,-0.244,-0.061,0.122,163.043,18.880,-63.353
3080,-0.3281,0.2783,-0.9277,-0.183,0.000,0.244,163.043,18.880,-63.353
3090,-0.3271,0.2778,-0.9253,-0.061,0.000,0.305,163.043,18.880,-63.353
3100,-0.3281,0.2764,-0.9258,0.000,-0.183,0.366,163.043,18.875,-63.353
3110,-0.3301,0.2764,-0.9277,-0.061,-0.427,0.427,163.048,18.880,-63.353
3120,-0.3306,0.2769,-0.9263,-0.122,-0.488,0.488,163.048,18.880,-63.353
3130,-0.3301,0.2773,-0.9229,-0.183,-0.610,0.610,163.043,18.885,-63.353
3140,-0.3330,0.2798,-0.9199,-0.366,-0.671,0.610,163.037,18.891,-63.353
3150,-0.3325,0.2793,-0.9170,-0.427,-0.671,0.610,163.032,18.902,-63.353
3160,-0.3330,0.2783,-0.9170,-0.366,-0.549,0.610,163.026,18.907,-63.353
3170,-0.3345,0.2808,-0.9160,-0.549,-0.610,0.610,163.015,18.913,-63.353
3180,-0.3345,0.2852,-0.9155,-0.671,-0.671,0.610,163.004,18.924,-63.353
3190,-0.3335,0.2896,-0.9170,-0.244,-0.366,0.671,162.993,18.924,-63.353
3200,-0.3330,0.2871,-0.9160,0.427,0.122,0.793,162.993,18.924,-63.353
3210,-0.3320,0.2847,-0.9136,0.916,0.427,0.671,162.999,18.918,-63.353
3220,-0.3301,0.2837,-0.9180,0.793,0.366,0.488,163.004,18.918,-63.353
3230,-0.3301,0.2842,-0.9219,0.305,0.305,0.366,163.004,18.913,-63.353
3240,-0.3306,0.2847,-0.9214,-0.122,0.427,0.244,162.999,18.907,-63.353
3250,-0.3311,0.2852,-0.9214,-0.549,0.488,0.061,162.993,18.902,-63.353
3260,-0.3315,0.2905,-0.9233,-0.610,0.427,-0.183,162.982,18.896,-63.353
3270,-0.3301,0.2886,-0.9263,-0.305,0.305,-0.244,162.977,18.896,-63.353
3280,-0.3286,0.2847,-0.9229,0.000,0.183,-0.305,162.977,18.896,-63.353
3290,-0.3296,0.2847,-0.9224,0.061,-0.061,-0.366,162.977,18.896,-63.353
3300,-0.3301,0.2837,-0.9238,0.061,-0.305,-0.488,162.977,18.902,-63.353
3310,-0.3315,0.2808,-0.9199,0.000,-0.244,-0.488,162.982,18.902,-63.353
3320,-0.3311,0.2773,-0.9160,-0.061,-0.244,-0.549,162.982,18.907,-63.353
3330,-0.3320,0.2778,-0.9175,-0.244,-0.305,-0.549,162.982,18.918,-63.353
3340,-0.3325,0.2788,-0.9194,-0.244,-0.122,-0.427,162.982,18.918,-63.353
3350,-0.3320,0.2769,-0.9199,0.000,0.244,-0.305,162.988,18.918,-63.353
3360,-0.3335,0.2754,-0.9170,0.122,0.488,-0.183,162.993,18.918,-63.353
3370,-0.3320,0.2764,-0.9180,0.061,0.427,-0.061,162.999,18.918,-63.353
3380,-0.3296,0.2783,-0.9214,0.183,0.305,0.000,162.999,18.913,-63.353
3390,-0.3276,0.2778,-0.9272,0.183,0.305,0.183,163.004,18.907,-63.353
3400,-0.3281,0.2793,-0.9248,0.122,0.549,0.183,163.010,18.902,-63.353
3410,-0.3291,0.2812,-0.9277,-0.061,0.732,0.122,163.010,18.891,-63.353
3420,-0.3296,0.2832,-0.9316,-0.061,0.610,0.061,163.010,18.885,-63.353
3431,-0.3267,0.2817,-0.9336,0.061,0.427,0.122,163.015,18.875,-63.353
3440,-0.3276,0.2783,-0.9272,0.122,-0.061,0.122,163.015,18.875,-63.353
3450,-0.3286,0.2788,-0.9272,0.000,-0.732,0.183,163.015,18.880,-63.353
3460,-0.3286,0.2812,-0.9263,-0.061,-1.160,0.183,163.015,18.891,-63.353
3470,-0.3291,0.2793,-0.9238,0.061,-1.221,0.244,163.015,18.902,-63.353
3480,-0.3325,0.2769,-0.9155,0.000,-1.038,0.305,163.015,18.913,-63.353
3490,-0.3369,0.2754,-0.9111,-0.305,-1.099,0.305,163.015,18.929,-63.353
3500,-0.3374,0.2759,-0.9063,-0.793,-1.099,0.305,163.004,18.946,-63.353
3510,-0.3350,0.2803,-0.9063,-1.099,-0.854,0.366,162.988,18.957,-63.353
3520,-0.3369,0.2852,-0.9048,-0.916,-0.183,0.427,162.971,18.962,-63.353
3530,-0.3359,0.2842,-0.9067,-0.305,0.610,0.427,162.966,18.962,-63.353
3540,-0.3350,0.2822,-0.9126,0.488,1.343,0.427,162.971,18.951,-63.353
3550,-0.3325,0.2847,-0.9160,0.916,1.831,0.488,162.977,18.935,-63.353
3560,-0.3306,0.2871,-0.9209,0.854,1.831,0.488,162.982,18.913,-63.353
3570,-0.3286,0.2896,-0.9272,0.488,1.648,0.366,162.982,18.896,-63.353
3581,-0.3286,0.2900,-0.9307,0.061,1.465,0.183,162.982,18.880,-63.353
3591,-0.3296,0.2905,-0.9312,-0.183,1.282,-0.122,162.977,18.864,-63.353
3601,-0.3291,0.2910,-0.9316,-0.244,0.977,-0.427,162.977,18.853,-63.353
3611,-0.3315,0.2891,-0.9307,-0.122,0.549,-0.610,162.977,18.847,-63.353
3620,-0.3301,0.2876,-0.9302,-0.061,0.000,-0.793,162.977,18.853,-63.353
3630,-0.3271,0.2871,-0.9272,0.000,-0.488,-0.854,162.977,18.858,-63.353
3641,-0.3271,0.2817,-0.9258,0.061,-0.732,-0.916,162.977,18.864,-63.353
3651,-0.3301,0.2803,-0.9194,0.061,-0.732,-0.977,162.982,18.875,-63.353
3661,-0.3306,0.2764,-0.9189,-0.122,-0.549,-0.977,162.988,18.885,-63.353
3671,-0.3320,0.2744,-0.9175,-0.427,-0.305,-0.916,162.988,18.891,-63.353
3681,-0.3340,0.2739,-0.9141,-0.671,0.000,-0.854,162.988,18.896,-63.353
3691,-0.3320,0.2749,-0.9116,-0.732,0.244,-0.610,162.988,18.902,-63.353
3701,-0.3315,0.2759,-0.9126,-0.488,0.549,-0.427,162.982,18.902,-63.353
3711,-0.3311,0.2749,-0.9141,0.000,0.732,-0.183,162.988,18.896,-63.353
3721,-0.3296,0.2749,-0.9189,0.427,0.916,0.000,162.999,18.885,-63.353
3731,-0.3281,0.2754,-0.9219,0.610,1.038,0.061,163.010,18.875,-63.353
3741,-0.3267,0.2778,-0.9248,0.427,1.099,0.244,163.015,18.864,-63.353
3751,-0.3276,0.2759,-0.9253,0.122,1.160,0.305,163.021,18.853,-63.353
3761,-0.3257,0.2803,-0.9312,-0.305,1.038,0.305,163.021,18.836,-63.353
3771,-0.3247,0.2822,-0.9326,-0.366,0.793,0.305,163.015,18.825,-63.353
3781,-0.3252,0.2812,-0.9312,-0.244,0.366,0.366,163.015,18.814,-63.353
3791,-0.3267,0.2817,-0.9307,-0.183,-0.122,0.305,163.015,18.814,-63.353
3801,-0.3276,0.2798,-0.9277,-0.061,-0.488,0.366,163.015,18.814,-63.353
3811,-0.3291,0.2803,-0.9272,-0.122,-0.793,0.366,163.010,18.820,-63.353
3821,-0.3296,0.2808,-0.9238,-0.244,-1.099,0.366,163.010,18.831,-63.353
3831,-0.3306,0.2822,-0.9189,-0.366,-1.160,0.366,163.004,18.842,-63.353
3841,-0.3315,0.2793,-0.9175,-0.305,-1.099,0.427,162.999,18.853,-63.353
3851,-0.3325,0.2793,-0.9126,-0.244,-0.916,0.427,162.993,18.864,-63.353
3861,-0.3325,0.2808,-0.9097,-0.061,-0.610,0.549,162.988,18.875,-63.353
3871,-0.3350,0.2822,-0.9092,0.061,-0.244,0.549,162.982,18.880,-63.353
3881,-0.3340,0.2812,-0.9102,0.122,0.061,0.549,162.982,18.880,-63.353
3891,-0.3330,0.2827,-0.9102,0.061,0.305,0.549,162.977,18.880,-63.353
3901,-0.3330,0.2832,-0.9126,0.000,0.488,0.549,162.977,18.880,-63.353
3911,-0.3330,0.2866,-0.9160,-0.061,0.793,0.549,162.971,18.875,-63.353
3921,-0.3335,0.2856,-0.9175,0.061,1.038,0.549,162.966,18.864,-63.353
3932,-0.3320,0.2881,-0.9194,0.244,1.099,0.427,162.966,18.853,-63.353
3941,-0.3291,0.2876,-0.9189,0.366,0.916,0.183,162.966,18.842,-63.353
3951,-0.3315,0.2876,-0.9209,0.244,0.793,0.061,162.966,18.836,-63.353
3961,-0.3296,0.2852,-0.9214,0.061,0.610,-0.061,162.966,18.831,-63.353
3971,-0.3306,0.2871,-0.9238,-0.183,0.366,-0.183,162.960,18.831,-63.353
3981,-0.3301,0.2842,-0.9204,-0.305,0.183,-0.366,162.960,18.831,-63.353
3991,-0.3306,0.2852,-0.9224,-0.305,0.305,-0.427,162.955,18.831,-63.353
4001,-0.3311,0.2842,-0.9209,-0.183,0.488,-0.427,162.955,18.825,-63.353
4011,-0.3296,0.2827,-0.9194,0.000,0.671,-0.427,162.955,18.825,-63.353
4021,-0.3281,0.2808,-0.9233,0.183,0.793,-0.366,162.960,18.814,-63.353
4031,-0.3271,0.2793,-0.9243,0.366,0.732,-0.305,162.971,18.809,-63.353
4041,-0.3286,0.2783,-0.9272,0.366,0.732,-0.183,162.977,18.803,-63.353
4051,-0.3271,0.2773,-0.9282,0.305,0.549,-0.061,162.988,18.798,-63.353
4061,-0.3247,0.2759,-0.9272,0.427,0.366,0.000,162.993,18.792,-63.353
4071,-0.3247,0.2764,-0.9282,0.183,0.061,0.061,162.999,18.787,-63.353
4081,-0.3232,0.2803,-0.9272,-0.122,-0.122,0.122,162.999,18.781,-63.353
4091,-0.3242,0.2856,-0.9292,-0.183,-0.061,0.183,162.999,18.781,-63.353
4101,-0.3252,0.2847,-0.9297,0.000,0.061,0.244,162.999,18.776,-63.353
4111,-0.3242,0.2832,-0.9263,0.244,0.061,0.244,162.999,18.770,-63.353
4121,-0.3247,0.2856,-0.9253,0.305,-0.183,0.122,162.999,18.770,-63.353
4131,-0.3242,0.2842,-0.9253,0.305,-0.549,0.061,162.999,18.776,-63.353
4141,-0.3271,0.2812,-0.9229,0.122,-0.732,0.122,162.999,18.781,-63.353
4151,-0.3286,0.2842,-0.9219,-0.122,-0.732,0.061,162.999,18.787,-63.353
4161,-0.3345,0.2847,-0.9194,-0.305,-0.732,0.061,162.993,18.798,-63.353
4171,-0.3345,0.2856,-0.9136,-0.305,-0.610,0.000,162.982,18.809,-63.353
4181,-0.3350,0.2842,-0.9131,-0.244,-0.549,0.061,162.977,18.820,-63.353
4191,-0.3359,0.2832,-0.9097,-0.183,-0.488,0.061,162.971,18.831,-63.353
4201,-0.3350,0.2832,-0.9092,-0.061,-0.305,0.061,162.971,18.836,-63.353
4211,-0.3350,0.2827,-0.9092,0.122,0.122,0.061,162.966,18.842,-63.353
4221,-0.3330,0.2832,-0.9106,0.244,0.610,0.061,162.966,18.842,-63.353
4231,-0.3286,0.2847,-0.9170,0.305,1.099,0.122,162.971,18.831,-63.353
4241,-0.3267,0.2866,-0.9194,0.549,1.526,0.061,162.971,18.814,-63.353
4251,-0.3267,0.2847,-0.9253,0.671,1.831,0.000,162.982,18.792,-63.353
4261,-0.3252,0.2847,-0.9287,0.732,1.831,-0.122,162.993,18.776,-63.353
4271,-0.3252,0.2871,-0.9312,0.671,1.648,-0.244,162.999,18.759,-63.353
4281,-0.3247,0.2856,-0.9326,0.366,1.221,-0.305,163.004,18.743,-63.353
4291,-0.3252,0.2847,-0.9360,0.000,0.671,-0.488,163.004,18.732,-63.353
4301,-0.3242,0.2847,-0.9355,-0.183,0.122,-0.549,163.010,18.732,-63.353
4311,-0.3262,0.2866,-0.9292,-0.305,-0.305,-0.610,163.004,18.732,-63.353
4321,-0.3267,0.2822,-0.9268,-0.183,-0.610,-0.671,163.004,18.743,-63.353
4331,-0.3271,0.2803,-0.9214,-0.244,-0.793,-0.732,163.004,18.748,-63.353
4341,-0.3276,0.2803,-0.9229,-0.244,-0.854,-0.793,163.004,18.759,-63.353
4351,-0.3301,0.2773,-0.9209,-0.183,-0.671,-0.671,163.010,18.770,-63.353
4361,-0.3291,0.2734,-0.9165,-0.244,-0.305,-0.610,163.010,18.776,-63.353
4371,-0.3296,0.2769,-0.9170,-0.183,-0.244,-0.488,163.010,18.781,-63.353
4381,-0.3281,0.2778,-0.9175,0.061,-0.305,-0.244,163.015,18.787,-63.353
4391,-0.3286,0.2749,-0.9180,0.427,-0.305,0.000,163.021,18.792,-63.353
4401,-0.3291,0.2705,-0.9175,0.671,-0.183,0.061,163.032,18.798,-63.353
4411,-0.3291,0.2695,-0.9160,0.427,-0.061,0.122,163.043,18.798,-63.353
4421,-0.3267,0.2739,-0.9199,-0.305,-0.061,0.244,163.043,18.798,-63.353
4431,-0.3262,0.2798,-0.9229,-0.732,0.183,0.427,163.037,18.792,-63.353
4441,-0.3257,0.2817,-0.9258,-0.671,0.671,0.488,163.026,18.787,-63.353
4451,-0.3252,0.2783,-0.9224,-0.244,0.854,0.488,163.026,18.776,-63.353
4461,-0.3252,0.2822,-0.9277,0.183,0.549,0.488,163.026,18.765,-63.353
4471,-0.3262,0.2817,-0.9341,0.305,0.000,0.549,163.032,18.759,-63.353
4481,-0.3262,0.2832,-0.9316,0.122,-0.427,0.610,163.032,18.759,-63.353
4491,-0.3267,0.2852,-0.9297,-0.366,-0.793,0.488,163.021,18.765,-63.353
4501,-0.3276,0.2861,-0.9316,-0.610,-1.038,0.427,163.015,18.770,-63.353
4511,-0.3276,0.2861,-0.9277,-0.488,-1.160,0.427,163.004,18.781,-63.353
4521,-0.3276,0.2827,-0.9219,-0.305,-1.221,0.366,162.999,18.792,-63.353
4531,-0.3286,0.2817,-0.9165,-0.244,-1.404,0.366,162.993,18.803,-63.353
4541,-0.3291,0.2832,-0.9146,-0.305,-1.526,0.366,162.988,18.820,-63.353
4551,-0.3301,0.2837,-0.9170,-0.122,-1.160,0.366,162.982,18.831,-63.353
4561,-0.3281,0.2827,-0.9146,0.061,-0.610,0.366,162.977,18.836,-63.353
4571,-0.3315,0.2798,-0.9116,0.000,-0.183,0.244,162.977,18.842,-63.353
4581,-0.3301,0.2788,-0.9106,-0.366,-0.183,0.244,162.971,18.847,-63.353
4591,-0.3311,0.2832,-0.9106,-0.793,-0.244,0.305,162.960,18.847,-63.353
4601,-0.3306,0.2876,-0.9160,-0.854,0.061,0.366,162.944,18.847,-63.353
4611,-0.3286,0.2905,-0.9209,-0.305,0.671,0.427,162.938,18.842,-63.353
4621,-0.3286,0.2876,-0.9209,0.427,1.160,0.427,162.938,18.831,-63.353
4631,-0.3267,0.2861,-0.9253,0.793,1.099,0.244,162.944,18.814,-63.353
4641,-0.3271,0.2891,-0.9316,0.610,0.671,0.183,162.949,18.803,-63.353
4651,-0.3262,0.2915,-0.9331,0.183,0.183,0.183,162.949,18.798,-63.353
4661,-0.3276,0.2915,-0.9370,-0.122,0.000,0.000,162.944,18.798,-63.353
4671,-0.3242,0.2896,-0.9341,-0.244,-0.305,-0.366,162.944,18.798,-63.353
4681,-0.3257,0.2905,-0.9321,-0.305,-0.732,-0.610,162.938,18.803,-63.353
4691,-0.3271,0.2881,-0.9292,-0.305,-1.221,-0.671,162.933,18.814,-63.353
4701,-0.3301,0.2837,-0.9209,-0.244,-1.526,-0.671,162.933,18.831,-63.353
4711,-0.3301,0.2793,-0.9111,-0.061,-1.526,-0.793,162.933,18.847,-63.353
4721,-0.3320,0.2778,-0.9111,-0.122,-1.221,-0.732,162.933,18.869,-63.353
4731,-0.3315,0.2734,-0.9077,-0.366,-0.671,-0.549,162.933,18.880,-63.353
4741,-0.3306,0.2764,-0.9102,-0.610,-0.122,-0.427,162.933,18.885,-63.353
4751,-0.3315,0.2783,-0.9150,-0.549,0.366,-0.305,162.927,18.885,-63.353
4761,-0.3320,0.2808,-0.9146,-0.183,0.732,-0.061,162.927,18.880,-63.353
4771,-0.3301,0.2773,-0.9175,0.244,0.732,0.061,162.933,18.875,-63.353
4781,-0.3276,0.2778,-0.9243,0.366,0.549,0.183,162.938,18.869,-63.353
4791,-0.3267,0.2812,-0.9302,0.488,0.427,0.305,162.944,18.858,-63.353
4801,-0.3262,0.2822,-0.9302,0.610,0.427,0.488,162.955,18.853,-63.353
4811,-0.3276,0.2822,-0.9312,0.610,0.427,0.488,162.960,18.842,-63.353
4821,-0.3301,0.2827,-0.9297,0.427,0.000,0.366,162.966,18.842,-63.353
4831,-0.3320,0.2832,-0.9272,0.000,-0.671,0.244,162.960,18.847,-63.353
4841,-0.3335,0.2827,-0.9233,-0.427,-1.221,0.183,162.955,18.858,-63.353
4851,-0.3325,0.2832,-0.9194,-0.732,-1.526,0.061,162.949,18.875,-63.353
4861,-0.3320,0.2876,-0.9165,-0.854,-1.465,0.000,162.933,18.891,-63.353
4871,-0.3311,0.2886,-0.9155,-0.488,-0.977,0.000,162.922,18.902,-63.353
4881,-0.3286,0.2876,-0.9146,0.000,-0.366,0.000,162.916,18.907,-63.353
4891,-0.3291,0.2852,-0.9155,0.488,0.122,0.000,162.922,18.907,-63.353
4901,-0.3291,0.2856,-0.9175,0.671,0.427,0.000,162.927,18.902,-63.353
4911,-0.3311,0.2827,-0.9214,0.549,0.549,-0.061,162.933,18.896,-63.353
4921,-0.3325,0.2842,-0.9253,0.122,0.549,-0.122,162.933,18.891,-63.353
4931,-0.3306,0.2856,-0.9253,-0.305,0.488,-0.183,162.933,18.891,-63.353
4941,-0.3291,0.2876,-0.9277,-0.488,0.305,-0.244,162.927,18.885,-63.353
4951,-0.3286,0.2896,-0.9282,-0.366,0.000,-0.305,162.922,18.885,-63.353
4961,-0.3286,0.2900,-0.9248,-0.122,-0.366,-0.366,162.916,18.885,-63.353
4971,-0.3296,0.2861,-0.9253,0.183,-0.610,-0.488,162.922,18.891,-63.353
4981,-0.3291,0.2827,-0.9224,0.183,-0.671,-0.488,162.922,18.902,-63.353
4991,-0.3281,0.2817,-0.9253,-0.122,-0.549,-0.610,162.922,18.907,-63.353
5001,-0.3296,0.2817,-0.9233,-0.366,-0.427,-0.610,162.922,18.913,-63.353
5011,-0.3291,0.2822,-0.9209,-0.305,-0.305,-0.488,162.922,18.913,-63.353
5021,-0.3281,0.2812,-0.9170,0.061,-0.305,-0.427,162.922,18.918,-63.353
5031,-0.3296,0.2793,-0.9194,0.305,-0.488,-0.366,162.927,18.924,-63.353
5041,-0.3311,0.2778,-0.9175,0.427,-0.610,-0.305,162.938,18.929,-63.353
5051,-0.3296,0.2764,-0.9175,0.183,-0.549,-0.183,162.938,18.940,-63.353
5061,-0.3296,0.2769,-0.9189,-0.122,-0.305,-0.122,162.944,18.940,-63.353
5071,-0.3301,0.2773,-0.9194,-0.366,0.000,-0.061,162.944,18.940,-63.353
5081,-0.3296,0.2803,-0.9214,-0.366,0.244,0.000,162.938,18.940,-63.353
5091,-0.3296,0.2793,-0.9243,-0.244,0.183,0.061,162.938,18.935,-63.353
5101,-0.3306,0.2793,-0.9248,0.000,-0.061,0.183,162.944,18.935,-63.353
5111,-0.3315,0.2769,-0.9268,0.122,-0.366,0.183,162.944,18.940,-63.353
5121,-0.3306,0.2788,-0.9233,0.061,-0.610,0.305,162.949,18.946,-63.353
5131,-0.3311,0.2803,-0.9238,-0.183,-0.671,0.366,162.944,18.946,-63.353
5141,-0.3296,0.2842,-0.9268,-0.366,-0.732,0.427,162.938,18.951,-63.353
5151,-0.3301,0.2842,-0.9248,-0.122,-0.610,0.549,162.938,18.957,-63.353
5161,-0.3301,0.2827,-0.9209,0.244,-0.488,0.610,162.938,18.957,-63.353
5171,-0.3291,0.2832,-0.9199,0.488,-0.610,0.549,162.938,18.962,-63.353
5181,-0.3311,0.2861,-0.9209,0.305,-0.916,0.488,162.938,18.968,-63.353
5191,-0.3311,0.2871,-0.9224,0.061,-1.038,0.488,162.933,18.979,-63.353
5201,-0.3315,0.2847,-0.9180,-0.122,-0.854,0.427,162.927,18.984,-63.353
5211,-0.3335,0.2837,-0.9131,-0.244,-0.671,0.305,162.922,18.990,-63.353
5221,-0.3354,0.2856,-0.9121,-0.366,-0.549,0.183,162.911,19.001,-63.353
5231,-0.3335,0.2886,-0.9155,-0.366,-0.366,0.183,162.905,19.006,-63.353
5241,-0.3330,0.2886,-0.9150,0.122,0.000,0.305,162.900,19.006,-63.353
5251,-0.3330,0.2871,-0.9150,0.488,0.305,0.244,162.900,19.001,-63.353
5261,-0.3320,0.2866,-0.9155,0.671,0.366,0.122,162.905,19.001,-63.353
5271,-0.3330,0.2871,-0.9194,0.610,0.244,0.061,162.911,19.001,-63.353
5281,-0.3311,0.2881,-0.9194,0.488,0.183,0.061,162.911,18.995,-63.353
5291,-0.3320,0.2881,-0.9199,0.244,0.244,-0.122,162.911,18.995,-63.353
5301,-0.3301,0.2881,-0.9189,0.000,0.244,-0.305,162.911,18.990,-63.353
5311,-0.3306,0.2852,-0.9214,-0.061,0.183,-0.427,162.911,18.990,-63.353
5321,-0.3301,0.2856,-0.9224,-0.061,0.183,-0.488,162.911,18.990,-63.353
5331,-0.3301,0.2847,-0.9224,0.061,0.183,-0.488,162.911,18.990,-63.353
5341,-0.3286,0.2817,-0.9219,0.305,0.122,-0.488,162.916,18.984,-63.353
5351,-0.3271,0.2798,-0.9248,0.366,-0.122,-0.488,162.922,18.984,-63.353
5361,-0.3311,0.2817,-0.9219,0.122,-0.366,-0.488,162.927,18.990,-63.353
5371,-0.3315,0.2812,-0.9214,0.000,-0.427,-0.366,162.927,18.995,-63.353
5381,-0.3291,0.2808,-0.9155,-0.061,-0.366,-0.366,162.927,19.001,-63.353
5391,-0.3311,0.2812,-0.9189,-0.122,-0.244,-0.366,162.927,19.006,-63.353
5401,-0.3311,0.2832,-0.9224,-0.061,0.000,-0.305,162.927,19.006,-63.353
5411,-0.3315,0.2798,-0.9238,0.183,0.366,-0.244,162.933,19.001,-63.353
5421,-0.3306,0.2778,-0.9238,0.366,0.549,-0.244,162.944,18.995,-63.353
5432,-0.3301,0.2754,-0.9229,0.183,0.305,-0.122,162.949,18.990,-63.353
5441,-0.3291,0.2803,-0.9258,-0.061,-0.244,0.000,162.949,18.990,-63.353
5451,-0.3276,0.2827,-0.9238,0.000,-0.549,0.183,162.949,18.995,-63.353
5461,-0.3281,0.2803,-0.9233,0.305,-0.549,0.305,162.955,18.995,-63.353
5471,-0.3306,0.2769,-0.9189,0.427,-0.488,0.366,162.960,19.001,-63.353
5481,-0.3345,0.2759,-0.9131,0.122,-0.549,0.305,162.960,19.006,-63.353
5491,-0.3350,0.2769,-0.9150,-0.488,-0.732,0.366,162.955,19.017,-63.353
5501,-0.3359,0.2832,-0.9150,-0.977,-0.671,0.488,162.944,19.023,-63.353
5511,-0.3345,0.2886,-0.9204,-0.671,-0.122,0.549,162.933,19.023,-63.353
5521,-0.3340,0.2876,-0.9175,0.244,0.366,0.488,162.927,19.023,-63.353
5531,-0.3325,0.2861,-0.9189,1.038,0.488,0.427,162.933,19.017,-63.353
5541,-0.3296,0.2812,-0.9185,1.099,0.061,0.427,162.944,19.012,-63.353
5551,-0.3306,0.2861,-0.9199,0.488,-0.305,0.427,162.944,19.017,-63.353
5561,-0.3291,0.2886,-0.9189,-0.183,-0.244,0.305,162.938,19.017,-63.353
5571,-0.3315,0.2915,-0.9194,-0.488,0.061,0.061,162.927,19.012,-63.353
5581,-0.3311,0.2949,-0.9238,-0.366,0.427,-0.183,162.922,19.006,-63.353
5591,-0.3306,0.2944,-0.9282,0.183,0.610,-0.366,162.916,19.001,-63.353
5601,-0.3276,0.2896,-0.9282,0.610,0.610,-0.427,162.922,18.995,-63.353
5611,-0.3301,0.2852,-0.9263,0.488,0.061,-0.488,162.933,18.990,-63.353
5621,-0.3296,0.2842,-0.9238,0.000,-0.610,-0.610,162.933,18.995,-63.353
5631,-0.3306,0.2866,-0.9229,-0.427,-1.038,-0.610,162.927,19.006,-63.353
5641,-0.3325,0.2847,-0.9214,-0.488,-0.977,-0.671,162.922,19.017,-63.353
5651,-0.3335,0.2822,-0.9180,-0.305,-0.732,-0.793,162.922,19.028,-63.353
5661,-0.3311,0.2798,-0.9155,0.000,-0.488,-0.854,162.922,19.039,-63.353
5671,-0.3325,0.2778,-0.9160,0.122,-0.305,-0.793,162.927,19.045,-63.353
5681,-0.3320,0.2769,-0.9175,-0.061,-0.122,-0.671,162.933,19.050,-63.353
5691,-0.3315,0.2764,-0.9160,-0.305,0.000,-0.488,162.933,19.050,-63.353
5701,-0.3291,0.2788,-0.9180,-0.427,-0.061,-0.305,162.933,19.050,-63.353
5711,-0.3296,0.2788,-0.9180,-0.122,0.000,-0.122,162.933,19.050,-63.353
5721,-0.3306,0.2788,-0.9165,0.305,0.122,0.000,162.938,19.050,-63.353
5731,-0.3315,0.2773,-0.9219,0.610,0.244,0.183,162.949,19.045,-63.353
5741,-0.3301,0.2769,-0.9243,0.549,0.305,0.244,162.955,19.039,-63.353
5751,-0.3311,0.2793,-0.9272,0.061,0.244,0.244,162.960,19.034,-63.353
5761,-0.3301,0.2827,-0.9277,-0.488,0.183,0.183,162.955,19.028,-63.353
5771,-0.3291,0.2847,-0.9277,-0.549,0.061,0.244,162.949,19.028,-63.353
5781,-0.3281,0.2832,-0.9263,-0.366,-0.183,0.244,162.944,19.023,-63.353
5791,-0.3271,0.2837,-0.9272,-0.122,-0.427,0.305,162.944,19.023,-63.353
5801,-0.3296,0.2803,-0.9287,0.061,-0.732,0.366,162.944,19.028,-63.353
5811,-0.3306,0.2788,-0.9238,-0.061,-1.038,0.366,162.944,19.034,-63.353
5821,-0.3311,0.2808,-0.9204,-0.488,-1.282,0.366,162.938,19.045,-63.353
5831,-0.3311,0.2842,-0.9194,-0.916,-1.282,0.305,162.922,19.056,-63.353
5841,-0.3330,0.2861,-0.9160,-0.854,-1.038,0.366,162.911,19.067,-63.353
5851,-0.3340,0.2866,-0.9131,-0.183,-0.671,0.427,162.905,19.072,-63.353
5861,-0.3350,0.2852,-0.9131,0.427,-0.427,0.488,162.905,19.078,-63.353
5871,-0.3350,0.2871,-0.9136,0.732,-0.488,0.427,162.905,19.083,-63.353
5881,-0.3350,0.2852,-0.9146,0.732,-0.427,0.427,162.905,19.089,-63.353
5891,-0.3345,0.2837,-0.9180,0.305,-0.305,0.427,162.911,19.089,-63.353
5901,-0.3345,0.2842,-0.9126,-0.366,-0.122,0.244,162.900,19.094,-63.353
5911,-0.3330,0.2891,-0.9160,-0.854,0.122,0.061,162.889,19.094,-63.353
5921,-0.3340,0.2920,-0.9243,-0.732,0.488,0.061,162.878,19.089,-63.353
5932,-0.3320,0.2905,-0.9219,-0.061,0.854,0.122,162.872,19.078,-63.353
5941,-0.3311,0.2876,-0.9219,0.488,0.977,-0.122,162.878,19.067,-63.353
5951,-0.3315,0.2871,-0.9272,0.610,0.488,-0.183,162.883,19.061,-63.353
5961,-0.3330,0.2861,-0.9277,0.427,-0.183,-0.244,162.889,19.061,-63.353
5971,-0.3330,0.2847,-0.9258,0.000,-0.549,-0.305,162.889,19.067,-63.353
5981,-0.3306,0.2852,-0.9189,-0.488,-0.549,-0.427,162.883,19.072,-63.353
5991,-0.3296,0.2856,-0.9170,-0.671,-0.488,-0.610,162.878,19.078,-63.353
6001,-0.3306,0.2861,-0.9189,-0.488,-0.183,-0.549,162.872,19.078,-63.353
6011,-0.3301,0.2837,-0.9155,-0.122,0.122,-0.488,162.872,19.078,-63.353
6021,-0.3320,0.2817,-0.9170,0.183,0.244,-0.427,162.878,19.078,-63.353
6031,-0.3315,0.2793,-0.9160,0.183,0.244,-0.366,162.883,19.078,-63.353
6041,-0.3335,0.2803,-0.9209,-0.061,0.061,-0.305,162.883,19.078,-63.353
6051,-0.3345,0.2822,-0.9219,-0.122,0.061,-0.122,162.883,19.078,-63.353
6061,-0.3350,0.2847,-0.9170,0.122,0.244,0.000,162.883,19.078,-63.353
6071,-0.3315,0.2803,-0.9160,0.183,0.183,-0.061,162.889,19.078,-63.353
6081,-0.3325,0.2827,-0.9194,0.000,0.000,-0.122,162.889,19.078,-63.353
6091,-0.3311,0.2852,-0.9238,-0.183,0.122,0.000,162.883,19.072,-63.353
6101,-0.3291,0.2842,-0.9233,-0.061,0.427,0.061,162.883,19.067,-63.353
6111,-0.3291,0.2832,-0.9209,0.061,0.671,0.000,162.889,19.056,-63.353
6121,-0.3311,0.2808,-0.9219,0.183,0.427,-0.122,162.889,19.050,-63.353
6131,-0.3306,0.2827,-0.9243,0.122,-0.122,0.000,162.894,19.050,-63.353
6141,-0.3315,0.2827,-0.9263,0.122,-0.488,0.183,162.894,19.056,-63.353
6151,-0.3325,0.2817,-0.9268,0.061,-0.610,0.183,162.894,19.061,-63.353
6161,-0.3354,0.2808,-0.9199,-0.061,-0.671,0.122,162.894,19.067,-63.353
6171,-0.3379,0.2822,-0.9185,-0.244,-0.732,0.061,162.894,19.078,-63.353
6181,-0.3359,0.2832,-0.9136,-0.305,-0.610,0.183,162.889,19.083,-63.353
6191,-0.3374,0.2822,-0.9092,-0.183,-0.549,0.305,162.883,19.094,-63.353
6201,-0.3369,0.2812,-0.9102,-0.061,-0.488,0.305,162.878,19.100,-63.353
6211,-0.3340,0.2837,-0.9116,0.000,-0.488,0.244,162.878,19.105,-63.353
6221,-0.3340,0.2866,-0.9175,0.122,0.061,0.366,162.872,19.105,-63.353
6231,-0.3315,0.2856,-0.9170,0.427,0.793,0.488,162.878,19.094,-63.353
6241,-0.3315,0.2842,-0.9160,0.488,1.282,0.366,162.878,19.083,-63.353
6251,-0.3320,0.2881,-0.9199,0.305,1.221,0.183,162.878,19.072,-63.353
6261,-0.3325,0.2905,-0.9268,0.122,0.854,0.000,162.878,19.061,-63.353
6271,-0.3315,0.2900,-0.9277,0.061,0.671,0.000,162.878,19.050,-63.353
6281,-0.3315,0.2881,-0.9263,0.000,0.549,-0.183,162.878,19.045,-63.353
6291,-0.3315,0.2876,-0.9253,-0.061,0.305,-0.366,162.878,19.039,-63.353
6301,-0.3325,0.2896,-0.9277,-0.122,0.061,-0.488,162.878,19.039,-63.353
6311,-0.3320,0.2891,-0.9268,-0.061,-0.061,-0.549,162.872,19.039,-63.353
6321,-0.3301,0.2856,-0.9214,-0.061,-0.061,-0.549,162.872,19.039,-63.353
6331,-0.3330,0.2837,-0.9180,-0.305,-0.244,-0.732,162.872,19.045,-63.353
6341,-0.3325,0.2847,-0.9170,-0.610,-0.427,-0.854,162.867,19.056,-63.353
6351,-0.3325,0.2847,-0.9180,-0.549,-0.305,-0.793,162.867,19.061,-63.353
6361,-0.3340,0.2842,-0.9199,-0.061,0.183,-0.671,162.867,19.061,-63.353
6371,-0.3340,0.2812,-0.9185,0.427,0.488,-0.610,162.872,19.061,-63.353
6381,-0.3335,0.2798,-0.9160,0.732,0.427,-0.549,162.883,19.056,-63.353
6391,-0.3335,0.2808,-0.9194,0.732,0.122,-0.366,162.894,19.061,-63.353
6401,-0.3320,0.2788,-0.9219,0.671,0.000,-0.183,162.905,19.061,-63.353
6411,-0.3330,0.2812,-0.9199,0.366,0.061,-0.183,162.911,19.061,-63.353
6421,-0.3315,0.2822,-0.9229,0.122,0.061,-0.244,162.911,19.056,-63.353
6432,-0.3286,0.2827,-0.9243,-0.061,0.000,-0.183,162.911,19.056,-63.353
6441,-0.3296,0.2827,-0.9238,-0.122,-0.122,-0.183,162.911,19.056,-63.353
6451,-0.3291,0.2837,-0.9243,-0.061,-0.183,-0.061,162.911,19.056,-63.353
6461,-0.3301,0.2812,-0.9229,0.244,-0.305,0.000,162.916,19.056,-63.353
6471,-0.3286,0.2812,-0.9248,0.549,-0.549,0.061,162.922,19.061,-63.353
6481,-0.3281,0.2827,-0.9258,0.610,-0.671,0.122,162.927,19.061,-63.353
6491,-0.3315,0.2817,-0.9243,0.427,-0.610,0.244,162.933,19.067,-63.353
6501,-0.3325,0.2808,-0.9224,0.244,-0.671,0.244,162.933,19.072,-63.353
6511,-0.3345,0.2817,-0.9209,0.061,-0.793,0.244,162.933,19.078,-63.353
6521,-0.3345,0.2822,-0.9180,0.000,-0.977,0.305,162.933,19.089,-63.353
6531,-0.3369,0.2822,-0.9155,-0.122,-1.038,0.366,162.927,19.100,-63.353
6541,-0.3359,0.2827,-0.9146,-0.061,-0.916,0.366,162.922,19.111,-63.353
6551,-0.3350,0.2842,-0.9155,0.122,-0.610,0.488,162.922,19.116,-63.353
6561,-0.3359,0.2842,-0.9131,0.366,-0.305,0.488,162.922,19.122,-63.353
6571,-0.3340,0.2832,-0.9165,0.610,-0.061,0.488,162.927,19.122,-63.353
6581,-0.3359,0.2827,-0.9146,0.488,0.061,0.427,162.927,19.122,-63.353
6591,-0.3350,0.2856,-0.9165,0.183,0.122,0.366,162.927,19.116,-63.353
6601,-0.3350,0.2871,-0.9185,-0.122,0.244,0.305,162.922,19.116,-63.353
6611,-0.3350,0.2896,-0.9189,-0.305,0.244,0.183,162.911,19.116,-63.353
6621,-0.3350,0.2915,-0.9204,-0.366,0.244,0.000,162.905,19.111,-63.353
6631,-0.3364,0.2954,-0.9199,-0.183,0.122,-0.061,162.894,19.111,-63.353
6641,-0.3340,0.2930,-0.9204,0.244,0.000,-0.122,162.894,19.111,-63.353
6651,-0.3330,0.2896,-0.9209,0.427,-0.122,-0.183,162.894,19.111,-63.353
6661,-0.3350,0.2886,-0.9194,0.427,-0.305,-0.366,162.894,19.116,-63.353
6671,-0.3340,0.2866,-0.9175,0.366,-0.366,-0.427,162.900,19.122,-63.353
6681,-0.3354,0.2832,-0.9180,0.061,-0.305,-0.488,162.900,19.127,-63.353
6691,-0.3335,0.2847,-0.9155,-0.305,-0.244,-0.488,162.894,19.133,-63.353
6701,-0.3345,0.2842,-0.9175,-0.427,-0.122,-0.610,162.894,19.138,-63.353
6711,-0.3359,0.2827,-0.9160,-0.305,0.122,-0.610,162.894,19.138,-63.353
6721,-0.3354,0.2832,-0.9131,-0.122,0.244,-0.488,162.889,19.138,-63.353
6731,-0.3340,0.2812,-0.9160,0.122,0.305,-0.427,162.894,19.138,-63.353
6741,-0.3345,0.2827,-0.9175,0.366,0.427,-0.305,162.900,19.138,-63.353
6751,-0.3354,0.2808,-0.9214,0.610,0.549,-0.183,162.911,19.133,-63.353
6761,-0.3335,0.2803,-0.9214,0.671,0.610,-0.122,162.916,19.127,-63.353
6771,-0.3330,0.2803,-0.9233,0.610,0.427,-0.122,162.927,19.122,-63.353
6781,-0.3315,0.2808,-0.9263,0.366,0.183,-0.122,162.933,19.116,-63.353
6791,-0.3320,0.2812,-0.9233,-0.183,-0.061,-0.122,162.933,19.116,-63.353
6801,-0.3306,0.2788,-0.9219,-0.610,0.000,-0.183,162.927,19.116,-63.353
6811,-0.3320,0.2803,-0.9238,-0.916,-0.061,-0.244,162.922,19.116,-63.353
6821,-0.3320,0.2847,-0.9272,-0.916,-0.122,-0.122,162.916,19.116,-63.353
6831,-0.3320,0.2837,-0.9258,-0.305,0.061,0.000,162.911,19.111,-63.353
6841,-0.3330,0.2822,-0.9229,0.549,0.122,0.183,162.916,19.111,-63.353
6851,-0.3340,0.2778,-0.9209,1.038,-0.183,0.305,162.927,19.111,-63.353
6861,-0.3335,0.2769,-0.9219,0.977,-0.671,0.366,162.938,19.116,-63.353
6871,-0.3359,0.2769,-0.9209,0.427,-1.038,0.488,162.944,19.127,-63.353
6881,-0.3359,0.2803,-0.9131,-0.366,-0.977,0.488,162.938,19.138,-63.353
6891,-0.3394,0.2847,-0.9111,-0.977,-0.732,0.366,162.927,19.149,-63.353
6901,-0.3418,0.2871,-0.9082,-0.916,-0.427,0.305,162.911,19.155,-63.353
6911,-0.3398,0.2876,-0.9067,-0.427,-0.122,0.305,162.900,19.160,-63.353
6921,-0.3374,0.2856,-0.9082,0.061,0.000,0.305,162.894,19.166,-63.353
6932,-0.3384,0.2876,-0.9131,0.366,0.244,0.305,162.894,19.166,-63.353
6941,-0.3354,0.2886,-0.9146,0.366,0.549,0.305,162.894,19.160,-63.353
6951,-0.3345,0.2896,-0.9180,0.244,0.916,0.183,162.894,19.149,-63.353
6961,-0.3350,0.2925,-0.9185,0.061,1.160,-0.061,162.889,19.138,-63.353
6971,-0.3345,0.2935,-0.9209,-0.061,1.160,-0.305,162.883,19.127,-63.353
6981,-0.3345,0.2930,-0.9233,-0.061,0.977,-0.549,162.883,19.122,-63.353
6991,-0.3345,0.2915,-0.9248,-0.061,0.732,-0.732,162.878,19.116,-63.353
7001,-0.3345,0.2886,-0.9253,0.000,0.488,-0.854,162.883,19.111,-63.353
7011,-0.3345,0.2886,-0.9258,-0.122,0.366,-0.977,162.883,19.111,-63.353
7021,-0.3340,0.2871,-0.9248,-0.183,0.183,-1.038,162.883,19.111,-63.342
7031,-0.3340,0.2847,-0.9204,-0.244,-0.122,-1.099,162.883,19.116,-63.331
7041,-0.3350,0.2847,-0.9170,-0.305,-0.305,-1.099,162.883,19.122,-63.320
7051,-0.3330,0.2803,-0.9155,-0.244,-0.305,-1.038,162.883,19.133,-63.314
7061,-0.3335,0.2759,-0.9155,-0.122,-0.122,-0.977,162.889,19.133,-63.303
7071,-0.3345,0.2759,-0.9175,-0.061,0.122,-0.854,162.894,19.138,-63.292
7081,-0.3335,0.2739,-0.9155,-0.061,0.427,-0.671,162.900,19.138,-63.287
7091,-0.3345,0.2744,-0.9175,-0.244,0.488,-0.427,162.905,19.133,-63.281
7101,-0.3354,0.2754,-0.9189,-0.427,0.305,-0.244,162.905,19.133,-63.276
7111,-0.3335,0.2769,-0.9204,-0.427,0.244,-0.061,162.905,19.133,-63.276
7121,-0.3330,0.2773,-0.9199,-0.305,0.305,0.122,162.905,19.127,-63.276
7131,-0.3350,0.2803,-0.9214,-0.183,0.427,0.244,162.905,19.122,-63.276
7141,-0.3311,0.2812,-0.9224,-0.122,0.549,0.427,162.905,19.116,-63.281
7151,-0.3335,0.2817,-0.9219,-0.061,0.610,0.549,162.905,19.105,-63.281
7161,-0.3315,0.2812,-0.9224,0.000,0.610,0.610,162.905,19.100,-63.287
7171,-0.3315,0.2827,-0.9233,-0.122,0.366,0.610,162.900,19.094,-63.292
7181,-0.3340,0.2827,-0.9209,-0.366,0.122,0.610,162.894,19.089,-63.298
7191,-0.3330,0.2856,-0.9224,-0.610,-0.061,0.549,162.889,19.089,-63.303
7201,-0.3335,0.2847,-0.9214,-0.732,-0.122,0.549,162.878,19.089,-63.309
7211,-0.3359,0.2876,-0.9214,-0.732,-0.122,0.549,162.867,19.089,-63.314
7221,-0.3345,0.2891,-0.9165,-0.610,-0.244,0.549,162.856,19.089,-63.320
7231,-0.3374,0.2905,-0.9160,-0.122,-0.244,0.671,162.845,19.094,-63.331
7241,-0.3369,0.2886,-0.9185,0.488,-0.061,0.671,162.845,19.094,-63.336
7251,-0.3379,0.2886,-0.9160,0.732,0.000,0.549,162.850,19.094,-63.342
7261,-0.3345,0.2871,-0.9136,0.549,0.061,0.366,162.850,19.094,-63.347
7271,-0.3350,0.2886,-0.9121,0.000,0.000,0.244,162.845,19.094,-63.347
7281,-0.3335,0.2910,-0.9155,-0.488,0.244,0.183,162.834,19.094,-63.347
7291,-0.3340,0.2900,-0.9126,-0.610,0.610,0.000,162.823,19.089,-63.347
7301,-0.3340,0.2920,-0.9121,-0.488,0.793,-0.122,162.817,19.083,-63.342
7311,-0.3340,0.2935,-0.9141,-0.122,0.793,-0.183,162.806,19.078,-63.336
7321,-0.3335,0.2915,-0.9175,0.366,0.977,-0.183,162.812,19.067,-63.336
7331,-0.3340,0.2891,-0.9199,0.610,1.099,-0.244,162.817,19.061,-63.325
7341,-0.3330,0.2866,-0.9219,0.427,1.099,-0.427,162.823,19.050,-63.320
7351,-0.3335,0.2891,-0.9243,0.183,1.038,-0.488,162.823,19.039,-63.314
7361,-0.3335,0.2886,-0.9229,0.000,1.038,-0.610,162.823,19.034,-63.303
7371,-0.3340,0.2861,-0.9209,0.000,0.854,-0.671,162.828,19.028,-63.292
7381,-0.3330,0.2871,-0.9199,-0.122,0.549,-0.793,162.828,19.028,-63.281
7391,-0.3335,0.2871,-0.9224,0.000,0.305,-0.793,162.828,19.023,-63.276
7401,-0.3325,0.2842,-0.9199,0.183,0.305,-0.732,162.834,19.023,-63.265
7411,-0.3330,0.2822,-0.9175,0.427,0.427,-0.732,162.839,19.023,-63.259
7421,-0.3315,0.2798,-0.9180,0.488,0.610,-0.732,162.850,19.023,-63.248
7432,-0.3306,0.2788,-0.9189,0.366,0.732,-0.671,162.861,19.017,-63.237
7441,-0.3296,0.2773,-0.9175,0.244,0.732,-0.549,162.867,19.012,-63.232
7451,-0.3320,0.2822,-0.9180,0.000,0.732,-0.488,162.872,19.006,-63.226
7461,-0.3325,0.2847,-0.9199,0.061,0.671,-0.366,162.872,19.001,-63.215
7471,-0.3306,0.2852,-0.9214,0.427,0.671,-0.244,162.878,18.995,-63.215
7481,-0.3301,0.2861,-0.9238,0.793,0.793,-0.183,162.889,18.984,-63.210
7491,-0.3320,0.2827,-0.9238,0.916,0.854,-0.183,162.900,18.979,-63.204
7501,-0.3320,0.2808,-0.9272,0.732,0.793,-0.122,162.911,18.968,-63.199
7511,-0.3306,0.2827,-0.9282,0.305,0.732,-0.183,162.916,18.962,-63.199
7521,-0.3271,0.2822,-0.9302,-0.061,0.610,-0.183,162.916,18.951,-63.193
7531,-0.3281,0.2842,-0.9316,-0.061,0.366,-0.244,162.916,18.946,-63.188
7541,-0.3281,0.2852,-0.9307,0.244,0.000,-0.183,162.922,18.946,-63.188
7551,-0.3301,0.2827,-0.9253,0.549,-0.549,-0.061,162.927,18.951,-63.188
7561,-0.3315,0.2793,-0.9233,0.793,-0.854,0.000,162.938,18.957,-63.193
7571,-0.3325,0.2793,-0.9194,0.671,-1.038,0.122,162.944,18.968,-63.193
7581,-0.3345,0.2803,-0.9170,0.305,-0.916,0.183,162.949,18.979,-63.199
7592,-0.3350,0.2808,-0.9160,-0.183,-0.793,0.122,162.944,18.990,-63.204
7602,-0.3364,0.2822,-0.9150,-0.427,-0.610,0.183,162.938,18.995,-63.210
7611,-0.3345,0.2847,-0.9116,-0.366,-0.488,0.244,162.927,19.006,-63.210
7622,-0.3345,0.2842,-0.9146,-0.122,-0.366,0.183,162.927,19.012,-63.215
7632,-0.3330,0.2847,-0.9141,0.061,-0.244,0.183,162.922,19.012,-63.215
7641,-0.3354,0.2881,-0.9155,0.122,0.000,0.244,162.922,19.017,-63.221
7652,-0.3330,0.2871,-0.9146,0.244,0.305,0.244,162.916,19.012,-63.221
7662,-0.3315,0.2910,-0.9146,0.427,0.488,0.183,162.916,19.006,-63.221
7672,-0.3340,0.2974,-0.9185,0.916,0.610,0.061,162.916,19.001,-63.221
7681,-0.3325,0.2886,-0.9199,1.709,0.610,0.000,162.933,18.995,-63.221
7692,-0.3335,0.2861,-0.9219,1.770,0.488,-0.122,162.949,18.995,-63.215
7702,-0.3335,0.2871,-0.9238,1.099,0.122,-0.488,162.960,18.995,-63.210
7712,-0.3335,0.2891,-0.9238,0.122,-0.183,-0.671,162.960,19.001,-63.204
7722,-0.3320,0.2891,-0.9224,-0.671,-0.305,-0.854,162.949,19.001,-63.199
7732,-0.3325,0.2900,-0.9214,-0.977,-0.305,-1.038,162.938,19.012,-63.188
7742,-0.3325,0.2866,-0.9185,-0.610,-0.244,-1.221,162.933,19.017,-63.177
7752,-0.3330,0.2803,-0.9194,-0.061,-0.122,-1.221,162.938,19.023,-63.166
7761,-0.3335,0.2764,-0.9180,0.000,-0.244,-1.099,162.944,19.028,-63.155
7772,-0.3345,0.2778,-0.9170,-0.366,-0.305,-0.977,162.949,19.034,-63.144
7782,-0.3340,0.2798,-0.9185,-0.488,-0.183,-0.793,162.944,19.039,-63.138
7792,-0.3335,0.2764,-0.9194,-0.122,0.122,-0.671,162.949,19.045,-63.127
7802,-0.3330,0.2739,-0.9194,0.305,0.305,-0.549,162.960,19.045,-63.122
7812,-0.3315,0.2720,-0.9189,0.427,0.183,-0.427,162.971,19.045,-63.116
7822,-0.3296,0.2759,-0.9214,0.244,0.061,-0.244,162.977,19.045,-63.116
7832,-0.3320,0.2749,-0.9209,0.122,0.183,-0.061,162.982,19.039,-63.116
7841,-0.3325,0.2764,-0.9224,-0.122,0.305,0.000,162.988,19.039,-63.111
7852,-0.3320,0.2754,-0.9238,-0.366,0.305,0.061,162.988,19.034,-63.111
7862,-0.3315,0.2783,-0.9229,-0.427,0.122,0.183,162.982,19.034,-63.116
7872,-0.3306,0.2778,-0.9253,-0.366,-0.122,0.366,162.982,19.034,-63.116
7882,-0.3330,0.2788,-0.9248,-0.366,-0.305,0.549,162.977,19.034,-63.127
7892,-0.3340,0.2808,-0.9229,-0.427,-0.549,0.549,162.971,19.039,-63.133
7902,-0.3325,0.2822,-0.9209,-0.610,-0.671,0.549,162.966,19.039,-63.138
7912,-0.3311,0.2832,-0.9204,-0.671,-0.732,0.671,162.955,19.045,-63.149
7922,-0.3320,0.2832,-0.9199,-0.549,-0.793,0.732,162.944,19.050,-63.160
7932,-0.3340,0.2852,-0.9170,-0.366,-0.793,0.732,162.938,19.056,-63.171
7942,-0.3350,0.2871,-0.9189,-0.122,-0.793,0.793,162.927,19.067,-63.177
7952,-0.3340,0.2871,-0.9170,0.183,-0.671,0.854,162.922,19.067,-63.188
7962,-0.3345,0.2852,-0.9116,0.244,-0.549,0.793,162.922,19.072,-63.199
7972,-0.3354,0.2837,-0.9106,0.061,-0.427,0.732,162.916,19.078,-63.210
7982,-0.3369,0.2886,-0.9116,-0.305,-0.427,0.610,162.905,19.083,-63.215
7992,-0.3374,0.2925,-0.9146,-0.427,-0.061,0.549,162.894,19.089,-63.221
8002,-0.3384,0.2925,-0.9150,-0.305,0.244,0.427,162.883,19.089,-63.226
8012,-0.3369,0.2896,-0.9150,-0.183,0.244,0.183,162.878,19.089,-63.226
8022,-0.3359,0.2900,-0.9155,-0.244,0.000,0.061,162.867,19.089,-63.226
8032,-0.3340,0.2930,-0.9175,-0.366,-0.122,0.000,162.861,19.089,-63.226
8042,-0.3364,0.2930,-0.9175,-0.244,0.122,0.000,162.850,19.089,-63.226
8052,-0.3345,0.2896,-0.9165,0.000,0.305,-0.122,162.845,19.089,-63.226
8062,-0.3354,0.2871,-0.9160,0.061,0.366,-0.366,162.845,19.089,-63.221
8072,-0.3354,0.2886,-0.9146,-0.061,0.061,-0.427,162.845,19.089,-63.215
8082,-0.3345,0.2900,-0.9199,0.000,0.183,-0.366,162.845,19.089,-63.210
8092,-0.3335,0.2896,-0.9209,0.244,0.671,-0.366,162.845,19.083,-63.204
8102,-0.3325,0.2861,-0.9199,0.549,1.038,-0.549,162.850,19.078,-63.199
8112,-0.3320,0.2812,-0.9233,0.610,0.854,-0.732,162.861,19.067,-63.188
8122,-0.3325,0.2832,-0.9224,0.183,0.305,-0.671,162.867,19.067,-63.177
8132,-0.3340,0.2847,-0.9238,-0.183,-0.183,-0.549,162.867,19.072,-63.171
8142,-0.3325,0.2837,-0.9204,-0.183,-0.366,-0.549,162.867,19.078,-63.171
8152,-0.3315,0.2876,-0.9229,0.061,-0.305,-0.671,162.867,19.078,-63.166
8162,-0.3320,0.2842,-0.9243,0.366,-0.183,-0.732,162.872,19.083,-63.155
8172,-0.3320,0.2822,-0.9209,0.427,0.000,-0.671,162.883,19.083,-63.149
8182,-0.3315,0.2793,-0.9204,0.183,0.061,-0.610,162.889,19.083,-63.144
8192,-0.3296,0.2793,-0.9219,-0.183,0.000,-0.549,162.889,19.083,-63.138
8202,-0.3306,0.2817,-0.9243,-0.183,-0.122,-0.488,162.889,19.083,-63.133
8212,-0.3301,0.2798,-0.9233,0.183,-0.244,-0.305,162.894,19.083,-63.133
8222,-0.3315,0.2783,-0.9243,0.549,-0.305,-0.061,162.905,19.089,-63.133
8232,-0.3340,0.2754,-0.9233,0.793,-0.427,0.061,162.916,19.089,-63.133
8242,-0.3359,0.2749,-0.9170,0.610,-0.671,0.183,162.927,19.100,-63.138
8252,-0.3374,0.2754,-0.9126,-0.061,-0.793,0.244,162.927,19.111,-63.144
8262,-0.3374,0.2793,-0.9136,-0.854,-0.916,0.183,162.916,19.122,-63.149
8272,-0.3379,0.2871,-0.9126,-1.221,-0.793,0.244,162.900,19.133,-63.149
8282,-0.3374,0.2900,-0.9106,-0.732,-0.427,0.305,162.883,19.138,-63.155
8292,-0.3369,0.2876,-0.9106,0.244,-0.061,0.366,162.883,19.144,-63.160
8302,-0.3369,0.2861,-0.9146,1.038,0.122,0.366,162.889,19.144,-63.166
8312,-0.3374,0.2852,-0.9121,1.038,0.000,0.366,162.894,19.144,-63.166
8322,-0.3335,0.2861,-0.9175,0.488,0.000,0.366,162.894,19.144,-63.171
8332,-0.3340,0.2900,-0.9204,-0.183,0.183,0.244,162.889,19.138,-63.171
8342,-0.3354,0.2925,-0.9185,-0.488,0.549,0.000,162.878,19.133,-63.171
8352,-0.3359,0.2925,-0.9199,-0.427,0.732,-0.305,162.872,19.127,-63.166
8362,-0.3374,0.2920,-0.9199,-0.366,0.549,-0.366,162.867,19.127,-63.160
8372,-0.3350,0.2935,-0.9204,-0.305,0.305,-0.366,162.861,19.122,-63.155
8382,-0.3325,0.2925,-0.9233,0.122,0.366,-0.366,162.856,19.122,-63.149
8392,-0.3345,0.2876,-0.9224,0.488,0.488,-0.488,162.861,19.116,-63.144
8402,-0.3350,0.2852,-0.9189,0.488,0.305,-0.671,162.867,19.116,-63.138
8412,-0.3364,0.2832,-0.9189,0.305,-0.183,-0.732,162.872,19.122,-63.127
8422,-0.3345,0.2832,-0.9224,-0.183,-0.305,-0.732,162.872,19.127,-63.122
8432,-0.3354,0.2832,-0.9204,-0.488,0.000,-0.671,162.872,19.133,-63.116
8442,-0.3364,0.2798,-0.9194,-0.549,0.305,-0.732,162.872,19.133,-63.111
8452,-0.3359,0.2808,-0.9165,-0.549,0.305,-0.732,162.872,19.133,-63.100
8462,-0.3350,0.2817,-0.9189,-0.366,0.061,-0.549,162.867,19.133,-63.094
8472,-0.3325,0.2803,-0.9214,0.000,0.122,-0.244,162.872,19.133,-63.089
8482,-0.3330,0.2778,-0.9199,0.305,0.244,-0.122,162.878,19.133,-63.089
8492,-0.3340,0.2793,-0.9219,0.427,0.244,-0.061,162.883,19.127,-63.089
8502,-0.3359,0.2783,-0.9238,0.244,0.305,0.061,162.894,19.127,-63.089
8512,-0.3345,0.2808,-0.9243,0.000,0.427,0.183,162.894,19.122,-63.089
8522,-0.3320,0.2817,-0.9263,-0.183,0.427,0.244,162.894,19.116,-63.089
8532,-0.3311,0.2832,-0.9292,-0.366,0.244,0.183,162.889,19.111,-63.089
8542,-0.3320,0.2847,-0.9292,-0.366,-0.061,0.122,162.889,19.105,-63.094
8552,-0.3335,0.2832,-0.9277,-0.183,-0.366,0.244,162.889,19.105,-63.094
8562,-0.3345,0.2812,-0.9229,-0.122,-0.610,0.305,162.883,19.111,-63.100
8572,-0.3350,0.2808,-0.9194,-0.366,-0.977,0.305,162.883,19.122,-63.105
8582,-0.3340,0.2837,-0.9194,-0.732,-1.160,0.366,162.872,19.133,-63.116
8592,-0.3350,0.2871,-0.9199,-0.610,-0.916,0.366,162.861,19.138,-63.122
8602,-0.3374,0.2842,-0.9175,-0.244,-0.488,0.427,162.856,19.144,-63.127
8612,-0.3369,0.2832,-0.9136,-0.061,-0.244,0.366,162.850,19.149,-63.133
8622,-0.3379,0.2861,-0.9136,-0.183,-0.427,0.366,162.845,19.155,-63.138
8632,-0.3384,0.2861,-0.9165,-0.244,-0.549,0.427,162.839,19.160,-63.144
8642,-0.3369,0.2881,-0.9160,-0.122,-0.244,0.549,162.834,19.166,-63.149
8652,-0.3374,0.2891,-0.9155,-0.061,0.061,0.488,162.828,19.166,-63.155
8662,-0.3389,0.2925,-0.9155,0.122,0.183,0.305,162.823,19.166,-63.155
8672,-0.3359,0.2930,-0.9199,0.366,0.366,0.305,162.823,19.160,-63.155
8682,-0.3350,0.2920,-0.9199,0.610,0.488,0.244,162.823,19.155,-63.160
8692,-0.3345,0.2925,-0.9233,0.549,0.488,0.061,162.823,19.149,-63.155
8702,-0.3374,0.2896,-0.9233,0.366,0.183,-0.183,162.828,19.149,-63.155
8712,-0.3369,0.2896,-0.9214,-0.061,-0.305,-0.427,162.823,19.155,-63.149
8722,-0.3335,0.2920,-0.9209,-0.427,-0.488,-0.488,162.817,19.160,-63.149
8732,-0.3345,0.2915,-0.9194,-0.610,-0.610,-0.549,162.806,19.166,-63.144
8742,-0.3364,0.2905,-0.9160,-0.366,-0.488,-0.610,162.801,19.171,-63.138
8752,-0.3354,0.2876,-0.9146,0.122,-0.366,-0.732,162.801,19.182,-63.133
8762,-0.3374,0.2827,-0.9150,0.366,-0.366,-0.732,162.806,19.188,-63.133
8772,-0.3359,0.2832,-0.9141,0.366,-0.366,-0.671,162.812,19.193,-63.133
8782,-0.3374,0.2812,-0.9136,0.183,-0.183,-0.610,162.817,19.199,-63.133
8792,-0.3359,0.2827,-0.9170,0.061,-0.061,-0.610,162.823,19.204,-63.133
8802,-0.3374,0.2803,-0.9160,0.061,0.122,-0.549,162.823,19.204,-63.133
8812,-0.3369,0.2803,-0.9160,0.122,0.183,-0.488,162.828,19.210,-63.133
8822,-0.3379,0.2793,-0.9170,0.122,0.244,-0.366,162.834,19.210,-63.133
8832,-0.3364,0.2817,-0.9150,0.061,0.000,-0.183,162.834,19.210,-63.133
8842,-0.3354,0.2822,-0.9199,0.061,-0.122,-0.122,162.839,19.215,-63.133
8852,-0.3345,0.2852,-0.9224,0.122,0.122,-0.122,162.839,19.210,-63.133
8862,-0.3364,0.2817,-0.9214,0.183,0.549,-0.061,162.845,19.204,-63.133
8872,-0.3330,0.2798,-0.9219,0.061,0.793,-0.061,162.850,19.199,-63.133
8882,-0.3315,0.2793,-0.9219,-0.244,0.549,-0.061,162.850,19.193,-63.133
8892,-0.3340,0.2812,-0.9209,-0.427,0.000,0.061,162.845,19.188,-63.133
8902,-0.3354,0.2793,-0.9180,-0.549,-0.427,0.183,162.845,19.193,-63.133
8912,-0.3384,0.2817,-0.9170,-0.488,-0.610,0.366,162.834,19.199,-63.133
8922,-0.3354,0.2832,-0.9185,0.000,-0.366,0.488,162.834,19.204,-63.133
8932,-0.3384,0.2817,-0.9175,0.610,0.183,0.610,162.839,19.204,-63.133
8942,-0.3394,0.2808,-0.9131,0.854,0.427,0.610,162.845,19.199,-63.133
8952,-0.3403,0.2822,-0.9170,0.488,0.183,0.610,162.850,19.199,-63.133
8962,-0.3413,0.2876,-0.9165,-0.061,-0.244,0.610,162.845,19.204,-63.133
8972,-0.3394,0.2925,-0.9150,-0.244,-0.244,0.549,162.834,19.210,-63.133
8982,-0.3379,0.2910,-0.9170,0.000,-0.061,0.427,162.828,19.210,-63.133
8992,-0.3350,0.2935,-0.9180,0.183,0.183,0.244,162.823,19.204,-63.133
9002,-0.3345,0.2920,-0.9185,0.305,0.366,0.122,162.823,19.199,-63.133
9012,-0.3345,0.2920,-0.9204,0.183,0.488,0.061,162.823,19.193,-63.133
9022,-0.3340,0.2935,-0.9199,-0.061,0.427,-0.122,162.817,19.188,-63.133
9032,-0.3345,0.2920,-0.9180,-0.366,0.366,-0.305,162.806,19.188,-63.133
9042,-0.3359,0.2910,-0.9194,-0.488,0.122,-0.488,162.801,19.188,-63.133
9052,-0.3369,0.2920,-0.9180,-0.549,0.000,-0.610,162.795,19.193,-63.133
9062,-0.3369,0.2910,-0.9180,-0.305,0.122,-0.671,162.790,19.193,-63.133
9072,-0.3389,0.2886,-0.9185,0.061,0.244,-0.732,162.790,19.193,-63.133
9082,-0.3374,0.2847,-0.9175,0.183,0.244,-0.793,162.795,19.193,-63.133
9092,-0.3364,0.2822,-0.9146,0.061,0.000,-0.854,162.801,19.199,-63.133
9102,-0.3379,0.2832,-0.9160,0.000,-0.061,-0.732,162.801,19.204,-63.133
9112,-0.3359,0.2817,-0.9204,0.000,0.122,-0.671,162.806,19.204,-63.133
9122,-0.3335,0.2788,-0.9180,0.000,0.427,-0.671,162.812,19.204,-63.133
9132,-0.3359,0.2764,-0.9155,-0.183,0.488,-0.610,162.817,19.204,-63.133
9142,-0.3335,0.2778,-0.9189,-0.366,0.305,-0.427,162.817,19.199,-63.133
9152,-0.3350,0.2808,-0.9214,-0.427,0.244,-0.183,162.817,19.199,-63.133
9162,-0.3354,0.2812,-0.9209,-0.183,0.366,0.061,162.817,19.193,-63.133
9172,-0.3359,0.2847,-0.9229,0.305,0.488,0.061,162.823,19.188,-63.133
9182,-0.3330,0.2832,-0.9243,0.793,0.488,0.061,162.828,19.182,-63.133
9192,-0.3340,0.2808,-0.9282,0.854,0.244,0.183,162.839,19.177,-63.133
9202,-0.3335,0.2847,-0.9302,0.549,-0.061,0.244,162.845,19.177,-63.133
9212,-0.3359,0.2852,-0.9287,0.244,-0.305,0.244,162.850,19.177,-63.133
9222,-0.3374,0.2847,-0.9248,0.061,-0.549,0.183,162.850,19.182,-63.133
9232,-0.3354,0.2861,-0.9253,-0.061,-0.854,0.061,162.845,19.188,-63.133
9242,-0.3325,0.2827,-0.9199,-0.244,-1.221,0.000,162.845,19.199,-63.133
9252,-0.3364,0.2817,-0.9175,-0.488,-1.465,0.000,162.839,19.215,-63.133
9262,-0.3364,0.2837,-0.9141,-0.732,-1.465,0.000,162.828,19.232,-63.133
9272,-0.3403,0.2847,-0.9126,-0.671,-1.160,0.122,162.817,19.243,-63.133
9282,-0.3398,0.2847,-0.9087,-0.244,-0.793,0.183,162.812,19.254,-63.133
9292,-0.3403,0.2822,-0.9077,0.183,-0.366,0.244,162.812,19.265,-63.133
9302,-0.3398,0.2812,-0.9092,0.488,-0.183,0.305,162.817,19.265,-63.133
9312,-0.3423,0.2837,-0.9121,0.549,-0.061,0.366,162.817,19.270,-63.133
9322,-0.3403,0.2856,-0.9121,0.427,0.183,0.427,162.823,19.270,-63.133
9332,-0.3384,0.2871,-0.9126,0.122,0.305,0.366,162.817,19.270,-63.133
9342,-0.3379,0.2891,-0.9136,-0.061,0.427,0.305,162.812,19.265,-63.133
9352,-0.3379,0.2920,-0.9160,0.000,0.427,0.244,162.806,19.265,-63.133
9362,-0.3379,0.2910,-0.9199,0.305,0.549,0.183,162.806,19.259,-63.133
9372,-0.3354,0.2896,-0.9194,0.549,0.610,0.122,162.812,19.248,-63.133
9382,-0.3350,0.2915,-0.9214,0.488,0.610,-0.061,162.812,19.243,-63.133
9392,-0.3340,0.2930,-0.9238,0.427,0.549,-0.183,162.812,19.237,-63.133
9402,-0.3345,0.2896,-0.9243,0.488,0.488,-0.244,162.817,19.232,-63.133
9412,-0.3350,0.2891,-0.9248,0.366,0.305,-0.366,162.823,19.226,-63.133
9422,-0.3369,0.2886,-0.9248,0.122,-0.122,-0.488,162.823,19.232,-63.133
9432,-0.3359,0.2866,-0.9229,0.061,-0.488,-0.610,162.823,19.237,-63.133
9442,-0.3354,0.2876,-0.9189,0.000,-0.732,-0.610,162.823,19.243,-63.133
9452,-0.3379,0.2856,-0.9155,0.122,-0.732,-0.671,162.823,19.254,-63.133
9462,-0.3384,0.2808,-0.9155,0.244,-0.671,-0.610,162.828,19.265,-63.133
9472,-0.3389,0.2783,-0.9106,0.183,-0.488,-0.610,162.834,19.276,-63.133
9482,-0.3394,0.2793,-0.9121,0.000,-0.244,-0.549,162.839,19.281,-63.133
9492,-0.3403,0.2803,-0.9106,-0.122,0.061,-0.427,162.839,19.286,-63.133
9502,-0.3374,0.2822,-0.9102,-0.061,0.427,-0.244,162.839,19.286,-63.133
9512,-0.3379,0.2832,-0.9126,0.061,0.732,-0.122,162.839,19.281,-63.133
9522,-0.3379,0.2852,-0.9146,0.488,1.038,0.000,162.845,19.270,-63.133
9532,-0.3345,0.2847,-0.9165,0.854,0.977,0.122,162.850,19.259,-63.133
9542,-0.3354,0.2832,-0.9209,1.038,0.732,0.183,162.861,19.254,-63.133
9552,-0.3340,0.2847,-0.9268,0.793,0.488,0.183,162.872,19.248,-63.133
9562,-0.3350,0.2837,-0.9253,0.427,0.488,0.122,162.878,19.237,-63.133
9572,-0.3340,0.2832,-0.9277,-0.183,0.488,0.000,162.878,19.232,-63.133
9582,-0.3350,0.2856,-0.9287,-0.732,0.305,-0.183,162.867,19.226,-63.133
9592,-0.3354,0.2856,-0.9277,-0.732,-0.061,-0.183,162.861,19.226,-63.133
9602,-0.3345,0.2832,-0.9209,-0.366,-0.488,-0.122,162.861,19.232,-63.133
9612,-0.3359,0.2803,-0.9170,0.000,-1.038,-0.061,162.861,19.243,-63.133
9622,-0.3394,0.2822,-0.9131,0.183,-1.465,0.061,162.861,19.259,-63.133
9632,-0.3403,0.2812,-0.9121,0.244,-1.404,0.244,162.861,19.276,-63.133
9642,-0.3418,0.2788,-0.9063,0.122,-0.916,0.366,162.861,19.286,-63.133
9652,-0.3418,0.2808,-0.9033,-0.122,-0.366,0.427,162.856,19.297,-63.133
9662,-0.3418,0.2852,-0.9067,-0.244,0.061,0.427,162.850,19.297,-63.133
9672,-0.3423,0.2866,-0.9063,-0.122,0.427,0.488,162.839,19.297,-63.133
9682,-0.3413,0.2832,-0.9077,0.061,0.854,0.488,162.839,19.292,-63.133
9692,-0.3398,0.2891,-0.9121,0.000,1.160,0.488,162.834,19.286,-63.133
9702,-0.3379,0.2935,-0.9165,0.122,1.526,0.427,162.828,19.270,-63.133
9712,-0.3379,0.2939,-0.9204,0.427,1.831,0.366,162.828,19.248,-63.133
9722,-0.3350,0.2959,-0.9243,0.610,1.892,0.183,162.834,19.232,-63.133
9732,-0.3330,0.2949,-0.9272,0.671,1.648,-0.122,162.834,19.210,-63.133
9742,-0.3354,0.2939,-0.9292,0.488,1.099,-0.366,162.839,19.199,-63.133
9752,-0.3335,0.2939,-0.9302,0.061,0.549,-0.610,162.839,19.193,-63.133
9762,-0.3340,0.2930,-0.9302,-0.183,0.061,-0.854,162.834,19.193,-63.133
9772,-0.3340,0.2910,-0.9263,-0.305,-0.305,-1.099,162.834,19.199,-63.122
9782,-0.3350,0.2871,-0.9214,-0.305,-0.671,-1.160,162.834,19.204,-63.116
9792,-0.3374,0.2837,-0.9189,-0.305,-0.977,-1.221,162.834,19.221,-63.105
9802,-0.3369,0.2793,-0.9150,-0.305,-1.099,-1.160,162.834,19.237,-63.094
9812,-0.3369,0.2769,-0.9121,-0.366,-0.916,-1.099,162.834,19.248,-63.089
9822,-0.3369,0.2764,-0.9136,-0.610,-0.427,-0.977,162.834,19.259,-63.078
9832,-0.3384,0.2798,-0.9116,-0.610,0.183,-0.793,162.834,19.259,-63.073
9842,-0.3374,0.2793,-0.9126,-0.183,0.732,-0.549,162.834,19.259,-63.062
9852,-0.3379,0.2773,-0.9146,0.305,0.977,-0.244,162.845,19.254,-63.056
9862,-0.3364,0.2773,-0.9170,0.610,0.916,0.000,162.856,19.243,-63.056
9872,-0.3359,0.2778,-0.9170,0.549,0.732,0.183,162.861,19.237,-63.056
9882,-0.3354,0.2793,-0.9204,0.061,0.671,0.183,162.867,19.232,-63.056
9892,-0.3330,0.2827,-0.9229,-0.549,0.610,0.122,162.861,19.221,-63.051
9902,-0.3350,0.2827,-0.9258,-0.793,0.610,0.122,162.856,19.215,-63.051
9912,-0.3350,0.2842,-0.9243,-0.732,0.427,0.183,162.850,19.210,-63.051
9922,-0.3354,0.2842,-0.9189,-0.427,0.244,0.183,162.845,19.210,-63.056
9933,-0.3350,0.2837,-0.9219,-0.244,-0.061,0.305,162.839,19.204,-63.056
9942,-0.3350,0.2827,-0.9224,-0.183,-0.183,0.366,162.839,19.204,-63.062
9952,-0.3359,0.2827,-0.9185,-0.366,-0.122,0.366,162.834,19.210,-63.067
9962,-0.3374,0.2827,-0.9165,-0.671,-0.183,0.427,162.828,19.210,-63.073
9972,-0.3384,0.2866,-0.9150,-0.854,-0.244,0.427,162.812,19.215,-63.078
9982,-0.3398,0.2886,-0.9150,-0.671,-0.183,0.488,162.801,19.215,-63.083
9992,-0.3384,0.2881,-0.9155,-0.244,0.122,0.488,162.795,19.215,-63.083
10002,-0.3403,0.2891,-0.9150,0.244,0.366,0.488,162.795,19.215,-63.089
10012,-0.3408,0.2896,-0.9141,0.610,0.427,0.488,162.795,19.210,-63.094
10022,-0.3384,0.2886,-0.9141,0.549,0.366,0.427,162.795,19.210,-63.094
10032,-0.3364,0.2886,-0.9131,0.305,0.366,0.305,162.795,19.204,-63.100
10042,-0.3354,0.2915,-0.9131,-0.122,0.305,0.122,162.790,19.204,-63.100
10052,-0.3374,0.2939,-0.9146,-0.305,0.427,0.000,162.779,19.204,-63.094
10062,-0.3369,0.2925,-0.9146,-0.183,0.610,-0.122,162.773,19.199,-63.094
10072,-0.3374,0.2915,-0.9170,0.061,0.854,-0.305,162.773,19.193,-63.089
10082,-0.3364,0.2920,-0.9180,0.244,1.038,-0.366,162.773,19.182,-63.083
10092,-0.3350,0.2910,-0.9170,0.427,1.099,-0.366,162.773,19.177,-63.073
10102,-0.3350,0.2896,-0.9199,0.488,1.038,-0.488,162.779,19.166,-63.067
10112,-0.3325,0.2876,-0.9199,0.366,0.854,-0.549,162.784,19.160,-63.056
10122,-0.3345,0.2876,-0.9199,0.244,0.488,-0.671,162.790,19.155,-63.051
10132,-0.3340,0.2861,-0.9199,0.122,0.427,-0.671,162.790,19.155,-63.040
10142,-0.3364,0.2847,-0.9185,0.061,0.488,-0.671,162.795,19.149,-63.034
10152,-0.3354,0.2842,-0.9194,0.061,0.549,-0.732,162.801,19.149,-63.023
10162,-0.3359,0.2822,-0.9175,0.244,0.671,-0.732,162.806,19.144,-63.012
10172,-0.3335,0.2803,-0.9175,0.305,0.793,-0.671,162.812,19.138,-63.007
10182,-0.3354,0.2827,-0.9185,0.244,0.793,-0.610,162.817,19.138,-62.996
10192,-0.3359,0.2817,-0.9160,0.244,0.671,-0.488,162.823,19.133,-62.990
10202,-0.3320,0.2812,-0.9160,0.305,0.610,-0.427,162.828,19.127,-62.985
10212,-0.3330,0.2837,-0.9160,0.244,0.610,-0.366,162.834,19.122,-62.979
10222,-0.3340,0.2842,-0.9199,0.183,0.671,-0.305,162.839,19.116,-62.974
10232,-0.3340,0.2842,-0.9204,0.244,0.977,-0.244,162.845,19.111,-62.968
10242,-0.3345,0.2817,-0.9219,0.366,1.160,-0.183,162.850,19.100,-62.963
10252,-0.3335,0.2827,-0.9238,0.427,1.038,-0.183,162.856,19.089,-62.957
10262,-0.3335,0.2842,-0.9248,0.488,0.732,-0.061,162.861,19.083,-62.952
10272,-0.3330,0.2837,-0.9224,0.732,0.427,0.061,162.872,19.078,-62.952
10282,-0.3350,0.2778,-0.9219,0.793,0.244,0.122,162.883,19.078,-62.952
10292,-0.3335,0.2783,-0.9194,0.549,0.061,0.122,162.889,19.078,-62.952
10302,-0.3345,0.2798,-0.9165,0.122,-0.061,0.122,162.894,19.078,-62.957
10312,-0.3384,0.2808,-0.9126,-0.244,0.000,0.122,162.889,19.083,-62.957
10322,-0.3389,0.2847,-0.9092,-0.549,0.122,0.183,162.883,19.083,-62.957
10332,-0.3398,0.2886,-0.9126,-0.366,0.427,0.244,162.872,19.083,-62.957
10342,-0.3379,0.2876,-0.9082,0.305,0.793,0.366,162.872,19.083,-62.963
10352,-0.3374,0.2852,-0.9111,0.977,1.038,0.427,162.878,19.072,-62.963
10362,-0.3359,0.2866,-0.9160,1.099,1.282,0.427,162.883,19.061,-62.963
10372,-0.3335,0.2876,-0.9199,1.038,1.526,0.427,162.894,19.045,-62.963
10382,-0.3301,0.2891,-0.9233,0.793,1.831,0.305,162.900,19.028,-62.957
10392,-0.3296,0.2900,-0.9258,0.549,1.892,0.122,162.905,19.006,-62.957
10402,-0.3276,0.2920,-0.9287,0.488,1.709,-0.061,162.905,18.984,-62.946
10412,-0.3291,0.2935,-0.9336,0.549,1.282,-0.183,162.911,18.973,-62.941
10422,-0.3306,0.2905,-0.9360,0.732,0.854,-0.305,162.916,18.962,-62.935
10433,-0.3276,0.2861,-0.9351,0.916,0.427,-0.427,162.927,18.951,-62.930
10442,-0.3271,0.2847,-0.9292,0.793,-0.122,-0.549,162.938,18.951,-62.924
10452,-0.3306,0.2842,-0.9287,0.488,-0.610,-0.671,162.944,18.957,-62.919
10462,-0.3296,0.2856,-0.9258,0.244,-0.854,-0.732,162.949,18.968,-62.919
10472,-0.3320,0.2788,-0.9214,0.061,-0.793,-0.732,162.955,18.979,-62.913
10482,-0.3311,0.2773,-0.9185,-0.122,-0.610,-0.793,162.955,18.984,-62.908
10492,-0.3325,0.2759,-0.9170,-0.183,-0.488,-0.671,162.960,18.995,-62.902
10502,-0.3354,0.2744,-0.9150,-0.122,-0.305,-0.488,162.960,19.001,-62.897
10512,-0.3359,0.2754,-0.9102,0.061,-0.183,-0.244,162.966,19.006,-62.897
10522,-0.3345,0.2734,-0.9097,0.244,-0.122,-0.061,162.971,19.012,-62.897
10532,-0.3345,0.2749,-0.9116,0.244,0.000,0.183,162.977,19.017,-62.897
10542,-0.3345,0.2783,-0.9170,0.244,0.488,0.305,162.977,19.012,-62.897
10552,-0.3315,0.2793,-0.9209,0.305,1.160,0.488,162.982,19.001,-62.897
10562,-0.3291,0.2803,-0.9233,0.305,1.465,0.488,162.988,18.984,-62.897
10572,-0.3296,0.2822,-0.9263,0.183,1.221,0.488,162.988,18.968,-62.902
10582,-0.3291,0.2832,-0.9272,0.061,0.671,0.610,162.988,18.957,-62.902
10592,-0.3301,0.2847,-0.9297,-0.122,0.183,0.610,162.988,18.951,-62.908
10602,-0.3291,0.2861,-0.9341,-0.305,-0.061,0.488,162.982,18.951,-62.913
10612,-0.3286,0.2871,-0.9341,-0.427,-0.244,0.366,162.977,18.946,-62.919
10622,-0.3296,0.2871,-0.9302,-0.427,-0.488,0.305,162.966,18.951,-62.924
10632,-0.3306,0.2871,-0.9282,-0.549,-0.916,0.244,162.960,18.957,-62.930
10642,-0.3325,0.2881,-0.9253,-0.488,-1.282,0.244,162.949,18.968,-62.935
10652,-0.3350,0.2842,-0.9199,-0.305,-1.465,0.244,162.944,18.984,-62.941
10662,-0.3354,0.2822,-0.9102,-0.183,-1.404,0.183,162.938,19.001,-62.952
10672,-0.3374,0.2866,-0.9116,-0.366,-1.160,0.244,162.927,19.012,-62.957
10682,-0.3340,0.2856,-0.9155,-0.366,-0.549,0.305,162.922,19.017,-62.963
10692,-0.3354,0.2827,-0.9155,-0.305,-0.061,0.305,162.916,19.023,-62.963
10702,-0.3350,0.2812,-0.9136,-0.427,0.122,0.183,162.911,19.023,-62.963
10712,-0.3369,0.2837,-0.9097,-0.671,0.000,0.183,162.900,19.028,-62.968
10722,-0.3350,0.2881,-0.9150,-0.854,-0.061,0.305,162.889,19.028,-62.968
10732,-0.3354,0.2891,-0.9165,-0.488,0.122,0.427,162.878,19.028,-62.974
10742,-0.3359,0.2847,-0.9165,0.061,0.366,0.366,162.878,19.028,-62.979
10752,-0.3335,0.2817,-0.9155,0.305,0.305,0.305,162.878,19.023,-62.979
10762,-0.3350,0.2822,-0.9180,0.061,-0.061,0.305,162.878,19.028,-62.979
10772,-0.3340,0.2861,-0.9209,-0.549,-0.183,0.305,162.872,19.028,-62.985
10782,-0.3330,0.2891,-0.9243,-0.916,0.122,0.183,162.856,19.028,-62.985
10792,-0.3296,0.2891,-0.9248,-0.977,0.427,0.000,162.845,19.017,-62.985
10802,-0.3320,0.2905,-0.9233,-0.732,0.549,-0.183,162.839,19.012,-62.985
10812,-0.3340,0.2896,-0.9243,-0.366,0.244,-0.122,162.834,19.012,-62.985
10822,-0.3311,0.2871,-0.9214,-0.183,-0.427,-0.122,162.828,19.017,-62.985
10832,-0.3320,0.2871,-0.9219,-0.366,-0.977,-0.122,162.823,19.023,-62.985
10842,-0.3359,0.2871,-0.9209,-0.610,-1.038,-0.244,162.817,19.039,-62.985
10852,-0.3354,0.2861,-0.9165,-0.793,-0.793,-0.366,162.806,19.050,-62.985
10862,-0.3340,0.2847,-0.9175,-0.977,-0.488,-0.488,162.795,19.056,-62.985
10872,-0.3340,0.2891,-0.9204,-1.099,-0.427,-0.488,162.784,19.061,-62.985
10882,-0.3306,0.2876,-0.9229,-0.793,-0.305,-0.366,162.779,19.061,-62.985
10892,-0.3330,0.2861,-0.9194,-0.183,-0.183,-0.244,162.773,19.067,-62.985
10902,-0.3340,0.2798,-0.9180,0.183,-0.427,-0.183,162.779,19.072,-62.985
10912,-0.3354,0.2812,-0.9155,0.000,-0.916,-0.122,162.779,19.083,-62.985
10922,-0.3369,0.2817,-0.9141,-0.610,-1.221,0.000,162.773,19.100,-62.985
10933,-0.3389,0.2847,-0.9126,-1.038,-1.099,0.122,162.762,19.111,-62.985
10942,-0.3364,0.2837,-0.9092,-1.282,-0.732,0.122,162.746,19.122,-62.985
10952,-0.3394,0.2822,-0.9033,-1.343,-0.488,0.122,162.729,19.133,-62.985
10962,-0.3394,0.2847,-0.9058,-1.282,-0.366,0.244,162.719,19.144,-62.985
10972,-0.3379,0.2891,-0.9136,-0.916,0.000,0.427,162.702,19.144,-62.985
10982,-0.3374,0.2905,-0.9141,-0.305,0.610,0.610,162.697,19.138,-62.985
10992,-0.3350,0.2905,-0.9209,0.244,1.160,0.610,162.697,19.127,-62.985
11002,-0.3320,0.2915,-0.9238,0.549,1.282,0.488,162.697,19.111,-62.985
11012,-0.3335,0.2915,-0.9282,0.366,0.854,0.305,162.702,19.100,-62.985
11022,-0.3330,0.2935,-0.9302,-0.061,0.183,0.122,162.697,19.094,-62.985
11032,-0.3315,0.2979,-0.9307,-0.610,-0.305,-0.061,162.686,19.094,-62.985
11042,-0.3325,0.2969,-0.9307,-0.977,-0.793,-0.366,162.675,19.100,-62.985
11052,-0.3340,0.2969,-0.9233,-0.916,-1.099,-0.610,162.658,19.111,-62.985
11062,-0.3345,0.2925,-0.9199,-0.671,-1.343,-0.732,162.653,19.127,-62.985
11072,-0.3374,0.2910,-0.9180,-0.488,-1.526,-0.793,162.647,19.144,-62.985
11082,-0.3374,0.2876,-0.9116,-0.427,-1.709,-0.732,162.642,19.166,-62.985
11092,-0.3394,0.2847,-0.9077,-0.305,-1.526,-0.732,162.636,19.188,-62.985
11102,-0.3398,0.2832,-0.9043,-0.305,-1.221,-0.610,162.636,19.204,-62.985
11112,-0.3403,0.2808,-0.9048,-0.305,-0.610,-0.488,162.636,19.215,-62.985
11122,-0.3398,0.2822,-0.9063,-0.244,0.000,-0.366,162.636,19.226,-62.985
11132,-0.3384,0.2842,-0.9072,0.061,0.488,-0.122,162.636,19.221,-62.985
11142,-0.3364,0.2861,-0.9116,0.427,0.793,0.061,162.642,19.215,-62.985
11152,-0.3354,0.2856,-0.9165,0.732,0.977,0.183,162.647,19.210,-62.985
11162,-0.3345,0.2861,-0.9204,0.977,1.099,0.244,162.658,19.199,-62.985
11172,-0.3335,0.2852,-0.9248,0.793,1.038,0.244,162.669,19.182,-62.985
11182,-0.3340,0.2886,-0.9277,0.427,0.732,0.183,162.675,19.177,-62.985
11192,-0.3325,0.2905,-0.9326,0.061,0.427,0.122,162.675,19.166,-62.985
11202,-0.3315,0.2900,-0.9341,-0.122,-0.061,0.061,162.675,19.160,-62.985
11212,-0.3340,0.2886,-0.9316,-0.122,-0.610,-0.061,162.675,19.166,-62.985
11222,-0.3359,0.2852,-0.9287,-0.244,-1.221,-0.122,162.669,19.177,-62.985
11232,-0.3359,0.2817,-0.9238,-0.488,-1.770,-0.183,162.669,19.193,-62.985
11242,-0.3340,0.2827,-0.9194,-0.916,-2.136,-0.183,162.664,19.215,-62.985
11252,-0.3345,0.2827,-0.9150,-1.221,-2.197,-0.061,162.647,19.237,-62.985
11262,-0.3379,0.2822,-0.9102,-1.221,-1.953,0.000,162.636,19.259,-62.985
11272,-0.3394,0.2837,-0.9072,-0.977,-1.465,0.183,162.625,19.276,-62.985
11282,-0.3413,0.2852,-0.9102,-0.427,-0.854,0.488,162.620,19.286,-62.985
11292,-0.3413,0.2832,-0.9097,0.183,-0.366,0.732,162.620,19.292,-62.985
11302,-0.3428,0.2827,-0.9102,0.488,0.061,0.793,162.620,19.292,-62.985
11312,-0.3437,0.2866,-0.9121,0.183,0.122,0.854,162.620,19.292,-62.985
11322,-0.3408,0.2891,-0.9180,-0.183,0.122,0.854,162.614,19.292,-62.985
11332,-0.3403,0.2925,-0.9165,-0.549,0.183,0.732,162.603,19.292,-62.985
11342,-0.3374,0.2979,-0.9204,-0.732,0.183,0.610,162.587,19.286,-62.985
11352,-0.3379,0.3013,-0.9233,-0.488,0.061,0.488,162.576,19.281,-62.985
11362,-0.3364,0.2998,-0.9233,0.305,-0.061,0.366,162.570,19.281,-62.985
11372,-0.3354,0.2954,-0.9194,0.854,-0.183,0.305,162.576,19.281,-62.985
11382,-0.3374,0.2949,-0.9165,0.854,-0.488,0.061,162.576,19.286,-62.985
11392,-0.3384,0.2935,-0.9180,0.244,-0.916,-0.122,162.576,19.292,-62.985
11402,-0.3394,0.2910,-0.9121,-0.610,-1.160,-0.305,162.570,19.308,-62.985
11412,-0.3418,0.2930,-0.9106,-1.160,-1.038,-0.427,162.554,19.325,-62.985
11422,-0.3398,0.2920,-0.9087,-1.343,-0.732,-0.610,162.537,19.336,-62.985
11433,-0.3403,0.2920,-0.9077,-1.099,-0.549,-0.610,162.526,19.347,-62.985
11442,-0.3394,0.2920,-0.9077,-0.427,-0.305,-0.549,162.515,19.352,-62.985
11452,-0.3398,0.2886,-0.9067,0.183,0.061,-0.366,162.521,19.358,-62.985
11462,-0.3398,0.2881,-0.9097,0.427,0.305,-0.244,162.521,19.358,-62.985
11472,-0.3384,0.2876,-0.9097,0.488,0.549,-0.183,162.526,19.352,-62.985
11482,-0.3369,0.2886,-0.9121,0.366,0.671,-0.244,162.532,19.347,-62.985
11492,-0.3369,0.2866,-0.9160,0.122,0.793,-0.244,162.537,19.341,-62.985
11502,-0.3364,0.2881,-0.9189,-0.061,0.977,-0.305,162.537,19.330,-62.985
11512,-0.3374,0.2920,-0.9219,-0.183,0.977,-0.305,162.537,19.325,-62.985
11522,-0.3345,0.2939,-0.9253,-0.061,0.854,-0.305,162.537,19.314,-62.985
11532,-0.3345,0.2930,-0.9253,0.244,0.488,-0.305,162.543,19.303,-62.985
11542,-0.3335,0.2925,-0.9243,0.610,0.000,-0.244,162.548,19.303,-62.985
11552,-0.3350,0.2930,-0.9258,1.038,-0.488,-0.244,162.554,19.303,-62.985
11562,-0.3350,0.2871,-0.9209,1.221,-0.854,-0.244,162.570,19.314,-62.985
11572,-0.3389,0.2842,-0.9160,0.793,-1.038,-0.366,162.581,19.325,-62.985
11582,-0.3403,0.2852,-0.9111,0.000,-1.038,-0.427,162.581,19.341,-62.985
11592,-0.3408,0.2852,-0.9087,-0.793,-0.916,-0.488,162.570,19.352,-62.985
11602,-0.3423,0.2871,-0.9067,-1.099,-0.671,-0.488,162.559,19.363,-62.985
11612,-0.3423,0.2866,-0.9043,-0.732,-0.366,-0.305,162.554,19.374,-62.985
11622,-0.3428,0.2837,-0.9063,-0.061,0.000,-0.183,162.554,19.380,-62.985
11632,-0.3389,0.2832,-0.9106,0.610,0.427,0.061,162.559,19.380,-62.985
11642,-0.3369,0.2847,-0.9116,0.916,0.732,0.305,162.570,19.369,-62.985
11652,-0.3374,0.2856,-0.9155,0.793,1.038,0.427,162.581,19.358,-62.985
11662,-0.3350,0.2871,-0.9229,0.488,1.099,0.366,162.587,19.347,-62.985
11672,-0.3359,0.2905,-0.9233,0.183,1.038,0.305,162.587,19.330,-62.985
11682,-0.3374,0.2925,-0.9253,0.000,0.854,0.122,162.587,19.325,-62.985
11692,-0.3369,0.2920,-0.9272,-0.061,0.488,0.000,162.587,19.314,-62.985
11702,-0.3364,0.2915,-0.9272,-0.122,0.061,-0.061,162.587,19.314,-62.985
11712,-0.3350,0.2944,-0.9258,-0.305,-0.366,-0.122,162.581,19.314,-62.985
11722,-0.3374,0.2935,-0.9229,-0.305,-0.549,-0.183,162.576,19.319,-62.985
11732,-0.3413,0.2935,-0.9175,-0.122,-0.732,-0.183,162.570,19.330,-62.985
11742,-0.3413,0.2920,-0.9150,0.000,-0.977,-0.305,162.565,19.341,-62.985
11752,-0.3394,0.2896,-0.9141,0.061,-1.160,-0.366,162.565,19.352,-62.985
11762,-0.3403,0.2861,-0.9116,0.061,-1.038,-0.305,162.565,19.369,-62.985
11772,-0.3394,0.2842,-0.9077,0.000,-0.732,-0.244,162.565,19.380,-62.985
11782,-0.3418,0.2842,-0.9077,-0.183,-0.488,-0.244,162.565,19.385,-62.985
11792,-0.3428,0.2886,-0.9077,-0.183,-0.244,-0.183,162.565,19.396,-62.985
11802,-0.3428,0.2866,-0.9092,0.305,0.061,-0.061,162.565,19.396,-62.985
11812,-0.3423,0.2847,-0.9082,0.732,0.305,0.061,162.570,19.396,-62.985
11822,-0.3437,0.2852,-0.9097,0.854,0.427,0.061,162.581,19.396,-62.985
11832,-0.3433,0.2876,-0.9126,0.549,0.427,0.000,162.587,19.396,-62.985
11842,-0.3418,0.2881,-0.9160,0.122,0.488,0.000,162.587,19.396,-62.985
11852,-0.3403,0.2891,-0.9170,-0.244,0.549,0.000,162.587,19.391,-62.985
11862,-0.3374,0.2935,-0.9189,-0.427,0.549,-0.122,162.581,19.385,-62.985
11872,-0.3379,0.2969,-0.9204,-0.122,0.549,-0.183,162.576,19.380,-62.985
11882,-0.3379,0.2925,-0.9229,0.366,0.610,-0.183,162.576,19.374,-62.985
11892,-0.3364,0.2910,-0.9238,0.610,0.549,-0.244,162.587,19.363,-62.985
11902,-0.3384,0.2930,-0.9224,0.427,0.305,-0.366,162.587,19.363,-62.985
11913,-0.3389,0.2920,-0.9209,0.122,0.122,-0.366,162.587,19.363,-62.985
11923,-0.3384,0.2900,-0.9165,-0.183,-0.183,-0.427,162.587,19.363,-62.985
11933,-0.3394,0.2871,-0.9175,-0.549,-0.427,-0.549,162.581,19.374,-62.985
11942,-0.3413,0.2876,-0.9136,-0.793,-0.732,-0.610,162.576,19.385,-62.985
11952,-0.3428,0.2910,-0.9155,-0.671,-0.488,-0.549,162.570,19.391,-62.985
11963,-0.3389,0.2900,-0.9185,-0.061,-0.122,-0.427,162.570,19.396,-62.985
11973,-0.3374,0.2871,-0.9155,0.488,0.122,-0.366,162.576,19.396,-62.985
11982,-0.3359,0.2842,-0.9155,0.488,0.000,-0.427,162.581,19.396,-62.985
11993,-0.3379,0.2817,-0.9150,0.183,-0.366,-0.244,162.587,19.402,-62.985
12003,-0.3369,0.2847,-0.9180,-0.183,-0.427,-0.061,162.587,19.402,-62.985
12012,-0.3369,0.2856,-0.9185,-0.305,-0.122,0.000,162.587,19.402,-62.985
12023,-0.3389,0.2852,-0.9189,-0.244,0.122,0.000,162.587,19.402,-62.985
12033,-0.3379,0.2847,-0.9155,-0.122,0.122,0.000,162.587,19.402,-62.985
12043,-0.3369,0.2827,-0.9209,-0.122,-0.183,0.183,162.587,19.402,-62.985
12053,-0.3364,0.2817,-0.9175,-0.366,-0.488,0.366,162.587,19.402,-62.985
12063,-0.3369,0.2852,-0.9175,-0.732,-0.671,0.549,162.576,19.407,-62.985
12073,-0.3364,0.2866,-0.9199,-0.916,-0.732,0.610,162.565,19.413,-62.985
12083,-0.3369,0.2876,-0.9175,-0.793,-0.488,0.732,162.554,19.413,-62.985
12093,-0.3389,0.2871,-0.9189,-0.732,-0.305,0.854,162.548,19.413,-62.985
12103,-0.3374,0.2896,-0.9194,-0.610,-0.183,0.916,162.537,19.413,-62.985
12113,-0.3379,0.2886,-0.9185,-0.366,-0.244,1.038,162.526,19.407,-62.996
12123,-0.3384,0.2915,-0.9204,-0.366,-0.488,0.916,162.521,19.407,-63.007
12133,-0.3389,0.2896,-0.9209,-0.610,-0.610,0.793,162.510,19.413,-63.012
12143,-0.3418,0.2920,-0.9219,-0.977,-0.671,0.732,162.499,19.418,-63.023
12153,-0.3423,0.2954,-0.9189,-1.160,-0.793,0.671,162.482,19.424,-63.034
12163,-0.3423,0.2974,-0.9185,-1.099,-0.916,0.671,162.460,19.429,-63.045
12173,-0.3408,0.2959,-0.9165,-0.854,-1.221,0.549,162.449,19.440,-63.051
12183,-0.3428,0.2954,-0.9131,-0.549,-1.526,0.549,162.433,19.457,-63.062
12193,-0.3398,0.2988,-0.9087,-0.366,-1.587,0.488,162.422,19.473,-63.073
12203,-0.3442,0.2983,-0.9072,-0.305,-1.465,0.488,162.411,19.490,-63.083
12213,-0.3462,0.3013,-0.9033,-0.427,-1.038,0.366,162.394,19.501,-63.089
12223,-0.3467,0.3037,-0.9048,-0.366,-0.549,0.305,162.378,19.512,-63.094
12233,-0.3486,0.3013,-0.9063,-0.183,-0.183,0.122,162.367,19.517,-63.094
12243,-0.3477,0.3013,-0.9097,0.000,-0.061,-0.061,162.361,19.523,-63.094
12253,-0.3447,0.3032,-0.9097,0.122,-0.122,-0.366,162.356,19.528,-63.094
12263,-0.3428,0.3003,-0.9116,0.061,-0.183,-0.610,162.350,19.534,-63.089
12273,-0.3394,0.2954,-0.9116,-0.122,-0.061,-0.854,162.350,19.534,-63.078
12283,-0.3398,0.2944,-0.9106,-0.305,0.122,-0.977,162.350,19.534,-63.067
12293,-0.3394,0.2935,-0.9121,-0.488,0.305,-1.038,162.345,19.534,-63.056
12303,-0.3433,0.2915,-0.9087,-0.427,0.366,-1.099,162.345,19.539,-63.045
12313,-0.3428,0.2939,-0.9121,-0.305,0.366,-0.977,162.345,19.539,-63.034
12323,-0.3428,0.2905,-0.9116,0.061,0.488,-0.793,162.345,19.539,-63.023
12333,-0.3428,0.2856,-0.9194,0.427,0.610,-0.732,162.356,19.534,-63.012
12343,-0.3423,0.2827,-0.9150,0.549,0.610,-0.671,162.372,19.534,-63.007
12353,-0.3428,0.2832,-0.9180,0.366,0.488,-0.671,162.383,19.534,-62.996
12363,-0.3403,0.2842,-0.9160,0.000,0.244,-0.671,162.389,19.534,-62.990
12373,-0.3403,0.2866,-0.9150,-0.488,0.061,-0.549,162.389,19.534,-62.985
12383,-0.3413,0.2900,-0.9165,-0.488,-0.061,-0.488,162.383,19.534,-62.979
12393,-0.3408,0.2886,-0.9170,-0.122,0.183,-0.366,162.389,19.534,-62.974
12403,-0.3447,0.2866,-0.9155,0.305,0.488,-0.244,162.394,19.534,-62.968
12413,-0.3428,0.2861,-0.9160,0.488,0.488,-0.122,162.400,19.528,-62.968
12423,-0.3413,0.2866,-0.9126,0.305,0.122,0.061,162.405,19.528,-62.968
12433,-0.3408,0.2866,-0.9106,-0.122,-0.366,0.244,162.405,19.534,-62.974
12443,-0.3442,0.2881,-0.9048,-0.427,-0.549,0.305,162.400,19.539,-62.979
12453,-0.3442,0.2881,-0.9019,-0.610,-0.366,0.244,162.389,19.550,-62.979
12463,-0.3433,0.2891,-0.9038,-0.732,0.122,0.244,162.378,19.550,-62.985
12473,-0.3428,0.2915,-0.9028,-0.854,0.732,0.244,162.367,19.545,-62.985
12483,-0.3418,0.2949,-0.9077,-0.854,1.404,0.305,162.356,19.534,-62.979
12493,-0.3418,0.2974,-0.9126,-0.549,2.014,0.366,162.350,19.512,-62.979
12503,-0.3413,0.2964,-0.9146,-0.061,2.380,0.366,162.345,19.490,-62.974
12513,-0.3394,0.2964,-0.9229,0.305,2.136,0.305,162.350,19.468,-62.968
12523,-0.3364,0.2993,-0.9258,0.488,1.526,0.366,162.350,19.446,-62.968
12533,-0.3374,0.2974,-0.9263,0.610,0.977,0.366,162.356,19.435,-62.968
12543,-0.3389,0.2974,-0.9238,0.427,0.488,0.244,162.356,19.429,-62.968
12553,-0.3408,0.2988,-0.9248,0.061,0.061,-0.061,162.356,19.424,-62.968
12563,-0.3428,0.3003,-0.9224,-0.183,-0.122,-0.183,162.350,19.429,-62.968
12573,-0.3428,0.3018,-0.9170,0.061,-0.061,-0.305,162.345,19.429,-62.968
12583,-0.3428,0.2979,-0.9160,0.488,0.000,-0.427,162.350,19.435,-62.963
12593,-0.3423,0.2939,-0.9141,0.793,-0.183,-0.610,162.356,19.440,-62.957
12603,-0.3413,0.2910,-0.9087,0.732,-0.549,-0.732,162.367,19.451,-62.952
12613,-0.3408,0.2871,-0.9058,0.183,-0.793,-0.671,162.367,19.462,-62.946
12623,-0.3418,0.2861,-0.8984,-0.610,-0.610,-0.549,162.361,19.473,-62.941
12633,-0.3428,0.2925,-0.9014,-0.977,0.000,-0.427,162.350,19.479,-62.935
12643,-0.3437,0.2974,-0.9102,-0.183,1.099,-0.244,162.345,19.473,-62.930
12653,-0.3423,0.2935,-0.9131,1.343,2.075,-0.061,162.361,19.457,-62.924
12663,-0.3423,0.2881,-0.9170,2.563,2.380,0.000,162.389,19.435,-62.919
12673,-0.3384,0.2847,-0.9204,2.563,1.709,0.000,162.422,19.418,-62.913
12683,-0.3389,0.2866,-0.9199,1.404,0.610,-0.061,162.438,19.413,-62.908
12693,-0.3359,0.2896,-0.9219,-0.061,0.000,-0.122,162.444,19.407,-62.908
12703,-0.3369,0.2983,-0.9209,-0.732,0.183,-0.183,162.433,19.407,-62.908
12713,-0.3345,0.3013,-0.9263,-0.061,0.793,-0.244,162.427,19.396,-62.902
12723,-0.3369,0.2998,-0.9263,1.221,1.099,-0.305,162.438,19.380,-62.891
12733,-0.3374,0.2930,-0.9214,2.014,0.610,-0.366,162.460,19.374,-62.886
12743,-0.3364,0.2847,-0.9175,1.709,-0.427,-0.427,162.482,19.380,-62.886
12753,-0.3394,0.2847,-0.9155,0.427,-1.282,-0.549,162.488,19.396,-62.886
12763,-0.3433,0.2881,-0.9082,-1.221,-1.343,-0.671,162.477,19.413,-62.880
12773,-0.3398,0.2930,-0.9077,-2.075,-0.732,-0.854,162.455,19.424,-62.875
12783,-0.3418,0.2930,-0.9072,-1.587,0.305,-0.916,162.438,19.429,-62.864
12793,-0.3437,0.2876,-0.9072,-0.244,0.977,-0.793,162.438,19.424,-62.853
12803,-0.3428,0.2817,-0.9072,1.038,1.038,-0.549,162.455,19.424,-62.842
12813,-0.3408,0.2803,-0.9111,1.526,0.549,-0.305,162.477,19.418,-62.842
12823,-0.3398,0.2793,-0.9131,1.404,0.244,0.061,162.493,19.418,-62.842
12833,-0.3394,0.2798,-0.9111,0.732,0.244,0.183,162.504,19.418,-62.842
12843,-0.3403,0.2817,-0.9097,-0.061,0.549,0.244,162.510,19.413,-62.842
12853,-0.3413,0.2891,-0.9097,-0.427,1.038,0.305,162.504,19.407,-62.842
12863,-0.3442,0.2910,-0.9102,0.000,1.526,0.427,162.499,19.396,-62.842
12873,-0.3437,0.2886,-0.9106,0.610,1.648,0.549,162.504,19.380,-62.842
12883,-0.3423,0.2910,-0.9106,0.854,1.343,0.488,162.510,19.369,-62.842
12893,-0.3418,0.2930,-0.9121,0.732,0.854,0.488,162.515,19.363,-62.842
12903,-0.3398,0.2949,-0.9155,0.549,0.732,0.427,162.515,19.358,-62.847
12913,-0.3359,0.2969,-0.9180,0.427,1.038,0.366,162.515,19.341,-62.847
12923,-0.3354,0.2998,-0.9180,0.610,1.526,0.183,162.515,19.325,-62.842
12933,-0.3340,0.2988,-0.9185,0.916,1.587,-0.061,162.521,19.308,-62.836
12943,-0.3340,0.2949,-0.9209,1.038,1.343,-0.183,162.532,19.297,-62.831
12953,-0.3350,0.2949,-0.9185,0.793,0.916,-0.305,162.537,19.286,-62.825
12963,-0.3340,0.2954,-0.9199,0.305,0.549,-0.427,162.537,19.281,-62.820
12973,-0.3369,0.2974,-0.9199,0.122,0.549,-0.488,162.537,19.276,-62.814
12983,-0.3364,0.2974,-0.9180,0.244,0.793,-0.610,162.537,19.270,-62.803
12993,-0.3379,0.2964,-0.9185,0.610,0.977,-0.732,162.543,19.265,-62.792
13003,-0.3374,0.2925,-0.9136,1.038,0.854,-0.793,162.554,19.259,-62.781
13013,-0.3379,0.2871,-0.9175,1.160,0.671,-0.854,162.570,19.254,-62.770
13023,-0.3384,0.2852,-0.9185,0.977,0.549,-0.916,162.587,19.254,-62.759
13033,-0.3384,0.2842,-0.9204,0.427,0.610,-0.916,162.598,19.254,-62.748
13043,-0.3374,0.2871,-0.9185,0.244,0.793,-0.854,162.603,19.248,-62.737
13053,-0.3364,0.2866,-0.9175,0.488,0.854,-0.732,162.609,19.243,-62.726
13063,-0.3374,0.2837,-0.9146,1.160,0.732,-0.610,162.625,19.237,-62.721
13073,-0.3369,0.2856,-0.9150,1.709,0.488,-0.427,162.647,19.237,-62.715
13083,-0.3364,0.2856,-0.9160,2.136,0.549,-0.183,162.669,19.232,-62.710
13093,-0.3364,0.2817,-0.9160,2.197,0.793,0.000,162.691,19.226,-62.710
13103,-0.3359,0.2803,-0.9160,1.709,0.854,-0.061,162.713,19.221,-62.704
13113,-0.3379,0.2861,-0.9180,0.977,0.916,-0.122,162.724,19.215,-62.699
13123,-0.3379,0.2896,-0.9214,0.732,1.099,-0.061,162.729,19.204,-62.699
13133,-0.3364,0.2910,-0.9214,1.038,1.282,-0.061,162.740,19.193,-62.693
13143,-0.3374,0.2915,-0.9185,1.404,1.343,-0.183,162.751,19.182,-62.688
13153,-0.3374,0.2920,-0.9243,1.831,1.038,-0.305,162.768,19.171,-62.677
13163,-0.3350,0.2891,-0.9214,2.014,0.671,-0.366,162.790,19.166,-62.672
13173,-0.3359,0.2891,-0.9185,1.831,0.366,-0.427,162.806,19.166,-62.666
13183,-0.3350,0.2876,-0.9175,1.465,0.183,-0.488,162.823,19.166,-62.661
13193,-0.3364,0.2876,-0.9160,1.282,0.183,-0.610,162.834,19.166,-62.655
13203,-0.3369,0.2856,-0.9160,1.160,0.366,-0.671,162.845,19.166,-62.650
13213,-0.3379,0.2842,-0.9116,1.221,0.610,-0.610,162.861,19.166,-62.639
13223,-0.3389,0.2808,-0.9111,1.221,0.854,-0.549,162.872,19.166,-62.633
13233,-0.3389,0.2817,-0.9082,1.160,0.977,-0.610,162.889,19.160,-62.622
13243,-0.3389,0.2827,-0.9106,1.099,1.160,-0.549,162.900,19.155,-62.611
13253,-0.3369,0.2847,-0.9150,1.343,1.465,-0.488,162.916,19.144,-62.606
13263,-0.3354,0.2827,-0.9141,1.709,1.831,-0.427,162.933,19.133,-62.595
13273,-0.3354,0.2783,-0.9155,1.831,1.892,-0.427,162.955,19.116,-62.584
13283,-0.3359,0.2769,-0.9141,1.587,1.587,-0.427,162.977,19.105,-62.573
13293,-0.3345,0.2812,-0.9170,1.221,1.465,-0.366,162.993,19.094,-62.567
13303,-0.3340,0.2847,-0.9214,1.099,1.709,-0.244,163.004,19.078,-62.567
13313,-0.3325,0.2832,-0.9214,1.343,2.197,-0.244,163.021,19.056,-62.567
13323,-0.3301,0.2832,-0.9302,1.648,2.380,-0.366,163.037,19.034,-62.567
13333,-0.3296,0.2832,-0.9341,1.953,2.197,-0.366,163.065,19.012,-62.567
13343,-0.3296,0.2827,-0.9341,1.953,1.587,-0.244,163.087,18.990,-62.567
13353,-0.3291,0.2793,-0.9326,1.831,0.854,-0.305,163.109,18.979,-62.567
13363,-0.3296,0.2827,-0.9331,1.465,0.305,-0.366,163.125,18.979,-62.567
13373,-0.3291,0.2827,-0.9331,0.977,0.061,-0.549,163.136,18.973,-62.567
13383,-0.3281,0.2793,-0.9302,0.671,0.122,-0.671,163.147,18.973,-62.567
13393,-0.3281,0.2773,-0.9253,0.488,0.183,-0.732,163.158,18.968,-62.567
13403,-0.3306,0.2754,-0.9263,0.488,0.183,-0.732,163.163,18.968,-62.567
13413,-0.3301,0.2734,-0.9214,0.671,-0.061,-0.549,163.180,18.973,-62.567
13423,-0.3315,0.2729,-0.9229,0.916,-0.183,-0.244,163.191,18.973,-62.567
13434,-0.3330,0.2715,-0.9204,1.099,-0.183,0.061,163.207,18.979,-62.567
13443,-0.3354,0.2710,-0.9189,1.282,-0.061,0.244,163.218,18.979,-62.567
13453,-0.3350,0.2720,-0.9170,1.099,0.183,0.305,163.235,18.979,-62.567
13463,-0.3340,0.2725,-0.9150,0.916,0.366,0.366,163.240,18.979,-62.567
13473,-0.3340,0.2744,-0.9175,0.732,0.305,0.366,163.251,18.979,-62.567
13483,-0.3364,0.2759,-0.9199,0.549,0.305,0.366,163.257,18.979,-62.567
13493,-0.3340,0.2773,-0.9224,0.488,0.366,0.427,163.257,18.973,-62.567
13503,-0.3325,0.2783,-0.9248,0.610,0.366,0.427,163.262,18.968,-62.567
13513,-0.3315,0.2812,-0.9248,0.793,0.427,0.549,163.268,18.962,-62.567
13523,-0.3291,0.2803,-0.9287,0.793,0.366,0.549,163.273,18.957,-62.567
13533,-0.3252,0.2817,-0.9297,0.671,0.244,0.488,163.279,18.951,-62.567
13543,-0.3257,0.2808,-0.9302,0.366,0.061,0.488,163.279,18.940,-62.567
13553,-0.3276,0.2842,-0.9253,0.000,-0.183,0.305,163.273,18.940,-62.567
13563,-0.3286,0.2822,-0.9253,-0.488,-0.427,0.122,163.268,18.940,-62.567
13573,-0.3301,0.2852,-0.9258,-0.671,-0.610,0.000,163.257,18.946,-62.567
13583,-0.3325,0.2827,-0.9199,-0.549,-0.610,-0.122,163.246,18.957,-62.567
13593,-0.3320,0.2837,-0.9146,-0.427,-0.610,-0.122,163.235,18.962,-62.567
13603,-0.3340,0.2822,-0.9150,-0.244,-0.610,-0.183,163.229,18.973,-62.567
13613,-0.3345,0.2788,-0.9141,-0.183,-0.610,-0.244,163.229,18.979,-62.567
13623,-0.3364,0.2739,-0.9126,-0.366,-0.427,-0.366,163.224,18.990,-62.567
13633,-0.3379,0.2754,-0.9131,-0.854,-0.183,-0.427,163.218,19.001,-62.567
13643,-0.3379,0.2788,-0.9141,-1.160,0.183,-0.366,163.207,19.001,-62.567
13653,-0.3379,0.2798,-0.9146,-0.916,0.549,-0.305,163.196,19.006,-62.567
13663,-0.3350,0.2793,-0.9141,-0.427,0.671,-0.183,163.191,19.001,-62.567
13673,-0.3345,0.2808,-0.9170,0.061,0.610,-0.122,163.191,18.995,-62.567
13683,-0.3335,0.2812,-0.9224,0.610,0.793,0.000,163.196,18.990,-62.567
13693,-0.3296,0.2798,-0.9248,0.854,1.038,-0.061,163.207,18.979,-62.567
13703,-0.3311,0.2749,-0.9287,0.549,0.977,-0.183,163.218,18.968,-62.567
13713,-0.3311,0.2744,-0.9268,-0.244,0.488,-0.366,163.218,18.968,-62.567
13723,-0.3306,0.2773,-0.9287,-1.160,-0.183,-0.366,163.207,18.968,-62.567
13733,-0.3311,0.2788,-0.9277,-1.587,-0.427,-0.305,163.196,18.973,-62.567
13743,-0.3330,0.2817,-0.9224,-1.404,-0.305,-0.244,163.180,18.973,-62.567
13753,-0.3345,0.2798,-0.9194,-0.854,-0.061,-0.244,163.169,18.979,-62.567
13763,-0.3330,0.2788,-0.9199,-0.305,-0.061,-0.183,163.169,18.979,-62.567
13773,-0.3315,0.2759,-0.9209,0.122,0.000,0.000,163.169,18.984,-62.567
13783,-0.3306,0.2754,-0.9204,0.122,0.122,0.183,163.174,18.979,-62.567
13793,-0.3301,0.2778,-0.9229,-0.183,0.305,0.122,163.169,18.979,-62.567
13803,-0.3311,0.2759,-0.9258,-0.305,0.488,0.122,163.169,18.973,-62.567
13813,-0.3340,0.2798,-0.9268,-0.427,0.549,0.122,163.169,18.968,-62.567
13823,-0.3340,0.2812,-0.9277,-0.610,0.305,0.122,163.158,18.962,-62.567
13833,-0.3340,0.2832,-0.9253,-0.671,-0.183,0.122,163.152,18.968,-62.567
13843,-0.3330,0.2837,-0.9258,-0.671,-0.549,0.244,163.141,18.968,-62.567
13853,-0.3325,0.2837,-0.9219,-0.610,-0.854,0.183,163.130,18.979,-62.567
13863,-0.3325,0.2837,-0.9189,-0.549,-0.916,0.122,163.120,18.990,-62.567
13873,-0.3315,0.2842,-0.9180,-0.305,-0.854,0.122,163.114,18.995,-62.567
13883,-0.3345,0.2832,-0.9160,-0.183,-0.549,0.061,163.109,19.001,-62.567
13893,-0.3340,0.2793,-0.9141,-0.244,-0.366,0.000,163.103,19.006,-62.567
13903,-0.3340,0.2817,-0.9165,-0.427,-0.488,-0.061,163.098,19.017,-62.567
13913,-0.3345,0.2856,-0.9189,-0.610,-0.427,-0.061,163.087,19.023,-62.567
13923,-0.3340,0.2861,-0.9209,-0.488,-0.122,-0.061,163.081,19.023,-62.567
13934,-0.3320,0.2837,-0.9185,-0.305,0.244,-0.061,163.076,19.023,-62.567
13943,-0.3311,0.2827,-0.9229,-0.305,0.122,-0.183,163.070,19.023,-62.567
13953,-0.3330,0.2842,-0.9219,-0.244,0.061,-0.183,163.070,19.023,-62.567
13963,-0.3306,0.2832,-0.9214,-0.305,0.000,-0.122,163.065,19.017,-62.567
13973,-0.3306,0.2837,-0.9233,-0.488,-0.183,-0.183,163.059,19.023,-62.567
13983,-0.3320,0.2861,-0.9292,-0.671,-0.183,-0.366,163.048,19.023,-62.567
13993,-0.3286,0.2866,-0.9307,-0.488,-0.122,-0.366,163.043,19.023,-62.567
14003,-0.3301,0.2822,-0.9272,-0.183,0.000,-0.366,163.043,19.017,-62.567
14013,-0.3301,0.2798,-0.9302,0.000,-0.244,-0.427,163.048,19.023,-62.567
14023,-0.3320,0.2788,-0.9272,0.000,-0.732,-0.366,163.048,19.028,-62.567
14033,-0.3335,0.2769,-0.9243,-0.244,-1.221,-0.244,163.048,19.039,-62.567
14043,-0.3340,0.2788,-0.9219,-0.610,-1.587,-0.122,163.043,19.056,-62.567
14053,-0.3364,0.2817,-0.9155,-0.793,-1.648,-0.122,163.032,19.078,-62.567
14063,-0.3389,0.2808,-0.9111,-0.671,-1.343,-0.061,163.026,19.094,-62.567
14073,-0.3394,0.2788,-0.9087,-0.488,-0.793,-0.061,163.021,19.105,-62.567
14083,-0.3403,0.2788,-0.9004,-0.549,-0.488,0.000,163.010,19.116,-62.567
14093,-0.3408,0.2808,-0.9019,-0.488,-0.244,0.122,163.004,19.127,-62.567
14103,-0.3408,0.2822,-0.9058,-0.183,0.244,0.183,162.999,19.133,-62.567
14113,-0.3394,0.2827,-0.9082,0.244,0.793,0.183,162.999,19.127,-62.567
14123,-0.3374,0.2852,-0.9136,0.427,1.160,0.183,162.999,19.122,-62.567
14133,-0.3359,0.2866,-0.9214,0.549,1.343,0.183,162.999,19.105,-62.567
14143,-0.3350,0.2866,-0.9277,0.610,1.587,0.183,163.004,19.089,-62.567
14153,-0.3330,0.2886,-0.9292,0.488,1.587,0.061,163.010,19.072,-62.567
14163,-0.3330,0.2900,-0.9292,0.244,1.099,-0.183,163.010,19.061,-62.567
14173,-0.3320,0.2920,-0.9312,0.061,0.488,-0.427,163.010,19.056,-62.567
14183,-0.3330,0.2891,-0.9341,0.061,0.000,-0.549,163.010,19.056,-62.567
14193,-0.3301,0.2881,-0.9292,0.122,-0.366,-0.671,163.010,19.056,-62.567
14203,-0.3296,0.2876,-0.9253,0.122,-0.732,-0.854,163.010,19.067,-62.567
14213,-0.3315,0.2842,-0.9243,0.122,-0.916,-0.854,163.010,19.072,-62.567
14223,-0.3350,0.2783,-0.9155,0.061,-1.038,-0.854,163.015,19.089,-62.567
14233,-0.3350,0.2725,-0.9121,-0.183,-1.038,-0.793,163.021,19.105,-62.567
14243,-0.3364,0.2734,-0.9092,-0.488,-0.793,-0.732,163.015,19.116,-62.567
14253,-0.3359,0.2759,-0.9111,-0.610,-0.244,-0.610,163.015,19.127,-62.567
14263,-0.3359,0.2769,-0.9131,-0.305,0.427,-0.427,163.015,19.127,-62.567
14273,-0.3369,0.2769,-0.9126,0.244,1.038,-0.183,163.021,19.116,-62.567
14283,-0.3364,0.2754,-0.9121,0.610,1.160,0.000,163.026,19.111,-62.567
14293,-0.3369,0.2778,-0.9175,0.793,0.977,0.183,163.037,19.105,-62.567
14303,-0.3354,0.2808,-0.9233,0.916,0.793,0.427,163.048,19.094,-62.567
14313,-0.3350,0.2803,-0.9272,0.916,0.916,0.549,163.059,19.083,-62.567
14323,-0.3330,0.2827,-0.9272,0.854,1.038,0.427,163.065,19.072,-62.567
14333,-0.3320,0.2852,-0.9302,0.671,0.854,0.183,163.070,19.061,-62.567
14343,-0.3296,0.2852,-0.9307,0.366,0.427,0.122,163.076,19.056,-62.567
14353,-0.3301,0.2852,-0.9316,0.122,-0.122,0.122,163.070,19.050,-62.567
14363,-0.3320,0.2856,-0.9297,-0.061,-0.610,0.000,163.070,19.056,-62.567
14373,-0.3340,0.2847,-0.9238,-0.122,-0.854,-0.183,163.065,19.067,-62.567
14383,-0.3345,0.2817,-0.9209,-0.305,-0.977,-0.305,163.065,19.078,-62.567
14393,-0.3340,0.2808,-0.9160,-0.488,-0.977,-0.305,163.059,19.089,-62.567
14403,-0.3345,0.2788,-0.9150,-0.610,-0.854,-0.305,163.054,19.100,-62.567
14413,-0.3350,0.2778,-0.9136,-0.488,-0.732,-0.244,163.048,19.105,-62.567
14423,-0.3330,0.2788,-0.9121,-0.305,-0.610,-0.122,163.043,19.116,-62.567
14434,-0.3374,0.2783,-0.9102,-0.122,-0.366,0.000,163.043,19.122,-62.567
14443,-0.3394,0.2808,-0.9111,0.244,0.061,0.244,163.043,19.127,-62.567
14453,-0.3374,0.2817,-0.9141,0.732,0.549,0.366,163.048,19.122,-62.567
14463,-0.3354,0.2788,-0.9116,0.916,0.854,0.366,163.054,19.116,-62.567
14473,-0.3374,0.2817,-0.9160,0.671,0.977,0.305,163.059,19.111,-62.567
14483,-0.3374,0.2832,-0.9199,0.244,1.038,0.244,163.059,19.100,-62.567
14493,-0.3350,0.2832,-0.9194,-0.244,1.038,0.122,163.054,19.094,-62.567
14503,-0.3350,0.2891,-0.9209,-0.427,0.977,-0.061,163.048,19.083,-62.567
14513,-0.3350,0.2891,-0.9224,-0.183,0.916,-0.183,163.043,19.078,-62.567
14523,-0.3340,0.2900,-0.9253,0.244,0.793,-0.244,163.043,19.067,-62.567
14533,-0.3335,0.2871,-0.9268,0.671,0.610,-0.305,163.048,19.061,-62.567
14543,-0.3340,0.2847,-0.9268,0.916,0.366,-0.305,163.059,19.061,-62.567
14553,-0.3340,0.2808,-0.9272,0.732,0.122,-0.427,163.070,19.056,-62.567
14563,-0.3325,0.2812,-0.9277,0.244,-0.122,-0.549,163.070,19.061,-62.567
14573,-0.3330,0.2817,-0.9268,-0.244,-0.183,-0.671,163.070,19.061,-62.567
14583,-0.3340,0.2798,-0.9268,-0.488,-0.183,-0.732,163.070,19.067,-62.567
14593,-0.3345,0.2803,-0.9204,-0.427,-0.244,-0.793,163.070,19.072,-62.567
14603,-0.3335,0.2798,-0.9185,-0.244,-0.488,-0.732,163.070,19.078,-62.567
14613,-0.3320,0.2803,-0.9194,0.000,-0.549,-0.610,163.070,19.089,-62.567
14623,-0.3330,0.2788,-0.9204,0.244,-0.305,-0.366,163.076,19.089,-62.567
14633,-0.3330,0.2778,-0.9224,0.427,0.183,-0.244,163.081,19.089,-62.567
14643,-0.3296,0.2749,-0.9219,0.305,0.549,-0.244,163.087,19.083,-62.567
14653,-0.3296,0.2764,-0.9253,0.061,0.549,-0.183,163.092,19.078,-62.567
14663,-0.3306,0.2754,-0.9263,-0.061,0.244,-0.061,163.098,19.072,-62.567
14673,-0.3325,0.2744,-0.9253,-0.061,-0.183,0.122,163.098,19.072,-62.567
14683,-0.3325,0.2764,-0.9253,-0.061,-0.610,0.305,163.098,19.078,-62.567
14693,-0.3354,0.2793,-0.9219,0.061,-0.793,0.366,163.098,19.083,-62.567
14703,-0.3364,0.2769,-0.9175,0.122,-0.732,0.488,163.098,19.094,-62.567
14713,-0.3359,0.2749,-0.9146,0.000,-0.549,0.488,163.098,19.100,-62.567
14723,-0.3374,0.2769,-0.9087,-0.488,-0.610,0.488,163.092,19.111,-62.567
14733,-0.3389,0.2822,-0.9102,-0.793,-0.549,0.488,163.076,19.116,-62.567
14743,-0.3364,0.2861,-0.9136,-0.610,-0.183,0.610,163.065,19.122,-62.567
14753,-0.3350,0.2876,-0.9155,-0.061,0.366,0.610,163.054,19.116,-62.567
14763,-0.3315,0.2861,-0.9180,0.488,0.732,0.549,163.054,19.105,-62.567
14773,-0.3311,0.2871,-0.9224,0.549,0.732,0.488,163.059,19.094,-62.567
14783,-0.3315,0.2896,-0.9253,0.244,0.488,0.427,163.054,19.089,-62.567
14793,-0.3345,0.2905,-0.9253,-0.183,0.244,0.305,163.048,19.083,-62.567
14803,-0.3340,0.2920,-0.9219,-0.549,0.000,0.122,163.037,19.083,-62.567
14813,-0.3379,0.2910,-0.9238,-0.610,-0.183,-0.305,163.026,19.089,-62.567
14823,-0.3379,0.2910,-0.9233,-0.549,-0.244,-0.610,163.015,19.094,-62.567
14833,-0.3384,0.2886,-0.9219,-0.366,-0.244,-0.671,163.010,19.100,-62.567
14843,-0.3369,0.2856,-0.9214,-0.244,-0.244,-0.671,163.010,19.105,-62.567
14853,-0.3350,0.2852,-0.9189,-0.244,-0.366,-0.732,163.004,19.111,-62.567
14863,-0.3374,0.2837,-0.9175,-0.061,-0.427,-0.732,163.004,19.122,-62.567
14873,-0.3403,0.2812,-0.9146,0.000,-0.427,-0.732,163.004,19.133,-62.567
14883,-0.3394,0.2778,-0.9121,-0.061,-0.366,-0.793,163.004,19.144,-62.567
14893,-0.3398,0.2783,-0.9155,-0.244,-0.122,-0.732,163.010,19.149,-62.567
14903,-0.3374,0.2803,-0.9185,-0.244,0.244,-0.671,163.010,19.149,-62.567
14913,-0.3359,0.2788,-0.9194,0.061,0.488,-0.549,163.010,19.149,-62.567
14923,-0.3340,0.2773,-0.9180,0.366,0.427,-0.488,163.021,19.149,-62.567
14934,-0.3364,0.2759,-0.9175,0.488,0.183,-0.427,163.026,19.149,-62.567
14943,-0.3369,0.2749,-0.9185,0.366,-0.183,-0.183,163.037,19.155,-62.567
14953,-0.3350,0.2764,-0.9180,0.061,-0.305,-0.061,163.037,19.155,-62.567
14963,-0.3359,0.2773,-0.9189,-0.183,-0.183,-0.061,163.037,19.160,-62.567
14973,-0.3364,0.2798,-0.9170,-0.427,0.000,-0.061,163.032,19.160,-62.567
14983,-0.3345,0.2803,-0.9219,-0.488,0.244,0.061,163.032,19.160,-62.567
14993,-0.3330,0.2822,-0.9214,-0.366,0.366,0.183,163.026,19.155,-62.567
15003,-0.3340,0.2812,-0.9233,-0.244,0.427,0.244,163.021,19.149,-62.567
15013,-0.3330,0.2812,-0.9248,-0.122,0.305,0.244,163.021,19.144,-62.567
15023,-0.3320,0.2808,-0.9258,0.061,0.244,0.366,163.021,19.138,-62.567
15033,-0.3315,0.2808,-0.9253,0.061,0.122,0.427,163.021,19.133,-62.567
15043,-0.3325,0.2808,-0.9253,-0.183,-0.122,0.488,163.021,19.133,-62.567
15053,-0.3330,0.2812,-0.9253,-0.305,-0.366,0.610,163.015,19.133,-62.567
15063,-0.3350,0.2827,-0.9214,-0.244,-0.427,0.732,163.010,19.133,-62.567
15073,-0.3345,0.2827,-0.9219,-0.061,-0.488,0.732,163.004,19.138,-62.567
15083,-0.3359,0.2852,-0.9229,-0.061,-0.610,0.610,162.999,19.144,-62.567
15093,-0.3354,0.2847,-0.9199,-0.122,-0.793,0.610,162.993,19.149,-62.567
15103,-0.3369,0.2856,-0.9165,-0.244,-0.854,0.610,162.988,19.155,-62.567
15113,-0.3364,0.2861,-0.9165,-0.366,-0.854,0.549,162.977,19.166,-62.567
15123,-0.3369,0.2891,-0.9175,-0.366,-0.732,0.549,162.966,19.171,-62.567
15133,-0.3389,0.2891,-0.9160,0.000,-0.488,0.488,162.960,19.177,-62.567
15143,-0.3384,0.2866,-0.9165,0.305,-0.183,0.427,162.955,19.182,-62.567
15153,-0.3389,0.2852,-0.9126,0.488,0.000,0.366,162.955,19.182,-62.567
15164,-0.3398,0.2866,-0.9150,0.305,-0.061,0.244,162.955,19.188,-62.567
15174,-0.3384,0.2856,-0.9150,0.122,-0.122,0.183,162.955,19.188,-62.567
15184,-0.3379,0.2881,-0.9165,-0.122,-0.061,0.122,162.949,19.193,-62.567
15193,-0.3359,0.2871,-0.9199,-0.244,0.122,0.000,162.944,19.188,-62.567
15203,-0.3364,0.2861,-0.9189,-0.305,0.427,-0.122,162.938,19.188,-62.567
15213,-0.3335,0.2822,-0.9204,-0.183,0.549,-0.183,162.938,19.182,-62.567
15224,-0.3350,0.2856,-0.9204,-0.183,0.366,-0.244,162.933,19.177,-62.567
15233,-0.3384,0.2881,-0.9224,-0.244,0.000,-0.244,162.933,19.182,-62.567
15244,-0.3374,0.2881,-0.9209,0.061,-0.183,-0.183,162.927,19.182,-62.567
15254,-0.3354,0.2842,-0.9175,0.427,-0.244,-0.183,162.933,19.188,-62.567
15264,-0.3359,0.2822,-0.9150,0.488,-0.305,-0.244,162.938,19.193,-62.567
15274,-0.3354,0.2798,-0.9170,0.122,-0.244,-0.244,162.938,19.199,-62.567
15284,-0.3369,0.2803,-0.9214,-0.366,-0.061,-0.183,162.938,19.199,-62.567
15294,-0.3374,0.2817,-0.9229,-0.671,0.305,-0.183,162.933,19.199,-62.567
15304,-0.3354,0.2812,-0.9209,-0.610,0.427,-0.122,162.927,19.193,-62.567
15314,-0.3359,0.2817,-0.9204,-0.305,0.244,-0.061,162.927,19.193,-62.567
15324,-0.3350,0.2822,-0.9194,0.122,-0.183,0.061,162.927,19.193,-62.567
15334,-0.3364,0.2827,-0.9175,0.549,-0.549,0.244,162.933,19.199,-62.567
15344,-0.3345,0.2808,-0.9155,0.854,-0.549,0.366,162.938,19.204,-62.567
15354,-0.3374,0.2812,-0.9126,0.793,-0.427,0.427,162.944,19.210,-62.567
15364,-0.3389,0.2812,-0.9121,0.549,-0.244,0.366,162.944,19.215,-62.567
15374,-0.3364,0.2803,-0.9126,0.244,-0.122,0.305,162.949,19.215,-62.567
15384,-0.3374,0.2856,-0.9136,-0.061,0.061,0.305,162.944,19.215,-62.567
15394,-0.3369,0.2881,-0.9141,-0.061,0.305,0.305,162.938,19.215,-62.567
15404,-0.3379,0.2842,-0.9121,0.183,0.549,0.244,162.933,19.210,-62.567
15414,-0.3354,0.2822,-0.9141,0.183,0.671,0.244,162.938,19.204,-62.567
15424,-0.3364,0.2817,-0.9141,0.000,0.610,0.244,162.933,19.199,-62.567
15434,-0.3330,0.2871,-0.9185,-0.183,0.671,0.305,162.933,19.193,-62.567
15443,-0.3345,0.2900,-0.9175,0.000,0.977,0.366,162.927,19.182,-62.567
15454,-0.3325,0.2871,-0.9233,0.427,1.343,0.366,162.927,19.166,-62.567
15464,-0.3325,0.2847,-0.9268,0.732,1.343,0.244,162.933,19.149,-62.567
15474,-0.3325,0.2852,-0.9268,0.549,0.916,0.122,162.938,19.138,-62.567
15484,-0.3354,0.2871,-0.9297,0.366,0.488,0.183,162.944,19.133,-62.567
15494,-0.3350,0.2886,-0.9268,0.366,0.244,0.244,162.944,19.127,-62.567
15504,-0.3345,0.2842,-0.9268,0.488,0.000,0.122,162.949,19.127,-62.567
15514,-0.3340,0.2842,-0.9277,0.610,-0.305,0.000,162.955,19.127,-62.567
15524,-0.3350,0.2837,-0.9272,0.671,-0.549,0.000,162.960,19.133,-62.567
15534,-0.3364,0.2808,-0.9238,0.671,-0.671,0.000,162.966,19.138,-62.567
15544,-0.3364,0.2798,-0.9229,0.427,-0.671,0.000,162.971,19.149,-62.567
15554,-0.3374,0.2822,-0.9214,0.122,-0.732,-0.122,162.977,19.155,-62.567
15564,-0.3364,0.2817,-0.9180,0.122,-0.854,-0.061,162.977,19.166,-62.567
15574,-0.3354,0.2808,-0.9150,0.366,-0.793,-0.061,162.977,19.177,-62.567
15584,-0.3369,0.2798,-0.9155,0.610,-0.671,0.061,162.982,19.182,-62.567
15594,-0.3354,0.2793,-0.9165,0.854,-0.549,0.244,162.988,19.188,-62.567
15604,-0.3340,0.2793,-0.9155,1.038,-0.305,0.305,162.999,19.193,-62.567
15614,-0.3350,0.2788,-0.9146,1.099,-0.183,0.427,163.010,19.193,-62.567
15624,-0.3340,0.2812,-0.9150,0.854,-0.061,0.427,163.015,19.193,-62.567
15634,-0.3369,0.2798,-0.9180,0.549,0.122,0.366,163.021,19.193,-62.567
15644,-0.3325,0.2812,-0.9224,0.305,0.122,0.366,163.021,19.188,-62.567
15654,-0.3345,0.2822,-0.9263,0.183,0.183,0.305,163.021,19.188,-62.567
15664,-0.3330,0.2847,-0.9268,0.244,0.183,0.305,163.026,19.182,-62.567
15674,-0.3335,0.2817,-0.9258,0.366,0.061,0.244,163.026,19.177,-62.567
15684,-0.3330,0.2832,-0.9214,0.488,-0.183,0.305,163.032,19.177,-62.567
15694,-0.3350,0.2812,-0.9214,0.427,-0.549,0.244,163.032,19.182,-62.567
15704,-0.3364,0.2803,-0.9214,0.366,-0.854,0.244,163.037,19.188,-62.567
15714,-0.3389,0.2822,-0.9199,0.122,-0.916,0.244,163.032,19.199,-62.567
15724,-0.3384,0.2817,-0.9146,0.000,-0.854,0.122,163.032,19.210,-62.567
15734,-0.3394,0.2861,-0.9141,0.061,-0.793,0.061,163.026,19.221,-62.567
15744,-0.3398,0.2861,-0.9126,0.305,-0.549,0.061,163.026,19.232,-62.567
15754,-0.3413,0.2866,-0.9097,0.671,-0.366,0.061,163.026,19.237,-62.567
15764,-0.3423,0.2856,-0.9102,0.793,-0.122,0.000,163.026,19.243,-62.567
15774,-0.3423,0.2852,-0.9106,0.671,0.244,-0.122,163.032,19.248,-62.567
15784,-0.3403,0.2852,-0.9106,0.305,0.488,-0.244,163.032,19.248,-62.567
15794,-0.3418,0.2856,-0.9111,-0.061,0.793,-0.427,163.026,19.243,-62.567
15804,-0.3403,0.2871,-0.9116,-0.244,1.038,-0.549,163.026,19.237,-62.567
15814,-0.3408,0.2876,-0.9131,-0.122,1.221,-0.610,163.021,19.232,-62.567
15824,-0.3398,0.2900,-0.9165,0.183,1.343,-0.732,163.021,19.226,-62.567
15834,-0.3379,0.2896,-0.9199,0.671,1.343,-0.854,163.026,19.215,-62.567
15844,-0.3374,0.2871,-0.9194,0.793,1.282,-0.977,163.037,19.210,-62.567
15854,-0.3379,0.2866,-0.9194,0.732,1.160,-1.099,163.043,19.199,-62.551
15864,-0.3354,0.2847,-0.9224,0.549,0.977,-1.282,163.054,19.193,-62.534
15874,-0.3340,0.2822,-0.9229,0.244,0.854,-1.343,163.059,19.188,-62.518
15884,-0.3330,0.2817,-0.9229,0.122,0.916,-1.465,163.065,19.182,-62.501
15894,-0.3350,0.2783,-0.9194,0.122,0.916,-1.465,163.076,19.182,-62.485
15904,-0.3340,0.2764,-0.9180,0.183,0.916,-1.465,163.081,19.177,-62.468
15914,-0.3306,0.2725,-0.9199,0.183,0.732,-1.343,163.092,19.171,-62.452
15924,-0.3340,0.2715,-0.9209,0.122,0.793,-1.282,163.103,19.166,-62.435
15934,-0.3340,0.2686,-0.9229,0.000,1.038,-1.099,163.114,19.160,-62.419
15944,-0.3335,0.2690,-0.9238,-0.244,1.160,-0.977,163.125,19.149,-62.408
15954,-0.3311,0.2700,-0.9277,-0.366,1.282,-0.793,163.130,19.138,-62.397
15964,-0.3311,0.2695,-0.9287,-0.183,1.221,-0.488,163.141,19.127,-62.386
15974,-0.3296,0.2710,-0.9268,0.061,1.038,-0.244,163.147,19.116,-62.380
15984,-0.3296,0.2720,-0.9263,0.366,0.610,0.000,163.158,19.105,-62.380
15994,-0.3291,0.2705,-0.9282,0.610,0.244,0.305,163.169,19.100,-62.380
16004,-0.3320,0.2700,-0.9243,0.549,0.061,0.488,163.174,19.100,-62.386
16014,-0.3325,0.2715,-0.9243,0.122,-0.061,0.610,163.180,19.094,-62.391
16024,-0.3315,0.2744,-0.9243,-0.366,-0.061,0.671,163.180,19.094,-62.397
16034,-0.3325,0.2744,-0.9219,-0.793,-0.183,0.793,163.169,19.094,-62.408
16044,-0.3340,0.2754,-0.9209,-0.854,-0.305,0.916,163.158,19.094,-62.419
16054,-0.3354,0.2769,-0.9224,-0.732,-0.305,0.977,163.152,19.094,-62.430
16064,-0.3330,0.2788,-0.9194,-0.427,-0.244,1.038,163.141,19.094,-62.441
16074,-0.3325,0.2803,-0.9194,-0.244,-0.122,1.099,163.136,19.094,-62.452
16084,-0.3320,0.2808,-0.9214,-0.183,0.061,1.160,163.130,19.089,-62.463
16094,-0.3311,0.2827,-0.9214,-0.366,0.244,1.160,163.120,19.083,-62.474
16104,-0.3340,0.2847,-0.9194,-0.732,0.244,1.038,163.103,19.078,-62.485
16114,-0.3345,0.2871,-0.9219,-1.038,0.244,0.977,163.087,19.072,-62.496
16124,-0.3364,0.2905,-0.9229,-1.160,0.183,0.793,163.070,19.067,-62.501
16134,-0.3379,0.2930,-0.9204,-0.916,0.122,0.671,163.048,19.067,-62.507
16144,-0.3394,0.2949,-0.9214,-0.549,0.061,0.427,163.037,19.067,-62.512
16154,-0.3369,0.2925,-0.9141,-0.366,-0.061,0.183,163.026,19.072,-62.512
16164,-0.3374,0.2925,-0.9165,-0.366,-0.244,0.061,163.010,19.078,-62.512
16174,-0.3384,0.2910,-0.9150,-0.549,-0.183,-0.122,162.999,19.083,-62.512
16184,-0.3384,0.2896,-0.9111,-0.793,0.000,-0.488,162.988,19.089,-62.507
16194,-0.3394,0.2876,-0.9106,-0.977,0.244,-0.732,162.977,19.089,-62.501
16204,-0.3374,0.2886,-0.9097,-0.916,0.427,-0.854,162.966,19.094,-62.490
16214,-0.3374,0.2871,-0.9146,-0.610,0.610,-0.854,162.960,19.094,-62.479
16224,-0.3364,0.2842,-0.9116,-0.122,0.671,-0.854,162.955,19.094,-62.468
16234,-0.3354,0.2817,-0.9131,0.244,0.671,-0.793,162.960,19.089,-62.457
16244,-0.3364,0.2812,-0.9165,0.305,0.793,-0.793,162.966,19.089,-62.446
16254,-0.3345,0.2783,-0.9194,0.061,1.038,-0.732,162.971,19.083,-62.441
16264,-0.3325,0.2808,-0.9199,-0.244,1.221,-0.793,162.977,19.072,-62.424
16274,-0.3315,0.2803,-0.9248,-0.549,1.282,-0.854,162.977,19.061,-62.413
16284,-0.3330,0.2808,-0.9277,-0.427,1.160,-0.793,162.977,19.050,-62.402
16294,-0.3296,0.2808,-0.9292,0.122,0.977,-0.671,162.982,19.039,-62.391
16304,-0.3296,0.2773,-0.9282,0.549,0.854,-0.549,162.993,19.034,-62.386
16314,-0.3301,0.2734,-0.9258,0.549,0.549,-0.427,163.010,19.028,-62.380
16324,-0.3311,0.2764,-0.9287,0.122,0.183,-0.305,163.015,19.023,-62.375
16334,-0.3291,0.2754,-0.9253,-0.183,0.061,-0.122,163.015,19.023,-62.375
16344,-0.3306,0.2734,-0.9253,-0.305,0.000,0.000,163.021,19.023,-62.375
16354,-0.3306,0.2749,-0.9189,-0.244,0.000,0.122,163.021,19.023,-62.375
16364,-0.3315,0.2769,-0.9199,-0.122,-0.183,0.244,163.021,19.023,-62.375
16374,-0.3320,0.2759,-0.9165,0.488,0.061,0.793,163.026,19.023,-62.386
16384,-0.3320,0.2734,-0.9141,0.549,0.183,0.854,163.032,19.017,-62.391
16394,-0.3330,0.2759,-0.9160,0.244,0.244,0.916,163.032,19.017,-62.402
16404,-0.3315,0.2817,-0.9209,-0.061,0.427,1.038,163.026,19.006,-62.413
16414,-0.3311,0.2817,-0.9219,0.061,0.732,1.221,163.026,18.995,-62.419
16424,-0.3311,0.2812,-0.9204,0.183,0.916,1.099,163.026,18.984,-62.430
16435,-0.3325,0.2827,-0.9180,0.061,0.671,0.977,163.021,18.979,-62.435
16444,-0.3335,0.2866,-0.9219,-0.305,0.305,0.977,163.015,18.973,-62.446
16454,-0.3335,0.2905,-0.9229,-0.488,0.427,0.977,162.999,18.968,-62.457
16464,-0.3306,0.2915,-0.9233,-0.366,0.793,0.854,162.988,18.951,-62.463
16474,-0.3311,0.2939,-0.9243,0.000,1.099,0.549,162.982,18.940,-62.463
16484,-0.3306,0.2930,-0.9272,0.366,0.916,0.305,162.982,18.929,-62.463
16494,-0.3306,0.2915,-0.9263,0.488,0.427,0.183,162.982,18.924,-62.463
16504,-0.3315,0.2905,-0.9253,0.183,0.000,0.061,162.977,18.924,-62.463
16514,-0.3320,0.2925,-0.9219,-0.244,-0.366,-0.183,162.971,18.929,-62.463
16524,-0.3320,0.2939,-0.9209,-0.366,-0.366,-0.488,162.960,18.935,-62.457
16534,-0.3320,0.2920,-0.9219,-0.061,-0.061,-0.732,162.955,18.935,-62.452
16544,-0.3340,0.2866,-0.9238,0.366,0.183,-0.916,162.960,18.940,-62.441
16554,-0.3315,0.2856,-0.9243,0.549,0.244,-1.038,162.971,18.940,-62.430
16564,-0.3301,0.2822,-0.9258,0.549,-0.061,-1.038,162.977,18.940,-62.419
16574,-0.3315,0.2798,-0.9233,0.305,-0.427,-1.038,162.988,18.946,-62.413
16584,-0.3311,0.2769,-0.9248,-0.061,-0.671,-1.038,162.993,18.957,-62.402
16594,-0.3291,0.2778,-0.9238,-0.183,-0.671,-0.977,162.993,18.968,-62.397
16604,-0.3296,0.2754,-0.9175,0.000,-0.427,-0.854,162.999,18.973,-62.386
16614,-0.3320,0.2725,-0.9126,0.183,-0.305,-0.671,163.010,18.979,-62.380
16624,-0.3335,0.2729,-0.9150,0.183,-0.427,-0.488,163.015,18.990,-62.380
16634,-0.3350,0.2734,-0.9136,0.305,-0.305,-0.183,163.021,18.995,-62.380
16644,-0.3359,0.2734,-0.9146,0.366,0.000,0.061,163.026,19.001,-62.380
16654,-0.3369,0.2715,-0.9136,0.244,0.244,0.183,163.037,19.001,-62.380
16664,-0.3335,0.2759,-0.9194,0.183,0.305,0.305,163.037,19.001,-62.380
16674,-0.3345,0.2773,-0.9209,0.366,0.366,0.488,163.043,18.995,-62.386
16684,-0.3320,0.2773,-0.9204,0.488,0.488,0.671,163.048,18.990,-62.391
16694,-0.3320,0.2783,-0.9229,0.549,0.549,0.610,163.054,18.984,-62.397
16704,-0.3320,0.2793,-0.9253,0.305,0.305,0.549,163.059,18.979,-62.402
