elapsed_ms,acc_x_g,acc_y_g,acc_z_g,gyro_x_dps,gyro_y_dps,gyro_z_dps,angle_x_deg,angle_y_deg,angle_z_deg
0,-0.0933,0.4360,-0.9194,1.404,0.977,0.488,154.188,5.422,-88.467
10,-0.0952,0.4375,-0.9194,0.977,0.610,0.366,154.204,5.416,-88.467
20,-0.0977,0.4390,-0.9194,0.488,0.305,0.244,154.210,5.411,-88.467
30,-0.1021,0.4365,-0.9180,0.244,0.061,0.183,154.215,5.416,-88.467
40,-0.1074,0.4351,-0.9175,0.122,0.061,0.244,154.221,5.422,-88.473
50,-0.1108,0.4316,-0.9150,0.183,0.122,0.427,154.226,5.427,-88.473
60,-0.1118,0.4316,-0.9131,0.000,-0.183,0.610,154.232,5.433,-88.478
70,-0.1162,0.4355,-0.9077,-0.305,-0.671,0.854,154.226,5.444,-88.489
80,-0.1182,0.4404,-0.9019,-0.671,-1.038,1.099,154.215,5.466,-88.506
90,-0.1162,0.4482,-0.9014,-0.671,-0.854,1.221,154.204,5.477,-88.522
100,-0.1133,0.4546,-0.9019,-0.305,-0.305,1.160,154.188,5.482,-88.533
110,-0.1079,0.4561,-0.9009,0.000,0.305,0.854,154.177,5.482,-88.539
120,-0.1040,0.4561,-0.8999,-0.122,0.732,0.427,154.166,5.482,-88.539
130,-0.1006,0.4585,-0.9009,-0.488,0.977,0.061,154.149,5.471,-88.539
140,-0.1006,0.4595,-0.9019,-0.977,1.038,-0.244,154.133,5.466,-88.528
150,-0.0977,0.4575,-0.9014,-1.160,1.221,-0.549,154.111,5.460,-88.517
160,-0.1006,0.4570,-0.9067,-0.854,1.587,-0.793,154.094,5.449,-88.506
170,-0.1016,0.4561,-0.9082,-0.244,2.075,-0.977,154.083,5.438,-88.489
180,-0.0986,0.4497,-0.9106,0.427,2.441,-1.221,154.089,5.422,-88.467
190,-0.0933,0.4429,-0.9150,0.854,2.625,-1.465,154.100,5.405,-88.440
200,-0.0884,0.4395,-0.9204,0.732,2.625,-1.526,154.111,5.383,-88.418
210,-0.0820,0.4351,-0.9233,0.549,2.686,-1.404,154.127,5.356,-88.391
220,-0.0801,0.4316,-0.9238,0.183,2.502,-1.160,154.138,5.328,-88.369
230,-0.0776,0.4307,-0.9238,0.000,1.892,-0.977,154.149,5.306,-88.352
240,-0.0781,0.4312,-0.9238,0.122,1.404,-0.732,154.160,5.290,-88.341
250,-0.0776,0.4302,-0.9272,0.244,1.038,-0.488,154.171,5.273,-88.330
260,-0.0757,0.4277,-0.9272,0.488,0.916,-0.305,154.188,5.257,-88.325
270,-0.0767,0.4263,-0.9272,0.610,1.099,-0.183,154.204,5.235,-88.319
280,-0.0771,0.4253,-0.9268,0.549,1.160,0.000,154.226,5.219,-88.314
290,-0.0762,0.4263,-0.9312,0.305,0.977,0.244,154.237,5.197,-88.308
300,-0.0791,0.4277,-0.9326,0.061,0.549,0.549,154.248,5.186,-88.314
310,-0.0806,0.4302,-0.9287,-0.061,-0.061,0.977,154.259,5.175,-88.319
320,-0.0850,0.4346,-0.9248,0.000,-0.793,1.282,154.265,5.169,-88.336
330,-0.0898,0.4375,-0.9180,0.000,-1.404,1.404,154.265,5.175,-88.358
340,-0.0918,0.4399,-0.9180,-0.061,-1.770,1.404,154.265,5.186,-88.374
350,-0.0942,0.4438,-0.9170,-0.366,-1.831,1.282,154.254,5.197,-88.396
360,-0.0977,0.4478,-0.9111,-0.732,-1.770,1.160,154.243,5.213,-88.412
370,-0.0977,0.4507,-0.9072,-0.916,-1.831,0.977,154.226,5.224,-88.429
380,-0.1011,0.4521,-0.9028,-0.854,-1.831,0.854,154.210,5.240,-88.445
390,-0.1035,0.4521,-0.9048,-0.427,-1.587,0.671,154.193,5.262,-88.462
400,-0.1035,0.4531,-0.9067,0.000,-0.977,0.427,154.188,5.273,-88.467
410,-0.1025,0.4541,-0.9097,0.183,-0.305,0.244,154.182,5.279,-88.473
420,-0.1016,0.4517,-0.9102,0.122,0.000,0.000,154.177,5.284,-88.473
430,-0.0986,0.4502,-0.9106,-0.061,0.000,-0.244,154.171,5.290,-88.467
440,-0.0981,0.4507,-0.9126,-0.122,-0.244,-0.549,154.166,5.295,-88.467
450,-0.1025,0.4497,-0.9111,-0.183,-0.305,-0.732,154.160,5.306,-88.462
460,-0.1025,0.4448,-0.9131,-0.061,0.000,-0.854,154.160,5.312,-88.451
470,-0.1006,0.4414,-0.9102,0.000,0.305,-0.916,154.160,5.317,-88.440
480,-0.1001,0.4395,-0.9092,-0.122,0.427,-0.793,154.160,5.323,-88.434
490,-0.0991,0.4414,-0.9067,-0.183,0.183,-0.732,154.155,5.323,-88.423
500,-0.0981,0.4390,-0.9087,-0.061,0.000,-0.732,154.155,5.328,-88.418
510,-0.0986,0.4375,-0.9082,0.061,0.183,-0.732,154.160,5.334,-88.412
520,-0.0996,0.4365,-0.9072,0.000,0.427,-0.732,154.160,5.339,-88.401
530,-0.0972,0.4351,-0.9043,-0.183,0.671,-0.732,154.160,5.334,-88.396
540,-0.0981,0.4331,-0.9058,-0.427,0.732,-0.671,154.160,5.334,-88.385
550,-0.0981,0.4365,-0.9102,-0.488,0.732,-0.549,154.160,5.334,-88.374
560,-0.0962,0.4399,-0.9102,-0.366,0.916,-0.427,154.155,5.328,-88.369
570,-0.0937,0.4429,-0.9146,0.122,1.099,-0.244,154.160,5.317,-88.363
580,-0.0923,0.4409,-0.9170,0.610,1.343,-0.183,154.166,5.306,-88.352
590,-0.0928,0.4370,-0.9219,0.671,1.343,-0.244,154.177,5.295,-88.347
600,-0.0933,0.4385,-0.9209,0.366,1.221,-0.305,154.188,5.284,-88.336
610,-0.0898,0.4409,-0.9214,-0.244,0.916,-0.244,154.188,5.273,-88.330
620,-0.0869,0.4473,-0.9229,-0.427,0.671,-0.244,154.182,5.262,-88.325
630,-0.0884,0.4468,-0.9253,-0.061,0.488,-0.305,154.182,5.257,-88.319
640,-0.0879,0.4434,-0.9248,0.366,0.366,-0.488,154.188,5.251,-88.314
650,-0.0894,0.4424,-0.9233,0.427,0.122,-0.610,154.199,5.251,-88.308
660,-0.0884,0.4390,-0.9238,0.183,-0.061,-0.549,154.204,5.251,-88.303
670,-0.0850,0.4375,-0.9243,0.061,-0.305,-0.427,154.210,5.251,-88.303
680,-0.0845,0.4355,-0.9224,0.000,-0.610,-0.305,154.215,5.251,-88.303
690,-0.0879,0.4326,-0.9214,0.122,-1.038,-0.305,154.221,5.262,-88.303
700,-0.0923,0.4336,-0.9204,0.000,-1.404,-0.183,154.226,5.273,-88.308
710,-0.0913,0.4346,-0.9175,-0.183,-1.465,0.122,154.226,5.284,-88.314
720,-0.0913,0.4355,-0.9121,-0.183,-1.404,0.427,154.226,5.295,-88.325
730,-0.0898,0.4365,-0.9082,0.061,-1.282,0.610,154.226,5.301,-88.336
740,-0.0903,0.4375,-0.9087,0.488,-1.160,0.732,154.232,5.306,-88.347
750,-0.0923,0.4380,-0.9072,0.732,-0.854,0.793,154.237,5.312,-88.358
760,-0.0952,0.4385,-0.9053,0.549,-0.549,0.732,154.243,5.312,-88.369
770,-0.0947,0.4419,-0.9058,0.305,-0.244,0.732,154.243,5.312,-88.374
780,-0.0986,0.4419,-0.9063,0.183,0.061,0.793,154.243,5.312,-88.385
790,-0.1001,0.4429,-0.9092,0.427,0.305,0.732,154.243,5.306,-88.391
800,-0.0991,0.4424,-0.9141,0.732,0.427,0.610,154.248,5.306,-88.391
810,-0.1006,0.4434,-0.9131,0.854,0.549,0.610,154.254,5.301,-88.396
820,-0.0996,0.4429,-0.9165,0.854,0.549,0.610,154.265,5.295,-88.396
830,-0.0977,0.4424,-0.9165,0.732,0.427,0.488,154.270,5.290,-88.401
840,-0.0977,0.4429,-0.9189,0.549,0.061,0.366,154.276,5.290,-88.401
850,-0.0972,0.4438,-0.9194,0.366,-0.244,0.305,154.276,5.295,-88.407
860,-0.0986,0.4468,-0.9136,0.122,-0.366,0.244,154.276,5.295,-88.412
870,-0.1001,0.4468,-0.9111,0.061,-0.366,0.244,154.270,5.301,-88.418
880,-0.1006,0.4487,-0.9102,0.061,-0.366,0.061,154.265,5.312,-88.418
890,-0.0977,0.4492,-0.9082,0.122,-0.305,-0.061,154.265,5.317,-88.418
900,-0.0967,0.4478,-0.9082,0.366,-0.122,-0.183,154.259,5.317,-88.418
910,-0.0962,0.4458,-0.9087,0.488,0.122,-0.427,154.265,5.317,-88.412
920,-0.0972,0.4429,-0.9048,0.366,0.061,-0.671,154.265,5.323,-88.407
930,-0.1001,0.4390,-0.9082,0.244,0.061,-0.671,154.265,5.328,-88.401
940,-0.1001,0.4390,-0.9053,0.183,0.122,-0.610,154.265,5.334,-88.396
950,-0.0996,0.4380,-0.9106,0.366,0.610,-0.549,154.270,5.334,-88.385
960,-0.0986,0.4375,-0.9092,0.488,1.160,-0.427,154.276,5.328,-88.380
970,-0.0977,0.4346,-0.9106,0.610,1.526,-0.366,154.286,5.317,-88.369
980,-0.0928,0.4380,-0.9146,0.610,1.587,-0.244,154.292,5.306,-88.358
990,-0.0923,0.4409,-0.9214,0.488,1.282,-0.244,154.303,5.295,-88.352
1000,-0.0903,0.4424,-0.9219,0.427,0.977,-0.183,154.308,5.284,-88.347
1010,-0.0884,0.4409,-0.9233,0.366,0.732,-0.183,154.314,5.273,-88.341
1020,-0.0898,0.4404,-0.9268,0.244,0.610,-0.183,154.319,5.268,-88.336
1030,-0.0894,0.4399,-0.9272,-0.061,0.488,-0.244,154.319,5.262,-88.330
1040,-0.0874,0.4409,-0.9243,-0.244,0.244,-0.244,154.319,5.257,-88.330
1050,-0.0859,0.4414,-0.9238,-0.305,-0.122,-0.305,154.319,5.251,-88.325
1060,-0.0854,0.4424,-0.9229,-0.244,-0.488,-0.427,154.319,5.251,-88.325
1070,-0.0869,0.4385,-0.9248,-0.061,-0.671,-0.488,154.319,5.257,-88.325
1080,-0.0869,0.4355,-0.9219,0.061,-0.732,-0.549,154.325,5.262,-88.319
1090,-0.0884,0.4321,-0.9189,-0.061,-0.793,-0.610,154.330,5.268,-88.319
1100,-0.0894,0.4312,-0.9165,-0.122,-0.854,-0.427,154.330,5.279,-88.319
1110,-0.0908,0.4292,-0.9121,0.000,-0.916,-0.183,154.336,5.284,-88.319
1120,-0.0898,0.4292,-0.9131,0.366,-0.854,0.122,154.347,5.290,-88.325
1130,-0.0913,0.4312,-0.9111,0.671,-0.671,0.305,154.352,5.295,-88.330
1140,-0.0933,0.4336,-0.9097,0.916,-0.427,0.488,154.363,5.295,-88.336
1150,-0.0947,0.4321,-0.9092,0.854,-0.122,0.610,154.374,5.295,-88.341
1160,-0.0947,0.4312,-0.9082,0.671,0.122,0.671,154.380,5.290,-88.347
1170,-0.0991,0.4326,-0.9077,0.427,0.183,0.732,154.385,5.290,-88.358
1180,-0.1016,0.4326,-0.9072,0.427,0.244,0.732,154.391,5.290,-88.363
1190,-0.1011,0.4375,-0.9097,0.549,0.305,0.793,154.396,5.290,-88.369
1200,-0.1001,0.4370,-0.9116,0.793,0.366,0.916,154.402,5.284,-88.374
1210,-0.0972,0.4409,-0.9126,1.038,0.305,0.916,154.413,5.279,-88.380
1220,-0.0986,0.4414,-0.9141,1.038,0.244,0.793,154.418,5.279,-88.385
1230,-0.1011,0.4443,-0.9165,0.732,0.122,0.671,154.424,5.279,-88.391
1240,-0.1045,0.4438,-0.9155,0.244,0.061,0.366,154.424,5.279,-88.396
1250,-0.1006,0.4482,-0.9155,-0.244,0.183,0.183,154.413,5.279,-88.396
1260,-0.0991,0.4497,-0.9165,-0.427,0.305,0.000,154.407,5.279,-88.396
1270,-0.0972,0.4507,-0.9175,-0.183,0.183,-0.183,154.396,5.279,-88.391
1280,-0.0947,0.4478,-0.9189,0.061,0.000,-0.366,154.396,5.284,-88.391
1290,-0.0957,0.4458,-0.9165,0.000,-0.244,-0.488,154.391,5.290,-88.385
1300,-0.0962,0.4438,-0.9146,-0.122,-0.427,-0.549,154.385,5.295,-88.380
1310,-0.0967,0.4419,-0.9136,-0.366,-0.427,-0.610,154.385,5.301,-88.380
1320,-0.0977,0.4414,-0.9102,-0.549,-0.305,-0.610,154.374,5.312,-88.374
1330,-0.0957,0.4399,-0.9102,-0.549,-0.122,-0.610,154.369,5.317,-88.369
1340,-0.0962,0.4390,-0.9106,-0.244,-0.061,-0.549,154.363,5.317,-88.363
1350,-0.0972,0.4365,-0.9126,-0.122,-0.061,-0.549,154.363,5.323,-88.358
1360,-0.0967,0.4351,-0.9136,0.061,0.183,-0.549,154.369,5.328,-88.358
1370,-0.0947,0.4351,-0.9136,0.000,0.427,-0.488,154.369,5.323,-88.358
1380,-0.0918,0.4326,-0.9136,0.000,0.610,-0.427,154.374,5.317,-88.358
1390,-0.0918,0.4351,-0.9121,0.122,0.610,-0.305,154.374,5.312,-88.358
1400,-0.0918,0.4331,-0.9170,0.183,0.732,-0.122,154.380,5.306,-88.358
1410,-0.0894,0.4326,-0.9155,0.183,0.793,0.000,154.385,5.295,-88.358
1420,-0.0918,0.4360,-0.9180,0.122,0.671,0.061,154.391,5.290,-88.358
1430,-0.0898,0.4385,-0.9194,0.061,0.488,0.000,154.391,5.284,-88.358
1440,-0.0903,0.4409,-0.9214,0.061,0.305,0.000,154.396,5.279,-88.358
1450,-0.0908,0.4395,-0.9189,0.122,0.366,-0.061,154.396,5.273,-88.358
1460,-0.0918,0.4404,-0.9214,0.183,0.427,-0.183,154.396,5.268,-88.358
1470,-0.0913,0.4395,-0.9199,0.244,0.488,-0.183,154.402,5.262,-88.358
1480,-0.0889,0.4395,-0.9194,0.244,0.427,-0.183,154.407,5.257,-88.358
1490,-0.0903,0.4404,-0.9170,0.244,0.122,-0.122,154.407,5.257,-88.358
1500,-0.0894,0.4385,-0.9160,0.366,-0.244,-0.244,154.413,5.257,-88.358
1510,-0.0928,0.4375,-0.9165,0.427,-0.366,-0.366,154.418,5.262,-88.358
1520,-0.0972,0.4370,-0.9146,0.305,-0.183,-0.488,154.418,5.268,-88.358
1530,-0.0952,0.4404,-0.9180,0.122,0.244,-0.610,154.418,5.268,-88.358
1540,-0.0918,0.4395,-0.9189,0.000,0.610,-0.610,154.424,5.262,-88.358
1550,-0.0884,0.4365,-0.9214,0.183,0.916,-0.610,154.429,5.257,-88.358
1560,-0.0874,0.4307,-0.9224,0.610,0.854,-0.610,154.440,5.246,-88.358
1570,-0.0913,0.4253,-0.9204,0.610,0.427,-0.549,154.451,5.246,-88.358
1580,-0.0937,0.4214,-0.9185,0.366,-0.122,-0.366,154.468,5.246,-88.358
1590,-0.0967,0.4233,-0.9165,0.061,-0.488,-0.061,154.473,5.251,-88.358
1600,-0.0972,0.4272,-0.9160,-0.061,-0.488,0.183,154.479,5.262,-88.358
1610,-0.0981,0.4302,-0.9155,0.122,-0.305,0.366,154.484,5.262,-88.358
1620,-0.0957,0.4316,-0.9155,0.305,-0.305,0.427,154.490,5.268,-88.358
1630,-0.0952,0.4312,-0.9155,0.366,-0.366,0.488,154.495,5.268,-88.358
1640,-0.0957,0.4331,-0.9170,0.122,-0.366,0.488,154.495,5.268,-88.358
1650,-0.0957,0.4355,-0.9165,-0.244,-0.427,0.427,154.495,5.273,-88.358
1660,-0.0957,0.4399,-0.9180,-0.427,-0.427,0.427,154.490,5.279,-88.358
1670,-0.0967,0.4395,-0.9160,-0.305,-0.305,0.427,154.484,5.279,-88.358
1680,-0.1001,0.4385,-0.9170,-0.244,-0.244,0.366,154.479,5.284,-88.358
1690,-0.1025,0.4390,-0.9131,-0.244,-0.366,0.305,154.479,5.290,-88.358
1700,-0.1040,0.4395,-0.9126,-0.366,-0.732,0.305,154.473,5.301,-88.358
1710,-0.1055,0.4414,-0.9111,-0.549,-1.099,0.244,154.462,5.317,-88.358
1720,-0.1074,0.4453,-0.9072,-0.671,-1.160,0.122,154.446,5.334,-88.358
1730,-0.1079,0.4448,-0.9077,-0.549,-0.793,-0.122,154.435,5.350,-88.358
1740,-0.1040,0.4429,-0.9077,-0.183,-0.122,-0.305,154.429,5.356,-88.358
1750,-0.0996,0.4419,-0.9097,0.061,0.427,-0.427,154.429,5.356,-88.358
1760,-0.0981,0.4429,-0.9121,0.061,0.793,-0.427,154.424,5.356,-88.358
1770,-0.0947,0.4419,-0.9141,-0.061,0.854,-0.366,154.424,5.345,-88.358
1780,-0.0937,0.4424,-0.9155,-0.244,0.793,-0.366,154.418,5.339,-88.358
1790,-0.0933,0.4443,-0.9170,-0.244,0.671,-0.488,154.418,5.334,-88.358
1800,-0.0967,0.4438,-0.9180,-0.244,0.427,-0.671,154.413,5.334,-88.358
1810,-0.0962,0.4429,-0.9185,-0.366,0.183,-0.854,154.407,5.339,-88.358
1820,-0.0937,0.4429,-0.9199,-0.671,0.000,-0.977,154.402,5.339,-88.358
1830,-0.0942,0.4419,-0.9204,-0.916,-0.122,-0.977,154.391,5.345,-88.358
1840,-0.0918,0.4395,-0.9189,-1.038,-0.183,-0.977,154.380,5.350,-88.358
1850,-0.0918,0.4399,-0.9189,-0.916,-0.183,-0.916,154.374,5.356,-88.358
1860,-0.0908,0.4370,-0.9146,-0.732,-0.244,-0.916,154.369,5.356,-88.358
1870,-0.0942,0.4370,-0.9150,-0.732,-0.183,-0.854,154.363,5.361,-88.358
1880,-0.0957,0.4365,-0.9136,-0.793,-0.305,-0.916,154.358,5.367,-88.358
1890,-0.0942,0.4341,-0.9126,-0.610,-0.183,-0.854,154.352,5.372,-88.358
1900,-0.0928,0.4341,-0.9146,-0.366,0.122,-0.732,154.352,5.372,-88.358
1912,-0.0894,0.4355,-0.9102,-0.183,0.427,-0.549,154.352,5.372,-88.358
1920,-0.0869,0.4370,-0.9121,-0.061,0.488,-0.305,154.352,5.361,-88.358
1930,-0.0874,0.4395,-0.9126,0.122,0.427,-0.244,154.352,5.356,-88.358
1940,-0.0884,0.4409,-0.9160,0.244,0.427,-0.244,154.358,5.350,-88.358
1950,-0.0898,0.4404,-0.9170,0.427,0.610,-0.305,154.358,5.339,-88.358
1960,-0.0879,0.4370,-0.9180,0.549,0.854,-0.427,154.369,5.334,-88.358
1970,-0.0889,0.4312,-0.9189,0.488,1.038,-0.488,154.380,5.323,-88.358
1980,-0.0908,0.4312,-0.9204,0.244,0.977,-0.488,154.385,5.312,-88.358
1990,-0.0933,0.4312,-0.9189,-0.061,0.854,-0.244,154.391,5.306,-88.358
2000,-0.0957,0.4321,-0.9170,0.000,0.671,0.061,154.396,5.301,-88.358
2010,-0.0957,0.4316,-0.9175,0.305,0.488,0.305,154.402,5.295,-88.358
2020,-0.0952,0.4292,-0.9180,0.610,0.305,0.488,154.413,5.290,-88.358
2030,-0.0967,0.4302,-0.9204,0.610,0.122,0.610,154.424,5.290,-88.358
2040,-0.0952,0.4307,-0.9185,0.427,0.061,0.793,154.435,5.284,-88.358
2050,-0.0952,0.4316,-0.9165,0.122,0.183,0.854,154.435,5.279,-88.358
2060,-0.0967,0.4375,-0.9141,-0.061,0.122,0.854,154.435,5.279,-88.358
2070,-0.0952,0.4419,-0.9126,-0.122,0.122,0.854,154.429,5.273,-88.358
2080,-0.0967,0.4424,-0.9146,0.000,0.122,0.854,154.429,5.273,-88.358
2090,-0.0972,0.4434,-0.9131,0.000,0.183,0.732,154.424,5.268,-88.358
2100,-0.0962,0.4443,-0.9116,-0.183,0.244,0.549,154.418,5.262,-88.358
2110,-0.0986,0.4458,-0.9126,-0.366,0.244,0.244,154.407,5.262,-88.358
2120,-0.0981,0.4434,-0.9146,-0.366,0.427,-0.061,154.402,5.262,-88.358
2130,-0.0991,0.4478,-0.9126,-0.366,0.427,-0.244,154.396,5.262,-88.358
2140,-0.0952,0.4453,-0.9141,-0.244,0.427,-0.366,154.391,5.262,-88.358
2150,-0.0942,0.4438,-0.9146,-0.061,0.366,-0.427,154.385,5.262,-88.358
2160,-0.0947,0.4404,-0.9131,-0.122,0.305,-0.488,154.385,5.262,-88.358
2170,-0.0947,0.4419,-0.9131,-0.427,0.244,-0.610,154.380,5.262,-88.358
2180,-0.0962,0.4390,-0.9136,-0.549,0.366,-0.671,154.374,5.262,-88.358
2190,-0.0937,0.4375,-0.9146,-0.610,0.671,-0.732,154.369,5.262,-88.358
2200,-0.0933,0.4331,-0.9180,-0.488,0.793,-0.793,154.369,5.257,-88.358
2210,-0.0952,0.4307,-0.9175,-0.305,0.671,-0.793,154.369,5.257,-88.358
2220,-0.0928,0.4272,-0.9180,-0.366,0.305,-0.671,154.374,5.257,-88.358
2230,-0.0947,0.4277,-0.9180,-0.488,-0.061,-0.488,154.374,5.257,-88.358
2240,-0.0928,0.4292,-0.9185,-0.610,-0.183,-0.305,154.374,5.262,-88.358
2250,-0.0928,0.4297,-0.9165,-0.549,-0.183,-0.183,154.374,5.262,-88.358
2260,-0.0908,0.4312,-0.9160,-0.366,0.061,-0.061,154.374,5.262,-88.358
2270,-0.0903,0.4287,-0.9180,-0.366,0.122,0.000,154.380,5.257,-88.358
2280,-0.0923,0.4312,-0.9194,-0.610,0.122,0.061,154.380,5.257,-88.358
2290,-0.0942,0.4346,-0.9209,-0.732,0.000,0.183,154.374,5.257,-88.358
2300,-0.0942,0.4419,-0.9199,-0.732,-0.122,0.305,154.369,5.257,-88.358
2310,-0.0884,0.4414,-0.9233,-0.244,0.183,0.427,154.363,5.251,-88.358
2320,-0.0859,0.4370,-0.9219,0.122,0.305,0.488,154.369,5.240,-88.358
2330,-0.0923,0.4321,-0.9155,-0.244,0.000,0.488,154.369,5.240,-88.358
2340,-0.0986,0.4331,-0.9141,-0.977,-0.671,0.427,154.363,5.246,-88.358
2350,-0.1001,0.4404,-0.9111,-1.709,-1.404,0.549,154.341,5.262,-88.358
2360,-0.0981,0.4468,-0.9097,-1.526,-1.465,0.671,154.319,5.273,-88.358
2370,-0.0942,0.4473,-0.9063,-0.488,-0.977,0.610,154.308,5.279,-88.358
2380,-0.0928,0.4409,-0.9077,0.610,-0.061,0.427,154.314,5.279,-88.358
2390,-0.0923,0.4365,-0.9072,0.977,0.610,0.305,154.319,5.273,-88.358
2400,-0.0937,0.4355,-0.9102,0.427,0.793,0.366,154.325,5.262,-88.358
2410,-0.0928,0.4395,-0.9077,-0.305,0.671,0.549,154.325,5.257,-88.358
2420,-0.0933,0.4409,-0.9102,-0.610,0.671,0.549,154.314,5.246,-88.358
2430,-0.0962,0.4434,-0.9121,-0.244,0.854,0.549,154.308,5.240,-88.358
2440,-0.0957,0.4419,-0.9102,0.488,1.160,0.610,154.314,5.224,-88.358
2450,-0.0903,0.4395,-0.9165,1.160,1.465,0.732,154.325,5.208,-88.358
2460,-0.0864,0.4380,-0.9170,1.160,1.526,0.854,154.336,5.186,-88.358
2470,-0.0889,0.4375,-0.9150,0.732,1.343,0.977,154.347,5.169,-88.358
2480,-0.0918,0.4414,-0.9146,0.305,0.916,0.977,154.347,5.158,-88.358
2490,-0.0928,0.4443,-0.9141,0.183,0.793,1.038,154.347,5.147,-88.369
2500,-0.0928,0.4443,-0.9141,0.488,1.038,1.038,154.347,5.136,-88.369
2510,-0.0918,0.4443,-0.9150,0.854,1.221,0.793,154.352,5.120,-88.374
2520,-0.0947,0.4409,-0.9155,0.977,1.160,0.488,154.363,5.109,-88.374
2530,-0.0962,0.4380,-0.9170,0.793,0.916,0.366,154.369,5.103,-88.374
2540,-0.0957,0.4380,-0.9155,0.244,0.671,0.244,154.374,5.098,-88.369
2550,-0.0928,0.4429,-0.9146,-0.244,0.305,0.366,154.369,5.098,-88.374
2560,-0.0962,0.4419,-0.9150,-0.061,0.122,0.427,154.369,5.098,-88.374
2570,-0.0962,0.4414,-0.9136,0.183,0.122,0.366,154.369,5.098,-88.380
2580,-0.0967,0.4424,-0.9111,0.305,0.244,0.244,154.369,5.098,-88.380
2590,-0.0962,0.4453,-0.9102,0.366,0.183,0.244,154.363,5.098,-88.380
2600,-0.0942,0.4443,-0.9106,0.366,0.244,0.061,154.363,5.098,-88.380
2610,-0.0957,0.4434,-0.9136,0.122,0.305,-0.122,154.363,5.098,-88.380
2620,-0.0947,0.4419,-0.9141,-0.244,0.427,-0.244,154.363,5.098,-88.374
2630,-0.0972,0.4438,-0.9102,-0.488,0.549,-0.244,154.352,5.098,-88.369
2640,-0.0977,0.4414,-0.9106,-0.488,0.610,-0.183,154.347,5.098,-88.363
2650,-0.0977,0.4414,-0.9102,-0.427,0.671,-0.122,154.341,5.092,-88.363
2660,-0.0952,0.4404,-0.9106,-0.366,0.671,-0.122,154.336,5.092,-88.358
2670,-0.0952,0.4399,-0.9102,-0.427,0.549,-0.183,154.330,5.092,-88.352
2680,-0.0933,0.4419,-0.9121,-0.549,0.427,-0.183,154.325,5.092,-88.352
2690,-0.0884,0.4424,-0.9141,-0.610,0.427,-0.183,154.314,5.087,-88.347
2700,-0.0874,0.4409,-0.9131,-0.488,0.549,-0.244,154.308,5.081,-88.341
2710,-0.0864,0.4409,-0.9116,-0.488,0.549,-0.305,154.303,5.076,-88.336
2720,-0.0845,0.4414,-0.9126,-0.549,0.488,-0.305,154.297,5.070,-88.330
2730,-0.0850,0.4458,-0.9121,-0.549,0.549,-0.305,154.292,5.059,-88.325
2740,-0.0859,0.4458,-0.9131,-0.366,0.732,-0.366,154.286,5.054,-88.319
2750,-0.0835,0.4478,-0.9180,0.061,1.038,-0.488,154.281,5.043,-88.314
2760,-0.0796,0.4468,-0.9233,0.671,1.465,-0.671,154.286,5.026,-88.297
2770,-0.0776,0.4419,-0.9238,0.793,1.648,-0.793,154.297,5.010,-88.286
2780,-0.0811,0.4399,-0.9248,0.488,1.465,-0.916,154.308,4.993,-88.270
2790,-0.0796,0.4370,-0.9243,0.122,1.221,-0.916,154.314,4.982,-88.259
2800,-0.0835,0.4380,-0.9233,-0.244,0.610,-0.916,154.314,4.977,-88.248
2810,-0.0859,0.4380,-0.9243,-0.305,0.000,-0.916,154.319,4.982,-88.237
2820,-0.0840,0.4380,-0.9292,0.061,-0.183,-0.854,154.325,4.982,-88.231
2830,-0.0806,0.4360,-0.9277,0.427,0.122,-0.732,154.330,4.977,-88.220
2840,-0.0776,0.4316,-0.9268,0.671,0.244,-0.793,154.347,4.977,-88.215
2850,-0.0786,0.4268,-0.9282,0.671,0.061,-0.854,154.363,4.971,-88.204
2860,-0.0796,0.4258,-0.9258,0.122,-0.427,-0.671,154.374,4.971,-88.204
2870,-0.0850,0.4243,-0.9233,-0.366,-0.916,-0.244,154.380,4.982,-88.204
2880,-0.0854,0.4238,-0.9233,-0.366,-1.282,-0.061,154.385,4.988,-88.209
2890,-0.0879,0.4258,-0.9185,-0.183,-1.343,0.244,154.391,4.999,-88.215
2900,-0.0884,0.4263,-0.9170,0.183,-1.343,0.488,154.396,5.010,-88.226
2910,-0.0898,0.4297,-0.9175,0.427,-1.282,0.549,154.407,5.021,-88.237
2920,-0.0894,0.4292,-0.9160,0.427,-1.160,0.671,154.413,5.026,-88.248
2930,-0.0908,0.4326,-0.9136,0.366,-0.977,0.793,154.418,5.037,-88.259
2940,-0.0947,0.4316,-0.9111,0.366,-0.916,0.732,154.424,5.043,-88.270
2950,-0.0972,0.4321,-0.9126,0.305,-0.977,0.732,154.429,5.054,-88.281
2960,-0.0981,0.4360,-0.9126,0.183,-0.854,0.732,154.429,5.065,-88.292
2970,-0.0996,0.4365,-0.9116,0.122,-0.854,0.732,154.429,5.070,-88.303
2980,-0.0991,0.4399,-0.9077,0.122,-0.854,0.671,154.429,5.081,-88.314
2990,-0.0986,0.4404,-0.9082,0.244,-0.916,0.610,154.429,5.092,-88.319
3000,-0.0981,0.4419,-0.9077,0.427,-0.732,0.549,154.424,5.103,-88.330
3010,-0.0967,0.4414,-0.9087,0.549,-0.244,0.305,154.429,5.109,-88.336
3020,-0.0952,0.4399,-0.9097,0.488,0.061,0.183,154.429,5.109,-88.336
3030,-0.0952,0.4409,-0.9106,0.305,0.183,0.061,154.429,5.109,-88.336
3040,-0.0933,0.4409,-0.9126,0.061,0.061,0.000,154.429,5.109,-88.336
3050,-0.0937,0.4414,-0.9150,-0.061,-0.122,0.000,154.429,5.114,-88.336
3060,-0.0908,0.4404,-0.9155,0.061,0.061,-0.061,154.424,5.114,-88.336
3070,-0.0923,0.4365,-0.9116,0.183,0.366,-0.122,154.429,5.109,-88.330
3080,-0.0928,0.4360,-0.9077,0.183,0.610,-0.183,154.429,5.109,-88.330
3090,-0.0928,0.4351,-0.9097,0.061,0.549,-0.183,154.429,5.103,-88.325
3100,-0.0908,0.4360,-0.9126,0.122,0.488,-0.061,154.435,5.103,-88.319
3110,-0.0923,0.4346,-0.9165,0.305,0.549,-0.061,154.435,5.098,-88.319
3120,-0.0894,0.4355,-0.9209,0.366,0.732,-0.061,154.446,5.092,-88.314
3130,-0.0884,0.4360,-0.9204,0.366,0.793,-0.122,154.451,5.081,-88.308
3140,-0.0854,0.4380,-0.9238,0.244,0.549,-0.122,154.457,5.076,-88.308
3150,-0.0879,0.4351,-0.9204,-0.061,0.183,-0.183,154.457,5.070,-88.303
3160,-0.0913,0.4341,-0.9189,-0.366,-0.122,-0.183,154.457,5.076,-88.303
3170,-0.0889,0.4355,-0.9189,-0.488,-0.244,-0.122,154.451,5.076,-88.303
3180,-0.0869,0.4360,-0.9170,-0.427,-0.244,0.061,154.451,5.076,-88.303
3190,-0.0854,0.4346,-0.9189,-0.061,-0.244,0.244,154.451,5.076,-88.308
3200,-0.0835,0.4375,-0.9199,0.366,-0.305,0.305,154.457,5.070,-88.314
3210,-0.0850,0.4385,-0.9219,0.671,-0.244,0.366,154.462,5.070,-88.314
3220,-0.0830,0.4375,-0.9204,0.793,-0.122,0.427,154.473,5.065,-88.319
3230,-0.0830,0.4351,-0.9219,0.793,0.000,0.488,154.479,5.059,-88.325
3240,-0.0859,0.4355,-0.9199,0.488,-0.122,0.549,154.490,5.054,-88.330
3250,-0.0859,0.4375,-0.9209,0.183,-0.488,0.610,154.490,5.054,-88.336
3260,-0.0898,0.4390,-0.9165,0.000,-0.916,0.732,154.490,5.059,-88.347
3270,-0.0923,0.4404,-0.9180,0.000,-1.038,0.916,154.484,5.065,-88.363
3280,-0.0928,0.4409,-0.9141,-0.061,-1.099,1.038,154.479,5.076,-88.374
3290,-0.0937,0.4448,-0.9087,0.000,-1.221,1.099,154.473,5.081,-88.391
3300,-0.0933,0.4468,-0.9082,0.183,-1.343,1.038,154.468,5.092,-88.407
3310,-0.0957,0.4482,-0.9082,0.183,-1.465,0.854,154.462,5.103,-88.418
3320,-0.0967,0.4492,-0.9077,0.061,-1.221,0.610,154.451,5.114,-88.429
3330,-0.0972,0.4497,-0.9053,0.061,-0.671,0.427,154.446,5.125,-88.440
3340,-0.0972,0.4512,-0.9072,0.061,0.000,0.244,154.435,5.125,-88.440
3350,-0.0967,0.4521,-0.9092,0.183,0.427,0.122,154.429,5.125,-88.440
3360,-0.0981,0.4546,-0.9097,0.427,0.488,-0.122,154.424,5.125,-88.434
3370,-0.0967,0.4536,-0.9136,0.610,0.244,-0.427,154.424,5.125,-88.429
3380,-0.0962,0.4521,-0.9150,0.610,0.061,-0.793,154.418,5.131,-88.423
3390,-0.0947,0.4512,-0.9170,0.427,0.061,-1.099,154.418,5.136,-88.412
3400,-0.0947,0.4492,-0.9189,0.122,0.183,-1.404,154.418,5.142,-88.401
3410,-0.0923,0.4453,-0.9194,-0.305,0.183,-1.526,154.413,5.147,-88.385
3420,-0.0942,0.4434,-0.9146,-0.671,-0.061,-1.709,154.407,5.158,-88.369
3430,-0.0957,0.4404,-0.9126,-0.793,-0.366,-1.770,154.396,5.169,-88.358
3440,-0.0981,0.4390,-0.9141,-0.671,-0.610,-1.831,154.391,5.191,-88.341
3450,-0.0986,0.4395,-0.9146,-0.427,-0.549,-1.953,154.385,5.208,-88.325
3460,-0.0947,0.4341,-0.9146,-0.183,-0.305,-1.953,154.391,5.219,-88.308
3470,-0.0918,0.4307,-0.9150,0.000,0.000,-1.953,154.396,5.224,-88.292
3480,-0.0913,0.4287,-0.9185,0.061,0.122,-1.892,154.402,5.229,-88.275
3490,-0.0933,0.4282,-0.9170,-0.061,0.061,-1.831,154.407,5.240,-88.259
3500,-0.0918,0.4258,-0.9170,-0.183,0.061,-1.648,154.418,5.246,-88.242
3510,-0.0942,0.4248,-0.9175,-0.366,-0.122,-1.404,154.418,5.251,-88.231
3520,-0.0928,0.4243,-0.9160,-0.549,-0.183,-1.099,154.424,5.262,-88.220
3530,-0.0937,0.4263,-0.9126,-0.610,-0.122,-0.793,154.424,5.262,-88.215
3540,-0.0937,0.4282,-0.9150,-0.427,-0.061,-0.549,154.424,5.268,-88.209
3550,-0.0913,0.4277,-0.9150,-0.122,0.061,-0.427,154.429,5.268,-88.204
3560,-0.0894,0.4307,-0.9160,0.122,0.183,-0.366,154.435,5.268,-88.204
3570,-0.0903,0.4321,-0.9199,0.183,0.183,-0.366,154.440,5.262,-88.198
3580,-0.0908,0.4331,-0.9238,0.061,0.122,-0.427,154.446,5.262,-88.193
3590,-0.0928,0.4346,-0.9238,-0.061,0.122,-0.427,154.451,5.262,-88.187
3600,-0.0908,0.4331,-0.9243,-0.061,0.183,-0.427,154.451,5.262,-88.182
3610,-0.0918,0.4307,-0.9243,0.122,0.244,-0.366,154.462,5.257,-88.182
3620,-0.0908,0.4316,-0.9268,0.366,0.305,-0.305,154.468,5.257,-88.176
3630,-0.0884,0.4312,-0.9233,0.488,0.061,-0.183,154.479,5.251,-88.171
3640,-0.0894,0.4297,-0.9243,0.488,-0.305,-0.122,154.490,5.257,-88.171
3650,-0.0908,0.4277,-0.9233,0.183,-0.732,-0.122,154.501,5.262,-88.176
3660,-0.0898,0.4312,-0.9219,-0.305,-1.038,0.000,154.501,5.268,-88.182
3670,-0.0908,0.4331,-0.9180,-0.488,-1.038,0.183,154.495,5.273,-88.187
3680,-0.0889,0.4326,-0.9146,-0.427,-0.977,0.366,154.495,5.279,-88.193
3690,-0.0903,0.4312,-0.9102,-0.122,-0.977,0.427,154.495,5.284,-88.204
3700,-0.0937,0.4277,-0.9077,0.122,-0.916,0.488,154.495,5.290,-88.209
3710,-0.0981,0.4316,-0.9063,0.183,-0.854,0.671,154.501,5.301,-88.220
3720,-0.0977,0.4341,-0.9063,0.061,-0.854,0.732,154.495,5.306,-88.231
3730,-0.1025,0.4365,-0.9067,0.061,-0.671,0.793,154.495,5.312,-88.242
3740,-0.1045,0.4380,-0.9077,0.305,-0.366,0.793,154.495,5.317,-88.248
3750,-0.1040,0.4404,-0.9077,0.427,0.061,0.671,154.495,5.323,-88.253
3760,-0.1030,0.4404,-0.9111,0.610,0.610,0.549,154.495,5.317,-88.259
3770,-0.1021,0.4414,-0.9116,0.549,1.038,0.549,154.501,5.312,-88.259
3780,-0.1040,0.4414,-0.9146,0.427,1.038,0.488,154.501,5.306,-88.259
3790,-0.1064,0.4409,-0.9131,0.244,0.732,0.366,154.501,5.306,-88.259
3800,-0.1025,0.4438,-0.9180,0.244,0.549,0.183,154.501,5.301,-88.259
3810,-0.1006,0.4443,-0.9165,0.244,0.427,0.000,154.501,5.301,-88.253
3820,-0.0986,0.4434,-0.9180,0.305,0.366,-0.122,154.501,5.301,-88.253
3830,-0.0967,0.4424,-0.9224,0.183,0.244,-0.366,154.501,5.301,-88.248
3840,-0.0972,0.4395,-0.9180,-0.244,0.000,-0.549,154.495,5.306,-88.242
3850,-0.0986,0.4409,-0.9185,-0.488,-0.244,-0.671,154.490,5.312,-88.237
3860,-0.0981,0.4399,-0.9165,-0.610,-0.488,-0.732,154.484,5.323,-88.231
3870,-0.0957,0.4385,-0.9131,-0.488,-0.549,-0.732,154.479,5.334,-88.231
3880,-0.0967,0.4380,-0.9111,-0.183,-0.305,-0.732,154.473,5.339,-88.226
3890,-0.0942,0.4312,-0.9102,0.000,0.061,-0.671,154.479,5.339,-88.220
3900,-0.0947,0.4282,-0.9106,0.061,0.366,-0.610,154.484,5.339,-88.209
3913,-0.0957,0.4277,-0.9131,-0.244,0.610,-0.427,154.484,5.339,-88.204
3920,-0.0937,0.4307,-0.9150,-0.488,0.671,-0.122,154.484,5.334,-88.198
3930,-0.0937,0.4355,-0.9146,-0.366,0.793,0.122,154.479,5.323,-88.198
3940,-0.0928,0.4365,-0.9155,0.122,0.916,0.305,154.484,5.312,-88.198
3950,-0.0903,0.4365,-0.9185,0.549,1.099,0.366,154.490,5.301,-88.193
3960,-0.0874,0.4375,-0.9204,0.671,1.099,0.305,154.495,5.284,-88.193
3970,-0.0859,0.4404,-0.9224,0.366,0.854,0.183,154.501,5.273,-88.193
3980,-0.0869,0.4448,-0.9238,-0.183,0.549,0.061,154.495,5.262,-88.187
3990,-0.0864,0.4453,-0.9238,-0.427,0.488,-0.122,154.490,5.251,-88.187
4000,-0.0854,0.4443,-0.9268,-0.183,0.610,-0.244,154.490,5.246,-88.182
4010,-0.0840,0.4419,-0.9287,0.183,0.671,-0.366,154.490,5.235,-88.176
4020,-0.0845,0.4380,-0.9268,0.488,0.427,-0.427,154.495,5.224,-88.171
4030,-0.0854,0.4360,-0.9233,0.488,-0.061,-0.488,154.506,5.224,-88.165
4040,-0.0835,0.4331,-0.9185,0.183,-0.549,-0.427,154.512,5.224,-88.165
4050,-0.0835,0.4341,-0.9185,-0.122,-0.732,-0.305,154.512,5.229,-88.165
4060,-0.0835,0.4351,-0.9155,-0.183,-0.671,-0.122,154.512,5.229,-88.165
4070,-0.0864,0.4312,-0.9131,0.122,-0.549,0.000,154.512,5.229,-88.171
4080,-0.0898,0.4307,-0.9126,0.549,-0.244,0.061,154.517,5.229,-88.171
4090,-0.0889,0.4341,-0.9150,0.793,0.000,0.183,154.528,5.229,-88.171
4100,-0.0884,0.4336,-0.9180,0.977,0.244,0.305,154.539,5.224,-88.171
4110,-0.0884,0.4331,-0.9204,1.099,0.244,0.366,154.556,5.219,-88.176
4120,-0.0903,0.4326,-0.9189,0.977,0.061,0.488,154.567,5.213,-88.182
4130,-0.0913,0.4346,-0.9170,0.610,-0.305,0.549,154.572,5.213,-88.187
4140,-0.0923,0.4365,-0.9180,0.305,-0.793,0.671,154.572,5.219,-88.198
4150,-0.0962,0.4375,-0.9150,0.122,-1.221,0.671,154.572,5.224,-88.209
4160,-0.0962,0.4424,-0.9146,0.000,-1.343,0.671,154.567,5.235,-88.220
4170,-0.0977,0.4463,-0.9131,0.000,-1.282,0.488,154.561,5.251,-88.231
4180,-0.1001,0.4458,-0.9111,0.061,-1.160,0.366,154.556,5.262,-88.237
4190,-0.1021,0.4463,-0.9092,0.000,-0.916,0.122,154.545,5.273,-88.242
4200,-0.1045,0.4448,-0.9106,-0.061,-0.671,-0.183,154.539,5.290,-88.242
4210,-0.1021,0.4468,-0.9102,-0.183,-0.366,-0.427,154.528,5.295,-88.242
4220,-0.1045,0.4458,-0.9121,-0.122,-0.183,-0.671,154.523,5.306,-88.237
4230,-0.1055,0.4414,-0.9116,0.000,-0.122,-0.977,154.523,5.317,-88.226
4240,-0.1055,0.4390,-0.9180,0.061,-0.061,-1.160,154.523,5.328,-88.215
4250,-0.1045,0.4331,-0.9185,-0.061,-0.061,-1.221,154.523,5.339,-88.204
4260,-0.1040,0.4302,-0.9199,-0.244,-0.122,-1.160,154.528,5.350,-88.198
4270,-0.1025,0.4297,-0.9160,-0.366,-0.183,-1.099,154.528,5.361,-88.187
4280,-0.1006,0.4268,-0.9150,-0.427,-0.366,-1.099,154.528,5.372,-88.176
4290,-0.0986,0.4268,-0.9141,-0.549,-0.488,-0.916,154.528,5.383,-88.171
4300,-0.0991,0.4268,-0.9116,-0.671,-0.610,-0.671,154.528,5.394,-88.171
4310,-0.0972,0.4272,-0.9082,-0.671,-0.488,-0.488,154.523,5.405,-88.165
4320,-0.0967,0.4321,-0.9092,-0.610,-0.183,-0.366,154.517,5.405,-88.165
4330,-0.0972,0.4341,-0.9102,-0.488,0.244,-0.305,154.512,5.405,-88.160
4340,-0.0962,0.4331,-0.9111,-0.366,0.427,-0.305,154.512,5.405,-88.154
4350,-0.0957,0.4307,-0.9141,-0.427,0.549,-0.305,154.512,5.400,-88.149
4360,-0.0962,0.4351,-0.9170,-0.610,0.549,-0.305,154.506,5.400,-88.143
4370,-0.0937,0.4380,-0.9175,-0.671,0.549,-0.244,154.501,5.394,-88.143
4380,-0.0933,0.4370,-0.9189,-0.488,0.427,-0.244,154.495,5.389,-88.138
4390,-0.0913,0.4360,-0.9165,-0.244,0.305,-0.244,154.495,5.383,-88.132
4400,-0.0903,0.4355,-0.9204,-0.122,0.244,-0.244,154.495,5.378,-88.132
4410,-0.0928,0.4375,-0.9194,-0.183,0.122,-0.305,154.495,5.378,-88.127
4420,-0.0947,0.4341,-0.9170,-0.183,0.122,-0.244,154.495,5.378,-88.127
4430,-0.0918,0.4355,-0.9189,-0.122,0.244,-0.244,154.495,5.372,-88.121
4440,-0.0913,0.4375,-0.9199,0.122,0.366,-0.183,154.495,5.372,-88.116
4450,-0.0908,0.4380,-0.9209,0.671,0.488,-0.183,154.501,5.361,-88.116
4460,-0.0952,0.4409,-0.9214,1.404,0.610,-0.305,154.517,5.361,-88.110
4470,-0.0972,0.4399,-0.9219,1.892,0.671,-0.793,154.534,5.356,-88.099
4480,-0.0957,0.4307,-0.9312,2.441,0.854,-1.526,154.567,5.356,-88.083
4490,-0.0933,0.4209,-0.9307,2.258,1.160,-2.136,154.605,5.350,-88.055
4500,-0.0850,0.4097,-0.9360,1.282,0.732,-2.441,154.638,5.350,-88.033
4510,-0.0850,0.3975,-0.9380,0.061,0.122,-2.441,154.666,5.356,-88.006
4520,-0.0869,0.3950,-0.9341,-1.465,-0.977,-1.770,154.677,5.367,-87.995
4530,-0.0884,0.3950,-0.9282,-2.075,-1.831,-0.793,154.677,5.383,-87.995
4540,-0.0859,0.3975,-0.9204,-1.892,-2.319,0.244,154.677,5.394,-88.011
4550,-0.0864,0.4004,-0.9126,-1.465,-2.502,1.282,154.677,5.411,-88.033
4560,-0.0864,0.4087,-0.9082,-1.099,-2.441,2.258,154.671,5.416,-88.061
4570,-0.0854,0.4155,-0.9023,-1.099,-2.075,3.052,154.666,5.416,-88.099
4580,-0.0923,0.4253,-0.8984,-1.465,-1.709,3.662,154.644,5.416,-88.138
4590,-0.0962,0.4385,-0.8975,-1.465,-1.221,3.906,154.622,5.411,-88.182
4600,-0.1025,0.4478,-0.8989,-1.038,-0.549,4.028,154.594,5.405,-88.220
4610,-0.1045,0.4551,-0.8984,-0.488,0.061,3.967,154.572,5.389,-88.253
4620,-0.1069,0.4585,-0.9033,0.244,0.793,3.784,154.556,5.372,-88.286
4630,-0.1099,0.4653,-0.9023,0.488,1.099,3.601,154.539,5.356,-88.314
4640,-0.1060,0.4663,-0.9102,0.671,1.282,3.235,154.528,5.339,-88.336
4650,-0.1011,0.4687,-0.9097,0.916,1.404,2.869,154.517,5.317,-88.358
4660,-0.0986,0.4736,-0.9082,1.038,1.404,2.563,154.506,5.295,-88.374
4670,-0.0937,0.4727,-0.9155,1.526,1.648,2.136,154.501,5.268,-88.385
4680,-0.0884,0.4731,-0.9175,1.892,1.770,1.709,154.501,5.240,-88.396
4690,-0.0845,0.4727,-0.9224,2.075,1.953,1.282,154.506,5.213,-88.396
4700,-0.0796,0.4712,-0.9243,2.075,1.831,0.916,154.512,5.186,-88.401
4710,-0.0796,0.4683,-0.9297,1.892,1.648,0.549,154.517,5.158,-88.396
4720,-0.0786,0.4668,-0.9336,1.343,1.343,0.183,154.523,5.136,-88.391
4730,-0.0791,0.4653,-0.9341,0.793,0.916,-0.305,154.517,5.125,-88.385
4740,-0.0820,0.4639,-0.9380,0.366,0.122,-0.793,154.517,5.120,-88.380
4750,-0.0869,0.4575,-0.9355,-0.061,-0.793,-1.282,154.512,5.131,-88.369
4760,-0.0942,0.4551,-0.9326,-0.916,-1.770,-1.587,154.495,5.153,-88.363
4770,-0.0991,0.4536,-0.9268,-1.770,-2.625,-1.892,154.473,5.186,-88.358
4780,-0.1021,0.4502,-0.9238,-2.075,-3.174,-2.197,154.451,5.229,-88.352
4790,-0.1069,0.4458,-0.9155,-2.136,-3.357,-2.502,154.424,5.279,-88.341
4800,-0.1108,0.4409,-0.9116,-2.014,-3.235,-2.808,154.402,5.328,-88.330
4810,-0.1118,0.4346,-0.9053,-1.770,-2.930,-3.052,154.385,5.378,-88.319
4820,-0.1143,0.4292,-0.9014,-1.587,-2.625,-3.235,154.374,5.427,-88.297
4830,-0.1172,0.4243,-0.8975,-1.526,-2.380,-3.296,154.363,5.477,-88.281
4840,-0.1177,0.4214,-0.8921,-1.465,-2.258,-3.296,154.352,5.521,-88.259
4850,-0.1230,0.4170,-0.8906,-1.526,-1.953,-3.113,154.347,5.570,-88.242
4860,-0.1230,0.4170,-0.8872,-1.648,-1.465,-2.869,154.336,5.609,-88.220
4870,-0.1201,0.4199,-0.8872,-1.465,-0.488,-2.563,154.330,5.641,-88.198
4880,-0.1157,0.4199,-0.8896,-1.160,0.854,-2.197,154.325,5.652,-88.176
4890,-0.1123,0.4189,-0.8896,-0.793,2.014,-2.014,154.325,5.652,-88.149
4900,-0.1128,0.4185,-0.8931,-0.610,2.563,-1.770,154.325,5.647,-88.121
4910,-0.1113,0.4224,-0.8984,-0.732,2.686,-1.648,154.325,5.636,-88.094
4920,-0.1079,0.4292,-0.9023,-0.793,2.625,-1.465,154.319,5.625,-88.072
4930,-0.1025,0.4331,-0.9092,-0.427,2.869,-1.404,154.319,5.603,-88.044
4940,-0.0981,0.4321,-0.9155,0.244,3.296,-1.343,154.330,5.581,-88.017
4950,-0.0967,0.4282,-0.9194,0.732,3.601,-1.465,154.347,5.554,-87.990
4960,-0.0952,0.4253,-0.9229,0.610,3.479,-1.465,154.363,5.526,-87.962
4970,-0.0903,0.4282,-0.9238,0.183,3.052,-1.404,154.380,5.504,-87.935
4980,-0.0889,0.4282,-0.9253,-0.183,2.808,-1.282,154.385,5.477,-87.913
4990,-0.0854,0.4272,-0.9263,-0.061,2.869,-1.099,154.396,5.449,-87.891
5000,-0.0815,0.4263,-0.9307,0.244,2.930,-0.977,154.413,5.416,-87.869
5010,-0.0801,0.4209,-0.9326,0.427,2.869,-0.916,154.429,5.389,-87.847
5020,-0.0776,0.4160,-0.9351,0.427,2.686,-0.793,154.451,5.356,-87.825
5030,-0.0771,0.4185,-0.9380,-0.183,2.014,-0.610,154.468,5.328,-87.814
5040,-0.0771,0.4185,-0.9404,0.061,1.587,-0.488,154.484,5.306,-87.803
5050,-0.0791,0.4155,-0.9365,0.122,1.099,-0.183,154.501,5.290,-87.797
5060,-0.0781,0.4121,-0.9336,-0.244,0.488,0.183,154.517,5.273,-87.797
5070,-0.0781,0.4087,-0.9307,-0.244,-0.305,0.671,154.528,5.268,-87.803
5080,-0.0781,0.4111,-0.9263,-0.122,-0.610,1.282,154.545,5.257,-87.819
5090,-0.0767,0.4170,-0.9209,0.122,-0.427,1.892,154.556,5.246,-87.836
5100,-0.0786,0.4214,-0.9185,0.854,-0.122,2.380,154.567,5.229,-87.858
5110,-0.0801,0.4248,-0.9170,1.587,-0.061,2.625,154.589,5.208,-87.880
5120,-0.0830,0.4277,-0.9209,2.014,0.122,2.808,154.611,5.191,-87.907
5130,-0.0850,0.4297,-0.9229,1.892,0.427,2.930,154.633,5.169,-87.929
5140,-0.0889,0.4346,-0.9243,1.404,0.488,2.869,154.644,5.153,-87.957
5150,-0.0933,0.4380,-0.9229,0.732,0.244,2.808,154.649,5.136,-87.979
5160,-0.0986,0.4429,-0.9224,-0.061,-0.244,2.808,154.644,5.131,-88.006
5170,-0.1006,0.4443,-0.9214,-0.549,-0.916,2.747,154.633,5.136,-88.033
5180,-0.1021,0.4487,-0.9165,-0.610,-1.526,2.686,154.616,5.142,-88.066
5190,-0.1035,0.4512,-0.9106,-0.305,-1.770,2.625,154.600,5.153,-88.099
5200,-0.1055,0.4551,-0.9063,0.061,-1.709,2.441,154.583,5.164,-88.127
5210,-0.1055,0.4551,-0.8999,0.427,-1.404,2.197,154.572,5.175,-88.154
5220,-0.1035,0.4561,-0.8945,0.610,-1.038,1.831,154.561,5.186,-88.176
5230,-0.1025,0.4551,-0.8940,0.305,-0.732,1.526,154.545,5.191,-88.193
5240,-0.1035,0.4541,-0.8916,0.305,-0.122,1.221,154.534,5.197,-88.204
5250,-0.1060,0.4536,-0.8931,0.610,0.793,0.916,154.523,5.191,-88.209
5260,-0.1035,0.4531,-0.8955,0.977,1.648,0.610,154.523,5.180,-88.204
5270,-0.1030,0.4517,-0.9009,1.282,2.136,0.305,154.523,5.169,-88.198
5280,-0.1035,0.4463,-0.9038,1.221,2.441,0.000,154.528,5.153,-88.187
5290,-0.0977,0.4448,-0.9106,0.916,2.808,-0.183,154.534,5.131,-88.176
5300,-0.0986,0.4424,-0.9155,0.549,2.991,-0.305,154.534,5.109,-88.160
5310,-0.0957,0.4404,-0.9175,0.305,2.991,-0.427,154.539,5.087,-88.143
5320,-0.0923,0.4409,-0.9185,0.366,2.808,-0.366,154.539,5.065,-88.127
5330,-0.0894,0.4404,-0.9165,0.610,2.319,-0.305,154.545,5.048,-88.116
5340,-0.0884,0.4395,-0.9175,0.977,1.709,-0.366,154.556,5.032,-88.105
5350,-0.0869,0.4385,-0.9209,1.282,1.404,-0.549,154.567,5.021,-88.094
5360,-0.0854,0.4370,-0.9248,1.221,1.343,-0.732,154.583,5.010,-88.083
5370,-0.0811,0.4360,-0.9292,0.854,1.343,-0.916,154.594,4.993,-88.066
5380,-0.0820,0.4351,-0.9312,0.488,1.160,-1.038,154.605,4.988,-88.050
5390,-0.0850,0.4326,-0.9258,-0.183,1.038,-1.099,154.611,4.977,-88.039
5400,-0.0850,0.4302,-0.9263,-0.549,0.916,-0.977,154.611,4.971,-88.022
5410,-0.0845,0.4287,-0.9253,-0.610,0.549,-0.793,154.611,4.966,-88.017
5420,-0.0845,0.4302,-0.9282,-0.427,0.244,-0.549,154.611,4.966,-88.011
5430,-0.0825,0.4268,-0.9238,-0.244,-0.061,-0.305,154.616,4.966,-88.006
5440,-0.0825,0.4277,-0.9277,0.061,-0.305,-0.183,154.622,4.966,-88.006
5450,-0.0820,0.4297,-0.9268,0.061,-0.610,0.000,154.627,4.966,-88.011
5460,-0.0840,0.4321,-0.9243,-0.061,-0.916,0.122,154.627,4.971,-88.011
5470,-0.0830,0.4355,-0.9233,0.122,-1.221,0.061,154.633,4.977,-88.017
5480,-0.0820,0.4399,-0.9194,0.549,-1.770,-0.183,154.633,4.993,-88.028
5490,-0.0825,0.4375,-0.9214,1.221,-2.686,-0.793,154.644,5.015,-88.028
5500,-0.0830,0.4365,-0.9204,1.526,-3.662,-1.343,154.660,5.048,-88.033
5510,-0.0898,0.4399,-0.9238,1.160,-4.211,-1.770,154.671,5.092,-88.033
5520,-0.0913,0.4399,-0.9224,0.366,-3.967,-1.282,154.671,5.136,-88.039
5530,-0.0923,0.4375,-0.9150,-0.305,-3.174,-0.916,154.666,5.169,-88.044
5540,-0.0937,0.4390,-0.9160,-0.305,-2.808,-1.465,154.660,5.202,-88.044
5550,-0.0972,0.4390,-0.9160,-0.671,-2.686,-1.404,154.649,5.235,-88.044
5560,-0.0952,0.4360,-0.9146,-0.671,-2.625,-0.916,154.644,5.262,-88.044
5570,-0.0957,0.4307,-0.9126,-0.305,-2.319,-0.671,154.638,5.290,-88.050
5580,-0.0947,0.4316,-0.9106,-0.305,-2.075,-0.610,154.638,5.312,-88.055
5590,-0.0952,0.4331,-0.9077,0.122,-1.892,-0.549,154.638,5.328,-88.055
5600,-0.0942,0.4321,-0.9111,0.488,-1.587,-0.427,154.638,5.345,-88.061
5610,-0.0967,0.4312,-0.9102,0.610,-1.282,-0.305,154.644,5.361,-88.061
5620,-0.0947,0.4326,-0.9106,0.549,-0.916,-0.244,154.649,5.367,-88.066
5630,-0.0967,0.4321,-0.9150,0.427,-0.427,-0.122,154.655,5.372,-88.066
5640,-0.0952,0.4312,-0.9160,0.427,0.000,-0.122,154.660,5.372,-88.066
5650,-0.0972,0.4331,-0.9189,0.366,0.183,-0.244,154.666,5.378,-88.061
5660,-0.0967,0.4351,-0.9214,0.427,0.305,-0.305,154.671,5.372,-88.055
5670,-0.0957,0.4346,-0.9214,0.366,0.122,-0.366,154.677,5.372,-88.055
5680,-0.0981,0.4346,-0.9229,0.183,-0.305,-0.549,154.677,5.383,-88.050
5690,-0.1006,0.4336,-0.9253,-0.183,-0.671,-0.671,154.682,5.394,-88.044
5700,-0.0986,0.4341,-0.9214,-0.732,-1.038,-0.671,154.671,5.405,-88.044
5710,-0.0991,0.4370,-0.9199,-1.160,-1.160,-0.610,154.660,5.422,-88.044
5720,-0.0991,0.4360,-0.9185,-0.977,-1.099,-0.793,154.649,5.433,-88.044
5730,-0.0991,0.4365,-0.9170,-0.793,-0.977,-0.854,154.644,5.449,-88.039
5740,-0.0972,0.4331,-0.9146,-0.488,-0.854,-0.977,154.638,5.460,-88.033
5750,-0.0952,0.4312,-0.9194,-0.183,-1.038,-0.977,154.638,5.471,-88.028
5760,-0.0947,0.4277,-0.9185,-0.061,-1.221,-0.977,154.644,5.488,-88.022
5770,-0.0977,0.4243,-0.9185,-0.183,-1.404,-0.854,154.649,5.504,-88.022
5780,-0.0991,0.4258,-0.9150,-0.366,-1.282,-0.732,154.649,5.521,-88.022
5790,-0.0972,0.4233,-0.9150,-0.427,-0.977,-0.549,154.649,5.532,-88.022
5800,-0.0972,0.4238,-0.9116,-0.366,-0.549,-0.305,154.649,5.537,-88.022
5810,-0.0981,0.4268,-0.9126,-0.122,-0.244,-0.061,154.649,5.537,-88.022
5820,-0.0972,0.4268,-0.9141,0.061,0.061,0.122,154.655,5.537,-88.022
5830,-0.0942,0.4297,-0.9170,0.183,0.244,0.183,154.660,5.532,-88.022
5840,-0.0937,0.4316,-0.9204,0.244,0.366,0.183,154.666,5.526,-88.022
5850,-0.0937,0.4316,-0.9199,0.244,0.366,0.244,154.666,5.521,-88.022
5860,-0.0957,0.4346,-0.9194,0.244,0.305,0.244,154.671,5.515,-88.022
5870,-0.0962,0.4375,-0.9253,0.244,0.244,0.244,154.671,5.510,-88.028
5880,-0.0947,0.4365,-0.9272,0.305,0.122,0.183,154.677,5.504,-88.028
5890,-0.0952,0.4395,-0.9263,0.305,0.000,0.183,154.677,5.504,-88.028
5900,-0.0942,0.4399,-0.9233,0.305,-0.366,0.061,154.682,5.504,-88.028
5914,-0.0952,0.4404,-0.9219,0.244,-0.793,-0.183,154.682,5.510,-88.033
5920,-0.0952,0.4385,-0.9194,0.000,-1.160,-0.305,154.677,5.521,-88.033
5930,-0.0977,0.4380,-0.9189,-0.305,-1.282,-0.366,154.671,5.532,-88.039
5940,-0.0977,0.4365,-0.9165,-0.549,-1.221,-0.305,154.666,5.543,-88.039
5950,-0.0986,0.4365,-0.9102,-0.610,-1.160,-0.244,154.655,5.554,-88.044
5960,-0.1006,0.4370,-0.9126,-0.488,-0.854,-0.305,154.649,5.565,-88.044
5970,-0.1016,0.4355,-0.9170,-0.244,-0.427,-0.366,154.649,5.570,-88.039
5980,-0.0996,0.4355,-0.9146,0.000,-0.122,-0.366,154.644,5.576,-88.039
5990,-0.0996,0.4321,-0.9146,0.305,0.061,-0.366,154.649,5.576,-88.033
6000,-0.0981,0.4331,-0.9155,0.427,-0.122,-0.366,154.655,5.576,-88.033
6010,-0.1016,0.4302,-0.9165,0.244,-0.427,-0.305,154.660,5.587,-88.033
6020,-0.1016,0.4287,-0.9165,0.183,-0.610,-0.122,154.666,5.592,-88.033
6030,-0.1006,0.4302,-0.9150,0.183,-0.610,0.000,154.666,5.598,-88.033
6040,-0.1011,0.4321,-0.9155,0.244,-0.488,0.061,154.671,5.603,-88.039
6050,-0.1016,0.4341,-0.9170,0.366,-0.305,0.122,154.671,5.609,-88.039
6060,-0.1006,0.4331,-0.9146,0.488,0.000,0.183,154.677,5.609,-88.044
6070,-0.0996,0.4331,-0.9165,0.427,0.244,0.122,154.682,5.603,-88.044
6080,-0.1021,0.4351,-0.9155,0.366,0.244,0.122,154.682,5.603,-88.044
6090,-0.1045,0.4346,-0.9214,0.183,0.122,0.122,154.687,5.603,-88.044
6100,-0.1060,0.4355,-0.9214,0.000,-0.244,0.122,154.687,5.609,-88.044
6110,-0.1060,0.4365,-0.9189,-0.244,-0.427,0.183,154.682,5.614,-88.050
6120,-0.1064,0.4365,-0.9180,-0.366,-0.610,0.183,154.677,5.625,-88.055
6130,-0.1060,0.4390,-0.9155,-0.427,-0.854,0.061,154.671,5.636,-88.055
6139,-0.1074,0.4375,-0.9170,-0.305,-0.977,0.000,154.666,5.647,-88.061
6150,-0.1050,0.4360,-0.9146,-0.244,-0.916,-0.061,154.660,5.658,-88.066
6160,-0.1040,0.4375,-0.9126,-0.244,-0.854,-0.183,154.655,5.669,-88.066
6170,-0.1035,0.4360,-0.9131,-0.183,-0.793,-0.366,154.649,5.680,-88.066
6180,-0.1040,0.4336,-0.9116,-0.122,-0.488,-0.488,154.649,5.685,-88.066
6190,-0.1050,0.4326,-0.9106,-0.122,-0.305,-0.427,154.649,5.696,-88.061
6200,-0.1040,0.4307,-0.9141,0.000,-0.183,-0.366,154.649,5.702,-88.061
6210,-0.1030,0.4316,-0.9131,0.122,0.061,-0.244,154.649,5.702,-88.055
6220,-0.1045,0.4336,-0.9092,0.305,0.305,-0.122,154.655,5.702,-88.055
6230,-0.1030,0.4336,-0.9111,0.366,0.549,-0.061,154.655,5.696,-88.050
6240,-0.1030,0.4326,-0.9126,0.366,0.732,-0.061,154.660,5.691,-88.050
6250,-0.1021,0.4321,-0.9170,0.305,0.793,-0.061,154.666,5.685,-88.044
6259,-0.1011,0.4351,-0.9175,0.183,0.916,0.000,154.666,5.680,-88.039
6269,-0.0996,0.4346,-0.9180,0.061,0.916,0.000,154.666,5.669,-88.033
6280,-0.0967,0.4375,-0.9194,0.061,0.854,-0.061,154.666,5.658,-88.033
6290,-0.0981,0.4380,-0.9224,0.122,0.610,-0.061,154.666,5.652,-88.028
6300,-0.1001,0.4351,-0.9209,0.122,0.183,-0.122,154.671,5.652,-88.028
6310,-0.1040,0.4336,-0.9189,0.000,-0.183,-0.305,154.671,5.658,-88.022
6320,-0.1045,0.4341,-0.9175,-0.366,-0.305,-0.244,154.666,5.663,-88.022
6330,-0.1035,0.4326,-0.9199,-0.427,-0.183,-0.183,154.666,5.663,-88.022
6340,-0.0991,0.4351,-0.9165,-0.122,0.183,-0.183,154.660,5.663,-88.022
6350,-0.0977,0.4321,-0.9199,0.244,0.366,-0.122,154.666,5.658,-88.017
6359,-0.0972,0.4316,-0.9180,0.610,0.305,-0.183,154.677,5.658,-88.017
6370,-0.0957,0.4282,-0.9199,0.732,-0.061,-0.183,154.687,5.652,-88.011
6380,-0.0972,0.4258,-0.9243,0.427,-0.366,-0.183,154.693,5.658,-88.011
6390,-0.0977,0.4302,-0.9209,0.000,-0.671,-0.244,154.698,5.663,-88.011
6399,-0.1016,0.4297,-0.9180,-0.366,-0.793,-0.244,154.698,5.669,-88.017
6409,-0.1021,0.4302,-0.9180,-0.427,-0.854,-0.183,154.693,5.680,-88.017
6420,-0.1040,0.4297,-0.9170,-0.183,-0.854,-0.061,154.693,5.691,-88.022
6430,-0.1050,0.4268,-0.9155,0.122,-0.549,0.122,154.698,5.696,-88.022
6440,-0.1030,0.4282,-0.9150,0.305,-0.366,0.244,154.704,5.702,-88.028
6450,-0.1030,0.4272,-0.9106,0.305,-0.366,0.427,154.709,5.702,-88.033
6460,-0.1040,0.4272,-0.9126,0.305,-0.427,0.549,154.709,5.707,-88.039
6470,-0.1030,0.4316,-0.9141,0.244,-0.488,0.671,154.715,5.707,-88.050
6480,-0.1040,0.4346,-0.9126,0.244,-0.244,0.671,154.715,5.707,-88.055
6490,-0.1021,0.4360,-0.9136,0.305,0.122,0.610,154.715,5.707,-88.061
6500,-0.1040,0.4360,-0.9116,0.427,0.305,0.488,154.715,5.702,-88.061
6510,-0.1035,0.4375,-0.9111,0.427,0.427,0.305,154.715,5.702,-88.066
6520,-0.1040,0.4390,-0.9165,0.366,0.549,0.183,154.715,5.696,-88.061
6530,-0.1011,0.4395,-0.9160,0.305,0.671,0.061,154.715,5.691,-88.061
6540,-0.1001,0.4395,-0.9180,0.244,0.671,-0.061,154.715,5.680,-88.055
6549,-0.1021,0.4409,-0.9189,0.305,0.488,-0.122,154.715,5.680,-88.055
6559,-0.1016,0.4404,-0.9189,0.244,0.244,-0.305,154.715,5.680,-88.055
6569,-0.1011,0.4404,-0.9185,0.183,0.122,-0.427,154.715,5.680,-88.055
6579,-0.1021,0.4375,-0.9180,0.061,0.061,-0.549,154.715,5.680,-88.055
6589,-0.1016,0.4370,-0.9170,-0.061,0.061,-0.732,154.709,5.685,-88.055
6599,-0.1006,0.4341,-0.9194,-0.122,0.122,-0.793,154.709,5.685,-88.055
6609,-0.0981,0.4326,-0.9219,0.000,0.244,-0.916,154.715,5.685,-88.055
6620,-0.0967,0.4297,-0.9199,0.183,0.244,-0.854,154.715,5.685,-88.055
6629,-0.0991,0.4253,-0.9214,0.305,0.061,-0.854,154.726,5.685,-88.055
6639,-0.1011,0.4243,-0.9233,0.244,-0.183,-0.732,154.737,5.691,-88.055
6649,-0.1011,0.4229,-0.9229,0.122,-0.305,-0.549,154.742,5.696,-88.055
6659,-0.1006,0.4238,-0.9199,-0.061,-0.366,-0.366,154.748,5.702,-88.055
6669,-0.0996,0.4243,-0.9204,-0.122,-0.244,-0.244,154.753,5.702,-88.055
6679,-0.0991,0.4263,-0.9209,-0.061,-0.061,-0.122,154.753,5.702,-88.055
6689,-0.0977,0.4258,-0.9214,0.061,0.000,0.000,154.759,5.702,-88.055
6699,-0.0991,0.4268,-0.9229,0.183,0.000,0.061,154.764,5.702,-88.055
6709,-0.1001,0.4258,-0.9229,0.122,-0.183,0.122,154.770,5.702,-88.055
6719,-0.1001,0.4277,-0.9224,-0.061,-0.488,0.122,154.775,5.702,-88.055
6729,-0.0996,0.4287,-0.9238,-0.244,-0.671,0.183,154.775,5.707,-88.055
6739,-0.1021,0.4282,-0.9229,-0.305,-0.732,0.305,154.775,5.713,-88.055
6749,-0.1035,0.4312,-0.9219,-0.305,-0.854,0.305,154.775,5.718,-88.055
6759,-0.1050,0.4336,-0.9204,-0.244,-1.099,0.366,154.770,5.729,-88.055
6769,-0.1045,0.4346,-0.9160,-0.122,-1.404,0.427,154.764,5.740,-88.055
6779,-0.1050,0.4346,-0.9155,-0.122,-1.526,0.427,154.764,5.757,-88.055
6789,-0.1064,0.4375,-0.9146,-0.122,-1.465,0.366,154.759,5.768,-88.055
6799,-0.1050,0.4355,-0.9097,-0.122,-1.160,0.244,154.753,5.779,-88.055
6809,-0.1045,0.4365,-0.9106,-0.122,-0.854,0.183,154.748,5.790,-88.055
6819,-0.1050,0.4375,-0.9082,-0.122,-0.549,0.061,154.737,5.795,-88.055
6829,-0.1060,0.4404,-0.9111,-0.122,-0.305,0.000,154.731,5.801,-88.055
6839,-0.1060,0.4395,-0.9116,0.061,0.000,-0.061,154.731,5.801,-88.055
6849,-0.1064,0.4375,-0.9126,0.305,0.244,-0.183,154.726,5.801,-88.055
6859,-0.1055,0.4351,-0.9150,0.305,0.427,-0.305,154.731,5.801,-88.055
6869,-0.1050,0.4341,-0.9146,0.244,0.427,-0.366,154.731,5.801,-88.055
6879,-0.1055,0.4326,-0.9165,0.183,0.366,-0.366,154.737,5.801,-88.055
6889,-0.1040,0.4321,-0.9180,0.000,0.305,-0.366,154.737,5.801,-88.055
6899,-0.1045,0.4331,-0.9185,-0.061,0.183,-0.427,154.737,5.801,-88.055
6909,-0.1060,0.4331,-0.9214,-0.061,0.122,-0.366,154.737,5.801,-88.055
6919,-0.1055,0.4346,-0.9214,-0.061,0.183,-0.244,154.737,5.801,-88.055
6929,-0.1030,0.4316,-0.9233,-0.061,0.061,-0.244,154.737,5.801,-88.055
6939,-0.1055,0.4292,-0.9189,-0.122,-0.061,-0.244,154.737,5.806,-88.055
6949,-0.1050,0.4307,-0.9199,-0.244,-0.305,-0.305,154.737,5.812,-88.055
6959,-0.1045,0.4326,-0.9175,-0.488,-0.488,-0.244,154.731,5.817,-88.055
6969,-0.1040,0.4331,-0.9180,-0.610,-0.549,-0.122,154.726,5.823,-88.055
6979,-0.1035,0.4346,-0.9185,-0.427,-0.427,-0.122,154.720,5.828,-88.055
6989,-0.1021,0.4351,-0.9180,-0.183,-0.244,-0.183,154.720,5.828,-88.055
6999,-0.1030,0.4346,-0.9185,0.061,-0.061,-0.244,154.720,5.828,-88.055
7009,-0.1030,0.4316,-0.9170,0.244,0.000,-0.183,154.726,5.828,-88.055
7019,-0.1035,0.4302,-0.9165,0.183,-0.183,-0.183,154.726,5.834,-88.055
7029,-0.1064,0.4307,-0.9155,-0.061,-0.366,-0.183,154.726,5.839,-88.055
7039,-0.1074,0.4307,-0.9141,-0.305,-0.488,-0.122,154.726,5.845,-88.055
7049,-0.1074,0.4312,-0.9126,-0.305,-0.366,-0.061,154.720,5.850,-88.055
7059,-0.1084,0.4316,-0.9131,-0.183,-0.244,0.000,154.720,5.856,-88.055
7069,-0.1079,0.4321,-0.9126,-0.061,-0.122,0.000,154.720,5.861,-88.055
7079,-0.1069,0.4321,-0.9131,0.122,-0.122,0.061,154.720,5.861,-88.055
7089,-0.1050,0.4321,-0.9141,0.244,-0.122,0.122,154.720,5.861,-88.055
7099,-0.1050,0.4341,-0.9150,0.244,-0.061,0.122,154.720,5.867,-88.055
7109,-0.1035,0.4351,-0.9111,0.061,0.061,0.122,154.720,5.861,-88.055
7120,-0.1050,0.4346,-0.9116,0.000,0.122,0.061,154.715,5.861,-88.055
7129,-0.1074,0.4360,-0.9111,-0.122,0.305,0.061,154.715,5.861,-88.055
7139,-0.1079,0.4365,-0.9136,-0.122,0.671,0.000,154.709,5.856,-88.055
7149,-0.1079,0.4375,-0.9121,0.000,0.916,0.000,154.709,5.850,-88.055
7159,-0.1045,0.4370,-0.9141,0.122,0.916,-0.183,154.704,5.845,-88.055
7169,-0.1050,0.4365,-0.9189,0.183,0.793,-0.305,154.709,5.839,-88.055
7179,-0.1045,0.4390,-0.9175,0.061,0.549,-0.366,154.704,5.834,-88.055
7189,-0.1035,0.4399,-0.9199,-0.061,0.427,-0.427,154.704,5.834,-88.055
7199,-0.1025,0.4380,-0.9204,-0.183,0.305,-0.610,154.698,5.834,-88.055
7209,-0.1011,0.4365,-0.9199,-0.244,0.244,-0.854,154.698,5.834,-88.055
7219,-0.1016,0.4351,-0.9180,-0.305,0.122,-0.977,154.693,5.834,-88.055
7229,-0.1016,0.4326,-0.9180,-0.366,0.061,-1.038,154.693,5.839,-88.050
7239,-0.1021,0.4312,-0.9189,-0.366,0.122,-1.099,154.693,5.839,-88.039
7249,-0.1025,0.4292,-0.9209,-0.305,0.427,-1.099,154.693,5.839,-88.028
7259,-0.1011,0.4272,-0.9199,0.000,0.549,-0.977,154.698,5.839,-88.017
7269,-0.1001,0.4219,-0.9199,0.244,0.549,-0.793,154.709,5.834,-88.006
7279,-0.1001,0.4194,-0.9185,0.183,0.305,-0.671,154.720,5.834,-87.995
7289,-0.1021,0.4189,-0.9219,0.183,0.122,-0.427,154.731,5.834,-87.995
7299,-0.1011,0.4170,-0.9229,0.061,0.061,-0.244,154.742,5.834,-87.990
7309,-0.0991,0.4194,-0.9209,0.061,0.183,0.000,154.748,5.828,-87.990
7319,-0.0996,0.4204,-0.9229,0.183,0.244,0.183,154.759,5.823,-87.990
7329,-0.0996,0.4229,-0.9229,0.366,0.061,0.366,154.770,5.817,-87.995
7339,-0.0996,0.4253,-0.9248,0.244,-0.122,0.549,154.775,5.812,-88.000
7349,-0.1016,0.4287,-0.9219,0.061,-0.244,0.610,154.775,5.812,-88.006
7359,-0.1025,0.4297,-0.9209,-0.122,-0.488,0.671,154.775,5.812,-88.011
7369,-0.1030,0.4326,-0.9233,-0.244,-0.671,0.671,154.775,5.817,-88.022
7379,-0.1040,0.4341,-0.9233,-0.366,-0.671,0.610,154.770,5.817,-88.033
7389,-0.1055,0.4360,-0.9204,-0.427,-0.793,0.488,154.764,5.828,-88.039
7399,-0.1050,0.4351,-0.9189,-0.549,-1.038,0.488,154.759,5.834,-88.050
7409,-0.1094,0.4341,-0.9155,-0.610,-1.282,0.488,154.748,5.845,-88.055
7419,-0.1108,0.4351,-0.9121,-0.610,-1.343,0.549,154.737,5.861,-88.066
7429,-0.1104,0.4370,-0.9087,-0.488,-1.282,0.549,154.731,5.872,-88.077
7439,-0.1074,0.4365,-0.9087,-0.244,-0.977,0.427,154.720,5.883,-88.088
7449,-0.1084,0.4346,-0.9067,-0.061,-0.610,0.366,154.715,5.889,-88.094
7459,-0.1079,0.4365,-0.9072,0.000,-0.244,0.244,154.715,5.894,-88.094
7469,-0.1084,0.4365,-0.9082,0.000,0.122,0.122,154.709,5.894,-88.099
7479,-0.1094,0.4336,-0.9106,0.000,0.488,0.000,154.709,5.894,-88.094
7489,-0.1108,0.4341,-0.9111,-0.122,0.732,-0.061,154.704,5.889,-88.094
7499,-0.1104,0.4341,-0.9146,-0.061,0.854,-0.122,154.704,5.883,-88.088
7509,-0.1094,0.4331,-0.9136,-0.061,0.793,-0.183,154.704,5.883,-88.083
7519,-0.1084,0.4316,-0.9155,0.061,0.793,-0.122,154.704,5.878,-88.077
7529,-0.1084,0.4321,-0.9180,0.061,0.671,-0.122,154.704,5.872,-88.072
7539,-0.1060,0.4312,-0.9214,0.061,0.671,0.000,154.709,5.867,-88.072
7549,-0.1021,0.4331,-0.9214,0.000,0.610,0.061,154.709,5.861,-88.066
7559,-0.1025,0.4341,-0.9214,-0.122,0.427,0.000,154.709,5.856,-88.066
7569,-0.1040,0.4351,-0.9214,-0.183,0.183,-0.061,154.709,5.856,-88.066
7579,-0.1055,0.4331,-0.9189,-0.305,0.000,-0.122,154.704,5.856,-88.061
7589,-0.1074,0.4321,-0.9160,-0.427,-0.122,-0.244,154.704,5.861,-88.061
7599,-0.1069,0.4326,-0.9141,-0.671,-0.122,-0.244,154.698,5.867,-88.061
7609,-0.1040,0.4336,-0.9131,-0.854,0.000,-0.183,154.687,5.867,-88.061
7620,-0.1060,0.4331,-0.9136,-0.610,0.183,-0.122,154.682,5.867,-88.055
7629,-0.1030,0.4351,-0.9136,-0.244,0.366,-0.122,154.677,5.861,-88.055
7639,-0.1021,0.4385,-0.9165,0.183,0.549,-0.183,154.677,5.856,-88.050
7649,-0.1035,0.4351,-0.9175,0.488,0.793,-0.244,154.682,5.850,-88.044
7659,-0.1021,0.4331,-0.9180,0.427,0.854,-0.244,154.687,5.845,-88.039
7669,-0.1011,0.4302,-0.9204,0.183,0.671,-0.244,154.693,5.834,-88.033
7679,-0.1006,0.4292,-0.9189,-0.183,0.427,-0.244,154.693,5.834,-88.028
7689,-0.1050,0.4282,-0.9204,-0.427,0.366,-0.122,154.693,5.828,-88.028
7699,-0.1045,0.4277,-0.9199,-0.427,0.427,0.000,154.693,5.828,-88.022
7709,-0.1060,0.4282,-0.9180,-0.244,0.366,0.061,154.693,5.823,-88.022
7719,-0.1050,0.4297,-0.9160,0.000,0.122,0.183,154.693,5.823,-88.022
7729,-0.1055,0.4297,-0.9165,0.122,-0.061,0.305,154.698,5.823,-88.028
7739,-0.1045,0.4297,-0.9175,0.061,-0.183,0.366,154.698,5.823,-88.033
7749,-0.1050,0.4312,-0.9175,-0.122,-0.122,0.427,154.698,5.823,-88.039
7759,-0.1040,0.4346,-0.9170,-0.183,0.061,0.488,154.698,5.823,-88.039
7769,-0.1040,0.4360,-0.9175,-0.244,0.305,0.427,154.693,5.817,-88.044
7779,-0.1050,0.4355,-0.9170,-0.183,0.366,0.366,154.687,5.812,-88.044
7789,-0.1069,0.4380,-0.9146,-0.183,0.305,0.305,154.682,5.812,-88.044
7799,-0.1079,0.4375,-0.9170,-0.244,0.183,0.122,154.682,5.812,-88.044
7809,-0.1069,0.4370,-0.9160,-0.305,0.122,0.061,154.677,5.812,-88.044
7819,-0.1069,0.4355,-0.9146,-0.366,0.122,-0.061,154.671,5.812,-88.044
7829,-0.1069,0.4395,-0.9131,-0.427,0.244,-0.122,154.660,5.812,-88.044
7839,-0.1050,0.4404,-0.9165,-0.305,0.427,-0.183,154.655,5.812,-88.039
7849,-0.1045,0.4385,-0.9146,-0.183,0.549,-0.183,154.655,5.806,-88.033
7859,-0.1040,0.4385,-0.9136,-0.122,0.610,-0.244,154.649,5.806,-88.033
7869,-0.1030,0.4370,-0.9116,-0.122,0.488,-0.366,154.644,5.801,-88.028
7879,-0.1040,0.4365,-0.9146,-0.122,0.549,-0.488,154.644,5.801,-88.017
7889,-0.1011,0.4370,-0.9175,-0.183,0.671,-0.549,154.644,5.795,-88.011
7899,-0.1011,0.4346,-0.9185,-0.122,0.854,-0.610,154.644,5.790,-88.000
7909,-0.0996,0.4297,-0.9194,-0.061,0.854,-0.610,154.644,5.784,-87.995
7919,-0.1021,0.4282,-0.9214,-0.122,0.732,-0.549,154.649,5.779,-87.984
7929,-0.1011,0.4292,-0.9180,-0.244,0.427,-0.427,154.649,5.773,-87.979
7939,-0.1011,0.4258,-0.9165,-0.305,0.183,-0.305,154.649,5.773,-87.973
7949,-0.1016,0.4263,-0.9175,-0.366,0.122,-0.244,154.655,5.773,-87.973
7959,-0.0996,0.4292,-0.9185,-0.366,0.305,-0.122,154.649,5.768,-87.968
7969,-0.0991,0.4277,-0.9194,-0.183,0.366,-0.061,154.655,5.762,-87.968
7979,-0.1001,0.4297,-0.9214,-0.183,0.366,0.061,154.655,5.757,-87.968
7989,-0.1001,0.4307,-0.9194,-0.183,0.244,0.122,154.655,5.757,-87.968
7999,-0.1011,0.4307,-0.9209,-0.183,0.000,0.183,154.655,5.751,-87.968
8009,-0.1006,0.4307,-0.9233,-0.244,-0.122,0.183,154.660,5.751,-87.973
8019,-0.1011,0.4336,-0.9224,-0.366,-0.244,0.183,154.655,5.751,-87.973
8029,-0.1021,0.4336,-0.9214,-0.488,-0.427,0.305,154.655,5.757,-87.979
8039,-0.1045,0.4346,-0.9175,-0.610,-0.549,0.305,154.644,5.762,-87.984
8049,-0.1050,0.4346,-0.9165,-0.610,-0.671,0.305,154.638,5.768,-87.990
8059,-0.1055,0.4355,-0.9136,-0.488,-0.732,0.305,154.633,5.773,-87.995
8069,-0.1055,0.4370,-0.9131,-0.305,-0.610,0.366,154.627,5.779,-88.000
8079,-0.1064,0.4380,-0.9087,-0.122,-0.366,0.305,154.622,5.784,-88.006
8089,-0.1064,0.4390,-0.9082,0.000,-0.061,0.244,154.616,5.784,-88.006
8099,-0.1045,0.4375,-0.9067,0.061,0.183,0.122,154.611,5.784,-88.006
8109,-0.1055,0.4360,-0.9087,0.122,0.366,0.122,154.611,5.784,-88.006
8120,-0.1040,0.4365,-0.9116,0.122,0.549,0.000,154.611,5.779,-88.006
8129,-0.1040,0.4370,-0.9136,0.061,0.610,0.000,154.611,5.773,-88.000
8139,-0.1064,0.4360,-0.9175,0.061,0.671,0.000,154.611,5.768,-88.000
8149,-0.1030,0.4351,-0.9204,0.000,0.610,-0.061,154.611,5.762,-87.995
8159,-0.1025,0.4365,-0.9170,0.000,0.549,-0.061,154.611,5.762,-87.995
8169,-0.1016,0.4360,-0.9189,0.000,0.488,-0.122,154.611,5.757,-87.990
8179,-0.0996,0.4341,-0.9194,0.061,0.488,-0.183,154.616,5.751,-87.984
8189,-0.1006,0.4351,-0.9209,-0.061,0.366,-0.244,154.616,5.746,-87.984
8199,-0.1016,0.4341,-0.9219,-0.122,0.305,-0.305,154.616,5.746,-87.979
8209,-0.1040,0.4336,-0.9224,-0.183,0.122,-0.366,154.616,5.746,-87.973
8219,-0.1060,0.4297,-0.9189,-0.305,-0.061,-0.427,154.616,5.751,-87.973
8229,-0.1030,0.4302,-0.9165,-0.427,-0.244,-0.488,154.616,5.757,-87.968
8239,-0.1016,0.4316,-0.9141,-0.549,-0.366,-0.305,154.611,5.762,-87.968
8249,-0.0991,0.4331,-0.9141,-0.427,-0.305,-0.061,154.605,5.762,-87.968
8259,-0.1001,0.4331,-0.9155,-0.061,-0.061,0.000,154.605,5.762,-87.968
8269,-0.0977,0.4341,-0.9160,0.244,0.183,0.000,154.611,5.757,-87.968
8279,-0.0972,0.4355,-0.9141,0.366,0.427,0.000,154.611,5.751,-87.968
8289,-0.0967,0.4341,-0.9160,0.427,0.549,0.000,154.616,5.740,-87.968
8299,-0.0986,0.4312,-0.9170,0.305,0.488,-0.061,154.622,5.735,-87.968
8309,-0.1025,0.4297,-0.9194,0.122,0.366,-0.122,154.627,5.735,-87.968
8319,-0.1035,0.4312,-0.9199,-0.122,0.244,-0.061,154.627,5.735,-87.968
8329,-0.1030,0.4312,-0.9194,-0.183,0.183,0.122,154.633,5.729,-87.968
8339,-0.1016,0.4321,-0.9175,-0.122,0.000,0.244,154.633,5.729,-87.968
8349,-0.1021,0.4331,-0.9175,0.000,-0.244,0.366,154.633,5.729,-87.968
8359,-0.1021,0.4326,-0.9175,0.122,-0.488,0.488,154.633,5.735,-87.968
8369,-0.1021,0.4326,-0.9175,0.061,-0.549,0.427,154.633,5.735,-87.968
8379,-0.1035,0.4346,-0.9160,0.000,-0.549,0.427,154.633,5.740,-87.968
8389,-0.1030,0.4360,-0.9175,-0.061,-0.488,0.305,154.633,5.746,-87.968
8399,-0.1045,0.4365,-0.9141,-0.061,-0.305,0.244,154.627,5.746,-87.968
8409,-0.1040,0.4375,-0.9131,-0.061,-0.244,0.183,154.627,5.751,-87.968
8419,-0.1064,0.4375,-0.9136,0.000,-0.061,0.122,154.622,5.751,-87.968
8429,-0.1050,0.4365,-0.9155,-0.061,0.000,0.061,154.622,5.751,-87.968
8439,-0.1050,0.4351,-0.9155,0.000,0.000,0.000,154.622,5.757,-87.968
8449,-0.1030,0.4351,-0.9146,0.122,0.061,-0.061,154.622,5.757,-87.968
8459,-0.1040,0.4375,-0.9160,0.183,0.183,-0.122,154.622,5.757,-87.968
8469,-0.1021,0.4370,-0.9155,0.183,0.305,-0.244,154.622,5.751,-87.968
8479,-0.1016,0.4351,-0.9155,0.122,0.244,-0.244,154.622,5.751,-87.968
8489,-0.1035,0.4341,-0.9146,0.000,0.000,-0.305,154.622,5.751,-87.968
8499,-0.1030,0.4346,-0.9150,-0.122,-0.122,-0.366,154.622,5.757,-87.968
8509,-0.1021,0.4341,-0.9175,-0.122,0.000,-0.305,154.622,5.757,-87.968
8519,-0.1016,0.4351,-0.9175,0.000,0.244,-0.366,154.622,5.757,-87.968
8529,-0.0991,0.4336,-0.9175,0.183,0.305,-0.366,154.627,5.757,-87.968
8539,-0.0991,0.4302,-0.9185,0.244,0.061,-0.427,154.633,5.751,-87.968
8549,-0.1030,0.4287,-0.9170,0.061,-0.244,-0.305,154.633,5.757,-87.968
8559,-0.1011,0.4312,-0.9155,-0.183,-0.488,-0.183,154.633,5.762,-87.968
8569,-0.1030,0.4312,-0.9136,-0.244,-0.488,-0.061,154.633,5.768,-87.968
8579,-0.1035,0.4321,-0.9141,-0.183,-0.305,0.061,154.633,5.773,-87.968
8589,-0.1021,0.4326,-0.9170,0.000,0.061,0.122,154.633,5.768,-87.968
8599,-0.1016,0.4351,-0.9175,0.183,0.244,0.183,154.633,5.768,-87.968
8609,-0.1011,0.4365,-0.9170,0.244,0.244,0.183,154.638,5.762,-87.968
8620,-0.1006,0.4380,-0.9199,0.122,0.122,0.000,154.638,5.762,-87.968
8629,-0.1021,0.4370,-0.9219,-0.061,-0.061,-0.183,154.638,5.762,-87.968
8639,-0.1045,0.4336,-0.9214,-0.305,-0.183,-0.183,154.633,5.762,-87.968
8649,-0.1040,0.4326,-0.9209,-0.488,-0.305,-0.244,154.633,5.768,-87.968
8659,-0.1035,0.4346,-0.9199,-0.549,-0.549,-0.183,154.627,5.773,-87.968
8669,-0.1025,0.4355,-0.9180,-0.427,-0.732,-0.122,154.622,5.779,-87.968
8679,-0.1035,0.4355,-0.9141,-0.244,-1.038,-0.122,154.616,5.790,-87.968
8689,-0.1030,0.4341,-0.9136,-0.183,-1.099,-0.183,154.616,5.801,-87.968
8699,-0.1040,0.4336,-0.9126,-0.122,-1.099,-0.183,154.616,5.812,-87.968
8709,-0.1045,0.4341,-0.9087,-0.061,-0.916,-0.183,154.611,5.823,-87.968
8719,-0.1064,0.4331,-0.9092,-0.122,-0.549,-0.183,154.611,5.834,-87.968
8729,-0.1050,0.4336,-0.9097,-0.061,-0.244,-0.122,154.611,5.834,-87.968
8739,-0.1045,0.4365,-0.9082,0.000,-0.061,-0.122,154.605,5.839,-87.968
8749,-0.1055,0.4365,-0.9102,0.183,0.061,-0.061,154.605,5.839,-87.968
8759,-0.1069,0.4336,-0.9111,0.183,0.122,-0.061,154.605,5.839,-87.968
8769,-0.1055,0.4351,-0.9121,0.183,0.122,-0.061,154.605,5.839,-87.968
8779,-0.1064,0.4355,-0.9141,0.122,0.183,-0.061,154.605,5.839,-87.968
8789,-0.1050,0.4375,-0.9160,0.061,0.244,-0.061,154.605,5.839,-87.968
8799,-0.1069,0.4385,-0.9170,-0.061,0.244,-0.183,154.605,5.839,-87.968
8809,-0.1055,0.4380,-0.9189,-0.122,0.183,-0.244,154.605,5.839,-87.968
8819,-0.1064,0.4395,-0.9180,-0.183,0.061,-0.244,154.600,5.839,-87.968
8829,-0.1055,0.4390,-0.9175,-0.183,0.000,-0.305,154.594,5.845,-87.968
8839,-0.1035,0.4385,-0.9185,-0.122,-0.061,-0.366,154.594,5.845,-87.968
8849,-0.1045,0.4375,-0.9175,-0.122,-0.122,-0.427,154.594,5.850,-87.968
8859,-0.1064,0.4346,-0.9165,-0.122,-0.183,-0.549,154.594,5.856,-87.968
8869,-0.1089,0.4316,-0.9146,-0.305,-0.244,-0.610,154.589,5.861,-87.968
8879,-0.1069,0.4316,-0.9136,-0.549,-0.305,-0.610,154.589,5.867,-87.968
8889,-0.1050,0.4336,-0.9131,-0.610,-0.366,-0.488,154.583,5.872,-87.968
8899,-0.1040,0.4351,-0.9146,-0.305,-0.244,-0.427,154.578,5.878,-87.968
8909,-0.1021,0.4346,-0.9175,0.244,0.000,-0.427,154.583,5.878,-87.968
8919,-0.1016,0.4312,-0.9175,0.488,0.183,-0.488,154.589,5.878,-87.968
8929,-0.1006,0.4282,-0.9214,0.488,0.244,-0.549,154.600,5.878,-87.968
8939,-0.1030,0.4277,-0.9175,0.122,0.122,-0.427,154.605,5.878,-87.968
8949,-0.1040,0.4272,-0.9180,-0.244,-0.122,-0.366,154.611,5.878,-87.968
8959,-0.1055,0.4258,-0.9165,-0.366,-0.244,-0.244,154.611,5.883,-87.968
8969,-0.1069,0.4258,-0.9150,-0.122,-0.183,0.000,154.611,5.883,-87.968
8979,-0.1035,0.4263,-0.9155,0.183,-0.061,0.244,154.616,5.883,-87.968
8989,-0.1035,0.4272,-0.9185,0.366,0.000,0.427,154.627,5.883,-87.968
8999,-0.1045,0.4292,-0.9175,0.305,-0.122,0.488,154.633,5.883,-87.968
9009,-0.1045,0.4307,-0.9180,0.122,-0.183,0.549,154.633,5.883,-87.968
9019,-0.1050,0.4351,-0.9155,0.000,-0.244,0.549,154.633,5.883,-87.968
9029,-0.1021,0.4375,-0.9170,0.000,-0.244,0.488,154.633,5.878,-87.968
9039,-0.1030,0.4355,-0.9155,0.000,-0.244,0.427,154.627,5.878,-87.968
9049,-0.1055,0.4355,-0.9150,0.061,-0.183,0.366,154.627,5.878,-87.968
9059,-0.1074,0.4370,-0.9146,0.000,-0.122,0.244,154.627,5.883,-87.968
9069,-0.1084,0.4380,-0.9136,-0.061,-0.183,0.183,154.622,5.883,-87.968
9079,-0.1079,0.4399,-0.9126,-0.061,-0.122,0.061,154.622,5.889,-87.968
9089,-0.1074,0.4409,-0.9141,0.000,-0.061,-0.061,154.616,5.889,-87.968
9099,-0.1069,0.4404,-0.9160,0.122,0.122,-0.183,154.616,5.889,-87.968
9109,-0.1055,0.4390,-0.9126,0.122,0.305,-0.244,154.611,5.889,-87.968
9120,-0.1040,0.4385,-0.9116,0.305,0.366,-0.366,154.611,5.889,-87.968
9129,-0.1040,0.4395,-0.9121,0.366,0.366,-0.488,154.616,5.883,-87.968
9139,-0.1050,0.4365,-0.9155,0.244,0.366,-0.610,154.616,5.883,-87.968
9149,-0.1030,0.4331,-0.9180,0.122,0.549,-0.671,154.622,5.883,-87.968
9159,-0.1025,0.4341,-0.9185,0.000,0.854,-0.732,154.622,5.878,-87.968
9169,-0.1011,0.4336,-0.9194,0.000,0.977,-0.732,154.622,5.867,-87.968
9179,-0.0996,0.4292,-0.9214,0.183,0.916,-0.671,154.633,5.861,-87.968
9189,-0.1006,0.4263,-0.9185,0.366,0.610,-0.488,154.638,5.856,-87.968
9199,-0.1030,0.4248,-0.9180,0.366,0.183,-0.366,154.649,5.856,-87.968
9209,-0.1030,0.4248,-0.9194,0.244,-0.122,-0.183,154.655,5.856,-87.968
9219,-0.1030,0.4238,-0.9209,0.122,-0.183,0.000,154.666,5.856,-87.968
9229,-0.1021,0.4272,-0.9219,0.061,0.000,0.122,154.671,5.856,-87.968
9239,-0.1006,0.4292,-0.9204,0.061,0.122,0.244,154.671,5.850,-87.968
9249,-0.0986,0.4297,-0.9204,0.061,0.000,0.366,154.677,5.845,-87.968
9259,-0.1006,0.4321,-0.9229,0.000,-0.244,0.427,154.677,5.845,-87.968
9269,-0.1025,0.4326,-0.9229,-0.061,-0.549,0.427,154.677,5.850,-87.968
9279,-0.1030,0.4375,-0.9189,-0.305,-0.854,0.366,154.677,5.850,-87.968
9289,-0.1064,0.4385,-0.9209,-0.366,-0.977,0.305,154.666,5.861,-87.968
9299,-0.1079,0.4380,-0.9185,-0.488,-1.099,0.183,154.660,5.872,-87.968
9309,-0.1079,0.4380,-0.9175,-0.549,-1.160,0.122,154.655,5.883,-87.968
9319,-0.1089,0.4365,-0.9131,-0.549,-1.221,0.061,154.644,5.900,-87.968
9329,-0.1079,0.4360,-0.9102,-0.427,-1.160,0.000,154.638,5.911,-87.968
9339,-0.1074,0.4355,-0.9072,-0.305,-1.038,-0.061,154.633,5.922,-87.968
9349,-0.1069,0.4355,-0.9058,-0.122,-0.793,0.000,154.627,5.927,-87.968
9359,-0.1060,0.4360,-0.9038,0.061,-0.488,0.000,154.622,5.933,-87.968
9369,-0.1074,0.4346,-0.9072,0.244,-0.183,0.000,154.622,5.938,-87.968
9379,-0.1074,0.4336,-0.9111,0.366,0.183,-0.061,154.627,5.938,-87.968
9389,-0.1079,0.4360,-0.9121,0.305,0.488,-0.061,154.627,5.938,-87.968
9399,-0.1074,0.4355,-0.9165,0.183,0.610,-0.061,154.627,5.933,-87.968
9409,-0.1069,0.4365,-0.9194,0.122,0.732,-0.061,154.633,5.927,-87.968
9419,-0.1069,0.4360,-0.9219,0.061,0.671,-0.183,154.633,5.922,-87.968
9429,-0.1055,0.4365,-0.9224,0.061,0.549,-0.244,154.633,5.916,-87.968
9439,-0.1050,0.4355,-0.9229,-0.061,0.244,-0.244,154.633,5.916,-87.968
9449,-0.1045,0.4326,-0.9233,-0.183,-0.183,-0.305,154.638,5.916,-87.968
9459,-0.1040,0.4351,-0.9224,-0.488,-0.610,-0.305,154.633,5.922,-87.968
9469,-0.1045,0.4375,-0.9170,-0.732,-0.854,-0.305,154.622,5.933,-87.968
9479,-0.1060,0.4385,-0.9180,-0.671,-1.038,-0.366,154.616,5.944,-87.968
9489,-0.1074,0.4385,-0.9180,-0.488,-0.977,-0.488,154.611,5.955,-87.968
9499,-0.1055,0.4355,-0.9150,-0.305,-0.854,-0.671,154.605,5.966,-87.968
9509,-0.1079,0.4336,-0.9121,-0.244,-0.793,-0.854,154.605,5.977,-87.968
9519,-0.1099,0.4277,-0.9141,-0.183,-0.671,-1.099,154.605,5.988,-87.962
9529,-0.1128,0.4243,-0.9150,-0.366,-0.549,-1.221,154.605,6.004,-87.951
9539,-0.1108,0.4199,-0.9141,-0.549,-0.305,-1.160,154.611,6.015,-87.940
9549,-0.1084,0.4204,-0.9150,-0.488,-0.061,-0.916,154.611,6.021,-87.935
9559,-0.1055,0.4180,-0.9160,-0.244,-0.061,-0.610,154.622,6.021,-87.929
9569,-0.1040,0.4180,-0.9165,0.061,-0.061,-0.305,154.627,6.026,-87.924
9579,-0.1021,0.4185,-0.9194,0.305,-0.061,0.061,154.644,6.021,-87.929
9589,-0.0981,0.4194,-0.9185,0.305,-0.061,0.427,154.655,6.015,-87.929
9599,-0.0967,0.4209,-0.9189,0.061,-0.183,0.732,154.660,6.010,-87.940
9609,-0.0981,0.4253,-0.9194,-0.305,-0.366,1.099,154.660,6.004,-87.951
9620,-0.0991,0.4292,-0.9189,-0.671,-0.549,1.465,154.655,5.999,-87.968
9629,-0.1016,0.4346,-0.9214,-0.793,-0.671,1.709,154.644,5.993,-87.984
9639,-0.1045,0.4380,-0.9194,-0.671,-0.671,1.831,154.638,5.988,-88.006
9649,-0.1074,0.4409,-0.9175,-0.488,-0.854,1.892,154.627,5.988,-88.022
9659,-0.1079,0.4463,-0.9150,-0.427,-1.099,1.892,154.611,5.993,-88.044
9669,-0.1089,0.4502,-0.9131,-0.366,-1.343,1.831,154.600,5.999,-88.066
9679,-0.1104,0.4517,-0.9121,-0.305,-1.404,1.709,154.583,6.004,-88.088
9689,-0.1108,0.4536,-0.9082,-0.122,-1.221,1.526,154.572,6.010,-88.110
9699,-0.1123,0.4556,-0.9063,0.122,-0.793,1.282,154.556,6.015,-88.127
9709,-0.1108,0.4556,-0.9038,0.427,-0.366,1.038,154.545,6.015,-88.138
9719,-0.1094,0.4541,-0.9023,0.671,0.122,0.793,154.539,6.015,-88.143
9729,-0.1069,0.4556,-0.9043,0.671,0.366,0.610,154.534,6.010,-88.143
9739,-0.1040,0.4561,-0.9102,0.916,0.610,0.366,154.528,5.999,-88.149
9749,-0.1035,0.4580,-0.9102,1.221,0.916,0.061,154.528,5.988,-88.143
9759,-0.1050,0.4570,-0.9131,1.465,1.099,-0.183,154.534,5.977,-88.138
9769,-0.1064,0.4526,-0.9199,1.587,0.977,-0.488,154.545,5.971,-88.127
9779,-0.1069,0.4478,-0.9214,1.221,0.977,-0.854,154.550,5.966,-88.116
9789,-0.1064,0.4443,-0.9229,0.610,0.793,-1.160,154.556,5.966,-88.105
9799,-0.1055,0.4409,-0.9233,0.183,0.305,-1.465,154.561,5.966,-88.088
9809,-0.1079,0.4409,-0.9229,-0.244,-0.244,-1.648,154.556,5.977,-88.072
9819,-0.1074,0.4399,-0.9204,-0.610,-0.610,-1.770,154.550,5.988,-88.061
9829,-0.1079,0.4365,-0.9209,-0.549,-0.793,-1.831,154.550,6.004,-88.044
9839,-0.1089,0.4326,-0.9185,-0.244,-0.977,-2.014,154.550,6.026,-88.033
9849,-0.1133,0.4263,-0.9170,-0.305,-1.221,-2.258,154.556,6.048,-88.017
9859,-0.1187,0.4233,-0.9150,-0.610,-1.526,-2.380,154.556,6.075,-88.000
9869,-0.1211,0.4214,-0.9097,-1.160,-1.831,-2.319,154.550,6.114,-87.990
9879,-0.1230,0.4219,-0.9043,-1.587,-1.709,-2.258,154.539,6.147,-87.979
9889,-0.1206,0.4229,-0.9038,-1.770,-1.404,-2.136,154.528,6.174,-87.962
9899,-0.1182,0.4253,-0.9033,-1.465,-0.977,-1.892,154.517,6.196,-87.951
9909,-0.1177,0.4238,-0.9019,-0.916,-0.549,-1.770,154.512,6.218,-87.935
9919,-0.1152,0.4233,-0.9043,-0.549,-0.061,-1.648,154.512,6.229,-87.924
9929,-0.1143,0.4248,-0.9077,-0.366,0.366,-1.587,154.517,6.235,-87.907
9939,-0.1133,0.4258,-0.9092,-0.244,0.793,-1.587,154.517,6.235,-87.891
9949,-0.1143,0.4263,-0.9126,-0.183,1.099,-1.648,154.523,6.235,-87.869
9959,-0.1113,0.4243,-0.9126,-0.122,1.282,-1.648,154.528,6.229,-87.847
9969,-0.1118,0.4224,-0.9155,0.122,1.404,-1.648,154.539,6.224,-87.825
9979,-0.1099,0.4185,-0.9204,0.427,1.648,-1.587,154.556,6.218,-87.803
9989,-0.1084,0.4131,-0.9233,0.732,1.709,-1.587,154.583,6.207,-87.781
9999,-0.1064,0.4058,-0.9243,0.977,1.709,-1.526,154.611,6.196,-87.764
10009,-0.1035,0.4019,-0.9282,0.977,1.587,-1.465,154.644,6.185,-87.742
10019,-0.0996,0.3965,-0.9292,0.671,1.404,-1.160,154.671,6.174,-87.726
10029,-0.0981,0.3911,-0.9321,0.305,1.099,-0.732,154.704,6.158,-87.715
10039,-0.0937,0.3887,-0.9297,-0.122,0.671,-0.122,154.726,6.147,-87.709
10049,-0.0913,0.3916,-0.9268,-0.366,0.183,0.671,154.748,6.130,-87.715
10059,-0.0874,0.3945,-0.9243,-0.366,-0.061,1.526,154.764,6.114,-87.731
10069,-0.0869,0.3975,-0.9233,-0.183,-0.122,2.380,154.781,6.092,-87.753
10079,-0.0850,0.4019,-0.9185,-0.061,-0.183,3.052,154.792,6.070,-87.781
10089,-0.0864,0.4087,-0.9175,0.000,-0.122,3.662,154.797,6.042,-87.814
10099,-0.0884,0.4170,-0.9136,0.061,0.122,4.150,154.803,6.015,-87.852
10109,-0.0928,0.4229,-0.9180,0.122,0.488,4.517,154.803,5.982,-87.891
10120,-0.0962,0.4331,-0.9175,0.427,0.793,4.761,154.803,5.949,-87.929
10129,-0.0981,0.4419,-0.9199,0.854,0.916,4.883,154.803,5.916,-87.973
10139,-0.0957,0.4473,-0.9219,1.221,0.793,4.883,154.803,5.883,-88.011
10149,-0.0947,0.4526,-0.9272,1.221,0.549,4.944,154.803,5.850,-88.055
10159,-0.0962,0.4595,-0.9326,0.977,0.061,4.883,154.797,5.823,-88.099
10169,-0.0957,0.4653,-0.9287,0.549,-0.488,4.761,154.786,5.806,-88.143
10179,-0.1001,0.4712,-0.9248,0.000,-1.404,4.517,154.764,5.795,-88.193
10189,-0.0967,0.4761,-0.9229,-0.122,-1.831,4.150,154.737,5.790,-88.237
10199,-0.0967,0.4810,-0.9180,-0.122,-2.075,3.784,154.709,5.784,-88.281
10209,-0.0962,0.4834,-0.9155,0.244,-2.136,3.357,154.682,5.784,-88.319
10219,-0.0957,0.4858,-0.9131,0.488,-2.258,2.686,154.655,5.790,-88.352
10229,-0.0967,0.4839,-0.9136,0.732,-2.075,2.014,154.633,5.795,-88.380
10239,-0.0996,0.4795,-0.9150,0.854,-1.648,1.221,154.616,5.801,-88.401
10249,-0.1025,0.4727,-0.9160,0.977,-1.404,0.549,154.605,5.812,-88.412
10259,-0.1064,0.4668,-0.9111,0.977,-1.526,-0.061,154.600,5.828,-88.418
10269,-0.1133,0.4585,-0.9102,0.610,-1.648,-0.427,154.589,5.850,-88.418
10279,-0.1147,0.4531,-0.9102,0.305,-1.709,-0.793,154.583,5.872,-88.418
10289,-0.1167,0.4497,-0.9082,0.366,-1.709,-1.099,154.578,5.900,-88.418
10299,-0.1187,0.4478,-0.9092,0.183,-1.770,-1.221,154.572,5.927,-88.412
10309,-0.1157,0.4482,-0.9116,-0.183,-1.831,-1.221,154.561,5.955,-88.412
10319,-0.1167,0.4512,-0.9092,-0.488,-2.197,-1.160,154.550,5.988,-88.407
10329,-0.1182,0.4556,-0.9063,-0.793,-2.625,-1.221,154.528,6.021,-88.407
10339,-0.1221,0.4644,-0.9023,-1.221,-2.930,-1.587,154.501,6.064,-88.407
10349,-0.1265,0.4663,-0.9004,-1.343,-2.808,-2.014,154.468,6.108,-88.401
10359,-0.1338,0.4683,-0.8999,-1.282,-2.258,-2.747,154.435,6.152,-88.385
10369,-0.1392,0.4653,-0.9014,-1.343,-1.587,-3.723,154.407,6.202,-88.358
10379,-0.1421,0.4580,-0.9023,-1.526,-0.977,-4.822,154.385,6.246,-88.319
10389,-0.1470,0.4482,-0.9028,-1.892,-0.854,-5.798,154.363,6.301,-88.270
10399,-0.1460,0.4399,-0.9038,-2.319,-0.977,-6.653,154.341,6.356,-88.215
10409,-0.1426,0.4307,-0.9058,-2.625,-0.977,-7.202,154.325,6.416,-88.154
10419,-0.1372,0.4180,-0.9043,-2.686,-0.854,-7.568,154.314,6.471,-88.088
10429,-0.1309,0.4062,-0.9043,-2.441,-0.610,-7.507,154.314,6.515,-88.022
10439,-0.1221,0.3950,-0.9043,-2.319,-0.427,-7.080,154.319,6.553,-87.962
10449,-0.1162,0.3892,-0.9033,-2.502,-0.122,-6.348,154.325,6.586,-87.902
10459,-0.1094,0.3862,-0.9009,-2.747,0.183,-5.432,154.325,6.608,-87.852
10469,-0.1035,0.3911,-0.9033,-2.808,0.549,-4.456,154.325,6.614,-87.814
10479,-0.0996,0.3975,-0.9072,-2.441,1.343,-3.540,154.325,6.608,-87.775
10489,-0.0981,0.3984,-0.9165,-1.648,2.258,-2.808,154.336,6.592,-87.737
10499,-0.0981,0.4048,-0.9214,-1.221,2.441,-2.319,154.347,6.570,-87.704
10509,-0.0996,0.4009,-0.9292,0.183,3.113,-2.014,154.374,6.537,-87.676
10519,-0.1030,0.4023,-0.9316,-0.427,2.991,-1.587,154.396,6.515,-87.649
10529,-0.1001,0.4058,-0.9380,-1.770,2.319,-1.099,154.402,6.487,-87.627
10539,-0.1001,0.4067,-0.9404,-2.197,0.977,-0.671,154.407,6.471,-87.616
10549,-0.0986,0.4087,-0.9399,-2.014,0.061,-0.122,154.407,6.460,-87.616
10559,-0.0947,0.4146,-0.9380,-1.404,-0.305,0.488,154.407,6.449,-87.621
10569,-0.0889,0.4165,-0.9346,-0.427,-0.732,1.099,154.418,6.438,-87.632
10579,-0.0850,0.4204,-0.9297,0.061,-1.587,1.587,154.429,6.427,-87.654
10589,-0.0830,0.4253,-0.9238,-0.061,-2.136,2.014,154.435,6.422,-87.682
10599,-0.0830,0.4321,-0.9209,-0.183,-2.197,2.380,154.435,6.411,-87.715
10609,-0.0845,0.4365,-0.9170,0.183,-1.709,2.747,154.435,6.400,-87.748
10620,-0.0894,0.4424,-0.9175,0.671,-0.977,2.991,154.435,6.383,-87.775
10629,-0.0933,0.4473,-0.9155,0.916,-0.549,3.174,154.435,6.361,-87.808
10639,-0.0977,0.4482,-0.9189,1.221,-0.549,3.235,154.440,6.345,-87.841
10649,-0.1021,0.4536,-0.9194,1.587,-0.671,3.296,154.446,6.328,-87.874
10659,-0.1084,0.4546,-0.9204,1.648,-0.854,3.296,154.451,6.317,-87.907
10669,-0.1108,0.4585,-0.9199,1.709,-1.099,3.174,154.457,6.317,-87.940
10679,-0.1138,0.4590,-0.9185,2.014,-1.526,2.991,154.462,6.317,-87.973
10689,-0.1138,0.4585,-0.9175,1.831,-2.075,2.808,154.462,6.323,-88.011
10699,-0.1133,0.4604,-0.9146,1.526,-2.563,2.625,154.462,6.334,-88.044
10709,-0.1128,0.4595,-0.9106,1.221,-2.869,2.441,154.462,6.350,-88.077
10719,-0.1162,0.4644,-0.9072,0.854,-2.930,2.319,154.451,6.367,-88.110
10729,-0.1191,0.4663,-0.9063,0.793,-2.747,1.953,154.435,6.383,-88.143
10739,-0.1274,0.4639,-0.9038,0.549,-2.502,1.465,154.424,6.411,-88.165
10749,-0.1328,0.4619,-0.9014,0.366,-2.197,0.732,154.407,6.438,-88.182
10759,-0.1411,0.4565,-0.9028,-0.183,-2.075,-0.061,154.396,6.471,-88.193
10769,-0.1465,0.4497,-0.9043,-0.549,-1.831,-0.793,154.380,6.509,-88.193
10779,-0.1509,0.4434,-0.9038,-1.038,-1.709,-1.465,154.363,6.548,-88.187
10789,-0.1523,0.4375,-0.9019,-1.221,-1.770,-1.953,154.352,6.597,-88.176
10799,-0.1548,0.4331,-0.8989,-1.221,-1.953,-2.014,154.341,6.641,-88.165
10809,-0.1587,0.4297,-0.8896,-1.038,-1.953,-2.075,154.330,6.696,-88.154
10819,-0.1450,0.4302,-0.8887,-0.366,-1.709,-2.136,154.325,6.735,-88.143
10829,-0.1421,0.4272,-0.8838,-0.061,-1.648,-1.892,154.325,6.773,-88.132
10839,-0.1421,0.4268,-0.8823,-0.183,-1.282,-1.709,154.325,6.806,-88.121
10849,-0.1382,0.4297,-0.8838,-0.366,-0.305,-1.831,154.319,6.828,-88.110
10859,-0.1382,0.4336,-0.8853,-0.977,1.038,-1.953,154.308,6.839,-88.088
10869,-0.1362,0.4321,-0.8877,-0.916,2.686,-2.197,154.297,6.833,-88.055
10879,-0.1309,0.4297,-0.8945,-0.488,3.906,-2.319,154.297,6.817,-88.017
10889,-0.1270,0.4277,-0.9009,0.000,4.517,-2.441,154.308,6.790,-87.973
10899,-0.1255,0.4199,-0.9097,0.549,4.578,-2.502,154.325,6.768,-87.935
10909,-0.1240,0.4155,-0.9136,0.732,4.333,-2.441,154.352,6.740,-87.891
10919,-0.1235,0.4097,-0.9180,0.671,4.150,-2.319,154.380,6.713,-87.852
10929,-0.1230,0.4067,-0.9194,0.366,3.967,-2.136,154.402,6.691,-87.814
10939,-0.1201,0.4014,-0.9185,0.183,3.662,-1.831,154.429,6.669,-87.781
10949,-0.1152,0.3970,-0.9189,0.305,3.357,-1.465,154.457,6.641,-87.753
10959,-0.1108,0.3945,-0.9180,0.549,3.235,-0.977,154.490,6.614,-87.731
10969,-0.1069,0.3911,-0.9146,0.793,3.418,-0.427,154.523,6.581,-87.715
10979,-0.1006,0.3906,-0.9155,1.038,3.784,0.305,154.556,6.537,-87.698
10989,-0.0952,0.3892,-0.9165,1.160,4.211,1.221,154.594,6.487,-87.693
10999,-0.0928,0.3906,-0.9146,1.038,4.578,2.075,154.627,6.422,-87.693
11009,-0.0903,0.3984,-0.9155,0.977,4.944,2.991,154.655,6.356,-87.698
11019,-0.0879,0.4082,-0.9180,1.099,5.188,3.967,154.677,6.279,-87.709
11029,-0.0845,0.4185,-0.9199,1.587,5.493,4.700,154.698,6.191,-87.731
11039,-0.0840,0.4282,-0.9243,1.953,5.676,5.188,154.720,6.108,-87.753
11049,-0.0845,0.4365,-0.9312,2.319,5.554,5.432,154.742,6.021,-87.781
11059,-0.0835,0.4463,-0.9360,2.380,5.249,5.493,154.764,5.933,-87.808
11069,-0.0835,0.4546,-0.9424,2.197,4.639,5.310,154.775,5.856,-87.836
11079,-0.0854,0.4604,-0.9453,1.892,3.906,5.005,154.786,5.790,-87.863
11089,-0.0859,0.4683,-0.9458,1.526,2.991,4.639,154.786,5.729,-87.891
11099,-0.0874,0.4731,-0.9453,1.221,1.892,4.211,154.781,5.685,-87.924
11109,-0.0928,0.4751,-0.9419,0.977,0.671,3.662,154.770,5.658,-87.951
11120,-0.0967,0.4746,-0.9385,0.793,-0.244,2.991,154.759,5.641,-87.984
11129,-0.0977,0.4727,-0.9365,0.366,-0.854,2.319,154.748,5.636,-88.006
11139,-0.0986,0.4692,-0.9316,-0.061,-1.343,1.770,154.731,5.641,-88.028
11149,-0.1011,0.4644,-0.9219,-0.244,-1.892,1.404,154.709,5.652,-88.050
11159,-0.0996,0.4609,-0.9170,-0.122,-2.441,1.160,154.693,5.669,-88.072
11169,-0.1025,0.4634,-0.9106,0.061,-2.930,1.099,154.677,5.691,-88.094
11179,-0.1050,0.4609,-0.9063,0.488,-2.991,1.099,154.660,5.713,-88.116
11189,-0.1069,0.4595,-0.9092,0.854,-2.563,0.977,154.655,5.735,-88.138
11199,-0.1079,0.4595,-0.9141,0.916,-1.709,0.793,154.649,5.751,-88.149
11209,-0.1064,0.4600,-0.9219,0.610,-0.916,0.427,154.638,5.757,-88.160
11219,-0.1157,0.4570,-0.9263,0.488,-0.854,0.061,154.638,5.773,-88.160
11229,-0.1177,0.4536,-0.9292,0.183,-1.465,-0.366,154.633,5.795,-88.165
11239,-0.1270,0.4473,-0.9287,-0.366,-2.625,-0.793,154.622,5.834,-88.171
11249,-0.1284,0.4468,-0.9229,-0.977,-3.906,-1.160,154.611,5.883,-88.176
11259,-0.1260,0.4404,-0.9155,-1.465,-4.883,-1.404,154.589,5.949,-88.182
11269,-0.1235,0.4404,-0.9053,-1.953,-5.432,-1.465,154.561,6.010,-88.193
11279,-0.1216,0.4390,-0.8960,-2.319,-5.676,-1.404,154.534,6.075,-88.204
11289,-0.1221,0.4390,-0.8853,-2.441,-5.554,-1.465,154.501,6.141,-88.215
11299,-0.1240,0.4380,-0.8721,-2.441,-4.883,-1.526,154.462,6.202,-88.226
11309,-0.1260,0.4375,-0.8643,-2.380,-3.479,-1.648,154.424,6.257,-88.226
11319,-0.1250,0.4390,-0.8647,-2.197,-1.770,-1.770,154.391,6.290,-88.215
11329,-0.1206,0.4409,-0.8691,-1.648,0.244,-1.831,154.363,6.301,-88.198
11339,-0.1167,0.4429,-0.8770,-1.099,2.075,-1.953,154.341,6.295,-88.171
11349,-0.1138,0.4473,-0.8877,-0.305,3.418,-1.953,154.336,6.279,-88.138
11359,-0.1113,0.4458,-0.8994,0.488,4.333,-2.014,154.336,6.246,-88.099
11369,-0.1118,0.4443,-0.9136,0.916,4.883,-2.197,154.347,6.213,-88.061
11379,-0.1118,0.4434,-0.9243,0.732,5.066,-2.441,154.358,6.180,-88.017
11389,-0.1099,0.4443,-0.9385,0.366,4.700,-2.747,154.369,6.147,-87.968
11399,-0.1055,0.4453,-0.9429,-0.122,3.845,-2.930,154.374,6.119,-87.929
11409,-0.1006,0.4438,-0.9473,-0.427,2.563,-3.113,154.380,6.108,-87.885
11419,-0.0977,0.4399,-0.9512,-0.244,1.160,-3.296,154.391,6.103,-87.852
11429,-0.0981,0.4341,-0.9492,-0.244,-0.549,-3.479,154.402,6.114,-87.825
11439,-0.0986,0.4248,-0.9443,0.549,-1.465,-3.601,154.424,6.136,-87.797
11449,-0.0977,0.4155,-0.9375,0.061,-1.953,-3.601,154.446,6.163,-87.775
11459,-0.0962,0.4092,-0.9316,-1.587,-2.930,-3.418,154.451,6.196,-87.753
11469,-0.0977,0.4058,-0.9263,-2.258,-3.723,-2.991,154.446,6.235,-87.742
11479,-0.0957,0.4067,-0.9219,-2.869,-3.662,-2.441,154.435,6.268,-87.737
11489,-0.0986,0.4072,-0.9150,-2.625,-2.991,-1.831,154.424,6.295,-87.731
11499,-0.0972,0.4023,-0.9111,-1.160,-2.136,-1.343,154.435,6.317,-87.731
11509,-0.0967,0.4019,-0.9072,-0.122,-1.831,-0.732,154.446,6.328,-87.731
11519,-0.0981,0.4033,-0.9063,0.549,-1.465,-0.061,154.468,6.334,-87.737
11529,-0.0977,0.4043,-0.9077,0.549,-1.282,0.610,154.490,6.334,-87.748
11539,-0.0996,0.4102,-0.9102,0.732,-0.916,1.221,154.506,6.334,-87.764
11549,-0.1001,0.4185,-0.9141,0.732,-0.488,1.770,154.517,6.323,-87.781
11559,-0.1021,0.4263,-0.9126,0.488,-0.122,2.380,154.528,6.306,-87.803
11569,-0.1069,0.4336,-0.9155,0.305,-0.122,2.686,154.528,6.295,-87.830
11579,-0.1123,0.4404,-0.9146,0.000,-0.305,2.869,154.523,6.284,-87.858
11589,-0.1177,0.4502,-0.9131,-0.366,-0.610,2.808,154.506,6.284,-87.885
11599,-0.1211,0.4561,-0.9097,-0.427,-0.671,2.502,154.490,6.284,-87.913
11609,-0.1187,0.4619,-0.9097,-0.366,-0.732,2.014,154.468,6.284,-87.935
11620,-0.1167,0.4692,-0.9092,-0.183,-0.732,1.404,154.451,6.284,-87.946
11629,-0.1152,0.4683,-0.9111,0.122,-0.671,0.732,154.435,6.290,-87.957
11639,-0.1055,0.4707,-0.9111,0.305,-0.366,0.061,154.418,6.290,-87.962
11649,-0.1079,0.4717,-0.9077,0.000,-0.549,-0.366,154.396,6.295,-87.957
11659,-0.1094,0.4648,-0.9102,0.305,-0.366,-0.977,154.391,6.301,-87.951
11669,-0.1050,0.4595,-0.9155,0.488,0.183,-1.526,154.385,6.301,-87.935
11679,-0.1060,0.4556,-0.9126,0.061,0.610,-1.892,154.380,6.301,-87.918
11689,-0.1104,0.4468,-0.9126,0.000,0.854,-2.258,154.374,6.301,-87.891
11699,-0.1147,0.4390,-0.9131,-0.183,0.916,-2.441,154.374,6.301,-87.869
11709,-0.1152,0.4321,-0.9136,-0.244,0.977,-2.563,154.380,6.306,-87.841
11719,-0.1182,0.4282,-0.9150,0.122,1.038,-2.686,154.391,6.312,-87.808
11729,-0.1196,0.4229,-0.9194,0.549,0.977,-2.625,154.407,6.317,-87.781
11739,-0.1172,0.4214,-0.9233,0.732,0.977,-2.502,154.429,6.323,-87.753
11749,-0.1157,0.4209,-0.9292,0.732,0.793,-2.380,154.451,6.328,-87.731
11759,-0.1123,0.4180,-0.9321,0.488,0.366,-2.319,154.473,6.334,-87.709
11769,-0.1133,0.4175,-0.9312,0.061,-0.122,-2.258,154.490,6.345,-87.687
11779,-0.1157,0.4185,-0.9243,-0.427,-0.793,-2.136,154.495,6.361,-87.671
11789,-0.1167,0.4229,-0.9204,-0.610,-1.282,-2.014,154.501,6.383,-87.660
11799,-0.1128,0.4238,-0.9243,0.122,-1.526,-1.892,154.512,6.405,-87.649
11809,-0.1064,0.4214,-0.9233,1.038,-1.282,-1.831,154.534,6.422,-87.638
11819,-0.1074,0.4185,-0.9170,0.854,-1.160,-1.648,154.550,6.438,-87.627
11829,-0.1094,0.4170,-0.9155,0.488,-1.221,-1.587,154.567,6.449,-87.616
11839,-0.1040,0.4170,-0.9189,-0.061,-1.221,-1.465,154.578,6.460,-87.610
11849,-0.1060,0.4199,-0.9185,-0.793,-0.977,-1.160,154.578,6.471,-87.605
11859,-0.1064,0.4238,-0.9155,-0.732,-0.671,-0.793,154.578,6.476,-87.599
11869,-0.1069,0.4248,-0.9141,-0.061,-0.732,-0.488,154.583,6.482,-87.599
11879,-0.1064,0.4243,-0.9116,0.427,-0.854,-0.183,154.589,6.487,-87.599
11889,-0.1060,0.4238,-0.9170,0.854,-0.793,0.061,154.605,6.487,-87.605
11899,-0.1084,0.4199,-0.9131,1.038,-0.549,0.305,154.622,6.487,-87.610
11909,-0.1094,0.4209,-0.9126,0.854,-0.305,0.488,154.638,6.487,-87.616
11919,-0.1089,0.4233,-0.9121,0.488,-0.122,0.671,154.644,6.482,-87.621
11929,-0.1113,0.4268,-0.9150,0.427,-0.183,0.977,154.649,6.476,-87.632
11939,-0.1094,0.4272,-0.9180,0.854,-0.061,1.099,154.660,6.471,-87.643
11949,-0.1118,0.4268,-0.9214,1.343,0.061,1.160,154.677,6.460,-87.654
11959,-0.1143,0.4229,-0.9219,1.709,0.183,1.160,154.704,6.454,-87.660
11969,-0.1182,0.4194,-0.9282,1.648,0.000,1.282,154.726,6.449,-87.671
11979,-0.1191,0.4185,-0.9272,1.343,-0.366,1.404,154.748,6.449,-87.687
11989,-0.1177,0.4189,-0.9282,0.854,-0.916,1.648,154.764,6.454,-87.709
11999,-0.1177,0.4229,-0.9263,0.549,-1.587,1.953,154.775,6.460,-87.731
12009,-0.1157,0.4243,-0.9263,0.488,-2.258,2.136,154.781,6.471,-87.759
12019,-0.1138,0.4272,-0.9253,0.366,-2.869,2.258,154.786,6.487,-87.792
12029,-0.1143,0.4312,-0.9214,0.122,-3.296,2.441,154.786,6.504,-87.830
12039,-0.1143,0.4341,-0.9136,-0.427,-3.662,2.686,154.775,6.526,-87.869
12049,-0.1157,0.4404,-0.9058,-0.610,-3.418,2.747,154.753,6.548,-87.907
12059,-0.1157,0.4458,-0.9043,-0.793,-2.930,2.747,154.731,6.559,-87.946
12069,-0.1196,0.4512,-0.8979,-0.916,-2.502,2.747,154.704,6.575,-87.984
12079,-0.1235,0.4517,-0.8926,-0.610,-2.197,2.563,154.682,6.586,-88.017
12089,-0.1299,0.4521,-0.8882,-0.427,-1.892,2.258,154.655,6.603,-88.044
12099,-0.1294,0.4556,-0.8877,-0.244,-1.282,1.953,154.633,6.614,-88.066
12109,-0.1274,0.4580,-0.8882,0.183,-0.305,1.648,154.616,6.614,-88.083
12120,-0.1235,0.4585,-0.8950,0.549,0.610,1.343,154.600,6.608,-88.094
12129,-0.1226,0.4561,-0.8989,1.038,1.465,0.977,154.594,6.592,-88.094
12139,-0.1206,0.4541,-0.9058,1.343,1.953,0.549,154.600,6.575,-88.094
12149,-0.1187,0.4492,-0.9087,1.343,2.075,0.305,154.605,6.559,-88.088
12159,-0.1177,0.4448,-0.9136,1.160,1.892,0.000,154.611,6.542,-88.077
12169,-0.1162,0.4409,-0.9170,0.916,1.587,-0.244,154.616,6.526,-88.066
12179,-0.1143,0.4395,-0.9155,0.671,1.160,-0.366,154.622,6.515,-88.061
12189,-0.1167,0.4399,-0.9155,0.671,0.854,-0.366,154.627,6.509,-88.055
12199,-0.1172,0.4360,-0.9175,0.793,0.793,-0.366,154.633,6.509,-88.044
12209,-0.1187,0.4336,-0.9155,0.854,0.854,-0.366,154.644,6.504,-88.039
12219,-0.1196,0.4307,-0.9165,0.916,0.854,-0.305,154.655,6.498,-88.033
12229,-0.1191,0.4302,-0.9160,0.916,0.977,-0.244,154.666,6.493,-88.028
12239,-0.1143,0.4292,-0.9150,0.793,0.977,-0.244,154.677,6.487,-88.022
12249,-0.1167,0.4282,-0.9131,0.488,0.610,-0.244,154.687,6.482,-88.017
12259,-0.1177,0.4302,-0.9116,0.122,0.122,-0.122,154.687,6.482,-88.011
12269,-0.1182,0.4331,-0.9092,-0.061,-0.122,0.061,154.682,6.487,-88.017
12279,-0.1196,0.4360,-0.9048,-0.061,0.244,0.183,154.682,6.487,-88.017
12289,-0.1187,0.4385,-0.9014,-0.122,0.854,0.305,154.671,6.482,-88.017
12299,-0.1182,0.4399,-0.8999,-0.061,1.587,0.366,154.666,6.465,-88.011
12309,-0.1206,0.4399,-0.8994,-0.061,2.014,0.366,154.660,6.449,-88.006
12319,-0.1182,0.4434,-0.9072,-0.122,2.380,0.305,154.649,6.432,-88.000
12329,-0.1177,0.4424,-0.9141,0.000,2.930,0.000,154.649,6.405,-87.984
12339,-0.1162,0.4473,-0.9106,-0.305,2.869,-0.122,154.638,6.383,-87.973
12349,-0.1152,0.4502,-0.9121,-0.183,2.686,-0.488,154.627,6.361,-87.957
12359,-0.1152,0.4487,-0.9185,0.183,2.441,-0.977,154.627,6.345,-87.935
12369,-0.1123,0.4458,-0.9238,0.122,2.441,-1.404,154.627,6.328,-87.913
12379,-0.1094,0.4419,-0.9292,0.122,2.563,-1.770,154.627,6.312,-87.885
12389,-0.1069,0.4360,-0.9336,-0.122,2.258,-2.014,154.633,6.295,-87.858
12399,-0.1035,0.4302,-0.9360,-0.427,1.648,-2.136,154.638,6.284,-87.830
12409,-0.1006,0.4277,-0.9380,-0.671,0.793,-2.075,154.644,6.279,-87.808
12419,-0.0991,0.4238,-0.9360,-0.793,0.000,-2.014,154.649,6.279,-87.792
12429,-0.1001,0.4180,-0.9336,-0.916,-0.732,-1.831,154.655,6.284,-87.775
12439,-0.0986,0.4141,-0.9312,-1.099,-0.977,-1.648,154.655,6.295,-87.770
12449,-0.0981,0.4121,-0.9258,-1.282,-1.038,-1.343,154.660,6.301,-87.759
12459,-0.0972,0.4116,-0.9214,-1.465,-1.099,-0.977,154.655,6.306,-87.753
12469,-0.0981,0.4126,-0.9185,-1.526,-1.221,-0.610,154.655,6.312,-87.753
12479,-0.0996,0.4126,-0.9189,-1.343,-1.160,-0.122,154.649,6.317,-87.759
12489,-0.1025,0.4160,-0.9131,-1.099,-1.099,0.366,154.649,6.323,-87.764
12499,-0.1064,0.4185,-0.9102,-0.671,-1.038,0.732,154.644,6.323,-87.781
12509,-0.1089,0.4224,-0.9106,-0.244,-0.854,0.977,154.649,6.328,-87.792
12519,-0.1133,0.4233,-0.9126,-0.061,-0.610,1.221,154.649,6.328,-87.803
12529,-0.1157,0.4297,-0.9131,-0.061,-0.183,1.343,154.649,6.328,-87.819
12539,-0.1143,0.4365,-0.9146,-0.122,0.061,1.343,154.644,6.323,-87.830
12549,-0.1143,0.4414,-0.9165,0.061,0.000,1.099,154.644,6.317,-87.841
12559,-0.1172,0.4438,-0.9194,0.183,-0.244,0.793,154.638,6.317,-87.847
12569,-0.1177,0.4458,-0.9185,0.061,-0.427,0.549,154.633,6.323,-87.852
12579,-0.1187,0.4434,-0.9170,-0.183,-0.671,0.427,154.627,6.328,-87.863
12589,-0.1196,0.4434,-0.9131,-0.366,-0.977,0.305,154.616,6.339,-87.869
12599,-0.1201,0.4429,-0.9126,-0.305,-1.038,0.122,154.605,6.356,-87.874
12609,-0.1191,0.4453,-0.9136,-0.122,-0.793,0.061,154.600,6.361,-87.880
12620,-0.1187,0.4424,-0.9141,0.305,-0.549,-0.122,154.600,6.372,-87.880
12629,-0.1187,0.4390,-0.9116,0.488,-0.427,-0.366,154.600,6.383,-87.880
12639,-0.1191,0.4385,-0.9116,0.183,-0.610,-0.549,154.600,6.394,-87.874
12649,-0.1177,0.4360,-0.9121,-0.366,-0.732,-0.671,154.594,6.405,-87.874
12659,-0.1172,0.4360,-0.9116,-0.793,-0.671,-0.732,154.583,6.416,-87.869
12669,-0.1152,0.4390,-0.9116,-0.793,-0.366,-0.671,154.572,6.422,-87.863
12679,-0.1138,0.4380,-0.9150,-0.488,-0.061,-0.732,154.567,6.427,-87.858
12689,-0.1113,0.4380,-0.9189,-0.366,0.122,-0.854,154.567,6.427,-87.847
12699,-0.1133,0.4365,-0.9248,-0.244,-0.122,-1.038,154.567,6.432,-87.841
12709,-0.1167,0.4346,-0.9287,-0.793,-0.366,-1.160,154.561,6.438,-87.830
12719,-0.1187,0.4336,-0.9268,-1.587,-0.732,-1.282,154.550,6.454,-87.825
12729,-0.1172,0.4365,-0.9263,-2.319,-1.099,-1.221,154.534,6.471,-87.819
12739,-0.1143,0.4375,-0.9243,-2.563,-1.648,-1.160,154.506,6.487,-87.814
12749,-0.1157,0.4380,-0.9204,-2.502,-2.441,-1.099,154.484,6.515,-87.814
12759,-0.1157,0.4355,-0.9175,-2.197,-3.052,-1.221,154.462,6.548,-87.814
12769,-0.1162,0.4331,-0.9150,-2.014,-3.235,-1.343,154.446,6.581,-87.819
12779,-0.1128,0.4292,-0.9092,-2.197,-3.174,-1.343,154.424,6.614,-87.819
12789,-0.1118,0.4312,-0.9043,-2.380,-2.991,-1.160,154.402,6.641,-87.819
12799,-0.1123,0.4326,-0.8965,-2.319,-2.747,-0.977,154.380,6.669,-87.825
12809,-0.1172,0.4326,-0.8936,-1.831,-2.075,-0.793,154.358,6.691,-87.825
12819,-0.1211,0.4331,-0.8931,-1.038,-1.038,-0.671,154.347,6.707,-87.825
12829,-0.1245,0.4287,-0.9014,-0.061,0.366,-0.732,154.347,6.707,-87.819
12839,-0.1260,0.4229,-0.9023,0.488,1.465,-0.732,154.358,6.707,-87.803
12849,-0.1260,0.4199,-0.9077,0.549,1.892,-0.549,154.374,6.696,-87.792
12859,-0.1211,0.4199,-0.9126,0.427,1.648,-0.305,154.391,6.685,-87.781
12869,-0.1211,0.4199,-0.9185,0.549,1.099,0.122,154.407,6.674,-87.775
12879,-0.1177,0.4199,-0.9214,0.671,0.732,0.488,154.424,6.663,-87.781
12889,-0.1138,0.4243,-0.9219,0.732,0.488,0.916,154.435,6.652,-87.786
12899,-0.1123,0.4268,-0.9199,0.793,0.183,1.221,154.451,6.647,-87.797
12909,-0.1104,0.4312,-0.9204,0.610,-0.061,1.343,154.462,6.636,-87.808
12919,-0.1108,0.4355,-0.9189,0.244,-0.244,1.282,154.462,6.625,-87.819
12929,-0.1094,0.4395,-0.9204,0.000,-0.244,1.099,154.462,6.619,-87.830
12939,-0.1118,0.4404,-0.9165,-0.061,-0.244,0.977,154.457,6.614,-87.841
12949,-0.1118,0.4419,-0.9141,0.061,-0.305,0.977,154.457,6.608,-87.852
12959,-0.1123,0.4438,-0.9136,0.366,-0.305,0.977,154.451,6.603,-87.863
12969,-0.1128,0.4424,-0.9116,0.488,-0.427,1.099,154.451,6.603,-87.874
12979,-0.1143,0.4429,-0.9072,0.549,-0.549,1.160,154.451,6.603,-87.885
12989,-0.1147,0.4478,-0.9082,0.488,-0.488,1.221,154.451,6.597,-87.902
12999,-0.1172,0.4487,-0.9087,0.610,-0.305,1.038,154.446,6.597,-87.913
13009,-0.1167,0.4502,-0.9092,0.732,0.122,0.916,154.446,6.592,-87.918
13019,-0.1177,0.4473,-0.9102,0.916,0.427,0.671,154.446,6.586,-87.924
13029,-0.1162,0.4434,-0.9111,0.977,0.427,0.488,154.451,6.575,-87.924
13039,-0.1167,0.4443,-0.9150,0.732,0.183,0.427,154.457,6.575,-87.929
13049,-0.1152,0.4429,-0.9150,0.549,0.000,0.549,154.457,6.570,-87.935
13059,-0.1157,0.4438,-0.9116,0.488,0.061,0.732,154.457,6.564,-87.940
13069,-0.1152,0.4468,-0.9126,0.549,0.122,0.732,154.457,6.559,-87.946
13079,-0.1162,0.4478,-0.9121,0.671,0.122,0.671,154.457,6.559,-87.951
13089,-0.1172,0.4502,-0.9155,0.671,-0.061,0.366,154.457,6.553,-87.957
13099,-0.1191,0.4502,-0.9146,0.427,-0.244,0.061,154.457,6.559,-87.957
13109,-0.1201,0.4487,-0.9126,0.122,-0.183,-0.244,154.451,6.564,-87.957
13120,-0.1191,0.4438,-0.9165,-0.183,-0.244,-0.427,154.446,6.570,-87.951
13129,-0.1206,0.4419,-0.9136,-0.305,-0.305,-0.488,154.440,6.575,-87.951
13139,-0.1211,0.4419,-0.9131,-0.244,-0.427,-0.488,154.435,6.581,-87.946
13149,-0.1211,0.4409,-0.9111,-0.061,-0.732,-0.427,154.435,6.592,-87.946
13159,-0.1211,0.4390,-0.9102,0.122,-0.977,-0.549,154.429,6.608,-87.946
13169,-0.1201,0.4404,-0.9121,0.000,-1.099,-0.732,154.429,6.625,-87.940
13179,-0.1216,0.4365,-0.9121,-0.305,-1.038,-0.854,154.429,6.636,-87.940
13189,-0.1216,0.4370,-0.9106,-0.671,-0.977,-0.977,154.418,6.652,-87.935
13199,-0.1226,0.4360,-0.9077,-0.916,-0.610,-1.099,154.413,6.663,-87.929
13209,-0.1240,0.4331,-0.9077,-0.610,-0.366,-1.099,154.407,6.680,-87.918
13219,-0.1235,0.4321,-0.9067,-0.244,-0.244,-1.099,154.407,6.685,-87.913
13229,-0.1201,0.4302,-0.9082,0.244,-0.244,-1.099,154.413,6.696,-87.902
13239,-0.1187,0.4287,-0.9121,0.732,-0.549,-1.221,154.424,6.707,-87.891
13249,-0.1182,0.4307,-0.9106,0.916,-1.099,-1.526,154.440,6.724,-87.885
13259,-0.1187,0.4297,-0.9155,0.854,-1.770,-1.587,154.451,6.746,-87.874
13269,-0.1191,0.4326,-0.9175,0.977,-2.258,-1.648,154.462,6.773,-87.874
13279,-0.1172,0.4336,-0.9185,1.343,-2.991,-1.831,154.479,6.806,-87.869
13289,-0.1143,0.4321,-0.9165,1.831,-3.967,-2.136,154.501,6.844,-87.863
13299,-0.1138,0.4277,-0.9238,3.235,-5.920,-3.235,154.539,6.905,-87.863
13309,-0.1187,0.4263,-0.9307,3.784,-8.362,-3.723,154.589,6.993,-87.863
13319,-0.1250,0.4272,-0.9331,3.784,-10.742,-3.601,154.633,7.103,-87.880
13329,-0.1265,0.4258,-0.9326,3.906,-13.123,-3.662,154.677,7.234,-87.902
13339,-0.1270,0.4307,-0.9331,2.258,-14.038,-3.967,154.698,7.377,-87.924
13349,-0.1328,0.4331,-0.9214,2.563,-14.404,-4.150,154.720,7.526,-87.951
13359,-0.1328,0.4214,-0.9175,2.319,-12.634,-3.418,154.748,7.652,-87.973
13369,-0.1367,0.4214,-0.9131,1.160,-11.230,-2.625,154.764,7.762,-87.995
13379,-0.1353,0.4204,-0.9072,0.793,-9.399,-2.075,154.770,7.855,-88.017
13389,-0.1328,0.4131,-0.9063,0.916,-7.385,-1.587,154.786,7.927,-88.039
13399,-0.1357,0.4092,-0.9043,0.732,-5.310,-0.793,154.797,7.976,-88.050
13409,-0.1357,0.4077,-0.8979,0.000,-3.235,-0.488,154.803,8.004,-88.061
13419,-0.1362,0.4155,-0.8936,-1.465,-1.221,0.305,154.792,8.015,-88.072
13429,-0.1392,0.4209,-0.8945,-1.404,0.549,0.671,154.775,8.009,-88.072
13439,-0.1387,0.4131,-0.8999,0.549,2.380,0.977,154.786,7.982,-88.072
13449,-0.1377,0.4077,-0.9058,1.892,3.723,1.587,154.819,7.938,-88.072
13459,-0.1392,0.4097,-0.9111,2.136,4.456,2.075,154.847,7.894,-88.072
13469,-0.1392,0.4155,-0.9155,2.014,4.883,2.502,154.874,7.839,-88.072
13479,-0.1387,0.4194,-0.9180,1.648,5.127,3.052,154.896,7.778,-88.077
13489,-0.1396,0.4229,-0.9204,1.404,5.310,3.479,154.913,7.718,-88.088
13499,-0.1377,0.4253,-0.9238,1.221,5.615,3.601,154.929,7.652,-88.094
13509,-0.1367,0.4268,-0.9219,1.099,5.981,3.662,154.940,7.581,-88.105
13519,-0.1318,0.4282,-0.9219,0.732,6.226,3.906,154.946,7.509,-88.110
13529,-0.1294,0.4312,-0.9189,0.427,6.287,4.150,154.951,7.432,-88.121
13539,-0.1274,0.4346,-0.9150,0.183,6.104,4.333,154.946,7.355,-88.138
13549,-0.1279,0.4365,-0.9121,0.122,5.859,4.395,154.940,7.284,-88.154
13559,-0.1323,0.4380,-0.9082,0.488,5.981,4.395,154.935,7.213,-88.165
13569,-0.1333,0.4380,-0.9102,0.732,6.348,4.395,154.935,7.141,-88.182
13579,-0.1348,0.4395,-0.9097,0.977,6.958,4.333,154.935,7.064,-88.193
13589,-0.1357,0.4375,-0.9067,1.099,7.812,4.150,154.940,6.982,-88.193
13599,-0.1338,0.4365,-0.9077,0.977,8.423,4.089,154.946,6.899,-88.198
13609,-0.1274,0.4375,-0.9058,0.793,8.850,3.967,154.946,6.806,-88.193
13620,-0.1211,0.4380,-0.9077,0.977,8.789,3.723,154.946,6.713,-88.193
13629,-0.1157,0.4346,-0.9116,1.831,8.118,2.808,154.962,6.625,-88.182
13639,-0.1157,0.4336,-0.9189,2.380,6.897,1.648,154.984,6.553,-88.165
13649,-0.1133,0.4321,-0.9243,2.197,5.493,0.977,155.006,6.498,-88.154
13659,-0.1113,0.4321,-0.9292,1.770,4.211,0.793,155.028,6.454,-88.143
13669,-0.1094,0.4336,-0.9321,1.160,3.113,0.671,155.039,6.422,-88.138
13679,-0.1079,0.4365,-0.9341,0.488,2.136,0.488,155.045,6.394,-88.132
13689,-0.1099,0.4360,-0.9316,0.305,1.160,0.244,155.045,6.378,-88.127
13699,-0.1123,0.4355,-0.9302,0.244,0.488,0.000,155.045,6.372,-88.127
13709,-0.1123,0.4326,-0.9282,0.061,0.000,-0.244,155.050,6.372,-88.121
13719,-0.1143,0.4302,-0.9258,-0.488,-0.488,-0.366,155.045,6.378,-88.121
13729,-0.1143,0.4287,-0.9248,-1.099,-0.854,-0.549,155.034,6.389,-88.121
13739,-0.1147,0.4277,-0.9224,-1.282,-1.282,-0.610,155.023,6.405,-88.121
13749,-0.1157,0.4263,-0.9189,-1.343,-1.587,-0.610,155.012,6.422,-88.121
13759,-0.1157,0.4219,-0.9155,-1.221,-1.587,-0.488,155.001,6.438,-88.127
13769,-0.1157,0.4233,-0.9126,-0.977,-1.404,-0.305,154.990,6.454,-88.127
13779,-0.1143,0.4233,-0.9102,-0.793,-1.160,-0.122,154.984,6.465,-88.132
13789,-0.1138,0.4248,-0.9097,-0.671,-0.916,0.061,154.973,6.476,-88.138
13799,-0.1113,0.4272,-0.9087,-0.671,-0.671,0.244,154.968,6.476,-88.143
13809,-0.1123,0.4302,-0.9097,-0.549,-0.305,0.427,154.957,6.476,-88.149
13819,-0.1128,0.4331,-0.9082,-0.427,0.122,0.549,154.946,6.471,-88.149
13829,-0.1133,0.4355,-0.9126,-0.061,0.610,0.549,154.940,6.465,-88.154
13839,-0.1138,0.4375,-0.9155,0.305,0.916,0.427,154.940,6.454,-88.154
13849,-0.1177,0.4385,-0.9189,0.610,1.038,0.305,154.940,6.443,-88.149
13859,-0.1206,0.4390,-0.9204,0.488,1.221,0.122,154.946,6.438,-88.149
13869,-0.1201,0.4375,-0.9238,0.244,1.221,-0.122,154.946,6.427,-88.143
13879,-0.1162,0.4341,-0.9243,0.000,0.854,-0.366,154.946,6.422,-88.132
13889,-0.1138,0.4326,-0.9243,-0.183,0.366,-0.549,154.940,6.422,-88.127
13899,-0.1128,0.4326,-0.9248,-0.244,-0.122,-0.671,154.940,6.422,-88.121
13909,-0.1123,0.4253,-0.9219,-0.305,-0.610,-0.671,154.940,6.432,-88.116
13919,-0.1123,0.4258,-0.9199,-0.366,-0.793,-0.549,154.940,6.438,-88.116
13929,-0.1147,0.4219,-0.9155,-0.427,-0.854,-0.488,154.940,6.449,-88.116
13939,-0.1167,0.4199,-0.9126,-0.366,-0.732,-0.610,154.940,6.460,-88.116
13949,-0.1167,0.4189,-0.9155,-0.244,-0.488,-0.793,154.940,6.471,-88.110
13959,-0.1157,0.4170,-0.9185,-0.183,-0.305,-0.732,154.946,6.476,-88.105
13969,-0.1167,0.4150,-0.9199,-0.305,-0.183,-0.610,154.951,6.482,-88.099
13979,-0.1133,0.4175,-0.9214,-0.610,-0.183,-0.366,154.951,6.482,-88.094
13989,-0.1113,0.4209,-0.9224,-0.793,-0.305,-0.061,154.951,6.487,-88.094
13999,-0.1118,0.4224,-0.9229,-0.671,-0.366,0.244,154.946,6.487,-88.099
14009,-0.1128,0.4224,-0.9209,-0.610,-0.488,0.427,154.946,6.487,-88.105
14019,-0.1138,0.4209,-0.9209,-0.488,-0.854,0.549,154.946,6.493,-88.116
14029,-0.1162,0.4233,-0.9185,-0.610,-1.282,0.610,154.940,6.498,-88.127
14039,-0.1167,0.4268,-0.9165,-0.916,-1.648,0.732,154.929,6.515,-88.138
14049,-0.1191,0.4282,-0.9160,-0.977,-1.709,0.854,154.918,6.526,-88.154
14059,-0.1201,0.4292,-0.9126,-0.793,-1.526,0.854,154.907,6.537,-88.171
14069,-0.1191,0.4302,-0.9121,-0.549,-1.038,0.854,154.902,6.548,-88.182
14079,-0.1201,0.4307,-0.9097,-0.244,-0.610,0.854,154.896,6.553,-88.193
14089,-0.1172,0.4307,-0.9063,0.061,-0.488,0.671,154.891,6.553,-88.198
14099,-0.1167,0.4297,-0.9111,0.122,-0.549,0.610,154.891,6.559,-88.209
14109,-0.1162,0.4307,-0.9106,0.000,-0.549,0.610,154.885,6.559,-88.215
14120,-0.1138,0.4312,-0.9126,-0.061,-0.305,0.671,154.885,6.559,-88.226
14129,-0.1152,0.4336,-0.9141,0.000,0.122,0.793,154.880,6.553,-88.231
14139,-0.1162,0.4341,-0.9116,0.366,0.671,0.916,154.880,6.542,-88.237
14149,-0.1128,0.4351,-0.9111,0.854,1.099,1.099,154.885,6.526,-88.242
14159,-0.1128,0.4341,-0.9102,1.160,1.282,1.221,154.891,6.509,-88.248
14169,-0.1133,0.4346,-0.9126,1.465,1.160,1.160,154.902,6.493,-88.253
14179,-0.1113,0.4360,-0.9165,1.282,1.099,1.038,154.907,6.476,-88.259
14189,-0.1118,0.4385,-0.9185,1.038,1.099,0.854,154.913,6.460,-88.259
14199,-0.1143,0.4390,-0.9209,0.977,1.038,0.610,154.918,6.449,-88.259
14209,-0.1152,0.4395,-0.9199,0.916,0.916,0.366,154.924,6.438,-88.259
14219,-0.1191,0.4360,-0.9180,0.793,0.671,0.122,154.929,6.432,-88.259
14229,-0.1182,0.4346,-0.9194,0.549,0.488,-0.061,154.935,6.432,-88.253
14239,-0.1196,0.4331,-0.9185,0.366,0.427,-0.183,154.935,6.432,-88.253
14249,-0.1172,0.4302,-0.9170,0.183,0.183,-0.305,154.935,6.432,-88.248
14259,-0.1138,0.4272,-0.9136,-0.061,0.000,-0.305,154.935,6.432,-88.248
14269,-0.1118,0.4253,-0.9121,-0.244,-0.061,-0.244,154.935,6.438,-88.242
14279,-0.1128,0.4263,-0.9082,-0.244,0.061,0.000,154.929,6.432,-88.242
14289,-0.1123,0.4292,-0.9043,0.122,0.305,0.122,154.929,6.432,-88.242
14299,-0.1147,0.4321,-0.9067,0.977,0.854,0.244,154.935,6.422,-88.242
14309,-0.1147,0.4258,-0.9082,1.953,1.587,0.366,154.957,6.411,-88.237
14319,-0.1167,0.4243,-0.9082,1.892,2.075,0.183,154.973,6.394,-88.231
14329,-0.1187,0.4238,-0.9111,1.465,2.625,-0.061,154.990,6.372,-88.220
14339,-0.1196,0.4233,-0.9150,0.916,2.991,-0.244,155.001,6.350,-88.204
14349,-0.1182,0.4229,-0.9204,0.488,3.174,-0.427,155.012,6.328,-88.187
14359,-0.1147,0.4229,-0.9243,0.671,3.174,-0.488,155.028,6.301,-88.171
14369,-0.1133,0.4209,-0.9268,0.977,2.991,-0.488,155.045,6.279,-88.154
14379,-0.1108,0.4165,-0.9292,1.343,2.563,-0.427,155.067,6.257,-88.138
14389,-0.1050,0.4102,-0.9297,1.343,2.136,-0.366,155.094,6.235,-88.127
14399,-0.1021,0.4102,-0.9326,1.038,1.709,-0.366,155.116,6.213,-88.116
14409,-0.1006,0.4092,-0.9321,0.671,1.343,-0.427,155.132,6.196,-88.105
14419,-0.0986,0.4092,-0.9316,0.244,1.160,-0.244,155.149,6.180,-88.099
14429,-0.0928,0.4082,-0.9297,0.122,1.038,0.061,155.160,6.163,-88.094
14439,-0.0942,0.4072,-0.9282,0.305,0.854,0.427,155.176,6.147,-88.094
14449,-0.0967,0.4087,-0.9292,0.549,0.610,0.854,155.193,6.130,-88.099
14459,-0.0977,0.4116,-0.9277,0.854,0.427,1.160,155.209,6.114,-88.110
14469,-0.1006,0.4111,-0.9268,1.160,0.305,1.404,155.226,6.103,-88.121
14479,-0.1011,0.4126,-0.9258,1.221,0.122,1.526,155.248,6.092,-88.132
14489,-0.1016,0.4165,-0.9253,0.977,0.000,1.526,155.259,6.081,-88.149
14499,-0.1030,0.4185,-0.9243,0.427,-0.122,1.587,155.264,6.070,-88.160
14509,-0.1045,0.4229,-0.9243,0.061,-0.244,1.709,155.264,6.064,-88.176
14519,-0.1035,0.4272,-0.9209,-0.122,-0.366,1.892,155.259,6.059,-88.198
14529,-0.1025,0.4331,-0.9185,0.061,-0.366,2.075,155.253,6.048,-88.220
14539,-0.1016,0.4331,-0.9185,0.366,-0.305,2.197,155.248,6.037,-88.242
14549,-0.1016,0.4351,-0.9189,0.549,-0.061,2.258,155.248,6.026,-88.259
14559,-0.1045,0.4380,-0.9180,0.549,0.122,2.075,155.242,6.015,-88.281
14569,-0.1050,0.4438,-0.9185,0.427,0.061,1.831,155.237,6.004,-88.297
14579,-0.1060,0.4468,-0.9204,0.244,-0.061,1.648,155.226,5.999,-88.308
14589,-0.1079,0.4458,-0.9194,0.183,-0.061,1.465,155.215,5.993,-88.325
14599,-0.1079,0.4468,-0.9214,0.183,0.183,1.160,155.204,5.988,-88.336
14609,-0.1094,0.4468,-0.9219,0.366,0.183,0.793,155.198,5.982,-88.341
14620,-0.1060,0.4443,-0.9258,0.488,0.000,0.427,155.193,5.982,-88.347
14629,-0.1079,0.4409,-0.9268,0.549,-0.244,0.000,155.193,5.982,-88.347
14639,-0.1060,0.4375,-0.9219,0.305,-0.488,-0.244,155.187,5.988,-88.347
14649,-0.1074,0.4331,-0.9214,-0.061,-0.793,-0.366,155.187,5.999,-88.347
14659,-0.1104,0.4287,-0.9214,-0.244,-1.099,-0.427,155.182,6.010,-88.347
14669,-0.1138,0.4287,-0.9185,-0.244,-1.221,-0.366,155.176,6.026,-88.347
14679,-0.1133,0.4287,-0.9141,-0.183,-1.099,-0.305,155.171,6.042,-88.352
14689,-0.1138,0.4258,-0.9146,0.000,-0.854,-0.244,155.171,6.053,-88.352
14699,-0.1143,0.4263,-0.9121,0.122,-0.732,-0.244,155.171,6.064,-88.352
14709,-0.1157,0.4277,-0.9131,0.122,-0.488,-0.305,155.165,6.075,-88.352
14719,-0.1138,0.4243,-0.9165,-0.122,-0.305,-0.427,155.165,6.086,-88.347
14729,-0.1123,0.4258,-0.9170,-0.488,-0.366,-0.610,155.160,6.092,-88.347
14739,-0.1138,0.4272,-0.9175,-0.854,-0.488,-0.732,155.154,6.103,-88.341
14749,-0.1108,0.4263,-0.9165,-1.038,-0.610,-0.793,155.143,6.114,-88.336
14759,-0.1123,0.4292,-0.9146,-1.099,-0.610,-0.854,155.127,6.125,-88.330
14769,-0.1133,0.4297,-0.9175,-0.977,-0.610,-0.977,155.116,6.136,-88.325
14779,-0.1152,0.4287,-0.9141,-0.732,-0.488,-1.099,155.105,6.152,-88.314
14789,-0.1152,0.4302,-0.9146,-0.549,-0.305,-1.221,155.099,6.163,-88.308
14799,-0.1143,0.4302,-0.9131,-0.549,-0.244,-1.282,155.094,6.174,-88.297
14809,-0.1133,0.4292,-0.9121,-0.671,-0.305,-1.465,155.083,6.185,-88.281
14819,-0.1108,0.4307,-0.9121,-0.854,-0.427,-1.587,155.072,6.196,-88.270
14829,-0.1123,0.4282,-0.9131,-0.916,-0.427,-1.648,155.067,6.207,-88.259
14839,-0.1147,0.4268,-0.9111,-0.854,-0.061,-1.709,155.056,6.218,-88.242
14849,-0.1152,0.4224,-0.9160,-0.610,0.610,-1.831,155.056,6.224,-88.220
14859,-0.1108,0.4204,-0.9141,-0.122,1.343,-1.831,155.056,6.218,-88.198
14869,-0.1089,0.4155,-0.9175,0.305,1.831,-1.831,155.067,6.207,-88.176
14879,-0.1055,0.4106,-0.9199,0.427,1.892,-1.709,155.083,6.196,-88.154
14889,-0.1040,0.4082,-0.9219,0.366,1.587,-1.526,155.099,6.185,-88.132
14899,-0.1035,0.4077,-0.9243,0.122,1.282,-1.221,155.116,6.174,-88.116
14909,-0.1006,0.4072,-0.9253,0.183,1.160,-0.854,155.127,6.163,-88.105
14919,-0.1016,0.4072,-0.9224,0.427,1.160,-0.488,155.143,6.152,-88.094
14929,-0.1006,0.4087,-0.9253,0.671,1.221,-0.122,155.160,6.136,-88.088
14939,-0.0986,0.4106,-0.9277,0.977,1.404,0.183,155.182,6.119,-88.083
14949,-0.0996,0.4111,-0.9277,0.977,1.587,0.427,155.198,6.097,-88.077
14959,-0.0972,0.4131,-0.9292,0.854,1.465,0.549,155.215,6.075,-88.077
14969,-0.0996,0.4150,-0.9316,0.549,1.160,0.610,155.231,6.059,-88.077
14979,-0.1006,0.4185,-0.9351,0.183,0.793,0.732,155.237,6.042,-88.083
14989,-0.1045,0.4219,-0.9370,0.000,0.305,0.854,155.242,6.031,-88.088
14999,-0.1030,0.4219,-0.9331,0.000,-0.244,0.916,155.248,6.031,-88.099
15009,-0.1030,0.4233,-0.9321,0.122,-0.854,0.977,155.248,6.031,-88.110
15019,-0.1055,0.4238,-0.9282,0.244,-1.343,1.099,155.253,6.037,-88.127
15029,-0.1030,0.4258,-0.9233,0.183,-1.587,1.221,155.253,6.042,-88.143
15039,-0.1055,0.4277,-0.9204,0.122,-1.587,1.221,155.248,6.053,-88.160
15049,-0.1074,0.4277,-0.9146,0.000,-1.465,1.160,155.242,6.059,-88.182
15059,-0.1104,0.4282,-0.9160,0.000,-1.221,1.099,155.242,6.070,-88.193
15069,-0.1084,0.4302,-0.9160,-0.122,-0.977,0.977,155.231,6.075,-88.209
15079,-0.1099,0.4297,-0.9165,-0.183,-0.793,0.854,155.226,6.075,-88.220
15089,-0.1079,0.4312,-0.9185,-0.183,-0.549,0.854,155.220,6.081,-88.231
15099,-0.1104,0.4307,-0.9170,0.000,-0.427,0.854,155.215,6.081,-88.237
15109,-0.1104,0.4307,-0.9160,0.061,-0.305,0.793,155.209,6.081,-88.248
15120,-0.1113,0.4326,-0.9165,0.000,-0.366,0.793,155.204,6.081,-88.253
15129,-0.1104,0.4351,-0.9160,-0.061,-0.610,0.793,155.198,6.086,-88.264
15139,-0.1143,0.4375,-0.9170,-0.061,-0.671,0.671,155.187,6.092,-88.275
15149,-0.1133,0.4375,-0.9170,0.000,-0.549,0.488,155.182,6.097,-88.281
15159,-0.1138,0.4380,-0.9165,0.061,-0.305,0.366,155.176,6.103,-88.286
15169,-0.1128,0.4365,-0.9150,0.183,-0.061,0.122,155.171,6.103,-88.286
15179,-0.1162,0.4326,-0.9146,0.061,0.000,-0.305,155.165,6.108,-88.286
15189,-0.1177,0.4321,-0.9131,-0.244,-0.122,-0.671,155.160,6.119,-88.281
15199,-0.1162,0.4282,-0.9136,-0.610,-0.305,-0.854,155.149,6.130,-88.270
15209,-0.1152,0.4292,-0.9126,-0.732,-0.305,-0.916,155.138,6.141,-88.264
15219,-0.1123,0.4302,-0.9116,-0.610,-0.122,-0.977,155.132,6.147,-88.259
15229,-0.1108,0.4302,-0.9160,-0.305,0.061,-1.038,155.127,6.152,-88.248
15239,-0.1118,0.4287,-0.9170,0.122,0.305,-1.099,155.127,6.158,-88.237
15249,-0.1113,0.4258,-0.9214,0.427,0.488,-1.221,155.132,6.158,-88.220
15259,-0.1064,0.4219,-0.9229,0.427,0.610,-1.343,155.143,6.158,-88.209
15269,-0.1050,0.4189,-0.9229,0.061,0.488,-1.465,155.149,6.158,-88.193
15279,-0.1069,0.4170,-0.9224,-0.488,0.122,-1.343,155.149,6.158,-88.182
15289,-0.1099,0.4146,-0.9258,-0.916,-0.122,-1.221,155.149,6.163,-88.171
15299,-0.1128,0.4136,-0.9248,-1.099,-0.183,-1.099,155.149,6.174,-88.160
15309,-0.1143,0.4111,-0.9258,-0.916,0.000,-0.916,155.149,6.180,-88.149
15319,-0.1108,0.4092,-0.9238,-0.549,0.183,-0.732,155.154,6.180,-88.143
15329,-0.1094,0.4092,-0.9219,-0.366,0.183,-0.427,155.160,6.185,-88.138
15339,-0.1074,0.4092,-0.9233,-0.366,-0.183,-0.183,155.165,6.185,-88.138
15349,-0.1079,0.4082,-0.9199,-0.366,-0.610,0.122,155.171,6.191,-88.143
15359,-0.1089,0.4106,-0.9180,-0.549,-0.854,0.488,155.171,6.196,-88.149
15369,-0.1045,0.4165,-0.9160,-0.610,-0.793,0.793,155.165,6.196,-88.160
15379,-0.1025,0.4199,-0.9160,-0.366,-0.610,0.977,155.165,6.191,-88.171
15389,-0.1055,0.4224,-0.9146,-0.122,-0.366,1.038,155.165,6.191,-88.182
15399,-0.1060,0.4253,-0.9165,0.061,0.000,1.038,155.160,6.185,-88.193
15409,-0.1060,0.4272,-0.9185,0.061,0.366,0.977,155.160,6.174,-88.198
15419,-0.1050,0.4297,-0.9165,-0.061,0.427,0.793,155.154,6.163,-88.204
15429,-0.1045,0.4297,-0.9204,-0.122,0.366,0.671,155.154,6.152,-88.209
15439,-0.1021,0.4326,-0.9214,-0.122,0.305,0.732,155.149,6.147,-88.215
15450,-0.1025,0.4316,-0.9209,0.061,0.122,0.732,155.143,6.136,-88.220
15460,-0.1035,0.4326,-0.9194,0.183,-0.061,0.732,155.143,6.130,-88.226
15470,-0.1045,0.4351,-0.9219,0.366,-0.122,0.671,155.143,6.125,-88.237
15479,-0.1050,0.4375,-0.9219,0.549,0.000,0.549,155.143,6.119,-88.242
15490,-0.1050,0.4360,-0.9233,0.732,0.061,0.305,155.143,6.119,-88.242
15499,-0.1060,0.4297,-0.9248,0.610,0.000,0.122,155.149,6.114,-88.242
15509,-0.1060,0.4268,-0.9224,0.183,-0.122,0.000,155.149,6.114,-88.242
15519,-0.1099,0.4263,-0.9209,-0.244,-0.366,0.000,155.149,6.119,-88.248
15529,-0.1108,0.4229,-0.9180,-0.366,-0.610,0.122,155.143,6.125,-88.248
15540,-0.1128,0.4204,-0.9170,-0.183,-0.732,0.244,155.143,6.130,-88.253
15550,-0.1118,0.4214,-0.9165,0.244,-0.671,0.427,155.149,6.141,-88.264
15560,-0.1123,0.4209,-0.9141,0.671,-0.366,0.610,155.154,6.141,-88.270
15570,-0.1128,0.4204,-0.9141,0.793,-0.183,0.732,155.165,6.141,-88.275
15580,-0.1118,0.4204,-0.9155,0.732,-0.122,0.793,155.171,6.141,-88.286
15590,-0.1143,0.4224,-0.9175,0.366,-0.061,0.854,155.176,6.141,-88.292
15600,-0.1182,0.4248,-0.9116,0.122,-0.061,0.854,155.176,6.147,-88.303
15610,-0.1196,0.4263,-0.9097,0.183,0.122,0.854,155.171,6.147,-88.308
15620,-0.1211,0.4272,-0.9097,0.366,0.244,0.854,155.171,6.147,-88.314
15629,-0.1201,0.4316,-0.9111,0.610,0.305,0.854,155.171,6.147,-88.319
15639,-0.1157,0.4351,-0.9106,0.732,0.244,0.854,155.171,6.147,-88.325
15650,-0.1138,0.4370,-0.9136,0.671,0.305,0.732,155.171,6.141,-88.330
15660,-0.1128,0.4404,-0.9141,0.488,0.488,0.549,155.165,6.141,-88.336
15670,-0.1108,0.4434,-0.9146,0.305,0.671,0.305,155.160,6.130,-88.336
15680,-0.1138,0.4438,-0.9219,0.305,0.854,-0.061,155.154,6.125,-88.330
15690,-0.1128,0.4429,-0.9199,0.488,1.160,-0.549,155.149,6.119,-88.319
15700,-0.1079,0.4380,-0.9204,0.366,1.099,-0.793,155.149,6.114,-88.308
15710,-0.1079,0.4331,-0.9204,0.427,0.854,-0.977,155.154,6.108,-88.297
15720,-0.1094,0.4272,-0.9214,0.549,0.549,-1.099,155.160,6.108,-88.286
15729,-0.1089,0.4233,-0.9204,0.488,0.549,-1.282,155.165,6.108,-88.270
15740,-0.1094,0.4199,-0.9194,0.549,0.854,-1.343,155.176,6.108,-88.253
15749,-0.1050,0.4160,-0.9180,0.610,1.160,-1.221,155.187,6.103,-88.237
15759,-0.1040,0.4106,-0.9170,0.671,1.099,-1.038,155.204,6.092,-88.226
15770,-0.1025,0.4092,-0.9165,0.549,0.916,-0.793,155.215,6.086,-88.215
15780,-0.1030,0.4087,-0.9194,0.488,0.793,-0.549,155.231,6.081,-88.204
15790,-0.0991,0.4106,-0.9248,0.427,0.916,-0.244,155.242,6.070,-88.198
15800,-0.0972,0.4111,-0.9253,0.610,1.221,-0.061,155.259,6.053,-88.193
15810,-0.0986,0.4087,-0.9263,0.854,1.587,0.122,155.275,6.031,-88.187
15820,-0.1030,0.4058,-0.9297,0.977,1.587,0.244,155.297,6.015,-88.182
15830,-0.1030,0.4053,-0.9302,0.854,1.465,0.366,155.319,5.999,-88.182
15840,-0.1021,0.4077,-0.9341,0.671,1.038,0.671,155.336,5.982,-88.182
15850,-0.1006,0.4111,-0.9355,0.793,0.610,0.916,155.352,5.971,-88.187
15860,-0.1025,0.4116,-0.9336,0.854,0.061,1.099,155.369,5.960,-88.198
15870,-0.1050,0.4150,-0.9336,0.732,-0.366,1.160,155.380,5.960,-88.209
15879,-0.1045,0.4160,-0.9316,0.366,-0.671,1.221,155.391,5.960,-88.226
15890,-0.1021,0.4199,-0.9287,-0.061,-0.977,1.221,155.391,5.960,-88.237
15900,-0.1040,0.4219,-0.9233,-0.305,-1.221,1.160,155.385,5.966,-88.253
15910,-0.1069,0.4229,-0.9189,-0.183,-1.465,1.160,155.380,5.977,-88.270
15920,-0.1084,0.4248,-0.9175,0.122,-1.587,1.160,155.380,5.988,-88.292
15930,-0.1113,0.4272,-0.9150,0.488,-1.404,1.099,155.380,5.999,-88.303
15939,-0.1133,0.4282,-0.9155,0.854,-0.732,0.916,155.380,6.004,-88.319
15950,-0.1128,0.4272,-0.9131,0.549,-0.183,0.793,155.380,6.004,-88.325
15959,-0.1133,0.4268,-0.9121,0.000,0.183,0.671,155.374,6.004,-88.330
15969,-0.1133,0.4248,-0.9146,0.000,0.427,0.488,155.374,6.004,-88.330
15980,-0.1128,0.4248,-0.9165,0.427,0.427,0.244,155.374,6.004,-88.336
15990,-0.1099,0.4224,-0.9160,0.610,0.488,0.183,155.380,5.999,-88.330
16000,-0.1084,0.4189,-0.9170,0.549,0.549,0.122,155.385,5.993,-88.330
16010,-0.1089,0.4185,-0.9180,0.366,0.610,0.122,155.391,5.993,-88.330
16020,-0.1040,0.4209,-0.9185,-0.122,0.793,0.183,155.391,5.982,-88.330
16030,-0.1001,0.4253,-0.9204,-0.549,0.916,0.244,155.380,5.971,-88.325
16040,-0.1016,0.4233,-0.9219,-0.244,1.160,0.244,155.380,5.955,-88.325
16050,-0.1030,0.4224,-0.9229,0.427,1.404,0.122,155.385,5.938,-88.319
16060,-0.1025,0.4209,-0.9258,0.916,1.526,0.061,155.396,5.922,-88.314
16069,-0.1006,0.4194,-0.9268,1.282,1.343,0.000,155.413,5.911,-88.308
16080,-0.1006,0.4180,-0.9268,1.099,0.793,-0.061,155.424,5.900,-88.303
16090,-0.1030,0.4185,-0.9297,0.305,0.183,0.061,155.429,5.894,-88.303
16100,-0.1064,0.4189,-0.9272,-0.427,0.061,0.061,155.429,5.894,-88.303
16110,-0.1035,0.4180,-0.9292,-0.732,0.244,0.122,155.424,5.894,-88.303
16120,-0.1025,0.4170,-0.9268,-0.488,0.366,0.244,155.424,5.889,-88.303
16129,-0.1011,0.4136,-0.9263,0.000,0.305,0.305,155.429,5.883,-88.308
16139,-0.0981,0.4146,-0.9253,0.549,0.000,0.366,155.440,5.878,-88.308
16150,-0.0981,0.4131,-0.9214,0.732,-0.488,0.549,155.451,5.878,-88.319
16160,-0.1011,0.4126,-0.9214,0.671,-0.732,0.793,155.462,5.878,-88.325
16170,-0.1016,0.4150,-0.9209,0.244,-0.610,0.977,155.462,5.878,-88.341
16180,-0.1001,0.4185,-0.9170,-0.061,-0.122,1.221,155.462,5.872,-88.352
16190,-0.0996,0.4219,-0.9141,0.061,0.366,1.404,155.457,5.861,-88.363
16200,-0.1016,0.4258,-0.9155,0.488,0.671,1.465,155.457,5.845,-88.374
16210,-0.1025,0.4302,-0.9180,1.099,0.854,1.465,155.462,5.834,-88.380
16220,-0.1030,0.4316,-0.9224,1.526,0.854,1.343,155.473,5.817,-88.391
16230,-0.1021,0.4341,-0.9258,1.404,0.916,1.221,155.479,5.806,-88.396
16240,-0.1045,0.4341,-0.9263,1.099,0.854,1.038,155.484,5.790,-88.401
16250,-0.1035,0.4351,-0.9316,0.549,0.671,0.732,155.484,5.784,-88.407
16260,-0.1035,0.4375,-0.9321,0.000,0.305,0.427,155.479,5.779,-88.412
16270,-0.1045,0.4370,-0.9302,-0.366,-0.305,0.183,155.468,5.779,-88.412
16280,-0.1050,0.4341,-0.9297,-0.061,-0.977,0.000,155.462,5.790,-88.418
16290,-0.1055,0.4341,-0.9238,0.061,-1.343,-0.244,155.457,5.806,-88.423
16300,-0.1084,0.4331,-0.9189,0.122,-1.526,-0.427,155.451,5.823,-88.423
16310,-0.1060,0.4307,-0.9136,0.061,-1.648,-0.427,155.440,5.839,-88.429
16320,-0.1094,0.4312,-0.9141,0.000,-1.465,-0.427,155.435,5.861,-88.429
16330,-0.1074,0.4316,-0.9111,-0.061,-0.977,-0.488,155.424,5.872,-88.429
16340,-0.1055,0.4326,-0.9092,0.061,-0.366,-0.549,155.418,5.878,-88.423
16350,-0.1050,0.4307,-0.9092,0.305,0.122,-0.671,155.413,5.883,-88.418
16360,-0.1060,0.4282,-0.9097,0.610,0.427,-0.854,155.413,5.883,-88.407
16370,-0.1079,0.4302,-0.9116,0.854,0.671,-1.038,155.418,5.883,-88.396
16380,-0.1104,0.4287,-0.9155,0.916,0.916,-1.221,155.424,5.883,-88.380
16390,-0.1108,0.4268,-0.9155,0.793,1.221,-1.343,155.429,5.883,-88.363
16400,-0.1133,0.4219,-0.9165,0.793,1.648,-1.465,155.440,5.878,-88.341
16410,-0.1147,0.4170,-0.9219,0.793,2.258,-1.648,155.451,5.872,-88.319
16420,-0.1143,0.4131,-0.9238,0.854,2.502,-1.709,155.468,5.861,-88.292
16430,-0.1113,0.4067,-0.9263,0.793,2.380,-1.648,155.484,5.850,-88.270
16440,-0.1108,0.4019,-0.9282,0.854,1.770,-1.648,155.506,5.845,-88.248
16450,-0.1094,0.4004,-0.9272,0.671,0.977,-1.587,155.528,5.845,-88.226
16460,-0.1074,0.4019,-0.9282,0.549,0.305,-1.404,155.544,5.850,-88.215
16470,-0.1025,0.4004,-0.9277,0.427,0.183,-1.099,155.561,5.850,-88.204
16480,-0.0977,0.4023,-0.9268,0.427,0.549,-0.732,155.572,5.845,-88.193
16490,-0.0933,0.4062,-0.9258,0.549,0.916,-0.488,155.588,5.834,-88.187
16500,-0.0918,0.4111,-0.9287,0.916,1.099,-0.305,155.605,5.817,-88.176
16510,-0.0952,0.4160,-0.9253,1.282,0.977,-0.244,155.616,5.806,-88.171
16520,-0.0918,0.4150,-0.9355,2.014,0.854,-0.366,155.643,5.795,-88.165
16530,-0.0898,0.4121,-0.9419,2.563,1.099,-0.610,155.676,5.779,-88.154
16540,-0.0908,0.4116,-0.9399,2.014,0.916,-0.610,155.704,5.768,-88.143
16550,-0.0933,0.4092,-0.9414,1.282,0.366,-0.488,155.726,5.757,-88.138
16560,-0.0962,0.4102,-0.9404,0.427,-0.488,-0.427,155.737,5.762,-88.138
16570,-0.0986,0.4116,-0.9375,-0.305,-1.221,-0.183,155.742,5.768,-88.138
16580,-0.0996,0.4111,-0.9341,-0.244,-1.709,0.061,155.742,5.784,-88.149
16590,-0.1035,0.4111,-0.9238,0.122,-2.014,0.305,155.742,5.801,-88.160
16600,-0.1030,0.4102,-0.9204,0.366,-2.197,0.488,155.748,5.817,-88.171
16610,-0.1011,0.4126,-0.9136,0.305,-2.258,0.671,155.748,5.834,-88.187
16620,-0.1016,0.4175,-0.9116,0.183,-2.136,0.854,155.748,5.850,-88.204
16630,-0.1011,0.4189,-0.9082,0.061,-1.587,0.916,155.742,5.861,-88.220
16640,-0.1011,0.4238,-0.9053,0.122,-0.854,0.977,155.731,5.867,-88.231
16650,-0.1006,0.4233,-0.9092,0.427,0.122,0.854,155.731,5.856,-88.237
16660,-0.1006,0.4233,-0.9106,0.732,1.160,0.671,155.731,5.845,-88.242
16670,-0.1045,0.4224,-0.9175,0.916,1.953,0.427,155.737,5.823,-88.237
16680,-0.1060,0.4204,-0.9224,1.099,2.441,0.244,155.742,5.801,-88.231
16690,-0.1069,0.4209,-0.9277,1.038,2.380,0.061,155.753,5.784,-88.220
16700,-0.1060,0.4209,-0.9312,1.160,2.075,-0.061,155.764,5.768,-88.209
16710,-0.1035,0.4175,-0.9326,1.221,1.709,-0.183,155.781,5.751,-88.204
16720,-0.1025,0.4155,-0.9336,0.977,1.160,-0.305,155.792,5.740,-88.193
16730,-0.1021,0.4121,-0.9346,0.793,0.793,-0.366,155.803,5.735,-88.187
16740,-0.1035,0.4092,-0.9346,0.305,0.366,-0.427,155.814,5.735,-88.182
16750,-0.1016,0.4097,-0.9355,-0.122,0.183,-0.488,155.819,5.735,-88.176
16760,-0.1030,0.4082,-0.9307,0.366,0.061,-0.488,155.825,5.735,-88.171
16770,-0.0996,0.4038,-0.9268,1.221,-0.244,-0.366,155.847,5.740,-88.171
16780,-0.0981,0.4014,-0.9219,1.526,-0.427,-0.122,155.869,5.740,-88.171
16790,-0.0981,0.4004,-0.9219,1.404,-0.488,0.122,155.885,5.746,-88.171
16800,-0.0986,0.3994,-0.9199,1.160,-0.427,0.366,155.901,5.746,-88.176
16810,-0.1006,0.4028,-0.9185,0.854,-0.183,0.610,155.918,5.746,-88.187
16820,-0.1021,0.4038,-0.9214,0.732,0.305,0.793,155.929,5.740,-88.193
16830,-0.1006,0.4072,-0.9258,1.160,0.916,0.977,155.940,5.724,-88.198
16840,-0.1001,0.4072,-0.9229,1.831,1.160,1.160,155.962,5.713,-88.204
16850,-0.1006,0.4082,-0.9248,2.075,1.038,1.343,155.984,5.696,-88.209
16860,-0.0991,0.4111,-0.9258,2.075,0.671,1.526,156.006,5.680,-88.220
16870,-0.1011,0.4136,-0.9272,1.770,0.305,1.587,156.017,5.674,-88.237
16880,-0.1045,0.4165,-0.9268,1.160,0.122,1.648,156.028,5.669,-88.248
16890,-0.1035,0.4199,-0.9263,0.549,0.366,1.587,156.028,5.658,-88.264
16900,-0.1030,0.4219,-0.9258,0.427,0.488,1.465,156.022,5.652,-88.275
16910,-0.1050,0.4229,-0.9272,0.488,0.427,1.343,156.022,5.641,-88.286
16920,-0.1045,0.4253,-0.9272,0.671,0.244,1.221,156.022,5.636,-88.297
