elapsed_ms,acc_x_g,acc_y_g,acc_z_g,gyro_x_dps,gyro_y_dps,gyro_z_dps,angle_x_deg,angle_y_deg,angle_z_deg
0,-0.2373,0.3696,-0.9360,-0.732,2.258,-2.502,159.631,11.882,-78.289
10,-0.2354,0.3647,-0.9399,0.061,2.869,-2.930,159.631,11.876,-78.250
20,-0.2393,0.3521,-0.9502,0.488,2.319,-3.601,159.642,11.882,-78.206
30,-0.2446,0.3423,-0.9556,0.061,1.465,-4.333,159.659,11.898,-78.157
40,-0.2480,0.3379,-0.9526,-1.404,0.305,-4.517,159.664,11.931,-78.113
50,-0.2437,0.3315,-0.9463,-2.380,-0.793,-4.639,159.659,11.970,-78.074
60,-0.2373,0.3276,-0.9434,-3.357,-1.953,-4.578,159.648,12.019,-78.036
70,-0.2378,0.3252,-0.9375,-3.540,-2.441,-4.395,159.631,12.068,-78.003
80,-0.2319,0.3159,-0.9292,-3.601,-2.930,-3.967,159.615,12.123,-77.975
90,-0.2358,0.3115,-0.9126,-4.150,-3.235,-3.113,159.593,12.178,-77.959
100,-0.2397,0.3115,-0.8979,-4.761,-3.601,-2.197,159.560,12.244,-77.948
110,-0.2510,0.3232,-0.8877,-5.371,-3.418,-1.465,159.510,12.305,-77.948
120,-0.2534,0.3306,-0.8843,-5.066,-2.136,-1.099,159.461,12.354,-77.943
130,-0.2544,0.3359,-0.8794,-3.784,0.000,-0.977,159.423,12.387,-77.937
140,-0.2524,0.3340,-0.8735,-2.625,1.831,-0.732,159.395,12.398,-77.921
150,-0.2471,0.3296,-0.8672,-2.441,2.869,-0.427,159.373,12.398,-77.904
160,-0.2446,0.3325,-0.8687,-3.723,2.808,0.061,159.335,12.398,-77.899
170,-0.2417,0.3467,-0.8740,-5.432,2.869,0.427,159.274,12.387,-77.893
180,-0.2373,0.3623,-0.8818,-6.348,3.723,0.305,159.197,12.371,-77.882
190,-0.2314,0.3735,-0.8867,-5.676,5.371,-0.366,159.126,12.332,-77.855
200,-0.2236,0.3755,-0.8896,-4.028,6.958,-1.343,159.071,12.277,-77.822
210,-0.2231,0.3735,-0.9019,-2.136,7.446,-2.441,159.049,12.228,-77.767
220,-0.2236,0.3667,-0.9258,-1.038,7.690,-2.930,159.044,12.167,-77.712
230,-0.2256,0.3569,-0.9595,-0.793,8.850,-3.052,159.055,12.101,-77.651
240,-0.2251,0.3477,-0.9834,-1.404,10.620,-2.686,159.066,12.014,-77.585
250,-0.2192,0.3428,-0.9971,-2.869,11.414,-1.892,159.071,11.909,-77.525
260,-0.2124,0.3413,-0.9990,-4.761,9.644,-0.977,159.055,11.821,-77.481
270,-0.2085,0.3452,-0.9956,-7.019,5.737,0.183,159.005,11.761,-77.465
280,-0.2051,0.3589,-0.9888,-9.033,1.099,1.343,158.923,11.739,-77.470
290,-0.2002,0.3638,-0.9790,-9.399,-2.258,2.319,158.835,11.744,-77.503
300,-0.1968,0.3672,-0.9590,-9.033,-4.211,2.991,158.736,11.761,-77.547
310,-0.1860,0.3711,-0.9370,-8.972,-4.822,3.174,158.632,11.783,-77.596
320,-0.1851,0.3779,-0.9219,-8.789,-5.188,3.174,158.527,11.805,-77.646
330,-0.1836,0.3872,-0.9019,-9.521,-5.310,3.601,158.406,11.827,-77.695
340,-0.1841,0.3931,-0.8901,-10.193,-4.639,3.906,158.269,11.849,-77.750
350,-0.1860,0.4009,-0.8809,-10.559,-3.357,3.906,158.126,11.854,-77.800
360,-0.1865,0.4102,-0.8745,-10.376,-1.343,3.479,157.983,11.843,-77.838
370,-0.1816,0.4194,-0.8765,-9.155,1.038,2.625,157.857,11.810,-77.860
380,-0.1851,0.4199,-0.8799,-6.775,3.967,1.282,157.753,11.761,-77.860
390,-0.1851,0.4272,-0.8896,-3.784,6.958,-0.183,157.687,11.684,-77.827
401,-0.1753,0.4150,-0.9082,0.549,10.193,-1.831,157.681,11.580,-77.772
410,-0.1655,0.4131,-0.9292,4.639,12.695,-3.357,157.731,11.453,-77.690
420,-0.1597,0.4004,-0.9497,9.277,14.587,-4.517,157.835,11.310,-77.591
430,-0.1533,0.3853,-0.9751,13.916,15.686,-4.944,158.000,11.157,-77.487
440,-0.1455,0.3691,-0.9971,17.822,15.991,-5.127,158.214,10.992,-77.377
450,-0.1387,0.3579,-1.0127,20.630,15.442,-5.066,158.461,10.833,-77.267
460,-0.1304,0.3477,-1.0176,21.667,13.672,-4.700,158.719,10.684,-77.173
470,-0.1299,0.3374,-1.0220,21.240,10.742,-4.517,158.978,10.563,-77.091
480,-0.1372,0.3286,-1.0259,19.226,7.263,-4.639,159.208,10.481,-77.020
490,-0.1421,0.3188,-1.0269,15.930,4.517,-4.883,159.417,10.426,-76.959
500,-0.1494,0.3154,-1.0229,11.719,2.380,-4.944,159.576,10.399,-76.904
510,-0.1548,0.3169,-1.0127,7.935,0.793,-5.005,159.692,10.388,-76.849
520,-0.1602,0.3193,-1.0088,5.371,-0.671,-5.188,159.785,10.393,-76.805
530,-0.1733,0.3193,-1.0005,4.761,-2.075,-5.249,159.862,10.421,-76.761
540,-0.1787,0.3105,-0.9937,5.798,-3.235,-5.249,159.955,10.459,-76.723
550,-0.1865,0.3018,-0.9810,7.019,-4.517,-4.700,160.060,10.519,-76.696
560,-0.1953,0.2930,-0.9629,7.507,-6.348,-3.723,160.164,10.596,-76.679
570,-0.2036,0.2910,-0.9512,6.958,-8.179,-2.686,160.263,10.690,-76.685
580,-0.2139,0.2915,-0.9390,5.798,-9.827,-1.648,160.340,10.800,-76.701
590,-0.2251,0.2974,-0.9253,4.272,-10.681,-0.793,160.395,10.926,-76.729
600,-0.2329,0.3042,-0.9194,3.357,-10.437,0.000,160.439,11.052,-76.767
610,-0.2358,0.3086,-0.9189,3.662,-9.216,0.549,160.477,11.162,-76.800
620,-0.2451,0.3057,-0.9248,5.127,-7.324,1.038,160.532,11.255,-76.838
630,-0.2471,0.2993,-0.9307,6.714,-5.493,1.709,160.609,11.332,-76.871
640,-0.2520,0.2905,-0.9302,7.629,-4.578,2.747,160.697,11.393,-76.915
650,-0.2627,0.2812,-0.9302,7.263,-5.127,4.089,160.779,11.470,-76.970
660,-0.2686,0.2778,-0.9297,5.493,-6.348,5.432,160.845,11.547,-77.047
670,-0.2725,0.2881,-0.9282,2.563,-7.629,6.775,160.873,11.640,-77.135
680,-0.2715,0.2925,-0.9272,-0.305,-8.545,7.812,160.867,11.733,-77.239
690,-0.2681,0.3008,-0.9272,-2.319,-8.606,8.362,160.834,11.821,-77.349
700,-0.2671,0.3115,-0.9268,-3.906,-8.667,8.850,160.774,11.909,-77.465
710,-0.2686,0.3213,-0.9209,-4.822,-8.789,9.216,160.703,11.997,-77.580
720,-0.2769,0.3330,-0.9180,-5.310,-8.911,9.216,160.620,12.090,-77.701
730,-0.2886,0.3403,-0.9180,-5.554,-8.789,8.972,160.532,12.184,-77.816
740,-0.2979,0.3398,-0.9165,-5.432,-7.812,8.179,160.450,12.277,-77.921
750,-0.2998,0.3374,-0.9126,-5.432,-6.592,7.324,160.367,12.365,-78.014
760,-0.2925,0.3384,-0.9092,-6.042,-5.920,6.714,160.280,12.442,-78.102
770,-0.2812,0.3472,-0.9106,-7.141,-6.226,6.592,160.181,12.513,-78.184
780,-0.2734,0.3584,-0.9160,-7.751,-6.775,6.470,160.071,12.585,-78.272
790,-0.2666,0.3643,-0.9214,-7.019,-7.080,6.165,159.966,12.656,-78.354
800,-0.2588,0.3687,-0.9189,-5.432,-6.958,5.676,159.879,12.722,-78.437
810,-0.2500,0.3677,-0.9126,-3.601,-6.775,5.371,159.807,12.783,-78.508
820,-0.2451,0.3687,-0.9126,-2.197,-6.775,5.127,159.752,12.838,-78.585
830,-0.2417,0.3735,-0.9097,-1.709,-6.836,4.822,159.697,12.892,-78.657
840,-0.2417,0.3794,-0.9082,-1.526,-6.531,4.089,159.642,12.953,-78.717
850,-0.2427,0.3818,-0.9072,-1.160,-5.798,2.869,159.598,13.002,-78.766
860,-0.2417,0.3823,-0.9009,-0.427,-4.883,1.587,159.560,13.052,-78.799
870,-0.2407,0.3755,-0.8989,0.732,-3.845,0.183,159.543,13.096,-78.816
880,-0.2354,0.3696,-0.8965,1.892,-2.869,-1.099,159.543,13.129,-78.816
890,-0.2256,0.3672,-0.9004,2.808,-2.136,-2.014,159.554,13.156,-78.799
901,-0.2187,0.3657,-0.8984,3.418,-1.465,-2.808,159.576,13.178,-78.783
910,-0.2129,0.3643,-0.9038,3.540,-1.099,-3.479,159.604,13.189,-78.750
920,-0.2095,0.3667,-0.9141,4.089,-0.122,-4.333,159.637,13.195,-78.712
930,-0.2080,0.3638,-0.9238,5.554,1.282,-5.249,159.692,13.184,-78.657
940,-0.2075,0.3569,-0.9316,6.897,2.747,-6.104,159.769,13.167,-78.585
950,-0.2075,0.3496,-0.9443,8.057,3.967,-6.836,159.868,13.140,-78.508
960,-0.2095,0.3408,-0.9575,8.240,4.883,-7.263,159.972,13.101,-78.420
970,-0.2148,0.3247,-0.9604,6.958,5.432,-7.080,160.076,13.063,-78.333
980,-0.2217,0.3198,-0.9561,4.700,5.615,-6.775,160.153,13.030,-78.245
990,-0.2197,0.3198,-0.9517,2.075,5.066,-6.470,160.208,12.997,-78.168
1000,-0.2168,0.3286,-0.9453,-0.061,3.479,-6.165,160.230,12.975,-78.096
1010,-0.2129,0.3286,-0.9365,-1.770,1.526,-6.042,160.230,12.975,-78.030
1020,-0.2075,0.3350,-0.9326,-3.052,-0.732,-6.592,160.214,12.991,-77.970
1030,-0.2065,0.3408,-0.9263,-4.333,-2.319,-7.324,160.181,13.024,-77.910
1040,-0.2095,0.3423,-0.9175,-4.822,-3.174,-7.629,160.142,13.074,-77.844
1050,-0.2153,0.3394,-0.9048,-5.005,-3.052,-7.629,160.098,13.123,-77.783
1060,-0.2163,0.3398,-0.8906,-5.310,-2.563,-7.324,160.049,13.167,-77.717
1070,-0.2163,0.3433,-0.8843,-5.432,-1.709,-7.019,159.994,13.206,-77.657
1080,-0.2104,0.3437,-0.8828,-5.493,-0.366,-6.897,159.944,13.222,-77.591
1090,-0.2095,0.3413,-0.8862,-5.859,1.221,-6.897,159.890,13.228,-77.520
1100,-0.2109,0.3345,-0.8975,-6.287,3.479,-7.019,159.846,13.211,-77.443
1110,-0.2178,0.3242,-0.9077,-7.202,6.409,-6.592,159.796,13.167,-77.355
1120,-0.2300,0.3169,-0.9258,-8.118,9.827,-5.676,159.752,13.096,-77.267
1130,-0.2358,0.3110,-0.9478,-10.071,14.221,-3.784,159.692,12.980,-77.179
1140,-0.2358,0.3091,-0.9712,-13.733,18.250,-1.221,159.598,12.816,-77.102
1150,-0.2378,0.3047,-0.9971,-19.653,21.667,0.732,159.456,12.612,-77.031
1160,-0.2368,0.3013,-1.0156,-27.893,23.499,1.587,159.230,12.387,-76.965
1170,-0.2373,0.3081,-1.0239,-38.513,22.705,2.075,158.906,12.173,-76.899
1180,-0.2280,0.3213,-1.0244,-50.232,19.226,2.563,158.456,11.986,-76.855
1190,-0.2173,0.3477,-1.0117,-60.974,13.306,2.869,157.879,11.849,-76.833
1200,-0.2109,0.3857,-0.9951,-69.031,4.700,2.625,157.203,11.788,-76.838
1210,-0.2046,0.4268,-0.9805,-72.632,-4.639,2.197,156.473,11.810,-76.877
1220,-0.2129,0.4639,-0.9683,-71.045,-12.878,1.221,155.737,11.915,-76.943
1230,-0.2231,0.4902,-0.9492,-64.392,-18.311,0.610,155.050,12.079,-77.025
1240,-0.2266,0.5029,-0.9297,-54.138,-20.630,0.671,154.457,12.261,-77.119
1250,-0.2246,0.5112,-0.9033,-41.321,-20.508,1.160,153.990,12.437,-77.217
1260,-0.2173,0.5078,-0.8755,-27.832,-19.958,1.892,153.649,12.607,-77.327
1270,-0.2139,0.5000,-0.8535,-15.564,-19.104,2.258,153.430,12.761,-77.432
1280,-0.2114,0.4897,-0.8403,-5.371,-18.250,2.502,153.320,12.903,-77.542
1290,-0.2114,0.4834,-0.8242,2.380,-17.151,2.686,153.281,13.041,-77.646
1300,-0.2144,0.4746,-0.8140,8.240,-15.686,2.625,153.309,13.167,-77.739
1310,-0.2217,0.4639,-0.8081,12.268,-13.550,2.136,153.380,13.277,-77.822
1320,-0.2300,0.4546,-0.8018,13.977,-11.230,1.709,153.474,13.376,-77.893
1330,-0.2363,0.4458,-0.7915,13.672,-8.972,1.343,153.567,13.464,-77.943
1340,-0.2480,0.4395,-0.7896,12.146,-6.531,1.038,153.649,13.535,-77.981
1350,-0.2544,0.4390,-0.7886,9.827,-4.028,0.977,153.715,13.590,-78.008
1360,-0.2598,0.4438,-0.7871,8.423,-1.221,1.038,153.765,13.618,-78.025
1370,-0.2656,0.4463,-0.7939,8.789,2.136,0.732,153.820,13.623,-78.025
1380,-0.2681,0.4487,-0.8047,11.414,6.042,0.366,153.907,13.596,-77.997
1390,-0.2622,0.4497,-0.8198,15.137,9.705,0.183,154.039,13.530,-77.959
1401,-0.2549,0.4438,-0.8369,19.775,12.268,-0.244,154.232,13.436,-77.899
1410,-0.2534,0.4297,-0.8594,24.048,13.794,-0.549,154.479,13.326,-77.833
1420,-0.2544,0.4194,-0.8750,26.733,14.221,-0.610,154.753,13.217,-77.761
1430,-0.2549,0.4126,-0.8926,28.076,14.038,-0.549,155.056,13.107,-77.695
1440,-0.2661,0.4077,-0.9082,28.687,13.733,-0.488,155.358,13.002,-77.635
1450,-0.2769,0.4062,-0.9170,28.198,13.550,-0.610,155.660,12.909,-77.569
1460,-0.2720,0.3984,-0.9307,26.611,12.817,-1.282,155.951,12.821,-77.503
1470,-0.2686,0.3857,-0.9326,23.132,11.353,-2.197,156.209,12.750,-77.437
1480,-0.2568,0.3843,-0.9409,17.944,8.850,-2.686,156.418,12.695,-77.371
1490,-0.2432,0.3848,-0.9370,11.047,5.676,-2.930,156.550,12.662,-77.322
1500,-0.2373,0.3965,-0.9297,3.296,1.526,-3.296,156.594,12.667,-77.283
1510,-0.2397,0.4082,-0.9214,-3.113,-1.526,-4.089,156.566,12.700,-77.256
1520,-0.2485,0.4229,-0.9106,-7.568,-3.357,-5.005,156.484,12.766,-77.217
1530,-0.2505,0.4302,-0.9028,-8.789,-2.808,-5.798,156.385,12.827,-77.179
1540,-0.2456,0.4277,-0.8931,-7.629,-1.770,-6.531,156.302,12.881,-77.124
1550,-0.2354,0.4341,-0.8892,-5.554,-0.854,-6.775,156.237,12.920,-77.064
1560,-0.2236,0.4355,-0.8906,-2.380,0.732,-6.836,156.204,12.936,-76.998
1570,-0.2153,0.4331,-0.8950,1.221,2.136,-7.202,156.215,12.942,-76.921
1580,-0.2163,0.4238,-0.9004,4.272,3.906,-7.935,156.264,12.931,-76.827
1590,-0.2231,0.4116,-0.9023,6.104,5.127,-8.789,156.335,12.914,-76.723
1600,-0.2261,0.4058,-0.9023,6.409,6.592,-9.766,156.423,12.892,-76.608
1610,-0.2227,0.3906,-0.9072,6.409,7.996,-10.925,156.517,12.865,-76.470
1620,-0.2114,0.3848,-0.9170,5.737,9.033,-12.085,156.616,12.821,-76.322
1630,-0.1997,0.3706,-0.9204,5.920,9.705,-13.000,156.725,12.766,-76.157
1640,-0.1841,0.3525,-0.9277,5.005,9.460,-13.428,156.835,12.711,-75.992
1650,-0.1768,0.3418,-0.9316,4.089,8.728,-13.184,156.940,12.656,-75.833
1660,-0.1680,0.3394,-0.9282,3.540,7.996,-12.451,157.039,12.601,-75.685
1670,-0.1582,0.3374,-0.9375,3.174,7.874,-11.658,157.132,12.541,-75.542
1680,-0.1494,0.3408,-0.9541,4.272,9.827,-11.292,157.236,12.453,-75.399
1690,-0.1372,0.3364,-0.9678,7.019,12.512,-11.047,157.374,12.332,-75.245
1700,-0.1265,0.3291,-0.9800,9.705,14.832,-10.559,157.544,12.184,-75.086
1710,-0.1221,0.3105,-0.9878,12.024,15.930,-9.888,157.747,12.019,-74.927
1720,-0.1221,0.2959,-0.9976,13.306,15.015,-8.972,157.967,11.865,-74.784
1730,-0.1226,0.2881,-1.0063,13.489,12.817,-7.568,158.181,11.722,-74.663
1740,-0.1289,0.2827,-1.0078,12.390,9.766,-5.859,158.384,11.607,-74.575
1750,-0.1431,0.2822,-1.0063,10.803,6.958,-4.211,158.566,11.519,-74.504
1760,-0.1670,0.2881,-1.0020,8.545,4.578,-2.686,158.714,11.464,-74.465
1770,-0.1899,0.2939,-0.9976,6.348,3.174,-1.282,158.829,11.426,-74.438
1780,-0.2144,0.2988,-0.9946,4.456,2.380,-0.183,158.917,11.409,-74.427
1790,-0.2515,0.3042,-0.9937,2.319,1.587,0.610,158.983,11.415,-74.427
1800,-0.3057,0.3086,-0.9971,0.366,0.977,0.977,159.022,11.448,-74.438
1810,-0.3530,0.3135,-1.0029,-1.282,1.099,0.977,159.044,11.508,-74.438
1820,-0.3760,0.3174,-1.0098,-2.563,1.892,0.732,159.055,11.569,-74.438
1830,-0.3647,0.3257,-1.0127,-4.028,2.075,0.793,159.049,11.618,-74.438
1840,-0.3428,0.3325,-1.0083,-5.188,0.305,1.343,159.022,11.673,-74.454
1850,-0.3286,0.3403,-1.0000,-6.470,-4.089,2.197,158.972,11.761,-74.487
1860,-0.3179,0.3496,-0.9902,-8.362,-8.850,2.930,158.890,11.882,-74.548
1870,-0.3057,0.3584,-0.9810,-10.437,-12.329,3.845,158.780,12.030,-74.630
1880,-0.2891,0.3711,-0.9619,-13.000,-14.587,4.883,158.632,12.184,-74.729
1890,-0.2793,0.3877,-0.9360,-16.479,-15.869,5.676,158.434,12.338,-74.844
1901,-0.2666,0.4092,-0.9165,-19.409,-16.479,6.104,158.192,12.497,-74.965
1914,-0.2485,0.4302,-0.8994,-20.996,-16.418,5.981,157.923,12.640,-75.086
1920,-0.2314,0.4458,-0.8789,-20.630,-15.564,5.249,157.648,12.766,-75.196
1930,-0.2217,0.4619,-0.8652,-18.127,-14.099,3.906,157.390,12.881,-75.284
1940,-0.2153,0.4678,-0.8525,-13.184,-12.878,1.953,157.181,12.986,-75.355
1950,-0.2134,0.4668,-0.8423,-6.714,-11.353,-0.305,157.044,13.090,-75.399
1960,-0.1997,0.4541,-0.8418,0.610,-9.460,-2.197,156.995,13.167,-75.416
1970,-0.1841,0.4385,-0.8447,7.751,-7.080,-3.662,157.028,13.228,-75.410
1980,-0.1699,0.4077,-0.8447,13.367,-4.211,-4.272,157.137,13.250,-75.383
1990,-0.1675,0.3853,-0.8481,16.602,-2.014,-4.639,157.291,13.255,-75.350
2000,-0.1826,0.3579,-0.8530,16.663,0.244,-4.883,157.467,13.250,-75.300
2010,-0.1841,0.3418,-0.8560,13.977,2.197,-4.761,157.626,13.233,-75.245
2020,-0.1709,0.3384,-0.8530,9.583,4.089,-4.272,157.742,13.184,-75.190
2030,-0.1577,0.3408,-0.8535,5.066,4.639,-3.723,157.808,13.118,-75.135
2040,-0.1411,0.3491,-0.8521,0.549,4.028,-3.235,157.824,13.052,-75.092
2050,-0.1294,0.3569,-0.8462,-3.845,3.296,-2.563,157.786,12.980,-75.053
2060,-0.1318,0.3647,-0.8389,-6.226,2.686,-2.075,157.720,12.914,-75.026
2070,-0.1328,0.3706,-0.8359,-6.714,2.258,-1.831,157.643,12.854,-74.998
2080,-0.1318,0.3804,-0.8345,-6.348,2.625,-1.831,157.560,12.794,-74.971
2090,-0.1304,0.3784,-0.8374,-5.249,4.578,-1.831,157.500,12.711,-74.932
2100,-0.1250,0.3618,-0.8369,-2.563,6.836,-1.587,157.473,12.601,-74.894
2110,-0.1318,0.3496,-0.8359,-2.441,6.897,-1.038,157.456,12.502,-74.855
2120,-0.1411,0.3564,-0.8315,-3.601,6.287,0.061,157.418,12.409,-74.833
2130,-0.1548,0.3643,-0.8281,-4.028,6.531,1.038,157.374,12.316,-74.817
2140,-0.1821,0.3760,-0.8350,-4.333,8.545,1.648,157.319,12.222,-74.800
2150,-0.1982,0.3823,-0.8521,-1.770,12.817,2.197,157.291,12.090,-74.767
2160,-0.2046,0.3882,-0.8696,2.869,17.944,2.808,157.313,11.920,-74.724
2170,-0.1987,0.3823,-0.8833,8.057,23.499,3.479,157.401,11.689,-74.663
2180,-0.1958,0.3691,-0.9063,11.902,28.320,4.211,157.538,11.409,-74.592
2190,-0.1909,0.3594,-0.9268,14.832,30.273,5.066,157.709,11.107,-74.520
2200,-0.1929,0.3452,-0.9482,16.785,30.029,6.226,157.906,10.805,-74.465
2210,-0.1899,0.3442,-0.9629,15.198,29.114,7.751,158.093,10.508,-74.427
2220,-0.1875,0.3516,-0.9775,12.085,27.100,9.033,158.236,10.223,-74.410
2230,-0.1875,0.3638,-0.9917,9.338,24.353,9.888,158.340,9.959,-74.410
2240,-0.1812,0.3779,-0.9995,7.568,21.545,10.315,158.423,9.723,-74.427
2250,-0.1724,0.3892,-1.0039,6.775,19.653,10.498,158.489,9.498,-74.454
2260,-0.1626,0.3970,-1.0088,7.080,18.066,10.559,158.555,9.283,-74.487
2270,-0.1553,0.4058,-1.0098,8.240,16.052,10.254,158.626,9.086,-74.520
2280,-0.1519,0.4043,-1.0161,9.399,13.855,9.399,158.714,8.910,-74.559
2290,-0.1489,0.3999,-1.0220,9.888,12.146,8.301,158.802,8.756,-74.592
2300,-0.1514,0.3926,-1.0239,9.949,10.925,7.263,158.901,8.624,-74.625
2310,-0.1489,0.3833,-1.0254,9.827,9.949,6.409,159.000,8.498,-74.647
2320,-0.1421,0.3696,-1.0176,9.583,8.667,5.676,159.099,8.388,-74.669
2330,-0.1353,0.3560,-1.0078,8.972,6.531,5.310,159.203,8.300,-74.696
2340,-0.1294,0.3486,-0.9907,7.751,3.662,5.066,159.285,8.234,-74.729
2350,-0.1270,0.3447,-0.9780,6.042,0.671,5.005,159.351,8.196,-74.773
2360,-0.1284,0.3433,-0.9614,4.272,-1.526,4.944,159.395,8.185,-74.828
2370,-0.1313,0.3433,-0.9453,3.052,-2.563,4.761,159.428,8.185,-74.883
2380,-0.1348,0.3418,-0.9287,2.502,-2.563,4.639,159.450,8.185,-74.932
2390,-0.1377,0.3418,-0.9175,2.747,-1.892,4.822,159.467,8.185,-74.987
2401,-0.1382,0.3423,-0.9082,3.662,-0.671,5.005,159.500,8.174,-75.037
2410,-0.1421,0.3398,-0.9111,5.005,1.038,4.944,159.543,8.146,-75.081
2420,-0.1436,0.3359,-0.9126,5.920,2.686,4.761,159.598,8.108,-75.114
2430,-0.1450,0.3345,-0.9146,6.409,4.089,4.883,159.659,8.058,-75.146
2440,-0.1431,0.3389,-0.9165,6.409,5.188,5.554,159.719,7.993,-75.179
2450,-0.1450,0.3408,-0.9189,6.531,5.981,6.165,159.774,7.921,-75.218
2460,-0.1475,0.3423,-0.9199,6.714,6.470,6.348,159.835,7.844,-75.256
2470,-0.1538,0.3423,-0.9189,6.897,6.592,6.409,159.895,7.773,-75.295
2480,-0.1602,0.3408,-0.9209,7.385,6.592,6.287,159.961,7.707,-75.333
2490,-0.1660,0.3423,-0.9253,7.874,6.897,6.409,160.032,7.635,-75.366
2500,-0.1714,0.3428,-0.9282,8.240,7.629,6.897,160.109,7.564,-75.405
2510,-0.1733,0.3398,-0.9380,9.216,9.155,7.141,160.192,7.482,-75.443
2520,-0.1704,0.3374,-0.9429,9.644,10.681,7.202,160.285,7.377,-75.476
2530,-0.1636,0.3364,-0.9458,9.644,11.597,7.263,160.378,7.262,-75.504
2540,-0.1592,0.3350,-0.9565,9.216,11.780,7.263,160.472,7.147,-75.531
2550,-0.1548,0.3403,-0.9692,8.606,11.658,7.202,160.554,7.026,-75.564
2560,-0.1470,0.3452,-0.9810,7.874,11.108,7.080,160.626,6.910,-75.591
2570,-0.1421,0.3457,-0.9849,7.202,10.498,6.836,160.697,6.801,-75.624
2580,-0.1357,0.3511,-0.9912,6.470,9.155,6.470,160.752,6.696,-75.652
2590,-0.1357,0.3584,-1.0005,5.493,7.263,6.042,160.801,6.614,-75.685
2600,-0.1343,0.3628,-1.0044,3.723,5.310,5.554,160.823,6.553,-75.723
2610,-0.1333,0.3677,-1.0024,2.686,3.479,4.822,160.840,6.509,-75.756
2620,-0.1343,0.3726,-1.0010,2.136,1.953,3.967,160.845,6.487,-75.789
2630,-0.1416,0.3691,-0.9990,1.465,0.793,2.930,160.845,6.482,-75.811
2640,-0.1494,0.3623,-1.0005,1.038,0.305,1.831,160.845,6.487,-75.828
2650,-0.1543,0.3589,-0.9980,0.671,-0.061,1.099,160.845,6.504,-75.839
2660,-0.1553,0.3560,-0.9854,0.061,-0.854,0.793,160.834,6.526,-75.850
2670,-0.1543,0.3521,-0.9736,-0.305,-2.258,0.610,160.823,6.564,-75.866
2680,-0.1465,0.3477,-0.9624,-0.793,-3.357,0.305,160.807,6.614,-75.877
2690,-0.1470,0.3418,-0.9512,-1.221,-4.578,0.183,160.790,6.669,-75.894
2700,-0.1523,0.3369,-0.9448,-1.709,-4.700,0.000,160.768,6.735,-75.910
2710,-0.1553,0.3315,-0.9414,-1.709,-3.967,-0.061,160.746,6.790,-75.921
2720,-0.1582,0.3247,-0.9409,-1.709,-2.563,-0.122,160.730,6.839,-75.932
2730,-0.1582,0.3247,-0.9385,-2.686,-1.465,0.061,160.703,6.872,-75.938
2740,-0.1562,0.3242,-0.9375,-3.113,-0.916,0.244,160.675,6.905,-75.943
2750,-0.1543,0.3218,-0.9395,-3.418,-1.038,0.671,160.648,6.927,-75.948
2760,-0.1553,0.3203,-0.9414,-3.845,-1.343,1.038,160.609,6.960,-75.965
2770,-0.1538,0.3228,-0.9419,-3.845,-1.160,1.343,160.576,6.982,-75.981
2780,-0.1489,0.3281,-0.9419,-3.479,-0.122,1.648,160.543,6.993,-75.998
2790,-0.1436,0.3291,-0.9438,-2.136,0.732,1.953,160.521,6.993,-76.014
2800,-0.1333,0.3364,-0.9424,-0.854,1.770,2.319,160.510,6.976,-76.031
2810,-0.1260,0.3364,-0.9424,0.366,1.953,2.319,160.510,6.949,-76.047
2820,-0.1211,0.3345,-0.9424,1.709,1.648,2.136,160.521,6.927,-76.058
2830,-0.1182,0.3345,-0.9482,2.441,1.343,1.953,160.549,6.905,-76.075
2840,-0.1177,0.3359,-0.9561,2.930,1.648,1.953,160.576,6.883,-76.086
2850,-0.1113,0.3447,-0.9595,2.686,2.625,2.014,160.598,6.844,-76.097
2860,-0.1055,0.3516,-0.9624,2.319,2.991,1.648,160.615,6.801,-76.102
2870,-0.1016,0.3486,-0.9673,2.991,2.502,0.977,160.637,6.762,-76.102
2880,-0.1040,0.3457,-0.9697,3.113,1.526,0.427,160.664,6.735,-76.102
2890,-0.1108,0.3398,-0.9688,2.808,0.793,0.183,160.692,6.724,-76.102
2901,-0.1147,0.3340,-0.9629,2.136,0.305,0.061,160.719,6.718,-76.102
2910,-0.1177,0.3306,-0.9624,1.648,0.183,0.061,160.735,6.713,-76.102
2920,-0.1230,0.3325,-0.9658,1.831,0.732,-0.122,160.757,6.707,-76.097
2930,-0.1274,0.3306,-0.9707,2.380,1.099,-0.244,160.785,6.702,-76.091
2940,-0.1299,0.3252,-0.9727,2.686,1.038,-0.122,160.818,6.702,-76.086
2950,-0.1338,0.3203,-0.9712,2.625,-0.122,0.122,160.856,6.707,-76.091
2960,-0.1348,0.3223,-0.9722,1.892,-1.587,0.610,160.878,6.729,-76.102
2970,-0.1362,0.3315,-0.9741,0.610,-2.808,1.038,160.889,6.757,-76.119
2980,-0.1362,0.3403,-0.9663,-0.244,-3.662,1.160,160.878,6.795,-76.141
2990,-0.1377,0.3467,-0.9624,-0.366,-3.967,0.854,160.867,6.839,-76.163
3000,-0.1396,0.3457,-0.9546,-0.244,-4.028,0.427,160.856,6.888,-76.179
3010,-0.1426,0.3491,-0.9482,-0.366,-4.028,0.061,160.840,6.938,-76.196
3020,-0.1421,0.3472,-0.9434,-0.305,-3.845,-0.183,160.823,6.982,-76.207
3030,-0.1421,0.3462,-0.9414,0.061,-3.540,-0.549,160.812,7.031,-76.212
3040,-0.1406,0.3442,-0.9385,0.366,-3.235,-0.854,160.807,7.070,-76.218
3050,-0.1392,0.3452,-0.9360,0.610,-2.991,-1.282,160.801,7.114,-76.212
3060,-0.1411,0.3433,-0.9346,0.793,-2.930,-1.648,160.801,7.158,-76.207
3070,-0.1401,0.3408,-0.9346,1.099,-2.869,-1.953,160.807,7.196,-76.196
3080,-0.1421,0.3403,-0.9326,1.648,-2.502,-2.197,160.812,7.234,-76.185
3090,-0.1411,0.3330,-0.9341,2.258,-1.892,-2.686,160.834,7.273,-76.168
3100,-0.1401,0.3291,-0.9395,2.502,-1.404,-3.052,160.862,7.300,-76.141
3110,-0.1421,0.3267,-0.9448,2.441,-1.099,-3.113,160.889,7.333,-76.113
3120,-0.1396,0.3228,-0.9507,2.197,-0.427,-2.991,160.917,7.350,-76.086
3130,-0.1357,0.3179,-0.9531,2.014,0.244,-2.869,160.950,7.361,-76.058
3140,-0.1328,0.3154,-0.9551,1.648,0.671,-2.563,160.977,7.366,-76.031
3150,-0.1304,0.3154,-0.9561,1.343,0.671,-2.258,160.999,7.366,-76.009
3160,-0.1328,0.3115,-0.9541,1.160,0.549,-1.831,161.021,7.366,-75.992
3170,-0.1333,0.3066,-0.9521,0.977,0.427,-1.465,161.043,7.372,-75.976
3180,-0.1348,0.3037,-0.9512,0.977,0.488,-1.038,161.071,7.372,-75.965
3190,-0.1353,0.3042,-0.9497,0.916,0.671,-0.427,161.093,7.372,-75.959
3200,-0.1338,0.3052,-0.9507,0.671,0.793,0.305,161.109,7.366,-75.959
3210,-0.1318,0.3081,-0.9468,0.732,0.793,0.793,161.125,7.355,-75.965
3220,-0.1323,0.3096,-0.9473,1.038,0.671,1.038,161.142,7.350,-75.970
3230,-0.1318,0.3125,-0.9497,1.099,0.671,1.343,161.158,7.339,-75.981
3240,-0.1328,0.3174,-0.9541,0.854,1.038,1.587,161.169,7.328,-75.992
3250,-0.1309,0.3247,-0.9565,0.610,1.465,1.709,161.175,7.311,-76.003
3260,-0.1289,0.3276,-0.9585,0.427,1.648,1.587,161.175,7.289,-76.014
3270,-0.1304,0.3311,-0.9639,0.427,1.404,1.343,161.175,7.273,-76.020
3280,-0.1313,0.3364,-0.9648,0.305,1.099,1.221,161.175,7.256,-76.031
3290,-0.1333,0.3379,-0.9644,0.366,0.793,1.221,161.175,7.245,-76.042
3300,-0.1328,0.3369,-0.9629,0.671,0.671,1.038,161.175,7.240,-76.047
3310,-0.1313,0.3359,-0.9624,0.977,0.549,0.854,161.180,7.234,-76.053
3320,-0.1289,0.3369,-0.9614,1.160,0.244,0.549,161.186,7.229,-76.058
3330,-0.1318,0.3408,-0.9580,0.793,-0.122,0.549,161.186,7.229,-76.064
3340,-0.1338,0.3428,-0.9521,0.549,-0.427,0.610,161.180,7.234,-76.069
3350,-0.1333,0.3418,-0.9531,0.732,-0.488,0.366,161.175,7.240,-76.075
3360,-0.1313,0.3418,-0.9478,1.099,-0.122,-0.061,161.175,7.245,-76.075
3370,-0.1270,0.3403,-0.9419,1.465,-0.122,-0.366,161.180,7.245,-76.075
3380,-0.1328,0.3350,-0.9473,2.136,-0.061,-0.793,161.197,7.251,-76.064
3390,-0.1353,0.3354,-0.9556,2.380,0.427,-1.099,161.219,7.256,-76.053
3401,-0.1353,0.3384,-0.9624,2.502,1.038,-1.160,161.235,7.251,-76.036
3410,-0.1343,0.3389,-0.9727,2.930,1.709,-1.343,161.263,7.240,-76.020
3420,-0.1294,0.3364,-0.9771,2.991,1.648,-1.526,161.296,7.229,-76.003
3430,-0.1318,0.3359,-0.9761,2.625,0.916,-1.770,161.318,7.229,-75.981
3440,-0.1328,0.3335,-0.9756,2.319,0.000,-1.953,161.345,7.234,-75.959
3450,-0.1338,0.3276,-0.9771,1.953,-0.793,-2.136,161.367,7.251,-75.943
3460,-0.1353,0.3247,-0.9761,1.221,-1.343,-2.258,161.384,7.273,-75.927
3470,-0.1328,0.3242,-0.9707,0.427,-1.831,-2.319,161.389,7.300,-75.910
3480,-0.1323,0.3252,-0.9644,-0.366,-2.319,-2.441,161.389,7.328,-75.894
3490,-0.1353,0.3232,-0.9619,-0.916,-2.869,-2.380,161.378,7.366,-75.883
3500,-0.1362,0.3232,-0.9600,-1.038,-3.235,-2.441,161.373,7.405,-75.866
3510,-0.1387,0.3232,-0.9531,-0.610,-3.296,-2.380,161.367,7.449,-75.855
3520,-0.1416,0.3179,-0.9424,0.122,-3.052,-2.319,161.367,7.493,-75.844
3530,-0.1421,0.3135,-0.9375,0.916,-2.625,-2.258,161.384,7.531,-75.833
3540,-0.1406,0.3110,-0.9360,1.404,-2.136,-2.136,161.400,7.564,-75.817
3550,-0.1440,0.3125,-0.9404,1.282,-1.526,-1.953,161.417,7.592,-75.806
3560,-0.1426,0.3159,-0.9438,0.977,-1.099,-1.709,161.428,7.614,-75.789
3570,-0.1421,0.3164,-0.9468,0.793,-0.732,-1.648,161.439,7.630,-75.778
3580,-0.1382,0.3174,-0.9478,0.916,-0.427,-1.526,161.450,7.641,-75.762
3590,-0.1396,0.3169,-0.9478,1.038,-0.305,-1.465,161.461,7.652,-75.751
3600,-0.1426,0.3149,-0.9492,0.977,-0.244,-1.343,161.477,7.663,-75.740
3610,-0.1421,0.3135,-0.9468,1.099,0.244,-1.160,161.488,7.668,-75.729
3620,-0.1411,0.3130,-0.9468,1.404,0.977,-0.977,161.510,7.668,-75.712
3630,-0.1372,0.3120,-0.9492,1.831,1.709,-0.793,161.532,7.652,-75.701
3640,-0.1353,0.3164,-0.9497,2.319,1.953,-0.549,161.554,7.635,-75.690
3650,-0.1353,0.3193,-0.9565,2.869,1.709,-0.488,161.587,7.625,-75.679
3660,-0.1367,0.3135,-0.9585,3.235,1.526,-0.549,161.620,7.614,-75.668
3670,-0.1348,0.3145,-0.9600,2.502,1.282,-0.610,161.647,7.603,-75.657
3680,-0.1343,0.3154,-0.9648,1.526,1.221,-0.793,161.669,7.592,-75.646
3690,-0.1372,0.3154,-0.9678,0.671,1.587,-0.854,161.680,7.581,-75.635
3700,-0.1353,0.3184,-0.9663,0.183,1.770,-0.854,161.686,7.564,-75.619
3710,-0.1348,0.3184,-0.9668,0.549,1.648,-0.854,161.691,7.553,-75.608
3720,-0.1294,0.3184,-0.9585,1.221,0.854,-0.793,161.708,7.548,-75.597
3730,-0.1343,0.3140,-0.9614,1.587,-0.549,-0.549,161.724,7.553,-75.597
3740,-0.1348,0.3125,-0.9629,1.709,-0.977,-0.427,161.746,7.564,-75.591
3750,-0.1392,0.3101,-0.9614,1.221,-0.793,-0.244,161.757,7.575,-75.591
3760,-0.1382,0.3091,-0.9580,0.732,-0.061,-0.183,161.768,7.575,-75.591
3770,-0.1382,0.3091,-0.9590,0.427,0.427,-0.183,161.779,7.575,-75.591
3780,-0.1411,0.3086,-0.9585,0.366,0.610,0.061,161.785,7.575,-75.586
3790,-0.1411,0.3101,-0.9561,0.549,0.610,0.244,161.796,7.570,-75.586
3800,-0.1396,0.3066,-0.9570,0.854,0.427,0.305,161.807,7.570,-75.591
3810,-0.1377,0.3062,-0.9580,1.221,0.122,0.244,161.823,7.570,-75.591
3820,-0.1396,0.3091,-0.9619,1.160,-0.061,0.244,161.840,7.575,-75.591
3830,-0.1387,0.3091,-0.9639,0.977,-0.061,0.305,161.851,7.575,-75.597
3840,-0.1377,0.3101,-0.9600,0.732,0.122,0.305,161.862,7.575,-75.597
3850,-0.1348,0.3096,-0.9570,0.427,0.122,0.366,161.867,7.575,-75.602
3860,-0.1362,0.3096,-0.9570,0.305,0.122,0.427,161.873,7.575,-75.608
3870,-0.1343,0.3125,-0.9580,0.366,0.122,0.427,161.873,7.570,-75.608
3880,-0.1328,0.3130,-0.9575,0.549,0.183,0.427,161.878,7.564,-75.613
3890,-0.1343,0.3149,-0.9556,0.793,0.122,0.427,161.884,7.564,-75.619
3901,-0.1382,0.3120,-0.9585,0.916,0.244,0.427,161.895,7.564,-75.619
3915,-0.1382,0.3149,-0.9585,0.793,0.366,0.488,161.900,7.559,-75.624
3920,-0.1362,0.3159,-0.9595,0.732,0.366,0.488,161.906,7.559,-75.630
3930,-0.1372,0.3145,-0.9556,0.793,0.244,0.488,161.911,7.553,-75.630
3940,-0.1372,0.3164,-0.9600,0.854,0.183,0.366,161.922,7.553,-75.635
3950,-0.1343,0.3169,-0.9624,1.221,0.305,0.122,161.933,7.553,-75.635
3960,-0.1328,0.3145,-0.9634,1.709,0.305,-0.061,161.949,7.548,-75.635
3970,-0.1328,0.3105,-0.9604,2.075,0.305,-0.183,161.971,7.542,-75.630
3980,-0.1348,0.3071,-0.9624,2.319,0.122,-0.244,161.999,7.542,-75.630
3990,-0.1338,0.3047,-0.9614,2.380,-0.061,0.000,162.026,7.548,-75.630
4000,-0.1318,0.3042,-0.9624,2.075,-0.366,0.183,162.048,7.548,-75.630
4010,-0.1338,0.3032,-0.9590,1.709,-0.488,0.183,162.070,7.553,-75.635
4020,-0.1338,0.3052,-0.9531,1.221,-0.732,0.305,162.081,7.559,-75.641
4030,-0.1387,0.3047,-0.9585,1.221,-0.427,0.244,162.098,7.564,-75.641
4040,-0.1357,0.3042,-0.9624,1.587,0.244,0.244,162.114,7.564,-75.646
4050,-0.1348,0.3062,-0.9658,1.892,0.916,0.366,162.136,7.553,-75.646
4060,-0.1348,0.3076,-0.9707,2.075,0.977,0.427,162.158,7.542,-75.646
4070,-0.1338,0.3052,-0.9717,1.892,0.305,0.488,162.180,7.537,-75.652
4080,-0.1362,0.3047,-0.9697,1.343,-0.671,0.488,162.197,7.542,-75.657
4090,-0.1362,0.3037,-0.9717,0.732,-1.404,0.427,162.208,7.553,-75.663
4100,-0.1416,0.3037,-0.9707,-0.061,-1.770,0.366,162.213,7.575,-75.674
4110,-0.1431,0.3022,-0.9673,-0.916,-1.953,0.427,162.208,7.597,-75.685
4120,-0.1450,0.3032,-0.9624,-1.404,-1.953,0.488,162.191,7.619,-75.696
4130,-0.1455,0.3062,-0.9600,-1.587,-1.892,0.610,162.180,7.641,-75.707
4140,-0.1426,0.3071,-0.9570,-1.221,-1.831,0.854,162.164,7.657,-75.723
4150,-0.1450,0.3057,-0.9536,-0.610,-1.709,0.977,162.158,7.679,-75.734
4160,-0.1445,0.3047,-0.9517,-0.183,-1.709,1.099,162.153,7.696,-75.751
4171,-0.1455,0.3071,-0.9487,-0.061,-1.648,1.160,162.147,7.718,-75.767
4181,-0.1465,0.3076,-0.9482,-0.183,-1.404,1.221,162.147,7.729,-75.784
4191,-0.1445,0.3115,-0.9487,-0.488,-1.038,1.282,162.136,7.740,-75.800
4201,-0.1431,0.3115,-0.9463,-0.549,-0.610,1.221,162.125,7.751,-75.811
4211,-0.1440,0.3140,-0.9487,-0.305,-0.244,1.099,162.114,7.751,-75.822
4220,-0.1436,0.3159,-0.9531,0.000,0.305,0.977,162.109,7.751,-75.833
4231,-0.1445,0.3149,-0.9536,0.366,0.732,0.916,162.109,7.745,-75.839
4241,-0.1445,0.3125,-0.9531,0.549,0.732,0.732,162.109,7.740,-75.844
4251,-0.1436,0.3135,-0.9546,0.183,0.488,0.610,162.109,7.740,-75.850
4261,-0.1445,0.3188,-0.9575,-0.427,0.122,0.488,162.098,7.740,-75.855
4270,-0.1460,0.3208,-0.9600,-0.732,0.000,0.305,162.087,7.745,-75.855
4281,-0.1431,0.3232,-0.9619,-0.671,0.244,0.000,162.070,7.745,-75.855
4291,-0.1416,0.3247,-0.9614,-0.305,0.366,-0.305,162.059,7.745,-75.850
4301,-0.1401,0.3208,-0.9644,0.122,0.305,-0.488,162.059,7.740,-75.844
4311,-0.1406,0.3159,-0.9648,0.305,-0.122,-0.610,162.059,7.745,-75.839
4321,-0.1445,0.3145,-0.9644,0.122,-0.549,-0.610,162.059,7.756,-75.833
4331,-0.1436,0.3135,-0.9609,-0.305,-0.732,-0.549,162.059,7.767,-75.833
4341,-0.1421,0.3130,-0.9575,-0.549,-0.793,-0.549,162.048,7.784,-75.828
4351,-0.1431,0.3096,-0.9570,-0.427,-0.610,-0.793,162.048,7.795,-75.822
4361,-0.1440,0.3066,-0.9570,-0.305,-0.549,-0.854,162.048,7.806,-75.817
4371,-0.1431,0.3081,-0.9531,-0.183,-0.488,-0.916,162.048,7.817,-75.811
4381,-0.1431,0.3032,-0.9517,0.061,-0.427,-0.793,162.048,7.822,-75.806
4391,-0.1406,0.3008,-0.9531,0.183,-0.305,-0.732,162.059,7.833,-75.800
4401,-0.1416,0.3008,-0.9531,0.122,0.000,-0.549,162.065,7.833,-75.795
4410,-0.1406,0.3018,-0.9517,0.000,0.244,-0.244,162.070,7.833,-75.789
4421,-0.1392,0.3018,-0.9478,-0.061,0.488,-0.061,162.070,7.833,-75.789
4431,-0.1367,0.3018,-0.9463,0.000,0.671,0.122,162.070,7.828,-75.784
4441,-0.1377,0.3057,-0.9526,0.244,0.916,0.122,162.076,7.817,-75.784
4450,-0.1382,0.3071,-0.9604,0.549,1.343,0.000,162.087,7.806,-75.778
4461,-0.1353,0.3086,-0.9658,0.671,1.709,-0.061,162.092,7.784,-75.773
4471,-0.1357,0.3066,-0.9653,0.427,1.770,-0.122,162.103,7.767,-75.767
4480,-0.1338,0.3057,-0.9663,0.000,1.465,0.000,162.109,7.751,-75.762
4491,-0.1353,0.3071,-0.9688,-0.305,0.977,0.061,162.109,7.740,-75.762
4501,-0.1377,0.3071,-0.9727,-0.305,0.610,0.183,162.109,7.734,-75.762
4511,-0.1377,0.3066,-0.9692,-0.061,0.366,0.183,162.109,7.729,-75.762
4521,-0.1353,0.3047,-0.9683,0.122,0.000,0.244,162.114,7.729,-75.762
4531,-0.1353,0.3081,-0.9736,0.000,-0.549,0.366,162.120,7.729,-75.767
4541,-0.1348,0.3081,-0.9692,-0.244,-1.160,0.488,162.114,7.740,-75.778
4551,-0.1343,0.3091,-0.9697,-0.488,-1.709,0.488,162.114,7.751,-75.789
4561,-0.1372,0.3081,-0.9648,-0.610,-1.892,0.366,162.109,7.767,-75.795
4571,-0.1377,0.3071,-0.9609,-0.793,-1.648,0.366,162.098,7.778,-75.806
4581,-0.1382,0.3066,-0.9551,-0.793,-1.404,0.549,162.092,7.795,-75.817
4591,-0.1387,0.3032,-0.9507,-0.549,-1.282,0.549,162.087,7.806,-75.822
4601,-0.1372,0.3008,-0.9458,-0.305,-1.099,0.671,162.087,7.811,-75.833
4611,-0.1396,0.2979,-0.9482,0.061,-0.977,0.732,162.087,7.822,-75.844
4621,-0.1421,0.3003,-0.9502,0.305,-0.549,0.854,162.092,7.828,-75.855
4631,-0.1440,0.3047,-0.9536,0.427,-0.061,1.099,162.098,7.828,-75.866
4641,-0.1416,0.3052,-0.9526,0.671,0.244,1.282,162.103,7.822,-75.877
4651,-0.1416,0.3062,-0.9536,0.732,0.366,1.404,162.114,7.817,-75.888
4661,-0.1426,0.3066,-0.9521,0.610,0.366,1.526,162.114,7.811,-75.905
4671,-0.1465,0.3076,-0.9526,0.610,0.488,1.648,162.120,7.811,-75.916
4681,-0.1484,0.3096,-0.9556,0.488,0.793,1.648,162.125,7.800,-75.932
4690,-0.1475,0.3120,-0.9575,0.427,1.160,1.648,162.125,7.795,-75.943
4701,-0.1504,0.3135,-0.9604,0.549,1.221,1.587,162.125,7.784,-75.954
4711,-0.1494,0.3130,-0.9634,0.610,0.916,1.343,162.131,7.778,-75.965
4721,-0.1484,0.3149,-0.9663,0.366,0.488,1.099,162.131,7.773,-75.970
4731,-0.1504,0.3174,-0.9663,-0.183,0.122,1.038,162.125,7.773,-75.981
4740,-0.1504,0.3184,-0.9644,-0.366,0.000,1.038,162.114,7.778,-75.992
4751,-0.1514,0.3184,-0.9614,-0.244,-0.122,0.854,162.109,7.784,-75.998
4761,-0.1509,0.3184,-0.9590,0.183,-0.122,0.549,162.103,7.789,-76.009
4771,-0.1499,0.3188,-0.9609,0.427,-0.366,0.305,162.103,7.800,-76.009
4781,-0.1465,0.3193,-0.9624,0.488,-0.732,0.183,162.103,7.811,-76.014
4790,-0.1465,0.3203,-0.9590,0.366,-1.099,0.000,162.098,7.828,-76.020
4801,-0.1484,0.3188,-0.9604,0.000,-1.038,-0.244,162.092,7.839,-76.020
4811,-0.1479,0.3208,-0.9590,-0.549,-0.916,-0.488,162.081,7.855,-76.014
4821,-0.1489,0.3242,-0.9575,-0.854,-0.732,-0.732,162.065,7.872,-76.014
4831,-0.1479,0.3228,-0.9546,-0.916,-0.671,-0.916,162.054,7.883,-76.003
4841,-0.1484,0.3184,-0.9556,-0.610,-0.549,-1.221,162.043,7.899,-75.998
4851,-0.1475,0.3149,-0.9590,-0.183,-0.305,-1.526,162.037,7.910,-75.981
4861,-0.1455,0.3115,-0.9624,0.183,-0.122,-1.709,162.043,7.921,-75.965
4870,-0.1440,0.3042,-0.9619,0.244,0.000,-1.648,162.054,7.927,-75.948
4880,-0.1396,0.3008,-0.9624,0.244,-0.183,-1.587,162.065,7.932,-75.938
4891,-0.1406,0.2998,-0.9634,0.244,-0.549,-1.465,162.076,7.943,-75.921
4901,-0.1382,0.2993,-0.9678,0.244,-1.038,-1.221,162.087,7.954,-75.916
4910,-0.1372,0.2998,-0.9663,0.305,-1.526,-0.854,162.092,7.971,-75.910
4921,-0.1372,0.2993,-0.9658,0.305,-1.892,-0.488,162.103,7.987,-75.910
4931,-0.1396,0.3018,-0.9624,-0.061,-2.136,-0.183,162.109,8.004,-75.916
4941,-0.1387,0.3027,-0.9604,-0.305,-2.075,-0.244,162.109,8.026,-75.921
4951,-0.1416,0.2998,-0.9565,-0.488,-1.892,-0.305,162.109,8.042,-75.927
4961,-0.1426,0.2954,-0.9526,-0.671,-1.648,-0.427,162.109,8.058,-75.927
4971,-0.1440,0.2930,-0.9502,-0.916,-1.526,-0.305,162.109,8.075,-75.927
4981,-0.1445,0.2925,-0.9497,-0.977,-1.404,-0.061,162.103,8.091,-75.932
4991,-0.1431,0.2910,-0.9497,-0.854,-1.343,0.366,162.103,8.102,-75.938
5000,-0.1431,0.2930,-0.9448,-0.549,-1.099,0.793,162.103,8.113,-75.948
5010,-0.1450,0.2959,-0.9414,-0.183,-0.732,1.282,162.103,8.119,-75.965
5020,-0.1460,0.3013,-0.9409,0.122,-0.122,1.648,162.103,8.119,-75.981
5030,-0.1450,0.3076,-0.9429,0.610,0.427,1.892,162.103,8.113,-75.998
5041,-0.1470,0.3086,-0.9438,0.977,1.099,1.953,162.109,8.097,-76.014
5051,-0.1450,0.3149,-0.9512,1.099,1.770,1.831,162.114,8.075,-76.025
5060,-0.1396,0.3184,-0.9561,1.038,2.258,1.770,162.120,8.047,-76.036
5070,-0.1401,0.3223,-0.9600,1.038,2.380,1.648,162.120,8.020,-76.042
5081,-0.1426,0.3223,-0.9624,1.099,2.197,1.404,162.125,7.993,-76.047
5091,-0.1426,0.3242,-0.9644,1.099,1.953,1.038,162.131,7.971,-76.053
5101,-0.1426,0.3242,-0.9634,0.916,1.404,0.916,162.131,7.954,-76.058
5111,-0.1479,0.3223,-0.9663,1.038,1.099,0.610,162.131,7.949,-76.058
5121,-0.1494,0.3203,-0.9697,1.099,1.343,0.183,162.142,7.938,-76.058
5131,-0.1489,0.3203,-0.9717,1.099,1.709,-0.061,162.147,7.927,-76.053
5141,-0.1484,0.3169,-0.9727,1.221,1.770,-0.244,162.158,7.910,-76.042
5151,-0.1479,0.3130,-0.9707,1.404,1.221,-0.305,162.175,7.905,-76.036
5161,-0.1475,0.3091,-0.9688,1.343,0.305,-0.366,162.191,7.905,-76.031
5171,-0.1504,0.3071,-0.9683,1.038,-0.305,-0.305,162.202,7.916,-76.031
5181,-0.1494,0.3071,-0.9644,0.549,-0.549,-0.244,162.208,7.927,-76.031
5190,-0.1475,0.3047,-0.9600,0.305,-0.732,-0.305,162.213,7.938,-76.031
5201,-0.1494,0.3032,-0.9575,0.183,-0.732,-0.305,162.219,7.954,-76.031
5211,-0.1499,0.3022,-0.9575,0.122,-0.671,-0.244,162.224,7.965,-76.031
5221,-0.1484,0.3022,-0.9570,0.000,-0.610,-0.122,162.224,7.976,-76.031
5231,-0.1455,0.3008,-0.9536,0.061,-0.549,0.061,162.224,7.982,-76.031
5241,-0.1465,0.3027,-0.9531,0.183,-0.549,0.244,162.230,7.993,-76.036
5251,-0.1465,0.3076,-0.9541,0.305,-0.427,0.366,162.230,7.998,-76.042
5261,-0.1460,0.3081,-0.9526,0.549,-0.244,0.366,162.235,8.004,-76.047
5271,-0.1475,0.3071,-0.9526,0.916,-0.122,0.183,162.241,8.004,-76.047
5281,-0.1484,0.3071,-0.9546,0.916,-0.061,0.000,162.252,8.009,-76.047
5291,-0.1489,0.3086,-0.9570,0.610,-0.061,-0.061,162.257,8.015,-76.047
5301,-0.1484,0.3096,-0.9551,0.366,-0.183,-0.061,162.257,8.020,-76.047
5310,-0.1489,0.3066,-0.9609,0.366,-0.366,0.000,162.263,8.026,-76.047
5320,-0.1489,0.3071,-0.9609,0.488,-0.366,0.000,162.263,8.036,-76.047
5331,-0.1509,0.3086,-0.9600,0.427,-0.244,0.122,162.268,8.042,-76.053
5341,-0.1489,0.3105,-0.9600,0.488,-0.061,0.183,162.274,8.047,-76.053
5350,-0.1455,0.3110,-0.9580,0.427,0.000,0.183,162.274,8.047,-76.053
5361,-0.1445,0.3145,-0.9585,0.305,-0.183,0.061,162.268,8.047,-76.058
5371,-0.1465,0.3154,-0.9600,0.488,-0.244,-0.061,162.274,8.053,-76.058
5380,-0.1484,0.3125,-0.9609,0.366,-0.366,0.000,162.274,8.058,-76.058
5391,-0.1445,0.3115,-0.9580,0.427,-0.488,-0.122,162.274,8.064,-76.058
5401,-0.1445,0.3091,-0.9600,0.427,-0.366,-0.427,162.274,8.069,-76.053
5410,-0.1450,0.3091,-0.9634,0.305,-0.183,-0.610,162.279,8.075,-76.047
5420,-0.1426,0.3115,-0.9658,0.305,0.000,-0.854,162.285,8.080,-76.042
5430,-0.1406,0.3071,-0.9653,0.366,0.000,-0.916,162.290,8.080,-76.031
5441,-0.1450,0.3047,-0.9609,0.366,-0.183,-0.793,162.296,8.086,-76.025
5450,-0.1445,0.3003,-0.9590,0.122,-0.549,-0.671,162.296,8.091,-76.020
5460,-0.1440,0.3022,-0.9561,-0.183,-0.854,-0.488,162.296,8.102,-76.020
5471,-0.1455,0.3032,-0.9531,-0.183,-0.977,-0.366,162.296,8.113,-76.020
5481,-0.1465,0.3027,-0.9546,0.305,-0.610,-0.366,162.301,8.124,-76.014
5490,-0.1445,0.3018,-0.9565,0.854,0.000,-0.427,162.312,8.124,-76.014
5500,-0.1431,0.2979,-0.9600,1.465,0.671,-0.427,162.334,8.119,-76.003
5510,-0.1416,0.2969,-0.9644,1.648,1.038,-0.305,162.356,8.108,-75.998
5521,-0.1401,0.2944,-0.9634,1.526,1.099,-0.061,162.378,8.097,-75.998
5531,-0.1396,0.2959,-0.9624,1.038,0.854,0.183,162.394,8.086,-75.992
5540,-0.1436,0.2974,-0.9614,0.549,0.305,0.366,162.400,8.086,-75.998
5551,-0.1479,0.2998,-0.9604,0.305,-0.061,0.488,162.405,8.086,-76.003
5560,-0.1509,0.2988,-0.9604,0.427,-0.183,0.671,162.411,8.091,-76.009
5571,-0.1523,0.2974,-0.9585,0.610,0.183,0.671,162.422,8.091,-76.014
5580,-0.1523,0.3018,-0.9595,0.793,0.549,0.793,162.427,8.091,-76.020
5590,-0.1538,0.3037,-0.9585,0.916,0.610,0.854,162.438,8.086,-76.025
5600,-0.1533,0.3027,-0.9575,0.916,0.366,0.977,162.444,8.086,-76.036
5611,-0.1548,0.3062,-0.9561,0.793,0.122,1.038,162.449,8.091,-76.047
5620,-0.1543,0.3101,-0.9575,0.610,0.061,0.977,162.449,8.091,-76.053
5630,-0.1538,0.3125,-0.9614,0.610,0.183,0.732,162.449,8.091,-76.064
5640,-0.1543,0.3149,-0.9604,0.610,0.366,0.488,162.449,8.097,-76.064
5650,-0.1523,0.3130,-0.9639,0.488,0.549,0.122,162.449,8.091,-76.064
5660,-0.1533,0.3164,-0.9648,0.427,0.793,-0.244,162.449,8.091,-76.058
5670,-0.1504,0.3159,-0.9648,0.427,0.793,-0.610,162.449,8.091,-76.053
5680,-0.1489,0.3120,-0.9648,0.488,0.549,-0.793,162.455,8.091,-76.042
5691,-0.1489,0.3096,-0.9653,0.366,0.061,-0.977,162.455,8.091,-76.031
5700,-0.1523,0.3071,-0.9648,0.183,-0.305,-0.977,162.455,8.102,-76.025
5710,-0.1489,0.3076,-0.9624,0.183,-0.549,-1.038,162.460,8.113,-76.014
5720,-0.1494,0.3062,-0.9585,0.244,-0.610,-1.160,162.460,8.130,-76.009
5730,-0.1504,0.3057,-0.9614,0.366,-0.549,-1.282,162.466,8.141,-75.998
5740,-0.1504,0.3018,-0.9604,0.549,-0.305,-1.282,162.471,8.152,-75.981
5750,-0.1479,0.2998,-0.9600,0.732,-0.061,-1.404,162.482,8.157,-75.970
5760,-0.1475,0.2983,-0.9585,0.854,-0.122,-1.526,162.493,8.163,-75.954
5770,-0.1455,0.2974,-0.9570,0.793,-0.305,-1.526,162.510,8.174,-75.943
5780,-0.1460,0.2939,-0.9561,0.549,-0.488,-1.465,162.521,8.185,-75.932
5790,-0.1470,0.2954,-0.9585,0.549,-0.549,-1.404,162.532,8.196,-75.916
5800,-0.1440,0.2954,-0.9585,0.732,-0.488,-1.404,162.543,8.201,-75.905
5810,-0.1426,0.2939,-0.9595,0.916,-0.366,-1.282,162.559,8.212,-75.894
5820,-0.1450,0.2920,-0.9639,0.977,-0.305,-1.099,162.576,8.218,-75.883
5830,-0.1460,0.2910,-0.9663,0.854,-0.122,-0.854,162.592,8.218,-75.877
5840,-0.1455,0.2925,-0.9688,0.610,-0.061,-0.610,162.603,8.223,-75.872
5850,-0.1470,0.2935,-0.9653,0.427,-0.061,-0.366,162.614,8.223,-75.866
5860,-0.1455,0.2930,-0.9673,0.488,-0.183,-0.183,162.625,8.223,-75.866
5870,-0.1445,0.2944,-0.9663,0.549,-0.305,-0.183,162.631,8.229,-75.866
5880,-0.1445,0.2920,-0.9648,0.488,-0.488,-0.061,162.642,8.234,-75.866
5890,-0.1455,0.2930,-0.9634,0.244,-0.671,0.183,162.647,8.240,-75.872
5901,-0.1484,0.2935,-0.9624,0.061,-0.610,0.305,162.653,8.245,-75.877
5910,-0.1475,0.2939,-0.9609,0.000,-0.488,0.427,162.658,8.251,-75.883
5920,-0.1475,0.2949,-0.9604,0.122,-0.427,0.549,162.658,8.251,-75.888
5930,-0.1489,0.2969,-0.9624,0.244,-0.427,0.732,162.664,8.256,-75.894
5940,-0.1479,0.2979,-0.9585,0.366,-0.488,0.916,162.664,8.262,-75.905
5950,-0.1504,0.2983,-0.9604,0.366,-0.549,0.854,162.669,8.262,-75.916
5960,-0.1504,0.2998,-0.9600,0.366,-0.610,0.854,162.669,8.267,-75.927
5970,-0.1519,0.3018,-0.9580,0.183,-0.549,0.793,162.669,8.278,-75.938
5980,-0.1509,0.3018,-0.9565,0.061,-0.366,0.854,162.664,8.278,-75.943
5990,-0.1528,0.3037,-0.9585,0.122,0.000,0.732,162.664,8.284,-75.954
6000,-0.1509,0.3047,-0.9614,0.366,0.244,0.610,162.664,8.278,-75.959
6010,-0.1514,0.3057,-0.9595,0.610,0.366,0.488,162.669,8.278,-75.959
6020,-0.1514,0.3022,-0.9614,0.671,0.366,0.427,162.669,8.273,-75.965
6030,-0.1494,0.3003,-0.9600,0.610,0.183,0.366,162.675,8.273,-75.965
6040,-0.1504,0.3003,-0.9595,0.427,-0.061,0.427,162.680,8.278,-75.970
6050,-0.1509,0.3003,-0.9600,0.244,-0.183,0.488,162.680,8.278,-75.976
6060,-0.1514,0.3003,-0.9580,0.183,-0.183,0.488,162.680,8.284,-75.981
6070,-0.1528,0.2988,-0.9536,0.122,-0.305,0.549,162.680,8.289,-75.987
6080,-0.1543,0.2993,-0.9551,-0.061,-0.183,0.549,162.680,8.289,-75.992
6090,-0.1538,0.3057,-0.9551,-0.122,0.183,0.549,162.675,8.295,-75.998
6100,-0.1523,0.3086,-0.9551,0.244,0.610,0.488,162.669,8.289,-76.003
6110,-0.1523,0.3066,-0.9585,0.671,0.977,0.244,162.669,8.284,-76.003
6120,-0.1494,0.3057,-0.9624,0.977,1.221,0.000,162.680,8.273,-75.998
6130,-0.1489,0.3047,-0.9663,1.038,1.282,-0.122,162.686,8.262,-75.992
6140,-0.1484,0.3013,-0.9702,0.854,1.038,-0.244,162.697,8.251,-75.987
6150,-0.1494,0.3003,-0.9683,0.488,0.427,-0.305,162.702,8.251,-75.981
6160,-0.1499,0.2993,-0.9663,0.122,-0.122,-0.366,162.708,8.256,-75.981
6171,-0.1538,0.2993,-0.9673,-0.061,-0.488,-0.427,162.708,8.262,-75.976
6180,-0.1553,0.2979,-0.9668,-0.244,-0.427,-0.366,162.708,8.273,-75.976
6190,-0.1528,0.2969,-0.9683,-0.244,-0.305,-0.244,162.708,8.278,-75.970
6200,-0.1523,0.2954,-0.9658,-0.183,-0.366,-0.183,162.708,8.289,-75.970
6210,-0.1523,0.2959,-0.9653,-0.244,-0.671,-0.122,162.708,8.295,-75.970
6220,-0.1543,0.2979,-0.9619,-0.366,-1.099,0.000,162.702,8.311,-75.976
6230,-0.1538,0.2988,-0.9585,-0.549,-1.282,0.061,162.697,8.328,-75.981
6240,-0.1523,0.2988,-0.9565,-0.549,-1.160,0.000,162.691,8.344,-75.987
6250,-0.1504,0.3003,-0.9561,-0.488,-0.916,-0.061,162.686,8.355,-75.987
6260,-0.1489,0.3013,-0.9556,-0.427,-0.610,-0.122,162.680,8.361,-75.987
6271,-0.1479,0.3022,-0.9561,-0.366,-0.366,-0.183,162.675,8.366,-75.987
6281,-0.1479,0.2998,-0.9546,-0.366,-0.183,-0.305,162.669,8.366,-75.981
6290,-0.1489,0.3003,-0.9536,-0.305,0.000,-0.366,162.664,8.372,-75.981
6301,-0.1499,0.3013,-0.9575,-0.183,0.305,-0.427,162.664,8.372,-75.976
6310,-0.1489,0.3003,-0.9570,0.000,0.610,-0.488,162.664,8.366,-75.970
6321,-0.1489,0.2964,-0.9595,0.183,0.793,-0.549,162.669,8.361,-75.959
6331,-0.1489,0.2939,-0.9600,0.244,0.732,-0.488,162.675,8.355,-75.954
6340,-0.1494,0.2920,-0.9624,0.244,0.610,-0.427,162.680,8.350,-75.948
6351,-0.1519,0.2915,-0.9614,0.122,0.610,-0.244,162.686,8.350,-75.943
6361,-0.1514,0.2939,-0.9619,0.122,0.732,-0.061,162.691,8.344,-75.943
6370,-0.1494,0.2935,-0.9629,0.366,0.732,0.061,162.702,8.339,-75.938
6381,-0.1475,0.2915,-0.9609,0.610,0.610,0.061,162.708,8.333,-75.938
6391,-0.1499,0.2930,-0.9609,0.427,0.427,0.183,162.719,8.328,-75.938
6401,-0.1514,0.2944,-0.9590,0.305,0.183,0.305,162.724,8.328,-75.943
6410,-0.1509,0.2944,-0.9565,0.000,0.122,0.427,162.724,8.328,-75.943
6421,-0.1494,0.2949,-0.9570,-0.061,0.183,0.488,162.724,8.328,-75.948
6431,-0.1499,0.2969,-0.9580,0.122,0.366,0.488,162.724,8.322,-75.954
6441,-0.1533,0.2983,-0.9600,0.366,0.671,0.488,162.729,8.322,-75.954
6451,-0.1528,0.2983,-0.9609,0.427,0.916,0.610,162.729,8.311,-75.959
6461,-0.1499,0.2983,-0.9634,0.305,0.977,0.610,162.735,8.306,-75.959
6471,-0.1499,0.2998,-0.9644,0.061,0.793,0.610,162.735,8.295,-75.965
6481,-0.1519,0.3013,-0.9658,-0.183,0.427,0.488,162.735,8.295,-75.970
6491,-0.1543,0.2988,-0.9658,-0.244,0.122,0.427,162.729,8.295,-75.970
6501,-0.1538,0.3008,-0.9658,-0.183,0.061,0.488,162.729,8.295,-75.976
6511,-0.1538,0.2998,-0.9644,-0.183,0.061,0.488,162.724,8.295,-75.981
6521,-0.1533,0.3018,-0.9639,-0.183,0.000,0.549,162.724,8.300,-75.987
6531,-0.1548,0.3022,-0.9653,-0.183,-0.305,0.488,162.719,8.306,-75.992
6541,-0.1572,0.2998,-0.9609,-0.183,-0.610,0.427,162.713,8.317,-75.998
6551,-0.1567,0.2983,-0.9585,-0.366,-0.732,0.366,162.708,8.328,-76.003
6561,-0.1582,0.3013,-0.9600,-0.671,-0.671,0.305,162.702,8.339,-76.009
6571,-0.1582,0.3037,-0.9585,-0.916,-0.488,0.305,162.691,8.350,-76.014
6581,-0.1558,0.3042,-0.9561,-0.854,-0.305,0.366,162.675,8.355,-76.020
6591,-0.1558,0.3047,-0.9531,-0.610,-0.244,0.366,162.664,8.361,-76.020
6601,-0.1538,0.3052,-0.9536,-0.305,-0.183,0.305,162.658,8.366,-76.025
6611,-0.1533,0.3057,-0.9565,0.000,-0.183,0.183,162.653,8.372,-76.025
6621,-0.1538,0.3032,-0.9590,0.061,-0.061,0.000,162.653,8.372,-76.031
6631,-0.1533,0.3062,-0.9609,-0.244,0.183,-0.244,162.647,8.377,-76.025
6641,-0.1528,0.3047,-0.9600,-0.671,0.183,-0.366,162.636,8.377,-76.020
6651,-0.1548,0.3027,-0.9604,-0.916,0.061,-0.488,162.631,8.383,-76.014
6661,-0.1533,0.3042,-0.9585,-0.854,0.000,-0.488,162.620,8.383,-76.014
6671,-0.1543,0.3037,-0.9600,-0.610,0.061,-0.488,162.609,8.388,-76.009
6681,-0.1533,0.3037,-0.9624,-0.183,0.244,-0.549,162.609,8.394,-76.003
6691,-0.1523,0.3022,-0.9629,0.122,0.427,-0.549,162.609,8.388,-75.992
6701,-0.1523,0.2993,-0.9619,0.183,0.305,-0.671,162.614,8.394,-75.987
6711,-0.1533,0.2979,-0.9619,-0.122,0.122,-0.671,162.614,8.394,-75.981
6721,-0.1543,0.2959,-0.9565,-0.610,-0.122,-0.671,162.614,8.405,-75.976
6731,-0.1523,0.2983,-0.9565,-1.038,-0.183,-0.610,162.603,8.410,-75.970
6741,-0.1504,0.3008,-0.9541,-1.038,-0.122,-0.549,162.592,8.410,-75.965
6751,-0.1504,0.2998,-0.9541,-0.549,0.122,-0.549,162.587,8.416,-75.959
6761,-0.1494,0.2959,-0.9556,0.122,0.549,-0.610,162.592,8.410,-75.948
6771,-0.1475,0.2944,-0.9585,0.549,0.854,-0.610,162.603,8.405,-75.943
6781,-0.1475,0.2925,-0.9580,0.488,0.977,-0.488,162.614,8.399,-75.932
6791,-0.1475,0.2915,-0.9600,0.244,0.854,-0.244,162.620,8.388,-75.927
6801,-0.1465,0.2954,-0.9600,0.000,0.793,0.000,162.625,8.383,-75.927
6811,-0.1489,0.2969,-0.9609,-0.061,0.732,0.122,162.625,8.372,-75.927
6820,-0.1499,0.2964,-0.9629,0.122,1.038,0.183,162.631,8.366,-75.927
6830,-0.1494,0.2949,-0.9619,0.244,1.282,0.305,162.636,8.350,-75.927
6840,-0.1499,0.2964,-0.9653,0.244,1.343,0.366,162.642,8.339,-75.927
6850,-0.1504,0.2964,-0.9639,-0.061,1.038,0.427,162.642,8.328,-75.927
6860,-0.1533,0.2964,-0.9673,-0.366,0.488,0.488,162.642,8.328,-75.927
6870,-0.1553,0.2988,-0.9658,-0.671,0.061,0.549,162.636,8.328,-75.927
6880,-0.1523,0.3013,-0.9663,-0.793,-0.122,0.549,162.631,8.328,-75.927
6891,-0.1548,0.3037,-0.9688,-0.793,-0.061,0.488,162.620,8.333,-75.927
6901,-0.1519,0.3042,-0.9658,-0.671,-0.183,0.488,162.609,8.333,-75.927
6910,-0.1528,0.3037,-0.9668,-0.610,-0.305,0.427,162.603,8.339,-75.927
6920,-0.1523,0.3066,-0.9629,-0.610,-0.549,0.366,162.592,8.344,-75.927
6930,-0.1528,0.3066,-0.9590,-0.610,-0.793,0.244,162.581,8.355,-75.927
6940,-0.1523,0.3091,-0.9590,-0.610,-0.854,0.000,162.570,8.366,-75.927
6950,-0.1548,0.3096,-0.9580,-0.549,-0.793,-0.244,162.565,8.377,-75.927
6960,-0.1528,0.3066,-0.9556,-0.427,-0.549,-0.427,162.554,8.388,-75.927
6970,-0.1528,0.3042,-0.9575,-0.366,-0.244,-0.549,162.548,8.394,-75.927
6980,-0.1519,0.3037,-0.9595,-0.366,0.000,-0.671,162.548,8.399,-75.927
6991,-0.1514,0.3032,-0.9604,-0.305,0.366,-0.793,162.543,8.399,-75.927
7001,-0.1494,0.2993,-0.9600,-0.305,0.549,-0.854,162.543,8.394,-75.927
7011,-0.1484,0.2983,-0.9590,-0.366,0.427,-0.732,162.543,8.394,-75.927
7021,-0.1499,0.2969,-0.9590,-0.244,0.122,-0.610,162.543,8.394,-75.927
7031,-0.1509,0.2979,-0.9585,-0.122,-0.183,-0.549,162.548,8.399,-75.927
7041,-0.1509,0.2944,-0.9595,0.061,-0.122,-0.427,162.548,8.405,-75.927
7051,-0.1489,0.2935,-0.9639,0.000,0.183,-0.366,162.554,8.405,-75.927
7061,-0.1499,0.2954,-0.9624,-0.061,0.427,-0.183,162.559,8.399,-75.927
7071,-0.1465,0.2954,-0.9634,-0.122,0.488,-0.061,162.565,8.394,-75.927
7081,-0.1489,0.2969,-0.9648,-0.122,0.305,0.061,162.565,8.394,-75.927
7090,-0.1494,0.2959,-0.9653,-0.061,0.000,0.061,162.570,8.394,-75.927
7101,-0.1494,0.2988,-0.9683,0.000,-0.122,0.122,162.570,8.394,-75.927
7111,-0.1484,0.2983,-0.9697,0.122,-0.183,0.122,162.576,8.394,-75.927
7121,-0.1499,0.2983,-0.9668,0.122,-0.366,0.183,162.581,8.399,-75.927
7131,-0.1475,0.2983,-0.9697,-0.061,-0.732,0.305,162.581,8.399,-75.927
7141,-0.1479,0.2979,-0.9663,-0.122,-1.099,0.427,162.581,8.410,-75.927
7151,-0.1514,0.3003,-0.9648,-0.244,-1.282,0.549,162.581,8.421,-75.927
7161,-0.1538,0.3008,-0.9648,-0.244,-1.404,0.610,162.576,8.438,-75.927
7171,-0.1523,0.3022,-0.9624,-0.183,-1.404,0.610,162.570,8.448,-75.927
7180,-0.1553,0.3022,-0.9648,-0.244,-1.404,0.671,162.570,8.459,-75.927
7191,-0.1562,0.3037,-0.9634,-0.305,-1.526,0.793,162.565,8.476,-75.927
7200,-0.1602,0.3052,-0.9619,-0.366,-1.648,0.793,162.554,8.498,-75.927
7210,-0.1602,0.3105,-0.9609,-0.549,-1.831,0.793,162.543,8.514,-75.927
7221,-0.1592,0.3140,-0.9629,-0.732,-1.953,0.732,162.526,8.536,-75.927
7231,-0.1606,0.3164,-0.9600,-0.916,-1.953,0.610,162.510,8.558,-75.927
7241,-0.1611,0.3188,-0.9590,-0.977,-1.770,0.244,162.488,8.580,-75.927
7251,-0.1621,0.3159,-0.9609,-0.793,-1.648,-0.366,162.477,8.602,-75.927
7261,-0.1646,0.3120,-0.9604,-0.610,-1.587,-1.099,162.466,8.624,-75.921
7271,-0.1665,0.3037,-0.9604,-0.427,-1.343,-1.892,162.466,8.652,-75.905
7281,-0.1665,0.2969,-0.9600,-0.366,-1.343,-2.502,162.466,8.679,-75.888
7291,-0.1616,0.2915,-0.9609,-0.671,-1.587,-2.686,162.471,8.707,-75.866
7301,-0.1592,0.2905,-0.9624,-0.916,-2.075,-2.563,162.471,8.740,-75.844
7311,-0.1562,0.2881,-0.9590,-0.977,-2.625,-2.136,162.471,8.767,-75.833
7321,-0.1553,0.2876,-0.9580,-1.099,-3.052,-1.526,162.466,8.806,-75.828
7331,-0.1558,0.2900,-0.9546,-1.282,-3.113,-0.916,162.460,8.839,-75.828
7341,-0.1553,0.2920,-0.9482,-1.465,-3.052,-0.305,162.449,8.866,-75.833
7351,-0.1567,0.2988,-0.9453,-1.526,-2.869,0.061,162.433,8.893,-75.844
7361,-0.1592,0.3027,-0.9434,-1.587,-2.502,0.244,162.416,8.921,-75.855
7371,-0.1606,0.3057,-0.9419,-1.526,-1.953,0.366,162.394,8.943,-75.866
7381,-0.1611,0.3062,-0.9385,-1.343,-1.160,0.366,162.372,8.954,-75.872
7391,-0.1606,0.3062,-0.9395,-1.099,-0.244,0.244,162.361,8.959,-75.877
7401,-0.1597,0.3047,-0.9395,-0.732,0.610,0.183,162.350,8.954,-75.872
7411,-0.1602,0.3032,-0.9434,-0.183,1.404,0.305,162.345,8.943,-75.872
7421,-0.1587,0.2998,-0.9468,0.488,2.075,0.366,162.350,8.921,-75.872
7431,-0.1606,0.2954,-0.9531,1.038,2.502,0.427,162.367,8.899,-75.866
7441,-0.1587,0.2925,-0.9565,1.343,2.686,0.549,162.389,8.871,-75.866
7451,-0.1602,0.2935,-0.9629,1.282,2.441,0.793,162.405,8.849,-75.866
7461,-0.1558,0.2920,-0.9712,0.977,2.075,1.099,162.422,8.828,-75.866
7471,-0.1567,0.2939,-0.9756,0.671,1.587,1.404,162.438,8.806,-75.877
7481,-0.1562,0.2954,-0.9775,0.183,1.038,1.648,162.444,8.789,-75.888
7491,-0.1572,0.2969,-0.9785,-0.122,0.366,2.014,162.449,8.778,-75.910
7501,-0.1572,0.3008,-0.9775,-0.366,-0.305,2.319,162.444,8.778,-75.932
7511,-0.1572,0.3081,-0.9741,-0.488,-0.916,2.625,162.433,8.778,-75.959
7521,-0.1577,0.3130,-0.9678,-0.305,-1.526,2.808,162.422,8.784,-75.992
7531,-0.1602,0.3184,-0.9653,0.122,-1.892,2.686,162.411,8.795,-76.020
7541,-0.1621,0.3184,-0.9639,0.610,-1.953,2.319,162.411,8.811,-76.053
7551,-0.1616,0.3193,-0.9619,0.977,-1.831,1.831,162.405,8.822,-76.075
7561,-0.1636,0.3154,-0.9590,1.282,-1.526,1.221,162.411,8.839,-76.091
7571,-0.1597,0.3135,-0.9546,0.977,-1.404,0.732,162.411,8.849,-76.102
7581,-0.1626,0.3110,-0.9512,0.671,-1.587,0.488,162.411,8.866,-76.113
7591,-0.1680,0.3081,-0.9512,0.793,-1.648,0.122,162.416,8.888,-76.119
7601,-0.1704,0.3042,-0.9497,0.793,-1.526,-0.061,162.422,8.910,-76.124
7611,-0.1729,0.2993,-0.9482,0.610,-1.221,0.000,162.427,8.932,-76.124
7621,-0.1733,0.2993,-0.9463,0.610,-0.854,0.061,162.433,8.948,-76.130
7631,-0.1714,0.2988,-0.9473,0.305,-0.732,0.122,162.438,8.965,-76.130
7641,-0.1704,0.3003,-0.9463,0.122,-0.549,0.244,162.438,8.976,-76.135
7651,-0.1685,0.3022,-0.9448,0.061,-0.244,0.427,162.433,8.987,-76.141
7661,-0.1665,0.3008,-0.9468,0.183,0.122,0.549,162.433,8.987,-76.146
7671,-0.1670,0.2993,-0.9507,0.366,0.549,0.610,162.438,8.987,-76.152
7681,-0.1655,0.2998,-0.9507,0.610,0.977,0.427,162.444,8.981,-76.152
7691,-0.1631,0.3008,-0.9531,0.549,1.282,0.366,162.449,8.970,-76.152
7701,-0.1631,0.3003,-0.9585,0.183,1.404,0.305,162.455,8.959,-76.152
7711,-0.1597,0.3008,-0.9609,-0.061,1.343,0.183,162.455,8.948,-76.146
7721,-0.1597,0.3008,-0.9648,-0.122,1.343,0.000,162.460,8.932,-76.141
7731,-0.1567,0.2969,-0.9673,-0.061,1.282,0.000,162.460,8.921,-76.141
7741,-0.1548,0.2979,-0.9673,0.000,1.099,0.061,162.466,8.910,-76.135
7751,-0.1528,0.2979,-0.9678,0.061,0.671,0.183,162.471,8.899,-76.135
7761,-0.1548,0.2974,-0.9697,0.000,0.183,0.183,162.477,8.893,-76.135
7771,-0.1528,0.2979,-0.9697,-0.244,-0.183,0.244,162.477,8.888,-76.141
7781,-0.1543,0.2983,-0.9673,-0.366,-0.488,0.305,162.477,8.893,-76.146
7791,-0.1553,0.2979,-0.9673,-0.366,-0.671,0.305,162.477,8.893,-76.152
7801,-0.1553,0.2974,-0.9634,-0.305,-0.854,0.305,162.477,8.899,-76.157
7811,-0.1562,0.2983,-0.9609,-0.183,-0.916,0.366,162.477,8.910,-76.163
7821,-0.1577,0.2964,-0.9570,0.000,-0.854,0.427,162.477,8.915,-76.168
7831,-0.1592,0.2969,-0.9517,0.061,-0.732,0.549,162.482,8.921,-76.174
7841,-0.1592,0.2949,-0.9487,0.183,-0.671,0.671,162.482,8.926,-76.185
7851,-0.1636,0.2939,-0.9404,0.244,-0.549,0.732,162.488,8.937,-76.196
7861,-0.1646,0.2954,-0.9380,0.305,-0.183,0.854,162.488,8.943,-76.201
7871,-0.1660,0.2959,-0.9395,0.610,0.549,0.854,162.493,8.937,-76.207
7881,-0.1646,0.2979,-0.9390,1.099,1.404,0.854,162.504,8.926,-76.212
7891,-0.1641,0.2944,-0.9438,1.587,2.136,0.854,162.521,8.910,-76.212
7901,-0.1655,0.2920,-0.9458,1.892,2.563,0.916,162.543,8.888,-76.218
7911,-0.1660,0.2900,-0.9468,1.831,2.747,1.099,162.565,8.866,-76.218
7921,-0.1665,0.2920,-0.9507,1.587,2.808,1.282,162.581,8.844,-76.223
7931,-0.1670,0.2935,-0.9531,1.526,2.930,1.465,162.598,8.817,-76.229
7941,-0.1675,0.2959,-0.9551,1.404,3.174,1.648,162.614,8.789,-76.234
7951,-0.1670,0.2998,-0.9595,1.404,3.418,1.770,162.625,8.756,-76.240
7961,-0.1626,0.3022,-0.9644,1.404,3.418,1.831,162.642,8.723,-76.245
7971,-0.1616,0.3052,-0.9692,1.160,3.296,1.953,162.647,8.690,-76.256
7981,-0.1636,0.3052,-0.9692,0.916,2.808,2.075,162.653,8.663,-76.267
7991,-0.1621,0.3096,-0.9668,0.671,2.258,1.953,162.658,8.641,-76.278
8001,-0.1602,0.3110,-0.9683,0.305,1.770,1.953,162.653,8.619,-76.295
8011,-0.1602,0.3179,-0.9697,0.000,1.343,1.892,162.642,8.608,-76.306
8021,-0.1582,0.3218,-0.9678,-0.061,1.099,1.648,162.631,8.591,-76.322
8031,-0.1533,0.3228,-0.9712,0.183,1.099,1.282,162.620,8.575,-76.328
8041,-0.1538,0.3203,-0.9712,0.244,1.038,0.793,162.614,8.564,-76.333
8051,-0.1519,0.3184,-0.9736,0.183,0.977,0.366,162.609,8.553,-76.333
8061,-0.1528,0.3125,-0.9731,0.061,0.732,0.061,162.603,8.547,-76.333
8071,-0.1519,0.3105,-0.9717,-0.305,0.244,-0.122,162.598,8.542,-76.333
8081,-0.1528,0.3105,-0.9688,-0.549,-0.305,-0.183,162.587,8.547,-76.328
8091,-0.1543,0.3091,-0.9707,-0.610,-0.671,-0.244,162.581,8.553,-76.328
8101,-0.1562,0.3081,-0.9673,-0.610,-0.854,-0.305,162.570,8.564,-76.328
8111,-0.1577,0.3081,-0.9644,-0.610,-0.916,-0.366,162.565,8.580,-76.328
8121,-0.1562,0.3062,-0.9595,-0.488,-1.099,-0.488,162.554,8.591,-76.328
8131,-0.1567,0.3066,-0.9570,-0.427,-1.282,-0.488,162.548,8.608,-76.328
8141,-0.1582,0.3052,-0.9556,-0.305,-1.282,-0.488,162.543,8.624,-76.328
8151,-0.1577,0.3027,-0.9517,-0.122,-1.038,-0.549,162.537,8.641,-76.322
8161,-0.1582,0.2998,-0.9492,0.122,-0.610,-0.549,162.543,8.652,-76.322
8171,-0.1562,0.3018,-0.9482,0.305,-0.183,-0.488,162.543,8.657,-76.317
8181,-0.1572,0.3003,-0.9463,0.488,0.122,-0.488,162.548,8.663,-76.311
8191,-0.1543,0.3013,-0.9458,0.610,0.366,-0.488,162.554,8.663,-76.306
8201,-0.1509,0.3008,-0.9463,0.854,0.732,-0.488,162.559,8.657,-76.300
8211,-0.1523,0.3027,-0.9502,1.038,1.221,-0.671,162.570,8.646,-76.289
8221,-0.1519,0.2993,-0.9556,1.099,1.709,-0.793,162.581,8.630,-76.273
8231,-0.1514,0.3003,-0.9561,1.160,2.014,-0.793,162.592,8.613,-76.262
8241,-0.1509,0.3008,-0.9585,1.221,2.258,-0.854,162.609,8.597,-76.245
8251,-0.1494,0.2988,-0.9600,1.221,2.136,-0.793,162.625,8.575,-76.234
8261,-0.1528,0.2959,-0.9653,1.221,1.892,-0.793,162.642,8.558,-76.218
8271,-0.1523,0.2944,-0.9702,1.099,1.709,-0.732,162.658,8.547,-76.207
8281,-0.1519,0.2939,-0.9751,1.038,1.587,-0.732,162.675,8.531,-76.196
8291,-0.1528,0.2896,-0.9761,1.099,1.343,-0.732,162.697,8.520,-76.185
8301,-0.1538,0.2886,-0.9790,1.099,0.977,-0.671,162.719,8.514,-76.174
8311,-0.1538,0.2896,-0.9780,0.671,0.427,-0.549,162.735,8.514,-76.168
8321,-0.1543,0.2871,-0.9712,0.061,-0.244,-0.244,162.740,8.520,-76.168
8331,-0.1543,0.2871,-0.9668,-0.427,-0.793,0.000,162.746,8.525,-76.168
8341,-0.1553,0.2861,-0.9634,-0.671,-1.160,0.122,162.746,8.542,-76.174
8351,-0.1572,0.2876,-0.9585,-0.549,-1.160,0.305,162.746,8.553,-76.179
8361,-0.1572,0.2910,-0.9551,-0.305,-0.732,0.488,162.740,8.564,-76.185
8371,-0.1558,0.2910,-0.9551,0.000,-0.427,0.610,162.746,8.569,-76.196
8381,-0.1572,0.2920,-0.9561,0.305,-0.366,0.671,162.751,8.575,-76.201
8391,-0.1567,0.2930,-0.9556,0.305,-0.366,0.732,162.751,8.580,-76.207
8401,-0.1577,0.2939,-0.9580,0.244,-0.244,0.793,162.757,8.580,-76.218
8411,-0.1558,0.2974,-0.9565,0.244,-0.183,0.793,162.757,8.586,-76.223
8421,-0.1587,0.2983,-0.9556,0.488,-0.061,0.671,162.762,8.586,-76.234
8431,-0.1572,0.2959,-0.9556,0.793,0.000,0.549,162.768,8.591,-76.240
8441,-0.1577,0.2969,-0.9561,0.793,0.244,0.488,162.773,8.591,-76.240
8451,-0.1616,0.2979,-0.9590,0.916,0.366,0.427,162.784,8.591,-76.245
8461,-0.1611,0.2959,-0.9595,0.977,0.488,0.366,162.795,8.591,-76.245
8471,-0.1621,0.2954,-0.9600,0.854,0.427,0.366,162.801,8.591,-76.251
8481,-0.1616,0.2954,-0.9580,0.671,0.305,0.427,162.806,8.591,-76.251
8491,-0.1611,0.2974,-0.9570,0.549,0.305,0.549,162.812,8.591,-76.256
8501,-0.1611,0.2964,-0.9570,0.610,0.366,0.488,162.817,8.591,-76.262
8511,-0.1621,0.2939,-0.9556,0.854,0.610,0.366,162.828,8.591,-76.262
8521,-0.1602,0.2954,-0.9570,0.977,0.854,0.366,162.839,8.591,-76.262
8531,-0.1572,0.2954,-0.9614,1.099,1.038,0.366,162.850,8.580,-76.262
8541,-0.1567,0.2935,-0.9595,1.038,0.977,0.427,162.861,8.575,-76.267
8551,-0.1567,0.2949,-0.9619,0.854,0.977,0.427,162.867,8.564,-76.267
8561,-0.1558,0.2964,-0.9624,0.549,0.916,0.427,162.872,8.558,-76.267
8571,-0.1567,0.2959,-0.9595,0.488,0.793,0.488,162.878,8.553,-76.267
8581,-0.1558,0.2979,-0.9600,0.488,0.732,0.488,162.883,8.547,-76.273
8591,-0.1567,0.2998,-0.9600,0.671,0.916,0.488,162.889,8.542,-76.273
8601,-0.1562,0.3013,-0.9624,0.916,1.099,0.427,162.894,8.531,-76.273
8611,-0.1538,0.3018,-0.9614,1.160,1.282,0.244,162.900,8.520,-76.273
8621,-0.1538,0.3008,-0.9614,1.160,1.404,0.122,162.911,8.509,-76.273
8631,-0.1538,0.2969,-0.9604,0.977,1.282,-0.061,162.922,8.498,-76.267
8641,-0.1548,0.2935,-0.9604,0.549,1.160,-0.122,162.927,8.487,-76.262
8651,-0.1553,0.2969,-0.9585,0.122,1.160,-0.061,162.927,8.481,-76.256
8661,-0.1538,0.2969,-0.9595,0.305,1.343,-0.061,162.927,8.470,-76.251
8671,-0.1538,0.2949,-0.9604,0.916,1.648,-0.122,162.938,8.459,-76.245
8681,-0.1494,0.2920,-0.9624,1.587,1.953,-0.244,162.960,8.438,-76.240
8691,-0.1470,0.2886,-0.9668,1.953,2.136,-0.183,162.982,8.421,-76.229
8701,-0.1455,0.2876,-0.9707,1.892,1.953,0.183,163.010,8.399,-76.229
8711,-0.1460,0.2881,-0.9727,1.404,1.526,0.549,163.026,8.377,-76.229
8721,-0.1465,0.2925,-0.9756,0.305,0.610,1.160,163.032,8.366,-76.234
8731,-0.1455,0.2954,-0.9761,0.122,0.305,1.282,163.032,8.361,-76.251
8741,-0.1450,0.2993,-0.9775,0.122,-0.061,1.465,163.032,8.355,-76.262
8751,-0.1460,0.3027,-0.9775,0.000,-0.671,1.526,163.026,8.350,-76.278
8761,-0.1475,0.3062,-0.9766,-0.244,-1.404,1.465,163.015,8.361,-76.300
8771,-0.1494,0.3076,-0.9746,-0.488,-2.014,1.343,163.004,8.377,-76.317
8781,-0.1538,0.3096,-0.9673,-0.488,-2.197,0.916,162.988,8.394,-76.333
8791,-0.1562,0.3052,-0.9639,-0.305,-2.136,0.366,162.977,8.416,-76.344
8801,-0.1577,0.3032,-0.9604,-0.122,-1.892,-0.122,162.971,8.443,-76.344
8811,-0.1592,0.2993,-0.9585,-0.061,-1.526,-0.488,162.966,8.465,-76.344
8821,-0.1562,0.2998,-0.9551,-0.122,-1.465,-0.549,162.960,8.481,-76.344
8831,-0.1558,0.2974,-0.9531,0.000,-1.648,-0.671,162.960,8.503,-76.344
8841,-0.1587,0.2915,-0.9541,0.671,-1.587,-1.099,162.966,8.525,-76.339
8851,-0.1577,0.2915,-0.9507,1.099,-1.221,-1.404,162.982,8.547,-76.328
8861,-0.1577,0.2886,-0.9463,1.343,-0.793,-1.648,162.993,8.564,-76.317
8871,-0.1582,0.2817,-0.9438,1.526,-0.305,-1.709,163.015,8.580,-76.300
8881,-0.1592,0.2778,-0.9458,1.282,0.244,-1.648,163.037,8.586,-76.284
8891,-0.1572,0.2759,-0.9458,1.038,0.793,-1.404,163.059,8.586,-76.267
8901,-0.1553,0.2744,-0.9458,1.160,1.465,-0.977,163.081,8.580,-76.251
8911,-0.1538,0.2749,-0.9468,1.587,2.014,-0.549,163.103,8.564,-76.240
8921,-0.1509,0.2783,-0.9526,2.014,2.502,-0.183,163.130,8.542,-76.234
8931,-0.1494,0.2798,-0.9600,2.441,2.991,0.122,163.163,8.514,-76.223
8941,-0.1499,0.2783,-0.9619,2.686,3.174,0.366,163.196,8.481,-76.218
8951,-0.1523,0.2783,-0.9648,2.380,3.174,0.549,163.229,8.454,-76.212
8961,-0.1538,0.2788,-0.9722,1.770,3.052,0.671,163.251,8.427,-76.212
8971,-0.1553,0.2842,-0.9766,1.282,2.869,0.854,163.273,8.399,-76.212
8981,-0.1538,0.2871,-0.9810,1.160,2.625,1.038,163.284,8.372,-76.212
8991,-0.1514,0.2876,-0.9844,1.282,2.075,1.160,163.301,8.350,-76.218
9001,-0.1519,0.2910,-0.9883,1.221,1.343,1.160,163.317,8.333,-76.229
9011,-0.1523,0.2920,-0.9922,0.977,0.671,1.160,163.328,8.322,-76.234
9021,-0.1533,0.2949,-0.9897,0.793,0.061,1.099,163.334,8.322,-76.245
9031,-0.1528,0.2939,-0.9888,0.793,-0.427,0.977,163.345,8.322,-76.256
9041,-0.1523,0.2925,-0.9863,0.549,-1.099,0.916,163.350,8.333,-76.267
9051,-0.1509,0.2920,-0.9800,0.305,-1.892,0.854,163.350,8.350,-76.284
9061,-0.1528,0.2930,-0.9756,0.000,-2.747,0.793,163.345,8.372,-76.300
9071,-0.1538,0.2930,-0.9683,-0.244,-3.235,0.793,163.339,8.405,-76.317
9081,-0.1528,0.2949,-0.9590,-0.427,-3.296,0.732,163.328,8.438,-76.333
9091,-0.1523,0.2959,-0.9531,-0.549,-2.991,0.671,163.317,8.465,-76.349
9101,-0.1538,0.2944,-0.9478,-0.549,-2.563,0.610,163.301,8.492,-76.360
9111,-0.1562,0.2969,-0.9448,-0.427,-2.014,0.488,163.290,8.514,-76.371
9121,-0.1558,0.2993,-0.9438,-0.061,-1.343,0.305,163.279,8.531,-76.377
9131,-0.1548,0.3003,-0.9399,0.366,-0.732,0.183,163.273,8.542,-76.382
9140,-0.1558,0.2974,-0.9419,0.854,0.000,0.000,163.273,8.547,-76.382
9151,-0.1567,0.2939,-0.9478,1.099,0.732,-0.061,163.279,8.542,-76.377
9161,-0.1577,0.2954,-0.9478,1.404,1.343,-0.122,163.284,8.536,-76.377
9171,-0.1567,0.2930,-0.9526,1.587,1.831,-0.305,163.301,8.520,-76.366
9181,-0.1562,0.2915,-0.9541,1.953,2.136,-0.366,163.317,8.509,-76.355
9191,-0.1553,0.2935,-0.9609,2.197,2.380,-0.427,163.339,8.487,-76.344
9201,-0.1548,0.2905,-0.9653,2.808,2.319,-0.488,163.367,8.470,-76.333
9211,-0.1528,0.2861,-0.9717,3.479,2.258,-0.488,163.405,8.448,-76.322
9221,-0.1533,0.2856,-0.9736,3.357,2.014,-0.488,163.444,8.438,-76.311
9231,-0.1533,0.2871,-0.9746,2.747,1.587,-0.366,163.471,8.421,-76.306
9241,-0.1523,0.2852,-0.9780,2.319,1.221,-0.244,163.499,8.410,-76.300
9251,-0.1504,0.2837,-0.9790,2.075,0.916,-0.244,163.521,8.405,-76.295
9261,-0.1504,0.2827,-0.9775,1.770,0.671,-0.488,163.542,8.399,-76.284
9271,-0.1528,0.2759,-0.9722,1.404,0.305,-0.732,163.564,8.399,-76.278
9281,-0.1533,0.2739,-0.9678,0.732,-0.183,-0.671,163.581,8.405,-76.273
9291,-0.1538,0.2725,-0.9668,-0.183,-0.549,-0.427,163.586,8.416,-76.267
9301,-0.1538,0.2759,-0.9673,-0.671,-0.488,-0.183,163.586,8.421,-76.267
9311,-0.1514,0.2783,-0.9668,-0.488,-0.366,0.061,163.581,8.427,-76.273
9321,-0.1470,0.2764,-0.9639,0.244,-0.122,0.000,163.592,8.427,-76.273
9330,-0.1475,0.2759,-0.9639,0.793,0.000,0.000,163.603,8.427,-76.273
9341,-0.1484,0.2744,-0.9648,0.854,0.000,0.061,163.614,8.427,-76.273
9351,-0.1484,0.2744,-0.9648,0.610,-0.183,0.244,163.625,8.427,-76.273
9361,-0.1519,0.2764,-0.9600,0.183,-0.427,0.366,163.630,8.432,-76.278
9371,-0.1519,0.2759,-0.9590,-0.122,-0.610,0.488,163.630,8.443,-76.284
9381,-0.1528,0.2749,-0.9575,-0.183,-0.427,0.671,163.630,8.443,-76.295
9391,-0.1514,0.2754,-0.9614,0.122,0.000,0.854,163.636,8.443,-76.300
9401,-0.1538,0.2769,-0.9575,0.427,0.366,0.977,163.641,8.443,-76.311
9411,-0.1548,0.2773,-0.9570,0.488,0.671,1.099,163.647,8.438,-76.322
9421,-0.1558,0.2783,-0.9570,0.549,0.671,1.160,163.652,8.432,-76.328
9431,-0.1558,0.2798,-0.9609,0.366,0.488,1.221,163.652,8.427,-76.339
9441,-0.1548,0.2837,-0.9634,0.305,0.610,1.282,163.658,8.421,-76.349
9451,-0.1543,0.2866,-0.9639,0.244,0.916,1.221,163.652,8.410,-76.360
9461,-0.1538,0.2871,-0.9644,0.366,1.282,1.221,163.652,8.399,-76.366
9471,-0.1523,0.2876,-0.9644,0.549,1.404,1.099,163.658,8.383,-76.371
9481,-0.1519,0.2920,-0.9663,0.610,1.221,0.977,163.658,8.372,-76.382
9491,-0.1533,0.2910,-0.9712,0.671,0.977,0.793,163.658,8.361,-76.382
9501,-0.1519,0.2930,-0.9678,0.671,0.732,0.610,163.658,8.355,-76.388
9511,-0.1509,0.2915,-0.9702,0.549,0.610,0.427,163.663,8.350,-76.393
9521,-0.1499,0.2944,-0.9697,0.366,0.610,0.305,163.658,8.344,-76.393
9531,-0.1523,0.2935,-0.9697,0.305,0.671,0.183,163.658,8.339,-76.393
9541,-0.1519,0.2910,-0.9683,0.488,0.732,0.061,163.658,8.333,-76.388
9551,-0.1523,0.2896,-0.9678,0.671,0.610,-0.122,163.663,8.333,-76.388
9561,-0.1523,0.2861,-0.9707,0.854,0.549,-0.183,163.669,8.328,-76.382
9571,-0.1499,0.2852,-0.9717,0.854,0.427,-0.244,163.680,8.328,-76.382
9581,-0.1499,0.2832,-0.9717,0.610,0.183,-0.366,163.685,8.328,-76.377
9591,-0.1484,0.2817,-0.9668,0.183,-0.061,-0.488,163.691,8.328,-76.371
9601,-0.1514,0.2803,-0.9668,-0.305,-0.244,-0.427,163.691,8.333,-76.371
9611,-0.1553,0.2793,-0.9678,-0.610,-0.183,-0.366,163.685,8.344,-76.366
9621,-0.1538,0.2783,-0.9692,-0.610,-0.061,-0.305,163.685,8.344,-76.360
9631,-0.1509,0.2764,-0.9658,-0.244,0.000,-0.183,163.685,8.350,-76.360
9641,-0.1528,0.2759,-0.9668,0.244,-0.061,0.000,163.691,8.355,-76.360
9651,-0.1509,0.2769,-0.9683,0.427,-0.183,0.122,163.696,8.355,-76.360
9661,-0.1484,0.2778,-0.9683,0.427,-0.305,0.183,163.702,8.361,-76.366
9671,-0.1499,0.2764,-0.9688,0.244,-0.366,0.061,163.713,8.361,-76.366
9681,-0.1519,0.2803,-0.9697,-0.122,-0.366,0.061,163.713,8.366,-76.371
9691,-0.1499,0.2788,-0.9668,-0.549,-0.427,0.122,163.707,8.372,-76.371
9701,-0.1504,0.2773,-0.9668,-0.671,-0.488,0.244,163.702,8.377,-76.377
9711,-0.1528,0.2783,-0.9629,-0.549,-0.610,0.244,163.696,8.388,-76.377
9721,-0.1558,0.2798,-0.9595,-0.366,-0.671,0.366,163.696,8.394,-76.382
9731,-0.1562,0.2803,-0.9575,-0.183,-0.488,0.488,163.691,8.405,-76.393
9741,-0.1577,0.2812,-0.9570,-0.244,-0.183,0.427,163.685,8.410,-76.393
9751,-0.1572,0.2817,-0.9585,-0.305,0.061,0.366,163.685,8.416,-76.399
9761,-0.1587,0.2861,-0.9604,-0.488,0.366,0.305,163.674,8.416,-76.399
9771,-0.1572,0.2881,-0.9634,-0.427,0.488,0.305,163.669,8.416,-76.404
9781,-0.1567,0.2886,-0.9624,-0.244,0.671,0.244,163.663,8.410,-76.404
9791,-0.1553,0.2881,-0.9614,0.000,0.671,0.244,163.658,8.410,-76.404
9801,-0.1543,0.2886,-0.9619,0.122,0.549,0.122,163.658,8.405,-76.404
9811,-0.1543,0.2871,-0.9629,0.061,0.427,0.000,163.652,8.405,-76.399
9821,-0.1543,0.2871,-0.9619,-0.122,0.366,-0.244,163.652,8.405,-76.399
9831,-0.1553,0.2856,-0.9639,-0.305,0.366,-0.427,163.647,8.410,-76.393
9841,-0.1558,0.2856,-0.9629,-0.427,0.671,-0.488,163.641,8.405,-76.388
9851,-0.1558,0.2847,-0.9644,-0.366,0.793,-0.427,163.636,8.405,-76.382
9861,-0.1553,0.2827,-0.9663,-0.122,0.854,-0.488,163.636,8.399,-76.371
9871,-0.1538,0.2827,-0.9658,0.183,0.732,-0.488,163.641,8.399,-76.366
9881,-0.1528,0.2798,-0.9644,0.427,0.671,-0.427,163.647,8.399,-76.360
9891,-0.1528,0.2773,-0.9644,0.488,0.610,-0.305,163.658,8.394,-76.355
9901,-0.1494,0.2793,-0.9629,0.366,0.610,-0.427,163.663,8.388,-76.349
9911,-0.1514,0.2788,-0.9668,0.305,0.732,-0.488,163.669,8.388,-76.344
9921,-0.1509,0.2754,-0.9683,0.244,0.854,-0.488,163.680,8.383,-76.333
9931,-0.1504,0.2759,-0.9673,0.061,0.854,-0.427,163.685,8.377,-76.328
9941,-0.1504,0.2725,-0.9648,-0.122,0.732,-0.305,163.685,8.372,-76.322
9951,-0.1489,0.2778,-0.9634,-0.244,0.549,-0.061,163.691,8.366,-76.322
9961,-0.1489,0.2793,-0.9639,-0.183,0.427,0.061,163.685,8.361,-76.322
9971,-0.1499,0.2812,-0.9648,0.183,0.610,0.000,163.691,8.361,-76.317
9981,-0.1484,0.2783,-0.9663,0.610,0.854,-0.183,163.702,8.350,-76.317
9991,-0.1499,0.2778,-0.9673,0.793,1.099,-0.305,163.713,8.344,-76.311
10001,-0.1509,0.2739,-0.9663,0.732,1.221,-0.305,163.724,8.333,-76.300
10011,-0.1523,0.2754,-0.9668,0.488,1.160,-0.122,163.735,8.328,-76.300
10021,-0.1528,0.2773,-0.9648,0.244,1.099,0.000,163.740,8.317,-76.295
10031,-0.1533,0.2764,-0.9697,0.427,1.038,0.000,163.746,8.311,-76.295
10041,-0.1538,0.2744,-0.9722,0.854,1.221,-0.122,163.762,8.306,-76.289
10051,-0.1538,0.2739,-0.9741,1.160,1.343,-0.244,163.779,8.295,-76.284
10061,-0.1509,0.2720,-0.9771,1.160,1.282,-0.366,163.795,8.284,-76.273
10071,-0.1479,0.2686,-0.9839,1.160,0.977,-0.366,163.817,8.278,-76.267
10081,-0.1465,0.2686,-0.9883,1.099,0.427,-0.305,163.839,8.273,-76.262
10091,-0.1479,0.2686,-0.9883,0.916,-0.366,-0.183,163.861,8.278,-76.262
10101,-0.1504,0.2725,-0.9834,0.671,-1.404,-0.061,163.872,8.289,-76.267
10111,-0.1538,0.2729,-0.9780,0.671,-2.380,-0.122,163.883,8.317,-76.273
10121,-0.1602,0.2700,-0.9712,0.671,-2.930,-0.854,163.894,8.355,-76.273
10131,-0.1621,0.2686,-0.9624,0.244,-2.869,-1.770,163.905,8.394,-76.262
10141,-0.1631,0.2651,-0.9565,-0.427,-2.319,-2.441,163.911,8.432,-76.245
10151,-0.1553,0.2607,-0.9546,-1.465,-1.831,-2.502,163.905,8.465,-76.229
10161,-0.1494,0.2622,-0.9590,-2.441,-1.404,-2.258,163.889,8.481,-76.207
10171,-0.1455,0.2666,-0.9683,-3.113,-1.160,-1.587,163.867,8.498,-76.196
10181,-0.1396,0.2754,-0.9731,-3.357,-1.038,-0.671,163.839,8.503,-76.190
10191,-0.1396,0.2812,-0.9819,-3.296,-1.282,0.244,163.806,8.503,-76.196
10201,-0.1431,0.2866,-0.9873,-3.235,-1.770,0.793,163.773,8.514,-76.212
10211,-0.1445,0.2930,-0.9917,-3.906,-2.563,1.099,163.729,8.531,-76.229
10221,-0.1499,0.2998,-0.9971,-4.822,-3.479,1.160,163.674,8.558,-76.251
10231,-0.1558,0.3027,-0.9976,-5.371,-4.272,0.977,163.614,8.591,-76.273
10241,-0.1582,0.3042,-0.9956,-5.920,-5.127,0.732,163.542,8.641,-76.295
10251,-0.1631,0.3110,-0.9878,-6.226,-6.348,0.610,163.471,8.701,-76.317
10261,-0.1685,0.3130,-0.9824,-6.042,-7.507,0.549,163.394,8.778,-76.344
10271,-0.1704,0.3164,-0.9722,-5.737,-8.545,0.488,163.317,8.866,-76.371
10281,-0.1733,0.3164,-0.9658,-5.310,-9.216,0.061,163.246,8.959,-76.399
10291,-0.1772,0.3149,-0.9561,-4.944,-9.094,-0.732,163.180,9.058,-76.421
10301,-0.1758,0.3135,-0.9458,-5.310,-8.728,-1.221,163.109,9.152,-76.432
10311,-0.1748,0.3130,-0.9336,-5.859,-8.179,-1.648,163.037,9.245,-76.443
10321,-0.1753,0.3110,-0.9263,-5.859,-7.446,-2.014,162.960,9.333,-76.443
10331,-0.1758,0.3096,-0.9219,-5.615,-6.775,-2.319,162.889,9.410,-76.443
10341,-0.1807,0.3047,-0.9253,-4.456,-5.676,-2.686,162.834,9.481,-76.432
10351,-0.1792,0.2979,-0.9277,-2.747,-4.028,-2.808,162.806,9.542,-76.421
10361,-0.1792,0.2920,-0.9307,-1.282,-2.563,-2.808,162.795,9.580,-76.399
10371,-0.1812,0.2881,-0.9355,0.000,-1.526,-2.563,162.795,9.613,-76.377
10381,-0.1870,0.2852,-0.9395,1.038,-1.038,-2.319,162.812,9.641,-76.360
10391,-0.1899,0.2817,-0.9478,1.892,-0.610,-2.197,162.845,9.662,-76.339
10401,-0.1899,0.2773,-0.9556,2.258,-0.366,-1.953,162.878,9.684,-76.322
10411,-0.1807,0.2759,-0.9614,1.953,-0.305,-1.160,162.911,9.695,-76.311
10421,-0.1758,0.2793,-0.9639,1.099,-0.916,0.122,162.927,9.706,-76.317
10431,-0.1704,0.2832,-0.9673,0.000,-1.892,1.709,162.933,9.717,-76.339
10441,-0.1680,0.2930,-0.9634,-0.977,-2.991,3.174,162.916,9.734,-76.377
10451,-0.1675,0.3037,-0.9648,-1.709,-3.662,4.456,162.889,9.756,-76.432
10461,-0.1646,0.3145,-0.9614,-2.136,-4.150,5.371,162.845,9.772,-76.498
10471,-0.1660,0.3218,-0.9565,-2.502,-4.456,5.981,162.795,9.794,-76.569
10481,-0.1714,0.3301,-0.9526,-3.174,-4.822,6.226,162.729,9.822,-76.641
10491,-0.1772,0.3384,-0.9482,-3.723,-5.188,6.042,162.658,9.855,-76.718
10501,-0.1846,0.3462,-0.9429,-4.089,-5.371,5.371,162.581,9.893,-76.783
10511,-0.1885,0.3501,-0.9380,-3.479,-5.615,3.967,162.504,9.943,-76.838
10521,-0.1987,0.3457,-0.9434,-1.648,-6.226,1.892,162.455,10.009,-76.877
10531,-0.2100,0.3418,-0.9482,-0.671,-5.737,0.549,162.422,10.080,-76.899
10541,-0.2139,0.3340,-0.9502,0.488,-4.089,-0.549,162.405,10.135,-76.910
10551,-0.2144,0.3213,-0.9517,2.197,-2.136,-1.892,162.422,10.179,-76.893
10561,-0.2119,0.3252,-0.9502,3.357,-0.671,-2.869,162.444,10.212,-76.871
10571,-0.2070,0.3193,-0.9546,6.042,-0.061,-4.028,162.504,10.239,-76.833
10581,-0.2046,0.3105,-0.9556,9.949,0.366,-5.188,162.603,10.267,-76.778
10591,-0.1978,0.2905,-0.9619,14.587,1.038,-6.287,162.768,10.283,-76.718
10601,-0.1914,0.2690,-0.9673,18.372,1.343,-6.958,162.977,10.294,-76.646
10611,-0.1807,0.2451,-0.9683,20.264,1.221,-6.958,163.218,10.305,-76.575
10621,-0.1733,0.2295,-0.9736,19.653,0.671,-6.165,163.460,10.311,-76.509
10631,-0.1685,0.2202,-0.9761,16.785,0.122,-5.371,163.674,10.316,-76.459
10641,-0.1660,0.2104,-0.9688,12.390,-0.488,-4.211,163.845,10.327,-76.421
10651,-0.1626,0.2178,-0.9668,6.165,-1.587,-2.441,163.943,10.338,-76.399
10661,-0.1597,0.2368,-0.9653,0.061,-2.441,-0.366,163.965,10.349,-76.404
10671,-0.1626,0.2593,-0.9546,-3.906,-3.113,1.587,163.932,10.366,-76.426
10681,-0.1665,0.2783,-0.9482,-5.127,-3.357,2.625,163.872,10.382,-76.459
10691,-0.1748,0.2891,-0.9404,-3.967,-3.174,2.747,163.817,10.399,-76.498
10701,-0.1860,0.2900,-0.9351,-2.258,-2.563,2.625,163.779,10.421,-76.531
10711,-0.1929,0.2930,-0.9229,-0.916,-1.648,2.502,163.751,10.437,-76.558
10721,-0.2002,0.2891,-0.9180,-0.366,-0.671,1.892,163.729,10.453,-76.580
10731,-0.2002,0.2871,-0.9219,-0.732,0.610,1.099,163.713,10.453,-76.591
10741,-0.2002,0.2900,-0.9224,-1.343,2.075,0.427,163.685,10.448,-76.586
10751,-0.1948,0.2944,-0.9243,-1.587,3.418,-0.061,163.658,10.426,-76.575
10761,-0.1875,0.2939,-0.9355,-0.549,4.456,-0.427,163.647,10.388,-76.558
10771,-0.1812,0.2910,-0.9468,1.465,5.554,-0.977,163.658,10.338,-76.536
10781,-0.1709,0.2866,-0.9512,3.357,6.104,-1.221,163.691,10.278,-76.503
10791,-0.1646,0.2778,-0.9551,3.967,5.981,-1.038,163.735,10.212,-76.476
10801,-0.1631,0.2705,-0.9629,3.662,5.615,-0.916,163.784,10.151,-76.454
10811,-0.1636,0.2681,-0.9678,2.258,5.554,-0.854,163.817,10.096,-76.426
10821,-0.1646,0.2686,-0.9741,1.099,6.104,-0.793,163.839,10.031,-76.404
10831,-0.1675,0.2710,-0.9805,0.793,7.080,-0.732,163.856,9.959,-76.377
10841,-0.1597,0.2656,-0.9878,1.343,7.507,-0.488,163.889,9.877,-76.349
10851,-0.1597,0.2568,-0.9961,2.625,7.385,-0.427,163.932,9.800,-76.328
10861,-0.1592,0.2524,-1.0000,2.930,6.348,0.183,163.982,9.728,-76.311
10871,-0.1592,0.2529,-1.0015,2.136,4.211,1.282,164.026,9.673,-76.311
10881,-0.1626,0.2529,-1.0034,1.526,2.258,1.953,164.053,9.641,-76.322
10891,-0.1670,0.2563,-1.0020,0.610,0.793,2.441,164.075,9.619,-76.344
10901,-0.1660,0.2598,-0.9976,-0.183,0.122,2.747,164.081,9.608,-76.371
10911,-0.1636,0.2583,-0.9917,-0.793,-0.244,2.930,164.081,9.597,-76.399
10921,-0.1631,0.2588,-0.9849,-1.709,-0.916,3.357,164.070,9.591,-76.437
10931,-0.1641,0.2612,-0.9790,-2.930,-1.831,3.723,164.042,9.591,-76.476
10941,-0.1587,0.2646,-0.9751,-3.723,-2.502,3.723,164.009,9.602,-76.520
10951,-0.1538,0.2681,-0.9736,-4.272,-2.930,3.662,163.965,9.608,-76.564
10961,-0.1514,0.2734,-0.9717,-4.700,-3.296,3.906,163.911,9.619,-76.613
10971,-0.1519,0.2773,-0.9648,-4.883,-3.540,4.211,163.856,9.630,-76.663
10981,-0.1504,0.2817,-0.9556,-4.700,-3.906,4.395,163.801,9.646,-76.718
10991,-0.1616,0.2832,-0.9575,-4.272,-3.967,4.272,163.746,9.668,-76.767
11001,-0.1724,0.2817,-0.9570,-3.967,-3.235,3.784,163.696,9.690,-76.816
11011,-0.1758,0.2808,-0.9546,-3.662,-2.014,3.235,163.652,9.701,-76.855
11021,-0.1772,0.2798,-0.9512,-3.601,-1.221,2.808,163.614,9.712,-76.882
11031,-0.1792,0.2788,-0.9526,-3.906,-1.465,2.625,163.570,9.723,-76.915
11041,-0.1777,0.2793,-0.9570,-3.967,-1.892,2.502,163.526,9.734,-76.943
11051,-0.1724,0.2783,-0.9536,-3.784,-2.319,2.380,163.488,9.750,-76.970
11061,-0.1772,0.2788,-0.9512,-3.601,-2.380,2.441,163.449,9.772,-77.003
11071,-0.1841,0.2798,-0.9482,-3.113,-2.136,2.502,163.411,9.794,-77.036
11081,-0.1846,0.2803,-0.9473,-2.136,-1.343,2.136,163.389,9.805,-77.058
11091,-0.1875,0.2803,-0.9512,-1.160,-0.305,1.465,163.378,9.816,-77.075
11101,-0.1846,0.2769,-0.9556,-0.427,0.671,0.977,163.372,9.811,-77.080
11111,-0.1782,0.2729,-0.9663,0.122,1.282,0.671,163.383,9.800,-77.086
11121,-0.1709,0.2651,-0.9756,0.244,1.282,0.549,163.400,9.789,-77.086
11131,-0.1660,0.2622,-0.9849,-0.061,0.793,0.916,163.416,9.772,-77.091
11141,-0.1572,0.2646,-0.9854,-0.427,-0.183,1.343,163.422,9.756,-77.108
11151,-0.1558,0.2700,-0.9868,-1.038,-1.587,1.892,163.422,9.756,-77.130
11161,-0.1602,0.2739,-0.9814,-1.892,-2.991,2.502,163.411,9.772,-77.162
11171,-0.1660,0.2788,-0.9731,-2.502,-3.784,2.869,163.383,9.794,-77.201
11181,-0.1719,0.2837,-0.9629,-2.930,-3.967,3.113,163.350,9.822,-77.245
11191,-0.1768,0.2896,-0.9556,-3.052,-3.784,3.174,163.312,9.849,-77.283
11201,-0.1826,0.2944,-0.9438,-2.686,-3.540,3.296,163.268,9.882,-77.327
11211,-0.1899,0.2979,-0.9375,-2.014,-3.235,3.235,163.235,9.915,-77.366
11221,-0.1919,0.3018,-0.9370,-1.404,-2.869,3.113,163.202,9.943,-77.404
11231,-0.1938,0.3062,-0.9307,-1.160,-2.502,2.991,163.169,9.970,-77.443
11241,-0.2036,0.3071,-0.9331,-1.221,-2.380,2.991,163.136,10.003,-77.481
11251,-0.2075,0.3086,-0.9375,-1.160,-1.404,2.625,163.109,10.025,-77.509
11261,-0.2070,0.3115,-0.9365,-1.099,-0.366,2.319,163.076,10.042,-77.531
11271,-0.2095,0.3159,-0.9326,-1.282,0.427,2.136,163.043,10.052,-77.552
11281,-0.2100,0.3135,-0.9370,-1.099,0.610,1.831,163.015,10.058,-77.569
11291,-0.2100,0.3096,-0.9404,-1.099,0.977,1.404,162.988,10.063,-77.580
11301,-0.2056,0.3149,-0.9395,-1.953,1.099,1.343,162.955,10.069,-77.585
11311,-0.2002,0.3135,-0.9424,-2.869,1.282,1.221,162.911,10.063,-77.596
11321,-0.1919,0.3154,-0.9531,-3.418,1.465,0.916,162.861,10.058,-77.602
11331,-0.1846,0.3184,-0.9541,-4.272,1.587,0.977,162.806,10.042,-77.607
11341,-0.1787,0.3213,-0.9634,-4.883,1.343,1.343,162.746,10.025,-77.613
11351,-0.1782,0.3213,-0.9731,-4.639,1.404,1.343,162.686,10.003,-77.624
11361,-0.1836,0.3213,-0.9741,-4.883,1.160,1.587,162.625,9.992,-77.635
11371,-0.1865,0.3296,-0.9683,-5.554,0.366,1.770,162.554,9.987,-77.651
11381,-0.1914,0.3311,-0.9731,-5.371,-0.366,1.343,162.488,9.992,-77.668
11391,-0.1958,0.3315,-0.9751,-5.371,-0.977,0.671,162.416,10.003,-77.673
11401,-0.1953,0.3350,-0.9712,-5.615,-1.282,-0.122,162.350,10.025,-77.679
11411,-0.1943,0.3374,-0.9644,-5.554,-1.709,-1.160,162.279,10.052,-77.673
11421,-0.1958,0.3320,-0.9683,-4.822,-1.892,-2.380,162.219,10.085,-77.657
11431,-0.1929,0.3286,-0.9644,-4.333,-1.831,-3.479,162.175,10.118,-77.624
11441,-0.1816,0.3247,-0.9600,-3.967,-2.075,-4.211,162.131,10.151,-77.591
11451,-0.1763,0.3149,-0.9639,-3.296,-2.075,-4.822,162.103,10.184,-77.552
11461,-0.1807,0.3071,-0.9575,-3.296,-2.441,-4.883,162.076,10.223,-77.514
11471,-0.1812,0.2998,-0.9531,-3.601,-2.869,-4.761,162.054,10.261,-77.476
11481,-0.1807,0.2944,-0.9497,-3.540,-2.747,-4.822,162.032,10.305,-77.437
11491,-0.1772,0.2949,-0.9429,-3.906,-2.502,-4.395,162.004,10.338,-77.404
11501,-0.1675,0.2998,-0.9375,-3.906,-2.197,-3.723,161.977,10.366,-77.371
11511,-0.1646,0.2979,-0.9365,-2.808,-1.587,-3.479,161.955,10.382,-77.344
11521,-0.1680,0.2915,-0.9336,-1.465,-0.610,-3.540,161.955,10.393,-77.311
11531,-0.1665,0.2856,-0.9331,-0.610,0.366,-3.479,161.966,10.393,-77.278
11541,-0.1675,0.2793,-0.9341,0.122,1.526,-3.540,161.988,10.382,-77.239
11551,-0.1689,0.2720,-0.9414,0.244,2.258,-3.235,162.015,10.366,-77.201
11561,-0.1665,0.2676,-0.9473,-0.244,2.441,-2.686,162.043,10.344,-77.168
11571,-0.1665,0.2617,-0.9551,-0.061,2.563,-2.441,162.070,10.316,-77.135
11581,-0.1685,0.2539,-0.9609,0.244,2.686,-2.136,162.109,10.294,-77.108
11591,-0.1675,0.2485,-0.9619,0.122,2.441,-1.221,162.147,10.267,-77.086
11601,-0.1714,0.2466,-0.9624,0.061,2.075,-0.183,162.186,10.245,-77.080
11611,-0.1694,0.2505,-0.9702,-0.183,1.343,0.977,162.219,10.223,-77.086
11621,-0.1704,0.2612,-0.9663,-0.366,0.732,2.075,162.235,10.201,-77.102
11631,-0.1733,0.2651,-0.9683,-0.366,-0.183,3.052,162.252,10.190,-77.130
11641,-0.1743,0.2690,-0.9688,-0.549,-0.732,3.662,162.263,10.184,-77.168
11651,-0.1772,0.2783,-0.9648,-1.099,-1.282,4.211,162.263,10.179,-77.212
11661,-0.1797,0.2876,-0.9580,-1.892,-1.587,4.700,162.241,10.179,-77.267
11671,-0.1782,0.2974,-0.9487,-2.380,-1.953,5.188,162.213,10.184,-77.322
11681,-0.1841,0.3066,-0.9424,-2.502,-2.197,5.493,162.175,10.190,-77.382
11691,-0.1885,0.3145,-0.9399,-2.319,-1.831,5.493,162.136,10.195,-77.437
11701,-0.1870,0.3198,-0.9370,-1.892,-0.977,5.493,162.098,10.195,-77.498
11711,-0.1865,0.3296,-0.9331,-1.282,-0.122,5.188,162.059,10.184,-77.547
11721,-0.1904,0.3296,-0.9302,-0.183,0.610,4.639,162.032,10.173,-77.591
11731,-0.1890,0.3320,-0.9238,0.793,1.038,4.150,162.015,10.157,-77.624
11741,-0.1914,0.3330,-0.9238,1.343,1.160,3.845,162.004,10.140,-77.657
11751,-0.1992,0.3359,-0.9277,1.770,1.709,3.296,161.999,10.129,-77.684
11761,-0.2026,0.3359,-0.9336,2.014,2.869,2.563,161.999,10.107,-77.701
11771,-0.2026,0.3369,-0.9341,2.014,4.089,1.892,161.999,10.080,-77.706
11781,-0.2021,0.3369,-0.9390,2.563,5.005,1.038,162.010,10.042,-77.701
11791,-0.2036,0.3306,-0.9521,3.479,5.737,0.000,162.037,10.003,-77.684
11801,-0.1978,0.3232,-0.9600,3.845,5.920,-0.610,162.070,9.959,-77.657
11811,-0.1963,0.3154,-0.9688,3.967,5.432,-0.916,162.114,9.921,-77.635
11821,-0.1968,0.3071,-0.9702,3.784,4.517,-1.160,162.158,9.893,-77.607
11831,-0.1924,0.3052,-0.9692,2.869,3.113,-0.916,162.197,9.871,-77.591
11841,-0.1953,0.3052,-0.9663,1.892,1.709,-0.427,162.219,9.866,-77.580
11851,-0.1963,0.3086,-0.9668,1.343,0.610,0.000,162.230,9.871,-77.580
11861,-0.1958,0.3135,-0.9609,1.038,0.183,0.244,162.241,9.882,-77.580
11871,-0.1899,0.3184,-0.9609,0.854,-0.061,0.427,162.241,9.888,-77.585
11881,-0.1851,0.3213,-0.9580,1.160,0.183,0.244,162.246,9.893,-77.585
11891,-0.1831,0.3262,-0.9517,1.160,0.122,0.122,162.246,9.893,-77.585
11901,-0.1792,0.3247,-0.9487,1.160,0.305,-0.427,162.246,9.893,-77.580
11911,-0.1777,0.3223,-0.9482,1.404,0.366,-0.977,162.252,9.893,-77.569
11921,-0.1748,0.3193,-0.9561,1.587,0.671,-1.587,162.263,9.893,-77.552
11931,-0.1748,0.3115,-0.9561,2.075,1.038,-2.075,162.285,9.888,-77.531
11941,-0.1743,0.3071,-0.9585,2.319,1.099,-2.380,162.312,9.888,-77.503
11951,-0.1729,0.3003,-0.9619,2.319,0.916,-2.563,162.339,9.882,-77.476
11961,-0.1748,0.2979,-0.9663,2.319,0.610,-2.625,162.372,9.882,-77.448
11971,-0.1733,0.2935,-0.9688,2.136,0.549,-2.625,162.405,9.888,-77.421
11981,-0.1689,0.2915,-0.9663,1.587,0.427,-2.502,162.433,9.888,-77.399
11991,-0.1675,0.2856,-0.9712,1.038,-0.061,-2.075,162.460,9.888,-77.377
12001,-0.1709,0.2842,-0.9736,0.305,-0.305,-1.587,162.477,9.893,-77.360
12011,-0.1719,0.2856,-0.9702,-0.549,-0.793,-0.793,162.488,9.899,-77.355
12021,-0.1743,0.2910,-0.9663,-1.099,-1.343,-0.061,162.482,9.910,-77.360
12031,-0.1758,0.2935,-0.9561,-1.160,-2.136,0.305,162.471,9.932,-77.371
12041,-0.1821,0.2959,-0.9482,-1.099,-2.747,0.732,162.460,9.959,-77.388
12051,-0.1841,0.2998,-0.9424,-0.916,-2.563,1.099,162.449,9.987,-77.404
12061,-0.1782,0.3057,-0.9385,-0.610,-1.953,1.343,162.433,10.003,-77.421
12071,-0.1763,0.3105,-0.9360,-0.244,-1.404,1.404,162.422,10.014,-77.443
12081,-0.1729,0.3164,-0.9346,0.122,-1.038,1.343,162.405,10.020,-77.459
12091,-0.1748,0.3208,-0.9355,0.671,-0.549,1.160,162.400,10.020,-77.470
12101,-0.1758,0.3228,-0.9409,1.343,0.183,0.793,162.400,10.014,-77.476
12111,-0.1768,0.3232,-0.9473,2.014,1.160,0.244,162.405,10.003,-77.476
12121,-0.1821,0.3184,-0.9531,2.319,2.075,-0.244,162.422,9.987,-77.465
12131,-0.1812,0.3140,-0.9600,2.441,2.625,-0.610,162.444,9.965,-77.454
12141,-0.1841,0.3101,-0.9648,2.258,2.747,-0.916,162.466,9.948,-77.437
12151,-0.1855,0.3052,-0.9692,2.075,2.441,-1.099,162.488,9.932,-77.415
12161,-0.1865,0.3022,-0.9731,1.953,1.770,-1.160,162.515,9.921,-77.399
12171,-0.1860,0.2993,-0.9736,1.953,0.916,-1.160,162.537,9.921,-77.388
12181,-0.1885,0.2969,-0.9717,1.831,0.000,-1.160,162.565,9.932,-77.377
12191,-0.1895,0.2954,-0.9692,1.587,-0.793,-1.221,162.587,9.948,-77.366
12201,-0.1890,0.2915,-0.9653,1.160,-1.343,-1.404,162.603,9.970,-77.355
12211,-0.1880,0.2881,-0.9575,0.854,-1.465,-1.587,162.620,9.998,-77.344
12221,-0.1875,0.2817,-0.9531,0.488,-1.404,-1.709,162.636,10.020,-77.333
12231,-0.1865,0.2798,-0.9482,0.244,-1.221,-1.648,162.653,10.047,-77.322
12241,-0.1841,0.2803,-0.9492,0.183,-1.038,-1.404,162.664,10.063,-77.311
12251,-0.1816,0.2788,-0.9424,0.244,-0.732,-1.038,162.675,10.080,-77.305
12261,-0.1816,0.2812,-0.9414,0.305,-0.488,-0.610,162.686,10.091,-77.300
12271,-0.1831,0.2847,-0.9399,0.244,-0.183,-0.183,162.697,10.096,-77.300
12281,-0.1821,0.2876,-0.9404,0.244,0.061,0.122,162.702,10.096,-77.300
12291,-0.1812,0.2891,-0.9390,0.244,0.305,0.366,162.702,10.096,-77.300
12301,-0.1807,0.2910,-0.9419,0.061,0.549,0.549,162.708,10.096,-77.305
12311,-0.1836,0.2944,-0.9443,0.122,0.977,0.549,162.708,10.085,-77.305
12321,-0.1826,0.2964,-0.9502,0.427,1.587,0.488,162.708,10.074,-77.305
12331,-0.1777,0.2969,-0.9536,0.610,2.075,0.488,162.713,10.052,-77.305
12341,-0.1763,0.2988,-0.9565,0.732,2.136,0.549,162.724,10.031,-77.305
12351,-0.1772,0.3008,-0.9609,0.610,1.953,0.610,162.729,10.009,-77.305
12361,-0.1772,0.3013,-0.9648,0.305,1.648,0.549,162.729,9.992,-77.305
12371,-0.1748,0.3047,-0.9673,-0.122,1.404,0.488,162.724,9.976,-77.305
12381,-0.1758,0.3096,-0.9678,-0.244,1.221,0.183,162.719,9.959,-77.305
12391,-0.1724,0.3120,-0.9688,-0.183,0.977,-0.183,162.713,9.948,-77.300
12402,-0.1704,0.3105,-0.9663,0.061,0.671,-0.549,162.708,9.943,-77.289
12411,-0.1704,0.3076,-0.9644,0.366,0.366,-0.854,162.713,9.937,-77.283
12421,-0.1704,0.3037,-0.9648,0.610,0.244,-1.160,162.719,9.932,-77.272
12431,-0.1704,0.3013,-0.9678,0.610,0.183,-1.343,162.724,9.932,-77.256
12441,-0.1680,0.2993,-0.9644,0.732,0.183,-1.404,162.735,9.932,-77.245
12451,-0.1670,0.2959,-0.9614,0.977,0.183,-1.221,162.746,9.926,-77.228
12461,-0.1689,0.2920,-0.9570,1.160,0.122,-0.977,162.762,9.926,-77.217
12471,-0.1694,0.2925,-0.9565,1.343,0.122,-0.732,162.779,9.921,-77.212
12481,-0.1704,0.2881,-0.9590,1.709,0.488,-0.488,162.806,9.915,-77.206
12491,-0.1709,0.2852,-0.9619,2.075,1.099,-0.366,162.834,9.904,-77.201
12501,-0.1719,0.2842,-0.9624,2.197,1.465,-0.244,162.861,9.888,-77.195
12511,-0.1748,0.2827,-0.9595,2.136,1.160,0.000,162.889,9.877,-77.190
12521,-0.1792,0.2793,-0.9585,2.014,0.427,0.061,162.922,9.877,-77.190
12531,-0.1821,0.2769,-0.9614,1.709,-0.122,0.061,162.949,9.882,-77.190
12541,-0.1831,0.2788,-0.9541,1.099,-0.427,0.244,162.966,9.893,-77.195
12551,-0.1895,0.2778,-0.9497,0.977,-0.366,0.427,162.982,9.904,-77.201
12561,-0.1938,0.2773,-0.9468,1.343,0.244,0.366,162.999,9.910,-77.201
12571,-0.1924,0.2769,-0.9419,1.831,0.732,0.488,163.026,9.915,-77.206
12581,-0.1885,0.2720,-0.9478,2.563,1.526,0.549,163.059,9.910,-77.206
12591,-0.1841,0.2695,-0.9521,2.930,2.014,0.977,163.098,9.893,-77.206
12601,-0.1782,0.2695,-0.9561,2.869,2.258,1.648,163.136,9.871,-77.217
12611,-0.1758,0.2734,-0.9619,2.625,1.953,2.319,163.169,9.844,-77.234
12621,-0.1763,0.2783,-0.9697,2.197,1.587,2.991,163.196,9.822,-77.261
12631,-0.1768,0.2827,-0.9707,1.709,1.221,3.418,163.213,9.800,-77.289
12641,-0.1792,0.2861,-0.9761,1.221,0.793,3.723,163.224,9.783,-77.322
12651,-0.1787,0.2900,-0.9800,0.549,-0.122,4.211,163.224,9.778,-77.366
12661,-0.1807,0.2964,-0.9805,-0.244,-1.587,4.639,163.213,9.778,-77.415
12671,-0.1875,0.3037,-0.9790,-0.916,-2.991,4.883,163.191,9.800,-77.470
12681,-0.1909,0.3120,-0.9771,-1.282,-3.723,4.700,163.158,9.827,-77.525
12691,-0.1938,0.3193,-0.9692,-1.343,-3.906,4.150,163.125,9.866,-77.580
12701,-0.1992,0.3228,-0.9600,-1.221,-4.028,3.357,163.087,9.904,-77.624
12711,-0.2070,0.3228,-0.9512,-1.160,-4.089,2.441,163.054,9.954,-77.657
12721,-0.2095,0.3193,-0.9482,-1.221,-3.845,1.587,163.021,10.003,-77.684
12731,-0.2114,0.3169,-0.9385,-1.526,-3.479,0.916,162.982,10.058,-77.706
12741,-0.2065,0.3193,-0.9326,-1.953,-3.235,0.732,162.944,10.102,-77.723
12751,-0.2021,0.3223,-0.9297,-1.892,-2.747,0.488,162.900,10.140,-77.734
12761,-0.1978,0.3281,-0.9277,-1.587,-2.136,0.427,162.861,10.173,-77.745
12771,-0.1992,0.3301,-0.9321,-0.793,-1.160,0.061,162.828,10.195,-77.750
12781,-0.2002,0.3242,-0.9365,0.244,0.122,-0.671,162.812,10.206,-77.739
12791,-0.1963,0.3179,-0.9424,0.916,1.648,-1.465,162.806,10.206,-77.723
12801,-0.1860,0.3149,-0.9482,1.160,2.747,-2.258,162.812,10.190,-77.690
12811,-0.1807,0.3091,-0.9565,1.160,2.869,-2.747,162.823,10.173,-77.657
12821,-0.1777,0.3022,-0.9614,0.977,2.380,-2.869,162.839,10.157,-77.624
12831,-0.1797,0.2983,-0.9629,0.549,1.770,-2.747,162.850,10.146,-77.591
12841,-0.1777,0.2964,-0.9644,0.183,1.526,-2.686,162.856,10.140,-77.558
12851,-0.1743,0.2979,-0.9663,0.061,1.526,-2.686,162.861,10.129,-77.531
12861,-0.1704,0.2954,-0.9697,0.366,1.587,-2.747,162.872,10.118,-77.498
12871,-0.1631,0.2910,-0.9771,0.793,1.648,-2.808,162.894,10.096,-77.465
12881,-0.1602,0.2900,-0.9785,0.793,1.038,-2.686,162.911,10.085,-77.437
12891,-0.1582,0.2861,-0.9785,0.366,0.000,-2.319,162.927,10.080,-77.415
12902,-0.1631,0.2871,-0.9736,-0.732,-1.343,-1.831,162.927,10.085,-77.399
12911,-0.1714,0.2964,-0.9702,-2.136,-2.441,-1.099,162.905,10.107,-77.399
12921,-0.1772,0.3047,-0.9629,-3.540,-3.052,-0.610,162.867,10.135,-77.399
12931,-0.1812,0.3135,-0.9609,-4.517,-3.113,-0.549,162.812,10.168,-77.404
12941,-0.1836,0.3188,-0.9595,-4.761,-2.808,-1.038,162.751,10.201,-77.404
12951,-0.1816,0.3223,-0.9624,-4.578,-2.258,-1.709,162.697,10.223,-77.393
12961,-0.1826,0.3193,-0.9653,-3.784,-1.526,-2.563,162.653,10.245,-77.371
12971,-0.1826,0.3081,-0.9668,-2.808,-1.038,-3.540,162.631,10.267,-77.338
12981,-0.1826,0.2944,-0.9663,-2.075,-1.099,-4.456,162.620,10.289,-77.300
12991,-0.1831,0.2764,-0.9653,-2.014,-1.770,-4.883,162.620,10.322,-77.256
13001,-0.1914,0.2651,-0.9619,-2.563,-2.563,-4.700,162.620,10.366,-77.223
13011,-0.1929,0.2598,-0.9585,-3.357,-3.113,-4.028,162.614,10.415,-77.190
13021,-0.1875,0.2603,-0.9521,-3.723,-3.357,-3.174,162.603,10.459,-77.168
13031,-0.1865,0.2617,-0.9473,-3.418,-3.113,-2.380,162.592,10.497,-77.157
13041,-0.1836,0.2622,-0.9473,-2.625,-2.686,-1.770,162.587,10.530,-77.146
13051,-0.1802,0.2607,-0.9424,-1.831,-2.380,-1.465,162.587,10.552,-77.141
13061,-0.1826,0.2593,-0.9434,-1.831,-2.197,-1.099,162.592,10.580,-77.135
13071,-0.1865,0.2598,-0.9355,-2.625,-2.380,-0.671,162.587,10.607,-77.135
13081,-0.1909,0.2627,-0.9316,-3.784,-2.197,-0.244,162.565,10.635,-77.141
13091,-0.1973,0.2651,-0.9297,-4.761,-1.770,0.122,162.532,10.657,-77.146
13101,-0.2036,0.2690,-0.9277,-4.822,-0.854,0.366,162.493,10.679,-77.157
13111,-0.2061,0.2715,-0.9272,-4.150,0.061,0.732,162.466,10.690,-77.162
13121,-0.2090,0.2759,-0.9268,-2.930,0.793,1.038,162.444,10.695,-77.168
13131,-0.2090,0.2778,-0.9248,-1.770,1.221,1.343,162.433,10.690,-77.179
13141,-0.2129,0.2837,-0.9302,-1.038,1.404,1.587,162.427,10.690,-77.190
13151,-0.2100,0.2896,-0.9312,-0.732,1.648,1.587,162.422,10.684,-77.201
13161,-0.2031,0.2944,-0.9355,-0.977,2.197,1.526,162.411,10.668,-77.206
13171,-0.2012,0.3008,-0.9399,-1.526,2.869,1.465,162.389,10.646,-77.212
13181,-0.1987,0.3062,-0.9448,-1.709,3.601,1.465,162.372,10.613,-77.217
13191,-0.1958,0.3086,-0.9478,-1.221,4.333,1.465,162.356,10.574,-77.217
13201,-0.1924,0.3091,-0.9521,-0.305,4.700,1.526,162.350,10.530,-77.217
13211,-0.1846,0.3130,-0.9624,0.549,4.700,1.709,162.350,10.475,-77.217
13221,-0.1787,0.3130,-0.9697,1.099,4.395,2.136,162.356,10.426,-77.228
13231,-0.1709,0.3149,-0.9800,1.343,3.906,2.625,162.367,10.371,-77.239
13241,-0.1646,0.3193,-0.9858,1.038,3.235,2.930,162.367,10.316,-77.261
13251,-0.1562,0.3218,-0.9917,0.488,2.319,2.808,162.367,10.267,-77.278
13261,-0.1592,0.3232,-0.9946,-0.183,1.282,2.380,162.356,10.234,-77.300
13271,-0.1685,0.3218,-0.9971,-0.793,0.305,1.648,162.345,10.217,-77.311
13281,-0.1787,0.3179,-0.9946,-1.404,-0.366,0.732,162.328,10.212,-77.322
13291,-0.1812,0.3130,-0.9883,-1.953,-1.160,-0.061,162.312,10.217,-77.322
13301,-0.1860,0.3076,-0.9863,-2.380,-2.075,-0.549,162.290,10.239,-77.327
13311,-0.1846,0.3042,-0.9780,-2.747,-3.174,-0.671,162.268,10.272,-77.327
13321,-0.1880,0.3022,-0.9722,-2.991,-4.272,-0.488,162.241,10.316,-77.338
13331,-0.1919,0.3008,-0.9639,-2.869,-5.127,-0.305,162.213,10.371,-77.349
13341,-0.1934,0.2988,-0.9536,-2.319,-5.493,-0.366,162.191,10.426,-77.366
13351,-0.1968,0.2949,-0.9424,-1.892,-5.493,-0.549,162.175,10.492,-77.377
13361,-0.2012,0.2925,-0.9326,-1.770,-5.310,-0.793,162.158,10.552,-77.382
13371,-0.2012,0.2891,-0.9263,-1.770,-4.822,-0.916,162.147,10.613,-77.388
13381,-0.2012,0.2871,-0.9238,-1.770,-3.967,-0.977,162.136,10.668,-77.393
13391,-0.1973,0.2866,-0.9287,-1.953,-2.930,-0.793,162.120,10.701,-77.393
13402,-0.1860,0.2881,-0.9312,-1.831,-2.014,-0.427,162.109,10.723,-77.399
13411,-0.1812,0.2910,-0.9409,-1.465,-1.404,0.183,162.103,10.734,-77.404
13421,-0.1733,0.2964,-0.9502,-0.977,-1.099,0.793,162.098,10.734,-77.415
13431,-0.1714,0.3018,-0.9619,-0.671,-0.977,1.160,162.092,10.728,-77.426
13441,-0.1694,0.3047,-0.9673,-0.671,-0.854,1.282,162.087,10.723,-77.443
13451,-0.1699,0.3062,-0.9692,-0.977,-0.977,1.160,162.076,10.712,-77.459
13461,-0.1768,0.3062,-0.9712,-1.404,-1.404,0.854,162.065,10.717,-77.470
13471,-0.1855,0.3032,-0.9658,-1.770,-1.953,0.305,162.054,10.728,-77.481
13481,-0.1924,0.2998,-0.9634,-2.075,-2.441,-0.122,162.037,10.756,-77.487
13491,-0.1948,0.2930,-0.9570,-2.625,-2.808,-0.183,162.021,10.783,-77.492
13501,-0.1934,0.2915,-0.9551,-2.991,-3.296,0.244,161.999,10.816,-77.503
13511,-0.1919,0.2939,-0.9507,-3.174,-3.723,1.160,161.971,10.849,-77.531
13521,-0.1924,0.2983,-0.9487,-3.052,-4.089,2.197,161.938,10.882,-77.563
13531,-0.1919,0.3018,-0.9453,-2.808,-4.150,3.174,161.906,10.909,-77.607
13541,-0.1914,0.3105,-0.9409,-2.930,-4.211,3.967,161.867,10.937,-77.657
13551,-0.1943,0.3135,-0.9390,-3.174,-4.028,4.456,161.818,10.964,-77.712
13561,-0.1987,0.3164,-0.9370,-3.906,-3.906,4.578,161.768,10.992,-77.772
13571,-0.2041,0.3198,-0.9341,-4.639,-3.662,4.395,161.702,11.019,-77.827
13581,-0.2056,0.3237,-0.9297,-5.249,-3.235,4.211,161.631,11.041,-77.877
13591,-0.2046,0.3267,-0.9272,-5.249,-2.502,4.028,161.559,11.063,-77.921
13601,-0.1973,0.3257,-0.9238,-4.395,-1.831,3.906,161.499,11.069,-77.964
13611,-0.1924,0.3252,-0.9204,-3.235,-1.404,4.089,161.450,11.069,-78.008
13621,-0.1963,0.3257,-0.9160,-2.808,-1.160,4.700,161.400,11.069,-78.058
13631,-0.1992,0.3306,-0.9092,-2.991,-0.977,5.249,161.351,11.069,-78.113
13641,-0.2031,0.3408,-0.9063,-3.113,-0.366,5.310,161.290,11.063,-78.168
13651,-0.2061,0.3477,-0.9048,-2.686,0.793,4.883,161.230,11.052,-78.212
13661,-0.2056,0.3506,-0.9023,-1.709,2.197,4.333,161.180,11.025,-78.245
13671,-0.2046,0.3477,-0.9053,-0.122,3.723,3.723,161.153,10.986,-78.267
13681,-0.1997,0.3437,-0.9087,0.916,4.822,3.296,161.142,10.937,-78.283
13691,-0.1997,0.3394,-0.9141,1.709,5.615,3.052,161.142,10.882,-78.294
13701,-0.2065,0.3408,-0.9175,2.136,6.226,2.869,161.147,10.822,-78.305
13711,-0.2134,0.3437,-0.9238,2.869,6.958,2.625,161.158,10.767,-78.305
13721,-0.2187,0.3437,-0.9331,4.395,8.179,2.075,161.191,10.695,-78.300
13731,-0.2197,0.3389,-0.9463,5.981,9.399,1.404,161.241,10.624,-78.283
13741,-0.2178,0.3311,-0.9634,7.446,10.376,0.916,161.318,10.536,-78.256
13751,-0.2046,0.3223,-0.9775,7.935,10.132,0.732,161.406,10.448,-78.228
13761,-0.1929,0.3149,-0.9888,7.385,8.911,0.916,161.494,10.360,-78.212
13771,-0.1831,0.3101,-0.9961,5.859,6.775,1.465,161.565,10.289,-78.201
13781,-0.1812,0.3076,-0.9971,3.784,4.333,2.258,161.614,10.234,-78.212
13791,-0.1841,0.3105,-0.9907,1.831,2.197,2.991,161.636,10.201,-78.234
13801,-0.1890,0.3140,-0.9785,0.183,0.671,3.418,161.642,10.190,-78.261
13811,-0.1943,0.3198,-0.9668,-1.343,-0.366,3.784,161.620,10.184,-78.300
13821,-0.1963,0.3247,-0.9629,-2.625,-0.916,4.089,161.581,10.190,-78.344
13831,-0.1982,0.3281,-0.9639,-3.540,-0.977,4.333,161.537,10.195,-78.387
13841,-0.1978,0.3345,-0.9614,-4.089,-0.916,4.456,161.483,10.195,-78.431
13851,-0.1958,0.3394,-0.9663,-3.906,-1.099,4.333,161.428,10.201,-78.481
13861,-0.1924,0.3403,-0.9683,-3.357,-1.770,4.089,161.378,10.206,-78.525
13871,-0.1924,0.3418,-0.9727,-3.052,-2.808,3.723,161.334,10.223,-78.569
13881,-0.1943,0.3408,-0.9678,-3.174,-3.784,3.418,161.285,10.256,-78.613
13891,-0.1924,0.3394,-0.9648,-3.723,-4.700,2.930,161.235,10.294,-78.657
13902,-0.1890,0.3413,-0.9585,-4.456,-5.310,2.197,161.175,10.338,-78.695
13911,-0.1904,0.3437,-0.9570,-4.761,-5.859,1.465,161.115,10.393,-78.728
13921,-0.1934,0.3437,-0.9551,-4.822,-5.859,0.732,161.049,10.448,-78.755
13931,-0.1943,0.3418,-0.9482,-4.272,-5.615,-0.183,160.999,10.508,-78.772
13941,-0.1929,0.3364,-0.9424,-3.479,-5.249,-1.221,160.955,10.563,-78.777
13951,-0.1904,0.3301,-0.9424,-2.625,-5.066,-2.136,160.928,10.618,-78.772
13961,-0.1953,0.3267,-0.9336,-2.502,-5.371,-2.441,160.900,10.684,-78.766
13971,-0.1978,0.3271,-0.9258,-2.441,-5.615,-2.441,160.873,10.750,-78.766
13981,-0.2026,0.3252,-0.9204,-2.380,-5.371,-2.441,160.845,10.822,-78.761
13991,-0.2046,0.3257,-0.9209,-2.197,-4.395,-2.563,160.823,10.876,-78.750
14001,-0.2021,0.3237,-0.9238,-1.709,-3.052,-2.563,160.807,10.920,-78.734
14011,-0.2031,0.3242,-0.9248,-0.916,-1.526,-2.563,160.801,10.953,-78.717
14021,-0.1997,0.3232,-0.9277,-0.610,-0.793,-2.380,160.801,10.975,-78.695
14031,-0.1924,0.3208,-0.9268,-0.244,-0.916,-2.502,160.801,10.992,-78.673
14041,-0.1904,0.3188,-0.9326,-0.061,-1.709,-2.625,160.807,11.014,-78.657
14051,-0.1851,0.3218,-0.9272,-0.977,-2.319,-2.258,160.801,11.041,-78.640
14061,-0.1812,0.3232,-0.9326,-1.770,-2.869,-2.441,160.790,11.069,-78.624
14071,-0.1777,0.3286,-0.9351,-2.930,-3.113,-2.380,160.763,11.096,-78.613
14081,-0.1724,0.3428,-0.9404,-4.395,-2.808,-1.587,160.708,11.118,-78.607
14091,-0.1646,0.3506,-0.9463,-4.578,-1.709,-0.732,160.653,11.118,-78.607
14101,-0.1577,0.3511,-0.9536,-3.235,0.244,-0.916,160.615,11.096,-78.596
14111,-0.1519,0.3472,-0.9644,-1.587,1.770,-1.709,160.598,11.058,-78.574
14121,-0.1450,0.3374,-0.9761,-0.183,2.686,-2.563,160.609,11.008,-78.541
14131,-0.1431,0.3262,-0.9824,0.122,2.197,-2.686,160.626,10.964,-78.508
14141,-0.1445,0.3188,-0.9888,-0.671,0.977,-2.441,160.637,10.931,-78.481
14151,-0.1538,0.3179,-0.9907,-1.648,-0.427,-2.136,160.642,10.920,-78.464
14161,-0.1689,0.3149,-0.9897,-1.953,-1.465,-2.197,160.642,10.926,-78.448
14171,-0.1826,0.3037,-0.9863,-1.160,-1.831,-2.502,160.659,10.942,-78.426
14181,-0.1875,0.2939,-0.9800,-0.305,-1.953,-2.502,160.686,10.959,-78.409
14191,-0.1929,0.2861,-0.9736,0.488,-2.319,-2.075,160.719,10.986,-78.398
14201,-0.1978,0.2822,-0.9663,0.793,-3.235,-1.282,160.757,11.025,-78.398
14211,-0.2026,0.2808,-0.9600,0.916,-4.578,-0.610,160.796,11.074,-78.404
14221,-0.2109,0.2783,-0.9561,0.793,-5.554,-0.122,160.829,11.135,-78.426
14231,-0.2158,0.2783,-0.9487,0.366,-6.104,0.427,160.856,11.201,-78.448
14241,-0.2178,0.2803,-0.9424,-0.122,-6.165,1.221,160.873,11.266,-78.481
14251,-0.2187,0.2827,-0.9321,-0.488,-6.165,2.014,160.884,11.332,-78.519
14261,-0.2187,0.2891,-0.9229,-0.793,-6.348,2.930,160.884,11.398,-78.569
14271,-0.2197,0.2944,-0.9131,-0.854,-6.409,3.723,160.878,11.459,-78.629
14281,-0.2251,0.3008,-0.9058,-0.854,-5.981,4.395,160.862,11.519,-78.690
14291,-0.2261,0.3071,-0.8994,-0.793,-5.127,4.944,160.845,11.569,-78.755
14301,-0.2300,0.3140,-0.8931,-0.793,-3.784,5.554,160.823,11.607,-78.821
14311,-0.2324,0.3237,-0.8906,-0.671,-2.258,6.104,160.796,11.629,-78.887
14321,-0.2363,0.3296,-0.8887,-0.427,-0.793,6.470,160.768,11.640,-78.953
14331,-0.2358,0.3350,-0.8926,-0.183,0.427,6.714,160.741,11.640,-79.014
14341,-0.2363,0.3389,-0.8999,0.122,1.404,6.836,160.714,11.624,-79.074
14351,-0.2363,0.3413,-0.9033,0.244,2.197,6.958,160.692,11.602,-79.135
14361,-0.2349,0.3477,-0.9092,-0.122,2.563,7.202,160.659,11.574,-79.195
14371,-0.2300,0.3579,-0.9141,-0.671,2.625,7.324,160.620,11.541,-79.261
14381,-0.2275,0.3672,-0.9229,-0.610,2.563,6.958,160.582,11.508,-79.316
14391,-0.2246,0.3730,-0.9302,-0.244,2.686,6.348,160.543,11.475,-79.371
14402,-0.2231,0.3813,-0.9385,0.671,2.991,5.310,160.516,11.437,-79.409
14411,-0.2173,0.3804,-0.9487,1.526,3.479,3.906,160.499,11.398,-79.437
14421,-0.2119,0.3745,-0.9639,2.136,3.723,2.502,160.505,11.354,-79.448
14431,-0.2085,0.3682,-0.9722,1.953,3.601,1.343,160.510,11.321,-79.448
14441,-0.2036,0.3608,-0.9795,0.977,2.563,0.610,160.510,11.288,-79.442
14451,-0.2036,0.3584,-0.9795,-0.427,0.977,0.183,160.505,11.277,-79.442
14461,-0.2056,0.3594,-0.9771,-1.953,-1.038,-0.122,160.477,11.288,-79.448
14471,-0.2070,0.3613,-0.9741,-2.991,-2.747,-0.427,160.439,11.316,-79.453
14481,-0.2056,0.3613,-0.9683,-3.174,-3.723,-0.854,160.395,11.349,-79.453
14491,-0.2061,0.3584,-0.9590,-3.113,-4.456,-1.282,160.356,11.398,-79.459
14501,-0.2085,0.3540,-0.9473,-2.991,-4.700,-1.831,160.318,11.448,-79.459
14511,-0.2070,0.3477,-0.9385,-3.296,-4.944,-2.075,160.280,11.503,-79.453
14521,-0.2065,0.3447,-0.9268,-3.540,-4.700,-2.258,160.236,11.558,-79.448
14531,-0.2065,0.3433,-0.9155,-3.845,-4.272,-2.319,160.192,11.613,-79.442
14541,-0.2090,0.3423,-0.9111,-3.601,-3.479,-2.441,160.153,11.656,-79.431
14551,-0.2109,0.3428,-0.9038,-3.113,-2.563,-2.563,160.115,11.695,-79.415
14561,-0.2124,0.3398,-0.9028,-2.197,-1.709,-2.747,160.093,11.728,-79.393
14571,-0.2139,0.3389,-0.9019,-0.916,-0.305,-3.235,160.082,11.750,-79.365
14581,-0.2100,0.3330,-0.9092,0.366,1.282,-3.784,160.093,11.755,-79.321
14591,-0.2051,0.3257,-0.9175,1.465,2.930,-4.150,160.120,11.744,-79.272
14601,-0.2021,0.3208,-0.9268,2.197,4.089,-4.272,160.159,11.717,-79.217
14611,-0.2002,0.3130,-0.9355,2.441,4.578,-4.272,160.208,11.689,-79.162
14621,-0.1987,0.3066,-0.9380,2.380,4.333,-4.150,160.258,11.656,-79.107
14631,-0.1982,0.3022,-0.9473,2.197,3.723,-3.906,160.312,11.635,-79.052
14641,-0.1958,0.3003,-0.9507,2.075,3.174,-3.540,160.362,11.607,-79.008
14651,-0.1914,0.3022,-0.9507,1.892,2.808,-3.052,160.411,11.585,-78.970
14661,-0.1890,0.3125,-0.9517,2.075,2.502,-2.686,160.450,11.563,-78.937
14671,-0.1895,0.3110,-0.9575,3.662,2.625,-2.502,160.510,11.536,-78.904
14681,-0.1870,0.2988,-0.9629,5.676,2.991,-2.075,160.593,11.508,-78.871
14691,-0.1899,0.2979,-0.9590,6.287,2.930,-1.709,160.681,11.475,-78.849
14701,-0.1919,0.2949,-0.9600,6.409,2.441,-1.099,160.774,11.448,-78.827
14711,-0.1934,0.3013,-0.9595,6.470,1.587,-0.122,160.856,11.431,-78.821
14721,-0.1938,0.3013,-0.9585,6.531,0.977,0.732,160.939,11.415,-78.827
14731,-0.1943,0.3052,-0.9575,6.042,0.488,1.221,161.010,11.398,-78.838
14741,-0.1978,0.3022,-0.9546,5.432,0.305,1.648,161.071,11.387,-78.849
14751,-0.1992,0.3022,-0.9497,4.028,0.183,2.014,161.120,11.382,-78.871
14761,-0.2046,0.3096,-0.9468,2.502,-0.061,2.319,161.153,11.376,-78.893
14771,-0.2041,0.3164,-0.9448,1.404,-0.183,2.808,161.164,11.371,-78.920
14781,-0.2036,0.3228,-0.9404,0.732,-0.488,3.357,161.164,11.365,-78.953
14791,-0.2051,0.3257,-0.9399,0.549,-0.732,3.845,161.158,11.365,-78.992
14801,-0.2051,0.3345,-0.9341,0.549,-0.916,4.211,161.147,11.360,-79.036
14811,-0.2056,0.3423,-0.9302,0.732,-0.916,4.333,161.131,11.360,-79.080
14821,-0.2061,0.3521,-0.9292,1.282,-0.427,4.089,161.115,11.354,-79.124
14831,-0.2109,0.3540,-0.9248,2.380,0.427,3.296,161.115,11.349,-79.151
14841,-0.2163,0.3521,-0.9272,3.662,1.465,2.136,161.125,11.338,-79.167
14851,-0.2192,0.3433,-0.9302,4.944,2.625,0.671,161.164,11.321,-79.167
14861,-0.2207,0.3340,-0.9365,5.554,3.357,-0.549,161.213,11.305,-79.151
14871,-0.2271,0.3193,-0.9463,5.920,3.967,-1.465,161.279,11.288,-79.124
14881,-0.2310,0.3130,-0.9487,5.676,4.089,-1.953,161.345,11.272,-79.091
14891,-0.2280,0.3057,-0.9541,5.188,3.662,-2.075,161.411,11.261,-79.058
14902,-0.2222,0.3047,-0.9590,4.944,3.174,-2.014,161.477,11.245,-79.030
14911,-0.2124,0.3081,-0.9565,4.333,1.648,-1.404,161.526,11.245,-79.008
14921,-0.2051,0.3115,-0.9600,3.906,0.305,-0.793,161.576,11.245,-79.003
14931,-0.2007,0.3164,-0.9609,2.808,-1.099,-0.366,161.603,11.255,-79.003
14941,-0.2026,0.3223,-0.9585,1.282,-1.831,-0.183,161.614,11.277,-79.008
14951,-0.2007,0.3276,-0.9570,-0.122,-1.709,-0.366,161.609,11.294,-79.008
14961,-0.2026,0.3306,-0.9546,-1.526,-1.282,-0.671,161.587,11.305,-79.003
14971,-0.2021,0.3296,-0.9497,-2.625,-1.038,-1.099,161.554,11.321,-78.997
14981,-0.2046,0.3267,-0.9453,-3.479,-1.160,-1.587,161.516,11.338,-78.986
14991,-0.2109,0.3228,-0.9419,-4.211,-1.648,-1.953,161.472,11.365,-78.975
15001,-0.2144,0.3301,-0.9326,-4.700,-1.770,-2.258,161.417,11.398,-78.959
15011,-0.2090,0.3301,-0.9282,-4.089,-1.404,-2.380,161.373,11.426,-78.937
15021,-0.2090,0.3315,-0.9272,-3.296,-0.977,-2.380,161.334,11.448,-78.920
15031,-0.2090,0.3301,-0.9272,-2.319,-0.366,-2.686,161.307,11.464,-78.893
15041,-0.2061,0.3262,-0.9312,-1.221,0.488,-3.174,161.296,11.475,-78.860
15051,-0.2075,0.3203,-0.9385,-0.610,1.465,-3.601,161.296,11.475,-78.821
15061,-0.2080,0.3174,-0.9438,-0.244,2.319,-3.906,161.301,11.470,-78.777
15071,-0.2036,0.3145,-0.9453,0.305,2.625,-4.089,161.318,11.459,-78.728
15081,-0.2002,0.3086,-0.9487,0.854,2.197,-4.211,161.340,11.448,-78.679
15091,-0.1953,0.3091,-0.9551,1.343,1.709,-4.089,161.373,11.442,-78.635
15101,-0.1904,0.3042,-0.9551,2.014,1.465,-3.784,161.411,11.431,-78.596
15111,-0.1860,0.3008,-0.9546,2.808,1.404,-3.540,161.455,11.420,-78.552
15121,-0.1802,0.2935,-0.9614,3.418,1.587,-3.540,161.510,11.404,-78.514
15131,-0.1787,0.2935,-0.9609,3.479,1.953,-3.174,161.570,11.382,-78.481
15141,-0.1729,0.2949,-0.9624,2.869,1.587,-2.319,161.614,11.360,-78.453
15151,-0.1753,0.2954,-0.9688,2.686,1.282,-1.770,161.664,11.338,-78.431
15161,-0.1768,0.2949,-0.9771,2.625,0.854,-1.465,161.708,11.321,-78.415
15171,-0.1763,0.2915,-0.9756,2.502,0.488,-0.916,161.752,11.305,-78.404
15181,-0.1812,0.2910,-0.9775,2.197,-0.122,-0.488,161.790,11.294,-78.398
15191,-0.1860,0.2881,-0.9775,1.526,-0.977,-0.061,161.823,11.294,-78.398
15201,-0.1855,0.2905,-0.9736,0.488,-1.953,0.305,161.840,11.299,-78.409
15211,-0.1885,0.2974,-0.9658,-0.732,-2.991,0.854,161.840,11.321,-78.426
15221,-0.1904,0.3037,-0.9619,-1.709,-3.967,1.404,161.823,11.343,-78.453
15231,-0.1934,0.3140,-0.9536,-2.319,-4.761,1.892,161.796,11.382,-78.486
15241,-0.1948,0.3198,-0.9458,-2.808,-5.310,2.075,161.752,11.420,-78.525
15251,-0.2021,0.3276,-0.9365,-3.052,-5.493,2.197,161.708,11.464,-78.563
15261,-0.2104,0.3301,-0.9292,-2.930,-5.127,1.892,161.658,11.514,-78.596
15271,-0.2187,0.3311,-0.9185,-2.625,-4.333,1.404,161.609,11.563,-78.624
15281,-0.2271,0.3335,-0.9131,-2.136,-3.235,0.732,161.570,11.607,-78.640
15291,-0.2314,0.3335,-0.9028,-1.587,-2.014,0.183,161.532,11.646,-78.651
15301,-0.2358,0.3276,-0.9004,-0.854,-0.854,-0.244,161.510,11.673,-78.651
15311,-0.2388,0.3247,-0.9043,0.000,0.305,-0.488,161.499,11.695,-78.646
15321,-0.2393,0.3232,-0.9058,0.793,1.404,-0.427,161.499,11.706,-78.635
15331,-0.2388,0.3252,-0.9097,2.136,2.441,-0.244,161.510,11.706,-78.629
15341,-0.2329,0.3262,-0.9219,3.601,3.296,-0.183,161.537,11.695,-78.613
15351,-0.2271,0.3252,-0.9351,4.883,3.784,0.000,161.581,11.667,-78.602
15361,-0.2173,0.3252,-0.9453,5.493,3.906,0.244,161.631,11.640,-78.591
15371,-0.2158,0.3257,-0.9580,5.371,3.601,0.427,161.680,11.607,-78.585
15381,-0.2119,0.3301,-0.9600,4.517,2.869,0.366,161.719,11.580,-78.580
15392,-0.2104,0.3286,-0.9697,4.028,2.319,-0.122,161.757,11.558,-78.569
15402,-0.2100,0.3237,-0.9849,3.662,2.319,-0.793,161.796,11.541,-78.558
15411,-0.2070,0.3203,-0.9810,3.052,1.953,-1.038,161.834,11.519,-78.541
15421,-0.2046,0.3105,-0.9893,2.625,0.977,-1.221,161.867,11.514,-78.525
15431,-0.2041,0.3032,-0.9966,2.258,-0.427,-1.160,161.906,11.514,-78.514
15442,-0.2036,0.2998,-0.9932,1.282,-2.380,-0.732,161.933,11.536,-78.514
15452,-0.2021,0.2939,-0.9917,0.671,-4.028,-0.305,161.949,11.569,-78.525
15461,-0.2046,0.2910,-0.9854,0.000,-5.371,0.122,161.960,11.618,-78.541
15471,-0.2041,0.2920,-0.9775,-1.038,-6.714,0.732,161.960,11.673,-78.569
15481,-0.2051,0.2925,-0.9702,-1.953,-7.751,1.221,161.949,11.744,-78.607
15491,-0.2061,0.2935,-0.9580,-2.808,-8.789,1.648,161.922,11.821,-78.651
15502,-0.2090,0.2949,-0.9458,-3.967,-9.521,2.075,161.878,11.904,-78.701
15511,-0.2129,0.2998,-0.9307,-4.761,-9.644,2.441,161.823,11.992,-78.755
15521,-0.2119,0.3066,-0.9175,-5.005,-9.155,2.686,161.757,12.074,-78.810
15531,-0.2158,0.3096,-0.9058,-4.517,-8.179,2.625,161.697,12.145,-78.860
15541,-0.2197,0.3115,-0.8975,-3.479,-6.836,2.197,161.647,12.211,-78.904
15551,-0.2251,0.3066,-0.8955,-2.563,-5.249,1.770,161.609,12.266,-78.942
15561,-0.2300,0.3037,-0.8921,-1.709,-3.296,1.343,161.581,12.310,-78.964
15572,-0.2310,0.2993,-0.8979,-0.916,-1.099,1.099,161.570,12.332,-78.975
15582,-0.2280,0.2983,-0.9048,0.061,0.793,1.099,161.570,12.332,-78.986
15592,-0.2222,0.3003,-0.9077,1.221,2.319,1.282,161.581,12.310,-78.992
15602,-0.2246,0.2983,-0.9146,2.136,2.991,1.343,161.609,12.288,-78.992
15612,-0.2256,0.2979,-0.9189,2.869,3.052,1.282,161.636,12.266,-78.997
15622,-0.2256,0.2944,-0.9238,3.052,3.052,1.160,161.675,12.239,-78.997
15632,-0.2266,0.2949,-0.9297,2.014,3.052,1.160,161.702,12.217,-78.997
15642,-0.2227,0.3022,-0.9302,0.854,2.991,1.404,161.713,12.189,-79.003
15652,-0.2192,0.3110,-0.9321,0.061,2.930,1.709,161.708,12.162,-79.014
15662,-0.2163,0.3179,-0.9341,-0.122,3.113,1.709,161.702,12.129,-79.019
15672,-0.2158,0.3237,-0.9312,0.244,3.479,1.404,161.697,12.096,-79.019
15682,-0.2178,0.3213,-0.9336,0.916,4.089,0.977,161.697,12.057,-79.014
15692,-0.2217,0.3193,-0.9341,1.404,4.761,0.549,161.708,12.014,-79.008
15702,-0.2227,0.3174,-0.9341,1.709,5.554,0.122,161.724,11.970,-78.992
15712,-0.2212,0.3169,-0.9351,1.831,5.981,-0.244,161.741,11.920,-78.970
15722,-0.2222,0.3164,-0.9404,1.953,5.859,-0.549,161.763,11.876,-78.942
15732,-0.2290,0.3125,-0.9434,2.258,5.554,-0.854,161.790,11.838,-78.920
15742,-0.2334,0.3081,-0.9482,2.747,5.554,-1.282,161.823,11.799,-78.887
15752,-0.2314,0.3071,-0.9517,2.869,5.859,-1.465,161.862,11.761,-78.854
15762,-0.2285,0.3062,-0.9561,2.991,6.104,-1.282,161.906,11.722,-78.821
15772,-0.2202,0.3037,-0.9609,3.113,5.981,-0.916,161.944,11.673,-78.794
15782,-0.2153,0.3027,-0.9678,2.747,5.188,-0.366,161.982,11.629,-78.777
15792,-0.2090,0.3076,-0.9644,1.587,3.845,0.305,162.004,11.591,-78.766
15802,-0.2070,0.3154,-0.9624,0.183,2.136,1.099,162.004,11.569,-78.772
15812,-0.2070,0.3247,-0.9580,-0.732,0.732,1.587,161.988,11.558,-78.783
15822,-0.2109,0.3301,-0.9507,-0.977,0.244,1.465,161.960,11.552,-78.794
15832,-0.2139,0.3311,-0.9497,-0.793,0.488,1.038,161.938,11.547,-78.805
15842,-0.2144,0.3306,-0.9487,-0.366,1.221,0.671,161.927,11.541,-78.810
15852,-0.2119,0.3276,-0.9482,0.183,2.136,0.427,161.917,11.525,-78.805
15862,-0.2070,0.3237,-0.9531,0.671,2.686,0.305,161.917,11.497,-78.799
15872,-0.2017,0.3198,-0.9561,0.977,2.747,0.366,161.927,11.470,-78.794
15882,-0.1973,0.3203,-0.9570,1.038,2.075,0.671,161.933,11.442,-78.794
15892,-0.1987,0.3232,-0.9541,0.793,1.099,1.038,161.933,11.426,-78.799
15902,-0.1963,0.3281,-0.9561,0.549,0.427,1.221,161.927,11.415,-78.810
15912,-0.1982,0.3306,-0.9536,0.183,0.122,1.221,161.917,11.404,-78.821
15922,-0.1987,0.3340,-0.9551,0.000,0.244,0.916,161.900,11.398,-78.832
15932,-0.1992,0.3315,-0.9526,0.122,0.549,0.427,161.889,11.387,-78.832
15942,-0.1938,0.3296,-0.9502,0.244,0.793,0.061,161.884,11.376,-78.832
15952,-0.1909,0.3267,-0.9468,0.244,0.610,-0.122,161.878,11.365,-78.827
15962,-0.1953,0.3218,-0.9443,0.427,0.305,-0.061,161.873,11.360,-78.827
15972,-0.2002,0.3213,-0.9409,0.793,0.488,-0.061,161.878,11.354,-78.827
15982,-0.2012,0.3193,-0.9414,1.587,1.221,-0.305,161.889,11.349,-78.816
15992,-0.2012,0.3174,-0.9438,2.625,2.014,-0.671,161.911,11.332,-78.805
16002,-0.1992,0.3130,-0.9473,3.418,2.502,-0.732,161.944,11.310,-78.788
16012,-0.1968,0.3091,-0.9512,3.540,2.625,-0.671,161.982,11.283,-78.777
16022,-0.1953,0.3086,-0.9556,3.174,2.197,-0.549,162.021,11.261,-78.761
16032,-0.1914,0.3081,-0.9614,2.747,1.709,-0.549,162.048,11.245,-78.750
16042,-0.1836,0.3047,-0.9727,2.441,1.282,-0.549,162.081,11.223,-78.745
16052,-0.1880,0.3037,-0.9653,2.136,0.916,-0.366,162.109,11.206,-78.739
16062,-0.1973,0.3081,-0.9609,1.892,0.427,-0.122,162.131,11.201,-78.734
16072,-0.2075,0.3027,-0.9653,2.686,0.427,-0.671,162.164,11.206,-78.728
16082,-0.2119,0.2974,-0.9673,3.296,0.793,-1.465,162.208,11.206,-78.712
16092,-0.2134,0.2930,-0.9624,3.052,0.488,-1.770,162.246,11.217,-78.690
16102,-0.2129,0.2886,-0.9600,2.502,-0.122,-1.831,162.285,11.228,-78.673
16112,-0.2080,0.2905,-0.9575,1.770,-1.160,-1.587,162.312,11.250,-78.662
16122,-0.2061,0.2930,-0.9561,1.465,-1.831,-1.404,162.334,11.277,-78.651
16132,-0.2017,0.2954,-0.9590,2.258,-1.648,-1.343,162.367,11.299,-78.646
16142,-0.2036,0.2969,-0.9487,3.235,-1.343,-1.038,162.400,11.316,-78.640
16152,-0.2109,0.2900,-0.9458,4.333,-1.282,-0.549,162.449,11.338,-78.640
16162,-0.2192,0.2832,-0.9424,4.944,-0.671,-0.671,162.510,11.354,-78.635
16172,-0.2217,0.2866,-0.9326,4.150,-0.732,-0.610,162.554,11.382,-78.629
16182,-0.2222,0.2896,-0.9321,2.991,-0.610,-0.610,162.587,11.404,-78.624
16192,-0.2217,0.2896,-0.9302,2.441,-0.183,-0.610,162.614,11.420,-78.618
16202,-0.2163,0.2969,-0.9263,1.648,0.183,-0.427,162.625,11.431,-78.618
16212,-0.2119,0.2969,-0.9258,2.197,0.793,-0.366,162.647,11.431,-78.613
16222,-0.2085,0.2891,-0.9336,3.540,1.465,-0.366,162.686,11.426,-78.602
16232,-0.2114,0.2861,-0.9360,4.578,2.258,-0.244,162.735,11.415,-78.591
16242,-0.2158,0.2808,-0.9341,4.639,2.441,0.244,162.784,11.398,-78.585
16252,-0.2187,0.2754,-0.9336,4.395,2.563,0.610,162.839,11.387,-78.585
16262,-0.2241,0.2788,-0.9316,3.906,2.441,1.099,162.878,11.376,-78.591
16272,-0.2241,0.2827,-0.9287,3.662,2.625,1.648,162.916,11.365,-78.596
16282,-0.2217,0.2798,-0.9341,3.723,3.357,1.953,162.955,11.338,-78.607
16292,-0.2148,0.2817,-0.9351,3.723,4.395,2.380,162.993,11.305,-78.618
16302,-0.2051,0.2905,-0.9316,3.418,4.822,3.052,163.021,11.255,-78.629
16312,-0.1963,0.2949,-0.9375,3.906,4.944,3.357,163.054,11.195,-78.651
16322,-0.1943,0.2993,-0.9458,4.456,5.005,3.479,163.087,11.140,-78.668
16332,-0.1924,0.3037,-0.9502,4.944,5.249,3.357,163.125,11.080,-78.684
16342,-0.1909,0.3081,-0.9541,5.493,5.920,2.991,163.163,11.008,-78.695
16352,-0.1890,0.3052,-0.9590,5.859,6.470,2.380,163.213,10.937,-78.701
16362,-0.1895,0.3086,-0.9658,6.226,6.958,1.587,163.268,10.865,-78.695
16372,-0.1841,0.3062,-0.9712,7.080,7.141,0.977,163.334,10.789,-78.684
16382,-0.1826,0.3032,-0.9736,7.629,6.897,0.549,163.405,10.712,-78.673
16392,-0.1807,0.2993,-0.9780,8.301,6.348,0.061,163.488,10.646,-78.651
16402,-0.1807,0.2988,-0.9829,8.911,5.493,-0.305,163.575,10.591,-78.635
16412,-0.1792,0.2900,-0.9790,9.705,5.005,-0.610,163.674,10.536,-78.613
16422,-0.1787,0.2920,-0.9829,10.071,4.700,-1.038,163.773,10.486,-78.591
16432,-0.1777,0.2847,-0.9858,10.559,4.517,-1.221,163.883,10.443,-78.563
16442,-0.1772,0.2812,-0.9834,10.498,3.845,-1.221,163.993,10.404,-78.541
16452,-0.1792,0.2739,-0.9829,9.949,2.930,-1.282,164.097,10.371,-78.519
16462,-0.1807,0.2695,-0.9805,8.728,1.953,-1.160,164.196,10.355,-78.503
16472,-0.1841,0.2686,-0.9819,7.141,1.282,-1.160,164.273,10.344,-78.492
16482,-0.1914,0.2695,-0.9780,5.981,1.343,-1.282,164.339,10.338,-78.475
16492,-0.1948,0.2681,-0.9785,5.432,1.648,-1.526,164.399,10.333,-78.453
16502,-0.1919,0.2642,-0.9766,5.615,1.709,-1.709,164.465,10.327,-78.431
16512,-0.1904,0.2578,-0.9736,5.554,0.916,-1.831,164.531,10.327,-78.415
16522,-0.1929,0.2559,-0.9712,4.639,-0.427,-1.648,164.586,10.338,-78.398
16532,-0.1938,0.2598,-0.9692,3.662,-1.648,-1.099,164.625,10.366,-78.393
16542,-0.1934,0.2593,-0.9673,2.747,-2.075,-0.793,164.658,10.393,-78.387
16552,-0.1938,0.2598,-0.9639,2.808,-1.282,-0.732,164.691,10.410,-78.387
16562,-0.1890,0.2563,-0.9609,3.540,-0.244,-0.671,164.729,10.421,-78.382
16572,-0.1875,0.2490,-0.9595,4.272,0.427,-0.427,164.778,10.421,-78.376
16582,-0.1841,0.2441,-0.9565,4.456,0.122,-0.061,164.833,10.421,-78.371
16592,-0.1841,0.2456,-0.9541,3.662,-1.038,0.549,164.872,10.432,-78.382
16602,-0.1865,0.2471,-0.9492,2.930,-1.892,0.916,164.905,10.448,-78.393
16612,-0.1880,0.2480,-0.9521,2.747,-1.465,1.038,164.938,10.464,-78.409
16622,-0.1895,0.2495,-0.9561,2.991,0.244,1.160,164.965,10.464,-78.420
16632,-0.1860,0.2456,-0.9575,3.906,2.136,1.343,165.009,10.443,-78.426
16642,-0.1836,0.2388,-0.9634,4.700,3.540,1.526,165.070,10.404,-78.431
16652,-0.1792,0.2368,-0.9624,4.639,3.601,2.014,165.125,10.360,-78.442
16662,-0.1787,0.2363,-0.9648,4.211,2.197,2.441,165.174,10.333,-78.464
16672,-0.1797,0.2349,-0.9741,3.540,0.610,2.747,165.212,10.316,-78.486
16682,-0.1802,0.2388,-0.9736,2.686,-0.244,3.052,165.245,10.311,-78.519
16692,-0.1802,0.2456,-0.9707,2.136,-0.122,3.357,165.267,10.305,-78.552
16702,-0.1772,0.2490,-0.9707,2.258,0.549,3.601,165.289,10.283,-78.585
16712,-0.1743,0.2505,-0.9668,2.686,1.038,3.723,165.311,10.261,-78.618
16722,-0.1733,0.2485,-0.9673,3.174,1.160,3.723,165.339,10.239,-78.651
16732,-0.1743,0.2466,-0.9727,3.662,1.465,3.784,165.372,10.212,-78.684
16742,-0.1719,0.2456,-0.9741,4.211,1.831,3.723,165.416,10.179,-78.717
16752,-0.1704,0.2451,-0.9697,4.456,2.075,3.723,165.454,10.146,-78.750
16762,-0.1689,0.2437,-0.9688,4.517,1.709,3.845,165.498,10.113,-78.783
16772,-0.1685,0.2412,-0.9663,4.456,1.465,3.967,165.542,10.085,-78.816
16782,-0.1675,0.2432,-0.9639,4.333,1.465,4.211,165.580,10.052,-78.854
16792,-0.1680,0.2441,-0.9570,4.028,1.709,4.517,165.613,10.025,-78.898
16802,-0.1689,0.2432,-0.9541,4.150,2.258,4.700,165.652,9.987,-78.937
16812,-0.1714,0.2417,-0.9561,4.333,3.052,4.761,165.690,9.943,-78.975
16822,-0.1709,0.2437,-0.9521,4.639,3.845,4.761,165.729,9.893,-79.014
16832,-0.1699,0.2451,-0.9556,4.761,4.089,4.761,165.767,9.844,-79.052
