elapsed_ms,acc_x_g,acc_y_g,acc_z_g,gyro_x_dps,gyro_y_dps,gyro_z_dps,angle_x_deg,angle_y_deg,angle_z_deg
0,-0.0610,0.5264,-0.8838,-3.418,-1.465,-1.831,149.222,3.175,-89.687
10,-0.0537,0.5205,-0.8833,-4.639,-1.831,-2.380,149.178,3.203,-89.676
20,-0.0532,0.5303,-0.8770,-5.737,-2.625,-2.747,149.123,3.235,-89.665
30,-0.0439,0.5215,-0.8691,-5.981,-3.113,-2.808,149.062,3.268,-89.659
40,-0.0488,0.5283,-0.8633,-5.920,-3.601,-2.808,148.997,3.307,-89.654
50,-0.0439,0.5234,-0.8550,-4.639,-3.418,-2.625,148.947,3.340,-89.648
60,-0.0508,0.5239,-0.8511,-3.235,-2.991,-2.441,148.909,3.378,-89.643
70,-0.0522,0.5190,-0.8423,-1.160,-2.258,-1.953,148.892,3.400,-89.637
80,-0.0571,0.5112,-0.8408,0.305,-1.282,-1.709,148.892,3.422,-89.626
90,-0.0605,0.5049,-0.8403,0.977,-0.488,-1.404,148.903,3.433,-89.621
100,-0.0615,0.4995,-0.8442,1.343,0.488,-1.160,148.925,3.433,-89.604
110,-0.0581,0.4971,-0.8472,0.977,1.404,-0.610,148.942,3.428,-89.594
120,-0.0557,0.5000,-0.8535,0.488,2.380,0.122,148.953,3.406,-89.583
130,-0.0542,0.5024,-0.8574,0.305,3.052,0.732,148.964,3.373,-89.572
140,-0.0547,0.5059,-0.8638,0.427,3.296,1.404,148.975,3.334,-89.566
150,-0.0547,0.5078,-0.8657,0.488,3.113,2.075,148.986,3.296,-89.572
160,-0.0552,0.5161,-0.8677,0.549,2.930,2.625,148.997,3.252,-89.577
170,-0.0527,0.5254,-0.8716,0.977,2.869,2.991,149.002,3.214,-89.588
180,-0.0503,0.5327,-0.8765,1.404,3.052,2.991,149.013,3.170,-89.599
190,-0.0508,0.5396,-0.8799,1.831,3.357,2.686,149.024,3.120,-89.604
200,-0.0508,0.5435,-0.8882,2.136,3.479,2.075,149.041,3.076,-89.604
210,-0.0483,0.5444,-0.8901,2.197,3.296,1.465,149.057,3.038,-89.599
220,-0.0479,0.5444,-0.8940,2.136,2.930,0.854,149.079,3.005,-89.594
230,-0.0483,0.5435,-0.8965,1.892,2.197,0.244,149.090,2.983,-89.583
240,-0.0518,0.5400,-0.8926,1.770,1.404,-0.305,149.106,2.972,-89.572
250,-0.0542,0.5366,-0.8901,1.587,0.610,-0.793,149.123,2.966,-89.561
260,-0.0571,0.5327,-0.8833,1.526,0.122,-1.160,149.134,2.977,-89.550
270,-0.0591,0.5249,-0.8799,1.526,0.000,-1.465,149.150,2.988,-89.539
280,-0.0586,0.5195,-0.8765,1.282,0.244,-1.709,149.167,2.994,-89.522
290,-0.0562,0.5171,-0.8740,0.732,0.488,-1.831,149.178,3.005,-89.506
300,-0.0542,0.5156,-0.8701,0.244,0.549,-1.831,149.183,3.005,-89.484
310,-0.0527,0.5151,-0.8682,0.183,0.488,-1.648,149.189,3.010,-89.467
320,-0.0537,0.5142,-0.8662,0.427,0.488,-1.526,149.194,3.016,-89.456
330,-0.0537,0.5146,-0.8677,1.160,0.854,-1.526,149.205,3.016,-89.434
340,-0.0508,0.5132,-0.8750,2.014,1.343,-1.587,149.233,3.010,-89.418
351,-0.0464,0.5112,-0.8779,2.197,1.526,-1.526,149.260,3.005,-89.396
360,-0.0420,0.5063,-0.8828,1.953,1.282,-1.404,149.288,2.994,-89.374
370,-0.0454,0.5103,-0.8892,1.587,0.427,-1.404,149.315,2.988,-89.363
380,-0.0444,0.5186,-0.8960,0.977,-1.038,-1.831,149.332,3.005,-89.352
390,-0.0439,0.5278,-0.8960,0.610,-2.319,-1.770,149.337,3.027,-89.346
400,-0.0444,0.5332,-0.8984,0.916,-3.174,-1.587,149.348,3.054,-89.352
410,-0.0513,0.5308,-0.8965,0.732,-3.235,-1.465,149.354,3.087,-89.352
420,-0.0508,0.5332,-0.8955,0.244,-2.808,-1.709,149.354,3.120,-89.352
430,-0.0522,0.5288,-0.8916,0.244,-2.380,-2.075,149.359,3.148,-89.346
440,-0.0562,0.5181,-0.8940,0.488,-2.380,-1.953,149.370,3.175,-89.346
450,-0.0586,0.5151,-0.8892,0.061,-2.991,-1.892,149.376,3.214,-89.341
460,-0.0576,0.5161,-0.8823,-1.282,-3.662,-2.136,149.365,3.252,-89.341
470,-0.0620,0.5205,-0.8745,-2.686,-4.150,-2.319,149.337,3.301,-89.346
480,-0.0684,0.5210,-0.8652,-2.686,-4.578,-2.625,149.304,3.362,-89.346
490,-0.0674,0.5205,-0.8623,-2.563,-4.517,-2.869,149.277,3.417,-89.341
500,-0.0684,0.5186,-0.8633,-1.892,-4.089,-3.235,149.255,3.472,-89.335
510,-0.0625,0.5146,-0.8647,-0.305,-3.052,-2.991,149.255,3.516,-89.324
520,-0.0645,0.5122,-0.8662,0.671,-2.197,-2.686,149.260,3.549,-89.313
530,-0.0620,0.5063,-0.8662,0.793,-1.587,-2.502,149.277,3.576,-89.302
540,-0.0605,0.5063,-0.8711,0.549,-0.793,-2.197,149.288,3.593,-89.286
550,-0.0591,0.5068,-0.8716,0.061,-0.122,-1.831,149.293,3.598,-89.269
560,-0.0596,0.5073,-0.8730,-0.305,0.549,-1.526,149.299,3.604,-89.253
570,-0.0596,0.5059,-0.8770,-0.244,0.854,-1.465,149.304,3.598,-89.236
580,-0.0557,0.5029,-0.8809,0.122,1.038,-1.343,149.315,3.593,-89.220
590,-0.0557,0.5024,-0.8862,0.305,1.099,-1.221,149.332,3.587,-89.203
600,-0.0552,0.5020,-0.8872,0.366,0.793,-1.221,149.348,3.582,-89.193
610,-0.0552,0.5020,-0.8887,0.488,0.183,-1.160,149.365,3.576,-89.182
620,-0.0576,0.5005,-0.8921,0.366,-0.427,-0.854,149.381,3.582,-89.176
630,-0.0596,0.5000,-0.8916,0.305,-0.793,-0.610,149.398,3.593,-89.171
640,-0.0571,0.5039,-0.8965,0.305,-0.916,-0.366,149.414,3.598,-89.176
650,-0.0532,0.5103,-0.8950,0.305,-1.099,-0.061,149.425,3.598,-89.182
660,-0.0508,0.5112,-0.8901,0.183,-1.465,0.183,149.436,3.604,-89.187
670,-0.0518,0.5093,-0.8896,0.000,-1.892,0.183,149.442,3.609,-89.198
680,-0.0591,0.5107,-0.8906,-0.305,-2.136,-0.122,149.442,3.625,-89.209
690,-0.0601,0.5112,-0.8901,-0.732,-2.197,-0.183,149.442,3.642,-89.220
700,-0.0659,0.5171,-0.8867,-1.038,-2.014,-0.122,149.436,3.664,-89.231
710,-0.0684,0.5181,-0.8828,-0.793,-1.831,0.122,149.431,3.680,-89.236
720,-0.0713,0.5176,-0.8794,-0.366,-1.770,0.305,149.425,3.697,-89.253
730,-0.0825,0.5122,-0.8755,-0.061,-1.953,0.305,149.425,3.719,-89.264
740,-0.0928,0.5044,-0.8716,-0.732,-2.197,0.305,149.425,3.752,-89.275
750,-0.1040,0.5049,-0.8608,-2.258,-2.625,0.183,149.403,3.796,-89.291
760,-0.1108,0.5156,-0.8477,-3.906,-2.930,0.122,149.354,3.845,-89.308
770,-0.1104,0.5200,-0.8398,-4.150,-2.686,0.061,149.299,3.895,-89.324
780,-0.1011,0.5298,-0.8335,-3.418,-1.831,-0.061,149.249,3.928,-89.330
790,-0.0864,0.5400,-0.8325,-1.892,-0.671,-0.427,149.211,3.950,-89.330
800,-0.0640,0.5454,-0.8350,0.122,0.183,-0.488,149.189,3.944,-89.324
810,-0.0449,0.5449,-0.8467,1.526,0.671,-0.793,149.183,3.928,-89.313
820,-0.0273,0.5454,-0.8594,2.136,1.160,-1.282,149.189,3.900,-89.297
830,-0.0210,0.5493,-0.8735,2.014,1.831,-1.892,149.194,3.867,-89.275
840,-0.0186,0.5508,-0.8877,1.648,2.991,-2.502,149.205,3.829,-89.236
851,-0.0220,0.5498,-0.8936,1.587,4.395,-3.052,149.216,3.779,-89.187
860,-0.0278,0.5435,-0.9009,1.892,5.493,-3.601,149.238,3.730,-89.127
870,-0.0332,0.5278,-0.9131,2.808,6.042,-4.333,149.277,3.680,-89.061
880,-0.0449,0.5132,-0.9248,3.601,5.737,-4.944,149.332,3.642,-88.989
890,-0.0513,0.4971,-0.9253,3.784,4.639,-5.188,149.398,3.620,-88.918
900,-0.0571,0.4844,-0.9307,3.296,2.869,-5.066,149.464,3.620,-88.863
910,-0.0649,0.4785,-0.9321,2.258,0.732,-4.822,149.524,3.636,-88.813
920,-0.0679,0.4712,-0.9302,1.099,-1.404,-4.395,149.573,3.669,-88.786
930,-0.0679,0.4673,-0.9219,-0.122,-3.662,-3.723,149.606,3.719,-88.770
940,-0.0669,0.4639,-0.9063,-1.526,-5.920,-2.808,149.628,3.785,-88.775
950,-0.0679,0.4707,-0.8936,-3.296,-8.118,-1.831,149.617,3.862,-88.802
960,-0.0757,0.4785,-0.8838,-4.211,-9.277,-1.099,149.595,3.955,-88.841
970,-0.0815,0.4873,-0.8726,-4.089,-9.033,-0.366,149.562,4.037,-88.885
980,-0.0850,0.4907,-0.8633,-3.357,-7.446,0.183,149.535,4.109,-88.923
990,-0.0859,0.4893,-0.8604,-1.831,-5.554,0.671,149.524,4.164,-88.956
1000,-0.0913,0.4912,-0.8516,-1.038,-4.272,1.343,149.513,4.202,-88.989
1010,-0.0972,0.4961,-0.8442,-1.099,-4.028,2.014,149.502,4.241,-89.028
1020,-0.1030,0.5034,-0.8374,-1.526,-4.272,2.563,149.480,4.285,-89.072
1030,-0.1064,0.5142,-0.8311,-2.197,-4.700,2.808,149.442,4.329,-89.121
1040,-0.1079,0.5288,-0.8228,-2.625,-4.639,2.869,149.387,4.373,-89.165
1050,-0.1016,0.5425,-0.8164,-2.502,-3.967,2.808,149.332,4.411,-89.214
1060,-0.0894,0.5547,-0.8174,-1.892,-2.686,2.625,149.271,4.427,-89.247
1070,-0.0708,0.5591,-0.8213,-1.038,-1.160,2.258,149.227,4.422,-89.275
1080,-0.0537,0.5635,-0.8267,-0.793,0.244,1.892,149.183,4.395,-89.291
1090,-0.0410,0.5747,-0.8340,-0.793,1.343,1.465,149.134,4.356,-89.297
1101,-0.0327,0.5815,-0.8433,-0.183,2.563,0.854,149.095,4.307,-89.291
1111,-0.0312,0.5835,-0.8569,1.099,4.211,-0.061,149.079,4.246,-89.264
1121,-0.0342,0.5786,-0.8726,2.625,6.042,-1.282,149.079,4.175,-89.225
1131,-0.0352,0.5635,-0.8867,4.089,7.568,-2.808,149.112,4.103,-89.160
1141,-0.0444,0.5420,-0.9038,4.883,8.484,-4.150,149.161,4.037,-89.083
1151,-0.0537,0.5229,-0.9209,4.456,8.484,-5.066,149.227,3.977,-88.995
1161,-0.0625,0.5112,-0.9316,3.235,7.751,-5.432,149.282,3.933,-88.907
1171,-0.0693,0.5015,-0.9370,2.075,6.287,-5.371,149.337,3.906,-88.830
1181,-0.0752,0.4897,-0.9390,1.587,4.333,-5.127,149.387,3.895,-88.764
1191,-0.0796,0.4741,-0.9375,1.831,2.075,-4.761,149.447,3.906,-88.709
1201,-0.0850,0.4604,-0.9272,1.648,-0.366,-4.395,149.507,3.939,-88.676
1211,-0.0884,0.4468,-0.9165,0.977,-2.563,-3.723,149.562,3.988,-88.654
1221,-0.0894,0.4404,-0.9048,-0.183,-4.150,-2.747,149.606,4.048,-88.654
1231,-0.0864,0.4429,-0.8950,-1.465,-4.944,-1.709,149.628,4.109,-88.665
1241,-0.0811,0.4502,-0.8809,-2.380,-5.249,-0.671,149.639,4.164,-88.687
1251,-0.0806,0.4580,-0.8716,-2.258,-5.432,0.244,149.639,4.213,-88.715
1261,-0.0776,0.4648,-0.8628,-1.404,-5.676,1.099,149.645,4.257,-88.753
1271,-0.0771,0.4702,-0.8608,-0.244,-5.554,1.953,149.656,4.301,-88.797
1281,-0.0796,0.4741,-0.8516,0.732,-5.005,2.869,149.672,4.334,-88.846
1291,-0.0776,0.4795,-0.8521,1.343,-4.028,3.906,149.689,4.351,-88.901
1301,-0.0786,0.4863,-0.8496,1.587,-2.808,4.822,149.705,4.351,-88.956
1311,-0.0796,0.4990,-0.8525,1.343,-1.587,5.554,149.716,4.340,-89.017
1321,-0.0786,0.5122,-0.8560,0.977,-0.427,6.042,149.716,4.312,-89.066
1331,-0.0786,0.5239,-0.8638,0.610,0.549,6.226,149.705,4.279,-89.121
1341,-0.0767,0.5371,-0.8687,0.183,0.977,6.287,149.689,4.241,-89.171
1351,-0.0718,0.5479,-0.8730,0.122,0.916,5.981,149.672,4.202,-89.214
1361,-0.0645,0.5557,-0.8770,0.122,0.366,5.493,149.650,4.164,-89.264
1371,-0.0620,0.5630,-0.8765,0.061,-0.244,4.822,149.623,4.131,-89.308
1381,-0.0605,0.5688,-0.8745,0.244,-0.549,4.089,149.595,4.109,-89.341
1391,-0.0581,0.5693,-0.8711,0.488,-0.427,3.296,149.568,4.087,-89.374
1401,-0.0562,0.5679,-0.8735,0.610,0.000,2.319,149.551,4.065,-89.396
1411,-0.0542,0.5630,-0.8740,0.977,0.916,1.160,149.535,4.043,-89.401
1421,-0.0493,0.5562,-0.8770,1.404,1.892,0.000,149.529,4.010,-89.390
1431,-0.0479,0.5449,-0.8818,1.953,2.197,-1.221,149.540,3.988,-89.368
1441,-0.0522,0.5356,-0.8921,2.502,1.587,-2.441,149.562,3.972,-89.341
1451,-0.0537,0.5288,-0.8994,2.991,-0.183,-3.601,149.590,3.983,-89.308
1461,-0.0537,0.5215,-0.9009,4.272,-3.906,-5.493,149.639,4.032,-89.280
1471,-0.0605,0.5112,-0.9102,6.592,-10.010,-7.935,149.716,4.153,-89.264
1481,-0.0767,0.5098,-0.9224,7.141,-16.235,-9.338,149.799,4.334,-89.264
1491,-0.0894,0.5039,-0.9272,7.507,-20.996,-9.399,149.892,4.570,-89.291
1501,-0.0967,0.4976,-0.9321,8.301,-23.743,-8.728,149.991,4.823,-89.330
1511,-0.1021,0.4873,-0.9180,8.179,-25.574,-7.935,150.084,5.087,-89.390
1521,-0.1040,0.4907,-0.9106,7.446,-26.672,-7.751,150.167,5.361,-89.456
1531,-0.1118,0.4854,-0.8936,7.874,-30.518,-8.301,150.255,5.674,-89.539
1541,-0.1050,0.4878,-0.8774,6.775,-31.006,-8.179,150.320,5.982,-89.621
1551,-0.1094,0.4819,-0.8735,5.249,-28.870,-7.202,150.370,6.268,-89.703
1561,-0.1177,0.4800,-0.8662,3.479,-26.489,-6.042,150.403,6.531,-89.780
1571,-0.1279,0.4868,-0.8677,2.380,-24.475,-5.066,150.419,6.773,-89.857
1581,-0.1343,0.4932,-0.8608,1.770,-22.034,-4.272,150.425,6.993,-89.929
1591,-0.1323,0.4976,-0.8608,0.671,-18.250,-3.662,150.419,7.174,-89.989
1601,-0.1367,0.4990,-0.8579,0.427,-14.343,-3.235,150.414,7.322,-90.033
1611,-0.1367,0.4951,-0.8574,0.061,-9.155,-2.563,150.408,7.421,-90.055
1621,-0.1382,0.4907,-0.8496,-0.183,-4.578,-2.075,150.403,7.476,-90.060
1631,-0.1377,0.4878,-0.8457,-1.099,-1.038,-1.526,150.386,7.498,-90.049
1641,-0.1333,0.4863,-0.8438,-2.136,0.977,-1.038,150.364,7.498,-90.038
1651,-0.1304,0.4922,-0.8438,-2.686,2.563,-0.671,150.337,7.476,-90.016
1661,-0.1270,0.4961,-0.8486,-2.258,4.211,-0.183,150.309,7.443,-89.995
1671,-0.1211,0.4917,-0.8540,-1.160,6.226,0.610,150.298,7.383,-89.973
1681,-0.1177,0.4941,-0.8623,-0.610,8.728,1.526,150.293,7.289,-89.940
1691,-0.1162,0.4878,-0.8701,0.610,11.719,2.319,150.309,7.174,-89.901
1701,-0.1079,0.4805,-0.8843,0.916,14.648,3.113,150.337,7.020,-89.857
1711,-0.1050,0.4810,-0.8862,-0.122,17.029,4.028,150.353,6.844,-89.808
1721,-0.1025,0.4785,-0.8877,-1.160,18.799,4.639,150.359,6.652,-89.753
1731,-0.1025,0.4795,-0.8940,-2.319,19.531,4.883,150.359,6.449,-89.698
1741,-0.1016,0.4829,-0.8931,-2.930,19.104,4.822,150.348,6.251,-89.648
1751,-0.1060,0.4844,-0.9019,-2.380,17.700,4.517,150.342,6.075,-89.599
1761,-0.1084,0.4873,-0.9048,-1.404,15.503,3.967,150.348,5.922,-89.555
1771,-0.1094,0.4893,-0.9102,0.244,12.390,3.052,150.370,5.801,-89.522
1781,-0.1118,0.4893,-0.9170,1.526,8.545,2.258,150.403,5.718,-89.500
1791,-0.1128,0.4907,-0.9214,1.831,4.700,1.953,150.436,5.674,-89.489
1801,-0.1094,0.4951,-0.9204,1.282,1.465,1.953,150.458,5.658,-89.500
1811,-0.1069,0.4971,-0.9092,0.244,-1.038,2.136,150.469,5.658,-89.522
1821,-0.1045,0.5034,-0.8975,-0.854,-2.869,2.136,150.458,5.674,-89.555
1831,-0.1035,0.5103,-0.8892,-1.709,-3.906,2.014,150.436,5.696,-89.594
1841,-0.1045,0.5146,-0.8804,-1.953,-4.272,1.709,150.403,5.729,-89.632
1852,-0.0981,0.5171,-0.8735,-1.770,-3.845,1.343,150.375,5.751,-89.659
1861,-0.0933,0.5195,-0.8672,-1.343,-2.991,0.977,150.342,5.768,-89.687
1871,-0.0908,0.5176,-0.8628,-0.610,-2.075,0.610,150.326,5.779,-89.698
1881,-0.0903,0.5156,-0.8628,0.000,-1.038,0.244,150.309,5.779,-89.709
1891,-0.0947,0.5112,-0.8623,0.122,0.061,0.122,150.304,5.773,-89.709
1901,-0.0962,0.5083,-0.8604,-0.183,0.916,0.305,150.293,5.762,-89.709
1911,-0.0977,0.5078,-0.8594,-0.427,1.770,0.488,150.282,5.740,-89.703
1921,-0.1001,0.5039,-0.8643,-0.366,2.991,0.610,150.271,5.713,-89.692
1931,-0.0986,0.5034,-0.8687,-0.244,3.845,0.610,150.266,5.674,-89.681
1941,-0.0957,0.5010,-0.8716,0.427,4.517,0.610,150.271,5.630,-89.659
1951,-0.0908,0.4971,-0.8799,1.038,4.761,0.549,150.287,5.581,-89.643
1961,-0.0879,0.4966,-0.8848,1.282,4.395,0.671,150.304,5.537,-89.626
1971,-0.0825,0.4971,-0.8911,1.099,3.601,0.671,150.320,5.493,-89.615
1981,-0.0796,0.4980,-0.8970,0.854,2.686,0.427,150.337,5.455,-89.604
1991,-0.0825,0.4946,-0.9023,0.732,2.014,0.061,150.353,5.427,-89.594
2001,-0.0864,0.4946,-0.9121,0.488,1.526,-0.061,150.375,5.411,-89.588
2011,-0.0898,0.4927,-0.9106,-0.183,1.038,0.000,150.381,5.394,-89.583
2021,-0.0972,0.4927,-0.9097,-0.610,0.183,0.061,150.392,5.394,-89.583
2031,-0.1064,0.4844,-0.9106,-0.366,-0.366,0.244,150.403,5.400,-89.588
2041,-0.1128,0.4839,-0.9063,-0.793,-1.282,0.488,150.408,5.416,-89.599
2051,-0.1172,0.4849,-0.8994,-1.038,-2.136,0.671,150.408,5.444,-89.615
2061,-0.1201,0.4849,-0.8931,-0.977,-2.747,0.916,150.408,5.477,-89.632
2071,-0.1201,0.4902,-0.8843,-1.526,-3.418,1.221,150.397,5.515,-89.659
2081,-0.1162,0.4990,-0.8730,-1.831,-3.845,1.465,150.375,5.548,-89.692
2091,-0.1104,0.5039,-0.8706,-1.892,-3.906,1.404,150.348,5.587,-89.725
2101,-0.1084,0.5054,-0.8662,-1.770,-3.479,1.282,150.320,5.614,-89.753
2111,-0.1045,0.5103,-0.8589,-1.953,-2.808,0.977,150.287,5.636,-89.775
2121,-0.0981,0.5127,-0.8555,-2.014,-2.563,0.488,150.255,5.658,-89.791
2131,-0.0952,0.5161,-0.8550,-1.770,-2.441,0.000,150.222,5.674,-89.808
2141,-0.0928,0.5200,-0.8569,-1.404,-2.075,-0.366,150.194,5.691,-89.813
2151,-0.0933,0.5190,-0.8589,-0.732,-1.221,-0.610,150.172,5.702,-89.813
2161,-0.0937,0.5151,-0.8633,-0.061,-0.061,-0.732,150.161,5.702,-89.808
2171,-0.1011,0.5112,-0.8701,0.305,1.282,-0.916,150.161,5.696,-89.791
2181,-0.1016,0.5093,-0.8745,0.305,2.319,-0.916,150.161,5.680,-89.775
2191,-0.0957,0.5083,-0.8857,0.549,3.235,-0.916,150.167,5.652,-89.747
2201,-0.0898,0.5039,-0.8901,0.610,3.723,-0.732,150.183,5.620,-89.725
2211,-0.0854,0.5000,-0.8892,-0.366,2.014,-0.488,150.183,5.598,-89.709
2221,-0.0879,0.5010,-0.8965,-0.427,0.916,-0.305,150.189,5.581,-89.703
2231,-0.0854,0.5015,-0.8921,-0.488,0.366,0.000,150.189,5.570,-89.703
2241,-0.0835,0.5029,-0.8892,-0.244,0.366,0.122,150.189,5.559,-89.698
2251,-0.0830,0.5039,-0.8882,0.122,0.488,0.061,150.189,5.543,-89.698
2261,-0.0850,0.5010,-0.8896,0.488,0.610,-0.183,150.200,5.532,-89.692
2271,-0.0820,0.4985,-0.8916,0.610,0.793,-0.488,150.211,5.515,-89.687
2281,-0.0835,0.4946,-0.8926,0.305,0.671,-0.732,150.227,5.510,-89.676
2291,-0.0820,0.4912,-0.8921,-0.061,0.305,-0.916,150.233,5.499,-89.665
2301,-0.0854,0.4878,-0.8931,-0.488,-0.183,-0.977,150.244,5.499,-89.659
2311,-0.0957,0.4819,-0.8877,-0.854,-0.854,-0.854,150.244,5.510,-89.654
2321,-0.1074,0.4756,-0.8789,-1.221,-1.282,-0.671,150.249,5.532,-89.654
2331,-0.1152,0.4741,-0.8691,-1.404,-1.343,-0.366,150.244,5.554,-89.659
2341,-0.1172,0.4741,-0.8599,-1.282,-1.099,0.244,150.238,5.576,-89.665
2352,-0.1157,0.4727,-0.8535,-0.549,-0.366,0.977,150.244,5.587,-89.676
2361,-0.1089,0.4722,-0.8472,0.122,0.549,1.831,150.249,5.581,-89.692
2371,-0.1011,0.4731,-0.8384,0.488,1.465,2.686,150.255,5.559,-89.709
2381,-0.0962,0.4746,-0.8335,0.427,2.258,3.662,150.255,5.521,-89.725
2391,-0.0913,0.4824,-0.8286,0.000,2.991,4.700,150.249,5.471,-89.753
2401,-0.0874,0.4961,-0.8276,-0.549,3.845,5.798,150.227,5.411,-89.786
2411,-0.0869,0.5137,-0.8320,-0.549,5.066,6.653,150.200,5.328,-89.819
2421,-0.0854,0.5278,-0.8403,0.244,6.714,7.202,150.178,5.229,-89.846
2431,-0.0874,0.5366,-0.8569,1.526,8.728,7.202,150.167,5.120,-89.868
2441,-0.0898,0.5449,-0.8721,2.808,10.681,6.775,150.172,4.993,-89.874
2451,-0.0942,0.5469,-0.8867,3.357,11.902,5.920,150.189,4.861,-89.863
2461,-0.0967,0.5518,-0.9038,3.113,12.024,4.761,150.205,4.741,-89.846
2471,-0.0923,0.5562,-0.9180,2.380,11.108,3.540,150.216,4.631,-89.819
2481,-0.0879,0.5586,-0.9360,1.587,9.583,2.197,150.227,4.537,-89.791
2491,-0.0815,0.5557,-0.9463,1.160,7.812,0.732,150.233,4.460,-89.758
2501,-0.0742,0.5503,-0.9541,0.793,5.859,-0.732,150.244,4.411,-89.725
2511,-0.0679,0.5425,-0.9570,0.366,3.601,-1.953,150.249,4.378,-89.687
2521,-0.0620,0.5312,-0.9512,-0.183,1.099,-2.869,150.255,4.373,-89.659
2531,-0.0625,0.5225,-0.9463,-0.977,-1.404,-3.540,150.255,4.389,-89.637
2541,-0.0649,0.5122,-0.9297,-1.648,-3.662,-4.028,150.249,4.433,-89.621
2551,-0.0674,0.5020,-0.9194,-2.075,-5.249,-4.333,150.244,4.493,-89.604
2561,-0.0703,0.4966,-0.9048,-2.319,-5.981,-4.517,150.227,4.559,-89.599
2571,-0.0752,0.4883,-0.8926,-2.441,-6.165,-4.395,150.216,4.631,-89.588
2581,-0.0762,0.4839,-0.8813,-2.380,-5.798,-4.211,150.205,4.697,-89.583
2591,-0.0771,0.4805,-0.8726,-2.258,-5.310,-3.845,150.194,4.763,-89.577
2601,-0.0825,0.4746,-0.8647,-1.831,-4.700,-3.418,150.183,4.818,-89.566
2611,-0.0830,0.4712,-0.8613,-1.221,-4.089,-2.869,150.183,4.867,-89.566
2621,-0.0879,0.4687,-0.8574,-0.854,-3.418,-2.197,150.189,4.911,-89.561
2631,-0.0918,0.4644,-0.8574,-0.366,-2.625,-1.404,150.200,4.944,-89.561
2641,-0.0952,0.4639,-0.8579,0.305,-1.404,-0.488,150.216,4.966,-89.566
2651,-0.0962,0.4629,-0.8584,0.549,0.000,0.427,150.233,4.971,-89.572
2661,-0.0918,0.4687,-0.8613,0.122,0.793,1.160,150.249,4.960,-89.577
2671,-0.0903,0.4746,-0.8667,-0.366,0.732,1.587,150.255,4.949,-89.588
2681,-0.0913,0.4785,-0.8701,-0.610,0.610,1.892,150.255,4.938,-89.599
2691,-0.0903,0.4819,-0.8735,-0.610,0.671,2.197,150.255,4.922,-89.615
2701,-0.0889,0.4844,-0.8745,0.000,1.343,2.502,150.260,4.900,-89.632
2711,-0.0874,0.4819,-0.8711,0.671,2.014,2.686,150.276,4.872,-89.643
2721,-0.0864,0.4805,-0.8706,1.160,2.625,2.930,150.293,4.834,-89.654
2731,-0.0869,0.4751,-0.8701,1.587,3.052,3.174,150.320,4.796,-89.670
2741,-0.0864,0.4746,-0.8770,1.831,3.723,3.540,150.348,4.746,-89.681
2751,-0.0835,0.4824,-0.8818,1.892,4.333,3.967,150.375,4.691,-89.692
2761,-0.0801,0.4912,-0.8872,2.686,4.822,4.211,150.408,4.625,-89.709
2771,-0.0688,0.4976,-0.8887,3.113,4.761,4.517,150.441,4.554,-89.720
2781,-0.0698,0.5308,-0.8994,4.089,3.906,3.967,150.469,4.493,-89.736
2791,-0.0610,0.5171,-0.9136,7.019,3.418,3.357,150.540,4.438,-89.747
2801,-0.0586,0.5254,-0.9146,6.409,2.136,2.380,150.601,4.395,-89.758
2811,-0.0664,0.5425,-0.9209,5.615,1.038,0.732,150.645,4.373,-89.764
2821,-0.0659,0.5210,-0.9238,5.554,0.549,0.000,150.699,4.362,-89.758
2831,-0.0645,0.5225,-0.9189,2.563,-0.244,-0.732,150.721,4.362,-89.753
2841,-0.0664,0.5190,-0.9160,0.305,-0.549,-1.953,150.721,4.367,-89.742
2852,-0.0703,0.5186,-0.9102,-1.770,-1.221,-2.563,150.699,4.384,-89.725
2861,-0.0728,0.5171,-0.8994,-2.991,-1.953,-2.808,150.667,4.411,-89.709
2871,-0.0752,0.5107,-0.8936,-2.808,-2.380,-3.052,150.634,4.444,-89.692
2881,-0.0762,0.5059,-0.8848,-2.380,-2.625,-3.113,150.612,4.477,-89.676
2891,-0.0767,0.4956,-0.8799,-1.404,-2.441,-3.174,150.595,4.515,-89.665
2901,-0.0771,0.4878,-0.8755,-0.977,-2.136,-3.052,150.590,4.548,-89.648
2911,-0.0762,0.4819,-0.8682,-1.099,-1.709,-2.869,150.584,4.576,-89.632
2921,-0.0742,0.4731,-0.8667,-1.221,-1.038,-2.625,150.584,4.592,-89.610
2931,-0.0737,0.4727,-0.8652,-1.221,-0.061,-2.319,150.579,4.603,-89.594
2941,-0.0732,0.4717,-0.8677,-0.671,1.282,-1.892,150.584,4.598,-89.572
2951,-0.0728,0.4722,-0.8721,0.244,2.686,-1.282,150.595,4.576,-89.544
2961,-0.0708,0.4727,-0.8794,1.282,3.784,-0.610,150.623,4.537,-89.522
2971,-0.0703,0.4712,-0.8838,2.014,4.578,0.061,150.656,4.493,-89.500
2981,-0.0684,0.4751,-0.8896,2.441,4.944,0.610,150.694,4.444,-89.478
2991,-0.0664,0.4790,-0.8984,2.686,4.639,0.854,150.738,4.389,-89.467
3001,-0.0664,0.4824,-0.9072,2.686,3.723,0.732,150.776,4.351,-89.451
3011,-0.0698,0.4854,-0.9165,2.380,2.563,0.549,150.815,4.318,-89.445
3021,-0.0708,0.4893,-0.9209,1.770,1.465,0.549,150.842,4.301,-89.445
3032,-0.0723,0.4932,-0.9214,1.099,0.732,0.732,150.864,4.285,-89.445
3042,-0.0737,0.4956,-0.9170,0.549,0.061,0.732,150.875,4.279,-89.451
3051,-0.0713,0.4961,-0.9141,0.122,-0.854,0.671,150.881,4.279,-89.462
3061,-0.0728,0.4976,-0.9092,-0.183,-1.953,0.671,150.886,4.290,-89.478
3071,-0.0762,0.5005,-0.9028,-0.549,-2.991,0.610,150.881,4.312,-89.495
3081,-0.0791,0.5015,-0.8960,-0.793,-3.723,0.549,150.870,4.345,-89.522
3092,-0.0781,0.5020,-0.8892,-0.793,-3.906,0.305,150.853,4.378,-89.544
3102,-0.0796,0.5015,-0.8823,-0.671,-3.662,0.061,150.842,4.411,-89.561
3112,-0.0781,0.4971,-0.8794,-0.488,-3.296,-0.061,150.831,4.438,-89.577
3122,-0.0791,0.4956,-0.8774,-0.488,-2.808,-0.061,150.826,4.460,-89.588
3132,-0.0796,0.4956,-0.8770,-0.610,-2.441,0.061,150.815,4.482,-89.599
3142,-0.0850,0.4961,-0.8740,-0.610,-2.136,0.061,150.804,4.504,-89.610
3152,-0.0874,0.4971,-0.8716,-0.488,-1.831,0.183,150.793,4.526,-89.621
3162,-0.0913,0.4976,-0.8701,-0.183,-1.282,0.305,150.787,4.543,-89.632
3172,-0.0918,0.4937,-0.8696,0.183,-0.549,0.488,150.782,4.554,-89.637
3182,-0.0923,0.4941,-0.8721,0.549,0.244,0.610,150.782,4.554,-89.643
3192,-0.0894,0.4966,-0.8779,0.610,0.916,0.732,150.787,4.548,-89.643
3202,-0.0884,0.4971,-0.8765,0.549,1.221,0.793,150.787,4.537,-89.648
3212,-0.0854,0.4971,-0.8843,0.610,1.160,0.671,150.793,4.526,-89.648
3222,-0.0864,0.4976,-0.8867,0.366,0.854,0.366,150.798,4.521,-89.643
3232,-0.0903,0.5015,-0.8882,-0.122,0.305,0.061,150.793,4.521,-89.643
3242,-0.0898,0.5020,-0.8906,-0.549,-0.305,-0.427,150.787,4.532,-89.643
3252,-0.0884,0.5000,-0.8906,-0.916,-0.732,-0.793,150.776,4.548,-89.637
3262,-0.0864,0.5020,-0.8916,-1.038,-0.916,-1.038,150.765,4.565,-89.632
3272,-0.0840,0.4976,-0.8896,-0.916,-0.854,-1.160,150.754,4.576,-89.626
3282,-0.0825,0.4956,-0.8882,-0.793,-0.732,-1.221,150.749,4.592,-89.621
3292,-0.0830,0.4941,-0.8848,-0.671,-0.732,-1.221,150.743,4.603,-89.615
3302,-0.0830,0.4917,-0.8887,-0.610,-0.977,-1.282,150.743,4.620,-89.610
3312,-0.0820,0.4888,-0.8887,-0.671,-1.099,-1.404,150.738,4.636,-89.599
3322,-0.0825,0.4888,-0.8892,-0.916,-0.977,-1.404,150.738,4.653,-89.594
3332,-0.0815,0.4849,-0.8882,-0.977,-0.671,-1.282,150.732,4.664,-89.583
3342,-0.0820,0.4854,-0.8877,-0.916,-0.305,-1.038,150.732,4.669,-89.577
3352,-0.0776,0.4839,-0.8853,-0.610,0.061,-0.854,150.732,4.669,-89.572
3362,-0.0776,0.4839,-0.8867,-0.244,0.122,-0.671,150.738,4.669,-89.566
3372,-0.0781,0.4824,-0.8887,0.000,0.061,-0.488,150.743,4.669,-89.561
3382,-0.0791,0.4854,-0.8901,-0.122,-0.183,-0.244,150.749,4.669,-89.555
3392,-0.0796,0.4844,-0.8887,-0.427,-0.366,0.061,150.754,4.669,-89.561
3402,-0.0791,0.4858,-0.8916,-0.610,-0.427,0.305,150.754,4.669,-89.566
3412,-0.0776,0.4902,-0.8926,-0.671,-0.488,0.366,150.749,4.669,-89.572
3422,-0.0781,0.4922,-0.8926,-0.549,-0.427,0.549,150.749,4.669,-89.577
3432,-0.0767,0.4941,-0.8901,-0.366,-0.366,0.793,150.743,4.664,-89.588
3442,-0.0771,0.4937,-0.8892,-0.183,-0.427,0.916,150.743,4.658,-89.594
3452,-0.0781,0.4956,-0.8833,-0.122,-0.610,0.977,150.743,4.658,-89.610
3462,-0.0781,0.4985,-0.8838,-0.122,-0.793,0.977,150.738,4.658,-89.621
3472,-0.0825,0.5015,-0.8843,-0.061,-0.732,1.038,150.732,4.658,-89.632
3482,-0.0806,0.5034,-0.8853,0.122,-0.427,0.977,150.732,4.658,-89.643
3492,-0.0786,0.5049,-0.8818,0.244,0.000,0.854,150.727,4.647,-89.648
3502,-0.0752,0.5044,-0.8818,0.244,0.122,0.671,150.721,4.642,-89.654
3512,-0.0757,0.5044,-0.8813,0.122,0.061,0.366,150.721,4.636,-89.659
3522,-0.0776,0.5039,-0.8843,-0.061,-0.122,0.183,150.716,4.631,-89.659
3532,-0.0776,0.5029,-0.8872,-0.183,0.000,0.122,150.710,4.631,-89.665
3542,-0.0757,0.5049,-0.8872,0.061,0.488,0.061,150.705,4.620,-89.659
3552,-0.0713,0.5010,-0.8867,0.488,0.916,0.000,150.710,4.609,-89.654
3562,-0.0718,0.4971,-0.8882,0.916,0.854,-0.122,150.721,4.592,-89.648
3572,-0.0771,0.4932,-0.8901,0.916,0.366,-0.244,150.732,4.587,-89.648
3582,-0.0811,0.4917,-0.8887,0.549,0.000,-0.122,150.743,4.592,-89.643
3592,-0.0781,0.4897,-0.8882,0.366,-0.061,0.061,150.749,4.587,-89.648
3602,-0.0762,0.4888,-0.8882,0.427,0.122,0.122,150.760,4.581,-89.648
3612,-0.0762,0.4893,-0.8882,0.732,0.427,0.183,150.771,4.576,-89.648
3622,-0.0737,0.4917,-0.8901,0.916,0.671,0.244,150.782,4.565,-89.643
3632,-0.0747,0.4893,-0.8945,0.916,0.671,0.427,150.798,4.554,-89.643
3642,-0.0747,0.4863,-0.8960,0.732,0.427,0.549,150.809,4.543,-89.648
3652,-0.0767,0.4868,-0.8940,0.305,0.000,0.549,150.820,4.537,-89.654
3662,-0.0771,0.4888,-0.8936,-0.183,-0.427,0.610,150.820,4.537,-89.659
3672,-0.0806,0.4897,-0.8936,-0.366,-0.732,0.732,150.820,4.537,-89.670
3682,-0.0840,0.4932,-0.8921,-0.427,-0.793,0.854,150.820,4.543,-89.681
3692,-0.0835,0.4956,-0.8911,-0.305,-0.854,0.793,150.815,4.548,-89.692
3702,-0.0820,0.4966,-0.8916,0.000,-0.793,0.610,150.815,4.554,-89.703
3712,-0.0820,0.4956,-0.8940,0.183,-0.793,0.427,150.820,4.559,-89.709
3722,-0.0796,0.4951,-0.8940,0.122,-0.916,0.244,150.820,4.565,-89.714
3732,-0.0796,0.4961,-0.8911,-0.244,-1.282,0.122,150.820,4.576,-89.725
3742,-0.0825,0.4980,-0.8926,-0.732,-1.709,0.061,150.809,4.587,-89.731
3752,-0.0854,0.4966,-0.8882,-1.221,-2.014,-0.122,150.798,4.609,-89.742
3762,-0.0864,0.4985,-0.8838,-1.526,-2.075,-0.305,150.782,4.631,-89.747
3772,-0.0869,0.4995,-0.8813,-1.526,-1.831,-0.427,150.760,4.653,-89.753
3782,-0.0874,0.4951,-0.8784,-1.343,-1.526,-0.610,150.749,4.669,-89.758
3792,-0.0889,0.4946,-0.8779,-1.160,-1.221,-0.732,150.732,4.686,-89.758
3802,-0.0889,0.4956,-0.8794,-1.221,-1.038,-0.732,150.721,4.702,-89.753
3812,-0.0869,0.4966,-0.8740,-1.160,-1.160,-0.854,150.705,4.719,-89.753
3822,-0.0874,0.4941,-0.8765,-0.977,-1.282,-1.038,150.694,4.741,-89.753
3832,-0.0889,0.4946,-0.8774,-0.854,-1.221,-1.160,150.683,4.757,-89.747
3842,-0.0898,0.4922,-0.8804,-0.732,-0.793,-1.160,150.677,4.774,-89.742
3852,-0.0898,0.4858,-0.8804,-0.488,0.122,-1.160,150.677,4.779,-89.731
3862,-0.0850,0.4829,-0.8833,-0.427,0.977,-1.099,150.683,4.779,-89.714
3872,-0.0840,0.4819,-0.8872,-0.549,1.526,-0.977,150.688,4.768,-89.698
3882,-0.0811,0.4849,-0.8896,-0.671,1.465,-0.793,150.688,4.757,-89.687
3892,-0.0796,0.4868,-0.8940,-0.671,0.793,-0.610,150.688,4.752,-89.676
3902,-0.0825,0.4858,-0.8965,-0.732,0.122,-0.610,150.694,4.752,-89.670
3912,-0.0820,0.4868,-0.8984,-0.732,-0.244,-0.549,150.694,4.757,-89.665
3922,-0.0815,0.4878,-0.8975,-0.854,-0.122,-0.366,150.694,4.757,-89.665
3932,-0.0806,0.4873,-0.8945,-1.160,0.000,-0.183,150.688,4.757,-89.659
3942,-0.0815,0.4888,-0.8896,-1.282,0.000,-0.061,150.683,4.757,-89.659
3952,-0.0796,0.4927,-0.8862,-1.343,-0.244,0.000,150.672,4.752,-89.659
3962,-0.0801,0.4946,-0.8882,-1.282,-0.549,-0.244,150.661,4.757,-89.665
3972,-0.0825,0.4956,-0.8887,-1.099,-0.916,-0.488,150.650,4.768,-89.665
3982,-0.0820,0.4995,-0.8901,-1.099,-1.282,-0.671,150.639,4.779,-89.665
3992,-0.0796,0.5024,-0.8926,-1.343,-1.465,-0.793,150.628,4.790,-89.665
4002,-0.0762,0.5039,-0.8901,-1.465,-1.343,-0.854,150.612,4.801,-89.665
4012,-0.0762,0.5054,-0.8916,-1.648,-1.221,-1.099,150.595,4.812,-89.659
4022,-0.0757,0.5059,-0.8921,-1.831,-1.099,-1.343,150.573,4.823,-89.654
4032,-0.0791,0.5059,-0.8926,-1.831,-1.160,-1.404,150.557,4.834,-89.648
4042,-0.0781,0.5029,-0.8970,-1.648,-1.160,-1.465,150.540,4.850,-89.637
4052,-0.0771,0.5020,-0.8965,-1.587,-1.038,-1.465,150.529,4.856,-89.632
4062,-0.0776,0.4995,-0.8945,-1.465,-1.099,-1.526,150.518,4.872,-89.621
4072,-0.0762,0.4961,-0.8945,-1.282,-1.160,-1.526,150.513,4.883,-89.615
4082,-0.0757,0.4941,-0.8926,-1.099,-1.404,-1.526,150.507,4.894,-89.610
4092,-0.0762,0.4907,-0.8921,-0.977,-1.831,-1.648,150.502,4.911,-89.604
4102,-0.0786,0.4897,-0.8926,-1.099,-2.319,-1.770,150.502,4.933,-89.599
4112,-0.0835,0.4878,-0.8901,-1.038,-2.441,-1.770,150.496,4.960,-89.599
4122,-0.0840,0.4873,-0.8906,-0.793,-2.197,-1.526,150.496,4.988,-89.594
4132,-0.0830,0.4854,-0.8892,-0.549,-2.014,-1.160,150.502,5.004,-89.594
4142,-0.0840,0.4829,-0.8828,-0.183,-2.014,-0.854,150.507,5.026,-89.599
4152,-0.0835,0.4814,-0.8789,0.000,-2.014,-0.488,150.513,5.043,-89.604
4162,-0.0830,0.4810,-0.8804,-0.122,-2.136,-0.122,150.524,5.059,-89.610
4172,-0.0859,0.4834,-0.8804,-0.122,-2.014,0.122,150.524,5.076,-89.621
4182,-0.0884,0.4834,-0.8794,-0.061,-1.648,0.305,150.529,5.087,-89.632
4192,-0.0923,0.4854,-0.8799,0.061,-1.221,0.549,150.535,5.098,-89.643
4202,-0.0933,0.4912,-0.8813,0.183,-0.793,0.916,150.540,5.098,-89.654
4212,-0.0947,0.4976,-0.8818,0.366,-0.427,1.282,150.546,5.098,-89.670
4222,-0.0977,0.4990,-0.8813,0.549,-0.183,1.465,150.546,5.098,-89.681
4232,-0.0962,0.5044,-0.8813,0.610,0.122,1.587,150.551,5.092,-89.698
4242,-0.0967,0.5083,-0.8833,0.488,0.305,1.587,150.546,5.087,-89.709
4252,-0.0947,0.5098,-0.8838,0.305,0.366,1.465,150.546,5.076,-89.720
4262,-0.0952,0.5132,-0.8789,0.061,0.427,1.282,150.535,5.070,-89.731
4272,-0.0962,0.5127,-0.8770,-0.244,0.305,1.099,150.524,5.065,-89.736
4282,-0.0996,0.5142,-0.8740,-0.427,0.305,0.732,150.513,5.065,-89.742
4292,-0.0991,0.5132,-0.8770,-0.488,0.366,0.366,150.496,5.065,-89.742
4302,-0.1001,0.5156,-0.8770,-0.610,0.671,0.061,150.480,5.065,-89.742
4312,-0.0996,0.5107,-0.8794,-0.610,0.977,-0.183,150.469,5.065,-89.736
4322,-0.0996,0.5117,-0.8843,-0.488,1.404,-0.366,150.458,5.059,-89.725
4332,-0.0957,0.5078,-0.8853,-0.366,1.770,-0.610,150.452,5.048,-89.709
4342,-0.0933,0.5049,-0.8892,-0.244,2.075,-0.671,150.452,5.037,-89.692
4353,-0.0913,0.5000,-0.8877,-0.244,2.136,-0.732,150.452,5.021,-89.676
4362,-0.0913,0.4927,-0.8877,-0.671,2.014,-0.671,150.452,5.010,-89.659
4372,-0.0918,0.4917,-0.8906,-1.282,2.014,-0.671,150.447,4.993,-89.643
4382,-0.0903,0.4893,-0.8882,-1.953,2.258,-0.366,150.436,4.977,-89.632
4392,-0.0884,0.4888,-0.8862,-2.258,2.686,0.061,150.425,4.955,-89.615
4402,-0.0840,0.4863,-0.8818,-2.197,3.113,0.427,150.408,4.922,-89.604
4412,-0.0806,0.4839,-0.8799,-1.953,3.418,0.793,150.397,4.889,-89.599
4422,-0.0796,0.4863,-0.8784,-1.770,3.601,1.038,150.386,4.850,-89.588
4432,-0.0757,0.4893,-0.8794,-1.526,3.235,0.977,150.381,4.812,-89.583
4442,-0.0742,0.4912,-0.8818,-1.160,2.563,0.671,150.375,4.779,-89.572
4452,-0.0737,0.4932,-0.8857,-1.038,1.892,0.549,150.370,4.752,-89.566
4462,-0.0723,0.4932,-0.8867,-0.916,1.587,0.671,150.364,4.730,-89.566
4472,-0.0723,0.4937,-0.8906,-0.854,1.648,0.854,150.364,4.702,-89.566
4482,-0.0703,0.4971,-0.8901,-0.610,1.892,0.977,150.359,4.675,-89.566
4492,-0.0723,0.4990,-0.8901,-0.183,2.014,1.038,150.364,4.647,-89.566
4502,-0.0728,0.4976,-0.8882,0.244,1.831,1.038,150.370,4.620,-89.566
4512,-0.0718,0.4980,-0.8862,0.549,1.404,1.099,150.375,4.598,-89.566
4522,-0.0693,0.4985,-0.8877,0.732,1.160,1.221,150.386,4.576,-89.572
4532,-0.0674,0.4971,-0.8901,0.916,1.099,1.282,150.403,4.548,-89.577
4542,-0.0674,0.4941,-0.8926,1.038,1.343,1.221,150.419,4.526,-89.583
4552,-0.0723,0.4946,-0.8906,0.977,1.526,1.160,150.430,4.504,-89.583
4562,-0.0723,0.4951,-0.8896,0.732,1.404,1.221,150.441,4.477,-89.588
4572,-0.0757,0.4961,-0.8887,0.366,1.038,1.282,150.452,4.460,-89.594
4582,-0.0767,0.5000,-0.8882,0.305,0.549,1.404,150.452,4.449,-89.604
4592,-0.0786,0.4995,-0.8843,0.549,0.305,1.221,150.458,4.438,-89.610
4602,-0.0801,0.4995,-0.8848,0.854,0.366,1.099,150.469,4.433,-89.621
4612,-0.0815,0.4971,-0.8848,1.099,0.732,0.916,150.480,4.422,-89.626
4622,-0.0801,0.4927,-0.8833,1.038,1.099,0.977,150.496,4.411,-89.626
4632,-0.0801,0.4941,-0.8823,0.610,0.977,1.099,150.502,4.395,-89.632
4642,-0.0825,0.4966,-0.8804,0.549,0.671,1.099,150.507,4.389,-89.637
4652,-0.0840,0.4941,-0.8784,0.732,0.488,1.099,150.518,4.384,-89.648
4662,-0.0835,0.4971,-0.8755,0.854,0.610,1.099,150.524,4.378,-89.654
4672,-0.0859,0.4937,-0.8745,0.977,0.793,1.038,150.535,4.367,-89.659
4682,-0.0889,0.4927,-0.8750,0.854,1.221,0.977,150.540,4.362,-89.659
4692,-0.0908,0.4932,-0.8779,0.488,1.709,0.854,150.546,4.351,-89.659
4702,-0.0898,0.4927,-0.8735,0.000,2.014,0.854,150.551,4.334,-89.654
4712,-0.0889,0.4971,-0.8716,-0.305,2.136,0.916,150.546,4.318,-89.654
4722,-0.0879,0.4990,-0.8770,-0.183,2.380,0.977,150.540,4.301,-89.648
4732,-0.0869,0.5010,-0.8774,0.183,2.747,1.099,150.540,4.279,-89.648
4742,-0.0845,0.5015,-0.8735,0.427,3.113,1.160,150.540,4.252,-89.643
4752,-0.0845,0.4995,-0.8765,0.488,3.479,1.221,150.546,4.219,-89.637
4762,-0.0845,0.5044,-0.8735,0.122,3.418,1.099,150.540,4.191,-89.626
4772,-0.0801,0.5098,-0.8774,-0.244,3.357,0.977,150.529,4.158,-89.621
4782,-0.0752,0.5122,-0.8823,0.000,3.479,0.793,150.524,4.125,-89.610
4792,-0.0684,0.5112,-0.8887,0.488,3.784,0.549,150.524,4.087,-89.594
4802,-0.0649,0.5083,-0.8911,1.038,4.211,0.183,150.535,4.048,-89.577
4812,-0.0684,0.5015,-0.8911,0.793,3.906,-0.244,150.546,4.010,-89.555
4822,-0.0674,0.5024,-0.8916,0.000,3.174,-0.610,150.546,3.988,-89.533
4832,-0.0684,0.5049,-0.8960,-0.854,2.380,-0.732,150.540,3.966,-89.517
4842,-0.0645,0.5059,-0.8989,-1.343,1.831,-0.793,150.529,3.950,-89.500
4853,-0.0625,0.5063,-0.9048,-1.038,1.953,-0.916,150.524,3.933,-89.484
4862,-0.0581,0.5015,-0.9058,-0.427,2.197,-1.038,150.524,3.911,-89.462
4872,-0.0571,0.4971,-0.9067,-0.122,2.136,-1.099,150.535,3.895,-89.445
4882,-0.0591,0.4912,-0.9058,-0.305,1.648,-1.099,150.540,3.878,-89.423
4892,-0.0557,0.4932,-0.9043,-0.793,0.916,-0.977,150.540,3.867,-89.412
4902,-0.0532,0.4941,-0.9023,-1.160,0.122,-0.916,150.540,3.862,-89.401
4912,-0.0522,0.4941,-0.9028,-1.221,-0.366,-0.793,150.535,3.856,-89.396
4922,-0.0508,0.4941,-0.9028,-0.977,-0.854,-0.732,150.535,3.856,-89.396
4932,-0.0518,0.4946,-0.8999,-0.549,-1.099,-0.610,150.535,3.862,-89.396
4942,-0.0513,0.4937,-0.8979,-0.244,-1.160,-0.549,150.540,3.862,-89.396
4952,-0.0527,0.4932,-0.8955,-0.122,-1.404,-0.488,150.546,3.867,-89.401
4962,-0.0557,0.4912,-0.8921,-0.183,-1.648,-0.549,150.546,3.878,-89.401
4972,-0.0571,0.4883,-0.8931,-0.366,-1.831,-0.549,150.551,3.889,-89.407
4982,-0.0610,0.4893,-0.8887,-0.732,-1.709,-0.366,150.551,3.900,-89.412
4992,-0.0645,0.4922,-0.8848,-0.854,-1.343,-0.183,150.546,3.911,-89.418
5002,-0.0649,0.4941,-0.8843,-0.610,-0.916,-0.122,150.540,3.917,-89.423
5012,-0.0664,0.4941,-0.8877,0.000,-0.671,-0.183,150.546,3.922,-89.423
5022,-0.0645,0.4941,-0.8896,0.671,-0.793,-0.305,150.557,3.928,-89.423
5032,-0.0640,0.4917,-0.8911,1.038,-0.977,-0.244,150.573,3.933,-89.429
5042,-0.0669,0.4888,-0.8906,0.793,-1.099,0.000,150.584,3.944,-89.434
5052,-0.0674,0.4893,-0.8867,0.305,-1.282,0.183,150.590,3.950,-89.440
5062,-0.0713,0.4912,-0.8896,-0.122,-1.221,0.305,150.595,3.961,-89.451
5072,-0.0713,0.4917,-0.8857,-0.244,-1.099,0.366,150.595,3.972,-89.456
5082,-0.0713,0.4937,-0.8823,-0.244,-0.977,0.366,150.595,3.977,-89.467
5092,-0.0742,0.4927,-0.8848,0.000,-0.854,0.427,150.595,3.983,-89.473
5102,-0.0757,0.4927,-0.8848,0.183,-0.732,0.427,150.601,3.994,-89.478
5112,-0.0737,0.4941,-0.8843,0.244,-0.549,0.427,150.606,3.994,-89.489
5122,-0.0742,0.4941,-0.8823,0.122,-0.427,0.488,150.606,3.999,-89.495
5132,-0.0742,0.4946,-0.8833,0.000,-0.366,0.549,150.606,3.999,-89.500
5142,-0.0742,0.4990,-0.8818,0.000,-0.183,0.671,150.606,3.999,-89.506
5153,-0.0742,0.5000,-0.8823,0.061,-0.122,0.671,150.606,3.999,-89.511
5163,-0.0732,0.5015,-0.8862,0.061,-0.061,0.549,150.606,3.999,-89.517
5173,-0.0708,0.5010,-0.8892,0.061,0.183,0.366,150.606,3.994,-89.522
5183,-0.0703,0.5039,-0.8867,0.000,0.244,0.183,150.601,3.994,-89.522
5193,-0.0703,0.5034,-0.8877,-0.183,0.305,0.000,150.601,3.988,-89.517
5203,-0.0703,0.5029,-0.8892,-0.366,0.427,-0.061,150.595,3.988,-89.517
5213,-0.0703,0.5020,-0.8867,-0.366,0.549,-0.183,150.590,3.983,-89.511
5223,-0.0703,0.5010,-0.8857,-0.366,0.610,-0.183,150.584,3.977,-89.506
5233,-0.0688,0.5005,-0.8843,-0.305,0.549,-0.122,150.584,3.972,-89.506
5243,-0.0708,0.4990,-0.8843,-0.244,0.549,-0.122,150.579,3.966,-89.500
5253,-0.0713,0.5005,-0.8838,-0.183,0.610,-0.061,150.579,3.961,-89.495
5263,-0.0684,0.5010,-0.8867,-0.183,0.916,-0.061,150.579,3.955,-89.489
5273,-0.0679,0.5010,-0.8901,-0.244,1.221,-0.122,150.573,3.944,-89.484
5283,-0.0674,0.5000,-0.8916,-0.488,1.465,-0.244,150.573,3.928,-89.473
5293,-0.0659,0.4990,-0.8916,-0.793,1.648,-0.366,150.568,3.917,-89.462
5303,-0.0659,0.4976,-0.8921,-1.221,1.709,-0.366,150.557,3.900,-89.451
5313,-0.0659,0.4946,-0.8916,-1.587,1.770,-0.244,150.546,3.884,-89.440
5323,-0.0688,0.4971,-0.8867,-2.014,1.648,-0.061,150.529,3.867,-89.434
5333,-0.0640,0.4961,-0.8872,-2.502,1.526,0.061,150.507,3.851,-89.423
5343,-0.0649,0.5005,-0.8838,-2.808,1.465,0.183,150.480,3.840,-89.418
5353,-0.0659,0.4995,-0.8828,-2.319,1.770,0.366,150.458,3.818,-89.412
5363,-0.0649,0.5015,-0.8823,-1.892,2.258,0.732,150.436,3.796,-89.412
5373,-0.0625,0.5000,-0.8823,-1.099,2.319,0.610,150.430,3.768,-89.401
5383,-0.0615,0.4961,-0.8853,-0.244,2.075,0.305,150.430,3.746,-89.396
5393,-0.0610,0.4956,-0.8882,0.000,1.526,0.183,150.436,3.730,-89.390
5403,-0.0620,0.4961,-0.8882,0.000,0.977,0.122,150.436,3.719,-89.385
5413,-0.0630,0.4956,-0.8901,-0.244,0.671,-0.061,150.441,3.713,-89.385
5423,-0.0664,0.4956,-0.8896,-0.244,0.488,-0.366,150.441,3.708,-89.379
5433,-0.0679,0.4941,-0.8911,-0.244,0.549,-0.671,150.447,3.708,-89.368
5443,-0.0693,0.4951,-0.8901,-0.610,0.427,-0.732,150.447,3.708,-89.357
5453,-0.0698,0.4951,-0.8867,-0.916,0.122,-0.549,150.441,3.713,-89.352
5463,-0.0664,0.4971,-0.8901,-1.160,-0.244,-0.366,150.430,3.719,-89.352
5473,-0.0649,0.5020,-0.8867,-1.038,-0.671,-0.305,150.425,3.724,-89.352
5483,-0.0640,0.5024,-0.8857,-0.488,-0.916,-0.427,150.419,3.735,-89.352
5493,-0.0659,0.5010,-0.8853,-0.061,-1.038,-0.671,150.419,3.746,-89.352
5503,-0.0679,0.4980,-0.8857,-0.061,-1.038,-0.793,150.419,3.757,-89.352
5513,-0.0679,0.4976,-0.8867,-0.427,-0.671,-0.916,150.419,3.768,-89.346
5523,-0.0679,0.5010,-0.8848,-1.099,-0.427,-1.038,150.408,3.779,-89.341
5533,-0.0684,0.4985,-0.8828,-1.465,-0.244,-1.282,150.397,3.790,-89.330
5543,-0.0708,0.4971,-0.8828,-1.343,-0.427,-1.343,150.386,3.801,-89.319
5553,-0.0737,0.4961,-0.8833,-1.160,-0.488,-1.282,150.381,3.812,-89.313
5563,-0.0718,0.4946,-0.8823,-0.732,-0.488,-1.038,150.375,3.823,-89.302
5573,-0.0698,0.4917,-0.8794,-0.305,-0.366,-0.671,150.375,3.834,-89.302
5583,-0.0688,0.4897,-0.8799,-0.061,-0.122,-0.427,150.381,3.840,-89.297
5593,-0.0659,0.4902,-0.8809,-0.061,0.000,-0.244,150.386,3.840,-89.297
5603,-0.0664,0.4941,-0.8804,-0.122,0.305,-0.061,150.386,3.834,-89.291
5613,-0.0640,0.4990,-0.8809,-0.244,0.671,0.244,150.386,3.823,-89.291
5623,-0.0625,0.5005,-0.8853,-0.122,1.038,0.305,150.386,3.812,-89.291
5633,-0.0620,0.5010,-0.8872,0.122,1.282,0.244,150.392,3.796,-89.286
5643,-0.0625,0.5024,-0.8901,0.183,1.343,0.244,150.392,3.779,-89.280
5653,-0.0615,0.5029,-0.8916,0.244,1.221,0.366,150.397,3.763,-89.280
5663,-0.0625,0.5059,-0.8931,0.366,1.160,0.366,150.403,3.752,-89.275
5673,-0.0596,0.5078,-0.8955,0.427,1.038,0.244,150.408,3.735,-89.275
5683,-0.0581,0.5093,-0.8984,0.671,0.916,0.000,150.414,3.724,-89.269
5693,-0.0581,0.5088,-0.9004,0.793,0.610,-0.305,150.425,3.713,-89.264
5703,-0.0571,0.5029,-0.8994,0.488,0.122,-0.549,150.430,3.708,-89.258
5713,-0.0605,0.5015,-0.8975,-0.244,-0.488,-0.732,150.436,3.713,-89.253
5723,-0.0610,0.5010,-0.8979,-0.854,-0.916,-0.793,150.430,3.724,-89.253
5733,-0.0630,0.4966,-0.8965,-1.160,-1.160,-0.671,150.425,3.735,-89.253
5743,-0.0610,0.4917,-0.8896,-1.099,-1.099,-0.610,150.419,3.746,-89.253
5753,-0.0649,0.4888,-0.8867,-0.854,-1.343,-0.427,150.419,3.757,-89.253
5763,-0.0640,0.4893,-0.8828,-0.671,-1.831,-0.183,150.419,3.774,-89.264
5773,-0.0684,0.4897,-0.8818,-0.244,-2.136,0.000,150.419,3.790,-89.269
5783,-0.0688,0.4883,-0.8809,0.000,-2.075,0.244,150.425,3.807,-89.286
5793,-0.0698,0.4863,-0.8774,0.183,-1.526,0.488,150.430,3.823,-89.297
5803,-0.0684,0.4907,-0.8755,0.244,-0.977,0.793,150.436,3.829,-89.308
5813,-0.0679,0.4961,-0.8765,0.122,-0.488,0.854,150.436,3.829,-89.319
5823,-0.0708,0.4995,-0.8779,0.122,-0.122,0.916,150.436,3.823,-89.324
5833,-0.0718,0.5039,-0.8774,0.000,0.061,0.977,150.430,3.823,-89.335
5843,-0.0713,0.5073,-0.8770,-0.061,0.183,0.793,150.425,3.818,-89.341
5854,-0.0713,0.5132,-0.8813,0.000,0.122,0.488,150.419,3.818,-89.346
5863,-0.0708,0.5142,-0.8828,0.061,0.122,0.183,150.414,3.818,-89.346
5873,-0.0747,0.5132,-0.8843,0.061,0.183,0.000,150.408,3.818,-89.346
5883,-0.0737,0.5127,-0.8804,-0.122,0.244,-0.305,150.403,3.823,-89.341
5893,-0.0737,0.5112,-0.8804,-0.244,0.244,-0.549,150.397,3.823,-89.335
5903,-0.0737,0.5098,-0.8784,-0.305,0.183,-0.732,150.386,3.829,-89.324
5913,-0.0737,0.5093,-0.8770,-0.305,0.183,-0.916,150.381,3.834,-89.319
5923,-0.0713,0.5093,-0.8789,-0.122,0.427,-1.160,150.375,3.840,-89.308
5933,-0.0674,0.5068,-0.8809,0.244,0.977,-1.404,150.375,3.840,-89.291
5943,-0.0659,0.5020,-0.8799,0.305,1.404,-1.587,150.381,3.834,-89.269
5953,-0.0620,0.4971,-0.8848,-0.061,1.770,-1.709,150.381,3.823,-89.242
5963,-0.0615,0.4961,-0.8853,-0.427,1.770,-1.709,150.381,3.812,-89.220
5973,-0.0605,0.4937,-0.8872,-0.427,1.770,-1.526,150.386,3.801,-89.198
5983,-0.0586,0.4917,-0.8911,-0.061,1.648,-1.343,150.392,3.790,-89.176
5993,-0.0552,0.4922,-0.8931,0.366,1.648,-1.282,150.408,3.774,-89.160
6003,-0.0542,0.4917,-0.8989,0.488,1.587,-1.160,150.419,3.757,-89.143
6013,-0.0547,0.4961,-0.9023,0.305,1.404,-0.977,150.430,3.741,-89.127
6023,-0.0527,0.5029,-0.9038,0.061,1.282,-0.977,150.441,3.730,-89.110
6033,-0.0522,0.5068,-0.9097,-0.061,0.977,-1.099,150.441,3.719,-89.099
6043,-0.0522,0.5068,-0.9072,0.427,0.732,-1.465,150.452,3.708,-89.083
6053,-0.0542,0.5039,-0.9072,0.793,0.122,-1.770,150.469,3.708,-89.066
6063,-0.0576,0.5020,-0.9048,0.977,-0.671,-2.014,150.480,3.719,-89.050
6073,-0.0610,0.5015,-0.9033,0.793,-1.465,-2.136,150.496,3.741,-89.039
6083,-0.0669,0.4937,-0.8984,0.183,-2.136,-2.258,150.507,3.768,-89.028
6093,-0.0664,0.5044,-0.8906,-1.221,-2.686,-2.197,150.491,3.801,-89.022
6103,-0.0723,0.5015,-0.8857,-1.587,-2.686,-2.563,150.480,3.840,-89.017
6113,-0.0713,0.4980,-0.8828,-1.282,-2.625,-2.563,150.469,3.878,-89.006
6123,-0.0698,0.4980,-0.8745,-1.221,-2.502,-2.441,150.452,3.911,-88.995
6133,-0.0723,0.4937,-0.8706,-0.305,-2.197,-2.380,150.452,3.944,-88.984
6143,-0.0737,0.4873,-0.8691,0.305,-1.831,-2.075,150.458,3.972,-88.978
6153,-0.0723,0.4873,-0.8677,0.549,-1.404,-1.770,150.463,3.994,-88.967
6163,-0.0737,0.4858,-0.8701,0.732,-0.793,-1.526,150.480,4.010,-88.962
6173,-0.0737,0.4810,-0.8716,0.610,-0.061,-1.282,150.491,4.021,-88.951
6183,-0.0757,0.4814,-0.8711,0.549,0.610,-1.038,150.502,4.026,-88.934
6193,-0.0762,0.4829,-0.8740,0.488,1.160,-0.671,150.513,4.021,-88.923
6203,-0.0757,0.4819,-0.8809,0.488,1.404,-0.305,150.529,4.016,-88.918
6213,-0.0737,0.4854,-0.8794,0.427,1.404,-0.061,150.540,4.005,-88.907
6223,-0.0747,0.4888,-0.8823,0.427,1.038,0.244,150.546,3.994,-88.907
6233,-0.0762,0.4902,-0.8838,0.427,0.732,0.488,150.557,3.988,-88.907
6243,-0.0757,0.4941,-0.8896,0.305,0.671,0.610,150.562,3.983,-88.907
6253,-0.0757,0.4971,-0.8896,0.122,0.793,0.732,150.568,3.977,-88.912
6263,-0.0747,0.5000,-0.8901,0.061,0.977,0.732,150.568,3.966,-88.912
6273,-0.0718,0.5024,-0.8926,0.000,1.099,0.549,150.568,3.955,-88.912
6283,-0.0688,0.5029,-0.8906,-0.244,0.916,0.305,150.568,3.944,-88.907
6293,-0.0718,0.5039,-0.8906,-0.549,0.488,0.000,150.562,3.939,-88.907
6303,-0.0713,0.5044,-0.8921,-0.793,0.061,-0.244,150.551,3.944,-88.907
6313,-0.0693,0.5034,-0.8862,-0.977,-0.244,-0.488,150.540,3.944,-88.901
6323,-0.0698,0.5015,-0.8877,-1.099,-0.305,-0.610,150.529,3.950,-88.896
6333,-0.0698,0.5034,-0.8843,-0.977,0.061,-0.671,150.518,3.955,-88.890
6343,-0.0674,0.5024,-0.8882,-0.671,0.549,-0.793,150.513,3.950,-88.879
6354,-0.0654,0.5010,-0.8896,-0.305,0.977,-0.916,150.513,3.944,-88.868
6363,-0.0640,0.5000,-0.8887,0.000,0.977,-0.977,150.513,3.939,-88.857
6373,-0.0635,0.4971,-0.8911,0.122,0.793,-1.038,150.518,3.933,-88.841
6383,-0.0615,0.4932,-0.8901,0.000,0.549,-1.038,150.524,3.928,-88.830
6393,-0.0610,0.4907,-0.8975,-0.122,0.366,-0.977,150.535,3.922,-88.819
6403,-0.0605,0.4912,-0.8970,-0.305,0.366,-0.854,150.535,3.917,-88.813
6413,-0.0596,0.4902,-0.8989,-0.305,0.427,-0.732,150.546,3.911,-88.802
6423,-0.0591,0.4868,-0.8984,-0.244,0.244,-0.549,150.551,3.906,-88.797
6433,-0.0591,0.4849,-0.8950,-0.183,-0.061,-0.427,150.562,3.906,-88.792
6443,-0.0605,0.4868,-0.8921,-0.061,-0.488,-0.183,150.568,3.906,-88.792
6453,-0.0610,0.4883,-0.8901,0.061,-0.793,0.061,150.573,3.906,-88.797
6463,-0.0620,0.4863,-0.8906,0.244,-0.916,0.183,150.584,3.911,-88.802
6473,-0.0645,0.4863,-0.8867,0.305,-0.977,0.366,150.595,3.911,-88.813
6483,-0.0654,0.4883,-0.8843,0.366,-0.916,0.610,150.601,3.917,-88.824
6493,-0.0669,0.4912,-0.8843,0.427,-0.793,0.793,150.606,3.917,-88.835
6503,-0.0635,0.4951,-0.8843,0.427,-0.488,0.916,150.612,3.911,-88.841
6513,-0.0635,0.4937,-0.8848,0.610,-0.183,0.977,150.623,3.906,-88.852
6523,-0.0620,0.4971,-0.8857,0.732,0.000,0.916,150.628,3.900,-88.863
6533,-0.0635,0.5005,-0.8823,0.671,0.122,0.854,150.634,3.889,-88.868
6543,-0.0645,0.5024,-0.8862,0.549,0.122,0.671,150.634,3.884,-88.874
6553,-0.0664,0.5044,-0.8882,0.305,0.122,0.549,150.639,3.878,-88.879
6563,-0.0669,0.5029,-0.8877,0.183,0.122,0.427,150.634,3.873,-88.879
6573,-0.0664,0.5034,-0.8887,0.122,0.244,0.305,150.634,3.867,-88.879
6583,-0.0693,0.5010,-0.8931,0.122,0.244,0.122,150.639,3.867,-88.879
6593,-0.0693,0.5005,-0.8926,0.122,0.183,0.061,150.639,3.862,-88.879
6603,-0.0718,0.5020,-0.8945,0.183,0.061,0.000,150.645,3.867,-88.879
6613,-0.0718,0.5005,-0.8911,0.183,0.000,-0.061,150.645,3.867,-88.879
6623,-0.0693,0.4971,-0.8901,0.244,-0.061,-0.183,150.650,3.867,-88.879
6633,-0.0708,0.4956,-0.8867,0.061,-0.244,-0.244,150.650,3.873,-88.879
6643,-0.0718,0.4941,-0.8877,-0.244,-0.427,-0.183,150.650,3.878,-88.879
6653,-0.0732,0.4951,-0.8892,-0.427,-0.549,-0.122,150.650,3.889,-88.879
6663,-0.0708,0.4951,-0.8867,-0.427,-0.488,-0.183,150.645,3.895,-88.879
6673,-0.0713,0.4946,-0.8823,-0.427,-0.244,-0.122,150.645,3.895,-88.879
6683,-0.0718,0.4941,-0.8838,-0.305,0.122,0.000,150.639,3.895,-88.879
6693,-0.0688,0.4946,-0.8877,-0.061,0.427,0.122,150.645,3.895,-88.879
6703,-0.0659,0.4946,-0.8892,0.122,0.549,0.183,150.645,3.884,-88.879
6713,-0.0654,0.4951,-0.8926,0.122,0.610,0.122,150.650,3.878,-88.879
6723,-0.0654,0.4956,-0.8940,-0.122,0.488,0.122,150.656,3.873,-88.874
6733,-0.0669,0.4941,-0.8960,-0.427,0.183,0.122,150.656,3.867,-88.874
6743,-0.0679,0.4966,-0.8979,-0.793,-0.122,0.122,150.650,3.867,-88.879
6753,-0.0698,0.4990,-0.8936,-0.977,-0.427,0.000,150.645,3.873,-88.879
6763,-0.0698,0.4951,-0.8911,-0.977,-0.671,-0.122,150.634,3.878,-88.879
6773,-0.0698,0.4951,-0.8906,-0.793,-0.854,-0.061,150.628,3.884,-88.885
6783,-0.0703,0.4956,-0.8892,-0.610,-0.916,0.000,150.628,3.895,-88.890
6793,-0.0669,0.4956,-0.8853,-0.549,-0.732,0.122,150.623,3.900,-88.896
6803,-0.0649,0.4946,-0.8838,-0.488,-0.732,0.244,150.617,3.900,-88.901
6813,-0.0649,0.4946,-0.8813,-0.366,-0.610,0.244,150.617,3.906,-88.907
6823,-0.0659,0.4951,-0.8818,-0.305,-0.610,0.244,150.612,3.906,-88.912
6833,-0.0664,0.4976,-0.8804,-0.244,-0.488,0.244,150.606,3.906,-88.912
6843,-0.0664,0.4971,-0.8828,-0.061,-0.244,0.244,150.606,3.906,-88.918
6854,-0.0674,0.4990,-0.8828,0.305,0.183,0.122,150.612,3.906,-88.918
6863,-0.0640,0.4995,-0.8848,0.549,0.610,0.000,150.617,3.895,-88.918
6873,-0.0654,0.4990,-0.8857,0.732,0.732,-0.122,150.623,3.889,-88.912
6883,-0.0669,0.4971,-0.8896,0.854,0.671,-0.183,150.634,3.878,-88.907
6893,-0.0679,0.4961,-0.8921,0.977,0.488,-0.244,150.645,3.878,-88.901
6903,-0.0664,0.4966,-0.8906,0.977,0.305,-0.244,150.656,3.873,-88.896
6913,-0.0698,0.4961,-0.8931,1.099,0.183,-0.305,150.672,3.873,-88.896
6923,-0.0703,0.4946,-0.8921,1.221,0.061,-0.244,150.688,3.873,-88.890
6933,-0.0698,0.4946,-0.8901,1.221,-0.183,-0.244,150.699,3.878,-88.890
6943,-0.0674,0.4927,-0.8916,1.099,-0.732,-0.305,150.716,3.884,-88.890
6954,-0.0649,0.4937,-0.8931,1.099,-1.160,-0.305,150.732,3.895,-88.896
6964,-0.0640,0.4937,-0.8960,1.038,-1.282,-0.305,150.743,3.906,-88.896
6974,-0.0654,0.4956,-0.8965,0.854,-1.160,-0.183,150.754,3.911,-88.901
6984,-0.0679,0.4946,-0.8936,0.610,-0.916,-0.183,150.765,3.922,-88.907
6994,-0.0698,0.4922,-0.8901,0.366,-0.793,-0.244,150.771,3.928,-88.907
7004,-0.0698,0.4907,-0.8892,-0.061,-0.793,-0.305,150.771,3.939,-88.907
7014,-0.0693,0.4897,-0.8848,-0.427,-0.854,-0.305,150.771,3.944,-88.907
7024,-0.0728,0.4878,-0.8853,-0.244,-0.732,-0.183,150.771,3.955,-88.912
7034,-0.0732,0.4907,-0.8882,-0.122,-0.366,0.061,150.776,3.961,-88.912
7044,-0.0718,0.4912,-0.8877,0.061,0.000,0.122,150.776,3.961,-88.912
7054,-0.0684,0.4907,-0.8906,0.427,0.366,0.244,150.787,3.955,-88.918
7064,-0.0679,0.4873,-0.8892,0.427,0.305,0.244,150.793,3.950,-88.918
7074,-0.0649,0.4873,-0.8877,0.122,0.000,0.305,150.798,3.944,-88.918
7084,-0.0669,0.4873,-0.8862,-0.122,-0.183,0.427,150.804,3.944,-88.923
7094,-0.0688,0.4858,-0.8838,-0.183,-0.122,0.549,150.804,3.939,-88.929
7104,-0.0698,0.4834,-0.8877,0.061,0.305,0.610,150.809,3.933,-88.934
7114,-0.0688,0.4839,-0.8906,0.305,1.099,0.793,150.820,3.922,-88.934
7124,-0.0693,0.4868,-0.8926,0.122,1.526,1.160,150.826,3.900,-88.934
7134,-0.0684,0.4883,-0.8911,0.061,1.404,1.343,150.831,3.884,-88.940
7144,-0.0664,0.4897,-0.8955,-0.122,0.793,1.404,150.837,3.867,-88.951
7154,-0.0649,0.4937,-0.8950,-0.366,0.122,1.343,150.831,3.856,-88.962
7164,-0.0649,0.4961,-0.8940,-0.549,-0.427,1.282,150.831,3.851,-88.973
7174,-0.0635,0.4971,-0.8926,-0.610,-0.732,1.282,150.820,3.851,-88.989
7184,-0.0659,0.4990,-0.8906,-0.732,-0.732,1.160,150.815,3.851,-89.000
7194,-0.0654,0.5005,-0.8882,-0.732,-0.488,0.977,150.804,3.845,-89.011
7204,-0.0674,0.5005,-0.8818,-0.549,-0.305,0.793,150.793,3.845,-89.022
7214,-0.0684,0.5010,-0.8809,-0.183,-0.122,0.732,150.787,3.845,-89.028
7224,-0.0674,0.5015,-0.8809,0.122,0.183,0.610,150.782,3.840,-89.033
7234,-0.0669,0.5015,-0.8843,0.427,0.427,0.488,150.782,3.829,-89.039
7244,-0.0654,0.5029,-0.8838,0.671,0.732,0.305,150.787,3.823,-89.033
7254,-0.0664,0.5049,-0.8862,0.671,0.977,0.061,150.787,3.812,-89.033
7264,-0.0649,0.5029,-0.8892,0.732,1.221,-0.183,150.793,3.801,-89.022
7274,-0.0625,0.5020,-0.8916,0.488,1.282,-0.366,150.798,3.790,-89.011
7284,-0.0630,0.4985,-0.8921,0.183,1.099,-0.549,150.798,3.779,-89.006
7294,-0.0645,0.4971,-0.8955,-0.122,0.977,-0.732,150.798,3.774,-88.995
7304,-0.0630,0.4951,-0.8975,-0.183,1.038,-0.793,150.804,3.763,-88.978
7314,-0.0601,0.4897,-0.8970,0.183,1.160,-0.793,150.809,3.752,-88.967
7324,-0.0610,0.4873,-0.8950,0.244,0.610,-0.793,150.820,3.752,-88.956
7334,-0.0605,0.4863,-0.8960,0.183,0.000,-0.671,150.831,3.746,-88.951
7344,-0.0645,0.4829,-0.8970,0.061,-0.366,-0.488,150.837,3.752,-88.951
7354,-0.0654,0.4849,-0.8955,-0.183,-0.427,-0.366,150.842,3.757,-88.951
7364,-0.0640,0.4868,-0.8926,-0.427,-0.305,-0.183,150.848,3.757,-88.951
7374,-0.0630,0.4849,-0.8896,-0.549,-0.305,-0.061,150.848,3.763,-88.951
7384,-0.0610,0.4819,-0.8862,-0.549,-0.488,0.061,150.848,3.763,-88.951
7394,-0.0635,0.4834,-0.8877,-0.427,-0.610,0.366,150.848,3.763,-88.956
7404,-0.0654,0.4834,-0.8892,-0.244,-0.427,0.549,150.853,3.763,-88.967
7414,-0.0645,0.4897,-0.8882,-0.122,0.000,0.732,150.853,3.757,-88.973
7424,-0.0645,0.4902,-0.8916,-0.183,0.305,0.916,150.853,3.752,-88.978
7434,-0.0664,0.4912,-0.8896,-0.244,0.427,0.977,150.853,3.741,-88.984
7444,-0.0669,0.4941,-0.8916,-0.427,0.244,0.854,150.848,3.735,-88.989
7454,-0.0684,0.4966,-0.8955,-0.427,0.183,0.732,150.848,3.730,-88.995
7464,-0.0659,0.4971,-0.8950,-0.244,0.122,0.610,150.842,3.724,-89.000
7474,-0.0625,0.4995,-0.8931,-0.061,0.000,0.488,150.842,3.724,-89.006
7484,-0.0654,0.4980,-0.8906,0.061,-0.183,0.366,150.842,3.719,-89.011
7494,-0.0649,0.4971,-0.8896,0.061,-0.244,0.305,150.842,3.719,-89.011
7504,-0.0640,0.4966,-0.8882,-0.061,-0.183,0.244,150.842,3.719,-89.017
7514,-0.0664,0.4980,-0.8892,-0.183,-0.183,0.061,150.837,3.724,-89.017
7524,-0.0674,0.4966,-0.8862,-0.366,-0.122,-0.061,150.831,3.724,-89.017
7534,-0.0645,0.4956,-0.8857,-0.427,-0.122,-0.183,150.831,3.724,-89.017
7544,-0.0654,0.4971,-0.8887,-0.488,0.000,-0.244,150.826,3.724,-89.017
7554,-0.0654,0.4971,-0.8838,-0.488,0.183,-0.244,150.815,3.724,-89.011
7564,-0.0645,0.4956,-0.8843,-0.366,0.366,-0.305,150.815,3.724,-89.006
7574,-0.0659,0.4946,-0.8853,-0.122,0.427,-0.366,150.815,3.719,-89.000
7584,-0.0635,0.4907,-0.8882,0.000,0.549,-0.427,150.815,3.719,-88.995
7594,-0.0659,0.4907,-0.8926,-0.061,0.610,-0.427,150.820,3.713,-88.989
7604,-0.0679,0.4927,-0.8931,-0.488,0.610,-0.366,150.815,3.708,-88.984
7614,-0.0649,0.4946,-0.8916,-0.793,0.549,-0.183,150.809,3.708,-88.978
7624,-0.0635,0.4951,-0.8892,-0.793,0.366,-0.183,150.804,3.702,-88.973
7634,-0.0635,0.4946,-0.8896,-0.610,0.244,-0.244,150.798,3.702,-88.973
7644,-0.0630,0.4932,-0.8882,-0.366,0.244,-0.244,150.798,3.697,-88.967
7654,-0.0635,0.4917,-0.8911,-0.183,0.366,-0.183,150.798,3.691,-88.967
7664,-0.0640,0.4941,-0.8926,-0.183,0.427,-0.061,150.798,3.691,-88.962
7674,-0.0620,0.4946,-0.8911,-0.305,0.366,-0.061,150.798,3.686,-88.962
7684,-0.0620,0.4966,-0.8916,-0.610,0.183,-0.183,150.793,3.680,-88.956
7694,-0.0654,0.4985,-0.8931,-0.854,-0.061,-0.366,150.787,3.686,-88.956
7704,-0.0659,0.4971,-0.8906,-0.854,0.061,-0.488,150.776,3.686,-88.951
7714,-0.0654,0.4966,-0.8911,-0.732,0.122,-0.732,150.771,3.686,-88.945
7724,-0.0615,0.4917,-0.8926,-0.488,0.305,-0.854,150.771,3.686,-88.934
7734,-0.0601,0.4888,-0.8950,-0.183,0.244,-0.854,150.776,3.686,-88.923
7744,-0.0596,0.4883,-0.8940,0.000,0.122,-0.732,150.782,3.686,-88.918
7754,-0.0576,0.4878,-0.8921,-0.061,-0.122,-0.488,150.787,3.686,-88.912
7764,-0.0601,0.4858,-0.8916,-0.122,-0.488,-0.366,150.793,3.686,-88.912
7774,-0.0635,0.4863,-0.8936,-0.183,-0.671,-0.305,150.798,3.691,-88.912
7784,-0.0635,0.4863,-0.8892,-0.305,-0.610,-0.183,150.798,3.697,-88.918
7794,-0.0625,0.4863,-0.8877,-0.366,-0.549,-0.122,150.798,3.702,-88.918
7804,-0.0620,0.4858,-0.8867,-0.427,-0.427,0.061,150.798,3.702,-88.918
7814,-0.0640,0.4878,-0.8857,-0.488,-0.305,0.122,150.798,3.702,-88.923
7824,-0.0635,0.4902,-0.8853,-0.244,-0.183,0.244,150.798,3.702,-88.923
7834,-0.0659,0.4897,-0.8853,0.061,0.061,0.366,150.804,3.702,-88.929
7844,-0.0664,0.4878,-0.8862,0.244,0.366,0.427,150.809,3.697,-88.929
7855,-0.0679,0.4878,-0.8940,0.305,0.549,0.488,150.815,3.691,-88.934
7864,-0.0688,0.4849,-0.8960,0.610,0.977,0.427,150.831,3.680,-88.929
7874,-0.0620,0.4878,-0.8979,0.244,0.916,0.549,150.837,3.669,-88.929
7884,-0.0596,0.4932,-0.8975,0.000,0.488,0.671,150.842,3.658,-88.934
7894,-0.0615,0.4922,-0.8979,0.122,-0.183,0.610,150.848,3.653,-88.940
7904,-0.0615,0.4941,-0.9004,0.000,-0.793,0.488,150.853,3.658,-88.951
7914,-0.0601,0.4951,-0.8979,0.000,-0.916,0.488,150.853,3.658,-88.956
7924,-0.0596,0.4932,-0.8950,0.061,-0.854,0.549,150.859,3.658,-88.967
7934,-0.0591,0.4951,-0.8862,-0.061,-0.854,0.610,150.853,3.664,-88.978
7944,-0.0586,0.4995,-0.8838,-0.183,-0.916,0.549,150.848,3.664,-88.984
7954,-0.0630,0.4995,-0.8862,-0.183,-1.038,0.366,150.842,3.669,-88.995
7964,-0.0664,0.4985,-0.8848,-0.183,-0.977,0.183,150.837,3.680,-89.000
7974,-0.0674,0.4995,-0.8838,-0.122,-0.488,0.122,150.837,3.680,-89.006
7984,-0.0649,0.5015,-0.8848,0.061,0.000,0.061,150.831,3.680,-89.006
7994,-0.0630,0.4990,-0.8828,0.244,0.366,-0.061,150.831,3.680,-89.000
8004,-0.0645,0.4976,-0.8853,0.427,0.488,-0.305,150.831,3.675,-88.995
8014,-0.0664,0.4956,-0.8882,0.366,0.488,-0.366,150.837,3.675,-88.989
8024,-0.0664,0.4932,-0.8916,0.061,0.549,-0.366,150.842,3.669,-88.984
8034,-0.0659,0.4922,-0.8887,-0.183,0.610,-0.244,150.842,3.669,-88.978
8044,-0.0635,0.4917,-0.8872,-0.183,0.549,-0.183,150.842,3.664,-88.978
8054,-0.0640,0.4927,-0.8877,0.000,0.366,-0.244,150.842,3.658,-88.973
8064,-0.0630,0.4902,-0.8901,0.244,0.366,-0.183,150.848,3.658,-88.967
8074,-0.0635,0.4888,-0.8926,0.488,0.610,-0.061,150.859,3.653,-88.967
8084,-0.0596,0.4863,-0.8911,0.366,0.916,0.061,150.870,3.636,-88.962
8094,-0.0591,0.4888,-0.8955,0.122,0.916,0.183,150.875,3.625,-88.956
8104,-0.0605,0.4902,-0.8994,-0.061,0.610,0.122,150.881,3.620,-88.956
8114,-0.0630,0.4912,-0.8999,-0.122,0.244,0.000,150.881,3.615,-88.956
8124,-0.0645,0.4917,-0.8960,-0.305,0.183,-0.061,150.881,3.615,-88.956
8134,-0.0625,0.4937,-0.9014,-0.366,0.183,-0.061,150.881,3.609,-88.951
8144,-0.0635,0.4902,-0.8965,-0.305,0.122,-0.061,150.886,3.609,-88.951
8154,-0.0620,0.4893,-0.8931,-0.305,-0.244,-0.122,150.886,3.609,-88.951
8164,-0.0625,0.4888,-0.8936,-0.427,-0.488,-0.122,150.886,3.615,-88.951
8174,-0.0620,0.4888,-0.8926,-0.488,-0.671,0.000,150.886,3.620,-88.956
8184,-0.0625,0.4888,-0.8892,-0.366,-0.671,0.183,150.886,3.625,-88.956
8194,-0.0610,0.4902,-0.8872,-0.183,-0.610,0.244,150.886,3.625,-88.956
8204,-0.0635,0.4907,-0.8853,-0.122,-0.427,0.244,150.881,3.631,-88.956
8214,-0.0645,0.4917,-0.8853,0.000,-0.244,0.305,150.886,3.631,-88.956
8224,-0.0635,0.4937,-0.8848,0.061,-0.061,0.305,150.886,3.625,-88.956
8234,-0.0635,0.4951,-0.8892,0.061,0.061,0.244,150.886,3.625,-88.956
8244,-0.0630,0.4971,-0.8906,0.122,0.244,0.061,150.886,3.620,-88.956
8254,-0.0625,0.4946,-0.8892,0.183,0.305,-0.061,150.886,3.620,-88.956
8264,-0.0620,0.4946,-0.8901,0.183,0.244,-0.061,150.892,3.615,-88.956
8274,-0.0620,0.4941,-0.8926,0.122,0.305,0.000,150.892,3.609,-88.956
8284,-0.0635,0.4922,-0.8916,0.061,0.366,0.000,150.897,3.609,-88.956
8294,-0.0635,0.4927,-0.8911,-0.061,0.366,0.000,150.897,3.604,-88.956
8304,-0.0630,0.4932,-0.8916,-0.061,0.305,0.000,150.897,3.604,-88.956
8314,-0.0620,0.4937,-0.8901,0.000,0.244,0.000,150.897,3.598,-88.956
8324,-0.0601,0.4937,-0.8892,-0.061,0.183,-0.122,150.897,3.593,-88.956
8334,-0.0605,0.4961,-0.8945,-0.244,0.183,-0.244,150.897,3.593,-88.956
8344,-0.0601,0.4956,-0.8940,-0.427,0.366,-0.366,150.892,3.587,-88.956
8355,-0.0615,0.4946,-0.8945,-0.671,0.366,-0.488,150.892,3.587,-88.956
8364,-0.0645,0.4932,-0.8931,-0.732,0.183,-0.610,150.886,3.587,-88.956
8374,-0.0649,0.4912,-0.8950,-0.732,-0.061,-0.732,150.881,3.593,-88.956
8384,-0.0625,0.4917,-0.8940,-0.671,-0.244,-0.671,150.875,3.598,-88.956
8394,-0.0610,0.4922,-0.8926,-0.549,-0.366,-0.549,150.875,3.598,-88.956
8404,-0.0601,0.4922,-0.8892,-0.366,-0.549,-0.549,150.875,3.604,-88.956
8414,-0.0610,0.4888,-0.8882,-0.183,-0.610,-0.549,150.875,3.615,-88.956
8424,-0.0596,0.4863,-0.8882,-0.061,-0.549,-0.488,150.881,3.615,-88.956
8434,-0.0615,0.4868,-0.8931,-0.061,-0.244,-0.427,150.881,3.620,-88.956
8444,-0.0591,0.4839,-0.8926,0.000,0.061,-0.366,150.892,3.620,-88.956
8454,-0.0605,0.4810,-0.8901,0.000,0.244,-0.183,150.897,3.615,-88.956
8464,-0.0630,0.4795,-0.8896,-0.122,0.122,0.061,150.903,3.615,-88.956
8474,-0.0615,0.4800,-0.8936,-0.061,-0.122,0.305,150.914,3.609,-88.956
8484,-0.0620,0.4829,-0.8950,-0.061,-0.183,0.671,150.919,3.609,-88.956
8494,-0.0620,0.4878,-0.8916,0.061,-0.122,1.038,150.919,3.604,-88.967
8504,-0.0640,0.4907,-0.8901,0.244,-0.183,1.160,150.925,3.598,-88.978
8514,-0.0664,0.4961,-0.8911,0.244,-0.244,1.099,150.925,3.598,-88.989
8524,-0.0649,0.4976,-0.8936,0.061,-0.488,0.977,150.925,3.598,-89.000
8534,-0.0659,0.4985,-0.8872,-0.244,-0.610,0.732,150.919,3.598,-89.006
8544,-0.0679,0.4985,-0.8882,-0.549,-0.671,0.549,150.914,3.604,-89.017
8554,-0.0679,0.5000,-0.8892,-0.671,-0.427,0.366,150.903,3.609,-89.022
8564,-0.0654,0.5039,-0.8887,-0.732,-0.061,0.183,150.892,3.609,-89.022
8574,-0.0640,0.5044,-0.8853,-0.427,0.122,0.061,150.881,3.609,-89.022
8584,-0.0635,0.5020,-0.8872,0.000,0.122,-0.183,150.875,3.609,-89.022
8594,-0.0630,0.5005,-0.8887,0.061,0.000,-0.427,150.875,3.609,-89.017
8604,-0.0615,0.4985,-0.8906,-0.061,0.000,-0.610,150.875,3.609,-89.011
8614,-0.0635,0.4990,-0.8882,-0.305,0.122,-0.671,150.870,3.609,-89.006
8624,-0.0615,0.4966,-0.8872,-0.366,0.183,-0.732,150.864,3.609,-89.000
8634,-0.0645,0.4966,-0.8877,-0.244,0.305,-0.854,150.864,3.615,-88.989
8644,-0.0635,0.4941,-0.8911,-0.122,0.488,-0.916,150.864,3.615,-88.978
8654,-0.0605,0.4922,-0.8911,0.061,0.671,-0.916,150.864,3.609,-88.967
8664,-0.0596,0.4873,-0.8931,0.183,0.732,-0.854,150.875,3.604,-88.956
8674,-0.0581,0.4873,-0.8936,0.183,0.793,-0.793,150.881,3.598,-88.945
8684,-0.0562,0.4873,-0.8970,0.061,0.610,-0.793,150.892,3.593,-88.934
8694,-0.0552,0.4897,-0.8936,0.000,0.488,-0.671,150.892,3.587,-88.929
8704,-0.0576,0.4883,-0.8931,0.183,0.244,-0.488,150.903,3.582,-88.923
8714,-0.0591,0.4858,-0.8916,0.366,-0.061,-0.427,150.908,3.582,-88.918
8724,-0.0620,0.4814,-0.8926,0.427,-0.061,-0.366,150.919,3.587,-88.918
8734,-0.0630,0.4819,-0.8931,0.488,0.122,-0.183,150.936,3.582,-88.912
8744,-0.0620,0.4858,-0.8955,0.183,0.366,-0.061,150.941,3.582,-88.912
8755,-0.0576,0.4873,-0.8945,-0.183,0.427,0.061,150.941,3.571,-88.912
8765,-0.0576,0.4893,-0.9014,-0.427,0.244,0.061,150.947,3.565,-88.907
8775,-0.0581,0.4941,-0.9028,-0.732,-0.061,-0.061,150.941,3.565,-88.907
8785,-0.0576,0.4927,-0.9014,-0.793,-0.488,-0.061,150.936,3.565,-88.912
8795,-0.0581,0.4922,-0.8970,-0.732,-0.793,-0.061,150.936,3.571,-88.912
8805,-0.0586,0.4897,-0.8975,-0.610,-1.099,-0.061,150.930,3.576,-88.918
8815,-0.0615,0.4897,-0.8940,-0.549,-1.221,-0.061,150.930,3.587,-88.923
8825,-0.0620,0.4912,-0.8931,-0.488,-1.282,-0.061,150.925,3.598,-88.929
8835,-0.0630,0.4912,-0.8896,-0.427,-1.343,-0.061,150.925,3.609,-88.934
8845,-0.0649,0.4893,-0.8872,-0.305,-1.343,-0.061,150.925,3.620,-88.940
8855,-0.0649,0.4893,-0.8843,-0.366,-1.343,-0.183,150.919,3.631,-88.945
8865,-0.0679,0.4907,-0.8867,-0.427,-1.221,-0.244,150.914,3.647,-88.951
8875,-0.0669,0.4912,-0.8828,-0.305,-1.099,-0.183,150.914,3.658,-88.956
8885,-0.0679,0.4897,-0.8809,-0.244,-0.793,-0.061,150.908,3.669,-88.956
8895,-0.0688,0.4883,-0.8813,-0.122,-0.427,0.000,150.908,3.675,-88.962
8905,-0.0679,0.4883,-0.8813,0.061,-0.122,0.122,150.914,3.675,-88.962
8915,-0.0679,0.4878,-0.8823,0.244,0.122,0.183,150.914,3.675,-88.962
8925,-0.0649,0.4873,-0.8867,0.427,0.366,0.183,150.925,3.669,-88.962
8935,-0.0654,0.4873,-0.8896,0.305,0.549,0.305,150.930,3.664,-88.962
8945,-0.0654,0.4878,-0.8911,0.244,0.793,0.305,150.936,3.658,-88.962
8955,-0.0654,0.4893,-0.8921,0.122,0.916,0.305,150.941,3.647,-88.962
8965,-0.0640,0.4897,-0.8945,-0.122,0.854,0.305,150.941,3.636,-88.956
8975,-0.0640,0.4883,-0.8975,-0.366,0.549,0.305,150.941,3.631,-88.956
8985,-0.0649,0.4893,-0.8994,-0.488,0.244,0.305,150.941,3.625,-88.962
8995,-0.0640,0.4878,-0.8999,-0.549,0.000,0.366,150.947,3.625,-88.962
9005,-0.0635,0.4878,-0.8950,-0.488,-0.305,0.427,150.941,3.625,-88.967
9015,-0.0645,0.4888,-0.8945,-0.427,-0.549,0.427,150.941,3.631,-88.973
9025,-0.0679,0.4868,-0.8940,-0.305,-0.671,0.488,150.947,3.631,-88.984
9035,-0.0601,0.4878,-0.8950,-0.244,-0.671,0.610,150.947,3.636,-88.989
9045,-0.0586,0.4917,-0.8896,-0.366,-0.854,0.610,150.941,3.636,-89.000
9055,-0.0591,0.4927,-0.8867,-0.427,-1.221,0.671,150.936,3.642,-89.011
9065,-0.0610,0.4937,-0.8857,-0.122,-1.343,0.549,150.936,3.647,-89.022
9075,-0.0625,0.4951,-0.8813,0.000,-1.221,0.366,150.930,3.653,-89.033
9085,-0.0625,0.4990,-0.8823,0.488,-0.793,0.427,150.930,3.658,-89.039
9095,-0.0610,0.4971,-0.8853,1.465,-0.122,0.549,150.941,3.653,-89.044
9105,-0.0605,0.4985,-0.8892,1.160,0.366,0.305,150.952,3.647,-89.044
9115,-0.0625,0.5000,-0.8916,0.732,0.671,0.000,150.958,3.636,-89.044
9125,-0.0630,0.5034,-0.8931,0.000,0.610,-0.183,150.952,3.631,-89.039
9135,-0.0625,0.5039,-0.8950,-0.610,0.549,-0.305,150.947,3.631,-89.033
9145,-0.0630,0.5029,-0.8960,-0.671,0.427,-0.610,150.936,3.625,-89.028
9155,-0.0635,0.4990,-0.8955,-0.549,0.122,-0.732,150.930,3.631,-89.017
9165,-0.0664,0.4956,-0.8965,-0.183,-0.183,-0.793,150.930,3.636,-89.011
9175,-0.0674,0.4912,-0.8965,-0.122,-0.427,-0.793,150.936,3.642,-89.006
9185,-0.0669,0.4868,-0.8955,-0.366,-0.488,-0.793,150.936,3.653,-89.000
9195,-0.0669,0.4849,-0.8931,-0.732,-0.549,-0.793,150.936,3.664,-89.000
9205,-0.0654,0.4868,-0.8911,-1.038,-0.671,-0.671,150.930,3.669,-88.995
9215,-0.0654,0.4873,-0.8896,-1.099,-0.732,-0.488,150.919,3.680,-88.995
9225,-0.0645,0.4849,-0.8887,-0.977,-0.732,-0.366,150.914,3.686,-88.995
9235,-0.0654,0.4858,-0.8877,-0.793,-0.671,-0.305,150.914,3.697,-88.995
9245,-0.0654,0.4863,-0.8862,-0.671,-0.488,-0.244,150.908,3.702,-88.995
9255,-0.0669,0.4858,-0.8872,-0.549,-0.244,-0.183,150.908,3.702,-88.995
9265,-0.0684,0.4873,-0.8877,-0.549,0.122,-0.061,150.903,3.708,-88.995
9275,-0.0669,0.4883,-0.8877,-0.610,0.366,-0.061,150.903,3.702,-88.995
9285,-0.0679,0.4917,-0.8901,-0.549,0.488,-0.122,150.897,3.702,-88.989
9295,-0.0669,0.4922,-0.8877,-0.427,0.549,0.000,150.897,3.697,-88.989
9305,-0.0649,0.4966,-0.8901,-0.122,0.549,0.061,150.892,3.691,-88.984
9315,-0.0625,0.4966,-0.8911,0.183,0.427,-0.061,150.897,3.686,-88.984
9325,-0.0601,0.4985,-0.8945,0.366,0.366,-0.183,150.897,3.680,-88.978
9335,-0.0586,0.4995,-0.8940,0.244,0.244,-0.244,150.903,3.675,-88.973
9345,-0.0581,0.4980,-0.8936,-0.183,0.183,-0.427,150.897,3.669,-88.973
9355,-0.0586,0.4971,-0.8970,-0.549,0.000,-0.610,150.897,3.669,-88.967
9365,-0.0586,0.4980,-0.8979,-0.854,0.000,-0.793,150.886,3.669,-88.956
9375,-0.0596,0.4976,-0.8999,-1.099,-0.061,-1.038,150.881,3.669,-88.951
9385,-0.0586,0.4932,-0.8950,-1.038,-0.183,-1.099,150.870,3.675,-88.940
9395,-0.0596,0.4912,-0.8940,-0.854,-0.427,-1.099,150.870,3.680,-88.934
9405,-0.0615,0.4888,-0.8911,-0.916,-0.854,-1.038,150.864,3.691,-88.929
9415,-0.0615,0.4893,-0.8877,-0.916,-1.099,-0.977,150.859,3.702,-88.923
9425,-0.0620,0.4873,-0.8862,-0.854,-1.038,-0.854,150.853,3.713,-88.923
9435,-0.0630,0.4858,-0.8823,-0.732,-0.732,-0.610,150.848,3.724,-88.923
9445,-0.0625,0.4878,-0.8833,-0.732,-0.305,-0.488,150.842,3.724,-88.918
9455,-0.0615,0.4883,-0.8843,-0.610,0.122,-0.366,150.837,3.724,-88.912
9465,-0.0630,0.4863,-0.8872,-0.488,0.366,-0.244,150.837,3.719,-88.912
9475,-0.0630,0.4888,-0.8896,-0.427,0.610,-0.183,150.837,3.713,-88.907
9485,-0.0630,0.4897,-0.8916,-0.427,0.671,-0.061,150.837,3.708,-88.901
9495,-0.0620,0.4893,-0.8960,-0.427,0.549,-0.122,150.842,3.702,-88.896
9505,-0.0649,0.4888,-0.8979,-0.488,0.427,-0.122,150.842,3.697,-88.896
9515,-0.0664,0.4888,-0.8979,-0.793,0.427,-0.183,150.837,3.691,-88.890
9525,-0.0645,0.4888,-0.8975,-1.038,0.183,-0.061,150.837,3.691,-88.890
9535,-0.0645,0.4912,-0.8926,-0.977,-0.122,0.000,150.831,3.691,-88.890
9545,-0.0649,0.4897,-0.8931,-0.732,-0.549,0.000,150.826,3.697,-88.896
9555,-0.0654,0.4883,-0.8916,-0.427,-0.854,0.061,150.826,3.702,-88.896
9565,-0.0640,0.4912,-0.8882,-0.244,-0.671,0.122,150.826,3.708,-88.901
9575,-0.0640,0.4902,-0.8896,-0.183,-0.549,0.122,150.826,3.708,-88.907
9585,-0.0640,0.4902,-0.8857,-0.061,-0.305,0.183,150.826,3.713,-88.907
9595,-0.0640,0.4907,-0.8872,-0.122,-0.061,0.061,150.831,3.708,-88.912
9605,-0.0654,0.4902,-0.8857,-0.122,0.122,0.061,150.831,3.708,-88.912
9615,-0.0635,0.4912,-0.8867,-0.122,0.244,0.122,150.831,3.702,-88.912
9625,-0.0625,0.4917,-0.8857,-0.122,0.366,0.183,150.831,3.697,-88.907
9635,-0.0635,0.4912,-0.8848,0.061,0.488,0.244,150.831,3.691,-88.907
9645,-0.0645,0.4922,-0.8882,0.183,0.671,0.244,150.837,3.686,-88.907
9655,-0.0649,0.4937,-0.8882,0.183,0.916,0.305,150.837,3.675,-88.907
9665,-0.0635,0.4937,-0.8872,0.122,0.977,0.305,150.842,3.664,-88.907
9675,-0.0640,0.4956,-0.8882,0.061,0.977,0.305,150.842,3.653,-88.901
9685,-0.0625,0.4937,-0.8921,0.061,0.916,0.305,150.842,3.642,-88.901
9695,-0.0620,0.4946,-0.8921,0.061,0.916,0.183,150.848,3.631,-88.896
9705,-0.0610,0.4966,-0.8936,0.061,0.854,0.061,150.848,3.620,-88.896
9715,-0.0605,0.4937,-0.8965,0.061,0.793,0.000,150.853,3.615,-88.890
9725,-0.0615,0.4912,-0.8960,-0.122,0.549,-0.061,150.853,3.609,-88.885
9735,-0.0659,0.4922,-0.8945,-0.244,0.366,-0.183,150.859,3.604,-88.885
9745,-0.0635,0.4937,-0.8940,-0.427,0.183,-0.244,150.853,3.604,-88.879
9755,-0.0615,0.4932,-0.8931,-0.488,0.061,-0.305,150.853,3.604,-88.879
9765,-0.0620,0.4937,-0.8921,-0.427,0.000,-0.244,150.848,3.604,-88.874
9775,-0.0596,0.4937,-0.8916,-0.122,0.000,-0.305,150.853,3.604,-88.874
9785,-0.0571,0.4902,-0.8940,0.122,0.183,-0.366,150.859,3.598,-88.868
9795,-0.0571,0.4897,-0.8950,0.244,0.366,-0.366,150.864,3.593,-88.863
9805,-0.0562,0.4888,-0.8911,0.305,0.366,-0.244,150.870,3.587,-88.857
9815,-0.0620,0.4849,-0.8906,0.305,0.244,-0.183,150.881,3.587,-88.857
9825,-0.0630,0.4834,-0.8896,0.244,0.244,-0.061,150.886,3.582,-88.857
9835,-0.0630,0.4834,-0.8916,0.244,0.366,0.122,150.897,3.582,-88.852
9845,-0.0605,0.4844,-0.8911,0.366,0.427,0.305,150.908,3.571,-88.857
9856,-0.0625,0.4849,-0.8950,0.488,0.549,0.488,150.919,3.565,-88.857
9865,-0.0615,0.4868,-0.8984,0.488,0.427,0.610,150.930,3.560,-88.857
9875,-0.0596,0.4897,-0.8955,0.305,0.183,0.732,150.936,3.549,-88.863
9885,-0.0591,0.4937,-0.8965,0.183,-0.183,0.732,150.941,3.543,-88.874
9895,-0.0591,0.4922,-0.8975,0.000,-0.488,0.671,150.941,3.543,-88.879
9905,-0.0601,0.4941,-0.8931,-0.183,-0.671,0.610,150.941,3.543,-88.890
9915,-0.0610,0.4951,-0.8926,-0.366,-0.671,0.610,150.936,3.549,-88.896
9925,-0.0635,0.4980,-0.8882,-0.366,-0.671,0.488,150.930,3.549,-88.907
9935,-0.0654,0.4951,-0.8877,-0.305,-0.610,0.488,150.925,3.554,-88.912
9945,-0.0640,0.4961,-0.8867,-0.183,-0.610,0.366,150.919,3.560,-88.918
9955,-0.0645,0.4980,-0.8872,-0.061,-0.488,0.305,150.919,3.560,-88.923
9965,-0.0645,0.5000,-0.8853,0.000,-0.244,0.244,150.914,3.565,-88.929
9975,-0.0635,0.4990,-0.8857,0.122,0.000,0.183,150.914,3.565,-88.929
9985,-0.0601,0.5020,-0.8848,0.305,0.122,0.122,150.908,3.560,-88.929
9995,-0.0620,0.5000,-0.8853,0.488,0.305,-0.122,150.914,3.554,-88.929
10005,-0.0654,0.4976,-0.8848,0.427,0.549,-0.305,150.914,3.554,-88.923
10015,-0.0654,0.4971,-0.8862,0.305,0.732,-0.549,150.914,3.554,-88.912
10025,-0.0649,0.4976,-0.8921,0.122,0.916,-0.671,150.919,3.549,-88.901
10035,-0.0605,0.4971,-0.8940,0.061,1.038,-0.854,150.919,3.543,-88.890
10045,-0.0576,0.4946,-0.8950,0.122,1.099,-0.916,150.919,3.532,-88.879
10055,-0.0586,0.4888,-0.8926,0.244,0.916,-0.916,150.930,3.527,-88.863
10065,-0.0586,0.4849,-0.8940,0.244,0.610,-0.793,150.936,3.521,-88.852
10075,-0.0586,0.4849,-0.8926,0.061,0.183,-0.671,150.941,3.521,-88.846
10085,-0.0576,0.4829,-0.8921,-0.061,-0.061,-0.488,150.952,3.521,-88.846
10095,-0.0591,0.4834,-0.8950,0.000,-0.122,-0.427,150.958,3.527,-88.841
10105,-0.0581,0.4839,-0.8931,0.000,0.000,-0.366,150.963,3.521,-88.835
10115,-0.0591,0.4849,-0.8965,0.000,0.183,-0.244,150.969,3.521,-88.835
10125,-0.0576,0.4878,-0.8960,-0.061,0.305,-0.183,150.974,3.516,-88.830
10135,-0.0576,0.4873,-0.8965,-0.061,0.366,-0.122,150.980,3.510,-88.830
10145,-0.0591,0.4863,-0.8970,0.000,0.183,-0.061,150.985,3.510,-88.824
10155,-0.0596,0.4863,-0.8975,0.000,-0.061,-0.061,150.991,3.505,-88.824
10165,-0.0610,0.4849,-0.8970,-0.122,-0.244,-0.061,150.996,3.510,-88.830
10175,-0.0605,0.4878,-0.8965,-0.244,-0.488,0.061,150.996,3.510,-88.830
10185,-0.0601,0.4863,-0.8940,-0.305,-0.732,0.183,150.996,3.516,-88.835
10195,-0.0596,0.4897,-0.8921,-0.305,-0.977,0.244,150.996,3.521,-88.841
10205,-0.0615,0.4922,-0.8906,-0.183,-1.099,0.305,150.996,3.527,-88.852
10215,-0.0625,0.4941,-0.8887,0.000,-1.099,0.244,150.996,3.538,-88.857
10225,-0.0630,0.4917,-0.8862,0.061,-0.916,0.122,150.996,3.543,-88.863
10235,-0.0625,0.4932,-0.8872,-0.122,-0.732,0.000,150.991,3.549,-88.868
10245,-0.0615,0.4927,-0.8882,-0.305,-0.427,-0.122,150.991,3.554,-88.868
10255,-0.0615,0.4941,-0.8857,-0.427,-0.122,-0.183,150.985,3.554,-88.868
10265,-0.0625,0.4932,-0.8857,-0.305,0.061,-0.244,150.980,3.554,-88.863
10275,-0.0605,0.4937,-0.8887,0.000,0.183,-0.305,150.980,3.554,-88.863
10285,-0.0610,0.4907,-0.8896,0.244,0.244,-0.305,150.985,3.554,-88.857
10295,-0.0625,0.4897,-0.8911,0.244,0.244,-0.244,150.985,3.549,-88.852
10305,-0.0630,0.4878,-0.8931,0.061,0.244,-0.183,150.991,3.549,-88.852
10315,-0.0615,0.4912,-0.8916,-0.183,0.183,-0.183,150.991,3.549,-88.846
10325,-0.0610,0.4893,-0.8945,-0.366,0.061,-0.244,150.991,3.549,-88.846
10335,-0.0586,0.4907,-0.8931,-0.427,-0.122,-0.305,150.991,3.549,-88.846
10345,-0.0596,0.4932,-0.8936,-0.427,-0.183,-0.305,150.985,3.549,-88.841
10356,-0.0596,0.4951,-0.8936,-0.488,-0.244,-0.244,150.980,3.549,-88.841
10365,-0.0605,0.4971,-0.8931,-0.488,-0.244,-0.366,150.974,3.549,-88.841
10375,-0.0596,0.4966,-0.8950,-0.549,-0.183,-0.488,150.974,3.554,-88.835
10385,-0.0615,0.4971,-0.8940,-0.793,-0.305,-0.671,150.963,3.560,-88.830
10395,-0.0630,0.4941,-0.8916,-0.916,-0.427,-0.977,150.958,3.565,-88.824
10405,-0.0640,0.4941,-0.8896,-1.221,-0.610,-1.160,150.941,3.576,-88.819
10415,-0.0635,0.4946,-0.8887,-1.343,-0.671,-1.160,150.930,3.587,-88.813
10425,-0.0625,0.4917,-0.8887,-1.099,-0.610,-1.099,150.919,3.598,-88.802
10435,-0.0625,0.4902,-0.8882,-0.427,-0.488,-1.099,150.919,3.609,-88.797
10445,-0.0625,0.4878,-0.8877,0.000,-0.305,-1.160,150.925,3.615,-88.786
10455,-0.0620,0.4858,-0.8882,0.305,-0.244,-1.099,150.930,3.620,-88.781
10465,-0.0620,0.4839,-0.8916,0.366,-0.122,-0.977,150.941,3.625,-88.770
10475,-0.0610,0.4819,-0.8882,0.244,-0.183,-0.854,150.947,3.631,-88.764
10485,-0.0615,0.4844,-0.8896,0.061,-0.183,-0.793,150.952,3.631,-88.759
10496,-0.0610,0.4844,-0.8887,0.000,-0.061,-0.671,150.958,3.636,-88.753
10506,-0.0625,0.4839,-0.8901,0.061,0.122,-0.610,150.963,3.636,-88.748
10516,-0.0615,0.4819,-0.8926,0.061,0.244,-0.427,150.974,3.636,-88.742
10526,-0.0625,0.4810,-0.8926,0.000,0.122,-0.305,150.980,3.631,-88.742
10536,-0.0635,0.4824,-0.8936,-0.061,-0.122,-0.122,150.985,3.636,-88.737
10546,-0.0640,0.4819,-0.8921,-0.244,-0.366,0.061,150.991,3.636,-88.742
10556,-0.0649,0.4849,-0.8911,-0.427,-0.427,0.122,150.991,3.642,-88.742
10566,-0.0630,0.4883,-0.8906,-0.427,-0.305,0.244,150.991,3.642,-88.748
10576,-0.0640,0.4868,-0.8901,-0.366,-0.122,0.305,150.985,3.642,-88.753
10586,-0.0620,0.4912,-0.8916,-0.244,0.000,0.366,150.985,3.636,-88.753
10596,-0.0591,0.4917,-0.8906,-0.244,0.000,0.366,150.985,3.631,-88.759
10606,-0.0620,0.4941,-0.8931,-0.122,0.000,0.366,150.985,3.631,-88.759
10616,-0.0625,0.4941,-0.8892,-0.061,-0.061,0.305,150.985,3.625,-88.764
10626,-0.0615,0.4971,-0.8906,0.000,0.000,0.183,150.980,3.625,-88.764
10636,-0.0601,0.4976,-0.8911,0.122,0.061,0.122,150.980,3.620,-88.764
10646,-0.0610,0.4985,-0.8940,0.183,0.183,0.000,150.980,3.615,-88.764
10656,-0.0596,0.4976,-0.8926,0.122,0.183,-0.122,150.980,3.615,-88.764
10666,-0.0610,0.4966,-0.8896,-0.061,0.000,-0.244,150.980,3.609,-88.764
10676,-0.0625,0.4961,-0.8901,-0.183,-0.183,-0.366,150.974,3.615,-88.759
10686,-0.0635,0.4956,-0.8911,-0.183,0.000,-0.488,150.974,3.615,-88.753
10696,-0.0605,0.4966,-0.8940,-0.122,0.244,-0.549,150.974,3.615,-88.748
10706,-0.0566,0.4941,-0.8936,0.122,0.488,-0.610,150.974,3.609,-88.742
10716,-0.0586,0.4897,-0.8940,0.366,0.305,-0.610,150.985,3.604,-88.737
10726,-0.0615,0.4878,-0.8945,0.366,0.000,-0.549,150.991,3.609,-88.731
10736,-0.0625,0.4863,-0.8931,0.183,-0.183,-0.488,150.996,3.609,-88.726
10746,-0.0645,0.4854,-0.8906,-0.061,-0.305,-0.366,151.002,3.615,-88.726
10756,-0.0620,0.4849,-0.8877,-0.122,-0.427,-0.305,151.002,3.620,-88.726
10766,-0.0625,0.4868,-0.8877,-0.061,-0.427,-0.122,151.007,3.620,-88.726
10776,-0.0630,0.4912,-0.8877,0.000,-0.244,0.000,151.007,3.625,-88.726
10786,-0.0620,0.4932,-0.8921,0.244,0.122,0.122,151.007,3.620,-88.726
10796,-0.0610,0.4927,-0.8955,0.427,0.488,0.000,151.013,3.615,-88.726
10806,-0.0625,0.4951,-0.8950,0.427,0.610,-0.244,151.018,3.609,-88.720
10816,-0.0645,0.4946,-0.8994,0.244,0.366,-0.427,151.024,3.609,-88.715
10826,-0.0654,0.4927,-0.8999,-0.244,-0.061,-0.610,151.024,3.609,-88.709
10836,-0.0654,0.4912,-0.8989,-0.671,-0.549,-0.671,151.024,3.620,-88.704
10846,-0.0664,0.4897,-0.8965,-0.916,-0.916,-0.732,151.018,3.631,-88.704
10856,-0.0669,0.4868,-0.8945,-0.854,-1.099,-0.671,151.013,3.647,-88.704
10866,-0.0693,0.4893,-0.8940,-0.732,-1.160,-0.549,151.007,3.658,-88.704
10876,-0.0649,0.4888,-0.8931,-0.732,-1.221,-0.549,151.002,3.675,-88.704
10886,-0.0664,0.4902,-0.8906,-0.671,-1.099,-0.488,150.996,3.686,-88.704
10896,-0.0649,0.4878,-0.8901,-0.732,-1.099,-0.610,150.991,3.697,-88.704
10906,-0.0649,0.4883,-0.8877,-0.916,-1.038,-0.671,150.985,3.708,-88.704
10916,-0.0654,0.4888,-0.8867,-0.977,-0.793,-0.671,150.980,3.719,-88.704
10926,-0.0630,0.4863,-0.8823,-0.916,-0.549,-0.549,150.969,3.724,-88.698
10936,-0.0645,0.4839,-0.8833,-0.549,-0.305,-0.366,150.969,3.730,-88.698
10946,-0.0645,0.4873,-0.8843,-0.122,0.061,-0.061,150.969,3.730,-88.698
10956,-0.0640,0.4893,-0.8867,0.366,0.366,0.122,150.974,3.724,-88.698
10966,-0.0620,0.4868,-0.8862,0.732,0.549,0.183,150.985,3.719,-88.698
10976,-0.0615,0.4858,-0.8901,0.671,0.610,0.183,150.996,3.708,-88.693
10986,-0.0620,0.4902,-0.8896,0.183,0.488,0.122,150.996,3.702,-88.693
10996,-0.0576,0.4922,-0.8911,-0.305,0.366,0.061,150.996,3.691,-88.693
11006,-0.0596,0.4961,-0.8936,-0.610,0.244,0.000,150.991,3.686,-88.693
11016,-0.0605,0.4976,-0.8960,-0.549,0.183,-0.061,150.985,3.680,-88.687
11026,-0.0610,0.4976,-0.8960,-0.366,0.061,-0.122,150.980,3.680,-88.687
11036,-0.0625,0.4961,-0.8940,-0.244,-0.061,-0.183,150.980,3.680,-88.687
11046,-0.0640,0.4946,-0.8926,-0.244,-0.305,-0.244,150.974,3.680,-88.687
11056,-0.0664,0.4917,-0.8931,-0.427,-0.366,-0.305,150.974,3.686,-88.687
11066,-0.0610,0.4937,-0.8892,-0.732,-0.366,-0.305,150.963,3.691,-88.687
11076,-0.0610,0.4941,-0.8877,-0.793,-0.305,-0.244,150.958,3.691,-88.682
11086,-0.0601,0.4922,-0.8906,-0.488,-0.183,-0.244,150.952,3.691,-88.682
11096,-0.0620,0.4932,-0.8921,-0.183,-0.061,-0.366,150.952,3.691,-88.682
11106,-0.0615,0.4927,-0.8950,0.122,0.061,-0.427,150.958,3.691,-88.676
11116,-0.0625,0.4907,-0.8940,0.305,0.061,-0.427,150.963,3.691,-88.671
11126,-0.0620,0.4907,-0.8921,0.183,-0.061,-0.427,150.969,3.691,-88.671
11136,-0.0625,0.4868,-0.8931,-0.122,-0.305,-0.427,150.969,3.691,-88.665
11146,-0.0664,0.4873,-0.8940,-0.427,-0.427,-0.488,150.969,3.697,-88.665
11156,-0.0688,0.4883,-0.8936,-0.488,-0.366,-0.427,150.969,3.708,-88.660
11166,-0.0679,0.4878,-0.8970,-0.488,-0.183,-0.427,150.969,3.713,-88.660
11176,-0.0659,0.4854,-0.8931,-0.366,-0.244,-0.366,150.969,3.713,-88.660
11186,-0.0669,0.4844,-0.8906,-0.305,-0.366,-0.305,150.974,3.719,-88.654
11196,-0.0659,0.4863,-0.8896,-0.366,-0.610,-0.244,150.974,3.724,-88.660
11206,-0.0659,0.4868,-0.8892,-0.427,-0.793,-0.122,150.974,3.735,-88.660
11216,-0.0684,0.4868,-0.8887,-0.366,-0.854,0.000,150.969,3.741,-88.665
11226,-0.0684,0.4873,-0.8872,-0.244,-0.671,0.000,150.969,3.752,-88.665
11236,-0.0669,0.4907,-0.8892,-0.305,-0.427,0.000,150.969,3.752,-88.671
11246,-0.0674,0.4907,-0.8857,-0.427,-0.305,0.061,150.963,3.757,-88.671
11256,-0.0684,0.4907,-0.8862,-0.427,-0.244,0.000,150.963,3.757,-88.671
11266,-0.0674,0.4907,-0.8882,-0.366,-0.183,-0.183,150.958,3.763,-88.671
11276,-0.0664,0.4927,-0.8887,-0.366,0.000,-0.244,150.958,3.763,-88.671
11286,-0.0645,0.4927,-0.8901,-0.244,0.183,-0.305,150.952,3.763,-88.665
11296,-0.0630,0.4922,-0.8901,-0.122,0.305,-0.427,150.952,3.757,-88.660
11306,-0.0635,0.4907,-0.8896,-0.183,0.305,-0.427,150.952,3.757,-88.654
11316,-0.0635,0.4912,-0.8896,-0.305,0.122,-0.427,150.952,3.757,-88.649
11326,-0.0630,0.4917,-0.8896,-0.366,0.061,-0.427,150.952,3.757,-88.649
11336,-0.0635,0.4907,-0.8931,-0.183,0.183,-0.427,150.952,3.752,-88.643
11346,-0.0630,0.4893,-0.8960,-0.061,0.549,-0.488,150.958,3.746,-88.638
11356,-0.0586,0.4888,-0.8965,0.061,0.854,-0.488,150.963,3.741,-88.627
11366,-0.0586,0.4863,-0.8960,0.183,0.916,-0.549,150.969,3.730,-88.616
11376,-0.0586,0.4839,-0.8950,0.244,0.671,-0.488,150.980,3.719,-88.610
11386,-0.0605,0.4834,-0.8945,0.122,0.244,-0.427,150.985,3.719,-88.605
11396,-0.0610,0.4839,-0.8936,0.122,-0.122,-0.244,150.996,3.719,-88.605
11406,-0.0635,0.4824,-0.8911,0.183,-0.183,-0.122,151.002,3.719,-88.605
11416,-0.0654,0.4814,-0.8857,0.183,-0.122,0.000,151.007,3.719,-88.605
11426,-0.0669,0.4834,-0.8857,0.183,0.122,0.061,151.013,3.719,-88.605
11436,-0.0669,0.4844,-0.8848,0.244,0.366,0.183,151.018,3.713,-88.605
11446,-0.0654,0.4854,-0.8799,0.244,0.671,0.305,151.024,3.708,-88.605
11456,-0.0645,0.4902,-0.8755,0.183,0.732,0.366,151.024,3.702,-88.605
11466,-0.0654,0.4922,-0.8784,0.610,0.854,0.427,151.024,3.691,-88.605
11476,-0.0640,0.4932,-0.8823,1.038,1.343,0.366,151.035,3.675,-88.605
11486,-0.0610,0.4956,-0.8833,1.160,2.197,0.305,151.040,3.653,-88.605
11496,-0.0649,0.4966,-0.8828,1.221,2.869,0.244,151.051,3.625,-88.605
11506,-0.0605,0.4976,-0.8872,1.160,3.052,0.183,151.057,3.598,-88.605
11516,-0.0601,0.4985,-0.8896,1.099,2.991,0.000,151.068,3.571,-88.605
11526,-0.0640,0.4961,-0.8984,1.099,2.869,-0.122,151.078,3.543,-88.605
11536,-0.0640,0.4946,-0.9009,1.038,2.747,-0.183,151.089,3.521,-88.605
11546,-0.0615,0.4927,-0.9033,1.160,2.563,-0.305,151.106,3.499,-88.605
11556,-0.0601,0.4932,-0.9077,0.977,2.197,-0.427,151.122,3.483,-88.605
11566,-0.0586,0.4902,-0.9106,0.549,1.587,-0.488,151.133,3.466,-88.605
11576,-0.0581,0.4907,-0.9106,-0.061,0.793,-0.488,151.139,3.461,-88.605
11586,-0.0581,0.4937,-0.9092,-0.610,0.000,-0.549,151.139,3.461,-88.605
11596,-0.0591,0.4922,-0.9082,-0.977,-0.610,-0.732,151.133,3.466,-88.605
11606,-0.0620,0.4902,-0.9038,-1.221,-1.099,-0.854,151.122,3.483,-88.605
11616,-0.0615,0.4883,-0.8994,-1.404,-1.282,-0.916,151.111,3.499,-88.605
11626,-0.0615,0.4878,-0.8955,-1.404,-1.343,-0.916,151.100,3.510,-88.605
11636,-0.0591,0.4844,-0.8862,-1.221,-1.343,-0.916,151.095,3.527,-88.605
11646,-0.0591,0.4829,-0.8862,-1.038,-1.221,-0.854,151.084,3.538,-88.605
11656,-0.0610,0.4854,-0.8838,-0.793,-0.916,-0.732,151.078,3.549,-88.605
11666,-0.0596,0.4844,-0.8823,-0.610,-0.427,-0.488,151.073,3.554,-88.605
11676,-0.0586,0.4863,-0.8818,-0.427,-0.061,-0.366,151.073,3.554,-88.605
11686,-0.0591,0.4844,-0.8853,-0.244,0.183,-0.305,151.073,3.554,-88.605
11696,-0.0620,0.4849,-0.8862,-0.061,0.305,-0.305,151.073,3.549,-88.605
11706,-0.0620,0.4863,-0.8916,0.061,0.488,-0.244,151.078,3.549,-88.605
11716,-0.0610,0.4883,-0.8940,0.061,0.610,-0.244,151.084,3.543,-88.605
11726,-0.0601,0.4883,-0.8955,0.000,0.671,-0.183,151.084,3.538,-88.605
11736,-0.0591,0.4902,-0.8984,-0.061,0.610,-0.244,151.089,3.527,-88.605
11746,-0.0566,0.4917,-0.8984,-0.122,0.366,-0.244,151.089,3.521,-88.605
11756,-0.0566,0.4907,-0.9009,0.061,0.061,-0.305,151.095,3.521,-88.605
11766,-0.0537,0.4897,-0.9043,0.061,-0.244,-0.366,151.100,3.521,-88.605
11776,-0.0581,0.4888,-0.9009,-0.061,-0.610,-0.366,151.100,3.521,-88.605
11786,-0.0615,0.4868,-0.8999,-0.366,-1.038,-0.366,151.100,3.532,-88.605
11796,-0.0654,0.4854,-0.8955,-0.671,-1.282,-0.305,151.100,3.549,-88.605
11806,-0.0664,0.4854,-0.8916,-0.793,-1.404,-0.183,151.095,3.560,-88.605
11816,-0.0669,0.4824,-0.8862,-0.610,-1.343,-0.122,151.095,3.576,-88.605
11826,-0.0669,0.4814,-0.8818,-0.305,-1.160,0.000,151.089,3.587,-88.605
11836,-0.0669,0.4785,-0.8784,0.061,-0.854,0.183,151.095,3.598,-88.605
11846,-0.0688,0.4790,-0.8721,0.244,-0.610,0.427,151.100,3.604,-88.605
11857,-0.0674,0.4819,-0.8730,0.305,-0.244,0.610,151.100,3.609,-88.605
11866,-0.0674,0.4849,-0.8735,0.488,0.488,0.732,151.106,3.604,-88.605
11876,-0.0674,0.4883,-0.8740,0.732,1.343,0.854,151.111,3.587,-88.605
11886,-0.0640,0.4902,-0.8765,0.977,2.258,0.854,151.117,3.565,-88.605
11896,-0.0620,0.4907,-0.8833,1.221,2.808,0.793,151.128,3.538,-88.605
11906,-0.0610,0.4937,-0.8906,1.404,3.174,0.671,151.139,3.505,-88.605
11916,-0.0601,0.4937,-0.8940,1.404,3.113,0.610,151.155,3.472,-88.605
11926,-0.0596,0.4961,-0.9019,1.282,2.869,0.549,151.166,3.444,-88.605
11936,-0.0586,0.4971,-0.9048,1.160,2.625,0.366,151.177,3.417,-88.605
11946,-0.0562,0.4990,-0.9092,0.916,2.197,0.061,151.188,3.395,-88.605
11956,-0.0562,0.4990,-0.9087,0.549,1.648,-0.183,151.194,3.378,-88.605
11966,-0.0552,0.4927,-0.9106,0.122,1.038,-0.427,151.199,3.367,-88.605
11976,-0.0566,0.4941,-0.9116,-0.488,0.366,-0.610,151.199,3.367,-88.605
11986,-0.0566,0.4966,-0.9092,-1.038,-0.244,-0.793,151.194,3.367,-88.605
11996,-0.0518,0.4946,-0.9072,-1.160,-0.732,-0.977,151.183,3.373,-88.605
12006,-0.0513,0.4932,-0.9023,-1.038,-1.038,-1.099,151.177,3.384,-88.599
12016,-0.0542,0.4902,-0.8984,-0.977,-1.343,-1.282,151.166,3.400,-88.594
12026,-0.0547,0.4849,-0.8945,-0.977,-1.587,-1.465,151.161,3.417,-88.588
12036,-0.0596,0.4795,-0.8867,-1.099,-1.648,-1.465,151.155,3.439,-88.583
12046,-0.0625,0.4775,-0.8828,-1.343,-1.587,-1.343,151.144,3.461,-88.577
12056,-0.0640,0.4795,-0.8779,-1.465,-1.404,-1.160,151.133,3.477,-88.577
12066,-0.0625,0.4805,-0.8809,-1.221,-0.916,-0.916,151.122,3.494,-88.572
12076,-0.0601,0.4800,-0.8784,-0.671,-0.305,-0.671,151.122,3.494,-88.566
12086,-0.0591,0.4814,-0.8838,-0.061,0.366,-0.427,151.122,3.494,-88.561
12096,-0.0557,0.4834,-0.8892,0.366,0.977,-0.183,151.133,3.483,-88.555
12106,-0.0532,0.4814,-0.8940,0.549,1.160,-0.061,151.144,3.466,-88.550
12116,-0.0542,0.4829,-0.8984,0.366,1.160,0.000,151.150,3.455,-88.544
12126,-0.0552,0.4844,-0.9009,0.000,0.854,0.000,151.161,3.444,-88.539
12136,-0.0566,0.4844,-0.9033,-0.183,0.610,0.000,151.161,3.433,-88.539
12146,-0.0576,0.4810,-0.9043,-0.183,0.427,0.000,151.172,3.428,-88.533
12156,-0.0586,0.4829,-0.9028,-0.061,0.061,0.061,151.177,3.428,-88.533
12166,-0.0571,0.4800,-0.9033,-0.061,-0.427,0.122,151.183,3.428,-88.539
12176,-0.0581,0.4834,-0.9023,-0.122,-0.854,0.244,151.188,3.433,-88.544
12186,-0.0581,0.4839,-0.9023,-0.305,-1.160,0.366,151.188,3.439,-88.555
12196,-0.0547,0.4868,-0.8970,-0.488,-1.343,0.488,151.188,3.444,-88.566
12206,-0.0566,0.4873,-0.8936,-0.610,-1.526,0.549,151.183,3.450,-88.577
12216,-0.0586,0.4878,-0.8896,-0.549,-1.465,0.549,151.177,3.461,-88.588
12226,-0.0610,0.4888,-0.8853,-0.427,-1.343,0.549,151.172,3.472,-88.599
12236,-0.0620,0.4868,-0.8843,-0.244,-1.221,0.549,151.172,3.477,-88.610
12246,-0.0640,0.4878,-0.8848,-0.244,-0.977,0.488,151.166,3.483,-88.621
12256,-0.0654,0.4902,-0.8877,-0.244,-0.549,0.427,151.161,3.488,-88.627
12266,-0.0630,0.4922,-0.8862,-0.305,-0.122,0.427,151.155,3.488,-88.632
12276,-0.0620,0.4922,-0.8862,-0.244,0.122,0.244,151.155,3.488,-88.632
12286,-0.0620,0.4927,-0.8877,-0.183,0.061,0.061,151.150,3.488,-88.632
12296,-0.0630,0.4966,-0.8906,-0.305,0.000,0.000,151.144,3.488,-88.632
12306,-0.0620,0.4951,-0.8906,-0.488,0.000,-0.061,151.133,3.488,-88.632
12316,-0.0601,0.4922,-0.8901,-0.549,0.061,-0.122,151.128,3.488,-88.632
12326,-0.0601,0.4927,-0.8960,-0.549,0.122,-0.244,151.128,3.483,-88.627
12336,-0.0601,0.4951,-0.8965,-0.610,0.183,-0.305,151.117,3.483,-88.627
12346,-0.0605,0.4927,-0.8955,-0.610,0.000,-0.366,151.111,3.483,-88.621
12357,-0.0610,0.4897,-0.8960,-0.549,-0.305,-0.549,151.111,3.488,-88.616
12366,-0.0591,0.4888,-0.8940,-0.793,-0.549,-0.671,151.106,3.494,-88.616
12376,-0.0596,0.4878,-0.8931,-0.916,-0.610,-0.671,151.100,3.505,-88.610
12386,-0.0596,0.4854,-0.8916,-0.854,-0.610,-0.671,151.095,3.510,-88.610
12396,-0.0615,0.4849,-0.8931,-0.671,-0.488,-0.610,151.089,3.516,-88.605
12406,-0.0605,0.4829,-0.8931,-0.122,-0.366,-0.488,151.095,3.521,-88.605
12416,-0.0586,0.4780,-0.8931,0.000,-0.366,-0.366,151.100,3.521,-88.599
12426,-0.0601,0.4741,-0.8906,-0.183,-0.366,-0.244,151.111,3.527,-88.599
12436,-0.0615,0.4731,-0.8906,-0.549,-0.244,0.000,151.111,3.527,-88.605
12446,-0.0635,0.4751,-0.8911,-0.732,-0.183,0.244,151.117,3.527,-88.605
12456,-0.0625,0.4785,-0.8916,-0.732,-0.061,0.549,151.111,3.527,-88.610
12466,-0.0620,0.4824,-0.8896,-0.366,0.061,0.793,151.111,3.521,-88.616
12476,-0.0610,0.4829,-0.8901,0.061,0.183,0.916,151.117,3.516,-88.627
12486,-0.0605,0.4839,-0.8906,0.244,0.244,1.038,151.122,3.510,-88.632
12496,-0.0615,0.4873,-0.8901,0.122,0.305,1.038,151.128,3.499,-88.638
12506,-0.0605,0.4902,-0.8906,-0.244,0.366,1.099,151.122,3.488,-88.649
12516,-0.0591,0.4961,-0.8926,-0.610,0.427,0.977,151.117,3.483,-88.654
12526,-0.0601,0.4966,-0.8945,-0.610,0.366,0.854,151.106,3.472,-88.660
12536,-0.0601,0.4995,-0.8940,-0.549,0.305,0.671,151.100,3.466,-88.665
12546,-0.0601,0.5015,-0.8926,-0.549,0.122,0.427,151.089,3.461,-88.665
12556,-0.0620,0.5000,-0.8936,-0.549,-0.061,0.122,151.078,3.461,-88.671
12566,-0.0605,0.4995,-0.8931,-0.488,-0.305,-0.122,151.073,3.461,-88.671
12576,-0.0610,0.5000,-0.8916,-0.549,-0.305,-0.305,151.062,3.466,-88.671
12586,-0.0601,0.5015,-0.8892,-0.610,-0.244,-0.427,151.051,3.472,-88.665
12596,-0.0581,0.4985,-0.8892,-0.549,-0.122,-0.671,151.046,3.472,-88.660
12606,-0.0596,0.4961,-0.8857,-0.549,0.000,-0.793,151.035,3.477,-88.654
12616,-0.0586,0.4946,-0.8872,-0.549,0.122,-0.977,151.029,3.477,-88.643
12626,-0.0605,0.4907,-0.8892,-0.488,0.488,-1.160,151.024,3.477,-88.632
12636,-0.0581,0.4893,-0.8911,-0.427,0.916,-1.221,151.024,3.472,-88.616
12646,-0.0566,0.4849,-0.8926,-0.305,1.160,-1.160,151.029,3.466,-88.599
12656,-0.0552,0.4824,-0.8916,-0.122,1.099,-1.099,151.035,3.461,-88.588
12666,-0.0557,0.4790,-0.8950,0.061,0.916,-0.977,151.040,3.450,-88.572
12676,-0.0586,0.4775,-0.8936,0.183,0.854,-0.732,151.051,3.444,-88.561
12686,-0.0576,0.4780,-0.8950,0.122,0.732,-0.427,151.062,3.439,-88.555
12696,-0.0576,0.4766,-0.8945,-0.061,0.610,-0.122,151.073,3.433,-88.550
12706,-0.0581,0.4780,-0.8970,-0.183,0.549,0.000,151.078,3.428,-88.550
12716,-0.0566,0.4814,-0.9019,-0.244,0.549,0.183,151.084,3.417,-88.550
12726,-0.0537,0.4849,-0.8975,-0.183,0.427,0.305,151.089,3.411,-88.550
12736,-0.0542,0.4863,-0.9009,-0.122,0.183,0.366,151.089,3.400,-88.550
12746,-0.0566,0.4849,-0.8994,-0.183,-0.183,0.488,151.095,3.400,-88.555
12756,-0.0571,0.4844,-0.8979,-0.366,-0.427,0.549,151.095,3.400,-88.561
12766,-0.0586,0.4873,-0.8950,-0.488,-0.671,0.488,151.095,3.400,-88.572
12776,-0.0605,0.4907,-0.8940,-0.610,-0.793,0.488,151.089,3.406,-88.577
12786,-0.0625,0.4917,-0.8926,-0.610,-0.793,0.427,151.084,3.411,-88.588
12796,-0.0645,0.4907,-0.8882,-0.671,-0.793,0.366,151.078,3.417,-88.594
12806,-0.0649,0.4922,-0.8867,-0.671,-0.793,0.366,151.068,3.428,-88.599
12816,-0.0649,0.4917,-0.8862,-0.610,-0.671,0.366,151.062,3.433,-88.605
12827,-0.0659,0.4932,-0.8823,-0.488,-0.427,0.366,151.051,3.439,-88.610
12837,-0.0649,0.4941,-0.8828,-0.244,-0.183,0.427,151.046,3.439,-88.616
12846,-0.0635,0.4951,-0.8833,0.000,0.122,0.366,151.046,3.439,-88.621
12857,-0.0615,0.4961,-0.8848,0.061,0.366,0.305,151.040,3.433,-88.621
12866,-0.0605,0.4941,-0.8857,0.000,0.549,0.305,151.040,3.428,-88.621
12877,-0.0625,0.4951,-0.8887,-0.061,0.671,0.244,151.040,3.422,-88.621
12887,-0.0625,0.4941,-0.8906,-0.244,0.793,0.122,151.035,3.417,-88.616
12897,-0.0615,0.4922,-0.8916,-0.366,0.916,0.061,151.029,3.406,-88.610
12907,-0.0610,0.4922,-0.8931,-0.244,0.977,-0.061,151.029,3.400,-88.605
12917,-0.0625,0.4907,-0.8945,-0.244,1.038,-0.061,151.029,3.389,-88.599
12927,-0.0610,0.4912,-0.8950,-0.244,0.977,-0.122,151.029,3.384,-88.594
12937,-0.0586,0.4888,-0.8955,-0.244,0.793,-0.122,151.035,3.378,-88.588
12947,-0.0566,0.4883,-0.8955,-0.366,0.488,-0.122,151.035,3.373,-88.588
12957,-0.0605,0.4893,-0.8975,-0.549,0.427,-0.061,151.029,3.367,-88.583
12967,-0.0576,0.4917,-0.8936,-0.732,0.366,0.061,151.024,3.362,-88.583
12977,-0.0562,0.4927,-0.8916,-0.732,0.244,0.061,151.018,3.356,-88.583
12987,-0.0571,0.4912,-0.8872,-0.488,0.122,-0.122,151.013,3.356,-88.583
12997,-0.0576,0.4902,-0.8892,-0.366,0.061,-0.305,151.013,3.356,-88.577
13007,-0.0557,0.4907,-0.8911,-0.427,0.244,-0.305,151.007,3.351,-88.572
13017,-0.0557,0.4912,-0.8892,-0.488,0.549,-0.305,151.007,3.345,-88.566
13027,-0.0518,0.4917,-0.8892,-0.305,0.793,-0.366,151.002,3.340,-88.561
13037,-0.0542,0.4897,-0.8911,0.061,0.916,-0.427,151.007,3.329,-88.555
13047,-0.0537,0.4893,-0.8940,0.427,1.038,-0.366,151.013,3.318,-88.544
13057,-0.0537,0.4829,-0.8960,0.610,1.221,-0.244,151.029,3.307,-88.539
13067,-0.0518,0.4819,-0.8979,0.549,1.282,-0.061,151.040,3.290,-88.528
13077,-0.0513,0.4829,-0.8940,0.366,0.977,0.122,151.051,3.279,-88.528
13087,-0.0532,0.4844,-0.8979,0.183,0.488,0.244,151.057,3.268,-88.528
13097,-0.0552,0.4868,-0.8999,0.061,0.183,0.244,151.062,3.268,-88.528
13107,-0.0537,0.4863,-0.9019,-0.183,-0.061,0.183,151.068,3.263,-88.528
13117,-0.0518,0.4844,-0.9023,-0.366,-0.122,0.183,151.073,3.257,-88.533
13127,-0.0522,0.4829,-0.8994,-0.610,-0.305,0.183,151.073,3.257,-88.533
13137,-0.0552,0.4854,-0.8975,-0.854,-0.671,0.183,151.068,3.263,-88.539
13147,-0.0552,0.4873,-0.8960,-0.732,-0.854,0.305,151.062,3.263,-88.544
13157,-0.0562,0.4854,-0.8975,-0.427,-0.854,0.366,151.068,3.268,-88.555
13167,-0.0576,0.4873,-0.8911,-0.122,-0.732,0.488,151.068,3.274,-88.561
13177,-0.0586,0.4873,-0.8892,0.000,-0.671,0.549,151.068,3.279,-88.572
13187,-0.0571,0.4888,-0.8853,0.061,-0.671,0.610,151.068,3.279,-88.577
13197,-0.0576,0.4912,-0.8838,0.000,-0.671,0.488,151.068,3.285,-88.588
13207,-0.0571,0.4946,-0.8848,-0.122,-0.488,0.366,151.062,3.285,-88.594
13217,-0.0562,0.4976,-0.8872,0.000,0.000,0.183,151.057,3.285,-88.594
13227,-0.0552,0.4976,-0.8867,0.244,0.427,-0.061,151.057,3.279,-88.588
13237,-0.0537,0.4946,-0.8887,0.366,0.793,-0.183,151.062,3.268,-88.583
13247,-0.0581,0.4932,-0.8896,0.305,0.793,-0.305,151.062,3.263,-88.577
13257,-0.0566,0.4917,-0.8887,0.183,0.793,-0.366,151.062,3.257,-88.572
13267,-0.0586,0.4927,-0.8945,0.244,0.854,-0.427,151.068,3.252,-88.561
13277,-0.0562,0.4922,-0.8989,0.366,0.977,-0.427,151.073,3.246,-88.555
13287,-0.0508,0.4902,-0.9004,0.549,0.916,-0.488,151.084,3.235,-88.544
13297,-0.0488,0.4863,-0.9004,0.610,0.610,-0.488,151.095,3.224,-88.539
13307,-0.0493,0.4839,-0.8955,0.366,0.000,-0.427,151.106,3.224,-88.533
13317,-0.0537,0.4814,-0.8940,0.000,-0.488,-0.366,151.111,3.230,-88.533
13327,-0.0557,0.4775,-0.8950,-0.061,-0.488,-0.244,151.117,3.235,-88.533
13337,-0.0552,0.4800,-0.8926,-0.122,-0.061,-0.061,151.122,3.230,-88.533
13347,-0.0527,0.4819,-0.8955,-0.122,0.244,0.183,151.128,3.224,-88.533
13357,-0.0522,0.4849,-0.8945,0.061,0.366,0.366,151.133,3.219,-88.539
13367,-0.0508,0.4858,-0.8975,0.061,0.183,0.488,151.139,3.214,-88.539
13377,-0.0518,0.4893,-0.9009,-0.122,-0.122,0.427,151.139,3.208,-88.544
13387,-0.0547,0.4902,-0.8999,-0.244,-0.427,0.366,151.139,3.208,-88.550
13397,-0.0562,0.4922,-0.9009,-0.488,-0.610,0.244,151.133,3.214,-88.555
13407,-0.0547,0.4927,-0.9014,-0.610,-0.671,0.061,151.133,3.214,-88.561
13417,-0.0552,0.4917,-0.9019,-0.793,-0.793,-0.122,151.128,3.219,-88.561
13427,-0.0571,0.4893,-0.8994,-0.977,-1.099,-0.183,151.122,3.230,-88.566
13437,-0.0596,0.4888,-0.8931,-1.099,-1.465,-0.244,151.111,3.246,-88.572
13447,-0.0610,0.4858,-0.8950,-0.977,-1.770,-0.244,151.106,3.263,-88.577
13457,-0.0601,0.4883,-0.8926,-0.732,-1.709,-0.183,151.100,3.279,-88.583
13467,-0.0562,0.4893,-0.8862,-0.366,-1.587,-0.061,151.095,3.296,-88.588
13477,-0.0542,0.4873,-0.8848,-0.061,-1.404,-0.061,151.095,3.307,-88.594
13487,-0.0562,0.4854,-0.8867,0.000,-1.221,-0.061,151.095,3.312,-88.599
13497,-0.0586,0.4858,-0.8872,-0.244,-0.854,-0.061,151.095,3.323,-88.605
13507,-0.0596,0.4868,-0.8877,-0.549,-0.366,0.000,151.089,3.323,-88.605
13517,-0.0586,0.4873,-0.8872,-0.610,0.183,-0.061,151.089,3.323,-88.605
13527,-0.0562,0.4878,-0.8867,-0.488,0.305,-0.061,151.084,3.318,-88.605
13537,-0.0581,0.4878,-0.8892,-0.244,0.244,0.000,151.084,3.318,-88.605
13547,-0.0586,0.4897,-0.8877,-0.061,0.183,0.183,151.084,3.312,-88.605
13557,-0.0571,0.4902,-0.8882,0.244,0.183,0.366,151.084,3.312,-88.605
13567,-0.0576,0.4912,-0.8911,0.427,0.061,0.366,151.089,3.307,-88.610
13577,-0.0566,0.4912,-0.8940,0.305,0.000,0.244,151.095,3.307,-88.610
13587,-0.0552,0.4946,-0.8989,0.122,0.000,0.122,151.095,3.301,-88.610
13597,-0.0532,0.4961,-0.8975,-0.122,0.061,-0.061,151.095,3.296,-88.610
13607,-0.0537,0.4941,-0.8979,-0.305,0.061,-0.244,151.089,3.296,-88.610
13617,-0.0557,0.4912,-0.8960,-0.549,-0.122,-0.488,151.089,3.296,-88.605
13627,-0.0562,0.4912,-0.8960,-0.732,-0.488,-0.610,151.084,3.301,-88.599
13637,-0.0576,0.4912,-0.8936,-0.854,-0.793,-0.488,151.073,3.312,-88.599
13647,-0.0562,0.4932,-0.8906,-0.671,-0.854,-0.366,151.068,3.318,-88.599
13657,-0.0537,0.4917,-0.8931,-0.305,-0.732,-0.427,151.068,3.323,-88.599
13667,-0.0522,0.4902,-0.8901,0.122,-0.549,-0.549,151.068,3.329,-88.599
13677,-0.0518,0.4858,-0.8906,0.366,-0.427,-0.671,151.073,3.329,-88.599
13687,-0.0522,0.4824,-0.8940,0.244,-0.244,-0.610,151.084,3.334,-88.599
13697,-0.0542,0.4834,-0.8940,-0.183,-0.183,-0.549,151.089,3.334,-88.599
13707,-0.0562,0.4849,-0.8916,-0.427,-0.183,-0.366,151.089,3.334,-88.599
13717,-0.0605,0.4824,-0.8896,-0.427,-0.305,-0.183,151.089,3.340,-88.599
13727,-0.0620,0.4849,-0.8901,-0.183,-0.427,0.000,151.089,3.345,-88.599
13737,-0.0610,0.4873,-0.8921,0.061,-0.427,0.244,151.089,3.351,-88.599
13747,-0.0620,0.4883,-0.8931,0.305,-0.366,0.305,151.095,3.351,-88.599
13757,-0.0596,0.4878,-0.8906,0.305,-0.366,0.366,151.100,3.351,-88.599
13767,-0.0605,0.4873,-0.8911,-0.061,-0.366,0.244,151.100,3.356,-88.599
13777,-0.0605,0.4873,-0.8887,-0.305,-0.366,0.183,151.100,3.356,-88.599
13787,-0.0625,0.4893,-0.8911,-0.488,-0.244,0.244,151.095,3.362,-88.599
13797,-0.0586,0.4922,-0.8882,-0.488,-0.122,0.183,151.089,3.362,-88.599
13807,-0.0601,0.4917,-0.8877,-0.244,-0.122,0.183,151.089,3.362,-88.599
13817,-0.0605,0.4907,-0.8867,0.000,-0.244,0.122,151.089,3.362,-88.599
13827,-0.0610,0.4917,-0.8896,0.061,-0.305,0.000,151.089,3.367,-88.599
13837,-0.0610,0.4902,-0.8892,0.000,-0.183,0.000,151.089,3.367,-88.599
13847,-0.0596,0.4907,-0.8848,-0.061,0.061,-0.061,151.084,3.367,-88.599
13858,-0.0601,0.4917,-0.8896,0.061,0.183,-0.122,151.089,3.367,-88.599
13867,-0.0552,0.4941,-0.8936,0.122,0.366,-0.305,151.089,3.362,-88.599
13877,-0.0537,0.4961,-0.8936,0.061,0.244,-0.366,151.089,3.362,-88.599
13887,-0.0552,0.4927,-0.8945,-0.122,0.000,-0.488,151.089,3.356,-88.599
13897,-0.0581,0.4932,-0.8975,-0.366,-0.122,-0.732,151.084,3.362,-88.599
13907,-0.0586,0.4932,-0.8989,-0.671,-0.061,-0.916,151.078,3.367,-88.599
13917,-0.0557,0.4907,-0.9004,-0.549,0.183,-1.038,151.078,3.367,-88.594
13927,-0.0537,0.4893,-0.8994,-0.366,0.183,-1.160,151.078,3.367,-88.583
13937,-0.0542,0.4854,-0.8979,-0.366,-0.122,-1.160,151.084,3.373,-88.572
13947,-0.0562,0.4824,-0.8960,-0.549,-0.671,-1.099,151.084,3.378,-88.566
13957,-0.0576,0.4800,-0.8950,-0.671,-1.221,-0.916,151.084,3.395,-88.561
13967,-0.0586,0.4800,-0.8911,-0.793,-1.282,-0.732,151.084,3.406,-88.561
13977,-0.0601,0.4810,-0.8911,-0.793,-1.038,-0.549,151.078,3.417,-88.561
13987,-0.0576,0.4805,-0.8911,-0.610,-0.610,-0.366,151.078,3.422,-88.561
13997,-0.0566,0.4810,-0.8901,-0.305,-0.366,-0.244,151.084,3.428,-88.561
14007,-0.0562,0.4795,-0.8916,-0.183,-0.366,-0.061,151.084,3.428,-88.561
14017,-0.0581,0.4834,-0.8931,-0.061,-0.366,0.000,151.089,3.428,-88.566
14027,-0.0591,0.4829,-0.8926,-0.061,-0.183,0.061,151.095,3.428,-88.566
14037,-0.0586,0.4829,-0.8926,0.000,-0.183,0.183,151.100,3.428,-88.572
14047,-0.0596,0.4839,-0.8916,0.061,-0.244,0.244,151.106,3.428,-88.572
14057,-0.0605,0.4829,-0.8901,-0.061,-0.427,0.244,151.106,3.433,-88.577
14067,-0.0625,0.4839,-0.8926,-0.122,-0.549,0.366,151.111,3.433,-88.583
14077,-0.0601,0.4883,-0.8945,-0.122,-0.366,0.488,151.111,3.433,-88.588
14087,-0.0586,0.4907,-0.8936,0.061,-0.244,0.488,151.111,3.433,-88.594
14097,-0.0581,0.4893,-0.8926,0.305,-0.122,0.427,151.117,3.433,-88.599
14107,-0.0610,0.4912,-0.8945,0.244,-0.122,0.305,151.122,3.428,-88.599
14117,-0.0630,0.4932,-0.8960,0.000,-0.305,0.183,151.122,3.433,-88.605
14127,-0.0605,0.4927,-0.8955,-0.305,-0.549,0.061,151.117,3.439,-88.610
14137,-0.0610,0.4932,-0.8931,-0.488,-0.854,-0.122,151.111,3.444,-88.610
14147,-0.0605,0.4932,-0.8901,-0.488,-0.916,-0.305,151.106,3.455,-88.610
14157,-0.0605,0.4917,-0.8896,-0.427,-0.854,-0.366,151.100,3.461,-88.616
14167,-0.0625,0.4878,-0.8877,-0.244,-0.732,-0.366,151.100,3.472,-88.616
14177,-0.0605,0.4878,-0.8887,-0.183,-0.427,-0.427,151.100,3.477,-88.610
14187,-0.0620,0.4868,-0.8857,-0.122,-0.122,-0.427,151.100,3.483,-88.610
14197,-0.0610,0.4878,-0.8872,-0.122,0.183,-0.305,151.100,3.477,-88.605
14207,-0.0605,0.4854,-0.8896,-0.061,0.305,-0.183,151.100,3.477,-88.605
14217,-0.0615,0.4854,-0.8911,0.122,0.427,-0.122,151.106,3.472,-88.599
14227,-0.0591,0.4858,-0.8906,0.183,0.610,-0.061,151.111,3.466,-88.594
14237,-0.0601,0.4849,-0.8950,0.244,0.610,0.061,151.117,3.461,-88.594
14247,-0.0586,0.4863,-0.8945,0.244,0.549,0.122,151.122,3.455,-88.594
14257,-0.0601,0.4863,-0.8940,0.183,0.366,0.183,151.128,3.450,-88.594
14267,-0.0615,0.4868,-0.8960,0.000,0.061,0.183,151.133,3.450,-88.594
14277,-0.0615,0.4897,-0.8945,-0.244,-0.061,0.183,151.133,3.450,-88.594
14287,-0.0601,0.4902,-0.8911,-0.305,-0.183,0.244,151.128,3.450,-88.599
14297,-0.0581,0.4932,-0.8940,-0.244,-0.183,0.183,151.128,3.444,-88.599
14307,-0.0576,0.4946,-0.8945,-0.061,0.061,0.000,151.128,3.444,-88.599
14317,-0.0581,0.4946,-0.8960,0.061,0.244,-0.183,151.128,3.439,-88.599
14327,-0.0562,0.4912,-0.8975,0.122,0.305,-0.366,151.128,3.439,-88.594
14337,-0.0552,0.4893,-0.8955,0.000,0.061,-0.427,151.133,3.433,-88.588
14347,-0.0557,0.4858,-0.8960,-0.244,-0.305,-0.488,151.133,3.439,-88.588
14358,-0.0581,0.4854,-0.8936,-0.427,-0.427,-0.427,151.133,3.439,-88.583
14367,-0.0596,0.4839,-0.8916,-0.366,-0.549,-0.305,151.133,3.444,-88.583
14377,-0.0601,0.4810,-0.8906,-0.244,-0.488,-0.122,151.133,3.450,-88.583
14387,-0.0605,0.4800,-0.8896,-0.122,-0.427,0.061,151.139,3.455,-88.588
14397,-0.0601,0.4795,-0.8911,0.000,-0.183,0.244,151.144,3.455,-88.588
14407,-0.0576,0.4790,-0.8892,0.122,0.000,0.427,151.150,3.450,-88.594
14417,-0.0566,0.4800,-0.8926,0.000,0.000,0.488,151.155,3.444,-88.599
14427,-0.0591,0.4814,-0.8892,-0.122,0.061,0.549,151.161,3.439,-88.605
14437,-0.0586,0.4829,-0.8916,-0.061,0.122,0.610,151.161,3.433,-88.610
14447,-0.0601,0.4863,-0.8916,0.061,0.244,0.671,151.166,3.428,-88.616
14457,-0.0596,0.4902,-0.8921,0.122,0.305,0.671,151.166,3.422,-88.616
14467,-0.0610,0.4922,-0.8921,0.244,0.305,0.610,151.166,3.417,-88.621
14477,-0.0601,0.4927,-0.8921,0.305,0.244,0.549,151.172,3.411,-88.627
14487,-0.0601,0.4937,-0.8931,0.305,0.305,0.488,151.172,3.406,-88.627
14497,-0.0601,0.4966,-0.8931,0.122,0.366,0.427,151.172,3.400,-88.632
14507,-0.0581,0.4985,-0.8940,0.061,0.366,0.305,151.166,3.395,-88.632
14517,-0.0586,0.4971,-0.8936,0.122,0.244,0.122,151.166,3.389,-88.632
14527,-0.0576,0.4990,-0.8955,0.061,0.122,-0.183,151.166,3.389,-88.627
14537,-0.0571,0.4976,-0.8936,-0.183,0.183,-0.366,151.161,3.384,-88.627
14547,-0.0596,0.4961,-0.8950,-0.366,0.183,-0.549,151.155,3.389,-88.621
14557,-0.0586,0.4937,-0.8940,-0.549,0.244,-0.793,151.150,3.389,-88.610
14567,-0.0566,0.4907,-0.8906,-0.488,0.366,-0.977,151.144,3.389,-88.599
14577,-0.0571,0.4868,-0.8965,-0.305,0.488,-1.099,151.144,3.384,-88.588
14587,-0.0566,0.4819,-0.8970,-0.061,0.549,-1.099,151.150,3.384,-88.577
14597,-0.0557,0.4790,-0.8936,0.061,0.427,-0.977,151.161,3.384,-88.566
14607,-0.0562,0.4766,-0.8926,0.061,0.183,-0.793,151.166,3.384,-88.555
14617,-0.0552,0.4751,-0.8911,0.061,-0.122,-0.610,151.177,3.384,-88.550
14627,-0.0552,0.4727,-0.8931,0.000,-0.122,-0.366,151.188,3.384,-88.550
14637,-0.0547,0.4771,-0.8965,-0.061,0.183,-0.061,151.194,3.378,-88.550
14647,-0.0532,0.4800,-0.8955,0.061,0.427,0.244,151.199,3.373,-88.550
14657,-0.0547,0.4805,-0.8979,0.244,0.427,0.427,151.210,3.362,-88.550
14667,-0.0537,0.4849,-0.8975,0.122,0.244,0.488,151.216,3.356,-88.555
14677,-0.0547,0.4878,-0.8994,-0.061,-0.061,0.427,151.216,3.351,-88.555
14687,-0.0576,0.4893,-0.9043,-0.183,-0.122,0.305,151.221,3.351,-88.561
14697,-0.0571,0.4878,-0.9048,-0.427,-0.122,0.122,151.221,3.345,-88.561
14707,-0.0576,0.4883,-0.9028,-0.793,-0.366,0.000,151.216,3.351,-88.566
14717,-0.0596,0.4897,-0.9014,-1.038,-0.916,-0.061,151.205,3.356,-88.566
14727,-0.0591,0.4912,-0.8994,-1.099,-1.343,-0.061,151.199,3.367,-88.572
14737,-0.0615,0.4927,-0.8950,-1.038,-1.648,-0.122,151.188,3.384,-88.583
14747,-0.0620,0.4883,-0.8921,-0.854,-1.770,-0.183,151.177,3.400,-88.588
14757,-0.0601,0.4902,-0.8872,-0.732,-1.831,-0.244,151.172,3.417,-88.594
14767,-0.0625,0.4888,-0.8838,-0.610,-1.648,-0.305,151.161,3.433,-88.599
14777,-0.0615,0.4883,-0.8813,-0.610,-1.404,-0.366,151.155,3.450,-88.605
14787,-0.0640,0.4907,-0.8813,-0.610,-0.854,-0.366,151.144,3.461,-88.605
14797,-0.0615,0.4888,-0.8813,-0.549,-0.183,-0.366,151.139,3.466,-88.599
14807,-0.0615,0.4883,-0.8833,-0.305,0.244,-0.305,151.133,3.466,-88.599
14817,-0.0610,0.4878,-0.8853,0.061,0.427,-0.244,151.133,3.461,-88.594
14827,-0.0605,0.4873,-0.8882,0.183,0.488,-0.305,151.139,3.461,-88.588
14837,-0.0615,0.4873,-0.8926,0.122,0.610,-0.244,151.144,3.455,-88.583
14847,-0.0635,0.4878,-0.8921,0.000,0.671,-0.183,151.144,3.450,-88.577
14858,-0.0610,0.4893,-0.8940,-0.061,0.732,-0.183,151.144,3.444,-88.572
14867,-0.0610,0.4883,-0.8940,0.183,0.854,-0.183,151.150,3.439,-88.566
14877,-0.0586,0.4893,-0.8965,0.305,0.793,-0.183,151.155,3.428,-88.561
14887,-0.0591,0.4883,-0.9009,0.427,0.793,-0.244,151.166,3.422,-88.555
14897,-0.0581,0.4873,-0.9033,0.305,0.671,-0.183,151.172,3.417,-88.550
14907,-0.0581,0.4873,-0.8994,0.000,0.305,-0.183,151.177,3.411,-88.550
14917,-0.0566,0.4834,-0.8979,-0.244,-0.183,-0.305,151.177,3.411,-88.544
14927,-0.0586,0.4854,-0.8970,-0.488,-0.610,-0.366,151.177,3.417,-88.544
14937,-0.0576,0.4902,-0.8960,-0.732,-0.854,-0.305,151.172,3.428,-88.550
14947,-0.0562,0.4902,-0.8931,-0.671,-0.732,-0.244,151.166,3.433,-88.550
14958,-0.0566,0.4897,-0.8950,-0.366,-0.549,-0.305,151.166,3.433,-88.550
14968,-0.0566,0.4888,-0.8950,-0.183,-0.366,-0.488,151.166,3.439,-88.544
14977,-0.0581,0.4868,-0.8975,0.000,-0.244,-0.549,151.166,3.439,-88.544
14988,-0.0581,0.4834,-0.8955,0.061,-0.183,-0.488,151.172,3.444,-88.539
14998,-0.0586,0.4805,-0.8926,0.000,-0.244,-0.427,151.177,3.444,-88.539
15008,-0.0610,0.4805,-0.8940,-0.122,-0.366,-0.244,151.183,3.450,-88.539
15018,-0.0605,0.4834,-0.8916,-0.183,-0.549,0.122,151.183,3.455,-88.539
15028,-0.0610,0.4849,-0.8892,0.000,-0.610,0.366,151.188,3.455,-88.544
15038,-0.0620,0.4858,-0.8906,0.122,-0.427,0.549,151.188,3.461,-88.555
15048,-0.0601,0.4878,-0.8921,0.305,-0.122,0.549,151.194,3.455,-88.561
15058,-0.0605,0.4878,-0.8931,0.305,0.183,0.549,151.199,3.450,-88.561
15068,-0.0596,0.4878,-0.8921,0.061,0.183,0.488,151.199,3.444,-88.566
15078,-0.0605,0.4907,-0.8911,-0.183,0.061,0.366,151.199,3.444,-88.572
15088,-0.0625,0.4917,-0.8926,-0.305,-0.061,0.244,151.194,3.444,-88.572
15098,-0.0615,0.4937,-0.8945,-0.244,-0.183,0.122,151.188,3.444,-88.572
15108,-0.0645,0.4922,-0.8950,-0.183,-0.305,0.061,151.188,3.450,-88.577
15118,-0.0645,0.4907,-0.8931,-0.061,-0.305,-0.061,151.188,3.455,-88.577
15128,-0.0615,0.4897,-0.8936,-0.061,-0.305,-0.183,151.188,3.455,-88.577
15138,-0.0615,0.4907,-0.8940,-0.244,-0.366,-0.244,151.188,3.461,-88.577
15148,-0.0591,0.4902,-0.8906,-0.366,-0.549,-0.366,151.183,3.466,-88.577
15158,-0.0605,0.4873,-0.8901,-0.244,-0.488,-0.305,151.183,3.472,-88.577
15168,-0.0601,0.4883,-0.8896,-0.183,-0.305,-0.305,151.183,3.477,-88.572
15178,-0.0601,0.4883,-0.8921,0.000,-0.122,-0.366,151.183,3.477,-88.572
15188,-0.0581,0.4878,-0.8901,0.122,-0.061,-0.366,151.183,3.477,-88.566
15198,-0.0581,0.4878,-0.8892,0.000,0.000,-0.427,151.183,3.477,-88.566
15208,-0.0601,0.4883,-0.8901,-0.183,0.122,-0.488,151.183,3.477,-88.561
15218,-0.0601,0.4878,-0.8906,-0.244,0.366,-0.488,151.183,3.477,-88.555
15228,-0.0610,0.4878,-0.8950,-0.183,0.610,-0.549,151.183,3.472,-88.544
15238,-0.0596,0.4873,-0.8955,-0.061,0.732,-0.488,151.188,3.466,-88.539
15248,-0.0586,0.4844,-0.8994,0.061,0.427,-0.366,151.194,3.461,-88.533
15258,-0.0591,0.4854,-0.8989,-0.061,-0.122,-0.305,151.194,3.466,-88.533
15268,-0.0581,0.4858,-0.8994,-0.305,-0.610,-0.244,151.199,3.466,-88.533
15278,-0.0591,0.4878,-0.8950,-0.488,-0.916,-0.183,151.194,3.477,-88.533
15288,-0.0586,0.4868,-0.8936,-0.610,-0.793,-0.244,151.188,3.483,-88.539
15298,-0.0591,0.4873,-0.8921,-0.610,-0.732,-0.305,151.188,3.488,-88.539
15308,-0.0596,0.4897,-0.8936,-0.671,-0.671,-0.305,151.183,3.494,-88.539
15318,-0.0586,0.4893,-0.8926,-0.610,-0.549,-0.305,151.177,3.499,-88.539
15328,-0.0576,0.4902,-0.8936,-0.488,-0.427,-0.305,151.172,3.499,-88.539
15338,-0.0601,0.4883,-0.8940,-0.366,-0.366,-0.305,151.172,3.505,-88.533
15348,-0.0596,0.4858,-0.8926,-0.183,-0.366,-0.305,151.172,3.505,-88.533
15359,-0.0615,0.4839,-0.8926,-0.122,-0.366,-0.244,151.172,3.510,-88.533
15368,-0.0610,0.4854,-0.8921,-0.061,-0.305,-0.061,151.177,3.516,-88.533
15378,-0.0620,0.4849,-0.8906,-0.183,-0.244,0.000,151.177,3.516,-88.539
15388,-0.0620,0.4858,-0.8921,-0.244,-0.305,0.061,151.177,3.516,-88.539
15398,-0.0625,0.4834,-0.8906,-0.122,-0.366,0.122,151.177,3.521,-88.544
15408,-0.0605,0.4839,-0.8901,0.061,-0.305,0.244,151.183,3.521,-88.544
15418,-0.0630,0.4863,-0.8896,0.305,-0.183,0.305,151.183,3.521,-88.550
15428,-0.0625,0.4863,-0.8887,0.366,0.000,0.427,151.188,3.521,-88.555
15438,-0.0615,0.4878,-0.8896,0.305,0.122,0.488,151.194,3.516,-88.555
15448,-0.0630,0.4888,-0.8916,0.244,0.183,0.488,151.194,3.510,-88.561
15458,-0.0610,0.4917,-0.8911,0.183,0.244,0.427,151.199,3.505,-88.561
15468,-0.0615,0.4912,-0.8926,0.122,0.244,0.427,151.199,3.505,-88.566
15478,-0.0620,0.4917,-0.8931,0.183,0.244,0.427,151.199,3.499,-88.566
15488,-0.0625,0.4922,-0.8931,0.244,0.244,0.366,151.199,3.494,-88.572
15498,-0.0615,0.4912,-0.8911,0.244,0.244,0.305,151.205,3.488,-88.572
15508,-0.0620,0.4917,-0.8936,0.244,0.244,0.244,151.205,3.488,-88.572
15518,-0.0635,0.4937,-0.8921,0.244,0.244,0.183,151.205,3.483,-88.572
15528,-0.0601,0.4927,-0.8931,0.122,0.244,0.122,151.205,3.483,-88.572
15538,-0.0610,0.4917,-0.8950,0.122,0.183,0.061,151.205,3.477,-88.572
15548,-0.0620,0.4912,-0.8960,0.061,0.122,0.000,151.210,3.477,-88.572
15558,-0.0610,0.4922,-0.8960,0.000,0.000,-0.061,151.210,3.477,-88.572
15568,-0.0625,0.4888,-0.8945,0.000,-0.122,-0.122,151.210,3.477,-88.572
15578,-0.0630,0.4868,-0.8916,0.000,-0.122,-0.244,151.210,3.483,-88.566
15588,-0.0635,0.4858,-0.8916,-0.244,-0.061,-0.366,151.210,3.483,-88.566
15598,-0.0605,0.4868,-0.8921,-0.549,0.000,-0.244,151.205,3.483,-88.566
15608,-0.0601,0.4883,-0.8916,-0.427,0.061,-0.061,151.205,3.483,-88.566
15618,-0.0615,0.4888,-0.8936,-0.183,0.000,-0.061,151.205,3.483,-88.566
15628,-0.0601,0.4893,-0.8936,0.183,0.061,0.000,151.205,3.483,-88.566
15638,-0.0605,0.4873,-0.8955,0.549,0.183,0.061,151.216,3.477,-88.566
15648,-0.0610,0.4858,-0.8911,0.671,0.122,0.000,151.221,3.477,-88.566
15658,-0.0591,0.4834,-0.8931,0.427,0.061,0.000,151.232,3.477,-88.566
15668,-0.0610,0.4849,-0.8911,-0.122,-0.061,0.000,151.232,3.477,-88.566
15678,-0.0640,0.4868,-0.8901,-0.488,-0.183,0.061,151.227,3.477,-88.566
15688,-0.0635,0.4873,-0.8955,-0.366,-0.183,0.244,151.227,3.477,-88.566
15698,-0.0630,0.4878,-0.8936,-0.122,-0.183,0.305,151.227,3.483,-88.566
15708,-0.0645,0.4873,-0.8936,0.122,-0.122,0.427,151.227,3.483,-88.566
15718,-0.0620,0.4858,-0.8896,0.366,0.000,0.488,151.232,3.477,-88.566
15728,-0.0610,0.4844,-0.8921,0.366,-0.061,0.549,151.238,3.477,-88.566
15738,-0.0615,0.4858,-0.8901,0.183,-0.122,0.549,151.243,3.477,-88.566
15748,-0.0635,0.4888,-0.8882,-0.061,-0.061,0.488,151.238,3.472,-88.566
15758,-0.0630,0.4932,-0.8926,-0.183,0.244,0.488,151.238,3.472,-88.566
15768,-0.0625,0.4946,-0.8901,0.000,0.549,0.488,151.232,3.461,-88.566
15778,-0.0615,0.4927,-0.8921,0.244,0.671,0.366,151.232,3.455,-88.566
15788,-0.0610,0.4922,-0.8896,0.244,0.610,0.183,151.232,3.450,-88.566
15798,-0.0615,0.4937,-0.8931,0.122,0.366,0.061,151.232,3.444,-88.566
15808,-0.0630,0.4941,-0.8916,0.061,0.305,0.061,151.232,3.444,-88.566
15818,-0.0615,0.4937,-0.8916,0.000,0.244,0.000,151.232,3.444,-88.566
15828,-0.0601,0.4927,-0.8896,0.061,0.305,-0.183,151.227,3.439,-88.566
15838,-0.0591,0.4902,-0.8906,0.183,0.366,-0.305,151.232,3.439,-88.566
15848,-0.0596,0.4907,-0.8901,0.183,0.427,-0.305,151.232,3.433,-88.566
15858,-0.0601,0.4893,-0.8887,0.183,0.366,-0.366,151.232,3.433,-88.566
15868,-0.0596,0.4902,-0.8906,0.183,0.488,-0.366,151.232,3.428,-88.566
15878,-0.0576,0.4912,-0.8950,0.183,0.610,-0.305,151.238,3.422,-88.566
15888,-0.0562,0.4902,-0.8955,0.244,0.732,-0.305,151.238,3.417,-88.566
15898,-0.0562,0.4873,-0.8984,0.366,0.610,-0.366,151.249,3.406,-88.566
15908,-0.0562,0.4844,-0.9004,0.305,0.427,-0.488,151.254,3.406,-88.566
15918,-0.0566,0.4824,-0.8999,0.061,0.244,-0.427,151.260,3.400,-88.566
15928,-0.0596,0.4810,-0.8979,-0.183,0.000,-0.366,151.265,3.406,-88.566
15938,-0.0596,0.4814,-0.8970,-0.366,-0.244,-0.244,151.265,3.406,-88.566
15948,-0.0586,0.4810,-0.8955,-0.366,-0.305,0.000,151.271,3.406,-88.566
15958,-0.0591,0.4834,-0.8950,-0.244,-0.244,0.183,151.271,3.406,-88.566
15968,-0.0596,0.4819,-0.8916,0.122,-0.244,0.366,151.276,3.406,-88.566
15978,-0.0586,0.4814,-0.8906,0.366,-0.183,0.549,151.282,3.406,-88.566
15988,-0.0591,0.4854,-0.8921,0.366,-0.183,0.671,151.287,3.406,-88.566
15998,-0.0581,0.4873,-0.8931,0.305,-0.183,0.671,151.287,3.400,-88.566
16008,-0.0586,0.4868,-0.8945,0.244,-0.122,0.610,151.293,3.395,-88.566
16018,-0.0605,0.4888,-0.8960,0.000,-0.061,0.488,151.293,3.395,-88.566
16028,-0.0601,0.4897,-0.8970,-0.244,-0.122,0.305,151.293,3.395,-88.566
16038,-0.0649,0.4897,-0.8965,-0.305,-0.305,0.244,151.287,3.400,-88.566
16048,-0.0674,0.4912,-0.8945,-0.366,-0.549,0.305,151.282,3.406,-88.566
16058,-0.0645,0.4922,-0.8921,-0.244,-0.793,0.366,151.282,3.411,-88.566
16068,-0.0659,0.4902,-0.8896,0.000,-0.916,0.305,151.276,3.422,-88.566
16078,-0.0649,0.4878,-0.8901,0.122,-0.916,0.305,151.276,3.433,-88.566
16088,-0.0640,0.4883,-0.8867,0.122,-0.793,0.305,151.276,3.439,-88.566
16098,-0.0654,0.4922,-0.8877,0.000,-0.427,0.305,151.276,3.444,-88.566
16108,-0.0645,0.4912,-0.8848,-0.061,-0.061,0.305,151.271,3.444,-88.566
16118,-0.0645,0.4927,-0.8862,0.061,0.183,0.244,151.265,3.444,-88.566
16128,-0.0645,0.4927,-0.8867,0.122,0.305,0.122,151.265,3.444,-88.566
16138,-0.0625,0.4946,-0.8877,0.244,0.488,0.061,151.265,3.439,-88.566
16148,-0.0649,0.4888,-0.8916,0.366,0.549,-0.061,151.271,3.439,-88.566
16158,-0.0649,0.4893,-0.8931,0.244,0.610,-0.244,151.271,3.433,-88.566
16168,-0.0635,0.4883,-0.8940,0.000,0.610,-0.244,151.271,3.433,-88.566
16178,-0.0605,0.4883,-0.8945,-0.122,0.488,-0.244,151.271,3.428,-88.566
16188,-0.0625,0.4854,-0.8936,-0.122,0.305,-0.122,151.271,3.428,-88.566
16198,-0.0620,0.4868,-0.8945,0.061,0.244,0.000,151.276,3.428,-88.566
16208,-0.0605,0.4883,-0.8931,0.183,0.305,0.183,151.276,3.422,-88.566
16218,-0.0596,0.4897,-0.8940,0.488,0.305,0.305,151.282,3.417,-88.566
16228,-0.0581,0.4897,-0.8940,0.549,0.305,0.244,151.287,3.411,-88.566
16238,-0.0605,0.4912,-0.8931,0.305,0.305,0.122,151.293,3.406,-88.566
16248,-0.0630,0.4907,-0.8916,0.122,0.183,0.000,151.293,3.406,-88.566
16258,-0.0640,0.4858,-0.8901,-0.122,0.122,-0.122,151.287,3.411,-88.566
16268,-0.0630,0.4897,-0.8931,-0.366,0.183,-0.122,151.287,3.411,-88.566
16278,-0.0635,0.4922,-0.8940,-0.305,0.366,0.061,151.282,3.406,-88.566
16288,-0.0605,0.4902,-0.8945,-0.061,0.305,0.183,151.282,3.406,-88.566
16298,-0.0571,0.4922,-0.8921,0.305,0.183,0.061,151.282,3.400,-88.566
16308,-0.0576,0.4922,-0.8940,0.488,0.061,-0.122,151.287,3.400,-88.566
16318,-0.0586,0.4893,-0.8950,0.549,0.000,-0.183,151.293,3.400,-88.566
16328,-0.0596,0.4873,-0.8965,0.244,-0.061,-0.183,151.298,3.400,-88.566
16338,-0.0601,0.4844,-0.8950,-0.122,-0.061,-0.183,151.298,3.400,-88.566
16348,-0.0620,0.4819,-0.8945,-0.305,-0.122,-0.061,151.298,3.400,-88.566
16359,-0.0640,0.4824,-0.8911,-0.244,-0.122,0.061,151.298,3.406,-88.566
16368,-0.0615,0.4819,-0.8926,0.000,0.000,0.244,151.304,3.406,-88.566
16378,-0.0615,0.4805,-0.8896,0.244,0.122,0.427,151.309,3.400,-88.566
16388,-0.0610,0.4810,-0.8926,0.305,0.122,0.610,151.315,3.400,-88.566
16398,-0.0615,0.4814,-0.8906,0.305,-0.061,0.793,151.320,3.395,-88.566
16408,-0.0620,0.4834,-0.8872,0.183,0.000,0.793,151.320,3.395,-88.566
16418,-0.0654,0.4854,-0.8926,0.061,0.061,0.916,151.326,3.389,-88.566
16428,-0.0630,0.4868,-0.8911,0.000,0.244,0.916,151.326,3.389,-88.566
16438,-0.0635,0.4873,-0.8882,0.061,0.366,0.854,151.326,3.384,-88.566
16448,-0.0645,0.4902,-0.8906,0.122,0.427,0.793,151.320,3.378,-88.566
16458,-0.0630,0.4912,-0.8896,0.183,0.549,0.793,151.320,3.367,-88.566
16468,-0.0635,0.4932,-0.8901,0.244,0.610,0.732,151.320,3.362,-88.566
16478,-0.0635,0.4932,-0.8901,0.366,0.549,0.610,151.320,3.356,-88.566
16488,-0.0625,0.4956,-0.8936,0.366,0.549,0.549,151.320,3.351,-88.566
16498,-0.0630,0.4971,-0.8936,0.305,0.488,0.488,151.320,3.345,-88.566
16508,-0.0625,0.4966,-0.8931,0.183,0.488,0.244,151.320,3.340,-88.566
16518,-0.0605,0.4951,-0.8906,0.061,0.427,0.122,151.315,3.340,-88.566
16528,-0.0615,0.4927,-0.8901,-0.061,0.366,-0.061,151.309,3.334,-88.566
16538,-0.0625,0.4922,-0.8887,-0.122,0.244,-0.183,151.309,3.340,-88.566
16548,-0.0615,0.4932,-0.8911,-0.061,0.305,-0.305,151.304,3.340,-88.566
16558,-0.0591,0.4922,-0.8916,0.000,0.549,-0.366,151.304,3.334,-88.566
16568,-0.0610,0.4883,-0.8940,0.244,0.732,-0.427,151.304,3.329,-88.566
16578,-0.0586,0.4849,-0.8950,0.305,0.732,-0.488,151.309,3.329,-88.566
16588,-0.0576,0.4854,-0.8921,0.244,0.549,-0.366,151.315,3.323,-88.566
16598,-0.0591,0.4854,-0.8901,0.183,0.305,-0.244,151.320,3.323,-88.566
16608,-0.0596,0.4858,-0.8936,0.061,0.305,-0.183,151.320,3.318,-88.566
16618,-0.0605,0.4839,-0.8921,-0.061,0.366,-0.122,151.320,3.318,-88.566
16628,-0.0586,0.4849,-0.8950,-0.122,0.610,0.000,151.326,3.312,-88.566
16638,-0.0571,0.4844,-0.8960,-0.061,0.854,0.000,151.326,3.301,-88.566
16648,-0.0557,0.4844,-0.8999,-0.122,0.916,0.061,151.331,3.296,-88.566
16658,-0.0542,0.4863,-0.9004,-0.122,0.610,0.183,151.331,3.285,-88.566
16668,-0.0552,0.4854,-0.8994,-0.061,0.183,0.244,151.331,3.279,-88.566
16678,-0.0591,0.4858,-0.8999,-0.122,-0.305,0.244,151.337,3.279,-88.566
16688,-0.0610,0.4883,-0.8979,-0.244,-0.610,0.305,151.331,3.285,-88.566
16698,-0.0586,0.4883,-0.8960,-0.488,-0.793,0.244,151.331,3.290,-88.566
16708,-0.0610,0.4888,-0.8936,-0.671,-0.916,0.183,151.320,3.301,-88.566
16718,-0.0620,0.4893,-0.8931,-0.793,-0.916,0.122,151.315,3.312,-88.566
16728,-0.0615,0.4902,-0.8872,-0.793,-0.916,0.061,151.304,3.318,-88.566
16738,-0.0620,0.4902,-0.8843,-0.610,-0.854,0.122,151.293,3.329,-88.566
16748,-0.0620,0.4893,-0.8843,-0.244,-0.732,0.183,151.287,3.334,-88.566
16758,-0.0649,0.4888,-0.8857,0.122,-0.488,0.244,151.287,3.340,-88.566
16768,-0.0640,0.4883,-0.8853,0.305,-0.122,0.244,151.287,3.345,-88.566
16778,-0.0610,0.4868,-0.8853,0.305,0.122,0.305,151.293,3.345,-88.566
16788,-0.0620,0.4873,-0.8853,0.305,0.366,0.366,151.293,3.340,-88.566
16798,-0.0640,0.4897,-0.8872,0.122,0.549,0.305,151.293,3.334,-88.566
16808,-0.0640,0.4917,-0.8857,0.061,0.732,0.305,151.287,3.334,-88.566
16818,-0.0640,0.4907,-0.8901,0.122,0.793,0.183,151.287,3.329,-88.566
16828,-0.0654,0.4912,-0.8911,0.244,0.916,0.122,151.287,3.323,-88.566
16838,-0.0645,0.4902,-0.8926,0.305,0.977,0.183,151.293,3.318,-88.566
16848,-0.0620,0.4907,-0.8926,0.305,0.977,0.244,151.293,3.307,-88.566
16859,-0.0610,0.4912,-0.8945,0.244,0.854,0.244,151.298,3.301,-88.566
16868,-0.0586,0.4897,-0.8950,0.122,0.610,0.183,151.298,3.296,-88.566
16878,-0.0596,0.4912,-0.8979,-0.061,0.305,0.122,151.298,3.290,-88.566
16888,-0.0591,0.4922,-0.8999,-0.183,0.122,0.061,151.298,3.290,-88.566
16898,-0.0571,0.4932,-0.8989,-0.122,0.000,0.061,151.293,3.290,-88.566
