elapsed_ms,acc_x_g,acc_y_g,acc_z_g,gyro_x_dps,gyro_y_dps,gyro_z_dps,angle_x_deg,angle_y_deg,angle_z_deg
0,-0.0684,0.4663,-0.9092,0.610,0.793,0.183,153.007,3.428,-89.110
10,-0.0654,0.4678,-0.9121,0.366,0.671,0.122,153.007,3.422,-89.110
20,-0.0659,0.4697,-0.9131,0.061,0.488,0.000,153.007,3.422,-89.105
30,-0.0674,0.4692,-0.9111,-0.183,0.122,-0.122,153.001,3.422,-89.105
40,-0.0703,0.4687,-0.9087,-0.366,-0.244,-0.305,152.996,3.433,-89.105
50,-0.0688,0.4668,-0.9058,-0.549,-0.549,-0.488,152.985,3.444,-89.099
60,-0.0693,0.4663,-0.9048,-0.793,-0.854,-0.488,152.974,3.455,-89.099
70,-0.0684,0.4624,-0.8994,-0.977,-0.854,-0.488,152.963,3.472,-89.099
80,-0.0684,0.4629,-0.8989,-0.854,-0.549,-0.549,152.952,3.483,-89.099
90,-0.0669,0.4634,-0.8975,-0.671,0.000,-0.549,152.946,3.488,-89.094
100,-0.0659,0.4614,-0.8975,-0.366,0.427,-0.549,152.941,3.488,-89.083
110,-0.0664,0.4565,-0.8989,-0.061,0.671,-0.488,152.941,3.488,-89.077
120,-0.0659,0.4541,-0.9043,0.000,0.671,-0.427,152.946,3.488,-89.072
130,-0.0659,0.4526,-0.9033,-0.183,0.549,-0.244,152.946,3.483,-89.066
140,-0.0645,0.4521,-0.9019,-0.244,0.549,-0.061,152.952,3.483,-89.061
150,-0.0645,0.4531,-0.9019,-0.122,0.671,0.244,152.952,3.477,-89.061
160,-0.0654,0.4556,-0.9053,0.000,0.916,0.366,152.957,3.472,-89.061
170,-0.0659,0.4565,-0.9058,0.244,1.160,0.488,152.963,3.461,-89.061
180,-0.0645,0.4570,-0.9087,0.305,1.282,0.549,152.968,3.450,-89.061
190,-0.0659,0.4580,-0.9053,0.122,1.160,0.671,152.974,3.439,-89.061
200,-0.0649,0.4604,-0.9053,0.000,0.854,0.671,152.974,3.428,-89.061
210,-0.0645,0.4634,-0.9048,-0.061,0.793,0.610,152.968,3.422,-89.066
220,-0.0635,0.4653,-0.9019,0.000,0.732,0.610,152.968,3.411,-89.066
230,-0.0630,0.4668,-0.9019,0.061,0.854,0.610,152.963,3.406,-89.066
240,-0.0654,0.4668,-0.9019,0.183,0.977,0.549,152.963,3.395,-89.066
250,-0.0654,0.4678,-0.8994,0.244,1.221,0.488,152.963,3.384,-89.066
260,-0.0659,0.4697,-0.9009,0.305,1.465,0.366,152.957,3.373,-89.066
270,-0.0620,0.4692,-0.8999,0.427,1.770,0.122,152.957,3.362,-89.055
281,-0.0596,0.4692,-0.9019,0.488,2.136,0.000,152.963,3.340,-89.044
290,-0.0610,0.4658,-0.9019,0.488,2.258,-0.122,152.963,3.323,-89.033
300,-0.0591,0.4648,-0.9063,0.488,2.319,-0.244,152.968,3.301,-89.022
310,-0.0581,0.4639,-0.9077,0.427,2.258,-0.366,152.974,3.285,-89.011
320,-0.0586,0.4614,-0.9102,0.366,2.197,-0.366,152.979,3.268,-88.995
330,-0.0591,0.4580,-0.9121,0.305,2.258,-0.305,152.985,3.246,-88.984
340,-0.0547,0.4546,-0.9136,0.305,2.258,-0.244,152.996,3.230,-88.973
350,-0.0532,0.4546,-0.9185,0.305,2.319,-0.244,153.007,3.208,-88.956
360,-0.0518,0.4556,-0.9180,0.305,2.014,-0.244,153.012,3.186,-88.945
370,-0.0532,0.4512,-0.9175,0.305,1.587,-0.122,153.023,3.170,-88.940
380,-0.0532,0.4482,-0.9170,0.061,1.038,0.061,153.034,3.159,-88.934
390,-0.0552,0.4482,-0.9131,-0.366,0.610,0.305,153.040,3.153,-88.934
400,-0.0571,0.4497,-0.9092,-0.671,0.244,0.549,153.040,3.148,-88.940
410,-0.0557,0.4521,-0.9087,-0.732,0.183,0.793,153.040,3.142,-88.945
420,-0.0571,0.4561,-0.9067,-0.427,0.427,0.977,153.034,3.137,-88.951
430,-0.0566,0.4561,-0.9043,0.061,0.793,1.099,153.040,3.126,-88.956
440,-0.0586,0.4595,-0.9077,0.366,1.038,1.099,153.040,3.109,-88.962
450,-0.0576,0.4600,-0.9072,0.427,1.160,1.221,153.045,3.098,-88.967
460,-0.0581,0.4614,-0.9102,0.366,1.099,1.221,153.051,3.082,-88.973
470,-0.0581,0.4614,-0.9121,0.305,0.916,1.221,153.056,3.071,-88.978
480,-0.0581,0.4644,-0.9121,0.244,0.671,1.221,153.056,3.060,-88.989
490,-0.0571,0.4663,-0.9092,0.366,0.488,1.099,153.056,3.054,-88.995
500,-0.0562,0.4668,-0.9097,0.366,0.427,0.977,153.056,3.049,-89.000
510,-0.0566,0.4653,-0.9077,0.305,0.427,0.854,153.056,3.038,-89.006
520,-0.0571,0.4653,-0.9077,0.183,0.488,0.793,153.056,3.032,-89.011
530,-0.0591,0.4644,-0.9082,0.000,0.427,0.732,153.056,3.032,-89.017
540,-0.0586,0.4629,-0.9063,-0.183,0.366,0.610,153.056,3.027,-89.022
550,-0.0591,0.4634,-0.9067,-0.244,0.305,0.610,153.051,3.021,-89.028
560,-0.0586,0.4629,-0.9053,-0.122,0.244,0.671,153.045,3.021,-89.028
570,-0.0586,0.4619,-0.9067,0.122,0.183,0.732,153.045,3.021,-89.039
580,-0.0557,0.4634,-0.9082,0.183,0.122,0.732,153.051,3.016,-89.044
590,-0.0532,0.4634,-0.9111,0.122,0.000,0.854,153.051,3.010,-89.050
600,-0.0557,0.4658,-0.9087,-0.061,-0.183,0.854,153.045,3.010,-89.061
610,-0.0552,0.4668,-0.9097,-0.366,-0.305,0.854,153.040,3.010,-89.066
620,-0.0547,0.4683,-0.9072,-0.610,-0.366,0.732,153.029,3.010,-89.077
630,-0.0576,0.4707,-0.9082,-0.732,-0.488,0.549,153.018,3.016,-89.083
640,-0.0581,0.4727,-0.9063,-0.793,-0.732,0.244,153.001,3.021,-89.088
650,-0.0581,0.4741,-0.9077,-0.916,-0.916,0.061,152.990,3.032,-89.094
660,-0.0610,0.4741,-0.9067,-0.916,-0.977,-0.061,152.974,3.043,-89.099
670,-0.0625,0.4751,-0.9028,-0.916,-1.038,-0.244,152.957,3.060,-89.099
680,-0.0620,0.4727,-0.9009,-0.977,-0.916,-0.427,152.941,3.076,-89.099
690,-0.0601,0.4707,-0.8984,-1.038,-0.732,-0.549,152.924,3.087,-89.099
700,-0.0596,0.4702,-0.8965,-0.916,-0.427,-0.610,152.908,3.098,-89.094
710,-0.0566,0.4683,-0.8960,-0.671,0.061,-0.610,152.897,3.098,-89.088
720,-0.0562,0.4639,-0.8989,-0.366,0.610,-0.671,152.891,3.098,-89.083
730,-0.0557,0.4644,-0.9009,-0.061,1.099,-0.610,152.891,3.093,-89.072
740,-0.0542,0.4619,-0.9053,0.183,1.404,-0.549,152.897,3.082,-89.061
750,-0.0537,0.4590,-0.9077,0.366,1.465,-0.488,152.902,3.071,-89.050
760,-0.0518,0.4570,-0.9126,0.488,1.221,-0.488,152.913,3.060,-89.039
770,-0.0547,0.4556,-0.9136,0.488,0.793,-0.488,152.924,3.054,-89.028
781,-0.0552,0.4556,-0.9189,0.305,0.427,-0.427,152.935,3.054,-89.022
790,-0.0557,0.4556,-0.9199,0.061,0.061,-0.366,152.941,3.054,-89.022
800,-0.0552,0.4526,-0.9185,-0.122,-0.244,-0.183,152.946,3.060,-89.017
810,-0.0547,0.4561,-0.9146,-0.366,-0.488,-0.061,152.952,3.060,-89.022
820,-0.0547,0.4556,-0.9146,-0.488,-0.793,0.122,152.952,3.071,-89.028
830,-0.0532,0.4575,-0.9102,-0.549,-1.038,0.305,152.946,3.076,-89.033
840,-0.0547,0.4585,-0.9058,-0.427,-1.221,0.305,152.946,3.087,-89.044
850,-0.0571,0.4604,-0.9028,-0.305,-1.221,0.427,152.941,3.093,-89.050
860,-0.0591,0.4634,-0.9023,-0.244,-0.916,0.488,152.941,3.104,-89.061
870,-0.0571,0.4648,-0.9004,-0.061,-0.427,0.488,152.935,3.104,-89.066
880,-0.0586,0.4668,-0.8994,0.061,0.000,0.427,152.930,3.104,-89.072
890,-0.0601,0.4692,-0.9014,0.183,0.366,0.366,152.930,3.104,-89.072
900,-0.0586,0.4673,-0.9014,0.366,0.549,0.183,152.930,3.098,-89.072
910,-0.0591,0.4673,-0.9038,0.549,0.610,0.000,152.935,3.098,-89.066
920,-0.0571,0.4658,-0.9053,0.671,0.671,-0.122,152.935,3.093,-89.061
930,-0.0562,0.4658,-0.9058,0.610,0.854,-0.183,152.941,3.087,-89.055
940,-0.0532,0.4644,-0.9077,0.549,0.977,-0.183,152.946,3.076,-89.050
950,-0.0552,0.4644,-0.9077,0.366,0.916,-0.183,152.952,3.071,-89.044
960,-0.0566,0.4639,-0.9087,0.305,0.854,-0.061,152.957,3.065,-89.044
970,-0.0562,0.4619,-0.9106,0.427,0.793,0.061,152.963,3.060,-89.039
980,-0.0537,0.4624,-0.9111,0.671,0.793,0.122,152.968,3.049,-89.039
990,-0.0513,0.4590,-0.9111,0.793,0.671,0.061,152.979,3.043,-89.033
1000,-0.0532,0.4585,-0.9141,0.671,0.366,0.061,152.990,3.038,-89.033
1010,-0.0566,0.4590,-0.9146,0.244,0.000,0.061,152.996,3.038,-89.033
1020,-0.0591,0.4580,-0.9111,-0.122,-0.427,0.000,152.996,3.043,-89.033
1030,-0.0581,0.4614,-0.9116,-0.488,-0.793,0.000,152.996,3.054,-89.039
1040,-0.0581,0.4629,-0.9131,-0.671,-0.916,0.000,152.990,3.065,-89.044
1050,-0.0596,0.4609,-0.9087,-0.671,-0.977,0.061,152.985,3.076,-89.050
1060,-0.0601,0.4619,-0.9077,-0.671,-1.099,0.122,152.974,3.087,-89.055
1070,-0.0625,0.4639,-0.9043,-0.671,-1.282,0.122,152.968,3.104,-89.061
1080,-0.0630,0.4648,-0.9028,-0.671,-1.465,0.061,152.957,3.120,-89.066
1090,-0.0630,0.4644,-0.9028,-0.671,-1.282,0.000,152.952,3.137,-89.072
1100,-0.0620,0.4663,-0.9058,-0.732,-1.038,0.000,152.941,3.148,-89.077
1110,-0.0620,0.4663,-0.8984,-0.793,-0.732,-0.061,152.930,3.159,-89.083
1120,-0.0605,0.4668,-0.8994,-0.671,-0.488,-0.061,152.919,3.164,-89.083
1130,-0.0625,0.4658,-0.8994,-0.549,-0.366,-0.061,152.908,3.175,-89.083
1140,-0.0635,0.4658,-0.9028,-0.366,-0.305,-0.122,152.902,3.181,-89.083
1150,-0.0615,0.4683,-0.9014,-0.122,-0.305,-0.122,152.897,3.186,-89.083
1160,-0.0645,0.4692,-0.9028,0.000,-0.244,-0.244,152.897,3.192,-89.083
1170,-0.0635,0.4658,-0.9053,0.122,-0.305,-0.427,152.897,3.203,-89.083
1180,-0.0620,0.4624,-0.9053,0.061,-0.366,-0.427,152.897,3.208,-89.077
1190,-0.0596,0.4648,-0.9028,-0.305,-0.366,-0.366,152.891,3.219,-89.077
1200,-0.0596,0.4639,-0.8989,-0.549,-0.305,-0.305,152.886,3.224,-89.077
1210,-0.0601,0.4644,-0.9009,-0.549,-0.244,-0.305,152.880,3.230,-89.072
1220,-0.0610,0.4629,-0.9014,-0.183,0.061,-0.305,152.875,3.230,-89.072
1230,-0.0601,0.4619,-0.9014,0.183,0.427,-0.305,152.880,3.230,-89.066
1240,-0.0581,0.4614,-0.9019,0.244,0.610,-0.305,152.880,3.224,-89.061
1250,-0.0571,0.4619,-0.9038,0.122,0.549,-0.244,152.886,3.224,-89.055
1260,-0.0566,0.4644,-0.9063,0.122,0.488,-0.244,152.886,3.219,-89.050
1270,-0.0547,0.4629,-0.9102,0.244,0.549,-0.183,152.891,3.214,-89.050
1281,-0.0547,0.4634,-0.9141,0.366,0.549,-0.122,152.897,3.208,-89.044
1290,-0.0596,0.4629,-0.9116,0.366,0.427,-0.061,152.902,3.203,-89.044
1300,-0.0601,0.4604,-0.9116,0.122,0.122,-0.122,152.902,3.208,-89.039
1310,-0.0586,0.4648,-0.9121,-0.183,-0.122,-0.122,152.902,3.208,-89.039
1320,-0.0566,0.4658,-0.9111,-0.366,-0.305,-0.122,152.902,3.214,-89.039
1330,-0.0581,0.4658,-0.9106,-0.244,-0.366,-0.183,152.897,3.214,-89.039
1340,-0.0571,0.4648,-0.9092,-0.061,-0.305,-0.244,152.897,3.219,-89.039
1350,-0.0581,0.4634,-0.9087,0.000,-0.366,-0.305,152.897,3.224,-89.039
1360,-0.0576,0.4619,-0.9092,0.061,-0.366,-0.244,152.902,3.230,-89.039
1370,-0.0566,0.4590,-0.9072,0.061,-0.366,-0.244,152.902,3.230,-89.039
1380,-0.0596,0.4561,-0.9058,0.061,-0.427,-0.122,152.908,3.235,-89.039
1390,-0.0601,0.4561,-0.9028,0.000,-0.610,0.061,152.913,3.246,-89.039
1400,-0.0645,0.4561,-0.9004,-0.122,-0.732,0.244,152.913,3.252,-89.044
1410,-0.0669,0.4590,-0.8994,0.000,-0.488,0.366,152.913,3.263,-89.050
1420,-0.0645,0.4600,-0.9004,0.244,-0.122,0.427,152.913,3.263,-89.055
1430,-0.0630,0.4629,-0.9038,0.427,0.122,0.366,152.919,3.263,-89.061
1440,-0.0610,0.4653,-0.9043,0.488,0.244,0.305,152.919,3.263,-89.061
1450,-0.0610,0.4668,-0.9058,0.305,0.122,0.244,152.924,3.263,-89.061
1460,-0.0630,0.4663,-0.9082,-0.061,0.122,0.122,152.919,3.263,-89.061
1470,-0.0645,0.4673,-0.9058,-0.244,0.244,0.122,152.913,3.263,-89.061
1480,-0.0654,0.4663,-0.9058,-0.305,0.244,0.061,152.913,3.268,-89.061
1490,-0.0640,0.4663,-0.9058,-0.183,0.122,0.000,152.908,3.268,-89.061
1500,-0.0640,0.4634,-0.9033,-0.061,-0.061,-0.061,152.908,3.274,-89.061
1510,-0.0625,0.4629,-0.9014,0.061,-0.244,0.000,152.908,3.279,-89.061
1520,-0.0625,0.4648,-0.8984,0.244,-0.122,0.000,152.908,3.279,-89.061
1530,-0.0601,0.4614,-0.8965,0.427,0.000,0.000,152.908,3.285,-89.061
1540,-0.0605,0.4639,-0.9009,0.549,0.305,-0.061,152.913,3.279,-89.061
1550,-0.0591,0.4673,-0.9028,0.427,0.549,-0.183,152.913,3.279,-89.061
1560,-0.0576,0.4668,-0.9028,0.366,0.732,-0.183,152.913,3.274,-89.061
1570,-0.0586,0.4653,-0.9063,0.305,0.916,-0.244,152.919,3.263,-89.061
1580,-0.0601,0.4648,-0.9092,0.122,1.038,-0.366,152.919,3.257,-89.061
1590,-0.0576,0.4648,-0.9121,0.000,1.038,-0.366,152.919,3.252,-89.061
1600,-0.0562,0.4644,-0.9141,-0.061,0.977,-0.427,152.924,3.241,-89.061
1610,-0.0562,0.4619,-0.9150,0.000,0.671,-0.488,152.924,3.235,-89.061
1620,-0.0576,0.4590,-0.9155,-0.061,0.244,-0.488,152.930,3.235,-89.061
1630,-0.0576,0.4590,-0.9131,-0.305,-0.305,-0.427,152.930,3.241,-89.061
1640,-0.0605,0.4585,-0.9067,-0.610,-0.854,-0.183,152.930,3.252,-89.061
1650,-0.0605,0.4595,-0.9048,-0.671,-1.099,0.061,152.924,3.263,-89.061
1660,-0.0596,0.4600,-0.9023,-0.549,-0.854,0.244,152.919,3.268,-89.061
1670,-0.0596,0.4619,-0.9004,-0.183,-0.427,0.305,152.913,3.274,-89.061
1680,-0.0576,0.4639,-0.9023,0.183,0.061,0.427,152.913,3.274,-89.061
1690,-0.0552,0.4639,-0.9019,0.488,0.122,0.244,152.919,3.268,-89.061
1700,-0.0562,0.4663,-0.9087,0.305,0.061,0.183,152.919,3.263,-89.061
1710,-0.0615,0.4658,-0.9106,0.061,0.000,0.061,152.919,3.268,-89.061
1720,-0.0645,0.4639,-0.9121,0.122,0.183,-0.061,152.924,3.268,-89.061
1730,-0.0630,0.4619,-0.9141,0.000,0.366,-0.244,152.924,3.268,-89.061
1740,-0.0620,0.4619,-0.9155,-0.244,0.061,-0.610,152.924,3.274,-89.061
1750,-0.0635,0.4658,-0.9170,-0.732,-0.610,-0.854,152.919,3.285,-89.061
1760,-0.0630,0.4653,-0.9116,-1.404,-1.343,-0.732,152.908,3.301,-89.061
1770,-0.0625,0.4712,-0.9082,-1.892,-1.648,-0.366,152.886,3.318,-89.061
1781,-0.0645,0.4712,-0.9038,-1.526,-1.526,-0.183,152.864,3.340,-89.061
1790,-0.0654,0.4658,-0.8965,-0.610,-1.282,-0.183,152.858,3.351,-89.061
1800,-0.0645,0.4624,-0.8984,0.244,-1.038,-0.122,152.858,3.367,-89.061
1810,-0.0649,0.4624,-0.8960,0.610,-0.916,-0.183,152.864,3.378,-89.061
1820,-0.0649,0.4673,-0.8960,0.000,-0.610,-0.061,152.858,3.389,-89.061
1830,-0.0659,0.4697,-0.8999,-0.427,-0.122,0.000,152.847,3.389,-89.061
1840,-0.0688,0.4644,-0.8984,0.305,0.366,0.000,152.847,3.395,-89.061
1850,-0.0659,0.4648,-0.8994,0.122,0.427,-0.061,152.847,3.395,-89.061
1860,-0.0674,0.4653,-0.9014,-0.183,0.549,-0.244,152.847,3.395,-89.061
1870,-0.0674,0.4644,-0.9023,0.183,0.916,0.061,152.847,3.389,-89.061
1880,-0.0640,0.4648,-0.9043,0.488,0.916,0.183,152.853,3.384,-89.061
1890,-0.0635,0.4624,-0.9072,0.488,0.549,0.122,152.858,3.378,-89.061
1900,-0.0645,0.4653,-0.9058,0.122,0.366,0.061,152.858,3.378,-89.061
1910,-0.0645,0.4712,-0.9072,-0.061,0.244,0.122,152.853,3.378,-89.061
1920,-0.0684,0.4663,-0.9082,0.000,0.183,0.122,152.853,3.378,-89.061
1930,-0.0674,0.4624,-0.9053,0.183,0.244,0.000,152.858,3.384,-89.061
1940,-0.0659,0.4634,-0.9048,0.366,0.244,-0.061,152.864,3.384,-89.061
1950,-0.0635,0.4663,-0.9038,0.244,0.183,-0.061,152.864,3.384,-89.061
1960,-0.0596,0.4644,-0.9043,0.122,0.061,0.000,152.864,3.384,-89.061
1970,-0.0596,0.4639,-0.9067,0.183,0.061,0.061,152.864,3.378,-89.061
1980,-0.0591,0.4624,-0.9058,0.244,0.061,0.061,152.869,3.378,-89.061
1990,-0.0591,0.4629,-0.9053,0.244,0.244,0.000,152.869,3.378,-89.061
2000,-0.0591,0.4604,-0.9053,0.305,0.244,0.061,152.875,3.373,-89.061
2010,-0.0620,0.4604,-0.9038,0.366,0.183,0.122,152.880,3.373,-89.061
2020,-0.0649,0.4590,-0.9048,0.244,0.061,0.244,152.886,3.373,-89.061
2030,-0.0635,0.4609,-0.9048,0.183,0.122,0.366,152.891,3.373,-89.061
2040,-0.0654,0.4609,-0.9043,0.305,0.305,0.488,152.891,3.373,-89.061
2050,-0.0635,0.4614,-0.9023,0.427,0.488,0.549,152.897,3.367,-89.061
2060,-0.0625,0.4614,-0.9038,0.549,0.427,0.610,152.902,3.362,-89.061
2070,-0.0625,0.4639,-0.9053,0.488,0.427,0.671,152.908,3.356,-89.061
2080,-0.0630,0.4648,-0.9053,0.366,0.427,0.732,152.908,3.351,-89.061
2090,-0.0635,0.4634,-0.9038,0.366,0.488,0.732,152.913,3.345,-89.061
2100,-0.0654,0.4653,-0.9048,0.305,0.488,0.671,152.913,3.340,-89.061
2110,-0.0625,0.4673,-0.9038,0.366,0.488,0.549,152.913,3.340,-89.061
2120,-0.0630,0.4663,-0.9033,0.488,0.610,0.549,152.919,3.329,-89.061
2130,-0.0635,0.4663,-0.9014,0.427,0.732,0.488,152.919,3.323,-89.061
2140,-0.0635,0.4687,-0.9058,0.427,0.854,0.427,152.919,3.318,-89.061
2150,-0.0615,0.4707,-0.9053,0.488,0.854,0.427,152.919,3.312,-89.061
2160,-0.0605,0.4712,-0.9058,0.488,0.732,0.244,152.924,3.301,-89.061
2170,-0.0620,0.4712,-0.9087,0.610,0.549,0.061,152.924,3.301,-89.061
2180,-0.0601,0.4697,-0.9087,0.549,0.488,0.061,152.930,3.296,-89.061
2190,-0.0601,0.4668,-0.9043,0.488,0.366,0.000,152.930,3.296,-89.061
2200,-0.0596,0.4619,-0.9038,0.427,0.183,-0.061,152.935,3.290,-89.061
2210,-0.0586,0.4604,-0.9048,0.427,0.122,-0.244,152.941,3.290,-89.061
2220,-0.0610,0.4595,-0.9053,0.427,0.183,-0.305,152.946,3.296,-89.061
2230,-0.0596,0.4595,-0.9077,0.427,0.488,-0.305,152.952,3.290,-89.061
2240,-0.0610,0.4570,-0.9082,0.549,0.793,-0.244,152.963,3.285,-89.061
2250,-0.0586,0.4551,-0.9067,0.610,0.854,-0.183,152.974,3.279,-89.061
2260,-0.0571,0.4565,-0.9072,0.488,0.488,-0.122,152.979,3.274,-89.061
2270,-0.0605,0.4590,-0.9058,0.366,0.122,0.000,152.985,3.274,-89.061
2281,-0.0620,0.4604,-0.9048,0.427,-0.061,0.122,152.990,3.279,-89.061
2290,-0.0605,0.4595,-0.9072,0.549,0.122,0.244,152.996,3.279,-89.061
2300,-0.0610,0.4585,-0.9092,0.610,0.610,0.366,153.007,3.274,-89.061
2310,-0.0586,0.4565,-0.9121,0.732,0.916,0.366,153.018,3.263,-89.061
2320,-0.0576,0.4609,-0.9160,0.671,0.916,0.488,153.023,3.252,-89.061
2330,-0.0571,0.4653,-0.9180,0.244,0.366,0.549,153.029,3.246,-89.061
2340,-0.0601,0.4658,-0.9199,-0.061,-0.122,0.549,153.029,3.246,-89.061
2350,-0.0596,0.4673,-0.9199,-0.244,-0.671,0.488,153.029,3.246,-89.061
2360,-0.0610,0.4692,-0.9189,-0.549,-1.099,0.305,153.018,3.257,-89.061
2370,-0.0601,0.4692,-0.9141,-0.732,-1.404,0.061,153.012,3.274,-89.061
2380,-0.0640,0.4702,-0.9116,-0.916,-1.831,-0.183,152.996,3.290,-89.061
2390,-0.0635,0.4683,-0.9043,-1.160,-2.136,-0.427,152.979,3.312,-89.061
2400,-0.0664,0.4668,-0.9004,-1.404,-2.441,-0.549,152.963,3.345,-89.061
2410,-0.0684,0.4678,-0.8955,-1.465,-2.441,-0.671,152.941,3.373,-89.061
2420,-0.0669,0.4692,-0.8940,-1.343,-2.014,-0.732,152.924,3.400,-89.061
2430,-0.0688,0.4692,-0.8926,-1.099,-1.282,-0.854,152.908,3.417,-89.061
2440,-0.0679,0.4639,-0.8955,-0.793,-0.549,-0.854,152.897,3.433,-89.061
2450,-0.0674,0.4634,-0.8931,-0.366,-0.183,-0.854,152.891,3.439,-89.061
2460,-0.0654,0.4614,-0.8975,-0.183,-0.061,-0.793,152.886,3.450,-89.061
2470,-0.0659,0.4600,-0.8984,-0.061,-0.061,-0.854,152.886,3.455,-89.061
2480,-0.0645,0.4609,-0.8984,0.000,0.000,-0.854,152.886,3.461,-89.061
2490,-0.0640,0.4604,-0.9019,-0.061,0.244,-0.732,152.886,3.466,-89.061
2500,-0.0649,0.4580,-0.9033,-0.061,0.671,-0.610,152.891,3.461,-89.061
2510,-0.0630,0.4590,-0.9072,0.000,0.916,-0.427,152.891,3.455,-89.061
2520,-0.0630,0.4590,-0.9072,0.000,0.977,-0.244,152.897,3.450,-89.061
2530,-0.0601,0.4595,-0.9121,0.061,0.793,-0.122,152.902,3.444,-89.061
2540,-0.0625,0.4629,-0.9146,0.061,0.549,-0.122,152.902,3.439,-89.061
2550,-0.0640,0.4624,-0.9146,0.000,0.183,-0.122,152.908,3.439,-89.061
2560,-0.0654,0.4585,-0.9155,0.000,-0.122,-0.244,152.913,3.444,-89.061
2570,-0.0654,0.4609,-0.9146,-0.183,-0.305,-0.305,152.913,3.450,-89.061
2580,-0.0649,0.4639,-0.9072,-0.427,-0.671,-0.183,152.908,3.461,-89.061
2590,-0.0649,0.4653,-0.9077,-0.366,-0.916,0.000,152.902,3.466,-89.061
2600,-0.0630,0.4687,-0.9063,-0.183,-1.160,0.061,152.897,3.477,-89.061
2610,-0.0635,0.4702,-0.9053,0.183,-1.099,0.061,152.897,3.488,-89.061
2620,-0.0654,0.4692,-0.9028,0.488,-0.732,0.000,152.897,3.499,-89.061
2630,-0.0640,0.4692,-0.9023,0.610,-0.427,-0.183,152.902,3.505,-89.061
2640,-0.0659,0.4678,-0.9019,0.244,-0.244,-0.366,152.902,3.510,-89.061
2650,-0.0654,0.4673,-0.8994,-0.183,-0.183,-0.549,152.897,3.516,-89.061
2660,-0.0688,0.4644,-0.9019,-0.488,-0.183,-0.610,152.891,3.521,-89.061
2670,-0.0703,0.4634,-0.9004,-0.427,-0.061,-0.549,152.886,3.532,-89.061
2680,-0.0708,0.4609,-0.9019,-0.183,0.061,-0.488,152.880,3.538,-89.061
2690,-0.0713,0.4604,-0.9063,0.061,0.000,-0.427,152.886,3.543,-89.061
2700,-0.0688,0.4590,-0.9043,0.183,-0.122,-0.244,152.891,3.549,-89.061
2710,-0.0684,0.4619,-0.9004,0.183,-0.183,-0.061,152.891,3.554,-89.061
2720,-0.0674,0.4614,-0.8984,0.122,-0.061,0.000,152.891,3.560,-89.061
2730,-0.0679,0.4609,-0.8999,0.000,0.122,0.000,152.891,3.560,-89.061
2740,-0.0698,0.4619,-0.9023,0.000,0.427,0.000,152.891,3.560,-89.061
2750,-0.0669,0.4624,-0.9023,0.061,0.671,0.061,152.891,3.554,-89.061
2760,-0.0679,0.4634,-0.9038,0.122,0.916,0.000,152.891,3.549,-89.061
2770,-0.0664,0.4634,-0.9053,0.244,1.038,-0.061,152.897,3.543,-89.061
2781,-0.0659,0.4624,-0.9063,0.305,0.977,-0.183,152.897,3.538,-89.061
2790,-0.0649,0.4614,-0.9067,0.305,0.793,-0.244,152.902,3.532,-89.061
2800,-0.0640,0.4595,-0.9063,0.183,0.793,-0.183,152.908,3.527,-89.061
2810,-0.0645,0.4600,-0.9077,0.183,0.671,-0.183,152.913,3.521,-89.061
2820,-0.0615,0.4604,-0.9058,0.366,0.610,-0.244,152.919,3.516,-89.061
2830,-0.0620,0.4614,-0.9082,0.427,0.671,-0.305,152.924,3.510,-89.061
2840,-0.0591,0.4624,-0.9067,0.305,0.671,-0.183,152.930,3.505,-89.061
2850,-0.0605,0.4629,-0.9058,0.244,0.671,0.000,152.930,3.499,-89.061
2860,-0.0620,0.4658,-0.9067,0.244,0.671,0.000,152.930,3.494,-89.061
2870,-0.0591,0.4624,-0.9077,0.549,0.793,-0.061,152.941,3.483,-89.061
2880,-0.0615,0.4595,-0.9121,0.916,1.038,-0.183,152.952,3.477,-89.061
2890,-0.0610,0.4536,-0.9141,0.977,1.282,-0.305,152.968,3.466,-89.061
2900,-0.0605,0.4512,-0.9136,0.610,1.099,-0.244,152.979,3.455,-89.061
2910,-0.0601,0.4502,-0.9126,0.244,0.671,0.000,152.990,3.450,-89.061
2920,-0.0615,0.4517,-0.9116,0.061,0.122,0.305,153.001,3.444,-89.061
2930,-0.0625,0.4565,-0.9116,0.000,-0.183,0.549,153.001,3.444,-89.061
2940,-0.0605,0.4585,-0.9111,0.244,-0.305,0.793,153.007,3.444,-89.061
2950,-0.0620,0.4585,-0.9092,0.610,-0.305,0.977,153.012,3.444,-89.061
2960,-0.0615,0.4604,-0.9077,0.610,-0.305,1.038,153.023,3.444,-89.072
2970,-0.0591,0.4648,-0.9097,0.122,-0.488,1.038,153.023,3.439,-89.083
2980,-0.0635,0.4678,-0.9082,-0.244,-0.732,0.977,153.012,3.444,-89.099
2990,-0.0649,0.4707,-0.9048,-0.427,-0.916,0.916,153.007,3.450,-89.110
3000,-0.0684,0.4717,-0.9019,-0.305,-0.854,0.854,152.996,3.455,-89.121
3010,-0.0718,0.4736,-0.9028,-0.061,-0.671,0.671,152.985,3.466,-89.132
3020,-0.0708,0.4746,-0.9014,0.061,-0.671,0.549,152.979,3.472,-89.138
3030,-0.0708,0.4736,-0.9004,0.061,-0.793,0.427,152.974,3.483,-89.143
3040,-0.0732,0.4727,-0.9009,-0.122,-0.854,0.244,152.963,3.499,-89.149
3050,-0.0708,0.4746,-0.8975,-0.305,-0.671,0.000,152.952,3.510,-89.154
3060,-0.0679,0.4722,-0.8979,-0.488,-0.488,-0.244,152.941,3.516,-89.154
3070,-0.0688,0.4746,-0.8970,-0.610,-0.366,-0.366,152.924,3.527,-89.154
3080,-0.0718,0.4707,-0.8994,-0.488,-0.244,-0.488,152.919,3.532,-89.149
3090,-0.0698,0.4717,-0.8989,-0.488,0.000,-0.610,152.908,3.543,-89.143
3100,-0.0674,0.4727,-0.9009,-0.427,0.061,-0.732,152.897,3.549,-89.138
3110,-0.0708,0.4668,-0.9023,-0.305,0.061,-0.854,152.891,3.554,-89.127
3120,-0.0693,0.4634,-0.9028,-0.488,0.061,-0.977,152.886,3.560,-89.121
3130,-0.0703,0.4624,-0.9043,-0.732,0.183,-1.038,152.880,3.571,-89.110
3141,-0.0679,0.4619,-0.9028,-0.793,0.061,-0.977,152.875,3.576,-89.099
3151,-0.0669,0.4619,-0.9023,-0.671,-0.061,-0.916,152.869,3.582,-89.094
3161,-0.0654,0.4634,-0.9023,-0.488,-0.183,-0.732,152.864,3.587,-89.088
3171,-0.0649,0.4634,-0.9038,-0.244,-0.244,-0.610,152.858,3.593,-89.083
3180,-0.0635,0.4639,-0.9028,0.000,0.000,-0.488,152.858,3.593,-89.077
3191,-0.0649,0.4629,-0.9048,0.122,0.244,-0.366,152.858,3.593,-89.077
3201,-0.0654,0.4639,-0.9014,0.061,0.366,-0.427,152.858,3.593,-89.072
3211,-0.0693,0.4639,-0.9014,-0.122,0.488,-0.549,152.858,3.598,-89.061
3221,-0.0698,0.4648,-0.9058,-0.305,0.488,-0.671,152.858,3.598,-89.055
3231,-0.0693,0.4648,-0.9077,-0.305,0.610,-0.732,152.853,3.598,-89.044
3241,-0.0688,0.4668,-0.9063,-0.244,0.793,-0.793,152.853,3.598,-89.033
3251,-0.0645,0.4658,-0.9077,-0.122,0.793,-0.916,152.853,3.598,-89.022
3261,-0.0625,0.4648,-0.9116,-0.122,0.671,-0.977,152.853,3.593,-89.011
3271,-0.0605,0.4624,-0.9146,-0.183,0.488,-0.977,152.853,3.593,-89.000
3281,-0.0596,0.4590,-0.9126,-0.427,0.305,-0.916,152.853,3.587,-88.989
3290,-0.0605,0.4585,-0.9111,-0.671,0.000,-0.793,152.853,3.593,-88.984
3301,-0.0601,0.4600,-0.9102,-0.732,-0.366,-0.610,152.847,3.593,-88.978
3311,-0.0640,0.4565,-0.9106,-0.488,-0.488,-0.366,152.847,3.604,-88.978
3321,-0.0649,0.4541,-0.9106,-0.305,-0.488,-0.183,152.853,3.609,-88.978
3331,-0.0659,0.4526,-0.9077,-0.244,-0.488,0.000,152.858,3.615,-88.978
3341,-0.0684,0.4546,-0.9023,-0.244,-0.549,0.183,152.858,3.620,-88.984
3351,-0.0684,0.4580,-0.9028,-0.366,-0.793,0.305,152.858,3.625,-88.989
3361,-0.0693,0.4580,-0.8994,-0.488,-0.977,0.488,152.853,3.636,-89.000
3371,-0.0684,0.4604,-0.9023,-0.427,-0.854,0.549,152.847,3.642,-89.011
3381,-0.0679,0.4600,-0.8984,-0.244,-0.427,0.549,152.847,3.647,-89.017
3391,-0.0688,0.4629,-0.8975,-0.122,0.000,0.549,152.842,3.647,-89.022
3401,-0.0659,0.4648,-0.8994,0.000,0.244,0.549,152.842,3.642,-89.022
3411,-0.0664,0.4673,-0.9014,0.000,0.305,0.488,152.836,3.636,-89.028
3421,-0.0664,0.4687,-0.9023,0.061,0.427,0.427,152.836,3.636,-89.028
3431,-0.0645,0.4692,-0.9053,0.183,0.488,0.305,152.836,3.631,-89.028
3441,-0.0669,0.4697,-0.9082,0.305,0.549,0.122,152.836,3.625,-89.028
3451,-0.0679,0.4687,-0.9058,0.244,0.549,0.000,152.836,3.620,-89.028
3461,-0.0679,0.4683,-0.9077,0.122,0.366,-0.122,152.836,3.620,-89.022
3471,-0.0688,0.4702,-0.9067,-0.061,0.244,-0.183,152.836,3.620,-89.022
3481,-0.0674,0.4678,-0.9063,-0.122,0.122,-0.244,152.831,3.625,-89.017
3491,-0.0679,0.4702,-0.9053,-0.183,0.122,-0.183,152.825,3.625,-89.017
3501,-0.0688,0.4687,-0.9087,0.000,0.183,-0.183,152.825,3.625,-89.011
3511,-0.0664,0.4678,-0.9053,0.244,0.183,-0.183,152.825,3.625,-89.011
3521,-0.0679,0.4648,-0.9043,0.366,0.061,-0.305,152.831,3.631,-89.006
3531,-0.0684,0.4614,-0.9043,0.305,-0.061,-0.305,152.836,3.631,-89.006
3541,-0.0664,0.4634,-0.9038,0.122,-0.122,-0.183,152.836,3.636,-89.006
3551,-0.0679,0.4644,-0.9023,-0.061,-0.183,-0.122,152.836,3.642,-89.006
3561,-0.0684,0.4639,-0.8994,-0.061,-0.061,-0.061,152.836,3.642,-89.006
3571,-0.0708,0.4639,-0.8994,0.183,0.183,-0.061,152.836,3.647,-89.000
3581,-0.0708,0.4624,-0.8984,0.427,0.488,-0.061,152.836,3.647,-89.000
3591,-0.0708,0.4600,-0.8999,0.610,0.854,-0.061,152.847,3.642,-88.995
3601,-0.0688,0.4609,-0.9004,0.488,1.038,-0.061,152.853,3.636,-88.989
3611,-0.0679,0.4614,-0.9038,0.305,1.099,0.061,152.858,3.625,-88.984
3621,-0.0659,0.4644,-0.9023,0.122,0.977,0.183,152.858,3.620,-88.984
3631,-0.0649,0.4644,-0.9048,0.061,0.916,0.305,152.858,3.609,-88.978
3641,-0.0659,0.4653,-0.9087,0.183,0.854,0.366,152.858,3.598,-88.978
3651,-0.0674,0.4644,-0.9072,0.244,0.916,0.427,152.864,3.593,-88.978
3661,-0.0659,0.4653,-0.9092,0.183,0.854,0.427,152.864,3.582,-88.978
3671,-0.0674,0.4658,-0.9106,0.061,0.732,0.366,152.864,3.576,-88.978
3681,-0.0684,0.4678,-0.9102,-0.061,0.732,0.305,152.864,3.571,-88.978
3691,-0.0688,0.4687,-0.9121,0.000,0.732,0.122,152.864,3.571,-88.978
3701,-0.0669,0.4678,-0.9126,0.061,0.732,-0.061,152.864,3.565,-88.973
3711,-0.0659,0.4639,-0.9141,0.000,0.366,-0.183,152.864,3.560,-88.967
3721,-0.0649,0.4624,-0.9126,-0.305,-0.183,-0.122,152.864,3.565,-88.967
3731,-0.0640,0.4634,-0.9111,-0.549,-0.732,-0.122,152.864,3.571,-88.973
3741,-0.0659,0.4644,-0.9082,-0.671,-1.099,-0.183,152.853,3.582,-88.973
3751,-0.0659,0.4634,-0.9072,-0.549,-1.160,-0.183,152.853,3.598,-88.978
3761,-0.0669,0.4639,-0.9004,-0.427,-0.977,-0.183,152.847,3.609,-88.984
3771,-0.0688,0.4609,-0.8970,-0.244,-0.732,-0.183,152.842,3.620,-88.984
3781,-0.0674,0.4585,-0.8955,-0.183,-0.305,-0.183,152.842,3.625,-88.984
3791,-0.0688,0.4575,-0.8955,-0.061,0.061,-0.122,152.842,3.625,-88.984
3801,-0.0703,0.4585,-0.8970,0.122,0.366,0.061,152.842,3.625,-88.978
3811,-0.0654,0.4590,-0.8979,0.427,0.671,0.305,152.847,3.620,-88.978
3821,-0.0664,0.4609,-0.9004,0.549,0.854,0.488,152.853,3.609,-88.978
3831,-0.0659,0.4614,-0.9038,0.671,0.916,0.549,152.864,3.604,-88.978
3841,-0.0649,0.4648,-0.9048,0.671,0.854,0.610,152.869,3.593,-88.984
3851,-0.0679,0.4692,-0.9077,0.427,0.732,0.610,152.869,3.587,-88.984
3861,-0.0718,0.4712,-0.9053,0.366,0.671,0.488,152.869,3.582,-88.984
3871,-0.0708,0.4697,-0.9077,0.244,0.671,0.183,152.869,3.576,-88.984
3881,-0.0688,0.4717,-0.9121,0.183,0.854,-0.061,152.869,3.576,-88.978
3891,-0.0640,0.4727,-0.9150,0.061,0.732,-0.183,152.869,3.565,-88.973
3901,-0.0615,0.4707,-0.9150,0.000,0.427,-0.366,152.869,3.565,-88.967
3911,-0.0581,0.4673,-0.9170,-0.122,-0.061,-0.610,152.869,3.565,-88.967
3921,-0.0518,0.4678,-0.9229,-0.305,-0.549,-0.916,152.869,3.565,-88.956
3931,-0.0513,0.4668,-0.9185,-0.549,-0.977,-1.099,152.864,3.571,-88.956
3941,-0.0532,0.4658,-0.9160,-0.977,-1.343,-1.160,152.858,3.582,-88.951
3951,-0.0532,0.4629,-0.9121,-1.465,-1.648,-1.221,152.847,3.598,-88.945
3961,-0.0566,0.4614,-0.9072,-1.953,-1.953,-1.343,152.831,3.615,-88.945
3971,-0.0625,0.4580,-0.9019,-2.319,-2.014,-1.343,152.809,3.642,-88.940
3981,-0.0679,0.4512,-0.8965,-2.380,-1.831,-1.343,152.787,3.664,-88.934
3991,-0.0732,0.4458,-0.8887,-2.319,-1.526,-1.221,152.770,3.686,-88.934
4001,-0.0762,0.4419,-0.8828,-2.197,-1.099,-0.793,152.759,3.708,-88.929
4011,-0.0767,0.4443,-0.8760,-1.770,-0.488,-0.244,152.743,3.724,-88.929
4021,-0.0771,0.4438,-0.8765,-0.916,0.244,0.427,152.737,3.724,-88.934
4031,-0.0742,0.4482,-0.8770,0.061,1.221,0.977,152.737,3.713,-88.934
4041,-0.0732,0.4551,-0.8789,1.038,2.136,1.465,152.748,3.697,-88.940
4051,-0.0723,0.4590,-0.8857,1.770,2.930,1.831,152.765,3.664,-88.945
4061,-0.0703,0.4658,-0.8911,2.014,3.479,2.075,152.781,3.631,-88.945
4071,-0.0698,0.4731,-0.8979,2.014,3.845,2.014,152.792,3.587,-88.945
4081,-0.0698,0.4761,-0.9058,2.075,4.150,1.831,152.809,3.549,-88.945
4091,-0.0674,0.4785,-0.9116,2.075,4.272,1.587,152.825,3.505,-88.940
4101,-0.0645,0.4805,-0.9175,2.136,4.211,1.221,152.842,3.461,-88.929
4111,-0.0610,0.4800,-0.9209,2.014,3.601,0.916,152.858,3.428,-88.923
4121,-0.0601,0.4771,-0.9219,1.648,2.625,0.732,152.875,3.400,-88.918
4131,-0.0605,0.4751,-0.9194,1.221,1.404,0.488,152.886,3.384,-88.912
4141,-0.0605,0.4731,-0.9185,0.793,0.244,0.305,152.891,3.378,-88.912
4151,-0.0615,0.4702,-0.9170,0.610,-0.549,0.122,152.897,3.384,-88.918
4161,-0.0630,0.4702,-0.9146,0.488,-0.854,0.061,152.902,3.395,-88.923
4171,-0.0635,0.4653,-0.9126,0.610,-0.793,0.061,152.908,3.400,-88.929
4181,-0.0649,0.4629,-0.9116,0.549,-0.610,0.061,152.913,3.406,-88.929
4191,-0.0654,0.4619,-0.9087,0.488,-0.549,0.122,152.919,3.417,-88.934
4201,-0.0654,0.4619,-0.9072,0.366,-0.610,0.305,152.924,3.422,-88.940
4211,-0.0640,0.4619,-0.9082,0.122,-0.977,0.488,152.924,3.428,-88.951
4221,-0.0625,0.4683,-0.9106,-0.305,-1.648,0.427,152.919,3.444,-88.962
4231,-0.0635,0.4746,-0.9082,-0.977,-2.686,0.427,152.902,3.466,-88.978
4241,-0.0679,0.4751,-0.9087,-1.160,-3.357,0.305,152.886,3.499,-88.995
4251,-0.0747,0.4780,-0.9072,-1.282,-3.357,0.122,152.869,3.532,-89.011
4261,-0.0796,0.4756,-0.9038,-1.038,-2.380,-0.183,152.847,3.565,-89.017
4271,-0.0747,0.4756,-0.8979,-1.099,-1.648,-0.183,152.831,3.587,-89.028
4281,-0.0767,0.4731,-0.8940,-0.977,-1.465,-0.122,152.814,3.609,-89.033
4291,-0.0776,0.4678,-0.8916,-0.488,-1.709,-0.122,152.803,3.631,-89.039
4301,-0.0781,0.4663,-0.8896,-0.427,-1.709,-0.061,152.792,3.653,-89.044
4311,-0.0771,0.4614,-0.8906,0.000,-1.099,0.061,152.792,3.669,-89.050
4321,-0.0771,0.4526,-0.8955,0.488,-0.061,0.183,152.798,3.675,-89.050
4331,-0.0732,0.4517,-0.8921,0.793,1.099,0.427,152.814,3.669,-89.050
4341,-0.0684,0.4541,-0.8916,0.488,1.282,0.793,152.820,3.658,-89.050
4351,-0.0679,0.4565,-0.8911,0.732,1.160,1.038,152.825,3.647,-89.055
4361,-0.0698,0.4565,-0.8989,1.160,0.977,1.038,152.842,3.636,-89.061
4371,-0.0693,0.4551,-0.9067,1.526,1.526,0.854,152.858,3.620,-89.061
4381,-0.0649,0.4556,-0.9102,1.404,2.136,0.977,152.880,3.598,-89.061
4391,-0.0625,0.4541,-0.9072,1.038,2.258,1.038,152.897,3.571,-89.061
4401,-0.0635,0.4546,-0.9111,0.793,1.770,0.916,152.908,3.554,-89.061
4411,-0.0654,0.4546,-0.9189,0.488,1.160,0.793,152.919,3.538,-89.061
4421,-0.0645,0.4531,-0.9155,0.549,0.854,0.854,152.935,3.527,-89.066
4431,-0.0615,0.4521,-0.9087,0.427,0.305,1.282,152.941,3.521,-89.077
4441,-0.0625,0.4507,-0.9038,0.732,-0.183,1.648,152.957,3.516,-89.088
4451,-0.0654,0.4492,-0.9048,1.221,-0.427,1.831,152.974,3.510,-89.110
4461,-0.0698,0.4473,-0.9038,1.831,0.244,1.831,152.996,3.505,-89.127
4471,-0.0679,0.4468,-0.8955,1.587,0.732,2.258,153.018,3.494,-89.143
4481,-0.0664,0.4482,-0.8931,1.404,1.038,2.625,153.034,3.477,-89.160
4491,-0.0635,0.4507,-0.9053,1.648,1.282,2.930,153.051,3.450,-89.182
4501,-0.0615,0.4551,-0.9043,1.831,2.014,3.052,153.073,3.422,-89.198
4511,-0.0566,0.4604,-0.9023,1.892,2.197,3.418,153.089,3.384,-89.220
4521,-0.0547,0.4614,-0.9072,2.563,2.441,3.540,153.111,3.345,-89.242
4531,-0.0537,0.4658,-0.9111,2.869,2.258,3.540,153.138,3.307,-89.258
4541,-0.0508,0.4736,-0.9160,2.808,2.258,3.357,153.160,3.263,-89.280
4551,-0.0483,0.4771,-0.9214,2.686,2.197,3.113,153.177,3.224,-89.297
4561,-0.0479,0.4834,-0.9199,2.075,1.953,2.869,153.188,3.192,-89.313
4571,-0.0464,0.4873,-0.9224,1.404,1.526,2.380,153.193,3.159,-89.330
4581,-0.0483,0.4907,-0.9258,0.854,0.916,1.770,153.188,3.137,-89.341
4591,-0.0483,0.4878,-0.9272,0.183,0.366,1.038,153.182,3.126,-89.346
4601,-0.0488,0.4834,-0.9263,-0.427,-0.183,0.366,153.171,3.120,-89.352
4611,-0.0537,0.4785,-0.9214,-1.282,-0.854,-0.183,153.149,3.126,-89.357
4621,-0.0566,0.4766,-0.9136,-2.136,-1.587,-0.488,153.122,3.142,-89.357
4631,-0.0586,0.4727,-0.9072,-2.380,-2.197,-0.610,153.089,3.164,-89.363
4641,-0.0610,0.4692,-0.9023,-2.380,-2.502,-0.793,153.062,3.197,-89.368
4651,-0.0630,0.4634,-0.9014,-2.136,-2.380,-0.854,153.040,3.224,-89.368
4661,-0.0630,0.4600,-0.8965,-1.953,-2.014,-0.854,153.018,3.246,-89.374
4671,-0.0610,0.4570,-0.8921,-1.892,-1.587,-0.793,152.996,3.268,-89.374
4681,-0.0610,0.4556,-0.8892,-1.831,-1.221,-0.732,152.979,3.285,-89.368
4691,-0.0625,0.4585,-0.8887,-1.526,-0.732,-0.671,152.957,3.296,-89.368
4701,-0.0601,0.4580,-0.8892,-0.916,0.000,-0.610,152.946,3.301,-89.363
4711,-0.0625,0.4575,-0.8979,0.671,1.526,-0.488,152.957,3.290,-89.352
4721,-0.0620,0.4585,-0.9028,1.038,2.014,-0.549,152.968,3.279,-89.335
4731,-0.0630,0.4590,-0.9023,1.099,2.136,-0.610,152.979,3.268,-89.324
4741,-0.0625,0.4614,-0.9077,0.977,2.136,-0.732,152.990,3.252,-89.308
4751,-0.0630,0.4624,-0.9116,0.793,2.014,-0.916,153.001,3.241,-89.286
4761,-0.0620,0.4619,-0.9106,0.671,1.831,-1.038,153.012,3.230,-89.269
4771,-0.0596,0.4604,-0.9102,0.488,1.587,-1.038,153.018,3.224,-89.253
4782,-0.0605,0.4600,-0.9106,0.244,1.160,-0.977,153.023,3.219,-89.242
4791,-0.0601,0.4614,-0.9097,0.061,0.916,-0.977,153.023,3.219,-89.225
4801,-0.0596,0.4614,-0.9092,-0.122,0.793,-0.916,153.023,3.219,-89.214
4811,-0.0596,0.4600,-0.9058,0.000,0.671,-0.854,153.029,3.214,-89.203
4821,-0.0605,0.4575,-0.9072,0.244,0.732,-0.916,153.034,3.214,-89.193
4831,-0.0625,0.4531,-0.9077,0.305,0.977,-0.916,153.040,3.214,-89.182
4841,-0.0605,0.4492,-0.9019,0.122,1.099,-0.793,153.045,3.208,-89.171
4851,-0.0601,0.4517,-0.9033,0.000,1.099,-0.549,153.051,3.203,-89.160
4861,-0.0615,0.4512,-0.9028,0.061,0.977,-0.305,153.056,3.203,-89.154
4871,-0.0596,0.4512,-0.9043,0.183,0.916,-0.122,153.062,3.197,-89.149
4881,-0.0586,0.4541,-0.9092,0.427,0.977,0.061,153.073,3.186,-89.143
4891,-0.0596,0.4551,-0.9082,0.610,1.099,0.244,153.078,3.175,-89.138
4901,-0.0601,0.4585,-0.9102,0.671,1.221,0.366,153.089,3.170,-89.138
4911,-0.0591,0.4604,-0.9146,0.610,1.282,0.366,153.094,3.153,-89.138
4921,-0.0620,0.4604,-0.9150,0.427,1.221,0.244,153.100,3.148,-89.132
4931,-0.0635,0.4595,-0.9150,0.000,0.977,0.122,153.105,3.142,-89.127
4941,-0.0640,0.4595,-0.9116,-0.366,0.549,0.122,153.105,3.142,-89.127
4951,-0.0640,0.4609,-0.9116,-0.549,0.244,0.000,153.100,3.142,-89.127
4961,-0.0605,0.4609,-0.9111,-0.671,-0.183,0.000,153.094,3.148,-89.127
4971,-0.0601,0.4595,-0.9072,-0.793,-0.427,0.244,153.083,3.153,-89.132
4981,-0.0610,0.4600,-0.9067,-0.549,-0.549,0.427,153.078,3.159,-89.138
4991,-0.0601,0.4580,-0.9033,-0.244,-0.549,0.549,153.078,3.164,-89.143
5001,-0.0615,0.4609,-0.9004,-0.061,-0.427,0.671,153.073,3.164,-89.154
5011,-0.0601,0.4614,-0.8984,0.000,-0.122,0.732,153.073,3.164,-89.160
5021,-0.0596,0.4634,-0.8984,0.061,0.122,0.793,153.067,3.164,-89.165
5031,-0.0610,0.4629,-0.8989,0.183,0.488,0.793,153.067,3.159,-89.171
5041,-0.0605,0.4634,-0.9033,0.244,0.732,0.671,153.067,3.153,-89.176
5051,-0.0601,0.4644,-0.9048,0.305,0.916,0.671,153.067,3.142,-89.176
5061,-0.0605,0.4653,-0.9058,0.305,0.977,0.610,153.067,3.137,-89.176
5071,-0.0601,0.4668,-0.9102,0.305,0.854,0.671,153.067,3.126,-89.176
5081,-0.0591,0.4678,-0.9121,0.244,0.671,0.488,153.067,3.120,-89.182
5091,-0.0586,0.4678,-0.9116,0.122,0.427,0.244,153.067,3.115,-89.182
5101,-0.0610,0.4687,-0.9150,-0.061,0.183,0.183,153.062,3.115,-89.182
5111,-0.0596,0.4702,-0.9131,-0.305,0.000,0.122,153.056,3.120,-89.182
5121,-0.0576,0.4722,-0.9136,-0.549,-0.366,0.000,153.051,3.120,-89.182
5131,-0.0571,0.4736,-0.9097,-0.610,-0.793,-0.183,153.034,3.131,-89.187
5141,-0.0586,0.4702,-0.9053,-0.610,-1.038,-0.427,153.023,3.142,-89.187
5151,-0.0635,0.4678,-0.8989,-0.732,-1.160,-0.488,153.012,3.159,-89.187
5161,-0.0630,0.4668,-0.8979,-0.854,-1.038,-0.549,153.001,3.175,-89.187
5171,-0.0605,0.4692,-0.8936,-0.793,-0.610,-0.488,152.985,3.186,-89.187
5181,-0.0601,0.4702,-0.8926,-0.305,-0.122,-0.366,152.974,3.192,-89.182
5191,-0.0581,0.4683,-0.8945,0.427,0.549,-0.366,152.974,3.186,-89.176
5201,-0.0566,0.4673,-0.8955,1.282,1.160,-0.488,152.979,3.181,-89.165
5211,-0.0552,0.4653,-0.8989,1.831,1.648,-0.549,152.996,3.170,-89.154
5221,-0.0547,0.4658,-0.8999,2.075,2.014,-0.549,153.012,3.153,-89.143
5231,-0.0557,0.4609,-0.9063,2.075,2.258,-0.610,153.034,3.137,-89.127
5241,-0.0557,0.4595,-0.9126,1.892,2.502,-0.732,153.056,3.115,-89.110
5251,-0.0566,0.4600,-0.9160,1.709,2.441,-0.732,153.078,3.098,-89.088
5261,-0.0552,0.4575,-0.9224,1.587,2.197,-0.671,153.100,3.082,-89.072
5271,-0.0557,0.4551,-0.9263,1.526,1.770,-0.671,153.122,3.071,-89.061
5282,-0.0552,0.4526,-0.9277,1.160,1.099,-0.671,153.144,3.060,-89.050
5291,-0.0547,0.4517,-0.9287,0.610,0.305,-0.549,153.160,3.060,-89.044
5301,-0.0522,0.4531,-0.9233,-0.061,-0.610,-0.427,153.166,3.065,-89.044
5311,-0.0513,0.4521,-0.9194,-0.549,-1.343,-0.366,153.166,3.076,-89.044
5321,-0.0527,0.4536,-0.9126,-0.793,-1.709,-0.244,153.160,3.093,-89.050
5331,-0.0527,0.4536,-0.9077,-0.793,-1.770,-0.122,153.155,3.109,-89.055
5341,-0.0537,0.4546,-0.9048,-0.732,-1.709,-0.061,153.149,3.120,-89.066
5351,-0.0547,0.4561,-0.9033,-0.671,-1.648,0.000,153.144,3.137,-89.072
5361,-0.0557,0.4585,-0.9019,-0.488,-1.465,0.122,153.138,3.148,-89.077
5371,-0.0591,0.4595,-0.8994,-0.305,-1.221,0.122,153.133,3.164,-89.088
5381,-0.0615,0.4614,-0.9009,-0.061,-0.854,0.061,153.127,3.170,-89.088
5391,-0.0620,0.4604,-0.8989,0.305,-0.427,0.000,153.127,3.181,-89.094
5401,-0.0630,0.4604,-0.8999,0.610,0.061,0.061,153.133,3.181,-89.094
5411,-0.0635,0.4575,-0.8994,0.793,0.366,-0.061,153.138,3.186,-89.088
5421,-0.0620,0.4590,-0.9028,0.854,0.610,-0.061,153.149,3.181,-89.088
5431,-0.0601,0.4600,-0.9072,0.916,0.854,-0.122,153.155,3.175,-89.083
5441,-0.0591,0.4595,-0.9106,1.099,1.099,-0.122,153.171,3.170,-89.077
5451,-0.0566,0.4575,-0.9131,1.282,1.282,-0.183,153.182,3.159,-89.066
5461,-0.0547,0.4556,-0.9165,1.038,1.160,-0.244,153.199,3.148,-89.061
5471,-0.0552,0.4521,-0.9150,0.610,0.671,-0.244,153.210,3.142,-89.055
5481,-0.0566,0.4507,-0.9131,0.183,0.000,-0.122,153.215,3.142,-89.055
5491,-0.0601,0.4517,-0.9136,-0.061,-0.305,0.000,153.221,3.148,-89.055
5501,-0.0576,0.4521,-0.9116,0.000,-0.366,0.183,153.226,3.153,-89.061
5511,-0.0601,0.4521,-0.9082,0.305,-0.305,0.244,153.232,3.159,-89.061
5521,-0.0601,0.4502,-0.9092,0.610,-0.427,0.366,153.243,3.159,-89.066
5531,-0.0596,0.4536,-0.9092,0.488,-0.549,0.427,153.248,3.164,-89.077
5541,-0.0591,0.4565,-0.9116,0.244,-0.610,0.549,153.254,3.170,-89.083
5551,-0.0596,0.4585,-0.9102,0.000,-0.610,0.610,153.254,3.175,-89.088
5561,-0.0601,0.4624,-0.9106,-0.183,-0.488,0.732,153.248,3.175,-89.099
5571,-0.0610,0.4648,-0.9063,-0.183,-0.549,0.732,153.243,3.181,-89.110
5581,-0.0620,0.4663,-0.9072,-0.061,-0.610,0.610,153.237,3.186,-89.116
5591,-0.0630,0.4639,-0.9067,-0.061,-0.549,0.549,153.232,3.192,-89.127
5601,-0.0654,0.4639,-0.9043,-0.061,-0.427,0.366,153.226,3.197,-89.127
5611,-0.0635,0.4639,-0.9009,-0.183,-0.244,0.244,153.221,3.203,-89.132
5621,-0.0630,0.4604,-0.8984,-0.183,-0.244,0.183,153.215,3.208,-89.138
5631,-0.0625,0.4619,-0.9009,-0.122,-0.305,0.061,153.210,3.214,-89.138
5641,-0.0640,0.4609,-0.9028,0.061,-0.244,0.000,153.204,3.219,-89.138
5651,-0.0640,0.4614,-0.9028,0.244,0.000,0.000,153.204,3.224,-89.138
5661,-0.0610,0.4604,-0.9033,0.488,0.366,0.061,153.210,3.224,-89.138
5671,-0.0605,0.4600,-0.9038,0.732,0.549,0.061,153.215,3.219,-89.138
5681,-0.0605,0.4600,-0.9067,0.732,0.549,-0.122,153.221,3.219,-89.132
5691,-0.0596,0.4590,-0.9097,0.549,0.549,-0.183,153.226,3.214,-89.127
5701,-0.0596,0.4595,-0.9136,0.061,0.488,-0.122,153.226,3.214,-89.127
5711,-0.0586,0.4609,-0.9136,-0.305,0.427,0.000,153.226,3.208,-89.121
5721,-0.0605,0.4634,-0.9131,-0.427,0.244,0.061,153.221,3.208,-89.121
5731,-0.0566,0.4644,-0.9131,-0.427,-0.122,0.061,153.215,3.208,-89.121
5741,-0.0591,0.4653,-0.9111,-0.244,-0.549,0.061,153.210,3.214,-89.127
5751,-0.0601,0.4639,-0.9077,-0.183,-0.793,0.000,153.204,3.224,-89.127
5761,-0.0581,0.4639,-0.9082,-0.183,-0.732,-0.122,153.199,3.230,-89.132
5771,-0.0591,0.4619,-0.9058,-0.366,-0.427,-0.183,153.193,3.235,-89.132
5782,-0.0576,0.4604,-0.9048,-0.366,-0.122,-0.244,153.188,3.241,-89.132
5791,-0.0625,0.4590,-0.9014,-0.366,-0.061,-0.366,153.182,3.241,-89.132
5801,-0.0620,0.4600,-0.9014,-0.366,0.122,-0.366,153.177,3.246,-89.132
5811,-0.0620,0.4609,-0.9014,-0.183,0.244,-0.183,153.171,3.246,-89.132
5821,-0.0610,0.4614,-0.9033,0.305,0.366,-0.183,153.171,3.246,-89.132
5831,-0.0596,0.4634,-0.9087,0.793,0.549,-0.305,153.182,3.246,-89.132
5841,-0.0581,0.4604,-0.9102,0.854,0.610,-0.366,153.188,3.241,-89.132
5851,-0.0547,0.4575,-0.9141,0.732,0.671,-0.366,153.199,3.235,-89.132
5861,-0.0542,0.4551,-0.9165,0.427,0.671,-0.305,153.204,3.230,-89.132
5871,-0.0552,0.4526,-0.9165,0.000,0.366,-0.305,153.210,3.224,-89.132
5881,-0.0576,0.4502,-0.9126,-0.183,0.000,-0.122,153.215,3.224,-89.132
5891,-0.0581,0.4482,-0.9116,-0.122,-0.366,0.061,153.221,3.230,-89.132
5901,-0.0625,0.4478,-0.9131,0.000,-0.671,0.183,153.226,3.235,-89.132
5911,-0.0635,0.4468,-0.9136,0.000,-0.671,0.305,153.232,3.246,-89.132
5921,-0.0654,0.4492,-0.9082,-0.061,-0.671,0.549,153.237,3.252,-89.132
5931,-0.0659,0.4536,-0.9048,0.000,-0.732,0.732,153.237,3.263,-89.132
5941,-0.0625,0.4551,-0.9023,0.061,-0.854,0.793,153.237,3.268,-89.132
5951,-0.0635,0.4570,-0.9023,0.000,-0.916,0.793,153.237,3.274,-89.132
5961,-0.0645,0.4609,-0.9033,0.061,-0.732,0.793,153.232,3.285,-89.132
5971,-0.0649,0.4668,-0.9014,0.122,-0.427,0.793,153.226,3.285,-89.132
5981,-0.0659,0.4678,-0.9014,0.122,-0.183,0.671,153.221,3.290,-89.132
5991,-0.0649,0.4707,-0.9014,0.183,0.000,0.488,153.215,3.290,-89.132
6001,-0.0659,0.4746,-0.9033,0.183,0.183,0.244,153.210,3.290,-89.132
6011,-0.0669,0.4731,-0.9043,0.183,0.183,0.000,153.199,3.296,-89.132
6021,-0.0654,0.4722,-0.9019,0.183,0.183,-0.244,153.193,3.296,-89.132
6031,-0.0645,0.4727,-0.9058,0.244,0.305,-0.488,153.188,3.301,-89.132
6041,-0.0635,0.4707,-0.9048,0.366,0.366,-0.671,153.188,3.301,-89.132
6051,-0.0620,0.4668,-0.9028,0.427,0.366,-0.916,153.188,3.307,-89.132
6061,-0.0615,0.4629,-0.9072,0.427,0.244,-1.221,153.188,3.312,-89.121
6071,-0.0591,0.4600,-0.9111,0.244,0.122,-1.465,153.193,3.318,-89.105
6081,-0.0591,0.4619,-0.9111,-0.122,0.183,-1.465,153.193,3.323,-89.094
6091,-0.0596,0.4565,-0.9116,-0.122,0.427,-1.526,153.193,3.323,-89.077
6101,-0.0586,0.4507,-0.9126,-0.122,0.549,-1.404,153.199,3.323,-89.061
6111,-0.0571,0.4482,-0.9116,-0.183,0.305,-1.221,153.204,3.329,-89.050
6121,-0.0566,0.4438,-0.9121,-0.183,-0.122,-0.916,153.210,3.329,-89.039
6131,-0.0576,0.4434,-0.9106,-0.061,-0.610,-0.671,153.221,3.340,-89.039
6141,-0.0601,0.4438,-0.9077,0.000,-0.793,-0.305,153.226,3.345,-89.039
6151,-0.0596,0.4453,-0.9087,0.000,-0.671,0.000,153.232,3.351,-89.044
6161,-0.0581,0.4487,-0.9097,0.244,-0.488,0.000,153.237,3.356,-89.044
6171,-0.0547,0.4531,-0.9077,0.183,-0.427,0.366,153.243,3.356,-89.050
6181,-0.0581,0.4565,-0.9106,0.244,-0.427,0.488,153.248,3.356,-89.055
6191,-0.0620,0.4585,-0.9146,0.610,-0.366,0.549,153.254,3.356,-89.061
6201,-0.0630,0.4590,-0.9165,0.854,-0.244,0.488,153.265,3.362,-89.066
6211,-0.0625,0.4580,-0.9180,0.793,-0.244,0.305,153.270,3.362,-89.072
6221,-0.0654,0.4580,-0.9160,0.305,-0.366,0.183,153.276,3.367,-89.077
6231,-0.0654,0.4590,-0.9170,-0.244,-0.671,0.244,153.276,3.378,-89.083
6241,-0.0630,0.4600,-0.9131,-0.671,-1.038,0.244,153.270,3.384,-89.088
6251,-0.0620,0.4590,-0.9067,-0.671,-1.465,0.183,153.259,3.400,-89.094
6261,-0.0640,0.4604,-0.9058,-0.427,-1.953,0.061,153.254,3.417,-89.105
6271,-0.0645,0.4609,-0.9028,-0.061,-2.136,0.122,153.248,3.439,-89.116
6282,-0.0649,0.4595,-0.9014,0.183,-1.892,0.122,153.248,3.455,-89.127
6291,-0.0669,0.4580,-0.8945,0.244,-1.343,0.061,153.248,3.472,-89.132
6301,-0.0659,0.4595,-0.8940,0.183,-0.732,-0.061,153.243,3.483,-89.132
6311,-0.0679,0.4604,-0.8970,0.244,-0.244,-0.122,153.243,3.488,-89.132
6321,-0.0688,0.4575,-0.8994,0.305,0.305,-0.183,153.243,3.488,-89.132
6331,-0.0693,0.4561,-0.8989,0.366,0.793,-0.183,153.243,3.488,-89.127
6341,-0.0693,0.4531,-0.9004,0.427,1.038,-0.061,153.248,3.483,-89.121
6351,-0.0688,0.4546,-0.8989,0.549,1.099,0.061,153.254,3.477,-89.116
6361,-0.0693,0.4561,-0.9028,0.671,1.160,0.122,153.259,3.472,-89.110
6371,-0.0674,0.4531,-0.9063,0.732,1.404,0.244,153.270,3.461,-89.110
6381,-0.0664,0.4531,-0.9077,0.671,1.648,0.305,153.281,3.450,-89.105
6391,-0.0630,0.4561,-0.9121,0.610,1.709,0.305,153.287,3.433,-89.099
6401,-0.0620,0.4595,-0.9170,0.488,1.465,0.244,153.292,3.417,-89.094
6411,-0.0605,0.4609,-0.9170,0.488,1.099,0.244,153.298,3.406,-89.094
6421,-0.0625,0.4580,-0.9160,0.427,0.793,0.183,153.303,3.400,-89.088
6431,-0.0640,0.4561,-0.9160,0.427,0.305,-0.061,153.309,3.400,-89.088
6441,-0.0605,0.4561,-0.9150,0.244,-0.183,-0.305,153.314,3.400,-89.088
6451,-0.0620,0.4595,-0.9116,-0.244,-0.671,-0.244,153.314,3.411,-89.088
6461,-0.0640,0.4590,-0.9087,-0.488,-0.977,-0.122,153.309,3.422,-89.088
6471,-0.0659,0.4595,-0.9077,-0.427,-0.854,-0.061,153.298,3.433,-89.094
6481,-0.0654,0.4590,-0.9082,-0.122,-0.366,-0.122,153.298,3.439,-89.094
6491,-0.0625,0.4556,-0.9067,0.366,-0.122,-0.366,153.303,3.444,-89.088
6501,-0.0615,0.4536,-0.9063,0.549,-0.244,-0.427,153.309,3.444,-89.088
6511,-0.0654,0.4512,-0.9028,0.244,-0.732,-0.793,153.314,3.461,-89.083
6521,-0.0635,0.4585,-0.9116,0.244,-1.160,-0.854,153.314,3.472,-89.083
6531,-0.0645,0.4585,-0.9063,-0.244,-1.404,-0.732,153.309,3.494,-89.083
6541,-0.0664,0.4702,-0.9058,-1.831,-1.038,-0.793,153.287,3.505,-89.077
6551,-0.0693,0.4712,-0.9019,-2.136,-0.122,-0.793,153.254,3.516,-89.072
6561,-0.0688,0.4658,-0.9053,-0.793,0.854,-0.366,153.243,3.510,-89.066
6571,-0.0664,0.4556,-0.9028,1.221,0.977,-0.061,153.254,3.505,-89.061
6581,-0.0654,0.4487,-0.9058,2.136,0.732,0.000,153.281,3.499,-89.055
6591,-0.0635,0.4473,-0.9102,1.465,0.488,0.122,153.303,3.499,-89.055
6601,-0.0645,0.4561,-0.9106,0.305,0.427,0.427,153.303,3.494,-89.061
6611,-0.0645,0.4634,-0.9111,-0.305,0.427,0.549,153.298,3.488,-89.061
6621,-0.0630,0.4634,-0.9087,0.122,0.610,0.549,153.298,3.483,-89.061
6631,-0.0635,0.4619,-0.9077,0.732,0.977,0.366,153.303,3.472,-89.061
6641,-0.0649,0.4590,-0.9077,0.977,1.099,0.305,153.309,3.461,-89.061
6651,-0.0635,0.4585,-0.9116,0.977,0.977,0.183,153.320,3.455,-89.055
6661,-0.0635,0.4585,-0.9146,0.671,0.732,0.122,153.325,3.450,-89.055
6671,-0.0645,0.4600,-0.9146,0.305,0.671,0.183,153.331,3.444,-89.055
6681,-0.0630,0.4595,-0.9150,-0.122,0.549,0.122,153.331,3.439,-89.050
6691,-0.0610,0.4614,-0.9131,-0.305,0.305,0.000,153.325,3.433,-89.050
6701,-0.0615,0.4629,-0.9106,-0.366,0.000,-0.061,153.320,3.433,-89.050
6711,-0.0630,0.4624,-0.9072,-0.305,-0.305,-0.183,153.314,3.439,-89.050
6721,-0.0649,0.4624,-0.9063,-0.183,-0.366,-0.427,153.309,3.444,-89.050
6731,-0.0649,0.4609,-0.9058,0.000,-0.244,-0.549,153.303,3.455,-89.044
6741,-0.0640,0.4595,-0.9077,0.244,0.000,-0.671,153.303,3.455,-89.039
6751,-0.0620,0.4546,-0.9092,0.366,0.183,-0.732,153.309,3.461,-89.033
6761,-0.0635,0.4536,-0.9077,0.305,0.244,-0.732,153.314,3.461,-89.022
6771,-0.0645,0.4497,-0.9063,0.061,0.244,-0.549,153.320,3.466,-89.017
6782,-0.0645,0.4512,-0.9063,-0.122,0.244,-0.305,153.320,3.466,-89.011
6791,-0.0654,0.4517,-0.9067,-0.244,0.305,-0.122,153.320,3.466,-89.011
6801,-0.0659,0.4517,-0.9063,-0.305,0.427,0.061,153.320,3.466,-89.011
6811,-0.0620,0.4536,-0.9087,-0.183,0.671,0.244,153.320,3.455,-89.006
6821,-0.0649,0.4570,-0.9067,0.000,0.854,0.305,153.320,3.450,-89.006
6831,-0.0630,0.4556,-0.9087,0.122,0.854,0.244,153.320,3.444,-89.006
6841,-0.0645,0.4570,-0.9131,0.122,0.793,0.122,153.320,3.439,-89.006
6851,-0.0659,0.4580,-0.9126,-0.061,0.671,0.061,153.320,3.433,-89.000
6861,-0.0640,0.4561,-0.9116,-0.305,0.549,0.000,153.320,3.428,-89.000
6871,-0.0649,0.4565,-0.9116,-0.427,0.427,0.000,153.314,3.428,-88.995
6881,-0.0635,0.4551,-0.9097,-0.305,0.183,0.000,153.314,3.428,-88.995
6891,-0.0645,0.4536,-0.9097,-0.122,-0.122,-0.122,153.314,3.433,-88.995
6901,-0.0654,0.4556,-0.9116,0.000,-0.366,-0.244,153.314,3.439,-88.995
6911,-0.0659,0.4551,-0.9106,0.000,-0.427,-0.244,153.320,3.444,-88.995
6921,-0.0649,0.4546,-0.9082,-0.305,-0.183,-0.183,153.314,3.450,-88.995
6931,-0.0664,0.4556,-0.9097,-0.427,0.000,-0.061,153.314,3.455,-88.995
6941,-0.0625,0.4580,-0.9058,-0.427,0.122,0.000,153.309,3.455,-88.995
6951,-0.0630,0.4556,-0.9063,-0.122,0.244,0.061,153.303,3.450,-88.989
6961,-0.0625,0.4556,-0.9058,0.183,0.183,0.061,153.309,3.450,-88.989
6971,-0.0640,0.4531,-0.9082,0.305,0.122,-0.061,153.314,3.450,-88.989
6981,-0.0669,0.4521,-0.9063,0.122,0.000,0.000,153.314,3.455,-88.989
6991,-0.0669,0.4546,-0.9053,-0.061,0.000,0.061,153.314,3.455,-88.989
7001,-0.0684,0.4546,-0.9063,-0.122,0.305,0.183,153.314,3.455,-88.989
7011,-0.0640,0.4565,-0.9067,0.000,0.671,0.305,153.314,3.450,-88.989
7021,-0.0635,0.4570,-0.9058,0.366,0.916,0.366,153.314,3.444,-88.989
7031,-0.0625,0.4570,-0.9058,0.549,0.916,0.488,153.320,3.433,-88.989
7041,-0.0635,0.4565,-0.9072,0.488,0.854,0.549,153.325,3.428,-88.989
7051,-0.0620,0.4604,-0.9087,0.366,0.854,0.549,153.325,3.417,-88.995
7061,-0.0615,0.4648,-0.9111,0.061,0.671,0.305,153.325,3.411,-88.995
7071,-0.0649,0.4624,-0.9121,-0.122,0.366,0.000,153.320,3.406,-88.989
7081,-0.0659,0.4600,-0.9131,-0.305,0.122,-0.183,153.320,3.411,-88.989
7091,-0.0669,0.4590,-0.9121,-0.671,-0.061,-0.183,153.309,3.417,-88.989
7101,-0.0664,0.4619,-0.9116,-0.671,-0.122,-0.183,153.303,3.422,-88.984
7111,-0.0669,0.4609,-0.9116,-0.366,0.000,-0.183,153.298,3.422,-88.984
7121,-0.0645,0.4590,-0.9102,0.061,0.183,-0.122,153.298,3.422,-88.984
7131,-0.0630,0.4561,-0.9102,0.488,0.122,-0.061,153.303,3.428,-88.984
7141,-0.0610,0.4536,-0.9092,0.488,-0.061,0.000,153.309,3.428,-88.984
7151,-0.0635,0.4526,-0.9067,0.183,-0.183,0.061,153.314,3.428,-88.984
7161,-0.0625,0.4551,-0.9063,-0.183,-0.183,0.061,153.309,3.433,-88.984
7171,-0.0664,0.4536,-0.9063,-0.183,-0.122,0.122,153.309,3.433,-88.984
7181,-0.0674,0.4561,-0.9019,-0.061,0.000,0.061,153.309,3.439,-88.984
7191,-0.0669,0.4561,-0.9048,0.305,0.366,0.122,153.309,3.439,-88.984
7201,-0.0674,0.4561,-0.9043,0.610,0.671,0.183,153.314,3.433,-88.984
7211,-0.0659,0.4531,-0.9058,0.610,0.916,0.305,153.325,3.428,-88.984
7221,-0.0649,0.4556,-0.9063,0.366,0.854,0.366,153.325,3.422,-88.984
7231,-0.0649,0.4565,-0.9082,0.061,0.671,0.427,153.325,3.417,-88.984
7241,-0.0645,0.4604,-0.9106,-0.061,0.610,0.549,153.325,3.411,-88.984
7251,-0.0645,0.4604,-0.9106,0.000,0.732,0.427,153.325,3.406,-88.984
7261,-0.0645,0.4624,-0.9102,0.183,0.671,0.244,153.325,3.400,-88.984
7271,-0.0630,0.4609,-0.9102,0.183,0.610,0.122,153.325,3.395,-88.984
7282,-0.0640,0.4629,-0.9092,0.000,0.366,0.061,153.320,3.395,-88.984
7291,-0.0640,0.4648,-0.9082,-0.244,0.122,-0.061,153.314,3.395,-88.984
7301,-0.0635,0.4653,-0.9097,-0.366,0.000,-0.244,153.303,3.395,-88.984
7311,-0.0610,0.4648,-0.9102,-0.427,0.183,-0.427,153.298,3.395,-88.984
7321,-0.0596,0.4658,-0.9106,-0.305,0.366,-0.549,153.292,3.395,-88.984
7331,-0.0615,0.4639,-0.9097,-0.183,0.305,-0.671,153.287,3.395,-88.984
7341,-0.0610,0.4614,-0.9097,-0.122,0.122,-0.732,153.287,3.400,-88.984
7351,-0.0620,0.4604,-0.9082,-0.122,-0.061,-0.793,153.281,3.406,-88.984
7361,-0.0630,0.4604,-0.9106,-0.183,0.000,-0.854,153.281,3.406,-88.984
7371,-0.0620,0.4575,-0.9121,-0.183,0.122,-0.916,153.281,3.411,-88.984
7381,-0.0605,0.4526,-0.9102,-0.183,0.366,-0.854,153.281,3.411,-88.984
7391,-0.0615,0.4487,-0.9116,-0.061,0.488,-0.793,153.287,3.411,-88.984
7401,-0.0596,0.4463,-0.9141,0.061,0.427,-0.549,153.292,3.411,-88.984
7411,-0.0591,0.4492,-0.9111,0.000,0.183,-0.305,153.298,3.411,-88.984
7421,-0.0596,0.4517,-0.9087,0.000,-0.244,0.000,153.303,3.411,-88.984
7431,-0.0615,0.4517,-0.9111,0.061,-0.488,0.244,153.303,3.417,-88.984
7441,-0.0620,0.4546,-0.9102,0.061,-0.488,0.488,153.309,3.417,-88.984
7451,-0.0601,0.4595,-0.9102,0.000,-0.366,0.610,153.303,3.417,-88.984
7461,-0.0610,0.4634,-0.9087,-0.122,-0.244,0.793,153.298,3.417,-88.984
7471,-0.0625,0.4673,-0.9097,-0.183,-0.183,0.854,153.292,3.417,-88.984
7481,-0.0649,0.4687,-0.9102,-0.305,-0.305,0.793,153.281,3.417,-88.984
7491,-0.0688,0.4712,-0.9106,-0.305,-0.488,0.610,153.276,3.422,-88.984
7501,-0.0718,0.4727,-0.9072,-0.366,-0.671,0.305,153.259,3.433,-88.984
7511,-0.0737,0.4722,-0.9077,-0.488,-0.732,-0.061,153.248,3.444,-88.984
7521,-0.0747,0.4736,-0.9009,-0.793,-0.854,-0.488,153.232,3.461,-88.984
7531,-0.0742,0.4741,-0.8999,-0.977,-1.160,-0.793,153.210,3.483,-88.984
7541,-0.0752,0.4702,-0.9038,-0.488,-0.732,-1.282,153.199,3.505,-88.978
7551,-0.0728,0.4673,-0.9077,-0.366,0.000,-1.587,153.193,3.516,-88.962
7561,-0.0693,0.4600,-0.9072,-0.244,0.549,-1.831,153.193,3.521,-88.945
7571,-0.0664,0.4521,-0.9072,-0.183,0.610,-1.831,153.193,3.527,-88.923
7581,-0.0669,0.4482,-0.9102,-0.488,0.305,-1.831,153.193,3.538,-88.907
7591,-0.0640,0.4468,-0.9126,-0.671,0.061,-1.709,153.199,3.543,-88.890
7601,-0.0620,0.4468,-0.9111,-0.549,0.061,-1.526,153.199,3.549,-88.879
7611,-0.0620,0.4434,-0.9111,-0.488,0.061,-1.282,153.204,3.554,-88.868
7621,-0.0640,0.4399,-0.9126,-0.549,0.000,-1.099,153.210,3.560,-88.857
7631,-0.0640,0.4409,-0.9111,-0.732,-0.061,-0.854,153.210,3.565,-88.852
7641,-0.0649,0.4429,-0.9116,-0.793,-0.122,-0.610,153.215,3.571,-88.846
7651,-0.0640,0.4448,-0.9077,-0.671,-0.244,-0.427,153.215,3.576,-88.841
7661,-0.0625,0.4414,-0.9077,-0.366,-0.305,-0.244,153.221,3.576,-88.841
7671,-0.0649,0.4419,-0.9097,-0.244,-0.244,-0.122,153.226,3.582,-88.841
7681,-0.0649,0.4448,-0.9092,-0.244,-0.366,0.061,153.232,3.587,-88.841
7691,-0.0635,0.4473,-0.9097,-0.244,-0.366,0.244,153.232,3.587,-88.846
7701,-0.0596,0.4507,-0.9141,-0.244,-0.427,0.305,153.237,3.587,-88.852
7711,-0.0615,0.4521,-0.9116,-0.427,-0.488,0.305,153.232,3.587,-88.857
7721,-0.0620,0.4541,-0.9102,-0.488,-0.549,0.305,153.232,3.593,-88.863
7731,-0.0645,0.4556,-0.9102,-0.366,-0.549,0.305,153.232,3.598,-88.868
7741,-0.0630,0.4570,-0.9092,-0.366,-0.549,0.305,153.226,3.598,-88.874
7751,-0.0601,0.4604,-0.9097,-0.488,-0.549,0.366,153.221,3.598,-88.879
7761,-0.0596,0.4609,-0.9082,-0.366,-0.671,0.427,153.215,3.604,-88.885
7771,-0.0605,0.4619,-0.9087,-0.122,-0.610,0.488,153.210,3.604,-88.890
7782,-0.0601,0.4619,-0.9097,0.244,-0.427,0.488,153.210,3.604,-88.896
7791,-0.0620,0.4575,-0.9067,0.732,-0.122,0.549,153.221,3.598,-88.901
7801,-0.0605,0.4565,-0.9102,1.038,0.183,0.610,153.232,3.593,-88.907
7811,-0.0596,0.4585,-0.9111,0.854,0.244,0.732,153.237,3.587,-88.912
7821,-0.0635,0.4575,-0.9121,0.488,0.000,0.854,153.243,3.582,-88.923
7831,-0.0659,0.4595,-0.9150,0.244,-0.366,0.854,153.248,3.582,-88.929
7841,-0.0698,0.4619,-0.9146,0.000,-0.732,0.793,153.248,3.587,-88.940
7851,-0.0698,0.4624,-0.9150,0.000,-0.916,0.793,153.243,3.593,-88.951
7861,-0.0708,0.4614,-0.9116,0.000,-0.977,0.732,153.243,3.604,-88.962
7871,-0.0747,0.4600,-0.9111,0.000,-1.160,0.732,153.243,3.615,-88.973
7881,-0.0752,0.4575,-0.9077,-0.061,-1.160,0.732,153.243,3.631,-88.989
7891,-0.0757,0.4604,-0.9033,-0.122,-1.282,0.732,153.237,3.642,-89.000
7901,-0.0732,0.4609,-0.8994,-0.183,-1.404,0.732,153.232,3.658,-89.011
7911,-0.0747,0.4639,-0.8975,-0.183,-1.404,0.916,153.221,3.669,-89.028
7921,-0.0742,0.4683,-0.8994,-0.061,-1.282,0.854,153.215,3.686,-89.039
7931,-0.0742,0.4692,-0.8989,0.061,-0.916,0.732,153.204,3.697,-89.050
7941,-0.0771,0.4717,-0.8984,0.183,-0.549,0.427,153.199,3.702,-89.055
7951,-0.0767,0.4727,-0.8979,0.183,0.061,0.244,153.188,3.708,-89.061
7961,-0.0771,0.4717,-0.8975,-0.244,0.366,0.000,153.177,3.713,-89.055
7971,-0.0767,0.4702,-0.8975,-0.244,0.427,-0.244,153.166,3.713,-89.055
7981,-0.0771,0.4692,-0.9004,-0.061,0.549,-0.549,153.160,3.719,-89.044
7991,-0.0781,0.4668,-0.9028,0.244,0.549,-0.671,153.160,3.724,-89.039
8001,-0.0757,0.4653,-0.9028,0.305,0.366,-0.610,153.160,3.730,-89.028
8011,-0.0742,0.4658,-0.9004,0.122,0.244,-0.549,153.155,3.735,-89.022
8021,-0.0737,0.4687,-0.9033,-0.183,0.183,-0.610,153.149,3.741,-89.017
8031,-0.0718,0.4687,-0.9048,-0.122,0.305,-0.793,153.144,3.741,-89.011
8041,-0.0698,0.4668,-0.9072,0.000,0.671,-0.977,153.138,3.741,-89.000
8051,-0.0708,0.4639,-0.9067,0.061,0.977,-1.160,153.138,3.741,-88.984
8061,-0.0693,0.4585,-0.9048,0.000,1.099,-1.038,153.138,3.741,-88.967
8071,-0.0713,0.4521,-0.9038,-0.183,0.916,-0.977,153.138,3.735,-88.956
8081,-0.0703,0.4512,-0.9019,-0.122,0.610,-0.916,153.144,3.741,-88.945
8091,-0.0688,0.4521,-0.9053,0.122,0.549,-0.916,153.149,3.741,-88.934
8101,-0.0688,0.4507,-0.9087,0.305,0.671,-0.854,153.155,3.741,-88.923
8111,-0.0669,0.4502,-0.9092,0.427,0.916,-0.610,153.166,3.735,-88.912
8121,-0.0649,0.4487,-0.9111,0.427,1.038,-0.427,153.177,3.724,-88.907
8131,-0.0645,0.4482,-0.9111,0.244,1.099,-0.305,153.188,3.719,-88.896
8141,-0.0615,0.4521,-0.9141,0.122,1.038,-0.183,153.193,3.708,-88.890
8151,-0.0625,0.4507,-0.9146,0.000,0.732,-0.061,153.199,3.697,-88.885
8161,-0.0615,0.4497,-0.9155,-0.122,0.427,0.244,153.204,3.691,-88.885
8171,-0.0630,0.4497,-0.9165,-0.061,0.183,0.122,153.210,3.686,-88.890
8181,-0.0620,0.4526,-0.9150,-0.122,0.000,0.183,153.215,3.680,-88.890
8191,-0.0635,0.4521,-0.9131,-0.244,-0.122,0.244,153.215,3.680,-88.890
8201,-0.0654,0.4512,-0.9111,-0.305,-0.366,0.427,153.215,3.686,-88.896
8211,-0.0674,0.4536,-0.9092,-0.244,-0.427,0.610,153.215,3.686,-88.907
8221,-0.0654,0.4556,-0.9063,0.000,-0.366,0.671,153.215,3.686,-88.912
8231,-0.0659,0.4551,-0.9053,0.366,-0.244,0.793,153.221,3.686,-88.923
8241,-0.0664,0.4561,-0.9033,0.488,-0.122,0.916,153.226,3.680,-88.929
8251,-0.0688,0.4590,-0.9053,0.305,-0.183,0.916,153.226,3.680,-88.940
8261,-0.0693,0.4609,-0.9048,0.000,-0.244,0.854,153.221,3.680,-88.945
8271,-0.0688,0.4619,-0.9023,-0.061,-0.122,0.732,153.221,3.680,-88.956
8282,-0.0723,0.4619,-0.9014,0.061,0.244,0.671,153.215,3.680,-88.962
8291,-0.0728,0.4614,-0.9009,0.244,0.610,0.610,153.215,3.675,-88.962
8301,-0.0713,0.4619,-0.9009,0.427,0.977,0.488,153.215,3.669,-88.962
8311,-0.0698,0.4619,-0.9023,0.549,1.282,0.427,153.215,3.658,-88.962
8321,-0.0688,0.4609,-0.9028,0.610,1.404,0.427,153.221,3.647,-88.956
8331,-0.0703,0.4580,-0.9048,0.610,1.465,0.366,153.226,3.636,-88.956
8341,-0.0693,0.4575,-0.9058,0.488,1.465,0.366,153.232,3.625,-88.951
8351,-0.0669,0.4590,-0.9072,0.549,1.465,0.488,153.237,3.609,-88.951
8361,-0.0669,0.4595,-0.9082,0.793,1.404,0.488,153.243,3.598,-88.945
8371,-0.0674,0.4575,-0.9087,0.916,1.343,0.427,153.254,3.587,-88.945
8381,-0.0664,0.4565,-0.9082,0.732,1.221,0.305,153.259,3.576,-88.940
8391,-0.0693,0.4551,-0.9063,0.488,1.160,0.183,153.265,3.565,-88.940
8401,-0.0679,0.4565,-0.9053,0.122,1.099,0.122,153.265,3.560,-88.934
8411,-0.0659,0.4585,-0.9053,-0.244,1.160,0.183,153.265,3.549,-88.929
8421,-0.0669,0.4570,-0.9072,-0.183,1.160,0.183,153.259,3.543,-88.929
8431,-0.0659,0.4600,-0.9092,0.122,1.282,0.183,153.265,3.532,-88.923
8441,-0.0649,0.4595,-0.9092,0.427,1.221,0.183,153.265,3.521,-88.918
8451,-0.0625,0.4585,-0.9126,0.610,1.160,0.244,153.270,3.510,-88.918
8461,-0.0630,0.4561,-0.9102,0.549,0.977,0.183,153.281,3.499,-88.912
8471,-0.0640,0.4546,-0.9116,0.305,0.854,0.183,153.287,3.494,-88.912
8481,-0.0645,0.4551,-0.9092,0.000,0.793,0.305,153.287,3.483,-88.912
8491,-0.0645,0.4561,-0.9048,0.000,0.732,0.427,153.287,3.477,-88.912
8501,-0.0649,0.4565,-0.9043,0.244,0.916,0.549,153.287,3.472,-88.912
8511,-0.0664,0.4575,-0.9058,0.488,1.221,0.549,153.292,3.461,-88.912
8521,-0.0654,0.4536,-0.9063,0.671,1.404,0.549,153.298,3.444,-88.912
8531,-0.0649,0.4521,-0.9053,0.610,1.526,0.549,153.309,3.433,-88.907
8541,-0.0659,0.4531,-0.9043,0.427,1.465,0.549,153.314,3.422,-88.907
8552,-0.0669,0.4536,-0.9067,0.244,1.465,0.610,153.314,3.406,-88.907
8562,-0.0664,0.4556,-0.9077,0.244,1.526,0.610,153.320,3.395,-88.901
8572,-0.0645,0.4585,-0.9053,0.488,1.587,0.732,153.320,3.378,-88.901
8582,-0.0625,0.4600,-0.9072,0.793,1.587,0.793,153.325,3.362,-88.901
8592,-0.0620,0.4629,-0.9136,1.038,1.526,0.671,153.336,3.351,-88.901
8602,-0.0596,0.4624,-0.9150,1.038,1.526,0.549,153.347,3.334,-88.901
8612,-0.0586,0.4634,-0.9136,0.793,1.404,0.366,153.353,3.318,-88.896
8622,-0.0591,0.4639,-0.9160,0.427,1.221,0.183,153.353,3.307,-88.896
8632,-0.0601,0.4629,-0.9160,0.122,1.099,0.061,153.353,3.296,-88.890
8642,-0.0576,0.4653,-0.9146,-0.061,0.977,-0.122,153.347,3.285,-88.885
8652,-0.0576,0.4629,-0.9141,-0.122,0.793,-0.244,153.347,3.279,-88.879
8662,-0.0591,0.4634,-0.9136,-0.183,0.488,-0.244,153.342,3.279,-88.874
8672,-0.0596,0.4629,-0.9111,-0.366,0.244,-0.244,153.336,3.279,-88.868
8682,-0.0601,0.4614,-0.9082,-0.549,0.244,-0.366,153.325,3.279,-88.863
8692,-0.0586,0.4595,-0.9092,-0.671,0.366,-0.549,153.320,3.274,-88.857
8702,-0.0586,0.4580,-0.9087,-0.610,0.549,-0.671,153.314,3.274,-88.852
8712,-0.0596,0.4556,-0.9082,-0.549,0.549,-0.732,153.309,3.274,-88.841
8722,-0.0571,0.4521,-0.9058,-0.488,0.427,-0.793,153.309,3.274,-88.830
8732,-0.0576,0.4517,-0.9058,-0.549,0.244,-0.732,153.303,3.274,-88.824
8742,-0.0601,0.4507,-0.9038,-0.549,0.244,-0.610,153.298,3.274,-88.819
8752,-0.0601,0.4512,-0.9038,-0.488,0.427,-0.366,153.298,3.274,-88.813
8762,-0.0605,0.4531,-0.9077,-0.305,0.671,-0.183,153.298,3.274,-88.808
8772,-0.0581,0.4521,-0.9116,-0.061,0.916,-0.061,153.298,3.263,-88.802
8782,-0.0562,0.4541,-0.9136,-0.061,0.916,0.000,153.303,3.252,-88.797
8791,-0.0571,0.4556,-0.9160,-0.244,0.732,0.000,153.303,3.246,-88.797
8802,-0.0576,0.4570,-0.9175,-0.305,0.305,0.000,153.303,3.246,-88.797
8812,-0.0591,0.4565,-0.9214,-0.427,0.061,-0.061,153.298,3.246,-88.792
8822,-0.0605,0.4561,-0.9165,-0.366,-0.244,-0.122,153.298,3.246,-88.792
8832,-0.0601,0.4575,-0.9131,-0.305,-0.427,-0.122,153.298,3.252,-88.797
8842,-0.0610,0.4590,-0.9102,-0.427,-0.610,-0.122,153.292,3.263,-88.797
8852,-0.0601,0.4595,-0.9048,-0.549,-0.671,-0.061,153.287,3.268,-88.797
8862,-0.0615,0.4590,-0.9063,-0.549,-0.610,0.000,153.276,3.274,-88.802
8872,-0.0615,0.4585,-0.9038,-0.427,-0.427,0.000,153.270,3.279,-88.802
8882,-0.0635,0.4570,-0.9028,-0.122,-0.183,0.061,153.270,3.285,-88.802
8892,-0.0630,0.4575,-0.9004,0.061,0.122,0.061,153.265,3.290,-88.802
8902,-0.0615,0.4575,-0.9028,0.183,0.366,0.061,153.265,3.285,-88.802
8912,-0.0605,0.4575,-0.9048,0.366,0.488,0.000,153.270,3.285,-88.802
8922,-0.0625,0.4609,-0.9043,0.366,0.610,0.000,153.270,3.279,-88.797
8932,-0.0615,0.4595,-0.9063,0.427,0.671,0.000,153.276,3.274,-88.797
8942,-0.0615,0.4590,-0.9092,0.488,0.732,0.000,153.276,3.274,-88.792
8952,-0.0610,0.4595,-0.9102,0.427,0.732,0.000,153.281,3.268,-88.792
8962,-0.0620,0.4570,-0.9121,0.427,0.854,0.000,153.287,3.263,-88.786
8972,-0.0605,0.4541,-0.9155,0.305,0.916,0.000,153.292,3.252,-88.781
8982,-0.0605,0.4546,-0.9141,0.061,0.549,0.000,153.298,3.252,-88.781
8992,-0.0591,0.4575,-0.9126,0.000,0.122,-0.061,153.298,3.252,-88.781
9002,-0.0586,0.4570,-0.9126,0.000,-0.244,0.000,153.298,3.252,-88.781
9012,-0.0615,0.4556,-0.9136,0.122,-0.305,0.000,153.303,3.257,-88.781
9022,-0.0625,0.4556,-0.9121,0.305,-0.122,0.000,153.309,3.263,-88.781
9032,-0.0620,0.4541,-0.9092,0.305,0.061,0.061,153.309,3.263,-88.781
9042,-0.0615,0.4531,-0.9072,0.244,0.061,0.061,153.314,3.263,-88.781
9052,-0.0645,0.4561,-0.9048,0.183,0.122,0.061,153.314,3.268,-88.781
9061,-0.0630,0.4575,-0.9048,0.061,0.061,0.244,153.314,3.268,-88.781
9071,-0.0625,0.4600,-0.9053,0.122,0.061,0.305,153.314,3.268,-88.781
9081,-0.0601,0.4609,-0.9087,0.549,0.183,0.366,153.320,3.268,-88.781
9092,-0.0581,0.4600,-0.9116,0.854,0.549,0.305,153.325,3.257,-88.781
9101,-0.0566,0.4604,-0.9116,0.977,0.793,0.183,153.331,3.252,-88.781
9111,-0.0571,0.4570,-0.9116,0.916,0.854,0.122,153.342,3.241,-88.781
9121,-0.0581,0.4546,-0.9097,0.549,0.549,0.061,153.347,3.235,-88.781
9132,-0.0610,0.4531,-0.9111,0.183,0.305,0.122,153.353,3.235,-88.781
9142,-0.0640,0.4556,-0.9106,0.061,0.122,0.122,153.353,3.241,-88.781
9152,-0.0635,0.4551,-0.9102,0.366,0.122,0.183,153.358,3.241,-88.781
9162,-0.0620,0.4531,-0.9087,0.610,0.122,0.244,153.364,3.241,-88.781
9171,-0.0640,0.4512,-0.9087,0.610,0.000,0.305,153.375,3.241,-88.781
9181,-0.0635,0.4502,-0.9082,0.488,-0.122,0.488,153.380,3.246,-88.781
9192,-0.0625,0.4521,-0.9063,0.305,-0.061,0.610,153.386,3.246,-88.781
9202,-0.0605,0.4551,-0.9058,0.305,-0.061,0.549,153.386,3.246,-88.781
9212,-0.0630,0.4570,-0.9033,0.488,-0.061,0.610,153.391,3.246,-88.781
9222,-0.0620,0.4590,-0.9014,0.732,0.122,0.610,153.391,3.246,-88.781
9232,-0.0630,0.4595,-0.9028,0.916,0.244,0.610,153.397,3.241,-88.781
9242,-0.0620,0.4604,-0.9053,0.916,0.366,0.488,153.402,3.241,-88.781
9252,-0.0635,0.4619,-0.9067,0.793,0.488,0.366,153.408,3.235,-88.781
9262,-0.0635,0.4639,-0.9067,0.732,0.732,0.244,153.408,3.235,-88.781
9272,-0.0640,0.4653,-0.9077,0.671,1.038,0.122,153.413,3.224,-88.781
9282,-0.0610,0.4634,-0.9063,0.732,1.221,-0.061,153.413,3.219,-88.781
9292,-0.0596,0.4619,-0.9072,0.793,1.099,-0.122,153.419,3.208,-88.781
9302,-0.0586,0.4590,-0.9106,0.854,0.854,-0.183,153.424,3.203,-88.781
9312,-0.0620,0.4580,-0.9121,0.732,0.671,-0.183,153.430,3.203,-88.781
9322,-0.0601,0.4575,-0.9126,0.610,0.732,-0.305,153.435,3.197,-88.781
9332,-0.0571,0.4590,-0.9121,0.488,0.854,-0.366,153.441,3.192,-88.781
9342,-0.0557,0.4580,-0.9150,0.549,0.854,-0.427,153.446,3.186,-88.781
9352,-0.0566,0.4541,-0.9155,0.549,0.732,-0.549,153.452,3.181,-88.781
9362,-0.0566,0.4497,-0.9146,0.366,0.488,-0.610,153.463,3.181,-88.781
9372,-0.0581,0.4492,-0.9106,0.122,0.122,-0.549,153.468,3.181,-88.781
9382,-0.0586,0.4453,-0.9121,0.000,-0.183,-0.366,153.468,3.186,-88.781
9392,-0.0596,0.4453,-0.9102,0.000,-0.244,-0.305,153.474,3.192,-88.781
9402,-0.0576,0.4473,-0.9106,0.183,-0.122,-0.061,153.479,3.197,-88.781
9412,-0.0581,0.4487,-0.9106,0.427,0.061,0.122,153.490,3.192,-88.781
9422,-0.0562,0.4478,-0.9082,0.610,0.183,0.305,153.495,3.192,-88.781
9432,-0.0557,0.4458,-0.9116,0.610,0.061,0.427,153.506,3.186,-88.781
9442,-0.0586,0.4497,-0.9141,0.488,0.000,0.427,153.512,3.186,-88.781
9452,-0.0581,0.4521,-0.9155,0.305,0.000,0.488,153.517,3.186,-88.781
9462,-0.0576,0.4546,-0.9160,0.183,0.061,0.488,153.523,3.181,-88.781
9472,-0.0586,0.4546,-0.9150,0.061,-0.061,0.488,153.523,3.181,-88.781
9482,-0.0605,0.4541,-0.9155,-0.061,-0.244,0.549,153.523,3.186,-88.781
9492,-0.0601,0.4546,-0.9121,-0.183,-0.427,0.488,153.517,3.186,-88.781
9502,-0.0601,0.4561,-0.9072,-0.183,-0.610,0.488,153.517,3.192,-88.781
9512,-0.0576,0.4565,-0.9067,-0.183,-0.732,0.488,153.512,3.197,-88.781
9522,-0.0596,0.4575,-0.9067,-0.122,-0.793,0.427,153.506,3.203,-88.781
9532,-0.0605,0.4565,-0.9063,0.061,-0.732,0.366,153.506,3.214,-88.781
9542,-0.0615,0.4561,-0.9048,0.061,-0.549,0.305,153.501,3.219,-88.781
9552,-0.0625,0.4551,-0.9053,-0.061,-0.366,0.305,153.501,3.224,-88.781
9562,-0.0615,0.4585,-0.9063,-0.122,-0.183,0.366,153.495,3.224,-88.781
9572,-0.0605,0.4604,-0.9053,-0.122,-0.061,0.366,153.490,3.224,-88.781
9582,-0.0596,0.4595,-0.9077,0.061,0.122,0.244,153.484,3.224,-88.781
9592,-0.0596,0.4585,-0.9077,0.122,0.183,0.183,153.484,3.224,-88.781
9602,-0.0601,0.4585,-0.9077,0.183,0.305,0.061,153.484,3.224,-88.781
9612,-0.0610,0.4570,-0.9087,0.122,0.427,0.000,153.484,3.219,-88.781
9622,-0.0625,0.4590,-0.9092,0.000,0.488,-0.061,153.479,3.219,-88.781
9632,-0.0615,0.4604,-0.9111,-0.122,0.366,-0.122,153.474,3.219,-88.781
9642,-0.0596,0.4609,-0.9097,-0.427,0.122,-0.122,153.468,3.219,-88.781
9652,-0.0610,0.4595,-0.9097,-0.549,-0.061,-0.122,153.463,3.224,-88.781
9662,-0.0610,0.4595,-0.9102,-0.671,-0.122,-0.122,153.452,3.224,-88.781
9672,-0.0605,0.4619,-0.9121,-0.671,0.000,-0.183,153.441,3.230,-88.781
9682,-0.0586,0.4604,-0.9087,-0.671,0.183,-0.183,153.430,3.230,-88.781
9692,-0.0610,0.4614,-0.9092,-0.671,0.183,-0.305,153.424,3.230,-88.781
9702,-0.0649,0.4575,-0.9043,-0.671,-0.061,-0.549,153.413,3.235,-88.781
9712,-0.0659,0.4565,-0.9087,-0.854,-0.305,-0.732,153.402,3.246,-88.781
9722,-0.0669,0.4585,-0.9102,-1.099,-0.366,-0.793,153.391,3.263,-88.781
9732,-0.0649,0.4570,-0.9111,-0.977,-0.305,-0.793,153.380,3.268,-88.781
9742,-0.0620,0.4556,-0.9077,-0.549,-0.122,-0.793,153.375,3.279,-88.781
9752,-0.0591,0.4551,-0.9111,-0.305,0.000,-0.854,153.375,3.279,-88.781
9762,-0.0596,0.4526,-0.9121,-0.183,-0.061,-0.916,153.375,3.285,-88.781
9772,-0.0576,0.4507,-0.9106,-0.122,-0.183,-0.916,153.380,3.290,-88.781
9782,-0.0605,0.4497,-0.9082,-0.244,-0.427,-0.916,153.380,3.301,-88.781
9792,-0.0625,0.4507,-0.9121,-0.305,-0.488,-0.854,153.380,3.312,-88.781
9802,-0.0649,0.4463,-0.9087,-0.244,-0.427,-0.610,153.380,3.323,-88.781
9812,-0.0645,0.4468,-0.9058,-0.122,-0.244,-0.427,153.386,3.329,-88.781
9822,-0.0640,0.4478,-0.9082,0.122,-0.122,-0.244,153.391,3.334,-88.781
9832,-0.0605,0.4468,-0.9116,0.183,-0.061,-0.183,153.397,3.334,-88.781
9842,-0.0635,0.4487,-0.9102,0.183,-0.061,-0.061,153.402,3.340,-88.781
9852,-0.0605,0.4487,-0.9111,0.061,-0.122,0.061,153.408,3.340,-88.781
9862,-0.0625,0.4492,-0.9106,-0.122,-0.183,0.122,153.408,3.345,-88.781
9872,-0.0625,0.4526,-0.9082,-0.244,-0.122,0.244,153.408,3.345,-88.781
9882,-0.0630,0.4561,-0.9092,-0.305,-0.061,0.305,153.402,3.345,-88.781
9892,-0.0635,0.4570,-0.9082,-0.305,-0.061,0.366,153.397,3.345,-88.781
9902,-0.0615,0.4590,-0.9067,-0.183,-0.061,0.366,153.391,3.345,-88.781
9912,-0.0635,0.4595,-0.9087,-0.061,0.000,0.244,153.391,3.351,-88.781
9922,-0.0625,0.4604,-0.9072,0.122,0.183,0.122,153.391,3.345,-88.781
9932,-0.0601,0.4629,-0.9087,0.122,0.244,0.000,153.386,3.345,-88.781
9942,-0.0591,0.4629,-0.9082,0.061,0.183,-0.183,153.386,3.345,-88.781
9952,-0.0610,0.4629,-0.9111,0.061,0.183,-0.305,153.380,3.345,-88.781
9962,-0.0596,0.4619,-0.9077,0.183,0.244,-0.366,153.380,3.345,-88.781
9972,-0.0635,0.4609,-0.9067,0.244,0.305,-0.427,153.380,3.345,-88.781
9982,-0.0635,0.4556,-0.9097,0.305,0.427,-0.610,153.380,3.345,-88.781
9992,-0.0649,0.4575,-0.9102,0.244,0.610,-0.610,153.386,3.345,-88.781
10002,-0.0615,0.4575,-0.9141,0.122,0.732,-0.610,153.386,3.345,-88.781
10012,-0.0591,0.4561,-0.9170,0.122,0.610,-0.610,153.391,3.340,-88.781
10022,-0.0586,0.4526,-0.9170,0.183,0.244,-0.549,153.397,3.340,-88.781
10032,-0.0605,0.4463,-0.9170,0.122,-0.122,-0.549,153.402,3.345,-88.781
10042,-0.0596,0.4458,-0.9146,0.000,-0.305,-0.366,153.408,3.351,-88.781
10052,-0.0601,0.4478,-0.9185,-0.183,-0.488,-0.122,153.413,3.356,-88.781
10062,-0.0615,0.4468,-0.9131,-0.305,-0.610,0.000,153.413,3.362,-88.781
10072,-0.0615,0.4492,-0.9082,-0.244,-0.732,0.122,153.413,3.367,-88.781
10082,-0.0630,0.4536,-0.9048,-0.122,-0.732,0.244,153.413,3.378,-88.781
10092,-0.0610,0.4551,-0.9043,-0.061,-0.671,0.427,153.413,3.378,-88.781
10102,-0.0610,0.4556,-0.9048,0.122,-0.610,0.488,153.413,3.384,-88.781
10112,-0.0610,0.4556,-0.9067,0.183,-0.549,0.427,153.413,3.389,-88.781
10122,-0.0645,0.4585,-0.9097,0.122,-0.427,0.244,153.408,3.395,-88.781
10132,-0.0669,0.4590,-0.9106,-0.061,-0.366,0.183,153.408,3.400,-88.781
10142,-0.0674,0.4595,-0.9111,-0.183,-0.244,0.122,153.402,3.406,-88.781
10152,-0.0698,0.4604,-0.9102,-0.305,-0.122,0.061,153.397,3.411,-88.781
10162,-0.0679,0.4609,-0.9102,-0.244,-0.122,0.000,153.391,3.417,-88.781
10172,-0.0679,0.4595,-0.9097,-0.122,-0.366,-0.061,153.391,3.422,-88.781
10182,-0.0659,0.4575,-0.9097,-0.061,-0.488,-0.061,153.391,3.428,-88.781
10192,-0.0654,0.4570,-0.9063,-0.122,-0.610,-0.061,153.386,3.439,-88.781
10202,-0.0659,0.4570,-0.9058,-0.244,-0.610,-0.122,153.380,3.450,-88.781
10212,-0.0635,0.4561,-0.9043,-0.305,-0.427,-0.122,153.375,3.455,-88.781
10222,-0.0640,0.4585,-0.9043,-0.183,-0.061,-0.122,153.375,3.455,-88.781
10232,-0.0640,0.4565,-0.9033,-0.061,0.244,-0.122,153.369,3.455,-88.781
10242,-0.0640,0.4556,-0.9058,-0.061,0.366,-0.183,153.369,3.455,-88.781
10252,-0.0649,0.4546,-0.9063,-0.183,0.366,-0.183,153.369,3.455,-88.781
10262,-0.0645,0.4551,-0.9087,-0.244,0.427,-0.183,153.364,3.455,-88.781
10272,-0.0640,0.4565,-0.9077,-0.244,0.366,-0.122,153.364,3.450,-88.781
10282,-0.0679,0.4561,-0.9077,-0.183,0.366,-0.122,153.358,3.455,-88.781
10292,-0.0669,0.4556,-0.9097,-0.061,0.427,0.000,153.358,3.450,-88.781
10302,-0.0659,0.4565,-0.9082,0.061,0.427,0.061,153.358,3.450,-88.781
10312,-0.0649,0.4570,-0.9116,0.122,0.366,0.122,153.364,3.450,-88.781
10322,-0.0640,0.4565,-0.9126,0.061,0.305,0.183,153.364,3.444,-88.781
10332,-0.0615,0.4604,-0.9136,0.000,0.183,0.122,153.364,3.444,-88.781
10342,-0.0620,0.4595,-0.9146,0.061,0.061,-0.061,153.364,3.444,-88.781
10352,-0.0635,0.4575,-0.9111,0.061,-0.061,-0.183,153.364,3.444,-88.781
10362,-0.0645,0.4561,-0.9067,-0.061,-0.244,-0.427,153.364,3.455,-88.781
10372,-0.0664,0.4551,-0.9082,-0.305,-0.366,-0.549,153.358,3.461,-88.781
10382,-0.0645,0.4531,-0.9116,-0.549,-0.366,-0.488,153.358,3.466,-88.781
10392,-0.0654,0.4517,-0.9097,-0.427,-0.305,-0.366,153.353,3.477,-88.781
10402,-0.0630,0.4536,-0.9106,-0.122,-0.061,-0.183,153.353,3.477,-88.781
10412,-0.0630,0.4546,-0.9106,0.244,0.061,-0.061,153.358,3.477,-88.781
10422,-0.0601,0.4551,-0.9131,0.732,0.122,0.061,153.369,3.477,-88.781
10432,-0.0610,0.4517,-0.9111,0.916,0.061,0.122,153.380,3.472,-88.781
10442,-0.0640,0.4507,-0.9092,0.610,-0.061,0.183,153.386,3.472,-88.781
10452,-0.0654,0.4507,-0.9067,0.244,-0.061,0.305,153.391,3.477,-88.781
10462,-0.0645,0.4541,-0.9077,0.000,0.061,0.488,153.391,3.472,-88.781
10472,-0.0645,0.4570,-0.9063,0.061,0.183,0.549,153.391,3.472,-88.781
10482,-0.0635,0.4570,-0.9087,0.305,0.183,0.488,153.391,3.472,-88.781
10492,-0.0654,0.4585,-0.9102,0.427,0.122,0.427,153.397,3.466,-88.781
10502,-0.0684,0.4575,-0.9111,0.366,-0.061,0.427,153.397,3.472,-88.781
10512,-0.0679,0.4575,-0.9111,0.122,-0.122,0.305,153.397,3.472,-88.781
10522,-0.0664,0.4609,-0.9092,-0.183,-0.122,0.183,153.391,3.477,-88.781
10532,-0.0679,0.4609,-0.9063,-0.305,-0.122,0.000,153.386,3.483,-88.781
10542,-0.0693,0.4600,-0.9077,-0.305,-0.244,-0.183,153.380,3.488,-88.781
10552,-0.0674,0.4590,-0.9048,-0.244,-0.305,-0.305,153.375,3.494,-88.781
10562,-0.0703,0.4580,-0.9038,-0.122,-0.183,-0.305,153.369,3.505,-88.781
10572,-0.0684,0.4580,-0.9043,0.061,0.061,-0.183,153.369,3.505,-88.781
10582,-0.0649,0.4580,-0.9023,0.305,0.366,-0.061,153.369,3.505,-88.781
10592,-0.0635,0.4575,-0.9019,0.610,0.549,-0.061,153.375,3.499,-88.781
10602,-0.0635,0.4595,-0.9028,0.793,0.793,-0.122,153.380,3.494,-88.781
10612,-0.0620,0.4595,-0.9067,0.793,1.099,-0.183,153.386,3.488,-88.781
10622,-0.0615,0.4595,-0.9111,0.732,1.404,-0.244,153.391,3.477,-88.781
10632,-0.0615,0.4595,-0.9097,0.488,1.343,-0.366,153.397,3.466,-88.781
10642,-0.0630,0.4600,-0.9126,0.305,1.282,-0.549,153.397,3.455,-88.781
10652,-0.0625,0.4590,-0.9165,0.122,1.221,-0.671,153.397,3.450,-88.781
10662,-0.0615,0.4590,-0.9185,-0.061,1.099,-0.732,153.397,3.444,-88.781
10672,-0.0610,0.4585,-0.9194,-0.061,0.854,-0.732,153.402,3.439,-88.781
10682,-0.0591,0.4536,-0.9219,-0.122,0.427,-0.732,153.402,3.433,-88.781
10692,-0.0576,0.4517,-0.9199,-0.305,-0.183,-0.793,153.402,3.439,-88.781
10702,-0.0610,0.4521,-0.9194,-0.610,-0.793,-0.671,153.402,3.450,-88.781
10712,-0.0625,0.4473,-0.9170,-0.854,-1.221,-0.488,153.402,3.461,-88.781
10722,-0.0620,0.4473,-0.9126,-0.916,-1.343,-0.488,153.397,3.477,-88.781
10732,-0.0610,0.4521,-0.9077,-0.854,-1.221,-0.366,153.391,3.488,-88.781
10742,-0.0605,0.4512,-0.9077,-0.671,-0.977,-0.244,153.386,3.499,-88.781
10752,-0.0630,0.4507,-0.9058,-0.366,-0.610,-0.122,153.380,3.505,-88.781
10762,-0.0635,0.4497,-0.9072,-0.183,-0.366,-0.061,153.380,3.510,-88.781
10772,-0.0620,0.4526,-0.9106,-0.122,-0.244,0.061,153.380,3.510,-88.781
10783,-0.0635,0.4536,-0.9106,-0.061,-0.122,0.122,153.386,3.510,-88.781
10792,-0.0664,0.4531,-0.9092,0.122,-0.183,0.305,153.386,3.516,-88.781
10802,-0.0664,0.4541,-0.9102,0.183,-0.183,0.305,153.386,3.516,-88.781
10812,-0.0693,0.4541,-0.9106,0.122,-0.305,0.305,153.391,3.521,-88.781
10822,-0.0693,0.4521,-0.9121,0.061,-0.488,0.305,153.391,3.527,-88.781
10832,-0.0688,0.4526,-0.9106,-0.061,-0.610,0.305,153.391,3.538,-88.781
10842,-0.0698,0.4541,-0.9092,-0.122,-0.610,0.305,153.391,3.543,-88.781
10852,-0.0674,0.4541,-0.9072,-0.183,-0.549,0.366,153.391,3.549,-88.781
10862,-0.0684,0.4536,-0.9053,-0.122,-0.610,0.427,153.391,3.554,-88.781
10872,-0.0664,0.4536,-0.9038,-0.061,-0.732,0.488,153.386,3.560,-88.781
10882,-0.0679,0.4546,-0.9014,-0.122,-0.732,0.610,153.386,3.571,-88.781
10892,-0.0679,0.4565,-0.9014,-0.061,-0.549,0.671,153.380,3.571,-88.781
10902,-0.0669,0.4556,-0.8984,0.061,-0.183,0.671,153.380,3.576,-88.781
10912,-0.0674,0.4561,-0.8975,0.061,0.183,0.610,153.375,3.571,-88.781
10922,-0.0684,0.4551,-0.8984,0.000,0.549,0.610,153.375,3.565,-88.781
10932,-0.0703,0.4565,-0.9043,0.305,1.343,0.610,153.375,3.560,-88.781
10942,-0.0688,0.4590,-0.9077,0.427,1.465,0.610,153.375,3.543,-88.781
10952,-0.0684,0.4609,-0.9067,0.549,1.221,0.610,153.380,3.532,-88.781
10962,-0.0674,0.4614,-0.9131,0.549,0.793,0.549,153.380,3.527,-88.781
10972,-0.0674,0.4614,-0.9141,0.305,0.488,0.366,153.386,3.521,-88.781
10982,-0.0669,0.4624,-0.9141,-0.122,0.427,0.244,153.380,3.521,-88.781
10992,-0.0664,0.4634,-0.9121,-0.427,0.427,0.183,153.375,3.516,-88.781
11002,-0.0664,0.4624,-0.9102,-0.488,0.305,0.061,153.364,3.516,-88.781
11012,-0.0674,0.4604,-0.9058,-0.366,0.305,-0.122,153.358,3.516,-88.781
11022,-0.0674,0.4585,-0.9087,-0.305,0.366,-0.244,153.353,3.516,-88.781
11032,-0.0640,0.4575,-0.9077,-0.183,0.427,-0.183,153.353,3.516,-88.781
11042,-0.0635,0.4561,-0.9063,-0.061,0.488,-0.183,153.353,3.516,-88.781
11052,-0.0640,0.4585,-0.9077,-0.061,0.549,-0.244,153.347,3.510,-88.781
11062,-0.0625,0.4565,-0.9072,-0.061,0.610,-0.183,153.347,3.505,-88.781
11072,-0.0625,0.4551,-0.9082,0.061,0.732,-0.122,153.347,3.499,-88.781
11082,-0.0625,0.4541,-0.9097,0.183,0.793,0.000,153.353,3.494,-88.781
11092,-0.0630,0.4526,-0.9082,0.183,0.671,0.122,153.353,3.488,-88.781
11102,-0.0630,0.4521,-0.9097,0.000,0.549,0.244,153.358,3.483,-88.781
11112,-0.0645,0.4521,-0.9097,-0.122,0.488,0.366,153.358,3.477,-88.781
11122,-0.0674,0.4531,-0.9102,-0.244,0.488,0.549,153.358,3.472,-88.781
11132,-0.0684,0.4551,-0.9087,-0.427,0.488,0.671,153.353,3.472,-88.781
11142,-0.0674,0.4556,-0.9072,-0.427,0.427,0.671,153.347,3.466,-88.781
11152,-0.0679,0.4575,-0.9072,-0.305,0.183,0.671,153.342,3.466,-88.781
11162,-0.0659,0.4580,-0.9063,-0.183,0.061,0.732,153.342,3.466,-88.781
11172,-0.0674,0.4600,-0.9072,0.000,0.000,0.732,153.336,3.466,-88.781
11182,-0.0649,0.4595,-0.9043,0.000,0.244,0.732,153.336,3.461,-88.781
11192,-0.0674,0.4604,-0.9033,0.061,0.488,0.610,153.331,3.455,-88.781
11202,-0.0645,0.4595,-0.9043,0.122,0.793,0.549,153.331,3.450,-88.781
11212,-0.0664,0.4624,-0.9053,0.122,0.977,0.488,153.325,3.439,-88.781
11222,-0.0669,0.4639,-0.9053,0.183,1.160,0.488,153.325,3.433,-88.781
11232,-0.0654,0.4629,-0.9048,0.366,1.221,0.427,153.325,3.422,-88.781
11242,-0.0640,0.4629,-0.9058,0.610,1.160,0.244,153.325,3.411,-88.781
11252,-0.0640,0.4624,-0.9077,0.732,1.221,0.000,153.331,3.406,-88.781
11262,-0.0640,0.4600,-0.9072,0.610,1.221,-0.061,153.336,3.395,-88.781
11272,-0.0610,0.4590,-0.9072,0.366,1.282,-0.061,153.336,3.384,-88.781
11282,-0.0615,0.4585,-0.9063,0.183,1.221,-0.061,153.336,3.373,-88.781
11292,-0.0635,0.4570,-0.9058,0.244,1.221,-0.061,153.342,3.367,-88.781
11302,-0.0625,0.4551,-0.9082,0.427,1.526,-0.061,153.342,3.356,-88.781
11312,-0.0630,0.4580,-0.9136,0.549,1.892,-0.061,153.353,3.340,-88.781
11322,-0.0615,0.4536,-0.9116,0.793,2.075,-0.122,153.358,3.323,-88.781
11332,-0.0596,0.4507,-0.9150,0.732,1.953,-0.183,153.375,3.307,-88.781
11342,-0.0591,0.4497,-0.9141,0.366,1.465,-0.122,153.380,3.296,-88.781
11352,-0.0586,0.4507,-0.9136,-0.061,0.977,0.061,153.386,3.285,-88.781
11362,-0.0566,0.4521,-0.9155,-0.305,0.549,0.183,153.386,3.279,-88.781
11372,-0.0576,0.4531,-0.9160,-0.305,0.427,0.305,153.386,3.274,-88.781
11382,-0.0586,0.4536,-0.9136,-0.122,0.610,0.366,153.386,3.268,-88.781
11392,-0.0591,0.4551,-0.9126,0.122,0.793,0.488,153.386,3.257,-88.781
11402,-0.0586,0.4551,-0.9102,0.244,0.916,0.488,153.391,3.246,-88.781
11412,-0.0591,0.4551,-0.9087,0.244,0.793,0.488,153.391,3.241,-88.781
11422,-0.0610,0.4546,-0.9102,0.244,0.732,0.488,153.397,3.230,-88.781
11432,-0.0610,0.4546,-0.9102,0.366,0.793,0.488,153.402,3.224,-88.781
11442,-0.0601,0.4556,-0.9111,0.488,0.854,0.549,153.408,3.219,-88.781
11452,-0.0576,0.4546,-0.9126,0.610,0.854,0.488,153.413,3.208,-88.781
11462,-0.0581,0.4536,-0.9136,0.549,0.732,0.488,153.419,3.197,-88.781
11472,-0.0576,0.4561,-0.9136,0.366,0.549,0.427,153.424,3.192,-88.781
11482,-0.0562,0.4570,-0.9131,0.122,0.366,0.427,153.424,3.186,-88.781
11492,-0.0581,0.4570,-0.9155,0.061,0.305,0.366,153.424,3.181,-88.781
11502,-0.0566,0.4551,-0.9126,0.061,0.305,0.305,153.424,3.181,-88.781
11512,-0.0571,0.4541,-0.9136,0.122,0.244,0.183,153.430,3.175,-88.781
11522,-0.0586,0.4531,-0.9116,0.183,0.122,0.183,153.435,3.175,-88.781
11532,-0.0591,0.4521,-0.9136,0.183,0.122,0.244,153.435,3.175,-88.781
11542,-0.0596,0.4521,-0.9136,0.183,0.061,0.366,153.441,3.175,-88.781
11552,-0.0581,0.4526,-0.9136,0.244,0.000,0.366,153.446,3.175,-88.781
11562,-0.0591,0.4512,-0.9072,0.305,-0.122,0.488,153.446,3.175,-88.781
11572,-0.0586,0.4536,-0.9077,0.366,-0.122,0.549,153.452,3.175,-88.781
11582,-0.0576,0.4521,-0.9072,0.427,0.122,0.610,153.457,3.170,-88.781
11592,-0.0557,0.4561,-0.9092,0.610,0.549,0.732,153.463,3.164,-88.781
11602,-0.0547,0.4585,-0.9087,0.671,0.854,0.671,153.463,3.153,-88.781
11612,-0.0566,0.4585,-0.9092,0.793,0.854,0.610,153.468,3.142,-88.781
11622,-0.0591,0.4580,-0.9116,0.732,0.610,0.488,153.479,3.137,-88.781
11632,-0.0615,0.4575,-0.9131,0.549,0.366,0.305,153.479,3.131,-88.781
11642,-0.0625,0.4561,-0.9111,0.366,0.244,0.244,153.484,3.137,-88.781
11652,-0.0620,0.4561,-0.9111,0.183,0.183,0.183,153.484,3.137,-88.781
11662,-0.0591,0.4575,-0.9058,0.061,0.305,0.244,153.484,3.131,-88.781
11672,-0.0552,0.4595,-0.9097,0.305,0.244,0.305,153.484,3.131,-88.781
11682,-0.0547,0.4585,-0.9131,0.854,0.305,0.244,153.490,3.126,-88.781
11692,-0.0532,0.4580,-0.9136,1.221,0.549,0.183,153.501,3.120,-88.781
11702,-0.0527,0.4541,-0.9155,1.160,0.793,0.122,153.512,3.109,-88.781
11712,-0.0532,0.4521,-0.9155,0.977,0.671,0.061,153.523,3.104,-88.781
11722,-0.0552,0.4497,-0.9170,0.549,0.366,0.061,153.534,3.098,-88.781
11732,-0.0586,0.4487,-0.9150,0.000,0.000,0.061,153.539,3.098,-88.781
11742,-0.0630,0.4492,-0.9155,-0.244,-0.244,0.183,153.539,3.104,-88.781
11752,-0.0625,0.4482,-0.9116,-0.122,-0.305,0.366,153.539,3.109,-88.781
11762,-0.0605,0.4497,-0.9116,0.183,-0.305,0.427,153.545,3.115,-88.781
11772,-0.0610,0.4517,-0.9102,0.488,-0.366,0.549,153.550,3.120,-88.781
11783,-0.0591,0.4526,-0.9116,0.610,-0.305,0.549,153.556,3.120,-88.781
11792,-0.0586,0.4526,-0.9102,0.366,-0.244,0.549,153.556,3.120,-88.781
11802,-0.0596,0.4541,-0.9106,-0.061,-0.305,0.549,153.556,3.126,-88.781
11812,-0.0601,0.4561,-0.9106,-0.305,-0.366,0.549,153.550,3.126,-88.781
11822,-0.0601,0.4561,-0.9053,-0.183,-0.366,0.488,153.545,3.131,-88.781
11832,-0.0576,0.4556,-0.9043,0.061,-0.305,0.427,153.545,3.131,-88.781
11842,-0.0596,0.4585,-0.9033,0.366,-0.244,0.488,153.539,3.137,-88.781
11852,-0.0610,0.4590,-0.9048,0.610,-0.122,0.427,153.545,3.137,-88.781
11862,-0.0601,0.4565,-0.9033,0.793,0.000,0.366,153.545,3.137,-88.781
11872,-0.0610,0.4585,-0.9043,0.854,0.305,0.244,153.550,3.137,-88.781
11882,-0.0605,0.4595,-0.9067,0.671,0.671,0.122,153.556,3.137,-88.781
11892,-0.0586,0.4600,-0.9106,0.549,0.977,0.061,153.556,3.126,-88.781
11902,-0.0566,0.4590,-0.9072,0.488,0.977,-0.061,153.556,3.120,-88.781
11912,-0.0571,0.4590,-0.9087,0.366,0.793,-0.122,153.556,3.115,-88.781
11922,-0.0586,0.4580,-0.9136,0.427,0.671,-0.244,153.561,3.109,-88.781
11932,-0.0601,0.4556,-0.9150,0.732,0.671,-0.305,153.567,3.109,-88.781
11942,-0.0537,0.4521,-0.9189,0.916,0.793,-0.366,153.578,3.104,-88.781
11952,-0.0518,0.4507,-0.9219,0.916,0.793,-0.427,153.594,3.093,-88.781
11962,-0.0518,0.4497,-0.9194,0.427,0.549,-0.488,153.600,3.087,-88.781
11972,-0.0542,0.4492,-0.9199,-0.122,0.183,-0.427,153.605,3.087,-88.781
11982,-0.0571,0.4458,-0.9150,-0.366,-0.122,-0.244,153.605,3.093,-88.781
11992,-0.0566,0.4448,-0.9116,-0.183,-0.366,-0.122,153.605,3.098,-88.781
12002,-0.0552,0.4448,-0.9126,0.183,-0.549,0.061,153.611,3.104,-88.781
12012,-0.0547,0.4492,-0.9150,0.488,-0.427,0.183,153.616,3.104,-88.781
12022,-0.0547,0.4487,-0.9136,0.488,-0.305,0.244,153.627,3.104,-88.781
12032,-0.0571,0.4478,-0.9111,0.305,-0.305,0.366,153.627,3.109,-88.781
12042,-0.0571,0.4463,-0.9106,0.061,-0.488,0.427,153.633,3.109,-88.781
12052,-0.0591,0.4478,-0.9116,-0.244,-0.427,0.427,153.633,3.115,-88.781
12062,-0.0615,0.4497,-0.9121,-0.305,-0.305,0.549,153.627,3.120,-88.781
12072,-0.0591,0.4531,-0.9111,-0.061,-0.244,0.671,153.627,3.120,-88.781
12082,-0.0591,0.4541,-0.9126,0.244,-0.366,0.671,153.627,3.126,-88.781
12092,-0.0557,0.4561,-0.9126,0.488,-0.610,0.610,153.633,3.126,-88.781
12102,-0.0591,0.4570,-0.9126,0.366,-0.793,0.549,153.633,3.131,-88.781
12112,-0.0601,0.4585,-0.9121,0.061,-0.671,0.488,153.627,3.137,-88.781
12122,-0.0601,0.4590,-0.9121,-0.366,-0.427,0.366,153.622,3.142,-88.781
12132,-0.0601,0.4604,-0.9106,-0.549,-0.183,0.183,153.611,3.148,-88.781
12142,-0.0601,0.4600,-0.9077,-0.427,-0.122,0.061,153.605,3.148,-88.781
12152,-0.0615,0.4590,-0.9097,-0.061,-0.244,-0.061,153.600,3.153,-88.781
12162,-0.0630,0.4565,-0.9116,0.244,-0.366,-0.183,153.600,3.164,-88.781
12172,-0.0620,0.4531,-0.9116,0.366,-0.427,-0.244,153.600,3.170,-88.781
12182,-0.0610,0.4502,-0.9111,0.183,-0.488,-0.244,153.605,3.181,-88.781
12192,-0.0615,0.4487,-0.9072,-0.122,-0.427,-0.244,153.605,3.186,-88.781
12202,-0.0605,0.4512,-0.9067,-0.427,-0.244,-0.122,153.600,3.192,-88.781
12212,-0.0605,0.4507,-0.9067,-0.366,-0.061,0.000,153.594,3.192,-88.781
12222,-0.0605,0.4497,-0.9082,-0.061,0.061,0.061,153.594,3.197,-88.781
12232,-0.0605,0.4536,-0.9092,0.366,0.000,0.183,153.600,3.197,-88.781
12242,-0.0620,0.4541,-0.9131,0.549,0.000,0.183,153.605,3.197,-88.781
12252,-0.0605,0.4536,-0.9116,0.488,0.061,0.122,153.605,3.203,-88.781
12262,-0.0601,0.4531,-0.9126,0.244,0.122,0.061,153.611,3.203,-88.781
12272,-0.0605,0.4541,-0.9141,0.000,0.244,0.000,153.611,3.203,-88.781
12283,-0.0620,0.4531,-0.9131,-0.061,0.305,-0.061,153.611,3.203,-88.781
12292,-0.0640,0.4502,-0.9136,0.061,0.244,-0.061,153.611,3.203,-88.781
12302,-0.0615,0.4497,-0.9092,0.183,0.061,-0.061,153.616,3.203,-88.781
12312,-0.0601,0.4512,-0.9106,0.183,-0.122,0.000,153.616,3.208,-88.781
12322,-0.0591,0.4531,-0.9102,0.366,-0.244,0.061,153.616,3.208,-88.781
12332,-0.0581,0.4541,-0.9160,0.427,-0.183,0.000,153.622,3.214,-88.781
12342,-0.0566,0.4541,-0.9160,0.427,0.000,-0.061,153.627,3.214,-88.781
12352,-0.0557,0.4517,-0.9150,0.427,0.122,-0.122,153.633,3.214,-88.781
12362,-0.0552,0.4473,-0.9141,0.305,0.061,-0.061,153.638,3.208,-88.781
12372,-0.0581,0.4468,-0.9155,0.305,-0.061,0.000,153.644,3.214,-88.781
12382,-0.0576,0.4468,-0.9102,0.427,-0.305,0.122,153.649,3.214,-88.781
12392,-0.0610,0.4546,-0.9092,1.343,-0.549,0.427,153.660,3.219,-88.781
12402,-0.0586,0.4419,-0.9126,3.235,-0.122,0.854,153.699,3.219,-88.781
12412,-0.0601,0.4404,-0.9126,2.747,-0.183,0.854,153.732,3.219,-88.781
12422,-0.0620,0.4458,-0.9141,1.587,-0.244,0.732,153.748,3.219,-88.781
12432,-0.0625,0.4517,-0.9136,0.061,-0.488,0.793,153.748,3.224,-88.781
12442,-0.0635,0.4580,-0.9106,-0.977,-0.549,0.732,153.732,3.224,-88.781
12452,-0.0640,0.4595,-0.9097,-0.793,-0.183,0.488,153.721,3.230,-88.781
12462,-0.0654,0.4580,-0.9067,0.061,0.122,0.305,153.715,3.230,-88.781
12472,-0.0620,0.4536,-0.9092,1.099,0.366,0.305,153.721,3.230,-88.781
12482,-0.0620,0.4512,-0.9082,1.343,0.305,0.427,153.737,3.230,-88.781
12492,-0.0615,0.4517,-0.9111,0.977,0.183,0.366,153.743,3.230,-88.781
12502,-0.0620,0.4536,-0.9150,0.305,0.061,0.244,153.743,3.230,-88.781
12512,-0.0620,0.4556,-0.9111,-0.122,0.183,0.061,153.743,3.230,-88.781
12522,-0.0610,0.4565,-0.9136,-0.122,0.427,-0.061,153.737,3.224,-88.781
12532,-0.0576,0.4561,-0.9160,0.122,0.549,-0.122,153.737,3.224,-88.781
12542,-0.0566,0.4541,-0.9146,0.549,0.549,-0.244,153.743,3.219,-88.781
12552,-0.0562,0.4521,-0.9141,0.854,0.366,-0.366,153.748,3.214,-88.781
12562,-0.0576,0.4507,-0.9165,0.732,0.000,-0.427,153.759,3.219,-88.781
12572,-0.0605,0.4497,-0.9185,0.305,-0.183,-0.549,153.759,3.224,-88.781
12582,-0.0610,0.4512,-0.9185,-0.366,-0.122,-0.488,153.759,3.230,-88.781
12592,-0.0596,0.4502,-0.9194,-0.732,0.000,-0.488,153.754,3.230,-88.781
12602,-0.0581,0.4497,-0.9185,-0.488,-0.061,-0.427,153.748,3.235,-88.781
12612,-0.0596,0.4458,-0.9155,-0.061,-0.305,-0.366,153.754,3.241,-88.781
12622,-0.0610,0.4419,-0.9131,0.183,-0.732,-0.244,153.759,3.252,-88.781
12632,-0.0586,0.4419,-0.9136,0.122,-1.099,0.000,153.765,3.257,-88.781
12642,-0.0601,0.4443,-0.9126,-0.244,-1.160,0.122,153.765,3.268,-88.781
12652,-0.0586,0.4468,-0.9063,-0.366,-0.977,0.183,153.759,3.279,-88.781
12662,-0.0605,0.4487,-0.9121,-0.183,-0.549,0.183,153.759,3.285,-88.781
12672,-0.0601,0.4478,-0.9111,0.000,-0.183,0.183,153.759,3.285,-88.781
12682,-0.0581,0.4497,-0.9092,0.244,0.061,0.183,153.759,3.285,-88.781
12692,-0.0576,0.4497,-0.9131,0.366,0.000,0.305,153.765,3.285,-88.781
12702,-0.0610,0.4531,-0.9160,0.366,-0.183,0.366,153.765,3.285,-88.781
12712,-0.0601,0.4546,-0.9194,0.366,-0.427,0.305,153.770,3.285,-88.781
12722,-0.0630,0.4556,-0.9180,0.305,-0.427,0.183,153.770,3.290,-88.781
12732,-0.0620,0.4561,-0.9165,0.122,-0.488,0.061,153.770,3.301,-88.781
12742,-0.0630,0.4546,-0.9175,-0.122,-0.671,0.000,153.765,3.307,-88.781
12752,-0.0620,0.4536,-0.9155,-0.427,-0.793,-0.122,153.759,3.318,-88.781
12762,-0.0635,0.4546,-0.9111,-0.610,-1.038,-0.244,153.754,3.329,-88.781
12772,-0.0645,0.4556,-0.9116,-0.488,-1.160,-0.305,153.743,3.345,-88.781
12783,-0.0645,0.4531,-0.9106,-0.183,-1.221,-0.366,153.737,3.356,-88.781
12792,-0.0659,0.4492,-0.9092,0.061,-1.099,-0.366,153.737,3.373,-88.781
12802,-0.0649,0.4482,-0.9072,0.061,-0.793,-0.305,153.743,3.384,-88.781
12812,-0.0654,0.4473,-0.9058,0.061,-0.549,-0.244,153.743,3.395,-88.781
12822,-0.0635,0.4453,-0.9033,0.061,-0.305,-0.122,153.743,3.400,-88.781
12832,-0.0620,0.4492,-0.9053,0.122,-0.183,-0.061,153.743,3.400,-88.781
12842,-0.0605,0.4492,-0.9038,0.244,0.000,-0.061,153.743,3.400,-88.781
12852,-0.0601,0.4478,-0.9077,0.488,0.244,-0.061,153.748,3.400,-88.781
12862,-0.0620,0.4473,-0.9092,0.732,0.610,-0.061,153.754,3.395,-88.781
12872,-0.0630,0.4507,-0.9155,0.793,0.732,-0.122,153.765,3.395,-88.781
12882,-0.0640,0.4497,-0.9175,0.610,0.732,0.000,153.770,3.389,-88.781
12892,-0.0635,0.4478,-0.9165,0.366,0.549,0.061,153.776,3.384,-88.781
12902,-0.0649,0.4487,-0.9146,0.061,0.305,0.061,153.776,3.384,-88.781
12912,-0.0640,0.4526,-0.9165,-0.122,-0.061,0.122,153.776,3.384,-88.781
12922,-0.0659,0.4551,-0.9155,-0.061,-0.366,0.061,153.776,3.389,-88.781
12932,-0.0669,0.4526,-0.9121,0.244,-0.549,-0.061,153.776,3.400,-88.781
12942,-0.0630,0.4507,-0.9136,0.610,-0.549,-0.122,153.781,3.406,-88.781
12952,-0.0645,0.4512,-0.9106,0.427,-0.549,-0.122,153.781,3.417,-88.781
12962,-0.0654,0.4521,-0.9077,0.000,-0.671,-0.061,153.781,3.422,-88.781
12972,-0.0649,0.4526,-0.9087,-0.183,-0.671,0.000,153.776,3.433,-88.781
12982,-0.0645,0.4526,-0.9077,-0.244,-0.427,-0.061,153.770,3.439,-88.781
12992,-0.0654,0.4541,-0.9111,0.061,-0.122,-0.183,153.765,3.444,-88.781
13002,-0.0635,0.4526,-0.9111,0.549,0.244,-0.244,153.770,3.444,-88.781
13012,-0.0645,0.4473,-0.9106,0.793,0.244,-0.305,153.781,3.444,-88.781
13022,-0.0635,0.4448,-0.9106,0.732,0.122,-0.305,153.787,3.444,-88.781
13032,-0.0659,0.4463,-0.9082,0.305,-0.122,-0.244,153.792,3.450,-88.781
13042,-0.0669,0.4482,-0.9058,0.122,-0.305,-0.061,153.792,3.455,-88.781
13052,-0.0693,0.4478,-0.9087,0.671,0.244,-0.061,153.798,3.461,-88.781
13062,-0.0640,0.4448,-0.9146,1.160,0.977,-0.061,153.814,3.450,-88.781
13072,-0.0630,0.4438,-0.9155,1.221,1.404,0.000,153.831,3.439,-88.781
13082,-0.0625,0.4404,-0.9150,1.099,1.221,0.122,153.847,3.428,-88.781
13092,-0.0645,0.4419,-0.9160,0.793,0.549,0.244,153.858,3.428,-88.781
13102,-0.0620,0.4468,-0.9160,0.671,0.061,0.305,153.864,3.422,-88.781
13112,-0.0635,0.4458,-0.9165,1.099,-0.183,0.427,153.875,3.428,-88.781
13122,-0.0625,0.4434,-0.9141,1.526,-0.183,0.488,153.896,3.428,-88.781
13132,-0.0625,0.4443,-0.9136,1.404,-0.183,0.610,153.907,3.428,-88.781
13142,-0.0635,0.4448,-0.9121,0.793,-0.305,0.610,153.918,3.428,-88.781
13152,-0.0640,0.4482,-0.9106,0.183,-0.488,0.549,153.918,3.433,-88.781
13162,-0.0625,0.4541,-0.9116,-0.183,-0.488,0.488,153.913,3.433,-88.781
13172,-0.0630,0.4565,-0.9141,-0.061,-0.305,0.305,153.907,3.439,-88.781
13182,-0.0635,0.4551,-0.9150,0.366,-0.061,0.183,153.907,3.439,-88.781
13192,-0.0635,0.4531,-0.9126,0.671,0.122,0.061,153.907,3.439,-88.781
13202,-0.0630,0.4517,-0.9126,0.610,0.183,-0.061,153.913,3.439,-88.781
13212,-0.0640,0.4526,-0.9106,0.305,0.244,-0.183,153.913,3.439,-88.781
13222,-0.0645,0.4507,-0.9111,0.000,0.244,-0.244,153.913,3.439,-88.781
13232,-0.0640,0.4507,-0.9121,0.061,0.488,-0.305,153.907,3.439,-88.781
13242,-0.0630,0.4517,-0.9155,0.305,0.732,-0.366,153.913,3.433,-88.781
13252,-0.0610,0.4487,-0.9175,0.671,0.854,-0.427,153.918,3.428,-88.781
13262,-0.0620,0.4429,-0.9180,0.793,0.854,-0.427,153.929,3.422,-88.781
13272,-0.0625,0.4409,-0.9160,0.488,0.671,-0.427,153.940,3.417,-88.781
13283,-0.0620,0.4395,-0.9160,0.244,0.488,-0.244,153.946,3.417,-88.781
13292,-0.0640,0.4355,-0.9175,0.183,0.366,-0.061,153.957,3.417,-88.781
13302,-0.0649,0.4351,-0.9150,0.244,0.305,0.183,153.962,3.411,-88.781
13312,-0.0640,0.4365,-0.9136,0.427,0.244,0.427,153.973,3.411,-88.781
13322,-0.0591,0.4395,-0.9126,0.610,0.183,0.671,153.979,3.406,-88.781
13332,-0.0610,0.4541,-0.9136,0.977,-0.061,0.793,153.984,3.406,-88.781
13342,-0.0576,0.4424,-0.9155,2.197,0.183,0.916,154.012,3.395,-88.781
13352,-0.0576,0.4419,-0.9180,2.441,0.183,0.916,154.034,3.389,-88.781
13362,-0.0640,0.4468,-0.9165,2.808,0.305,0.671,154.061,3.384,-88.781
13372,-0.0620,0.4375,-0.9189,3.540,0.366,0.977,154.105,3.378,-88.781
13382,-0.0664,0.4497,-0.9160,2.075,-0.366,0.916,154.122,3.384,-88.781
13392,-0.0645,0.4473,-0.9175,2.075,-0.549,0.732,154.138,3.384,-88.781
13402,-0.0703,0.4546,-0.9126,2.014,-0.732,0.793,154.155,3.395,-88.781
13412,-0.0684,0.4419,-0.9097,2.563,-0.488,0.671,154.177,3.400,-88.781
13422,-0.0659,0.4404,-0.9116,2.197,-0.488,0.549,154.199,3.406,-88.781
13432,-0.0688,0.4419,-0.9087,1.099,-0.549,0.366,154.210,3.417,-88.781
13442,-0.0664,0.4443,-0.9092,0.244,-0.366,0.427,154.210,3.417,-88.781
13452,-0.0654,0.4512,-0.9077,-0.793,-0.183,0.427,154.193,3.422,-88.781
13462,-0.0645,0.4536,-0.9038,-0.610,0.244,0.244,154.177,3.422,-88.781
13472,-0.0654,0.4517,-0.9048,0.000,0.671,0.000,154.171,3.417,-88.781
13482,-0.0659,0.4458,-0.9106,0.610,0.916,-0.122,154.177,3.411,-88.781
13492,-0.0664,0.4409,-0.9106,0.732,1.038,-0.061,154.182,3.406,-88.781
13502,-0.0654,0.4399,-0.9126,0.244,1.038,-0.061,154.188,3.400,-88.781
13512,-0.0654,0.4434,-0.9150,0.000,1.038,-0.061,154.188,3.395,-88.781
13522,-0.0635,0.4448,-0.9180,0.000,1.099,0.000,154.188,3.389,-88.781
13532,-0.0625,0.4429,-0.9194,0.305,1.160,0.000,154.188,3.378,-88.781
13542,-0.0610,0.4429,-0.9214,0.427,1.038,0.000,154.193,3.367,-88.781
13552,-0.0601,0.4424,-0.9243,0.366,0.793,0.122,154.204,3.362,-88.781
13562,-0.0610,0.4448,-0.9199,0.122,0.366,0.183,154.204,3.356,-88.781
13572,-0.0630,0.4419,-0.9185,-0.061,-0.061,0.122,154.204,3.362,-88.781
13582,-0.0664,0.4409,-0.9141,-0.305,-0.427,-0.061,154.199,3.367,-88.781
13592,-0.0664,0.4429,-0.9150,-0.610,-0.427,-0.122,154.193,3.373,-88.781
13602,-0.0625,0.4409,-0.9136,-0.793,-0.122,-0.061,154.188,3.378,-88.781
13612,-0.0601,0.4409,-0.9121,-0.732,0.244,0.000,154.182,3.378,-88.781
13622,-0.0591,0.4409,-0.9126,-0.488,0.549,0.061,154.177,3.373,-88.781
13632,-0.0610,0.4429,-0.9136,-0.122,0.732,0.183,154.171,3.362,-88.781
13642,-0.0586,0.4434,-0.9165,0.427,0.732,0.244,154.177,3.356,-88.781
13652,-0.0581,0.4409,-0.9204,0.732,0.610,0.305,154.188,3.345,-88.781
13662,-0.0576,0.4414,-0.9204,0.671,0.488,0.366,154.193,3.340,-88.781
13672,-0.0610,0.4399,-0.9209,0.366,0.305,0.366,154.204,3.334,-88.781
13682,-0.0630,0.4404,-0.9199,0.000,0.061,0.427,154.204,3.334,-88.781
13692,-0.0654,0.4414,-0.9185,-0.366,0.000,0.427,154.199,3.340,-88.781
13702,-0.0654,0.4443,-0.9160,-0.610,-0.061,0.549,154.193,3.340,-88.781
13712,-0.0659,0.4443,-0.9160,-0.671,-0.122,0.610,154.188,3.340,-88.781
13722,-0.0640,0.4453,-0.9121,-0.610,-0.244,0.671,154.177,3.345,-88.781
13732,-0.0649,0.4438,-0.9111,-0.610,-0.427,0.671,154.171,3.345,-88.781
13742,-0.0649,0.4453,-0.9087,-0.671,-0.427,0.610,154.160,3.351,-88.781
13752,-0.0659,0.4438,-0.9087,-0.732,-0.366,0.488,154.149,3.356,-88.781
13762,-0.0679,0.4473,-0.9067,-0.732,-0.183,0.549,154.138,3.362,-88.781
13772,-0.0659,0.4487,-0.9087,-0.671,0.061,0.488,154.127,3.362,-88.781
13783,-0.0654,0.4517,-0.9063,-0.427,0.244,0.488,154.116,3.362,-88.781
13792,-0.0659,0.4497,-0.9092,-0.183,0.488,0.427,154.111,3.356,-88.781
13802,-0.0645,0.4512,-0.9106,-0.061,0.610,0.244,154.105,3.356,-88.781
13812,-0.0635,0.4526,-0.9087,0.000,0.732,0.000,154.100,3.351,-88.781
13822,-0.0635,0.4517,-0.9097,-0.061,0.854,-0.122,154.094,3.345,-88.781
13832,-0.0625,0.4517,-0.9126,-0.183,0.977,-0.305,154.089,3.340,-88.781
13842,-0.0630,0.4487,-0.9116,-0.244,1.099,-0.427,154.083,3.334,-88.781
13852,-0.0615,0.4463,-0.9102,-0.244,1.160,-0.366,154.078,3.329,-88.781
13862,-0.0630,0.4453,-0.9116,-0.122,1.221,-0.366,154.078,3.318,-88.781
13872,-0.0625,0.4438,-0.9126,0.122,1.465,-0.244,154.078,3.307,-88.781
13882,-0.0596,0.4448,-0.9155,0.427,1.709,-0.183,154.083,3.296,-88.781
13892,-0.0591,0.4429,-0.9180,0.793,1.831,-0.183,154.094,3.279,-88.781
13902,-0.0566,0.4404,-0.9214,1.160,1.831,-0.244,154.111,3.263,-88.781
13912,-0.0571,0.4375,-0.9229,0.977,1.709,-0.244,154.127,3.246,-88.781
13922,-0.0566,0.4370,-0.9282,0.488,1.404,-0.122,154.138,3.235,-88.781
13932,-0.0571,0.4375,-0.9272,0.000,1.038,-0.061,154.144,3.224,-88.781
13942,-0.0566,0.4380,-0.9268,-0.366,0.671,0.061,154.144,3.219,-88.781
13952,-0.0547,0.4399,-0.9263,-0.488,0.366,0.183,154.144,3.214,-88.781
13962,-0.0537,0.4409,-0.9253,-0.549,0.000,0.244,154.144,3.214,-88.781
13972,-0.0522,0.4424,-0.9263,-0.610,-0.488,0.244,154.138,3.214,-88.781
13982,-0.0552,0.4443,-0.9253,-0.793,-0.977,0.244,154.133,3.219,-88.781
13992,-0.0537,0.4468,-0.9233,-0.977,-1.282,0.244,154.122,3.224,-88.781
14002,-0.0581,0.4453,-0.9185,-1.160,-1.404,0.183,154.111,3.235,-88.781
14012,-0.0620,0.4424,-0.9155,-1.221,-1.343,0.183,154.100,3.252,-88.781
14022,-0.0615,0.4429,-0.9141,-1.099,-1.282,0.122,154.089,3.263,-88.781
14032,-0.0625,0.4424,-0.9092,-1.038,-1.038,0.183,154.078,3.274,-88.781
14042,-0.0630,0.4429,-0.9092,-0.854,-0.916,0.305,154.072,3.285,-88.781
14052,-0.0625,0.4438,-0.9072,-0.610,-0.916,0.305,154.061,3.296,-88.781
14062,-0.0620,0.4443,-0.9067,-0.366,-0.793,0.427,154.056,3.301,-88.781
14072,-0.0615,0.4463,-0.9072,-0.122,-0.549,0.427,154.050,3.307,-88.781
14082,-0.0601,0.4468,-0.9087,0.061,-0.183,0.427,154.050,3.307,-88.781
14092,-0.0610,0.4487,-0.9111,0.183,0.244,0.366,154.050,3.307,-88.781
14102,-0.0615,0.4478,-0.9136,0.244,0.488,0.183,154.050,3.301,-88.781
14112,-0.0620,0.4473,-0.9170,0.000,0.549,0.061,154.050,3.296,-88.781
14122,-0.0630,0.4453,-0.9150,-0.183,0.549,0.000,154.050,3.296,-88.781
14132,-0.0659,0.4419,-0.9155,-0.122,0.366,0.000,154.050,3.296,-88.781
14142,-0.0615,0.4424,-0.9165,0.000,0.305,0.000,154.050,3.296,-88.781
14152,-0.0601,0.4419,-0.9146,0.183,0.183,0.122,154.056,3.296,-88.781
14162,-0.0591,0.4414,-0.9170,0.366,0.122,0.244,154.061,3.290,-88.781
14172,-0.0586,0.4424,-0.9155,0.488,0.061,0.366,154.067,3.290,-88.781
14182,-0.0586,0.4438,-0.9180,0.549,0.061,0.427,154.072,3.285,-88.781
14192,-0.0571,0.4438,-0.9141,0.366,0.122,0.427,154.078,3.285,-88.781
14202,-0.0630,0.4424,-0.9126,0.183,0.122,0.305,154.078,3.285,-88.781
14212,-0.0630,0.4434,-0.9131,-0.122,0.061,0.244,154.078,3.285,-88.781
14222,-0.0605,0.4473,-0.9126,-0.488,0.000,0.183,154.072,3.285,-88.781
14232,-0.0610,0.4487,-0.9175,-0.549,0.000,0.183,154.061,3.285,-88.781
14242,-0.0605,0.4463,-0.9131,-0.244,0.061,0.183,154.061,3.285,-88.781
14252,-0.0581,0.4487,-0.9160,0.061,0.183,0.061,154.061,3.285,-88.781
14262,-0.0586,0.4502,-0.9155,0.244,0.244,0.122,154.061,3.279,-88.781
14272,-0.0566,0.4482,-0.9160,0.488,0.244,0.183,154.061,3.279,-88.781
14283,-0.0576,0.4468,-0.9175,0.610,0.244,0.183,154.067,3.274,-88.781
14292,-0.0610,0.4463,-0.9180,0.427,0.183,0.122,154.072,3.274,-88.781
14302,-0.0635,0.4443,-0.9189,0.000,0.061,0.061,154.072,3.274,-88.781
14312,-0.0645,0.4448,-0.9160,-0.366,-0.122,0.061,154.072,3.279,-88.781
14322,-0.0635,0.4443,-0.9165,-0.549,-0.366,0.061,154.067,3.285,-88.781
14332,-0.0640,0.4453,-0.9155,-0.427,-0.488,0.061,154.061,3.290,-88.781
14342,-0.0635,0.4438,-0.9146,-0.305,-0.549,0.061,154.056,3.301,-88.781
14353,-0.0640,0.4443,-0.9106,-0.183,-0.610,0.122,154.056,3.307,-88.781
14362,-0.0610,0.4438,-0.9092,-0.244,-0.671,0.122,154.050,3.312,-88.781
14372,-0.0610,0.4434,-0.9111,-0.305,-0.427,0.183,154.050,3.318,-88.781
14382,-0.0635,0.4443,-0.9106,-0.305,-0.061,0.183,154.045,3.323,-88.781
14392,-0.0635,0.4458,-0.9111,-0.183,0.244,0.244,154.039,3.323,-88.781
14402,-0.0615,0.4497,-0.9111,0.122,0.366,0.183,154.039,3.318,-88.781
14412,-0.0625,0.4517,-0.9102,0.427,0.305,0.061,154.039,3.318,-88.781
14422,-0.0615,0.4512,-0.9150,0.610,0.244,-0.061,154.045,3.318,-88.781
14432,-0.0615,0.4517,-0.9175,0.549,0.244,-0.244,154.045,3.318,-88.781
14442,-0.0630,0.4507,-0.9194,0.305,0.183,-0.305,154.045,3.318,-88.781
14452,-0.0615,0.4497,-0.9194,0.000,0.183,-0.427,154.045,3.318,-88.781
14462,-0.0591,0.4492,-0.9160,-0.305,0.061,-0.488,154.045,3.323,-88.781
14472,-0.0596,0.4468,-0.9155,-0.488,-0.244,-0.488,154.039,3.323,-88.781
14482,-0.0630,0.4458,-0.9136,-0.427,-0.427,-0.427,154.034,3.334,-88.781
14492,-0.0610,0.4482,-0.9131,-0.183,-0.427,-0.427,154.028,3.340,-88.781
14502,-0.0571,0.4482,-0.9150,0.061,-0.244,-0.488,154.028,3.345,-88.781
14512,-0.0566,0.4443,-0.9160,0.244,0.000,-0.610,154.034,3.345,-88.781
14522,-0.0547,0.4419,-0.9189,0.244,0.183,-0.732,154.039,3.345,-88.781
14532,-0.0586,0.4385,-0.9185,-0.122,0.122,-0.732,154.039,3.345,-88.781
14542,-0.0625,0.4370,-0.9155,-0.427,-0.061,-0.549,154.039,3.351,-88.781
14552,-0.0630,0.4380,-0.9131,-0.427,-0.244,-0.305,154.039,3.356,-88.781
14562,-0.0620,0.4380,-0.9165,-0.244,-0.305,-0.061,154.045,3.362,-88.781
14572,-0.0625,0.4380,-0.9185,0.000,-0.305,0.183,154.045,3.362,-88.781
14582,-0.0610,0.4385,-0.9150,0.305,-0.366,0.427,154.056,3.367,-88.781
14592,-0.0615,0.4419,-0.9141,0.366,-0.427,0.549,154.056,3.367,-88.781
14602,-0.0610,0.4468,-0.9170,0.244,-0.488,0.549,154.061,3.367,-88.781
14612,-0.0620,0.4478,-0.9175,0.122,-0.488,0.488,154.061,3.373,-88.781
14622,-0.0620,0.4468,-0.9170,0.000,-0.549,0.305,154.061,3.378,-88.781
14632,-0.0649,0.4458,-0.9160,-0.183,-0.610,0.122,154.056,3.384,-88.781
14642,-0.0679,0.4448,-0.9146,-0.305,-0.732,0.061,154.056,3.395,-88.781
14652,-0.0679,0.4463,-0.9126,-0.488,-0.793,0.122,154.045,3.406,-88.781
14662,-0.0649,0.4458,-0.9136,-0.488,-0.916,0.244,154.039,3.417,-88.781
14672,-0.0664,0.4478,-0.9111,-0.183,-0.916,0.366,154.039,3.428,-88.781
14682,-0.0654,0.4492,-0.9097,0.000,-0.977,0.244,154.034,3.439,-88.781
14692,-0.0684,0.4478,-0.9077,0.061,-0.916,0.183,154.028,3.450,-88.781
14702,-0.0684,0.4478,-0.9063,0.000,-0.793,0.122,154.028,3.461,-88.781
14712,-0.0674,0.4492,-0.9063,-0.061,-0.427,0.061,154.023,3.466,-88.781
14722,-0.0669,0.4502,-0.9087,0.000,-0.122,0.000,154.017,3.472,-88.781
14732,-0.0674,0.4473,-0.9082,0.122,0.183,0.000,154.017,3.472,-88.781
14742,-0.0664,0.4482,-0.9126,0.305,0.488,0.061,154.017,3.472,-88.781
14752,-0.0654,0.4453,-0.9106,0.488,0.549,0.061,154.023,3.466,-88.781
14762,-0.0654,0.4443,-0.9136,0.427,0.488,0.061,154.028,3.466,-88.781
14772,-0.0659,0.4458,-0.9165,0.183,0.488,0.000,154.028,3.461,-88.781
14783,-0.0684,0.4473,-0.9189,-0.122,0.427,0.061,154.028,3.461,-88.781
14792,-0.0645,0.4482,-0.9189,-0.183,0.305,0.000,154.028,3.461,-88.781
14802,-0.0630,0.4473,-0.9194,-0.183,0.122,-0.061,154.023,3.461,-88.781
14812,-0.0640,0.4473,-0.9180,-0.061,-0.061,-0.061,154.023,3.461,-88.781
14822,-0.0635,0.4482,-0.9180,0.061,-0.061,-0.122,154.023,3.466,-88.781
14832,-0.0630,0.4487,-0.9185,0.061,-0.122,-0.122,154.023,3.466,-88.781
14842,-0.0649,0.4473,-0.9146,-0.122,-0.305,-0.183,154.023,3.472,-88.781
14852,-0.0669,0.4463,-0.9150,-0.427,-0.610,-0.183,154.017,3.483,-88.781
14862,-0.0684,0.4463,-0.9141,-0.793,-0.793,-0.366,154.012,3.494,-88.781
14872,-0.0684,0.4478,-0.9121,-0.916,-0.793,-0.305,154.001,3.505,-88.781
14882,-0.0669,0.4473,-0.9126,-0.671,-0.610,-0.244,153.990,3.516,-88.781
14892,-0.0654,0.4473,-0.9116,-0.183,-0.366,-0.183,153.990,3.521,-88.781
14902,-0.0635,0.4482,-0.9106,0.122,-0.183,-0.122,153.990,3.521,-88.781
14912,-0.0630,0.4463,-0.9131,0.366,0.000,-0.122,153.990,3.521,-88.781
14922,-0.0625,0.4424,-0.9126,0.488,0.061,-0.061,153.995,3.521,-88.781
14932,-0.0635,0.4404,-0.9150,0.366,-0.061,-0.122,154.006,3.527,-88.781
14942,-0.0649,0.4409,-0.9141,0.183,-0.183,-0.061,154.006,3.527,-88.781
14952,-0.0654,0.4390,-0.9136,0.061,0.000,0.061,154.012,3.532,-88.781
14962,-0.0688,0.4385,-0.9170,0.000,0.183,0.244,154.017,3.532,-88.781
14972,-0.0674,0.4385,-0.9155,0.061,0.244,0.366,154.023,3.527,-88.781
14982,-0.0669,0.4399,-0.9155,-0.061,0.061,0.427,154.023,3.527,-88.781
14992,-0.0669,0.4404,-0.9155,-0.244,-0.244,0.549,154.023,3.532,-88.781
15002,-0.0659,0.4424,-0.9160,-0.305,-0.427,0.671,154.023,3.532,-88.781
15012,-0.0649,0.4443,-0.9126,-0.305,-0.427,0.671,154.017,3.538,-88.781
15022,-0.0640,0.4453,-0.9121,-0.061,-0.366,0.610,154.017,3.538,-88.781
15032,-0.0645,0.4478,-0.9111,0.427,-0.244,0.610,154.017,3.538,-88.781
15042,-0.0659,0.4463,-0.9092,0.671,-0.122,0.610,154.023,3.538,-88.781
15052,-0.0664,0.4487,-0.9092,0.549,0.061,0.549,154.023,3.538,-88.781
15062,-0.0679,0.4482,-0.9082,0.366,0.305,0.488,154.028,3.538,-88.781
15072,-0.0688,0.4502,-0.9082,0.305,0.549,0.366,154.023,3.532,-88.781
15082,-0.0669,0.4492,-0.9106,0.427,0.793,0.244,154.028,3.527,-88.781
15092,-0.0669,0.4502,-0.9111,0.366,0.916,0.183,154.028,3.521,-88.781
15102,-0.0645,0.4507,-0.9131,0.305,0.793,0.061,154.028,3.516,-88.781
15112,-0.0659,0.4517,-0.9185,0.366,0.610,0.000,154.028,3.510,-88.781
15122,-0.0654,0.4507,-0.9136,0.427,0.427,-0.061,154.028,3.510,-88.781
15132,-0.0645,0.4497,-0.9136,0.427,0.610,-0.183,154.034,3.505,-88.781
15142,-0.0605,0.4478,-0.9155,0.366,0.732,-0.244,154.034,3.499,-88.781
15152,-0.0630,0.4448,-0.9170,0.305,1.038,-0.366,154.039,3.488,-88.781
15162,-0.0610,0.4434,-0.9194,0.427,1.038,-0.366,154.045,3.483,-88.781
15172,-0.0605,0.4409,-0.9214,0.610,0.793,-0.366,154.056,3.477,-88.781
15182,-0.0620,0.4365,-0.9214,0.732,0.366,-0.305,154.072,3.472,-88.781
15192,-0.0620,0.4346,-0.9219,0.549,0.000,-0.183,154.083,3.477,-88.781
15202,-0.0625,0.4355,-0.9224,0.305,-0.122,0.000,154.094,3.477,-88.781
15212,-0.0620,0.4399,-0.9214,0.061,-0.244,0.244,154.094,3.477,-88.781
15222,-0.0605,0.4434,-0.9204,-0.061,-0.244,0.366,154.100,3.477,-88.781
15232,-0.0601,0.4429,-0.9170,-0.122,-0.244,0.488,154.094,3.477,-88.781
15242,-0.0615,0.4448,-0.9175,-0.183,-0.366,0.549,154.094,3.477,-88.781
15252,-0.0630,0.4453,-0.9175,-0.122,-0.366,0.671,154.094,3.477,-88.781
15262,-0.0649,0.4478,-0.9175,-0.061,-0.366,0.610,154.089,3.477,-88.781
15272,-0.0669,0.4487,-0.9155,0.061,-0.427,0.427,154.089,3.483,-88.781
15283,-0.0688,0.4473,-0.9155,0.061,-0.427,0.244,154.089,3.494,-88.781
15292,-0.0688,0.4482,-0.9155,-0.061,-0.488,0.122,154.083,3.499,-88.781
15302,-0.0703,0.4478,-0.9131,-0.183,-0.732,0.000,154.083,3.510,-88.781
15312,-0.0698,0.4453,-0.9126,-0.366,-0.977,0.000,154.078,3.521,-88.781
15322,-0.0698,0.4448,-0.9082,-0.549,-1.099,0.000,154.067,3.538,-88.781
15332,-0.0679,0.4453,-0.9058,-0.366,-0.977,0.061,154.061,3.549,-88.781
15342,-0.0674,0.4443,-0.9043,0.122,-0.732,0.183,154.061,3.554,-88.781
15352,-0.0669,0.4434,-0.9092,0.671,-0.183,0.244,154.067,3.560,-88.781
15362,-0.0669,0.4424,-0.9102,1.038,0.305,0.305,154.078,3.560,-88.781
15372,-0.0659,0.4424,-0.9092,1.038,0.671,0.366,154.089,3.554,-88.781
15382,-0.0688,0.4414,-0.9126,0.671,0.854,0.305,154.094,3.549,-88.781
15392,-0.0669,0.4419,-0.9170,0.244,0.977,0.183,154.100,3.538,-88.781
15402,-0.0659,0.4453,-0.9199,-0.061,0.977,0.244,154.100,3.532,-88.781
15412,-0.0635,0.4473,-0.9194,0.000,0.732,0.305,154.100,3.521,-88.781
15422,-0.0635,0.4458,-0.9224,0.061,0.305,0.305,154.100,3.521,-88.781
15432,-0.0645,0.4468,-0.9229,-0.061,-0.122,0.305,154.100,3.521,-88.781
15442,-0.0659,0.4482,-0.9165,-0.122,-0.488,0.305,154.100,3.527,-88.781
15452,-0.0664,0.4478,-0.9180,-0.183,-0.671,0.183,154.094,3.532,-88.781
15462,-0.0674,0.4478,-0.9146,-0.427,-0.793,0.183,154.089,3.538,-88.781
15472,-0.0664,0.4502,-0.9150,-0.671,-0.610,0.061,154.078,3.549,-88.781
15482,-0.0659,0.4531,-0.9136,-0.549,-0.366,-0.061,154.067,3.554,-88.781
15492,-0.0664,0.4512,-0.9102,-0.061,-0.305,-0.183,154.061,3.560,-88.781
15502,-0.0698,0.4458,-0.9077,0.122,-0.366,-0.366,154.061,3.565,-88.781
15512,-0.0693,0.4438,-0.9077,-0.061,-0.488,-0.366,154.061,3.576,-88.781
15522,-0.0674,0.4453,-0.9097,-0.244,-0.305,-0.305,154.056,3.582,-88.781
15532,-0.0674,0.4453,-0.9102,-0.183,0.061,-0.183,154.056,3.587,-88.781
15542,-0.0674,0.4443,-0.9102,0.000,0.488,-0.122,154.056,3.582,-88.781
15552,-0.0649,0.4438,-0.9136,0.366,0.671,-0.183,154.056,3.576,-88.781
15562,-0.0630,0.4438,-0.9175,0.610,0.732,-0.122,154.067,3.571,-88.781
15572,-0.0615,0.4424,-0.9189,0.732,0.671,-0.061,154.072,3.565,-88.781
15582,-0.0615,0.4385,-0.9219,0.610,0.427,0.000,154.083,3.560,-88.781
15592,-0.0640,0.4365,-0.9204,0.183,0.122,0.122,154.094,3.560,-88.781
15602,-0.0649,0.4365,-0.9219,0.061,0.061,0.305,154.100,3.560,-88.781
15612,-0.0654,0.4399,-0.9175,0.122,-0.061,0.549,154.105,3.560,-88.781
15622,-0.0674,0.4414,-0.9180,0.122,-0.366,0.610,154.105,3.560,-88.781
15632,-0.0679,0.4443,-0.9180,-0.122,-0.793,0.671,154.105,3.565,-88.781
15642,-0.0674,0.4443,-0.9175,-0.488,-1.099,0.671,154.100,3.576,-88.781
15652,-0.0703,0.4473,-0.9146,-0.793,-1.160,0.610,154.089,3.587,-88.781
15662,-0.0688,0.4482,-0.9106,-0.549,-0.854,0.549,154.078,3.598,-88.781
15672,-0.0703,0.4473,-0.9058,-0.183,-0.427,0.488,154.072,3.604,-88.781
15682,-0.0693,0.4478,-0.9087,0.244,-0.122,0.366,154.072,3.604,-88.781
15692,-0.0708,0.4487,-0.9067,0.427,0.000,0.305,154.072,3.604,-88.781
15702,-0.0718,0.4478,-0.9121,0.366,-0.122,0.244,154.072,3.609,-88.781
15712,-0.0718,0.4497,-0.9111,-0.061,-0.122,0.183,154.072,3.615,-88.781
15722,-0.0693,0.4517,-0.9126,-0.427,0.183,0.122,154.061,3.615,-88.781
15732,-0.0679,0.4531,-0.9131,-0.488,0.427,0.000,154.056,3.615,-88.781
15742,-0.0659,0.4546,-0.9106,-0.244,0.610,-0.122,154.045,3.609,-88.781
15752,-0.0654,0.4512,-0.9082,0.061,0.610,-0.244,154.039,3.604,-88.781
15762,-0.0669,0.4492,-0.9097,0.366,0.488,-0.305,154.039,3.604,-88.781
15772,-0.0659,0.4482,-0.9121,0.610,0.671,-0.305,154.045,3.604,-88.781
15783,-0.0649,0.4468,-0.9141,0.610,0.793,-0.488,154.050,3.598,-88.781
15792,-0.0635,0.4453,-0.9180,0.427,0.854,-0.671,154.056,3.593,-88.781
15802,-0.0645,0.4438,-0.9199,0.305,0.732,-0.732,154.061,3.587,-88.781
15812,-0.0640,0.4453,-0.9194,0.183,0.671,-0.793,154.067,3.587,-88.781
15822,-0.0605,0.4414,-0.9229,0.122,0.488,-0.732,154.072,3.582,-88.781
15832,-0.0630,0.4365,-0.9209,0.061,0.122,-0.610,154.078,3.582,-88.781
15842,-0.0640,0.4316,-0.9194,-0.122,-0.183,-0.427,154.083,3.587,-88.781
15852,-0.0669,0.4316,-0.9165,-0.366,-0.488,-0.183,154.089,3.593,-88.781
15862,-0.0649,0.4336,-0.9150,-0.488,-0.488,0.000,154.089,3.598,-88.781
15872,-0.0635,0.4380,-0.9155,-0.427,-0.549,0.183,154.089,3.604,-88.781
15882,-0.0635,0.4390,-0.9185,-0.122,-0.671,0.366,154.089,3.609,-88.781
15892,-0.0615,0.4414,-0.9185,0.122,-0.732,0.427,154.094,3.609,-88.781
15902,-0.0625,0.4448,-0.9175,0.183,-0.732,0.488,154.094,3.615,-88.781
15912,-0.0654,0.4458,-0.9160,0.122,-0.610,0.488,154.094,3.620,-88.781
15922,-0.0669,0.4463,-0.9155,-0.244,-0.488,0.488,154.089,3.620,-88.781
15932,-0.0679,0.4482,-0.9141,-0.549,-0.488,0.427,154.083,3.625,-88.781
15942,-0.0698,0.4482,-0.9170,-0.671,-0.610,0.305,154.072,3.631,-88.781
15952,-0.0723,0.4478,-0.9141,-0.549,-0.916,0.244,154.067,3.642,-88.781
15962,-0.0732,0.4487,-0.9150,-0.427,-1.099,0.183,154.061,3.658,-88.781
15972,-0.0732,0.4453,-0.9097,-0.305,-1.099,0.183,154.056,3.669,-88.781
15982,-0.0713,0.4448,-0.9111,-0.305,-0.977,0.183,154.050,3.680,-88.781
15992,-0.0703,0.4473,-0.9097,-0.427,-0.977,0.183,154.045,3.691,-88.781
16002,-0.0708,0.4492,-0.9077,-0.305,-0.732,0.183,154.039,3.702,-88.781
16012,-0.0693,0.4482,-0.9087,-0.244,-0.549,0.183,154.034,3.708,-88.781
16022,-0.0703,0.4463,-0.9072,0.061,-0.427,0.183,154.028,3.713,-88.781
16032,-0.0698,0.4448,-0.9053,0.305,-0.183,0.122,154.028,3.719,-88.781
16042,-0.0703,0.4448,-0.9082,0.305,-0.061,0.061,154.034,3.719,-88.781
16052,-0.0698,0.4453,-0.9097,0.122,0.183,0.061,154.034,3.719,-88.781
16062,-0.0708,0.4438,-0.9072,-0.122,0.366,0.122,154.028,3.719,-88.781
16072,-0.0728,0.4438,-0.9097,-0.244,0.610,0.122,154.028,3.719,-88.781
16082,-0.0713,0.4468,-0.9136,-0.244,0.732,0.183,154.023,3.713,-88.781
16092,-0.0698,0.4453,-0.9121,-0.061,0.732,0.183,154.023,3.708,-88.781
16102,-0.0693,0.4448,-0.9150,0.244,0.549,0.122,154.028,3.702,-88.781
16112,-0.0698,0.4468,-0.9146,0.305,0.305,0.061,154.028,3.702,-88.781
16122,-0.0688,0.4497,-0.9185,0.183,0.122,0.183,154.028,3.702,-88.781
16132,-0.0674,0.4497,-0.9189,0.061,0.061,0.122,154.028,3.702,-88.781
16142,-0.0669,0.4502,-0.9175,-0.183,0.122,0.000,154.023,3.702,-88.781
16152,-0.0693,0.4473,-0.9131,-0.427,0.122,-0.122,154.017,3.702,-88.781
16162,-0.0732,0.4434,-0.9111,-0.610,0.122,-0.183,154.012,3.708,-88.781
16172,-0.0703,0.4443,-0.9116,-0.854,0.061,-0.244,154.006,3.713,-88.781
16182,-0.0693,0.4448,-0.9116,-0.793,0.061,-0.122,154.001,3.713,-88.781
16192,-0.0693,0.4473,-0.9116,-0.427,0.122,-0.061,153.995,3.713,-88.781
16202,-0.0674,0.4473,-0.9141,-0.061,0.244,-0.122,153.990,3.713,-88.781
16212,-0.0645,0.4463,-0.9150,0.305,0.427,-0.244,153.995,3.708,-88.781
16222,-0.0659,0.4429,-0.9160,0.549,0.610,-0.244,154.001,3.708,-88.781
16232,-0.0649,0.4395,-0.9150,0.549,0.793,-0.183,154.012,3.697,-88.781
16242,-0.0635,0.4360,-0.9141,0.244,0.793,-0.061,154.017,3.691,-88.781
16252,-0.0654,0.4380,-0.9126,0.061,0.549,0.122,154.023,3.686,-88.781
16262,-0.0669,0.4409,-0.9189,-0.061,0.183,0.305,154.028,3.680,-88.781
16272,-0.0708,0.4419,-0.9170,-0.061,0.061,0.488,154.028,3.686,-88.781
16283,-0.0713,0.4438,-0.9160,-0.122,0.122,0.549,154.028,3.680,-88.781
16292,-0.0713,0.4453,-0.9170,-0.305,0.183,0.610,154.023,3.680,-88.781
16302,-0.0703,0.4453,-0.9131,-0.488,0.122,0.671,154.017,3.680,-88.781
16312,-0.0693,0.4463,-0.9106,-0.671,0.061,0.671,154.012,3.680,-88.781
16322,-0.0698,0.4487,-0.9111,-0.671,-0.122,0.549,154.001,3.680,-88.781
16332,-0.0703,0.4497,-0.9102,-0.427,-0.244,0.427,153.995,3.686,-88.781
16342,-0.0713,0.4492,-0.9082,0.000,-0.244,0.366,153.990,3.686,-88.781
16354,-0.0728,0.4497,-0.9082,0.305,-0.061,0.366,153.990,3.691,-88.781
16362,-0.0718,0.4482,-0.9077,0.366,0.244,0.305,153.990,3.691,-88.781
16372,-0.0708,0.4497,-0.9072,0.305,0.610,0.305,153.990,3.686,-88.781
16382,-0.0698,0.4492,-0.9063,0.061,0.793,0.244,153.990,3.680,-88.781
16392,-0.0703,0.4492,-0.9102,-0.061,1.038,0.122,153.984,3.675,-88.781
16402,-0.0679,0.4497,-0.9131,0.000,1.282,0.000,153.984,3.664,-88.781
16412,-0.0669,0.4507,-0.9146,0.061,1.404,-0.122,153.979,3.653,-88.781
16422,-0.0669,0.4482,-0.9170,0.244,1.465,-0.122,153.984,3.642,-88.781
16432,-0.0645,0.4478,-0.9141,0.305,1.282,-0.122,153.984,3.631,-88.781
16442,-0.0664,0.4453,-0.9160,0.366,1.038,-0.122,153.990,3.625,-88.781
16452,-0.0674,0.4453,-0.9185,0.366,1.038,-0.061,153.995,3.615,-88.781
16462,-0.0664,0.4468,-0.9185,0.305,1.038,0.000,154.001,3.609,-88.781
16472,-0.0654,0.4478,-0.9204,0.305,0.977,-0.061,154.006,3.598,-88.781
16482,-0.0645,0.4438,-0.9224,0.244,0.671,-0.122,154.012,3.593,-88.781
16492,-0.0645,0.4453,-0.9185,0.061,0.305,-0.183,154.012,3.593,-88.781
16502,-0.0659,0.4438,-0.9189,-0.244,0.000,-0.183,154.012,3.593,-88.781
16512,-0.0654,0.4414,-0.9180,-0.549,-0.122,-0.122,154.012,3.598,-88.781
16522,-0.0649,0.4404,-0.9136,-0.854,-0.183,-0.061,154.006,3.598,-88.781
16532,-0.0635,0.4424,-0.9131,-0.977,0.000,0.061,153.995,3.598,-88.781
16542,-0.0654,0.4409,-0.9150,-0.732,0.122,0.122,153.990,3.598,-88.781
16552,-0.0640,0.4414,-0.9126,-0.244,0.122,0.244,153.990,3.598,-88.781
16562,-0.0635,0.4448,-0.9155,0.061,-0.122,0.366,153.990,3.593,-88.781
16572,-0.0674,0.4473,-0.9165,0.305,-0.244,0.488,153.995,3.598,-88.781
16582,-0.0679,0.4468,-0.9146,0.183,-0.122,0.488,153.995,3.598,-88.781
16592,-0.0664,0.4492,-0.9146,-0.305,0.122,0.427,153.990,3.598,-88.781
16602,-0.0659,0.4487,-0.9126,-0.671,0.305,0.305,153.984,3.593,-88.781
16612,-0.0679,0.4473,-0.9121,-0.732,0.305,0.244,153.973,3.593,-88.781
16622,-0.0688,0.4468,-0.9126,-0.488,0.061,0.305,153.968,3.593,-88.781
16632,-0.0703,0.4468,-0.9136,0.000,-0.061,0.244,153.968,3.598,-88.781
16642,-0.0693,0.4468,-0.9141,0.366,-0.122,0.244,153.973,3.598,-88.781
16652,-0.0659,0.4443,-0.9141,0.366,-0.122,0.244,153.973,3.598,-88.781
16662,-0.0649,0.4463,-0.9121,0.000,-0.061,0.427,153.973,3.598,-88.781
16672,-0.0649,0.4468,-0.9121,-0.366,0.000,0.488,153.968,3.598,-88.781
16682,-0.0649,0.4482,-0.9097,-0.610,0.000,0.488,153.962,3.598,-88.781
16692,-0.0664,0.4482,-0.9106,-0.427,0.000,0.366,153.957,3.598,-88.781
16702,-0.0684,0.4473,-0.9097,0.061,0.000,0.305,153.957,3.598,-88.781
16712,-0.0698,0.4473,-0.9116,0.549,0.122,0.244,153.957,3.598,-88.781
16722,-0.0713,0.4468,-0.9102,0.610,0.305,0.183,153.962,3.598,-88.781
16732,-0.0713,0.4468,-0.9121,0.183,0.488,0.183,153.962,3.598,-88.781
16742,-0.0684,0.4448,-0.9106,-0.488,0.610,0.183,153.962,3.593,-88.781
16752,-0.0679,0.4482,-0.9102,-0.977,0.671,0.244,153.951,3.593,-88.781
16762,-0.0679,0.4487,-0.9131,-0.916,0.549,0.244,153.940,3.587,-88.781
16772,-0.0664,0.4492,-0.9097,-0.366,0.488,0.183,153.935,3.582,-88.781
16783,-0.0669,0.4487,-0.9121,0.305,0.488,0.183,153.935,3.582,-88.781
16792,-0.0645,0.4507,-0.9136,0.732,0.488,0.122,153.940,3.576,-88.781
16802,-0.0635,0.4497,-0.9141,0.732,0.549,0.061,153.946,3.571,-88.781
16812,-0.0674,0.4448,-0.9141,0.244,0.549,-0.122,153.951,3.565,-88.781
16822,-0.0679,0.4443,-0.9155,-0.549,0.549,-0.244,153.946,3.565,-88.781
16832,-0.0659,0.4468,-0.9155,-1.221,0.610,-0.305,153.935,3.565,-88.781
16842,-0.0649,0.4473,-0.9126,-1.099,0.671,-0.122,153.924,3.560,-88.781
16852,-0.0649,0.4458,-0.9116,-0.305,0.610,0.000,153.918,3.554,-88.781
16862,-0.0640,0.4468,-0.9141,0.610,0.732,0.061,153.929,3.549,-88.781
16872,-0.0610,0.4463,-0.9160,1.221,0.671,0.061,153.940,3.543,-88.781
16882,-0.0615,0.4424,-0.9189,1.343,0.549,0.122,153.957,3.532,-88.781
16892,-0.0605,0.4419,-0.9189,0.610,0.488,0.122,153.968,3.527,-88.781
16902,-0.0610,0.4419,-0.9194,-0.427,0.549,0.183,153.968,3.521,-88.781
16912,-0.0640,0.4438,-0.9180,-1.038,0.549,0.244,153.957,3.516,-88.781
16922,-0.0664,0.4429,-0.9165,-0.793,0.366,0.305,153.951,3.516,-88.781
16932,-0.0654,0.4434,-0.9165,0.061,0.183,0.366,153.957,3.510,-88.781
16942,-0.0664,0.4429,-0.9155,0.916,-0.061,0.549,153.968,3.510,-88.781
16952,-0.0659,0.4419,-0.9141,1.282,-0.183,0.732,153.979,3.516,-88.781
16962,-0.0640,0.4404,-0.9150,0.793,-0.366,0.793,153.990,3.516,-88.781
16972,-0.0640,0.4424,-0.9165,-0.122,-0.366,0.732,153.990,3.516,-88.781
