elapsed_ms,acc_x_g,acc_y_g,acc_z_g,gyro_x_dps,gyro_y_dps,gyro_z_dps,angle_x_deg,angle_y_deg,angle_z_deg
0,-0.3389,0.2993,-0.9131,0.000,0.793,-0.122,161.917,19.292,-62.897
10,-0.3364,0.2983,-0.9136,0.061,0.854,-0.061,161.917,19.281,-62.897
20,-0.3364,0.2979,-0.9165,0.183,0.488,0.000,161.922,19.276,-62.897
30,-0.3369,0.2983,-0.9199,0.427,0.000,0.061,161.927,19.276,-62.897
40,-0.3384,0.2974,-0.9189,0.732,-0.183,0.122,161.933,19.281,-62.897
50,-0.3379,0.2925,-0.9155,0.732,-0.183,0.122,161.944,19.281,-62.897
60,-0.3408,0.2944,-0.9136,0.305,-0.305,0.061,161.949,19.286,-62.897
70,-0.3403,0.2964,-0.9121,-0.366,-0.427,0.183,161.944,19.292,-62.897
80,-0.3403,0.2993,-0.9087,-0.427,-0.366,0.305,161.938,19.297,-62.897
90,-0.3408,0.3003,-0.9063,-0.061,-0.183,0.427,161.933,19.303,-62.897
100,-0.3403,0.2988,-0.9067,0.549,0.000,0.366,161.933,19.303,-62.897
110,-0.3408,0.2944,-0.9077,0.916,0.061,0.366,161.944,19.303,-62.897
120,-0.3384,0.2935,-0.9058,0.671,0.122,0.366,161.949,19.308,-62.897
130,-0.3384,0.2998,-0.9077,0.061,0.427,0.427,161.949,19.303,-62.897
140,-0.3379,0.3018,-0.9116,-0.366,0.916,0.366,161.944,19.292,-62.897
150,-0.3354,0.3052,-0.9126,-0.427,1.282,0.244,161.933,19.281,-62.897
160,-0.3354,0.3057,-0.9165,-0.183,1.404,0.061,161.927,19.265,-62.897
170,-0.3374,0.3052,-0.9170,0.183,1.282,-0.061,161.927,19.254,-62.897
180,-0.3374,0.3047,-0.9180,0.244,0.854,-0.122,161.927,19.248,-62.897
190,-0.3394,0.3057,-0.9160,0.061,0.488,-0.244,161.927,19.243,-62.897
200,-0.3398,0.3091,-0.9155,-0.244,0.244,-0.427,161.922,19.243,-62.897
210,-0.3384,0.3066,-0.9126,-0.122,0.305,-0.549,161.917,19.243,-62.897
220,-0.3364,0.3037,-0.9092,0.122,0.488,-0.671,161.917,19.243,-62.897
230,-0.3359,0.2998,-0.9072,0.061,0.427,-0.854,161.917,19.243,-62.897
240,-0.3379,0.3018,-0.9102,-0.183,0.366,-0.916,161.917,19.243,-62.897
250,-0.3374,0.2998,-0.9141,-0.244,0.610,-0.916,161.917,19.243,-62.897
261,-0.3384,0.2974,-0.9097,-0.122,1.099,-0.854,161.922,19.237,-62.897
270,-0.3374,0.2969,-0.9126,0.061,1.160,-0.854,161.927,19.226,-62.897
280,-0.3354,0.2964,-0.9155,0.305,0.916,-0.793,161.933,19.221,-62.897
290,-0.3374,0.2925,-0.9131,0.488,0.610,-0.549,161.944,19.221,-62.897
300,-0.3369,0.2896,-0.9121,0.305,0.427,-0.427,161.955,19.221,-62.897
310,-0.3359,0.2935,-0.9146,-0.061,0.488,-0.366,161.955,19.215,-62.897
320,-0.3345,0.2935,-0.9180,-0.183,0.854,-0.366,161.960,19.210,-62.897
330,-0.3345,0.2905,-0.9194,-0.183,1.160,-0.244,161.966,19.199,-62.897
340,-0.3311,0.2949,-0.9194,-0.183,1.221,-0.183,161.966,19.182,-62.897
350,-0.3364,0.2905,-0.9229,-0.061,0.854,-0.061,161.977,19.177,-62.897
360,-0.3340,0.2930,-0.9224,-0.183,0.427,0.183,161.977,19.171,-62.897
370,-0.3345,0.2925,-0.9229,-0.183,0.122,0.366,161.977,19.166,-62.897
380,-0.3325,0.2939,-0.9204,-0.061,0.000,0.488,161.977,19.166,-62.897
390,-0.3364,0.2925,-0.9189,-0.061,-0.122,0.549,161.982,19.166,-62.897
400,-0.3340,0.2935,-0.9165,-0.122,-0.244,0.671,161.977,19.166,-62.897
410,-0.3335,0.2969,-0.9126,-0.305,-0.427,0.732,161.971,19.166,-62.897
420,-0.3369,0.2969,-0.9111,-0.305,-0.488,0.854,161.966,19.171,-62.897
430,-0.3359,0.2988,-0.9082,-0.366,-0.305,0.793,161.960,19.171,-62.897
440,-0.3379,0.2979,-0.9082,-0.122,0.000,0.793,161.955,19.171,-62.897
450,-0.3359,0.2993,-0.9077,0.000,0.183,0.793,161.949,19.171,-62.897
460,-0.3345,0.3013,-0.9092,-0.061,0.305,0.793,161.944,19.166,-62.897
470,-0.3359,0.3037,-0.9087,-0.244,0.244,0.793,161.933,19.160,-62.897
480,-0.3359,0.3062,-0.9087,-0.427,0.244,0.671,161.922,19.160,-62.897
490,-0.3374,0.3062,-0.9082,-0.488,0.305,0.549,161.911,19.160,-62.897
500,-0.3389,0.3052,-0.9097,-0.427,0.549,0.427,161.900,19.155,-62.897
510,-0.3394,0.3052,-0.9092,-0.366,0.732,0.244,161.895,19.149,-62.897
520,-0.3384,0.3042,-0.9111,-0.427,0.793,0.122,161.884,19.144,-62.897
535,-0.3394,0.3062,-0.9092,-0.427,0.793,0.000,161.878,19.138,-62.897
540,-0.3389,0.3066,-0.9072,-0.427,0.793,-0.061,161.867,19.138,-62.897
550,-0.3364,0.3076,-0.9072,-0.305,0.854,-0.244,161.862,19.133,-62.897
560,-0.3359,0.3081,-0.9097,-0.122,1.099,-0.305,161.856,19.122,-62.897
570,-0.3345,0.3052,-0.9131,0.000,1.465,-0.427,161.856,19.111,-62.897
580,-0.3345,0.3062,-0.9170,0.000,1.709,-0.488,161.856,19.094,-62.897
590,-0.3354,0.3032,-0.9185,-0.061,1.831,-0.610,161.856,19.083,-62.897
600,-0.3335,0.3057,-0.9175,-0.122,1.831,-0.732,161.856,19.067,-62.897
610,-0.3345,0.3057,-0.9170,0.061,1.648,-0.732,161.862,19.056,-62.897
620,-0.3311,0.3018,-0.9180,0.305,1.343,-0.854,161.867,19.039,-62.897
630,-0.3330,0.2998,-0.9194,0.366,0.977,-0.977,161.873,19.034,-62.897
640,-0.3345,0.2983,-0.9229,0.183,0.793,-1.038,161.884,19.028,-62.886
650,-0.3330,0.2954,-0.9204,-0.061,0.793,-0.977,161.889,19.028,-62.875
660,-0.3320,0.2939,-0.9199,-0.183,0.916,-0.916,161.895,19.017,-62.858
670,-0.3311,0.2949,-0.9199,-0.122,0.854,-0.854,161.900,19.012,-62.847
680,-0.3296,0.2915,-0.9180,0.122,0.610,-0.732,161.911,19.006,-62.842
690,-0.3276,0.2896,-0.9170,0.305,0.305,-0.488,161.922,19.006,-62.836
700,-0.3276,0.2871,-0.9165,0.305,0.122,-0.244,161.933,19.001,-62.831
710,-0.3291,0.2891,-0.9155,0.122,0.061,0.000,161.938,19.001,-62.831
720,-0.3320,0.2891,-0.9131,-0.183,0.305,0.183,161.944,19.001,-62.831
730,-0.3364,0.2886,-0.9111,-0.427,0.549,0.366,161.944,18.995,-62.836
740,-0.3364,0.2915,-0.9092,-0.610,0.732,0.549,161.938,18.995,-62.836
750,-0.3379,0.2944,-0.9102,-0.488,0.854,0.793,161.933,18.990,-62.842
761,-0.3369,0.2983,-0.9102,-0.122,0.916,0.916,161.927,18.979,-62.847
770,-0.3345,0.2983,-0.9165,0.305,0.977,1.099,161.927,18.968,-62.858
780,-0.3311,0.3018,-0.9189,0.549,1.099,1.099,161.933,18.957,-62.864
790,-0.3315,0.3042,-0.9243,0.549,0.977,1.038,161.933,18.940,-62.869
800,-0.3301,0.3071,-0.9258,0.305,0.732,0.916,161.933,18.929,-62.880
810,-0.3286,0.3081,-0.9253,0.061,0.427,0.732,161.927,18.918,-62.886
820,-0.3311,0.3115,-0.9253,0.000,0.122,0.549,161.917,18.913,-62.891
830,-0.3320,0.3115,-0.9219,0.061,-0.122,0.305,161.911,18.913,-62.891
840,-0.3301,0.3076,-0.9204,0.122,-0.427,0.061,161.911,18.918,-62.897
850,-0.3291,0.3081,-0.9180,0.061,-0.671,-0.183,161.906,18.924,-62.897
860,-0.3311,0.3057,-0.9146,-0.122,-0.793,-0.305,161.900,18.929,-62.897
870,-0.3330,0.3052,-0.9106,-0.427,-0.732,-0.488,161.895,18.940,-62.891
880,-0.3354,0.3027,-0.9067,-0.549,-0.549,-0.610,161.884,18.951,-62.886
890,-0.3350,0.3042,-0.9067,-0.549,-0.183,-0.610,161.878,18.957,-62.880
900,-0.3359,0.3022,-0.9072,-0.244,0.244,-0.610,161.873,18.962,-62.875
910,-0.3364,0.2998,-0.9072,0.122,0.671,-0.488,161.873,18.962,-62.869
920,-0.3340,0.2979,-0.9077,0.427,0.854,-0.366,161.884,18.957,-62.864
930,-0.3345,0.2979,-0.9126,0.671,0.793,-0.244,161.889,18.957,-62.858
940,-0.3325,0.2959,-0.9146,0.793,0.671,-0.183,161.900,18.951,-62.853
950,-0.3320,0.2949,-0.9150,0.732,0.610,-0.122,161.911,18.946,-62.847
960,-0.3311,0.2964,-0.9194,0.488,0.610,-0.183,161.922,18.940,-62.847
970,-0.3301,0.2974,-0.9204,0.244,0.671,-0.122,161.922,18.935,-62.842
980,-0.3286,0.2959,-0.9204,0.061,0.671,-0.122,161.927,18.924,-62.836
990,-0.3301,0.2979,-0.9219,0.061,0.488,-0.061,161.933,18.918,-62.836
1000,-0.3281,0.2979,-0.9243,0.061,0.244,-0.061,161.933,18.913,-62.836
1010,-0.3281,0.2959,-0.9243,0.122,-0.061,0.061,161.938,18.913,-62.836
1020,-0.3301,0.2920,-0.9189,0.061,-0.366,0.183,161.944,18.918,-62.836
1030,-0.3306,0.2935,-0.9204,-0.061,-0.488,0.244,161.944,18.918,-62.842
1040,-0.3320,0.2949,-0.9180,-0.183,-0.549,0.366,161.944,18.924,-62.847
1050,-0.3325,0.2959,-0.9170,-0.244,-0.488,0.427,161.938,18.929,-62.853
1060,-0.3320,0.2949,-0.9141,-0.183,-0.488,0.610,161.938,18.935,-62.864
1070,-0.3315,0.2974,-0.9141,-0.061,-0.488,0.671,161.933,18.935,-62.869
1080,-0.3320,0.3018,-0.9141,0.183,-0.305,0.732,161.933,18.940,-62.880
1090,-0.3315,0.3013,-0.9141,0.488,-0.183,0.854,161.933,18.940,-62.886
1100,-0.3330,0.2983,-0.9102,0.549,-0.122,0.793,161.933,18.940,-62.897
1110,-0.3325,0.3042,-0.9102,-0.183,-0.427,0.732,161.927,18.940,-62.902
1120,-0.3320,0.3086,-0.9131,-0.366,-0.122,0.671,161.911,18.940,-62.913
1130,-0.3325,0.3071,-0.9141,-0.061,0.305,0.488,161.906,18.940,-62.913
1140,-0.3340,0.3062,-0.9102,0.366,0.610,0.305,161.906,18.935,-62.919
1151,-0.3350,0.3032,-0.9097,0.366,0.366,0.122,161.906,18.935,-62.919
1161,-0.3340,0.3062,-0.9092,-0.061,-0.061,0.122,161.900,18.935,-62.919
1171,-0.3325,0.3110,-0.9136,-0.244,-0.061,0.061,161.889,18.940,-62.919
1180,-0.3335,0.3105,-0.9146,-0.061,0.305,0.000,161.884,18.935,-62.919
1191,-0.3354,0.3062,-0.9146,0.427,0.671,-0.244,161.884,18.935,-62.913
1200,-0.3335,0.3027,-0.9116,0.671,0.671,-0.427,161.889,18.929,-62.908
1211,-0.3335,0.3003,-0.9126,0.366,0.244,-0.549,161.895,18.929,-62.902
1220,-0.3330,0.3018,-0.9165,-0.122,0.000,-0.549,161.895,18.935,-62.897
1231,-0.3330,0.3042,-0.9180,-0.183,0.122,-0.610,161.895,18.935,-62.886
1240,-0.3320,0.3008,-0.9141,0.122,0.427,-0.732,161.895,18.935,-62.880
1251,-0.3320,0.2949,-0.9116,0.366,0.549,-0.854,161.906,18.935,-62.869
1261,-0.3301,0.2969,-0.9155,0.122,0.427,-0.732,161.911,18.935,-62.858
1270,-0.3301,0.2993,-0.9180,-0.061,0.488,-0.610,161.911,18.929,-62.853
1281,-0.3296,0.2959,-0.9214,-0.061,0.732,-0.427,161.917,18.924,-62.847
1290,-0.3306,0.2959,-0.9233,0.000,0.793,-0.427,161.922,18.918,-62.842
1301,-0.3276,0.2939,-0.9214,0.000,0.366,-0.549,161.927,18.913,-62.831
1311,-0.3281,0.2935,-0.9229,-0.122,-0.244,-0.427,161.933,18.913,-62.831
1321,-0.3286,0.2959,-0.9233,-0.183,-0.610,-0.183,161.933,18.918,-62.831
1331,-0.3301,0.2954,-0.9185,-0.061,-0.549,0.000,161.933,18.924,-62.831
1341,-0.3325,0.2915,-0.9175,0.061,-0.427,0.000,161.938,18.929,-62.831
1351,-0.3320,0.2925,-0.9136,-0.183,-0.488,0.000,161.938,18.935,-62.836
1361,-0.3350,0.2954,-0.9121,-0.427,-0.610,0.183,161.933,18.946,-62.836
1371,-0.3350,0.2954,-0.9092,-0.427,-0.610,0.427,161.927,18.951,-62.842
1381,-0.3384,0.2964,-0.9043,-0.244,-0.427,0.549,161.922,18.962,-62.853
1391,-0.3379,0.2959,-0.9048,0.000,-0.366,0.549,161.922,18.968,-62.858
1401,-0.3359,0.2998,-0.9072,0.183,-0.244,0.549,161.917,18.973,-62.864
1411,-0.3340,0.3018,-0.9111,0.244,0.305,0.671,161.917,18.968,-62.869
1421,-0.3325,0.3022,-0.9111,0.122,0.854,0.610,161.917,18.962,-62.875
1431,-0.3286,0.3047,-0.9146,-0.061,1.038,0.488,161.911,18.946,-62.875
1441,-0.3296,0.3120,-0.9214,-0.244,0.854,0.305,161.900,18.935,-62.875
1451,-0.3296,0.3110,-0.9272,-0.183,0.671,0.183,161.895,18.929,-62.875
1461,-0.3301,0.3105,-0.9272,0.122,0.488,0.061,161.895,18.918,-62.875
1471,-0.3301,0.3071,-0.9258,0.183,0.061,-0.122,161.895,18.918,-62.875
1481,-0.3311,0.3047,-0.9224,-0.061,-0.671,-0.305,161.889,18.924,-62.869
1491,-0.3330,0.3032,-0.9131,-0.549,-1.282,-0.427,161.884,18.940,-62.869
1501,-0.3369,0.3003,-0.9048,-1.099,-1.465,-0.488,161.867,18.957,-62.869
1511,-0.3369,0.2979,-0.9009,-1.282,-1.038,-0.671,161.856,18.979,-62.869
1521,-0.3359,0.2983,-0.9028,-1.160,-0.305,-0.671,161.845,18.984,-62.864
1531,-0.3315,0.3008,-0.9087,-0.671,0.488,-0.610,161.840,18.984,-62.853
1541,-0.3306,0.3003,-0.9141,0.122,1.221,-0.366,161.840,18.973,-62.847
1551,-0.3315,0.2988,-0.9175,0.854,1.526,-0.122,161.856,18.962,-62.842
1561,-0.3311,0.2964,-0.9224,1.221,1.282,-0.061,161.873,18.946,-62.836
1571,-0.3306,0.2979,-0.9258,0.977,0.610,0.000,161.884,18.940,-62.831
1581,-0.3296,0.3018,-0.9277,0.366,0.000,-0.061,161.889,18.940,-62.831
1591,-0.3311,0.3052,-0.9321,-0.183,-0.366,-0.122,161.889,18.940,-62.831
1601,-0.3320,0.3057,-0.9272,-0.488,-0.549,-0.305,161.884,18.946,-62.831
1611,-0.3306,0.3027,-0.9253,-0.549,-0.793,-0.427,161.878,18.951,-62.831
1621,-0.3306,0.2998,-0.9214,-0.427,-1.282,-0.488,161.873,18.962,-62.831
1631,-0.3311,0.2988,-0.9155,-0.488,-1.770,-0.427,161.867,18.979,-62.831
1641,-0.3330,0.2959,-0.9097,-0.732,-1.892,-0.366,161.862,19.001,-62.831
1651,-0.3335,0.2954,-0.9063,-0.732,-1.465,-0.183,161.856,19.017,-62.836
1661,-0.3359,0.2964,-0.9067,-0.610,-0.793,-0.061,161.845,19.028,-62.836
1671,-0.3359,0.2969,-0.9043,-0.244,-0.183,0.122,161.845,19.034,-62.842
1681,-0.3359,0.2949,-0.9063,0.183,0.122,0.305,161.845,19.039,-62.842
1691,-0.3354,0.2969,-0.9106,0.366,0.061,0.427,161.851,19.039,-62.847
1701,-0.3354,0.2993,-0.9160,0.305,-0.061,0.549,161.851,19.039,-62.853
1711,-0.3330,0.2998,-0.9175,0.244,-0.122,0.610,161.851,19.039,-62.858
1721,-0.3345,0.3022,-0.9194,0.122,-0.061,0.549,161.851,19.039,-62.864
1731,-0.3340,0.3042,-0.9165,0.000,-0.122,0.427,161.845,19.039,-62.869
1741,-0.3340,0.3057,-0.9136,-0.061,-0.305,0.366,161.840,19.039,-62.875
1751,-0.3340,0.3062,-0.9131,-0.061,-0.488,0.305,161.834,19.045,-62.880
1761,-0.3335,0.3047,-0.9146,0.000,-0.549,0.122,161.834,19.050,-62.880
1771,-0.3335,0.3052,-0.9141,-0.061,-0.427,0.000,161.829,19.056,-62.886
1781,-0.3354,0.3037,-0.9102,-0.061,-0.366,-0.122,161.823,19.061,-62.886
1791,-0.3359,0.3052,-0.9082,-0.122,-0.305,-0.183,161.818,19.067,-62.886
1801,-0.3354,0.3022,-0.9087,-0.183,-0.244,-0.183,161.818,19.072,-62.886
1811,-0.3369,0.3013,-0.9063,-0.244,-0.183,-0.183,161.812,19.078,-62.886
1821,-0.3350,0.3018,-0.9067,-0.183,-0.061,-0.183,161.807,19.083,-62.886
1831,-0.3354,0.3047,-0.9092,-0.061,0.244,-0.183,161.807,19.083,-62.886
1841,-0.3359,0.3013,-0.9111,0.305,0.549,-0.183,161.807,19.078,-62.886
1851,-0.3350,0.3018,-0.9131,0.427,0.793,-0.244,161.812,19.072,-62.886
1861,-0.3320,0.3013,-0.9155,0.305,0.916,-0.244,161.818,19.067,-62.886
1871,-0.3345,0.3013,-0.9175,0.122,0.732,-0.183,161.823,19.061,-62.886
1881,-0.3345,0.3022,-0.9194,0.000,0.488,-0.061,161.823,19.056,-62.886
1891,-0.3315,0.3042,-0.9194,0.183,0.244,-0.122,161.823,19.050,-62.886
1901,-0.3330,0.3008,-0.9180,0.366,0.000,-0.244,161.829,19.050,-62.886
1911,-0.3330,0.2998,-0.9175,0.427,-0.183,-0.244,161.834,19.056,-62.886
1921,-0.3335,0.2983,-0.9180,0.183,-0.244,-0.305,161.834,19.056,-62.886
1931,-0.3335,0.2988,-0.9189,-0.244,-0.305,-0.305,161.834,19.061,-62.886
1941,-0.3325,0.2998,-0.9189,-0.488,-0.244,-0.244,161.834,19.061,-62.886
1951,-0.3320,0.2979,-0.9131,-0.183,-0.183,-0.183,161.834,19.067,-62.886
1961,-0.3311,0.2964,-0.9072,0.122,-0.244,0.000,161.834,19.067,-62.886
1971,-0.3350,0.2935,-0.9058,0.183,-0.488,0.061,161.840,19.078,-62.886
1981,-0.3364,0.2939,-0.9058,-0.061,-0.610,0.244,161.840,19.083,-62.886
1991,-0.3364,0.2979,-0.9072,-0.244,-0.183,0.427,161.834,19.089,-62.886
2001,-0.3403,0.2974,-0.9048,-0.183,0.610,0.610,161.829,19.089,-62.886
2011,-0.3394,0.3008,-0.9053,-0.061,1.038,0.610,161.829,19.078,-62.886
2021,-0.3379,0.3037,-0.9106,0.183,1.099,0.549,161.823,19.072,-62.886
2031,-0.3379,0.3032,-0.9160,0.488,0.916,0.610,161.829,19.061,-62.886
2041,-0.3369,0.3042,-0.9175,0.671,0.793,0.671,161.829,19.056,-62.886
2051,-0.3345,0.3076,-0.9175,0.549,0.671,0.488,161.834,19.045,-62.886
2061,-0.3320,0.3091,-0.9233,0.305,0.549,0.244,161.829,19.039,-62.886
2071,-0.3320,0.3091,-0.9248,0.000,0.427,0.122,161.829,19.034,-62.886
2081,-0.3306,0.3096,-0.9224,-0.183,0.183,-0.122,161.823,19.028,-62.886
2091,-0.3330,0.3091,-0.9209,-0.244,-0.061,-0.366,161.818,19.028,-62.886
2101,-0.3330,0.3076,-0.9189,-0.122,-0.305,-0.549,161.812,19.034,-62.886
2111,-0.3340,0.3042,-0.9131,0.061,-0.366,-0.671,161.812,19.039,-62.886
2121,-0.3330,0.3003,-0.9102,0.000,-0.366,-0.732,161.818,19.045,-62.886
2131,-0.3350,0.2998,-0.9087,-0.183,-0.366,-0.793,161.818,19.056,-62.886
2141,-0.3369,0.2979,-0.9058,-0.305,-0.244,-0.671,161.812,19.061,-62.886
2151,-0.3374,0.2988,-0.9058,-0.183,0.122,-0.549,161.812,19.067,-62.886
2161,-0.3374,0.2959,-0.9072,0.122,0.549,-0.549,161.818,19.067,-62.886
2171,-0.3354,0.2959,-0.9121,0.244,0.854,-0.488,161.823,19.067,-62.886
2181,-0.3359,0.2974,-0.9165,0.305,1.038,-0.305,161.834,19.056,-62.886
2191,-0.3335,0.2993,-0.9185,0.366,1.160,-0.122,161.840,19.045,-62.886
2201,-0.3315,0.2983,-0.9180,0.488,0.854,-0.122,161.845,19.039,-62.886
2211,-0.3330,0.2988,-0.9199,0.549,0.488,-0.061,161.856,19.034,-62.886
2221,-0.3330,0.3008,-0.9199,0.488,0.122,0.000,161.862,19.034,-62.886
2231,-0.3315,0.3018,-0.9224,0.244,0.000,0.000,161.862,19.028,-62.886
2241,-0.3311,0.3022,-0.9224,0.122,0.061,0.000,161.862,19.028,-62.886
2251,-0.3311,0.3003,-0.9199,0.000,0.000,-0.122,161.862,19.028,-62.886
2261,-0.3325,0.3003,-0.9185,-0.122,-0.244,-0.183,161.862,19.028,-62.886
2271,-0.3296,0.2998,-0.9199,-0.183,-0.549,-0.183,161.862,19.034,-62.886
2281,-0.3311,0.2988,-0.9189,-0.244,-0.793,-0.061,161.862,19.039,-62.886
2291,-0.3301,0.2993,-0.9180,-0.183,-0.854,-0.061,161.862,19.045,-62.886
2301,-0.3335,0.2974,-0.9160,0.000,-0.916,0.000,161.862,19.056,-62.886
2311,-0.3364,0.2964,-0.9106,0.000,-0.977,0.000,161.862,19.067,-62.886
2321,-0.3379,0.2949,-0.9097,-0.122,-0.977,0.183,161.856,19.078,-62.886
2331,-0.3389,0.2969,-0.9067,-0.244,-0.793,0.244,161.856,19.089,-62.886
2341,-0.3384,0.2988,-0.9067,-0.305,-0.610,0.366,161.851,19.100,-62.886
2351,-0.3374,0.3008,-0.9048,-0.183,-0.366,0.488,161.845,19.105,-62.886
2361,-0.3374,0.3027,-0.9043,0.183,0.000,0.549,161.840,19.105,-62.886
2371,-0.3374,0.3032,-0.9077,0.488,0.305,0.610,161.840,19.105,-62.886
2381,-0.3359,0.3018,-0.9092,0.610,0.549,0.610,161.840,19.100,-62.886
2391,-0.3359,0.3032,-0.9121,0.488,0.549,0.549,161.845,19.094,-62.886
2401,-0.3325,0.3057,-0.9150,0.122,0.488,0.366,161.840,19.089,-62.886
2411,-0.3350,0.3076,-0.9189,-0.122,0.427,0.244,161.834,19.083,-62.886
2421,-0.3350,0.3110,-0.9165,-0.122,0.488,0.183,161.829,19.078,-62.886
2431,-0.3364,0.3091,-0.9180,0.122,0.427,0.000,161.823,19.078,-62.886
2441,-0.3340,0.3081,-0.9185,0.305,0.122,-0.183,161.823,19.078,-62.886
2451,-0.3369,0.3081,-0.9175,0.244,-0.305,-0.366,161.823,19.083,-62.886
2461,-0.3359,0.3066,-0.9165,0.122,-0.488,-0.427,161.823,19.089,-62.886
2471,-0.3359,0.3027,-0.9155,-0.061,-0.427,-0.488,161.823,19.094,-62.886
2481,-0.3374,0.3013,-0.9082,-0.183,-0.244,-0.610,161.823,19.100,-62.886
2491,-0.3364,0.2998,-0.9033,-0.305,-0.244,-0.671,161.818,19.111,-62.886
2501,-0.3345,0.3008,-0.9077,-0.305,-0.061,-0.610,161.818,19.116,-62.886
2511,-0.3379,0.2983,-0.9058,-0.061,0.305,-0.427,161.818,19.116,-62.886
2521,-0.3379,0.2998,-0.9072,0.244,0.610,-0.305,161.818,19.116,-62.886
2531,-0.3359,0.2988,-0.9092,0.488,0.732,-0.183,161.823,19.111,-62.886
2541,-0.3340,0.2979,-0.9146,0.549,0.732,-0.122,161.834,19.105,-62.886
2551,-0.3340,0.2983,-0.9180,0.427,0.793,-0.061,161.840,19.100,-62.886
2561,-0.3350,0.2974,-0.9185,0.122,0.916,0.000,161.845,19.089,-62.886
2571,-0.3325,0.2998,-0.9219,-0.122,0.916,0.000,161.845,19.078,-62.886
2581,-0.3320,0.3008,-0.9272,-0.122,0.732,0.000,161.845,19.072,-62.886
2591,-0.3320,0.3008,-0.9253,0.183,0.305,0.000,161.851,19.067,-62.886
2601,-0.3296,0.3013,-0.9233,0.366,-0.366,0.122,161.856,19.067,-62.886
2611,-0.3330,0.2993,-0.9209,0.488,-0.854,0.183,161.856,19.072,-62.886
2621,-0.3335,0.2969,-0.9165,0.366,-1.099,0.244,161.862,19.083,-62.886
2631,-0.3369,0.2935,-0.9082,-0.061,-1.099,0.244,161.862,19.094,-62.886
2641,-0.3374,0.2974,-0.9082,-0.671,-0.916,0.244,161.856,19.105,-62.886
2651,-0.3379,0.2993,-0.9063,-0.916,-0.549,0.244,161.840,19.116,-62.886
2661,-0.3389,0.3008,-0.9043,-0.610,-0.183,0.366,161.834,19.122,-62.886
2671,-0.3364,0.3003,-0.9033,-0.183,0.061,0.366,161.829,19.122,-62.886
2681,-0.3364,0.3003,-0.9028,0.000,0.061,0.427,161.823,19.122,-62.886
2691,-0.3379,0.3022,-0.9067,0.000,0.244,0.549,161.818,19.122,-62.886
2701,-0.3350,0.3076,-0.9111,0.000,0.732,0.549,161.812,19.116,-62.886
2711,-0.3350,0.3096,-0.9141,0.122,1.282,0.488,161.807,19.100,-62.886
2721,-0.3335,0.3091,-0.9194,0.366,1.343,0.244,161.812,19.089,-62.886
2731,-0.3345,0.3115,-0.9209,0.488,1.038,0.061,161.812,19.078,-62.886
2741,-0.3325,0.3125,-0.9253,0.427,0.549,-0.061,161.812,19.067,-62.886
2751,-0.3330,0.3115,-0.9258,0.244,0.122,-0.305,161.812,19.067,-62.886
2762,-0.3350,0.3096,-0.9224,-0.061,-0.183,-0.549,161.807,19.067,-62.886
2771,-0.3340,0.3086,-0.9209,-0.183,-0.427,-0.916,161.807,19.072,-62.886
2781,-0.3330,0.3062,-0.9185,-0.183,-0.732,-1.099,161.801,19.083,-62.875
2791,-0.3345,0.3008,-0.9106,-0.305,-0.977,-1.160,161.801,19.100,-62.864
2801,-0.3350,0.2988,-0.9077,-0.427,-1.038,-1.160,161.801,19.111,-62.858
2811,-0.3374,0.2959,-0.9063,-0.366,-0.793,-1.160,161.801,19.127,-62.847
2821,-0.3408,0.2915,-0.9038,-0.427,-0.366,-1.038,161.801,19.138,-62.842
2831,-0.3389,0.2930,-0.9058,-0.366,0.061,-0.854,161.807,19.149,-62.831
2841,-0.3369,0.2915,-0.9053,0.000,0.427,-0.549,161.812,19.149,-62.825
2851,-0.3330,0.2915,-0.9072,0.366,0.610,-0.305,161.818,19.144,-62.820
2861,-0.3379,0.2930,-0.9102,0.671,0.732,-0.183,161.829,19.144,-62.814
2871,-0.3350,0.2954,-0.9131,0.671,0.854,-0.061,161.840,19.133,-62.809
2881,-0.3345,0.2954,-0.9185,0.427,0.977,0.000,161.851,19.127,-62.809
2891,-0.3320,0.2974,-0.9219,0.000,0.977,0.061,161.851,19.116,-62.803
2901,-0.3286,0.3018,-0.9258,-0.244,0.854,0.061,161.851,19.100,-62.803
2911,-0.3306,0.3037,-0.9282,-0.244,0.488,0.000,161.851,19.094,-62.803
2921,-0.3315,0.3027,-0.9263,-0.061,-0.061,0.061,161.851,19.089,-62.803
2931,-0.3330,0.3018,-0.9243,0.122,-0.671,0.061,161.851,19.094,-62.803
2941,-0.3330,0.3008,-0.9209,0.061,-1.160,0.061,161.851,19.105,-62.809
2951,-0.3330,0.2983,-0.9150,-0.183,-1.465,0.061,161.851,19.116,-62.814
2961,-0.3354,0.2988,-0.9131,-0.488,-1.587,0.122,161.840,19.133,-62.820
2971,-0.3379,0.2988,-0.9102,-0.610,-1.465,0.244,161.834,19.149,-62.831
2981,-0.3408,0.2983,-0.9067,-0.488,-1.160,0.305,161.823,19.166,-62.836
2991,-0.3403,0.2983,-0.9004,-0.244,-0.916,0.427,161.818,19.177,-62.842
3001,-0.3398,0.3003,-0.8955,-0.122,-0.732,0.610,161.812,19.188,-62.853
3011,-0.3398,0.3027,-0.8989,0.183,-0.244,0.732,161.807,19.193,-62.858
3021,-0.3403,0.3018,-0.9033,0.488,0.427,0.854,161.807,19.193,-62.869
3031,-0.3394,0.3022,-0.9058,0.671,1.038,0.793,161.807,19.182,-62.869
3041,-0.3359,0.3037,-0.9097,0.610,1.160,0.671,161.812,19.171,-62.875
3051,-0.3350,0.3081,-0.9155,0.305,0.916,0.549,161.807,19.160,-62.875
3061,-0.3345,0.3105,-0.9224,0.183,0.793,0.488,161.807,19.149,-62.880
3071,-0.3340,0.3105,-0.9199,0.183,0.671,0.305,161.801,19.144,-62.880
3081,-0.3335,0.3110,-0.9219,0.183,0.488,0.061,161.801,19.133,-62.880
3091,-0.3320,0.3110,-0.9229,0.183,0.122,-0.183,161.801,19.133,-62.875
3101,-0.3330,0.3091,-0.9229,0.244,-0.183,-0.305,161.801,19.133,-62.875
3111,-0.3345,0.3062,-0.9150,0.122,-0.427,-0.488,161.796,19.138,-62.869
3121,-0.3359,0.3052,-0.9102,-0.061,-0.732,-0.671,161.796,19.149,-62.869
3131,-0.3364,0.3042,-0.9106,-0.244,-0.854,-0.732,161.790,19.160,-62.864
3141,-0.3359,0.3013,-0.9102,-0.122,-0.488,-0.793,161.790,19.166,-62.858
3151,-0.3374,0.2969,-0.9063,0.122,-0.061,-0.671,161.796,19.171,-62.847
3161,-0.3379,0.2979,-0.9043,0.244,0.244,-0.671,161.801,19.177,-62.842
3171,-0.3384,0.2993,-0.9053,0.305,0.305,-0.549,161.807,19.177,-62.836
3181,-0.3364,0.2974,-0.9053,0.366,0.366,-0.427,161.812,19.182,-62.831
3191,-0.3350,0.2974,-0.9097,0.183,0.549,-0.244,161.812,19.177,-62.825
3201,-0.3354,0.2974,-0.9126,0.061,1.038,-0.244,161.818,19.166,-62.820
3211,-0.3320,0.2974,-0.9175,0.122,1.343,-0.244,161.823,19.155,-62.814
3221,-0.3340,0.2959,-0.9199,0.061,1.282,-0.183,161.829,19.144,-62.809
3231,-0.3315,0.2974,-0.9233,0.122,0.793,-0.183,161.834,19.133,-62.803
3241,-0.3335,0.2998,-0.9224,0.183,0.183,-0.122,161.840,19.127,-62.798
3251,-0.3325,0.2983,-0.9224,0.305,-0.488,0.000,161.845,19.133,-62.803
3262,-0.3354,0.2939,-0.9160,0.183,-0.916,0.061,161.851,19.144,-62.803
3271,-0.3369,0.2954,-0.9136,-0.122,-1.099,0.183,161.845,19.155,-62.809
3281,-0.3369,0.2959,-0.9121,-0.366,-0.793,0.305,161.845,19.160,-62.814
3291,-0.3374,0.2974,-0.9121,-0.549,-0.427,0.366,161.840,19.166,-62.820
3301,-0.3374,0.2969,-0.9077,-0.488,-0.183,0.488,161.834,19.171,-62.825
3311,-0.3398,0.2993,-0.9058,-0.305,-0.244,0.488,161.823,19.177,-62.831
3321,-0.3394,0.3008,-0.9082,0.000,-0.244,0.488,161.823,19.182,-62.836
3331,-0.3379,0.3018,-0.9082,0.061,-0.061,0.549,161.818,19.182,-62.842
3341,-0.3374,0.3032,-0.9116,0.000,0.183,0.488,161.818,19.182,-62.847
3351,-0.3354,0.3071,-0.9106,-0.122,0.488,0.427,161.807,19.177,-62.853
3361,-0.3374,0.3066,-0.9141,-0.122,0.610,0.305,161.801,19.171,-62.853
3371,-0.3369,0.3081,-0.9141,-0.122,0.549,0.183,161.796,19.166,-62.853
3381,-0.3359,0.3096,-0.9189,-0.122,0.305,0.061,161.790,19.160,-62.853
3391,-0.3379,0.3105,-0.9175,0.000,0.061,-0.122,161.790,19.160,-62.853
3401,-0.3354,0.3091,-0.9194,0.183,-0.122,-0.183,161.785,19.160,-62.847
3411,-0.3350,0.3115,-0.9214,0.305,-0.244,-0.366,161.785,19.166,-62.847
3421,-0.3354,0.3076,-0.9194,0.366,-0.305,-0.488,161.790,19.166,-62.842
3431,-0.3350,0.3062,-0.9150,0.305,-0.488,-0.732,161.790,19.177,-62.836
3441,-0.3350,0.3032,-0.9121,0.122,-0.671,-0.854,161.790,19.182,-62.831
3451,-0.3354,0.3008,-0.9131,-0.122,-0.732,-0.977,161.790,19.193,-62.825
3461,-0.3379,0.2988,-0.9082,-0.183,-0.488,-0.977,161.796,19.204,-62.814
3471,-0.3369,0.2959,-0.9087,-0.244,-0.122,-0.916,161.796,19.210,-62.803
3481,-0.3379,0.2964,-0.9116,-0.122,0.122,-0.793,161.801,19.215,-62.798
3491,-0.3354,0.2974,-0.9131,0.122,0.244,-0.671,161.807,19.215,-62.792
3501,-0.3354,0.2974,-0.9126,0.427,0.183,-0.488,161.812,19.215,-62.787
3511,-0.3350,0.2939,-0.9121,0.427,0.061,-0.366,161.818,19.215,-62.781
3521,-0.3374,0.2959,-0.9141,0.183,0.000,-0.244,161.823,19.215,-62.776
3531,-0.3364,0.2969,-0.9146,0.000,0.122,-0.183,161.829,19.215,-62.776
3541,-0.3359,0.2974,-0.9170,-0.183,0.183,-0.122,161.829,19.215,-62.776
3551,-0.3369,0.2998,-0.9180,-0.183,0.122,-0.061,161.829,19.215,-62.770
3561,-0.3354,0.3003,-0.9199,0.000,-0.061,-0.061,161.829,19.215,-62.770
3571,-0.3350,0.2979,-0.9209,0.244,-0.305,0.061,161.834,19.215,-62.776
3581,-0.3359,0.2959,-0.9175,0.305,-0.549,0.122,161.840,19.221,-62.776
3591,-0.3364,0.2944,-0.9136,-0.061,-0.854,0.183,161.840,19.232,-62.781
3601,-0.3354,0.3003,-0.9141,-0.549,-0.977,0.244,161.834,19.237,-62.787
3611,-0.3379,0.3022,-0.9131,-0.610,-0.732,0.366,161.823,19.248,-62.792
3621,-0.3384,0.2998,-0.9116,-0.427,-0.427,0.366,161.818,19.248,-62.798
3631,-0.3418,0.2979,-0.9063,-0.183,-0.488,0.305,161.812,19.259,-62.803
3641,-0.3403,0.2993,-0.9067,-0.244,-0.671,0.366,161.807,19.265,-62.809
3651,-0.3398,0.3013,-0.9063,-0.183,-0.732,0.488,161.801,19.276,-62.814
3661,-0.3384,0.3047,-0.9082,0.122,-0.244,0.671,161.796,19.276,-62.825
3671,-0.3389,0.3042,-0.9087,0.549,0.305,0.671,161.796,19.276,-62.831
3681,-0.3374,0.3042,-0.9077,0.793,0.610,0.488,161.801,19.270,-62.831
3691,-0.3364,0.3057,-0.9131,0.549,0.488,0.427,161.801,19.265,-62.836
3701,-0.3394,0.3052,-0.9150,0.061,0.183,0.366,161.801,19.259,-62.836
3711,-0.3384,0.3066,-0.9150,-0.305,0.122,0.244,161.790,19.259,-62.842
3721,-0.3374,0.3071,-0.9155,-0.488,0.061,0.000,161.785,19.259,-62.842
3731,-0.3384,0.3081,-0.9146,-0.427,-0.061,-0.122,161.774,19.259,-62.842
3741,-0.3418,0.3076,-0.9131,-0.122,-0.122,-0.183,161.774,19.265,-62.836
3751,-0.3418,0.3047,-0.9082,0.183,-0.122,-0.183,161.768,19.270,-62.836
3762,-0.3408,0.3022,-0.9053,0.244,-0.122,-0.305,161.774,19.276,-62.836
3771,-0.3398,0.3018,-0.9063,0.183,-0.061,-0.366,161.774,19.281,-62.831
3781,-0.3403,0.3022,-0.9102,0.122,0.244,-0.366,161.774,19.281,-62.825
3791,-0.3398,0.3018,-0.9111,0.183,0.610,-0.366,161.774,19.281,-62.820
3801,-0.3379,0.2993,-0.9116,0.122,0.793,-0.427,161.779,19.276,-62.814
3811,-0.3398,0.3018,-0.9141,0.000,0.793,-0.366,161.779,19.270,-62.809
3821,-0.3398,0.3027,-0.9136,0.122,0.671,-0.183,161.785,19.270,-62.809
3831,-0.3394,0.2983,-0.9111,0.244,0.549,-0.122,161.785,19.265,-62.809
3841,-0.3359,0.3003,-0.9141,0.183,0.305,-0.183,161.790,19.265,-62.809
3851,-0.3345,0.3013,-0.9185,0.183,0.366,-0.244,161.796,19.259,-62.809
3861,-0.3354,0.3003,-0.9180,0.244,0.671,-0.183,161.796,19.254,-62.809
3871,-0.3335,0.2993,-0.9180,0.183,0.793,-0.244,161.801,19.243,-62.809
3881,-0.3350,0.3008,-0.9209,-0.061,0.610,-0.305,161.807,19.237,-62.809
3891,-0.3335,0.3008,-0.9214,-0.183,0.183,-0.183,161.807,19.232,-62.809
3901,-0.3345,0.3013,-0.9194,-0.061,-0.244,-0.122,161.807,19.232,-62.809
3911,-0.3354,0.2993,-0.9141,0.061,-0.610,-0.061,161.807,19.237,-62.809
3921,-0.3379,0.2959,-0.9111,0.183,-0.793,0.061,161.807,19.248,-62.809
3931,-0.3379,0.2959,-0.9082,0.183,-0.549,0.183,161.812,19.254,-62.809
3941,-0.3394,0.2949,-0.9043,0.000,-0.061,0.305,161.812,19.259,-62.809
3951,-0.3433,0.2974,-0.9019,-0.244,0.427,0.305,161.807,19.259,-62.809
3961,-0.3428,0.2998,-0.9048,-0.366,0.610,0.305,161.801,19.259,-62.809
3971,-0.3433,0.3032,-0.9048,-0.244,0.610,0.366,161.796,19.259,-62.809
3981,-0.3408,0.3037,-0.9043,0.061,0.671,0.366,161.790,19.254,-62.809
3991,-0.3398,0.3037,-0.9097,0.244,0.854,0.427,161.790,19.248,-62.809
4001,-0.3384,0.3076,-0.9155,0.427,1.160,0.427,161.790,19.237,-62.809
4011,-0.3335,0.3096,-0.9160,0.549,1.465,0.305,161.796,19.221,-62.809
4021,-0.3340,0.3076,-0.9175,0.427,1.404,0.183,161.796,19.204,-62.809
4031,-0.3350,0.3110,-0.9199,0.122,1.038,-0.061,161.796,19.193,-62.809
4041,-0.3359,0.3130,-0.9209,0.000,0.732,-0.183,161.790,19.182,-62.809
4051,-0.3354,0.3110,-0.9214,0.122,0.549,-0.366,161.785,19.177,-62.809
4061,-0.3330,0.3096,-0.9175,0.305,0.488,-0.671,161.790,19.177,-62.809
4071,-0.3330,0.3062,-0.9155,0.366,0.305,-0.854,161.790,19.171,-62.809
4081,-0.3330,0.3022,-0.9126,0.244,-0.061,-0.977,161.796,19.177,-62.809
4091,-0.3354,0.2993,-0.9087,-0.122,-0.366,-0.977,161.796,19.182,-62.809
4101,-0.3369,0.2998,-0.9067,-0.488,-0.488,-0.977,161.796,19.193,-62.809
4111,-0.3389,0.2979,-0.9067,-0.427,-0.183,-0.916,161.796,19.204,-62.809
4121,-0.3403,0.2964,-0.9043,-0.122,0.366,-0.854,161.796,19.204,-62.809
4131,-0.3403,0.2925,-0.9048,0.183,0.671,-0.732,161.807,19.204,-62.809
4141,-0.3394,0.2925,-0.9053,0.305,0.732,-0.488,161.812,19.204,-62.809
4151,-0.3379,0.2944,-0.9102,0.488,0.916,-0.183,161.823,19.199,-62.809
4161,-0.3364,0.2959,-0.9131,0.732,1.221,0.000,161.834,19.188,-62.809
4171,-0.3359,0.2954,-0.9150,0.854,1.404,0.061,161.845,19.177,-62.809
4181,-0.3335,0.2964,-0.9194,0.732,1.404,0.061,161.856,19.160,-62.809
4191,-0.3345,0.2988,-0.9238,0.549,1.160,0.122,161.867,19.149,-62.809
4201,-0.3345,0.3008,-0.9243,0.305,0.793,0.122,161.867,19.138,-62.809
4211,-0.3330,0.3027,-0.9272,0.000,0.488,0.061,161.873,19.133,-62.809
4221,-0.3330,0.3032,-0.9238,-0.061,0.122,0.061,161.867,19.127,-62.809
4231,-0.3340,0.3027,-0.9224,0.061,-0.244,0.061,161.867,19.127,-62.809
4241,-0.3345,0.2998,-0.9170,0.000,-0.549,0.122,161.867,19.133,-62.809
4251,-0.3354,0.3008,-0.9150,-0.305,-0.793,0.183,161.862,19.144,-62.809
4262,-0.3340,0.3022,-0.9126,-0.305,-0.793,0.244,161.856,19.149,-62.809
4271,-0.3364,0.2993,-0.9097,-0.061,-0.549,0.305,161.851,19.155,-62.809
4281,-0.3374,0.2979,-0.9072,0.183,-0.244,0.366,161.851,19.160,-62.809
4291,-0.3379,0.2983,-0.9077,0.305,-0.061,0.488,161.856,19.160,-62.809
4301,-0.3369,0.2988,-0.9072,0.488,0.244,0.549,161.856,19.160,-62.809
4311,-0.3374,0.3037,-0.9106,0.610,0.549,0.610,161.856,19.155,-62.809
4321,-0.3340,0.3047,-0.9092,0.549,0.793,0.549,161.856,19.149,-62.809
4331,-0.3345,0.3062,-0.9136,0.427,0.793,0.366,161.856,19.138,-62.809
4341,-0.3364,0.3062,-0.9165,0.305,0.732,0.305,161.856,19.133,-62.809
4351,-0.3354,0.3071,-0.9150,0.122,0.610,0.244,161.856,19.127,-62.809
4361,-0.3350,0.3086,-0.9170,-0.061,0.366,0.122,161.851,19.122,-62.809
4371,-0.3369,0.3081,-0.9155,0.061,0.427,0.000,161.845,19.116,-62.809
4381,-0.3364,0.3081,-0.9121,0.366,0.427,-0.122,161.845,19.116,-62.809
4391,-0.3350,0.3047,-0.9121,0.488,0.366,-0.244,161.851,19.116,-62.809
4401,-0.3350,0.3037,-0.9150,0.427,0.122,-0.366,161.851,19.116,-62.809
4411,-0.3364,0.3037,-0.9131,0.305,0.061,-0.427,161.856,19.116,-62.809
4421,-0.3369,0.3022,-0.9126,0.305,0.183,-0.488,161.856,19.116,-62.809
4431,-0.3354,0.3013,-0.9097,0.244,0.366,-0.610,161.862,19.116,-62.809
4441,-0.3335,0.3022,-0.9126,0.305,0.549,-0.671,161.862,19.116,-62.809
4451,-0.3330,0.2998,-0.9102,0.305,0.671,-0.610,161.867,19.111,-62.809
4461,-0.3364,0.2983,-0.9097,0.244,0.732,-0.610,161.873,19.111,-62.809
4471,-0.3354,0.3018,-0.9106,0.122,0.549,-0.488,161.873,19.105,-62.809
4481,-0.3330,0.2993,-0.9121,0.244,0.549,-0.427,161.878,19.105,-62.809
4491,-0.3350,0.2998,-0.9165,0.366,0.671,-0.366,161.884,19.100,-62.809
4501,-0.3330,0.2993,-0.9185,0.305,0.854,-0.366,161.889,19.089,-62.809
4511,-0.3311,0.2993,-0.9238,0.244,1.038,-0.366,161.895,19.078,-62.809
4521,-0.3306,0.2998,-0.9229,0.183,0.977,-0.366,161.900,19.067,-62.809
4531,-0.3325,0.3008,-0.9229,0.244,0.610,-0.305,161.906,19.061,-62.809
4541,-0.3315,0.2979,-0.9199,0.305,0.122,-0.305,161.911,19.061,-62.809
4551,-0.3306,0.2964,-0.9214,0.366,-0.305,-0.244,161.917,19.061,-62.809
4561,-0.3311,0.2944,-0.9170,0.305,-0.610,-0.122,161.922,19.067,-62.809
4571,-0.3340,0.2935,-0.9106,0.061,-0.732,-0.061,161.927,19.078,-62.809
4581,-0.3354,0.2954,-0.9106,-0.244,-0.610,0.000,161.922,19.083,-62.809
4591,-0.3364,0.2944,-0.9102,-0.366,-0.244,0.122,161.922,19.089,-62.809
4601,-0.3394,0.2949,-0.9053,-0.305,0.122,0.244,161.917,19.094,-62.809
4611,-0.3403,0.2949,-0.9033,-0.183,0.244,0.366,161.917,19.094,-62.809
4621,-0.3374,0.2993,-0.9087,-0.122,0.183,0.427,161.911,19.094,-62.809
4631,-0.3364,0.3027,-0.9087,0.122,0.366,0.549,161.906,19.094,-62.809
4641,-0.3354,0.3022,-0.9111,0.366,0.732,0.549,161.906,19.089,-62.809
4651,-0.3325,0.3052,-0.9126,0.366,1.038,0.488,161.906,19.078,-62.809
4661,-0.3320,0.3071,-0.9175,0.244,1.099,0.305,161.906,19.061,-62.809
4671,-0.3320,0.3086,-0.9258,0.183,1.038,0.244,161.906,19.050,-62.809
4681,-0.3311,0.3081,-0.9287,0.244,0.854,0.061,161.906,19.039,-62.809
4691,-0.3315,0.3076,-0.9282,0.122,0.488,-0.244,161.906,19.028,-62.809
4701,-0.3320,0.3076,-0.9277,0.000,-0.244,-0.488,161.906,19.034,-62.809
4711,-0.3311,0.3066,-0.9219,-0.183,-0.854,-0.671,161.900,19.039,-62.809
4721,-0.3335,0.3052,-0.9160,-0.366,-1.282,-0.793,161.895,19.056,-62.809
4731,-0.3350,0.3047,-0.9136,-0.488,-1.465,-0.854,161.889,19.072,-62.809
4741,-0.3359,0.3013,-0.9087,-0.488,-1.282,-0.916,161.884,19.089,-62.809
4751,-0.3364,0.2959,-0.9053,-0.244,-0.854,-0.916,161.884,19.105,-62.809
4762,-0.3389,0.2925,-0.9048,-0.305,-0.427,-0.854,161.884,19.116,-62.809
4771,-0.3389,0.2930,-0.9077,-0.427,0.000,-0.671,161.884,19.122,-62.809
4781,-0.3354,0.2944,-0.9087,-0.305,0.305,-0.427,161.884,19.122,-62.809
4791,-0.3340,0.2935,-0.9087,-0.122,0.366,-0.183,161.884,19.122,-62.809
4801,-0.3350,0.2944,-0.9092,0.122,0.305,0.000,161.889,19.122,-62.809
4811,-0.3345,0.2969,-0.9116,0.244,0.366,0.122,161.889,19.116,-62.809
4821,-0.3330,0.2979,-0.9155,0.244,0.488,0.244,161.895,19.111,-62.809
4831,-0.3340,0.2983,-0.9150,0.305,0.732,0.305,161.900,19.105,-62.809
4841,-0.3335,0.2979,-0.9180,0.183,0.732,0.244,161.900,19.094,-62.809
4851,-0.3340,0.2988,-0.9219,-0.061,0.488,0.122,161.900,19.089,-62.809
4861,-0.3320,0.3008,-0.9243,-0.244,0.122,0.183,161.900,19.089,-62.809
4871,-0.3325,0.3027,-0.9233,-0.427,-0.183,0.183,161.895,19.089,-62.809
4881,-0.3345,0.3027,-0.9214,-0.488,-0.427,0.061,161.889,19.089,-62.809
4891,-0.3359,0.3027,-0.9175,-0.427,-0.671,0.000,161.884,19.094,-62.809
4901,-0.3354,0.2998,-0.9150,-0.427,-0.977,0.000,161.878,19.105,-62.809
4911,-0.3369,0.2988,-0.9146,-0.610,-1.282,0.000,161.867,19.122,-62.809
4921,-0.3359,0.3013,-0.9146,-0.732,-1.404,0.122,161.856,19.133,-62.809
4931,-0.3369,0.3013,-0.9116,-0.488,-1.160,0.122,161.851,19.149,-62.809
4941,-0.3359,0.2998,-0.9048,-0.122,-0.793,0.183,161.845,19.155,-62.809
4951,-0.3384,0.2979,-0.9028,0.122,-0.610,0.244,161.845,19.166,-62.809
4961,-0.3379,0.2983,-0.9019,0.061,-0.549,0.244,161.840,19.177,-62.809
4971,-0.3394,0.3022,-0.9053,-0.244,-0.488,0.305,161.834,19.182,-62.809
4981,-0.3374,0.3057,-0.9072,-0.366,0.000,0.305,161.823,19.182,-62.809
4991,-0.3359,0.3062,-0.9116,-0.061,0.671,0.305,161.823,19.177,-62.809
5001,-0.3354,0.3042,-0.9136,0.244,1.099,0.122,161.823,19.166,-62.809
5011,-0.3354,0.3052,-0.9180,0.244,0.916,0.000,161.823,19.160,-62.809
5021,-0.3369,0.3062,-0.9185,0.000,0.366,0.061,161.823,19.155,-62.809
5031,-0.3354,0.3057,-0.9170,-0.122,0.061,0.000,161.818,19.155,-62.809
5041,-0.3374,0.3042,-0.9165,-0.305,-0.183,-0.183,161.812,19.160,-62.809
5051,-0.3369,0.3076,-0.9155,-0.305,-0.183,-0.305,161.807,19.160,-62.809
5061,-0.3359,0.3081,-0.9165,-0.061,-0.061,-0.366,161.801,19.166,-62.809
5071,-0.3359,0.3062,-0.9150,0.305,0.122,-0.427,161.807,19.166,-62.809
5081,-0.3350,0.2993,-0.9116,0.366,0.061,-0.549,161.812,19.166,-62.809
5091,-0.3335,0.3003,-0.9116,0.183,-0.183,-0.610,161.812,19.171,-62.809
5101,-0.3340,0.3022,-0.9150,-0.122,-0.305,-0.610,161.812,19.171,-62.809
5111,-0.3345,0.3032,-0.9141,-0.122,0.000,-0.366,161.812,19.177,-62.809
5121,-0.3320,0.3013,-0.9106,0.366,0.427,-0.305,161.818,19.171,-62.809
5131,-0.3345,0.2988,-0.9106,0.793,0.488,-0.427,161.823,19.166,-62.809
5141,-0.3345,0.2979,-0.9126,0.732,0.183,-0.488,161.834,19.166,-62.809
5151,-0.3350,0.2954,-0.9146,0.244,0.000,-0.427,161.840,19.171,-62.809
5161,-0.3345,0.2983,-0.9204,-0.366,0.000,-0.366,161.840,19.171,-62.809
5171,-0.3325,0.3008,-0.9189,-0.549,0.244,-0.305,161.840,19.166,-62.809
5181,-0.3335,0.3003,-0.9175,-0.061,0.427,-0.244,161.840,19.160,-62.809
5191,-0.3340,0.2974,-0.9160,0.549,0.183,-0.183,161.845,19.160,-62.809
5201,-0.3364,0.2939,-0.9136,0.732,-0.488,-0.061,161.856,19.166,-62.809
5211,-0.3354,0.2920,-0.9111,0.305,-1.160,0.122,161.862,19.182,-62.809
5221,-0.3394,0.2959,-0.9111,-0.305,-1.221,0.305,161.856,19.193,-62.809
5231,-0.3394,0.3008,-0.9087,-0.610,-0.549,0.366,161.845,19.199,-62.809
5241,-0.3389,0.3008,-0.9058,-0.366,0.244,0.427,161.840,19.199,-62.809
5251,-0.3418,0.2988,-0.9023,0.183,0.549,0.427,161.840,19.199,-62.809
5262,-0.3398,0.3013,-0.9067,0.488,0.366,0.488,161.840,19.199,-62.809
5271,-0.3389,0.3013,-0.9131,0.549,0.122,0.671,161.845,19.199,-62.809
5281,-0.3369,0.3022,-0.9141,0.488,0.244,0.671,161.845,19.193,-62.809
5291,-0.3364,0.3062,-0.9116,0.244,0.488,0.549,161.840,19.188,-62.809
5301,-0.3354,0.3081,-0.9160,0.000,0.610,0.305,161.840,19.182,-62.809
5311,-0.3354,0.3101,-0.9194,-0.122,0.671,0.244,161.834,19.171,-62.809
5321,-0.3350,0.3101,-0.9185,0.061,0.610,0.061,161.829,19.166,-62.809
5331,-0.3340,0.3101,-0.9189,0.244,0.366,-0.183,161.829,19.160,-62.809
5341,-0.3354,0.3062,-0.9185,0.366,-0.061,-0.366,161.829,19.166,-62.809
5351,-0.3369,0.3032,-0.9170,0.244,-0.427,-0.488,161.829,19.171,-62.809
5361,-0.3369,0.3032,-0.9106,-0.122,-0.671,-0.610,161.829,19.182,-62.809
5371,-0.3369,0.3032,-0.9063,-0.549,-0.732,-0.610,161.823,19.193,-62.809
5381,-0.3379,0.3057,-0.9082,-0.488,-0.366,-0.610,161.812,19.199,-62.809
5391,-0.3364,0.3018,-0.9102,0.122,0.183,-0.610,161.818,19.199,-62.809
5401,-0.3384,0.2959,-0.9116,0.610,0.610,-0.671,161.829,19.199,-62.809
5411,-0.3379,0.2930,-0.9092,0.488,0.549,-0.671,161.834,19.199,-62.809
5421,-0.3369,0.2949,-0.9136,0.061,0.305,-0.488,161.840,19.199,-62.809
5431,-0.3369,0.2969,-0.9146,-0.244,0.305,-0.183,161.840,19.199,-62.809
5441,-0.3364,0.2964,-0.9141,-0.122,0.366,-0.122,161.845,19.193,-62.809
5451,-0.3364,0.2949,-0.9136,0.244,0.488,-0.061,161.851,19.193,-62.809
5461,-0.3359,0.2954,-0.9170,0.305,0.427,0.122,161.856,19.188,-62.809
5471,-0.3330,0.2983,-0.9194,0.183,0.427,0.244,161.856,19.182,-62.809
5481,-0.3315,0.2974,-0.9209,0.061,0.488,0.366,161.862,19.171,-62.809
5491,-0.3325,0.2964,-0.9194,-0.061,0.427,0.366,161.862,19.166,-62.809
5501,-0.3335,0.2969,-0.9189,-0.244,0.000,0.305,161.862,19.166,-62.809
5511,-0.3325,0.3003,-0.9214,-0.427,-0.488,0.366,161.856,19.166,-62.809
5521,-0.3335,0.3008,-0.9214,-0.305,-0.671,0.549,161.851,19.166,-62.809
5531,-0.3354,0.3003,-0.9165,-0.183,-0.610,0.610,161.845,19.171,-62.809
5541,-0.3359,0.2993,-0.9116,-0.122,-0.610,0.549,161.845,19.177,-62.809
5551,-0.3364,0.3013,-0.9082,-0.366,-0.854,0.488,161.834,19.188,-62.809
5561,-0.3389,0.3022,-0.9092,-0.488,-0.793,0.610,161.823,19.193,-62.809
5571,-0.3384,0.3062,-0.9072,-0.427,-0.488,0.671,161.812,19.199,-62.809
5581,-0.3398,0.3062,-0.9038,-0.183,-0.122,0.671,161.801,19.204,-62.809
5591,-0.3403,0.3066,-0.9023,0.122,0.000,0.549,161.796,19.204,-62.809
5601,-0.3403,0.3081,-0.9043,0.305,0.122,0.549,161.790,19.204,-62.809
5611,-0.3384,0.3096,-0.9082,0.366,0.366,0.427,161.790,19.204,-62.809
5621,-0.3374,0.3120,-0.9106,0.427,0.610,0.305,161.785,19.199,-62.809
5631,-0.3364,0.3130,-0.9146,0.427,0.732,0.000,161.785,19.193,-62.809
5641,-0.3369,0.3135,-0.9160,0.427,0.732,-0.244,161.785,19.188,-62.809
5651,-0.3369,0.3101,-0.9165,0.244,0.549,-0.488,161.785,19.182,-62.809
5661,-0.3379,0.3081,-0.9175,0.061,0.244,-0.671,161.785,19.182,-62.809
5671,-0.3384,0.3062,-0.9175,-0.061,0.000,-0.854,161.785,19.188,-62.809
5681,-0.3374,0.3022,-0.9126,-0.244,-0.122,-0.916,161.779,19.193,-62.809
5691,-0.3369,0.3008,-0.9141,-0.305,-0.305,-0.977,161.779,19.199,-62.809
5701,-0.3350,0.3003,-0.9121,-0.183,-0.305,-1.038,161.785,19.204,-62.798
5711,-0.3340,0.2974,-0.9102,0.000,-0.244,-0.916,161.785,19.210,-62.787
5721,-0.3335,0.2944,-0.9092,0.122,-0.122,-0.793,161.796,19.215,-62.781
5731,-0.3364,0.2925,-0.9082,0.122,0.000,-0.671,161.801,19.221,-62.776
5741,-0.3374,0.2910,-0.9106,0.061,0.244,-0.488,161.807,19.221,-62.770
5751,-0.3354,0.2900,-0.9092,0.000,0.610,-0.305,161.812,19.215,-62.765
5762,-0.3354,0.2944,-0.9160,0.000,0.916,-0.122,161.818,19.210,-62.759
5771,-0.3369,0.2954,-0.9180,0.061,1.038,0.122,161.823,19.199,-62.759
5781,-0.3345,0.2974,-0.9189,0.183,0.916,0.305,161.829,19.188,-62.759
5791,-0.3325,0.2983,-0.9175,0.366,0.610,0.366,161.834,19.182,-62.759
5801,-0.3315,0.2979,-0.9204,0.488,0.244,0.427,161.840,19.171,-62.765
5811,-0.3325,0.3018,-0.9224,0.305,0.000,0.427,161.840,19.171,-62.765
5821,-0.3335,0.3042,-0.9209,0.122,0.000,0.427,161.840,19.166,-62.770
5831,-0.3350,0.3042,-0.9199,0.000,0.061,0.366,161.834,19.166,-62.776
5841,-0.3350,0.3062,-0.9185,0.000,0.061,0.244,161.834,19.160,-62.776
5851,-0.3374,0.3032,-0.9185,0.000,-0.366,0.183,161.829,19.166,-62.781
5861,-0.3364,0.3008,-0.9136,0.000,-0.854,0.183,161.829,19.177,-62.787
5871,-0.3374,0.3018,-0.9102,-0.122,-1.282,0.244,161.823,19.188,-62.792
5881,-0.3394,0.3003,-0.9077,-0.244,-1.221,0.244,161.818,19.204,-62.798
5891,-0.3403,0.3013,-0.9019,-0.366,-0.793,0.244,161.812,19.215,-62.803
5901,-0.3413,0.2988,-0.9009,-0.488,-0.305,0.183,161.801,19.221,-62.803
5911,-0.3423,0.2998,-0.9004,-0.610,0.000,0.244,161.796,19.226,-62.809
5921,-0.3428,0.3022,-0.8984,-0.549,0.122,0.305,161.785,19.232,-62.809
5931,-0.3418,0.3042,-0.9014,-0.244,0.366,0.305,161.774,19.232,-62.814
5941,-0.3384,0.3057,-0.9048,0.183,0.549,0.305,161.774,19.226,-62.814
5951,-0.3369,0.3057,-0.9106,0.366,0.793,0.244,161.774,19.221,-62.814
5961,-0.3340,0.3076,-0.9126,0.305,1.099,0.183,161.774,19.210,-62.814
5971,-0.3335,0.3110,-0.9175,0.122,1.343,0.122,161.768,19.193,-62.809
5981,-0.3330,0.3115,-0.9209,-0.061,1.343,-0.061,161.768,19.177,-62.803
5991,-0.3330,0.3115,-0.9238,-0.061,1.099,-0.366,161.763,19.166,-62.798
6001,-0.3354,0.3101,-0.9224,-0.061,0.549,-0.549,161.763,19.160,-62.787
6011,-0.3354,0.3096,-0.9229,-0.183,-0.061,-0.732,161.757,19.166,-62.781
6021,-0.3364,0.3081,-0.9224,-0.427,-0.488,-0.854,161.757,19.171,-62.776
6031,-0.3364,0.3057,-0.9189,-0.366,-0.793,-0.916,161.752,19.182,-62.770
6041,-0.3345,0.3018,-0.9141,-0.305,-0.854,-0.977,161.752,19.193,-62.759
6051,-0.3345,0.3003,-0.9116,-0.244,-0.916,-1.038,161.752,19.204,-62.754
6061,-0.3359,0.2974,-0.9072,-0.244,-0.793,-0.916,161.752,19.215,-62.748
6071,-0.3369,0.2935,-0.9063,-0.244,-0.427,-0.793,161.757,19.226,-62.743
6081,-0.3374,0.2930,-0.9033,-0.305,0.061,-0.671,161.757,19.232,-62.732
6091,-0.3379,0.2930,-0.9043,-0.427,0.427,-0.549,161.757,19.232,-62.726
6101,-0.3364,0.2964,-0.9067,-0.427,0.549,-0.366,161.757,19.226,-62.721
6111,-0.3354,0.2979,-0.9106,-0.122,0.732,-0.061,161.757,19.221,-62.721
6121,-0.3359,0.2979,-0.9111,0.366,0.854,0.183,161.763,19.215,-62.715
6131,-0.3345,0.2983,-0.9160,0.610,0.793,0.244,161.774,19.204,-62.715
6141,-0.3345,0.2983,-0.9214,0.488,0.549,0.244,161.779,19.199,-62.715
6151,-0.3345,0.3013,-0.9248,0.061,0.488,0.305,161.779,19.193,-62.721
6161,-0.3345,0.3022,-0.9219,-0.366,0.305,0.244,161.779,19.188,-62.721
6171,-0.3345,0.3062,-0.9199,-0.793,0.061,0.122,161.768,19.182,-62.721
6181,-0.3335,0.3057,-0.9194,-0.793,-0.244,0.061,161.757,19.182,-62.721
6191,-0.3330,0.3052,-0.9175,-0.488,-0.671,0.061,161.752,19.188,-62.726
6201,-0.3325,0.3018,-0.9121,-0.305,-1.038,0.061,161.746,19.199,-62.732
6211,-0.3364,0.2998,-0.9131,-0.305,-1.221,0.061,161.741,19.210,-62.737
6221,-0.3374,0.2993,-0.9102,-0.488,-1.221,0.122,161.735,19.221,-62.737
6231,-0.3394,0.3008,-0.9087,-0.732,-0.977,0.183,161.724,19.232,-62.743
6241,-0.3379,0.3008,-0.9048,-0.732,-0.610,0.183,161.719,19.243,-62.748
6251,-0.3384,0.3018,-0.9033,-0.549,-0.244,0.305,161.708,19.248,-62.754
6262,-0.3398,0.3027,-0.9033,-0.183,0.000,0.427,161.702,19.248,-62.759
6271,-0.3398,0.3047,-0.9043,0.244,0.183,0.488,161.702,19.248,-62.759
6281,-0.3394,0.3066,-0.9082,0.305,0.244,0.549,161.697,19.248,-62.765
6291,-0.3374,0.3076,-0.9121,0.366,0.366,0.549,161.697,19.243,-62.770
6301,-0.3379,0.3105,-0.9131,0.488,0.488,0.427,161.697,19.237,-62.776
6311,-0.3394,0.3115,-0.9160,0.671,0.549,0.305,161.697,19.232,-62.776
6321,-0.3374,0.3101,-0.9170,0.854,0.427,0.122,161.702,19.226,-62.776
6331,-0.3384,0.3115,-0.9160,0.854,0.305,0.000,161.708,19.226,-62.776
6341,-0.3364,0.3086,-0.9175,0.610,0.061,-0.183,161.708,19.226,-62.770
6351,-0.3364,0.3105,-0.9150,0.122,-0.244,-0.366,161.708,19.226,-62.770
6361,-0.3384,0.3081,-0.9150,-0.244,-0.366,-0.610,161.702,19.232,-62.765
6371,-0.3398,0.3052,-0.9092,-0.488,-0.427,-0.732,161.697,19.243,-62.759
6381,-0.3389,0.3037,-0.9067,-0.488,-0.488,-0.793,161.691,19.254,-62.754
6391,-0.3394,0.3032,-0.9048,-0.244,-0.366,-0.793,161.691,19.265,-62.743
6401,-0.3398,0.2993,-0.9063,0.122,-0.122,-0.610,161.691,19.270,-62.737
6411,-0.3384,0.2983,-0.9043,0.488,0.183,-0.610,161.702,19.270,-62.732
6421,-0.3379,0.2974,-0.9053,0.549,0.427,-0.488,161.708,19.270,-62.726
6431,-0.3394,0.2983,-0.9087,0.366,0.732,-0.366,161.719,19.270,-62.721
6441,-0.3364,0.2988,-0.9121,0.244,1.038,-0.244,161.724,19.259,-62.715
6451,-0.3335,0.2969,-0.9146,0.305,1.160,-0.183,161.730,19.248,-62.710
6461,-0.3364,0.2998,-0.9150,0.366,1.099,-0.122,161.735,19.237,-62.704
6471,-0.3359,0.3022,-0.9141,0.244,0.549,-0.122,161.741,19.232,-62.699
6482,-0.3325,0.3027,-0.9165,0.122,0.061,-0.061,161.741,19.232,-62.699
6491,-0.3325,0.3066,-0.9209,0.061,-0.122,0.000,161.741,19.232,-62.699
6502,-0.3345,0.3047,-0.9185,0.183,0.122,-0.061,161.741,19.226,-62.699
6511,-0.3350,0.3013,-0.9185,0.305,0.427,-0.122,161.746,19.221,-62.693
6522,-0.3345,0.3018,-0.9199,0.183,0.427,-0.244,161.752,19.215,-62.693
6532,-0.3354,0.3032,-0.9209,-0.122,0.122,-0.183,161.752,19.215,-62.688
6542,-0.3359,0.3013,-0.9160,-0.122,-0.366,-0.061,161.746,19.221,-62.688
6552,-0.3345,0.3003,-0.9106,0.000,-0.732,-0.061,161.746,19.226,-62.693
6562,-0.3350,0.2964,-0.9102,0.061,-1.099,-0.061,161.752,19.237,-62.693
6571,-0.3369,0.2974,-0.9077,0.000,-1.221,0.000,161.752,19.248,-62.699
6582,-0.3394,0.2993,-0.9048,-0.061,-0.732,0.244,161.746,19.259,-62.704
6592,-0.3413,0.2974,-0.9033,-0.061,-0.122,0.366,161.746,19.265,-62.710
6602,-0.3398,0.3008,-0.9019,-0.061,0.183,0.366,161.741,19.265,-62.710
6612,-0.3389,0.3047,-0.9058,0.000,0.305,0.366,161.735,19.265,-62.715
6622,-0.3403,0.3066,-0.9077,0.244,0.488,0.427,161.735,19.265,-62.715
6632,-0.3389,0.3052,-0.9106,0.488,0.610,0.549,161.735,19.259,-62.721
6642,-0.3374,0.3042,-0.9111,0.488,0.671,0.427,161.735,19.248,-62.721
6652,-0.3354,0.3081,-0.9170,0.244,0.549,0.305,161.735,19.243,-62.721
6662,-0.3350,0.3140,-0.9214,0.061,0.549,0.244,161.730,19.232,-62.726
6672,-0.3335,0.3145,-0.9209,0.244,0.732,0.122,161.730,19.226,-62.721
6682,-0.3350,0.3120,-0.9209,0.305,0.671,-0.122,161.730,19.215,-62.721
6692,-0.3374,0.3096,-0.9185,0.244,0.122,-0.427,161.730,19.215,-62.715
6702,-0.3369,0.3096,-0.9180,-0.061,-0.549,-0.610,161.724,19.221,-62.710
6712,-0.3384,0.3091,-0.9160,-0.244,-0.916,-0.671,161.719,19.232,-62.704
6722,-0.3389,0.3066,-0.9141,-0.183,-0.732,-0.793,161.719,19.243,-62.699
6732,-0.3389,0.3022,-0.9072,0.000,-0.549,-0.916,161.719,19.254,-62.693
6742,-0.3384,0.3027,-0.9048,0.183,-0.366,-0.977,161.719,19.265,-62.682
6752,-0.3389,0.2998,-0.9048,0.244,-0.183,-0.854,161.724,19.270,-62.677
6762,-0.3389,0.2983,-0.9072,0.305,0.122,-0.732,161.730,19.276,-62.672
6772,-0.3384,0.2944,-0.9092,0.122,0.488,-0.732,161.741,19.276,-62.661
6782,-0.3389,0.2998,-0.9116,-0.122,0.610,-0.671,161.741,19.276,-62.650
6792,-0.3374,0.2983,-0.9106,-0.061,0.671,-0.488,161.746,19.270,-62.644
6802,-0.3379,0.2998,-0.9131,0.183,0.610,-0.244,161.746,19.265,-62.639
6812,-0.3379,0.2964,-0.9131,0.488,0.366,-0.122,161.757,19.265,-62.639
6821,-0.3389,0.2969,-0.9111,0.427,0.000,0.000,161.763,19.265,-62.639
6832,-0.3340,0.2998,-0.9150,0.244,-0.183,0.122,161.768,19.265,-62.639
6842,-0.3335,0.3022,-0.9155,0.244,0.122,0.244,161.768,19.265,-62.644
6852,-0.3340,0.3018,-0.9146,0.366,0.488,0.244,161.768,19.254,-62.644
6862,-0.3364,0.3008,-0.9160,0.427,0.610,0.122,161.774,19.248,-62.644
6872,-0.3354,0.3008,-0.9175,0.244,0.122,0.122,161.779,19.248,-62.644
6882,-0.3340,0.3013,-0.9180,-0.061,-0.427,0.244,161.779,19.248,-62.644
6892,-0.3350,0.3013,-0.9155,-0.305,-0.732,0.305,161.774,19.254,-62.650
6902,-0.3379,0.3008,-0.9131,-0.549,-0.854,0.244,161.763,19.265,-62.655
6912,-0.3389,0.3032,-0.9097,-0.671,-0.793,0.305,161.752,19.270,-62.661
6922,-0.3374,0.3057,-0.9131,-0.427,-0.427,0.427,161.746,19.276,-62.666
6932,-0.3379,0.3037,-0.9102,0.061,0.000,0.610,161.741,19.276,-62.677
6942,-0.3379,0.3037,-0.9092,0.488,0.122,0.671,161.741,19.270,-62.682
6952,-0.3413,0.3062,-0.9102,0.732,-0.122,0.671,161.746,19.276,-62.688
6962,-0.3423,0.3047,-0.9092,0.610,-0.366,0.671,161.746,19.281,-62.693
6972,-0.3413,0.3066,-0.9102,0.366,-0.427,0.671,161.741,19.281,-62.704
6982,-0.3389,0.3105,-0.9097,0.000,-0.244,0.488,161.735,19.286,-62.710
6992,-0.3403,0.3135,-0.9116,0.000,0.122,0.244,161.724,19.286,-62.710
7002,-0.3379,0.3135,-0.9121,0.366,0.488,0.061,161.724,19.281,-62.710
7012,-0.3374,0.3091,-0.9092,0.610,0.427,-0.122,161.724,19.276,-62.710
7022,-0.3389,0.3086,-0.9072,0.549,0.122,-0.244,161.724,19.281,-62.704
7032,-0.3398,0.3081,-0.9087,0.305,-0.244,-0.305,161.724,19.286,-62.704
7042,-0.3394,0.3071,-0.9072,0.122,-0.305,-0.366,161.724,19.292,-62.699
7052,-0.3374,0.3047,-0.9072,0.061,0.061,-0.488,161.724,19.292,-62.699
7062,-0.3374,0.3032,-0.9019,0.061,0.366,-0.610,161.724,19.292,-62.699
7072,-0.3384,0.3037,-0.9063,0.000,0.610,-0.610,161.724,19.292,-62.699
7082,-0.3369,0.3022,-0.9106,0.061,0.916,-0.488,161.724,19.286,-62.699
7092,-0.3384,0.3027,-0.9116,0.305,1.221,-0.488,161.730,19.276,-62.699
7102,-0.3359,0.3032,-0.9150,0.488,1.343,-0.549,161.735,19.265,-62.699
7112,-0.3364,0.2993,-0.9185,0.671,1.099,-0.488,161.752,19.259,-62.699
7122,-0.3359,0.3003,-0.9214,0.610,0.732,-0.366,161.757,19.248,-62.699
7132,-0.3364,0.3013,-0.9194,0.427,0.305,-0.305,161.768,19.248,-62.699
7142,-0.3340,0.2993,-0.9146,0.427,0.183,-0.305,161.774,19.243,-62.699
7152,-0.3379,0.2998,-0.9136,0.366,-0.061,-0.244,161.779,19.248,-62.699
7162,-0.3379,0.3003,-0.9097,0.305,-0.183,-0.183,161.779,19.254,-62.699
7172,-0.3364,0.3003,-0.9092,0.244,-0.244,-0.122,161.785,19.254,-62.699
7182,-0.3369,0.3008,-0.9063,0.183,-0.183,-0.061,161.785,19.259,-62.699
7192,-0.3369,0.2993,-0.9087,0.305,0.183,-0.061,161.785,19.259,-62.699
7202,-0.3369,0.2979,-0.9072,0.427,0.610,0.061,161.790,19.254,-62.699
7212,-0.3379,0.2993,-0.9111,0.549,0.916,0.122,161.796,19.248,-62.699
7222,-0.3369,0.3018,-0.9175,0.610,0.977,0.244,161.801,19.237,-62.699
7232,-0.3335,0.3003,-0.9185,0.732,0.793,0.244,161.812,19.226,-62.699
7242,-0.3330,0.2993,-0.9185,0.732,0.366,0.244,161.818,19.221,-62.699
7252,-0.3340,0.3003,-0.9189,0.671,-0.122,0.244,161.829,19.221,-62.699
7262,-0.3364,0.3003,-0.9146,0.549,-0.244,0.305,161.829,19.221,-62.699
7272,-0.3384,0.3008,-0.9092,0.244,-0.183,0.305,161.829,19.226,-62.699
7282,-0.3413,0.3003,-0.9063,-0.061,-0.061,0.244,161.829,19.232,-62.699
7292,-0.3398,0.3037,-0.9053,-0.305,0.000,0.183,161.818,19.232,-62.699
7302,-0.3398,0.3037,-0.9038,-0.305,0.122,0.183,161.812,19.232,-62.699
7312,-0.3403,0.3032,-0.8999,0.000,0.244,0.244,161.807,19.237,-62.699
7322,-0.3408,0.3032,-0.9023,0.305,0.427,0.244,161.807,19.237,-62.699
7332,-0.3394,0.3042,-0.9023,0.549,0.793,0.183,161.807,19.232,-62.699
7342,-0.3379,0.3037,-0.9058,0.610,1.221,0.244,161.812,19.221,-62.699
7352,-0.3354,0.3066,-0.9087,0.549,1.526,0.244,161.812,19.210,-62.699
7362,-0.3350,0.3071,-0.9141,0.549,1.709,0.183,161.812,19.188,-62.699
7372,-0.3354,0.3096,-0.9189,0.549,1.709,0.061,161.818,19.171,-62.699
7382,-0.3335,0.3110,-0.9233,0.671,1.770,-0.061,161.823,19.155,-62.699
7392,-0.3325,0.3105,-0.9263,0.793,1.709,-0.244,161.829,19.133,-62.699
7402,-0.3320,0.3101,-0.9272,0.732,1.465,-0.488,161.834,19.116,-62.699
7412,-0.3345,0.3096,-0.9282,0.427,0.916,-0.671,161.840,19.111,-62.699
7422,-0.3330,0.3091,-0.9229,0.000,0.305,-0.854,161.840,19.105,-62.699
7432,-0.3350,0.3066,-0.9209,-0.305,-0.183,-0.977,161.840,19.111,-62.699
7442,-0.3335,0.3062,-0.9170,-0.366,-0.427,-0.977,161.834,19.116,-62.699
7452,-0.3340,0.3032,-0.9150,-0.183,-0.366,-1.038,161.834,19.122,-62.693
7462,-0.3340,0.2974,-0.9155,0.183,-0.061,-1.038,161.840,19.127,-62.682
7472,-0.3359,0.2959,-0.9087,0.305,0.061,-0.916,161.845,19.133,-62.672
7482,-0.3354,0.2944,-0.9063,0.305,0.000,-0.793,161.856,19.138,-62.666
7492,-0.3354,0.2935,-0.9063,0.183,-0.061,-0.610,161.862,19.144,-62.661
7502,-0.3359,0.2935,-0.9063,0.061,0.061,-0.305,161.862,19.144,-62.655
7512,-0.3364,0.2954,-0.9082,0.183,0.366,-0.122,161.867,19.144,-62.650
7522,-0.3350,0.2949,-0.9111,0.366,0.854,0.000,161.873,19.138,-62.650
7532,-0.3350,0.2954,-0.9150,0.549,1.160,0.183,161.884,19.127,-62.650
7542,-0.3345,0.2964,-0.9165,0.427,1.038,0.305,161.889,19.116,-62.650
7552,-0.3335,0.2983,-0.9219,0.183,0.732,0.366,161.895,19.111,-62.650
7562,-0.3325,0.2998,-0.9258,-0.061,0.366,0.427,161.895,19.100,-62.650
7572,-0.3345,0.2998,-0.9224,-0.061,0.183,0.488,161.889,19.100,-62.655
7582,-0.3340,0.2998,-0.9204,-0.061,0.061,0.488,161.889,19.094,-62.661
7592,-0.3315,0.3013,-0.9189,-0.061,-0.183,0.427,161.889,19.094,-62.666
7602,-0.3330,0.3037,-0.9204,0.000,-0.549,0.427,161.884,19.094,-62.672
7612,-0.3345,0.3032,-0.9160,0.000,-0.793,0.427,161.878,19.105,-62.677
7622,-0.3345,0.3027,-0.9131,-0.061,-0.977,0.488,161.873,19.111,-62.688
7632,-0.3354,0.3032,-0.9102,-0.061,-1.038,0.427,161.867,19.122,-62.693
7642,-0.3384,0.3032,-0.9077,0.061,-0.916,0.427,161.862,19.133,-62.699
7652,-0.3359,0.3047,-0.9097,0.183,-0.732,0.366,161.856,19.138,-62.710
7662,-0.3374,0.3052,-0.9077,0.122,-0.549,0.305,161.856,19.144,-62.710
7672,-0.3369,0.3052,-0.9063,0.183,-0.305,0.244,161.851,19.149,-62.715
7682,-0.3364,0.3042,-0.9097,0.122,-0.061,0.244,161.845,19.155,-62.721
7692,-0.3345,0.3042,-0.9092,0.000,0.183,0.183,161.845,19.149,-62.721
7702,-0.3364,0.3062,-0.9082,-0.122,0.366,0.122,161.834,19.149,-62.721
7712,-0.3374,0.3076,-0.9106,0.061,0.488,0.061,161.834,19.149,-62.721
7722,-0.3374,0.3066,-0.9136,0.244,0.488,0.000,161.834,19.144,-62.715
7732,-0.3394,0.3066,-0.9116,0.427,0.305,-0.122,161.834,19.144,-62.715
7742,-0.3359,0.3091,-0.9131,0.427,0.122,-0.183,161.834,19.144,-62.710
7752,-0.3369,0.3076,-0.9180,0.305,0.061,-0.244,161.834,19.144,-62.710
7763,-0.3364,0.3066,-0.9146,0.122,0.061,-0.427,161.829,19.144,-62.704
7772,-0.3354,0.3057,-0.9131,-0.244,-0.122,-0.610,161.829,19.149,-62.699
7782,-0.3359,0.3032,-0.9150,-0.244,0.000,-0.671,161.823,19.155,-62.693
7792,-0.3354,0.3027,-0.9155,-0.122,0.061,-0.671,161.823,19.155,-62.688
7802,-0.3354,0.2998,-0.9136,0.061,-0.061,-0.671,161.829,19.160,-62.677
7812,-0.3359,0.3018,-0.9102,0.061,-0.183,-0.549,161.829,19.160,-62.677
7822,-0.3354,0.3008,-0.9097,0.183,-0.183,-0.488,161.829,19.166,-62.672
7832,-0.3364,0.3008,-0.9106,0.244,-0.061,-0.427,161.834,19.171,-62.666
7842,-0.3350,0.2998,-0.9136,0.122,0.244,-0.427,161.834,19.171,-62.661
7852,-0.3340,0.2998,-0.9155,-0.122,0.427,-0.427,161.834,19.166,-62.655
7862,-0.3345,0.3003,-0.9180,-0.183,0.610,-0.366,161.840,19.160,-62.650
7872,-0.3340,0.3013,-0.9204,-0.061,0.488,-0.305,161.840,19.155,-62.644
7882,-0.3325,0.3018,-0.9233,0.061,0.244,-0.244,161.840,19.155,-62.644
7892,-0.3335,0.2993,-0.9204,0.244,-0.244,-0.122,161.845,19.155,-62.644
7902,-0.3315,0.2974,-0.9189,0.122,-0.793,0.061,161.845,19.160,-62.644
7912,-0.3330,0.2964,-0.9204,0.122,-0.977,0.244,161.851,19.166,-62.650
7922,-0.3350,0.2964,-0.9170,0.000,-0.916,0.305,161.851,19.171,-62.655
7932,-0.3369,0.2959,-0.9102,-0.305,-0.732,0.305,161.845,19.182,-62.661
7942,-0.3364,0.2969,-0.9082,-0.610,-0.854,0.366,161.840,19.193,-62.666
7952,-0.3384,0.3018,-0.9058,-0.793,-0.916,0.488,161.823,19.204,-62.677
7962,-0.3413,0.3047,-0.9097,-0.488,-0.732,0.549,161.812,19.210,-62.682
7972,-0.3398,0.3047,-0.9063,0.000,-0.366,0.610,161.807,19.215,-62.693
7982,-0.3384,0.3042,-0.9038,0.427,-0.122,0.549,161.807,19.221,-62.699
7992,-0.3364,0.3032,-0.9053,0.366,0.000,0.549,161.807,19.221,-62.704
8002,-0.3354,0.3047,-0.9072,-0.061,0.183,0.549,161.801,19.215,-62.710
8012,-0.3340,0.3105,-0.9121,-0.366,0.488,0.549,161.790,19.210,-62.710
8022,-0.3340,0.3125,-0.9155,-0.183,0.977,0.427,161.779,19.199,-62.715
8032,-0.3320,0.3140,-0.9185,0.244,1.221,0.183,161.774,19.182,-62.710
8042,-0.3335,0.3115,-0.9209,0.549,1.038,-0.122,161.779,19.171,-62.704
8052,-0.3325,0.3130,-0.9243,0.427,0.427,-0.244,161.779,19.166,-62.704
8062,-0.3340,0.3125,-0.9229,0.122,-0.244,-0.427,161.779,19.166,-62.699
8072,-0.3354,0.3115,-0.9199,-0.244,-0.732,-0.610,161.768,19.171,-62.693
8082,-0.3354,0.3110,-0.9146,-0.366,-0.977,-0.854,161.763,19.182,-62.688
8092,-0.3364,0.3066,-0.9116,-0.183,-0.977,-1.038,161.757,19.199,-62.682
8102,-0.3379,0.3022,-0.9087,0.000,-0.977,-1.160,161.763,19.210,-62.672
8112,-0.3384,0.2979,-0.9063,-0.061,-0.916,-1.160,161.763,19.226,-62.666
8122,-0.3394,0.2959,-0.9048,-0.305,-0.854,-1.099,161.763,19.243,-62.655
8132,-0.3389,0.2954,-0.9058,-0.366,-0.671,-0.854,161.763,19.254,-62.650
8142,-0.3394,0.2944,-0.9023,-0.244,-0.305,-0.671,161.768,19.265,-62.644
8152,-0.3364,0.2925,-0.8989,0.061,0.183,-0.488,161.768,19.270,-62.639
8162,-0.3369,0.2910,-0.9019,0.244,0.488,-0.244,161.779,19.265,-62.633
8172,-0.3359,0.2944,-0.9111,0.183,0.793,0.000,161.785,19.259,-62.633
8182,-0.3350,0.2969,-0.9170,0.305,1.221,0.244,161.790,19.248,-62.633
8192,-0.3340,0.2983,-0.9219,0.549,1.587,0.305,161.801,19.232,-62.628
8202,-0.3311,0.2974,-0.9258,0.549,1.404,0.366,161.807,19.210,-62.628
8212,-0.3301,0.3027,-0.9277,0.305,0.671,0.366,161.812,19.199,-62.628
8222,-0.3306,0.3037,-0.9331,0.000,-0.122,0.427,161.812,19.193,-62.633
8232,-0.3301,0.3042,-0.9292,-0.122,-0.610,0.427,161.807,19.193,-62.639
8242,-0.3301,0.3047,-0.9268,-0.122,-0.977,0.305,161.807,19.193,-62.650
8252,-0.3340,0.3022,-0.9194,-0.183,-1.404,0.183,161.801,19.204,-62.655
8263,-0.3374,0.3037,-0.9155,-0.488,-1.892,0.061,161.796,19.226,-62.661
8272,-0.3374,0.3071,-0.9097,-0.671,-2.014,0.122,161.779,19.243,-62.666
8282,-0.3369,0.3057,-0.9072,-0.549,-1.709,0.183,161.768,19.259,-62.677
8292,-0.3369,0.3037,-0.9043,-0.122,-1.282,0.183,161.763,19.276,-62.682
8302,-0.3369,0.3022,-0.9038,0.305,-1.038,0.244,161.757,19.286,-62.688
8312,-0.3398,0.3032,-0.9023,0.488,-0.854,0.305,161.757,19.297,-62.693
8322,-0.3398,0.3032,-0.9048,0.366,-0.549,0.366,161.757,19.303,-62.699
8332,-0.3384,0.3037,-0.9023,0.183,-0.244,0.427,161.757,19.308,-62.704
8342,-0.3403,0.3042,-0.9033,0.000,0.061,0.244,161.752,19.308,-62.704
8352,-0.3403,0.3052,-0.9043,-0.183,0.183,0.183,161.746,19.308,-62.710
8362,-0.3364,0.3086,-0.9067,-0.244,0.366,0.183,161.735,19.308,-62.710
8372,-0.3369,0.3115,-0.9150,0.000,0.793,0.122,161.730,19.297,-62.704
8382,-0.3350,0.3115,-0.9180,0.488,1.099,0.061,161.730,19.286,-62.704
8392,-0.3340,0.3101,-0.9180,0.732,1.099,-0.122,161.735,19.270,-62.699
8402,-0.3345,0.3081,-0.9219,0.549,0.610,-0.305,161.741,19.265,-62.693
8412,-0.3345,0.3086,-0.9243,0.122,-0.061,-0.427,161.741,19.265,-62.688
8422,-0.3335,0.3066,-0.9214,-0.366,-0.671,-0.549,161.741,19.270,-62.688
8432,-0.3359,0.3047,-0.9185,-0.732,-1.038,-0.732,161.730,19.281,-62.682
8442,-0.3345,0.3052,-0.9170,-0.732,-1.160,-0.854,161.724,19.292,-62.677
8452,-0.3379,0.3052,-0.9121,-0.488,-1.038,-0.793,161.719,19.303,-62.672
8462,-0.3384,0.3008,-0.9097,0.000,-0.732,-0.732,161.719,19.314,-62.666
8472,-0.3369,0.2954,-0.9077,0.244,-0.427,-0.610,161.724,19.319,-62.666
8482,-0.3359,0.2925,-0.9111,0.305,-0.366,-0.488,161.735,19.325,-62.661
8492,-0.3379,0.2935,-0.9102,0.122,-0.427,-0.366,161.741,19.330,-62.655
8502,-0.3398,0.2983,-0.9087,-0.061,-0.183,-0.061,161.741,19.336,-62.655
8512,-0.3369,0.2974,-0.9058,-0.061,-0.061,0.183,161.741,19.336,-62.661
8522,-0.3354,0.2979,-0.9092,0.061,0.061,0.183,161.741,19.336,-62.661
8532,-0.3359,0.2998,-0.9126,0.305,0.305,0.305,161.746,19.330,-62.666
8542,-0.3359,0.3013,-0.9141,0.488,0.610,0.366,161.752,19.325,-62.666
8552,-0.3354,0.3008,-0.9204,0.305,0.732,0.305,161.752,19.314,-62.666
8562,-0.3354,0.3047,-0.9243,-0.061,0.427,0.183,161.752,19.308,-62.666
8572,-0.3335,0.3096,-0.9248,-0.183,-0.061,0.183,161.746,19.303,-62.666
8582,-0.3335,0.3076,-0.9199,0.061,-0.488,0.244,161.746,19.303,-62.672
8592,-0.3315,0.3052,-0.9180,0.305,-0.977,0.183,161.746,19.308,-62.677
8602,-0.3354,0.3057,-0.9160,0.366,-1.343,0.122,161.746,19.319,-62.682
8612,-0.3394,0.3037,-0.9121,0.305,-1.404,0.122,161.746,19.336,-62.688
8622,-0.3403,0.3018,-0.9058,0.061,-1.221,0.061,161.741,19.347,-62.693
8632,-0.3428,0.3003,-0.9004,-0.366,-0.977,0.000,161.735,19.363,-62.699
8642,-0.3413,0.3042,-0.8975,-0.610,-0.793,0.000,161.724,19.374,-62.699
8652,-0.3428,0.3057,-0.8994,-0.427,-0.488,0.061,161.713,19.385,-62.699
8662,-0.3408,0.3042,-0.9004,0.061,0.000,0.122,161.708,19.385,-62.704
8672,-0.3394,0.3047,-0.9033,0.549,0.549,0.122,161.713,19.380,-62.704
8682,-0.3374,0.3047,-0.9077,0.610,0.916,0.122,161.713,19.374,-62.699
8692,-0.3359,0.3086,-0.9136,0.305,0.916,0.122,161.713,19.363,-62.699
8702,-0.3350,0.3110,-0.9175,0.122,0.977,0.122,161.713,19.352,-62.699
8712,-0.3364,0.3105,-0.9194,0.244,1.099,-0.061,161.713,19.336,-62.693
8722,-0.3369,0.3081,-0.9194,0.366,0.793,-0.183,161.713,19.330,-62.688
8732,-0.3345,0.3081,-0.9209,0.366,0.244,-0.427,161.719,19.325,-62.682
8742,-0.3320,0.3081,-0.9229,0.183,-0.305,-0.488,161.719,19.325,-62.677
8752,-0.3325,0.3066,-0.9189,-0.061,-0.671,-0.549,161.719,19.330,-62.677
8763,-0.3315,0.3057,-0.9160,-0.183,-0.854,-0.671,161.719,19.336,-62.672
8772,-0.3340,0.3037,-0.9150,-0.244,-0.977,-0.793,161.713,19.347,-62.666
8782,-0.3354,0.3003,-0.9126,-0.244,-1.038,-0.854,161.713,19.358,-62.661
8792,-0.3374,0.2983,-0.9082,-0.305,-0.916,-0.854,161.713,19.369,-62.655
8802,-0.3384,0.2949,-0.9063,-0.488,-0.732,-0.793,161.713,19.380,-62.650
8812,-0.3384,0.2949,-0.9053,-0.671,-0.427,-0.671,161.713,19.385,-62.644
8822,-0.3384,0.2964,-0.9053,-0.610,-0.122,-0.427,161.708,19.391,-62.644
8832,-0.3384,0.2969,-0.9038,-0.244,0.061,-0.183,161.708,19.396,-62.639
8842,-0.3374,0.2954,-0.9067,0.122,0.244,0.000,161.713,19.391,-62.639
8852,-0.3369,0.2964,-0.9077,0.366,0.122,0.122,161.719,19.391,-62.639
8862,-0.3369,0.3008,-0.9141,0.305,0.244,0.244,161.719,19.385,-62.639
8872,-0.3340,0.3008,-0.9185,0.183,0.427,0.366,161.724,19.380,-62.644
8882,-0.3345,0.3018,-0.9199,0.000,0.427,0.305,161.724,19.369,-62.644
8892,-0.3335,0.3052,-0.9170,-0.183,0.122,0.244,161.719,19.363,-62.650
8902,-0.3325,0.3062,-0.9209,-0.244,-0.305,0.244,161.713,19.363,-62.650
8912,-0.3335,0.3062,-0.9209,-0.122,-0.610,0.305,161.713,19.363,-62.655
8922,-0.3325,0.3037,-0.9194,0.000,-0.793,0.305,161.708,19.369,-62.661
8932,-0.3345,0.2988,-0.9155,-0.061,-0.977,0.183,161.708,19.374,-62.666
8942,-0.3364,0.3008,-0.9136,-0.427,-1.221,0.122,161.702,19.385,-62.672
8952,-0.3369,0.3003,-0.9126,-0.671,-1.282,0.183,161.697,19.396,-62.677
8962,-0.3394,0.3013,-0.9072,-0.549,-1.160,0.305,161.686,19.407,-62.682
8972,-0.3413,0.3042,-0.9038,-0.305,-1.099,0.366,161.680,19.418,-62.693
8982,-0.3403,0.3032,-0.9038,0.061,-0.977,0.427,161.675,19.429,-62.699
8992,-0.3408,0.3027,-0.9023,0.305,-0.671,0.549,161.675,19.435,-62.710
9002,-0.3408,0.3037,-0.9019,0.366,-0.366,0.549,161.669,19.440,-62.715
9012,-0.3394,0.3052,-0.9028,0.122,-0.061,0.488,161.669,19.440,-62.721
9022,-0.3403,0.3076,-0.9072,-0.122,0.122,0.366,161.664,19.440,-62.721
9032,-0.3389,0.3115,-0.9102,0.000,0.549,0.366,161.653,19.435,-62.726
9042,-0.3384,0.3115,-0.9126,0.366,0.916,0.305,161.653,19.424,-62.726
9052,-0.3379,0.3115,-0.9189,0.671,0.977,0.061,161.658,19.413,-62.721
9062,-0.3369,0.3110,-0.9199,0.671,0.549,-0.122,161.664,19.402,-62.721
9072,-0.3374,0.3081,-0.9189,0.427,0.061,-0.244,161.664,19.402,-62.715
9082,-0.3374,0.3081,-0.9170,0.000,-0.366,-0.488,161.664,19.402,-62.710
9092,-0.3384,0.3057,-0.9150,-0.549,-0.610,-0.671,161.658,19.413,-62.710
9102,-0.3389,0.3057,-0.9097,-0.916,-0.854,-0.854,161.647,19.424,-62.704
9112,-0.3364,0.3052,-0.9097,-0.977,-0.732,-0.854,161.642,19.429,-62.693
9122,-0.3374,0.3047,-0.9106,-0.488,-0.305,-0.732,161.636,19.435,-62.693
9132,-0.3403,0.3037,-0.9121,0.305,0.305,-0.610,161.642,19.435,-62.693
9142,-0.3369,0.3003,-0.9097,0.732,0.549,-0.549,161.653,19.429,-62.693
9152,-0.3374,0.2988,-0.9116,0.732,0.366,-0.427,161.664,19.429,-62.693
9162,-0.3369,0.3018,-0.9126,0.305,0.122,-0.305,161.664,19.429,-62.693
9172,-0.3374,0.3022,-0.9126,0.061,0.061,-0.122,161.669,19.424,-62.693
9182,-0.3394,0.3032,-0.9150,0.061,0.122,-0.061,161.669,19.424,-62.693
9192,-0.3384,0.3027,-0.9146,0.244,0.061,-0.061,161.669,19.424,-62.693
9202,-0.3369,0.3037,-0.9185,0.549,0.000,0.000,161.675,19.424,-62.693
9212,-0.3340,0.3032,-0.9175,0.610,-0.122,0.000,161.680,19.418,-62.693
9222,-0.3350,0.3018,-0.9170,0.244,-0.244,0.000,161.686,19.418,-62.693
9232,-0.3345,0.3042,-0.9194,-0.061,-0.244,-0.061,161.686,19.418,-62.693
9242,-0.3350,0.3027,-0.9219,-0.244,-0.244,-0.122,161.686,19.418,-62.693
9252,-0.3350,0.3013,-0.9175,-0.183,-0.366,-0.122,161.686,19.418,-62.693
9263,-0.3350,0.3003,-0.9155,-0.061,-0.671,-0.061,161.686,19.424,-62.693
9272,-0.3359,0.2988,-0.9106,-0.061,-1.038,0.122,161.686,19.429,-62.693
9282,-0.3364,0.3013,-0.9111,-0.061,-1.221,0.244,161.680,19.440,-62.693
9292,-0.3384,0.3008,-0.9087,0.122,-0.854,0.427,161.680,19.446,-62.693
9302,-0.3413,0.2974,-0.9043,0.122,-0.305,0.427,161.680,19.451,-62.693
9312,-0.3423,0.2983,-0.9009,-0.061,0.000,0.488,161.680,19.451,-62.693
9322,-0.3433,0.3047,-0.9053,-0.244,0.000,0.549,161.669,19.457,-62.693
9332,-0.3413,0.3052,-0.9053,-0.122,0.061,0.610,161.664,19.457,-62.693
9342,-0.3403,0.3062,-0.9043,0.183,0.305,0.610,161.664,19.451,-62.693
9352,-0.3389,0.3037,-0.9077,0.366,0.366,0.549,161.664,19.446,-62.693
9362,-0.3379,0.3066,-0.9092,0.244,0.366,0.427,161.658,19.440,-62.693
9372,-0.3374,0.3105,-0.9141,0.183,0.549,0.366,161.658,19.435,-62.693
9382,-0.3369,0.3096,-0.9160,0.122,0.793,0.244,161.653,19.424,-62.693
9392,-0.3384,0.3110,-0.9170,0.061,0.732,0.000,161.653,19.413,-62.693
9402,-0.3379,0.3135,-0.9175,0.000,0.427,-0.244,161.647,19.407,-62.693
9412,-0.3384,0.3105,-0.9155,0.061,0.061,-0.366,161.647,19.407,-62.693
9422,-0.3369,0.3091,-0.9155,0.000,-0.183,-0.488,161.647,19.407,-62.693
9432,-0.3369,0.3076,-0.9155,-0.183,-0.427,-0.610,161.642,19.413,-62.693
9442,-0.3374,0.3076,-0.9111,-0.305,-0.366,-0.793,161.636,19.418,-62.693
9452,-0.3369,0.3052,-0.9116,-0.061,-0.183,-0.793,161.642,19.424,-62.693
9462,-0.3379,0.3022,-0.9097,0.061,-0.061,-0.854,161.642,19.424,-62.693
9472,-0.3384,0.3003,-0.9082,0.061,-0.061,-0.854,161.647,19.429,-62.693
9482,-0.3374,0.2993,-0.9102,0.000,0.000,-0.732,161.653,19.429,-62.693
9492,-0.3389,0.2979,-0.9126,-0.122,0.122,-0.610,161.653,19.435,-62.693
9502,-0.3398,0.2979,-0.9136,-0.244,0.244,-0.488,161.658,19.429,-62.693
9512,-0.3379,0.2964,-0.9121,-0.183,0.427,-0.366,161.658,19.429,-62.693
9522,-0.3389,0.2974,-0.9116,0.000,0.366,-0.183,161.664,19.424,-62.693
9532,-0.3398,0.2959,-0.9121,0.244,0.122,0.000,161.669,19.424,-62.693
9542,-0.3384,0.2964,-0.9141,0.244,0.000,0.183,161.675,19.424,-62.693
9552,-0.3359,0.2983,-0.9121,0.122,0.061,0.305,161.675,19.424,-62.693
9562,-0.3354,0.2998,-0.9150,-0.061,0.305,0.366,161.675,19.418,-62.693
9572,-0.3345,0.3018,-0.9194,-0.122,0.488,0.427,161.675,19.407,-62.693
9582,-0.3330,0.3022,-0.9175,-0.061,0.427,0.427,161.675,19.396,-62.693
9592,-0.3350,0.3042,-0.9175,0.061,0.183,0.488,161.675,19.391,-62.693
9602,-0.3340,0.3047,-0.9199,0.183,-0.244,0.488,161.675,19.391,-62.693
9612,-0.3364,0.3052,-0.9175,0.183,-0.549,0.549,161.675,19.391,-62.693
9622,-0.3374,0.3037,-0.9165,0.061,-0.671,0.549,161.669,19.391,-62.693
9632,-0.3364,0.3027,-0.9170,-0.061,-0.732,0.488,161.669,19.396,-62.693
9642,-0.3374,0.3042,-0.9160,-0.244,-0.793,0.427,161.664,19.402,-62.693
9652,-0.3389,0.3047,-0.9116,-0.366,-0.854,0.427,161.658,19.407,-62.693
9662,-0.3398,0.3047,-0.9087,-0.427,-0.977,0.366,161.647,19.418,-62.693
9672,-0.3403,0.3062,-0.9063,-0.244,-0.977,0.366,161.642,19.429,-62.693
9682,-0.3403,0.3086,-0.9053,-0.061,-0.732,0.427,161.631,19.435,-62.693
9692,-0.3389,0.3076,-0.9067,0.305,-0.427,0.427,161.631,19.440,-62.693
9702,-0.3398,0.3071,-0.9067,0.488,-0.061,0.427,161.631,19.440,-62.693
9712,-0.3403,0.3052,-0.9102,0.427,0.183,0.305,161.631,19.435,-62.693
9722,-0.3379,0.3081,-0.9116,0.183,0.305,0.244,161.631,19.435,-62.693
9732,-0.3374,0.3086,-0.9106,0.000,0.366,0.122,161.625,19.429,-62.693
9742,-0.3398,0.3081,-0.9111,-0.122,0.366,0.000,161.625,19.424,-62.693
9752,-0.3374,0.3101,-0.9131,-0.183,0.366,-0.183,161.620,19.418,-62.693
9763,-0.3389,0.3096,-0.9141,-0.061,0.366,-0.244,161.614,19.418,-62.693
9772,-0.3384,0.3066,-0.9160,0.061,0.366,-0.305,161.614,19.413,-62.693
9782,-0.3364,0.3057,-0.9136,-0.061,0.183,-0.366,161.614,19.413,-62.693
9792,-0.3369,0.3086,-0.9126,-0.183,-0.061,-0.366,161.614,19.413,-62.693
9802,-0.3384,0.3062,-0.9126,-0.061,-0.061,-0.366,161.609,19.413,-62.693
9812,-0.3369,0.3057,-0.9141,0.183,0.000,-0.366,161.614,19.413,-62.693
9822,-0.3364,0.3032,-0.9126,0.427,0.061,-0.366,161.620,19.413,-62.693
9832,-0.3379,0.3013,-0.9111,0.549,-0.061,-0.305,161.625,19.413,-62.693
9842,-0.3369,0.3022,-0.9111,0.427,-0.061,-0.305,161.631,19.413,-62.693
9852,-0.3384,0.2998,-0.9097,0.183,0.061,-0.244,161.636,19.413,-62.693
9862,-0.3374,0.2993,-0.9092,-0.061,0.244,-0.244,161.636,19.413,-62.693
9872,-0.3364,0.3013,-0.9097,-0.244,0.244,-0.183,161.636,19.413,-62.693
9882,-0.3394,0.3042,-0.9102,-0.122,0.305,-0.122,161.636,19.407,-62.693
9892,-0.3354,0.3047,-0.9102,0.122,0.305,0.000,161.636,19.402,-62.693
9902,-0.3374,0.3027,-0.9111,0.488,0.305,0.061,161.636,19.402,-62.693
9912,-0.3359,0.3052,-0.9146,0.549,0.244,0.061,161.642,19.396,-62.693
9922,-0.3345,0.3037,-0.9199,0.610,0.366,0.122,161.653,19.391,-62.693
9932,-0.3345,0.3027,-0.9199,0.488,0.488,0.183,161.658,19.380,-62.693
9942,-0.3354,0.3042,-0.9219,0.244,0.427,0.122,161.658,19.374,-62.693
9952,-0.3369,0.3047,-0.9204,0.183,-0.061,0.000,161.664,19.374,-62.693
9962,-0.3379,0.3062,-0.9209,0.061,-0.610,-0.061,161.664,19.374,-62.693
9972,-0.3374,0.3018,-0.9146,0.061,-1.099,0.000,161.664,19.385,-62.693
9982,-0.3394,0.2983,-0.9087,0.061,-1.343,0.122,161.664,19.402,-62.693
9992,-0.3398,0.2979,-0.9043,0.000,-1.343,0.183,161.658,19.413,-62.693
10002,-0.3442,0.2988,-0.9004,-0.122,-0.977,0.305,161.658,19.429,-62.693
10012,-0.3437,0.3018,-0.9004,0.000,-0.366,0.488,161.653,19.435,-62.693
10022,-0.3418,0.3032,-0.9014,0.244,0.061,0.549,161.653,19.435,-62.693
10032,-0.3413,0.3042,-0.9028,0.671,0.305,0.610,161.653,19.435,-62.693
10042,-0.3389,0.3062,-0.9067,0.854,0.488,0.610,161.658,19.429,-62.693
10052,-0.3379,0.3071,-0.9092,0.977,0.610,0.610,161.664,19.418,-62.693
10062,-0.3379,0.3096,-0.9116,0.793,0.671,0.549,161.664,19.413,-62.693
10072,-0.3354,0.3120,-0.9170,0.549,0.793,0.488,161.664,19.396,-62.693
10082,-0.3345,0.3140,-0.9199,0.549,0.732,0.305,161.664,19.385,-62.693
10092,-0.3350,0.3140,-0.9199,0.732,0.549,0.122,161.669,19.380,-62.693
10102,-0.3340,0.3120,-0.9219,0.793,0.122,-0.122,161.675,19.374,-62.693
10112,-0.3379,0.3101,-0.9189,0.610,-0.366,-0.366,161.675,19.374,-62.693
10122,-0.3389,0.3091,-0.9150,0.427,-0.671,-0.549,161.680,19.385,-62.693
10132,-0.3384,0.3062,-0.9136,0.061,-0.793,-0.671,161.680,19.391,-62.693
10142,-0.3398,0.3057,-0.9111,-0.183,-0.732,-0.793,161.675,19.402,-62.693
10152,-0.3398,0.3042,-0.9067,-0.122,-0.549,-0.854,161.675,19.413,-62.693
10162,-0.3403,0.3042,-0.9063,0.183,-0.366,-0.916,161.675,19.418,-62.693
10172,-0.3403,0.3003,-0.9053,0.549,-0.183,-0.793,161.686,19.424,-62.693
10182,-0.3389,0.2988,-0.9087,0.854,0.122,-0.671,161.697,19.429,-62.693
10192,-0.3384,0.2964,-0.9097,1.038,0.366,-0.488,161.713,19.429,-62.693
10202,-0.3394,0.2974,-0.9102,1.038,0.549,-0.427,161.724,19.424,-62.693
10212,-0.3408,0.2964,-0.9121,0.793,0.488,-0.305,161.735,19.424,-62.693
10222,-0.3389,0.2969,-0.9136,0.488,0.244,-0.305,161.746,19.418,-62.693
10232,-0.3394,0.2969,-0.9116,0.061,-0.061,-0.183,161.752,19.424,-62.693
10242,-0.3403,0.2998,-0.9082,-0.305,-0.122,-0.183,161.746,19.424,-62.693
10252,-0.3384,0.3013,-0.9102,-0.366,0.061,-0.183,161.741,19.424,-62.693
10263,-0.3384,0.2998,-0.9092,-0.244,0.305,-0.122,161.741,19.424,-62.693
10272,-0.3374,0.3003,-0.9106,-0.183,0.427,-0.061,161.741,19.418,-62.693
10282,-0.3364,0.2998,-0.9131,-0.122,0.366,0.000,161.741,19.413,-62.693
10292,-0.3354,0.2974,-0.9131,-0.122,0.183,0.061,161.741,19.413,-62.693
10302,-0.3389,0.2979,-0.9141,-0.366,-0.061,0.061,161.741,19.413,-62.693
10312,-0.3384,0.3003,-0.9116,-0.732,-0.061,0.122,161.730,19.413,-62.693
10322,-0.3403,0.3018,-0.9121,-0.732,0.061,0.244,161.724,19.413,-62.693
10332,-0.3408,0.3032,-0.9116,-0.305,0.305,0.305,161.719,19.407,-62.693
10342,-0.3394,0.3042,-0.9136,0.183,0.244,0.366,161.719,19.407,-62.693
10352,-0.3413,0.3003,-0.9146,0.488,0.000,0.366,161.724,19.407,-62.693
10362,-0.3418,0.3022,-0.9116,0.549,-0.244,0.427,161.724,19.407,-62.693
10372,-0.3413,0.3008,-0.9106,0.183,-0.305,0.427,161.724,19.413,-62.693
10382,-0.3408,0.3047,-0.9087,-0.244,-0.244,0.305,161.719,19.413,-62.693
10392,-0.3408,0.3091,-0.9077,-0.366,0.000,0.183,161.708,19.418,-62.693
10402,-0.3403,0.3091,-0.9097,-0.122,0.366,0.061,161.702,19.413,-62.693
10412,-0.3384,0.3066,-0.9063,0.000,0.549,0.000,161.702,19.407,-62.693
10422,-0.3384,0.3062,-0.9072,0.122,0.488,0.000,161.697,19.407,-62.693
10432,-0.3389,0.3076,-0.9077,0.061,0.427,-0.061,161.697,19.402,-62.693
10442,-0.3394,0.3091,-0.9116,-0.061,0.488,-0.122,161.691,19.396,-62.693
10452,-0.3398,0.3057,-0.9087,-0.183,0.732,-0.244,161.691,19.391,-62.693
10462,-0.3398,0.3057,-0.9102,-0.305,0.854,-0.366,161.686,19.385,-62.693
10472,-0.3403,0.3062,-0.9111,-0.183,0.977,-0.427,161.686,19.380,-62.693
10482,-0.3398,0.3076,-0.9106,0.000,0.977,-0.488,161.680,19.374,-62.693
10492,-0.3398,0.3047,-0.9106,0.183,0.854,-0.549,161.686,19.369,-62.693
10502,-0.3379,0.3032,-0.9087,0.122,0.732,-0.549,161.686,19.363,-62.693
10512,-0.3384,0.3047,-0.9126,0.000,0.610,-0.488,161.691,19.358,-62.693
10522,-0.3364,0.3052,-0.9131,0.122,0.793,-0.488,161.691,19.352,-62.693
10532,-0.3354,0.3008,-0.9146,0.183,1.038,-0.549,161.697,19.341,-62.693
10542,-0.3364,0.3008,-0.9175,0.122,1.038,-0.610,161.702,19.336,-62.693
10552,-0.3354,0.3008,-0.9155,0.061,0.854,-0.549,161.708,19.325,-62.693
10562,-0.3369,0.3013,-0.9160,0.122,0.732,-0.427,161.713,19.319,-62.693
10572,-0.3345,0.3022,-0.9155,0.244,0.549,-0.366,161.713,19.314,-62.693
10582,-0.3350,0.3027,-0.9126,0.244,0.366,-0.366,161.719,19.308,-62.693
10592,-0.3330,0.3013,-0.9136,0.244,0.366,-0.305,161.724,19.308,-62.693
10602,-0.3350,0.3008,-0.9146,0.244,0.549,-0.244,161.730,19.303,-62.693
10612,-0.3350,0.3003,-0.9146,0.122,0.854,-0.305,161.730,19.292,-62.693
10622,-0.3340,0.2998,-0.9165,0.061,0.854,-0.305,161.735,19.286,-62.693
10633,-0.3350,0.3032,-0.9175,0.061,0.671,-0.244,161.735,19.276,-62.693
10642,-0.3350,0.2998,-0.9185,0.061,0.427,-0.183,161.741,19.270,-62.693
10652,-0.3350,0.2979,-0.9165,0.183,0.000,-0.122,161.746,19.270,-62.693
10663,-0.3359,0.2979,-0.9165,0.244,-0.244,-0.061,161.752,19.276,-62.693
10673,-0.3394,0.2979,-0.9121,0.122,-0.305,0.061,161.752,19.276,-62.693
10683,-0.3384,0.2979,-0.9082,-0.061,-0.122,0.122,161.752,19.281,-62.693
10693,-0.3403,0.2969,-0.9067,-0.183,0.122,0.183,161.752,19.281,-62.693
10703,-0.3408,0.3008,-0.9048,-0.244,0.244,0.244,161.746,19.281,-62.693
10713,-0.3389,0.3022,-0.9072,-0.061,0.427,0.244,161.746,19.281,-62.693
10723,-0.3384,0.3032,-0.9102,0.305,0.671,0.305,161.746,19.276,-62.693
10733,-0.3394,0.3071,-0.9111,0.671,0.916,0.427,161.746,19.265,-62.693
10743,-0.3374,0.3076,-0.9131,0.916,1.099,0.427,161.752,19.254,-62.693
10753,-0.3369,0.3096,-0.9165,1.160,1.099,0.366,161.763,19.243,-62.693
10763,-0.3345,0.3105,-0.9194,1.282,0.977,0.244,161.768,19.232,-62.693
10772,-0.3350,0.3105,-0.9194,1.282,0.732,0.000,161.779,19.221,-62.693
10783,-0.3340,0.3096,-0.9175,1.099,0.366,-0.244,161.785,19.221,-62.693
10793,-0.3364,0.3081,-0.9165,0.732,0.122,-0.488,161.790,19.221,-62.693
10803,-0.3359,0.3091,-0.9180,0.366,0.000,-0.671,161.790,19.221,-62.693
10813,-0.3330,0.3096,-0.9199,0.183,0.061,-0.916,161.796,19.221,-62.693
10823,-0.3315,0.3086,-0.9194,0.122,0.305,-1.099,161.796,19.215,-62.682
10833,-0.3335,0.3096,-0.9224,0.305,0.427,-1.221,161.801,19.215,-62.672
10843,-0.3315,0.3086,-0.9268,0.549,0.244,-1.282,161.807,19.210,-62.655
10853,-0.3330,0.3076,-0.9292,0.854,-0.061,-1.404,161.818,19.210,-62.644
10863,-0.3340,0.3022,-0.9297,0.916,-0.488,-1.526,161.834,19.215,-62.628
10873,-0.3364,0.2998,-0.9277,0.793,-1.099,-1.648,161.851,19.232,-62.617
10883,-0.3374,0.3057,-0.9248,0.610,-1.831,-1.648,161.856,19.254,-62.606
10893,-0.3354,0.3110,-0.9224,1.221,-2.136,-1.404,161.867,19.276,-62.600
10903,-0.3350,0.2920,-0.9131,2.502,-2.136,-1.343,161.895,19.297,-62.589
10913,-0.3369,0.2852,-0.9067,2.380,-2.319,-1.526,161.927,19.325,-62.584
10923,-0.3398,0.2886,-0.9043,1.282,-2.625,-1.587,161.949,19.358,-62.578
10933,-0.3403,0.2871,-0.8999,0.244,-2.563,-1.282,161.955,19.391,-62.573
10943,-0.3418,0.2861,-0.8960,-0.671,-1.892,-1.038,161.955,19.418,-62.567
10953,-0.3423,0.2881,-0.8950,-0.916,-1.160,-1.038,161.949,19.440,-62.562
10963,-0.3447,0.2891,-0.8960,-0.427,-0.671,-0.854,161.949,19.457,-62.556
10973,-0.3433,0.2837,-0.8970,0.305,-0.305,-0.366,161.955,19.462,-62.551
10983,-0.3423,0.2832,-0.8999,0.488,0.061,0.122,161.966,19.468,-62.551
10993,-0.3447,0.2881,-0.9028,0.305,0.244,0.366,161.971,19.468,-62.556
11003,-0.3423,0.2910,-0.9067,0.122,0.610,0.549,161.977,19.468,-62.562
11013,-0.3394,0.2944,-0.9111,0.122,0.916,0.732,161.977,19.457,-62.562
11023,-0.3394,0.2969,-0.9136,0.305,1.160,0.916,161.977,19.440,-62.567
11033,-0.3379,0.3018,-0.9150,0.549,1.160,0.977,161.977,19.424,-62.573
11043,-0.3364,0.3018,-0.9189,0.793,0.793,0.977,161.982,19.413,-62.584
11053,-0.3374,0.3047,-0.9185,0.793,0.427,0.916,161.982,19.407,-62.589
11063,-0.3359,0.3057,-0.9189,0.610,0.183,0.793,161.982,19.396,-62.600
11073,-0.3359,0.3047,-0.9214,0.305,0.061,0.549,161.982,19.391,-62.606
11083,-0.3340,0.3062,-0.9214,0.000,0.000,0.366,161.977,19.385,-62.606
11093,-0.3345,0.3042,-0.9185,-0.183,-0.244,0.183,161.971,19.385,-62.611
11103,-0.3394,0.3042,-0.9165,-0.305,-0.549,0.061,161.966,19.391,-62.611
11113,-0.3398,0.3032,-0.9146,-0.366,-0.916,0.000,161.955,19.402,-62.617
11123,-0.3413,0.3018,-0.9097,-0.366,-0.977,0.000,161.949,19.413,-62.617
11133,-0.3433,0.3003,-0.9067,-0.244,-0.854,0.000,161.944,19.424,-62.622
11143,-0.3452,0.2974,-0.9033,-0.183,-0.671,-0.061,161.938,19.435,-62.622
11153,-0.3437,0.2983,-0.9028,-0.183,-0.305,-0.061,161.933,19.440,-62.622
11163,-0.3452,0.2969,-0.9028,-0.122,0.000,0.000,161.933,19.446,-62.622
11173,-0.3452,0.2998,-0.9033,0.061,0.305,0.061,161.933,19.451,-62.622
11183,-0.3428,0.3013,-0.9082,0.305,0.488,0.000,161.933,19.446,-62.622
11193,-0.3398,0.3022,-0.9102,0.610,0.549,0.122,161.933,19.440,-62.622
11203,-0.3408,0.3003,-0.9102,0.732,0.610,0.122,161.938,19.435,-62.622
11213,-0.3398,0.3027,-0.9097,0.671,0.549,0.122,161.944,19.435,-62.617
11223,-0.3379,0.3027,-0.9106,0.549,0.549,0.061,161.944,19.429,-62.617
11233,-0.3364,0.3032,-0.9141,0.305,0.671,0.000,161.944,19.418,-62.617
11243,-0.3384,0.3018,-0.9146,0.000,0.732,-0.183,161.944,19.413,-62.611
11253,-0.3359,0.3037,-0.9165,-0.183,0.732,-0.244,161.944,19.402,-62.606
11263,-0.3354,0.3052,-0.9229,-0.183,0.793,-0.366,161.938,19.396,-62.600
11273,-0.3354,0.3022,-0.9258,0.000,0.793,-0.366,161.944,19.385,-62.595
11283,-0.3364,0.2959,-0.9233,0.061,0.427,-0.366,161.949,19.380,-62.589
11293,-0.3364,0.2959,-0.9194,-0.183,-0.244,-0.427,161.949,19.380,-62.584
11303,-0.3364,0.2969,-0.9199,-0.427,-0.916,-0.366,161.944,19.385,-62.584
11313,-0.3384,0.2974,-0.9160,-0.366,-0.916,-0.244,161.944,19.396,-62.584
11323,-0.3428,0.2925,-0.9102,-0.122,-0.610,-0.122,161.944,19.407,-62.584
11333,-0.3428,0.2925,-0.9033,-0.061,-0.366,-0.122,161.944,19.413,-62.584
11343,-0.3447,0.2930,-0.9043,-0.122,-0.305,-0.061,161.944,19.424,-62.584
11353,-0.3447,0.2954,-0.9048,-0.244,-0.244,0.122,161.938,19.429,-62.589
11363,-0.3437,0.2935,-0.9028,-0.305,-0.061,0.305,161.938,19.435,-62.589
11373,-0.3437,0.2988,-0.9033,-0.305,0.122,0.305,161.933,19.435,-62.595
11383,-0.3413,0.2998,-0.9111,-0.061,0.366,0.305,161.927,19.435,-62.595
11393,-0.3394,0.3008,-0.9121,0.183,0.610,0.427,161.927,19.429,-62.600
11403,-0.3389,0.3013,-0.9150,0.305,0.854,0.366,161.927,19.418,-62.600
11413,-0.3359,0.3037,-0.9160,0.366,0.916,0.366,161.927,19.407,-62.600
11423,-0.3374,0.3013,-0.9175,0.305,0.793,0.244,161.933,19.396,-62.600
11433,-0.3369,0.3032,-0.9170,0.000,0.488,0.000,161.927,19.391,-62.600
11443,-0.3384,0.3052,-0.9199,-0.488,0.183,-0.122,161.922,19.385,-62.595
11453,-0.3369,0.3071,-0.9233,-0.732,0.000,-0.305,161.911,19.385,-62.595
11463,-0.3389,0.3071,-0.9189,-0.549,0.000,-0.366,161.906,19.385,-62.589
11473,-0.3394,0.3013,-0.9126,-0.366,0.000,-0.549,161.900,19.385,-62.584
11483,-0.3394,0.3008,-0.9126,-0.305,-0.305,-0.732,161.900,19.391,-62.578
11493,-0.3389,0.3008,-0.9150,-0.366,-0.488,-0.732,161.895,19.402,-62.573
11503,-0.3379,0.2993,-0.9146,-0.488,-0.427,-0.671,161.895,19.407,-62.567
11513,-0.3403,0.2964,-0.9102,-0.610,-0.305,-0.610,161.889,19.413,-62.562
11523,-0.3403,0.2939,-0.9077,-0.671,-0.366,-0.610,161.884,19.418,-62.556
11533,-0.3394,0.2964,-0.9102,-0.671,-0.427,-0.427,161.884,19.424,-62.556
11543,-0.3408,0.2983,-0.9111,-0.305,-0.122,-0.183,161.878,19.429,-62.551
11553,-0.3389,0.2939,-0.9102,0.061,0.427,-0.061,161.884,19.424,-62.551
11563,-0.3374,0.2935,-0.9106,0.122,0.549,-0.061,161.889,19.418,-62.545
11573,-0.3398,0.2944,-0.9150,-0.183,0.427,0.000,161.889,19.418,-62.545
11583,-0.3394,0.2944,-0.9180,-0.549,0.244,0.183,161.884,19.413,-62.545
11593,-0.3379,0.2983,-0.9170,-0.732,0.183,0.305,161.878,19.413,-62.551
11603,-0.3364,0.2993,-0.9175,-0.610,0.122,0.366,161.873,19.407,-62.551
11613,-0.3379,0.2993,-0.9165,-0.244,0.061,0.427,161.867,19.402,-62.556
11623,-0.3359,0.2988,-0.9146,-0.061,-0.061,0.488,161.867,19.402,-62.562
11633,-0.3374,0.2998,-0.9160,-0.183,-0.244,0.549,161.862,19.402,-62.567
11643,-0.3389,0.3013,-0.9165,-0.488,-0.305,0.549,161.856,19.402,-62.573
11653,-0.3394,0.3013,-0.9155,-0.549,-0.305,0.549,161.845,19.402,-62.584
11663,-0.3379,0.3027,-0.9111,-0.549,-0.305,0.549,161.834,19.402,-62.589
11673,-0.3394,0.3032,-0.9150,-0.488,-0.549,0.488,161.829,19.407,-62.595
11683,-0.3408,0.3018,-0.9126,-0.305,-0.793,0.427,161.823,19.413,-62.600
11693,-0.3413,0.3027,-0.9087,-0.122,-0.793,0.427,161.818,19.424,-62.611
11703,-0.3413,0.3032,-0.9072,-0.061,-0.793,0.366,161.812,19.429,-62.617
11713,-0.3408,0.3032,-0.9067,-0.122,-0.610,0.244,161.801,19.440,-62.622
11723,-0.3403,0.3022,-0.9038,-0.183,-0.366,0.122,161.796,19.446,-62.622
11733,-0.3423,0.3047,-0.9028,-0.427,-0.122,0.061,161.790,19.446,-62.622
11743,-0.3428,0.3066,-0.9048,-0.549,0.000,0.061,161.779,19.451,-62.622
11753,-0.3428,0.3101,-0.9072,-0.244,0.244,0.000,161.768,19.451,-62.622
11764,-0.3423,0.3052,-0.9063,0.183,0.549,0.061,161.768,19.446,-62.622
11773,-0.3413,0.3022,-0.9067,0.427,0.610,-0.061,161.774,19.446,-62.617
11783,-0.3423,0.3018,-0.9111,0.183,0.366,-0.122,161.774,19.440,-62.617
11793,-0.3413,0.3032,-0.9126,-0.183,0.305,-0.183,161.768,19.440,-62.611
11803,-0.3403,0.3047,-0.9111,-0.366,0.366,-0.183,161.763,19.440,-62.611
11813,-0.3408,0.3027,-0.9116,-0.427,0.427,-0.244,161.763,19.435,-62.606
11823,-0.3403,0.3027,-0.9121,-0.305,0.427,-0.427,161.757,19.435,-62.600
11833,-0.3389,0.3018,-0.9155,0.000,0.427,-0.366,161.763,19.429,-62.595
11843,-0.3379,0.3003,-0.9136,0.305,0.427,-0.244,161.763,19.429,-62.595
11853,-0.3389,0.2979,-0.9131,0.305,0.305,-0.183,161.768,19.424,-62.589
11863,-0.3398,0.3003,-0.9131,0.061,-0.061,-0.183,161.774,19.429,-62.589
11873,-0.3379,0.3032,-0.9126,0.000,-0.183,-0.061,161.768,19.429,-62.589
11883,-0.3389,0.2998,-0.9121,0.061,-0.061,0.000,161.774,19.429,-62.589
11893,-0.3398,0.2998,-0.9155,0.061,0.244,0.000,161.774,19.424,-62.589
11903,-0.3394,0.2998,-0.9146,0.122,0.488,-0.061,161.774,19.424,-62.584
11913,-0.3374,0.2998,-0.9146,0.061,0.549,0.000,161.779,19.418,-62.584
11923,-0.3389,0.3003,-0.9136,-0.061,0.305,0.061,161.779,19.413,-62.584
11933,-0.3384,0.3013,-0.9160,-0.183,-0.122,0.061,161.774,19.413,-62.584
11943,-0.3389,0.3003,-0.9131,-0.061,-0.366,0.183,161.774,19.418,-62.589
11953,-0.3418,0.2998,-0.9092,0.122,-0.610,0.305,161.774,19.424,-62.589
11963,-0.3374,0.2998,-0.9087,0.122,-0.671,0.305,161.774,19.429,-62.589
11973,-0.3394,0.3022,-0.9106,0.183,-0.488,0.427,161.768,19.435,-62.589
11983,-0.3423,0.3018,-0.9043,0.183,-0.122,0.488,161.768,19.435,-62.589
11993,-0.3452,0.3003,-0.9014,0.000,0.183,0.366,161.768,19.435,-62.589
12003,-0.3472,0.2998,-0.8999,-0.183,0.061,0.244,161.763,19.440,-62.589
12013,-0.3457,0.3032,-0.9038,-0.366,-0.061,0.244,161.752,19.446,-62.589
12023,-0.3428,0.3047,-0.9053,-0.244,0.122,0.305,161.746,19.446,-62.589
12033,-0.3423,0.3047,-0.9072,0.061,0.549,0.305,161.746,19.446,-62.589
12043,-0.3408,0.3052,-0.9063,0.244,0.854,0.244,161.741,19.440,-62.589
12053,-0.3389,0.3076,-0.9126,0.366,1.160,0.183,161.741,19.424,-62.589
12063,-0.3354,0.3081,-0.9185,0.488,1.404,0.122,161.746,19.407,-62.589
12073,-0.3369,0.3091,-0.9194,0.427,1.465,-0.061,161.746,19.391,-62.589
12083,-0.3379,0.3071,-0.9185,0.244,1.221,-0.244,161.752,19.380,-62.589
12093,-0.3374,0.3086,-0.9214,-0.061,0.793,-0.427,161.752,19.374,-62.589
12103,-0.3379,0.3091,-0.9229,-0.366,0.244,-0.610,161.746,19.369,-62.589
12113,-0.3364,0.3101,-0.9209,-0.305,-0.061,-0.671,161.741,19.369,-62.589
12123,-0.3374,0.3071,-0.9185,0.000,-0.305,-0.793,161.741,19.374,-62.589
12133,-0.3394,0.3022,-0.9146,0.305,-0.488,-0.854,161.746,19.380,-62.589
12143,-0.3389,0.3008,-0.9121,0.305,-0.793,-0.977,161.752,19.391,-62.589
12153,-0.3398,0.2993,-0.9121,0.000,-0.732,-0.916,161.757,19.402,-62.589
12163,-0.3379,0.2979,-0.9097,-0.305,-0.488,-0.793,161.757,19.413,-62.589
12173,-0.3403,0.2939,-0.9048,-0.305,-0.183,-0.732,161.757,19.418,-62.589
12183,-0.3418,0.2920,-0.9028,-0.183,-0.244,-0.549,161.757,19.424,-62.589
12193,-0.3433,0.2939,-0.9053,0.000,-0.183,-0.305,161.763,19.429,-62.589
12203,-0.3398,0.2969,-0.9053,0.366,0.183,0.000,161.768,19.429,-62.589
12213,-0.3398,0.2949,-0.9082,0.671,0.671,0.183,161.779,19.429,-62.589
12223,-0.3418,0.2939,-0.9106,0.488,0.916,0.183,161.785,19.418,-62.589
12233,-0.3394,0.2935,-0.9126,0.000,0.732,0.183,161.790,19.413,-62.589
12243,-0.3364,0.2998,-0.9170,-0.488,0.488,0.366,161.785,19.407,-62.589
12253,-0.3374,0.3032,-0.9209,-0.549,0.488,0.427,161.779,19.396,-62.589
12264,-0.3359,0.3052,-0.9233,-0.061,0.610,0.488,161.774,19.385,-62.589
12273,-0.3354,0.3042,-0.9248,0.549,0.671,0.488,161.779,19.374,-62.589
12283,-0.3369,0.3027,-0.9282,1.038,0.427,0.427,161.790,19.369,-62.589
12293,-0.3369,0.3027,-0.9277,0.793,-0.183,0.427,161.801,19.363,-62.589
12303,-0.3384,0.3042,-0.9229,0.122,-0.916,0.305,161.796,19.369,-62.589
12313,-0.3379,0.3066,-0.9189,-0.549,-1.587,0.122,161.790,19.385,-62.589
12323,-0.3408,0.3052,-0.9160,-0.793,-1.953,-0.061,161.774,19.402,-62.589
12333,-0.3413,0.3037,-0.9087,-0.610,-2.014,-0.122,161.768,19.424,-62.589
12343,-0.3428,0.3018,-0.9038,-0.366,-1.831,-0.183,161.757,19.446,-62.589
12353,-0.3437,0.3018,-0.9014,-0.061,-1.404,-0.122,161.752,19.462,-62.589
12363,-0.3428,0.2998,-0.8994,0.122,-0.977,-0.061,161.752,19.479,-62.589
12373,-0.3437,0.2993,-0.8975,0.183,-0.488,0.000,161.752,19.484,-62.589
12383,-0.3428,0.3003,-0.9009,0.122,-0.183,0.000,161.752,19.490,-62.589
12393,-0.3437,0.3018,-0.9009,0.061,0.244,0.061,161.746,19.495,-62.589
12403,-0.3442,0.3027,-0.9019,0.183,0.549,0.122,161.746,19.490,-62.589
12413,-0.3433,0.3022,-0.9043,0.244,0.732,0.061,161.746,19.490,-62.589
12423,-0.3408,0.3032,-0.9053,0.244,0.732,0.061,161.746,19.484,-62.589
12433,-0.3403,0.3081,-0.9092,0.122,0.671,0.000,161.746,19.479,-62.589
12443,-0.3403,0.3081,-0.9165,0.122,0.854,0.000,161.746,19.468,-62.589
12453,-0.3384,0.3062,-0.9170,0.305,0.916,-0.061,161.746,19.457,-62.589
12463,-0.3379,0.3066,-0.9185,0.366,0.732,-0.244,161.752,19.451,-62.589
12473,-0.3384,0.3071,-0.9194,0.366,0.427,-0.305,161.752,19.446,-62.589
12483,-0.3379,0.3057,-0.9185,0.183,0.000,-0.427,161.752,19.440,-62.589
12493,-0.3374,0.3027,-0.9199,0.000,-0.366,-0.549,161.757,19.446,-62.589
12503,-0.3379,0.3027,-0.9180,-0.244,-0.610,-0.610,161.757,19.451,-62.589
12513,-0.3408,0.3022,-0.9131,-0.305,-0.793,-0.610,161.752,19.462,-62.589
12523,-0.3408,0.2979,-0.9063,-0.244,-0.916,-0.610,161.752,19.473,-62.589
12533,-0.3413,0.2969,-0.9048,-0.244,-0.977,-0.610,161.752,19.490,-62.589
12543,-0.3428,0.3008,-0.9058,-0.366,-0.793,-0.488,161.746,19.501,-62.589
12553,-0.3437,0.2979,-0.9082,-0.122,-0.183,-0.366,161.746,19.506,-62.589
12563,-0.3423,0.2944,-0.9082,0.183,0.427,-0.244,161.752,19.506,-62.589
12573,-0.3413,0.2944,-0.9102,0.305,0.549,-0.122,161.763,19.501,-62.589
12583,-0.3413,0.2974,-0.9136,0.244,0.244,0.000,161.763,19.501,-62.589
12593,-0.3398,0.2998,-0.9150,0.366,0.000,0.244,161.768,19.495,-62.589
12603,-0.3394,0.2983,-0.9121,0.549,0.000,0.366,161.774,19.495,-62.589
12613,-0.3403,0.2988,-0.9116,0.549,-0.122,0.305,161.779,19.495,-62.589
12623,-0.3428,0.2983,-0.9111,0.122,-0.305,0.305,161.779,19.501,-62.589
12633,-0.3423,0.2998,-0.9111,-0.366,-0.366,0.366,161.774,19.506,-62.589
12643,-0.3423,0.3047,-0.9116,-0.427,-0.183,0.427,161.768,19.506,-62.589
12653,-0.3413,0.3066,-0.9116,-0.061,0.061,0.366,161.763,19.506,-62.589
12663,-0.3418,0.3076,-0.9111,0.427,-0.061,0.244,161.763,19.506,-62.589
12673,-0.3423,0.3071,-0.9131,0.732,-0.427,0.183,161.763,19.506,-62.589
12683,-0.3423,0.3037,-0.9092,0.488,-0.732,0.061,161.763,19.517,-62.589
12693,-0.3437,0.3047,-0.9063,-0.061,-0.732,0.000,161.757,19.528,-62.589
12703,-0.3457,0.3037,-0.9058,-0.671,-0.610,-0.183,161.752,19.534,-62.589
12713,-0.3447,0.3052,-0.9053,-1.038,-0.366,-0.305,161.735,19.545,-62.589
12723,-0.3423,0.3110,-0.9072,-0.854,0.061,-0.305,161.724,19.545,-62.589
12733,-0.3452,0.3081,-0.9097,-0.061,0.549,-0.305,161.719,19.545,-62.589
12743,-0.3428,0.3076,-0.9097,0.732,0.732,-0.366,161.724,19.539,-62.589
12753,-0.3418,0.3057,-0.9160,1.099,0.488,-0.427,161.735,19.534,-62.589
12764,-0.3413,0.3042,-0.9160,0.916,0.122,-0.488,161.746,19.534,-62.589
12773,-0.3403,0.3032,-0.9141,0.366,-0.305,-0.549,161.752,19.539,-62.589
12783,-0.3423,0.3013,-0.9121,-0.244,-0.549,-0.732,161.746,19.545,-62.589
12793,-0.3442,0.2979,-0.9077,-0.671,-0.610,-0.854,161.746,19.556,-62.589
12803,-0.3447,0.2988,-0.9043,-0.732,-0.488,-0.854,161.741,19.567,-62.589
12813,-0.3428,0.2993,-0.9082,-0.671,0.000,-0.732,161.735,19.572,-62.589
12823,-0.3413,0.3008,-0.9106,-0.366,0.671,-0.610,161.735,19.567,-62.589
12833,-0.3394,0.2983,-0.9131,0.244,1.038,-0.427,161.741,19.561,-62.589
12843,-0.3408,0.2959,-0.9141,0.610,0.916,-0.305,161.752,19.550,-62.589
12853,-0.3423,0.2954,-0.9146,0.610,0.305,-0.183,161.763,19.550,-62.589
12863,-0.3428,0.2949,-0.9136,0.244,-0.305,-0.061,161.768,19.556,-62.589
12873,-0.3418,0.2954,-0.9150,-0.244,-0.610,0.000,161.768,19.561,-62.589
12883,-0.3408,0.2979,-0.9141,-0.610,-0.549,0.061,161.763,19.561,-62.589
12893,-0.3398,0.3008,-0.9126,-0.671,-0.305,0.000,161.757,19.567,-62.589
12903,-0.3398,0.3022,-0.9141,-0.305,0.000,0.000,161.752,19.567,-62.589
12913,-0.3379,0.3003,-0.9131,0.183,0.183,0.122,161.757,19.561,-62.589
12923,-0.3384,0.3003,-0.9165,0.488,0.000,0.183,161.763,19.556,-62.589
12933,-0.3384,0.2983,-0.9165,0.427,-0.488,0.122,161.768,19.561,-62.589
12943,-0.3403,0.2988,-0.9175,0.061,-0.916,0.244,161.768,19.567,-62.589
12953,-0.3408,0.3003,-0.9150,-0.244,-1.099,0.244,161.763,19.578,-62.589
12963,-0.3423,0.3008,-0.9102,-0.488,-1.038,0.244,161.757,19.583,-62.589
12973,-0.3462,0.3027,-0.9087,-0.305,-0.916,0.244,161.746,19.594,-62.589
12983,-0.3467,0.3013,-0.9067,-0.061,-0.793,0.244,161.746,19.605,-62.589
12993,-0.3467,0.3003,-0.9009,0.122,-0.732,0.244,161.741,19.616,-62.589
13003,-0.3472,0.3018,-0.9019,0.183,-0.610,0.244,161.741,19.627,-62.589
13013,-0.3457,0.3032,-0.9028,0.244,-0.305,0.244,161.741,19.633,-62.589
13023,-0.3467,0.3032,-0.9033,0.244,0.000,0.244,161.735,19.633,-62.589
13033,-0.3442,0.3037,-0.9063,0.122,0.183,0.244,161.735,19.633,-62.589
13043,-0.3433,0.3062,-0.9072,0.000,0.305,0.122,161.730,19.633,-62.589
13053,-0.3447,0.3062,-0.9102,0.000,0.427,0.061,161.730,19.627,-62.589
13063,-0.3442,0.3076,-0.9111,0.061,0.549,0.061,161.724,19.622,-62.589
13073,-0.3423,0.3076,-0.9102,0.122,0.488,-0.061,161.724,19.616,-62.589
13083,-0.3428,0.3062,-0.9136,0.244,0.427,-0.122,161.724,19.616,-62.589
13093,-0.3433,0.3052,-0.9131,0.366,0.244,-0.183,161.724,19.611,-62.589
13103,-0.3442,0.3047,-0.9141,0.305,0.122,-0.244,161.730,19.611,-62.589
13113,-0.3437,0.3047,-0.9155,0.244,0.122,-0.366,161.730,19.611,-62.589
13123,-0.3403,0.3047,-0.9170,0.305,0.061,-0.427,161.735,19.611,-62.589
13133,-0.3418,0.3032,-0.9165,0.366,0.061,-0.488,161.741,19.611,-62.589
13143,-0.3423,0.3003,-0.9150,0.183,-0.061,-0.488,161.746,19.611,-62.589
13153,-0.3437,0.3008,-0.9102,0.061,-0.488,-0.488,161.746,19.622,-62.589
13163,-0.3437,0.2988,-0.9063,-0.061,-0.732,-0.427,161.746,19.633,-62.589
13173,-0.3423,0.3008,-0.9072,-0.122,-0.610,-0.366,161.746,19.638,-62.589
13183,-0.3442,0.3008,-0.9048,-0.122,-0.183,-0.244,161.741,19.644,-62.589
13193,-0.3442,0.2959,-0.9048,-0.061,0.366,-0.183,161.746,19.644,-62.589
13203,-0.3423,0.2959,-0.9111,-0.122,0.671,-0.122,161.746,19.638,-62.589
13213,-0.3423,0.2983,-0.9165,-0.061,0.793,0.000,161.746,19.627,-62.589
13223,-0.3408,0.2998,-0.9199,0.244,0.671,0.183,161.752,19.622,-62.589
13233,-0.3384,0.2983,-0.9180,0.671,0.305,0.366,161.763,19.611,-62.589
13243,-0.3408,0.2964,-0.9136,0.793,-0.244,0.488,161.768,19.611,-62.589
13253,-0.3408,0.2983,-0.9170,0.610,-0.793,0.549,161.774,19.616,-62.589
13264,-0.3447,0.3013,-0.9141,0.183,-0.854,0.549,161.774,19.622,-62.589
13273,-0.3457,0.3013,-0.9092,-0.122,-0.732,0.549,161.768,19.633,-62.589
13283,-0.3477,0.3018,-0.9043,-0.366,-0.549,0.366,161.763,19.638,-62.589
13293,-0.3477,0.3027,-0.9038,-0.488,-0.671,0.305,161.752,19.649,-62.589
13303,-0.3481,0.3071,-0.9009,-0.427,-0.610,0.305,161.741,19.660,-62.589
13313,-0.3462,0.3066,-0.9009,-0.183,-0.366,0.427,161.730,19.666,-62.589
13323,-0.3472,0.3042,-0.9009,0.122,0.061,0.427,161.730,19.666,-62.589
13333,-0.3481,0.3057,-0.9019,0.305,0.488,0.427,161.724,19.666,-62.589
13343,-0.3447,0.3071,-0.9067,0.427,0.916,0.366,161.724,19.655,-62.589
13353,-0.3442,0.3066,-0.9106,0.427,1.160,0.244,161.724,19.644,-62.589
13363,-0.3442,0.3076,-0.9111,0.244,1.160,0.061,161.724,19.633,-62.589
13373,-0.3462,0.3105,-0.9175,0.122,0.916,-0.183,161.724,19.627,-62.589
13383,-0.3442,0.3115,-0.9185,0.122,0.671,-0.366,161.724,19.622,-62.589
13393,-0.3437,0.3110,-0.9150,0.244,0.427,-0.549,161.724,19.616,-62.589
13403,-0.3437,0.3076,-0.9150,0.366,0.122,-0.732,161.724,19.616,-62.589
13413,-0.3413,0.3066,-0.9155,0.488,-0.183,-0.854,161.730,19.622,-62.589
13423,-0.3423,0.3047,-0.9131,0.488,-0.427,-0.916,161.735,19.627,-62.589
13433,-0.3408,0.3018,-0.9087,0.366,-0.488,-1.099,161.741,19.638,-62.578
13443,-0.3428,0.2983,-0.9106,0.183,-0.427,-1.160,161.746,19.644,-62.567
13453,-0.3447,0.2998,-0.9102,-0.061,-0.244,-1.160,161.752,19.649,-62.556
13463,-0.3428,0.2979,-0.9102,-0.122,0.000,-0.977,161.757,19.655,-62.545
13473,-0.3413,0.2959,-0.9121,-0.061,0.122,-0.793,161.757,19.655,-62.540
13483,-0.3428,0.2930,-0.9097,0.183,0.000,-0.610,161.768,19.660,-62.534
13493,-0.3442,0.2896,-0.9106,0.305,-0.122,-0.305,161.779,19.660,-62.529
13503,-0.3452,0.2881,-0.9116,0.366,-0.183,-0.061,161.790,19.666,-62.529
13513,-0.3433,0.2900,-0.9102,0.183,-0.061,0.183,161.796,19.666,-62.529
13523,-0.3428,0.2915,-0.9121,0.000,0.061,0.366,161.796,19.666,-62.534
13533,-0.3413,0.2939,-0.9155,-0.122,0.183,0.549,161.801,19.660,-62.540
13543,-0.3413,0.2959,-0.9150,0.000,0.183,0.732,161.801,19.655,-62.545
13553,-0.3423,0.2979,-0.9175,0.183,0.000,0.854,161.801,19.649,-62.556
13563,-0.3418,0.2988,-0.9150,0.183,-0.305,0.916,161.801,19.649,-62.567
13573,-0.3423,0.2983,-0.9160,0.061,-0.549,0.977,161.796,19.655,-62.578
13583,-0.3413,0.3022,-0.9126,-0.244,-0.671,0.977,161.790,19.655,-62.589
13593,-0.3447,0.3071,-0.9136,-0.549,-0.732,0.916,161.779,19.660,-62.600
13603,-0.3442,0.3086,-0.9116,-0.488,-0.793,0.916,161.763,19.666,-62.611
13613,-0.3452,0.3066,-0.9077,-0.244,-0.793,0.793,161.752,19.671,-62.622
13623,-0.3472,0.3071,-0.9043,0.000,-0.977,0.671,161.746,19.682,-62.633
13633,-0.3477,0.3101,-0.9028,0.061,-1.099,0.610,161.735,19.693,-62.644
13643,-0.3501,0.3101,-0.9019,-0.061,-0.854,0.488,161.724,19.704,-62.650
13653,-0.3506,0.3081,-0.8970,-0.244,-0.488,0.305,161.713,19.715,-62.655
13663,-0.3481,0.3086,-0.8965,-0.427,-0.122,0.061,161.702,19.720,-62.655
13673,-0.3496,0.3096,-0.8970,-0.549,0.305,-0.122,161.691,19.720,-62.655
13683,-0.3506,0.3091,-0.8979,-0.488,0.732,-0.244,161.680,19.720,-62.650
13693,-0.3511,0.3086,-0.8989,-0.427,1.038,-0.366,161.675,19.715,-62.644
13703,-0.3481,0.3062,-0.8979,-0.305,1.221,-0.427,161.669,19.709,-62.633
13713,-0.3472,0.3047,-0.9033,-0.305,1.404,-0.549,161.664,19.704,-62.622
13723,-0.3477,0.3027,-0.9067,-0.366,1.648,-0.549,161.664,19.693,-62.611
13733,-0.3452,0.3042,-0.9067,-0.427,1.831,-0.549,161.658,19.677,-62.600
13743,-0.3447,0.3047,-0.9102,-0.305,1.892,-0.549,161.658,19.660,-62.589
13753,-0.3418,0.3057,-0.9170,0.061,1.892,-0.549,161.664,19.644,-62.578
13764,-0.3403,0.3047,-0.9189,0.427,1.648,-0.610,161.669,19.627,-62.567
13773,-0.3384,0.3042,-0.9224,0.549,1.404,-0.610,161.680,19.611,-62.556
13783,-0.3354,0.3027,-0.9272,0.366,1.038,-0.610,161.691,19.600,-62.545
13793,-0.3335,0.3037,-0.9263,0.122,0.793,-0.671,161.697,19.589,-62.534
13803,-0.3369,0.3018,-0.9263,0.000,0.488,-0.610,161.702,19.578,-62.529
13813,-0.3403,0.2998,-0.9224,-0.061,0.000,-0.549,161.708,19.578,-62.523
13823,-0.3408,0.3008,-0.9160,0.000,-0.610,-0.488,161.708,19.583,-62.518
13833,-0.3384,0.2998,-0.9126,0.122,-1.099,-0.366,161.708,19.594,-62.518
13843,-0.3423,0.2988,-0.9106,0.183,-1.160,-0.305,161.713,19.605,-62.518
13853,-0.3467,0.2959,-0.9063,0.061,-1.038,-0.305,161.713,19.622,-62.518
13863,-0.3452,0.2949,-0.9063,-0.244,-0.671,-0.244,161.713,19.633,-62.518
13873,-0.3442,0.2949,-0.9043,-0.366,-0.183,-0.122,161.713,19.633,-62.518
13883,-0.3462,0.2979,-0.9019,-0.244,0.183,0.000,161.713,19.638,-62.518
13893,-0.3452,0.2969,-0.9023,0.000,0.244,0.183,161.713,19.638,-62.518
13903,-0.3452,0.2974,-0.9014,0.122,0.061,0.366,161.713,19.638,-62.523
13913,-0.3467,0.2998,-0.9023,0.305,0.122,0.549,161.713,19.644,-62.529
13923,-0.3457,0.3003,-0.9048,0.610,0.488,0.732,161.719,19.638,-62.534
13933,-0.3462,0.2988,-0.9023,0.671,0.977,0.732,161.719,19.627,-62.540
13943,-0.3467,0.3042,-0.9038,0.427,1.221,0.610,161.724,19.622,-62.540
13953,-0.3452,0.3096,-0.9087,0.183,1.282,0.549,161.719,19.605,-62.540
13963,-0.3447,0.3120,-0.9116,0.244,1.282,0.488,161.713,19.594,-62.540
13973,-0.3433,0.3110,-0.9102,0.488,1.221,0.305,161.713,19.583,-62.540
13983,-0.3418,0.3130,-0.9136,0.671,1.038,0.000,161.713,19.572,-62.540
13993,-0.3442,0.3110,-0.9155,0.610,0.732,-0.244,161.719,19.567,-62.534
14003,-0.3398,0.3101,-0.9131,0.366,0.610,-0.427,161.719,19.561,-62.529
14013,-0.3398,0.3110,-0.9150,-0.061,0.549,-0.610,161.713,19.556,-62.518
14023,-0.3403,0.3110,-0.9165,-0.244,0.610,-0.854,161.713,19.550,-62.507
14033,-0.3398,0.3086,-0.9126,-0.061,0.671,-1.099,161.713,19.545,-62.496
14043,-0.3418,0.3047,-0.9116,0.061,0.610,-1.282,161.713,19.545,-62.479
14053,-0.3418,0.3042,-0.9106,0.000,0.366,-1.282,161.719,19.545,-62.468
14063,-0.3398,0.3027,-0.9121,0.305,0.366,-1.221,161.724,19.545,-62.452
14073,-0.3413,0.2998,-0.9111,0.549,0.671,-1.099,161.735,19.545,-62.441
14083,-0.3418,0.2954,-0.9087,0.732,0.671,-1.099,161.752,19.539,-62.424
14093,-0.3398,0.2925,-0.9111,0.671,0.671,-1.038,161.763,19.539,-62.413
14103,-0.3394,0.2905,-0.9111,0.488,0.671,-0.916,161.779,19.534,-62.402
14113,-0.3408,0.2900,-0.9082,0.183,0.793,-0.793,161.790,19.534,-62.391
14123,-0.3423,0.2939,-0.9126,-0.244,0.977,-0.732,161.796,19.528,-62.380
14133,-0.3403,0.2969,-0.9150,-0.183,0.977,-0.549,161.796,19.517,-62.369
14143,-0.3379,0.2959,-0.9155,0.183,0.854,-0.366,161.807,19.512,-62.364
14153,-0.3384,0.2925,-0.9131,0.488,0.549,-0.122,161.812,19.506,-62.364
14163,-0.3389,0.2939,-0.9121,0.366,0.122,0.000,161.823,19.501,-62.364
14173,-0.3398,0.2964,-0.9121,0.061,0.000,0.183,161.823,19.501,-62.364
14183,-0.3398,0.2949,-0.9126,-0.244,0.244,0.305,161.823,19.501,-62.364
14193,-0.3374,0.2974,-0.9131,-0.366,0.549,0.305,161.818,19.490,-62.369
14203,-0.3389,0.3003,-0.9175,-0.366,0.793,0.305,161.818,19.479,-62.369
14213,-0.3384,0.3003,-0.9180,-0.183,0.610,0.366,161.812,19.473,-62.369
14223,-0.3394,0.3003,-0.9175,-0.061,0.305,0.549,161.812,19.468,-62.375
14233,-0.3403,0.2988,-0.9165,0.000,-0.061,0.610,161.812,19.468,-62.380
14243,-0.3428,0.2988,-0.9165,-0.061,-0.366,0.671,161.812,19.468,-62.386
14253,-0.3413,0.3003,-0.9155,-0.122,-0.305,0.610,161.807,19.468,-62.397
14264,-0.3413,0.3032,-0.9141,-0.061,-0.183,0.610,161.801,19.468,-62.402
14273,-0.3428,0.3027,-0.9087,0.183,-0.061,0.610,161.801,19.473,-62.408
14283,-0.3413,0.3047,-0.9092,0.366,-0.061,0.610,161.801,19.473,-62.413
14293,-0.3418,0.3052,-0.9087,0.366,-0.061,0.549,161.796,19.473,-62.419
14303,-0.3437,0.3032,-0.9063,0.305,0.061,0.488,161.796,19.473,-62.424
14313,-0.3423,0.3062,-0.9058,0.061,0.244,0.427,161.790,19.473,-62.430
14323,-0.3423,0.3081,-0.9087,-0.061,0.427,0.305,161.785,19.468,-62.430
14333,-0.3408,0.3071,-0.9102,0.061,0.610,0.244,161.779,19.462,-62.430
14343,-0.3398,0.3081,-0.9087,0.305,0.732,0.122,161.779,19.457,-62.430
14353,-0.3408,0.3071,-0.9102,0.488,0.854,0.061,161.779,19.446,-62.424
14363,-0.3418,0.3057,-0.9141,0.488,0.732,0.000,161.785,19.440,-62.424
14373,-0.3398,0.3052,-0.9141,0.427,0.610,-0.122,161.785,19.435,-62.419
14383,-0.3389,0.3037,-0.9106,0.305,0.427,-0.244,161.785,19.435,-62.419
14393,-0.3379,0.3032,-0.9116,0.061,0.305,-0.366,161.785,19.429,-62.413
14403,-0.3384,0.3042,-0.9141,-0.183,0.305,-0.427,161.785,19.429,-62.408
14413,-0.3389,0.3027,-0.9126,-0.061,0.549,-0.366,161.785,19.424,-62.402
14423,-0.3389,0.2998,-0.9116,0.122,0.610,-0.366,161.790,19.418,-62.397
14433,-0.3384,0.3013,-0.9097,0.122,0.549,-0.427,161.790,19.418,-62.391
14443,-0.3413,0.2983,-0.9106,0.061,0.305,-0.427,161.796,19.418,-62.386
14453,-0.3428,0.2993,-0.9106,-0.061,0.183,-0.305,161.796,19.418,-62.380
14463,-0.3413,0.2988,-0.9082,-0.061,0.244,-0.305,161.796,19.418,-62.375
14473,-0.3394,0.2969,-0.9077,-0.122,0.183,-0.305,161.796,19.418,-62.375
14483,-0.3403,0.2983,-0.9072,-0.244,0.244,-0.244,161.796,19.418,-62.369
14493,-0.3384,0.2988,-0.9087,-0.366,0.549,-0.122,161.790,19.418,-62.369
14503,-0.3384,0.2998,-0.9082,-0.244,1.099,-0.061,161.790,19.407,-62.364
14513,-0.3389,0.3013,-0.9126,0.061,1.526,0.061,161.790,19.391,-62.358
14523,-0.3354,0.3018,-0.9165,0.366,1.587,0.061,161.796,19.374,-62.353
14533,-0.3345,0.3008,-0.9209,0.549,1.343,0.122,161.801,19.358,-62.353
14543,-0.3359,0.3003,-0.9253,0.427,0.793,0.183,161.812,19.347,-62.347
14553,-0.3369,0.3013,-0.9268,0.305,0.305,0.244,161.812,19.341,-62.353
14563,-0.3389,0.3022,-0.9224,0.122,0.061,0.244,161.818,19.341,-62.353
14573,-0.3418,0.3013,-0.9180,-0.122,-0.183,0.183,161.812,19.341,-62.358
14583,-0.3408,0.3037,-0.9170,-0.244,-0.488,0.061,161.807,19.347,-62.358
14593,-0.3408,0.3032,-0.9160,-0.183,-0.793,0.000,161.807,19.358,-62.358
14603,-0.3394,0.3022,-0.9116,0.000,-0.916,-0.061,161.801,19.363,-62.364
14613,-0.3413,0.2979,-0.9077,0.061,-0.977,-0.122,161.801,19.380,-62.364
14623,-0.3418,0.2979,-0.9038,-0.061,-1.038,-0.183,161.801,19.391,-62.369
14633,-0.3408,0.2974,-0.8999,-0.305,-1.099,-0.122,161.796,19.407,-62.369
14643,-0.3403,0.3013,-0.9004,-0.610,-0.671,-0.061,161.785,19.418,-62.369
14653,-0.3403,0.3052,-0.9063,-0.488,0.122,0.000,161.779,19.418,-62.369
14663,-0.3408,0.3037,-0.9092,0.183,1.038,0.061,161.779,19.407,-62.369
14673,-0.3394,0.3022,-0.9111,0.671,1.526,0.000,161.785,19.396,-62.364
14683,-0.3384,0.3018,-0.9136,0.732,1.343,-0.061,161.796,19.385,-62.358
14693,-0.3369,0.2993,-0.9165,0.244,0.610,-0.122,161.801,19.374,-62.353
14703,-0.3389,0.3003,-0.9155,-0.488,-0.061,-0.122,161.796,19.374,-62.353
14713,-0.3389,0.3071,-0.9175,-0.977,-0.366,-0.183,161.785,19.380,-62.353
14723,-0.3384,0.3096,-0.9199,-0.793,-0.061,-0.244,161.774,19.380,-62.353
14733,-0.3379,0.3081,-0.9199,-0.244,0.305,-0.366,161.768,19.374,-62.347
14743,-0.3379,0.3057,-0.9204,0.427,0.366,-0.488,161.774,19.374,-62.342
14753,-0.3384,0.3027,-0.9204,0.549,0.000,-0.549,161.779,19.374,-62.336
14764,-0.3364,0.3003,-0.9209,0.183,-0.610,-0.549,161.785,19.380,-62.331
14773,-0.3389,0.2974,-0.9146,-0.366,-1.160,-0.488,161.785,19.391,-62.331
14783,-0.3408,0.2988,-0.9092,-0.732,-1.465,-0.427,161.774,19.407,-62.331
14793,-0.3408,0.2993,-0.9097,-0.549,-1.343,-0.427,161.768,19.424,-62.331
14803,-0.3418,0.2969,-0.9058,-0.122,-0.916,-0.366,161.768,19.435,-62.331
14813,-0.3413,0.2959,-0.9048,0.061,-0.549,-0.305,161.774,19.446,-62.331
14823,-0.3433,0.2964,-0.9048,0.000,-0.305,-0.122,161.774,19.451,-62.325
14833,-0.3437,0.2964,-0.9063,-0.183,0.000,0.061,161.774,19.457,-62.331
14843,-0.3428,0.2944,-0.9067,-0.305,0.183,0.122,161.774,19.457,-62.331
14853,-0.3428,0.2974,-0.9072,-0.305,0.122,0.183,161.768,19.457,-62.331
14863,-0.3418,0.3008,-0.9106,-0.244,0.000,0.305,161.763,19.462,-62.336
14873,-0.3403,0.3008,-0.9136,-0.183,0.122,0.488,161.763,19.457,-62.336
14883,-0.3403,0.3013,-0.9146,0.000,0.244,0.488,161.763,19.451,-62.342
14893,-0.3398,0.3008,-0.9150,-0.061,0.183,0.366,161.757,19.451,-62.347
14903,-0.3379,0.3022,-0.9160,-0.183,0.000,0.427,161.757,19.446,-62.347
14913,-0.3398,0.3062,-0.9165,-0.244,-0.183,0.427,161.752,19.446,-62.353
14923,-0.3413,0.3062,-0.9160,0.000,-0.366,0.488,161.746,19.451,-62.358
14933,-0.3418,0.3057,-0.9170,0.183,-0.610,0.366,161.741,19.457,-62.364
14943,-0.3423,0.3071,-0.9155,0.183,-1.099,0.305,161.741,19.462,-62.375
14953,-0.3423,0.3076,-0.9131,0.061,-1.404,0.244,161.735,19.479,-62.380
14963,-0.3428,0.3052,-0.9082,-0.244,-1.465,0.122,161.724,19.495,-62.386
14973,-0.3428,0.3037,-0.9004,-0.671,-1.282,0.000,161.713,19.512,-62.391
14983,-0.3418,0.3052,-0.8989,-0.854,-0.977,-0.183,161.702,19.523,-62.391
14993,-0.3433,0.3047,-0.9009,-0.732,-0.488,-0.183,161.691,19.528,-62.391
15003,-0.3452,0.3022,-0.9004,-0.366,0.000,-0.061,161.686,19.534,-62.391
15013,-0.3452,0.3013,-0.9004,0.000,0.427,0.000,161.680,19.534,-62.391
15023,-0.3452,0.3018,-0.9067,0.183,0.732,0.000,161.686,19.534,-62.386
15033,-0.3433,0.3022,-0.9092,0.244,0.793,0.061,161.686,19.528,-62.386
15043,-0.3408,0.3057,-0.9111,0.122,0.854,0.061,161.686,19.517,-62.386
15053,-0.3418,0.3081,-0.9136,0.000,0.854,0.061,161.686,19.512,-62.380
15063,-0.3398,0.3091,-0.9165,0.061,0.854,-0.061,161.680,19.501,-62.375
15073,-0.3428,0.3096,-0.9209,0.183,0.732,-0.183,161.686,19.495,-62.375
15083,-0.3389,0.3086,-0.9224,0.305,0.488,-0.244,161.686,19.484,-62.369
15093,-0.3369,0.3047,-0.9214,0.366,0.244,-0.427,161.691,19.484,-62.369
15103,-0.3364,0.3052,-0.9185,0.122,-0.122,-0.488,161.691,19.484,-62.369
15113,-0.3394,0.3062,-0.9150,-0.122,-0.549,-0.549,161.691,19.490,-62.369
15123,-0.3394,0.3052,-0.9146,-0.244,-0.793,-0.549,161.686,19.495,-62.369
15133,-0.3403,0.3042,-0.9106,-0.183,-0.854,-0.610,161.686,19.506,-62.369
15143,-0.3408,0.3003,-0.9082,0.000,-0.793,-0.610,161.686,19.517,-62.369
15153,-0.3433,0.2979,-0.9087,0.000,-0.549,-0.610,161.691,19.528,-62.369
15163,-0.3408,0.2964,-0.9102,-0.183,-0.244,-0.549,161.691,19.534,-62.369
15173,-0.3442,0.2969,-0.9121,-0.305,-0.061,-0.427,161.691,19.534,-62.369
15183,-0.3437,0.2979,-0.9092,-0.183,0.061,-0.305,161.697,19.539,-62.369
15193,-0.3433,0.2959,-0.9077,0.122,-0.122,-0.122,161.697,19.539,-62.369
15203,-0.3423,0.2969,-0.9077,0.366,-0.427,0.061,161.702,19.545,-62.369
15213,-0.3447,0.2964,-0.9092,0.427,-0.488,0.305,161.708,19.556,-62.369
15223,-0.3442,0.2969,-0.9072,0.244,-0.244,0.427,161.713,19.556,-62.369
15233,-0.3467,0.2959,-0.9053,-0.061,0.244,0.488,161.713,19.556,-62.369
15243,-0.3457,0.3013,-0.9053,-0.244,0.427,0.549,161.708,19.556,-62.369
15253,-0.3447,0.3042,-0.9072,-0.122,0.488,0.549,161.702,19.550,-62.369
15264,-0.3442,0.3076,-0.9097,0.244,0.427,0.549,161.697,19.550,-62.369
15273,-0.3423,0.3066,-0.9097,0.671,0.305,0.549,161.702,19.545,-62.369
15283,-0.3423,0.3066,-0.9087,0.671,0.061,0.488,161.702,19.545,-62.369
15293,-0.3413,0.3091,-0.9097,0.366,-0.122,0.366,161.697,19.545,-62.369
15303,-0.3408,0.3125,-0.9150,0.000,-0.061,0.244,161.691,19.545,-62.369
15313,-0.3433,0.3125,-0.9131,-0.061,0.244,0.061,161.686,19.539,-62.369
15323,-0.3437,0.3105,-0.9111,0.122,0.549,-0.122,161.686,19.534,-62.369
15333,-0.3428,0.3096,-0.9136,0.061,0.427,-0.305,161.680,19.534,-62.369
15343,-0.3423,0.3076,-0.9165,0.061,0.183,-0.366,161.680,19.534,-62.369
15353,-0.3423,0.3071,-0.9126,0.000,-0.061,-0.488,161.680,19.534,-62.369
15363,-0.3428,0.3042,-0.9102,-0.122,-0.244,-0.671,161.680,19.539,-62.369
15373,-0.3442,0.3052,-0.9102,-0.183,-0.427,-0.732,161.675,19.550,-62.369
15383,-0.3462,0.3062,-0.9067,-0.122,-0.488,-0.732,161.675,19.561,-62.369
15393,-0.3452,0.3042,-0.9077,0.122,-0.305,-0.671,161.675,19.567,-62.369
15403,-0.3437,0.3013,-0.9077,0.549,0.061,-0.610,161.680,19.572,-62.369
15413,-0.3437,0.2988,-0.9072,0.610,0.305,-0.732,161.691,19.572,-62.369
15423,-0.3428,0.2974,-0.9082,0.305,0.305,-0.671,161.697,19.572,-62.369
15433,-0.3433,0.2979,-0.9106,0.122,0.305,-0.549,161.702,19.572,-62.369
15443,-0.3423,0.2988,-0.9111,0.122,0.366,-0.305,161.708,19.572,-62.369
15453,-0.3413,0.2959,-0.9097,0.305,0.427,-0.244,161.713,19.567,-62.369
15463,-0.3418,0.2954,-0.9087,0.305,0.305,-0.183,161.724,19.567,-62.369
15473,-0.3403,0.2993,-0.9111,0.061,0.183,-0.061,161.724,19.567,-62.369
15483,-0.3413,0.2998,-0.9189,0.000,0.488,0.183,161.724,19.561,-62.369
15493,-0.3403,0.3008,-0.9160,0.122,0.671,0.244,161.730,19.550,-62.369
15503,-0.3398,0.2993,-0.9185,0.244,0.671,0.244,161.735,19.545,-62.369
15513,-0.3398,0.3022,-0.9224,0.305,0.061,0.183,161.735,19.539,-62.369
15523,-0.3389,0.3008,-0.9219,0.122,-0.549,0.244,161.741,19.539,-62.369
15533,-0.3408,0.2998,-0.9199,-0.305,-0.977,0.244,161.735,19.545,-62.369
15543,-0.3423,0.2993,-0.9146,-0.671,-1.282,0.244,161.730,19.561,-62.369
15553,-0.3418,0.2983,-0.9106,-0.916,-1.526,0.244,161.719,19.572,-62.369
15563,-0.3403,0.3022,-0.9092,-0.854,-1.343,0.305,161.708,19.583,-62.369
15573,-0.3437,0.3027,-0.9067,-0.366,-0.916,0.488,161.697,19.594,-62.369
15583,-0.3452,0.3022,-0.9028,0.244,-0.549,0.610,161.697,19.600,-62.369
15593,-0.3442,0.2988,-0.9014,0.488,-0.366,0.610,161.697,19.605,-62.369
15603,-0.3447,0.3008,-0.9023,0.244,-0.488,0.610,161.697,19.611,-62.369
15613,-0.3457,0.3052,-0.9043,0.000,-0.366,0.671,161.691,19.616,-62.369
15623,-0.3447,0.3081,-0.9077,0.061,0.061,0.610,161.686,19.616,-62.369
15633,-0.3437,0.3086,-0.9072,0.122,0.305,0.427,161.680,19.611,-62.369
15643,-0.3452,0.3071,-0.9087,0.183,0.244,0.305,161.675,19.611,-62.369
15653,-0.3462,0.3101,-0.9102,0.000,0.000,0.244,161.669,19.611,-62.369
15663,-0.3428,0.3105,-0.9111,-0.061,-0.061,0.183,161.664,19.611,-62.369
15673,-0.3437,0.3110,-0.9102,-0.061,0.000,0.000,161.658,19.611,-62.369
15683,-0.3472,0.3096,-0.9126,0.000,0.000,-0.305,161.658,19.616,-62.369
15693,-0.3452,0.3101,-0.9106,0.061,-0.061,-0.427,161.653,19.616,-62.369
15703,-0.3447,0.3105,-0.9106,0.061,-0.244,-0.488,161.653,19.622,-62.369
15713,-0.3452,0.3086,-0.9106,0.122,-0.366,-0.549,161.647,19.627,-62.369
15723,-0.3437,0.3052,-0.9087,0.183,-0.427,-0.610,161.653,19.638,-62.369
15733,-0.3442,0.3042,-0.9063,0.183,-0.366,-0.671,161.653,19.644,-62.369
15743,-0.3452,0.3003,-0.9072,0.183,-0.244,-0.671,161.658,19.649,-62.369
15754,-0.3457,0.2988,-0.9072,0.000,-0.122,-0.732,161.658,19.655,-62.369
15764,-0.3447,0.2998,-0.9063,-0.122,0.000,-0.671,161.658,19.660,-62.369
15774,-0.3477,0.2983,-0.9097,-0.183,0.061,-0.610,161.664,19.666,-62.369
15784,-0.3477,0.2998,-0.9092,-0.183,0.061,-0.488,161.664,19.671,-62.369
15794,-0.3437,0.2993,-0.9082,0.000,0.122,-0.305,161.664,19.671,-62.369
15804,-0.3423,0.2988,-0.9087,0.244,0.061,-0.183,161.669,19.671,-62.369
15814,-0.3423,0.2974,-0.9097,0.244,0.000,-0.183,161.675,19.671,-62.369
15824,-0.3413,0.2974,-0.9131,0.061,0.061,-0.122,161.680,19.671,-62.369
15833,-0.3418,0.2974,-0.9141,-0.122,0.305,0.000,161.680,19.666,-62.369
15844,-0.3418,0.2979,-0.9146,-0.305,0.427,0.061,161.680,19.660,-62.369
15854,-0.3398,0.2998,-0.9175,-0.427,0.305,0.061,161.680,19.655,-62.369
15864,-0.3428,0.3022,-0.9180,-0.366,-0.061,0.061,161.675,19.655,-62.369
15874,-0.3408,0.3022,-0.9170,-0.061,-0.488,0.183,161.675,19.655,-62.369
15884,-0.3408,0.3013,-0.9155,0.244,-0.854,0.305,161.675,19.660,-62.369
15894,-0.3428,0.2998,-0.9097,0.366,-1.099,0.366,161.680,19.671,-62.369
15904,-0.3457,0.2988,-0.9053,0.061,-1.282,0.366,161.680,19.682,-62.369
15914,-0.3486,0.3003,-0.9033,-0.244,-1.221,0.366,161.669,19.698,-62.369
15924,-0.3501,0.3013,-0.8994,-0.488,-1.038,0.427,161.664,19.715,-62.369
15934,-0.3501,0.3037,-0.8970,-0.549,-0.671,0.305,161.653,19.726,-62.369
15944,-0.3501,0.3057,-0.8975,-0.366,-0.366,0.244,161.642,19.731,-62.369
15954,-0.3477,0.3047,-0.8975,-0.183,-0.061,0.183,161.636,19.737,-62.369
15964,-0.3457,0.3052,-0.9028,0.000,0.305,0.305,161.631,19.737,-62.369
15974,-0.3467,0.3096,-0.9063,0.183,0.793,0.366,161.631,19.726,-62.369
15984,-0.3442,0.3110,-0.9097,0.427,1.221,0.305,161.625,19.715,-62.369
15994,-0.3433,0.3101,-0.9155,0.549,1.404,0.244,161.631,19.698,-62.369
16004,-0.3423,0.3115,-0.9199,0.488,1.282,0.000,161.631,19.682,-62.369
16014,-0.3418,0.3115,-0.9209,0.244,0.793,-0.183,161.636,19.677,-62.369
16023,-0.3428,0.3125,-0.9224,-0.061,0.305,-0.488,161.631,19.671,-62.369
16033,-0.3437,0.3096,-0.9189,-0.305,-0.244,-0.732,161.631,19.671,-62.369
16043,-0.3423,0.3091,-0.9189,-0.427,-0.671,-0.854,161.625,19.682,-62.369
16054,-0.3428,0.3066,-0.9116,-0.366,-0.977,-0.916,161.620,19.693,-62.369
16064,-0.3457,0.3047,-0.9097,-0.122,-1.038,-0.977,161.620,19.704,-62.369
16074,-0.3481,0.3018,-0.9063,-0.061,-0.977,-0.977,161.620,19.720,-62.369
16084,-0.3467,0.2964,-0.9014,-0.061,-0.793,-0.916,161.625,19.737,-62.369
16094,-0.3457,0.2939,-0.9019,-0.366,-0.366,-0.793,161.625,19.742,-62.369
16104,-0.3467,0.2939,-0.9048,-0.549,0.122,-0.671,161.625,19.748,-62.369
16114,-0.3472,0.2949,-0.9048,-0.427,0.488,-0.427,161.625,19.748,-62.369
16124,-0.3452,0.2944,-0.9063,-0.122,0.610,-0.122,161.631,19.742,-62.369
16134,-0.3472,0.2979,-0.9072,0.427,0.610,0.122,161.636,19.742,-62.369
16144,-0.3457,0.2993,-0.9111,0.854,0.610,0.305,161.647,19.731,-62.369
16154,-0.3457,0.2993,-0.9165,0.732,0.549,0.366,161.658,19.726,-62.369
16164,-0.3457,0.3008,-0.9155,0.305,0.427,0.427,161.658,19.720,-62.369
16174,-0.3437,0.3037,-0.9180,-0.183,0.244,0.366,161.658,19.715,-62.369
16184,-0.3413,0.3008,-0.9160,-0.610,0.000,0.244,161.653,19.715,-62.369
16194,-0.3437,0.3032,-0.9131,-0.793,-0.366,0.183,161.642,19.715,-62.369
16204,-0.3433,0.3027,-0.9141,-0.793,-0.671,0.183,161.636,19.720,-62.369
16214,-0.3457,0.3066,-0.9097,-0.488,-0.732,0.244,161.625,19.726,-62.369
16224,-0.3477,0.3037,-0.9063,-0.244,-0.732,0.305,161.620,19.737,-62.369
16234,-0.3467,0.3047,-0.9053,-0.183,-0.671,0.366,161.614,19.742,-62.369
16244,-0.3481,0.3071,-0.9053,-0.122,-0.488,0.366,161.609,19.748,-62.369
16254,-0.3491,0.3062,-0.9019,0.122,-0.305,0.427,161.603,19.753,-62.369
16264,-0.3501,0.3042,-0.9023,0.305,-0.122,0.366,161.603,19.759,-62.369
16274,-0.3491,0.3062,-0.9028,0.305,-0.183,0.244,161.603,19.764,-62.369
16284,-0.3486,0.3086,-0.9033,0.244,-0.183,0.183,161.598,19.770,-62.369
16294,-0.3486,0.3115,-0.9048,0.305,0.183,0.244,161.592,19.770,-62.369
16304,-0.3486,0.3091,-0.9043,0.488,0.671,0.122,161.592,19.764,-62.369
16314,-0.3457,0.3096,-0.9072,0.610,0.916,-0.061,161.598,19.759,-62.369
16324,-0.3472,0.3091,-0.9082,0.549,0.854,-0.183,161.603,19.753,-62.369
16334,-0.3472,0.3091,-0.9097,0.427,0.732,-0.244,161.603,19.748,-62.369
16344,-0.3452,0.3057,-0.9111,0.305,0.610,-0.366,161.609,19.742,-62.369
16354,-0.3447,0.3081,-0.9141,0.122,0.549,-0.549,161.609,19.737,-62.369
16364,-0.3452,0.3052,-0.9141,0.061,0.427,-0.671,161.609,19.737,-62.369
16374,-0.3457,0.3027,-0.9141,0.122,0.183,-0.732,161.614,19.737,-62.369
16384,-0.3418,0.3022,-0.9160,0.122,-0.061,-0.671,161.620,19.737,-62.369
16394,-0.3418,0.3018,-0.9102,0.122,-0.244,-0.610,161.625,19.742,-62.369
16404,-0.3428,0.3013,-0.9097,0.122,-0.305,-0.610,161.625,19.742,-62.369
16414,-0.3418,0.2964,-0.9082,0.244,-0.183,-0.427,161.631,19.748,-62.369
16424,-0.3433,0.2949,-0.9082,0.244,-0.061,-0.305,161.642,19.748,-62.369
16434,-0.3462,0.2944,-0.9072,0.122,0.061,-0.244,161.647,19.748,-62.369
16444,-0.3447,0.2969,-0.9106,0.000,0.183,-0.122,161.647,19.748,-62.369
16454,-0.3467,0.2964,-0.9067,-0.061,0.366,0.061,161.653,19.748,-62.369
16464,-0.3477,0.2988,-0.9097,-0.061,0.305,0.244,161.653,19.748,-62.369
16474,-0.3457,0.3027,-0.9087,0.122,0.305,0.366,161.653,19.742,-62.369
16484,-0.3442,0.3013,-0.9087,0.427,0.183,0.427,161.653,19.742,-62.369
16494,-0.3428,0.3062,-0.9111,0.366,0.183,0.427,161.653,19.737,-62.369
16504,-0.3433,0.3066,-0.9131,0.244,0.244,0.427,161.653,19.731,-62.369
16514,-0.3442,0.3076,-0.9131,0.183,0.610,0.427,161.653,19.726,-62.369
16524,-0.3428,0.3062,-0.9160,0.061,0.671,0.305,161.653,19.715,-62.369
16534,-0.3442,0.3066,-0.9150,0.000,0.366,0.183,161.647,19.709,-62.369
16544,-0.3467,0.3076,-0.9146,-0.061,-0.061,0.061,161.647,19.709,-62.369
16554,-0.3452,0.3042,-0.9106,-0.061,-0.549,0.061,161.642,19.715,-62.369
16564,-0.3452,0.3018,-0.9082,-0.122,-0.916,0.061,161.642,19.726,-62.369
16574,-0.3496,0.2988,-0.9019,-0.244,-1.160,0.000,161.636,19.742,-62.369
16584,-0.3516,0.2998,-0.9009,-0.427,-0.977,0.061,161.631,19.759,-62.369
16594,-0.3501,0.3022,-0.8994,-0.488,-0.244,0.183,161.625,19.764,-62.369
16604,-0.3501,0.3022,-0.8975,-0.061,0.549,0.244,161.620,19.764,-62.369
16614,-0.3491,0.3022,-0.8994,0.305,1.038,0.244,161.620,19.759,-62.369
16624,-0.3462,0.3027,-0.9043,0.427,0.977,0.244,161.625,19.748,-62.369
16634,-0.3467,0.3062,-0.9097,0.305,0.793,0.305,161.625,19.742,-62.369
16644,-0.3447,0.3086,-0.9121,0.244,0.916,0.366,161.625,19.731,-62.369
16654,-0.3413,0.3096,-0.9175,0.244,1.160,0.183,161.625,19.715,-62.369
16664,-0.3423,0.3115,-0.9150,0.183,1.038,-0.061,161.625,19.704,-62.369
16674,-0.3433,0.3091,-0.9194,0.183,0.732,-0.244,161.625,19.698,-62.369
16684,-0.3428,0.3096,-0.9199,-0.122,0.183,-0.305,161.620,19.693,-62.369
16694,-0.3447,0.3101,-0.9180,-0.305,-0.244,-0.427,161.620,19.698,-62.369
16704,-0.3442,0.3091,-0.9155,-0.427,-0.549,-0.610,161.614,19.704,-62.369
16714,-0.3452,0.3076,-0.9092,-0.366,-0.610,-0.732,161.609,19.709,-62.369
16724,-0.3457,0.3047,-0.9058,-0.244,-0.610,-0.854,161.603,19.720,-62.369
