elapsed_ms,acc_x_g,acc_y_g,acc_z_g,gyro_x_dps,gyro_y_dps,gyro_z_dps,angle_x_deg,angle_y_deg,angle_z_deg
0,-0.6992,-0.3340,-0.6128,3.113,-3.113,0.061,-152.375,45.104,-110.067
10,-0.7168,-0.3022,-0.6133,1.160,-2.930,0.793,-152.369,45.148,-110.056
20,-0.7422,-0.2583,-0.6191,1.282,-2.136,1.648,-152.413,45.203,-110.067
30,-0.7583,-0.2266,-0.6309,5.066,-0.793,1.953,-152.457,45.253,-110.083
40,-0.7617,-0.2363,-0.6450,11.475,0.732,0.671,-152.424,45.275,-110.099
50,-0.7500,-0.3262,-0.6509,15.686,1.770,-2.747,-152.265,45.253,-110.072
60,-0.7158,-0.4507,-0.6440,11.597,1.648,-7.019,-152.023,45.176,-109.995
70,-0.6904,-0.5063,-0.6367,-5.493,-0.488,-8.545,-151.891,45.093,-109.885
80,-0.6855,-0.4512,-0.6338,-26.489,-3.540,-4.944,-152.023,45.066,-109.803
90,-0.7124,-0.3032,-0.6348,-38.818,-6.714,2.991,-152.424,45.137,-109.792
100,-0.7710,-0.1289,-0.6313,-33.691,-9.155,10.193,-152.968,45.319,-109.863
110,-0.8223,-0.0044,-0.6289,-9.094,-10.681,12.146,-153.386,45.538,-109.946
120,-0.8364,-0.0405,-0.6284,25.513,-10.620,6.714,-153.375,45.736,-109.962
130,-0.8066,-0.2607,-0.6089,54.688,-8.301,-5.981,-152.776,45.835,-109.836
140,-0.7485,-0.4629,-0.5757,63.049,-6.042,-20.752,-151.820,45.786,-109.528
150,-0.6899,-0.6040,-0.5527,45.654,-5.188,-28.503,-150.892,45.643,-109.133
160,-0.6582,-0.6431,-0.5278,15.320,-3.662,-25.757,-150.276,45.478,-108.787
170,-0.6602,-0.5371,-0.5342,-14.832,-1.831,-13.611,-150.145,45.385,-108.605
180,-0.6919,-0.3472,-0.5469,-31.067,-0.122,3.235,-150.452,45.417,-108.644
190,-0.7520,-0.1509,-0.5723,-26.184,2.136,17.090,-151.018,45.544,-108.869
200,-0.7939,-0.0625,-0.6055,-2.747,5.249,21.973,-151.496,45.676,-109.182
210,-0.7988,-0.1523,-0.6172,27.344,9.460,15.686,-151.556,45.725,-109.446
220,-0.7632,-0.3013,-0.6128,48.828,12.512,0.916,-151.166,45.643,-109.539
230,-0.6997,-0.4600,-0.5918,53.650,13.000,-14.526,-150.480,45.434,-109.451
240,-0.6475,-0.5884,-0.5610,38.574,11.902,-23.010,-149.788,45.154,-109.248
250,-0.6274,-0.5234,-0.5557,12.390,9.216,-21.179,-149.398,44.912,-109.056
260,-0.6494,-0.3906,-0.5640,-7.751,6.287,-9.583,-149.381,44.797,-108.984
270,-0.6963,-0.2324,-0.5708,-11.230,5.371,4.456,-149.645,44.808,-109.072
280,-0.7529,-0.1128,-0.5918,1.160,4.944,12.085,-149.952,44.890,-109.259
290,-0.7715,-0.1772,-0.6069,22.278,4.883,9.949,-149.980,44.956,-109.413
300,-0.7461,-0.3433,-0.5967,37.964,5.066,-2.502,-149.612,44.923,-109.418
310,-0.6899,-0.5063,-0.5811,36.133,2.991,-19.043,-148.997,44.775,-109.210
320,-0.6475,-0.5771,-0.5615,17.639,-0.854,-29.724,-148.420,44.572,-108.842
330,-0.6431,-0.5259,-0.5527,-4.517,-3.906,-30.090,-148.074,44.401,-108.452
340,-0.6602,-0.4219,-0.5615,-19.226,-2.563,-21.729,-148.024,44.297,-108.177
350,-0.7002,-0.2915,-0.5801,-19.714,0.732,-9.094,-148.200,44.275,-108.073
360,-0.7339,-0.2520,-0.6006,-6.653,4.822,0.305,-148.387,44.275,-108.111
370,-0.7388,-0.2754,-0.6187,10.132,7.751,1.038,-148.409,44.247,-108.182
380,-0.7153,-0.3755,-0.6196,24.841,7.568,-5.981,-148.156,44.160,-108.166
390,-0.6689,-0.5352,-0.6040,29.724,6.104,-15.991,-147.662,43.978,-108.023
400,-0.6304,-0.6270,-0.5845,18.250,2.869,-22.888,-147.167,43.753,-107.776
410,-0.6357,-0.5469,-0.5845,-0.671,-0.549,-21.851,-146.893,43.588,-107.518
420,-0.6650,-0.4771,-0.5874,-14.038,-0.427,-12.512,-146.871,43.500,-107.369
430,-0.7080,-0.3447,-0.6011,-17.395,2.563,-0.854,-147.085,43.500,-107.380
441,-0.7480,-0.2129,-0.6206,-8.179,6.104,6.775,-147.387,43.539,-107.501
450,-0.7690,-0.1821,-0.6382,10.864,10.132,8.667,-147.568,43.555,-107.677
460,-0.7554,-0.2739,-0.6411,31.921,13.245,2.197,-147.431,43.495,-107.803
470,-0.7104,-0.4478,-0.6284,43.030,13.672,-10.559,-146.959,43.314,-107.781
480,-0.6592,-0.5811,-0.6099,34.912,10.193,-22.461,-146.382,43.055,-107.600
490,-0.6274,-0.6230,-0.6050,12.756,4.150,-27.344,-145.948,42.803,-107.320
500,-0.6650,-0.4565,-0.6108,-24.841,-2.197,-12.451,-146.058,42.731,-107.161
510,-0.7080,-0.3184,-0.6274,-24.109,-1.831,-0.061,-146.360,42.770,-107.144
520,-0.7397,-0.2305,-0.6382,-9.949,-0.122,7.385,-146.651,42.858,-107.227
530,-0.7520,-0.2119,-0.6499,11.536,1.099,6.592,-146.744,42.935,-107.314
540,-0.7266,-0.3843,-0.6343,32.410,1.587,-2.441,-146.437,42.924,-107.298
550,-0.6709,-0.5669,-0.5947,36.011,-0.183,-15.869,-145.854,42.803,-107.117
560,-0.6304,-0.6401,-0.5781,17.517,-5.493,-24.048,-145.333,42.649,-106.804
570,-0.6250,-0.6294,-0.5591,-7.935,-8.545,-22.217,-145.063,42.534,-106.485
580,-0.6558,-0.4751,-0.5615,-28.503,-8.545,-12.024,-145.157,42.523,-106.287
590,-0.7104,-0.2944,-0.5781,-32.959,-5.615,2.625,-145.552,42.638,-106.271
600,-0.7529,-0.1660,-0.6016,-18.799,-1.343,13.550,-146.025,42.797,-106.414
610,-0.7739,-0.1807,-0.6265,5.249,1.465,14.954,-146.272,42.940,-106.595
620,-0.7437,-0.3579,-0.6143,27.161,2.441,4.761,-146.085,42.979,-106.666
630,-0.6875,-0.5112,-0.5879,32.410,-0.244,-12.817,-145.596,42.896,-106.518
640,-0.6460,-0.5781,-0.5742,19.409,-5.737,-25.574,-145.074,42.753,-106.188
650,-0.6284,-0.5908,-0.5537,1.770,-8.545,-27.832,-144.684,42.616,-105.809
660,-0.6392,-0.5088,-0.5601,-12.573,-7.385,-20.874,-144.542,42.534,-105.518
670,-0.6719,-0.3892,-0.5762,-15.869,-3.784,-8.057,-144.635,42.534,-105.403
680,-0.7080,-0.3223,-0.5991,-7.812,0.244,3.723,-144.811,42.589,-105.441
690,-0.7222,-0.3213,-0.6157,5.920,3.296,7.874,-144.904,42.643,-105.557
700,-0.7104,-0.3979,-0.6177,19.165,3.052,3.906,-144.783,42.654,-105.623
710,-0.6772,-0.4883,-0.5986,24.597,0.061,-5.920,-144.454,42.605,-105.557
720,-0.6460,-0.5234,-0.5732,17.700,-5.066,-14.404,-144.080,42.534,-105.359
730,-0.6426,-0.5137,-0.5591,6.592,-9.216,-15.991,-143.778,42.495,-105.112
740,-0.6543,-0.5142,-0.5435,-2.258,-9.583,-11.963,-143.591,42.490,-104.903
750,-0.6782,-0.4185,-0.5479,-8.057,-8.423,-5.554,-143.575,42.545,-104.777
760,-0.7070,-0.3652,-0.5566,-7.202,-6.714,0.427,-143.646,42.638,-104.727
770,-0.7231,-0.3530,-0.5640,-2.136,-4.211,2.258,-143.701,42.737,-104.716
780,-0.7241,-0.3628,-0.5786,4.272,-2.991,-1.221,-143.679,42.792,-104.678
790,-0.6997,-0.4556,-0.5776,10.437,-1.648,-8.118,-143.487,42.764,-104.579
800,-0.6597,-0.5537,-0.5835,10.315,-1.526,-15.808,-143.190,42.649,-104.392
810,-0.6260,-0.6416,-0.5767,2.747,-3.174,-19.165,-142.894,42.495,-104.156
820,-0.6274,-0.5923,-0.5786,-8.728,-5.432,-16.724,-142.745,42.385,-103.931
830,-0.6616,-0.4473,-0.5854,-14.282,-6.653,-7.874,-142.789,42.385,-103.793
840,-0.7129,-0.3340,-0.5903,-6.653,-4.883,3.418,-142.932,42.484,-103.788
850,-0.7520,-0.2554,-0.5913,11.292,-0.793,9.460,-143.020,42.616,-103.887
860,-0.7583,-0.2827,-0.5923,30.945,2.563,7.935,-142.899,42.709,-103.991
870,-0.7217,-0.4253,-0.5649,44.434,4.517,-0.793,-142.482,42.698,-104.019
880,-0.6709,-0.5894,-0.5332,40.039,2.075,-12.024,-141.905,42.583,-103.909
890,-0.6357,-0.6631,-0.5249,17.273,-3.540,-19.714,-141.438,42.435,-103.667
900,-0.6128,-0.7124,-0.5220,-10.498,-7.751,-19.897,-141.207,42.292,-103.392
910,-0.6226,-0.6230,-0.5366,-36.499,-9.399,-12.695,-141.323,42.237,-103.178
920,-0.6660,-0.4468,-0.5767,-50.476,-8.423,-0.549,-141.779,42.297,-103.101
930,-0.7114,-0.3232,-0.6133,-42.969,-3.845,10.681,-142.361,42.429,-103.184
941,-0.7393,-0.2607,-0.6318,-20.386,1.099,15.137,-142.828,42.561,-103.354
950,-0.7373,-0.3354,-0.6406,7.141,4.150,10.803,-142.954,42.621,-103.502
960,-0.6899,-0.5093,-0.6191,26.917,5.005,-0.916,-142.685,42.561,-103.535
970,-0.6294,-0.6333,-0.5884,27.405,1.282,-13.123,-142.229,42.407,-103.403
980,-0.6060,-0.6416,-0.5605,13.611,-4.395,-17.029,-141.839,42.264,-103.184
990,-0.6221,-0.5869,-0.5508,-1.526,-8.728,-10.620,-141.641,42.226,-102.997
1000,-0.6655,-0.4722,-0.5474,-10.254,-8.484,1.953,-141.685,42.308,-102.947
1010,-0.7183,-0.3384,-0.5508,-8.728,-6.042,13.794,-141.905,42.495,-103.046
1020,-0.7544,-0.2808,-0.5640,1.221,-2.136,19.287,-142.136,42.704,-103.233
1030,-0.7612,-0.2803,-0.5732,13.428,1.465,16.479,-142.245,42.869,-103.420
1040,-0.7363,-0.4214,-0.5703,23.071,3.967,6.104,-142.097,42.907,-103.519
1050,-0.6792,-0.5522,-0.5620,20.386,4.395,-8.728,-141.790,42.797,-103.464
1060,-0.6284,-0.6143,-0.5630,5.066,1.160,-18.860,-141.520,42.616,-103.271
1070,-0.6177,-0.5806,-0.5703,-12.268,-2.930,-18.982,-141.416,42.468,-103.046
1080,-0.6392,-0.4932,-0.5898,-21.545,-5.920,-10.071,-141.515,42.424,-102.887
1090,-0.6816,-0.3896,-0.6069,-18.066,-6.653,1.831,-141.724,42.495,-102.854
1100,-0.7217,-0.3315,-0.6216,-3.967,-6.592,9.521,-141.899,42.638,-102.898
1110,-0.7427,-0.3140,-0.6274,14.038,-7.263,9.766,-141.905,42.792,-102.942
1120,-0.7256,-0.4028,-0.6040,32.837,-8.911,2.441,-141.586,42.902,-102.892
1130,-0.6865,-0.5332,-0.5674,40.833,-11.108,-8.179,-141.015,42.918,-102.711
1140,-0.6514,-0.6143,-0.5366,31.128,-14.038,-15.381,-140.416,42.891,-102.426
1150,-0.6284,-0.6440,-0.5156,12.085,-15.808,-15.442,-139.977,42.858,-102.129
1160,-0.6382,-0.5859,-0.5098,-8.484,-16.235,-8.179,-139.818,42.896,-101.898
1170,-0.6812,-0.4653,-0.5254,-22.827,-15.442,3.479,-139.960,43.044,-101.799
1181,-0.7285,-0.3506,-0.5435,-22.888,-12.695,13.672,-140.284,43.281,-101.832
1190,-0.7607,-0.2773,-0.5615,-10.559,-9.094,17.334,-140.592,43.533,-101.937
1200,-0.7651,-0.2729,-0.5728,8.240,-5.798,13.672,-140.713,43.731,-102.030
1211,-0.7363,-0.4058,-0.5537,26.855,-3.601,2.869,-140.477,43.813,-102.030
1221,-0.6870,-0.5513,-0.5273,32.043,-4.028,-10.986,-139.988,43.753,-101.876
1231,-0.6392,-0.6553,-0.5024,20.386,-6.409,-19.226,-139.482,43.621,-101.613
1241,-0.6284,-0.5972,-0.4917,1.526,-9.155,-18.127,-139.180,43.528,-101.343
1250,-0.6548,-0.5415,-0.4971,-12.085,-9.338,-7.507,-139.125,43.533,-101.179
1261,-0.6860,-0.4897,-0.5181,-16.846,-6.165,4.822,-139.263,43.610,-101.173
1271,-0.7163,-0.3887,-0.5435,-13.245,-3.357,11.963,-139.510,43.748,-101.266
1281,-0.7412,-0.3359,-0.5659,-1.282,-1.587,14.343,-139.713,43.896,-101.404
1291,-0.7393,-0.4175,-0.5713,17.517,0.732,10.010,-139.658,43.978,-101.519
1301,-0.7100,-0.4971,-0.5596,31.250,0.732,-1.465,-139.329,43.962,-101.508
1311,-0.6733,-0.5996,-0.5347,33.203,-1.770,-11.353,-138.834,43.863,-101.371
1321,-0.6548,-0.6421,-0.5112,23.926,-5.188,-13.733,-138.362,43.759,-101.184
1331,-0.6650,-0.5796,-0.5010,10.925,-7.874,-8.301,-138.071,43.731,-101.025
1341,-0.6973,-0.4990,-0.5015,2.014,-7.629,3.296,-137.994,43.819,-100.986
1351,-0.7295,-0.4395,-0.5078,-0.183,-5.615,13.611,-138.071,43.989,-101.074
1361,-0.7446,-0.3652,-0.5127,1.465,-4.700,18.066,-138.219,44.198,-101.217
1371,-0.7598,-0.3267,-0.5234,6.836,-5.310,18.005,-138.345,44.423,-101.354
1381,-0.7563,-0.4302,-0.5146,14.709,-5.005,12.634,-138.274,44.588,-101.442
1391,-0.7168,-0.5610,-0.4966,14.282,-5.432,1.770,-138.043,44.626,-101.409
1401,-0.6904,-0.6221,-0.4951,0.671,-7.507,-7.019,-137.840,44.599,-101.266
1411,-0.6792,-0.6294,-0.5068,-15.991,-8.057,-9.766,-137.785,44.550,-101.091
1421,-0.6899,-0.5000,-0.5249,-27.893,-6.531,-5.676,-137.966,44.550,-100.970
1431,-0.7246,-0.3857,-0.5581,-25.635,-2.930,4.517,-138.307,44.626,-100.986
1441,-0.7490,-0.3315,-0.5718,-8.850,0.793,13.000,-138.609,44.747,-101.129
1451,-0.7656,-0.2827,-0.5786,12.573,1.221,14.648,-138.752,44.885,-101.299
1461,-0.7529,-0.3633,-0.5566,34.973,-0.671,10.010,-138.560,44.989,-101.398
1471,-0.7158,-0.5635,-0.5054,46.082,-4.456,1.282,-138.016,45.016,-101.371
1481,-0.6787,-0.6494,-0.4648,32.898,-10.376,-7.080,-137.444,45.000,-101.195
1491,-0.6562,-0.6768,-0.4478,6.287,-15.320,-9.033,-137.076,44.989,-100.959
1501,-0.6670,-0.6519,-0.4526,-20.996,-16.479,-2.686,-137.027,45.044,-100.772
1511,-0.6948,-0.5469,-0.4824,-42.053,-13.672,7.080,-137.346,45.176,-100.712
1521,-0.7324,-0.4126,-0.5308,-46.997,-8.118,15.198,-137.917,45.357,-100.794
1531,-0.7593,-0.3394,-0.5674,-34.851,-1.526,19.226,-138.510,45.533,-100.981
1541,-0.7622,-0.3130,-0.5913,-12.756,3.845,16.663,-138.922,45.648,-101.195
1551,-0.7451,-0.3105,-0.5913,13.245,6.348,7.812,-139.026,45.676,-101.338
1561,-0.7041,-0.4302,-0.5645,34.973,5.493,-2.197,-138.735,45.610,-101.365
1571,-0.6694,-0.5693,-0.5078,41.321,-0.366,-8.728,-138.186,45.516,-101.272
1581,-0.6670,-0.5884,-0.4858,28.687,-8.423,-9.033,-137.692,45.472,-101.091
1591,-0.6812,-0.5947,-0.4736,10.864,-12.207,-2.197,-137.395,45.511,-100.953
1601,-0.7109,-0.5137,-0.4775,-6.958,-11.353,7.019,-137.395,45.643,-100.915
1611,-0.7500,-0.4316,-0.5137,-17.029,-8.118,14.526,-137.642,45.824,-100.992
1621,-0.7651,-0.3779,-0.5425,-14.709,-3.418,15.808,-137.955,45.989,-101.124
1631,-0.7681,-0.2998,-0.5664,-4.089,-1.282,11.292,-138.214,46.115,-101.234
1641,-0.7607,-0.3389,-0.5684,14.099,-1.526,4.395,-138.208,46.181,-101.266
1651,-0.7339,-0.4365,-0.5391,30.457,-3.906,-4.822,-137.873,46.181,-101.179
1661,-0.6997,-0.5674,-0.5063,34.485,-8.606,-11.719,-137.318,46.132,-100.970
1671,-0.6836,-0.6729,-0.4702,23.010,-13.611,-12.634,-136.780,46.082,-100.701
1681,-0.6782,-0.6401,-0.4536,2.075,-17.761,-7.935,-136.456,46.104,-100.443
1691,-0.7119,-0.5259,-0.4604,-16.174,-18.921,3.601,-136.456,46.258,-100.294
1701,-0.7515,-0.3926,-0.4746,-21.545,-15.564,15.442,-136.714,46.522,-100.300
1711,-0.7905,-0.3013,-0.5000,-13.062,-10.376,21.118,-137.054,46.813,-100.421
1721,-0.8057,-0.2935,-0.5200,3.540,-5.066,17.883,-137.258,47.032,-100.558
1731,-0.7876,-0.3232,-0.5322,22.949,-1.526,5.432,-137.175,47.131,-100.602
1741,-0.7456,-0.4512,-0.5024,39.551,0.000,-9.705,-136.714,47.071,-100.497
1751,-0.6948,-0.5918,-0.4585,39.978,-1.831,-19.287,-136.066,46.912,-100.272
1761,-0.6704,-0.6270,-0.4395,22.705,-7.141,-18.738,-135.538,46.774,-100.003
1771,-0.6719,-0.6396,-0.4248,1.099,-11.597,-9.888,-135.247,46.736,-99.783
1781,-0.7002,-0.5605,-0.4385,-18.982,-13.855,2.014,-135.275,46.824,-99.662
1791,-0.7427,-0.4507,-0.4712,-28.687,-13.306,11.902,-135.560,47.016,-99.646
1801,-0.7725,-0.3838,-0.4990,-22.949,-10.010,15.381,-135.895,47.236,-99.706
1811,-0.7871,-0.3496,-0.5298,-7.080,-6.592,11.597,-136.115,47.401,-99.761
1821,-0.7686,-0.4053,-0.5234,13.672,-3.662,2.258,-136.033,47.461,-99.745
1831,-0.7368,-0.4824,-0.4917,28.259,-2.991,-6.836,-135.670,47.428,-99.646
1841,-0.7139,-0.5679,-0.4551,27.954,-4.395,-9.521,-135.220,47.368,-99.498
1851,-0.7061,-0.5933,-0.4297,16.052,-6.042,-6.531,-134.868,47.329,-99.366
1861,-0.7090,-0.5444,-0.4170,-0.061,-7.385,1.282,-134.747,47.373,-99.300
1871,-0.7378,-0.4526,-0.4243,-14.404,-8.728,12.024,-134.901,47.543,-99.338
1881,-0.7715,-0.4160,-0.4370,-21.729,-8.972,18.982,-135.209,47.785,-99.443
1891,-0.7871,-0.3682,-0.4604,-22.522,-8.789,17.334,-135.560,48.021,-99.531
1901,-0.7939,-0.3726,-0.4814,-17.517,-8.484,9.827,-135.813,48.197,-99.547
1911,-0.7920,-0.4009,-0.4937,-7.507,-6.348,-0.977,-135.879,48.263,-99.470
1921,-0.7832,-0.4390,-0.5151,4.456,-2.991,-12.146,-135.753,48.214,-99.311
1931,-0.7490,-0.5000,-0.5059,17.517,1.953,-20.264,-135.428,48.043,-99.113
1942,-0.7163,-0.5586,-0.4858,25.330,4.517,-21.545,-135.000,47.818,-98.926
1951,-0.7031,-0.5542,-0.4609,24.719,3.784,-14.160,-134.621,47.659,-98.822
1961,-0.7275,-0.4800,-0.4502,19.348,0.671,-2.075,-134.407,47.642,-98.806
1971,-0.7490,-0.4668,-0.4321,15.869,-1.587,8.118,-134.280,47.730,-98.871
1981,-0.7603,-0.4829,-0.4224,10.132,-4.211,12.329,-134.209,47.867,-98.954
1991,-0.7617,-0.5234,-0.4175,-0.671,-6.897,9.827,-134.182,47.994,-98.987
2001,-0.7549,-0.5283,-0.4341,-14.038,-8.240,2.930,-134.231,48.071,-98.926
2011,-0.7495,-0.5264,-0.4561,-22.339,-7.507,-3.479,-134.335,48.087,-98.811
2021,-0.7461,-0.4761,-0.4766,-23.560,-5.005,-6.531,-134.484,48.076,-98.690
2031,-0.7456,-0.4087,-0.4971,-14.893,-2.136,-5.127,-134.637,48.065,-98.613
2041,-0.7612,-0.3926,-0.4990,1.526,-0.122,-0.366,-134.687,48.082,-98.608
2051,-0.7603,-0.4062,-0.4814,17.700,0.977,2.258,-134.588,48.115,-98.641
2061,-0.7549,-0.4492,-0.4536,26.001,0.427,2.136,-134.357,48.142,-98.668
2071,-0.7451,-0.5151,-0.4229,22.888,-2.502,1.404,-134.072,48.170,-98.657
2081,-0.7334,-0.6001,-0.3994,9.277,-5.798,0.854,-133.835,48.192,-98.602
2091,-0.7271,-0.6157,-0.3994,-12.634,-7.996,0.671,-133.797,48.219,-98.520
2101,-0.7368,-0.5195,-0.4302,-32.043,-8.667,2.686,-134.022,48.290,-98.454
2111,-0.7759,-0.3789,-0.4683,-36.194,-6.653,6.348,-134.445,48.417,-98.448
2121,-0.8154,-0.3174,-0.4937,-20.996,-0.366,6.287,-134.830,48.527,-98.514
2131,-0.8223,-0.2900,-0.5151,5.554,7.568,-1.587,-134.978,48.516,-98.575
2141,-0.7705,-0.4131,-0.4893,33.020,13.977,-13.672,-134.703,48.340,-98.580
2151,-0.7139,-0.5996,-0.4336,43.152,13.977,-22.766,-134.121,48.043,-98.487
2161,-0.6738,-0.7036,-0.3994,26.001,6.592,-25.879,-133.572,47.730,-98.289
2171,-0.6655,-0.6543,-0.3862,-4.578,-1.770,-20.325,-133.319,47.532,-98.064
2181,-0.7109,-0.4971,-0.4062,-31.921,-8.301,-5.859,-133.484,47.549,-97.916
2191,-0.7764,-0.3843,-0.4355,-40.894,-8.972,8.972,-133.940,47.730,-97.910
2201,-0.8174,-0.3022,-0.4683,-33.264,-6.042,13.916,-134.456,47.950,-97.987
2211,-0.8345,-0.2710,-0.5098,-16.296,-2.991,7.141,-134.824,48.098,-98.031
2221,-0.7993,-0.3696,-0.5381,7.812,1.343,-7.507,-134.808,48.060,-97.965
2231,-0.7153,-0.5327,-0.5098,28.442,4.211,-23.315,-134.368,47.829,-97.762
2241,-0.6592,-0.6235,-0.4814,31.738,0.916,-28.625,-133.775,47.543,-97.476
2251,-0.6621,-0.6484,-0.4473,23.010,-4.089,-21.362,-133.264,47.340,-97.213
2261,-0.6914,-0.6128,-0.4307,10.376,-7.446,-7.141,-132.968,47.296,-97.059
2271,-0.7300,-0.5942,-0.4214,-1.404,-8.606,7.568,-132.891,47.384,-97.042
2281,-0.7607,-0.5093,-0.4272,-12.207,-8.667,16.174,-133.033,47.576,-97.114
2291,-0.7939,-0.3877,-0.4536,-15.137,-8.240,18.250,-133.319,47.818,-97.207
2301,-0.8076,-0.3799,-0.4683,-6.409,-5.615,15.869,-133.533,48.027,-97.311
2311,-0.7988,-0.3843,-0.4717,6.958,-3.052,7.629,-133.572,48.148,-97.355
2321,-0.7715,-0.4517,-0.4687,18.677,-1.831,-2.258,-133.380,48.159,-97.311
2331,-0.7368,-0.5420,-0.4531,23.804,-1.709,-9.338,-133.022,48.087,-97.196
2341,-0.7217,-0.6089,-0.4380,18.311,-3.296,-10.986,-132.660,47.988,-97.048
2351,-0.7153,-0.6372,-0.4272,6.165,-3.967,-7.263,-132.424,47.911,-96.932
2361,-0.7222,-0.5889,-0.4277,-6.531,-3.906,-0.427,-132.391,47.900,-96.883
2371,-0.7466,-0.4951,-0.4482,-14.282,-2.808,7.690,-132.561,47.983,-96.932
2381,-0.7749,-0.4126,-0.4600,-11.475,-0.854,12.939,-132.819,48.115,-97.053
2391,-0.7910,-0.3296,-0.4736,-0.488,0.549,12.756,-133.050,48.263,-97.191
2401,-0.7920,-0.3154,-0.4634,15.747,1.160,8.545,-133.094,48.378,-97.289
2411,-0.7793,-0.3813,-0.4375,29.663,0.549,1.770,-132.880,48.439,-97.311
2421,-0.7544,-0.5161,-0.4038,31.799,-1.770,-4.578,-132.462,48.422,-97.245
2431,-0.7310,-0.6333,-0.3779,17.151,-4.578,-9.888,-132.067,48.345,-97.097
2442,-0.7109,-0.6938,-0.3838,-8.057,-6.042,-12.756,-131.869,48.230,-96.899
2451,-0.7031,-0.6450,-0.3960,-32.227,-5.005,-10.803,-131.962,48.126,-96.735
2461,-0.7246,-0.5005,-0.4419,-46.509,-2.319,-2.869,-132.380,48.115,-96.680
2471,-0.7529,-0.3960,-0.4810,-40.527,2.747,6.287,-132.929,48.164,-96.773
2481,-0.7783,-0.3223,-0.5049,-20.081,6.287,11.047,-133.407,48.246,-96.954
2491,-0.7930,-0.2812,-0.5225,5.554,6.775,9.338,-133.665,48.318,-97.125
2501,-0.7705,-0.4370,-0.4951,31.128,6.287,1.160,-133.462,48.290,-97.207
2511,-0.7202,-0.6465,-0.4292,39.429,3.113,-8.972,-132.929,48.153,-97.147
2521,-0.6885,-0.7510,-0.4004,20.630,-2.808,-15.137,-132.440,47.972,-96.960
2531,-0.6846,-0.6890,-0.3848,-6.775,-5.798,-14.404,-132.220,47.834,-96.751
2541,-0.7314,-0.5054,-0.3970,-26.367,-3.357,-4.761,-132.380,47.829,-96.669
2551,-0.7905,-0.3711,-0.4048,-25.208,7.751,6.836,-132.792,47.900,-96.823
2561,-0.8145,-0.3369,-0.4336,-10.986,21.851,10.498,-133.248,47.911,-97.169
2571,-0.7827,-0.4419,-0.4570,3.357,32.166,5.188,-133.539,47.763,-97.570
2581,-0.7100,-0.6108,-0.4482,6.958,34.363,-5.554,-133.627,47.439,-97.883
2591,-0.6509,-0.7173,-0.4453,-5.981,28.442,-12.939,-133.693,47.054,-98.058
2601,-0.6484,-0.6421,-0.4521,-26.062,20.020,-11.475,-133.934,46.763,-98.152
2611,-0.6919,-0.4941,-0.4756,-36.560,15.320,-2.014,-134.401,46.626,-98.295
2621,-0.7622,-0.3242,-0.4888,-30.762,15.503,11.475,-135.027,46.659,-98.569
2631,-0.8232,-0.1821,-0.4937,-11.047,17.883,21.545,-135.676,46.791,-98.976
2641,-0.8691,-0.0488,-0.5107,15.747,20.142,23.682,-136.236,46.939,-99.432
2651,-0.8413,-0.2158,-0.4941,47.180,21.790,15.747,-136.247,46.994,-99.816
2661,-0.7544,-0.5903,-0.4209,58.960,17.395,-1.770,-135.670,46.851,-99.976
2671,-0.6924,-0.7012,-0.4028,29.358,2.686,-20.935,-135.082,46.626,-99.783
2681,-0.6543,-0.7158,-0.4194,-14.832,-10.437,-30.334,-134.780,46.401,-99.366
2691,-0.6548,-0.6841,-0.4434,-49.194,-15.991,-26.428,-134.841,46.252,-98.926
2701,-0.6875,-0.5527,-0.5005,-66.345,-14.648,-13.794,-135.258,46.219,-98.641
2711,-0.7388,-0.4229,-0.5669,-59.753,-7.629,1.648,-135.890,46.285,-98.575
2721,-0.7710,-0.3545,-0.6128,-33.264,-0.244,12.268,-136.450,46.384,-98.701
2731,-0.7695,-0.3174,-0.6157,1.892,3.296,15.015,-136.730,46.478,-98.893
2741,-0.7568,-0.4521,-0.5703,36.865,1.282,12.085,-136.516,46.549,-99.036
2751,-0.7285,-0.5732,-0.5029,53.284,-4.456,5.005,-135.939,46.588,-99.042
2761,-0.7129,-0.6431,-0.4424,46.448,-11.658,-1.770,-135.269,46.615,-98.904
2771,-0.7104,-0.6533,-0.4014,25.513,-16.174,-2.991,-134.736,46.670,-98.707
2781,-0.7363,-0.5718,-0.3882,1.770,-17.517,2.747,-134.500,46.813,-98.558
2791,-0.7793,-0.4453,-0.4136,-13.977,-14.893,11.963,-134.599,47.054,-98.525
2801,-0.8140,-0.3604,-0.4492,-15.320,-9.155,17.822,-134.885,47.318,-98.613
2811,-0.8184,-0.3003,-0.4932,-5.615,-4.150,15.991,-135.165,47.538,-98.734
2821,-0.7939,-0.3604,-0.5093,11.169,-0.610,8.057,-135.209,47.642,-98.811
2831,-0.7437,-0.4917,-0.4775,23.621,-0.854,-3.601,-134.929,47.620,-98.767
2841,-0.7124,-0.5361,-0.4595,20.569,-4.700,-12.695,-134.550,47.538,-98.586
2851,-0.7070,-0.5669,-0.4375,10.864,-7.568,-13.977,-134.209,47.466,-98.361
2861,-0.7080,-0.5933,-0.4243,-1.648,-6.958,-9.583,-134.011,47.411,-98.185
2871,-0.7178,-0.5527,-0.4307,-14.221,-5.432,-3.113,-134.028,47.411,-98.097
2881,-0.7437,-0.4316,-0.4585,-20.996,-3.662,3.906,-134.264,47.483,-98.097
2891,-0.7642,-0.4106,-0.4795,-14.954,0.061,8.728,-134.528,47.576,-98.190
2901,-0.7627,-0.4214,-0.4912,-3.174,3.174,7.385,-134.687,47.626,-98.300
2911,-0.7358,-0.4868,-0.4912,7.446,3.113,1.160,-134.654,47.604,-98.344
2921,-0.7065,-0.5518,-0.4717,10.132,1.465,-4.700,-134.489,47.527,-98.311
2931,-0.6943,-0.5513,-0.4624,4.272,-1.953,-5.981,-134.341,47.466,-98.229
2942,-0.7100,-0.5596,-0.4463,-2.930,-3.967,-1.526,-134.269,47.455,-98.168
2951,-0.7354,-0.4819,-0.4502,-11.108,-4.333,4.822,-134.368,47.527,-98.174
2961,-0.7676,-0.4180,-0.4614,-13.794,-3.174,9.521,-134.588,47.648,-98.240
2971,-0.7896,-0.3477,-0.4756,-9.033,-0.427,9.033,-134.835,47.774,-98.328
2981,-0.8037,-0.3018,-0.4971,2.136,2.869,3.296,-135.000,47.840,-98.394
2991,-0.7661,-0.4453,-0.4766,18.127,6.714,-6.287,-134.846,47.769,-98.399
3001,-0.7158,-0.6025,-0.4429,20.874,7.324,-16.663,-134.484,47.560,-98.300
3011,-0.6841,-0.6489,-0.4429,4.944,3.662,-21.118,-134.198,47.318,-98.119
3021,-0.6841,-0.6250,-0.4395,-13.428,1.221,-16.602,-134.127,47.137,-97.960
3031,-0.7227,-0.5068,-0.4619,-26.550,-0.610,-6.348,-134.319,47.087,-97.888
3041,-0.7681,-0.4492,-0.4922,-25.330,0.183,4.150,-134.637,47.137,-97.932
3051,-0.7754,-0.4585,-0.4985,-14.526,1.282,7.080,-134.868,47.197,-98.020
3061,-0.7690,-0.4395,-0.4961,-4.822,-0.854,3.357,-134.973,47.247,-98.047
3071,-0.7578,-0.5405,-0.4883,3.357,-3.113,-0.977,-134.879,47.252,-98.004
3081,-0.7227,-0.6426,-0.4668,4.517,-4.028,-6.409,-134.665,47.186,-97.894
3091,-0.7075,-0.5669,-0.4580,-2.747,-6.042,-8.484,-134.528,47.137,-97.745
3101,-0.7212,-0.4893,-0.4541,-6.287,-6.165,-1.404,-134.517,47.170,-97.663
3111,-0.7563,-0.4473,-0.4585,-4.211,-4.333,9.338,-134.604,47.291,-97.718
3121,-0.7793,-0.3721,-0.4692,0.793,-1.892,14.771,-134.764,47.461,-97.850
3131,-0.7856,-0.3467,-0.4785,8.240,0.732,13.916,-134.885,47.609,-98.004
3141,-0.7720,-0.3857,-0.4819,17.151,3.174,7.385,-134.863,47.675,-98.113
3151,-0.7280,-0.5044,-0.4536,22.522,4.028,-1.831,-134.626,47.631,-98.135
3161,-0.6987,-0.5425,-0.4365,14.343,1.526,-7.751,-134.379,47.538,-98.069
3171,-0.6953,-0.5405,-0.4253,-0.488,-1.526,-6.958,-134.258,47.477,-97.982
3181,-0.7222,-0.4448,-0.4277,-13.000,-3.357,-0.122,-134.357,47.521,-97.943
3191,-0.7686,-0.3892,-0.4434,-16.418,-2.319,8.057,-134.604,47.642,-98.004
3201,-0.7891,-0.3418,-0.4565,-11.169,1.343,10.193,-134.890,47.774,-98.124
3211,-0.7852,-0.3330,-0.4702,-2.869,3.418,6.592,-135.093,47.851,-98.229
3221,-0.7710,-0.3848,-0.4575,5.798,4.456,0.122,-135.121,47.867,-98.278
3231,-0.7480,-0.4956,-0.4565,8.728,3.723,-7.812,-134.978,47.785,-98.234
3241,-0.7065,-0.6274,-0.4424,2.258,2.502,-14.709,-134.764,47.615,-98.108
3251,-0.6841,-0.6626,-0.4482,-13.428,-0.671,-17.761,-134.648,47.422,-97.916
3261,-0.6953,-0.6089,-0.4678,-27.344,-3.357,-12.878,-134.725,47.307,-97.745
3271,-0.7266,-0.5308,-0.4971,-30.518,-3.113,-4.028,-134.956,47.274,-97.668
3281,-0.7510,-0.4419,-0.5225,-20.569,-0.488,3.662,-135.231,47.307,-97.701
3291,-0.7808,-0.3667,-0.5371,-1.770,0.793,8.179,-135.423,47.390,-97.800
3301,-0.7754,-0.3965,-0.5239,20.325,2.441,6.531,-135.363,47.439,-97.894
3311,-0.7520,-0.4072,-0.4888,37.048,1.282,0.122,-135.055,47.455,-97.905
3321,-0.7393,-0.5093,-0.4434,42.358,-2.502,-3.723,-134.550,47.450,-97.839
3331,-0.7231,-0.6108,-0.3989,31.555,-5.981,-6.226,-134.028,47.417,-97.712
3341,-0.7202,-0.6104,-0.3906,7.690,-8.606,-6.165,-133.726,47.406,-97.559
3351,-0.7280,-0.6030,-0.3999,-16.174,-7.690,-2.136,-133.709,47.422,-97.454
3361,-0.7534,-0.4893,-0.4380,-32.593,-4.578,2.441,-133.995,47.488,-97.432
3371,-0.7798,-0.3960,-0.4868,-32.166,0.610,5.310,-134.429,47.560,-97.493
3381,-0.7920,-0.3555,-0.5142,-16.479,5.737,4.883,-134.780,47.593,-97.603
3391,-0.7773,-0.3364,-0.5190,4.883,7.385,0.244,-134.912,47.582,-97.685
3401,-0.7559,-0.4028,-0.4849,24.963,5.066,-4.578,-134.725,47.543,-97.690
3411,-0.7378,-0.5103,-0.4419,32.654,0.183,-6.592,-134.313,47.494,-97.625
3421,-0.7251,-0.5884,-0.4082,22.949,-4.028,-5.981,-133.912,47.461,-97.520
3431,-0.7114,-0.6602,-0.3970,1.099,-5.493,-3.357,-133.709,47.428,-97.427
3442,-0.7178,-0.5957,-0.4180,-24.475,-5.066,0.854,-133.830,47.439,-97.377
3451,-0.7534,-0.4878,-0.4614,-39.734,-3.052,5.981,-134.242,47.510,-97.410
3461,-0.7822,-0.4131,-0.5073,-35.522,1.465,7.812,-134.725,47.582,-97.504
3471,-0.7939,-0.3389,-0.5449,-17.029,4.700,4.578,-135.099,47.615,-97.603
3481,-0.7798,-0.3418,-0.5508,9.338,5.615,-1.831,-135.170,47.593,-97.641
3491,-0.7480,-0.4619,-0.4990,34.424,3.540,-8.179,-134.813,47.510,-97.592
3501,-0.7246,-0.5669,-0.4502,41.565,-1.831,-11.597,-134.236,47.417,-97.454
3511,-0.7056,-0.6562,-0.4126,30.151,-6.287,-10.681,-133.687,47.335,-97.273
3521,-0.6914,-0.7080,-0.3945,8.667,-7.507,-6.104,-133.352,47.274,-97.130
3531,-0.6992,-0.6543,-0.4082,-15.137,-7.141,1.221,-133.341,47.280,-97.070
3541,-0.7354,-0.5161,-0.4487,-30.151,-4.883,9.949,-133.649,47.384,-97.119
3551,-0.7700,-0.4028,-0.4873,-26.855,-0.793,15.259,-134.094,47.532,-97.262
3561,-0.7939,-0.3120,-0.5000,-9.766,2.136,15.259,-134.462,47.681,-97.443
3571,-0.8013,-0.2515,-0.5103,12.756,2.869,10.498,-134.626,47.807,-97.586
3581,-0.7778,-0.3618,-0.4673,36.133,2.808,2.380,-134.385,47.851,-97.635
3591,-0.7319,-0.5820,-0.4087,43.396,0.549,-6.287,-133.819,47.785,-97.581
3601,-0.6938,-0.6748,-0.3789,23.804,-3.357,-12.451,-133.319,47.659,-97.416
3611,-0.6787,-0.6489,-0.3711,-6.531,-5.981,-10.864,-133.121,47.571,-97.240
3621,-0.7090,-0.5439,-0.3960,-31.250,-5.432,-0.122,-133.314,47.593,-97.180
3631,-0.7554,-0.4375,-0.4463,-40.100,-0.793,11.169,-133.813,47.708,-97.284
3641,-0.7866,-0.3188,-0.4932,-30.884,5.310,15.259,-134.407,47.834,-97.498
3651,-0.8169,-0.1890,-0.5366,-9.094,8.301,12.817,-134.923,47.944,-97.718
3661,-0.7979,-0.2690,-0.5317,23.682,10.681,4.089,-134.984,47.950,-97.877
3671,-0.7495,-0.4751,-0.4810,48.279,9.583,-8.667,-134.517,47.823,-97.883
3681,-0.6987,-0.6934,-0.4302,44.678,4.150,-19.470,-133.830,47.582,-97.729
3691,-0.6538,-0.7886,-0.4121,16.907,-0.977,-24.780,-133.308,47.302,-97.460
3701,-0.6465,-0.7905,-0.4253,-16.785,-2.197,-21.118,-133.149,47.049,-97.224
3711,-0.6851,-0.5913,-0.4775,-39.185,0.977,-11.292,-133.423,46.912,-97.119
3721,-0.7446,-0.4019,-0.5405,-34.241,7.996,-0.427,-133.918,46.862,-97.202
3731,-0.7861,-0.2871,-0.5684,-5.310,13.794,6.165,-134.313,46.851,-97.410
3741,-0.7983,-0.2388,-0.5649,30.334,12.390,6.470,-134.385,46.868,-97.608
3751,-0.7720,-0.3437,-0.5166,58.777,6.287,1.099,-133.978,46.879,-97.685
3761,-0.7432,-0.5132,-0.4375,65.430,-3.174,-6.165,-133.226,46.862,-97.586
3771,-0.7163,-0.6089,-0.3755,45.837,-12.451,-12.878,-132.468,46.835,-97.322
3781,-0.7104,-0.6001,-0.3569,11.963,-17.029,-14.526,-131.995,46.829,-96.998
3791,-0.7412,-0.5527,-0.3652,-19.287,-16.357,-9.644,-131.902,46.884,-96.724
3801,-0.7729,-0.4756,-0.4155,-36.438,-9.583,-4.333,-132.149,46.956,-96.581
3811,-0.7808,-0.4351,-0.4863,-35.645,-0.061,-3.540,-132.539,46.961,-96.542
3821,-0.7612,-0.4243,-0.5322,-20.203,6.714,-6.958,-132.830,46.879,-96.548
3831,-0.7246,-0.4331,-0.5352,2.563,8.240,-11.414,-132.869,46.736,-96.520
3841,-0.7090,-0.4917,-0.5039,25.085,4.211,-12.268,-132.594,46.599,-96.443
3851,-0.7002,-0.5835,-0.4565,37.231,-1.587,-9.827,-132.094,46.511,-96.334
3861,-0.7021,-0.6060,-0.4062,33.691,-6.287,-6.165,-131.589,46.478,-96.202
3871,-0.7114,-0.6235,-0.3804,20.630,-7.874,-0.977,-131.215,46.500,-96.108
3882,-0.7329,-0.6045,-0.3750,4.517,-6.897,3.906,-131.045,46.571,-96.070
3891,-0.7461,-0.5142,-0.3921,-8.545,-3.967,6.836,-131.111,46.670,-96.092
3901,-0.7593,-0.4868,-0.4121,-11.475,-0.549,7.568,-131.265,46.763,-96.158
3911,-0.7603,-0.4712,-0.4326,-7.996,1.526,4.700,-131.402,46.824,-96.218
3921,-0.7495,-0.4956,-0.4365,-3.052,1.648,0.244,-131.446,46.829,-96.240
3932,-0.7334,-0.5215,-0.4351,-0.305,1.099,-3.479,-131.418,46.802,-96.218
3942,-0.7266,-0.5469,-0.4312,-0.183,0.549,-4.395,-131.358,46.758,-96.185
3951,-0.7212,-0.5796,-0.4272,-3.479,0.671,-2.258,-131.336,46.719,-96.169
3961,-0.7227,-0.5674,-0.4287,-9.521,1.038,1.343,-131.402,46.714,-96.191
3971,-0.7422,-0.4839,-0.4414,-14.709,0.916,5.554,-131.605,46.763,-96.257
3981,-0.7705,-0.4263,-0.4575,-10.498,1.770,8.728,-131.836,46.862,-96.361
3992,-0.7783,-0.4277,-0.4619,0.122,3.418,8.057,-131.973,46.939,-96.476
4002,-0.7617,-0.4644,-0.4551,9.705,3.418,2.991,-131.951,46.961,-96.542
4011,-0.7461,-0.5308,-0.4404,12.451,1.587,-2.869,-131.797,46.934,-96.531
4021,-0.7290,-0.5977,-0.4268,7.385,0.000,-7.141,-131.611,46.862,-96.460
4031,-0.7192,-0.5894,-0.4253,-3.052,-0.793,-8.057,-131.517,46.785,-96.378
4042,-0.7231,-0.5615,-0.4419,-12.024,-0.366,-4.211,-131.572,46.741,-96.328
4052,-0.7314,-0.5327,-0.4683,-14.832,1.221,1.038,-131.732,46.730,-96.356
4062,-0.7334,-0.4980,-0.4878,-10.498,2.808,2.869,-131.907,46.730,-96.411
4072,-0.7378,-0.4351,-0.5015,-0.732,3.418,2.441,-132.028,46.741,-96.471
4082,-0.7520,-0.3989,-0.4971,13.123,2.991,1.831,-132.028,46.763,-96.526
4092,-0.7466,-0.4536,-0.4668,26.794,2.380,0.061,-131.819,46.769,-96.548
4102,-0.7241,-0.5259,-0.4307,30.212,-0.122,-3.357,-131.473,46.747,-96.515
4112,-0.7085,-0.5786,-0.4092,20.142,-4.211,-5.066,-131.138,46.719,-96.422
4122,-0.7007,-0.6426,-0.3955,3.357,-6.714,-5.127,-130.924,46.686,-96.301
4132,-0.6982,-0.6431,-0.4062,-15.015,-7.690,-3.418,-130.902,46.670,-96.180
4142,-0.7109,-0.5815,-0.4321,-26.978,-6.409,0.488,-131.078,46.692,-96.114
4152,-0.7407,-0.4902,-0.4668,-25.818,-2.441,4.517,-131.369,46.752,-96.130
4162,-0.7607,-0.4243,-0.4878,-12.085,2.930,7.141,-131.638,46.818,-96.235
4172,-0.7710,-0.3784,-0.4956,7.507,6.958,7.324,-131.781,46.868,-96.378
4182,-0.7520,-0.4365,-0.4683,26.733,8.789,4.578,-131.671,46.868,-96.520
4192,-0.7261,-0.5200,-0.4287,34.302,6.042,1.343,-131.364,46.840,-96.597
4202,-0.7134,-0.5937,-0.3989,25.757,0.183,-0.244,-131.034,46.818,-96.597
4212,-0.7114,-0.6406,-0.3848,7.202,-4.517,-1.038,-130.820,46.807,-96.537
4222,-0.7163,-0.5972,-0.3960,-13.306,-6.042,0.488,-130.836,46.835,-96.476
4232,-0.7446,-0.5015,-0.4233,-25.513,-4.395,4.944,-131.078,46.917,-96.476
4242,-0.7788,-0.4155,-0.4570,-23.621,-0.305,8.240,-131.435,47.027,-96.553
4252,-0.7993,-0.3320,-0.4785,-10.193,3.357,7.996,-131.759,47.137,-96.663
4262,-0.8076,-0.3120,-0.4912,8.667,5.676,4.028,-131.902,47.197,-96.768
4272,-0.7788,-0.4028,-0.4717,28.503,7.324,-4.395,-131.726,47.159,-96.806
4282,-0.7314,-0.5781,-0.4331,37.842,6.104,-14.221,-131.248,47.000,-96.735
4292,-0.6855,-0.6968,-0.4014,26.672,1.953,-20.935,-130.743,46.763,-96.553
4302,-0.6611,-0.7573,-0.3921,4.211,-2.441,-21.973,-130.397,46.522,-96.317
4312,-0.6572,-0.7280,-0.3862,-19.043,-4.700,-16.968,-130.309,46.346,-96.103
4322,-0.6978,-0.5293,-0.4302,-36.499,-5.432,-5.371,-130.578,46.335,-95.993
4332,-0.7612,-0.4243,-0.4731,-33.813,-1.831,8.057,-131.028,46.445,-96.048
4342,-0.7935,-0.3540,-0.4927,-16.663,3.357,13.123,-131.440,46.582,-96.213
4352,-0.7969,-0.3511,-0.5059,2.502,5.798,9.338,-131.666,46.670,-96.361
4362,-0.7646,-0.4648,-0.4771,18.799,5.249,-0.610,-131.556,46.653,-96.416
4372,-0.7173,-0.5605,-0.4355,21.912,1.221,-11.475,-131.232,46.549,-96.317
4382,-0.6968,-0.6001,-0.4126,11.475,-3.601,-16.785,-130.908,46.417,-96.119
4392,-0.6816,-0.6348,-0.3887,-1.404,-4.578,-15.686,-130.682,46.291,-95.916
4402,-0.6855,-0.5781,-0.3950,-15.198,-3.967,-9.644,-130.671,46.225,-95.784
4412,-0.7153,-0.5029,-0.4204,-22.827,-1.099,0.000,-130.886,46.247,-95.773
4422,-0.7358,-0.4868,-0.4424,-20.508,3.967,6.714,-131.177,46.291,-95.878
4432,-0.7363,-0.4673,-0.4585,-13.916,7.263,6.836,-131.451,46.318,-96.021
4442,-0.7310,-0.4487,-0.4717,-6.409,7.690,3.784,-131.649,46.313,-96.141
4452,-0.7300,-0.4805,-0.4756,2.930,7.019,0.488,-131.710,46.280,-96.224
4462,-0.7163,-0.5513,-0.4668,8.911,6.042,-2.869,-131.633,46.203,-96.262
4472,-0.6982,-0.5752,-0.4521,7.263,4.333,-5.127,-131.523,46.110,-96.257
4482,-0.7104,-0.5488,-0.4595,1.343,2.014,-3.235,-131.490,46.060,-96.251
4492,-0.7271,-0.6040,-0.4595,-0.916,2.197,0.366,-131.473,46.027,-96.279
4502,-0.7080,-0.6089,-0.4590,-2.808,3.296,0.061,-131.484,45.972,-96.312
4512,-0.7065,-0.5366,-0.4751,-4.150,3.174,0.427,-131.550,45.945,-96.350
4522,-0.7290,-0.4893,-0.4746,1.587,4.028,3.601,-131.616,45.956,-96.427
4532,-0.7461,-0.4746,-0.4673,9.705,5.371,5.432,-131.627,45.983,-96.537
4542,-0.7520,-0.4126,-0.4604,14.465,6.165,5.127,-131.633,46.027,-96.652
4552,-0.7588,-0.3931,-0.4531,18.433,5.920,5.066,-131.605,46.082,-96.768
4562,-0.7495,-0.4849,-0.4307,20.447,5.310,4.089,-131.473,46.104,-96.861
4572,-0.7256,-0.5957,-0.4150,12.451,2.441,-0.366,-131.298,46.077,-96.883
4582,-0.6997,-0.6431,-0.4126,-6.653,-2.441,-5.432,-131.221,46.016,-96.806
4592,-0.6953,-0.6533,-0.4243,-27.527,-6.531,-7.080,-131.314,45.961,-96.669
4602,-0.7104,-0.5669,-0.4487,-41.748,-7.507,-4.883,-131.605,45.961,-96.542
4612,-0.7461,-0.4136,-0.4878,-40.222,-4.883,0.000,-132.050,46.027,-96.487
4622,-0.7773,-0.3633,-0.5166,-20.447,1.160,4.944,-132.424,46.104,-96.548
4632,-0.7847,-0.3672,-0.5273,7.141,7.141,3.723,-132.561,46.132,-96.663
4642,-0.7466,-0.4087,-0.5098,31.921,9.583,-3.479,-132.380,46.071,-96.729
4652,-0.6992,-0.5806,-0.4507,45.715,6.653,-8.179,-131.874,45.939,-96.718
4662,-0.6792,-0.6895,-0.4014,35.217,-0.977,-8.179,-131.347,45.829,-96.630
4672,-0.6670,-0.7266,-0.3877,9.033,-6.958,-6.226,-131.028,45.764,-96.498
4682,-0.6670,-0.7104,-0.3838,-18.066,-9.155,-0.732,-131.006,45.753,-96.394
4692,-0.7061,-0.5981,-0.4185,-39.063,-8.606,7.019,-131.314,45.846,-96.367
4702,-0.7451,-0.4717,-0.4668,-42.664,-3.845,12.207,-131.819,45.989,-96.438
4712,-0.7773,-0.3477,-0.4995,-27.710,1.160,13.733,-132.330,46.137,-96.581
4722,-0.7983,-0.3027,-0.5186,-2.380,5.005,11.108,-132.643,46.258,-96.746
4732,-0.7788,-0.3437,-0.5024,24.231,7.751,2.747,-132.610,46.280,-96.855
4742,-0.7300,-0.4824,-0.4487,41.809,7.568,-6.958,-132.209,46.198,-96.866
4752,-0.6968,-0.6069,-0.4043,38.147,3.662,-11.292,-131.699,46.066,-96.795
4762,-0.6724,-0.6606,-0.3843,17.883,-0.244,-11.902,-131.320,45.934,-96.680
4772,-0.6655,-0.6782,-0.3818,-5.554,-2.625,-7.385,-131.188,45.840,-96.581
4782,-0.6772,-0.6528,-0.4092,-26.184,-2.747,0.122,-131.336,45.813,-96.553
4792,-0.6997,-0.5635,-0.4536,-37.415,-0.793,5.249,-131.710,45.840,-96.592
4802,-0.7334,-0.4277,-0.4917,-32.898,1.709,7.690,-132.171,45.912,-96.685
4812,-0.7676,-0.3359,-0.5122,-13.367,4.272,9.705,-132.550,46.011,-96.823
4822,-0.7900,-0.2900,-0.5220,11.169,6.897,8.179,-132.731,46.093,-96.976
4832,-0.7617,-0.3955,-0.4937,34.424,8.423,1.404,-132.550,46.088,-97.081
4842,-0.7173,-0.5713,-0.4404,42.114,6.104,-6.836,-132.083,45.983,-97.075
4852,-0.6909,-0.6704,-0.4077,25.024,-0.366,-12.024,-131.644,45.851,-96.960
4862,-0.6787,-0.6797,-0.4028,-1.892,-5.249,-12.268,-131.429,45.747,-96.784
4872,-0.6978,-0.6138,-0.4194,-24.902,-6.226,-5.371,-131.523,45.720,-96.669
4882,-0.7300,-0.5298,-0.4619,-36.987,-2.991,4.211,-131.885,45.775,-96.674
4892,-0.7515,-0.4556,-0.5059,-32.776,2.197,8.057,-132.347,45.840,-96.773
4902,-0.7661,-0.3564,-0.5444,-16.663,5.066,6.470,-132.737,45.890,-96.894
4912,-0.7607,-0.3706,-0.5518,8.179,6.775,1.465,-132.852,45.884,-96.976
4922,-0.7241,-0.4893,-0.5083,30.518,5.920,-5.981,-132.583,45.802,-96.982
4932,-0.6919,-0.5454,-0.4580,35.706,0.305,-11.108,-132.133,45.703,-96.877
4942,-0.6997,-0.5815,-0.4263,25.818,-6.348,-9.460,-131.704,45.659,-96.718
4952,-0.7056,-0.6230,-0.3989,11.963,-8.606,-5.310,-131.391,45.659,-96.575
4962,-0.7178,-0.5684,-0.4048,-4.639,-9.033,-1.221,-131.303,45.709,-96.465
4972,-0.7305,-0.5405,-0.4268,-14.404,-6.775,2.625,-131.380,45.786,-96.422
4982,-0.7349,-0.5283,-0.4561,-15.564,-3.052,2.747,-131.523,45.829,-96.411
4992,-0.7173,-0.5171,-0.4683,-11.902,0.244,-0.183,-131.649,45.829,-96.416
5002,-0.7231,-0.4111,-0.4751,-5.432,1.526,-1.404,-131.781,45.840,-96.416
5012,-0.7466,-0.4077,-0.4702,6.836,2.991,0.793,-131.814,45.868,-96.454
5022,-0.7417,-0.4590,-0.4468,18.066,5.005,0.732,-131.704,45.873,-96.515
5032,-0.7090,-0.5615,-0.4287,19.226,4.089,-2.441,-131.484,45.824,-96.537
5042,-0.6782,-0.6616,-0.4097,7.935,1.221,-5.127,-131.281,45.731,-96.504
5052,-0.6689,-0.6445,-0.4253,-11.475,-2.258,-5.920,-131.259,45.648,-96.422
5062,-0.6890,-0.5850,-0.4453,-24.475,-3.052,-1.099,-131.429,45.637,-96.378
5072,-0.7314,-0.5215,-0.4751,-24.902,-0.793,5.554,-131.721,45.687,-96.422
5082,-0.7534,-0.4604,-0.5024,-14.282,3.418,7.324,-131.995,45.742,-96.526
5092,-0.7661,-0.3984,-0.5166,2.441,6.653,5.249,-132.160,45.775,-96.652
5102,-0.7563,-0.3979,-0.5020,22.827,8.850,1.038,-132.100,45.764,-96.751
5112,-0.7344,-0.4980,-0.4575,38.696,8.301,-2.502,-131.770,45.709,-96.817
5122,-0.7104,-0.6152,-0.4180,37.415,4.578,-4.272,-131.325,45.626,-96.828
5132,-0.6963,-0.6606,-0.4102,19.226,0.183,-5.005,-131.012,45.549,-96.779
5142,-0.6895,-0.6753,-0.4209,-2.502,-1.526,-3.601,-130.908,45.483,-96.729
5152,-0.7041,-0.6152,-0.4507,-19.104,-1.221,0.061,-131.039,45.467,-96.718
5162,-0.7280,-0.4946,-0.4893,-23.743,0.854,3.296,-131.342,45.494,-96.757
5172,-0.7485,-0.3838,-0.5176,-12.451,2.808,5.188,-131.644,45.549,-96.839
5182,-0.7598,-0.3706,-0.5200,7.141,2.991,6.042,-131.765,45.621,-96.927
5192,-0.7383,-0.3994,-0.4941,24.902,0.916,1.892,-131.627,45.665,-96.954
5202,-0.7183,-0.5010,-0.4551,33.875,-4.150,-3.296,-131.248,45.681,-96.877
5212,-0.6973,-0.6323,-0.4126,27.771,-9.033,-6.958,-130.776,45.659,-96.713
5222,-0.6782,-0.6865,-0.3955,8.728,-12.268,-9.766,-130.419,45.610,-96.493
5232,-0.6733,-0.7202,-0.3882,-12.939,-12.817,-8.057,-130.276,45.571,-96.279
5242,-0.6929,-0.6470,-0.4155,-32.471,-10.925,-3.052,-130.419,45.582,-96.130
5252,-0.7178,-0.5049,-0.4556,-38.452,-6.409,1.587,-130.776,45.648,-96.075
5262,-0.7432,-0.3794,-0.4912,-25.879,-0.305,6.042,-131.188,45.736,-96.130
5272,-0.7681,-0.3413,-0.5088,-1.648,5.127,7.385,-131.440,45.818,-96.251
5282,-0.7446,-0.4180,-0.4878,23.865,7.996,1.526,-131.353,45.807,-96.356
5292,-0.6982,-0.5571,-0.4346,36.499,5.981,-6.531,-130.963,45.709,-96.356
5302,-0.6826,-0.6514,-0.4014,26.245,0.488,-10.254,-130.545,45.593,-96.262
5312,-0.6675,-0.7212,-0.3867,4.761,-2.380,-10.559,-130.287,45.461,-96.141
5322,-0.6714,-0.7075,-0.3872,-19.226,-3.174,-6.592,-130.292,45.379,-96.048
5332,-0.7012,-0.5840,-0.4253,-38.452,-2.014,1.099,-130.622,45.385,-96.031
5342,-0.7471,-0.4380,-0.4712,-39.856,1.404,8.301,-131.149,45.478,-96.125
5352,-0.7852,-0.3369,-0.5029,-23.193,5.554,11.841,-131.649,45.599,-96.295
5362,-0.8032,-0.2759,-0.5234,2.380,8.728,9.521,-131.957,45.692,-96.482
5372,-0.7710,-0.3618,-0.4966,29.907,9.338,1.099,-131.858,45.698,-96.592
5382,-0.7266,-0.5215,-0.4390,43.701,6.042,-7.996,-131.402,45.610,-96.581
5392,-0.7026,-0.6626,-0.4028,31.799,-0.732,-13.550,-130.891,45.478,-96.443
5402,-0.6758,-0.7480,-0.3813,5.981,-5.737,-15.503,-130.545,45.335,-96.235
5412,-0.6646,-0.7456,-0.3833,-23.376,-7.874,-12.085,-130.507,45.225,-96.037
5422,-0.6816,-0.6426,-0.4229,-46.204,-7.385,-4.395,-130.809,45.203,-95.916
5432,-0.7168,-0.5161,-0.4790,-48.401,-3.845,2.869,-131.298,45.253,-95.905
5442,-0.7456,-0.4082,-0.5171,-31.250,0.671,7.263,-131.765,45.335,-95.977
5452,-0.7627,-0.3364,-0.5288,-3.357,3.296,7.935,-132.028,45.423,-96.092
5462,-0.7661,-0.3198,-0.5103,27.222,3.723,4.578,-131.979,45.500,-96.174
5472,-0.7388,-0.4585,-0.4517,50.171,2.625,-0.488,-131.523,45.511,-96.196
5482,-0.7124,-0.6284,-0.3896,48.828,-0.610,-4.211,-130.913,45.467,-96.147
5492,-0.6895,-0.7236,-0.3643,24.170,-4.211,-7.751,-130.446,45.385,-96.031
5502,-0.6729,-0.7202,-0.3701,-8.423,-5.432,-7.263,-130.309,45.313,-95.905
5512,-0.6846,-0.6514,-0.4028,-35.400,-4.089,-1.160,-130.534,45.291,-95.850
5522,-0.7144,-0.5684,-0.4629,-47.363,-0.122,6.042,-131.028,45.330,-95.905
5532,-0.7271,-0.4814,-0.5171,-41.077,4.272,7.996,-131.578,45.368,-96.026
5542,-0.7373,-0.3447,-0.5503,-22.339,5.737,7.019,-132.056,45.412,-96.152
5552,-0.7578,-0.3022,-0.5527,6.897,5.188,5.798,-132.259,45.472,-96.262
5562,-0.7456,-0.3823,-0.5098,36.316,4.272,2.197,-132.050,45.500,-96.328
5572,-0.7173,-0.5068,-0.4390,49.866,0.244,-2.869,-131.528,45.489,-96.306
5582,-0.6992,-0.6265,-0.3950,38.818,-5.554,-5.737,-130.974,45.461,-96.191
5592,-0.6836,-0.7017,-0.3691,14.282,-8.911,-7.385,-130.583,45.417,-96.026
5602,-0.6821,-0.7051,-0.3770,-14.587,-9.338,-5.676,-130.496,45.385,-95.872
5612,-0.7017,-0.6304,-0.4141,-36.499,-6.775,-0.977,-130.726,45.396,-95.790
5622,-0.7290,-0.5225,-0.4751,-41.321,-1.953,2.808,-131.155,45.439,-95.795
5632,-0.7461,-0.4375,-0.5181,-28.198,3.052,4.272,-131.572,45.472,-95.867
5642,-0.7529,-0.3555,-0.5400,-4.333,6.042,3.601,-131.836,45.500,-95.966
5652,-0.7515,-0.3477,-0.5103,23.926,5.981,2.014,-131.792,45.527,-96.048
5662,-0.7515,-0.3926,-0.4697,44.434,3.296,1.038,-131.468,45.566,-96.092
5672,-0.7334,-0.5576,-0.4058,48.889,0.549,-0.183,-130.935,45.571,-96.097
5682,-0.7075,-0.6655,-0.3711,31.311,-2.808,-4.089,-130.457,45.533,-96.031
5692,-0.6841,-0.7051,-0.3682,2.075,-5.676,-6.836,-130.221,45.467,-95.905
5702,-0.6865,-0.6860,-0.3970,-25.940,-6.104,-5.310,-130.292,45.423,-95.790
5712,-0.7046,-0.6221,-0.4468,-42.725,-3.601,-1.953,-130.627,45.401,-95.729
5722,-0.7080,-0.5459,-0.4985,-42.053,0.061,-0.305,-131.061,45.385,-95.729
5732,-0.7192,-0.4644,-0.5249,-27.832,2.075,1.587,-131.440,45.385,-95.768
5742,-0.7397,-0.3784,-0.5386,-5.310,2.075,3.174,-131.660,45.423,-95.817
5752,-0.7559,-0.3433,-0.5151,22.461,0.977,3.662,-131.616,45.500,-95.867
5762,-0.7480,-0.4180,-0.4546,46.448,-0.061,2.502,-131.232,45.566,-95.889
5772,-0.7275,-0.5503,-0.3892,51.331,-2.869,0.977,-130.649,45.610,-95.867
5782,-0.7056,-0.6802,-0.3442,33.447,-6.714,-0.916,-130.122,45.615,-95.784
5792,-0.6792,-0.7305,-0.3267,0.793,-9.216,-2.625,-129.864,45.604,-95.658
5802,-0.6772,-0.7119,-0.3579,-31.921,-8.972,-0.916,-129.974,45.599,-95.554
5812,-0.7021,-0.6221,-0.4121,-52.124,-5.066,1.953,-130.402,45.626,-95.515
5822,-0.7217,-0.4624,-0.4844,-51.453,1.099,2.991,-130.995,45.654,-95.554
5832,-0.7534,-0.3208,-0.5322,-29.175,6.287,5.188,-131.545,45.703,-95.669
5842,-0.7764,-0.2671,-0.5439,7.141,9.216,5.554,-131.808,45.747,-95.823
5852,-0.7554,-0.3374,-0.4995,43.091,8.789,2.014,-131.600,45.758,-95.938
5862,-0.7187,-0.5171,-0.4272,60.547,4.517,-2.258,-131.001,45.725,-95.960
5872,-0.6978,-0.6733,-0.3701,48.157,-1.770,-5.737,-130.353,45.659,-95.889
5882,-0.6704,-0.7510,-0.3408,16.724,-5.798,-8.667,-129.924,45.566,-95.746
5892,-0.6606,-0.7539,-0.3477,-18.982,-6.531,-6.897,-129.864,45.483,-95.614
5902,-0.6880,-0.6372,-0.3926,-46.936,-3.906,-0.610,-130.215,45.478,-95.565
5912,-0.7202,-0.4854,-0.4531,-54.443,0.793,5.554,-130.820,45.533,-95.625
5922,-0.7476,-0.3936,-0.4917,-39.490,4.517,9.277,-131.413,45.615,-95.757
5932,-0.7568,-0.3638,-0.5083,-12.329,5.371,7.812,-131.759,45.687,-95.889
5942,-0.7466,-0.4126,-0.4766,15.137,3.906,2.258,-131.726,45.720,-95.955
5952,-0.7339,-0.4839,-0.4434,32.776,2.197,-2.136,-131.413,45.714,-95.955
5962,-0.7197,-0.5859,-0.4019,35.950,3.418,-3.174,-130.990,45.665,-95.960
5972,-0.7017,-0.6304,-0.3823,26.001,6.775,-2.563,-130.671,45.582,-96.010
5982,-0.7031,-0.6211,-0.3857,8.423,9.094,1.831,-130.583,45.516,-96.125
5992,-0.7168,-0.6157,-0.4043,-9.827,10.925,8.057,-130.743,45.494,-96.323
6002,-0.7271,-0.5947,-0.4404,-24.353,11.047,11.047,-131.100,45.500,-96.542
6012,-0.7339,-0.5435,-0.4780,-31.128,9.827,10.315,-131.550,45.511,-96.746
6022,-0.7441,-0.4736,-0.5166,-27.710,8.484,8.545,-132.006,45.527,-96.916
6032,-0.7588,-0.4331,-0.5371,-13.611,7.996,6.409,-132.336,45.544,-97.064
6042,-0.7695,-0.3877,-0.5459,5.981,7.568,3.357,-132.479,45.555,-97.174
6052,-0.7607,-0.3892,-0.5303,27.466,6.775,-0.671,-132.363,45.538,-97.240
6062,-0.7349,-0.4834,-0.4868,43.091,4.578,-4.333,-131.973,45.494,-97.245
6072,-0.7114,-0.5811,-0.4468,40.955,-0.854,-5.249,-131.479,45.445,-97.185
6082,-0.6953,-0.6479,-0.4111,23.743,-6.836,-5.005,-131.067,45.423,-97.070
6092,-0.6870,-0.6680,-0.4023,-0.671,-10.742,-2.869,-130.875,45.428,-96.927
6102,-0.6997,-0.6299,-0.4111,-22.888,-11.963,1.526,-130.946,45.494,-96.812
6112,-0.7280,-0.5391,-0.4541,-35.706,-10.132,5.188,-131.248,45.604,-96.751
6122,-0.7339,-0.4976,-0.4897,-32.471,-4.883,5.127,-131.600,45.681,-96.746
6132,-0.7236,-0.4561,-0.5151,-18.311,0.305,3.113,-131.869,45.709,-96.779
6142,-0.7070,-0.4619,-0.5244,2.136,4.272,1.831,-131.962,45.692,-96.839
6152,-0.6870,-0.4897,-0.4858,22.949,5.615,1.709,-131.814,45.659,-96.916
6162,-0.6929,-0.5054,-0.4536,33.142,2.563,5.005,-131.545,45.676,-96.993
6172,-0.6943,-0.5806,-0.4175,31.433,-1.526,9.460,-131.226,45.742,-97.064
6182,-0.7046,-0.6069,-0.3896,16.113,-4.944,10.742,-131.012,45.840,-97.114
6192,-0.7300,-0.5713,-0.4146,-5.554,-7.141,10.620,-131.034,45.967,-97.136
6202,-0.7358,-0.5107,-0.4419,-18.860,-5.493,7.935,-131.232,46.077,-97.152
6212,-0.7505,-0.4272,-0.4844,-19.714,-1.709,4.272,-131.517,46.154,-97.174
6222,-0.7617,-0.3901,-0.5098,-7.324,2.319,1.038,-131.726,46.181,-97.207
6232,-0.7520,-0.4087,-0.5132,9.949,4.089,-2.686,-131.737,46.165,-97.229
6242,-0.7314,-0.4731,-0.4907,22.766,2.014,-6.409,-131.523,46.110,-97.185
6252,-0.7187,-0.5601,-0.4204,17.090,-7.385,-5.920,-131.210,46.115,-97.053
6262,-0.7178,-0.5830,-0.4048,3.723,-8.484,-3.479,-131.023,46.137,-96.927
6272,-0.7129,-0.5967,-0.4019,-11.230,-7.507,-0.854,-130.995,46.165,-96.839
6282,-0.7178,-0.5806,-0.4233,-23.987,-5.554,0.793,-131.149,46.192,-96.784
6292,-0.7251,-0.5186,-0.4585,-29.419,-3.052,0.061,-131.418,46.214,-96.751
6302,-0.7261,-0.4922,-0.4897,-23.499,0.305,-2.319,-131.671,46.198,-96.729
6312,-0.7144,-0.4849,-0.5005,-10.376,3.418,-4.395,-131.814,46.137,-96.729
6322,-0.7017,-0.5034,-0.4927,4.211,3.967,-5.249,-131.792,46.060,-96.718
6332,-0.6948,-0.5576,-0.4648,14.465,2.258,-3.662,-131.622,45.994,-96.707
6342,-0.7012,-0.5693,-0.4375,14.893,-1.404,-0.732,-131.418,45.983,-96.685
6352,-0.7173,-0.5557,-0.4194,9.216,-4.395,2.380,-131.265,46.027,-96.663
6362,-0.7339,-0.5298,-0.4043,2.930,-4.944,4.639,-131.188,46.110,-96.652
6372,-0.7520,-0.4575,-0.4126,-1.831,-4.150,6.165,-131.226,46.230,-96.663
6382,-0.7695,-0.4497,-0.4170,-1.404,-1.831,6.897,-131.287,46.346,-96.713
6392,-0.7700,-0.4810,-0.4189,-0.183,0.610,3.601,-131.320,46.412,-96.751
6402,-0.7515,-0.4844,-0.4312,-1.465,2.502,-2.808,-131.336,46.401,-96.751
6412,-0.7310,-0.5693,-0.4390,-1.953,5.066,-7.935,-131.303,46.296,-96.729
6422,-0.6968,-0.6445,-0.4409,-3.784,6.897,-11.658,-131.248,46.121,-96.696
6432,-0.6748,-0.6401,-0.4443,-9.888,5.920,-11.353,-131.248,45.945,-96.652
6443,-0.6953,-0.5400,-0.4551,-14.587,3.418,-4.028,-131.380,45.879,-96.652
6452,-0.7422,-0.4258,-0.4595,-10.254,1.770,6.348,-131.594,45.956,-96.729
6462,-0.7876,-0.3359,-0.4614,2.441,1.404,12.756,-131.792,46.121,-96.866
6472,-0.7983,-0.3452,-0.4517,17.944,1.953,11.902,-131.819,46.280,-97.004
6482,-0.7710,-0.4976,-0.4194,26.733,1.282,3.662,-131.572,46.335,-97.053
6492,-0.7212,-0.6597,-0.3931,18.738,-1.587,-8.301,-131.210,46.252,-96.954
6502,-0.6826,-0.7183,-0.4028,-4.761,-5.493,-17.456,-130.979,46.093,-96.729
6512,-0.6699,-0.7109,-0.4126,-26.733,-6.226,-18.188,-130.963,45.928,-96.487
6522,-0.6895,-0.5811,-0.4458,-39.307,-3.967,-10.681,-131.215,45.846,-96.345
6532,-0.7173,-0.4780,-0.4897,-33.569,1.709,0.000,-131.605,45.840,-96.361
6542,-0.7334,-0.4390,-0.5142,-13.611,6.653,7.629,-131.918,45.868,-96.509
6552,-0.7412,-0.3833,-0.5166,8.240,7.690,8.850,-132.072,45.917,-96.674
6562,-0.7324,-0.4189,-0.4814,29.663,6.531,6.958,-131.946,45.956,-96.812
6572,-0.7217,-0.5215,-0.4336,41.016,3.418,5.310,-131.578,45.978,-96.899
6582,-0.7134,-0.6284,-0.3926,33.325,0.244,2.136,-131.171,45.972,-96.921
6592,-0.6958,-0.6694,-0.3818,11.780,-1.587,-1.465,-130.919,45.934,-96.888
6602,-0.6982,-0.6382,-0.3999,-13.184,-1.404,-0.549,-130.946,45.906,-96.872
6612,-0.7261,-0.5552,-0.4478,-29.541,1.099,3.723,-131.248,45.923,-96.916
6622,-0.7437,-0.4912,-0.4902,-28.259,5.371,5.859,-131.649,45.945,-97.031
6632,-0.7397,-0.4385,-0.5181,-15.503,7.385,5.371,-131.973,45.950,-97.163
6642,-0.7456,-0.3711,-0.5181,2.441,5.737,3.479,-132.144,45.972,-97.256
6652,-0.7485,-0.3862,-0.4971,21.606,3.052,1.526,-132.061,46.005,-97.300
6662,-0.7363,-0.4854,-0.4512,33.691,0.610,-0.793,-131.737,46.011,-97.300
6672,-0.7178,-0.5708,-0.4121,27.527,-2.563,-3.540,-131.358,46.000,-97.240
6682,-0.7139,-0.6133,-0.3955,8.911,-5.371,-4.578,-131.116,45.983,-97.141
6692,-0.7080,-0.6733,-0.3984,-12.939,-5.493,-2.625,-131.078,45.961,-97.053
6702,-0.7080,-0.6260,-0.4277,-33.752,-4.089,-0.366,-131.309,45.956,-97.009
6712,-0.7314,-0.5151,-0.4839,-42.236,-1.526,1.831,-131.748,45.983,-97.009
6722,-0.7368,-0.4673,-0.5283,-31.860,3.113,2.625,-132.171,45.983,-97.064
6732,-0.7539,-0.3647,-0.5610,-10.559,5.981,0.854,-132.479,45.972,-97.136
6742,-0.7485,-0.3184,-0.5596,19.592,7.202,-2.136,-132.501,45.945,-97.196
6752,-0.7285,-0.4395,-0.4932,48.645,5.249,-4.761,-132.083,45.890,-97.202
6762,-0.7144,-0.5376,-0.4292,54.688,-1.892,-5.676,-131.457,45.862,-97.130
6772,-0.7109,-0.6514,-0.3828,38.696,-9.033,-5.493,-130.853,45.857,-96.976
6782,-0.6973,-0.6938,-0.3574,10.925,-12.207,-5.676,-130.479,45.851,-96.795
6792,-0.7080,-0.6230,-0.3682,-18.127,-11.780,-2.747,-130.452,45.895,-96.641
6802,-0.7500,-0.5083,-0.4209,-35.400,-7.080,3.113,-130.759,45.989,-96.592
6812,-0.7588,-0.4668,-0.4683,-31.860,0.549,3.967,-131.149,46.044,-96.636
6822,-0.7544,-0.3813,-0.4980,-17.822,4.700,0.549,-131.479,46.060,-96.691
6832,-0.7402,-0.4146,-0.4976,2.197,5.371,-3.174,-131.561,46.033,-96.718
6842,-0.7163,-0.5063,-0.4575,18.616,2.991,-7.080,-131.358,45.961,-96.680
6852,-0.6987,-0.5273,-0.4258,20.447,-1.770,-8.667,-131.061,45.906,-96.581
6862,-0.6919,-0.6074,-0.4023,12.939,-3.540,-7.019,-130.781,45.857,-96.476
6872,-0.6704,-0.6567,-0.3896,-0.671,-2.258,-5.493,-130.633,45.786,-96.400
6882,-0.6748,-0.5107,-0.4287,-17.151,-1.770,-2.930,-130.765,45.769,-96.356
6892,-0.7109,-0.4268,-0.4727,-19.592,0.549,1.282,-131.039,45.797,-96.372
6902,-0.7280,-0.3989,-0.4888,-7.874,3.235,-0.488,-131.237,45.807,-96.400
6912,-0.7163,-0.3848,-0.4951,6.531,1.892,-7.935,-131.243,45.764,-96.345
6922,-0.6943,-0.5078,-0.4502,20.142,-0.854,-15.808,-130.935,45.654,-96.191
6932,-0.6782,-0.5840,-0.4067,20.691,-5.371,-21.179,-130.490,45.511,-95.933
6943,-0.6777,-0.6113,-0.3828,10.376,-8.423,-19.592,-130.106,45.390,-95.658
6952,-0.6899,-0.6274,-0.3774,-2.136,-6.958,-12.512,-129.902,45.324,-95.466
6962,-0.7134,-0.5962,-0.4019,-15.686,-2.747,-4.822,-129.946,45.297,-95.394
6972,-0.7324,-0.5181,-0.4443,-23.743,3.235,-1.343,-130.204,45.286,-95.416
6982,-0.7480,-0.4141,-0.4873,-19.165,8.667,-1.648,-130.545,45.258,-95.499
6992,-0.7686,-0.4341,-0.5117,-3.723,11.780,-3.906,-130.737,45.187,-95.587
7002,-0.7373,-0.5166,-0.4951,13.428,12.207,-11.414,-130.655,45.033,-95.614
7012,-0.7051,-0.6172,-0.4678,19.836,7.019,-17.456,-130.364,44.830,-95.526
7022,-0.7051,-0.6938,-0.4380,12.451,0.122,-16.846,-130.051,44.659,-95.372
7032,-0.7104,-0.7104,-0.4312,-0.977,-4.456,-12.451,-129.864,44.550,-95.213
7042,-0.7183,-0.7056,-0.4297,-13.306,-5.493,-5.859,-129.831,44.506,-95.103
7052,-0.7319,-0.5957,-0.4600,-20.752,-4.456,-0.732,-129.974,44.528,-95.048
7062,-0.7559,-0.4927,-0.4824,-14.954,-2.380,3.601,-130.172,44.599,-95.054
7072,-0.7656,-0.4951,-0.4717,0.183,-0.122,6.348,-130.243,44.687,-95.109
7082,-0.7515,-0.4990,-0.4585,12.939,0.732,3.601,-130.166,44.742,-95.153
7092,-0.7241,-0.6055,-0.4292,19.287,-0.793,-0.610,-129.919,44.736,-95.136
7102,-0.6914,-0.6899,-0.4048,12.939,-3.113,-3.784,-129.650,44.687,-95.070
7112,-0.6689,-0.7085,-0.4014,-2.563,-4.761,-3.662,-129.512,44.637,-94.988
7122,-0.6812,-0.6636,-0.4077,-18.372,-5.066,2.380,-129.595,44.654,-94.949
7132,-0.7158,-0.5122,-0.4385,-28.076,-3.906,11.292,-129.919,44.786,-95.010
7142,-0.7510,-0.4360,-0.4717,-22.339,-0.549,16.663,-130.314,44.962,-95.153
7152,-0.7607,-0.3647,-0.4917,-6.836,3.174,13.611,-130.627,45.104,-95.312
7162,-0.7544,-0.3120,-0.5107,13.306,5.737,4.395,-130.748,45.165,-95.416
7172,-0.7148,-0.4194,-0.4678,37.109,7.324,-5.737,-130.468,45.110,-95.444
7182,-0.6851,-0.5825,-0.4082,45.837,4.272,-11.292,-129.919,44.989,-95.383
7192,-0.6650,-0.6958,-0.3779,30.273,-1.160,-11.841,-129.424,44.857,-95.262
7202,-0.6436,-0.7393,-0.3706,3.174,-4.150,-8.667,-129.177,44.747,-95.142
7212,-0.6602,-0.6055,-0.3955,-24.292,-5.005,-0.610,-129.315,44.747,-95.081
7222,-0.7227,-0.4458,-0.4570,-35.522,-2.014,9.216,-129.776,44.868,-95.142
7232,-0.7495,-0.3823,-0.4971,-24.292,4.211,12.512,-130.254,44.989,-95.301
7242,-0.7310,-0.4048,-0.5166,-5.737,7.446,5.920,-130.518,45.022,-95.433
7252,-0.6855,-0.4668,-0.5068,11.230,5.798,-7.019,-130.474,44.929,-95.433
7262,-0.6558,-0.6089,-0.4653,20.386,1.343,-15.747,-130.150,44.758,-95.301
7272,-0.6465,-0.7021,-0.4180,16.174,-3.357,-17.517,-129.760,44.583,-95.109
7282,-0.6479,-0.7080,-0.3984,3.601,-6.165,-12.817,-129.496,44.462,-94.927
7292,-0.6802,-0.6367,-0.4023,-9.888,-6.592,-2.197,-129.457,44.462,-94.834
7302,-0.7227,-0.5645,-0.4272,-17.151,-3.967,7.019,-129.617,44.555,-94.856
7312,-0.7603,-0.4380,-0.4546,-14.526,-0.183,10.010,-129.886,44.687,-94.944
7322,-0.7827,-0.3545,-0.4839,-1.892,4.089,8.850,-130.133,44.808,-95.065
7332,-0.7686,-0.4224,-0.4722,18.799,8.362,2.441,-130.106,44.830,-95.180
7342,-0.7246,-0.5933,-0.4185,31.860,8.118,-7.446,-129.754,44.725,-95.197
7352,-0.7041,-0.6768,-0.3862,21.423,2.991,-11.841,-129.391,44.588,-95.125
7362,-0.7002,-0.7104,-0.3760,0.000,-0.732,-8.850,-129.216,44.489,-95.037
7372,-0.7163,-0.6665,-0.3872,-21.179,-0.854,0.000,-129.326,44.478,-95.026
7382,-0.7363,-0.5513,-0.4351,-34.363,1.526,9.216,-129.727,44.561,-95.125
7392,-0.7573,-0.4824,-0.4922,-31.189,5.005,13.550,-130.215,44.665,-95.301
7402,-0.7480,-0.4585,-0.5220,-16.418,7.568,10.925,-130.589,44.725,-95.482
7412,-0.7075,-0.5195,-0.5181,0.854,7.324,3.235,-130.699,44.692,-95.592
7422,-0.6782,-0.5864,-0.4922,12.695,3.723,-3.113,-130.573,44.615,-95.603
7432,-0.6719,-0.6094,-0.4614,14.832,-0.671,-3.906,-130.364,44.555,-95.559
7443,-0.6802,-0.6196,-0.4292,13.550,-2.808,0.061,-130.150,44.550,-95.526
7452,-0.7124,-0.5493,-0.4233,9.033,-4.700,5.981,-130.040,44.637,-95.532
7462,-0.7432,-0.5088,-0.4316,5.981,-4.639,10.376,-130.012,44.780,-95.576
7472,-0.7393,-0.5215,-0.4414,7.690,-2.686,7.812,-129.968,44.879,-95.620
7482,-0.7119,-0.5269,-0.4521,10.986,-1.526,0.549,-129.858,44.901,-95.609
7492,-0.6792,-0.5923,-0.4502,16.479,0.061,-4.456,-129.639,44.846,-95.565
7502,-0.6821,-0.5913,-0.4380,19.409,0.305,-4.822,-129.386,44.786,-95.526
7512,-0.7051,-0.5757,-0.4561,19.348,1.160,-1.221,-129.188,44.758,-95.526
7522,-0.7007,-0.5469,-0.4502,23.193,3.540,1.831,-129.001,44.753,-95.581
7532,-0.7153,-0.5088,-0.4580,26.978,3.418,4.822,-128.820,44.780,-95.663
7542,-0.7212,-0.5117,-0.4453,28.320,3.113,6.958,-128.628,44.835,-95.757
7552,-0.7124,-0.5210,-0.4346,23.499,2.258,7.019,-128.469,44.890,-95.845
7562,-0.7026,-0.5703,-0.4316,11.963,0.549,6.348,-128.375,44.934,-95.905
7572,-0.6831,-0.6064,-0.4399,-1.221,-1.160,1.648,-128.364,44.929,-95.911
7582,-0.6934,-0.5786,-0.4663,-10.559,-3.174,-3.784,-128.430,44.901,-95.839
7592,-0.7163,-0.5474,-0.4800,-8.057,-2.930,-6.775,-128.474,44.863,-95.751
7602,-0.7354,-0.4985,-0.4922,5.615,-1.160,-8.057,-128.419,44.819,-95.663
7612,-0.7305,-0.5479,-0.4673,26.245,0.183,-6.226,-128.145,44.775,-95.614
7622,-0.7075,-0.6167,-0.4282,40.649,-0.732,-3.906,-127.678,44.736,-95.570
7632,-0.6895,-0.6143,-0.3955,42.114,-3.540,-0.671,-127.183,44.742,-95.526
7642,-0.7036,-0.5947,-0.3716,34.058,-5.188,6.653,-126.793,44.824,-95.526
7652,-0.7192,-0.5933,-0.3564,20.325,-4.028,13.672,-126.579,44.973,-95.592
7662,-0.7354,-0.5444,-0.3730,2.380,-2.502,16.296,-126.612,45.148,-95.702
7672,-0.7520,-0.5269,-0.4023,-11.414,-0.610,13.672,-126.810,45.291,-95.812
7682,-0.7466,-0.5347,-0.4360,-16.479,1.709,5.188,-127.040,45.346,-95.878
7692,-0.7202,-0.5366,-0.4687,-10.864,3.906,-4.639,-127.194,45.286,-95.878
7702,-0.6855,-0.5361,-0.4619,1.953,4.272,-9.155,-127.189,45.176,-95.850
7712,-0.6782,-0.5215,-0.4243,12.817,1.343,-4.089,-127.068,45.137,-95.828
7722,-0.6978,-0.4746,-0.3931,15.320,-2.991,6.897,-126.958,45.242,-95.856
7732,-0.7285,-0.4155,-0.3647,8.606,-5.920,17.761,-126.974,45.494,-95.938
7742,-0.7520,-0.4609,-0.3594,-3.418,-5.981,21.667,-127.101,45.769,-96.059
7752,-0.7495,-0.5488,-0.3687,-17.700,-4.822,12.573,-127.282,45.923,-96.108
7762,-0.7158,-0.5840,-0.3979,-31.494,-3.357,-5.432,-127.502,45.895,-96.026
7772,-0.6812,-0.6187,-0.4277,-35.889,-1.465,-20.203,-127.694,45.709,-95.834
7782,-0.6504,-0.6250,-0.4497,-31.799,0.366,-24.109,-127.842,45.461,-95.625
7792,-0.6479,-0.5850,-0.4609,-22.644,0.671,-16.113,-127.974,45.286,-95.493
7802,-0.6738,-0.5728,-0.4585,-10.620,0.244,-2.014,-128.079,45.242,-95.477
7812,-0.6914,-0.5630,-0.4375,-0.977,-0.244,8.606,-128.134,45.302,-95.548
7822,-0.7100,-0.5015,-0.4243,3.845,-0.793,12.085,-128.188,45.417,-95.647
7832,-0.7349,-0.4746,-0.4116,7.141,-0.183,12.390,-128.216,45.555,-95.751
7842,-0.7358,-0.5591,-0.3896,9.583,2.075,7.690,-128.156,45.621,-95.845
7852,-0.7144,-0.6289,-0.3779,3.174,2.930,-1.221,-128.068,45.582,-95.867
7862,-0.7075,-0.6357,-0.3931,-10.437,2.380,-7.507,-128.079,45.483,-95.828
7872,-0.7173,-0.5894,-0.4214,-20.081,2.747,-7.019,-128.232,45.406,-95.795
7882,-0.7217,-0.5986,-0.4492,-18.555,5.432,-2.747,-128.425,45.335,-95.834
7892,-0.7139,-0.5508,-0.4717,-11.108,7.629,0.427,-128.622,45.286,-95.922
7902,-0.7314,-0.4556,-0.4844,-1.587,7.019,4.639,-128.804,45.302,-96.042
7912,-0.7573,-0.4248,-0.4658,12.268,5.798,8.545,-128.870,45.385,-96.180
7922,-0.7681,-0.4155,-0.4458,24.048,4.150,8.789,-128.798,45.483,-96.306
7932,-0.7568,-0.5176,-0.4141,28.198,2.014,5.127,-128.568,45.544,-96.372
7943,-0.7305,-0.6641,-0.3804,17.273,-1.648,-1.099,-128.287,45.527,-96.345
7952,-0.7095,-0.6943,-0.3774,-7.507,-6.104,-7.141,-128.172,45.472,-96.213
7962,-0.7236,-0.6382,-0.4023,-30.701,-8.240,-6.348,-128.309,45.461,-96.064
7972,-0.7437,-0.5278,-0.4492,-39.063,-5.554,-1.953,-128.661,45.494,-95.988
7982,-0.7646,-0.4009,-0.5117,-26.917,0.427,0.122,-129.067,45.533,-95.993
7992,-0.7593,-0.3799,-0.5449,1.892,5.737,-0.610,-129.249,45.527,-96.048
8002,-0.7056,-0.5107,-0.5029,33.508,6.409,-6.897,-128.974,45.423,-96.059
8012,-0.6484,-0.6646,-0.4355,47.058,0.488,-12.451,-128.381,45.264,-95.955
8022,-0.6377,-0.7334,-0.3765,33.813,-8.240,-10.864,-127.798,45.154,-95.768
8032,-0.6396,-0.7417,-0.3462,9.766,-11.902,-4.089,-127.458,45.121,-95.598
8042,-0.6885,-0.6172,-0.3491,-14.160,-11.780,6.653,-127.463,45.236,-95.521
8052,-0.7466,-0.4902,-0.3916,-25.574,-7.629,15.198,-127.760,45.450,-95.565
8062,-0.7754,-0.3984,-0.4316,-19.775,-2.380,15.625,-128.128,45.659,-95.674
8072,-0.7876,-0.3423,-0.4639,-5.981,0.671,8.728,-128.403,45.807,-95.762
8082,-0.7520,-0.4033,-0.4614,13.245,2.869,-2.441,-128.381,45.818,-95.773
8092,-0.6953,-0.5928,-0.4038,27.466,2.075,-12.024,-128.013,45.698,-95.685
8102,-0.6743,-0.6665,-0.3716,19.287,-2.258,-14.954,-127.617,45.549,-95.532
8112,-0.6719,-0.7158,-0.3584,2.075,-3.662,-11.292,-127.392,45.428,-95.389
8122,-0.6890,-0.6768,-0.3687,-15.930,-2.014,-2.502,-127.430,45.385,-95.345
8132,-0.7251,-0.6050,-0.4082,-28.320,0.854,7.080,-127.722,45.428,-95.416
8142,-0.7417,-0.5469,-0.4468,-28.748,4.089,12.207,-128.134,45.511,-95.570
8152,-0.7539,-0.4673,-0.4741,-21.973,5.188,11.963,-128.540,45.604,-95.735
8162,-0.7573,-0.4116,-0.4951,-8.240,5.371,8.667,-128.831,45.676,-95.872
8172,-0.7378,-0.4658,-0.4888,11.536,5.371,3.174,-128.859,45.687,-95.960
8182,-0.6880,-0.5957,-0.4419,24.963,3.052,-4.456,-128.584,45.604,-95.955
8192,-0.6724,-0.6367,-0.4189,19.104,-3.418,-7.385,-128.265,45.527,-95.850
8202,-0.6807,-0.6992,-0.3945,6.226,-7.812,-4.822,-128.024,45.489,-95.718
8212,-0.7007,-0.6641,-0.3916,-9.155,-9.033,0.244,-127.969,45.511,-95.620
8222,-0.7305,-0.5249,-0.4209,-17.944,-7.263,5.310,-128.134,45.615,-95.587
8232,-0.7734,-0.4072,-0.4463,-9.583,-3.296,9.705,-128.353,45.775,-95.630
8242,-0.7944,-0.3457,-0.4492,9.033,0.732,10.925,-128.480,45.945,-95.740
8252,-0.7739,-0.3472,-0.4326,28.198,3.418,6.531,-128.397,46.055,-95.834
8262,-0.7373,-0.4824,-0.3916,38.879,3.235,0.305,-128.051,46.077,-95.872
8272,-0.6919,-0.6704,-0.3491,28.320,-0.183,-5.676,-127.628,46.000,-95.823
8282,-0.6626,-0.7461,-0.3394,-0.916,-4.517,-10.925,-127.397,45.868,-95.674
8292,-0.6587,-0.7397,-0.3604,-32.104,-5.981,-10.254,-127.491,45.753,-95.515
8302,-0.6782,-0.6626,-0.4023,-53.101,-2.991,-4.333,-127.903,45.692,-95.444
8312,-0.7178,-0.5044,-0.4673,-54.199,2.441,2.136,-128.518,45.698,-95.493
8322,-0.7573,-0.4097,-0.5151,-33.325,7.751,7.935,-129.089,45.747,-95.647
8332,-0.7686,-0.3833,-0.5278,-1.038,10.681,7.812,-129.386,45.780,-95.839
8342,-0.7349,-0.4258,-0.4966,30.762,9.277,2.014,-129.265,45.764,-95.960
8352,-0.7007,-0.5703,-0.4277,48.035,4.578,-1.343,-128.793,45.709,-95.999
8362,-0.6836,-0.6880,-0.3726,38.879,-1.465,-2.502,-128.276,45.654,-95.960
8372,-0.6738,-0.6909,-0.3535,13.000,-5.432,-1.892,-127.985,45.626,-95.883
8382,-0.6914,-0.6313,-0.3687,-14.221,-5.371,3.967,-128.029,45.670,-95.856
8392,-0.7271,-0.5513,-0.4043,-31.982,-2.563,10.742,-128.375,45.780,-95.922
8403,-0.7559,-0.4272,-0.4614,-34.973,0.061,11.353,-128.881,45.912,-96.021
8412,-0.7788,-0.3423,-0.4922,-23.254,1.282,8.301,-129.337,46.033,-96.114
8422,-0.7803,-0.3369,-0.4907,-0.854,1.221,1.343,-129.529,46.104,-96.136
8432,-0.7607,-0.3940,-0.4502,21.667,-0.610,-7.629,-129.348,46.104,-96.059
8443,-0.7275,-0.5596,-0.3916,32.471,-2.930,-13.245,-128.875,46.027,-95.905
8452,-0.6919,-0.6997,-0.3457,22.339,-4.578,-15.198,-128.392,45.895,-95.718
8462,-0.6562,-0.7700,-0.3232,-1.953,-5.371,-11.719,-128.139,45.758,-95.554
8472,-0.6636,-0.7490,-0.3369,-30.762,-4.822,1.038,-128.271,45.731,-95.510
8482,-0.7158,-0.6533,-0.3896,-51.270,-1.160,15.564,-128.793,45.835,-95.636
8493,-0.7427,-0.5640,-0.4468,-52.612,5.188,22.705,-129.496,45.978,-95.894
8503,-0.7593,-0.4692,-0.5063,-40.283,10.071,22.766,-130.199,46.104,-96.218
8513,-0.7578,-0.4048,-0.5415,-15.930,12.817,16.541,-130.699,46.170,-96.509
8523,-0.7378,-0.4409,-0.5190,13.977,12.329,8.789,-130.803,46.170,-96.729
8533,-0.7168,-0.5190,-0.4634,33.997,7.690,3.296,-130.562,46.137,-96.844
8542,-0.7021,-0.5986,-0.4150,32.471,0.793,1.221,-130.193,46.121,-96.866
8553,-0.7065,-0.6421,-0.3853,16.602,-4.822,1.892,-129.913,46.137,-96.828
8562,-0.7090,-0.6387,-0.3789,-4.089,-6.897,3.967,-129.831,46.187,-96.790
8573,-0.7261,-0.5654,-0.3984,-20.691,-6.470,6.836,-129.985,46.285,-96.779
8583,-0.7534,-0.4497,-0.4375,-26.245,-4.700,7.935,-130.303,46.412,-96.801
8593,-0.7759,-0.2993,-0.4663,-16.907,-2.075,6.897,-130.671,46.560,-96.844
8603,-0.8022,-0.2622,-0.4819,3.845,0.671,5.005,-130.880,46.686,-96.899
8612,-0.7827,-0.3501,-0.4526,27.771,3.601,-1.770,-130.737,46.719,-96.921
8623,-0.7261,-0.5562,-0.4121,37.476,3.845,-10.803,-130.281,46.609,-96.861
8633,-0.6729,-0.7334,-0.3872,21.057,2.136,-15.930,-129.853,46.401,-96.735
8643,-0.6494,-0.7671,-0.4028,-10.010,0.488,-14.526,-129.738,46.192,-96.608
8653,-0.6733,-0.6743,-0.4438,-37.842,0.610,-4.639,-130.023,46.088,-96.570
8662,-0.7192,-0.5273,-0.4932,-48.218,2.991,7.141,-130.605,46.110,-96.669
8673,-0.7554,-0.4258,-0.5337,-36.011,4.639,12.329,-131.188,46.192,-96.833
8683,-0.7773,-0.3677,-0.5415,-11.902,2.258,9.583,-131.534,46.285,-96.949
8693,-0.7686,-0.3696,-0.5151,17.334,-2.380,0.305,-131.473,46.346,-96.927
8703,-0.7456,-0.4849,-0.4521,42.664,-6.958,-8.728,-130.952,46.346,-96.768
8713,-0.7144,-0.6470,-0.3696,47.668,-10.071,-12.512,-130.204,46.291,-96.542
8723,-0.6948,-0.6855,-0.3394,28.259,-10.864,-10.742,-129.628,46.241,-96.317
8733,-0.7017,-0.6367,-0.3428,1.709,-8.118,-2.747,-129.413,46.252,-96.202
8743,-0.7300,-0.5664,-0.3730,-18.250,-1.892,7.141,-129.567,46.324,-96.246
8753,-0.7485,-0.4912,-0.4214,-25.391,4.700,10.132,-129.935,46.401,-96.394
8763,-0.7612,-0.3804,-0.4692,-20.386,7.996,6.958,-130.358,46.456,-96.548
8773,-0.7754,-0.3745,-0.4966,-3.601,9.827,2.136,-130.611,46.456,-96.674
8783,-0.7354,-0.5122,-0.4687,17.151,10.315,-5.737,-130.501,46.351,-96.735
8793,-0.6890,-0.6255,-0.4375,23.987,7.019,-12.451,-130.182,46.170,-96.696
8803,-0.6782,-0.6470,-0.4160,15.991,2.319,-11.963,-129.886,46.016,-96.608
8813,-0.6851,-0.6553,-0.4033,4.822,0.488,-4.272,-129.732,45.934,-96.575
8823,-0.7139,-0.5952,-0.4185,-6.592,0.732,5.127,-129.787,45.956,-96.630
8833,-0.7305,-0.5332,-0.4390,-12.695,2.075,10.986,-130.001,46.033,-96.757
8843,-0.7451,-0.5054,-0.4580,-11.719,2.625,11.108,-130.232,46.115,-96.888
8853,-0.7432,-0.4878,-0.4727,-7.446,1.709,7.080,-130.402,46.176,-96.971
8863,-0.7349,-0.4722,-0.4771,1.038,1.343,2.197,-130.468,46.198,-97.009
8873,-0.7334,-0.5215,-0.4658,10.864,1.526,0.000,-130.386,46.187,-97.026
8883,-0.7095,-0.5850,-0.4478,15.564,1.770,-1.343,-130.210,46.143,-97.031
8893,-0.7012,-0.5767,-0.4438,11.536,-0.061,-0.916,-130.062,46.115,-97.020
8903,-0.7144,-0.5273,-0.4385,6.348,-1.831,2.808,-130.001,46.148,-97.026
8913,-0.7422,-0.5034,-0.4351,3.662,-2.991,7.446,-129.996,46.241,-97.064
8923,-0.7505,-0.4863,-0.4380,2.075,-3.357,8.484,-130.023,46.357,-97.108
8933,-0.7515,-0.4790,-0.4409,0.671,-3.479,6.104,-130.056,46.450,-97.125
8943,-0.7451,-0.4390,-0.4341,0.427,-3.235,2.197,-130.089,46.527,-97.108
8953,-0.7461,-0.4316,-0.4321,2.258,-3.540,0.122,-130.089,46.593,-97.070
8963,-0.7485,-0.5127,-0.4185,3.723,-3.540,-1.465,-130.007,46.626,-97.015
8973,-0.7222,-0.5928,-0.4058,-1.526,-3.723,-6.042,-129.891,46.588,-96.921
8983,-0.7129,-0.5928,-0.4268,-11.902,-4.089,-9.216,-129.875,46.522,-96.790
8993,-0.7114,-0.5820,-0.4365,-16.052,-2.380,-8.301,-129.930,46.450,-96.685
9003,-0.7271,-0.5386,-0.4648,-12.634,0.427,-3.967,-130.040,46.412,-96.652
9013,-0.7329,-0.5542,-0.4795,-2.319,3.601,0.549,-130.106,46.379,-96.696
9023,-0.7271,-0.5352,-0.4736,9.338,5.127,0.916,-130.073,46.346,-96.762
9033,-0.7231,-0.5312,-0.4595,18.066,3.967,0.610,-129.935,46.318,-96.812
9043,-0.7241,-0.5430,-0.4243,21.729,1.709,2.319,-129.732,46.324,-96.850
9053,-0.7363,-0.5381,-0.4102,15.137,-0.916,5.676,-129.589,46.384,-96.894
9063,-0.7300,-0.5962,-0.3926,2.380,-2.014,7.996,-129.540,46.450,-96.943
9073,-0.7236,-0.6050,-0.3950,-16.968,-4.028,7.629,-129.661,46.522,-96.971
9083,-0.7266,-0.5547,-0.4272,-35.034,-5.554,6.592,-129.985,46.604,-96.971
9093,-0.7495,-0.4888,-0.4600,-38.940,-4.578,6.226,-130.408,46.697,-96.976
9103,-0.7622,-0.4004,-0.4917,-27.588,-1.526,3.967,-130.803,46.769,-96.998
9113,-0.7812,-0.3354,-0.5166,-4.944,1.465,1.465,-131.034,46.824,-97.026
9123,-0.7642,-0.3862,-0.4834,24.536,4.456,-3.540,-130.908,46.807,-97.042
9133,-0.7246,-0.4785,-0.4258,44.678,3.235,-9.399,-130.430,46.736,-96.987
9143,-0.6953,-0.6387,-0.3706,42.664,-1.648,-9.644,-129.825,46.637,-96.877
9153,-0.6758,-0.7163,-0.3369,20.020,-6.042,-7.324,-129.386,46.560,-96.746
9163,-0.6743,-0.6958,-0.3569,-10.254,-7.812,-2.625,-129.282,46.533,-96.630
9173,-0.6895,-0.6562,-0.3926,-31.250,-5.249,4.333,-129.496,46.549,-96.614
9183,-0.7158,-0.5474,-0.4600,-38.147,-0.916,7.080,-129.919,46.599,-96.669
9193,-0.7329,-0.4336,-0.5034,-28.442,2.625,7.141,-130.364,46.648,-96.762
9203,-0.7617,-0.3437,-0.5103,-4.883,3.662,6.531,-130.638,46.714,-96.866
9213,-0.7622,-0.3892,-0.4751,23.132,3.235,3.967,-130.567,46.769,-96.938
9223,-0.7368,-0.5229,-0.4092,39.001,1.038,0.244,-130.166,46.774,-96.954
9233,-0.7285,-0.5850,-0.3599,31.372,-3.418,-1.831,-129.727,46.785,-96.899
9243,-0.7329,-0.5986,-0.3501,9.949,-4.822,-0.732,-129.490,46.807,-96.839
9253,-0.7461,-0.5449,-0.3730,-11.536,-2.808,3.052,-129.551,46.868,-96.833
9263,-0.7827,-0.4263,-0.4209,-23.193,0.122,6.409,-129.875,46.972,-96.894
9273,-0.8018,-0.3936,-0.4692,-19.714,3.174,5.737,-130.237,47.049,-96.982
9283,-0.7773,-0.4258,-0.4863,-8.240,3.479,-0.183,-130.430,47.060,-97.020
9293,-0.7334,-0.5171,-0.4873,2.625,0.549,-9.399,-130.375,46.972,-96.938
9303,-0.6865,-0.6494,-0.4639,8.850,-3.113,-16.724,-130.100,46.807,-96.746
9313,-0.6567,-0.7275,-0.4351,6.287,-6.836,-18.616,-129.760,46.615,-96.493
9323,-0.6621,-0.7095,-0.4189,-0.671,-8.423,-13.611,-129.518,46.489,-96.273
9333,-0.7075,-0.5840,-0.4141,-5.066,-7.446,-2.441,-129.452,46.500,-96.163
9343,-0.7710,-0.4795,-0.4199,-0.305,-3.113,10.071,-129.512,46.637,-96.224
9353,-0.7896,-0.4390,-0.4058,11.963,2.258,15.747,-129.551,46.802,-96.394
9363,-0.7812,-0.4312,-0.3833,21.484,3.906,13.855,-129.485,46.950,-96.570
9373,-0.7686,-0.4756,-0.3647,23.499,3.174,9.583,-129.320,47.054,-96.691
9383,-0.7515,-0.5625,-0.3525,15.198,2.197,4.578,-129.144,47.093,-96.762
9393,-0.7241,-0.6045,-0.3647,-2.563,2.930,-0.916,-129.111,47.054,-96.784
9403,-0.7168,-0.5928,-0.4023,-21.423,4.822,-2.441,-129.293,46.983,-96.817
9413,-0.7192,-0.5425,-0.4443,-32.471,7.751,0.122,-129.683,46.923,-96.905
9423,-0.7358,-0.4673,-0.4824,-31.555,10.376,3.235,-130.161,46.890,-97.053
9433,-0.7559,-0.4204,-0.5059,-18.860,12.146,5.066,-130.583,46.873,-97.240
9443,-0.7573,-0.4058,-0.5151,0.977,14.038,3.723,-130.825,46.829,-97.427
9453,-0.7187,-0.4697,-0.4844,21.790,14.526,-0.427,-130.770,46.736,-97.586
9463,-0.6948,-0.5386,-0.4375,32.898,12.085,-3.052,-130.507,46.615,-97.690
9473,-0.6870,-0.6025,-0.3965,28.442,7.629,-2.563,-130.193,46.516,-97.751
9483,-0.6890,-0.6279,-0.3818,13.306,3.967,-0.488,-130.001,46.456,-97.789
9493,-0.6958,-0.6362,-0.3862,-4.333,2.136,2.136,-129.990,46.423,-97.833
9503,-0.7051,-0.5840,-0.4155,-18.555,1.953,4.700,-130.172,46.428,-97.899
9513,-0.7324,-0.4951,-0.4546,-22.583,2.930,6.531,-130.490,46.472,-97.993
9523,-0.7490,-0.4570,-0.4834,-12.756,5.127,6.348,-130.759,46.505,-98.108
9533,-0.7598,-0.4287,-0.4985,3.052,6.104,2.869,-130.880,46.511,-98.201
9543,-0.7583,-0.3838,-0.4971,20.020,5.249,-1.709,-130.831,46.505,-98.245
9553,-0.7539,-0.4282,-0.4634,35.950,3.845,-4.028,-130.540,46.483,-98.251
9563,-0.7334,-0.5542,-0.4224,39.734,0.916,-4.395,-130.089,46.445,-98.218
9573,-0.7217,-0.6226,-0.3867,24.780,-4.028,-4.456,-129.699,46.417,-98.130
9583,-0.7231,-0.6230,-0.3813,0.244,-8.179,-2.808,-129.534,46.434,-98.015
9593,-0.7344,-0.6021,-0.3936,-20.691,-9.155,1.343,-129.611,46.494,-97.921
9603,-0.7539,-0.5278,-0.4341,-31.982,-7.690,3.906,-129.886,46.582,-97.872
9613,-0.7612,-0.4619,-0.4746,-28.320,-3.906,2.197,-130.210,46.648,-97.850
9623,-0.7671,-0.4404,-0.4946,-13.000,0.183,-1.099,-130.413,46.664,-97.844
9633,-0.7568,-0.4580,-0.4985,8.179,5.066,-5.127,-130.408,46.609,-97.850
9643,-0.7280,-0.5044,-0.4536,28.442,9.705,-7.690,-130.166,46.494,-97.883
9653,-0.7134,-0.5674,-0.3975,37.842,12.268,-5.066,-129.803,46.373,-97.976
9663,-0.7061,-0.6025,-0.3662,31.250,14.038,1.648,-129.534,46.280,-98.146
9673,-0.6987,-0.6426,-0.3604,14.160,16.174,8.606,-129.479,46.219,-98.405
9683,-0.6958,-0.6709,-0.3721,-7.507,16.907,13.550,-129.672,46.176,-98.718
9693,-0.6978,-0.6401,-0.4043,-29.053,15.625,14.465,-130.106,46.148,-99.025
9703,-0.7246,-0.4687,-0.4561,-40.649,14.404,13.000,-130.748,46.176,-99.305
9713,-0.7573,-0.3618,-0.5029,-30.029,15.137,12.756,-131.385,46.219,-99.591
9723,-0.7812,-0.3691,-0.5210,-4.395,16.785,11.963,-131.770,46.241,-99.888
9733,-0.7661,-0.4268,-0.5044,20.508,16.174,6.226,-131.819,46.214,-100.124
9743,-0.7373,-0.5005,-0.4731,34.241,11.597,-0.122,-131.583,46.143,-100.245
9753,-0.7070,-0.6421,-0.4312,34.058,4.578,-3.113,-131.182,46.055,-100.267
9763,-0.6870,-0.6646,-0.4067,18.311,-2.502,-4.395,-130.853,45.989,-100.195
9773,-0.6963,-0.6064,-0.4038,-2.136,-7.141,-1.282,-130.737,46.005,-100.107
9783,-0.7358,-0.5200,-0.4180,-14.648,-6.653,5.798,-130.853,46.110,-100.091
9793,-0.7593,-0.4868,-0.4375,-15.015,-1.892,8.667,-131.056,46.214,-100.151
9803,-0.7578,-0.4395,-0.4546,-7.629,2.991,6.042,-131.243,46.280,-100.239
9813,-0.7529,-0.4312,-0.4634,4.822,5.554,1.892,-131.309,46.296,-100.316
9823,-0.7285,-0.4575,-0.4448,18.127,7.202,-1.831,-131.204,46.258,-100.377
9833,-0.7090,-0.5386,-0.4165,24.414,6.348,-3.540,-130.952,46.192,-100.415
9843,-0.7007,-0.6074,-0.3955,18.616,4.150,-2.808,-130.704,46.121,-100.432
9853,-0.6968,-0.6191,-0.3984,3.540,2.502,-2.075,-130.594,46.066,-100.443
9863,-0.7031,-0.5518,-0.4229,-10.681,2.014,0.061,-130.682,46.044,-100.464
9873,-0.7275,-0.5151,-0.4575,-15.442,2.441,3.601,-130.891,46.060,-100.525
9883,-0.7344,-0.5112,-0.4844,-10.559,3.479,3.357,-131.067,46.066,-100.596
9893,-0.7217,-0.4805,-0.4956,-1.892,2.747,-0.183,-131.155,46.049,-100.624
9903,-0.7271,-0.4546,-0.4946,7.935,0.366,-1.526,-131.133,46.044,-100.613
9913,-0.7280,-0.5146,-0.4775,15.869,-1.709,-0.793,-130.974,46.049,-100.585
9923,-0.7217,-0.5400,-0.4644,13.733,-4.822,-1.160,-130.792,46.066,-100.519
9933,-0.7085,-0.5840,-0.4565,3.967,-8.301,-2.563,-130.644,46.077,-100.410
9943,-0.7109,-0.6040,-0.4575,-7.874,-11.169,-3.235,-130.578,46.099,-100.256
9953,-0.7144,-0.5586,-0.4736,-17.090,-13.306,-3.113,-130.616,46.143,-100.080
9963,-0.7217,-0.5190,-0.4775,-18.372,-13.184,-0.793,-130.710,46.214,-99.926
9973,-0.7393,-0.4824,-0.4854,-12.451,-11.414,1.587,-130.798,46.313,-99.816
9983,-0.7534,-0.4126,-0.4829,-1.282,-8.606,1.892,-130.847,46.417,-99.739
9993,-0.7720,-0.3687,-0.4849,13.306,-5.859,1.770,-130.798,46.522,-99.695
10003,-0.7612,-0.4375,-0.4463,27.954,-3.723,-0.366,-130.534,46.582,-99.651
10013,-0.7402,-0.5063,-0.4072,32.104,-4.395,-4.639,-130.133,46.599,-99.558
10023,-0.7349,-0.5630,-0.3872,21.240,-7.751,-6.531,-129.765,46.604,-99.410
10033,-0.7227,-0.6499,-0.3706,3.601,-9.277,-7.019,-129.507,46.582,-99.240
10043,-0.7075,-0.6631,-0.3774,-17.151,-9.827,-7.996,-129.441,46.544,-99.058
10053,-0.7280,-0.5674,-0.4170,-33.813,-9.583,-6.714,-129.622,46.549,-98.888
10063,-0.7485,-0.4673,-0.4580,-35.034,-6.104,-3.784,-129.946,46.582,-98.784
10073,-0.7559,-0.4722,-0.4927,-20.874,-0.732,-2.319,-130.193,46.582,-98.751
10083,-0.7256,-0.5015,-0.4956,-1.648,3.174,-5.249,-130.243,46.516,-98.740
10093,-0.6982,-0.5396,-0.4663,12.817,1.892,-8.423,-130.084,46.417,-98.679
10103,-0.6909,-0.6074,-0.4233,18.066,-1.831,-6.653,-129.792,46.346,-98.597
10113,-0.7031,-0.6489,-0.3828,12.634,-4.272,-2.136,-129.523,46.324,-98.531
10123,-0.7104,-0.7349,-0.3579,-2.319,-4.150,3.113,-129.402,46.318,-98.514
10133,-0.7202,-0.7080,-0.3594,-23.621,-1.831,8.057,-129.545,46.351,-98.569
10143,-0.7632,-0.5562,-0.4258,-39.185,2.991,13.367,-130.029,46.445,-98.723
10153,-0.7969,-0.4438,-0.4907,-31.006,13.550,16.174,-130.627,46.522,-99.025
10163,-0.8184,-0.2983,-0.5679,-0.427,24.597,12.512,-131.127,46.511,-99.415
10173,-0.7544,-0.3169,-0.5469,49.133,31.494,3.601,-131.100,46.368,-99.794
10183,-0.7148,-0.4736,-0.4365,88.196,26.855,1.038,-130.463,46.219,-100.096
10193,-0.6953,-0.6118,-0.3193,90.759,15.686,6.042,-129.600,46.154,-100.327
10203,-0.6914,-0.6885,-0.2451,58.289,6.592,13.794,-128.963,46.187,-100.525
10213,-0.6914,-0.6821,-0.2217,8.179,4.456,21.423,-128.848,46.302,-100.772
10223,-0.7129,-0.5811,-0.2720,-41.992,7.263,26.733,-129.359,46.483,-101.096
10233,-0.7271,-0.4448,-0.3662,-72.693,16.113,24.231,-130.369,46.615,-101.497
10243,-0.7344,-0.3403,-0.4800,-74.646,25.696,15.320,-131.561,46.615,-101.931
10253,-0.7261,-0.2705,-0.5874,-50.842,31.067,3.113,-132.567,46.450,-102.299
10263,-0.6816,-0.3525,-0.6104,-10.986,29.846,-8.789,-133.017,46.165,-102.530
10273,-0.6436,-0.4976,-0.5688,23.499,21.240,-15.503,-132.891,45.851,-102.601
10283,-0.6396,-0.5903,-0.5171,36.865,9.216,-15.259,-132.473,45.610,-102.552
10293,-0.6602,-0.6191,-0.4790,30.701,0.366,-9.583,-132.061,45.483,-102.464
10303,-0.6758,-0.6221,-0.4512,17.822,-2.686,-2.441,-131.786,45.439,-102.409
10313,-0.6992,-0.5640,-0.4619,2.014,-3.174,3.479,-131.743,45.472,-102.409
10323,-0.7295,-0.4624,-0.4902,-9.705,-2.563,6.287,-131.907,45.555,-102.442
10333,-0.7593,-0.3711,-0.5122,-9.460,-1.892,5.798,-132.149,45.654,-102.475
10343,-0.7793,-0.3911,-0.5181,0.061,-1.709,2.136,-132.259,45.731,-102.480
10353,-0.7559,-0.4995,-0.4932,9.521,-2.441,-6.165,-132.127,45.714,-102.393
10363,-0.7217,-0.6265,-0.4512,9.460,-5.493,-14.648,-131.830,45.615,-102.195
10373,-0.7075,-0.6719,-0.4321,-1.953,-9.583,-17.456,-131.567,45.511,-101.926
10383,-0.7187,-0.6221,-0.4292,-14.709,-10.803,-13.123,-131.473,45.461,-101.684
10393,-0.7466,-0.5117,-0.4512,-21.057,-8.667,-4.395,-131.589,45.511,-101.552
10403,-0.7817,-0.4150,-0.4814,-14.160,-3.784,3.723,-131.797,45.615,-101.547
10413,-0.7915,-0.3394,-0.5049,3.418,1.221,6.042,-131.957,45.720,-101.618
10423,-0.7729,-0.4253,-0.4961,23.437,3.113,2.502,-131.841,45.758,-101.673
10433,-0.7300,-0.5728,-0.4521,34.668,0.305,-5.493,-131.429,45.709,-101.624
10443,-0.7061,-0.6357,-0.4287,24.902,-6.836,-12.024,-130.974,45.637,-101.437
10453,-0.6929,-0.6763,-0.4185,6.653,-11.658,-13.428,-130.638,45.566,-101.184
10463,-0.6973,-0.6919,-0.4175,-11.230,-14.526,-10.071,-130.474,45.533,-100.937
10473,-0.7222,-0.5854,-0.4468,-26.245,-16.235,-4.456,-130.551,45.593,-100.717
10483,-0.7563,-0.4297,-0.4883,-26.978,-15.564,0.854,-130.787,45.736,-100.558
10493,-0.7671,-0.3862,-0.5015,-9.216,-10.620,4.150,-130.941,45.884,-100.481
10503,-0.7583,-0.4077,-0.4775,11.292,-7.690,3.601,-130.875,46.005,-100.432
10513,-0.7456,-0.4189,-0.4448,23.315,-7.751,-0.366,-130.644,46.104,-100.344
10523,-0.7241,-0.5103,-0.4014,26.428,-8.545,-4.639,-130.259,46.143,-100.206
10533,-0.7080,-0.6382,-0.3486,15.808,-10.071,-7.874,-129.853,46.126,-100.020
10543,-0.6987,-0.6738,-0.3408,-7.507,-11.658,-10.498,-129.639,46.088,-99.794
10553,-0.7119,-0.6304,-0.3716,-29.602,-11.414,-10.254,-129.683,46.066,-99.575
10563,-0.7368,-0.5117,-0.4292,-40.100,-8.301,-8.240,-129.963,46.071,-99.404
10573,-0.7554,-0.4106,-0.4971,-29.663,-3.418,-6.409,-130.292,46.082,-99.311
10583,-0.7319,-0.4438,-0.5151,-2.930,-0.061,-6.531,-130.364,46.044,-99.245
10593,-0.7007,-0.5552,-0.4790,22.522,-3.479,-10.071,-130.051,45.967,-99.113
10603,-0.6890,-0.6221,-0.4365,29.846,-12.939,-12.146,-129.523,45.917,-98.860
10613,-0.6948,-0.6416,-0.3926,22.278,-21.118,-10.742,-128.985,45.934,-98.525
10623,-0.7012,-0.6626,-0.3677,9.460,-23.071,-6.897,-128.568,45.994,-98.207
10633,-0.7212,-0.6104,-0.3691,-6.470,-21.240,-0.793,-128.381,46.115,-97.960
10643,-0.7505,-0.4956,-0.4062,-17.334,-16.418,5.615,-128.463,46.291,-97.828
10653,-0.7671,-0.4565,-0.4380,-14.160,-8.728,7.568,-128.639,46.445,-97.795
10663,-0.7471,-0.4922,-0.4521,-2.747,-2.014,3.357,-128.710,46.505,-97.806
10673,-0.7241,-0.5342,-0.4390,6.104,-0.061,-1.892,-128.644,46.489,-97.784
10683,-0.7061,-0.5581,-0.4307,9.155,-0.610,-4.639,-128.507,46.439,-97.734
10693,-0.7046,-0.5742,-0.4102,8.057,-1.099,-3.113,-128.370,46.406,-97.696
10703,-0.7168,-0.5571,-0.4097,3.235,-0.916,0.549,-128.309,46.412,-97.690
10713,-0.7334,-0.5269,-0.4214,-1.526,0.122,4.272,-128.359,46.456,-97.729
10723,-0.7383,-0.4941,-0.4380,-2.869,0.610,5.432,-128.458,46.511,-97.784
10733,-0.7339,-0.5166,-0.4399,-0.549,-0.183,3.845,-128.507,46.549,-97.817
10743,-0.7217,-0.5620,-0.4336,0.549,-2.197,0.671,-128.480,46.560,-97.800
10753,-0.7100,-0.5571,-0.4282,-1.831,-4.395,-2.136,-128.441,46.555,-97.729
10763,-0.7241,-0.5161,-0.4297,-4.395,-5.554,-0.732,-128.447,46.593,-97.663
10773,-0.7490,-0.4941,-0.4263,-3.296,-4.456,2.808,-128.485,46.664,-97.635
10783,-0.7529,-0.5142,-0.4253,-0.305,-2.502,2.808,-128.496,46.719,-97.630
10793,-0.7354,-0.5444,-0.4155,1.099,-2.014,-0.854,-128.452,46.730,-97.603
10803,-0.7144,-0.5669,-0.4121,-0.061,-2.808,-3.906,-128.381,46.703,-97.531
10813,-0.7075,-0.5864,-0.4062,-1.648,-3.479,-3.967,-128.304,46.675,-97.460
10823,-0.7104,-0.5879,-0.4092,-3.601,-3.418,-2.014,-128.265,46.659,-97.399
10833,-0.7129,-0.5562,-0.4185,-4.517,-2.747,-0.183,-128.271,46.670,-97.366
10843,-0.7339,-0.4976,-0.4282,-1.526,-2.197,1.831,-128.304,46.708,-97.361
10853,-0.7495,-0.4932,-0.4229,5.798,-1.221,3.540,-128.282,46.769,-97.377
10863,-0.7544,-0.4795,-0.4116,12.207,-0.610,2.930,-128.199,46.829,-97.394
10873,-0.7510,-0.5020,-0.3975,14.404,-0.427,1.770,-128.068,46.873,-97.410
10883,-0.7456,-0.5137,-0.3857,11.536,-0.671,1.099,-127.941,46.912,-97.410
10893,-0.7388,-0.5688,-0.3716,3.479,-1.526,1.038,-127.853,46.934,-97.399
10903,-0.7295,-0.6182,-0.3647,-9.827,-2.747,0.061,-127.853,46.934,-97.372
10913,-0.7241,-0.6206,-0.3867,-25.513,-3.723,-1.038,-128.013,46.928,-97.317
10923,-0.7388,-0.5698,-0.4180,-34.607,-2.686,-1.282,-128.304,46.928,-97.273
10933,-0.7559,-0.4570,-0.4663,-30.273,1.282,-1.526,-128.677,46.928,-97.278
10944,-0.7690,-0.4077,-0.4961,-9.766,7.324,-0.916,-128.947,46.912,-97.350
10953,-0.7422,-0.4590,-0.4727,17.944,11.353,-2.502,-128.919,46.835,-97.460
10963,-0.7310,-0.4653,-0.4321,34.912,8.972,-4.089,-128.655,46.769,-97.520
10973,-0.7290,-0.5215,-0.3975,36.865,3.540,-1.160,-128.298,46.752,-97.553
10983,-0.7227,-0.6270,-0.3628,27.161,-0.427,0.793,-127.952,46.741,-97.553
10993,-0.7051,-0.6606,-0.3613,6.470,-4.028,-1.709,-127.749,46.719,-97.493
11003,-0.6997,-0.6489,-0.3931,-15.625,-6.348,-3.418,-127.766,46.686,-97.388
11013,-0.7100,-0.6284,-0.4268,-27.222,-5.859,-3.845,-127.925,46.659,-97.289
11023,-0.7124,-0.5859,-0.4692,-26.611,-3.357,-5.371,-128.134,46.604,-97.202
11033,-0.7085,-0.5151,-0.4814,-15.564,-0.610,-5.127,-128.298,46.555,-97.147
11043,-0.7314,-0.3872,-0.4854,1.953,0.549,-1.099,-128.408,46.571,-97.141
11053,-0.7578,-0.3975,-0.4429,23.254,1.831,6.104,-128.331,46.664,-97.218
11063,-0.7607,-0.4600,-0.3965,35.278,2.441,9.216,-128.084,46.769,-97.333
11073,-0.7485,-0.5615,-0.3496,30.518,0.488,7.629,-127.771,46.840,-97.405
11083,-0.7251,-0.6616,-0.3208,11.230,-2.380,2.197,-127.535,46.851,-97.399
11093,-0.7051,-0.6831,-0.3267,-15.869,-4.639,-3.418,-127.513,46.813,-97.311
11103,-0.7085,-0.6621,-0.3672,-38.391,-4.150,-5.188,-127.744,46.758,-97.218
11113,-0.7212,-0.5884,-0.4243,-48.401,0.000,-4.639,-128.172,46.703,-97.180
11123,-0.7354,-0.4487,-0.4829,-41.321,5.859,-2.380,-128.699,46.664,-97.224
11133,-0.7583,-0.3096,-0.5273,-17.761,11.230,2.625,-129.194,46.659,-97.377
11143,-0.7754,-0.2734,-0.5264,16.846,14.648,6.104,-129.424,46.675,-97.597
11153,-0.7632,-0.3750,-0.4741,46.997,13.916,5.066,-129.227,46.675,-97.800
11163,-0.7461,-0.5259,-0.4111,56.580,8.057,1.282,-128.727,46.648,-97.905
11173,-0.7266,-0.6602,-0.3545,43.335,-0.366,-5.737,-128.156,46.582,-97.844
11183,-0.7090,-0.7095,-0.3384,14.038,-7.324,-12.146,-127.749,46.489,-97.652
11193,-0.7134,-0.6738,-0.3550,-14.526,-10.498,-12.939,-127.623,46.417,-97.416
11203,-0.7402,-0.5703,-0.3979,-31.921,-8.850,-8.667,-127.782,46.406,-97.240
11213,-0.7603,-0.4980,-0.4521,-30.762,-3.418,-4.395,-128.079,46.412,-97.163
11223,-0.7637,-0.4727,-0.4800,-16.052,1.221,-2.380,-128.304,46.412,-97.152
11233,-0.7466,-0.4678,-0.4756,3.479,2.380,-4.150,-128.337,46.379,-97.141
11243,-0.7231,-0.5562,-0.4385,20.142,0.244,-6.042,-128.095,46.324,-97.092
11253,-0.6943,-0.6729,-0.3843,24.414,-3.113,-6.775,-127.705,46.247,-96.998
11263,-0.6792,-0.6899,-0.3564,12.207,-5.798,-5.615,-127.397,46.187,-96.877
11273,-0.6841,-0.6836,-0.3403,-4.822,-5.676,0.427,-127.288,46.181,-96.817
11283,-0.7231,-0.6143,-0.3643,-21.118,-4.700,9.155,-127.452,46.274,-96.844
11293,-0.7524,-0.5210,-0.4072,-28.320,-2.014,13.550,-127.804,46.417,-96.943
11303,-0.7671,-0.4302,-0.4443,-21.973,0.854,12.329,-128.188,46.555,-97.059
11313,-0.7812,-0.3481,-0.4731,-5.981,2.502,9.033,-128.485,46.675,-97.169
11323,-0.7778,-0.3901,-0.4658,15.991,4.517,3.357,-128.502,46.725,-97.251
11333,-0.7466,-0.4614,-0.4243,32.227,4.517,-4.883,-128.227,46.692,-97.256
11343,-0.7246,-0.5244,-0.3892,32.898,1.404,-8.606,-127.842,46.631,-97.196
11353,-0.7144,-0.6777,-0.3535,20.264,-1.465,-7.996,-127.474,46.544,-97.108
11363,-0.6875,-0.7397,-0.3511,-4.089,-3.479,-8.240,-127.310,46.434,-96.998
11373,-0.6846,-0.6782,-0.3770,-29.236,-5.005,-5.493,-127.441,46.368,-96.888
11383,-0.7197,-0.5327,-0.4326,-42.053,-3.540,1.282,-127.853,46.401,-96.861
11393,-0.7500,-0.4687,-0.4805,-32.532,1.709,6.775,-128.309,46.461,-96.938
11403,-0.7534,-0.4561,-0.4961,-10.559,6.470,6.958,-128.606,46.494,-97.075
11413,-0.7412,-0.4321,-0.4922,10.498,6.958,2.197,-128.672,46.489,-97.174
11423,-0.7324,-0.4409,-0.4595,27.710,4.944,-2.075,-128.502,46.467,-97.213
11433,-0.7197,-0.5723,-0.4014,36.133,2.197,-2.319,-128.112,46.428,-97.218
11444,-0.7026,-0.6611,-0.3657,26.550,-1.160,-2.441,-127.733,46.384,-97.180
11453,-0.6938,-0.6836,-0.3662,4.272,-4.272,-2.869,-127.540,46.340,-97.108
11463,-0.6953,-0.6787,-0.3799,-17.334,-4.883,-0.488,-127.584,46.318,-97.048
11473,-0.7148,-0.6104,-0.4180,-31.616,-4.272,2.869,-127.848,46.346,-97.026
11483,-0.7339,-0.5229,-0.4639,-32.654,-2.136,4.822,-128.221,46.395,-97.042
11493,-0.7476,-0.4424,-0.4863,-19.897,-0.183,5.615,-128.551,46.467,-97.092
11503,-0.7622,-0.3921,-0.4829,0.854,0.244,4.822,-128.699,46.544,-97.136
11513,-0.7666,-0.3750,-0.4531,22.339,0.122,2.380,-128.611,46.620,-97.158
11523,-0.7539,-0.4468,-0.4038,36.377,-0.916,0.122,-128.282,46.675,-97.152
11533,-0.7437,-0.5659,-0.3501,34.607,-3.052,-1.038,-127.837,46.703,-97.108
11543,-0.7212,-0.6685,-0.3257,15.686,-5.188,-4.272,-127.496,46.675,-97.009
11553,-0.6963,-0.7217,-0.3301,-12.146,-6.714,-6.531,-127.386,46.609,-96.872
11563,-0.7012,-0.6821,-0.3638,-36.987,-6.897,-5.188,-127.573,46.566,-96.746
11573,-0.7227,-0.5840,-0.4224,-48.218,-4.089,-1.892,-127.985,46.560,-96.685
11583,-0.7388,-0.4829,-0.4741,-40.039,0.732,1.892,-128.463,46.582,-96.707
11593,-0.7637,-0.3594,-0.5088,-16.846,4.089,5.371,-128.864,46.637,-96.806
11603,-0.7812,-0.3145,-0.5049,15.381,5.798,6.958,-128.996,46.719,-96.932
11613,-0.7588,-0.4023,-0.4507,43.396,5.737,4.883,-128.738,46.769,-97.042
11623,-0.7271,-0.5527,-0.3779,52.490,1.831,0.977,-128.194,46.769,-97.070
11633,-0.7070,-0.6919,-0.3286,37.109,-4.028,-3.967,-127.639,46.725,-96.993
11644,-0.6816,-0.7510,-0.3076,6.348,-8.301,-8.301,-127.304,46.642,-96.823
11653,-0.6855,-0.7305,-0.3267,-24.353,-9.583,-6.775,-127.288,46.588,-96.652
11663,-0.7168,-0.6191,-0.3794,-44.556,-6.775,-1.038,-127.606,46.599,-96.564
11673,-0.7495,-0.4912,-0.4536,-45.410,-1.099,4.089,-128.128,46.653,-96.586
11683,-0.7695,-0.3955,-0.4946,-26.672,4.639,7.263,-128.606,46.719,-96.702
11693,-0.7793,-0.2773,-0.5254,2.380,7.690,6.409,-128.925,46.785,-96.850
11703,-0.7681,-0.3252,-0.4863,35.461,8.179,3.357,-128.837,46.818,-96.976
11713,-0.7290,-0.5122,-0.4116,56.152,5.615,-0.793,-128.320,46.785,-97.031
11723,-0.7095,-0.6621,-0.3457,48.340,-0.183,-5.615,-127.694,46.714,-96.976
11733,-0.6875,-0.7290,-0.3174,19.409,-5.432,-9.705,-127.255,46.609,-96.828
11743,-0.6870,-0.7334,-0.3130,-13.000,-7.690,-8.240,-127.128,46.533,-96.669
11753,-0.7241,-0.6069,-0.3579,-39.368,-6.592,-1.343,-127.386,46.555,-96.581
11763,-0.7642,-0.4976,-0.4277,-46.753,-1.343,4.761,-127.903,46.631,-96.603
11773,-0.7759,-0.4272,-0.4775,-34.119,4.028,6.470,-128.419,46.692,-96.707
11783,-0.7729,-0.4092,-0.5049,-11.902,6.287,3.357,-128.732,46.714,-96.812
11793,-0.7373,-0.4639,-0.4907,12.024,4.944,-3.296,-128.710,46.664,-96.839
11803,-0.7124,-0.5576,-0.4414,28.442,1.038,-7.385,-128.386,46.588,-96.784
11813,-0.7046,-0.6387,-0.3989,27.649,-2.991,-5.859,-127.985,46.522,-96.696
11823,-0.6982,-0.6680,-0.3711,14.465,-4.944,-1.648,-127.705,46.500,-96.625
11833,-0.7056,-0.6328,-0.3755,-2.625,-5.981,4.639,-127.639,46.544,-96.597
11843,-0.7305,-0.5825,-0.3989,-15.747,-6.836,11.047,-127.776,46.670,-96.614
11853,-0.7534,-0.5195,-0.4297,-19.958,-7.202,13.245,-128.018,46.829,-96.652
11863,-0.7651,-0.4653,-0.4507,-14.526,-7.507,11.169,-128.232,46.994,-96.663
11873,-0.7686,-0.4448,-0.4517,-2.380,-7.263,6.958,-128.315,47.126,-96.647
11883,-0.7588,-0.4814,-0.4365,10.864,-5.859,1.831,-128.205,47.197,-96.592
11893,-0.7412,-0.5356,-0.4097,18.555,-4.517,-2.747,-127.958,47.214,-96.515
11903,-0.7349,-0.5635,-0.3833,16.785,-3.418,-3.784,-127.705,47.203,-96.443
11913,-0.7339,-0.5601,-0.3760,8.667,-2.197,-2.258,-127.546,47.197,-96.394
11923,-0.7407,-0.5459,-0.3911,0.610,-0.793,0.305,-127.513,47.214,-96.389
11933,-0.7393,-0.5596,-0.3989,-3.235,0.671,0.854,-127.540,47.214,-96.405
11944,-0.7305,-0.5376,-0.4097,-4.578,0.916,-0.427,-127.584,47.208,-96.411
11953,-0.7358,-0.5010,-0.4209,-2.563,0.488,-0.427,-127.639,47.214,-96.416
11963,-0.7461,-0.4966,-0.4253,3.906,0.732,0.427,-127.639,47.225,-96.427
11973,-0.7437,-0.5249,-0.4082,10.681,0.977,-0.427,-127.540,47.225,-96.432
11983,-0.7310,-0.5576,-0.3896,11.475,-0.061,-1.343,-127.392,47.214,-96.422
11993,-0.7349,-0.5527,-0.3804,5.188,-2.319,-0.183,-127.288,47.230,-96.394
12003,-0.7480,-0.5532,-0.3838,-2.930,-3.357,2.258,-127.277,47.280,-96.372
12013,-0.7520,-0.5444,-0.4053,-8.911,-2.686,3.052,-127.359,47.324,-96.367
12023,-0.7456,-0.5493,-0.4229,-10.986,-1.465,1.282,-127.463,47.340,-96.361
12033,-0.7339,-0.5552,-0.4341,-8.850,-0.366,-1.404,-127.546,47.318,-96.345
12043,-0.7275,-0.5571,-0.4307,-3.906,0.183,-2.625,-127.568,47.285,-96.323
12053,-0.7354,-0.5283,-0.4287,1.892,-0.061,-1.526,-127.557,47.274,-96.312
12063,-0.7539,-0.4990,-0.4155,8.423,-0.305,0.793,-127.496,47.302,-96.312
12073,-0.7720,-0.4644,-0.3989,14.343,-0.549,1.587,-127.392,47.362,-96.323
12083,-0.7739,-0.4697,-0.3765,17.578,-0.977,0.854,-127.227,47.422,-96.317
12093,-0.7559,-0.5439,-0.3530,15.198,-1.831,-1.282,-127.013,47.439,-96.284
12103,-0.7310,-0.6025,-0.3423,3.906,-3.784,-3.784,-126.843,47.422,-96.207
12113,-0.7168,-0.6304,-0.3750,-24.719,-5.371,-4.761,-126.947,47.390,-96.103
12123,-0.7266,-0.5620,-0.4126,-29.236,-3.174,-2.808,-127.183,47.373,-96.037
12133,-0.7417,-0.4751,-0.4395,-21.118,0.671,0.000,-127.458,47.384,-96.048
12143,-0.7588,-0.4399,-0.4448,-2.441,4.578,2.563,-127.617,47.406,-96.125
12153,-0.7466,-0.4609,-0.4282,17.334,6.836,1.404,-127.562,47.401,-96.218
12163,-0.7158,-0.5239,-0.3809,29.114,5.615,-1.831,-127.299,47.357,-96.268
12173,-0.7173,-0.5674,-0.3462,25.146,1.221,-1.404,-126.991,47.340,-96.268
12183,-0.7158,-0.6401,-0.3306,11.169,-0.916,-0.732,-126.771,47.313,-96.251
12193,-0.7036,-0.6597,-0.3413,-8.423,-0.916,-1.282,-126.744,47.269,-96.229
12203,-0.7139,-0.6060,-0.3809,-26.184,0.427,0.488,-126.964,47.247,-96.235
12213,-0.7349,-0.5083,-0.4341,-30.823,3.235,2.869,-127.348,47.258,-96.301
12223,-0.7607,-0.4375,-0.4731,-19.348,6.104,4.028,-127.716,47.274,-96.411
12233,-0.7773,-0.3872,-0.4888,2.686,8.057,2.869,-127.919,47.291,-96.526
12243,-0.7754,-0.3940,-0.4668,26.306,8.362,-0.366,-127.842,47.280,-96.619
12253,-0.7578,-0.5166,-0.4131,40.833,6.714,-3.418,-127.480,47.230,-96.669
12263,-0.7329,-0.6328,-0.3628,35.034,2.747,-6.470,-127.040,47.142,-96.641
12273,-0.7109,-0.7114,-0.3389,11.353,-1.709,-8.179,-126.744,47.038,-96.548
12283,-0.7080,-0.7046,-0.3521,-16.846,-4.883,-5.554,-126.733,46.972,-96.443
12293,-0.7290,-0.6353,-0.3862,-37.781,-5.310,0.671,-127.013,46.983,-96.389
12303,-0.7520,-0.5332,-0.4360,-42.664,-2.625,5.249,-127.469,47.043,-96.405
12313,-0.7759,-0.4302,-0.4712,-29.236,0.610,7.568,-127.914,47.137,-96.476
12323,-0.7881,-0.3896,-0.4863,-5.066,3.662,6.897,-128.172,47.214,-96.581
12333,-0.7744,-0.3901,-0.4727,20.264,5.249,1.892,-128.150,47.241,-96.663
12343,-0.7397,-0.5151,-0.4165,39.490,4.700,-3.906,-127.782,47.192,-96.680
12353,-0.7124,-0.6284,-0.3584,38.879,1.343,-6.470,-127.288,47.104,-96.636
12363,-0.6973,-0.6836,-0.3413,19.165,-2.869,-6.226,-126.925,47.027,-96.548
12373,-0.6958,-0.6826,-0.3423,-4.822,-4.395,-2.319,-126.815,46.989,-96.476
12383,-0.7217,-0.5933,-0.3716,-24.414,-4.211,4.456,-127.002,47.038,-96.465
12393,-0.7568,-0.4722,-0.4248,-30.273,-2.136,9.460,-127.397,47.153,-96.526
12403,-0.7773,-0.3999,-0.4551,-18.799,0.183,9.766,-127.760,47.280,-96.614
12413,-0.7778,-0.3765,-0.4624,0.305,1.587,5.066,-127.936,47.362,-96.680
12423,-0.7544,-0.4004,-0.4404,18.188,1.221,-2.319,-127.848,47.379,-96.669
12433,-0.7227,-0.5454,-0.3901,28.320,-1.038,-7.202,-127.485,47.329,-96.592
12444,-0.6997,-0.6562,-0.3481,20.447,-4.089,-9.949,-127.090,47.230,-96.454
12453,-0.6797,-0.6904,-0.3496,0.000,-6.531,-9.705,-126.870,47.137,-96.295
12463,-0.6885,-0.6689,-0.3618,-19.165,-7.507,-3.052,-126.892,47.104,-96.180
12473,-0.7241,-0.5801,-0.4062,-30.579,-6.775,5.432,-127.150,47.175,-96.147
12483,-0.7446,-0.5239,-0.4434,-27.649,-4.944,10.010,-127.480,47.285,-96.180
12493,-0.7539,-0.4790,-0.4619,-14.648,-4.944,10.681,-127.716,47.411,-96.218
12503,-0.7539,-0.4731,-0.4575,2.197,-6.409,7.996,-127.755,47.527,-96.213
12513,-0.7476,-0.5059,-0.4321,16.907,-7.446,4.456,-127.579,47.615,-96.169
12523,-0.7500,-0.5283,-0.3960,22.827,-8.301,2.686,-127.293,47.697,-96.092
12533,-0.7544,-0.5737,-0.3657,18.921,-7.996,2.625,-127.007,47.769,-96.021
12543,-0.7510,-0.6108,-0.3506,7.141,-6.836,2.502,-126.821,47.818,-95.966
12553,-0.7510,-0.6011,-0.3545,-8.118,-5.371,1.709,-126.804,47.856,-95.916
12563,-0.7632,-0.5542,-0.3838,-18.616,-2.747,1.831,-126.953,47.895,-95.900
12573,-0.7725,-0.4805,-0.4097,-17.212,2.197,1.221,-127.189,47.922,-95.933
12583,-0.7812,-0.3999,-0.4399,-5.249,7.690,-0.305,-127.408,47.922,-96.026
12593,-0.7769,-0.3970,-0.4380,13.611,11.658,-2.197,-127.463,47.884,-96.141
12603,-0.7603,-0.4565,-0.4082,30.029,11.292,-5.981,-127.271,47.802,-96.224
12613,-0.7427,-0.5435,-0.3750,33.508,7.446,-9.338,-126.914,47.686,-96.224
12623,-0.7334,-0.6055,-0.3379,21.973,2.319,-8.728,-126.584,47.593,-96.174
12633,-0.7305,-0.6191,-0.3340,0.610,-1.038,-5.371,-126.453,47.543,-96.114
12643,-0.7412,-0.5483,-0.3555,-19.836,-1.831,-0.549,-126.590,47.560,-96.086
12653,-0.7710,-0.4844,-0.3901,-30.579,-0.610,3.601,-126.936,47.626,-96.114
12663,-0.7842,-0.4194,-0.4224,-27.893,1.770,2.686,-127.326,47.692,-96.158
12673,-0.7881,-0.4072,-0.4448,-15.625,3.174,-1.709,-127.601,47.708,-96.180
12683,-0.7559,-0.5195,-0.4395,1.160,4.333,-9.216,-127.590,47.609,-96.147
12693,-0.7017,-0.6519,-0.4194,11.475,3.967,-17.639,-127.348,47.395,-96.037
12703,-0.6626,-0.7583,-0.3818,9.583,0.671,-19.958,-127.018,47.137,-95.861
12713,-0.6743,-0.7114,-0.3760,-3.418,-3.296,-13.428,-126.848,46.983,-95.707
12723,-0.7236,-0.5811,-0.3906,-12.939,-3.967,-0.122,-126.914,46.994,-95.658
12733,-0.7788,-0.4922,-0.3940,-11.475,-0.732,12.695,-127.117,47.137,-95.762
12743,-0.8032,-0.4126,-0.4136,-2.686,3.113,16.418,-127.359,47.318,-95.944
12753,-0.7969,-0.4282,-0.4160,9.094,4.822,11.414,-127.452,47.439,-96.103
12763,-0.7617,-0.4985,-0.3955,18.005,4.272,0.305,-127.321,47.439,-96.158
12773,-0.7202,-0.5811,-0.3789,16.174,0.916,-7.874,-127.073,47.362,-96.097
12783,-0.6997,-0.6621,-0.3735,3.906,-2.319,-9.399,-126.881,47.252,-95.982
12793,-0.6870,-0.6938,-0.3779,-11.841,-3.418,-7.751,-126.832,47.148,-95.878
12803,-0.7002,-0.6182,-0.4131,-25.818,-2.991,-2.991,-127.013,47.104,-95.812
12813,-0.7261,-0.5391,-0.4561,-26.794,-0.244,3.052,-127.326,47.115,-95.839
12823,-0.7383,-0.5347,-0.4683,-13.550,2.747,6.897,-127.568,47.142,-95.933
12833,-0.7310,-0.5142,-0.4663,2.686,3.235,5.310,-127.650,47.159,-96.015
12843,-0.7271,-0.4946,-0.4448,16.235,1.099,3.174,-127.562,47.181,-96.059
12853,-0.7231,-0.5547,-0.4004,24.719,-1.587,3.601,-127.310,47.214,-96.070
12863,-0.7187,-0.5835,-0.3608,21.057,-4.150,4.272,-127.040,47.263,-96.064
12873,-0.7231,-0.5752,-0.3521,7.690,-5.981,4.578,-126.887,47.335,-96.031
12883,-0.7383,-0.5518,-0.3550,-5.920,-5.798,5.737,-126.892,47.422,-96.015
12893,-0.7612,-0.4839,-0.3828,-14.465,-3.357,6.287,-127.062,47.532,-96.031
12903,-0.7661,-0.4697,-0.4067,-12.695,0.732,5.188,-127.266,47.598,-96.086
12913,-0.7549,-0.4893,-0.4243,-3.845,4.272,1.648,-127.386,47.604,-96.152
12923,-0.7427,-0.4893,-0.4302,4.761,5.371,-1.831,-127.414,47.571,-96.196
12933,-0.7432,-0.4946,-0.4292,11.658,5.371,-2.502,-127.365,47.527,-96.240
12944,-0.7412,-0.5557,-0.4155,15.747,5.127,-2.197,-127.233,47.477,-96.279
12953,-0.7241,-0.5908,-0.4004,12.939,3.540,-2.930,-127.084,47.411,-96.295
12963,-0.7275,-0.5771,-0.3984,4.456,0.183,-1.892,-127.002,47.379,-96.279
12973,-0.7393,-0.5527,-0.3984,-2.563,-2.563,1.099,-127.002,47.406,-96.257
12983,-0.7520,-0.5361,-0.4019,-5.493,-4.150,2.930,-127.040,47.461,-96.235
12993,-0.7456,-0.5474,-0.4019,-5.249,-4.639,1.831,-127.051,47.505,-96.196
13003,-0.7314,-0.5586,-0.3862,-4.089,-4.944,-0.061,-127.029,47.532,-96.141
13013,-0.7383,-0.5361,-0.3926,-4.272,-4.822,0.244,-127.024,47.565,-96.086
13023,-0.7461,-0.5376,-0.3906,-2.563,-2.075,1.831,-127.029,47.598,-96.075
13033,-0.7505,-0.5239,-0.3960,-0.671,0.732,2.075,-127.057,47.626,-96.103
13043,-0.7627,-0.4531,-0.4067,2.380,2.380,1.831,-127.117,47.664,-96.147
13053,-0.7710,-0.4277,-0.4092,8.850,3.296,2.014,-127.134,47.708,-96.207
13063,-0.7744,-0.3833,-0.3882,14.099,3.052,1.953,-127.117,47.774,-96.257
13073,-0.7798,-0.4312,-0.3784,13.489,0.916,3.113,-127.051,47.856,-96.295
13083,-0.7695,-0.5054,-0.3569,5.615,-1.221,0.549,-126.974,47.900,-96.290
13093,-0.7476,-0.5947,-0.3574,-9.949,-4.089,-7.080,-126.931,47.862,-96.174
13103,-0.7241,-0.6440,-0.3774,-26.428,-5.371,-14.893,-126.980,47.736,-95.977
13113,-0.7222,-0.6157,-0.4077,-36.255,-5.005,-19.104,-127.134,47.582,-95.746
13123,-0.7310,-0.5146,-0.4492,-32.715,-1.404,-17.334,-127.375,47.450,-95.576
13133,-0.7485,-0.4775,-0.4775,-13.245,3.601,-10.498,-127.546,47.351,-95.526
13143,-0.7368,-0.5259,-0.4653,13.306,7.263,-6.531,-127.469,47.247,-95.548
13153,-0.6953,-0.6333,-0.4199,30.884,5.859,-7.019,-127.128,47.104,-95.554
13163,-0.6621,-0.7397,-0.3657,28.076,0.671,-6.897,-126.705,46.967,-95.504
13173,-0.6587,-0.6958,-0.3496,8.728,-4.211,-3.967,-126.458,46.890,-95.416
13183,-0.6890,-0.6099,-0.3560,-10.071,-4.517,4.089,-126.480,46.923,-95.400
13193,-0.7480,-0.4785,-0.3818,-20.203,-1.953,12.268,-126.766,47.071,-95.482
13203,-0.7900,-0.4160,-0.4233,-17.883,2.075,13.062,-127.128,47.225,-95.625
13213,-0.7842,-0.4268,-0.4336,-6.897,5.005,5.798,-127.359,47.291,-95.735
13223,-0.7607,-0.4473,-0.4380,3.174,4.761,-3.906,-127.414,47.263,-95.757
13233,-0.7310,-0.5532,-0.4185,9.583,4.395,-9.155,-127.293,47.153,-95.724
13243,-0.7026,-0.6309,-0.3989,5.798,3.296,-10.071,-127.150,47.016,-95.674
13253,-0.6958,-0.5947,-0.4111,-5.371,1.709,-7.263,-127.145,46.917,-95.630
13263,-0.7236,-0.5312,-0.4287,-12.207,0.671,-0.244,-127.288,46.912,-95.636
13273,-0.7559,-0.5181,-0.4351,-11.047,0.549,3.540,-127.452,46.950,-95.674
13284,-0.7661,-0.4766,-0.4512,-5.615,-0.305,0.610,-127.568,46.978,-95.674
13293,-0.7568,-0.4971,-0.4463,5.188,-1.221,-5.005,-127.518,46.961,-95.614
13303,-0.7290,-0.5664,-0.4150,16.602,-1.587,-10.010,-127.266,46.884,-95.510
13313,-0.7256,-0.5947,-0.3960,19.531,-3.174,-10.254,-126.942,46.813,-95.378
13323,-0.7231,-0.6562,-0.3662,15.564,-3.296,-6.104,-126.645,46.752,-95.290
13333,-0.7212,-0.6450,-0.3628,4.944,-3.052,-2.197,-126.480,46.730,-95.235
13344,-0.7402,-0.5859,-0.3784,-5.920,-2.747,2.686,-126.497,46.763,-95.224
13354,-0.7515,-0.5605,-0.3887,-9.705,-0.793,6.409,-126.612,46.829,-95.268
13364,-0.7466,-0.5342,-0.3994,-9.216,0.610,6.287,-126.749,46.890,-95.334
13374,-0.7446,-0.5376,-0.4077,-7.019,0.793,4.639,-126.859,46.934,-95.383
13383,-0.7358,-0.5557,-0.4155,-4.395,0.854,2.380,-126.925,46.945,-95.411
13394,-0.7251,-0.5518,-0.4248,-1.465,0.854,-0.122,-126.953,46.934,-95.422
13403,-0.7285,-0.5186,-0.4238,2.991,0.488,-0.244,-126.947,46.934,-95.427
13413,-0.7515,-0.5034,-0.4185,9.155,-0.305,1.831,-126.892,46.967,-95.438
13424,-0.7495,-0.5425,-0.3843,14.160,-1.038,2.441,-126.744,47.010,-95.449
13434,-0.7363,-0.5439,-0.3604,10.681,-3.052,1.709,-126.590,47.054,-95.427
13444,-0.7402,-0.5264,-0.3584,0.427,-4.883,3.235,-126.541,47.131,-95.400
13453,-0.7490,-0.5288,-0.3628,-10.193,-4.395,5.127,-126.617,47.219,-95.389
13464,-0.7480,-0.5127,-0.3853,-18.677,-2.869,3.601,-126.804,47.291,-95.389
13474,-0.7456,-0.5122,-0.4204,-20.813,-1.038,0.305,-127.029,47.307,-95.378
13484,-0.7290,-0.5664,-0.4375,-14.709,1.404,-3.906,-127.167,47.252,-95.361
13493,-0.7026,-0.5908,-0.4414,-6.104,2.563,-7.324,-127.200,47.142,-95.323
13503,-0.6968,-0.5615,-0.4282,2.136,1.953,-6.104,-127.156,47.054,-95.295
13513,-0.7324,-0.5034,-0.4185,9.705,0.610,0.549,-127.095,47.071,-95.306
13523,-0.7524,-0.4814,-0.3901,16.663,0.610,5.615,-126.991,47.142,-95.361
13533,-0.7573,-0.4644,-0.3784,17.944,0.488,6.287,-126.876,47.236,-95.422
13544,-0.7539,-0.5635,-0.3540,12.634,-0.427,3.784,-126.727,47.285,-95.455
13554,-0.7310,-0.6035,-0.3545,-1.648,-1.953,-2.686,-126.645,47.263,-95.405
13564,-0.7187,-0.6021,-0.3857,-17.517,-3.540,-6.897,-126.705,47.208,-95.301
13574,-0.7305,-0.5483,-0.4165,-23.560,-2.930,-6.531,-126.876,47.170,-95.213
13584,-0.7607,-0.4321,-0.4580,-16.113,-0.305,-4.272,-127.101,47.170,-95.169
13593,-0.7930,-0.3701,-0.4687,6.042,3.418,-1.343,-127.211,47.197,-95.197
13604,-0.7808,-0.4263,-0.4360,32.288,6.409,-2.380,-127.013,47.186,-95.251
13614,-0.7354,-0.6060,-0.3794,43.701,4.883,-6.836,-126.530,47.093,-95.246
13623,-0.6924,-0.7529,-0.3267,28.625,-0.671,-10.254,-126.046,46.945,-95.153
13633,-0.6743,-0.7603,-0.3325,-3.479,-5.981,-9.644,-125.843,46.824,-94.999
13645,-0.6899,-0.7168,-0.3574,-31.494,-6.653,-1.953,-125.991,46.785,-94.900
13654,-0.7300,-0.5684,-0.4263,-45.471,-2.747,5.981,-126.464,46.840,-94.922
13664,-0.7607,-0.4561,-0.4873,-36.438,2.808,9.216,-127.013,46.917,-95.032
13674,-0.7656,-0.4385,-0.5015,-10.742,6.165,6.653,-127.332,46.950,-95.164
13684,-0.7480,-0.3838,-0.4849,17.151,5.005,-0.793,-127.343,46.950,-95.213
13694,-0.7271,-0.4697,-0.4243,41.321,1.770,-4.395,-126.964,46.923,-95.197
13704,-0.7051,-0.6226,-0.3394,46.875,-1.404,-4.700,-126.376,46.873,-95.142
13714,-0.6875,-0.6738,-0.3130,26.489,-5.127,-5.493,-125.920,46.818,-95.032
13723,-0.6919,-0.6396,-0.3203,-1.465,-6.287,-2.747,-125.771,46.807,-94.933
13734,-0.7217,-0.5815,-0.3516,-22.156,-3.967,2.625,-125.925,46.851,-94.911
13744,-0.7495,-0.5308,-0.4092,-28.503,0.488,4.272,-126.255,46.895,-94.949
13754,-0.7510,-0.4971,-0.4541,-21.606,3.662,1.892,-126.573,46.901,-95.010
13764,-0.7358,-0.5166,-0.4644,-5.737,5.554,-1.953,-126.722,46.851,-95.059
13774,-0.7227,-0.4814,-0.4521,10.925,5.859,-4.272,-126.700,46.791,-95.092
13784,-0.7363,-0.4946,-0.4243,24.963,4.333,-1.831,-126.519,46.769,-95.125
13794,-0.7461,-0.5278,-0.3760,30.334,3.418,1.160,-126.244,46.780,-95.175
13804,-0.7515,-0.5483,-0.3584,22.034,1.221,2.197,-126.019,46.813,-95.208
13814,-0.7456,-0.6108,-0.3447,6.165,-0.854,2.014,-125.898,46.829,-95.219
13824,-0.7285,-0.6694,-0.3496,-14.404,-2.930,-0.793,-125.925,46.813,-95.175
13834,-0.7100,-0.7026,-0.3770,-34.363,-4.395,-3.113,-126.134,46.763,-95.098
13844,-0.7178,-0.6021,-0.4150,-44.861,-4.761,-3.906,-126.497,46.736,-95.004
13854,-0.7480,-0.4580,-0.4624,-38.635,-2.502,0.244,-126.947,46.774,-94.977
13864,-0.7866,-0.3911,-0.4761,-13.367,1.526,6.226,-127.266,46.868,-95.054
13874,-0.8091,-0.3320,-0.4756,18.311,4.944,6.042,-127.343,46.961,-95.164
13884,-0.7832,-0.3975,-0.4385,45.959,6.165,0.488,-127.051,46.989,-95.240
13894,-0.7197,-0.6548,-0.3530,57.007,3.418,-5.249,-126.392,46.895,-95.229
13904,-0.6899,-0.7495,-0.3091,35.828,-3.845,-10.254,-125.799,46.774,-95.098
13914,-0.6777,-0.7144,-0.3169,1.343,-9.216,-9.644,-125.530,46.692,-94.905
13924,-0.7134,-0.6128,-0.3384,-23.804,-8.972,-0.122,-125.623,46.730,-94.801
13934,-0.7690,-0.4707,-0.4004,-32.104,-4.883,8.362,-125.997,46.868,-94.812
13944,-0.8052,-0.3564,-0.4390,-19.226,-0.793,10.071,-126.392,47.038,-94.889
13954,-0.8237,-0.2886,-0.4551,3.967,1.343,5.798,-126.612,47.170,-94.955
13964,-0.7915,-0.4229,-0.4272,29.358,2.930,-3.723,-126.414,47.181,-94.955
13974,-0.7036,-0.6514,-0.3521,40.161,2.136,-16.113,-125.848,47.005,-94.839
13984,-0.6504,-0.7549,-0.3198,23.254,-2.197,-22.522,-125.332,46.752,-94.620
13994,-0.6338,-0.7637,-0.3101,-4.761,-4.150,-17.822,-125.101,46.538,-94.422
14004,-0.6753,-0.6313,-0.3457,-30.884,-3.174,-3.479,-125.294,46.494,-94.356
14014,-0.7358,-0.4980,-0.4067,-39.795,1.404,10.132,-125.804,46.593,-94.455
14024,-0.7632,-0.4438,-0.4487,-29.114,5.737,12.695,-126.310,46.697,-94.631
14034,-0.7539,-0.3940,-0.4673,-10.620,5.432,5.432,-126.634,46.752,-94.746
14044,-0.7305,-0.4854,-0.4346,10.559,2.380,-3.235,-126.579,46.730,-94.746
14054,-0.7002,-0.6157,-0.3857,19.470,-1.526,-9.460,-126.271,46.637,-94.642
14064,-0.6714,-0.6714,-0.3623,12.085,-4.395,-12.939,-125.953,46.505,-94.482
14074,-0.6538,-0.7476,-0.3418,-1.404,-3.967,-10.315,-125.755,46.362,-94.345
14084,-0.6665,-0.7187,-0.3560,-18.372,-3.113,-4.028,-125.793,46.285,-94.274
14094,-0.7163,-0.5679,-0.4097,-28.503,-0.671,2.930,-126.090,46.307,-94.290
14104,-0.7583,-0.4951,-0.4448,-19.592,4.578,8.606,-126.431,46.373,-94.417
14114,-0.7837,-0.4404,-0.4712,-0.183,9.644,8.606,-126.672,46.428,-94.603
14124,-0.7827,-0.3550,-0.4717,23.315,12.329,3.113,-126.727,46.445,-94.774
14134,-0.7793,-0.4219,-0.4326,46.265,12.573,0.061,-126.464,46.428,-94.922
14144,-0.7402,-0.6094,-0.3599,52.429,10.010,-2.441,-125.953,46.346,-95.021
14154,-0.7095,-0.7109,-0.3291,30.212,2.869,-6.287,-125.530,46.241,-94.999
14164,-0.7007,-0.7642,-0.3301,-5.920,-3.845,-6.592,-125.398,46.148,-94.900
14174,-0.7046,-0.7583,-0.3560,-38.940,-5.859,-3.235,-125.612,46.093,-94.801
14184,-0.7217,-0.6338,-0.4312,-58.167,-3.357,-0.122,-126.145,46.082,-94.763
14194,-0.7378,-0.4976,-0.5034,-51.758,1.892,3.296,-126.782,46.099,-94.812
14204,-0.7554,-0.4458,-0.5332,-24.475,6.287,7.507,-127.255,46.137,-94.949
14214,-0.7622,-0.4292,-0.5220,8.728,6.409,7.141,-127.403,46.176,-95.087
14224,-0.7476,-0.4512,-0.4751,35.828,2.991,3.662,-127.183,46.214,-95.153
14234,-0.7305,-0.5186,-0.3906,49.927,-1.526,2.625,-126.689,46.263,-95.158
14244,-0.7300,-0.5937,-0.3311,43.762,-5.615,3.296,-126.156,46.329,-95.120
14254,-0.7300,-0.6011,-0.3140,22.217,-7.935,3.845,-125.810,46.417,-95.059
14264,-0.7393,-0.6099,-0.3198,-3.296,-8.240,3.967,-125.711,46.505,-94.999
14274,-0.7446,-0.5605,-0.3584,-24.597,-6.592,2.136,-125.881,46.577,-94.938
14284,-0.7446,-0.5474,-0.4131,-31.616,-4.395,-0.854,-126.167,46.604,-94.878
14294,-0.7236,-0.5693,-0.4390,-24.658,-2.075,-5.005,-126.376,46.560,-94.812
14304,-0.6992,-0.5527,-0.4492,-12.268,-1.709,-8.118,-126.458,46.483,-94.719
14314,-0.6997,-0.5269,-0.4399,2.075,-2.319,-5.127,-126.420,46.450,-94.647
14324,-0.7246,-0.5020,-0.4131,16.174,-2.380,1.282,-126.282,46.489,-94.631
14334,-0.7329,-0.5171,-0.3779,25.696,-1.892,5.432,-126.041,46.566,-94.658
14344,-0.7271,-0.5576,-0.3423,25.452,-2.319,5.798,-125.760,46.642,-94.680
14354,-0.7319,-0.5815,-0.3228,14.343,-4.578,4.639,-125.541,46.714,-94.664
14364,-0.7266,-0.6123,-0.3228,-1.770,-5.920,2.563,-125.447,46.769,-94.614
14374,-0.7251,-0.5972,-0.3457,-16.785,-5.249,0.671,-125.519,46.802,-94.559
14384,-0.7285,-0.5620,-0.3804,-24.414,-3.174,-0.061,-125.717,46.818,-94.521
14394,-0.7510,-0.4165,-0.4209,-20.325,-0.488,-0.488,-126.008,46.868,-94.510
14404,-0.7949,-0.3213,-0.4561,-2.136,3.113,0.977,-126.249,46.939,-94.559
14414,-0.7900,-0.3369,-0.4424,25.146,7.507,-0.793,-126.222,46.967,-94.636
14424,-0.7432,-0.5244,-0.3770,42.236,7.568,-6.653,-125.826,46.890,-94.669
14434,-0.6973,-0.6543,-0.3281,33.081,1.465,-11.719,-125.343,46.758,-94.587
14444,-0.6709,-0.7441,-0.3062,5.188,-5.127,-13.245,-125.041,46.609,-94.417
14454,-0.6851,-0.6514,-0.3184,-23.560,-8.118,-8.362,-125.063,46.555,-94.246
14464,-0.7427,-0.5327,-0.3745,-37.415,-4.944,0.793,-125.398,46.609,-94.197
14474,-0.7695,-0.4956,-0.4229,-30.518,2.441,4.822,-125.799,46.670,-94.263
14484,-0.7490,-0.5205,-0.4482,-14.038,7.141,-0.488,-126.046,46.631,-94.345
14494,-0.7002,-0.5933,-0.4380,2.258,7.507,-9.094,-126.035,46.483,-94.356
14504,-0.6724,-0.6543,-0.4106,10.681,4.395,-10.925,-125.859,46.318,-94.312
14514,-0.6743,-0.6768,-0.3853,10.132,2.075,-6.836,-125.673,46.198,-94.279
14524,-0.6948,-0.6689,-0.3774,2.258,1.465,-0.244,-125.596,46.143,-94.296
14534,-0.7163,-0.6060,-0.3867,-6.836,0.916,4.456,-125.667,46.165,-94.345
14544,-0.7432,-0.5381,-0.4023,-11.780,0.305,6.531,-125.837,46.230,-94.400
14554,-0.7568,-0.5142,-0.4219,-8.606,0.549,5.493,-125.997,46.296,-94.455
14564,-0.7466,-0.5098,-0.4277,-1.709,1.099,1.404,-126.074,46.324,-94.482
14574,-0.7344,-0.5200,-0.4238,4.028,1.099,-2.014,-126.063,46.313,-94.477
14584,-0.7358,-0.5518,-0.4150,6.409,0.671,-2.808,-125.997,46.291,-94.460
14594,-0.7246,-0.5786,-0.4062,4.578,0.305,-3.601,-125.920,46.252,-94.433
14604,-0.7246,-0.5698,-0.4043,-0.122,-0.488,-3.296,-125.892,46.230,-94.400
14614,-0.7354,-0.5581,-0.4160,-3.784,-0.793,-2.258,-125.914,46.219,-94.373
14624,-0.7368,-0.5742,-0.4282,-3.479,0.183,-2.197,-125.947,46.198,-94.356
14634,-0.7168,-0.6011,-0.4292,-0.366,1.221,-3.601,-125.936,46.137,-94.340
14644,-0.7061,-0.6089,-0.4194,2.686,0.244,-3.601,-125.876,46.082,-94.312
14654,-0.7085,-0.6279,-0.4097,4.883,-1.465,-0.671,-125.782,46.060,-94.285
14664,-0.7075,-0.6265,-0.3848,4.639,-2.319,2.625,-125.689,46.077,-94.285
14674,-0.7305,-0.5459,-0.3892,0.732,-2.869,5.981,-125.695,46.154,-94.301
14684,-0.7549,-0.4966,-0.3848,0.183,-1.770,8.972,-125.750,46.274,-94.356
14694,-0.7607,-0.4878,-0.3857,2.014,-0.488,8.240,-125.804,46.390,-94.417
14704,-0.7441,-0.5356,-0.3774,2.502,-0.305,4.150,-125.793,46.445,-94.449
14714,-0.7212,-0.5874,-0.3735,-1.770,-1.526,-0.671,-125.760,46.445,-94.427
14724,-0.7002,-0.6465,-0.3735,-9.888,-3.052,-2.869,-125.760,46.406,-94.367
14734,-0.7026,-0.6050,-0.3955,-18.188,-3.967,-1.770,-125.870,46.395,-94.301
14744,-0.7256,-0.5347,-0.4258,-18.066,-2.319,1.648,-126.063,46.423,-94.290
14754,-0.7480,-0.4702,-0.4448,-5.798,1.160,3.540,-126.227,46.472,-94.334
14764,-0.7651,-0.4185,-0.4458,12.146,3.357,3.235,-126.260,46.527,-94.400
14774,-0.7461,-0.4961,-0.4067,28.442,3.845,1.404,-126.052,46.544,-94.460
14784,-0.7275,-0.5820,-0.3550,30.884,0.305,-1.221,-125.695,46.538,-94.449
14794,-0.7129,-0.6597,-0.3311,16.174,-4.822,-2.197,-125.387,46.522,-94.378
14804,-0.6943,-0.7305,-0.3291,-4.456,-6.348,-3.418,-125.250,46.478,-94.274
14814,-0.7007,-0.6348,-0.3545,-22.766,-6.165,-2.991,-125.343,46.461,-94.175
14824,-0.7476,-0.4429,-0.4126,-25.818,-2.930,2.075,-125.662,46.538,-94.158
14834,-0.8022,-0.3682,-0.4458,-6.226,3.174,7.935,-125.947,46.664,-94.263
14844,-0.7803,-0.4561,-0.4292,20.081,6.775,5.737,-125.914,46.714,-94.389
14854,-0.7217,-0.6367,-0.3784,32.959,3.235,-2.869,-125.546,46.648,-94.406
14864,-0.6860,-0.7705,-0.3428,23.254,-4.517,-10.620,-125.096,46.516,-94.263
14874,-0.6626,-0.8501,-0.3335,2.380,-9.521,-12.939,-124.777,46.357,-94.037
14884,-0.6816,-0.7158,-0.3701,-15.991,-9.338,-7.141,-124.739,46.291,-93.867
14894,-0.7544,-0.4946,-0.4395,-16.418,-4.639,5.798,-124.964,46.390,-93.862
14904,-0.8149,-0.3828,-0.4668,8.911,4.333,15.686,-125.162,46.566,-94.043
14914,-0.8081,-0.3452,-0.4609,44.983,11.047,13.184,-125.074,46.686,-94.285
14924,-0.7485,-0.4531,-0.3779,75.928,11.414,6.104,-124.503,46.719,-94.471
14934,-0.7026,-0.6162,-0.2739,79.163,4.517,3.845,-123.673,46.725,-94.559
14944,-0.6895,-0.7227,-0.2212,46.570,-5.066,5.798,-123.036,46.752,-94.543
14954,-0.6963,-0.7236,-0.2129,-3.296,-11.047,9.949,-122.866,46.857,-94.488
14964,-0.7168,-0.6318,-0.2515,-50.903,-11.475,13.428,-123.228,47.027,-94.455
14974,-0.7720,-0.4473,-0.3477,-75.562,-6.531,12.573,-124.041,47.230,-94.477
14984,-0.8008,-0.3501,-0.4497,-66.223,2.563,6.592,-124.937,47.346,-94.559
14994,-0.7812,-0.3433,-0.5161,-29.419,12.939,-4.150,-125.530,47.280,-94.680
15004,-0.7114,-0.4521,-0.5044,14.709,17.517,-14.526,-125.574,47.054,-94.768
15014,-0.6577,-0.5786,-0.4531,44.861,14.038,-17.456,-125.167,46.780,-94.785
15024,-0.6519,-0.7090,-0.3750,49.866,7.019,-12.085,-124.590,46.566,-94.768
15034,-0.6646,-0.7012,-0.3340,32.471,2.014,-2.869,-124.178,46.472,-94.768
15044,-0.7056,-0.6304,-0.3369,8.606,-0.122,6.531,-124.069,46.511,-94.823
15054,-0.7485,-0.5610,-0.3555,-10.620,1.465,13.062,-124.244,46.626,-94.944
15064,-0.7842,-0.4824,-0.4014,-19.775,3.723,11.536,-124.596,46.747,-95.081
15074,-0.7827,-0.4956,-0.4346,-16.785,4.211,4.089,-124.893,46.791,-95.169
15084,-0.7544,-0.5513,-0.4307,-7.263,2.686,-4.883,-124.986,46.736,-95.158
15094,-0.7373,-0.5933,-0.4233,-0.244,-0.977,-9.583,-124.931,46.653,-95.070
15104,-0.7305,-0.6079,-0.3994,3.479,-3.662,-8.789,-124.794,46.588,-94.949
15114,-0.7476,-0.5371,-0.3892,5.493,-4.456,-3.723,-124.689,46.599,-94.867
15124,-0.7769,-0.5332,-0.3726,8.423,-3.967,2.808,-124.590,46.681,-94.845
15134,-0.7729,-0.5991,-0.3437,8.606,-3.418,4.028,-124.453,46.747,-94.834
15144,-0.7466,-0.6387,-0.3315,0.305,-5.615,1.282,-124.338,46.780,-94.779
15154,-0.7358,-0.6548,-0.3359,-11.292,-7.446,0.488,-124.316,46.807,-94.691
15164,-0.7378,-0.6182,-0.3560,-18.311,-6.104,2.319,-124.415,46.857,-94.636
15174,-0.7534,-0.5366,-0.3926,-16.052,-1.831,4.639,-124.601,46.923,-94.653
15184,-0.7612,-0.5112,-0.4253,-1.953,4.211,5.371,-124.744,46.961,-94.752
15194,-0.7373,-0.5562,-0.4043,16.296,7.874,3.357,-124.684,46.945,-94.872
15204,-0.7197,-0.5757,-0.3804,25.085,6.104,1.709,-124.486,46.917,-94.960
15214,-0.7192,-0.5771,-0.3657,22.461,2.136,3.845,-124.283,46.928,-95.015
15224,-0.7178,-0.6021,-0.3486,15.198,0.000,7.019,-124.135,46.978,-95.076
15234,-0.7139,-0.6094,-0.3467,4.089,-1.343,8.362,-124.085,47.038,-95.125
15244,-0.7207,-0.5898,-0.3726,-7.935,-2.686,8.179,-124.173,47.109,-95.164
15254,-0.7363,-0.5376,-0.3979,-14.038,-2.441,6.653,-124.354,47.186,-95.186
15264,-0.7329,-0.5391,-0.4214,-9.460,-0.488,4.395,-124.503,47.219,-95.219
15274,-0.7349,-0.5405,-0.4219,-0.061,0.732,2.197,-124.557,47.230,-95.246
15284,-0.7397,-0.5166,-0.4316,10.254,1.648,0.427,-124.530,47.230,-95.268
15294,-0.7368,-0.5415,-0.4053,22.156,2.747,0.122,-124.360,47.219,-95.301
15304,-0.7305,-0.5674,-0.3750,28.503,2.380,0.793,-124.091,47.208,-95.339
15314,-0.7266,-0.5908,-0.3560,24.170,-0.366,2.930,-123.838,47.230,-95.356
15324,-0.7300,-0.5659,-0.3477,12.756,-3.540,5.737,-123.690,47.302,-95.361
15334,-0.7412,-0.5625,-0.3467,0.305,-6.409,8.606,-123.662,47.417,-95.356
15344,-0.7485,-0.5312,-0.3594,-10.315,-7.935,8.850,-123.750,47.554,-95.328
15354,-0.7598,-0.4810,-0.3818,-15.442,-8.423,6.226,-123.909,47.686,-95.279
15364,-0.7603,-0.4854,-0.3862,-10.437,-6.897,1.709,-124.008,47.769,-95.208
15374,-0.7495,-0.5054,-0.3774,-0.854,-4.700,-2.808,-123.986,47.796,-95.125
15384,-0.7368,-0.5571,-0.3608,6.714,-3.052,-4.395,-123.854,47.780,-95.048
15394,-0.7231,-0.6294,-0.3281,8.667,-2.075,-3.845,-123.662,47.736,-94.993
15404,-0.7236,-0.6309,-0.3184,2.502,-1.831,-1.038,-123.547,47.714,-94.960
15414,-0.7402,-0.5903,-0.3281,-5.188,-0.427,4.028,-123.574,47.752,-94.988
15424,-0.7480,-0.5723,-0.3403,-7.935,2.380,8.179,-123.695,47.813,-95.087
15434,-0.7603,-0.5542,-0.3604,-8.667,4.395,8.850,-123.865,47.873,-95.213
15444,-0.7646,-0.4761,-0.3901,-7.263,5.554,6.775,-124.085,47.928,-95.339
15454,-0.7764,-0.4287,-0.4023,0.977,6.470,5.249,-124.255,47.988,-95.460
15464,-0.7651,-0.4736,-0.3828,12.024,6.470,3.784,-124.266,48.016,-95.576
15474,-0.7529,-0.5322,-0.3623,13.672,2.869,1.221,-124.162,48.027,-95.620
15484,-0.7378,-0.6211,-0.3442,3.784,-1.831,-1.892,-124.047,47.999,-95.581
15494,-0.7231,-0.6597,-0.3462,-12.512,-4.578,-4.883,-124.036,47.950,-95.482
15504,-0.7168,-0.6279,-0.3750,-25.879,-5.249,-5.432,-124.178,47.895,-95.372
15514,-0.7417,-0.5410,-0.4111,-26.733,-2.991,-2.625,-124.431,47.889,-95.312
15524,-0.7656,-0.4873,-0.4404,-11.902,1.160,0.793,-124.640,47.900,-95.334
15534,-0.7520,-0.5024,-0.4233,11.230,4.272,1.831,-124.634,47.906,-95.405
15544,-0.7275,-0.5552,-0.3716,26.245,2.991,0.549,-124.398,47.889,-95.444
15554,-0.7261,-0.5435,-0.3437,24.963,-1.953,1.892,-124.124,47.917,-95.438
15564,-0.7422,-0.5522,-0.3071,15.503,-4.456,5.737,-123.915,48.010,-95.427
15574,-0.7490,-0.5405,-0.3105,1.282,-3.662,7.080,-123.871,48.109,-95.444
15584,-0.7397,-0.5347,-0.3354,-11.292,-1.465,4.761,-123.981,48.170,-95.466
15594,-0.7212,-0.5732,-0.3711,-18.127,1.404,-0.244,-124.162,48.142,-95.482
15604,-0.7046,-0.6396,-0.4038,-18.433,3.357,-5.737,-124.321,48.027,-95.471
15614,-0.6963,-0.6118,-0.4258,-13.855,3.479,-8.362,-124.442,47.889,-95.444
15624,-0.7178,-0.5801,-0.4404,-3.235,3.723,-4.639,-124.508,47.796,-95.455
15634,-0.7524,-0.5620,-0.4248,11.230,4.456,1.953,-124.470,47.780,-95.526
15646,-0.7700,-0.5005,-0.4019,21.790,3.601,6.409,-124.371,47.834,-95.620
15654,-0.7739,-0.4883,-0.3696,26.794,2.502,10.376,-124.222,47.944,-95.740
15664,-0.7778,-0.5044,-0.3267,22.339,-0.732,12.573,-124.058,48.093,-95.834
15674,-0.7812,-0.5200,-0.3052,7.874,-4.761,11.230,-123.970,48.257,-95.872
15684,-0.7812,-0.5503,-0.3032,-10.803,-7.080,6.592,-123.997,48.378,-95.839
15694,-0.7759,-0.5708,-0.3247,-27.954,-6.470,-0.366,-124.173,48.428,-95.757
15704,-0.7715,-0.5762,-0.3608,-37.109,-3.296,-7.202,-124.442,48.389,-95.652
15714,-0.7520,-0.5518,-0.4097,-36.072,1.953,-13.062,-124.755,48.263,-95.565
15724,-0.7300,-0.5386,-0.4375,-23.743,7.263,-14.160,-125.013,48.087,-95.532
15734,-0.7100,-0.5518,-0.4292,-5.432,10.132,-9.460,-125.123,47.928,-95.576
15744,-0.7261,-0.5376,-0.4097,9.338,8.728,-1.160,-125.123,47.856,-95.674
15754,-0.7505,-0.5098,-0.3877,18.250,5.737,5.188,-125.052,47.884,-95.790
15764,-0.7642,-0.5225,-0.3613,22.522,3.784,7.507,-124.904,47.950,-95.900
15774,-0.7573,-0.5537,-0.3320,20.813,1.648,5.310,-124.706,47.999,-95.966
15784,-0.7559,-0.5747,-0.3193,11.414,-1.587,2.319,-124.536,48.038,-95.966
15794,-0.7427,-0.6216,-0.3130,-2.319,-3.235,-0.244,-124.453,48.043,-95.922
15804,-0.7358,-0.6021,-0.3340,-16.846,-3.357,-1.465,-124.525,48.038,-95.867
15814,-0.7437,-0.5742,-0.3672,-24.536,-2.014,-0.671,-124.728,48.038,-95.839
15824,-0.7432,-0.5449,-0.4048,-21.179,1.892,-1.038,-124.964,48.016,-95.850
15834,-0.7251,-0.5771,-0.4248,-10.498,6.042,-1.831,-125.123,47.939,-95.911
15844,-0.6738,-0.6885,-0.4092,0.183,8.423,-3.418,-125.134,47.785,-95.982
15854,-0.6504,-0.6909,-0.3916,0.671,6.348,-3.174,-125.107,47.637,-96.037
15864,-0.6782,-0.6060,-0.3833,-4.883,2.808,5.737,-125.189,47.626,-96.119
15874,-0.7300,-0.5205,-0.3789,-6.470,1.770,18.188,-125.392,47.774,-96.295
15884,-0.7817,-0.3926,-0.3901,-3.784,1.953,25.391,-125.700,48.038,-96.537
15894,-0.8325,-0.3252,-0.3921,4.822,2.502,27.161,-125.997,48.345,-96.806
15904,-0.8589,-0.3184,-0.3804,16.541,4.089,20.996,-126.145,48.604,-97.042
15914,-0.8447,-0.3706,-0.3677,24.475,5.371,8.850,-126.096,48.741,-97.185
15924,-0.8032,-0.5142,-0.3457,22.522,5.005,-3.662,-125.876,48.719,-97.213
15934,-0.7520,-0.6187,-0.3403,5.859,3.052,-13.672,-125.684,48.576,-97.130
15944,-0.7158,-0.6831,-0.3491,-16.968,1.221,-19.226,-125.651,48.356,-96.976
15954,-0.6982,-0.6777,-0.3818,-38.696,1.099,-18.005,-125.865,48.142,-96.828
15964,-0.6963,-0.5811,-0.4336,-48.767,2.625,-11.719,-126.304,47.988,-96.757
15974,-0.7217,-0.4888,-0.4736,-41.199,5.127,-1.770,-126.821,47.933,-96.806
15984,-0.7632,-0.3989,-0.4873,-19.653,6.958,7.202,-127.266,47.972,-96.954
