elapsed_ms,acc_x_g,acc_y_g,acc_z_g,gyro_x_dps,gyro_y_dps,gyro_z_dps,angle_x_deg,angle_y_deg,angle_z_deg
0,-0.8979,-0.3296,-0.1807,-10.376,-8.301,16.113,-105.062,61.584,-166.185
11,-0.8843,-0.4727,-0.1196,7.568,-8.911,4.883,-104.843,61.650,-166.031
20,-0.8589,-0.5923,-0.0742,11.230,-12.451,-6.348,-104.403,61.556,-165.740
30,-0.8438,-0.6699,-0.0625,2.075,-16.235,-10.803,-103.958,61.392,-165.355
40,-0.8472,-0.6167,-0.0586,-9.888,-18.066,-7.202,-103.623,61.293,-164.954
50,-0.8599,-0.4307,-0.0918,-16.235,-16.663,3.723,-103.491,61.381,-164.636
60,-0.8896,-0.2656,-0.1270,-7.996,-10.620,16.541,-103.568,61.666,-164.498
70,-0.9185,-0.1504,-0.1348,12.146,-2.319,22.461,-103.788,62.051,-164.564
80,-0.9199,-0.1953,-0.1157,34.302,5.188,18.250,-103.793,62.358,-164.762
90,-0.9063,-0.4341,-0.0459,46.082,8.545,5.981,-103.442,62.413,-164.971
100,-0.8892,-0.6660,0.0244,34.180,4.639,-9.827,-102.991,62.216,-165.020
110,-0.8540,-0.8115,0.0264,2.258,-3.601,-23.071,-102.656,61.842,-164.833
120,-0.8169,-0.8174,-0.0059,-31.738,-11.292,-27.588,-102.535,61.430,-164.471
130,-0.7856,-0.6821,-0.0557,-54.504,-17.395,-18.127,-102.612,61.172,-164.037
140,-0.8188,-0.5352,-0.1138,-56.519,-18.433,3.479,-102.859,61.194,-163.680
150,-0.8774,-0.4004,-0.1655,-40.344,-15.320,25.635,-103.189,61.501,-163.488
160,-0.9170,-0.2598,-0.1606,-11.230,-8.118,36.316,-103.491,61.968,-163.493
170,-0.9233,-0.1992,-0.1489,17.944,1.343,36.865,-103.727,62.452,-163.707
180,-0.9443,-0.2837,-0.1069,41.687,10.620,29.297,-103.716,62.809,-164.081
190,-0.9302,-0.4009,-0.0474,52.673,14.587,14.404,-103.464,62.946,-164.465
200,-0.8887,-0.4902,-0.0249,46.143,12.695,-1.770,-103.129,62.886,-164.724
210,-0.8730,-0.5405,-0.0127,28.748,8.728,-11.658,-102.843,62.704,-164.855
220,-0.8579,-0.4775,-0.0542,7.507,4.517,-12.878,-102.733,62.551,-164.888
230,-0.8730,-0.4106,-0.0820,-6.165,2.563,-5.493,-102.805,62.512,-164.916
240,-0.8984,-0.3281,-0.1069,-9.460,3.174,4.089,-103.024,62.611,-165.004
250,-0.9165,-0.2539,-0.1309,-5.920,4.333,10.498,-103.354,62.803,-165.146
260,-0.9302,-0.2861,-0.1250,2.014,7.629,10.193,-103.623,62.968,-165.361
270,-0.9214,-0.4062,-0.0996,7.507,9.583,1.404,-103.738,62.985,-165.569
280,-0.9028,-0.5522,-0.0635,5.066,8.362,-10.681,-103.727,62.820,-165.696
290,-0.8667,-0.5918,-0.0742,-5.981,3.845,-19.043,-103.705,62.551,-165.679
300,-0.8413,-0.5835,-0.0977,-16.541,-0.427,-18.494,-103.733,62.298,-165.575
310,-0.8530,-0.5000,-0.1182,-20.447,-2.258,-9.827,-103.848,62.177,-165.476
320,-0.8809,-0.3428,-0.1670,-16.113,-2.258,2.563,-104.095,62.249,-165.443
330,-0.9141,-0.2539,-0.1782,-1.160,1.648,13.184,-104.409,62.463,-165.547
340,-0.9390,-0.3032,-0.1606,17.822,7.812,13.977,-104.579,62.655,-165.784
350,-0.9336,-0.4395,-0.1133,30.518,10.803,3.052,-104.491,62.672,-166.031
360,-0.8940,-0.6060,-0.0610,28.259,9.094,-12.146,-104.233,62.463,-166.152
370,-0.8486,-0.7095,-0.0664,11.719,3.357,-22.705,-103.986,62.111,-166.102
380,-0.8291,-0.7026,-0.0894,-7.935,-3.479,-23.499,-103.826,61.771,-165.910
390,-0.8203,-0.5737,-0.1230,-21.484,-6.348,-13.000,-103.848,61.584,-165.712
400,-0.8496,-0.4243,-0.1748,-22.827,-3.418,5.249,-104.123,61.644,-165.674
410,-0.8984,-0.2871,-0.1929,-10.620,2.197,20.508,-104.557,61.908,-165.822
420,-0.9209,-0.1958,-0.1968,7.935,7.874,26.306,-105.046,62.254,-166.124
430,-0.9375,-0.2759,-0.1553,26.184,11.841,22.034,-105.255,62.529,-166.492
440,-0.9238,-0.4380,-0.0894,33.997,9.521,7.690,-105.095,62.595,-166.734
450,-0.8882,-0.6050,-0.0312,25.757,1.892,-10.193,-104.700,62.424,-166.718
460,-0.8589,-0.6670,-0.0420,4.456,-9.399,-23.193,-104.266,62.122,-166.393
470,-0.8374,-0.6162,-0.0664,-14.709,-18.188,-25.940,-103.876,61.831,-165.883
480,-0.8423,-0.5078,-0.0933,-22.339,-19.775,-16.907,-103.634,61.683,-165.388
490,-0.8633,-0.3970,-0.1226,-16.785,-15.015,-1.038,-103.563,61.732,-165.075
500,-0.9028,-0.2954,-0.1313,-2.075,-7.568,12.756,-103.607,61.957,-164.982
511,-0.9233,-0.2031,-0.1221,15.381,0.244,17.700,-103.711,62.265,-165.075
520,-0.9263,-0.3193,-0.0898,32.166,7.629,12.390,-103.607,62.446,-165.300
530,-0.9043,-0.5068,-0.0093,37.720,9.399,-1.099,-103.277,62.397,-165.493
540,-0.8638,-0.6528,0.0220,22.583,4.089,-15.320,-102.909,62.144,-165.498
550,-0.8384,-0.7085,0.0039,-2.747,-3.662,-23.254,-102.640,61.809,-165.311
560,-0.8281,-0.6187,-0.0400,-26.917,-9.705,-20.996,-102.557,61.540,-165.015
570,-0.8408,-0.4702,-0.0986,-38.879,-9.888,-7.385,-102.728,61.474,-164.778
580,-0.8779,-0.3794,-0.1470,-34.119,-4.761,9.888,-103.107,61.617,-164.729
590,-0.9141,-0.2783,-0.1567,-18.005,1.770,19.836,-103.563,61.897,-164.855
600,-0.9336,-0.2051,-0.1636,0.488,7.263,19.897,-104.024,62.199,-165.108
610,-0.9419,-0.3257,-0.1313,18.860,12.146,11.414,-104.189,62.353,-165.421
620,-0.9160,-0.5122,-0.0698,26.855,11.963,-3.845,-104.063,62.265,-165.646
630,-0.8706,-0.6548,-0.0518,17.578,6.104,-18.188,-103.821,61.985,-165.679
640,-0.8364,-0.6870,-0.0605,-1.160,-2.258,-25.269,-103.590,61.633,-165.504
650,-0.8188,-0.5522,-0.1050,-18.982,-9.583,-20.508,-103.491,61.397,-165.207
660,-0.8501,-0.4502,-0.1426,-23.010,-10.132,-4.517,-103.563,61.370,-164.982
670,-0.8877,-0.3501,-0.1514,-13.611,-6.042,10.803,-103.733,61.545,-164.910
680,-0.9116,-0.2217,-0.1533,0.488,-0.549,18.799,-104.013,61.848,-164.993
690,-0.9370,-0.2407,-0.1436,15.625,6.226,18.372,-104.216,62.122,-165.218
700,-0.9336,-0.4380,-0.0767,26.245,10.620,6.714,-104.139,62.188,-165.471
710,-0.8960,-0.5811,-0.0220,19.348,7.446,-10.742,-103.914,62.012,-165.569
720,-0.8511,-0.6509,-0.0381,-1.221,-0.244,-23.682,-103.711,61.694,-165.443
730,-0.8291,-0.6313,-0.0747,-21.118,-7.507,-26.611,-103.601,61.364,-165.157
740,-0.8364,-0.5474,-0.1099,-32.104,-11.108,-18.799,-103.618,61.155,-164.839
750,-0.8589,-0.4761,-0.1465,-30.334,-8.301,-4.578,-103.788,61.122,-164.647
760,-0.8916,-0.4160,-0.1670,-18.494,-3.174,7.385,-104.030,61.221,-164.619
770,-0.9053,-0.3682,-0.1562,-1.831,2.014,11.658,-104.222,61.381,-164.724
780,-0.9087,-0.3965,-0.1362,13.428,5.981,9.155,-104.282,61.490,-164.888
790,-0.8818,-0.5303,-0.0923,22.278,6.958,1.587,-104.150,61.458,-165.037
800,-0.8525,-0.6289,-0.0493,18.677,2.625,-6.531,-103.887,61.309,-165.059
810,-0.8252,-0.6421,-0.0610,4.272,-4.700,-9.094,-103.634,61.144,-164.916
820,-0.8296,-0.5796,-0.0659,-8.484,-9.949,-4.395,-103.458,61.062,-164.696
830,-0.8550,-0.4175,-0.1006,-15.686,-11.414,6.104,-103.442,61.166,-164.498
840,-0.8936,-0.3228,-0.1206,-10.803,-7.202,17.151,-103.563,61.430,-164.432
850,-0.9263,-0.2656,-0.1050,1.343,-0.305,20.508,-103.711,61.743,-164.526
860,-0.9336,-0.2495,-0.1030,12.878,5.188,15.076,-103.832,61.996,-164.707
870,-0.9238,-0.4092,-0.0630,20.691,8.850,4.395,-103.755,62.056,-164.916
880,-0.8931,-0.5625,-0.0034,15.930,7.446,-9.583,-103.552,61.902,-165.020
890,-0.8486,-0.6431,-0.0225,-4.089,0.305,-19.348,-103.398,61.628,-164.932
900,-0.8413,-0.6919,-0.0391,-23.682,-5.981,-21.118,-103.337,61.326,-164.707
910,-0.8369,-0.5854,-0.0630,-38.086,-9.338,-16.113,-103.409,61.128,-164.438
920,-0.8428,-0.3882,-0.1367,-40.771,-7.019,-1.953,-103.744,61.155,-164.290
930,-0.8862,-0.3374,-0.1616,-25.940,1.160,14.465,-104.200,61.348,-164.383
940,-0.9160,-0.2871,-0.1523,-4.089,8.789,20.020,-104.623,61.611,-164.663
950,-0.9297,-0.2798,-0.1431,13.794,13.672,15.320,-104.925,61.820,-165.020
960,-0.9102,-0.3926,-0.1118,25.085,15.747,4.761,-104.985,61.870,-165.372
970,-0.8828,-0.6006,-0.0518,24.109,13.062,-8.850,-104.843,61.688,-165.591
980,-0.8462,-0.6670,-0.0474,6.592,4.028,-20.203,-104.645,61.386,-165.564
990,-0.8208,-0.6665,-0.0781,-13.428,-4.944,-23.010,-104.502,61.068,-165.339
1000,-0.8271,-0.5845,-0.0962,-25.513,-9.399,-16.296,-104.469,60.870,-165.070
1011,-0.8477,-0.4561,-0.1426,-27.039,-9.033,-2.991,-104.595,60.864,-164.872
1020,-0.8877,-0.3745,-0.1689,-15.686,-2.747,11.169,-104.854,61.018,-164.877
1030,-0.9160,-0.3384,-0.1626,1.892,5.432,16.785,-105.112,61.232,-165.075
1040,-0.9224,-0.3413,-0.1514,17.212,12.451,13.000,-105.309,61.392,-165.394
1050,-0.8984,-0.4351,-0.1284,25.085,15.381,4.700,-105.364,61.414,-165.729
1060,-0.8740,-0.5605,-0.0854,21.179,12.268,-4.272,-105.282,61.298,-165.954
1070,-0.8535,-0.5840,-0.0913,5.737,3.296,-10.925,-105.167,61.128,-165.959
1080,-0.8418,-0.5747,-0.1079,-8.972,-4.211,-12.085,-105.079,60.963,-165.811
1090,-0.8477,-0.5137,-0.1167,-17.395,-8.484,-7.446,-105.046,60.886,-165.602
1100,-0.8726,-0.4102,-0.1523,-18.677,-8.606,1.343,-105.145,60.947,-165.438
1110,-0.9033,-0.3706,-0.1562,-10.620,-4.456,8.789,-105.293,61.089,-165.394
1120,-0.9063,-0.3394,-0.1455,1.038,0.366,9.033,-105.408,61.243,-165.454
1130,-0.9053,-0.3784,-0.1367,9.766,3.723,4.395,-105.441,61.326,-165.553
1140,-0.8931,-0.5200,-0.1050,13.000,5.127,-2.930,-105.348,61.265,-165.641
1150,-0.8696,-0.6221,-0.0845,5.981,2.502,-10.864,-105.205,61.084,-165.630
1160,-0.8467,-0.6279,-0.1147,-7.324,-2.625,-14.282,-105.117,60.870,-165.498
1170,-0.8428,-0.5933,-0.1357,-16.357,-4.944,-10.437,-105.123,60.716,-165.344
1180,-0.8491,-0.4897,-0.1611,-17.334,-4.639,-1.465,-105.238,60.694,-165.245
1190,-0.8745,-0.4048,-0.1758,-9.460,-2.930,9.460,-105.408,60.820,-165.240
1200,-0.8936,-0.3525,-0.1582,4.883,-0.122,15.503,-105.518,61.029,-165.322
1210,-0.9033,-0.3437,-0.1377,17.517,1.465,14.099,-105.502,61.227,-165.427
1220,-0.8989,-0.4438,-0.0937,25.269,0.854,7.019,-105.266,61.309,-165.482
1230,-0.8774,-0.5771,-0.0386,22.217,-2.502,-3.052,-104.870,61.238,-165.416
1240,-0.8472,-0.5942,-0.0420,6.348,-8.362,-10.193,-104.507,61.100,-165.196
1250,-0.8359,-0.5947,-0.0566,-9.949,-12.268,-9.583,-104.260,60.974,-164.899
1260,-0.8506,-0.5347,-0.0615,-20.386,-12.146,-2.869,-104.161,60.941,-164.641
1270,-0.8682,-0.3779,-0.1123,-23.682,-9.216,7.263,-104.293,61.078,-164.493
1280,-0.8994,-0.2705,-0.1255,-14.160,-2.625,16.418,-104.568,61.348,-164.526
1290,-0.9150,-0.1484,-0.1235,1.648,3.479,19.409,-104.952,61.694,-164.696
1300,-0.9214,-0.1538,-0.1230,17.334,6.897,15.930,-105.216,61.990,-164.927
1310,-0.9243,-0.4194,-0.0488,29.480,7.751,4.211,-104.996,62.045,-165.108
1320,-0.8970,-0.6484,0.0205,21.973,2.014,-15.564,-104.573,61.815,-165.064
1330,-0.8618,-0.7520,-0.0024,-5.310,-6.104,-32.776,-104.222,61.386,-164.762
1340,-0.8262,-0.7573,-0.0410,-32.349,-10.132,-38.513,-104.079,60.903,-164.361
1350,-0.7974,-0.6064,-0.1084,-49.377,-10.986,-29.114,-104.211,60.562,-163.998
1360,-0.8198,-0.5146,-0.1738,-48.523,-5.981,-6.226,-104.606,60.480,-163.845
1370,-0.8638,-0.4487,-0.1943,-30.823,1.282,14.954,-105.090,60.617,-163.949
1380,-0.8989,-0.3657,-0.1870,-7.324,7.629,23.987,-105.518,60.875,-164.224
1390,-0.9121,-0.3403,-0.1694,15.381,12.878,22.278,-105.804,61.117,-164.603
1400,-0.8989,-0.4268,-0.1240,31.677,15.076,13.672,-105.820,61.238,-164.982
1410,-0.8843,-0.5098,-0.0859,34.119,11.414,2.808,-105.634,61.216,-165.223
1420,-0.8608,-0.5488,-0.0840,24.170,4.578,-5.920,-105.375,61.106,-165.284
1430,-0.8530,-0.5630,-0.0947,9.888,-1.221,-9.094,-105.156,60.974,-165.207
1440,-0.8555,-0.4961,-0.1123,-3.784,-5.249,-6.165,-105.051,60.914,-165.070
1450,-0.8755,-0.4375,-0.1421,-12.451,-5.310,2.136,-105.123,60.963,-164.976
1460,-0.8950,-0.4126,-0.1406,-11.963,-2.197,7.812,-105.276,61.073,-164.976
1470,-0.9048,-0.3232,-0.1514,-7.812,-0.610,7.568,-105.474,61.221,-165.004
1480,-0.9131,-0.3184,-0.1553,0.244,1.892,4.883,-105.634,61.337,-165.070
1490,-0.9058,-0.4360,-0.1230,9.766,3.845,-1.648,-105.601,61.331,-165.135
1500,-0.8789,-0.5737,-0.0903,10.437,1.892,-10.559,-105.408,61.177,-165.119
1511,-0.8311,-0.6641,-0.1211,-10.437,-6.226,-15.686,-105.282,60.947,-164.905
1520,-0.8301,-0.6104,-0.1377,-17.883,-7.874,-8.179,-105.255,60.809,-164.707
1530,-0.8491,-0.4980,-0.1631,-18.372,-7.507,4.578,-105.359,60.848,-164.581
1540,-0.8682,-0.3833,-0.1685,-9.399,-4.944,16.113,-105.529,61.046,-164.570
1550,-0.8999,-0.3257,-0.1592,4.211,-2.075,21.423,-105.661,61.326,-164.647
1560,-0.9219,-0.3833,-0.1128,18.188,-0.183,17.029,-105.568,61.545,-164.740
1570,-0.9028,-0.4561,-0.0674,23.987,-1.587,5.371,-105.255,61.611,-164.740
1580,-0.8677,-0.5273,-0.0493,17.822,-4.456,-5.310,-104.875,61.545,-164.619
1590,-0.8477,-0.5864,-0.0508,3.967,-7.629,-9.888,-104.557,61.408,-164.410
1600,-0.8423,-0.6118,-0.0557,-10.864,-9.277,-9.155,-104.365,61.265,-164.174
1610,-0.8477,-0.5415,-0.0850,-22.339,-8.240,-4.028,-104.370,61.205,-163.987
1620,-0.8701,-0.4307,-0.1191,-24.841,-3.662,4.517,-104.584,61.276,-163.938
1630,-0.8926,-0.3433,-0.1392,-16.602,1.831,12.512,-104.908,61.452,-164.042
1640,-0.9189,-0.2852,-0.1343,-1.282,6.897,14.648,-105.216,61.672,-164.257
1650,-0.9238,-0.2964,-0.1343,15.564,9.338,9.033,-105.364,61.826,-164.498
1660,-0.8945,-0.4497,-0.0811,29.297,9.216,-1.953,-105.178,61.793,-164.674
1670,-0.8672,-0.5845,-0.0386,25.635,4.211,-11.841,-104.826,61.611,-164.696
1680,-0.8511,-0.6431,-0.0537,6.348,-2.869,-16.174,-104.535,61.375,-164.553
1690,-0.8408,-0.6401,-0.0659,-11.719,-6.592,-14.832,-104.381,61.161,-164.339
1700,-0.8374,-0.5381,-0.1021,-24.231,-7.019,-6.653,-104.436,61.073,-164.163
1710,-0.8623,-0.4590,-0.1401,-25.452,-3.235,6.165,-104.683,61.139,-164.130
1720,-0.8901,-0.3779,-0.1431,-15.381,2.258,14.771,-105.002,61.315,-164.257
1730,-0.9058,-0.3096,-0.1548,-1.343,7.324,15.991,-105.331,61.529,-164.487
1740,-0.9121,-0.3882,-0.1343,14.099,11.902,10.193,-105.491,61.639,-164.784
1750,-0.8838,-0.5459,-0.0830,21.240,12.024,-1.038,-105.419,61.562,-165.026
1760,-0.8584,-0.6143,-0.0703,10.986,5.798,-9.155,-105.276,61.386,-165.092
1770,-0.8447,-0.5957,-0.0977,-5.249,-1.221,-10.437,-105.200,61.216,-165.009
1780,-0.8384,-0.5190,-0.1279,-15.869,-4.578,-4.395,-105.244,61.150,-164.894
1790,-0.8691,-0.4556,-0.1460,-16.968,-3.296,5.737,-105.408,61.216,-164.855
1800,-0.8960,-0.3525,-0.1523,-11.414,-0.793,13.550,-105.650,61.403,-164.916
1810,-0.9131,-0.2412,-0.1631,-0.977,2.258,16.296,-105.963,61.661,-165.053
1820,-0.9253,-0.2705,-0.1377,12.695,6.165,12.939,-106.122,61.870,-165.251
1830,-0.9082,-0.3984,-0.0850,20.325,7.202,3.296,-106.024,61.919,-165.421
1840,-0.8867,-0.5264,-0.0610,12.939,3.601,-7.874,-105.826,61.809,-165.449
1850,-0.8604,-0.6562,-0.0601,-3.113,-0.916,-17.639,-105.645,61.551,-165.328
1860,-0.8350,-0.6758,-0.0674,-20.874,-5.737,-21.973,-105.546,61.249,-165.086
1870,-0.8257,-0.6133,-0.1050,-34.851,-8.240,-17.151,-105.606,61.024,-164.828
1881,-0.8335,-0.5010,-0.1450,-34.973,-5.798,-5.066,-105.831,60.963,-164.680
1890,-0.8613,-0.4370,-0.1611,-21.790,-1.099,8.301,-106.111,61.051,-164.707
1900,-0.8892,-0.3701,-0.1357,-2.014,3.662,15.686,-106.315,61.243,-164.872
1910,-0.9082,-0.2896,-0.1328,14.648,7.141,16.724,-106.463,61.474,-165.108
1920,-0.9111,-0.3369,-0.1069,28.381,10.132,13.184,-106.436,61.644,-165.394
1930,-0.9004,-0.4629,-0.0664,32.471,10.437,5.005,-106.243,61.672,-165.630
1940,-0.8818,-0.5693,-0.0605,20.264,7.568,-4.517,-106.051,61.562,-165.756
1950,-0.8682,-0.6357,-0.0801,0.122,4.456,-11.841,-105.980,61.359,-165.778
1960,-0.8525,-0.6362,-0.1138,-18.005,2.014,-14.465,-106.062,61.128,-165.734
1971,-0.8374,-0.5249,-0.1538,-28.442,1.709,-9.827,-106.326,60.991,-165.712
1981,-0.8540,-0.3750,-0.2017,-26.428,3.296,2.319,-106.776,61.029,-165.795
1990,-0.8896,-0.2729,-0.2056,-9.583,6.042,13.672,-107.243,61.221,-165.992
2000,-0.9219,-0.2246,-0.1919,12.817,8.728,16.968,-107.595,61.463,-166.273
2011,-0.9092,-0.3364,-0.1406,31.433,10.437,11.292,-107.573,61.606,-166.553
2020,-0.8916,-0.5229,-0.0605,33.020,7.202,0.732,-107.271,61.573,-166.701
2030,-0.8745,-0.6348,-0.0527,13.245,-0.244,-10.925,-106.946,61.392,-166.630
2040,-0.8545,-0.6689,-0.0854,-12.085,-6.348,-18.799,-106.760,61.133,-166.388
2050,-0.8433,-0.6426,-0.1167,-29.907,-8.911,-19.653,-106.738,60.886,-166.091
2061,-0.8394,-0.5273,-0.1626,-35.767,-7.385,-12.939,-106.902,60.743,-165.872
2070,-0.8643,-0.4102,-0.2144,-28.564,-2.075,1.038,-107.265,60.771,-165.833
2080,-0.9038,-0.3076,-0.2261,-8.118,3.906,12.390,-107.666,60.941,-165.987
2090,-0.9116,-0.2539,-0.2187,17.639,8.850,14.832,-107.952,61.139,-166.256
2100,-0.8936,-0.4097,-0.1519,40.161,12.207,9.277,-107.836,61.221,-166.553
2110,-0.8691,-0.5801,-0.0645,42.847,7.690,-0.244,-107.430,61.144,-166.707
2120,-0.8511,-0.6206,-0.0615,22.339,-2.258,-8.179,-107.007,60.996,-166.608
2130,-0.8423,-0.6123,-0.0889,-1.343,-9.216,-10.559,-106.721,60.853,-166.360
2140,-0.8462,-0.5400,-0.1074,-18.555,-12.024,-6.165,-106.617,60.787,-166.091
2151,-0.8716,-0.4756,-0.1504,-26.123,-10.132,2.930,-106.727,60.842,-165.910
2160,-0.8970,-0.3857,-0.1743,-21.423,-5.188,10.193,-106.979,60.991,-165.866
2171,-0.9053,-0.2769,-0.1934,-8.179,-0.305,12.268,-107.298,61.194,-165.932
2181,-0.9155,-0.2749,-0.1816,9.521,4.883,10.254,-107.501,61.370,-166.097
2190,-0.8975,-0.4189,-0.1211,23.499,6.836,3.174,-107.391,61.403,-166.251
2200,-0.8701,-0.5498,-0.0664,21.118,1.587,-5.798,-107.073,61.304,-166.245
2210,-0.8521,-0.6284,-0.0664,5.859,-6.714,-13.062,-106.721,61.122,-166.031
2220,-0.8408,-0.6494,-0.0747,-11.292,-12.268,-14.954,-106.441,60.925,-165.701
2230,-0.8472,-0.5786,-0.1050,-24.536,-13.062,-9.766,-106.353,60.815,-165.383
2241,-0.8633,-0.4487,-0.1558,-27.344,-9.094,0.549,-106.496,60.848,-165.207
2250,-0.8926,-0.3857,-0.1743,-15.259,-2.075,10.315,-106.743,60.991,-165.229
2261,-0.9150,-0.3247,-0.1611,4.700,4.211,12.573,-106.930,61.172,-165.388
2271,-0.9033,-0.3135,-0.1499,24.292,7.751,7.507,-106.946,61.298,-165.586
2280,-0.8701,-0.4331,-0.0835,37.354,8.179,0.488,-106.661,61.298,-165.751
2290,-0.8545,-0.5713,-0.0298,32.104,2.197,-5.127,-106.221,61.194,-165.767
2300,-0.8530,-0.6294,-0.0337,11.169,-5.310,-8.667,-105.842,61.051,-165.608
2310,-0.8491,-0.6152,-0.0625,-10.132,-8.911,-9.155,-105.645,60.914,-165.383
2320,-0.8550,-0.5444,-0.0977,-24.414,-7.812,-4.272,-105.677,60.859,-165.201
2331,-0.8701,-0.4414,-0.1387,-28.259,-3.418,3.784,-105.930,60.914,-165.157
2340,-0.8882,-0.3740,-0.1621,-20.447,1.770,10.925,-106.293,61.057,-165.251
2351,-0.9009,-0.3574,-0.1538,-5.127,6.287,11.780,-106.584,61.210,-165.443
2360,-0.8975,-0.3721,-0.1372,8.728,7.385,6.409,-106.694,61.298,-165.630
2370,-0.8838,-0.4702,-0.1045,16.052,5.310,-0.183,-106.584,61.282,-165.734
2380,-0.8628,-0.5386,-0.0952,12.817,1.038,-5.615,-106.381,61.188,-165.723
2390,-0.8579,-0.6045,-0.1030,2.014,-2.930,-7.263,-106.205,61.062,-165.619
2400,-0.8521,-0.5811,-0.1157,-9.338,-4.761,-5.310,-106.139,60.963,-165.498
2411,-0.8618,-0.5176,-0.1499,-17.578,-4.211,0.549,-106.243,60.952,-165.416
2421,-0.8828,-0.4253,-0.1816,-16.113,-0.732,7.019,-106.496,61.035,-165.443
2431,-0.9019,-0.3345,-0.1841,-5.798,2.991,10.742,-106.782,61.188,-165.564
2441,-0.9097,-0.2695,-0.1846,8.545,6.226,10.803,-107.034,61.364,-165.751
2450,-0.8950,-0.3457,-0.1382,22.156,7.263,6.470,-107.023,61.469,-165.937
2460,-0.8809,-0.4810,-0.0825,22.827,2.869,-0.549,-106.771,61.447,-165.992
2470,-0.8730,-0.6187,-0.0649,9.277,-4.089,-8.972,-106.458,61.304,-165.855
2480,-0.8540,-0.6934,-0.0757,-9.644,-9.949,-16.418,-106.194,61.073,-165.558
2490,-0.8408,-0.6772,-0.0957,-25.452,-12.268,-17.578,-106.062,60.837,-165.212
2501,-0.8350,-0.4839,-0.1538,-33.569,-10.437,-8.667,-106.188,60.760,-164.960
2511,-0.8657,-0.3804,-0.2129,-24.963,-4.150,7.812,-106.534,60.875,-164.921
2520,-0.9043,-0.3462,-0.1768,-0.793,4.028,17.944,-106.809,61.089,-165.108
2531,-0.9043,-0.2788,-0.1562,20.142,7.019,17.212,-106.941,61.331,-165.350
2540,-0.8882,-0.3511,-0.1079,33.325,7.141,12.085,-106.804,61.485,-165.564
2550,-0.8892,-0.5269,-0.0391,32.043,3.052,3.845,-106.436,61.490,-165.646
2560,-0.8809,-0.6221,-0.0229,13.489,-3.906,-6.653,-106.051,61.370,-165.531
2570,-0.8540,-0.6182,-0.0586,-10.803,-9.277,-13.306,-105.826,61.194,-165.267
2580,-0.8462,-0.5659,-0.0967,-27.527,-10.376,-11.780,-105.798,61.057,-164.993
2591,-0.8623,-0.4751,-0.1362,-32.349,-7.690,-4.517,-105.969,61.029,-164.817
2601,-0.8843,-0.3755,-0.1792,-24.658,-2.441,5.188,-106.293,61.122,-164.795
2610,-0.9106,-0.3193,-0.1768,-4.944,4.089,10.010,-106.589,61.276,-164.938
2620,-0.9033,-0.2583,-0.1680,17.578,8.301,7.202,-106.760,61.419,-165.146
2630,-0.8779,-0.3823,-0.0981,35.950,9.949,1.587,-106.562,61.452,-165.355
2640,-0.8608,-0.4888,-0.0342,35.889,4.883,-3.845,-106.144,61.392,-165.427
2650,-0.8647,-0.5674,-0.0415,17.090,-3.418,-7.141,-105.760,61.282,-165.317
2660,-0.8652,-0.6650,-0.0425,-5.127,-6.470,-8.789,-105.535,61.128,-165.141
2670,-0.8550,-0.6362,-0.0698,-28.137,-7.507,-8.301,-105.551,60.991,-164.943
2681,-0.8599,-0.5073,-0.1489,-43.213,-6.165,-2.747,-105.864,60.958,-164.806
2691,-0.8833,-0.4399,-0.1865,-37.720,-0.549,4.578,-106.326,61.007,-164.822
2700,-0.9063,-0.3862,-0.2012,-17.883,4.700,7.507,-106.732,61.100,-164.954
2711,-0.9175,-0.3296,-0.2056,7.996,8.606,5.066,-106.979,61.183,-165.157
2721,-0.8799,-0.3745,-0.1694,34.546,10.742,-0.793,-106.891,61.183,-165.366
2730,-0.8550,-0.4717,-0.1094,47.119,7.751,-4.333,-106.496,61.111,-165.493
2740,-0.8550,-0.5532,-0.0879,40.344,0.977,-4.822,-106.013,61.018,-165.487
2750,-0.8506,-0.6021,-0.0786,23.743,-3.906,-4.883,-105.601,60.919,-165.377
2760,-0.8496,-0.6162,-0.0879,4.028,-6.287,-3.784,-105.364,60.826,-165.234
2770,-0.8623,-0.5542,-0.1040,-13.367,-6.592,-0.305,-105.331,60.804,-165.103
2781,-0.8657,-0.4458,-0.1479,-22.278,-5.066,5.432,-105.524,60.875,-165.031
2791,-0.8901,-0.3950,-0.1479,-18.433,-2.075,10.620,-105.771,61.018,-165.048
2801,-0.9067,-0.3086,-0.1450,-8.301,-0.610,10.376,-105.985,61.205,-165.097
2811,-0.9072,-0.2588,-0.1323,4.944,0.122,6.348,-106.084,61.375,-165.135
2820,-0.8892,-0.3457,-0.0908,18.005,-0.183,0.305,-105.886,61.447,-165.130
2830,-0.8813,-0.5049,-0.0410,20.691,-2.991,-7.019,-105.485,61.375,-165.031
2840,-0.8784,-0.6060,-0.0488,8.423,-5.798,-13.855,-105.123,61.199,-164.839
2850,-0.8633,-0.6816,-0.0620,-7.812,-5.127,-17.944,-104.925,60.941,-164.636
2860,-0.8457,-0.6270,-0.1045,-21.118,-2.319,-16.235,-104.969,60.716,-164.504
2871,-0.8477,-0.5376,-0.1606,-26.306,1.648,-6.226,-105.244,60.612,-164.504
2881,-0.8589,-0.4761,-0.1816,-17.578,5.737,6.042,-105.601,60.639,-164.652
2891,-0.8809,-0.4268,-0.1733,-1.160,6.592,12.695,-105.848,60.760,-164.850
2901,-0.8950,-0.3687,-0.1572,14.709,5.188,12.756,-105.925,60.919,-165.020
2911,-0.8833,-0.3633,-0.1313,25.940,2.258,9.460,-105.793,61.057,-165.119
2920,-0.8726,-0.4785,-0.0752,29.297,-1.160,4.944,-105.436,61.106,-165.125
2930,-0.8716,-0.5430,-0.0469,18.188,-5.615,-0.122,-105.057,61.089,-165.015
2940,-0.8628,-0.5410,-0.0664,-1.038,-8.484,-3.845,-104.821,61.040,-164.822
2950,-0.8643,-0.5171,-0.0903,-15.076,-7.690,-3.479,-104.771,61.007,-164.652
2960,-0.8755,-0.5020,-0.1089,-21.057,-4.700,-0.244,-104.870,61.002,-164.553
2971,-0.8789,-0.4414,-0.1255,-19.592,-0.977,3.052,-105.073,61.046,-164.553
2981,-0.8818,-0.3418,-0.1455,-11.230,1.404,5.066,-105.309,61.155,-164.608
2991,-0.8940,-0.3042,-0.1387,3.174,3.418,5.493,-105.458,61.282,-164.707
3000,-0.8994,-0.4082,-0.1011,17.029,4.883,1.770,-105.364,61.320,-164.811
3011,-0.8730,-0.5288,-0.0562,19.226,3.418,-5.432,-105.117,61.232,-164.850
3020,-0.8618,-0.6099,-0.0649,5.981,-0.427,-10.132,-104.914,61.073,-164.789
3030,-0.8564,-0.6538,-0.0874,-10.376,-2.563,-10.925,-104.848,60.886,-164.680
3040,-0.8467,-0.6514,-0.1143,-22.888,-2.319,-7.324,-104.952,60.732,-164.597
3051,-0.8486,-0.5474,-0.1567,-28.137,-0.854,0.488,-105.227,60.694,-164.581
3061,-0.8652,-0.4346,-0.1973,-21.973,1.099,10.681,-105.606,60.798,-164.658
3071,-0.8936,-0.3384,-0.1973,-3.906,3.845,17.517,-105.941,61.013,-164.833
3081,-0.9185,-0.2769,-0.1929,16.418,5.432,17.761,-106.144,61.254,-165.042
3090,-0.9033,-0.3184,-0.1450,34.363,6.042,11.658,-106.051,61.425,-165.229
3100,-0.8843,-0.4453,-0.0806,38.147,2.686,3.845,-105.683,61.469,-165.306
3110,-0.8833,-0.5684,-0.0493,23.376,-3.540,-4.089,-105.266,61.397,-165.212
3120,-0.8682,-0.6099,-0.0610,0.732,-8.606,-11.414,-104.952,61.243,-164.976
3130,-0.8486,-0.6045,-0.0864,-18.311,-10.315,-13.306,-104.826,61.073,-164.696
3140,-0.8462,-0.5098,-0.1167,-28.931,-9.033,-8.118,-104.897,60.991,-164.471
3151,-0.8677,-0.3916,-0.1592,-28.076,-5.981,2.686,-105.161,61.062,-164.366
3161,-0.9028,-0.3120,-0.1611,-12.268,-0.732,11.475,-105.441,61.254,-164.416
3171,-0.9106,-0.2222,-0.1567,8.545,3.540,12.451,-105.677,61.485,-164.553
3181,-0.9053,-0.3179,-0.1211,26.917,6.226,7.629,-105.612,61.617,-164.724
3190,-0.8916,-0.5063,-0.0459,31.982,4.211,-1.831,-105.255,61.578,-164.800
3200,-0.8716,-0.6167,-0.0347,16.479,-2.991,-12.451,-104.859,61.397,-164.669
3210,-0.8540,-0.6602,-0.0562,-5.798,-8.667,-18.616,-104.579,61.150,-164.394
3220,-0.8403,-0.6064,-0.0898,-22.644,-10.376,-17.517,-104.480,60.936,-164.092
3230,-0.8467,-0.5747,-0.1255,-28.748,-7.568,-8.911,-104.573,60.809,-163.900
3240,-0.8672,-0.5415,-0.1367,-23.132,-2.502,1.892,-104.760,60.798,-163.856
3251,-0.8711,-0.4482,-0.1553,-10.925,1.160,8.972,-104.974,60.886,-163.927
3261,-0.8726,-0.3750,-0.1450,6.531,4.211,11.841,-105.101,61.035,-164.075
3271,-0.8765,-0.3823,-0.1104,21.790,5.493,12.024,-105.046,61.183,-164.246
3280,-0.8779,-0.4580,-0.0684,27.405,3.052,9.644,-104.804,61.276,-164.361
3291,-0.8853,-0.5146,-0.0488,20.142,-1.221,5.005,-104.513,61.315,-164.361
3301,-0.8755,-0.5317,-0.0684,5.249,-3.845,0.061,-104.321,61.293,-164.284
3310,-0.8687,-0.5249,-0.0806,-7.751,-4.028,-2.075,-104.266,61.260,-164.196
3320,-0.8696,-0.4443,-0.1152,-15.747,-3.967,-0.549,-104.348,61.271,-164.114
3331,-0.8813,-0.3896,-0.1338,-12.207,-1.465,2.258,-104.502,61.331,-164.092
3341,-0.8950,-0.3149,-0.1323,0.244,1.038,2.625,-104.612,61.436,-164.130
3351,-0.9028,-0.2964,-0.1128,15.747,3.357,0.000,-104.579,61.518,-164.196
3360,-0.8867,-0.3794,-0.0596,26.855,4.883,-3.967,-104.321,61.518,-164.273
3371,-0.8784,-0.5176,-0.0073,23.560,2.625,-8.179,-103.964,61.414,-164.284
3381,-0.8618,-0.6006,0.0005,8.057,-1.343,-12.573,-103.667,61.232,-164.196
3390,-0.8589,-0.6431,-0.0386,-12.634,-3.113,-13.184,-103.579,61.035,-164.064
3400,-0.8638,-0.6099,-0.0850,-28.198,-0.732,-9.277,-103.749,60.881,-164.009
3411,-0.8677,-0.4883,-0.1533,-33.997,4.211,-2.319,-104.183,60.837,-164.081
3421,-0.8755,-0.3613,-0.2109,-25.085,10.315,6.226,-104.799,60.908,-164.317
3431,-0.8979,-0.3291,-0.2173,-3.784,15.381,10.986,-105.337,61.024,-164.680
3441,-0.8975,-0.3530,-0.1875,17.517,15.137,7.507,-105.584,61.106,-165.020
3451,-0.8809,-0.4448,-0.1353,28.198,8.972,-0.183,-105.474,61.095,-165.201
3460,-0.8604,-0.6055,-0.0913,25.879,0.610,-8.301,-105.117,60.947,-165.168
3470,-0.8359,-0.6968,-0.0879,12.878,-8.179,-14.038,-104.705,60.727,-164.927
3480,-0.8267,-0.6655,-0.1050,-1.343,-13.367,-12.146,-104.381,60.540,-164.603
3490,-0.8354,-0.5835,-0.1245,-8.789,-12.085,-2.136,-104.227,60.491,-164.350
3501,-0.8828,-0.4795,-0.1440,-6.653,-6.470,9.644,-104.249,60.601,-164.273
3511,-0.9028,-0.3857,-0.1348,5.249,0.183,15.991,-104.321,60.804,-164.355
3520,-0.8999,-0.3662,-0.0952,19.958,5.493,15.991,-104.293,61.007,-164.548
3530,-0.8950,-0.3345,-0.0591,26.184,5.615,12.512,-104.139,61.194,-164.724
3540,-0.8921,-0.3281,-0.0508,20.813,2.380,8.484,-103.964,61.359,-164.811
3550,-0.8984,-0.3843,-0.0449,9.583,-1.282,3.052,-103.782,61.441,-164.806
3560,-0.8921,-0.4575,-0.0327,-4.639,-3.174,-5.737,-103.651,61.408,-164.713
3570,-0.8823,-0.4951,-0.0605,-20.142,-3.967,-14.160,-103.656,61.271,-164.559
3580,-0.8721,-0.5410,-0.0698,-28.625,-2.380,-19.897,-103.749,61.057,-164.416
3590,-0.8579,-0.5347,-0.1035,-31.006,0.488,-21.484,-103.942,60.809,-164.317
3600,-0.8501,-0.5288,-0.1377,-25.757,4.761,-17.822,-104.211,60.595,-164.323
3611,-0.8457,-0.5635,-0.1538,-13.611,9.033,-11.230,-104.464,60.414,-164.449
3621,-0.8467,-0.5674,-0.1562,-0.793,11.169,-4.761,-104.645,60.287,-164.641
3631,-0.8491,-0.5625,-0.1636,8.850,11.780,1.221,-104.777,60.222,-164.877
3641,-0.8560,-0.5449,-0.1631,12.512,11.353,6.287,-104.892,60.216,-165.130
3651,-0.8657,-0.5054,-0.1626,10.620,9.094,9.888,-105.013,60.271,-165.361
3661,-0.8687,-0.4644,-0.1592,7.629,5.493,11.414,-105.117,60.364,-165.526
3671,-0.8701,-0.4233,-0.1440,5.188,1.343,10.742,-105.172,60.491,-165.608
3681,-0.8813,-0.3833,-0.1274,2.441,-3.357,8.789,-105.167,60.634,-165.591
3691,-0.8950,-0.3350,-0.1055,1.099,-6.409,5.554,-105.095,60.782,-165.493
3701,-0.8979,-0.3242,-0.0972,1.221,-6.775,1.404,-104.991,60.897,-165.366
3710,-0.9014,-0.4434,-0.0688,2.625,-4.028,-4.578,-104.810,60.892,-165.262
3720,-0.8833,-0.5557,-0.0488,-0.549,-0.854,-12.329,-104.650,60.743,-165.179
3730,-0.8511,-0.6475,-0.0771,-9.094,1.221,-17.395,-104.601,60.491,-165.114
3740,-0.8438,-0.6855,-0.0923,-16.602,4.517,-16.174,-104.705,60.227,-165.119
3750,-0.8301,-0.6104,-0.1504,-22.644,6.836,-9.094,-104.991,60.051,-165.207
3761,-0.8315,-0.5200,-0.1821,-18.799,9.460,2.747,-105.392,60.018,-165.405
3771,-0.8501,-0.4126,-0.1943,-7.446,9.216,14.038,-105.782,60.145,-165.657
3781,-0.8770,-0.3442,-0.1846,8.118,8.057,19.897,-106.051,60.370,-165.921
3791,-0.8809,-0.3423,-0.1538,21.729,5.859,18.494,-106.106,60.595,-166.141
3800,-0.8896,-0.4463,-0.1104,24.658,1.892,12.268,-105.930,60.727,-166.245
3811,-0.8955,-0.5605,-0.0728,14.221,-2.808,2.075,-105.667,60.727,-166.201
3820,-0.8706,-0.5972,-0.0894,-5.188,-7.202,-7.935,-105.485,60.617,-166.014
3830,-0.8569,-0.5845,-0.1235,-22.034,-9.277,-10.925,-105.458,60.480,-165.773
3841,-0.8579,-0.5679,-0.1548,-29.419,-8.240,-7.202,-105.573,60.386,-165.575
3851,-0.8652,-0.5044,-0.1831,-26.001,-4.822,-0.671,-105.793,60.370,-165.476
3861,-0.8716,-0.3721,-0.2168,-12.939,-0.916,5.920,-106.078,60.463,-165.493
3871,-0.8921,-0.3042,-0.2178,9.460,3.723,10.681,-106.293,60.623,-165.624
3881,-0.8818,-0.3428,-0.1821,30.457,6.287,11.108,-106.271,60.765,-165.811
3890,-0.8784,-0.4741,-0.1108,36.804,3.357,8.301,-105.974,60.837,-165.927
3900,-0.8809,-0.5801,-0.0767,25.208,-4.211,2.075,-105.579,60.826,-165.855
3911,-0.8638,-0.6499,-0.0762,4.517,-11.292,-5.188,-105.227,60.727,-165.602
3921,-0.8530,-0.6880,-0.0747,-15.442,-15.503,-8.545,-104.985,60.590,-165.251
3931,-0.8467,-0.5781,-0.1079,-30.029,-17.090,-6.042,-104.919,60.518,-164.883
3941,-0.8457,-0.3574,-0.1646,-30.762,-15.259,3.662,-105.079,60.639,-164.603
3951,-0.8862,-0.2241,-0.1904,-11.047,-8.972,16.174,-105.364,60.930,-164.509
3960,-0.9160,-0.1411,-0.1729,19.104,-1.587,20.752,-105.601,61.287,-164.592
3971,-0.9038,-0.2603,-0.1074,43.945,3.113,16.724,-105.370,61.551,-164.745
3981,-0.9014,-0.4897,0.0054,47.119,1.160,8.118,-104.804,61.628,-164.817
3991,-0.9009,-0.6313,0.0352,24.292,-6.653,-6.165,-104.233,61.518,-164.647
4001,-0.8740,-0.6665,0.0068,-6.104,-12.329,-19.348,-103.843,61.271,-164.295
4011,-0.8477,-0.6304,-0.0303,-30.457,-13.123,-22.766,-103.705,61.007,-163.922
4021,-0.8408,-0.5552,-0.0811,-42.297,-10.132,-15.991,-103.826,60.826,-163.636
4031,-0.8594,-0.4556,-0.1323,-38.391,-3.967,-2.747,-104.150,60.815,-163.548
4041,-0.8794,-0.3711,-0.1675,-19.043,3.113,7.874,-104.524,60.925,-163.647
4051,-0.8984,-0.3130,-0.1553,9.644,9.644,10.681,-104.766,61.084,-163.894
4061,-0.8911,-0.3726,-0.1245,34.607,13.916,7.812,-104.733,61.172,-164.213
4071,-0.8706,-0.5376,-0.0562,44.617,13.733,2.869,-104.458,61.139,-164.504
4081,-0.8472,-0.6045,-0.0264,32.288,6.409,-2.075,-104.123,61.035,-164.625
4091,-0.8477,-0.5806,-0.0483,8.179,-1.526,-2.869,-103.909,60.958,-164.575
4101,-0.8550,-0.5039,-0.0708,-11.292,-5.737,0.977,-103.865,60.963,-164.465
4110,-0.8784,-0.4517,-0.1016,-21.179,-6.348,7.202,-103.986,61.057,-164.377
4121,-0.9063,-0.4399,-0.1167,-22.095,-4.517,11.047,-104.178,61.199,-164.339
4131,-0.9141,-0.4287,-0.1230,-16.357,-1.160,8.301,-104.376,61.309,-164.361
4141,-0.8979,-0.4136,-0.1426,-7.812,2.869,2.686,-104.562,61.353,-164.432
4151,-0.8823,-0.4517,-0.1519,1.587,6.165,-1.160,-104.689,61.331,-164.548
4161,-0.8604,-0.5073,-0.1401,7.935,6.470,-2.686,-104.722,61.265,-164.663
4171,-0.8516,-0.4917,-0.1470,7.202,2.502,-1.465,-104.705,61.221,-164.707
4180,-0.8652,-0.4795,-0.1426,5.310,-1.587,1.648,-104.650,61.227,-164.685
4191,-0.8804,-0.4873,-0.1143,4.395,-4.028,3.540,-104.540,61.260,-164.625
4200,-0.8853,-0.4536,-0.1113,0.732,-5.981,3.601,-104.436,61.320,-164.520
4211,-0.8921,-0.4253,-0.1084,-1.709,-6.409,3.784,-104.354,61.397,-164.410
4221,-0.8926,-0.4370,-0.0889,-0.610,-5.554,2.930,-104.249,61.463,-164.312
4231,-0.8867,-0.4561,-0.0767,0.916,-4.333,-0.122,-104.117,61.479,-164.224
4241,-0.8760,-0.4902,-0.0771,1.587,-1.526,-2.991,-104.008,61.447,-164.180
4251,-0.8667,-0.5371,-0.0806,1.099,2.197,-4.028,-103.964,61.364,-164.202
4261,-0.8618,-0.5464,-0.0869,-1.526,5.066,-2.563,-104.008,61.287,-164.295
4271,-0.8535,-0.4897,-0.1035,-3.784,6.470,0.916,-104.139,61.265,-164.427
4281,-0.8608,-0.3999,-0.1240,-3.113,6.042,6.165,-104.337,61.337,-164.581
4291,-0.8833,-0.3760,-0.1187,2.441,4.517,9.460,-104.464,61.463,-164.724
4300,-0.9058,-0.4097,-0.0977,7.385,1.892,7.324,-104.447,61.567,-164.800
4311,-0.8994,-0.4702,-0.0791,7.690,-1.343,0.610,-104.304,61.578,-164.773
4321,-0.8828,-0.5264,-0.0688,2.747,-3.723,-5.798,-104.112,61.507,-164.669
4331,-0.8623,-0.5747,-0.0752,-5.127,-4.944,-8.362,-103.975,61.386,-164.526
4341,-0.8569,-0.5503,-0.0864,-12.329,-3.540,-5.737,-103.958,61.298,-164.427
4351,-0.8628,-0.4453,-0.1274,-14.648,0.305,0.671,-104.128,61.309,-164.432
4361,-0.8867,-0.3921,-0.1362,-6.653,6.592,7.568,-104.398,61.397,-164.608
4371,-0.9043,-0.3716,-0.1416,5.981,12.878,8.972,-104.667,61.501,-164.910
4381,-0.9033,-0.4375,-0.1289,17.639,16.113,3.845,-104.815,61.518,-165.262
4391,-0.8979,-0.5625,-0.1064,22.522,14.282,-4.944,-104.777,61.392,-165.526
4401,-0.8809,-0.6387,-0.1069,21.667,8.484,-14.893,-104.590,61.150,-165.613
4411,-0.8115,-0.6455,-0.1104,22.461,1.953,-20.996,-104.260,60.848,-165.542
4421,-0.7974,-0.6108,-0.0991,21.301,-3.601,-12.695,-103.881,60.645,-165.410
4431,-0.8462,-0.4673,-0.1138,18.311,-5.554,5.249,-103.623,60.705,-165.322
4441,-0.8696,-0.2949,-0.1299,18.555,-1.526,21.790,-103.607,61.013,-165.399
4451,-0.9043,-0.2388,-0.1230,19.043,4.822,32.532,-103.777,61.436,-165.652
4461,-0.9473,-0.3057,-0.0981,14.343,7.080,31.189,-103.931,61.820,-165.954
4471,-0.9653,-0.4355,-0.0615,3.906,5.371,15.137,-103.997,61.990,-166.141
4481,-0.9224,-0.5239,-0.0708,-9.949,2.075,-8.789,-104.030,61.880,-166.141
4491,-0.8838,-0.5635,-0.1118,-21.790,-1.404,-26.917,-104.073,61.578,-165.970
4501,-0.8428,-0.5391,-0.1523,-24.109,-2.747,-32.959,-104.134,61.216,-165.745
4511,-0.8237,-0.4780,-0.1885,-16.663,-1.648,-23.926,-104.238,60.958,-165.591
4521,-0.8379,-0.4536,-0.1943,-1.343,0.732,-5.737,-104.332,60.886,-165.575
4531,-0.8501,-0.3936,-0.1660,13.733,1.465,10.132,-104.348,61.007,-165.657
4541,-0.8643,-0.3525,-0.1284,18.372,0.488,20.935,-104.326,61.260,-165.773
4551,-0.9126,-0.4111,-0.0889,13.184,-2.380,24.292,-104.238,61.540,-165.850
4561,-0.9395,-0.5264,-0.0371,1.221,-6.592,15.137,-104.079,61.694,-165.795
4571,-0.9087,-0.5347,-0.0396,-15.625,-11.475,-2.136,-103.920,61.677,-165.547
4581,-0.8877,-0.5132,-0.0806,-28.809,-14.587,-14.648,-103.826,61.551,-165.179
4591,-0.8745,-0.5259,-0.1157,-28.503,-13.123,-18.921,-103.782,61.370,-164.817
4601,-0.8613,-0.5469,-0.1226,-17.944,-8.057,-16.418,-103.733,61.188,-164.570
4611,-0.8462,-0.4834,-0.1445,-4.028,-2.747,-9.033,-103.716,61.089,-164.471
4621,-0.8457,-0.3965,-0.1553,13.000,2.380,0.977,-103.711,61.111,-164.520
4631,-0.8501,-0.3843,-0.1152,29.480,6.653,9.521,-103.607,61.227,-164.702
4640,-0.8877,-0.4185,-0.0674,33.142,7.141,14.832,-103.420,61.386,-164.921
4651,-0.8999,-0.4541,-0.0464,23.865,3.662,13.245,-103.228,61.518,-165.059
4661,-0.9048,-0.4902,-0.0337,7.446,-1.038,5.981,-103.068,61.578,-165.064
4671,-0.8916,-0.5034,-0.0620,-10.864,-5.676,-3.296,-103.002,61.551,-164.932
4681,-0.8892,-0.5322,-0.0786,-21.545,-8.179,-9.949,-102.980,61.447,-164.718
4691,-0.8652,-0.5347,-0.0913,-23.193,-9.033,-13.611,-102.964,61.298,-164.471
4701,-0.8545,-0.5039,-0.1011,-18.738,-7.507,-11.353,-102.953,61.183,-164.268
4711,-0.8584,-0.4419,-0.1201,-8.789,-4.028,-4.333,-102.975,61.155,-164.163
4721,-0.8784,-0.4111,-0.1196,5.554,0.671,3.052,-102.975,61.216,-164.191
4731,-0.8799,-0.3955,-0.0933,18.372,4.822,6.470,-102.909,61.304,-164.323
4741,-0.8887,-0.3950,-0.0933,21.423,6.287,7.935,-102.843,61.408,-164.487
4751,-0.8979,-0.4731,-0.0737,18.433,6.531,5.615,-102.761,61.458,-164.647
4761,-0.8911,-0.5649,-0.0659,7.446,5.005,-0.671,-102.711,61.397,-164.745
4771,-0.8730,-0.5737,-0.0986,-10.437,1.953,-5.737,-102.794,61.287,-164.756
4781,-0.8647,-0.5742,-0.1362,-25.391,-0.488,-4.822,-103.024,61.188,-164.724
4791,-0.8696,-0.5542,-0.1606,-32.288,-2.747,-0.793,-103.326,61.139,-164.663
4801,-0.8711,-0.4854,-0.1880,-29.358,-4.944,2.930,-103.618,61.155,-164.581
4811,-0.8770,-0.4048,-0.1997,-16.357,-6.470,6.042,-103.821,61.249,-164.476
4821,-0.8950,-0.3721,-0.1924,2.136,-6.470,7.568,-103.854,61.370,-164.383
4831,-0.8931,-0.3711,-0.1694,18.188,-5.554,5.615,-103.705,61.479,-164.301
4841,-0.8828,-0.4355,-0.1230,24.414,-5.493,3.296,-103.403,61.540,-164.207
4851,-0.8711,-0.5225,-0.0713,17.517,-8.240,1.587,-103.035,61.545,-164.048
4861,-0.8579,-0.5654,-0.0410,0.977,-13.000,-0.183,-102.700,61.523,-163.779
4871,-0.8569,-0.5698,-0.0327,-17.639,-17.334,-0.122,-102.475,61.507,-163.422
4881,-0.8706,-0.4897,-0.0342,-28.870,-19.470,1.404,-102.332,61.556,-163.032
4891,-0.8818,-0.3687,-0.0610,-27.588,-17.700,4.089,-102.277,61.688,-162.686
4901,-0.9258,-0.2783,-0.0820,-10.925,-11.169,5.310,-102.244,61.870,-162.482
4911,-0.9243,-0.2485,-0.0947,16.663,-1.770,-0.427,-102.134,61.990,-162.444
4921,-0.8843,-0.4165,-0.0376,44.800,7.690,-9.766,-101.722,61.908,-162.559
4931,-0.8613,-0.6108,0.0234,50.903,10.315,-16.846,-101.201,61.655,-162.702
4941,-0.8423,-0.7124,0.0137,34.302,6.714,-19.958,-100.789,61.326,-162.757
4951,-0.8242,-0.7187,-0.0181,13.245,1.648,-17.639,-100.536,61.029,-162.724
4961,-0.8281,-0.6230,-0.0493,-4.028,-2.380,-7.935,-100.448,60.875,-162.642
4971,-0.8501,-0.4619,-0.1040,-12.085,-3.113,6.592,-100.558,60.947,-162.603
4981,-0.8979,-0.3608,-0.1211,-6.958,0.244,18.677,-100.772,61.188,-162.680
4991,-0.9224,-0.2930,-0.1235,5.798,4.578,20.020,-100.981,61.474,-162.850
5001,-0.9141,-0.2944,-0.1084,18.799,6.653,12.329,-101.052,61.677,-163.037
5011,-0.8906,-0.4048,-0.0542,24.597,5.066,2.441,-100.871,61.727,-163.152
5021,-0.8726,-0.5132,-0.0234,15.564,-0.305,-5.859,-100.607,61.650,-163.125
5031,-0.8569,-0.5874,-0.0293,-3.357,-5.859,-10.925,-100.421,61.490,-162.960
5041,-0.8501,-0.6045,-0.0200,-21.667,-8.911,-11.169,-100.355,61.331,-162.735
5051,-0.8555,-0.5322,-0.0566,-36.438,-8.484,-5.310,-100.503,61.260,-162.537
5061,-0.8794,-0.4609,-0.0986,-38.635,-3.357,3.723,-100.854,61.309,-162.482
5071,-0.8999,-0.3853,-0.1162,-26.367,3.174,8.850,-101.261,61.436,-162.581
5081,-0.9058,-0.2896,-0.1353,-5.737,8.850,8.057,-101.646,61.589,-162.801
5091,-0.9072,-0.3364,-0.1392,18.738,14.221,3.052,-101.832,61.655,-163.103
5101,-0.8838,-0.5347,-0.0796,36.621,16.479,-5.981,-101.711,61.534,-163.416
5111,-0.8555,-0.6392,-0.0493,30.823,11.169,-12.756,-101.486,61.304,-163.592
5121,-0.8335,-0.6592,-0.0737,10.620,3.845,-12.451,-101.349,61.073,-163.619
5131,-0.8325,-0.6079,-0.0923,-7.996,-1.770,-5.493,-101.354,60.952,-163.559
5141,-0.8545,-0.5190,-0.1206,-19.470,-5.249,5.615,-101.492,60.985,-163.477
5151,-0.8892,-0.4385,-0.1353,-19.104,-5.737,14.282,-101.684,61.155,-163.422
5161,-0.9077,-0.3159,-0.1450,-9.827,-4.578,16.235,-101.893,61.397,-163.394
5171,-0.9209,-0.2383,-0.1479,5.432,-1.465,12.878,-102.057,61.644,-163.422
5181,-0.9150,-0.2920,-0.1143,21.484,1.892,6.104,-101.997,61.793,-163.488
5191,-0.8965,-0.4531,-0.0596,26.978,1.831,-2.869,-101.706,61.776,-163.515
5201,-0.8818,-0.5801,-0.0273,15.747,-3.113,-11.902,-101.360,61.617,-163.400
5211,-0.8608,-0.6333,-0.0415,-3.235,-9.338,-18.738,-101.080,61.370,-163.125
5221,-0.8418,-0.6509,-0.0488,-17.700,-11.108,-19.287,-100.926,61.111,-162.823
5231,-0.8394,-0.6016,-0.0728,-24.597,-9.460,-13.245,-100.915,60.936,-162.576
5241,-0.8530,-0.5186,-0.1006,-21.240,-5.920,-2.075,-101.014,60.897,-162.449
5251,-0.8784,-0.4448,-0.1113,-7.446,-1.038,8.728,-101.129,61.002,-162.466
5261,-0.8882,-0.3604,-0.1074,9.949,3.174,13.794,-101.190,61.188,-162.581
5271,-0.8901,-0.3389,-0.0991,25.085,6.287,13.489,-101.151,61.381,-162.762
5281,-0.8823,-0.4282,-0.0571,33.203,7.080,9.521,-100.948,61.485,-162.949
5291,-0.8843,-0.5142,-0.0244,26.062,3.479,3.845,-100.679,61.496,-163.037
5301,-0.8779,-0.5396,-0.0347,6.531,-1.770,-1.404,-100.508,61.458,-162.993
5311,-0.8760,-0.5347,-0.0698,-12.878,-4.944,-4.395,-100.503,61.392,-162.878
5321,-0.8838,-0.5366,-0.0879,-25.024,-6.775,-5.310,-100.602,61.326,-162.713
5331,-0.8848,-0.4893,-0.1089,-30.823,-8.545,-5.798,-100.756,61.276,-162.521
5341,-0.8770,-0.4194,-0.1396,-28.015,-10.132,-5.737,-100.909,61.260,-162.290
5351,-0.8750,-0.3896,-0.1431,-16.907,-11.047,-4.028,-100.959,61.271,-162.048
5361,-0.8789,-0.4224,-0.1138,-2.686,-11.353,-4.089,-100.811,61.276,-161.801
5371,-0.8789,-0.4814,-0.0801,6.714,-12.024,-5.676,-100.497,61.243,-161.532
5381,-0.8696,-0.5156,-0.0596,8.057,-13.062,-7.385,-100.124,61.172,-161.235
5391,-0.8643,-0.5239,-0.0552,5.310,-12.817,-7.324,-99.778,61.100,-160.950
5401,-0.8623,-0.5156,-0.0464,2.563,-11.230,-5.310,-99.492,61.046,-160.703
5411,-0.8691,-0.5068,-0.0405,1.221,-9.155,-2.075,-99.267,61.024,-160.505
5421,-0.8799,-0.4136,-0.0435,1.709,-7.446,1.404,-99.086,61.089,-160.362
5431,-0.8960,-0.3154,-0.0601,6.165,-5.371,5.310,-98.965,61.243,-160.269
5441,-0.8960,-0.3037,-0.0425,15.320,-1.892,6.470,-98.784,61.408,-160.252
5451,-0.8926,-0.4097,-0.0063,21.118,0.488,3.235,-98.514,61.474,-160.269
5461,-0.8936,-0.5479,0.0239,15.137,1.038,-3.235,-98.267,61.414,-160.280
5471,-0.8794,-0.6040,0.0073,-0.305,1.038,-11.169,-98.168,61.243,-160.269
5481,-0.8535,-0.6343,-0.0361,-12.085,2.258,-15.808,-98.240,61.007,-160.269
5491,-0.8428,-0.6548,-0.0542,-15.320,4.822,-14.465,-98.405,60.771,-160.323
5501,-0.8345,-0.5830,-0.0937,-12.146,7.202,-8.301,-98.635,60.617,-160.444
5511,-0.8496,-0.4854,-0.1406,-1.709,9.521,2.441,-98.899,60.612,-160.648
5521,-0.8696,-0.4580,-0.1338,15.381,11.658,11.597,-99.058,60.716,-160.917
5531,-0.8677,-0.4512,-0.0996,27.710,10.864,15.320,-99.047,60.859,-161.186
5541,-0.8613,-0.4307,-0.0693,29.053,5.615,16.357,-98.904,61.035,-161.351
5551,-0.8740,-0.4497,-0.0454,21.912,-0.427,16.479,-98.696,61.210,-161.395
5561,-0.8945,-0.4888,-0.0273,9.155,-5.066,13.245,-98.492,61.353,-161.334
5571,-0.9048,-0.4893,-0.0332,-5.981,-6.531,7.080,-98.410,61.430,-161.219
5581,-0.9053,-0.4644,-0.0615,-17.944,-3.967,1.709,-98.514,61.469,-161.142
5591,-0.8994,-0.4346,-0.0947,-21.118,0.427,-1.160,-98.762,61.479,-161.147
5601,-0.8926,-0.4209,-0.1118,-14.709,4.883,-2.625,-99.053,61.469,-161.241
5611,-0.8838,-0.3994,-0.1235,-3.174,7.385,-3.784,-99.283,61.452,-161.384
5621,-0.8721,-0.4248,-0.1089,10.498,7.629,-4.761,-99.355,61.414,-161.521
5631,-0.8638,-0.5059,-0.0664,18.921,5.127,-4.822,-99.229,61.337,-161.614
5641,-0.8521,-0.5728,-0.0410,15.747,0.366,-4.700,-99.014,61.238,-161.603
5651,-0.8511,-0.6045,-0.0366,5.188,-3.662,-3.479,-98.833,61.144,-161.516
5661,-0.8569,-0.6006,-0.0464,-5.859,-5.615,-0.854,-98.745,61.084,-161.400
5671,-0.8599,-0.5825,-0.0669,-11.963,-5.005,2.747,-98.756,61.062,-161.307
5681,-0.8735,-0.5479,-0.0806,-11.414,-2.502,5.981,-98.839,61.089,-161.274
5691,-0.8770,-0.4214,-0.1001,-5.005,0.000,8.423,-98.959,61.199,-161.301
5701,-0.8843,-0.3423,-0.1040,7.690,3.052,11.719,-99.047,61.375,-161.400
5711,-0.8867,-0.3750,-0.0601,22.339,5.676,12.390,-98.965,61.545,-161.559
5721,-0.8804,-0.4834,0.0049,27.344,3.357,8.484,-98.685,61.622,-161.658
5731,-0.8643,-0.5825,0.0342,18.005,-2.625,2.502,-98.344,61.589,-161.609
5741,-0.8667,-0.6968,0.0391,1.160,-5.798,-3.174,-98.102,61.463,-161.483
5751,-0.8540,-0.5898,0.0112,-17.517,-6.775,-5.310,-98.047,61.364,-161.323
5761,-0.8442,-0.3574,-0.0728,-28.687,-4.211,3.845,-98.300,61.458,-161.246
5771,-0.8911,-0.2510,-0.1006,-20.325,3.601,18.799,-98.751,61.754,-161.378
5781,-0.9360,-0.1265,-0.1113,-2.563,10.254,25.879,-99.360,62.172,-161.675
5791,-0.9507,-0.0967,-0.1177,14.954,13.855,22.827,-99.954,62.562,-162.048
5801,-0.9438,-0.3354,-0.0430,26.611,14.832,10.986,-99.976,62.721,-162.405
5811,-0.9263,-0.5630,0.0264,18.372,8.118,-9.155,-99.794,62.578,-162.548
5821,-0.8877,-0.6655,-0.0010,-7.080,-2.136,-29.724,-99.630,62.199,-162.394
5831,-0.8452,-0.6978,-0.0400,-29.785,-6.897,-40.283,-99.608,61.699,-162.103
5841,-0.8145,-0.6392,-0.0937,-43.701,-7.568,-36.804,-99.778,61.249,-161.812
5851,-0.8237,-0.5894,-0.1465,-42.603,-3.784,-20.264,-100.107,60.985,-161.664
5861,-0.8457,-0.5161,-0.1929,-28.381,1.587,-0.366,-100.519,60.936,-161.697
5871,-0.8716,-0.4507,-0.1953,-4.639,5.615,12.695,-100.838,61.046,-161.856
5881,-0.8765,-0.4028,-0.1553,19.592,7.935,17.456,-100.942,61.232,-162.087
5891,-0.8696,-0.3887,-0.1021,33.630,6.287,18.372,-100.822,61.436,-162.285
5901,-0.8882,-0.4458,-0.0527,35.400,1.282,16.907,-100.508,61.617,-162.378
5912,-0.9072,-0.4736,-0.0088,27.832,-5.310,10.193,-100.080,61.732,-162.312
5921,-0.8936,-0.4219,-0.0215,13.428,-8.911,1.343,-99.717,61.793,-162.131
5931,-0.8926,-0.4722,-0.0259,1.526,-6.958,-3.906,-99.498,61.771,-161.971
5941,-0.8940,-0.4971,-0.0239,-6.531,-3.784,-7.629,-99.404,61.694,-161.867
5951,-0.8774,-0.4619,-0.0513,-12.695,-1.404,-8.606,-99.448,61.611,-161.807
5961,-0.8721,-0.4248,-0.0649,-10.681,2.075,-6.348,-99.564,61.573,-161.829
5971,-0.8794,-0.4082,-0.0708,-2.319,4.333,-4.150,-99.657,61.556,-161.900
5981,-0.8838,-0.4517,-0.0537,7.080,5.737,-3.357,-99.646,61.523,-162.010
5991,-0.8726,-0.5308,-0.0391,10.681,5.615,-4.822,-99.575,61.441,-162.109
6001,-0.8628,-0.5825,-0.0386,5.310,3.174,-6.226,-99.503,61.320,-162.153
6011,-0.8506,-0.6104,-0.0493,-4.211,1.282,-4.822,-99.503,61.199,-162.164
6021,-0.8481,-0.5522,-0.0737,-12.573,0.488,-0.610,-99.619,61.150,-162.169
6031,-0.8672,-0.4443,-0.1060,-14.587,0.183,5.554,-99.816,61.210,-162.191
6041,-0.8965,-0.3867,-0.1152,-7.385,1.587,10.315,-100.020,61.353,-162.263
6051,-0.9111,-0.3447,-0.0996,3.662,3.540,9.399,-100.135,61.512,-162.367
6061,-0.9097,-0.3062,-0.1089,11.780,3.967,4.578,-100.201,61.639,-162.466
6071,-0.8975,-0.4248,-0.0757,18.066,4.944,-2.075,-100.102,61.639,-162.559
6081,-0.8721,-0.5669,-0.0303,14.587,2.869,-10.193,-99.904,61.485,-162.581
6091,-0.8574,-0.6333,-0.0425,-0.977,-2.441,-15.686,-99.761,61.260,-162.477
6101,-0.8433,-0.6699,-0.0566,-13.550,-5.066,-16.724,-99.706,61.007,-162.312
6111,-0.8320,-0.6201,-0.0771,-19.348,-4.639,-12.329,-99.750,60.815,-162.175
6121,-0.8438,-0.4976,-0.1172,-18.005,-1.953,-1.343,-99.926,60.782,-162.131
6131,-0.8838,-0.4277,-0.1294,-6.348,3.296,11.169,-100.151,60.908,-162.241
6141,-0.8989,-0.3887,-0.1157,9.766,8.667,16.479,-100.322,61.106,-162.471
6151,-0.8994,-0.3770,-0.0933,20.752,10.498,14.648,-100.388,61.282,-162.740
6161,-0.8911,-0.4253,-0.0605,22.827,8.240,9.827,-100.316,61.397,-162.949
6171,-0.8833,-0.5205,-0.0288,15.930,3.418,2.441,-100.157,61.392,-163.026
6181,-0.8652,-0.5503,-0.0386,1.404,-3.113,-4.883,-100.009,61.315,-162.944
6191,-0.8574,-0.5654,-0.0488,-12.390,-7.812,-7.385,-99.915,61.205,-162.757
6201,-0.8564,-0.5063,-0.0767,-21.057,-9.521,-4.333,-99.932,61.161,-162.548
6211,-0.8794,-0.4756,-0.0977,-21.057,-7.080,1.953,-100.036,61.188,-162.411
6221,-0.8940,-0.4102,-0.0977,-12.146,-2.563,5.981,-100.162,61.287,-162.378
6231,-0.8950,-0.3140,-0.1123,-0.305,1.099,6.775,-100.305,61.436,-162.427
6241,-0.9087,-0.2979,-0.1099,14.343,5.066,5.371,-100.366,61.573,-162.548
6251,-0.9019,-0.4038,-0.0684,25.818,7.141,-0.427,-100.234,61.595,-162.697
6261,-0.8745,-0.5493,-0.0181,24.475,5.188,-8.667,-99.970,61.463,-162.773
6271,-0.8623,-0.6318,-0.0190,8.728,0.366,-14.648,-99.761,61.243,-162.724
6281,-0.8433,-0.6470,-0.0474,-9.460,-3.967,-16.174,-99.679,61.007,-162.587
6291,-0.8394,-0.6299,-0.0703,-19.897,-5.310,-11.414,-99.717,60.820,-162.438
6301,-0.8447,-0.5708,-0.0986,-21.179,-4.395,-2.625,-99.844,60.754,-162.345
6311,-0.8608,-0.4829,-0.1162,-13.367,-2.014,7.019,-99.998,60.815,-162.328
6321,-0.8828,-0.3774,-0.1123,1.343,1.221,13.367,-100.113,60.996,-162.400
6331,-0.8931,-0.2803,-0.1050,15.747,4.517,16.113,-100.190,61.254,-162.548
6341,-0.8984,-0.2686,-0.0688,26.733,6.104,15.381,-100.124,61.507,-162.729
6351,-0.8965,-0.3823,-0.0171,28.442,4.578,10.315,-99.882,61.655,-162.861
6361,-0.9048,-0.4961,0.0234,15.503,0.305,0.732,-99.613,61.655,-162.872
6371,-0.8877,-0.5298,-0.0112,-8.240,-4.089,-10.071,-99.503,61.540,-162.751
6381,-0.8828,-0.6089,-0.0444,-27.100,-4.639,-17.029,-99.586,61.320,-162.598
6391,-0.8662,-0.6616,-0.0737,-36.621,-3.052,-20.691,-99.800,61.035,-162.460
6401,-0.8418,-0.6538,-0.0996,-38.696,-1.404,-18.372,-100.091,60.765,-162.367
6411,-0.8315,-0.5293,-0.1523,-32.288,-0.305,-8.301,-100.437,60.645,-162.334
6421,-0.8540,-0.4316,-0.1895,-14.221,1.038,5.554,-100.745,60.699,-162.372
6431,-0.8818,-0.4116,-0.1484,11.902,3.357,14.221,-100.827,60.859,-162.493
6441,-0.8823,-0.3799,-0.1167,31.128,3.784,15.015,-100.695,61.051,-162.631
6451,-0.8638,-0.4038,-0.0664,40.222,1.648,12.146,-100.355,61.199,-162.708
6461,-0.8828,-0.4727,-0.0166,35.339,-2.136,9.338,-99.910,61.304,-162.702
6471,-0.8940,-0.5332,-0.0029,19.104,-5.554,3.235,-99.536,61.320,-162.598
6481,-0.8755,-0.5479,-0.0132,0.488,-5.859,-3.967,-99.333,61.260,-162.466
6491,-0.8726,-0.5171,-0.0347,-15.381,-4.883,-5.981,-99.327,61.188,-162.345
6501,-0.8701,-0.4185,-0.0757,-23.071,-3.052,-2.319,-99.503,61.199,-162.274
6511,-0.8896,-0.3677,-0.0937,-18.188,0.610,3.052,-99.750,61.287,-162.296
6521,-0.8955,-0.3223,-0.0952,-4.089,4.028,3.906,-99.943,61.397,-162.394
6531,-0.8955,-0.3799,-0.0884,10.925,5.981,0.305,-99.976,61.441,-162.515
6541,-0.8740,-0.5439,-0.0415,20.264,6.348,-6.714,-99.811,61.331,-162.625
6551,-0.8574,-0.6338,-0.0308,12.573,2.319,-11.597,-99.624,61.139,-162.631
6561,-0.8413,-0.6387,-0.0576,-2.869,-2.441,-11.169,-99.531,60.947,-162.543
6571,-0.8379,-0.5884,-0.0796,-12.512,-4.211,-5.310,-99.542,60.842,-162.438
6581,-0.8604,-0.5059,-0.1040,-13.428,-3.540,2.930,-99.646,60.859,-162.378
6591,-0.8862,-0.4175,-0.1104,-5.005,-1.465,9.766,-99.750,60.985,-162.378
6601,-0.8994,-0.3799,-0.1006,8.240,1.892,12.390,-99.789,61.161,-162.460
6611,-0.8994,-0.4121,-0.0771,18.799,4.517,9.521,-99.717,61.282,-162.587
6621,-0.8848,-0.4717,-0.0449,19.653,3.540,3.418,-99.558,61.315,-162.675
6631,-0.8662,-0.5386,-0.0298,11.047,0.366,-2.319,-99.382,61.260,-162.675
6641,-0.8594,-0.5542,-0.0479,-2.808,-4.028,-5.188,-99.278,61.172,-162.570
6651,-0.8745,-0.5703,-0.0640,-13.611,-5.859,-4.456,-99.267,61.095,-162.438
6661,-0.8726,-0.4941,-0.0928,-18.372,-4.517,-1.526,-99.377,61.078,-162.339
6671,-0.8823,-0.4092,-0.1304,-15.015,-1.099,3.784,-99.602,61.144,-162.328
6681,-0.8979,-0.4004,-0.1211,-1.831,3.418,7.507,-99.778,61.254,-162.427
6691,-0.8940,-0.3784,-0.1079,10.925,5.371,5.798,-99.844,61.353,-162.559
6701,-0.8799,-0.3750,-0.0913,17.700,3.723,2.625,-99.778,61.419,-162.642
6711,-0.8794,-0.4434,-0.0610,17.639,0.305,0.305,-99.591,61.441,-162.647
6721,-0.8818,-0.5093,-0.0435,10.132,-4.089,-3.540,-99.360,61.397,-162.554
6731,-0.8687,-0.5527,-0.0435,-0.977,-7.385,-7.629,-99.168,61.293,-162.372
6741,-0.8564,-0.5806,-0.0454,-10.315,-8.972,-8.423,-99.036,61.172,-162.164
6751,-0.8579,-0.5654,-0.0493,-15.198,-8.728,-6.042,-98.976,61.078,-161.966
6761,-0.8608,-0.4951,-0.0703,-13.550,-6.226,-1.465,-98.987,61.062,-161.834
6771,-0.8750,-0.4600,-0.0723,-3.784,-1.465,3.540,-99.009,61.111,-161.812
6781,-0.8872,-0.4341,-0.0571,7.751,2.319,5.432,-98.970,61.183,-161.878
6791,-0.8804,-0.4175,-0.0552,15.076,4.028,4.578,-98.893,61.254,-161.977
6801,-0.8794,-0.4790,-0.0269,18.311,4.456,2.625,-98.740,61.276,-162.076
6811,-0.8691,-0.5156,-0.0244,11.841,2.258,0.000,-98.602,61.254,-162.125
6821,-0.8716,-0.5308,-0.0454,0.610,-0.244,-1.526,-98.553,61.216,-162.114
6831,-0.8672,-0.5405,-0.0674,-8.118,-1.221,-1.404,-98.591,61.166,-162.081
6841,-0.8750,-0.5186,-0.0845,-11.902,-1.099,0.061,-98.696,61.150,-162.059
6851,-0.8799,-0.4409,-0.1099,-11.108,-0.977,2.869,-98.849,61.194,-162.048
6861,-0.8892,-0.4214,-0.0986,-3.784,-0.061,5.554,-98.948,61.276,-162.065
6871,-0.8916,-0.4175,-0.0732,4.517,0.244,4.578,-98.926,61.353,-162.087
6881,-0.8857,-0.3979,-0.0635,8.423,-1.221,1.160,-98.828,61.408,-162.065
6891,-0.8765,-0.4243,-0.0410,9.644,-2.136,-1.404,-98.657,61.425,-162.015
6901,-0.8745,-0.4717,-0.0288,6.653,-2.747,-3.296,-98.481,61.403,-161.949
6911,-0.8735,-0.5151,-0.0283,0.061,-2.563,-5.127,-98.366,61.337,-161.878
6921,-0.8662,-0.5586,-0.0400,-6.958,-1.038,-5.615,-98.361,61.238,-161.840
6931,-0.8667,-0.5791,-0.0532,-11.780,0.549,-4.395,-98.443,61.144,-161.840
6941,-0.8662,-0.5503,-0.0776,-12.878,1.282,-2.014,-98.586,61.084,-161.862
6951,-0.8652,-0.4736,-0.0957,-7.996,1.770,1.709,-98.729,61.095,-161.900
6961,-0.8774,-0.3872,-0.1099,1.892,1.770,5.554,-98.828,61.188,-161.955
6971,-0.8887,-0.3555,-0.0962,14.282,1.892,6.836,-98.800,61.320,-162.015
6981,-0.8867,-0.4297,-0.0557,22.339,1.648,4.211,-98.608,61.381,-162.065
6991,-0.8853,-0.5293,-0.0171,18.250,-0.671,-1.282,-98.344,61.348,-162.043
7001,-0.8750,-0.5664,-0.0264,3.967,-3.845,-6.836,-98.157,61.243,-161.944
7011,-0.8569,-0.5625,-0.0493,-9.277,-5.310,-8.972,-98.102,61.117,-161.812
7021,-0.8501,-0.4795,-0.0698,-15.381,-4.944,-6.165,-98.152,61.057,-161.691
7031,-0.8789,-0.3828,-0.0977,-12.695,-2.747,0.488,-98.295,61.111,-161.636
7041,-0.9097,-0.2549,-0.1030,-0.732,1.221,5.859,-98.476,61.293,-161.680
7051,-0.9077,-0.1489,-0.1235,12.329,4.456,7.690,-98.762,61.529,-161.796
7061,-0.9019,-0.3350,-0.0640,23.865,5.005,4.761,-98.652,61.644,-161.911
7071,-0.8950,-0.5801,0.0293,20.874,-1.404,-5.493,-98.289,61.545,-161.867
7081,-0.8628,-0.6855,0.0254,-2.197,-13.000,-19.592,-97.921,61.271,-161.537
7091,-0.8423,-0.7383,0.0010,-23.987,-19.226,-28.137,-97.663,60.897,-161.060
7101,-0.8306,-0.7568,-0.0303,-37.231,-18.860,-26.672,-97.581,60.529,-160.604
7111,-0.8203,-0.6475,-0.0669,-39.185,-13.306,-16.235,-97.685,60.298,-160.291
7121,-0.8286,-0.5205,-0.1304,-27.344,-4.822,1.099,-97.938,60.282,-160.197
7131,-0.8721,-0.4961,-0.1084,-1.038,5.493,15.076,-98.124,60.419,-160.351
7141,-0.8784,-0.4448,-0.0845,22.034,12.451,18.555,-98.190,60.606,-160.653
7151,-0.8667,-0.4336,-0.0542,32.959,14.648,17.700,-98.157,60.787,-160.999
7161,-0.8760,-0.4805,-0.0156,32.410,12.329,15.015,-98.026,60.919,-161.290
7171,-0.8784,-0.4858,-0.0127,20.447,6.653,9.216,-97.899,61.002,-161.455
7181,-0.8740,-0.4780,-0.0298,4.944,2.075,2.991,-97.850,61.035,-161.505
7191,-0.8867,-0.4565,-0.0591,-9.094,-0.732,-0.488,-97.921,61.046,-161.488
7201,-0.9072,-0.4321,-0.0791,-15.381,-1.160,-2.197,-98.069,61.057,-161.461
7211,-0.8945,-0.3789,-0.1001,-13.428,0.671,-2.625,-98.278,61.084,-161.466
7221,-0.8838,-0.4048,-0.1030,-5.981,3.174,-2.380,-98.448,61.089,-161.521
7231,-0.8872,-0.4248,-0.0864,1.038,3.845,-4.089,-98.525,61.073,-161.587
7241,-0.8755,-0.4585,-0.0854,2.563,2.136,-6.653,-98.536,61.013,-161.614
7251,-0.8682,-0.5552,-0.0601,1.892,0.732,-7.996,-98.487,60.897,-161.603
7261,-0.8701,-0.5908,-0.0645,-5.188,-2.625,-9.155,-98.448,60.760,-161.521
7271,-0.8608,-0.5781,-0.0830,-12.573,-4.639,-8.301,-98.465,60.634,-161.400
7281,-0.8604,-0.5571,-0.0903,-13.550,-3.418,-5.127,-98.536,60.551,-161.318
7291,-0.8633,-0.4771,-0.1060,-8.972,-1.892,-0.793,-98.630,60.546,-161.279
7301,-0.8750,-0.4146,-0.1108,1.038,-0.610,4.028,-98.679,60.623,-161.279
7311,-0.8809,-0.4233,-0.0801,12.817,0.305,5.371,-98.597,60.705,-161.301
7321,-0.8750,-0.4512,-0.0479,17.883,-0.854,1.892,-98.383,60.743,-161.290
7331,-0.8643,-0.5063,-0.0122,14.282,-3.479,-2.136,-98.102,60.716,-161.213
7341,-0.8481,-0.5605,-0.0044,3.784,-5.981,-4.639,-97.872,60.639,-161.076
7351,-0.8516,-0.6270,-0.0044,-8.118,-7.019,-5.920,-97.745,60.518,-160.917
7361,-0.8521,-0.6250,-0.0210,-17.212,-6.226,-5.737,-97.734,60.403,-160.779
7371,-0.8491,-0.5547,-0.0581,-19.775,-2.686,-2.136,-97.861,60.353,-160.719
7381,-0.8633,-0.4482,-0.0928,-12.817,2.869,5.249,-98.086,60.414,-160.790
7391,-0.8833,-0.3516,-0.1025,1.404,8.118,12.512,-98.328,60.595,-160.988
7401,-0.8877,-0.3198,-0.0835,16.663,11.780,15.320,-98.470,60.820,-161.274
7411,-0.8877,-0.3867,-0.0337,23.926,10.437,12.634,-98.410,60.985,-161.521
7421,-0.8838,-0.4702,0.0093,17.578,4.028,5.432,-98.229,61.046,-161.620
7431,-0.8613,-0.5713,-0.0098,1.343,-2.869,-3.052,-98.086,60.974,-161.554
7441,-0.8579,-0.7119,-0.0581,-14.160,-7.263,-7.019,-98.042,60.804,-161.384
7451,-0.8711,-0.6294,-0.1040,-21.790,-11.169,-4.456,-98.064,60.705,-161.142
7461,-0.8589,-0.4438,-0.1646,-16.418,-10.437,5.859,-98.185,60.782,-160.950
7471,-0.8838,-0.3618,-0.1660,5.371,-3.357,18.677,-98.284,61.024,-160.939
7481,-0.9043,-0.3179,-0.1362,29.419,2.502,22.827,-98.245,61.320,-161.054
7491,-0.8979,-0.3428,-0.0693,42.358,4.028,20.386,-97.982,61.589,-161.197
7501,-0.8955,-0.4385,0.0049,37.842,1.648,13.123,-97.586,61.738,-161.274
7511,-0.8823,-0.4961,0.0430,16.907,-3.296,1.343,-97.234,61.749,-161.208
7521,-0.8687,-0.4966,0.0337,-12.756,-6.653,-8.606,-97.108,61.655,-161.043
7531,-0.8857,-0.4819,-0.0029,-38.696,-7.080,-13.062,-97.262,61.534,-160.862
7541,-0.8979,-0.4609,-0.0508,-49.622,-4.028,-16.418,-97.635,61.386,-160.735
7551,-0.8853,-0.4644,-0.0645,-44.373,0.854,-18.188,-98.047,61.216,-160.703
7561,-0.8794,-0.4478,-0.1040,-30.640,4.639,-16.541,-98.443,61.062,-160.752
7571,-0.8716,-0.5015,-0.1333,-8.484,7.507,-14.893,-98.685,60.886,-160.856
7581,-0.8354,-0.6245,-0.0796,16.052,8.728,-14.099,-98.630,60.656,-160.994
7591,-0.8110,-0.6558,-0.0518,23.926,4.822,-9.766,-98.410,60.458,-161.060
7601,-0.8325,-0.5889,-0.0581,19.897,-0.977,-1.221,-98.163,60.386,-161.038
7611,-0.8633,-0.5566,-0.0522,15.625,-3.296,6.958,-97.943,60.425,-160.988
7621,-0.8833,-0.4810,-0.0327,11.169,-3.723,10.254,-97.751,60.540,-160.944
7631,-0.8818,-0.3765,-0.0474,6.165,-3.967,10.803,-97.641,60.716,-160.895
7641,-0.8955,-0.3931,-0.0249,6.531,-2.380,9.827,-97.515,60.870,-160.873
7651,-0.8862,-0.4233,-0.0078,5.920,-1.221,4.089,-97.383,60.947,-160.856
7661,-0.8687,-0.4336,-0.0176,0.549,-0.732,-2.319,-97.306,60.952,-160.834
7671,-0.8691,-0.5059,-0.0220,-5.493,1.160,-4.944,-97.322,60.892,-160.845
7681,-0.8750,-0.5581,-0.0381,-11.902,2.869,-5.981,-97.443,60.793,-160.889
7691,-0.8809,-0.5449,-0.0752,-16.846,4.578,-5.676,-97.679,60.705,-160.966
7701,-0.8755,-0.5176,-0.1118,-15.503,7.019,-3.601,-97.993,60.639,-161.098
7711,-0.8667,-0.4600,-0.1318,-7.385,8.240,-0.793,-98.289,60.628,-161.263
7721,-0.8672,-0.4722,-0.1201,3.540,7.324,2.075,-98.448,60.639,-161.417
7731,-0.8647,-0.4790,-0.0859,11.475,3.784,2.441,-98.421,60.656,-161.505
7741,-0.8599,-0.4668,-0.0708,11.719,-2.136,0.977,-98.273,60.672,-161.461
7751,-0.8735,-0.4951,-0.0503,8.728,-5.798,0.427,-98.064,60.683,-161.345
7761,-0.8809,-0.5137,-0.0420,2.625,-6.836,-0.793,-97.883,60.677,-161.208
7771,-0.8770,-0.5347,-0.0498,-4.333,-5.432,-1.709,-97.800,60.645,-161.093
7781,-0.8677,-0.5547,-0.0591,-8.057,-2.319,-1.587,-97.817,60.601,-161.038
7791,-0.8628,-0.5688,-0.0659,-7.996,1.099,-0.793,-97.899,60.546,-161.060
7801,-0.8569,-0.5039,-0.0786,-5.676,3.052,0.916,-98.026,60.540,-161.125
7811,-0.8657,-0.4214,-0.0937,-0.732,3.784,5.249,-98.152,60.617,-161.213
7821,-0.8799,-0.3433,-0.0923,7.935,3.601,8.972,-98.229,60.771,-161.312
7831,-0.8999,-0.3359,-0.0737,17.273,3.235,8.362,-98.179,60.936,-161.406
7841,-0.8979,-0.4155,-0.0342,21.912,2.563,2.747,-97.976,60.996,-161.466
7851,-0.8804,-0.4834,-0.0117,15.442,0.061,-4.822,-97.751,60.952,-161.450
7861,-0.8652,-0.5161,-0.0244,1.465,-2.930,-10.132,-97.608,60.842,-161.362
7871,-0.8599,-0.5869,-0.0298,-10.559,-4.211,-11.780,-97.564,60.677,-161.246
7881,-0.8530,-0.6021,-0.0332,-18.616,-4.578,-10.986,-97.597,60.518,-161.125
7891,-0.8628,-0.5146,-0.0718,-22.278,-3.479,-6.531,-97.745,60.441,-161.038
7901,-0.8687,-0.4751,-0.1089,-15.076,1.404,0.061,-97.971,60.447,-161.065
7913,-0.8799,-0.5356,-0.0645,-0.305,8.728,3.601,-98.124,60.447,-161.252
7921,-0.8599,-0.4824,-0.0664,6.348,12.085,2.808,-98.273,60.458,-161.499
7931,-0.8599,-0.4785,-0.0835,8.850,14.648,3.784,-98.465,60.474,-161.807
7941,-0.8682,-0.5303,-0.0664,10.864,16.052,3.784,-98.630,60.469,-162.136
7951,-0.8628,-0.5181,-0.0698,6.226,13.428,2.319,-98.800,60.458,-162.416
7961,-0.8555,-0.4771,-0.0889,-0.061,10.071,2.747,-98.998,60.469,-162.625
7971,-0.8701,-0.4917,-0.0874,-2.197,6.836,4.028,-99.157,60.491,-162.773
7981,-0.8809,-0.4819,-0.0879,-3.662,1.953,3.479,-99.250,60.529,-162.823
7991,-0.8745,-0.4829,-0.0845,-3.723,-2.441,1.953,-99.256,60.551,-162.784
8001,-0.8613,-0.5107,-0.0635,-1.343,-4.944,0.244,-99.163,60.551,-162.686
8011,-0.8628,-0.4692,-0.0630,-0.671,-7.019,-0.122,-99.031,60.568,-162.543
8021,-0.8735,-0.4541,-0.0713,1.770,-5.920,1.465,-98.915,60.606,-162.427
8031,-0.8848,-0.4839,-0.0605,6.653,-1.831,1.465,-98.806,60.628,-162.394
8041,-0.8730,-0.5029,-0.0581,8.301,0.732,-0.732,-98.712,60.617,-162.411
8051,-0.8687,-0.5083,-0.0610,6.531,1.343,-0.854,-98.646,60.595,-162.433
8061,-0.8691,-0.4990,-0.0718,3.357,-0.122,0.977,-98.613,60.595,-162.433
8071,-0.8755,-0.4644,-0.0698,2.258,-2.319,2.686,-98.553,60.639,-162.394
8081,-0.8740,-0.4336,-0.0737,2.258,-4.272,3.540,-98.476,60.705,-162.318
8091,-0.8730,-0.4541,-0.0615,4.395,-4.456,3.113,-98.355,60.760,-162.241
8101,-0.8794,-0.4980,-0.0503,-0.916,-2.991,-0.305,-98.289,60.754,-162.180
8111,-0.8784,-0.5098,-0.0688,-6.226,-1.648,-1.038,-98.311,60.738,-162.142
8121,-0.8760,-0.5244,-0.0820,-7.874,-0.427,-1.892,-98.383,60.699,-162.125
8131,-0.8696,-0.5312,-0.0894,-6.165,-0.061,-2.319,-98.448,60.656,-162.120
8141,-0.8608,-0.5347,-0.0898,-2.014,0.061,-1.526,-98.476,60.612,-162.114
8151,-0.8564,-0.5039,-0.0957,3.174,-0.427,-0.122,-98.459,60.595,-162.109
8161,-0.8633,-0.4785,-0.1006,8.850,-1.343,2.014,-98.388,60.617,-162.087
8171,-0.8716,-0.4878,-0.0742,14.648,-1.587,2.747,-98.223,60.645,-162.059
8181,-0.8672,-0.4741,-0.0698,15.320,-2.686,1.770,-98.031,60.667,-162.015
8191,-0.8628,-0.4766,-0.0557,11.841,-4.028,2.136,-97.839,60.699,-161.938
8201,-0.8662,-0.4702,-0.0459,4.944,-5.310,3.479,-97.679,60.749,-161.840
8211,-0.8730,-0.4390,-0.0493,-4.089,-7.141,4.456,-97.597,60.826,-161.708
8221,-0.8892,-0.4409,-0.0444,-10.132,-7.935,4.578,-97.548,60.908,-161.559
8231,-0.8965,-0.4648,-0.0371,-12.939,-7.568,2.075,-97.515,60.952,-161.411
8241,-0.8921,-0.4727,-0.0483,-12.390,-6.104,-2.258,-97.509,60.952,-161.279
8251,-0.8818,-0.4985,-0.0498,-6.592,-2.869,-5.188,-97.493,60.897,-161.208
8261,-0.8711,-0.5239,-0.0571,0.977,0.549,-5.737,-97.471,60.820,-161.202
8271,-0.8491,-0.5518,-0.0513,8.484,2.930,-4.822,-97.405,60.727,-161.246
8281,-0.8433,-0.5825,-0.0356,11.780,3.357,-1.221,-97.306,60.661,-161.312
8291,-0.8452,-0.5937,-0.0386,8.606,1.526,3.052,-97.218,60.628,-161.351
8301,-0.8550,-0.5645,-0.0254,3.418,-0.427,5.981,-97.141,60.650,-161.356
8311,-0.8579,-0.4482,-0.0532,-3.174,-3.113,9.216,-97.136,60.760,-161.318
8321,-0.8867,-0.3906,-0.0527,-2.930,-3.357,12.390,-97.136,60.936,-161.285
8331,-0.9102,-0.3564,-0.0493,1.587,-2.380,10.681,-97.108,61.122,-161.263
8341,-0.9116,-0.3496,-0.0552,7.690,-0.793,4.578,-97.048,61.243,-161.257
8351,-0.8936,-0.4126,-0.0376,13.855,0.732,-2.747,-96.899,61.254,-161.263
8361,-0.8901,-0.4927,-0.0405,14.587,0.244,-8.972,-96.718,61.161,-161.246
8371,-0.8589,-0.5747,-0.0361,14.954,0.061,-14.648,-96.509,60.969,-161.213
8381,-0.7993,-0.6528,-0.0049,11.536,-1.343,-14.099,-96.284,60.732,-161.153
8391,-0.8198,-0.6382,-0.0054,-2.747,-5.188,-3.296,-96.152,60.617,-161.038
8401,-0.8594,-0.5117,-0.0430,-17.517,-6.897,9.155,-96.213,60.699,-160.922
8411,-0.8823,-0.4058,-0.0566,-22.461,-3.662,17.761,-96.422,60.925,-160.884
8421,-0.9209,-0.3252,-0.0708,-22.400,-0.610,20.081,-96.729,61.216,-160.917
8431,-0.9521,-0.2739,-0.0967,-15.015,2.197,13.000,-97.070,61.458,-160.994
8441,-0.9390,-0.3164,-0.1074,0.427,6.104,-1.343,-97.295,61.529,-161.120
8451,-0.8945,-0.4590,-0.0957,14.709,8.484,-15.320,-97.311,61.375,-161.257
8461,-0.8530,-0.6138,-0.0718,18.494,7.263,-22.461,-97.202,61.073,-161.345
8471,-0.8247,-0.6494,-0.0752,11.292,2.930,-20.996,-97.086,60.765,-161.351
8481,-0.8164,-0.5957,-0.0996,2.197,-1.465,-10.864,-97.037,60.590,-161.296
8491,-0.8398,-0.5615,-0.0928,-0.427,-3.296,3.052,-97.015,60.579,-161.235
8501,-0.8613,-0.4912,-0.0693,-0.061,-4.272,12.756,-96.982,60.699,-161.180
8512,-0.8706,-0.3916,-0.0625,0.061,-4.517,17.273,-96.960,60.925,-161.131
8521,-0.8989,-0.3608,-0.0454,1.160,-3.540,16.968,-96.921,61.166,-161.104
8531,-0.9189,-0.4111,-0.0215,1.465,-2.563,10.010,-96.844,61.315,-161.076
8541,-0.9097,-0.4902,-0.0103,-0.977,-2.319,-1.587,-96.751,61.309,-161.021
8551,-0.8853,-0.5342,-0.0391,-5.310,-2.380,-11.414,-96.713,61.172,-160.944
8561,-0.8555,-0.5967,-0.0479,-5.310,-1.343,-15.198,-96.685,60.963,-160.878
8571,-0.8350,-0.6279,-0.0381,-3.174,0.732,-12.146,-96.674,60.765,-160.867
8581,-0.8354,-0.5703,-0.0522,-2.502,1.526,-3.540,-96.702,60.677,-160.889
8591,-0.8433,-0.4985,-0.0527,1.587,2.075,7.019,-96.735,60.727,-160.950
8601,-0.8584,-0.4585,-0.0122,6.470,1.892,14.587,-96.680,60.881,-161.021
8611,-0.8838,-0.4204,0.0010,5.737,0.977,16.357,-96.608,61.078,-161.082
8621,-0.8994,-0.3965,0.0054,2.747,0.610,12.085,-96.542,61.249,-161.120
8631,-0.9023,-0.4219,0.0034,-0.977,1.648,4.822,-96.520,61.331,-161.164
8641,-0.8931,-0.4648,-0.0176,-5.371,3.174,-2.563,-96.581,61.315,-161.224
8651,-0.8813,-0.5205,-0.0439,-7.874,5.249,-6.775,-96.724,61.221,-161.318
8661,-0.8613,-0.5430,-0.0679,-7.385,6.531,-7.507,-96.899,61.100,-161.433
8671,-0.8447,-0.5132,-0.0820,-4.944,6.042,-3.662,-97.070,61.035,-161.548
8681,-0.8540,-0.4575,-0.0986,-2.258,3.967,4.395,-97.224,61.073,-161.642
8691,-0.8647,-0.4185,-0.0806,0.244,0.977,11.047,-97.300,61.210,-161.691
8701,-0.8877,-0.3706,-0.0776,-1.709,-3.662,13.550,-97.328,61.403,-161.653
8711,-0.9121,-0.3647,-0.0830,-4.211,-7.324,10.864,-97.317,61.584,-161.526
8721,-0.9214,-0.4375,-0.0698,-3.967,-8.423,2.747,-97.229,61.650,-161.362
8731,-0.9019,-0.5215,-0.0688,-4.089,-8.057,-7.935,-97.108,61.562,-161.169
8741,-0.8735,-0.6147,-0.0781,-3.845,-6.653,-15.137,-96.993,61.353,-160.994
8751,-0.8354,-0.6880,-0.0776,-1.404,-5.310,-15.991,-96.866,61.089,-160.845
8761,-0.8203,-0.7002,-0.0654,0.305,-5.127,-9.216,-96.740,60.892,-160.714
8771,-0.8247,-0.5610,-0.0757,0.244,-6.775,3.723,-96.636,60.881,-160.587
8781,-0.8540,-0.4014,-0.0747,3.479,-7.263,18.738,-96.548,61.111,-160.483
8791,-0.8960,-0.3052,-0.0454,10.986,-6.165,27.527,-96.405,61.485,-160.422
8801,-0.9238,-0.3130,0.0024,18.250,-4.944,24.841,-96.119,61.837,-160.373
8811,-0.9287,-0.3677,0.0381,18.799,-3.906,13.123,-95.768,62.034,-160.323
8821,-0.9111,-0.4517,0.0386,12.573,-0.610,-1.953,-95.521,62.029,-160.307
8831,-0.8872,-0.5591,0.0186,2.930,3.845,-13.123,-95.466,61.853,-160.362
8841,-0.8477,-0.6460,0.0054,-7.812,5.554,-16.846,-95.554,61.589,-160.444
8851,-0.8301,-0.6685,-0.0161,-17.456,6.104,-12.390,-95.773,61.359,-160.543
8861,-0.8418,-0.6279,-0.0630,-22.583,6.897,-2.502,-96.119,61.243,-160.686
8871,-0.8477,-0.5103,-0.1074,-19.653,7.568,9.399,-96.526,61.304,-160.862
8881,-0.8716,-0.3682,-0.1299,-9.277,7.263,20.081,-96.916,61.534,-161.060
8891,-0.9126,-0.2573,-0.1470,5.737,7.019,25.391,-97.273,61.880,-161.268
8901,-0.9355,-0.2490,-0.1235,20.996,5.981,22.156,-97.416,62.210,-161.455
8911,-0.9219,-0.3652,-0.0659,28.687,2.686,12.146,-97.240,62.386,-161.543
8921,-0.9141,-0.4692,-0.0171,20.569,-3.174,0.244,-96.927,62.397,-161.477
8931,-0.8916,-0.5146,-0.0352,2.014,-8.972,-10.132,-96.685,62.281,-161.257
8941,-0.8799,-0.5493,-0.0435,-12.024,-11.047,-15.015,-96.542,62.106,-160.988
8951,-0.8667,-0.5171,-0.0547,-18.555,-10.132,-13.672,-96.504,61.952,-160.735
8961,-0.8735,-0.4453,-0.0786,-17.761,-6.592,-5.859,-96.581,61.908,-160.582
8971,-0.8975,-0.3530,-0.0894,-8.179,-0.977,2.747,-96.724,61.996,-160.571
8981,-0.8931,-0.2754,-0.0869,6.714,4.578,6.226,-96.866,62.155,-160.681
8991,-0.8931,-0.3926,-0.0337,20.142,8.850,4.639,-96.823,62.227,-160.884
9001,-0.8887,-0.5234,0.0190,19.775,6.226,-2.197,-96.647,62.172,-161.010
9012,-0.8677,-0.5942,0.0054,5.432,-0.366,-10.315,-96.493,62.007,-160.977
9021,-0.8613,-0.6362,-0.0229,-9.460,-4.822,-13.733,-96.422,61.793,-160.840
9031,-0.8574,-0.6484,-0.0459,-17.883,-6.409,-11.719,-96.432,61.595,-160.681
9041,-0.8569,-0.6162,-0.0718,-18.311,-5.127,-5.737,-96.515,61.469,-160.560
9051,-0.8643,-0.5303,-0.0952,-10.376,-2.380,2.869,-96.614,61.463,-160.516
9061,-0.8740,-0.4678,-0.0908,4.333,0.793,10.681,-96.652,61.567,-160.560
9071,-0.8799,-0.3882,-0.0649,18.250,2.930,14.282,-96.586,61.749,-160.653
9081,-0.8809,-0.3525,-0.0405,24.841,3.113,14.893,-96.427,61.957,-160.757
9091,-0.8867,-0.3569,-0.0103,24.170,1.221,12.695,-96.191,62.139,-160.812
9101,-0.9038,-0.4102,0.0107,15.320,-2.136,7.141,-95.933,62.249,-160.779
9111,-0.9077,-0.4727,0.0190,1.709,-3.723,-0.671,-95.762,62.249,-160.703
9121,-0.8975,-0.4824,-0.0093,-12.695,-3.296,-7.019,-95.768,62.177,-160.615
9131,-0.8872,-0.5029,-0.0293,-19.836,-0.488,-9.521,-95.911,62.067,-160.582
9141,-0.8745,-0.5093,-0.0420,-19.714,3.357,-8.179,-96.141,61.957,-160.637
9151,-0.8750,-0.4668,-0.0688,-15.381,5.493,-4.028,-96.411,61.913,-160.746
9161,-0.8838,-0.4517,-0.0806,-4.944,7.080,0.061,-96.630,61.913,-160.895
9171,-0.8857,-0.4448,-0.0708,7.751,7.812,1.282,-96.724,61.924,-161.060
9181,-0.8789,-0.4331,-0.0703,15.808,6.531,0.488,-96.713,61.941,-161.202
9191,-0.8687,-0.4517,-0.0552,19.043,3.906,-0.366,-96.597,61.935,-161.285
9201,-0.8726,-0.5215,-0.0254,15.991,0.610,-0.854,-96.411,61.897,-161.296
9211,-0.8813,-0.5576,-0.0229,5.676,-2.441,-1.953,-96.262,61.842,-161.235
9221,-0.8755,-0.5439,-0.0503,-5.127,-2.991,-2.686,-96.246,61.776,-161.169
9231,-0.8691,-0.5352,-0.0518,-9.766,-0.916,-0.427,-96.317,61.738,-161.147
9241,-0.8735,-0.4883,-0.0576,-9.644,1.099,3.418,-96.443,61.760,-161.180
9251,-0.8872,-0.4424,-0.0620,-4.639,2.625,6.287,-96.564,61.837,-161.246
9261,-0.8945,-0.4019,-0.0562,3.784,4.150,6.653,-96.630,61.935,-161.351
9271,-0.8882,-0.3735,-0.0542,10.437,4.578,5.066,-96.641,62.029,-161.461
9281,-0.8867,-0.4116,-0.0361,13.733,4.150,2.380,-96.570,62.078,-161.554
9291,-0.8843,-0.4692,-0.0298,11.597,2.014,-1.404,-96.460,62.062,-161.592
9301,-0.8833,-0.4907,-0.0479,5.249,-0.610,-4.333,-96.378,62.007,-161.570
9311,-0.8765,-0.4937,-0.0659,-1.038,-1.892,-4.456,-96.356,61.952,-161.521
9321,-0.8721,-0.5112,-0.0664,-5.310,-2.380,-1.892,-96.372,61.908,-161.466
9331,-0.8853,-0.4946,-0.0635,-8.972,-3.845,1.099,-96.400,61.913,-161.389
9341,-0.8887,-0.4438,-0.0659,-10.742,-5.493,3.052,-96.432,61.963,-161.279
9351,-0.8911,-0.4082,-0.0562,-7.996,-5.737,3.723,-96.427,62.034,-161.164
9361,-0.8945,-0.4189,-0.0337,-3.662,-5.310,2.258,-96.350,62.095,-161.060
9371,-0.8921,-0.4517,-0.0137,-0.122,-4.395,-1.648,-96.224,62.089,-160.961
9381,-0.8794,-0.4507,-0.0249,1.831,-2.747,-5.371,-96.114,62.051,-160.889
9391,-0.8711,-0.5117,-0.0269,5.005,0.427,-6.226,-96.026,61.963,-160.884
9401,-0.8789,-0.5688,-0.0156,6.653,3.723,-5.676,-95.977,61.853,-160.950
9411,-0.8647,-0.5474,-0.0444,4.089,4.578,-4.700,-95.993,61.760,-161.038
9421,-0.8599,-0.5479,-0.0498,3.235,5.066,-0.549,-96.048,61.705,-161.142
9431,-0.8711,-0.5352,-0.0400,2.136,3.357,3.723,-96.075,61.705,-161.224
9441,-0.8726,-0.4717,-0.0508,-0.854,0.000,5.981,-96.097,61.765,-161.235
9451,-0.8779,-0.4604,-0.0449,-0.610,-1.587,6.958,-96.081,61.837,-161.219
9461,-0.8877,-0.4580,-0.0264,0.244,-2.258,5.615,-96.021,61.902,-161.180
9471,-0.8857,-0.4043,-0.0459,-0.977,-2.502,3.845,-95.999,61.979,-161.136
9481,-0.8940,-0.4141,-0.0474,0.366,-0.305,3.601,-95.999,62.045,-161.142
9491,-0.9004,-0.4395,-0.0425,1.404,1.953,1.770,-96.021,62.078,-161.186
9501,-0.8970,-0.4058,-0.0649,-0.610,2.502,-1.038,-96.103,62.100,-161.235
9512,-0.8936,-0.4170,-0.0654,-0.549,3.418,-2.014,-96.196,62.106,-161.307
9521,-0.8931,-0.4355,-0.0625,-0.427,2.991,-3.174,-96.268,62.084,-161.362
9531,-0.8882,-0.4336,-0.0625,-0.977,1.160,-5.127,-96.312,62.051,-161.373
9541,-0.8755,-0.4019,-0.0557,-1.282,-0.366,-5.249,-96.323,62.029,-161.351
9551,-0.8843,-0.4204,-0.0508,-2.319,-1.892,-3.784,-96.306,62.018,-161.307
9561,-0.8960,-0.5117,-0.0234,-2.686,-2.319,-5.920,-96.240,61.946,-161.241
9571,-0.8804,-0.6016,-0.0273,-5.676,-2.441,-10.986,-96.191,61.776,-161.164
9581,-0.8672,-0.6763,-0.0342,-6.348,-1.221,-14.221,-96.174,61.540,-161.104
9591,-0.8379,-0.6885,-0.0269,-0.671,0.854,-14.038,-96.125,61.293,-161.093
9601,-0.8286,-0.6025,-0.0488,6.287,3.784,-6.592,-96.103,61.150,-161.158
9611,-0.8530,-0.4976,-0.0728,14.343,6.958,6.470,-96.125,61.188,-161.312
9621,-0.8726,-0.4277,-0.0508,24.902,11.047,16.357,-96.114,61.364,-161.576
9631,-0.8853,-0.3853,-0.0312,27.649,12.390,19.653,-96.086,61.595,-161.878
9641,-0.8950,-0.4346,0.0000,22.949,10.132,15.625,-96.010,61.765,-162.125
9651,-0.8901,-0.4692,0.0078,11.047,5.249,6.042,-95.938,61.826,-162.252
9661,-0.8765,-0.4380,-0.0264,-3.967,0.244,-1.465,-95.955,61.826,-162.252
9671,-0.8804,-0.4531,-0.0542,-12.390,-0.977,-2.380,-96.064,61.809,-162.224
9681,-0.8911,-0.4160,-0.0674,-14.099,0.549,-0.488,-96.246,61.837,-162.235
9691,-0.9058,-0.3179,-0.1094,-12.451,2.075,2.930,-96.537,61.941,-162.285
9701,-0.9229,-0.2964,-0.1089,-3.296,5.554,4.822,-96.823,62.073,-162.416
9711,-0.9150,-0.3208,-0.0962,5.493,6.897,0.793,-96.993,62.150,-162.565
9721,-0.8882,-0.3872,-0.0732,7.629,3.906,-6.470,-97.015,62.122,-162.631
9731,-0.8730,-0.5112,-0.0410,2.197,-1.282,-12.817,-96.916,61.974,-162.570
9741,-0.8638,-0.6147,-0.0283,-9.583,-6.897,-16.785,-96.801,61.743,-162.378
9751,-0.8638,-0.6816,-0.0273,-21.240,-9.827,-17.151,-96.751,61.485,-162.131
9761,-0.8530,-0.6934,-0.0518,-27.100,-7.751,-13.794,-96.823,61.254,-161.933
9771,-0.8433,-0.6821,-0.0806,-24.658,-3.113,-6.897,-96.998,61.084,-161.856
9781,-0.8423,-0.6064,-0.0908,-14.038,1.282,2.075,-97.180,61.029,-161.884
9791,-0.8496,-0.4854,-0.0986,0.977,3.845,11.292,-97.306,61.122,-161.993
9801,-0.8662,-0.3804,-0.0840,17.517,5.615,18.005,-97.322,61.342,-162.158
9811,-0.8853,-0.3481,-0.0513,28.870,5.981,20.142,-97.202,61.600,-162.334
9821,-0.8940,-0.3296,-0.0151,30.579,3.418,17.212,-96.954,61.848,-162.449
9831,-0.9097,-0.3413,0.0020,21.484,-0.488,11.169,-96.685,62.034,-162.471
9841,-0.9214,-0.3760,0.0068,7.385,-3.052,2.136,-96.482,62.117,-162.411
9851,-0.9014,-0.4365,-0.0059,-7.141,-3.540,-7.263,-96.416,62.073,-162.318
9861,-0.8916,-0.5020,-0.0190,-19.409,-3.174,-12.878,-96.482,61.935,-162.219
9871,-0.8804,-0.5312,-0.0537,-26.489,-2.258,-14.832,-96.663,61.760,-162.136
9881,-0.8706,-0.5425,-0.0742,-24.475,0.244,-13.672,-96.894,61.584,-162.109
9891,-0.8594,-0.4810,-0.1064,-16.235,2.197,-8.850,-97.130,61.479,-162.131
9901,-0.8687,-0.4385,-0.1128,-2.869,3.357,-1.343,-97.289,61.474,-162.197
9914,-0.8701,-0.4277,-0.0854,11.230,3.052,3.662,-97.278,61.523,-162.268
9921,-0.8809,-0.4487,-0.0596,16.724,1.038,5.005,-97.147,61.584,-162.307
9931,-0.8896,-0.5093,-0.0332,14.160,-1.831,1.648,-96.943,61.589,-162.274
9941,-0.8735,-0.5576,-0.0264,5.615,-4.211,-4.089,-96.762,61.512,-162.175
9951,-0.8579,-0.5688,-0.0449,-4.822,-6.348,-7.202,-96.658,61.397,-162.021
9961,-0.8574,-0.5352,-0.0576,-10.620,-7.141,-5.310,-96.614,61.320,-161.862
9971,-0.8667,-0.4780,-0.0698,-9.766,-5.615,0.183,-96.630,61.326,-161.746
9981,-0.8882,-0.4404,-0.0625,-2.869,-2.319,5.249,-96.641,61.397,-161.713
9991,-0.8950,-0.3760,-0.0615,4.700,0.061,6.165,-96.636,61.512,-161.724
10001,-0.8916,-0.3232,-0.0605,9.949,0.793,4.761,-96.597,61.644,-161.757
10012,-0.8872,-0.4043,-0.0269,13.916,0.427,1.465,-96.443,61.694,-161.768
10021,-0.8857,-0.5122,0.0166,10.376,-1.709,-4.700,-96.218,61.633,-161.719
10031,-0.8770,-0.5645,-0.0054,-1.648,-4.028,-10.925,-96.081,61.485,-161.609
10041,-0.8652,-0.5977,-0.0234,-10.437,-3.113,-13.245,-96.064,61.298,-161.516
10051,-0.8496,-0.5747,-0.0410,-14.709,-0.122,-10.132,-96.169,61.144,-161.494
10061,-0.8550,-0.4639,-0.0728,-13.916,2.380,-1.953,-96.372,61.122,-161.537
10071,-0.8809,-0.3945,-0.0762,-3.662,4.761,6.226,-96.553,61.221,-161.647
10081,-0.8892,-0.3989,-0.0542,10.864,7.019,8.118,-96.597,61.342,-161.812
10091,-0.8687,-0.4722,-0.0190,21.606,5.920,3.479,-96.454,61.370,-161.944
10101,-0.8340,-0.5903,0.0132,23.987,2.502,-1.160,-96.185,61.287,-161.993
10111,-0.8242,-0.6895,0.0122,18.005,-1.648,0.000,-95.905,61.177,-161.960
10121,-0.8374,-0.6870,-0.0142,8.728,-3.174,7.935,-95.729,61.155,-161.911
10131,-0.8506,-0.5830,-0.0552,2.258,-0.610,20.264,-95.729,61.298,-161.938
10141,-0.8828,-0.4443,-0.0825,1.282,4.333,32.837,-95.900,61.633,-162.098
10151,-0.9189,-0.2969,-0.1182,5.676,8.484,38.940,-96.229,62.100,-162.361
10161,-0.9380,-0.2676,-0.1050,16.663,11.230,35.889,-96.498,62.551,-162.680
10171,-0.9370,-0.2627,-0.0698,21.912,8.667,24.841,-96.586,62.897,-162.927
10181,-0.9297,-0.2812,-0.0576,16.357,1.953,10.254,-96.531,63.094,-162.999
10191,-0.9209,-0.3823,-0.0249,6.958,-3.113,-4.333,-96.367,63.100,-162.916
10201,-0.9141,-0.5000,-0.0127,-6.653,-5.127,-16.785,-96.246,62.924,-162.762
10211,-0.9077,-0.5752,-0.0283,-18.921,-2.930,-24.292,-96.290,62.633,-162.642
10221,-0.8853,-0.5986,-0.0586,-23.437,4.211,-27.161,-96.542,62.292,-162.669
10231,-0.8579,-0.5767,-0.1001,-19.531,12.634,-23.560,-96.954,61.985,-162.883
10241,-0.8486,-0.5400,-0.1230,-8.728,17.944,-14.221,-97.399,61.771,-163.224
10251,-0.8457,-0.4800,-0.1182,4.822,18.433,-2.991,-97.745,61.699,-163.603
10261,-0.8643,-0.4570,-0.0942,15.442,15.503,5.981,-97.927,61.738,-163.943
10271,-0.8838,-0.4678,-0.0518,19.958,10.010,8.240,-97.916,61.804,-164.180
10281,-0.8774,-0.4727,-0.0293,15.503,2.197,4.761,-97.773,61.848,-164.235
10291,-0.8716,-0.4844,-0.0146,5.981,-4.761,0.366,-97.564,61.848,-164.136
10301,-0.8706,-0.4868,-0.0215,-5.066,-8.484,-2.197,-97.405,61.826,-163.954
10311,-0.8818,-0.4814,-0.0396,-13.916,-8.728,-2.441,-97.350,61.809,-163.762
10321,-0.8911,-0.4609,-0.0591,-17.151,-5.493,-1.892,-97.416,61.804,-163.641
10331,-0.8950,-0.4185,-0.0771,-14.099,-1.160,-1.709,-97.559,61.815,-163.614
10341,-0.8950,-0.4224,-0.0713,-5.676,2.869,-2.075,-97.685,61.820,-163.669
10351,-0.8867,-0.4141,-0.0605,2.258,4.211,-3.479,-97.734,61.809,-163.746
10361,-0.8813,-0.3994,-0.0552,5.981,2.747,-4.639,-97.718,61.793,-163.790
10371,-0.8818,-0.4478,-0.0312,6.897,1.221,-5.432,-97.619,61.754,-163.801
10381,-0.8770,-0.4985,-0.0205,3.479,-0.916,-6.958,-97.498,61.672,-163.762
10391,-0.8711,-0.5464,-0.0283,-2.930,-3.113,-7.996,-97.405,61.562,-163.674
10401,-0.8672,-0.5605,-0.0342,-8.057,-3.967,-7.202,-97.355,61.452,-163.575
10411,-0.8716,-0.5459,-0.0527,-11.353,-3.357,-3.906,-97.383,61.381,-163.493
10421,-0.8726,-0.4780,-0.0713,-10.315,-1.465,0.366,-97.471,61.381,-163.466
10431,-0.8740,-0.4292,-0.0864,-4.089,0.427,3.540,-97.564,61.436,-163.482
10441,-0.8818,-0.4248,-0.0703,4.578,2.197,3.723,-97.586,61.496,-163.537
10451,-0.8867,-0.4185,-0.0664,8.789,2.258,1.343,-97.559,61.534,-163.592
10461,-0.8867,-0.4458,-0.0513,8.850,1.404,-2.075,-97.482,61.529,-163.614
10471,-0.8833,-0.4854,-0.0474,4.822,0.061,-5.371,-97.405,61.474,-163.597
10481,-0.8755,-0.5327,-0.0391,-0.977,-1.038,-7.568,-97.344,61.370,-163.559
10491,-0.8696,-0.5562,-0.0464,-7.263,-1.282,-7.507,-97.350,61.260,-163.510
10501,-0.8706,-0.5547,-0.0562,-10.864,-0.427,-5.676,-97.421,61.166,-163.488
10512,-0.8662,-0.4741,-0.0771,-10.437,1.160,-3.235,-97.553,61.128,-163.504
10521,-0.8696,-0.4141,-0.0986,-5.127,2.747,0.183,-97.712,61.155,-163.559
10531,-0.8848,-0.3979,-0.0752,3.967,3.967,1.099,-97.778,61.205,-163.641
10541,-0.8799,-0.3716,-0.0630,8.484,1.831,-0.916,-97.740,61.249,-163.680
10551,-0.8818,-0.4033,-0.0303,8.179,-1.587,-2.563,-97.592,61.271,-163.641
10561,-0.8828,-0.4438,-0.0020,3.113,-5.676,-5.066,-97.372,61.249,-163.510
10571,-0.8716,-0.4600,-0.0034,-4.395,-8.911,-7.996,-97.169,61.188,-163.301
10581,-0.8706,-0.5205,0.0000,-9.399,-8.118,-9.827,-97.026,61.084,-163.109
10591,-0.8584,-0.5093,0.0020,-10.925,-4.761,-11.963,-96.949,60.952,-162.982
10601,-0.8545,-0.4336,-0.0264,-8.728,-0.610,-11.902,-96.965,60.859,-162.938
10611,-0.8843,-0.4790,-0.0259,-0.610,6.531,-9.338,-97.026,60.765,-163.048
10621,-0.8823,-0.5117,-0.0078,5.066,11.841,-9.521,-97.103,60.650,-163.268
10631,-0.8735,-0.4756,-0.0439,0.916,12.573,-9.705,-97.273,60.546,-163.499
10641,-0.8662,-0.5288,-0.0454,-2.808,11.841,-9.399,-97.460,60.419,-163.713
10651,-0.8501,-0.5859,-0.0283,-7.019,8.667,-10.559,-97.614,60.255,-163.856
10661,-0.8501,-0.6206,-0.0479,-15.076,4.517,-9.888,-97.784,60.084,-163.922
10671,-0.8589,-0.6572,-0.0757,-20.203,4.700,-7.446,-98.031,59.930,-163.993
10681,-0.8486,-0.5796,-0.1431,-22.278,7.568,-5.371,-98.427,59.815,-164.130
10691,-0.8623,-0.4785,-0.1909,-17.029,12.695,-0.427,-98.943,59.788,-164.377
10701,-0.8823,-0.4233,-0.2231,-6.714,17.456,5.493,-99.503,59.832,-164.740
10711,-0.8872,-0.4204,-0.2207,4.395,19.104,6.104,-99.981,59.881,-165.130
10721,-0.8760,-0.3921,-0.2085,9.949,14.465,1.709,-100.311,59.903,-165.421
10731,-0.8652,-0.4375,-0.1934,9.705,5.005,-2.930,-100.426,59.881,-165.509
10741,-0.8730,-0.5566,-0.1455,6.348,-4.944,-7.568,-100.300,59.782,-165.388
10751,-0.8569,-0.5898,-0.1426,-2.869,-15.137,-11.902,-100.069,59.645,-165.048
10761,-0.8428,-0.6309,-0.1221,-8.484,-20.813,-11.108,-99.783,59.502,-164.603
10771,-0.8452,-0.5869,-0.1221,-10.315,-22.095,-6.348,-99.520,59.425,-164.152
10781,-0.8530,-0.5127,-0.1226,-6.775,-19.348,0.854,-99.311,59.458,-163.779
10791,-0.8662,-0.5117,-0.0835,2.930,-13.245,6.653,-99.080,59.540,-163.542
10801,-0.8638,-0.4414,-0.0586,9.460,-9.705,6.897,-98.828,59.656,-163.378
10811,-0.8584,-0.4395,-0.0396,12.573,-8.362,5.005,-98.542,59.749,-163.229
10821,-0.8657,-0.5273,0.0190,13.794,-7.751,1.404,-98.168,59.760,-163.081
10831,-0.8564,-0.5518,0.0083,5.066,-10.193,-3.662,-97.850,59.716,-162.872
10841,-0.8496,-0.6919,0.0117,-1.709,-10.071,-6.104,-97.597,59.579,-162.658
10851,-0.8335,-0.9180,0.0508,-6.348,-7.751,-7.690,-97.405,59.343,-162.482
10861,-0.8164,-0.8657,0.0078,-18.860,-8.118,-5.310,-97.366,59.139,-162.312
10871,-0.8008,-0.5640,-0.1021,-26.794,-6.470,8.667,-97.570,59.183,-162.208
10881,-0.8140,-0.2959,-0.1655,-15.015,-1.343,30.884,-97.982,59.573,-162.263
10891,-0.8892,-0.0869,-0.1592,9.338,2.014,47.913,-98.569,60.227,-162.433
10901,-0.9580,0.0181,-0.1265,34.546,1.892,48.584,171.865,60.925,-162.620
10911,-0.9517,-0.0205,-0.0283,52.856,-1.465,32.715,-144.086,61.166,-163.290
10921,-0.9453,-0.1763,0.0776,46.570,-9.033,8.484,-142.877,61.463,-163.323
10931,-0.9336,-0.3687,0.1191,19.592,-16.296,-18.982,-141.520,61.534,-162.795
10941,-0.9082,-0.5566,0.1128,-12.451,-18.127,-44.739,-140.169,61.364,-161.829
10951,-0.8691,-0.7065,0.0649,-36.316,-13.123,-62.012,-138.955,60.969,-160.659
10961,-0.8340,-0.8457,0.0171,-48.096,-2.502,-66.040,-138.016,60.392,-159.598
10971,-0.7871,-0.8740,-0.0298,-53.894,7.751,-55.847,-137.455,59.782,-158.862
10981,-0.7500,-0.7124,-0.1260,-51.453,15.198,-32.410,-137.357,59.315,-158.593
10991,-0.7700,-0.5449,-0.2129,-33.386,19.348,-1.953,-137.620,59.095,-158.818
11002,-0.8140,-0.4741,-0.1899,-0.244,22.095,22.156,-137.884,59.073,-159.428
11012,-0.8462,-0.4580,-0.1426,28.259,20.325,33.813,-137.939,59.161,-160.181
11021,-0.8682,-0.4902,-0.1011,41.138,12.756,35.278,-137.747,59.310,-160.862
11031,-0.8779,-0.5444,-0.0444,38.574,3.906,28.748,-137.329,59.458,-161.329
11041,-0.8843,-0.5186,-0.0337,21.301,-5.127,18.188,-136.851,59.623,-161.521
11051,-0.8750,-0.4243,-0.0605,1.770,-10.620,9.888,-136.445,59.810,-161.521
11061,-0.8882,-0.3779,-0.0806,-11.047,-12.085,7.629,-136.159,60.013,-161.466
11071,-0.9058,-0.3394,-0.0957,-15.808,-10.437,6.348,-135.967,60.222,-161.411
11081,-0.9102,-0.3193,-0.1079,-13.306,-7.263,1.770,-135.764,60.381,-161.340
11091,-0.8970,-0.4028,-0.0874,-3.296,-1.953,-6.165,-135.357,60.397,-161.219
11101,-0.8823,-0.5464,-0.0605,4.944,1.648,-14.648,-134.758,60.260,-161.032
11111,-0.8525,-0.6558,-0.0547,7.385,1.831,-20.386,-134.061,60.029,-160.768
11121,-0.8203,-0.6846,-0.0625,6.714,0.000,-19.897,-133.369,59.788,-160.494
11131,-0.8184,-0.6372,-0.0854,4.944,-1.526,-11.292,-132.808,59.634,-160.318
11141,-0.8330,-0.5610,-0.0981,6.165,-1.953,1.892,-132.418,59.623,-160.312
11151,-0.8525,-0.4712,-0.0845,9.888,-2.258,13.367,-132.122,59.749,-160.461
11161,-0.8682,-0.3955,-0.0703,14.160,-2.930,18.616,-131.836,59.958,-160.664
11171,-0.8784,-0.3740,-0.0391,16.846,-4.822,17.334,-131.446,60.189,-160.823
11181,-0.8838,-0.4614,0.0034,14.771,-7.141,10.559,-130.908,60.337,-160.856
11191,-0.8794,-0.5459,0.0396,6.165,-8.728,-0.732,-130.276,60.364,-160.714
11201,-0.8711,-0.5947,0.0161,-6.897,-7.812,-10.315,-129.705,60.287,-160.455
11211,-0.8555,-0.6060,-0.0068,-15.381,-3.418,-13.306,-129.271,60.150,-160.230
11221,-0.8433,-0.5088,-0.0527,-18.738,1.770,-8.606,-129.056,60.062,-160.153
11231,-0.8555,-0.4292,-0.0923,-13.245,6.470,1.221,-129.018,60.057,-160.269
11241,-0.8730,-0.4004,-0.0850,0.916,10.071,7.874,-128.958,60.106,-160.521
11251,-0.8828,-0.4048,-0.0713,13.367,9.583,7.019,-128.738,60.150,-160.763
11261,-0.8696,-0.4409,-0.0356,19.043,5.920,1.831,-128.309,60.156,-160.878
11271,-0.8613,-0.4980,-0.0146,14.893,0.549,-3.662,-127.766,60.123,-160.840
11281,-0.8604,-0.5571,-0.0161,3.845,-4.456,-7.629,-127.222,60.057,-160.675
11291,-0.8604,-0.6104,-0.0161,-6.714,-5.920,-9.460,-126.755,59.963,-160.466
11301,-0.8491,-0.6240,-0.0415,-14.526,-4.211,-8.240,-126.425,59.865,-160.302
11311,-0.8477,-0.6260,-0.0615,-17.761,-0.366,-3.723,-126.249,59.771,-160.252
11321,-0.8481,-0.5562,-0.0908,-16.418,3.357,2.319,-126.211,59.738,-160.329
11331,-0.8560,-0.4692,-0.1069,-8.972,6.042,8.179,-126.233,59.777,-160.521
11342,-0.8701,-0.3892,-0.1045,2.869,7.507,12.085,-126.216,59.881,-160.785
11352,-0.8877,-0.2935,-0.0884,14.038,6.287,12.329,-126.090,60.057,-161.032
11362,-0.8809,-0.2451,-0.0776,22.339,3.418,9.644,-125.832,60.249,-161.202
11371,-0.8867,-0.4268,-0.0146,25.208,1.465,4.333,-125.310,60.315,-161.274
11381,-0.8784,-0.5703,0.0308,14.526,-3.479,-6.165,-124.667,60.255,-161.147
11391,-0.8569,-0.6592,0.0122,-5.005,-7.690,-16.785,-124.085,60.079,-160.829
11402,-0.8379,-0.7104,-0.0132,-19.226,-7.324,-20.325,-123.646,59.854,-160.477
11411,-0.8335,-0.7197,-0.0488,-26.733,-4.089,-16.296,-123.398,59.634,-160.230
11421,-0.8301,-0.6274,-0.0942,-25.513,0.000,-6.104,-123.349,59.513,-160.164
11431,-0.8447,-0.5415,-0.1187,-13.977,4.150,6.653,-123.398,59.518,-160.302
11441,-0.8735,-0.4497,-0.1147,4.028,7.996,15.381,-123.420,59.628,-160.604
11451,-0.8770,-0.3721,-0.1084,19.775,10.071,17.273,-123.354,59.777,-160.955
11461,-0.8618,-0.3999,-0.0674,30.334,9.888,13.489,-123.085,59.886,-161.268
11471,-0.8623,-0.4395,-0.0347,27.710,5.188,7.202,-122.662,59.952,-161.433
11481,-0.8765,-0.4687,-0.0293,14.282,-1.160,0.671,-122.223,59.980,-161.422
11491,-0.8682,-0.4854,-0.0430,-0.244,-4.822,-4.944,-121.838,59.974,-161.285
11502,-0.8643,-0.5210,-0.0410,-11.902,-6.409,-7.324,-121.525,59.930,-161.098
11512,-0.8721,-0.5527,-0.0371,-20.264,-6.653,-7.141,-121.284,59.886,-160.911
11522,-0.8682,-0.5239,-0.0542,-23.560,-5.127,-5.859,-121.141,59.848,-160.763
11531,-0.8579,-0.5063,-0.0679,-18.616,-0.854,-3.540,-121.042,59.821,-160.714
11542,-0.8643,-0.5181,-0.0625,-8.728,3.174,-1.404,-120.921,59.782,-160.752
11552,-0.8691,-0.5176,-0.0664,2.441,5.981,-1.892,-120.734,59.727,-160.834
11561,-0.8540,-0.5181,-0.0767,14.771,8.789,-4.272,-120.454,59.634,-160.944
11572,-0.8423,-0.5522,-0.0503,23.071,10.620,-3.418,-120.097,59.524,-161.087
11582,-0.8477,-0.5464,-0.0459,18.677,8.118,0.854,-119.784,59.464,-161.235
11591,-0.8564,-0.4561,-0.0576,8.667,3.662,4.822,-119.570,59.513,-161.345
11601,-0.8560,-0.3496,-0.0625,0.610,-0.488,7.751,-119.427,59.661,-161.411
11611,-0.8828,-0.3335,-0.0479,-6.470,-3.784,10.071,-119.306,59.859,-161.444
11621,-0.9043,-0.3677,-0.0410,-14.282,-6.104,6.653,-119.180,60.029,-161.406
11632,-0.9072,-0.4751,-0.0347,-19.470,-5.615,-4.028,-119.004,60.040,-161.268
11642,-0.8828,-0.5957,-0.0557,-23.193,-2.747,-17.090,-118.817,59.865,-161.054
11652,-0.8481,-0.6890,-0.0840,-23.437,0.793,-25.269,-118.630,59.551,-160.823
11662,-0.8149,-0.7168,-0.1226,-19.775,4.822,-24.353,-118.515,59.205,-160.675
11672,-0.7983,-0.6436,-0.1636,-10.803,7.019,-14.282,-118.466,58.958,-160.664
11682,-0.8140,-0.5308,-0.1870,3.601,5.737,1.587,-118.438,58.909,-160.779
11692,-0.8447,-0.4800,-0.1416,21.179,3.784,15.381,-118.284,59.030,-160.983
11702,-0.8608,-0.4775,-0.0840,30.823,0.549,21.179,-117.966,59.227,-161.186
11712,-0.8750,-0.5288,-0.0229,28.992,-4.578,18.372,-117.499,59.403,-161.279
11722,-0.8657,-0.6240,0.0269,18.127,-9.277,9.033,-116.955,59.474,-161.197
11732,-0.8604,-0.7104,0.0381,0.549,-11.353,-1.282,-116.472,59.425,-160.988
11742,-0.8452,-0.6191,-0.0078,-17.456,-10.986,-5.981,-116.175,59.365,-160.741
11752,-0.8286,-0.4194,-0.0874,-26.367,-7.141,0.671,-116.191,59.436,-160.620
11762,-0.8608,-0.2744,-0.1304,-19.409,-0.732,14.954,-116.472,59.683,-160.735
11772,-0.9126,-0.1504,-0.1289,-2.869,3.906,23.560,-116.878,60.057,-161.016
11782,-0.9268,-0.0669,-0.1274,14.282,4.578,21.423,-117.328,60.436,-161.290
11791,-0.9194,-0.1875,-0.0645,25.330,1.099,11.536,-117.103,60.705,-161.417
11802,-0.9189,-0.4585,0.0361,22.583,-5.676,-6.226,-116.428,60.705,-161.257
11812,-0.8955,-0.6445,0.0615,1.892,-12.939,-28.625,-115.659,60.441,-160.757
11822,-0.8579,-0.7539,0.0269,-22.522,-14.465,-44.312,-115.043,59.991,-160.109
11832,-0.8110,-0.8252,-0.0171,-36.316,-8.423,-46.692,-114.692,59.453,-159.560
11842,-0.7646,-0.8213,-0.0684,-40.588,-1.770,-34.363,-114.626,58.986,-159.247
11852,-0.7627,-0.7217,-0.1128,-34.241,1.709,-11.292,-114.758,58.749,-159.181
11862,-0.7891,-0.5518,-0.1499,-14.648,2.136,12.817,-114.928,58.810,-159.324
11872,-0.8481,-0.4272,-0.1230,14.038,3.784,30.029,-114.961,59.101,-159.637
11882,-0.8755,-0.3813,-0.0752,36.560,4.761,35.767,-114.785,59.469,-160.010
11892,-0.8779,-0.3989,-0.0137,44.128,2.991,32.837,-114.395,59.815,-160.340
11902,-0.9009,-0.4312,0.0273,36.011,-0.732,23.621,-113.912,60.073,-160.516
11915,-0.9058,-0.4517,0.0210,17.639,-2.563,9.705,-113.500,60.205,-160.549
11922,-0.8911,-0.4556,-0.0166,-2.563,-1.587,-3.418,-113.264,60.211,-160.494
11932,-0.8799,-0.4731,-0.0557,-17.456,-0.183,-10.681,-113.192,60.128,-160.406
11942,-0.8726,-0.4858,-0.0757,-23.254,1.770,-13.062,-113.220,60.007,-160.334
11952,-0.8638,-0.4697,-0.0991,-20.996,3.845,-12.085,-113.291,59.892,-160.312
11962,-0.8564,-0.4351,-0.1240,-11.963,5.188,-9.277,-113.357,59.810,-160.334
11972,-0.8545,-0.4600,-0.1196,2.197,5.981,-6.226,-113.297,59.738,-160.389
11982,-0.8535,-0.5693,-0.0752,14.282,5.737,-5.493,-113.049,59.634,-160.455
11992,-0.8516,-0.6182,-0.0591,13.855,2.441,-5.859,-112.736,59.513,-160.450
12002,-0.8442,-0.6211,-0.0640,6.042,-0.977,-4.211,-112.467,59.420,-160.400
12012,-0.8408,-0.6045,-0.0605,-0.854,-2.563,-0.549,-112.264,59.370,-160.351
12022,-0.8481,-0.5625,-0.0698,-5.737,-3.967,3.235,-112.126,59.381,-160.302
12032,-0.8555,-0.4985,-0.0669,-4.395,-4.700,5.371,-111.989,59.453,-160.258
12042,-0.8550,-0.4238,-0.0688,1.587,-4.944,6.287,-111.808,59.568,-160.214
12052,-0.8696,-0.4185,-0.0518,9.827,-3.723,5.981,-111.544,59.683,-160.192
12062,-0.8770,-0.4194,-0.0371,13.855,-2.075,2.808,-111.226,59.760,-160.170
12072,-0.8657,-0.4619,-0.0283,11.353,-0.977,-1.221,-110.912,59.777,-160.148
12082,-0.8643,-0.5527,-0.0122,4.761,0.122,-4.700,-110.643,59.705,-160.115
12092,-0.8628,-0.6094,-0.0229,-6.409,0.061,-7.751,-110.473,59.584,-160.060
12102,-0.8540,-0.6045,-0.0435,-14.526,0.854,-8.362,-110.418,59.458,-160.021
12112,-0.8501,-0.5381,-0.0801,-16.724,2.380,-4.639,-110.473,59.387,-160.032
12121,-0.8613,-0.4873,-0.1035,-11.475,3.723,1.770,-110.572,59.392,-160.109
12132,-0.8726,-0.4478,-0.0884,-0.488,4.639,5.310,-110.588,59.458,-160.236
12142,-0.8628,-0.3442,-0.1001,8.179,2.930,5.066,-110.539,59.573,-160.323
12152,-0.8662,-0.3789,-0.0703,15.137,0.671,3.845,-110.325,59.672,-160.362
12162,-0.8735,-0.4883,-0.0186,14.832,-2.380,-1.282,-109.951,59.678,-160.307
12172,-0.8628,-0.5635,-0.0151,4.089,-5.859,-9.644,-109.572,59.584,-160.137
12182,-0.8535,-0.6367,-0.0312,-7.385,-6.104,-15.259,-109.297,59.398,-159.922
12192,-0.8462,-0.6802,-0.0518,-14.343,-3.540,-15.930,-109.144,59.178,-159.752
12202,-0.8271,-0.6689,-0.0737,-16.113,0.305,-11.536,-109.116,58.986,-159.681
12212,-0.8237,-0.6309,-0.0864,-12.756,3.784,-2.136,-109.177,58.887,-159.741
12222,-0.8369,-0.5718,-0.0840,-4.761,5.859,7.446,-109.248,58.903,-159.895
12232,-0.8433,-0.4629,-0.0762,4.883,6.348,13.062,-109.270,59.024,-160.093
12242,-0.8472,-0.3525,-0.0649,12.573,5.859,16.174,-109.237,59.238,-160.302
12252,-0.8716,-0.3599,-0.0400,16.541,4.211,16.113,-109.100,59.458,-160.483
12262,-0.8877,-0.4194,-0.0117,14.954,1.465,9.155,-108.847,59.590,-160.571
12272,-0.8804,-0.4761,-0.0024,6.104,-1.648,-2.014,-108.567,59.595,-160.527
12282,-0.8608,-0.5518,-0.0127,-5.432,-2.991,-10.498,-108.342,59.485,-160.406
12292,-0.8545,-0.6445,-0.0195,-14.893,-3.113,-14.343,-108.199,59.293,-160.258
12302,-0.8398,-0.6685,-0.0327,-20.630,-2.197,-14.099,-108.138,59.090,-160.131
12312,-0.8315,-0.5874,-0.0674,-20.996,-0.061,-7.690,-108.193,58.975,-160.082
12322,-0.8364,-0.4961,-0.1035,-13.489,2.686,3.662,-108.320,58.997,-160.153
12332,-0.8608,-0.4160,-0.0986,0.732,5.554,12.939,-108.419,59.150,-160.334
12342,-0.8760,-0.3716,-0.1084,13.245,8.057,15.564,-108.474,59.343,-160.582
12352,-0.8823,-0.4131,-0.0845,20.569,8.728,12.268,-108.408,59.480,-160.818
12362,-0.8779,-0.4893,-0.0630,17.883,5.432,4.639,-108.226,59.518,-160.950
12372,-0.8706,-0.5522,-0.0610,6.958,0.183,-3.723,-108.023,59.464,-160.933
12382,-0.8501,-0.6201,-0.0703,-5.737,-4.395,-8.972,-107.847,59.332,-160.796
12392,-0.8447,-0.6479,-0.0654,-15.137,-7.324,-8.911,-107.715,59.200,-160.604
12402,-0.8447,-0.6069,-0.0840,-19.775,-8.118,-4.578,-107.661,59.134,-160.428
12412,-0.8418,-0.5103,-0.0981,-15.625,-5.920,3.052,-107.672,59.172,-160.334
12422,-0.8408,-0.3994,-0.0977,-4.028,-2.869,10.437,-107.677,59.326,-160.340
12432,-0.8667,-0.3330,-0.0630,10.864,0.427,13.794,-107.578,59.551,-160.433
12442,-0.8804,-0.3301,-0.0317,21.423,3.174,10.986,-107.353,59.744,-160.560
12452,-0.8755,-0.4214,0.0151,22.400,3.967,4.150,-107.018,59.815,-160.659
12462,-0.8813,-0.5117,0.0278,10.559,1.831,-4.517,-106.721,59.766,-160.664
12472,-0.8740,-0.5933,0.0068,-6.287,-0.183,-13.306,-106.540,59.601,-160.587
12482,-0.8525,-0.6543,-0.0161,-19.165,-0.549,-17.822,-106.485,59.365,-160.477
12492,-0.8369,-0.6426,-0.0586,-25.696,-0.366,-15.686,-106.545,59.145,-160.384
12502,-0.8364,-0.5957,-0.1030,-23.071,1.099,-7.385,-106.688,59.024,-160.362
12512,-0.8442,-0.5210,-0.1260,-10.864,3.296,2.869,-106.831,59.024,-160.439
12522,-0.8574,-0.4360,-0.1323,5.615,5.554,9.827,-106.913,59.134,-160.598
12532,-0.8667,-0.4082,-0.1162,21.118,8.301,11.230,-106.880,59.266,-160.818
12542,-0.8662,-0.4355,-0.0840,28.564,8.423,7.751,-106.710,59.348,-161.016
12552,-0.8623,-0.4976,-0.0630,23.437,5.188,2.808,-106.479,59.365,-161.131
12562,-0.8628,-0.5708,-0.0513,10.010,0.183,-2.625,-106.254,59.310,-161.120
12572,-0.8545,-0.5957,-0.0684,-6.104,-4.944,-6.897,-106.106,59.216,-160.988
12582,-0.8433,-0.5928,-0.0864,-16.846,-8.606,-6.714,-106.029,59.128,-160.790
12592,-0.8467,-0.5825,-0.0957,-19.958,-9.705,-2.380,-105.991,59.095,-160.598
12602,-0.8555,-0.4966,-0.1050,-16.479,-9.705,3.174,-105.974,59.150,-160.433
12612,-0.8628,-0.3882,-0.1084,-5.859,-7.568,7.446,-105.941,59.304,-160.329
12622,-0.8779,-0.3506,-0.0923,8.606,-4.456,7.996,-105.809,59.474,-160.291
12632,-0.8887,-0.3940,-0.0674,20.142,-1.709,2.869,-105.535,59.568,-160.269
12642,-0.8721,-0.4927,-0.0288,23.621,-0.488,-5.493,-105.150,59.529,-160.236
12652,-0.8501,-0.5937,-0.0005,16.174,-1.343,-12.085,-104.760,59.370,-160.148
12662,-0.8359,-0.6182,-0.0156,1.953,-4.333,-14.221,-104.480,59.189,-159.994
12672,-0.8301,-0.6011,-0.0249,-9.155,-5.859,-10.803,-104.310,59.046,-159.829
12682,-0.8394,-0.5562,-0.0308,-14.038,-5.615,-3.479,-104.233,59.002,-159.708
12692,-0.8579,-0.4956,-0.0410,-12.817,-4.761,3.418,-104.200,59.057,-159.631
12702,-0.8677,-0.4854,-0.0356,-4.761,-1.892,5.188,-104.139,59.128,-159.620
12712,-0.8569,-0.4751,-0.0415,3.967,1.221,1.343,-104.035,59.156,-159.653
12722,-0.8486,-0.5166,-0.0469,8.789,3.113,-2.808,-103.898,59.112,-159.697
12732,-0.8442,-0.6108,-0.0283,9.644,4.517,-5.005,-103.744,59.008,-159.758
12742,-0.8262,-0.6646,-0.0342,3.540,3.662,-5.371,-103.634,58.865,-159.802
12752,-0.8296,-0.6665,-0.0513,-3.479,2.441,-1.892,-103.612,58.766,-159.840
12762,-0.8408,-0.5894,-0.0742,-7.202,1.953,4.578,-103.667,58.766,-159.895
12772,-0.8516,-0.5044,-0.0859,-5.371,2.136,11.902,-103.760,58.876,-159.994
12782,-0.8647,-0.4165,-0.0801,1.770,2.441,16.235,-103.815,59.079,-160.115
12792,-0.8789,-0.3569,-0.0645,9.399,1.953,15.808,-103.782,59.310,-160.225
12802,-0.8867,-0.3228,-0.0542,14.099,1.221,11.353,-103.661,59.524,-160.302
12812,-0.8818,-0.3516,-0.0449,13.123,0.671,4.578,-103.497,59.650,-160.334
12822,-0.8828,-0.4136,-0.0312,6.287,0.305,-2.380,-103.337,59.678,-160.329
12832,-0.8804,-0.4482,-0.0376,-4.944,0.000,-8.667,-103.271,59.628,-160.291
12842,-0.8682,-0.3857,-0.0728,-15.747,-0.488,-11.658,-103.348,59.579,-160.225
12852,-0.8740,-0.3389,-0.1099,-18.677,-0.854,-10.742,-103.519,59.557,-160.159
12862,-0.8892,-0.4229,-0.0767,-12.390,0.122,-11.841,-103.568,59.491,-160.109
12872,-0.8682,-0.4854,-0.0664,-7.874,-0.793,-18.555,-103.502,59.326,-160.005
12882,-0.8447,-0.5742,-0.0620,-6.226,-2.014,-23.621,-103.365,59.068,-159.862
12892,-0.8262,-0.6895,-0.0483,-6.409,-3.235,-24.902,-103.189,58.744,-159.686
12902,-0.8062,-0.7891,-0.0454,-10.742,-4.456,-23.010,-103.035,58.403,-159.505
12912,-0.7949,-0.8125,-0.0527,-14.954,-4.272,-18.311,-102.958,58.096,-159.346
12922,-0.7856,-0.7632,-0.0786,-15.747,-3.662,-9.155,-102.953,57.887,-159.236
12932,-0.7969,-0.7646,-0.0791,-9.277,-1.465,2.625,-102.964,57.799,-159.225
12942,-0.8149,-0.7153,-0.0469,-0.183,0.244,11.230,-102.914,57.816,-159.274
12952,-0.8184,-0.5483,-0.0601,5.249,-0.244,18.127,-102.859,57.975,-159.346
12962,-0.8374,-0.4312,-0.0474,12.329,0.793,25.391,-102.772,58.266,-159.467
12972,-0.8755,-0.3545,-0.0298,16.479,1.709,28.625,-102.656,58.634,-159.620
12982,-0.8984,-0.2930,-0.0273,15.442,1.343,25.146,-102.541,59.008,-159.752
12992,-0.8989,-0.3301,-0.0161,11.475,2.441,16.052,-102.426,59.266,-159.862
13002,-0.8936,-0.4111,-0.0063,2.197,3.113,3.357,-102.354,59.348,-159.939
13013,-0.8740,-0.4722,-0.0283,-11.841,2.991,-8.545,-102.398,59.282,-159.961
13022,-0.8613,-0.5317,-0.0532,-23.132,3.479,-14.648,-102.563,59.123,-159.966
13032,-0.8545,-0.5464,-0.0908,-27.710,4.333,-15.930,-102.821,58.942,-159.977
13042,-0.8511,-0.5425,-0.1235,-22.766,5.737,-13.672,-103.090,58.777,-160.027
13052,-0.8491,-0.5654,-0.1421,-10.315,7.385,-9.033,-103.282,58.640,-160.126
13062,-0.8481,-0.5698,-0.1445,4.700,7.568,-4.883,-103.348,58.541,-160.247
13072,-0.8320,-0.5547,-0.1348,17.639,5.859,-2.136,-103.260,58.475,-160.345
13082,-0.8306,-0.5410,-0.1099,24.597,2.625,1.038,-103.046,58.458,-160.400
13092,-0.8413,-0.5610,-0.0771,23.499,-1.648,3.235,-102.744,58.469,-160.384
13102,-0.8486,-0.5786,-0.0513,16.479,-4.944,3.357,-102.442,58.486,-160.307
13112,-0.8472,-0.5596,-0.0449,5.859,-5.981,2.197,-102.217,58.502,-160.203
13122,-0.8496,-0.5308,-0.0493,-2.808,-4.578,2.197,-102.112,58.524,-160.126
13132,-0.8579,-0.5112,-0.0493,-6.165,-1.709,2.930,-102.090,58.563,-160.104
13142,-0.8486,-0.4746,-0.0562,-5.493,0.916,2.991,-102.112,58.612,-160.137
13152,-0.8506,-0.4736,-0.0605,-1.709,3.174,2.991,-102.145,58.656,-160.208
13162,-0.8574,-0.5083,-0.0581,2.625,4.639,1.648,-102.140,58.667,-160.302
13172,-0.8467,-0.5430,-0.0522,4.150,4.272,-0.549,-102.101,58.640,-160.378
13182,-0.8325,-0.5635,-0.0527,1.831,2.075,-0.671,-102.047,58.601,-160.417
13192,-0.8364,-0.5737,-0.0503,-1.587,-1.221,1.526,-101.975,58.585,-160.400
13202,-0.8521,-0.5571,-0.0513,-4.089,-3.662,4.089,-101.904,58.612,-160.345
13212,-0.8618,-0.5195,-0.0610,-4.089,-4.333,5.493,-101.843,58.678,-160.285
13222,-0.8638,-0.4736,-0.0737,-0.916,-2.869,6.104,-101.794,58.766,-160.258
13232,-0.8662,-0.4556,-0.0698,3.540,-0.854,5.615,-101.733,58.854,-160.263
13242,-0.8599,-0.4595,-0.0708,6.470,0.122,3.479,-101.656,58.914,-160.280
13252,-0.8555,-0.5059,-0.0566,6.836,-0.366,0.977,-101.530,58.931,-160.274
13262,-0.8486,-0.5415,-0.0522,2.930,-2.686,-0.671,-101.398,58.914,-160.225
13272,-0.8452,-0.5791,-0.0513,-2.747,-4.639,-0.977,-101.283,58.876,-160.131
13282,-0.8442,-0.5869,-0.0566,-6.470,-4.761,-0.183,-101.212,58.848,-160.038
13292,-0.8481,-0.5645,-0.0635,-6.042,-3.296,2.075,-101.179,58.848,-159.983
13302,-0.8564,-0.5049,-0.0723,-1.099,-0.610,5.127,-101.162,58.903,-159.994
13312,-0.8652,-0.4771,-0.0679,6.592,2.502,7.141,-101.129,58.986,-160.065
13322,-0.8662,-0.4595,-0.0532,13.428,5.310,6.592,-101.058,59.068,-160.192
13332,-0.8530,-0.4521,-0.0439,14.771,5.798,4.883,-100.970,59.134,-160.323
13342,-0.8535,-0.4736,-0.0190,10.193,4.211,4.089,-100.860,59.183,-160.417
13352,-0.8511,-0.5254,-0.0137,-0.061,0.793,2.625,-100.789,59.200,-160.444
13362,-0.8462,-0.5718,-0.0171,-10.925,-1.526,0.366,-100.783,59.172,-160.411
13372,-0.8516,-0.5942,-0.0522,-19.592,-2.380,-0.366,-100.882,59.134,-160.367
13382,-0.8604,-0.5645,-0.0825,-19.714,-0.549,0.366,-101.041,59.112,-160.356
13392,-0.8623,-0.4849,-0.1206,-11.658,2.441,2.747,-101.234,59.139,-160.417
13402,-0.8687,-0.4170,-0.1338,3.357,4.883,5.615,-101.365,59.227,-160.527
13412,-0.8740,-0.3823,-0.1162,20.020,5.493,5.493,-101.327,59.332,-160.659
13422,-0.8604,-0.4546,-0.0713,29.785,3.296,2.319,-101.074,59.376,-160.730
13432,-0.8521,-0.5801,-0.0107,26.306,-1.587,-1.709,-100.679,59.326,-160.692
13442,-0.8359,-0.6426,-0.0029,9.155,-8.728,-4.883,-100.327,59.222,-160.505
13452,-0.8325,-0.6865,-0.0112,-8.545,-11.658,-3.784,-100.113,59.123,-160.269
13462,-0.8364,-0.6187,-0.0410,-21.790,-10.681,1.404,-100.096,59.095,-160.065
13472,-0.8525,-0.5010,-0.0928,-25.879,-7.446,9.155,-100.261,59.200,-159.955
13482,-0.8833,-0.4277,-0.1011,-15.442,-1.526,14.832,-100.464,59.392,-159.977
13492,-0.8931,-0.3486,-0.1089,0.427,3.174,13.672,-100.624,59.601,-160.087
13502,-0.8936,-0.3325,-0.1089,15.259,6.165,8.362,-100.679,59.760,-160.241
13513,-0.8628,-0.4897,-0.0474,24.048,6.104,0.671,-100.492,59.760,-160.362
13522,-0.8481,-0.5791,-0.0083,16.052,0.610,-5.554,-100.228,59.667,-160.351
13532,-0.8438,-0.6260,-0.0234,-0.244,-5.920,-7.690,-100.025,59.540,-160.208
13542,-0.8545,-0.6558,-0.0273,-11.230,-6.470,-4.578,-99.943,59.436,-160.071
13552,-0.8535,-0.5669,-0.0688,-18.921,-4.028,1.831,-100.036,59.425,-159.999
13562,-0.8589,-0.3926,-0.1143,-17.334,0.427,9.888,-100.305,59.573,-160.038
13572,-0.8809,-0.3149,-0.1182,-1.892,6.165,14.648,-100.574,59.804,-160.208
13582,-0.8926,-0.3804,-0.0757,17.212,10.010,10.437,-100.613,59.952,-160.444
13592,-0.8750,-0.4692,-0.0264,24.780,8.118,0.305,-100.432,59.958,-160.604
13602,-0.8403,-0.5552,-0.0083,17.395,2.441,-7.812,-100.179,59.843,-160.626
13612,-0.8354,-0.5937,-0.0190,3.174,-3.357,-9.583,-99.981,59.705,-160.527
13622,-0.8491,-0.6055,-0.0259,-8.545,-6.470,-6.104,-99.860,59.606,-160.378
13632,-0.8560,-0.5786,-0.0415,-14.343,-5.859,0.000,-99.849,59.579,-160.263
13642,-0.8647,-0.5166,-0.0693,-13.672,-3.662,5.676,-99.915,59.634,-160.214
13652,-0.8721,-0.4658,-0.0767,-4.761,0.244,8.057,-99.987,59.733,-160.241
13662,-0.8687,-0.4453,-0.0732,6.531,3.784,6.348,-99.998,59.815,-160.340
13672,-0.8643,-0.4712,-0.0640,13.428,4.822,3.052,-99.932,59.848,-160.444
13682,-0.8511,-0.5088,-0.0444,13.733,2.991,-0.122,-99.794,59.837,-160.505
13692,-0.8506,-0.5552,-0.0366,7.568,-0.183,-1.282,-99.651,59.793,-160.494
13702,-0.8540,-0.5796,-0.0288,-0.854,-2.380,-0.793,-99.553,59.749,-160.444
13712,-0.8633,-0.5459,-0.0464,-7.996,-3.174,1.648,-99.536,59.749,-160.389
13722,-0.8716,-0.4692,-0.0679,-9.521,-1.770,5.737,-99.602,59.826,-160.373
13732,-0.8765,-0.3784,-0.0840,-4.639,0.854,9.155,-99.717,59.974,-160.422
13742,-0.8853,-0.3198,-0.0903,3.601,3.357,9.155,-99.827,60.156,-160.516
13752,-0.8960,-0.3462,-0.0806,10.315,5.188,5.066,-99.860,60.276,-160.637
13762,-0.8892,-0.4478,-0.0586,10.803,5.249,-2.869,-99.811,60.271,-160.730
13772,-0.8706,-0.5571,-0.0581,2.441,2.686,-11.169,-99.761,60.128,-160.746
13782,-0.8608,-0.6509,-0.0854,-9.705,-0.366,-15.381,-99.783,59.903,-160.686
13792,-0.8496,-0.6929,-0.1138,-17.761,-2.319,-14.526,-99.871,59.667,-160.593
13802,-0.8281,-0.6660,-0.1392,-17.944,-3.784,-8.545,-99.981,59.502,-160.488
13812,-0.8296,-0.6343,-0.1284,-9.399,-5.859,0.793,-99.998,59.447,-160.378
13822,-0.8291,-0.5498,-0.1016,4.456,-9.216,8.606,-99.827,59.513,-160.230
13832,-0.8442,-0.4531,-0.0894,18.005,-11.414,13.062,-99.514,59.678,-160.049
13842,-0.8843,-0.4224,-0.0752,27.161,-9.705,14.343,-99.124,59.875,-159.911
13852,-0.8931,-0.4424,-0.0488,27.710,-6.592,11.536,-98.745,60.035,-159.818
13862,-0.8774,-0.4561,-0.0322,17.578,-4.944,7.080,-98.459,60.139,-159.741
13872,-0.8677,-0.4502,-0.0308,2.380,-5.554,3.174,-98.300,60.200,-159.637
13882,-0.8604,-0.4385,-0.0210,-9.705,-7.202,0.977,-98.223,60.249,-159.500
13892,-0.8545,-0.4243,0.0039,-15.198,-8.972,0.549,-98.130,60.298,-159.318
13902,-0.8574,-0.3999,0.0264,-15.320,-10.803,0.427,-97.982,60.364,-159.104
13916,-0.8604,-0.3662,0.0454,-10.010,-11.353,-0.916,-97.729,60.436,-158.873
13922,-0.8608,-0.4072,0.0688,-0.671,-8.728,-3.906,-97.405,60.452,-158.692
13932,-0.8745,-0.5171,0.0933,5.066,-4.089,-7.690,-97.092,60.364,-158.588
13942,-0.8726,-0.5967,0.0762,2.625,0.000,-10.681,-96.899,60.211,-158.560
13952,-0.8613,-0.6597,0.0444,-3.601,4.150,-9.949,-96.877,60.029,-158.621
13962,-0.8496,-0.6660,0.0020,-10.498,7.019,-4.944,-97.020,59.892,-158.747
13972,-0.8457,-0.6313,-0.0264,-14.160,7.446,1.770,-97.240,59.837,-158.901
13982,-0.8516,-0.5630,-0.0605,-12.634,6.775,7.812,-97.487,59.870,-159.055
13992,-0.8550,-0.5059,-0.0767,-6.104,5.859,10.986,-97.685,59.963,-159.197
14002,-0.8584,-0.4399,-0.0903,0.732,4.761,11.414,-97.822,60.090,-159.324
14013,-0.8721,-0.4126,-0.0898,4.700,3.906,10.559,-97.910,60.233,-159.428
14022,-0.8838,-0.3950,-0.0776,4.272,3.784,8.667,-97.987,60.364,-159.527
14032,-0.8931,-0.3945,-0.0908,0.244,4.272,5.127,-98.119,60.463,-159.626
14042,-0.8994,-0.4482,-0.0859,-2.869,5.798,0.610,-98.278,60.485,-159.747
14052,-0.8911,-0.4873,-0.0981,-6.042,6.409,-4.272,-98.470,60.441,-159.862
14062,-0.8774,-0.5210,-0.1069,-6.409,6.409,-7.019,-98.657,60.342,-159.972
14072,-0.8535,-0.5503,-0.1123,-2.686,5.981,-7.141,-98.795,60.227,-160.065
14082,-0.8354,-0.5688,-0.0928,2.747,4.333,-4.883,-98.833,60.128,-160.137
14092,-0.8481,-0.5312,-0.0190,7.141,-2.930,3.662,-98.657,60.145,-160.093
14102,-0.8628,-0.4673,-0.0044,5.554,-5.188,6.958,-98.448,60.238,-160.010
14112,-0.8818,-0.4399,0.0142,4.761,-4.272,7.812,-98.245,60.353,-159.950
14122,-0.8936,-0.4199,0.0161,2.747,-1.038,5.188,-98.108,60.447,-159.944
14132,-0.8926,-0.4043,-0.0078,0.366,3.113,1.160,-98.091,60.507,-160.005
14142,-0.8774,-0.4468,-0.0234,0.183,7.507,-3.052,-98.163,60.491,-160.148
14152,-0.8589,-0.5146,-0.0332,-0.916,9.644,-6.592,-98.278,60.397,-160.323
14162,-0.8472,-0.5796,-0.0522,-3.845,9.338,-8.362,-98.421,60.255,-160.488
14172,-0.8369,-0.6191,-0.0664,-5.432,7.996,-7.690,-98.569,60.101,-160.626
14182,-0.8491,-0.6152,-0.0806,-5.676,5.371,-3.479,-98.701,59.996,-160.719
14192,-0.8599,-0.5737,-0.1021,-3.540,2.930,2.319,-98.806,59.974,-160.785
14202,-0.8721,-0.5044,-0.1074,1.221,1.831,7.263,-98.871,60.035,-160.845
14212,-0.8784,-0.4126,-0.1128,6.653,0.793,9.277,-98.910,60.167,-160.889
14222,-0.8848,-0.3730,-0.1030,11.963,-0.061,8.118,-98.877,60.309,-160.911
14232,-0.8804,-0.4185,-0.0732,15.808,-0.488,3.052,-98.729,60.375,-160.911
14242,-0.8711,-0.4746,-0.0537,13.000,-1.099,-2.869,-98.553,60.359,-160.878
14252,-0.8584,-0.4990,-0.0508,3.845,-2.136,-5.615,-98.438,60.304,-160.823
14262,-0.8545,-0.5435,-0.0518,-5.920,-1.953,-4.822,-98.421,60.227,-160.768
14272,-0.8721,-0.5693,-0.0527,-14.404,-0.854,-2.808,-98.509,60.167,-160.741
14282,-0.8716,-0.5513,-0.0693,-19.470,0.549,-0.732,-98.696,60.134,-160.752
14292,-0.8701,-0.4985,-0.0820,-17.883,2.258,1.465,-98.921,60.145,-160.801
14302,-0.8745,-0.4404,-0.0913,-9.399,3.540,2.319,-99.108,60.189,-160.878
14312,-0.8813,-0.3916,-0.0874,2.075,4.028,1.709,-99.196,60.249,-160.966
14322,-0.8765,-0.3735,-0.0762,11.658,4.089,-0.610,-99.174,60.298,-161.043
14332,-0.8672,-0.4248,-0.0469,14.343,2.747,-4.089,-99.036,60.293,-161.087
14342,-0.8701,-0.4751,-0.0249,6.104,-1.221,-7.507,-98.877,60.233,-161.038
14352,-0.8643,-0.5054,-0.0308,-7.141,-5.615,-10.437,-98.767,60.134,-160.895
14362,-0.8594,-0.5776,-0.0239,-17.639,-7.935,-11.780,-98.712,59.985,-160.697
14372,-0.8540,-0.6226,-0.0186,-23.315,-8.057,-12.695,-98.707,59.815,-160.499
14382,-0.8398,-0.6377,-0.0322,-23.071,-5.249,-12.207,-98.756,59.634,-160.362
14392,-0.8315,-0.6460,-0.0547,-15.381,0.854,-7.996,-98.860,59.480,-160.356
14402,-0.8350,-0.5952,-0.0840,-4.272,6.592,-1.465,-99.003,59.403,-160.477
14412,-0.8550,-0.5151,-0.1006,8.362,10.010,5.615,-99.119,59.431,-160.692
14422,-0.8667,-0.4502,-0.1011,21.240,12.146,10.620,-99.174,59.540,-160.961
14432,-0.8750,-0.4097,-0.0908,27.954,11.292,11.963,-99.152,59.689,-161.213
14442,-0.8745,-0.4526,-0.0630,27.771,7.690,9.155,-99.014,59.793,-161.395
14452,-0.8682,-0.5010,-0.0337,20.264,2.197,2.930,-98.806,59.821,-161.450
14462,-0.8564,-0.5312,-0.0352,7.446,-3.113,-2.441,-98.624,59.788,-161.378
14472,-0.8491,-0.5562,-0.0430,-3.784,-5.554,-3.357,-98.520,59.733,-161.257
14482,-0.8525,-0.5347,-0.0659,-10.254,-5.310,-1.160,-98.514,59.705,-161.153
14492,-0.8618,-0.4609,-0.0913,-10.193,-3.296,2.380,-98.591,59.755,-161.093
14502,-0.8774,-0.4248,-0.1074,-3.174,0.793,5.676,-98.707,59.843,-161.125
14513,-0.8896,-0.4165,-0.1030,4.822,3.601,5.188,-98.784,59.936,-161.213
14522,-0.8828,-0.4189,-0.1006,7.874,2.808,1.038,-98.806,59.980,-161.274
14532,-0.8623,-0.4575,-0.0845,6.653,-0.488,-3.113,-98.740,59.969,-161.252
14542,-0.8574,-0.5146,-0.0615,0.916,-5.371,-5.554,-98.602,59.908,-161.131
14552,-0.8604,-0.5273,-0.0503,-7.507,-9.888,-6.714,-98.465,59.843,-160.917
14562,-0.8486,-0.5288,-0.0376,-13.489,-11.230,-5.981,-98.350,59.782,-160.675
14572,-0.8569,-0.5093,-0.0459,-16.724,-9.460,-3.052,-98.317,59.760,-160.483
14582,-0.8657,-0.5098,-0.0498,-15.442,-5.798,-0.977,-98.339,59.755,-160.362
14592,-0.8618,-0.5298,-0.0498,-10.742,-1.343,-0.854,-98.394,59.738,-160.334
14602,-0.8560,-0.5684,-0.0503,-6.958,0.793,-1.099,-98.438,59.689,-160.345
14612,-0.8545,-0.5942,-0.0518,-4.333,1.282,-0.977,-98.465,59.634,-160.367
14622,-0.8447,-0.5972,-0.0591,-2.075,1.160,0.183,-98.476,59.584,-160.395
14632,-0.8467,-0.5669,-0.0620,0.244,1.282,2.991,-98.481,59.573,-160.428
14642,-0.8579,-0.5166,-0.0693,2.625,1.099,5.981,-98.481,59.623,-160.466
14652,-0.8687,-0.4775,-0.0659,6.287,1.465,7.324,-98.454,59.705,-160.516
14662,-0.8750,-0.4346,-0.0654,8.301,0.916,6.775,-98.405,59.810,-160.554
14672,-0.8701,-0.4097,-0.0620,8.667,-0.122,5.005,-98.333,59.903,-160.565
14682,-0.8730,-0.4204,-0.0459,6.775,-1.160,2.563,-98.234,59.974,-160.549
14692,-0.8745,-0.4487,-0.0356,1.404,-2.014,-0.732,-98.146,59.996,-160.510
14702,-0.8667,-0.5068,-0.0249,-4.944,-1.038,-3.906,-98.113,59.958,-160.477
14712,-0.8604,-0.5674,-0.0234,-10.803,1.160,-5.615,-98.168,59.870,-160.483
14722,-0.8535,-0.5923,-0.0400,-14.404,3.784,-5.432,-98.322,59.766,-160.543
14732,-0.8486,-0.5850,-0.0547,-13.062,6.836,-3.052,-98.525,59.678,-160.670
14742,-0.8496,-0.5400,-0.0757,-7.812,8.850,1.343,-98.751,59.656,-160.845
14752,-0.8652,-0.4917,-0.0884,0.244,9.949,5.676,-98.943,59.700,-161.060
14762,-0.8765,-0.4331,-0.1011,8.301,10.010,7.263,-99.091,59.788,-161.274
14772,-0.8789,-0.3975,-0.1123,14.099,8.240,5.676,-99.168,59.881,-161.455
14782,-0.8706,-0.4277,-0.0977,16.968,4.700,2.075,-99.124,59.930,-161.554
14792,-0.8599,-0.4663,-0.0811,12.695,-1.160,-1.709,-98.981,59.930,-161.526
14802,-0.8501,-0.5239,-0.0718,3.845,-6.836,-4.639,-98.806,59.875,-161.378
14812,-0.8452,-0.6060,-0.0571,-5.310,-10.132,-5.920,-98.635,59.777,-161.158
14822,-0.8467,-0.6699,-0.0522,-14.954,-10.864,-4.272,-98.547,59.667,-160.933
14832,-0.8555,-0.6543,-0.0698,-20.386,-8.240,-0.854,-98.586,59.601,-160.768
14842,-0.8521,-0.5762,-0.0996,-16.296,-2.563,4.028,-98.729,59.601,-160.730
14853,-0.8647,-0.4922,-0.1094,-3.967,3.052,10.254,-98.882,59.700,-160.823
14863,-0.8906,-0.3804,-0.1074,12.024,6.958,13.489,-98.981,59.886,-160.999
14873,-0.8921,-0.2847,-0.1030,28.320,8.728,12.085,-98.992,60.106,-161.208
14882,-0.8877,-0.3174,-0.0571,39.551,8.545,8.301,-98.778,60.271,-161.406
14892,-0.8701,-0.3989,-0.0083,36.743,3.357,1.160,-98.399,60.331,-161.477
14902,-0.8594,-0.4766,0.0171,20.630,-4.395,-6.531,-97.998,60.276,-161.367
14913,-0.8584,-0.5679,0.0210,0.183,-9.399,-11.536,-97.707,60.139,-161.147
14923,-0.8604,-0.6313,0.0166,-15.564,-9.033,-12.817,-97.586,59.963,-160.933
14933,-0.8560,-0.6260,-0.0142,-24.902,-4.333,-10.254,-97.674,59.804,-160.818
14943,-0.8506,-0.5664,-0.0537,-24.658,3.479,-3.296,-97.943,59.733,-160.878
14952,-0.8569,-0.5195,-0.0718,-14.404,12.085,3.601,-98.295,59.738,-161.125
14962,-0.8623,-0.4741,-0.0928,0.000,17.395,7.202,-98.635,59.799,-161.488
14972,-0.8589,-0.4170,-0.1006,11.353,16.968,7.812,-98.877,59.886,-161.845
14982,-0.8594,-0.4487,-0.0830,18.677,12.939,6.714,-98.943,59.952,-162.120
14993,-0.8599,-0.5366,-0.0581,16.785,6.531,3.235,-98.871,59.952,-162.263
15003,-0.8564,-0.6089,-0.0513,5.615,-0.488,-0.977,-98.762,59.892,-162.246
15013,-0.8560,-0.6377,-0.0649,-7.874,-5.432,-2.441,-98.712,59.810,-162.136
15022,-0.8555,-0.5493,-0.0918,-16.602,-7.324,0.549,-98.762,59.793,-161.993
15033,-0.8608,-0.4136,-0.1279,-15.259,-6.042,6.958,-98.915,59.908,-161.895
15043,-0.8911,-0.2983,-0.1196,-3.906,-3.235,12.329,-99.058,60.134,-161.867
15052,-0.9219,-0.1445,-0.1230,9.277,-0.916,11.719,-99.300,60.436,-161.889
15062,-0.9126,-0.1533,-0.1069,21.301,1.709,5.188,-99.388,60.667,-161.938
15072,-0.8857,-0.3882,-0.0103,25.024,2.991,-5.798,-99.097,60.661,-161.977
15083,-0.8774,-0.5659,0.0229,7.446,-2.380,-19.836,-98.811,60.436,-161.867
15093,-0.8599,-0.6958,0.0024,-15.381,-6.897,-32.166,-98.668,60.035,-161.631
15103,-0.8184,-0.7822,-0.0215,-28.259,-5.798,-35.400,-98.690,59.562,-161.406
15112,-0.8032,-0.8271,-0.0449,-33.752,-2.563,-26.489,-98.855,59.150,-161.279
15123,-0.8101,-0.7280,-0.0889,-31.006,-0.122,-9.888,-99.119,58.942,-161.246
15132,-0.8237,-0.5439,-0.1250,-16.113,2.502,7.507,-99.377,58.980,-161.318
15143,-0.8521,-0.3833,-0.1138,7.263,5.676,20.081,-99.520,59.227,-161.488
15152,-0.8896,-0.3437,-0.0820,26.123,8.179,22.888,-99.498,59.529,-161.719
15162,-0.8848,-0.3745,-0.0449,34.058,7.751,15.442,-99.305,59.744,-161.922
15172,-0.8711,-0.4609,-0.0073,27.344,5.005,3.540,-99.042,59.793,-162.032
15183,-0.8613,-0.5264,-0.0273,7.812,0.916,-7.385,-98.904,59.705,-162.026
15193,-0.8540,-0.5889,-0.0728,-12.024,-2.319,-13.367,-98.926,59.535,-161.938
15203,-0.8525,-0.6235,-0.0972,-22.949,-3.601,-13.489,-99.058,59.348,-161.829
15213,-0.8521,-0.5586,-0.1304,-27.161,-4.944,-8.057,-99.267,59.244,-161.708
15223,-0.8667,-0.4673,-0.1670,-21.057,-4.822,1.099,-99.503,59.271,-161.620
15233,-0.8794,-0.4229,-0.1416,-4.395,-2.625,7.080,-99.613,59.381,-161.592
15243,-0.8794,-0.3882,-0.1064,10.498,-1.465,7.019,-99.564,59.513,-161.587
15252,-0.8682,-0.3936,-0.0791,17.151,-2.502,3.906,-99.377,59.612,-161.548
15263,-0.8555,-0.5015,-0.0342,17.395,-3.662,-1.160,-99.086,59.606,-161.472
15273,-0.8521,-0.6030,-0.0093,7.935,-6.104,-6.653,-98.806,59.502,-161.334
15283,-0.8438,-0.6538,-0.0132,-5.981,-8.179,-9.644,-98.630,59.348,-161.147
15293,-0.8364,-0.6572,-0.0288,-14.893,-7.080,-8.118,-98.580,59.205,-160.983
15303,-0.8389,-0.5972,-0.0425,-16.174,-3.967,-1.953,-98.624,59.145,-160.900
15313,-0.8506,-0.4980,-0.0625,-10.132,-0.305,6.409,-98.718,59.211,-160.917
15322,-0.8701,-0.4170,-0.0640,2.136,4.333,12.268,-98.800,59.376,-161.038
15332,-0.8784,-0.3735,-0.0522,13.550,8.057,12.024,-98.822,59.557,-161.230
15342,-0.8716,-0.3779,-0.0444,19.165,9.338,6.836,-98.784,59.678,-161.433
15352,-0.8604,-0.4478,-0.0342,16.968,8.728,-0.671,-98.718,59.683,-161.598
15363,-0.8589,-0.5308,-0.0439,6.958,5.859,-7.324,-98.685,59.590,-161.691
15373,-0.8550,-0.5942,-0.0640,-5.127,2.869,-10.986,-98.734,59.431,-161.713
15383,-0.8442,-0.6284,-0.0894,-13.733,0.610,-10.681,-98.844,59.266,-161.697
15393,-0.8403,-0.6143,-0.1084,-16.602,-0.916,-6.226,-98.992,59.145,-161.658
15403,-0.8506,-0.5459,-0.1230,-14.221,-1.770,1.343,-99.141,59.134,-161.631
15413,-0.8579,-0.4912,-0.1162,-6.348,-1.465,7.996,-99.245,59.222,-161.625
15423,-0.8638,-0.4365,-0.0947,2.625,-0.671,9.949,-99.261,59.354,-161.642
15432,-0.8711,-0.3838,-0.0913,8.057,-0.427,7.935,-99.240,59.496,-161.658
15442,-0.8784,-0.4272,-0.0674,12.085,0.793,3.296,-99.141,59.568,-161.686
15453,-0.8730,-0.4922,-0.0459,10.925,1.343,-3.235,-99.003,59.546,-161.702
15463,-0.8516,-0.5625,-0.0444,4.211,0.854,-8.057,-98.910,59.436,-161.697
15473,-0.8418,-0.6021,-0.0493,-2.930,0.549,-8.606,-98.888,59.299,-161.680
15483,-0.8384,-0.6040,-0.0547,-7.507,0.183,-5.615,-98.910,59.189,-161.664
15493,-0.8438,-0.5527,-0.0620,-7.629,0.549,-0.183,-98.970,59.161,-161.675
15503,-0.8501,-0.4951,-0.0679,-4.150,1.038,5.188,-99.031,59.216,-161.713
15513,-0.8618,-0.4614,-0.0503,1.282,1.709,7.446,-99.036,59.310,-161.768
15522,-0.8691,-0.4404,-0.0493,3.784,1.831,5.615,-99.020,59.398,-161.818
15533,-0.8691,-0.4663,-0.0459,4.333,2.808,1.404,-98.992,59.431,-161.878
15543,-0.8638,-0.5366,-0.0493,2.502,4.333,-3.174,-98.992,59.381,-161.955
15553,-0.8530,-0.5977,-0.0630,-1.282,5.859,-5.859,-99.058,59.271,-162.048
15563,-0.8379,-0.6260,-0.0825,-3.662,7.202,-4.944,-99.185,59.145,-162.175
15573,-0.8340,-0.6172,-0.0981,-3.357,7.812,-0.427,-99.344,59.068,-162.323
15583,-0.8481,-0.5229,-0.1211,-1.648,6.042,5.615,-99.509,59.101,-162.455
15593,-0.8604,-0.4341,-0.1206,2.991,2.808,11.108,-99.613,59.238,-162.543
15603,-0.8809,-0.3555,-0.1079,7.385,-0.732,12.451,-99.635,59.442,-162.570
15613,-0.8911,-0.2969,-0.1035,8.728,-4.578,8.301,-99.597,59.639,-162.510
15623,-0.8901,-0.3345,-0.0767,9.216,-5.798,0.488,-99.443,59.749,-162.400
15633,-0.8774,-0.4600,-0.0317,5.005,-3.662,-8.301,-99.250,59.700,-162.301
15643,-0.8604,-0.5952,0.0015,-5.249,2.563,-14.893,-99.212,59.507,-162.301
15653,-0.8403,-0.7104,0.0166,-13.977,16.602,-17.029,-99.476,59.216,-162.570
15663,-0.8262,-0.7358,-0.0068,-19.409,33.936,-13.733,-100.096,58.920,-163.180
15673,-0.8027,-0.6577,-0.0693,-20.569,45.166,-5.066,-100.975,58.705,-164.026
15683,-0.8174,-0.5347,-0.1318,-15.869,44.556,8.667,-101.898,58.678,-164.899
15693,-0.8511,-0.4434,-0.1494,-1.892,37.048,19.653,-102.640,58.821,-165.674
15703,-0.8774,-0.3613,-0.1406,15.503,27.344,23.193,-103.096,59.057,-166.289
15713,-0.8828,-0.3618,-0.1069,27.527,18.188,20.325,-103.222,59.293,-166.723
15723,-0.8745,-0.4116,-0.0825,26.245,9.033,13.367,-103.145,59.453,-166.954
15733,-0.8628,-0.4692,-0.0796,14.282,0.427,4.028,-102.986,59.507,-166.981
15743,-0.8506,-0.5410,-0.0923,-0.305,-6.409,-4.578,-102.838,59.453,-166.838
15753,-0.8452,-0.6064,-0.1094,-13.306,-12.634,-8.850,-102.700,59.337,-166.558
15763,-0.8521,-0.6172,-0.1367,-21.667,-16.541,-8.301,-102.612,59.238,-166.207
15773,-0.8560,-0.5625,-0.1621,-21.118,-15.442,-4.395,-102.590,59.194,-165.894
15783,-0.8638,-0.5205,-0.1743,-11.658,-8.118,1.709,-102.640,59.211,-165.745
15793,-0.8682,-0.4658,-0.1670,1.770,-0.122,6.287,-102.717,59.282,-165.767
15803,-0.8564,-0.4023,-0.1553,12.939,3.662,7.996,-102.761,59.392,-165.872
15813,-0.8647,-0.3564,-0.1440,20.386,3.174,8.484,-102.733,59.535,-165.970
15823,-0.8745,-0.3765,-0.1274,22.400,-0.977,6.653,-102.579,59.661,-165.981
15833,-0.8745,-0.4673,-0.0903,17.395,-6.287,1.892,-102.294,59.711,-165.866
15843,-0.8638,-0.5635,-0.0713,5.737,-12.085,-4.700,-101.970,59.661,-165.613
15853,-0.8560,-0.6343,-0.0728,-6.348,-16.418,-9.521,-101.673,59.535,-165.256
15863,-0.8496,-0.6118,-0.0752,-12.390,-17.090,-9.399,-101.437,59.425,-164.888
15873,-0.8540,-0.5259,-0.1035,-12.268,-14.282,-3.357,-101.310,59.409,-164.597
15883,-0.8818,-0.4629,-0.1069,-5.066,-8.301,4.150,-101.250,59.485,-164.454
15893,-0.8877,-0.3799,-0.0962,4.333,-3.479,6.409,-101.201,59.623,-164.416
15903,-0.8789,-0.3516,-0.0859,14.160,0.183,3.235,-101.102,59.733,-164.427
