elapsed_ms,acc_x_g,acc_y_g,acc_z_g,gyro_x_dps,gyro_y_dps,gyro_z_dps,angle_x_deg,angle_y_deg,angle_z_deg
0,-0.5913,-0.5840,-0.5947,35.339,-18.494,-6.165,-144.849,40.589,153.397
10,-0.5176,-0.9004,-0.5117,39.673,-31.250,-28.076,-143.855,40.540,153.935
20,-0.5327,-0.9761,-0.4448,20.569,-49.683,-40.039,-142.839,40.562,154.742
30,-0.5840,-0.7935,-0.4346,-5.981,-62.195,-30.518,-142.130,40.792,155.561
40,-0.6299,-0.5405,-0.4614,-22.095,-61.523,-0.488,-141.905,41.276,156.061
50,-0.6636,-0.3442,-0.4648,-20.691,-49.438,34.119,-142.097,41.946,156.110
61,-0.6860,-0.2075,-0.4683,-12.634,-32.410,57.129,-142.586,42.660,155.775
70,-0.6963,-0.1353,-0.4717,4.272,-14.526,61.584,-143.124,43.270,155.226
80,-0.6895,-0.2300,-0.4531,23.743,2.625,48.035,-143.361,43.638,154.677
90,-0.6670,-0.3955,-0.4106,30.457,14.893,21.973,-143.234,43.709,154.314
100,-0.6460,-0.4863,-0.4092,18.311,20.264,-3.113,-143.015,43.544,154.177
110,-0.6436,-0.4863,-0.4502,-2.747,20.508,-15.808,-142.938,43.297,154.182
120,-0.6597,-0.4175,-0.5112,-22.339,20.630,-11.902,-143.163,43.077,154.144
130,-0.6851,-0.3247,-0.5815,-32.532,20.325,3.113,-143.696,42.962,153.940
140,-0.7202,-0.1968,-0.6250,-29.907,22.339,17.273,-144.432,42.935,153.572
150,-0.7397,-0.1001,-0.6904,-16.052,23.804,23.437,-145.168,42.913,153.122
160,-0.7334,-0.2222,-0.6992,5.859,27.283,17.456,-145.558,42.814,152.715
170,-0.7095,-0.4712,-0.6689,17.944,26.489,-1.465,-145.497,42.567,152.523
180,-0.6816,-0.6694,-0.6504,10.498,21.667,-22.949,-145.223,42.198,152.617
190,-0.6675,-0.7129,-0.6528,-9.155,10.681,-33.508,-144.992,41.847,152.902
200,-0.6514,-0.5786,-0.7007,-28.442,-1.709,-25.574,-145.036,41.655,153.199
210,-0.6436,-0.4756,-0.7300,-32.959,-8.118,-4.333,-145.305,41.644,153.309
220,-0.6626,-0.3154,-0.7222,-23.437,-10.437,13.855,-145.695,41.792,153.237
230,-0.6997,-0.1646,-0.7275,-5.554,-10.559,22.827,-146.080,42.017,153.062
240,-0.7031,-0.2065,-0.6812,19.653,-6.226,18.677,-146.168,42.198,152.902
250,-0.6777,-0.3511,-0.6128,38.330,-3.418,0.427,-145.811,42.248,152.924
260,-0.6567,-0.5166,-0.5547,39.612,-3.296,-20.325,-145.162,42.149,153.171
270,-0.6465,-0.5928,-0.5430,25.024,-7.568,-33.203,-144.509,41.990,153.600
280,-0.6401,-0.6108,-0.5586,7.629,-12.268,-32.959,-144.009,41.852,154.056
290,-0.6396,-0.5830,-0.5767,-5.493,-13.245,-21.606,-143.745,41.797,154.396
300,-0.6694,-0.4365,-0.6006,-9.827,-12.451,-6.287,-143.734,41.858,154.561
310,-0.6992,-0.2773,-0.6230,-3.052,-8.972,7.812,-143.899,42.017,154.550
320,-0.7109,-0.2798,-0.6118,15.381,-2.686,13.062,-143.937,42.160,154.429
330,-0.6904,-0.4067,-0.5479,35.767,1.953,4.517,-143.624,42.204,154.363
340,-0.6738,-0.5361,-0.4995,41.626,1.526,-10.376,-143.036,42.133,154.462
350,-0.6577,-0.6606,-0.4717,31.738,-1.953,-20.935,-142.388,41.995,154.704
360,-0.6372,-0.6729,-0.4814,13.733,-7.385,-23.010,-141.883,41.869,155.012
370,-0.6416,-0.4829,-0.5332,-12.085,-8.362,0.305,-141.916,41.935,155.078
380,-0.6797,-0.3071,-0.5601,-10.132,-4.028,15.137,-142.196,42.105,154.951
390,-0.7051,-0.2417,-0.5703,0.061,4.395,24.414,-142.537,42.286,154.655
400,-0.7080,-0.2993,-0.5513,16.907,12.085,20.447,-142.674,42.374,154.336
410,-0.6826,-0.4458,-0.5034,27.100,16.846,5.798,-142.498,42.308,154.133
420,-0.6689,-0.5601,-0.4917,18.616,16.541,-9.644,-142.224,42.116,154.105
430,-0.6592,-0.5952,-0.5215,0.244,13.428,-18.005,-142.053,41.880,154.182
440,-0.6431,-0.5815,-0.5698,-17.090,10.254,-16.174,-142.092,41.666,154.270
450,-0.6353,-0.5264,-0.6191,-27.100,8.301,-6.531,-142.333,41.523,154.270
460,-0.6528,-0.4854,-0.6509,-26.062,7.812,4.456,-142.674,41.462,154.160
470,-0.6758,-0.4487,-0.6641,-15.808,9.338,10.315,-142.987,41.440,153.973
480,-0.6919,-0.4243,-0.6621,-0.488,11.963,9.888,-143.168,41.402,153.776
490,-0.6885,-0.4521,-0.6543,15.625,15.198,5.676,-143.152,41.309,153.594
500,-0.6611,-0.5054,-0.6328,27.771,16.113,-0.427,-142.943,41.160,153.468
510,-0.6304,-0.5659,-0.6021,30.884,13.977,-3.540,-142.619,40.990,153.391
520,-0.6221,-0.5435,-0.5894,24.109,7.935,-0.549,-142.366,40.891,153.336
530,-0.6323,-0.5527,-0.5747,13.794,2.747,6.409,-142.229,40.886,153.248
540,-0.6523,-0.4878,-0.5693,3.601,-0.244,11.353,-142.240,40.957,153.127
550,-0.6528,-0.4570,-0.5718,-4.150,-0.610,13.977,-142.361,41.056,152.990
561,-0.6748,-0.3867,-0.5537,-7.263,1.282,13.489,-142.559,41.166,152.836
570,-0.6870,-0.2847,-0.5801,-7.874,2.808,12.390,-142.850,41.270,152.682
580,-0.6797,-0.3623,-0.5605,2.136,7.629,9.521,-142.976,41.314,152.518
590,-0.6724,-0.3975,-0.5547,10.376,10.132,0.671,-142.949,41.270,152.430
600,-0.6792,-0.3252,-0.5986,12.695,10.925,-5.127,-142.927,41.188,152.397
610,-0.6753,-0.3730,-0.6177,18.127,14.099,-5.188,-142.844,41.067,152.342
620,-0.6660,-0.4141,-0.6162,22.949,16.541,-6.470,-142.696,40.902,152.276
630,-0.6592,-0.3911,-0.6387,20.508,14.893,-7.202,-142.575,40.748,152.232
640,-0.6401,-0.4209,-0.6440,15.503,11.780,-5.432,-142.493,40.611,152.194
650,-0.6519,-0.4722,-0.6230,7.263,6.470,-4.761,-142.421,40.529,152.194
660,-0.6548,-0.4854,-0.6147,-3.967,0.244,-6.653,-142.410,40.479,152.260
670,-0.6470,-0.5161,-0.6143,-13.611,-3.723,-7.690,-142.454,40.446,152.369
680,-0.6299,-0.5991,-0.6147,-21.240,-5.432,-8.362,-142.509,40.397,152.501
690,-0.6377,-0.6226,-0.6060,-25.452,-6.714,-10.437,-142.575,40.342,152.666
700,-0.6523,-0.5244,-0.6274,-25.208,-6.958,-8.789,-142.707,40.331,152.809
710,-0.6514,-0.4551,-0.6450,-15.015,-2.625,-1.892,-142.850,40.331,152.853
720,-0.6753,-0.4009,-0.6328,4.211,3.174,3.357,-142.894,40.342,152.792
730,-0.6792,-0.3774,-0.6265,25.452,7.996,2.502,-142.762,40.320,152.699
740,-0.6470,-0.4136,-0.5918,45.410,11.292,-3.357,-142.366,40.226,152.650
750,-0.6074,-0.5894,-0.5371,51.758,11.108,-8.972,-141.751,40.056,152.650
760,-0.5884,-0.7036,-0.4937,36.743,5.920,-11.475,-141.180,39.880,152.721
770,-0.5874,-0.6660,-0.4995,7.446,-2.502,-7.324,-140.900,39.809,152.814
780,-0.6099,-0.5581,-0.5327,-21.484,-7.629,5.859,-141.037,39.891,152.820
790,-0.6416,-0.4248,-0.5483,-40.161,-7.812,19.958,-141.537,40.106,152.682
800,-0.6719,-0.2681,-0.5786,-48.035,-5.188,28.259,-142.306,40.380,152.435
810,-0.6968,-0.2026,-0.5967,-43.030,-0.244,27.954,-143.108,40.627,152.144
820,-0.6987,-0.2754,-0.5815,-28.503,4.639,15.991,-143.635,40.754,151.941
830,-0.6929,-0.3677,-0.5654,-13.733,7.874,-3.662,-143.822,40.721,151.919
840,-0.6738,-0.4663,-0.5850,-4.211,10.681,-21.240,-143.745,40.523,152.062
850,-0.6558,-0.5288,-0.6069,1.282,13.062,-31.006,-143.536,40.221,152.287
860,-0.6245,-0.5498,-0.6372,5.554,15.198,-30.090,-143.311,39.891,152.485
870,-0.6128,-0.5703,-0.6646,9.155,15.686,-20.569,-143.124,39.595,152.578
880,-0.6284,-0.5166,-0.6841,14.038,15.015,-8.789,-142.998,39.391,152.556
890,-0.6372,-0.4839,-0.6724,19.531,14.893,1.038,-142.899,39.260,152.430
900,-0.6099,-0.5366,-0.6343,21.790,15.015,5.676,-142.762,39.144,152.254
910,-0.5811,-0.6060,-0.5762,11.902,10.254,6.104,-142.641,39.056,152.111
920,-0.5796,-0.6128,-0.5508,-13.184,1.831,7.141,-142.718,39.045,152.023
930,-0.6040,-0.5933,-0.5674,-40.710,-5.676,9.644,-143.064,39.122,151.968
940,-0.6294,-0.5498,-0.5874,-58.167,-7.935,12.146,-143.619,39.249,151.902
950,-0.6392,-0.4058,-0.6313,-61.646,-5.981,13.184,-144.322,39.380,151.815
960,-0.6655,-0.2563,-0.6738,-49.744,-2.502,15.564,-145.052,39.529,151.666
970,-0.6895,-0.2310,-0.6895,-23.621,4.272,15.930,-145.580,39.622,151.469
980,-0.7031,-0.2383,-0.6753,6.409,11.719,8.362,-145.778,39.622,151.293
990,-0.6919,-0.2266,-0.6807,30.579,16.052,-3.601,-145.684,39.512,151.210
1000,-0.6387,-0.4043,-0.6465,46.204,19.348,-13.794,-145.245,39.282,151.221
1010,-0.6016,-0.6138,-0.6001,42.603,16.602,-21.545,-144.646,38.985,151.326
1020,-0.5981,-0.6577,-0.6021,18.921,7.019,-24.231,-144.212,38.738,151.529
1030,-0.6016,-0.5811,-0.6343,-4.822,-1.709,-18.066,-144.069,38.606,151.727
1040,-0.6079,-0.5166,-0.6562,-17.517,-4.883,-6.104,-144.157,38.584,151.826
1050,-0.6235,-0.4844,-0.6577,-17.212,-3.845,2.869,-144.322,38.622,151.826
1061,-0.6450,-0.4058,-0.6587,-9.766,-1.465,4.944,-144.487,38.672,151.787
1070,-0.6479,-0.3745,-0.6558,3.784,2.502,1.648,-144.525,38.683,151.749
1080,-0.6387,-0.4351,-0.6250,20.325,6.897,-4.150,-144.338,38.617,151.743
1090,-0.6162,-0.5103,-0.6016,27.649,9.827,-8.850,-144.003,38.480,151.760
1100,-0.6045,-0.5586,-0.5928,21.973,9.521,-8.728,-143.701,38.337,151.782
1110,-0.5840,-0.5771,-0.6074,8.423,7.324,-5.249,-143.547,38.210,151.776
1120,-0.6016,-0.5259,-0.6387,-8.789,4.761,1.465,-143.635,38.161,151.727
1130,-0.6299,-0.4146,-0.6636,-24.048,3.235,8.850,-143.987,38.194,151.611
1140,-0.6406,-0.3418,-0.6948,-31.921,3.357,13.611,-144.503,38.260,151.447
1150,-0.6499,-0.3159,-0.7017,-29.053,3.662,10.864,-144.987,38.309,151.309
1160,-0.6445,-0.3267,-0.7095,-19.958,1.465,1.892,-145.311,38.326,151.276
1170,-0.6362,-0.4473,-0.6885,-8.118,-0.122,-9.460,-145.344,38.265,151.375
1180,-0.6152,-0.5347,-0.6826,1.648,-2.258,-20.569,-145.151,38.139,151.611
1190,-0.5918,-0.5981,-0.6611,7.996,-5.493,-24.353,-144.822,38.002,151.902
1200,-0.5898,-0.6226,-0.6445,8.179,-7.568,-18.433,-144.498,37.908,152.150
1210,-0.6069,-0.5820,-0.6533,4.761,-8.118,-6.165,-144.316,37.908,152.271
1220,-0.6201,-0.5288,-0.6411,4.639,-5.859,4.883,-144.234,37.974,152.265
1230,-0.6240,-0.4214,-0.6313,5.127,-3.662,12.268,-144.267,38.090,152.166
1240,-0.6284,-0.4326,-0.6064,7.751,-1.221,15.198,-144.283,38.205,152.018
1250,-0.6353,-0.4536,-0.5767,9.033,-1.404,10.010,-144.223,38.304,151.924
1260,-0.6196,-0.4878,-0.5703,5.310,-3.296,1.099,-144.119,38.348,151.941
1270,-0.6064,-0.5112,-0.5654,0.610,-4.517,-5.615,-143.992,38.353,152.029
1280,-0.6143,-0.4849,-0.5903,-4.395,-5.737,-6.714,-143.932,38.364,152.144
1290,-0.6206,-0.4912,-0.6045,-3.967,-2.747,-2.991,-143.910,38.370,152.194
1300,-0.6343,-0.4360,-0.6240,-0.061,2.075,1.099,-143.937,38.375,152.166
1310,-0.6436,-0.3296,-0.6582,4.761,6.653,5.371,-144.047,38.381,152.062
1320,-0.6304,-0.3667,-0.6616,13.916,12.512,6.836,-144.080,38.337,151.897
1330,-0.6094,-0.5112,-0.6406,18.677,14.221,0.916,-143.943,38.210,151.782
1340,-0.6138,-0.5332,-0.6323,10.193,8.911,-7.019,-143.795,38.079,151.787
1350,-0.6050,-0.4883,-0.6680,-3.357,1.709,-8.057,-143.789,38.002,151.859
1360,-0.6011,-0.5654,-0.6357,-10.376,-2.136,-3.662,-143.806,37.969,151.913
1370,-0.6299,-0.4634,-0.6450,-19.348,-7.385,0.671,-143.970,38.035,151.957
1380,-0.6396,-0.3486,-0.6831,-21.851,-9.399,6.409,-144.272,38.167,151.963
1390,-0.6431,-0.4277,-0.6719,-10.376,-5.310,6.409,-144.426,38.254,151.935
1400,-0.6592,-0.3569,-0.6943,1.587,-1.953,-2.869,-144.465,38.271,151.979
1410,-0.6211,-0.3628,-0.7187,14.893,1.465,-9.460,-144.355,38.199,152.067
1420,-0.5952,-0.5322,-0.6729,26.245,4.272,-11.414,-144.014,38.068,152.155
1430,-0.5957,-0.5557,-0.6709,20.447,-0.793,-12.817,-143.690,37.958,152.292
1440,-0.5718,-0.5957,-0.6489,10.071,-6.653,-9.766,-143.437,37.908,152.441
1450,-0.5972,-0.6338,-0.6074,-6.470,-12.451,-1.099,-143.339,37.963,152.551
1460,-0.6475,-0.5034,-0.6211,-25.208,-17.883,5.615,-143.520,38.150,152.628
1470,-0.6548,-0.4019,-0.6284,-28.687,-17.700,9.521,-143.822,38.375,152.661
1480,-0.6587,-0.4023,-0.6128,-18.188,-13.794,8.545,-144.020,38.573,152.677
1490,-0.6602,-0.3682,-0.6289,-3.113,-9.583,0.183,-144.064,38.688,152.748
1500,-0.6343,-0.3672,-0.6377,18.188,-4.272,-10.132,-143.855,38.683,152.886
1510,-0.5986,-0.5244,-0.6011,39.307,1.709,-15.930,-143.322,38.557,153.040
1520,-0.6050,-0.5454,-0.5986,41.016,3.601,-15.381,-142.784,38.419,153.166
1530,-0.6104,-0.4780,-0.6250,27.771,1.404,-6.470,-142.471,38.364,153.221
1540,-0.5957,-0.5020,-0.6030,14.343,-0.610,3.540,-142.328,38.381,153.193
1550,-0.6279,-0.4385,-0.6055,-5.920,-6.653,9.521,-142.427,38.507,153.149
1561,-0.6436,-0.4443,-0.6270,-24.109,-13.000,10.254,-142.690,38.683,153.144
1570,-0.6519,-0.4854,-0.6216,-30.701,-16.052,2.258,-142.927,38.831,153.248
1580,-0.6519,-0.4531,-0.6475,-28.259,-17.151,-9.521,-143.086,38.919,153.479
1590,-0.6553,-0.4419,-0.6636,-13.916,-14.954,-15.930,-143.080,38.947,153.754
1600,-0.6450,-0.4609,-0.6528,10.376,-10.620,-18.555,-142.822,38.919,154.028
1610,-0.6104,-0.5039,-0.6113,36.987,-6.775,-18.738,-142.284,38.848,154.276
1620,-0.5903,-0.5981,-0.5479,55.664,-5.005,-15.930,-141.509,38.765,154.473
1630,-0.5986,-0.6338,-0.5142,58.411,-5.249,-11.902,-140.707,38.705,154.638
1640,-0.5923,-0.6572,-0.4927,48.706,-5.310,-5.859,-140.021,38.683,154.737
1650,-0.5879,-0.6660,-0.4663,29.480,-5.371,3.723,-139.576,38.716,154.742
1660,-0.5874,-0.5791,-0.4634,0.732,-8.667,14.771,-139.504,38.875,154.671
1670,-0.6187,-0.3706,-0.4907,-28.137,-13.367,26.794,-139.911,39.210,154.523
1680,-0.6694,-0.2749,-0.5195,-42.847,-15.442,33.508,-140.581,39.639,154.319
1690,-0.6934,-0.3062,-0.5181,-36.926,-13.672,23.743,-141.119,39.985,154.193
1700,-0.7041,-0.2646,-0.5356,-19.714,-8.850,1.587,-141.400,40.161,154.254
1710,-0.7046,-0.3237,-0.6123,3.113,1.770,-18.005,-141.372,40.089,154.418
1720,-0.6714,-0.5303,-0.6289,30.457,17.334,-33.447,-140.927,39.738,154.622
1730,-0.6060,-0.6147,-0.6504,42.603,28.198,-38.147,-140.361,39.227,154.775
1740,-0.5781,-0.6460,-0.6860,34.729,30.457,-25.208,-139.982,38.760,154.775
1750,-0.5742,-0.6782,-0.6958,18.188,24.841,-5.127,-139.856,38.458,154.622
1760,-0.5967,-0.6128,-0.6895,-3.967,13.123,12.634,-140.021,38.381,154.391
1770,-0.6343,-0.4487,-0.6992,-24.414,0.061,22.644,-140.477,38.518,154.166
1780,-0.6582,-0.3618,-0.6963,-30.273,-11.414,21.423,-140.966,38.754,154.050
1790,-0.6587,-0.3770,-0.6616,-21.118,-19.409,7.874,-141.224,38.974,154.127
1800,-0.6631,-0.3921,-0.6509,-6.042,-23.926,-11.353,-141.169,39.106,154.435
1810,-0.6177,-0.5361,-0.6084,15.503,-23.987,-29.175,-140.685,39.095,154.918
1820,-0.5977,-0.6606,-0.5376,31.372,-22.705,-37.476,-139.911,38.990,155.479
1830,-0.5942,-0.7075,-0.5093,32.043,-19.836,-30.823,-139.158,38.897,155.945
1840,-0.5913,-0.6758,-0.4907,26.428,-13.000,-14.404,-138.609,38.870,156.198
1850,-0.5986,-0.5986,-0.4868,13.245,-5.859,6.836,-138.395,38.947,156.182
1860,-0.6074,-0.5195,-0.4819,-4.578,1.038,25.879,-138.543,39.122,155.923
1870,-0.6450,-0.4194,-0.4976,-21.240,3.662,35.217,-138.999,39.386,155.550
1880,-0.6680,-0.3872,-0.5161,-27.039,3.296,30.212,-139.510,39.622,155.226
1890,-0.6650,-0.4521,-0.5171,-21.057,3.235,12.207,-139.807,39.721,155.078
1900,-0.6826,-0.4805,-0.5459,-11.414,3.967,-7.996,-139.878,39.672,155.127
1914,-0.7007,-0.4214,-0.6177,1.221,6.531,-20.142,-139.834,39.529,155.270
1920,-0.6377,-0.4658,-0.6543,23.621,13.916,-22.644,-139.581,39.271,155.380
1930,-0.5879,-0.5303,-0.6328,42.786,19.287,-17.456,-139.153,38.974,155.391
1940,-0.5972,-0.5059,-0.6284,42.847,17.517,-5.859,-138.807,38.782,155.297
1950,-0.5903,-0.5181,-0.5859,31.616,13.489,6.104,-138.598,38.705,155.127
1960,-0.5923,-0.5396,-0.5464,8.850,6.409,13.611,-138.593,38.732,154.940
1970,-0.6167,-0.5771,-0.5278,-22.156,-3.418,15.625,-138.823,38.859,154.819
1980,-0.6343,-0.4956,-0.5552,-46.448,-12.146,8.606,-139.268,39.018,154.841
1990,-0.6587,-0.4565,-0.6099,-51.514,-14.587,0.000,-139.741,39.150,154.962
2000,-0.7085,-0.4570,-0.6577,-34.729,-9.338,-9.155,-140.032,39.183,155.132
2010,-0.7031,-0.4297,-0.7124,-2.197,0.000,-19.592,-140.021,39.067,155.325
2020,-0.6206,-0.4980,-0.6909,35.767,10.742,-23.193,-139.620,38.809,155.462
2030,-0.5918,-0.5288,-0.6519,56.091,13.977,-15.503,-139.059,38.568,155.500
2040,-0.5762,-0.5571,-0.6030,54.688,10.864,-3.235,-138.538,38.430,155.440
2050,-0.5703,-0.5908,-0.5586,37.659,6.042,8.118,-138.192,38.408,155.308
2061,-0.5913,-0.6196,-0.5410,6.592,-2.686,15.320,-138.131,38.502,155.187
2070,-0.6304,-0.5928,-0.5513,-25.391,-11.414,14.038,-138.351,38.672,155.149
2080,-0.6499,-0.5200,-0.5825,-44.250,-16.296,6.042,-138.741,38.842,155.231
2090,-0.6626,-0.4873,-0.6187,-43.335,-15.015,-2.563,-139.103,38.952,155.385
2100,-0.6621,-0.4771,-0.6401,-26.489,-10.498,-10.254,-139.290,38.969,155.572
2110,-0.6431,-0.4321,-0.6406,-2.441,-5.676,-13.611,-139.268,38.930,155.753
2120,-0.6050,-0.5049,-0.5845,19.226,-1.526,-8.545,-139.021,38.881,155.847
2130,-0.6147,-0.5083,-0.5410,25.574,-1.160,-1.038,-138.730,38.892,155.869
2140,-0.6055,-0.5034,-0.5205,18.372,-2.075,5.005,-138.543,38.947,155.836
2150,-0.6084,-0.5024,-0.5093,4.761,-2.625,9.277,-138.505,39.045,155.770
2160,-0.6260,-0.4951,-0.5176,-14.587,-5.615,10.498,-138.658,39.172,155.715
2170,-0.6475,-0.4805,-0.5444,-32.715,-8.545,7.446,-138.983,39.315,155.720
2180,-0.6650,-0.5132,-0.5879,-42.053,-9.460,0.122,-139.345,39.397,155.797
2190,-0.6777,-0.5640,-0.6182,-35.217,-5.615,-11.780,-139.576,39.359,155.962
2200,-0.6655,-0.5225,-0.6528,-17.639,0.244,-20.447,-139.642,39.216,156.160
2210,-0.6357,-0.5381,-0.6577,4.272,6.470,-17.578,-139.537,39.029,156.281
2220,-0.5957,-0.5825,-0.6245,23.621,8.911,-9.094,-139.268,38.864,156.292
2230,-0.5767,-0.5586,-0.5835,30.884,5.249,0.549,-138.966,38.793,156.242
2240,-0.5894,-0.5420,-0.5537,25.208,-0.183,10.681,-138.746,38.848,156.143
2250,-0.6138,-0.5933,-0.5396,12.573,-4.272,15.503,-138.625,38.969,156.028
2260,-0.6406,-0.6504,-0.5337,-2.441,-6.653,10.742,-138.587,39.073,155.978
2270,-0.6729,-0.4976,-0.5898,-16.113,-7.751,2.014,-138.730,39.161,156.028
2280,-0.6802,-0.3755,-0.6641,-13.733,-4.822,-1.465,-138.950,39.216,156.083
2290,-0.6602,-0.4497,-0.6626,9.583,2.747,-5.188,-138.906,39.166,156.110
2300,-0.6299,-0.5151,-0.6001,31.616,5.920,-10.742,-138.565,39.045,156.165
2310,-0.6084,-0.4326,-0.5991,36.743,2.502,-9.033,-138.214,38.969,156.231
2320,-0.5835,-0.5049,-0.5166,35.461,-1.038,-0.671,-137.829,38.974,156.248
2330,-0.5918,-0.5669,-0.4487,20.691,-7.263,5.310,-137.521,39.067,156.259
2340,-0.6001,-0.5283,-0.4497,-6.470,-15.442,7.996,-137.477,39.249,156.313
2350,-0.6357,-0.5063,-0.4717,-29.480,-18.982,9.277,-137.675,39.485,156.390
2360,-0.6890,-0.5254,-0.5249,-40.100,-16.296,5.859,-137.994,39.677,156.478
2370,-0.7144,-0.5552,-0.5933,-33.386,-5.920,-4.639,-138.252,39.705,156.577
2380,-0.6978,-0.5732,-0.6377,-12.451,8.362,-15.747,-138.318,39.534,156.654
2391,-0.6436,-0.5552,-0.6670,10.925,19.836,-16.479,-138.241,39.249,156.643
2401,-0.5937,-0.6128,-0.6670,27.161,23.621,-6.348,-138.049,38.974,156.500
2411,-0.5957,-0.5557,-0.6201,32.471,17.090,4.456,-137.845,38.842,156.313
2420,-0.5962,-0.4771,-0.5962,27.710,6.104,13.794,-137.725,38.881,156.127
2430,-0.6118,-0.5015,-0.5552,19.714,-2.197,18.127,-137.626,39.023,155.973
2440,-0.6343,-0.4824,-0.5371,7.568,-9.949,12.939,-137.576,39.205,155.940
2450,-0.6553,-0.4375,-0.5532,-3.662,-12.756,2.930,-137.604,39.353,156.022
2460,-0.6787,-0.3696,-0.6089,-8.423,-10.071,-5.432,-137.708,39.435,156.160
2471,-0.6567,-0.4551,-0.6338,-0.671,-2.747,-11.963,-137.697,39.380,156.302
2480,-0.6245,-0.5972,-0.5894,9.766,3.235,-17.578,-137.477,39.210,156.440
2490,-0.6113,-0.6235,-0.5757,8.606,2.686,-17.456,-137.258,39.040,156.583
2501,-0.6074,-0.6040,-0.5596,3.723,1.465,-8.911,-137.131,38.947,156.654
2511,-0.6001,-0.6455,-0.4990,-1.038,0.671,2.319,-137.065,38.930,156.627
2520,-0.6089,-0.5581,-0.4727,-11.414,-2.747,11.230,-137.159,39.034,156.544
2530,-0.6201,-0.4897,-0.4849,-18.616,-4.333,15.625,-137.390,39.199,156.434
2540,-0.6484,-0.4170,-0.5020,-15.503,-2.502,12.756,-137.631,39.359,156.335
2551,-0.6631,-0.4204,-0.5298,-4.700,1.709,4.700,-137.758,39.430,156.275
2561,-0.6445,-0.5420,-0.5381,10.376,8.179,-4.883,-137.637,39.348,156.253
2571,-0.6284,-0.6338,-0.5435,19.165,11.230,-11.169,-137.373,39.166,156.259
2580,-0.6143,-0.6753,-0.5674,16.968,10.742,-8.484,-137.142,38.985,156.248
2591,-0.6265,-0.6372,-0.5854,8.667,7.874,0.427,-137.054,38.903,156.176
2601,-0.6201,-0.5518,-0.6040,-2.197,2.991,10.437,-137.159,38.930,156.050
2611,-0.6304,-0.4673,-0.6104,-9.155,-1.282,16.968,-137.395,39.062,155.901
2621,-0.6533,-0.3584,-0.6270,-9.338,-4.272,15.564,-137.686,39.227,155.792
2631,-0.6567,-0.3154,-0.6436,-2.014,-5.310,9.338,-137.895,39.359,155.748
2641,-0.6353,-0.4526,-0.6182,8.911,-3.784,-0.305,-137.845,39.391,155.786
2651,-0.6221,-0.5630,-0.5894,14.160,-4.333,-13.428,-137.582,39.315,155.951
2661,-0.6040,-0.6411,-0.5635,10.620,-5.554,-20.203,-137.263,39.177,156.193
2671,-0.5952,-0.7134,-0.5137,0.549,-4.272,-14.221,-137.038,39.062,156.363
2680,-0.6152,-0.7168,-0.4961,-15.869,-2.380,-1.343,-137.049,39.034,156.396
2691,-0.6431,-0.5918,-0.5068,-27.710,0.244,10.681,-137.324,39.106,156.297
2701,-0.6660,-0.3975,-0.5396,-26.062,3.418,17.883,-137.769,39.260,156.094
2711,-0.6836,-0.2832,-0.5615,-6.897,8.667,17.517,-138.142,39.391,155.852
2721,-0.6699,-0.2886,-0.5659,21.729,13.367,7.629,-138.192,39.419,155.665
2730,-0.6377,-0.4482,-0.5542,42.664,16.113,-4.761,-137.856,39.293,155.572
2741,-0.6079,-0.6328,-0.5254,43.396,13.977,-13.611,-137.340,39.073,155.577
2751,-0.5811,-0.7065,-0.5342,24.902,7.812,-15.808,-136.939,38.848,155.660
2761,-0.5879,-0.7129,-0.5757,-1.648,1.648,-8.179,-136.840,38.721,155.726
2771,-0.6064,-0.7002,-0.5952,-24.475,-0.488,3.418,-137.032,38.694,155.698
2781,-0.6455,-0.5527,-0.6528,-40.039,-1.221,12.512,-137.521,38.771,155.588
2791,-0.6724,-0.3760,-0.7178,-37.354,-0.305,16.357,-138.137,38.892,155.435
2801,-0.6831,-0.3013,-0.7256,-11.841,3.052,12.146,-138.532,38.969,155.297
2811,-0.6396,-0.3555,-0.6870,20.935,4.333,0.427,-138.494,38.947,155.253
2821,-0.5937,-0.5664,-0.5869,40.588,0.793,-9.888,-138.010,38.848,155.341
2831,-0.5879,-0.6533,-0.5337,32.471,-9.399,-13.184,-137.477,38.793,155.550
2841,-0.5918,-0.6846,-0.4937,11.658,-18.677,-8.850,-137.093,38.831,155.792
2851,-0.6104,-0.6206,-0.4800,-12.085,-22.217,1.038,-137.000,38.990,155.978
2861,-0.6421,-0.5718,-0.4897,-27.832,-18.555,10.193,-137.170,39.205,156.044
2871,-0.6792,-0.4922,-0.5127,-28.809,-11.108,11.963,-137.455,39.413,156.028
2881,-0.6807,-0.4316,-0.5381,-12.207,-0.610,6.653,-137.653,39.512,155.973
2891,-0.6445,-0.4937,-0.5122,12.451,9.644,0.793,-137.571,39.474,155.880
2901,-0.6357,-0.5337,-0.5068,24.719,14.404,-1.221,-137.357,39.375,155.764
2911,-0.6177,-0.5044,-0.5239,23.010,13.123,0.244,-137.192,39.293,155.649
2921,-0.6050,-0.5176,-0.5259,13.733,10.193,5.310,-137.126,39.254,155.506
2931,-0.6265,-0.4927,-0.5405,-2.625,4.211,9.644,-137.236,39.304,155.380
2941,-0.6455,-0.4639,-0.5625,-19.836,-1.709,10.620,-137.521,39.408,155.292
2951,-0.6650,-0.4722,-0.5884,-29.846,-4.883,7.080,-137.867,39.512,155.270
2961,-0.6729,-0.4907,-0.6157,-28.687,-5.188,-2.136,-138.148,39.545,155.336
2971,-0.6621,-0.5176,-0.6436,-16.174,-1.770,-12.329,-138.252,39.468,155.468
2981,-0.6284,-0.5859,-0.6445,2.930,3.479,-17.578,-138.131,39.293,155.610
2991,-0.6045,-0.6240,-0.6294,17.212,7.385,-15.198,-137.878,39.084,155.693
3001,-0.6021,-0.5996,-0.6318,19.653,6.958,-4.944,-137.675,38.958,155.682
3011,-0.6162,-0.5742,-0.6079,15.442,4.395,5.920,-137.571,38.941,155.583
3021,-0.6421,-0.4609,-0.6021,6.531,0.732,11.353,-137.631,39.023,155.473
3031,-0.6514,-0.4395,-0.5972,-1.526,-2.991,12.695,-137.763,39.150,155.374
3041,-0.6353,-0.5205,-0.5576,-5.798,-6.165,6.287,-137.818,39.243,155.369
3051,-0.6372,-0.4907,-0.5728,-10.437,-10.132,-4.272,-137.856,39.298,155.500
3061,-0.6338,-0.4951,-0.5981,-5.249,-10.986,-11.902,-137.802,39.304,155.709
3071,-0.6113,-0.5928,-0.5684,9.644,-7.324,-14.587,-137.538,39.232,155.912
3081,-0.6289,-0.5854,-0.5713,17.334,-4.700,-11.353,-137.241,39.172,156.061
3091,-0.6309,-0.5347,-0.5757,20.935,-1.404,-3.784,-137.005,39.155,156.110
3101,-0.6157,-0.5488,-0.5283,19.531,1.282,5.066,-136.818,39.177,156.050
3111,-0.6182,-0.5415,-0.5029,5.188,-0.427,11.108,-136.785,39.265,155.945
3121,-0.6094,-0.5625,-0.4668,-13.489,-4.395,11.902,-136.895,39.380,155.874
3131,-0.6445,-0.5503,-0.4683,-31.799,-8.545,9.460,-137.153,39.529,155.863
3141,-0.6519,-0.5254,-0.5039,-38.818,-8.606,3.479,-137.477,39.639,155.901
3151,-0.6587,-0.4761,-0.5518,-30.457,-3.845,-1.953,-137.763,39.677,155.956
3161,-0.6777,-0.4458,-0.6055,-9.766,3.601,-5.371,-137.906,39.639,155.978
3171,-0.6455,-0.4922,-0.6118,20.325,13.184,-9.216,-137.752,39.479,155.951
3181,-0.6313,-0.5405,-0.5981,41.199,18.921,-8.423,-137.401,39.271,155.869
3191,-0.5869,-0.6035,-0.5586,41.992,18.188,-2.563,-137.021,39.084,155.731
3201,-0.5864,-0.5977,-0.5273,22.034,11.414,7.385,-136.857,39.023,155.561
3211,-0.6177,-0.5464,-0.5352,-10.498,0.610,16.052,-137.032,39.128,155.407
3221,-0.6396,-0.4839,-0.5649,-37.598,-8.667,17.273,-137.483,39.320,155.319
3231,-0.6543,-0.4375,-0.5923,-46.814,-12.512,9.521,-137.994,39.501,155.336
3241,-0.6934,-0.4058,-0.6538,-39.551,-10.376,-1.221,-138.422,39.595,155.440
3251,-0.6782,-0.4731,-0.6641,-11.841,-1.404,-13.062,-138.516,39.518,155.577
3261,-0.6304,-0.5679,-0.6226,18.860,8.911,-19.897,-138.246,39.298,155.693
3271,-0.6035,-0.6323,-0.5942,34.363,15.076,-15.625,-137.840,39.040,155.715
3281,-0.6055,-0.6289,-0.5703,33.813,15.869,-4.700,-137.510,38.853,155.621
3291,-0.6079,-0.5835,-0.5532,21.729,12.451,6.714,-137.362,38.793,155.451
3301,-0.6147,-0.5684,-0.5234,3.479,6.775,15.137,-137.401,38.842,155.248
3311,-0.6372,-0.4736,-0.5381,-16.907,-1.892,16.479,-137.670,38.990,155.110
3321,-0.6436,-0.4194,-0.5537,-27.466,-7.812,11.536,-138.021,39.166,155.067
3331,-0.6597,-0.4131,-0.5874,-24.597,-9.705,2.319,-138.290,39.287,155.132
3341,-0.6611,-0.4521,-0.6191,-9.155,-7.751,-9.216,-138.340,39.298,155.286
3351,-0.6328,-0.5068,-0.6284,13.489,-3.540,-18.494,-138.104,39.188,155.495
3361,-0.6182,-0.5576,-0.6113,32.715,0.183,-18.982,-137.664,39.040,155.676
3371,-0.6133,-0.6509,-0.5664,38.025,1.526,-10.559,-137.164,38.919,155.764
3381,-0.6147,-0.6611,-0.5254,27.527,0.427,-0.610,-136.807,38.886,155.764
3391,-0.6035,-0.6348,-0.5020,8.179,-1.770,7.019,-136.670,38.925,155.715
3401,-0.6206,-0.5444,-0.5049,-13.733,-5.371,12.573,-136.813,39.056,155.643
3411,-0.6475,-0.4248,-0.5332,-28.381,-8.972,13.794,-137.170,39.260,155.594
3421,-0.6670,-0.3921,-0.5562,-26.123,-8.911,8.118,-137.505,39.430,155.594
3431,-0.6724,-0.4004,-0.5806,-11.108,-4.822,-1.953,-137.653,39.496,155.654
3441,-0.6333,-0.5103,-0.5767,8.911,1.831,-10.925,-137.521,39.408,155.748
3451,-0.6118,-0.6201,-0.5591,19.226,7.141,-12.695,-137.236,39.243,155.803
3461,-0.6108,-0.6177,-0.5576,15.503,8.423,-7.690,-137.032,39.100,155.803
3471,-0.6167,-0.5874,-0.5693,6.287,7.812,0.916,-136.989,39.029,155.726
3481,-0.6353,-0.5425,-0.5786,-4.028,6.042,7.507,-137.104,39.029,155.599
3491,-0.6406,-0.5039,-0.5859,-10.376,3.418,8.301,-137.296,39.067,155.495
3501,-0.6523,-0.4692,-0.6025,-9.705,0.366,4.272,-137.466,39.111,155.451
3511,-0.6538,-0.4756,-0.6187,-0.488,-0.549,-2.625,-137.505,39.106,155.479
3521,-0.6279,-0.5503,-0.5962,13.855,0.549,-8.362,-137.318,39.029,155.555
3531,-0.6016,-0.6060,-0.5601,19.470,0.061,-8.057,-137.032,38.947,155.632
3541,-0.6133,-0.5791,-0.5576,12.024,-2.869,-1.648,-136.857,38.941,155.671
3551,-0.6152,-0.5684,-0.5415,2.502,-4.089,4.700,-136.807,38.990,155.665
3561,-0.6338,-0.5381,-0.5337,-7.935,-4.272,7.507,-136.884,39.084,155.632
3571,-0.6641,-0.4355,-0.5635,-15.076,-3.662,5.798,-137.104,39.188,155.605
3581,-0.6631,-0.4092,-0.5776,-10.559,-0.793,1.587,-137.285,39.243,155.599
3591,-0.6367,-0.4971,-0.5571,0.122,3.113,-3.357,-137.291,39.210,155.605
3601,-0.6187,-0.5610,-0.5615,5.737,4.089,-8.240,-137.186,39.111,155.649
3611,-0.6123,-0.5859,-0.5815,8.057,4.517,-8.972,-137.054,38.996,155.693
3621,-0.6206,-0.5762,-0.5977,9.277,5.188,-5.981,-136.945,38.897,155.704
3631,-0.6313,-0.5737,-0.6089,9.766,4.639,-2.075,-136.862,38.831,155.682
3641,-0.6255,-0.5884,-0.6016,9.094,3.723,0.977,-136.785,38.787,155.638
3651,-0.6250,-0.5513,-0.5923,3.845,0.671,3.235,-136.769,38.793,155.605
3661,-0.6265,-0.5171,-0.5737,-3.906,-4.578,5.615,-136.829,38.870,155.588
3671,-0.6401,-0.5249,-0.5396,-10.498,-8.240,6.836,-136.917,38.990,155.599
3681,-0.6440,-0.4570,-0.5415,-15.320,-10.742,3.845,-137.060,39.122,155.660
3691,-0.6348,-0.4834,-0.5474,-11.963,-8.484,1.038,-137.153,39.210,155.720
3701,-0.6367,-0.5361,-0.5635,-0.854,-2.869,-4.333,-137.115,39.205,155.786
3711,-0.6172,-0.5698,-0.5903,17.212,3.967,-11.169,-136.890,39.078,155.858
3721,-0.5933,-0.6567,-0.5610,34.058,9.338,-9.644,-136.483,38.897,155.869
3731,-0.6255,-0.6182,-0.5732,32.227,8.911,0.427,-136.176,38.815,155.786
3741,-0.6323,-0.5649,-0.5732,20.752,5.188,10.132,-136.049,38.842,155.643
3751,-0.6377,-0.5503,-0.5605,5.859,0.488,15.686,-136.082,38.947,155.495
3761,-0.6445,-0.5361,-0.5645,-9.094,-6.348,14.099,-136.219,39.095,155.424
3771,-0.6401,-0.5107,-0.5684,-16.418,-11.169,7.446,-136.384,39.238,155.451
3781,-0.6431,-0.5073,-0.5776,-14.404,-12.268,1.587,-136.489,39.342,155.544
3791,-0.6499,-0.4873,-0.5903,-3.357,-9.033,-2.869,-136.494,39.397,155.654
3801,-0.6157,-0.5171,-0.5625,16.052,-2.258,-6.592,-136.296,39.364,155.737
3811,-0.6089,-0.5562,-0.5166,29.907,3.296,-5.005,-135.956,39.298,155.753
3821,-0.6011,-0.5923,-0.4839,32.776,5.737,-1.221,-135.588,39.238,155.715
3831,-0.6133,-0.6025,-0.4326,25.024,5.737,4.089,-135.297,39.232,155.621
3841,-0.6299,-0.5786,-0.4292,5.920,2.747,11.047,-135.231,39.309,155.495
3851,-0.6362,-0.5889,-0.4414,-15.442,-0.244,16.724,-135.396,39.441,155.347
3861,-0.6572,-0.5195,-0.4858,-31.616,-3.479,16.785,-135.758,39.617,155.220
3871,-0.6836,-0.4111,-0.5688,-32.654,-4.089,12.756,-136.219,39.776,155.143
3881,-0.6797,-0.3970,-0.6240,-13.367,1.343,6.042,-136.511,39.836,155.072
3891,-0.6621,-0.4390,-0.6348,15.137,7.446,-2.808,-136.472,39.776,155.034
3901,-0.6265,-0.5200,-0.5977,39.185,11.719,-8.911,-136.121,39.617,155.012
3915,-0.6089,-0.5859,-0.5332,44.434,11.902,-7.446,-135.670,39.457,154.973
3921,-0.6230,-0.5562,-0.4995,30.701,8.057,-1.648,-135.363,39.391,154.918
3931,-0.6089,-0.5747,-0.4619,9.583,3.052,3.906,-135.242,39.402,154.852
3941,-0.6255,-0.5820,-0.4292,-15.198,-1.709,6.714,-135.335,39.474,154.808
3951,-0.6602,-0.5122,-0.4731,-37.292,-4.150,3.967,-135.676,39.573,154.808
3961,-0.6704,-0.5171,-0.5483,-41.626,2.014,-2.258,-136.099,39.562,154.808
3971,-0.6841,-0.5190,-0.6191,-32.166,13.000,-8.606,-136.478,39.419,154.775
3981,-0.6685,-0.4810,-0.6963,-13.611,23.499,-13.123,-136.752,39.150,154.687
3991,-0.6079,-0.5181,-0.7280,7.263,30.029,-12.634,-136.851,38.798,154.539
4001,-0.6104,-0.5522,-0.7148,16.907,26.611,-7.690,-136.840,38.507,154.380
4011,-0.5820,-0.6162,-0.6807,15.381,15.625,-4.333,-136.758,38.298,154.281
4021,-0.5547,-0.7095,-0.5957,4.883,2.869,-1.221,-136.648,38.199,154.270
4031,-0.5825,-0.6880,-0.5552,-16.724,-12.207,3.052,-136.692,38.260,154.347
4041,-0.6069,-0.5947,-0.5239,-33.752,-22.339,7.141,-136.890,38.458,154.479
4051,-0.6387,-0.4697,-0.5098,-36.194,-24.597,9.399,-137.175,38.743,154.605
4062,-0.6855,-0.3491,-0.5239,-22.034,-19.409,6.531,-137.417,39.012,154.709
4071,-0.7148,-0.2822,-0.5532,5.920,-7.080,-1.160,-137.472,39.161,154.786
4081,-0.6660,-0.3862,-0.5269,38.025,8.362,-10.681,-137.137,39.089,154.814
4091,-0.6216,-0.5361,-0.5063,51.025,18.311,-15.747,-136.604,38.864,154.803
4101,-0.5840,-0.6499,-0.5078,40.955,19.592,-14.771,-136.132,38.584,154.764
4111,-0.5713,-0.6812,-0.5425,15.808,14.832,-8.240,-135.934,38.370,154.709
4121,-0.5850,-0.6465,-0.5830,-13.428,6.042,0.061,-136.060,38.282,154.655
4131,-0.6250,-0.5728,-0.6230,-35.950,-3.296,6.592,-136.450,38.331,154.627
4141,-0.6523,-0.4849,-0.6709,-41.016,-7.507,6.470,-136.928,38.430,154.633
4151,-0.6567,-0.3940,-0.6992,-27.832,-5.615,1.465,-137.318,38.491,154.666
4161,-0.6421,-0.4268,-0.6719,-3.357,-1.709,-4.517,-137.422,38.474,154.726
4171,-0.6040,-0.5205,-0.6113,17.822,-0.183,-10.132,-137.208,38.392,154.819
4181,-0.5684,-0.6387,-0.5254,27.344,-2.258,-12.146,-136.774,38.287,154.951
4191,-0.5747,-0.7290,-0.4482,22.522,-7.385,-10.010,-136.307,38.232,155.110
4201,-0.6030,-0.7041,-0.4258,8.240,-10.132,-4.395,-135.994,38.254,155.242
4211,-0.6304,-0.6128,-0.4355,-7.324,-8.362,4.211,-135.939,38.359,155.275
4221,-0.6509,-0.5361,-0.4497,-17.700,-2.808,11.475,-136.104,38.507,155.198
4231,-0.6558,-0.4390,-0.4897,-19.958,3.906,12.146,-136.412,38.622,155.050
4241,-0.6528,-0.3672,-0.5347,-11.902,11.475,7.019,-136.725,38.655,154.885
4251,-0.6353,-0.4229,-0.5576,2.319,17.395,-0.610,-136.851,38.562,154.737
4261,-0.6191,-0.4922,-0.5786,12.512,19.348,-8.423,-136.813,38.370,154.644
4271,-0.5947,-0.5498,-0.6187,15.503,18.005,-12.085,-136.703,38.134,154.600
4281,-0.5640,-0.6831,-0.6118,13.855,15.564,-9.277,-136.544,37.892,154.550
4291,-0.5908,-0.6792,-0.6313,1.282,8.423,-2.014,-136.527,37.766,154.495
4301,-0.6104,-0.6318,-0.6704,-12.024,1.709,5.920,-136.692,37.749,154.429
4311,-0.6216,-0.5620,-0.6558,-17.944,-1.892,11.475,-136.950,37.820,154.336
4321,-0.6440,-0.4609,-0.6606,-19.592,-5.554,13.245,-137.274,37.958,154.265
4331,-0.6538,-0.4038,-0.6421,-11.292,-6.836,9.888,-137.510,38.106,154.232
4341,-0.6475,-0.4028,-0.6152,2.747,-6.287,2.075,-137.554,38.194,154.265
4351,-0.6138,-0.4834,-0.5801,17.395,-4.761,-6.592,-137.346,38.194,154.369
4361,-0.5845,-0.6235,-0.5312,24.963,-2.869,-12.024,-136.945,38.112,154.506
4371,-0.5913,-0.6753,-0.5312,18.799,-2.563,-11.902,-136.588,38.013,154.638
4381,-0.6084,-0.6709,-0.5562,8.118,-1.526,-6.348,-136.395,37.947,154.709
4391,-0.6152,-0.6724,-0.5557,-1.892,0.610,1.404,-136.357,37.925,154.693
4401,-0.6216,-0.5649,-0.5757,-10.498,0.183,7.019,-136.494,37.969,154.627
4411,-0.6338,-0.4561,-0.5679,-10.254,-1.343,9.644,-136.692,38.079,154.550
4421,-0.6445,-0.3833,-0.5474,-3.723,-3.235,9.094,-136.846,38.221,154.490
4431,-0.6323,-0.3833,-0.5166,4.944,-5.371,4.333,-136.857,38.353,154.501
4441,-0.6187,-0.4336,-0.4990,9.460,-6.287,-2.075,-136.741,38.430,154.572
4451,-0.5977,-0.5488,-0.4966,7.751,-5.310,-7.935,-136.544,38.419,154.693
4461,-0.6069,-0.6328,-0.5381,0.916,-2.136,-10.864,-136.395,38.337,154.814
4471,-0.6133,-0.6992,-0.5869,-5.493,3.479,-10.315,-136.351,38.199,154.874
4481,-0.6104,-0.7007,-0.6367,-9.338,9.338,-5.676,-136.417,38.040,154.847
4491,-0.6152,-0.6318,-0.6826,-10.681,11.047,2.563,-136.604,37.930,154.726
4501,-0.6309,-0.5322,-0.7056,-7.507,8.667,10.681,-136.851,37.919,154.550
4511,-0.6357,-0.4399,-0.6802,-0.061,3.296,14.282,-137.049,37.996,154.391
4521,-0.6265,-0.4038,-0.6367,7.690,-4.456,11.841,-137.126,38.123,154.319
4531,-0.6187,-0.4316,-0.5737,13.977,-12.024,4.578,-137.005,38.265,154.380
4541,-0.6035,-0.5132,-0.5220,16.296,-16.968,-4.456,-136.714,38.375,154.572
4551,-0.6011,-0.6045,-0.4995,13.062,-17.822,-10.742,-136.357,38.419,154.825
4562,-0.6064,-0.6963,-0.5044,7.202,-13.062,-11.780,-136.044,38.403,155.050
4571,-0.6113,-0.7295,-0.5190,-1.465,-5.188,-6.531,-135.884,38.353,155.154
4581,-0.6099,-0.7007,-0.5391,-11.292,1.404,2.991,-135.939,38.326,155.116
4591,-0.6147,-0.6357,-0.5396,-19.104,3.357,13.123,-136.165,38.375,154.968
4601,-0.6357,-0.5083,-0.5605,-23.621,0.000,19.165,-136.522,38.518,154.792
4611,-0.6548,-0.4336,-0.5645,-15.503,-3.479,17.212,-136.813,38.705,154.660
4621,-0.6895,-0.3901,-0.6064,5.127,-5.066,6.348,-136.879,38.831,154.644
4631,-0.6440,-0.4854,-0.6221,39.551,-0.977,-9.583,-136.478,38.782,154.742
4641,-0.5781,-0.6938,-0.5527,68.665,4.028,-18.066,-135.637,38.573,154.880
4651,-0.5894,-0.7056,-0.5361,66.223,2.563,-11.902,-134.841,38.419,154.962
4661,-0.5747,-0.6260,-0.5264,47.363,0.244,3.662,-134.346,38.414,154.929
4671,-0.5947,-0.4624,-0.5000,18.311,-4.395,21.729,-134.291,38.622,154.775
4681,-0.6372,-0.3086,-0.4976,-19.287,-12.146,34.180,-134.742,39.040,154.578
4691,-0.6855,-0.2334,-0.4951,-50.171,-17.578,32.166,-135.516,39.512,154.451
4701,-0.6885,-0.2056,-0.5161,-59.814,-20.447,11.475,-136.285,39.853,154.528
4711,-0.6763,-0.3057,-0.5503,-44.128,-15.198,-17.822,-136.681,39.908,154.836
4721,-0.6675,-0.4849,-0.5879,-13.489,-2.441,-40.833,-136.588,39.661,155.242
4731,-0.6060,-0.7002,-0.5889,20.996,11.475,-50.354,-136.082,39.177,155.616
4741,-0.5684,-0.8159,-0.5615,41.443,19.775,-39.734,-135.434,38.666,155.808
4751,-0.5811,-0.8345,-0.5415,40.588,20.081,-15.930,-134.929,38.331,155.770
4761,-0.6147,-0.7676,-0.5249,28.992,15.076,7.080,-134.659,38.227,155.572
4771,-0.6348,-0.6768,-0.4937,13.794,9.888,21.484,-134.610,38.298,155.292
4781,-0.6479,-0.5278,-0.4858,-2.441,3.601,26.123,-134.780,38.496,155.023
4791,-0.6558,-0.4126,-0.4902,-12.634,-2.686,22.400,-135.066,38.743,154.847
4801,-0.6353,-0.3804,-0.4795,-14.709,-5.432,11.841,-135.313,38.941,154.786
4811,-0.6143,-0.3799,-0.4951,-13.733,-6.042,-0.427,-135.483,39.034,154.847
4821,-0.6006,-0.4526,-0.5195,-9.766,-3.418,-9.644,-135.538,39.012,154.968
4831,-0.5972,-0.5576,-0.5371,-4.150,2.747,-14.587,-135.494,38.881,155.078
4841,-0.5996,-0.6431,-0.5654,2.014,10.193,-16.357,-135.401,38.655,155.132
4851,-0.5986,-0.7212,-0.5796,8.057,16.724,-14.160,-135.264,38.381,155.110
4861,-0.5884,-0.7456,-0.5864,8.606,18.311,-7.141,-135.170,38.139,155.012
4871,-0.6157,-0.6509,-0.6021,3.479,13.550,3.845,-135.209,38.035,154.858
4881,-0.6475,-0.5391,-0.5869,-0.122,6.470,13.855,-135.341,38.095,154.677
4891,-0.6636,-0.4595,-0.5776,-3.479,-0.671,18.188,-135.538,38.265,154.517
4901,-0.6646,-0.4219,-0.5771,-4.822,-5.737,13.794,-135.714,38.452,154.440
4911,-0.6504,-0.4229,-0.5854,-1.709,-7.080,2.869,-135.791,38.557,154.479
4921,-0.6182,-0.5093,-0.5947,4.272,-5.005,-8.484,-135.709,38.529,154.600
4931,-0.5830,-0.6104,-0.5986,8.667,-1.648,-15.930,-135.511,38.392,154.759
4941,-0.5645,-0.7026,-0.5854,9.033,0.610,-15.320,-135.280,38.210,154.896
4951,-0.5820,-0.7021,-0.5767,2.625,1.099,-7.202,-135.165,38.101,154.951
4961,-0.6099,-0.6318,-0.5791,-7.324,0.305,4.211,-135.236,38.101,154.913
4971,-0.6406,-0.5322,-0.5713,-13.916,-0.122,13.123,-135.461,38.205,154.792
4981,-0.6616,-0.4263,-0.5728,-15.442,-0.671,15.198,-135.775,38.359,154.660
4991,-0.6665,-0.3564,-0.5762,-9.949,-1.404,9.827,-136.044,38.502,154.583
5001,-0.6372,-0.4150,-0.5610,0.916,-1.892,-0.305,-136.099,38.551,154.605
5011,-0.6016,-0.5688,-0.5249,9.521,-2.869,-10.681,-135.895,38.491,154.726
5021,-0.5830,-0.7295,-0.5063,7.141,-5.737,-16.296,-135.588,38.370,154.929
5031,-0.5928,-0.7549,-0.5244,-1.953,-6.897,-13.367,-135.385,38.265,155.110
5041,-0.6035,-0.6895,-0.5454,-9.949,-4.761,-3.906,-135.368,38.238,155.187
5051,-0.6304,-0.5762,-0.5698,-13.123,-1.709,8.484,-135.527,38.304,155.127
5062,-0.6479,-0.4893,-0.5654,-8.362,0.916,15.564,-135.736,38.430,154.979
5071,-0.6494,-0.3916,-0.5693,0.488,2.136,13.855,-135.923,38.562,154.830
5081,-0.6328,-0.3887,-0.5498,11.902,2.075,6.836,-135.939,38.639,154.748
5091,-0.5972,-0.5127,-0.4956,17.639,0.671,-1.465,-135.742,38.639,154.759
5101,-0.5986,-0.5845,-0.4854,9.033,-2.747,-7.629,-135.533,38.600,154.852
5111,-0.6045,-0.6426,-0.4961,-3.052,-4.822,-9.705,-135.406,38.546,154.984
5121,-0.6138,-0.6675,-0.5146,-14.221,-2.747,-6.165,-135.417,38.502,155.067
5131,-0.6313,-0.6172,-0.5752,-23.315,2.014,0.610,-135.637,38.474,155.039
5141,-0.6479,-0.5654,-0.6104,-21.729,7.751,6.042,-135.945,38.452,154.918
5151,-0.6514,-0.4985,-0.6187,-11.963,10.559,7.629,-136.219,38.441,154.753
5161,-0.6460,-0.4395,-0.6211,2.502,10.010,6.165,-136.368,38.430,154.611
5171,-0.6147,-0.4756,-0.5801,16.602,6.897,2.563,-136.296,38.408,154.523
5181,-0.5894,-0.5669,-0.5210,19.714,1.709,-1.404,-136.066,38.375,154.523
5191,-0.6060,-0.6270,-0.5234,10.681,-3.784,-3.906,-135.857,38.359,154.589
5201,-0.6138,-0.6860,-0.5474,5.127,-4.028,-7.019,-135.670,38.304,154.693
5211,-0.6143,-0.7261,-0.5664,8.240,1.526,-9.216,-135.467,38.183,154.759
5221,-0.6475,-0.6621,-0.6035,15.564,7.996,-6.042,-135.291,38.062,154.742
5231,-0.6440,-0.5610,-0.6118,28.137,13.977,1.038,-135.121,37.969,154.611
5241,-0.6211,-0.4946,-0.5786,35.522,15.320,10.864,-134.956,37.952,154.374
5251,-0.6113,-0.4258,-0.5552,28.564,9.583,17.151,-134.890,38.035,154.138
5261,-0.5957,-0.4019,-0.5239,14.893,1.526,15.381,-134.912,38.172,153.984
5271,-0.5889,-0.4199,-0.5083,-3.845,-5.493,8.728,-135.027,38.309,153.957
5281,-0.5942,-0.4448,-0.5132,-23.254,-9.705,0.366,-135.242,38.408,154.039
5291,-0.6133,-0.4526,-0.5601,-35.706,-10.193,-7.263,-135.560,38.447,154.199
5301,-0.6357,-0.5332,-0.6108,-33.020,-5.615,-12.573,-135.818,38.397,154.363
5311,-0.6377,-0.6338,-0.6401,-15.564,1.221,-17.761,-135.873,38.238,154.512
5321,-0.6050,-0.7393,-0.6304,7.629,5.981,-19.653,-135.665,37.996,154.638
5331,-0.6021,-0.8047,-0.5757,24.231,6.104,-12.573,-135.286,37.798,154.698
5341,-0.6182,-0.7471,-0.5405,26.001,2.258,0.916,-134.956,37.749,154.671
5351,-0.6270,-0.6553,-0.4966,18.860,-1.038,14.099,-134.758,37.848,154.556
5361,-0.6348,-0.5137,-0.5010,7.080,-3.357,20.386,-134.775,38.051,154.402
5371,-0.6338,-0.4575,-0.5088,-3.540,-4.150,19.409,-134.929,38.265,154.270
5381,-0.6221,-0.4146,-0.5234,-8.667,-3.906,10.986,-135.121,38.419,154.204
5391,-0.6050,-0.4165,-0.5547,-7.996,-2.869,0.732,-135.269,38.469,154.221
5401,-0.5859,-0.5347,-0.5405,-1.343,-0.366,-5.554,-135.247,38.425,154.276
5411,-0.6021,-0.5898,-0.5376,0.183,-0.854,-7.019,-135.170,38.370,154.347
5421,-0.6255,-0.5337,-0.5576,-0.732,-1.892,-4.822,-135.154,38.353,154.407
5431,-0.6367,-0.5171,-0.5635,0.977,-0.488,0.000,-135.165,38.375,154.413
5441,-0.6226,-0.5381,-0.5303,3.296,0.610,2.075,-135.143,38.397,154.391
5451,-0.6333,-0.4878,-0.5420,-0.732,-1.465,1.160,-135.176,38.441,154.391
5461,-0.6426,-0.4912,-0.5581,-3.723,-2.930,-0.977,-135.225,38.474,154.429
5471,-0.6377,-0.5415,-0.5620,-3.418,-2.441,-4.822,-135.225,38.469,154.490
5481,-0.6094,-0.6216,-0.5591,-2.625,-2.380,-9.277,-135.154,38.397,154.600
5491,-0.6011,-0.6650,-0.5640,-3.113,-3.174,-10.071,-135.066,38.309,154.715
5501,-0.6123,-0.6836,-0.5571,-3.174,-3.052,-6.287,-134.984,38.254,154.803
5511,-0.6099,-0.6616,-0.5513,-2.930,-1.526,-1.038,-134.945,38.227,154.825
5521,-0.6108,-0.6074,-0.5396,-1.953,0.183,4.089,-134.956,38.243,154.786
5531,-0.6172,-0.5508,-0.5244,-1.404,0.916,7.446,-135.005,38.293,154.709
5541,-0.6240,-0.5054,-0.5186,0.183,1.953,7.080,-135.060,38.353,154.627
5551,-0.6216,-0.4785,-0.5215,2.686,2.747,3.540,-135.093,38.392,154.572
5562,-0.6167,-0.5176,-0.5190,4.272,3.357,0.122,-135.066,38.386,154.539
5571,-0.6196,-0.5508,-0.5371,2.625,3.357,-2.808,-135.038,38.348,154.539
5581,-0.6230,-0.5581,-0.5791,0.427,3.174,-4.761,-135.033,38.287,154.550
5591,-0.6069,-0.6470,-0.5703,2.197,3.296,-4.211,-134.973,38.199,154.561
5601,-0.6187,-0.6787,-0.5596,0.549,1.404,-2.075,-134.907,38.145,154.567
5611,-0.6274,-0.6064,-0.5791,-3.174,-1.770,0.854,-134.923,38.150,154.572
5621,-0.6377,-0.5366,-0.5752,-0.793,-2.258,5.371,-134.967,38.216,154.545
5631,-0.6309,-0.4644,-0.5620,2.808,-2.380,7.629,-135.022,38.309,154.501
5641,-0.6289,-0.4058,-0.5625,6.226,-2.808,5.798,-135.071,38.408,154.473
5651,-0.6216,-0.4233,-0.5649,9.888,-2.258,1.038,-135.044,38.463,154.484
5661,-0.6011,-0.5142,-0.5576,10.071,-1.526,-4.578,-134.934,38.441,154.539
5671,-0.5942,-0.6050,-0.5532,3.723,-2.502,-8.789,-134.808,38.370,154.638
5681,-0.6035,-0.6392,-0.5581,-5.310,-4.578,-9.399,-134.747,38.309,154.764
5691,-0.6064,-0.6914,-0.5518,-12.390,-4.761,-5.249,-134.753,38.265,154.858
5701,-0.6226,-0.6748,-0.5449,-18.311,-3.784,0.916,-134.863,38.271,154.880
5711,-0.6353,-0.5728,-0.5591,-21.484,-3.967,6.470,-135.082,38.348,154.858
5721,-0.6484,-0.5127,-0.5410,-15.625,-2.686,9.460,-135.291,38.458,154.797
5731,-0.6514,-0.4561,-0.5308,-5.310,-1.282,7.568,-135.417,38.568,154.742
5741,-0.6284,-0.4438,-0.5220,6.714,0.366,2.075,-135.406,38.617,154.720
5751,-0.6094,-0.4873,-0.5142,16.541,1.892,-3.845,-135.242,38.600,154.737
5761,-0.6040,-0.5698,-0.4956,20.386,2.563,-7.629,-134.967,38.529,154.781
5771,-0.5986,-0.6504,-0.4951,14.893,2.747,-7.751,-134.720,38.430,154.830
5781,-0.6035,-0.6611,-0.5225,2.625,3.479,-4.517,-134.621,38.348,154.836
5791,-0.6172,-0.6357,-0.5479,-8.179,4.456,0.061,-134.687,38.298,154.797
5801,-0.6235,-0.5840,-0.5698,-12.634,5.493,3.662,-134.863,38.276,154.715
5811,-0.6216,-0.5522,-0.5757,-11.963,5.554,5.981,-135.055,38.276,154.611
5821,-0.6167,-0.5249,-0.5620,-8.484,4.028,5.554,-135.214,38.287,154.523
5831,-0.6250,-0.4756,-0.5601,-3.967,1.404,3.601,-135.324,38.326,154.479
5841,-0.6270,-0.4487,-0.5596,2.502,0.305,0.916,-135.363,38.359,154.468
5851,-0.6299,-0.4761,-0.5659,10.132,0.916,-3.357,-135.297,38.348,154.490
5861,-0.6113,-0.5439,-0.5610,15.808,2.258,-7.874,-135.115,38.276,154.539
5871,-0.5986,-0.6431,-0.5547,15.442,3.662,-9.155,-134.890,38.156,154.589
5881,-0.6030,-0.6963,-0.5498,7.080,3.601,-6.897,-134.736,38.040,154.622
5891,-0.6138,-0.6440,-0.5693,-5.737,2.014,-1.282,-134.764,37.996,154.611
5901,-0.6216,-0.5977,-0.5708,-14.404,0.793,5.493,-134.929,38.018,154.556
5916,-0.6245,-0.5381,-0.5669,-18.311,-1.038,8.179,-135.165,38.090,154.495
5921,-0.6235,-0.4614,-0.5742,-15.747,-2.747,5.432,-135.396,38.167,154.468
5931,-0.6226,-0.4619,-0.5576,-5.554,-2.380,0.854,-135.494,38.216,154.484
5941,-0.6250,-0.5312,-0.5386,2.808,-1.160,-2.808,-135.439,38.216,154.517
5952,-0.6147,-0.5659,-0.5532,4.639,-0.061,-5.798,-135.352,38.172,154.572
5961,-0.5986,-0.6099,-0.5605,4.578,1.160,-6.531,-135.247,38.095,154.622
5972,-0.6138,-0.6450,-0.5723,1.221,0.977,-3.723,-135.187,38.040,154.644
5982,-0.6187,-0.6470,-0.5791,-3.174,-0.305,-0.549,-135.176,38.013,154.655
5992,-0.6118,-0.6006,-0.5776,-5.798,-1.526,1.953,-135.225,38.018,154.649
6001,-0.6221,-0.5239,-0.5669,-4.822,-3.113,4.211,-135.297,38.079,154.638
6011,-0.6353,-0.4507,-0.5518,-0.366,-4.517,4.944,-135.363,38.177,154.633
6021,-0.6309,-0.4453,-0.5269,6.165,-4.578,2.258,-135.330,38.271,154.655
6031,-0.6304,-0.4355,-0.5303,11.414,-3.662,-3.296,-135.231,38.315,154.715
6041,-0.6045,-0.4966,-0.5195,14.160,-1.831,-7.629,-135.049,38.293,154.803
6051,-0.5908,-0.6230,-0.4893,9.460,-0.610,-8.545,-134.835,38.221,154.885
6062,-0.6011,-0.6313,-0.5068,-5.371,-2.686,-7.629,-134.775,38.172,154.979
6071,-0.6196,-0.5972,-0.5430,-17.578,-3.418,-4.333,-134.879,38.161,155.050
6081,-0.6411,-0.5703,-0.5679,-20.142,-1.282,-1.343,-135.066,38.161,155.072
6092,-0.6392,-0.5356,-0.6060,-15.564,0.366,-1.831,-135.242,38.150,155.083
6102,-0.6162,-0.5654,-0.6099,-2.197,2.197,-5.432,-135.269,38.079,155.116
6112,-0.6123,-0.6152,-0.6177,12.634,2.319,-9.460,-135.099,37.969,155.176
6121,-0.5928,-0.6943,-0.6016,23.499,2.441,-10.315,-134.786,37.826,155.248
6132,-0.5840,-0.7280,-0.5659,24.292,0.732,-5.371,-134.451,37.727,155.292
6142,-0.6025,-0.6318,-0.5674,12.573,-3.296,3.357,-134.297,37.749,155.292
6151,-0.6152,-0.5278,-0.5396,0.244,-5.981,11.475,-134.335,37.886,155.242
6161,-0.6353,-0.4360,-0.5254,-11.536,-7.751,15.442,-134.555,38.101,155.176
6171,-0.6245,-0.4048,-0.5049,-20.081,-9.155,11.902,-134.835,38.309,155.154
6181,-0.6128,-0.4380,-0.4888,-22.034,-9.399,3.174,-135.049,38.447,155.209
6192,-0.6104,-0.5220,-0.4834,-18.005,-7.812,-6.714,-135.126,38.474,155.341
6202,-0.6182,-0.6235,-0.4951,-10.742,-2.563,-12.878,-135.077,38.397,155.479
6212,-0.6162,-0.6772,-0.5229,-2.563,5.005,-12.634,-134.989,38.243,155.550
6222,-0.6147,-0.7134,-0.5420,4.944,11.841,-6.348,-134.890,38.079,155.500
6232,-0.6211,-0.6880,-0.5762,8.545,14.893,2.014,-134.852,37.958,155.347
6242,-0.6343,-0.5718,-0.6030,10.010,14.893,8.484,-134.896,37.908,155.138
6252,-0.6382,-0.4678,-0.6187,10.681,11.719,11.475,-134.995,37.919,154.929
6262,-0.6318,-0.4482,-0.6108,9.583,5.859,10.193,-135.077,37.969,154.786
6272,-0.6152,-0.4385,-0.6162,3.540,-2.075,4.395,-135.148,38.029,154.764
6282,-0.5937,-0.4658,-0.6240,-2.991,-8.606,-2.808,-135.198,38.062,154.869
6292,-0.5742,-0.5645,-0.6123,-6.775,-12.085,-8.179,-135.176,38.057,155.050
6302,-0.5688,-0.7002,-0.5698,-10.132,-13.367,-10.254,-135.082,38.018,155.264
6312,-0.6040,-0.7065,-0.5547,-14.404,-12.451,-7.629,-135.049,38.013,155.440
6322,-0.6396,-0.5811,-0.5845,-13.000,-7.996,-0.977,-135.126,38.057,155.522
6332,-0.6475,-0.5156,-0.5229,12.451,1.709,6.714,-135.055,38.128,155.446
6342,-0.6426,-0.4521,-0.5117,23.071,1.526,2.625,-134.885,38.188,155.407
6352,-0.6230,-0.5029,-0.4795,29.480,0.916,-0.793,-134.577,38.210,155.407
6362,-0.5981,-0.5913,-0.4478,23.254,-1.892,-2.930,-134.247,38.210,155.451
6371,-0.5850,-0.6323,-0.4624,5.127,-6.775,-3.662,-134.061,38.216,155.544
6382,-0.5791,-0.6943,-0.4707,-12.817,-9.399,-2.319,-134.022,38.227,155.654
6392,-0.6143,-0.6665,-0.5132,-26.855,-8.728,1.465,-134.182,38.276,155.720
6402,-0.6265,-0.6235,-0.5625,-29.297,-3.357,5.310,-134.462,38.326,155.704
6412,-0.6299,-0.5825,-0.5869,-18.921,4.089,7.141,-134.720,38.337,155.605
6422,-0.6382,-0.5029,-0.6265,-2.441,9.460,6.714,-134.896,38.320,155.457
6432,-0.6533,-0.4707,-0.6357,17.090,13.428,5.615,-134.918,38.276,155.286
6442,-0.6440,-0.4746,-0.6274,31.433,13.367,3.296,-134.780,38.216,155.132
6452,-0.6094,-0.5073,-0.6060,33.447,8.118,0.732,-134.550,38.161,155.056
6462,-0.5903,-0.5596,-0.5576,23.315,-1.953,-0.122,-134.313,38.156,155.072
6472,-0.5967,-0.5737,-0.5347,5.493,-13.306,-0.122,-134.171,38.238,155.193
6482,-0.5977,-0.6006,-0.4927,-9.949,-19.958,-0.183,-134.105,38.370,155.380
6492,-0.6099,-0.5928,-0.4585,-21.118,-20.569,0.671,-134.138,38.524,155.561
6502,-0.6450,-0.4849,-0.4731,-25.757,-16.846,2.380,-134.313,38.710,155.693
6512,-0.6655,-0.4370,-0.4897,-15.442,-7.568,2.441,-134.478,38.842,155.742
6522,-0.6709,-0.4189,-0.5073,2.136,3.418,-0.916,-134.528,38.881,155.720
6532,-0.6426,-0.4380,-0.5459,19.104,12.512,-5.859,-134.445,38.793,155.660
6542,-0.5972,-0.5801,-0.5410,29.602,17.944,-8.606,-134.193,38.589,155.572
6552,-0.5591,-0.7305,-0.5415,24.048,15.198,-7.202,-133.923,38.359,155.495
6562,-0.5571,-0.7310,-0.5537,8.484,4.822,-0.671,-133.797,38.254,155.457
6572,-0.6118,-0.6543,-0.5781,-9.460,-8.057,11.230,-133.879,38.353,155.435
6582,-0.6597,-0.5781,-0.5889,-17.578,-16.174,18.005,-134.077,38.600,155.424
6592,-0.6748,-0.4717,-0.5903,-9.094,-18.127,13.367,-134.214,38.848,155.468
6602,-0.6724,-0.4604,-0.5947,13.428,-12.268,4.150,-134.110,38.996,155.544
6612,-0.6304,-0.6040,-0.5635,37.964,-2.014,-4.395,-133.687,38.958,155.605
6622,-0.6006,-0.6826,-0.5581,47.241,4.395,-7.568,-133.160,38.831,155.627
6632,-0.6001,-0.6841,-0.5806,38.513,4.089,-3.052,-132.759,38.727,155.616
6642,-0.6167,-0.6738,-0.5786,20.752,0.183,5.615,-132.561,38.727,155.566
6652,-0.6304,-0.5908,-0.5762,0.366,-6.531,10.620,-132.594,38.837,155.539
6662,-0.6401,-0.4873,-0.5708,-15.991,-13.245,12.207,-132.814,39.029,155.555
6672,-0.6460,-0.4238,-0.5391,-24.414,-18.250,11.047,-133.094,39.276,155.632
6682,-0.6401,-0.4023,-0.5112,-23.804,-22.888,5.615,-133.314,39.523,155.797
6692,-0.6230,-0.4805,-0.4487,-9.583,-25.391,-3.845,-133.237,39.710,156.072
6702,-0.6016,-0.6079,-0.3760,8.545,-25.024,-12.146,-132.814,39.792,156.418
6712,-0.6084,-0.7485,-0.3188,18.616,-20.020,-12.939,-132.242,39.803,156.720
6722,-0.6548,-0.7363,-0.3232,16.418,-13.794,-6.165,-131.776,39.847,156.907
6732,-0.6704,-0.6455,-0.3701,9.460,-5.188,3.113,-131.545,39.924,156.934
6742,-0.6484,-0.6177,-0.3901,0.732,4.944,10.864,-131.539,39.990,156.791
6752,-0.6533,-0.5161,-0.4312,-10.437,10.132,12.756,-131.759,40.062,156.583
6762,-0.6616,-0.4502,-0.4990,-16.968,12.024,9.949,-132.116,40.100,156.379
6772,-0.6460,-0.4893,-0.5249,-14.038,14.099,3.723,-132.413,40.051,156.209
6782,-0.6289,-0.5024,-0.5688,-9.949,13.733,-3.845,-132.632,39.930,156.110
6792,-0.6226,-0.5703,-0.6050,-5.615,13.611,-7.141,-132.775,39.754,156.044
6802,-0.6377,-0.6084,-0.6299,-1.831,12.451,-6.470,-132.863,39.584,155.978
6812,-0.6494,-0.5566,-0.6621,-1.221,10.193,-3.601,-132.990,39.463,155.912
6822,-0.6309,-0.6216,-0.6328,-0.549,7.812,0.244,-133.066,39.375,155.841
6832,-0.6177,-0.6221,-0.5996,-5.249,2.563,1.770,-133.154,39.331,155.797
6842,-0.6255,-0.5698,-0.5786,-11.475,-4.211,2.258,-133.275,39.359,155.819
6852,-0.6338,-0.5854,-0.5146,-11.719,-8.301,2.625,-133.336,39.430,155.874
6862,-0.6455,-0.5547,-0.4873,-9.705,-10.864,0.671,-133.352,39.529,155.967
6872,-0.6553,-0.5425,-0.4717,-2.930,-9.888,-1.831,-133.292,39.611,156.077
6882,-0.6562,-0.5903,-0.4395,6.531,-3.967,-3.052,-133.116,39.633,156.143
6892,-0.6440,-0.6006,-0.4385,9.644,2.319,-2.930,-132.951,39.611,156.149
6902,-0.6304,-0.6191,-0.4419,7.812,8.423,-1.343,-132.841,39.545,156.083
6912,-0.6284,-0.5811,-0.4639,0.122,11.658,1.282,-132.874,39.485,155.956
6922,-0.6357,-0.4912,-0.5215,-11.292,11.292,4.150,-133.116,39.457,155.814
6932,-0.6230,-0.4790,-0.5430,-17.273,9.827,4.944,-133.429,39.441,155.676
6942,-0.6245,-0.4722,-0.5762,-18.555,6.531,2.014,-133.731,39.413,155.599
6952,-0.6318,-0.5068,-0.6050,-13.794,3.967,-2.380,-133.940,39.364,155.583
6962,-0.6489,-0.5405,-0.6289,-5.127,3.418,-5.432,-134.039,39.287,155.599
6972,-0.6387,-0.6050,-0.6396,5.554,3.662,-8.240,-133.984,39.172,155.638
6982,-0.5967,-0.7456,-0.5752,16.174,3.967,-9.277,-133.731,39.007,155.687
6992,-0.6240,-0.7441,-0.5405,12.512,1.526,-4.089,-133.511,38.919,155.709
7002,-0.6338,-0.6704,-0.5308,3.784,-1.038,3.418,-133.440,38.930,155.687
7012,-0.6377,-0.5928,-0.4834,-1.099,-2.014,9.277,-133.445,39.018,155.621
7022,-0.6465,-0.4565,-0.4629,-5.249,-3.418,11.108,-133.561,39.183,155.555
7032,-0.6431,-0.3584,-0.4702,-5.310,-2.991,9.583,-133.737,39.353,155.500
7042,-0.6294,-0.3804,-0.4634,-2.197,-0.549,4.761,-133.852,39.457,155.462
7052,-0.6211,-0.4624,-0.4722,-2.747,1.770,-1.648,-133.896,39.474,155.462
7062,-0.5898,-0.5776,-0.4980,-7.080,4.700,-7.629,-133.923,39.370,155.484
7072,-0.5996,-0.6943,-0.5132,-12.268,7.385,-8.423,-133.962,39.210,155.495
7082,-0.6396,-0.7002,-0.5557,-17.090,8.423,-5.798,-134.094,39.078,155.468
7092,-0.6680,-0.6743,-0.5840,-13.977,11.536,-1.526,-134.258,38.963,155.374
7102,-0.6821,-0.6230,-0.6040,-4.578,14.404,2.930,-134.401,38.881,155.215
7112,-0.6724,-0.5430,-0.6143,7.935,15.442,4.578,-134.478,38.809,155.034
7122,-0.6411,-0.4507,-0.6211,21.423,13.916,3.052,-134.456,38.743,154.874
7132,-0.6104,-0.4849,-0.5947,29.541,10.071,1.099,-134.291,38.677,154.775
7142,-0.6006,-0.5317,-0.5894,23.376,3.967,0.000,-134.121,38.639,154.737
7152,-0.5825,-0.5747,-0.5962,8.362,-1.709,-2.258,-134.033,38.595,154.775
7162,-0.5552,-0.6631,-0.5649,-7.996,-5.615,-2.625,-134.028,38.557,154.847
7172,-0.5923,-0.6680,-0.5562,-27.283,-8.972,0.854,-134.209,38.584,154.924
7182,-0.6260,-0.6182,-0.5605,-37.781,-9.277,4.578,-134.539,38.661,154.968
7192,-0.6592,-0.5532,-0.5420,-33.386,-6.714,7.019,-134.868,38.776,154.968
7202,-0.6831,-0.4414,-0.5347,-18.677,-3.967,6.165,-135.121,38.903,154.946
7212,-0.6919,-0.3599,-0.5273,4.578,-0.366,2.808,-135.198,39.012,154.924
7222,-0.6509,-0.3882,-0.4976,31.067,3.662,-4.517,-134.951,39.023,154.935
7232,-0.6030,-0.5244,-0.4385,45.776,4.944,-10.376,-134.418,38.941,154.984
7242,-0.5942,-0.6426,-0.4233,39.368,2.258,-10.803,-133.868,38.831,155.056
7252,-0.5986,-0.7090,-0.4434,21.912,0.183,-8.667,-133.489,38.738,155.132
7262,-0.6079,-0.7388,-0.4800,3.357,0.854,-4.211,-133.330,38.661,155.165
7272,-0.6211,-0.7285,-0.5210,-10.010,2.686,0.916,-133.374,38.611,155.132
7282,-0.6396,-0.6484,-0.5771,-14.099,4.883,4.639,-133.550,38.589,155.045
7292,-0.6436,-0.5645,-0.6206,-5.798,7.446,6.836,-133.726,38.573,154.913
7302,-0.6372,-0.4644,-0.6494,7.324,8.972,8.179,-133.857,38.573,154.759
7312,-0.6348,-0.4268,-0.6499,16.846,7.507,8.728,-133.912,38.589,154.611
7322,-0.6250,-0.4687,-0.6455,18.127,3.906,6.470,-133.890,38.606,154.517
7332,-0.5962,-0.5410,-0.6289,13.245,-1.099,1.221,-133.813,38.589,154.517
7342,-0.5771,-0.6323,-0.6094,3.906,-6.714,-2.747,-133.720,38.568,154.605
7352,-0.6006,-0.6914,-0.5820,-5.798,-11.658,-2.686,-133.660,38.578,154.737
7362,-0.6304,-0.6841,-0.5605,-10.498,-15.259,-0.366,-133.632,38.650,154.880
7372,-0.6431,-0.6069,-0.5269,-6.775,-15.747,3.357,-133.599,38.776,154.995
7382,-0.6631,-0.5063,-0.4922,1.953,-14.954,7.996,-133.544,38.985,155.067
7392,-0.6680,-0.4399,-0.4517,13.794,-12.268,8.789,-133.407,39.205,155.099
7402,-0.6333,-0.4575,-0.4067,24.780,-7.263,4.700,-133.127,39.359,155.127
7412,-0.6089,-0.5298,-0.3555,26.550,-2.930,0.610,-132.759,39.424,155.149
7422,-0.6064,-0.5967,-0.3579,15.320,-0.977,-1.404,-132.479,39.435,155.171
7432,-0.6167,-0.6284,-0.3970,-0.488,1.892,-1.160,-132.385,39.419,155.165
7442,-0.6260,-0.6367,-0.4434,-15.137,5.371,1.465,-132.501,39.386,155.099
7452,-0.6533,-0.5903,-0.5161,-24.902,9.033,4.883,-132.814,39.370,154.973
7462,-0.6680,-0.5137,-0.5962,-23.132,12.573,5.676,-133.215,39.337,154.803
7472,-0.6567,-0.5020,-0.6455,-10.010,15.503,4.089,-133.517,39.254,154.622
7482,-0.6484,-0.4927,-0.6738,5.005,15.137,0.793,-133.660,39.144,154.468
7492,-0.6299,-0.4863,-0.6763,15.625,10.803,-2.258,-133.665,39.029,154.391
7502,-0.6030,-0.5474,-0.6294,19.165,4.150,-3.113,-133.533,38.952,154.380
7512,-0.6021,-0.5713,-0.5913,11.536,-4.639,-2.563,-133.401,38.936,154.446
7522,-0.6099,-0.5879,-0.5532,0.000,-12.390,-2.380,-133.319,38.985,154.583
7532,-0.6201,-0.6167,-0.4966,-8.301,-15.381,-2.258,-133.253,39.062,154.748
7542,-0.6436,-0.5928,-0.4883,-13.855,-14.771,-1.892,-133.253,39.161,154.902
7552,-0.6499,-0.5850,-0.4839,-10.254,-9.583,-1.526,-133.253,39.227,155.006
7562,-0.6519,-0.5723,-0.4878,-1.282,-3.113,-1.404,-133.215,39.254,155.045
7572,-0.6411,-0.5581,-0.4985,9.033,2.075,-1.831,-133.110,39.243,155.045
7582,-0.6333,-0.5869,-0.4814,16.785,5.066,-1.282,-132.929,39.205,155.006
7592,-0.6294,-0.5649,-0.4902,14.954,4.395,-0.488,-132.786,39.177,154.968
7602,-0.6157,-0.5811,-0.4888,8.667,2.441,0.000,-132.687,39.161,154.946
7612,-0.6133,-0.6084,-0.4785,-0.916,-0.671,0.549,-132.649,39.161,154.946
7622,-0.6230,-0.6113,-0.4834,-11.475,-2.991,1.160,-132.709,39.183,154.968
7632,-0.6377,-0.5762,-0.5195,-17.822,-2.686,2.502,-132.880,39.221,154.968
7642,-0.6401,-0.5469,-0.5562,-15.869,0.244,2.991,-133.077,39.243,154.940
7652,-0.6401,-0.5303,-0.5806,-7.263,3.418,1.465,-133.226,39.232,154.896
7662,-0.6479,-0.5449,-0.5957,3.662,5.737,-0.732,-133.259,39.183,154.847
7672,-0.6416,-0.5420,-0.6021,12.329,6.104,-3.113,-133.204,39.111,154.819
7682,-0.6133,-0.5708,-0.5522,15.564,3.296,-3.662,-133.055,39.051,154.819
7692,-0.6138,-0.6006,-0.5024,8.423,-2.930,-1.648,-132.918,39.045,154.863
7702,-0.6201,-0.6060,-0.4673,-1.953,-8.057,-0.488,-132.836,39.095,154.940
7712,-0.6216,-0.6025,-0.4492,-9.155,-9.399,0.183,-132.808,39.166,155.028
7722,-0.6265,-0.6001,-0.4561,-13.245,-7.141,1.648,-132.852,39.232,155.083
7732,-0.6445,-0.5688,-0.4824,-13.794,-1.953,3.296,-132.968,39.287,155.072
7742,-0.6548,-0.5283,-0.5259,-8.484,4.333,3.052,-133.116,39.298,155.006
7752,-0.6558,-0.5122,-0.5591,1.709,10.010,0.916,-133.204,39.254,154.902
7762,-0.6323,-0.5493,-0.5576,10.620,12.878,-1.709,-133.187,39.150,154.797
7772,-0.6128,-0.5815,-0.5322,11.841,10.376,-2.808,-133.110,39.045,154.720
7782,-0.6284,-0.5557,-0.5396,4.700,3.906,-1.648,-133.088,39.007,154.698
7792,-0.6216,-0.5776,-0.5083,-1.648,-0.793,-0.549,-133.077,39.012,154.715
7802,-0.6221,-0.5659,-0.4814,-8.118,-3.723,-0.610,-133.105,39.040,154.753
7812,-0.6235,-0.5586,-0.4995,-10.498,-2.808,-1.709,-133.171,39.056,154.792
7822,-0.6196,-0.6157,-0.5063,-4.883,2.441,-2.869,-133.182,39.007,154.797
7832,-0.6123,-0.6719,-0.5215,0.854,7.690,-2.930,-133.149,38.897,154.748
7842,-0.6221,-0.6631,-0.5547,4.272,11.108,-0.366,-133.138,38.787,154.649
7852,-0.6401,-0.6157,-0.5811,5.493,11.597,3.662,-133.171,38.721,154.506
7862,-0.6538,-0.5176,-0.5942,4.456,9.033,7.507,-133.275,38.721,154.358
7872,-0.6411,-0.4624,-0.5781,2.014,3.845,8.423,-133.407,38.782,154.248
7882,-0.6270,-0.4463,-0.5547,-2.014,-2.441,5.859,-133.522,38.864,154.221
7892,-0.6113,-0.4736,-0.5278,-6.775,-8.179,1.404,-133.594,38.952,154.281
7902,-0.6055,-0.5352,-0.5195,-11.414,-10.742,-2.808,-133.638,39.001,154.407
7912,-0.6143,-0.6221,-0.5483,-12.756,-8.545,-5.615,-133.660,38.996,154.539
7922,-0.6250,-0.6763,-0.5718,-9.583,-3.052,-5.737,-133.671,38.941,154.616
7932,-0.6445,-0.6460,-0.6123,-4.578,1.648,-2.930,-133.709,38.875,154.627
7942,-0.6626,-0.5767,-0.6201,4.211,4.028,0.793,-133.726,38.848,154.583
7952,-0.6548,-0.5347,-0.5728,14.893,2.991,2.808,-133.643,38.859,154.528
7962,-0.6250,-0.5337,-0.5005,20.569,-0.732,2.014,-133.440,38.892,154.517
7972,-0.6079,-0.5400,-0.4438,16.724,-5.798,0.305,-133.204,38.958,154.572
7982,-0.6084,-0.5210,-0.4185,6.958,-9.705,-1.099,-133.028,39.045,154.671
7992,-0.6030,-0.5278,-0.4238,-3.723,-10.559,-1.770,-132.951,39.133,154.786
8002,-0.6074,-0.5601,-0.4443,-11.780,-7.141,-2.014,-132.968,39.177,154.874
8012,-0.6299,-0.6064,-0.4907,-15.686,-0.488,-2.319,-133.066,39.161,154.896
8022,-0.6489,-0.6484,-0.5503,-14.160,7.996,-2.747,-133.215,39.073,154.847
8032,-0.6465,-0.6641,-0.6025,-7.629,14.771,-2.869,-133.352,38.919,154.731
8042,-0.6514,-0.6313,-0.6387,-0.854,16.724,-0.671,-133.473,38.771,154.583
8052,-0.6431,-0.5918,-0.6470,4.211,13.672,2.625,-133.566,38.672,154.429
8063,-0.6387,-0.5205,-0.6392,7.690,6.592,4.272,-133.621,38.644,154.330
8072,-0.6411,-0.4341,-0.6377,9.399,-2.441,3.296,-133.654,38.699,154.325
8082,-0.6235,-0.4238,-0.6069,11.292,-9.644,0.793,-133.605,38.782,154.407
8092,-0.5952,-0.5044,-0.5532,8.240,-14.465,-2.319,-133.467,38.864,154.561
8102,-0.5913,-0.5825,-0.5132,-2.441,-16.968,-5.188,-133.347,38.925,154.764
8112,-0.5918,-0.6704,-0.4878,-12.939,-15.198,-6.592,-133.275,38.947,154.968
8122,-0.6001,-0.6821,-0.4482,-17.822,-10.742,-5.798,-133.259,38.952,155.121
8132,-0.6333,-0.5986,-0.4312,-17.883,-6.409,-2.258,-133.308,38.996,155.198
8142,-0.6592,-0.5522,-0.3906,-10.559,-1.526,2.075,-133.336,39.073,155.193
8152,-0.6465,-0.5400,-0.3340,0.244,2.686,2.319,-133.248,39.139,155.149
8162,-0.6323,-0.5366,-0.3159,8.179,6.531,-0.183,-133.077,39.155,155.089
8172,-0.6309,-0.5464,-0.3403,10.132,10.864,-1.709,-132.918,39.122,155.001
8182,-0.6299,-0.5996,-0.4009,6.226,15.564,-2.014,-132.847,39.023,154.874
8192,-0.6206,-0.6260,-0.4922,-2.197,19.165,-2.014,-132.924,38.870,154.709
8202,-0.6216,-0.6372,-0.5884,-8.972,22.217,-0.916,-133.132,38.677,154.506
8212,-0.6343,-0.6416,-0.6738,-11.169,23.987,1.160,-133.423,38.480,154.276
8222,-0.6440,-0.5645,-0.7568,-9.216,22.583,2.991,-133.759,38.309,154.039
8232,-0.6382,-0.4878,-0.8003,-2.258,18.616,3.967,-134.055,38.167,153.831
8242,-0.6309,-0.4277,-0.8066,4.944,10.559,3.113,-134.264,38.084,153.710
8252,-0.6060,-0.4253,-0.7773,10.132,0.122,-0.183,-134.330,38.040,153.710
8262,-0.5864,-0.4644,-0.7285,11.353,-12.024,-5.310,-134.253,38.051,153.864
8272,-0.5649,-0.5840,-0.6284,8.179,-22.644,-10.498,-134.022,38.084,154.166
8282,-0.5732,-0.6616,-0.5259,-3.418,-29.175,-12.146,-133.770,38.161,154.539
8292,-0.6084,-0.7168,-0.4575,-17.029,-27.283,-9.705,-133.621,38.254,154.874
8302,-0.6328,-0.6836,-0.4116,-26.184,-19.653,-5.615,-133.616,38.348,155.105
8312,-0.6528,-0.5830,-0.3975,-28.198,-10.681,-1.526,-133.731,38.452,155.215
8322,-0.6602,-0.5024,-0.3916,-17.700,-1.404,0.549,-133.841,38.546,155.226
8332,-0.6323,-0.4653,-0.4106,1.770,6.226,-1.160,-133.830,38.562,155.176
8342,-0.6187,-0.4893,-0.4512,19.470,11.353,-3.418,-133.671,38.502,155.105
8352,-0.6025,-0.5947,-0.4780,27.710,13.000,-4.211,-133.401,38.381,155.023
8362,-0.5869,-0.7036,-0.5049,22.034,10.193,-2.808,-133.149,38.249,154.951
8372,-0.6006,-0.7012,-0.5698,7.263,3.601,0.916,-133.061,38.188,154.907
8382,-0.6250,-0.6616,-0.6133,-5.493,-1.587,5.554,-133.132,38.205,154.874
8392,-0.6533,-0.5854,-0.6357,-12.573,-4.517,9.277,-133.325,38.287,154.836
8402,-0.6548,-0.4702,-0.6450,-10.498,-5.737,9.338,-133.550,38.408,154.808
8412,-0.6299,-0.4214,-0.5947,-0.488,-5.981,6.348,-133.665,38.518,154.808
8422,-0.6128,-0.4287,-0.5186,10.437,-6.897,1.587,-133.599,38.617,154.858
8432,-0.6040,-0.4409,-0.4526,14.648,-8.911,-3.601,-133.407,38.699,154.973
8442,-0.5918,-0.5293,-0.3896,13.428,-9.277,-7.385,-133.110,38.743,155.121
8452,-0.6021,-0.6040,-0.3804,6.592,-7.141,-9.888,-132.841,38.732,155.275
8462,-0.6182,-0.7017,-0.4092,-2.075,-0.366,-9.766,-132.682,38.650,155.363
8472,-0.6309,-0.7417,-0.4600,-9.644,9.766,-6.958,-132.687,38.507,155.336
8482,-0.6279,-0.7236,-0.5312,-13.794,18.188,-2.136,-132.852,38.337,155.182
8492,-0.6401,-0.6475,-0.6055,-12.878,21.057,4.944,-133.127,38.205,154.940
8502,-0.6377,-0.5967,-0.6406,-6.714,19.714,10.620,-133.401,38.128,154.666
8512,-0.6235,-0.5376,-0.6372,0.244,14.404,11.658,-133.610,38.101,154.429
8522,-0.6216,-0.4570,-0.6362,4.578,7.507,9.827,-133.764,38.123,154.276
8532,-0.6138,-0.4517,-0.6079,7.507,2.014,6.958,-133.835,38.167,154.199
8542,-0.5996,-0.4888,-0.5737,6.897,-1.465,2.502,-133.830,38.199,154.188
8552,-0.5864,-0.5200,-0.5586,3.296,-2.502,-1.892,-133.808,38.194,154.226
8563,-0.5854,-0.5723,-0.5503,0.977,-1.343,-3.723,-133.770,38.161,154.270
8572,-0.5972,-0.6304,-0.5327,-1.282,0.061,-2.380,-133.731,38.117,154.292
8582,-0.6167,-0.6543,-0.5210,-4.211,1.465,0.549,-133.737,38.095,154.276
8592,-0.6294,-0.6460,-0.5278,-5.676,3.296,3.723,-133.786,38.090,154.210
8602,-0.6440,-0.5889,-0.5317,-4.395,4.456,6.714,-133.874,38.117,154.111
8612,-0.6523,-0.5293,-0.5386,-0.366,3.784,8.667,-133.956,38.177,154.001
8622,-0.6460,-0.5083,-0.5454,5.615,2.319,8.118,-133.989,38.249,153.907
8632,-0.6260,-0.5000,-0.5435,10.986,0.000,4.883,-133.940,38.304,153.864
8642,-0.6177,-0.5459,-0.5186,12.939,-1.099,2.258,-133.819,38.337,153.853
8652,-0.6030,-0.6113,-0.4897,8.301,0.854,1.099,-133.693,38.331,153.836
8662,-0.6035,-0.6221,-0.4790,-0.549,5.493,1.404,-133.676,38.298,153.776
8672,-0.6084,-0.6265,-0.4810,-6.287,13.733,2.319,-133.770,38.216,153.627
8682,-0.6216,-0.5962,-0.5112,-8.545,23.315,3.662,-133.973,38.084,153.380
8692,-0.6201,-0.5342,-0.5605,-7.080,28.748,4.578,-134.253,37.925,153.078
8702,-0.6108,-0.4756,-0.6152,-0.244,28.809,5.005,-134.522,37.760,152.770
8712,-0.6094,-0.4663,-0.6597,9.583,23.071,4.944,-134.681,37.628,152.518
8722,-0.5981,-0.5161,-0.6787,18.799,14.038,4.211,-134.676,37.535,152.358
8732,-0.5825,-0.5952,-0.6768,22.278,2.136,4.761,-134.528,37.507,152.292
8742,-0.5898,-0.6621,-0.6421,17.395,-11.475,7.751,-134.330,37.590,152.331
8752,-0.6216,-0.6729,-0.6001,7.751,-20.630,11.047,-134.176,37.782,152.419
8762,-0.6426,-0.6255,-0.5767,-1.404,-20.752,12.817,-134.127,38.013,152.496
8772,-0.6450,-0.5679,-0.5469,-5.859,-13.489,13.306,-134.182,38.210,152.501
8782,-0.6406,-0.4863,-0.5205,-5.676,-3.540,11.169,-134.308,38.353,152.430
8792,-0.6265,-0.4507,-0.4814,-1.038,5.493,6.287,-134.407,38.408,152.325
8802,-0.6147,-0.4507,-0.4561,4.395,10.803,0.488,-134.434,38.392,152.221
8812,-0.6084,-0.4956,-0.4473,6.165,12.634,-4.150,-134.401,38.315,152.144
8822,-0.5947,-0.6055,-0.4424,4.089,12.390,-6.958,-134.308,38.183,152.095
8832,-0.5937,-0.6870,-0.4629,-0.793,8.362,-6.897,-134.220,38.051,152.078
8842,-0.6143,-0.7271,-0.4927,-6.287,0.977,-3.113,-134.171,37.991,152.100
8852,-0.6509,-0.6899,-0.5352,-10.193,-5.005,2.808,-134.198,38.029,152.117
8862,-0.6655,-0.5981,-0.5947,-9.338,-6.165,7.568,-134.302,38.128,152.106
8872,-0.6548,-0.5063,-0.6270,-2.625,-4.333,9.460,-134.423,38.238,152.062
8882,-0.6328,-0.4492,-0.6367,4.700,-2.441,8.057,-134.511,38.320,152.012
8892,-0.6055,-0.4351,-0.6406,8.362,-1.465,4.517,-134.555,38.359,151.985
8902,-0.5811,-0.4888,-0.6196,7.812,-2.136,0.916,-134.544,38.359,151.996
8912,-0.5762,-0.5327,-0.5967,1.526,-5.432,-2.075,-134.522,38.359,152.067
8922,-0.5957,-0.5488,-0.5874,-5.859,-9.338,-3.784,-134.533,38.375,152.183
8932,-0.6221,-0.5698,-0.5571,-10.010,-11.780,-3.784,-134.544,38.430,152.325
8942,-0.6440,-0.5571,-0.5342,-10.193,-11.902,-3.967,-134.550,38.496,152.468
8952,-0.6460,-0.5674,-0.4937,-4.822,-8.972,-5.066,-134.484,38.546,152.595
8962,-0.6362,-0.5986,-0.4526,1.770,-4.822,-6.104,-134.330,38.551,152.693
8972,-0.6299,-0.6113,-0.4380,6.592,-0.305,-6.592,-134.143,38.524,152.759
8982,-0.6230,-0.6133,-0.4517,8.789,3.479,-5.493,-133.967,38.469,152.776
8992,-0.6201,-0.6201,-0.4775,8.362,6.531,-2.930,-133.841,38.403,152.737
9002,-0.6172,-0.6089,-0.5293,4.761,8.911,0.000,-133.813,38.331,152.655
9012,-0.6230,-0.5991,-0.5781,1.343,11.597,2.808,-133.885,38.254,152.529
9022,-0.6221,-0.6123,-0.5928,-0.732,15.564,4.150,-134.006,38.156,152.347
9032,-0.6201,-0.5801,-0.6167,-4.700,18.555,5.127,-134.209,38.046,152.133
9042,-0.6104,-0.5405,-0.6270,-6.104,19.226,5.554,-134.456,37.936,151.908
9052,-0.6040,-0.5073,-0.6235,-4.883,16.541,4.883,-134.687,37.848,151.716
9063,-0.6147,-0.4839,-0.6167,-2.930,11.353,3.357,-134.868,37.793,151.584
9072,-0.6147,-0.4683,-0.6060,-1.038,5.920,1.099,-134.989,37.771,151.518
9082,-0.6147,-0.4731,-0.5903,-0.061,-0.244,-1.282,-135.044,37.776,151.534
9092,-0.6094,-0.4917,-0.5693,-0.610,-6.775,-3.540,-135.038,37.809,151.628
9102,-0.6104,-0.5371,-0.5386,-2.625,-11.658,-5.310,-134.973,37.864,151.776
9112,-0.6177,-0.5972,-0.5117,-5.615,-12.146,-6.409,-134.879,37.908,151.941
9122,-0.6157,-0.6392,-0.4932,-9.888,-7.812,-6.042,-134.830,37.914,152.067
9132,-0.5972,-0.6543,-0.4678,-13.245,-0.671,-4.578,-134.841,37.875,152.117
9142,-0.5986,-0.6338,-0.4595,-14.465,5.981,-2.869,-134.912,37.809,152.084
9152,-0.6055,-0.5879,-0.4619,-13.184,11.108,-0.977,-135.033,37.733,151.996
9162,-0.6069,-0.5479,-0.4629,-9.705,13.367,0.549,-135.154,37.672,151.870
9172,-0.6152,-0.4897,-0.4883,-4.578,12.451,0.549,-135.269,37.628,151.754
9182,-0.6279,-0.4785,-0.5347,0.488,10.681,-0.793,-135.346,37.584,151.666
9192,-0.6226,-0.4937,-0.5698,2.930,9.399,-3.174,-135.385,37.513,151.611
9202,-0.6118,-0.4951,-0.6021,0.488,7.080,-5.432,-135.439,37.430,151.600
9212,-0.6021,-0.5332,-0.6240,-3.662,4.089,-7.263,-135.500,37.343,151.628
9222,-0.5908,-0.5737,-0.6411,-7.324,0.488,-8.667,-135.555,37.249,151.699
9232,-0.5859,-0.6260,-0.6475,-10.803,-3.296,-8.179,-135.604,37.172,151.804
9242,-0.5937,-0.6543,-0.6577,-12.939,-5.554,-5.737,-135.670,37.128,151.902
9252,-0.6128,-0.6113,-0.6792,-11.353,-6.714,-3.235,-135.753,37.123,151.990
9262,-0.6328,-0.5664,-0.6895,-4.150,-6.714,-0.854,-135.802,37.145,152.056
9272,-0.6396,-0.5420,-0.6729,6.042,-6.226,0.366,-135.764,37.183,152.111
9282,-0.6240,-0.5381,-0.6387,14.954,-5.676,-0.671,-135.626,37.216,152.166
9292,-0.5996,-0.5688,-0.5840,21.423,-5.859,-2.625,-135.368,37.233,152.238
9302,-0.5889,-0.6021,-0.5371,21.606,-7.751,-2.563,-135.066,37.255,152.331
9312,-0.5879,-0.6201,-0.5059,15.442,-11.047,-0.488,-134.791,37.321,152.435
9322,-0.5986,-0.5859,-0.4980,7.202,-13.855,2.075,-134.610,37.436,152.540
9332,-0.6045,-0.5908,-0.4937,2.380,-13.672,3.845,-134.489,37.568,152.628
9342,-0.6084,-0.5776,-0.4946,0.977,-10.681,4.150,-134.401,37.683,152.688
9352,-0.6128,-0.5513,-0.5117,1.343,-6.836,3.967,-134.357,37.771,152.715
9362,-0.6196,-0.5142,-0.5288,2.441,-3.296,4.150,-134.352,37.848,152.704
9372,-0.6250,-0.4937,-0.5449,3.967,-1.892,3.906,-134.357,37.914,152.688
9382,-0.6240,-0.4800,-0.5630,5.737,-3.052,2.441,-134.352,37.974,152.693
9392,-0.6128,-0.5293,-0.5522,7.507,-5.188,-0.061,-134.264,38.018,152.743
9402,-0.6035,-0.5791,-0.5400,6.104,-8.423,-2.319,-134.132,38.051,152.842
9412,-0.6025,-0.6069,-0.5273,2.441,-12.268,-3.052,-133.995,38.101,152.979
9422,-0.6123,-0.6211,-0.5176,-0.793,-13.733,-2.197,-133.868,38.172,153.122
9432,-0.6245,-0.6230,-0.5103,-2.258,-10.498,-0.488,-133.786,38.238,153.226
9442,-0.6309,-0.5942,-0.5195,-3.174,-4.333,1.282,-133.775,38.282,153.254
9452,-0.6294,-0.5493,-0.5322,-3.357,2.136,2.563,-133.835,38.293,153.210
9462,-0.6318,-0.5073,-0.5444,-2.441,6.897,2.808,-133.945,38.287,153.122
9472,-0.6226,-0.4785,-0.5630,-1.709,9.705,1.282,-134.083,38.249,153.023
9482,-0.6143,-0.4692,-0.5776,-1.282,8.789,-1.282,-134.203,38.194,152.952
9492,-0.6060,-0.5044,-0.5815,-1.953,5.188,-3.784,-134.280,38.128,152.941
9502,-0.5947,-0.5747,-0.5718,-4.028,1.038,-5.493,-134.302,38.068,152.979
9512,-0.5986,-0.6313,-0.5649,-7.812,-2.747,-5.615,-134.308,38.018,153.056
9522,-0.6079,-0.6660,-0.5581,-10.071,-4.761,-4.578,-134.313,37.985,153.138
9532,-0.6187,-0.6616,-0.5479,-8.728,-4.395,-2.808,-134.313,37.974,153.204
9542,-0.6333,-0.6294,-0.5415,-5.188,-2.380,-0.061,-134.313,37.985,153.226
9552,-0.6382,-0.5908,-0.5356,0.000,0.366,2.563,-134.313,38.007,153.199
9563,-0.6323,-0.5278,-0.5396,4.639,2.563,3.540,-134.313,38.035,153.144
9572,-0.6216,-0.4766,-0.5537,7.507,3.662,2.869,-134.324,38.051,153.083
9582,-0.6084,-0.4849,-0.5527,9.094,3.052,0.854,-134.297,38.051,153.051
9592,-0.5947,-0.5303,-0.5444,7.324,0.732,-2.258,-134.231,38.035,153.062
9602,-0.5874,-0.6069,-0.5396,2.258,-1.648,-4.211,-134.154,37.991,153.116
9612,-0.5977,-0.6338,-0.5439,-3.906,-3.479,-4.150,-134.116,37.963,153.182
9622,-0.6162,-0.6367,-0.5522,-7.874,-3.540,-1.953,-134.132,37.958,153.232
9632,-0.6328,-0.6123,-0.5537,-7.507,-1.587,0.916,-134.182,37.969,153.237
9642,-0.6382,-0.5605,-0.5610,-4.883,0.061,2.747,-134.253,37.996,153.215
9652,-0.6313,-0.5264,-0.5469,0.305,1.343,2.869,-134.291,38.024,153.177
9662,-0.6255,-0.5068,-0.5361,5.249,1.709,1.343,-134.280,38.046,153.149
9672,-0.6133,-0.5210,-0.5269,7.080,1.282,-0.244,-134.225,38.051,153.138
9682,-0.6045,-0.5547,-0.5298,4.883,0.305,-1.221,-134.165,38.040,153.149
9692,-0.6035,-0.5601,-0.5591,0.427,-0.977,-1.953,-134.154,38.029,153.177
9702,-0.6060,-0.5781,-0.5679,-1.709,-1.343,-1.526,-134.160,38.013,153.199
9712,-0.6084,-0.5913,-0.5762,-2.319,-1.526,-0.793,-134.171,38.002,153.221
9722,-0.6128,-0.5923,-0.5757,-2.136,-1.221,-0.305,-134.182,37.996,153.237
9732,-0.6177,-0.5679,-0.5669,-0.732,-1.160,-0.122,-134.187,37.996,153.248
9742,-0.6152,-0.5605,-0.5469,0.610,-1.648,0.061,-134.176,38.013,153.259
9752,-0.6201,-0.5771,-0.5229,0.244,-2.136,0.122,-134.143,38.029,153.281
9762,-0.6221,-0.5635,-0.5244,-2.319,-2.014,0.000,-134.143,38.057,153.298
9772,-0.6206,-0.5728,-0.5293,-4.150,-0.916,0.305,-134.165,38.068,153.303
9782,-0.6187,-0.5654,-0.5439,-4.822,0.366,0.549,-134.214,38.073,153.292
9792,-0.6157,-0.5615,-0.5571,-3.418,1.282,0.427,-134.264,38.062,153.281
9802,-0.6235,-0.5620,-0.5601,-0.366,1.526,0.183,-134.286,38.057,153.265
9812,-0.6245,-0.5601,-0.5654,2.502,0.854,-0.732,-134.269,38.046,153.265
9822,-0.6167,-0.5576,-0.5527,4.700,-0.244,-1.343,-134.220,38.040,153.276
9832,-0.6147,-0.5498,-0.5454,3.784,-2.014,-1.160,-134.171,38.051,153.303
9842,-0.6187,-0.5352,-0.5391,0.854,-3.418,-0.549,-134.149,38.079,153.342
9852,-0.6074,-0.5679,-0.5200,-1.831,-3.418,-0.732,-134.127,38.101,153.380
9862,-0.5947,-0.6270,-0.5127,-5.127,-2.380,-1.587,-134.110,38.084,153.413
9872,-0.6001,-0.6401,-0.5298,-10.071,-0.671,-0.977,-134.154,38.062,153.430
9882,-0.6172,-0.6069,-0.5596,-12.390,1.770,1.343,-134.280,38.046,153.402
9892,-0.6309,-0.5552,-0.5820,-9.216,3.784,3.540,-134.429,38.046,153.336
9902,-0.6484,-0.5039,-0.5918,-2.869,4.578,4.089,-134.561,38.062,153.259
9912,-0.6499,-0.4570,-0.5991,3.906,3.784,2.380,-134.637,38.079,153.204
9922,-0.6289,-0.4307,-0.5918,9.399,1.770,-0.854,-134.637,38.090,153.193
9932,-0.6108,-0.4653,-0.5669,10.254,-1.892,-3.601,-134.566,38.090,153.243
9942,-0.5811,-0.5483,-0.5317,4.639,-5.920,-5.798,-134.456,38.084,153.347
9952,-0.5576,-0.6646,-0.5029,-5.737,-8.179,-6.714,-134.357,38.051,153.484
9962,-0.5464,-0.8286,-0.4663,-16.602,-7.202,-4.639,-134.302,37.985,153.589
9972,-0.6431,-0.7749,-0.5024,-28.992,-4.517,1.953,-134.462,38.002,153.611
9982,-0.7227,-0.5898,-0.5815,-29.968,1.099,7.751,-134.808,38.079,153.534
9992,-0.7246,-0.4268,-0.5972,-14.099,7.996,10.071,-135.143,38.161,153.369
10002,-0.6841,-0.2695,-0.6016,7.507,9.277,5.432,-135.357,38.210,153.237
10012,-0.5967,-0.2939,-0.5249,29.785,7.690,-4.150,-135.236,38.194,153.210
10022,-0.5405,-0.4380,-0.4214,32.104,3.723,-9.949,-134.868,38.134,153.265
10032,-0.5298,-0.5249,-0.3911,9.583,-1.160,-11.292,-134.626,38.068,153.375
10042,-0.5137,-0.6392,-0.4194,-19.470,-1.221,-11.719,-134.632,37.952,153.490
10052,-0.5518,-0.7114,-0.4922,-44.067,2.380,-10.193,-134.929,37.809,153.561
10063,-0.6143,-0.7261,-0.5806,-54.138,7.568,-8.972,-135.396,37.650,153.572
10072,-0.6763,-0.6299,-0.6846,-44.739,14.404,-6.958,-135.895,37.485,153.506
10082,-0.7153,-0.5444,-0.7671,-21.729,19.409,-3.113,-136.285,37.326,153.369
10092,-0.6733,-0.5566,-0.7437,7.202,20.264,-0.916,-136.384,37.161,153.199
10102,-0.6016,-0.5586,-0.6870,25.696,13.916,-1.831,-136.236,37.018,153.094
10112,-0.5674,-0.5801,-0.6270,27.344,4.700,-1.404,-135.989,36.942,153.067
10122,-0.5620,-0.6133,-0.5747,17.883,-4.211,0.061,-135.764,36.936,153.105
10132,-0.5630,-0.6006,-0.5439,3.601,-10.376,0.122,-135.637,36.991,153.193
10142,-0.5723,-0.5894,-0.5337,-7.629,-11.475,0.305,-135.621,37.062,153.292
10152,-0.5981,-0.5449,-0.5483,-12.207,-8.728,1.160,-135.698,37.139,153.358
10162,-0.6025,-0.5615,-0.5449,-8.179,-3.540,1.465,-135.753,37.178,153.375
10172,-0.6060,-0.5664,-0.5420,-0.488,1.526,0.916,-135.753,37.178,153.353
10182,-0.6084,-0.5684,-0.5469,6.897,5.310,1.038,-135.698,37.156,153.298
10192,-0.6182,-0.5693,-0.5542,12.146,6.409,1.465,-135.604,37.128,153.226
10202,-0.6147,-0.5518,-0.5679,15.076,5.432,0.793,-135.489,37.101,153.171
10212,-0.6177,-0.5493,-0.5767,16.113,2.991,0.610,-135.357,37.090,153.138
10222,-0.6113,-0.5947,-0.5620,14.404,0.061,0.793,-135.203,37.090,153.133
10232,-0.6045,-0.6143,-0.5674,7.629,-3.174,1.953,-135.093,37.117,153.144
10242,-0.5996,-0.6021,-0.5806,0.916,-5.310,3.357,-135.066,37.161,153.160
10252,-0.6045,-0.5728,-0.5908,-2.930,-4.761,5.188,-135.104,37.222,153.155
10262,-0.6157,-0.4932,-0.6216,-4.578,-3.723,6.470,-135.225,37.299,153.133
10272,-0.6055,-0.4521,-0.6318,-0.793,-3.113,5.432,-135.341,37.365,153.111
10282,-0.6021,-0.4434,-0.6211,5.066,-3.723,2.075,-135.374,37.414,153.127
10292,-0.6099,-0.4536,-0.6025,7.263,-5.798,-1.404,-135.341,37.463,153.188
10302,-0.6050,-0.4668,-0.5889,5.554,-8.362,-4.150,-135.280,37.507,153.303
10312,-0.5894,-0.5728,-0.5503,1.404,-10.437,-5.981,-135.165,37.529,153.446
10322,-0.5850,-0.6987,-0.5176,-4.150,-11.902,-7.446,-135.011,37.524,153.622
10332,-0.6011,-0.7622,-0.5103,-8.484,-10.742,-6.836,-134.890,37.507,153.776
10342,-0.6343,-0.7100,-0.5239,-9.827,-7.202,-2.441,-134.852,37.524,153.864
10352,-0.6650,-0.5854,-0.5562,-6.592,-3.784,3.845,-134.901,37.595,153.864
10362,-0.6763,-0.4497,-0.5693,1.160,-0.671,7.812,-135.000,37.711,153.798
10372,-0.6758,-0.3018,-0.5967,10.559,1.038,6.226,-135.115,37.826,153.732
10382,-0.6035,-0.3262,-0.5791,20.508,0.854,-0.854,-135.066,37.853,153.732
10392,-0.5220,-0.5288,-0.4990,21.851,-2.075,-8.240,-134.775,37.793,153.825
10402,-0.4951,-0.6899,-0.4644,7.874,-8.850,-13.000,-134.473,37.689,154.023
10412,-0.5312,-0.8247,-0.4468,-10.132,-11.841,-11.597,-134.286,37.612,154.232
10422,-0.5977,-0.8594,-0.4785,-25.818,-8.850,-4.944,-134.313,37.573,154.352
10432,-0.6655,-0.7002,-0.5537,-32.959,-2.869,3.296,-134.583,37.606,154.352
10442,-0.7197,-0.4946,-0.6299,-26.489,2.991,11.658,-134.995,37.711,154.221
10452,-0.7075,-0.3833,-0.6382,-6.409,7.812,14.160,-135.319,37.815,154.023
10462,-0.6582,-0.3159,-0.6138,15.869,8.667,8.118,-135.428,37.870,153.875
10472,-0.5972,-0.3394,-0.5703,29.602,4.700,-0.916,-135.291,37.870,153.842
10482,-0.5400,-0.5015,-0.4990,29.358,-1.526,-7.385,-134.951,37.826,153.918
10492,-0.5234,-0.6372,-0.4536,13.428,-8.972,-10.620,-134.615,37.771,154.094
10502,-0.5522,-0.7158,-0.4658,-7.874,-12.756,-10.559,-134.451,37.738,154.303
10512,-0.5923,-0.8018,-0.4897,-23.376,-8.179,-6.775,-134.473,37.694,154.440
10522,-0.6367,-0.7529,-0.5513,-28.381,-0.366,-1.648,-134.659,37.650,154.457
10532,-0.6621,-0.6475,-0.6064,-20.447,6.775,4.150,-134.907,37.623,154.358
10542,-0.6714,-0.5562,-0.6211,-3.906,10.864,9.766,-135.088,37.628,154.177
10552,-0.6597,-0.4536,-0.6064,11.902,10.559,10.925,-135.165,37.667,153.984
10563,-0.6255,-0.3931,-0.5977,22.034,6.958,8.545,-135.148,37.711,153.847
10572,-0.5981,-0.3833,-0.5713,24.231,1.099,4.089,-135.044,37.766,153.798
10582,-0.5762,-0.4346,-0.5601,15.930,-5.493,-0.488,-134.929,37.809,153.853
10592,-0.5684,-0.5015,-0.5654,1.709,-11.597,-4.456,-134.857,37.853,153.995
10602,-0.5850,-0.5562,-0.5864,-10.498,-14.832,-7.507,-134.857,37.886,154.193
10612,-0.5986,-0.6304,-0.5850,-15.137,-13.489,-8.789,-134.863,37.886,154.396
10622,-0.6104,-0.7041,-0.5708,-15.686,-9.338,-7.385,-134.868,37.859,154.545
10632,-0.6226,-0.7266,-0.5571,-13.245,-5.249,-4.578,-134.874,37.831,154.633
10642,-0.6382,-0.6665,-0.5459,-7.568,-1.221,-1.221,-134.879,37.815,154.655
10652,-0.6577,-0.5801,-0.5303,0.488,2.441,2.686,-134.879,37.837,154.611
10662,-0.6587,-0.5142,-0.5312,7.019,4.639,4.944,-134.874,37.881,154.523
10672,-0.6274,-0.4761,-0.5415,11.841,4.761,3.357,-134.835,37.903,154.451
10682,-0.6006,-0.4238,-0.5483,13.428,0.854,0.366,-134.786,37.930,154.440
10692,-0.5918,-0.4722,-0.5410,10.864,-5.371,-0.854,-134.687,37.974,154.495
10702,-0.5728,-0.5947,-0.5020,4.089,-10.437,-2.014,-134.533,38.018,154.605
10712,-0.5728,-0.6768,-0.4873,-5.676,-12.329,-4.089,-134.407,38.040,154.753
10722,-0.6055,-0.7104,-0.4941,-12.451,-8.606,-2.869,-134.374,38.051,154.858
10732,-0.6353,-0.6768,-0.5171,-15.076,-1.892,1.038,-134.445,38.057,154.869
10742,-0.6509,-0.5918,-0.5547,-13.062,4.150,5.310,-134.615,38.073,154.781
10752,-0.6646,-0.4932,-0.5776,-5.005,8.301,7.141,-134.797,38.095,154.644
10762,-0.6704,-0.3838,-0.6182,5.188,10.742,5.066,-134.967,38.101,154.501
10772,-0.6440,-0.3179,-0.6392,15.564,9.766,0.000,-135.055,38.073,154.413
10782,-0.5684,-0.4678,-0.5874,21.484,4.822,-5.676,-134.901,37.991,154.424
10792,-0.5444,-0.6172,-0.5483,13.489,-4.272,-8.911,-134.659,37.914,154.539
10802,-0.5518,-0.7256,-0.5337,-1.221,-12.878,-9.338,-134.467,37.870,154.737
10812,-0.5796,-0.7988,-0.4946,-13.794,-16.663,-3.723,-134.368,37.897,154.924
10822,-0.6406,-0.6992,-0.5195,-24.963,-16.479,4.700,-134.473,38.029,155.028
10832,-0.6724,-0.5596,-0.5493,-24.414,-10.925,11.230,-134.714,38.210,155.028
10842,-0.6782,-0.4399,-0.5630,-10.742,-3.052,12.024,-134.940,38.370,154.951
10852,-0.6729,-0.3848,-0.5659,7.935,4.761,6.897,-135.038,38.447,154.847
10862,-0.6216,-0.4302,-0.5591,24.780,10.010,-1.648,-134.912,38.397,154.770
10872,-0.5366,-0.6460,-0.4897,30.334,10.071,-7.385,-134.550,38.221,154.742
10882,-0.5449,-0.7817,-0.4702,16.052,2.930,-5.920,-134.236,38.090,154.770
10892,-0.5898,-0.8140,-0.4897,-3.174,-3.845,-0.854,-134.110,38.046,154.814
10902,-0.6470,-0.7705,-0.5020,-16.846,-3.723,7.080,-134.187,38.095,154.786
10912,-0.7109,-0.5542,-0.5693,-25.757,-1.221,14.771,-134.528,38.243,154.666
10922,-0.7075,-0.3735,-0.6172,-18.494,4.639,16.846,-134.973,38.392,154.473
10932,-0.6763,-0.2407,-0.6304,1.038,11.047,10.864,-135.324,38.458,154.276
10942,-0.6040,-0.2505,-0.6167,19.836,13.062,0.671,-135.428,38.408,154.149
10952,-0.5293,-0.4312,-0.5420,24.658,9.338,-6.165,-135.264,38.287,154.122
10962,-0.5156,-0.5864,-0.5137,10.132,-1.343,-8.850,-135.066,38.188,154.215
10972,-0.5547,-0.6875,-0.5068,-8.789,-9.460,-9.216,-134.967,38.139,154.385
10982,-0.6284,-0.6973,-0.5420,-23.376,-11.230,-6.958,-135.027,38.145,154.545
10992,-0.6729,-0.6885,-0.5776,-25.818,-7.812,-4.089,-135.165,38.156,154.655
11002,-0.6846,-0.6909,-0.5884,-15.808,-2.197,-1.099,-135.258,38.150,154.682
11012,-0.6855,-0.6372,-0.6025,-0.549,2.441,1.221,-135.264,38.145,154.649
11022,-0.6611,-0.5659,-0.5884,15.076,6.104,3.052,-135.170,38.128,154.567
11032,-0.6157,-0.5239,-0.5649,23.926,6.226,3.967,-135.011,38.117,154.479
11042,-0.5820,-0.5273,-0.5239,21.301,2.380,4.578,-134.835,38.134,154.413
11052,-0.5854,-0.4912,-0.5288,8.301,-3.906,4.272,-134.780,38.199,154.413
11063,-0.5776,-0.5122,-0.5142,-3.967,-7.874,2.686,-134.791,38.276,154.457
11072,-0.5898,-0.5400,-0.5107,-14.832,-8.911,1.648,-134.885,38.353,154.523
11082,-0.6133,-0.5381,-0.5396,-21.667,-7.324,0.854,-135.066,38.414,154.583
11092,-0.6304,-0.5488,-0.5571,-18.250,-2.258,-0.305,-135.236,38.430,154.605
11102,-0.6416,-0.5747,-0.5688,-8.423,2.686,-1.953,-135.319,38.397,154.600
11112,-0.6470,-0.6021,-0.5718,2.075,6.592,-2.747,-135.302,38.331,154.567
11122,-0.6431,-0.6099,-0.5693,9.827,7.935,-2.014,-135.214,38.254,154.512
11132,-0.6416,-0.5767,-0.5703,13.367,5.432,-0.366,-135.104,38.210,154.468
11142,-0.6167,-0.5776,-0.5454,13.794,1.831,0.732,-134.962,38.199,154.446
11152,-0.6035,-0.5713,-0.5308,8.911,-3.235,2.014,-134.846,38.232,154.457
11162,-0.6025,-0.5640,-0.5088,2.563,-7.263,2.991,-134.769,38.309,154.495
11172,-0.6030,-0.5513,-0.5044,-3.479,-9.094,3.662,-134.753,38.403,154.545
11182,-0.6147,-0.5566,-0.4980,-6.409,-6.958,3.845,-134.769,38.491,154.572
11192,-0.6392,-0.5161,-0.5298,-7.812,-2.380,2.808,-134.857,38.551,154.567
11202,-0.6519,-0.4692,-0.5615,-4.089,3.540,0.854,-134.973,38.562,154.528
11212,-0.6523,-0.4224,-0.6001,2.441,7.812,-2.136,-135.082,38.524,154.479
11222,-0.6108,-0.4897,-0.5928,9.705,8.545,-5.920,-135.055,38.419,154.451
11232,-0.5908,-0.5874,-0.5713,11.780,4.517,-7.996,-134.907,38.309,154.484
11242,-0.5894,-0.7061,-0.5664,6.714,-2.197,-6.653,-134.731,38.221,154.567
11252,-0.6055,-0.7432,-0.5566,0.244,-7.568,-2.319,-134.594,38.210,154.655
11262,-0.6328,-0.6743,-0.5713,-5.005,-11.536,3.113,-134.555,38.287,154.731
11272,-0.6631,-0.5659,-0.5811,-5.188,-12.512,8.240,-134.594,38.441,154.770
11282,-0.6758,-0.4580,-0.5796,-0.244,-10.620,9.216,-134.659,38.617,154.786
11292,-0.6616,-0.3628,-0.5762,5.676,-7.751,6.104,-134.725,38.771,154.797
11302,-0.6099,-0.4097,-0.5171,8.423,-5.432,1.404,-134.687,38.859,154.836
11312,-0.6064,-0.4033,-0.5098,3.296,-5.981,-4.578,-134.665,38.908,154.935
11322,-0.5640,-0.5937,-0.4883,0.183,-4.150,-11.719,-134.522,38.831,155.078
11332,-0.5562,-0.7847,-0.4780,0.671,-0.671,-16.113,-134.286,38.644,155.226
11342,-0.6074,-0.8467,-0.5054,2.075,0.977,-14.771,-134.055,38.463,155.352
11352,-0.6743,-0.7612,-0.5498,7.446,4.456,-5.554,-133.896,38.364,155.358
11362,-0.7178,-0.5850,-0.5796,13.306,4.700,6.042,-133.830,38.403,155.264
11372,-0.6763,-0.5249,-0.5513,19.836,3.052,12.756,-133.748,38.507,155.121
11382,-0.6167,-0.5781,-0.4980,23.560,1.099,11.841,-133.555,38.589,155.006
11392,-0.5596,-0.6274,-0.4492,23.743,-1.099,4.333,-133.259,38.600,154.979
11402,-0.5898,-0.6221,-0.4502,17.700,-1.282,0.793,-133.006,38.600,154.984
11412,-0.6201,-0.5527,-0.4731,9.277,0.122,2.319,-132.902,38.639,154.962
11422,-0.6465,-0.4097,-0.5190,0.244,1.648,5.371,-133.028,38.721,154.902
11432,-0.6572,-0.2842,-0.5615,-7.202,5.127,7.019,-133.369,38.815,154.792
11442,-0.6538,-0.1987,-0.6016,-15.015,7.324,4.822,-133.868,38.870,154.682
11452,-0.5923,-0.2744,-0.6157,-19.165,5.554,-2.441,-134.297,38.837,154.649
11462,-0.5161,-0.5073,-0.5645,-19.470,0.610,-12.878,-134.462,38.699,154.759
11472,-0.5479,-0.7061,-0.5542,-23.743,-6.897,-18.188,-134.489,38.546,154.984
11482,-0.6074,-0.8618,-0.5586,-21.423,-8.484,-17.883,-134.440,38.397,155.226
11492,-0.6772,-0.9043,-0.5649,-15.381,-5.615,-11.169,-134.374,38.298,155.374
11502,-0.7314,-0.8291,-0.5996,-8.972,-2.625,-0.610,-134.363,38.282,155.407
11512,-0.6938,-0.7349,-0.5806,2.869,1.526,8.118,-134.324,38.315,155.319
11522,-0.6543,-0.6177,-0.5342,11.597,3.723,13.550,-134.269,38.386,155.165
11532,-0.6260,-0.5171,-0.5215,10.986,2.930,16.479,-134.280,38.507,154.990
11542,-0.5874,-0.4497,-0.4956,4.822,0.000,15.747,-134.352,38.644,154.852
11552,-0.5732,-0.3589,-0.4966,-4.761,-5.981,11.108,-134.528,38.809,154.803
11563,-0.5791,-0.3467,-0.5010,-10.986,-11.230,3.601,-134.698,38.958,154.874
11572,-0.5967,-0.4199,-0.4985,-9.399,-11.292,-5.127,-134.747,39.040,155.023
11582,-0.6191,-0.5347,-0.5039,-4.578,-6.104,-11.108,-134.681,39.012,155.182
11592,-0.6436,-0.6440,-0.5073,0.000,3.052,-12.695,-134.566,38.892,155.270
11602,-0.6543,-0.6777,-0.5410,2.014,11.047,-10.925,-134.489,38.721,155.264
11612,-0.6431,-0.6567,-0.5664,5.005,15.259,-7.202,-134.445,38.546,155.193
11622,-0.6519,-0.5889,-0.5840,6.042,13.367,-1.343,-134.456,38.436,155.083
11632,-0.6514,-0.5176,-0.5933,4.150,6.409,2.869,-134.511,38.425,154.995
11642,-0.6289,-0.4717,-0.5840,2.686,-1.404,3.052,-134.561,38.474,154.984
11652,-0.6187,-0.4478,-0.5718,0.061,-8.850,0.916,-134.588,38.562,155.056
11662,-0.5981,-0.5210,-0.5293,-2.686,-12.878,-1.770,-134.544,38.639,155.187
11672,-0.5649,-0.6489,-0.4897,-6.165,-12.756,-4.639,-134.429,38.655,155.347
11682,-0.5972,-0.7070,-0.4839,-11.780,-9.338,-3.967,-134.374,38.655,155.468
11692,-0.6265,-0.6875,-0.5254,-16.052,-3.235,-0.610,-134.440,38.644,155.500
11702,-0.6440,-0.6040,-0.5601,-13.184,3.235,2.991,-134.588,38.639,155.446
11712,-0.6670,-0.4937,-0.5962,-6.104,5.371,4.883,-134.764,38.655,155.352
11722,-0.6650,-0.4585,-0.5933,5.188,5.737,3.174,-134.835,38.666,155.270
11732,-0.6455,-0.4355,-0.5845,12.695,3.906,-1.160,-134.813,38.661,155.248
11742,-0.6030,-0.4858,-0.5493,13.794,-0.793,-4.883,-134.681,38.639,155.297
11752,-0.5811,-0.5947,-0.4893,7.080,-6.104,-5.798,-134.489,38.628,155.407
11762,-0.5957,-0.6519,-0.4785,-5.676,-10.254,-5.127,-134.379,38.639,155.544
11772,-0.6143,-0.6914,-0.4839,-12.939,-8.850,-3.601,-134.346,38.650,155.660
11782,-0.6445,-0.6357,-0.5146,-12.634,-3.967,-2.075,-134.379,38.661,155.715
11792,-0.6602,-0.5781,-0.5503,-6.165,1.404,0.061,-134.445,38.661,155.698
11802,-0.6538,-0.5430,-0.5498,4.272,5.737,0.916,-134.445,38.639,155.638
11812,-0.6367,-0.4849,-0.5513,10.925,7.446,0.122,-134.423,38.611,155.572
11822,-0.6182,-0.4575,-0.5376,11.108,6.531,-0.671,-134.401,38.589,155.517
11832,-0.5952,-0.4746,-0.5200,4.761,2.747,-1.953,-134.390,38.573,155.511
11842,-0.5840,-0.5342,-0.5049,-5.188,-2.136,-4.028,-134.396,38.557,155.566
11852,-0.5884,-0.6221,-0.5039,-13.489,-4.822,-5.310,-134.418,38.529,155.654
11862,-0.6128,-0.6816,-0.5151,-17.395,-3.906,-4.456,-134.473,38.496,155.731
11872,-0.6489,-0.6572,-0.5566,-17.151,-0.854,-1.587,-134.583,38.480,155.753
11882,-0.6528,-0.6514,-0.5747,-10.071,2.869,1.526,-134.676,38.452,155.715
11892,-0.6523,-0.6084,-0.5771,-0.183,4.883,3.235,-134.714,38.436,155.643
11903,-0.6323,-0.5479,-0.5728,7.996,4.822,3.357,-134.692,38.430,155.566
11912,-0.5991,-0.5771,-0.5181,10.620,3.540,4.211,-134.604,38.425,155.495
11922,-0.5977,-0.5649,-0.5005,1.953,-0.305,5.554,-134.583,38.469,155.451
11932,-0.6055,-0.5400,-0.5054,-9.338,-2.319,5.432,-134.676,38.529,155.424
11942,-0.6069,-0.5767,-0.4976,-18.250,-0.977,5.493,-134.846,38.573,155.380
11953,-0.6460,-0.5239,-0.5679,-26.672,0.183,5.249,-135.165,38.622,155.330
11963,-0.6733,-0.4497,-0.6191,-22.339,3.540,2.319,-135.505,38.644,155.281
11973,-0.6855,-0.3965,-0.6509,-8.484,7.263,-1.892,-135.753,38.611,155.231
11983,-0.6562,-0.3716,-0.6528,9.277,8.850,-7.080,-135.813,38.524,155.220
11992,-0.5762,-0.4673,-0.5913,24.780,8.484,-12.512,-135.604,38.370,155.259
12002,-0.5601,-0.6011,-0.5361,24.902,4.211,-12.268,-135.275,38.216,155.330
12013,-0.5786,-0.6567,-0.5337,9.827,-2.075,-9.399,-135.049,38.128,155.435
12023,-0.5835,-0.7236,-0.4966,-7.874,-3.845,-5.249,-134.973,38.073,155.517
12033,-0.6226,-0.7178,-0.5259,-27.039,-4.883,0.549,-135.126,38.079,155.555
12043,-0.6587,-0.6240,-0.5767,-36.621,-2.747,4.272,-135.478,38.128,155.539
12053,-0.6621,-0.5400,-0.5996,-27.344,2.197,4.211,-135.807,38.156,155.484
12063,-0.6582,-0.4858,-0.6025,-7.568,5.005,1.648,-135.972,38.150,155.424
12072,-0.6445,-0.4687,-0.5923,15.625,6.348,-2.808,-135.890,38.112,155.396
12083,-0.6006,-0.5317,-0.5425,34.607,5.127,-7.507,-135.533,38.024,155.418
12093,-0.5820,-0.6011,-0.4932,37.415,0.610,-7.935,-135.060,37.952,155.484
12103,-0.5811,-0.6406,-0.4746,25.391,-3.174,-5.371,-134.676,37.919,155.561
12112,-0.5928,-0.6230,-0.4868,7.263,-3.967,-1.587,-134.506,37.925,155.610
12123,-0.6089,-0.5703,-0.5181,-8.545,-2.930,1.343,-134.561,37.958,155.627
12133,-0.6157,-0.5449,-0.5425,-16.724,-0.183,2.563,-134.742,37.985,155.605
12143,-0.6201,-0.5430,-0.5630,-16.418,3.052,1.770,-134.945,37.980,155.561
12153,-0.6143,-0.5698,-0.5796,-9.949,5.676,-0.366,-135.077,37.930,155.511
12163,-0.6079,-0.6157,-0.5767,0.244,7.324,-2.014,-135.082,37.842,155.468
12173,-0.6182,-0.6216,-0.5698,7.568,7.202,-1.648,-135.011,37.766,155.418
12183,-0.6499,-0.5396,-0.5820,9.644,5.554,0.977,-134.973,37.749,155.358
12193,-0.6436,-0.4995,-0.5679,11.536,3.784,2.136,-134.929,37.766,155.303
12203,-0.6055,-0.5356,-0.5386,11.292,2.197,0.549,-134.835,37.760,155.281
12212,-0.5830,-0.5693,-0.5210,5.981,-0.793,-0.793,-134.742,37.755,155.292
12223,-0.5688,-0.5825,-0.5107,-0.916,-3.418,-0.427,-134.698,37.760,155.330
12233,-0.6030,-0.5708,-0.5122,-9.583,-4.822,2.808,-134.753,37.815,155.347
12242,-0.6289,-0.5161,-0.5518,-16.541,-4.150,4.578,-134.940,37.897,155.341
12253,-0.6245,-0.4878,-0.5737,-13.428,-1.953,2.380,-135.121,37.947,155.341
12263,-0.6499,-0.4766,-0.5937,-4.211,-0.061,-0.793,-135.220,37.963,155.347
12273,-0.6587,-0.4468,-0.6191,5.798,0.671,-3.784,-135.236,37.963,155.374
12283,-0.6177,-0.4990,-0.6025,15.442,0.671,-6.897,-135.099,37.914,155.429
12293,-0.5854,-0.6030,-0.5610,19.043,-1.282,-8.911,-134.835,37.837,155.522
12303,-0.5889,-0.6738,-0.5474,13.123,-4.272,-8.362,-134.577,37.771,155.638
12313,-0.5918,-0.7422,-0.5371,4.395,-5.981,-5.432,-134.385,37.722,155.737
12323,-0.5981,-0.7271,-0.5454,-4.761,-6.409,-1.160,-134.313,37.716,155.808
12333,-0.6226,-0.6665,-0.5620,-11.292,-5.981,4.272,-134.374,37.766,155.825
12343,-0.6401,-0.5703,-0.5903,-10.681,-4.944,7.446,-134.511,37.853,155.803
12353,-0.6416,-0.4844,-0.5962,-2.380,-4.150,7.263,-134.615,37.958,155.775
12363,-0.6284,-0.4639,-0.5801,6.836,-3.784,5.249,-134.621,38.040,155.764
12373,-0.5918,-0.5195,-0.5415,12.695,-4.944,2.747,-134.500,38.095,155.781
12383,-0.5757,-0.5889,-0.4951,10.559,-7.324,1.099,-134.313,38.145,155.836
12393,-0.5942,-0.6172,-0.4834,1.526,-9.033,1.404,-134.193,38.205,155.907
12403,-0.6050,-0.6714,-0.4648,-5.859,-6.775,3.357,-134.138,38.260,155.940
12413,-0.6284,-0.6626,-0.4683,-12.085,-2.869,5.615,-134.182,38.315,155.918
12423,-0.6616,-0.5576,-0.5112,-14.648,1.404,7.568,-134.363,38.386,155.836
12433,-0.6592,-0.4805,-0.5400,-9.399,6.104,8.423,-134.572,38.447,155.704
12443,-0.6460,-0.4170,-0.5688,-1.831,7.996,6.775,-134.764,38.480,155.572
12453,-0.6201,-0.4102,-0.5728,5.554,6.470,1.953,-134.857,38.474,155.495
12463,-0.5864,-0.5083,-0.5498,9.583,2.930,-2.747,-134.786,38.430,155.495
12473,-0.5835,-0.6069,-0.5229,4.333,-2.197,-4.456,-134.665,38.392,155.555
12483,-0.6089,-0.6504,-0.5146,-6.714,-5.493,-2.747,-134.621,38.392,155.627
12493,-0.6445,-0.6460,-0.5171,-16.541,-4.333,1.099,-134.709,38.425,155.660
12503,-0.6538,-0.5708,-0.5454,-21.057,-0.305,3.601,-134.923,38.463,155.627
12513,-0.6562,-0.4619,-0.5791,-17.090,4.150,3.540,-135.203,38.491,155.561
12523,-0.6484,-0.4150,-0.6035,-6.042,7.935,0.793,-135.412,38.469,155.479
12533,-0.6187,-0.4370,-0.6118,6.348,9.338,-3.906,-135.472,38.386,155.435
12543,-0.5728,-0.5474,-0.5933,13.550,6.042,-7.446,-135.346,38.260,155.446
12553,-0.6045,-0.7187,-0.5645,1.526,-7.080,-4.395,-135.198,38.232,155.550
12563,-0.6274,-0.7319,-0.5552,-4.944,-8.545,-1.038,-135.110,38.249,155.638
12573,-0.6611,-0.6509,-0.5640,-8.850,-7.080,2.808,-135.132,38.309,155.671
12583,-0.6631,-0.5488,-0.5742,-7.080,-3.418,5.798,-135.231,38.386,155.654
12593,-0.6328,-0.4878,-0.5576,0.122,0.183,5.493,-135.297,38.447,155.599
12603,-0.6040,-0.4971,-0.5366,8.301,2.563,2.075,-135.258,38.452,155.561
12613,-0.5796,-0.5664,-0.5229,14.771,3.784,-1.465,-135.099,38.403,155.539
12623,-0.5771,-0.6577,-0.5103,16.235,3.174,-2.197,-134.868,38.326,155.528
12633,-0.6123,-0.6675,-0.5239,11.292,0.427,0.977,-134.698,38.309,155.517
12643,-0.6523,-0.6050,-0.5552,5.554,-1.282,5.737,-134.648,38.359,155.479
12653,-0.6606,-0.5337,-0.5649,3.540,-2.258,8.972,-134.670,38.458,155.418
12663,-0.6460,-0.4434,-0.5649,2.075,-4.456,8.667,-134.742,38.584,155.380
12673,-0.6157,-0.4136,-0.5376,-0.488,-6.836,6.958,-134.824,38.716,155.380
12683,-0.6030,-0.4194,-0.5054,-5.981,-9.216,4.333,-134.912,38.853,155.424
12693,-0.5996,-0.4219,-0.4976,-12.024,-9.888,-0.183,-135.022,38.958,155.517
12703,-0.6040,-0.4980,-0.4971,-12.695,-6.287,-5.249,-135.082,38.979,155.621
12713,-0.6304,-0.5937,-0.5151,-10.254,-0.305,-8.850,-135.088,38.919,155.704
12723,-0.6572,-0.6382,-0.5581,-5.920,5.676,-10.071,-135.082,38.798,155.742
12733,-0.6562,-0.6416,-0.6021,-0.671,9.277,-8.057,-135.077,38.655,155.731
12743,-0.6382,-0.6675,-0.6133,3.906,8.179,-3.540,-135.038,38.540,155.693
12753,-0.6313,-0.6265,-0.6094,4.944,2.747,0.122,-135.000,38.491,155.665
12763,-0.6255,-0.5518,-0.6016,3.662,-2.991,2.502,-134.984,38.518,155.671
12773,-0.6221,-0.5034,-0.5796,2.136,-7.751,3.235,-134.978,38.600,155.709
12783,-0.6035,-0.5264,-0.5557,1.465,-10.376,1.465,-134.929,38.683,155.792
12793,-0.5991,-0.5757,-0.5332,1.038,-10.132,-0.977,-134.835,38.732,155.891
12803,-0.6172,-0.6128,-0.5317,0.610,-7.568,-1.709,-134.736,38.760,155.978
12813,-0.6279,-0.6460,-0.5312,0.732,-3.845,-0.671,-134.654,38.760,156.017
12823,-0.6323,-0.6299,-0.5342,1.282,-1.099,1.221,-134.599,38.765,156.017
12833,-0.6328,-0.5918,-0.5444,2.136,-0.488,3.235,-134.572,38.787,155.989
12843,-0.6245,-0.6021,-0.5229,4.089,-0.916,4.944,-134.517,38.820,155.956
12853,-0.6274,-0.5371,-0.5225,3.113,-3.174,5.371,-134.495,38.892,155.934
12863,-0.6348,-0.4600,-0.5205,2.075,-5.737,5.798,-134.517,39.007,155.934
12873,-0.6406,-0.4409,-0.5039,1.099,-7.141,5.310,-134.539,39.144,155.951
12883,-0.6377,-0.4448,-0.4976,-1.160,-6.531,2.258,-134.561,39.249,155.995
12893,-0.6333,-0.4741,-0.4937,-3.052,-3.235,-1.770,-134.577,39.293,156.039
12903,-0.6260,-0.5303,-0.4795,-4.089,0.916,-4.822,-134.572,39.271,156.072
12913,-0.6265,-0.5581,-0.4893,-7.141,4.150,-5.859,-134.599,39.210,156.088
12923,-0.6187,-0.6304,-0.4971,-8.972,7.202,-5.493,-134.632,39.106,156.072
12933,-0.6064,-0.6987,-0.5078,-8.606,9.399,-5.066,-134.659,38.969,156.033
12943,-0.6177,-0.7012,-0.5459,-8.301,10.376,-2.319,-134.720,38.837,155.956
12953,-0.6421,-0.6147,-0.5923,-6.165,9.277,2.441,-134.841,38.771,155.852
12963,-0.6543,-0.5054,-0.6182,-0.549,6.165,5.737,-134.967,38.771,155.742
12973,-0.6479,-0.4526,-0.5981,6.836,2.625,5.676,-135.027,38.815,155.671
12983,-0.6265,-0.4561,-0.5752,10.498,-0.427,2.808,-135.005,38.853,155.649
12993,-0.6060,-0.4868,-0.5576,9.338,-2.563,-1.160,-134.929,38.870,155.682
13003,-0.5991,-0.5503,-0.5454,5.127,-3.906,-3.906,-134.830,38.859,155.753
13013,-0.5996,-0.6162,-0.5415,0.427,-3.906,-4.883,-134.742,38.826,155.830
13023,-0.6167,-0.6528,-0.5508,-3.235,-2.502,-3.662,-134.692,38.787,155.885
13033,-0.6392,-0.6396,-0.5713,-4.822,-0.793,-0.366,-134.703,38.765,155.896
13043,-0.6484,-0.5776,-0.5933,-2.808,0.305,2.380,-134.758,38.776,155.874
13053,-0.6509,-0.5088,-0.5889,3.113,0.732,3.052,-134.791,38.804,155.841
13063,-0.6475,-0.4321,-0.5796,7.507,-0.793,2.136,-134.813,38.853,155.830
13073,-0.6230,-0.4009,-0.5513,8.118,-3.601,-0.244,-134.802,38.914,155.863
13083,-0.6138,-0.4248,-0.5156,3.662,-7.385,-2.747,-134.764,38.979,155.956
13093,-0.6084,-0.4985,-0.4961,-4.089,-9.827,-5.920,-134.714,39.029,156.099
13103,-0.5991,-0.6123,-0.4751,-9.888,-8.545,-8.545,-134.648,39.012,156.253
13113,-0.6167,-0.7036,-0.4824,-13.489,-5.188,-8.240,-134.604,38.963,156.374
13123,-0.6343,-0.7490,-0.5083,-13.062,0.671,-5.554,-134.599,38.875,156.418
13133,-0.6411,-0.7344,-0.5376,-8.484,6.226,-1.221,-134.632,38.787,156.374
13143,-0.6533,-0.6689,-0.5601,-1.160,9.033,3.662,-134.665,38.732,156.259
13153,-0.6543,-0.5869,-0.5625,6.165,9.277,6.958,-134.687,38.716,156.110
13163,-0.6343,-0.5059,-0.5562,10.864,6.836,7.629,-134.692,38.738,155.978
13173,-0.6221,-0.4370,-0.5527,11.597,2.625,6.165,-134.698,38.793,155.901
13183,-0.6143,-0.4189,-0.5391,8.362,-1.587,3.784,-134.698,38.859,155.880
13193,-0.5986,-0.4478,-0.5186,1.953,-4.578,0.244,-134.698,38.919,155.918
13203,-0.5996,-0.4956,-0.5234,-5.615,-4.944,-3.296,-134.725,38.936,155.995
13213,-0.6099,-0.5708,-0.5410,-9.155,-2.014,-5.127,-134.764,38.903,156.061
13223,-0.6187,-0.6318,-0.5620,-9.094,1.709,-4.883,-134.808,38.831,156.088
13233,-0.6323,-0.6597,-0.5796,-6.714,3.845,-2.930,-134.846,38.749,156.083
13243,-0.6445,-0.6406,-0.5933,-2.502,4.517,-0.671,-134.868,38.694,156.044
13253,-0.6499,-0.6187,-0.5771,3.174,4.333,1.343,-134.852,38.661,155.995
13263,-0.6436,-0.5576,-0.5654,6.104,2.747,2.625,-134.824,38.661,155.945
13273,-0.6387,-0.4814,-0.5483,5.737,-0.916,3.113,-134.819,38.716,155.923
13283,-0.6343,-0.4438,-0.5371,4.150,-4.700,2.136,-134.819,38.798,155.951
13293,-0.6177,-0.4687,-0.5259,2.197,-6.775,-1.038,-134.791,38.864,156.022
13303,-0.5972,-0.5225,-0.5132,0.061,-7.629,-4.883,-134.714,38.886,156.132
13313,-0.6099,-0.6016,-0.5200,-2.808,-5.981,-6.042,-134.637,38.875,156.242
13323,-0.6235,-0.6523,-0.5371,-5.432,-1.648,-4.761,-134.604,38.826,156.302
13333,-0.6284,-0.6519,-0.5571,-7.080,2.319,-2.563,-134.632,38.765,156.302
13343,-0.6353,-0.5908,-0.5791,-6.775,3.418,0.061,-134.714,38.732,156.270
13353,-0.6357,-0.5483,-0.5674,-3.479,2.502,1.831,-134.786,38.727,156.231
13363,-0.6289,-0.5317,-0.5483,-0.122,0.244,1.587,-134.808,38.743,156.215
13373,-0.6167,-0.5400,-0.5278,1.038,-1.709,0.183,-134.786,38.760,156.231
13383,-0.6201,-0.5410,-0.5210,-0.732,-2.747,-0.122,-134.769,38.787,156.253
13393,-0.6240,-0.5566,-0.5332,-3.174,-3.601,0.000,-134.769,38.815,156.286
13403,-0.6240,-0.6157,-0.5479,-2.991,-2.930,-0.244,-134.747,38.815,156.319
13413,-0.6211,-0.6938,-0.5601,-1.709,-0.916,0.122,-134.703,38.787,156.324
13423,-0.6309,-0.7241,-0.5737,-0.488,1.831,2.625,-134.670,38.749,156.286
13433,-0.6357,-0.6504,-0.5801,0.366,3.174,6.042,-134.687,38.738,156.198
13443,-0.6431,-0.5610,-0.5654,2.441,2.930,9.521,-134.742,38.787,156.088
13453,-0.6426,-0.4707,-0.5532,4.944,2.136,10.437,-134.808,38.875,155.973
13463,-0.6313,-0.4072,-0.5376,7.568,0.488,8.057,-134.863,38.969,155.896
13473,-0.6279,-0.3735,-0.5205,9.399,-1.465,4.028,-134.879,39.062,155.874
13483,-0.6196,-0.3940,-0.5063,8.911,-3.052,-0.366,-134.846,39.133,155.907
13493,-0.6089,-0.4600,-0.4922,5.493,-3.662,-4.517,-134.764,39.155,155.978
13503,-0.6274,-0.5098,-0.5044,-1.221,-2.686,-7.202,-134.720,39.144,156.066
13513,-0.6519,-0.4907,-0.5366,-7.507,-0.061,-8.301,-134.775,39.111,156.143
13523,-0.6562,-0.4390,-0.5620,-10.315,2.319,-8.911,-134.912,39.067,156.204
13533,-0.6465,-0.4141,-0.5620,-9.705,2.686,-10.925,-135.049,39.012,156.281
13543,-0.6196,-0.4370,-0.5381,-7.751,1.892,-15.381,-135.110,38.919,156.401
13553,-0.6021,-0.5054,-0.5044,-9.277,0.916,-19.165,-135.093,38.793,156.566
13563,-0.5801,-0.6021,-0.5010,-14.709,0.183,-21.179,-135.066,38.617,156.758
13573,-0.5630,-0.7422,-0.5015,-17.456,1.343,-21.423,-135.016,38.397,156.940
13583,-0.5864,-0.8477,-0.5210,-16.235,3.967,-17.029,-134.973,38.172,157.061
13593,-0.6152,-0.9336,-0.5586,-12.268,5.493,-8.972,-134.934,37.980,157.088
13603,-0.6201,-1.0029,-0.5796,-4.761,9.094,0.366,-134.885,37.820,157.006
13613,-0.6455,-0.9136,-0.6162,1.160,9.644,10.681,-134.874,37.755,156.824
13623,-0.6665,-0.7271,-0.6421,6.165,9.216,20.630,-134.940,37.804,156.555
13633,-0.6523,-0.5571,-0.6230,9.827,7.690,27.344,-135.066,37.941,156.242
13643,-0.6294,-0.4165,-0.6021,8.667,2.869,28.748,-135.253,38.150,155.962
13653,-0.6060,-0.3022,-0.5771,7.080,-2.686,24.231,-135.472,38.386,155.764
13663,-0.5908,-0.2251,-0.5566,6.348,-6.226,15.930,-135.692,38.600,155.676
13673,-0.5747,-0.2393,-0.5234,4.700,-7.690,6.714,-135.840,38.765,155.682
13683,-0.5625,-0.3140,-0.5010,0.488,-7.080,-1.099,-135.906,38.859,155.759
13693,-0.5859,-0.3945,-0.5103,-5.737,-5.127,-6.470,-135.961,38.886,155.863
13703,-0.6084,-0.5029,-0.5181,-9.338,-0.854,-9.216,-136.000,38.837,155.956
13713,-0.6289,-0.6274,-0.5303,-10.376,3.784,-10.071,-136.005,38.727,156.011
13723,-0.6436,-0.7202,-0.5469,-10.803,6.531,-8.789,-136.011,38.589,156.039
13733,-0.6650,-0.7358,-0.5757,-10.376,6.714,-4.761,-136.044,38.480,156.022
13743,-0.6782,-0.6938,-0.6074,-7.263,5.249,0.427,-136.099,38.419,155.973
13753,-0.6777,-0.6206,-0.6226,-1.648,2.930,4.700,-136.148,38.425,155.901
13763,-0.6543,-0.5444,-0.6187,5.188,-0.244,5.676,-136.148,38.463,155.852
13773,-0.6265,-0.5049,-0.6035,11.230,-4.089,4.211,-136.082,38.524,155.847
13783,-0.5957,-0.5049,-0.5732,14.099,-7.507,1.648,-135.934,38.584,155.901
13793,-0.5762,-0.5298,-0.5356,12.085,-9.888,-0.122,-135.753,38.639,155.989
13803,-0.5742,-0.5513,-0.5063,5.859,-9.766,-0.610,-135.604,38.694,156.083
13813,-0.5889,-0.5610,-0.5000,-0.977,-7.080,0.122,-135.538,38.738,156.143
13823,-0.6108,-0.5620,-0.5000,-4.639,-2.563,0.854,-135.538,38.765,156.160
13833,-0.6372,-0.5435,-0.5181,-5.005,1.648,0.977,-135.582,38.776,156.138
13843,-0.6558,-0.5229,-0.5366,-2.319,5.005,0.610,-135.637,38.771,156.083
13853,-0.6553,-0.4995,-0.5601,1.404,6.226,-0.671,-135.681,38.749,156.033
13863,-0.6387,-0.5103,-0.5654,4.456,4.761,-2.075,-135.676,38.710,156.011
13873,-0.6318,-0.5400,-0.5688,4.639,1.038,-2.869,-135.626,38.683,156.028
13883,-0.6250,-0.5557,-0.5679,3.113,-2.808,-3.296,-135.560,38.677,156.083
13893,-0.6274,-0.5811,-0.5527,1.648,-5.066,-2.563,-135.483,38.688,156.154
13903,-0.6245,-0.6108,-0.5464,-0.488,-4.822,-1.343,-135.417,38.699,156.209
13913,-0.6167,-0.6128,-0.5386,-1.526,-2.258,-0.610,-135.374,38.694,156.237
13923,-0.6172,-0.5864,-0.5386,-0.244,0.549,0.000,-135.352,38.683,156.231
13933,-0.6260,-0.5552,-0.5410,2.319,3.479,0.671,-135.341,38.666,156.193
13943,-0.6206,-0.5210,-0.5566,5.005,5.615,0.122,-135.335,38.633,156.143
13953,-0.6128,-0.5210,-0.5601,7.446,6.287,-0.732,-135.313,38.584,156.088
13963,-0.6099,-0.5381,-0.5610,7.202,3.845,-1.648,-135.264,38.540,156.072
13973,-0.6187,-0.5542,-0.5610,3.845,-0.183,-1.465,-135.214,38.529,156.088
13983,-0.6338,-0.5635,-0.5640,-0.610,-3.906,-0.793,-135.192,38.546,156.127
13993,-0.6406,-0.5688,-0.5635,-3.540,-6.042,-0.488,-135.187,38.589,156.187
14003,-0.6372,-0.5913,-0.5713,-2.563,-5.920,-1.099,-135.159,38.611,156.253
14013,-0.6191,-0.6543,-0.5713,4.211,-4.456,-2.380,-135.044,38.595,156.313
14023,-0.5991,-0.7251,-0.5732,14.404,-4.517,-2.686,-134.791,38.557,156.379
14033,-0.5952,-0.7729,-0.5576,23.621,-6.836,0.671,-134.434,38.540,156.434
14043,-0.6318,-0.7163,-0.5669,25.635,-11.292,8.362,-134.099,38.639,156.462
14053,-0.6597,-0.5718,-0.5771,22.034,-15.991,16.663,-133.896,38.875,156.462
14063,-0.6685,-0.4380,-0.5747,13.855,-20.935,22.034,-133.846,39.210,156.456
14073,-0.6543,-0.3296,-0.5645,4.150,-26.001,21.057,-133.934,39.600,156.511
14083,-0.6299,-0.2778,-0.5439,-2.930,-27.344,13.672,-134.066,39.946,156.643
14093,-0.6030,-0.2900,-0.5078,-7.080,-25.696,3.845,-134.171,40.210,156.852
14103,-0.6016,-0.3457,-0.4868,-11.719,-22.095,-3.845,-134.236,40.386,157.094
14113,-0.6289,-0.4463,-0.4761,-15.869,-15.991,-9.094,-134.269,40.468,157.324
14123,-0.6348,-0.5894,-0.4907,-17.273,-9.216,-13.062,-134.258,40.430,157.533
14133,-0.6274,-0.7715,-0.4951,-13.367,-3.479,-14.282,-134.171,40.292,157.698
14143,-0.6440,-0.8276,-0.4980,-8.972,-2.991,-11.230,-134.044,40.166,157.830
14153,-0.6860,-0.8101,-0.5059,-6.531,-5.493,-2.625,-133.940,40.144,157.901
14163,-0.7026,-0.7500,-0.5083,-5.127,-7.263,7.446,-133.896,40.221,157.901
14173,-0.6855,-0.6255,-0.5039,-1.587,-9.155,11.597,-133.868,40.369,157.885
14183,-0.6875,-0.4580,-0.5146,2.319,-9.583,12.268,-133.907,40.567,157.863
14193,-0.6738,-0.3711,-0.5107,4.395,-8.240,10.803,-133.978,40.765,157.846
14203,-0.6411,-0.3569,-0.4927,4.211,-6.653,6.042,-134.033,40.913,157.852
14213,-0.6172,-0.3716,-0.4937,0.488,-3.052,-1.587,-134.088,40.963,157.896
14223,-0.5820,-0.4487,-0.5112,-3.113,1.465,-9.094,-134.121,40.886,157.967
14233,-0.5723,-0.5835,-0.5146,-5.310,3.418,-12.451,-134.094,40.726,158.049
14243,-0.6104,-0.6675,-0.5190,-7.263,2.014,-11.719,-134.044,40.578,158.137
14253,-0.6387,-0.7441,-0.5210,-5.188,1.526,-8.423,-133.967,40.457,158.198
14263,-0.6763,-0.7261,-0.5200,-1.099,2.075,-2.808,-133.890,40.386,158.203
14273,-0.7002,-0.6919,-0.5249,2.319,1.953,3.418,-133.830,40.386,158.154
14283,-0.7070,-0.5962,-0.5244,4.944,1.587,7.812,-133.813,40.441,158.066
14293,-0.6948,-0.4834,-0.5513,5.432,-0.183,9.155,-133.857,40.540,157.989
14303,-0.6650,-0.4707,-0.5469,5.859,-2.014,8.545,-133.896,40.633,157.928
14313,-0.6372,-0.4766,-0.5337,4.700,-3.906,5.005,-133.896,40.710,157.917
14323,-0.6260,-0.4766,-0.5288,2.258,-4.944,0.488,-133.885,40.754,157.961
14333,-0.6338,-0.4995,-0.5054,0.916,-3.113,-1.831,-133.863,40.770,158.011
14343,-0.6553,-0.4502,-0.4980,-1.099,0.549,-3.662,-133.896,40.776,158.038
14353,-0.6650,-0.3838,-0.4980,-2.258,5.005,-5.554,-134.000,40.759,158.038
14363,-0.6484,-0.3545,-0.4873,-2.136,7.507,-8.179,-134.121,40.715,158.044
14373,-0.5879,-0.4805,-0.4634,-1.404,6.775,-12.573,-134.099,40.583,158.093
14383,-0.5811,-0.6260,-0.4580,-2.869,3.967,-15.442,-133.978,40.408,158.198
14393,-0.6323,-0.7148,-0.4795,-6.897,0.244,-13.367,-133.868,40.270,158.318
14403,-0.6992,-0.6543,-0.5156,-10.803,-1.587,-7.812,-133.868,40.226,158.406
14413,-0.7109,-0.6235,-0.5586,-13.000,-1.465,-2.136,-133.951,40.221,158.439
14423,-0.6802,-0.6553,-0.5522,-9.644,-0.366,-0.549,-134.006,40.199,158.445
14433,-0.6592,-0.5791,-0.5610,-4.700,0.122,-2.625,-134.039,40.172,158.467
14443,-0.6450,-0.5557,-0.5459,-1.587,0.000,-2.075,-134.044,40.155,158.489
14453,-0.5859,-0.6289,-0.4937,-1.221,0.244,-1.221,-133.995,40.100,158.494
14463,-0.5752,-0.6260,-0.4863,-6.042,-0.061,-1.892,-133.978,40.051,158.516
14473,-0.6318,-0.5459,-0.5239,-9.094,2.441,-0.488,-134.083,40.029,158.494
14483,-0.6836,-0.4258,-0.5547,-8.484,5.615,0.977,-134.286,40.040,158.434
14493,-0.6836,-0.3564,-0.5952,-5.493,8.301,-0.610,-134.533,40.023,158.362
14503,-0.6562,-0.3677,-0.6147,0.916,7.996,-6.470,-134.681,39.946,158.346
14513,-0.6050,-0.5347,-0.5786,7.141,5.249,-13.000,-134.594,39.792,158.417
14523,-0.5908,-0.7168,-0.5371,5.127,1.038,-14.893,-134.385,39.617,158.544
14533,-0.6128,-0.8188,-0.5127,-2.075,-2.991,-11.658,-134.198,39.485,158.676
14543,-0.6343,-0.8433,-0.4883,-7.874,-4.883,-5.005,-134.077,39.419,158.769
14553,-0.6602,-0.7852,-0.4771,-10.376,-3.296,3.052,-134.050,39.424,158.769
14564,-0.6865,-0.6001,-0.4883,-7.996,-0.183,8.972,-134.127,39.512,158.692
14573,-0.6899,-0.4141,-0.5024,-1.404,4.456,11.230,-134.297,39.633,158.549
14583,-0.6514,-0.3423,-0.5015,6.470,9.216,8.911,-134.451,39.705,158.384
14593,-0.6191,-0.2900,-0.5171,9.216,9.888,2.197,-134.594,39.716,158.269
14603,-0.5630,-0.3755,-0.5244,7.751,7.324,-5.676,-134.626,39.639,158.258
14613,-0.5342,-0.5786,-0.5166,1.953,4.150,-10.376,-134.544,39.490,158.313
14623,-0.5840,-0.7114,-0.5400,-7.629,-0.183,-10.803,-134.478,39.353,158.412
14633,-0.6401,-0.8311,-0.5488,-11.841,-0.366,-7.080,-134.445,39.238,158.478
14643,-0.6855,-0.8457,-0.5635,-11.353,2.380,-0.732,-134.462,39.161,158.461
14653,-0.7192,-0.7061,-0.6025,-7.629,3.784,6.165,-134.550,39.166,158.373
14663,-0.7085,-0.5322,-0.6006,2.319,5.249,11.536,-134.665,39.232,158.220
14673,-0.6689,-0.3979,-0.5815,12.390,5.737,11.963,-134.753,39.320,158.060
14683,-0.6387,-0.3027,-0.5649,15.869,3.967,8.301,-134.835,39.408,157.945
14693,-0.5942,-0.3062,-0.5410,13.977,0.183,1.831,-134.863,39.463,157.928
14703,-0.5537,-0.3970,-0.5161,7.080,-3.784,-5.493,-134.819,39.457,158.016
14713,-0.5493,-0.5376,-0.5088,-2.991,-6.775,-10.498,-134.731,39.402,158.170
14723,-0.5898,-0.6846,-0.5107,-11.047,-7.385,-10.742,-134.659,39.331,158.340
14733,-0.6318,-0.7832,-0.5195,-14.404,-4.395,-7.996,-134.621,39.254,158.450
14743,-0.6719,-0.7817,-0.5415,-13.000,0.183,-2.808,-134.632,39.194,158.472
14753,-0.6948,-0.6836,-0.5571,-7.568,3.418,3.662,-134.692,39.183,158.412
14763,-0.6904,-0.5283,-0.5508,1.526,5.005,8.057,-134.769,39.238,158.291
14773,-0.6650,-0.4351,-0.5391,9.766,5.066,8.301,-134.813,39.304,158.170
14783,-0.6440,-0.3701,-0.5308,12.817,3.113,5.188,-134.835,39.375,158.093
14793,-0.6025,-0.3984,-0.5186,10.132,-0.122,-0.244,-134.808,39.408,158.099
14803,-0.5737,-0.4839,-0.5176,2.441,-4.028,-5.493,-134.753,39.391,158.181
14813,-0.5825,-0.6162,-0.5225,-6.348,-6.836,-8.118,-134.681,39.348,158.318
14823,-0.6133,-0.7090,-0.5342,-11.841,-6.714,-7.202,-134.643,39.298,158.450
14833,-0.6436,-0.7192,-0.5483,-11.475,-3.906,-4.333,-134.637,39.254,158.522
14843,-0.6621,-0.6606,-0.5566,-5.859,-0.427,-0.183,-134.648,39.238,158.527
14853,-0.6836,-0.5342,-0.5435,2.625,2.197,3.540,-134.659,39.276,158.478
14863,-0.6704,-0.4399,-0.5264,9.949,4.578,4.456,-134.670,39.326,158.395
14873,-0.6348,-0.3862,-0.5249,13.367,5.737,1.831,-134.670,39.348,158.324
14883,-0.6040,-0.4082,-0.5142,11.963,3.540,-3.235,-134.621,39.331,158.318
14893,-0.5854,-0.4897,-0.5186,4.456,0.244,-7.385,-134.555,39.282,158.384
14903,-0.5918,-0.5928,-0.5259,-5.615,-3.540,-8.789,-134.511,39.216,158.500
14913,-0.6123,-0.7095,-0.5269,-12.512,-5.920,-7.690,-134.478,39.161,158.621
14923,-0.6431,-0.7739,-0.5293,-16.724,-4.517,-4.639,-134.495,39.111,158.708
14933,-0.6660,-0.7285,-0.5469,-16.785,-1.343,0.366,-134.577,39.095,158.714
14943,-0.6768,-0.6118,-0.5581,-11.780,1.221,5.432,-134.709,39.122,158.654
14953,-0.6670,-0.4922,-0.5566,-3.967,2.747,7.446,-134.846,39.188,158.560
14963,-0.6411,-0.4092,-0.5586,3.296,3.235,4.883,-134.945,39.232,158.489
14973,-0.6147,-0.3892,-0.5625,7.385,2.563,-0.305,-134.989,39.243,158.467
14983,-0.5811,-0.4673,-0.5566,7.629,0.366,-5.615,-134.934,39.194,158.516
14993,-0.5728,-0.5771,-0.5513,3.296,-2.563,-8.728,-134.824,39.117,158.621
15003,-0.6089,-0.6855,-0.5430,-2.258,-5.493,-8.057,-134.709,39.056,158.741
15013,-0.6479,-0.7300,-0.5435,-5.127,-5.310,-5.005,-134.615,39.018,158.835
15023,-0.6768,-0.6772,-0.5405,-4.333,-2.991,-1.099,-134.577,39.023,158.873
15033,-0.6934,-0.5518,-0.5444,-0.183,-0.671,2.625,-134.588,39.073,158.857
15043,-0.6733,-0.4438,-0.5210,7.996,1.038,3.479,-134.588,39.144,158.813
15053,-0.6494,-0.3613,-0.5054,13.977,1.709,0.854,-134.561,39.210,158.791
15064,-0.6187,-0.3687,-0.5020,12.451,0.427,-2.319,-134.517,39.249,158.807
15073,-0.5640,-0.4810,-0.4849,6.042,-1.099,-6.592,-134.423,39.210,158.879
15083,-0.5361,-0.5977,-0.4927,-6.653,-2.380,-9.460,-134.374,39.117,158.983
15093,-0.5708,-0.6772,-0.5088,-21.301,-3.052,-7.080,-134.451,39.034,159.077
15103,-0.6265,-0.7256,-0.5542,-31.250,-1.892,-2.319,-134.665,38.990,159.115
15113,-0.6572,-0.7153,-0.5801,-26.245,0.671,-1.282,-134.868,38.941,159.120
15123,-0.6870,-0.6367,-0.5937,-10.315,2.869,-1.160,-134.956,38.903,159.104
15133,-0.7051,-0.5811,-0.5850,7.202,4.028,0.366,-134.912,38.897,159.066
15143,-0.6646,-0.5103,-0.5581,22.156,4.761,-1.221,-134.742,38.881,159.033
15153,-0.6201,-0.4805,-0.5234,28.564,2.991,-3.418,-134.484,38.853,159.038
15163,-0.6143,-0.4629,-0.5029,20.691,0.549,-2.258,-134.297,38.864,159.055
15173,-0.5859,-0.4751,-0.5098,3.357,-1.831,-1.526,-134.275,38.881,159.082
15183,-0.5352,-0.5762,-0.5034,-11.353,-2.258,-3.113,-134.324,38.837,159.131
15193,-0.5615,-0.6792,-0.5156,-21.362,-1.465,-2.869,-134.440,38.771,159.170
15203,-0.6445,-0.6172,-0.5449,-23.193,-0.183,-1.648,-134.632,38.754,159.186
15213,-0.7012,-0.4912,-0.5806,-14.404,2.197,-0.549,-134.835,38.771,159.170
15223,-0.7222,-0.3936,-0.5703,1.038,4.578,-0.488,-134.951,38.809,159.137
15233,-0.6548,-0.3867,-0.5542,15.198,5.371,-5.798,-134.901,38.787,159.137
15243,-0.5698,-0.5107,-0.5249,22.095,5.554,-11.963,-134.654,38.655,159.197
15253,-0.5337,-0.6821,-0.4897,16.357,3.723,-14.160,-134.346,38.469,159.291
15263,-0.5518,-0.7871,-0.4907,-0.610,0.366,-10.925,-134.171,38.309,159.384
15273,-0.5942,-0.8247,-0.5215,-17.456,-2.319,-4.028,-134.187,38.227,159.439
15283,-0.6382,-0.7905,-0.5552,-24.475,-2.502,2.869,-134.341,38.216,159.439
15293,-0.6890,-0.6675,-0.6025,-19.531,-1.038,7.812,-134.550,38.271,159.379
15303,-0.6953,-0.5449,-0.6025,-4.395,2.136,9.338,-134.687,38.348,159.274
15313,-0.6611,-0.4629,-0.5767,10.986,4.272,7.874,-134.709,38.408,159.164
15323,-0.6172,-0.4009,-0.5591,18.372,3.418,4.822,-134.670,38.452,159.093
15333,-0.5708,-0.4014,-0.5210,19.470,0.000,0.427,-134.561,38.480,159.088
15343,-0.5566,-0.4663,-0.4902,11.963,-3.845,-3.479,-134.418,38.491,159.153
15353,-0.5771,-0.5312,-0.4971,-1.770,-6.165,-4.944,-134.363,38.502,159.252
15363,-0.6094,-0.5620,-0.5269,-11.963,-4.822,-5.310,-134.412,38.496,159.346
15373,-0.6504,-0.5786,-0.5498,-14.954,-0.916,-4.761,-134.517,38.474,159.395
15383,-0.6519,-0.6157,-0.5757,-11.902,2.869,-4.700,-134.610,38.414,159.412
15393,-0.6372,-0.6602,-0.5723,-4.089,5.798,-4.883,-134.621,38.315,159.406
15403,-0.6250,-0.6987,-0.5635,3.113,6.042,-3.784,-134.544,38.210,159.384
15413,-0.6177,-0.7065,-0.5439,6.592,4.761,-0.366,-134.434,38.139,159.346
15423,-0.6226,-0.6553,-0.5410,5.493,2.075,3.418,-134.363,38.134,159.296
15433,-0.6362,-0.5679,-0.5425,3.479,-0.427,6.165,-134.352,38.188,159.241
15443,-0.6440,-0.4727,-0.5537,2.502,-1.282,6.531,-134.407,38.276,159.197
15453,-0.6250,-0.4419,-0.5664,2.441,-1.160,4.211,-134.478,38.342,159.170
15463,-0.5947,-0.4795,-0.5640,3.479,-0.916,0.549,-134.489,38.353,159.175
15473,-0.5854,-0.4932,-0.5635,3.479,-2.136,-3.052,-134.473,38.348,159.219
15483,-0.5879,-0.5557,-0.5527,2.441,-2.869,-3.845,-134.412,38.326,159.280
15493,-0.5991,-0.6245,-0.5366,-0.183,-2.258,-3.174,-134.346,38.293,159.329
15503,-0.6050,-0.6895,-0.5269,-2.747,-0.916,-2.563,-134.286,38.249,159.362
15513,-0.6240,-0.7158,-0.5259,-3.662,1.404,0.122,-134.253,38.210,159.346
15523,-0.6489,-0.6553,-0.5527,-4.272,1.831,4.089,-134.286,38.216,159.291
15533,-0.6548,-0.5771,-0.5757,-0.427,1.221,6.653,-134.341,38.260,159.225
15543,-0.6484,-0.5200,-0.5898,7.019,-0.244,5.981,-134.341,38.315,159.170
15553,-0.6328,-0.5093,-0.5830,15.381,-2.136,3.113,-134.242,38.359,159.164
15564,-0.6206,-0.4897,-0.5566,20.142,-4.333,0.061,-134.061,38.408,159.203
15573,-0.6104,-0.5039,-0.5146,17.334,-6.531,-0.427,-133.868,38.469,159.269
15583,-0.5957,-0.5303,-0.4741,7.263,-7.202,0.244,-133.731,38.535,159.329
15593,-0.5908,-0.5576,-0.4463,-4.456,-5.920,-0.305,-133.693,38.584,159.390
15603,-0.6025,-0.6123,-0.4238,-13.428,-1.526,-0.305,-133.726,38.595,159.406
15613,-0.6191,-0.6040,-0.4541,-20.569,4.028,0.854,-133.890,38.584,159.362
15623,-0.6323,-0.5322,-0.5044,-19.470,8.667,1.099,-134.132,38.551,159.269
15633,-0.6455,-0.4976,-0.5391,-9.155,11.902,0.000,-134.319,38.496,159.159
15643,-0.6406,-0.5127,-0.5664,2.441,12.451,-2.197,-134.390,38.414,159.066
15653,-0.6079,-0.5796,-0.5747,10.376,10.071,-5.188,-134.319,38.287,159.022
15663,-0.5537,-0.7803,-0.5332,12.207,5.859,-5.554,-134.099,38.128,159.016
15673,-0.5513,-0.9805,-0.4888,3.174,1.343,0.183,-133.901,38.007,159.005
15683,-0.6191,-1.0063,-0.5083,-12.451,-0.427,10.498,-133.907,37.991,158.917
15693,-0.6934,-0.7930,-0.5703,-23.254,3.662,22.034,-134.193,38.095,158.687
15703,-0.7036,-0.5137,-0.6343,-22.095,7.874,29.785,-134.687,38.282,158.351
15713,-0.6758,-0.2896,-0.6479,-7.385,8.484,28.992,-135.181,38.480,158.016
15723,-0.6514,-0.1968,-0.6465,12.939,7.141,20.874,-135.483,38.628,157.764
15733,-0.6055,-0.1855,-0.6294,31.189,4.822,7.568,-135.527,38.688,157.648
15743,-0.5444,-0.2573,-0.5669,38.025,0.977,-4.517,-135.330,38.677,157.681
15753,-0.5356,-0.3721,-0.5195,25.330,-6.104,-8.362,-135.088,38.672,157.813
15763,-0.5830,-0.4121,-0.5132,0.732,-11.536,-8.728,-135.033,38.721,157.994
15773,-0.6221,-0.4692,-0.5117,-21.973,-10.925,-8.667,-135.165,38.771,158.176
15783,-0.6396,-0.5596,-0.5229,-36.133,-6.592,-8.545,-135.412,38.765,158.313
15793,-0.6523,-0.6143,-0.5557,-39.551,-2.686,-9.521,-135.703,38.716,158.423
15803,-0.6641,-0.6289,-0.5854,-29.846,0.366,-10.864,-135.912,38.628,158.522
15813,-0.6704,-0.6636,-0.5918,-12.695,1.587,-10.132,-135.945,38.529,158.599
15823,-0.6631,-0.6719,-0.5815,2.563,0.916,-8.179,-135.829,38.452,158.665
15833,-0.6392,-0.6338,-0.5542,11.658,-2.014,-6.470,-135.621,38.408,158.741
15843,-0.6250,-0.6084,-0.5176,13.794,-5.310,-4.456,-135.379,38.408,158.829
15853,-0.6069,-0.6035,-0.4990,8.606,-7.507,-2.930,-135.176,38.436,158.923
15863,-0.5820,-0.6069,-0.4937,1.221,-7.812,-2.869,-135.044,38.452,159.022
15873,-0.5874,-0.6147,-0.5181,-4.028,-5.920,-2.258,-134.989,38.458,159.093
15883,-0.5864,-0.6509,-0.5435,-3.906,-1.770,-1.221,-134.962,38.419,159.120
15893,-0.6060,-0.6333,-0.5654,1.099,0.793,-0.488,-134.918,38.386,159.120
15903,-0.6323,-0.6055,-0.5688,10.254,1.709,0.244,-134.813,38.364,159.099
15913,-0.6567,-0.5371,-0.5635,18.005,1.770,0.793,-134.665,38.375,159.077
15923,-0.6455,-0.4932,-0.5547,20.874,0.427,0.793,-134.500,38.403,159.066
15933,-0.6191,-0.4927,-0.5435,17.639,-2.502,0.183,-134.346,38.441,159.088
15943,-0.6016,-0.5166,-0.5293,7.996,-7.324,-0.366,-134.236,38.496,159.159
15953,-0.5937,-0.5645,-0.5151,-2.869,-11.536,-0.732,-134.176,38.562,159.269
15963,-0.6045,-0.6357,-0.5088,-10.132,-12.024,-0.916,-134.149,38.617,159.390
15973,-0.6299,-0.6709,-0.5156,-12.268,-8.728,0.000,-134.154,38.661,159.467
15983,-0.6421,-0.6694,-0.5161,-7.568,-3.723,1.282,-134.149,38.683,159.494
15993,-0.6577,-0.5977,-0.5273,0.122,1.343,3.357,-134.149,38.705,159.450
16003,-0.6611,-0.5049,-0.5327,7.324,4.333,5.371,-134.154,38.743,159.362
16013,-0.6431,-0.4351,-0.5435,11.108,5.249,5.127,-134.176,38.787,159.269
16023,-0.6143,-0.4287,-0.5503,10.681,4.333,2.319,-134.187,38.798,159.208
