elapsed_ms,acc_x_g,acc_y_g,acc_z_g,gyro_x_dps,gyro_y_dps,gyro_z_dps,angle_x_deg,angle_y_deg,angle_z_deg
0,-0.7441,-0.4258,-0.5166,-25.146,-5.188,37.170,-127.612,41.380,175.424
10,-0.7476,-0.2896,-0.5420,-11.047,-2.563,40.405,-128.161,41.808,175.122
20,-0.7104,-0.3218,-0.5186,16.113,-4.089,30.823,-128.342,42.149,174.913
30,-0.6523,-0.5215,-0.4497,42.297,-12.390,10.132,-127.919,42.314,174.957
40,-0.6216,-0.7891,-0.3848,51.514,-24.719,-13.733,-127.035,42.286,175.336
50,-0.6191,-0.9565,-0.3169,43.335,-36.316,-34.180,-125.975,42.127,176.006
60,-0.6465,-0.8369,-0.3237,22.827,-43.030,-38.940,-125.085,42.001,176.786
71,-0.7134,-0.5386,-0.3721,10.437,-35.950,-19.165,-124.612,42.105,177.330
80,-0.7554,-0.2705,-0.4351,17.883,-18.494,12.695,-124.601,42.451,177.435
90,-0.7671,-0.1177,-0.4600,45.532,1.404,37.048,-124.761,42.902,177.138
100,-0.7251,-0.2690,-0.4438,78.613,14.099,40.405,-124.541,43.270,176.666
110,-0.6450,-0.6499,-0.3296,96.985,13.977,21.729,-123.728,43.347,176.336
120,-0.5610,-1.0186,-0.2173,79.834,-1.099,-7.751,-122.673,43.143,176.407
130,-0.5273,-1.1289,-0.1948,30.212,-22.339,-31.921,-121.811,42.808,176.902
140,-0.5776,-0.8560,-0.2622,-22.705,-36.011,-34.729,-121.437,42.605,177.567
150,-0.6440,-0.4932,-0.3740,-52.795,-34.363,-7.690,-121.712,42.753,178.022
160,-0.7139,-0.2139,-0.4448,-54.993,-17.517,32.104,-122.602,43.242,177.995
170,-0.7910,0.0664,-0.5537,-34.790,-0.427,59.814,173.161,43.857,177.556
180,-0.8086,-0.1362,-0.5610,11.047,11.475,57.068,-166.349,43.786,176.792
190,-0.7192,-0.4966,-0.3965,57.861,9.521,20.447,-165.608,43.792,176.484
200,-0.6636,-0.7905,-0.2827,64.819,-6.042,-24.048,-164.174,43.731,176.825
210,-0.6396,-0.9717,-0.2568,39.063,-21.301,-53.650,-162.647,43.676,177.621
220,-0.6201,-0.8696,-0.2676,4.700,-32.166,-61.340,-161.400,43.709,178.566
230,-0.6514,-0.6177,-0.3608,-18.372,-34.424,-40.588,-160.703,43.890,179.247
240,-0.6812,-0.6025,-0.4048,-17.090,-22.034,-7.324,-160.367,44.066,179.445
250,-0.7261,-0.4854,-0.4297,-3.540,-12.451,13.428,-160.197,44.264,179.324
260,-0.7305,-0.5254,-0.4341,21.606,-6.897,14.404,-159.785,44.407,179.171
270,-0.6768,-0.7266,-0.3398,53.345,-4.089,-1.343,-158.785,44.396,179.209
280,-0.6616,-0.9131,-0.2554,62.317,-5.554,-16.113,-157.473,44.297,179.445
290,-0.6353,-0.9365,-0.2285,47.913,-10.681,-18.555,-156.253,44.214,179.742
300,-0.6084,-0.8716,-0.2207,24.658,-14.099,-6.958,-155.374,44.214,179.912
310,-0.6436,-0.6982,-0.2715,1.099,-14.832,14.526,-154.990,44.368,179.813
320,-0.6992,-0.5508,-0.3071,-10.254,-12.268,32.776,-154.968,44.654,179.467
330,-0.7310,-0.4199,-0.3403,-7.629,-8.911,36.743,-155.072,44.978,179.055
340,-0.7720,-0.3379,-0.3716,6.836,-5.005,27.039,-155.056,45.253,178.737
350,-0.7646,-0.4780,-0.3433,30.823,0.366,6.165,-154.512,45.346,178.654
360,-0.7056,-0.6987,-0.2412,47.852,1.953,-16.724,-153.441,45.242,178.857
370,-0.6826,-0.7754,-0.2173,36.682,-3.113,-26.978,-152.347,45.104,179.220
380,-0.6602,-0.7769,-0.2563,14.099,-6.836,-22.583,-151.534,44.995,179.550
390,-0.6426,-0.8027,-0.2812,-4.211,-5.432,-7.446,-151.062,44.929,179.681
400,-0.6543,-0.7212,-0.3281,-19.592,-4.272,9.766,-150.958,44.962,179.588
410,-0.6816,-0.5825,-0.3916,-28.687,-2.075,22.766,-151.155,45.077,179.319
420,-0.7271,-0.5195,-0.4365,-22.705,1.892,27.710,-151.419,45.214,178.962
430,-0.7441,-0.5518,-0.4302,-1.587,3.174,19.470,-151.386,45.297,178.698
440,-0.7417,-0.6382,-0.3730,20.752,1.099,4.639,-150.914,45.302,178.632
450,-0.7231,-0.6904,-0.3369,29.602,-3.479,-4.883,-150.216,45.291,178.720
460,-0.6821,-0.7710,-0.2964,26.428,-8.972,-5.859,-149.464,45.280,178.857
470,-0.6577,-0.7812,-0.2588,12.756,-12.939,0.305,-148.865,45.330,178.945
480,-0.6616,-0.6958,-0.2739,-10.315,-13.733,13.000,-148.634,45.472,178.885
490,-0.7070,-0.5537,-0.3198,-31.433,-11.169,25.513,-148.821,45.725,178.660
500,-0.7573,-0.4292,-0.3755,-37.537,-6.714,28.137,-149.222,45.994,178.363
510,-0.8071,-0.4248,-0.3906,-20.752,0.183,15.930,-149.403,46.159,178.165
520,-0.7798,-0.4863,-0.3701,12.329,7.874,-10.071,-149.013,46.099,178.231
530,-0.7266,-0.5996,-0.3262,39.673,11.963,-29.663,-148.118,45.857,178.511
540,-0.6763,-0.7148,-0.2925,47.729,10.437,-32.898,-147.057,45.549,178.835
550,-0.6357,-0.7720,-0.2461,41.199,3.357,-25.940,-146.052,45.308,179.116
560,-0.6309,-0.7427,-0.2358,22.339,-5.188,-11.963,-145.322,45.220,179.302
571,-0.6670,-0.6904,-0.2529,1.038,-10.864,3.967,-144.926,45.302,179.341
580,-0.7236,-0.5874,-0.2798,-16.418,-13.916,13.489,-144.827,45.516,179.297
590,-0.7451,-0.5737,-0.2925,-22.095,-13.123,13.611,-144.805,45.736,179.247
600,-0.7476,-0.6592,-0.2817,-18.066,-10.315,5.981,-144.657,45.862,179.264
610,-0.7358,-0.7427,-0.2769,-9.644,-7.935,-7.019,-144.305,45.857,179.412
620,-0.7119,-0.6846,-0.2983,2.258,-5.676,-17.029,-143.800,45.780,179.659
630,-0.6597,-0.6313,-0.3066,17.944,-2.075,-14.587,-143.207,45.687,179.841
640,-0.6406,-0.6504,-0.2520,30.945,1.343,-2.319,-142.570,45.632,179.857
650,-0.6621,-0.5688,-0.2290,28.870,-0.366,10.925,-142.064,45.714,179.736
660,-0.6899,-0.5146,-0.2266,16.052,-2.991,21.851,-141.779,45.923,179.517
670,-0.7329,-0.6104,-0.1938,1.343,-4.211,23.987,-141.592,46.132,179.286
680,-0.7729,-0.4932,-0.2778,-19.897,-3.784,-6.592,-141.487,46.198,179.390
690,-0.7749,-0.5439,-0.3403,-8.972,4.883,-20.203,-141.251,46.077,179.577
700,-0.7397,-0.5698,-0.3765,13.489,11.963,-32.532,-140.757,45.797,179.835
710,-0.6704,-0.6880,-0.3540,35.095,14.587,-36.072,-139.982,45.406,-179.890
720,-0.6387,-0.8262,-0.2964,43.640,11.536,-28.809,-139.098,45.044,-179.681
730,-0.6519,-0.7783,-0.2910,31.616,4.028,-13.184,-138.428,44.857,-179.577
740,-0.6616,-0.7651,-0.2900,12.756,0.854,6.592,-138.082,44.835,-179.659
750,-0.7017,-0.7358,-0.2949,-7.385,-0.122,21.057,-138.043,44.945,-179.879
760,-0.7271,-0.5864,-0.3315,-20.813,-1.404,21.423,-138.214,45.121,179.907
770,-0.7300,-0.5322,-0.3696,-17.456,-1.892,12.695,-138.334,45.247,179.791
780,-0.7144,-0.5591,-0.3511,0.000,-3.296,-0.244,-138.148,45.291,179.824
790,-0.6997,-0.5801,-0.3193,15.930,-8.667,-10.376,-137.659,45.302,-179.978
800,-0.6963,-0.6177,-0.2739,27.649,-13.733,-14.038,-136.956,45.313,-179.698
810,-0.6597,-0.6855,-0.1934,32.471,-18.188,-13.489,-136.099,45.330,-179.385
820,-0.6548,-0.7212,-0.1313,22.766,-20.996,-8.057,-135.308,45.385,-179.094
830,-0.6816,-0.7388,-0.1211,2.441,-20.569,-1.465,-134.769,45.489,-178.874
840,-0.7070,-0.6909,-0.1377,-15.381,-14.465,2.502,-134.500,45.604,-178.753
850,-0.7354,-0.6196,-0.2100,-25.879,-3.662,4.150,-134.506,45.687,-178.759
860,-0.7485,-0.6440,-0.2407,-21.912,10.010,1.770,-134.566,45.648,-178.874
870,-0.7246,-0.6226,-0.2939,-10.620,19.226,-6.042,-134.572,45.478,-179.011
880,-0.6831,-0.5747,-0.3584,4.272,22.766,-10.742,-134.489,45.242,-179.138
890,-0.6602,-0.7236,-0.3379,17.639,20.569,-8.057,-134.214,44.989,-179.264
900,-0.6587,-0.7637,-0.3037,18.188,8.850,-5.859,-133.830,44.824,-179.297
910,-0.6519,-0.7793,-0.2876,8.789,-4.700,-2.502,-133.456,44.769,-179.225
920,-0.6738,-0.8369,-0.2358,-2.014,-13.000,2.686,-133.127,44.808,-179.116
930,-0.6885,-0.7446,-0.2251,-15.381,-17.822,5.615,-132.924,44.934,-178.989
940,-0.6978,-0.6309,-0.2451,-20.874,-15.076,8.179,-132.858,45.104,-178.907
950,-0.7354,-0.5449,-0.2622,-15.137,-5.798,10.071,-132.863,45.275,-178.945
960,-0.7480,-0.4263,-0.2993,-1.343,5.249,7.080,-132.885,45.390,-179.072
970,-0.7480,-0.4678,-0.2886,17.395,16.602,0.916,-132.731,45.368,-179.253
980,-0.7090,-0.5430,-0.2622,28.870,22.705,-7.568,-132.391,45.203,-179.418
990,-0.6626,-0.7251,-0.2266,23.926,22.339,-14.038,-131.973,44.907,-179.517
1000,-0.6606,-0.8887,-0.1943,6.042,17.334,-18.860,-131.616,44.566,-179.522
1010,-0.6719,-0.9126,-0.2285,-17.944,9.094,-20.264,-131.457,44.264,-179.429
1020,-0.6650,-0.8330,-0.2856,-29.846,5.676,-16.174,-131.462,44.039,-179.335
1030,-0.6748,-0.6841,-0.3496,-27.832,5.432,-5.554,-131.600,43.934,-179.341
1040,-0.7090,-0.5601,-0.3867,-13.611,6.287,7.080,-131.754,43.967,-179.473
1050,-0.7187,-0.6006,-0.3628,8.728,7.507,12.207,-131.693,44.022,-179.665
1060,-0.7065,-0.5928,-0.3052,23.682,5.371,8.606,-131.407,44.077,-179.797
1071,-0.6792,-0.6323,-0.2920,21.301,0.977,5.432,-131.072,44.116,-179.857
1080,-0.6787,-0.7275,-0.2451,15.564,-0.916,0.854,-130.693,44.099,-179.857
1090,-0.6919,-0.7012,-0.2412,1.160,-4.944,-4.272,-130.402,44.088,-179.764
1100,-0.7100,-0.6230,-0.2881,-11.108,-4.822,-4.272,-130.292,44.110,-179.676
1110,-0.7197,-0.6143,-0.3164,-10.559,-1.953,-2.930,-130.232,44.121,-179.626
1120,-0.7339,-0.6021,-0.3276,-2.441,-1.343,-3.723,-130.106,44.127,-179.583
1130,-0.7310,-0.6440,-0.3081,8.972,-1.587,-5.005,-129.831,44.116,-179.517
1140,-0.6997,-0.6904,-0.2812,18.677,-3.784,-6.165,-129.402,44.083,-179.423
1150,-0.6704,-0.8379,-0.2090,21.057,-6.714,-3.540,-128.870,44.039,-179.319
1160,-0.6372,-0.8530,-0.2061,11.108,-10.925,-0.366,-128.425,44.022,-179.198
1170,-0.6323,-0.8989,-0.2236,-0.793,-11.047,5.188,-128.134,44.033,-179.121
1180,-0.6851,-0.8828,-0.2412,-8.423,-6.104,13.245,-128.024,44.099,-179.171
1190,-0.7300,-0.7329,-0.3081,-10.986,0.305,20.325,-128.101,44.242,-179.346
1200,-0.7710,-0.5703,-0.3701,2.747,10.620,25.330,-128.254,44.418,-179.681
1210,-0.7759,-0.5459,-0.3408,32.715,18.799,25.146,-128.161,44.555,179.885
1220,-0.7378,-0.6470,-0.2417,56.824,18.127,22.827,-127.700,44.648,179.489
1230,-0.7158,-0.6938,-0.1772,57.434,9.766,20.569,-127.095,44.753,179.203
1240,-0.6904,-0.7490,-0.1318,43.457,-0.122,19.226,-126.508,44.879,179.044
1250,-0.6636,-0.7158,-0.1514,22.705,-7.080,19.226,-126.090,45.049,178.962
1260,-0.6919,-0.5679,-0.2314,2.502,-8.423,23.315,-125.997,45.319,178.863
1270,-0.7432,-0.5342,-0.2612,-4.211,-6.470,29.358,-126.063,45.654,178.693
1280,-0.7432,-0.5601,-0.2783,2.380,-7.080,27.466,-126.046,45.956,178.544
1290,-0.7114,-0.6069,-0.2822,21.606,-9.094,15.503,-125.739,46.143,178.517
1300,-0.6333,-0.8052,-0.2295,44.556,-10.193,5.066,-125.046,46.148,178.594
1310,-0.5996,-0.9229,-0.1763,52.917,-10.437,4.272,-124.217,46.110,178.682
1320,-0.5879,-0.8672,-0.1592,44.800,-7.446,14.160,-123.552,46.143,178.654
1330,-0.5747,-0.6792,-0.1807,28.992,0.732,32.593,-123.272,46.335,178.385
1340,-0.5981,-0.4956,-0.2051,11.597,10.559,50.720,-123.426,46.719,177.858
1351,-0.6733,-0.3638,-0.2168,-4.028,18.127,58.044,-123.937,47.208,177.171
1360,-0.7246,-0.2271,-0.2505,-13.123,20.874,47.485,-124.673,47.664,176.523
1370,-0.7471,-0.2407,-0.2681,-13.000,24.658,24.475,-125.310,47.889,176.017
1381,-0.7490,-0.4126,-0.2456,-9.277,29.236,-4.028,-125.590,47.785,175.693
1390,-0.6890,-0.6313,-0.2412,-12.024,31.860,-29.846,-125.656,47.340,175.567
1401,-0.6621,-0.6929,-0.2886,-23.499,30.945,-42.847,-125.760,46.758,175.567
1411,-0.7114,-0.6597,-0.3740,-31.738,29.419,-40.222,-126.019,46.225,175.562
1421,-0.7720,-0.7036,-0.4072,-26.672,31.555,-26.062,-126.326,45.807,175.413
1431,-0.8184,-0.6709,-0.4380,-17.944,33.569,-11.292,-126.678,45.516,175.122
1441,-0.8105,-0.5913,-0.4834,-7.202,33.752,-2.380,-127.035,45.313,174.754
1451,-0.7896,-0.5928,-0.4722,6.042,30.457,0.488,-127.238,45.143,174.402
1461,-0.7622,-0.6289,-0.4272,14.282,18.372,-1.892,-127.200,45.016,174.216
1471,-0.7305,-0.6948,-0.3599,16.113,-0.122,-7.080,-126.898,44.945,174.276
1480,-0.7251,-0.6963,-0.3208,13.062,-20.935,-11.902,-126.409,44.956,174.611
1490,-0.7319,-0.7012,-0.2891,9.705,-37.476,-11.902,-125.804,45.071,175.139
1501,-0.7368,-0.7949,-0.2217,8.850,-45.898,-8.423,-125.096,45.236,175.737
1510,-0.7231,-0.7822,-0.1719,4.333,-49.988,-4.822,-124.393,45.450,176.358
1520,-0.6943,-0.7412,-0.1562,1.648,-46.631,0.732,-123.766,45.692,176.896
1530,-0.6772,-0.7119,-0.1235,6.409,-36.072,7.263,-123.201,45.923,177.270
1540,-0.6782,-0.6353,-0.1108,10.620,-25.330,12.512,-122.717,46.170,177.479
1550,-0.7104,-0.6226,-0.1016,12.878,-13.489,16.479,-122.333,46.401,177.512
1560,-0.7500,-0.5928,-0.1143,13.733,-1.892,15.259,-122.047,46.588,177.418
1571,-0.7573,-0.5854,-0.1460,11.658,7.629,11.108,-121.882,46.686,177.237
1580,-0.7397,-0.6484,-0.1475,8.057,14.404,8.179,-121.783,46.697,176.995
1591,-0.7231,-0.6489,-0.1812,-2.441,13.428,6.348,-121.800,46.681,176.781
1601,-0.7153,-0.5913,-0.2349,-11.475,8.057,5.920,-121.921,46.708,176.633
1611,-0.7295,-0.5679,-0.2734,-13.062,1.770,6.897,-122.042,46.780,176.561
1621,-0.7515,-0.5640,-0.2739,-9.766,-4.333,5.859,-122.069,46.884,176.567
1631,-0.7563,-0.5142,-0.2847,-5.310,-9.460,2.014,-122.020,47.005,176.671
1641,-0.7417,-0.5947,-0.2544,2.563,-10.315,-1.709,-121.800,47.065,176.808
1651,-0.7109,-0.7109,-0.2061,7.812,-8.118,-6.470,-121.459,47.021,176.962
1660,-0.6855,-0.8032,-0.1875,3.235,-5.493,-8.911,-121.146,46.901,177.100
1670,-0.6973,-0.7700,-0.2026,-4.028,-0.732,-6.348,-120.976,46.796,177.155
1681,-0.7202,-0.6294,-0.2559,-7.446,4.639,0.549,-121.009,46.774,177.094
1691,-0.7417,-0.5171,-0.2861,-2.625,10.498,9.338,-121.157,46.846,176.891
1701,-0.7422,-0.4424,-0.3057,4.639,12.512,12.207,-121.328,46.961,176.644
1711,-0.7275,-0.5308,-0.2734,10.925,9.521,6.897,-121.306,47.005,176.473
1721,-0.7119,-0.6357,-0.2241,11.353,1.892,-4.578,-121.064,46.950,176.484
1731,-0.6875,-0.6890,-0.2144,4.517,-7.385,-15.076,-120.734,46.829,176.688
1741,-0.6802,-0.7671,-0.1821,-3.418,-12.268,-17.578,-120.388,46.681,176.973
1751,-0.6953,-0.7241,-0.1948,-12.695,-13.062,-13.306,-120.168,46.593,177.237
1761,-0.7246,-0.6582,-0.2290,-17.090,-8.911,-5.859,-120.119,46.582,177.391
1771,-0.7451,-0.6108,-0.2383,-12.268,-2.136,-0.732,-120.125,46.609,177.424
1781,-0.7539,-0.6074,-0.2256,-2.625,4.028,-0.488,-120.092,46.609,177.380
1791,-0.7334,-0.6294,-0.2314,6.592,9.094,-3.601,-119.987,46.544,177.292
1801,-0.7031,-0.6582,-0.2183,12.634,12.573,-7.141,-119.822,46.412,177.182
1811,-0.6816,-0.5874,-0.2432,8.911,11.292,-6.104,-119.734,46.307,177.083
1821,-0.6963,-0.5459,-0.2559,2.014,7.751,-1.465,-119.729,46.285,176.995
1831,-0.7163,-0.5479,-0.2407,-2.625,2.563,-1.831,-119.707,46.296,176.979
1841,-0.7397,-0.5034,-0.2319,-7.141,-3.418,-7.935,-119.658,46.313,177.078
1851,-0.7520,-0.5664,-0.2388,-10.437,-5.920,-13.733,-119.570,46.269,177.253
1861,-0.7412,-0.7261,-0.2041,-8.728,-3.174,-20.203,-119.383,46.093,177.435
1871,-0.7031,-0.8071,-0.2153,-11.108,0.854,-25.024,-119.229,45.813,177.599
1881,-0.6880,-0.8853,-0.2529,-13.184,9.277,-21.545,-119.207,45.489,177.638
1891,-0.6909,-0.8110,-0.3159,-13.489,17.029,-12.695,-119.344,45.231,177.512
1901,-0.7109,-0.6714,-0.3960,-10.559,22.034,-0.488,-119.652,45.088,177.242
1911,-0.7412,-0.6396,-0.4072,-0.122,24.048,9.277,-119.932,45.044,176.885
1921,-0.7578,-0.6099,-0.3770,8.179,18.494,9.705,-120.081,45.049,176.589
1931,-0.7544,-0.5503,-0.3638,9.399,6.470,4.944,-120.097,45.099,176.473
1941,-0.7476,-0.6084,-0.3096,10.071,-6.287,0.366,-119.916,45.159,176.550
1951,-0.7290,-0.6699,-0.2588,6.775,-19.592,-4.395,-119.570,45.220,176.819
1961,-0.7075,-0.7241,-0.2158,0.305,-29.236,-7.568,-119.147,45.280,177.231
1971,-0.6885,-0.7520,-0.1938,-3.723,-33.447,-7.751,-118.707,45.335,177.704
1981,-0.6953,-0.6846,-0.1963,-3.967,-30.762,-4.333,-118.328,45.434,178.116
1991,-0.7202,-0.5532,-0.2344,1.343,-21.545,1.526,-118.076,45.593,178.374
2001,-0.7373,-0.5068,-0.2319,14.160,-9.766,5.798,-117.845,45.764,178.462
2011,-0.7227,-0.5513,-0.1924,24.780,-0.793,3.784,-117.521,45.857,178.445
2021,-0.7051,-0.6069,-0.1421,23.499,1.648,-1.038,-117.158,45.868,178.429
2031,-0.6880,-0.6616,-0.1294,12.146,-1.221,-5.066,-116.840,45.824,178.478
2041,-0.6865,-0.7666,-0.1099,-2.319,-5.066,-6.287,-116.603,45.747,178.583
2051,-0.6865,-0.8101,-0.1167,-17.334,-9.216,-5.920,-116.477,45.681,178.742
2061,-0.6968,-0.8101,-0.1758,-28.259,-10.132,-3.479,-116.510,45.637,178.890
2071,-0.7183,-0.7427,-0.2354,-28.809,-5.432,0.610,-116.658,45.637,178.956
2081,-0.7383,-0.6245,-0.3149,-20.142,0.366,5.127,-116.884,45.692,178.923
2091,-0.7397,-0.6514,-0.3174,-1.160,7.446,7.935,-116.988,45.725,178.775
2101,-0.7373,-0.6235,-0.3086,14.832,9.033,5.310,-116.944,45.742,178.627
2111,-0.7202,-0.6230,-0.3076,25.146,6.470,1.770,-116.752,45.731,178.533
2121,-0.7197,-0.7129,-0.2529,29.358,2.563,1.160,-116.422,45.709,178.489
2131,-0.7026,-0.7202,-0.2314,21.179,-4.883,0.793,-116.082,45.709,178.550
2141,-0.6948,-0.7056,-0.2139,8.911,-11.658,2.441,-115.807,45.758,178.682
2151,-0.7065,-0.6587,-0.1987,-1.892,-15.503,5.188,-115.615,45.873,178.852
2161,-0.7163,-0.5913,-0.2046,-8.423,-15.564,7.019,-115.521,46.033,179.006
2171,-0.7402,-0.5308,-0.2217,-8.667,-13.000,6.897,-115.488,46.208,179.132
2181,-0.7417,-0.5581,-0.2178,-0.732,-7.629,1.831,-115.395,46.307,179.220
2191,-0.7271,-0.5801,-0.2012,7.996,-2.258,-5.493,-115.203,46.302,179.286
2201,-0.7241,-0.6040,-0.2104,10.559,1.343,-8.545,-115.016,46.241,179.319
2211,-0.7246,-0.6626,-0.1943,8.667,3.723,-7.935,-114.846,46.159,179.319
2221,-0.7197,-0.6602,-0.2061,0.854,3.174,-6.165,-114.763,46.088,179.319
2231,-0.7056,-0.7510,-0.1904,-4.700,1.587,-5.249,-114.697,46.000,179.330
2241,-0.6914,-0.7954,-0.1846,-7.446,-0.793,-7.080,-114.615,45.879,179.379
2251,-0.7012,-0.7114,-0.2168,-9.033,-3.296,-6.409,-114.571,45.807,179.462
2261,-0.7251,-0.6367,-0.2622,-3.113,-1.770,-0.305,-114.560,45.824,179.489
2271,-0.7373,-0.6484,-0.2500,7.690,1.587,4.944,-114.489,45.868,179.434
2281,-0.7275,-0.6191,-0.2295,13.062,2.380,5.188,-114.362,45.923,179.374
2291,-0.7148,-0.6587,-0.2144,10.681,2.197,4.089,-114.230,45.950,179.324
2301,-0.6992,-0.7383,-0.1704,5.798,1.831,1.221,-114.082,45.923,179.291
2311,-0.6777,-0.7495,-0.1597,-2.869,0.183,-2.136,-113.983,45.857,179.302
2321,-0.6694,-0.7173,-0.1743,-7.690,1.160,-1.892,-113.956,45.802,179.297
2331,-0.6797,-0.6797,-0.2109,-6.592,3.235,1.831,-113.994,45.786,179.242
2341,-0.7104,-0.6211,-0.2227,1.648,6.104,4.517,-114.011,45.813,179.138
2351,-0.7305,-0.4619,-0.2646,11.902,8.728,5.310,-114.055,45.906,178.989
2361,-0.7412,-0.4150,-0.2715,23.743,11.841,5.920,-114.044,46.016,178.802
2371,-0.7397,-0.5117,-0.2241,28.992,11.108,3.113,-113.868,46.071,178.638
2381,-0.7104,-0.6738,-0.1660,19.958,4.761,-4.944,-113.599,46.000,178.605
2391,-0.6919,-0.7891,-0.1396,-0.916,-3.723,-14.160,-113.379,45.835,178.737
2401,-0.6831,-0.7974,-0.1812,-22.156,-9.583,-18.982,-113.324,45.643,178.967
2411,-0.6909,-0.7593,-0.2261,-30.701,-8.240,-15.930,-113.423,45.483,179.165
2421,-0.7173,-0.6523,-0.3032,-29.724,-4.333,-6.470,-113.665,45.434,179.258
2431,-0.7510,-0.5474,-0.3491,-18.005,-0.916,2.380,-113.934,45.500,179.258
2441,-0.7446,-0.5786,-0.3408,2.197,0.671,4.150,-114.000,45.560,179.225
2451,-0.7046,-0.6680,-0.2661,19.714,-1.892,-1.526,-113.758,45.538,179.258
2461,-0.6670,-0.7144,-0.2271,23.865,-9.949,-7.996,-113.335,45.467,179.434
2471,-0.6558,-0.8188,-0.1782,19.531,-19.348,-10.010,-112.813,45.379,179.747
2481,-0.6631,-0.9004,-0.1392,10.864,-26.184,-9.705,-112.286,45.297,-179.852
2491,-0.6704,-0.8687,-0.1211,0.244,-28.687,-7.019,-111.846,45.264,-179.434
2501,-0.7021,-0.7622,-0.1738,-8.606,-22.522,1.770,-111.638,45.330,-179.149
2511,-0.7466,-0.6372,-0.2222,-8.118,-9.888,12.451,-111.649,45.505,-179.083
2521,-0.7612,-0.4414,-0.2656,0.000,0.732,18.494,-111.819,45.775,-179.193
2531,-0.7407,-0.4219,-0.2500,13.611,9.155,19.043,-111.929,46.027,-179.412
2541,-0.7314,-0.5142,-0.2056,21.912,11.047,12.268,-111.863,46.165,-179.626
2551,-0.7026,-0.6572,-0.1685,19.287,6.592,-1.892,-111.654,46.121,-179.703
2561,-0.6714,-0.7505,-0.1606,8.057,0.305,-15.808,-111.423,45.928,-179.626
2571,-0.6743,-0.7705,-0.1743,-5.737,-4.395,-20.447,-111.275,45.698,-179.462
2581,-0.6934,-0.7280,-0.2090,-16.418,-5.371,-13.977,-111.281,45.560,-179.313
2591,-0.7222,-0.7144,-0.2231,-20.630,-2.319,-2.380,-111.418,45.527,-179.275
2601,-0.7334,-0.6289,-0.2231,-19.043,1.587,5.554,-111.621,45.599,-179.324
2611,-0.7285,-0.5249,-0.2158,-12.939,4.761,8.301,-111.830,45.720,-179.429
2621,-0.7222,-0.5127,-0.1934,-3.723,6.897,6.592,-111.945,45.824,-179.555
2631,-0.7109,-0.5835,-0.1479,5.554,7.019,-0.671,-111.879,45.835,-179.648
2641,-0.7017,-0.6685,-0.1338,8.728,5.371,-10.803,-111.698,45.714,-179.659
2651,-0.6855,-0.7676,-0.1445,7.263,6.165,-18.555,-111.500,45.478,-179.643
2661,-0.6709,-0.8149,-0.1704,4.517,8.118,-20.386,-111.363,45.192,-179.643
2671,-0.6758,-0.8101,-0.2080,0.061,9.155,-14.648,-111.324,44.962,-179.692
2681,-0.6875,-0.8418,-0.2168,-2.380,9.644,-5.615,-111.346,44.813,-179.786
2691,-0.6948,-0.7778,-0.2217,-4.272,7.202,1.648,-111.407,44.758,-179.890
2701,-0.7031,-0.7178,-0.2158,-4.639,4.211,7.080,-111.467,44.791,-179.984
2711,-0.7114,-0.5996,-0.2119,-3.784,1.526,10.254,-111.539,44.918,179.940
2721,-0.7261,-0.4712,-0.2290,-4.150,-1.343,12.024,-111.654,45.126,179.896
2731,-0.7441,-0.4917,-0.2266,-0.549,-1.404,9.644,-111.714,45.308,179.863
2741,-0.7388,-0.5674,-0.2153,3.296,-0.244,-0.610,-111.665,45.357,179.868
2751,-0.7095,-0.6265,-0.2397,2.319,1.648,-12.451,-111.605,45.247,179.912
2761,-0.6904,-0.7187,-0.2505,0.244,3.662,-18.250,-111.544,45.038,179.962
2771,-0.6953,-0.7231,-0.2798,-2.258,4.028,-17.944,-111.533,44.824,-179.995
2781,-0.7017,-0.6841,-0.3018,-1.160,4.517,-13.489,-111.561,44.670,-179.984
2791,-0.7065,-0.6846,-0.2954,3.418,3.967,-7.385,-111.555,44.572,179.995
2801,-0.6885,-0.7466,-0.2461,8.057,0.305,-5.188,-111.429,44.489,-179.973
2811,-0.6846,-0.7861,-0.2065,7.202,-5.188,-6.470,-111.220,44.407,-179.874
2821,-0.6758,-0.8042,-0.1943,2.747,-8.911,-7.263,-111.011,44.319,-179.720
2831,-0.6724,-0.7695,-0.1885,-1.160,-9.583,-4.578,-110.847,44.269,-179.572
2841,-0.6924,-0.7095,-0.1982,-4.028,-8.118,0.427,-110.764,44.291,-179.467
2851,-0.7026,-0.5635,-0.2012,-2.075,-5.493,3.662,-110.737,44.401,-179.418
2861,-0.7080,-0.4268,-0.1689,4.272,-3.845,4.944,-110.682,44.588,-179.390
2871,-0.7021,-0.3232,-0.1089,13.367,-4.578,2.563,-110.495,44.819,-179.341
2881,-0.6846,-0.3564,-0.0254,20.142,-7.263,-4.700,-110.050,44.978,-179.225
2891,-0.6689,-0.4385,0.0425,19.958,-9.644,-17.029,-109.451,44.973,-179.011
2901,-0.6909,-0.5068,0.0356,11.414,-9.888,-30.396,-108.907,44.808,-178.737
2911,-0.7271,-0.5737,-0.0195,-0.732,-3.723,-41.626,-108.578,44.495,-178.500
2921,-0.7314,-0.5356,-0.1313,-14.404,7.751,-47.302,-108.600,44.116,-178.391
2931,-0.7261,-0.6270,-0.2109,-19.531,21.912,-47.668,-108.847,43.632,-178.467
2941,-0.6860,-0.8633,-0.2212,-17.151,33.203,-52.368,-109.105,42.973,-178.665
2951,-0.6255,-1.0210,-0.2656,-18.311,34.302,-61.035,-109.358,42.171,-178.835
2961,-0.5703,-1.1260,-0.3218,-18.677,28.809,-61.035,-109.572,41.342,-178.929
2971,-0.5024,-1.2588,-0.3755,-17.029,21.362,-45.898,-109.753,40.638,-178.995
2981,-0.5044,-1.2891,-0.4009,-11.902,12.146,-20.142,-109.885,40.210,-179.055
2991,-0.5566,-1.0728,-0.4687,-7.935,4.822,9.521,-110.067,40.133,-179.160
3001,-0.6147,-0.8711,-0.4961,5.066,6.958,37.170,-110.270,40.369,-179.412
3011,-0.6763,-0.7344,-0.4585,27.161,11.292,49.805,-110.352,40.770,-179.775
3021,-0.6860,-0.6294,-0.3696,44.861,10.010,48.218,-110.231,41.210,179.874
3031,-0.6616,-0.5537,-0.2700,47.607,2.014,39.978,-109.957,41.633,179.665
3041,-0.6519,-0.4326,-0.1992,37.170,-9.888,30.579,-109.644,42.072,179.648
3051,-0.6587,-0.4785,-0.1372,23.254,-21.362,19.592,-109.259,42.435,179.830
3061,-0.6772,-0.5771,-0.0596,7.874,-27.893,5.432,-108.825,42.649,-179.830
3071,-0.7065,-0.6318,-0.0552,-12.573,-26.978,-10.132,-108.550,42.693,-179.440
3081,-0.7251,-0.6587,-0.1069,-25.574,-16.113,-23.437,-108.501,42.572,-179.127
3091,-0.7100,-0.6792,-0.1846,-23.071,0.854,-32.349,-108.611,42.292,-179.000
3101,-0.6616,-0.7817,-0.2212,-8.301,18.555,-34.607,-108.721,41.874,-179.088
3111,-0.6133,-0.8569,-0.2354,3.174,27.466,-28.137,-108.809,41.451,-179.319
3121,-0.5908,-0.8535,-0.2656,5.066,25.452,-13.367,-108.918,41.166,-179.583
3131,-0.6240,-0.8306,-0.2676,4.333,17.029,3.967,-109.012,41.094,-179.813
3141,-0.6514,-0.8154,-0.2500,2.686,6.714,15.869,-109.067,41.182,-179.967
3151,-0.6792,-0.7471,-0.2578,-1.770,-3.967,19.653,-109.105,41.375,179.995
3161,-0.6748,-0.7100,-0.2725,-1.709,-11.841,14.771,-109.089,41.550,-179.918
3171,-0.6484,-0.7227,-0.2500,4.944,-15.686,5.371,-108.924,41.644,-179.742
3181,-0.6113,-0.7915,-0.1924,12.146,-16.541,-2.747,-108.605,41.622,-179.522
3191,-0.6157,-0.7212,-0.1660,11.353,-15.625,-2.258,-108.298,41.633,-179.313
3201,-0.6489,-0.5923,-0.1846,5.310,-11.230,7.690,-108.166,41.786,-179.203
3211,-0.6890,-0.5156,-0.1548,3.662,-2.747,17.029,-108.138,42.056,-179.236
3221,-0.7046,-0.4507,-0.1450,-1.160,4.211,18.250,-108.232,42.358,-179.368
3231,-0.7129,-0.5610,-0.1157,-7.263,9.766,10.620,-108.353,42.512,-179.539
3241,-0.7090,-0.6948,-0.1006,-14.404,12.695,-5.981,-108.484,42.446,-179.676
3251,-0.6816,-0.7632,-0.1592,-22.644,14.709,-23.865,-108.699,42.166,-179.764
3261,-0.6338,-0.8643,-0.2051,-21.729,18.982,-34.302,-108.924,41.715,-179.857
3271,-0.6035,-0.9214,-0.2417,-16.052,20.020,-34.363,-109.111,41.237,-179.962
3281,-0.6089,-0.8403,-0.2939,-11.108,15.686,-23.010,-109.286,40.902,179.934
3291,-0.6274,-0.7305,-0.3330,-3.601,10.132,-4.639,-109.440,40.798,179.830
3301,-0.6479,-0.6440,-0.3081,8.606,4.028,10.559,-109.479,40.897,179.731
3311,-0.6685,-0.5967,-0.2646,16.724,-3.235,16.663,-109.380,41.111,179.698
3321,-0.6709,-0.6631,-0.2207,18.066,-8.728,13.062,-109.160,41.287,179.753
3331,-0.6519,-0.7666,-0.1816,13.733,-11.902,0.305,-108.869,41.314,179.901
3341,-0.6255,-0.8481,-0.1763,3.418,-12.756,-14.099,-108.616,41.166,-179.874
3351,-0.6270,-0.8970,-0.1792,-8.423,-9.399,-21.240,-108.490,40.930,-179.665
3361,-0.6284,-0.8135,-0.2222,-20.203,-2.319,-17.395,-108.594,40.732,-179.561
3371,-0.6353,-0.6924,-0.2690,-26.245,6.042,-3.723,-108.918,40.677,-179.621
3381,-0.6465,-0.6245,-0.2593,-20.874,11.414,9.094,-109.276,40.754,-179.802
3391,-0.6484,-0.5835,-0.2246,-7.141,11.475,11.169,-109.490,40.875,-179.995
3401,-0.6572,-0.5918,-0.1948,8.850,8.545,4.211,-109.473,40.941,179.874
3411,-0.6499,-0.7324,-0.1597,21.729,7.202,-5.676,-109.226,40.864,179.808
3421,-0.6309,-0.8379,-0.1377,22.827,5.615,-13.428,-108.907,40.677,179.797
3431,-0.6240,-0.8467,-0.1890,11.414,3.113,-13.550,-108.721,40.490,179.819
3441,-0.6343,-0.8198,-0.2266,3.174,4.028,-7.446,-108.666,40.369,179.797
3451,-0.6460,-0.7134,-0.2861,-3.174,3.845,2.319,-108.770,40.380,179.742
3461,-0.6636,-0.6479,-0.3062,-3.601,3.235,11.169,-108.924,40.496,179.654
3471,-0.6484,-0.6455,-0.2808,0.732,0.732,11.658,-109.001,40.627,179.594
3481,-0.6484,-0.6104,-0.2563,3.052,-6.287,6.775,-108.979,40.748,179.643
3491,-0.6494,-0.6255,-0.2495,3.601,-12.207,1.404,-108.875,40.831,179.791
3501,-0.6460,-0.7026,-0.2295,5.249,-14.709,-5.005,-108.682,40.836,179.995
3511,-0.6416,-0.7656,-0.2197,2.930,-15.320,-11.414,-108.468,40.759,-179.758
3521,-0.6333,-0.7734,-0.2310,-1.526,-12.207,-14.771,-108.331,40.633,-179.544
3531,-0.6450,-0.6870,-0.2778,-3.784,-6.042,-12.878,-108.320,40.534,-179.418
3541,-0.6587,-0.6621,-0.2954,0.732,0.977,-6.775,-108.358,40.485,-179.401
3551,-0.6509,-0.6929,-0.2471,9.033,5.737,-4.639,-108.314,40.430,-179.451
3561,-0.6475,-0.6611,-0.2285,9.705,3.845,-5.615,-108.243,40.391,-179.478
3572,-0.6401,-0.7358,-0.1836,8.423,0.122,-7.324,-108.100,40.320,-179.451
3581,-0.6396,-0.8232,-0.1426,4.639,-4.395,-12.024,-107.902,40.188,-179.346
3591,-0.6201,-0.8584,-0.1543,-5.981,-8.301,-15.930,-107.781,40.018,-179.176
3601,-0.5967,-0.8760,-0.1748,-14.099,-7.996,-15.198,-107.754,39.836,-179.017
3611,-0.5986,-0.8467,-0.2168,-18.005,-6.042,-10.437,-107.825,39.705,-178.901
3621,-0.6113,-0.8179,-0.2373,-14.160,-1.892,-3.418,-107.924,39.633,-178.863
3631,-0.6270,-0.7368,-0.2559,-5.005,1.831,2.991,-108.007,39.650,-178.896
3641,-0.6353,-0.6665,-0.2549,7.935,4.578,7.324,-108.012,39.727,-178.984
3651,-0.6323,-0.6479,-0.2148,21.851,5.310,7.690,-107.858,39.814,-179.083
3661,-0.6372,-0.6650,-0.1655,25.391,1.770,6.409,-107.600,39.897,-179.127
3671,-0.6450,-0.6460,-0.1680,16.846,-3.235,3.906,-107.386,39.985,-179.105
3681,-0.6519,-0.6636,-0.1782,4.272,-6.226,0.610,-107.271,40.045,-179.028
3691,-0.6318,-0.7734,-0.1660,-7.629,-7.385,-4.028,-107.227,40.018,-178.923
3701,-0.6162,-0.8413,-0.1660,-20.447,-8.667,-10.132,-107.276,39.902,-178.775
3711,-0.6099,-0.8003,-0.2119,-29.480,-9.277,-14.160,-107.435,39.760,-178.605
3721,-0.6177,-0.7700,-0.2466,-24.353,-5.249,-11.963,-107.611,39.639,-178.489
3731,-0.6348,-0.7095,-0.2720,-10.193,-0.183,-5.127,-107.732,39.595,-178.467
3741,-0.6523,-0.6548,-0.2651,7.080,4.578,2.258,-107.743,39.633,-178.533
3751,-0.6489,-0.6270,-0.2446,21.729,6.958,5.859,-107.633,39.710,-178.643
3761,-0.6357,-0.7397,-0.1763,28.320,5.737,4.822,-107.369,39.743,-178.737
3771,-0.6279,-0.8286,-0.1260,20.569,0.916,-0.610,-107.084,39.705,-178.742
3781,-0.6050,-0.8916,-0.1421,1.648,-2.991,-7.202,-106.946,39.584,-178.676
3791,-0.5977,-0.9463,-0.1636,-14.404,-2.075,-10.620,-106.974,39.413,-178.610
3801,-0.6001,-0.9585,-0.2002,-25.452,0.916,-9.033,-107.161,39.249,-178.588
3811,-0.6084,-0.8633,-0.2485,-28.992,4.333,-3.418,-107.463,39.150,-178.632
3821,-0.6260,-0.6519,-0.3247,-23.499,7.446,6.592,-107.858,39.205,-178.748
3831,-0.6392,-0.6016,-0.3213,-4.395,11.047,16.968,-108.133,39.370,-178.951
3841,-0.6353,-0.6382,-0.2612,16.663,9.949,17.517,-108.127,39.540,-179.143
3851,-0.6138,-0.6924,-0.1948,27.039,1.953,10.437,-107.880,39.639,-179.209
3861,-0.6089,-0.7695,-0.1680,26.062,-7.202,2.991,-107.518,39.672,-179.132
3871,-0.6201,-0.8755,-0.1494,19.592,-12.146,-2.869,-107.139,39.633,-178.973
3881,-0.6255,-0.9424,-0.1455,10.376,-11.414,-4.883,-106.853,39.556,-178.808
3891,-0.6265,-0.8389,-0.1934,-1.831,-7.568,-0.183,-106.771,39.540,-178.715
3901,-0.6470,-0.6738,-0.2661,-11.047,-1.221,12.634,-106.952,39.688,-178.748
3912,-0.6807,-0.5386,-0.2915,-9.155,5.798,24.780,-107.260,39.990,-178.912
3921,-0.7002,-0.3896,-0.2954,-5.493,7.324,28.992,-107.644,40.391,-179.116
3931,-0.6973,-0.3281,-0.2749,-1.587,4.761,25.024,-107.985,40.792,-179.275
3941,-0.6733,-0.5044,-0.2065,5.127,-0.549,9.827,-107.996,40.990,-179.308
3951,-0.6445,-0.7412,-0.1333,5.066,-8.972,-13.977,-107.759,40.880,-179.138
3961,-0.6235,-0.9570,-0.1323,-4.028,-15.015,-37.598,-107.479,40.490,-178.797
3971,-0.5791,-1.1089,-0.1587,-6.897,-12.451,-51.086,-107.227,39.913,-178.440
3981,-0.5376,-1.1929,-0.1924,-6.836,-5.005,-45.654,-107.062,39.337,-178.204
3991,-0.5381,-1.1060,-0.2417,-7.324,3.174,-20.508,-107.062,38.996,-178.165
4001,-0.5762,-0.8799,-0.3071,-6.836,9.094,15.564,-107.254,39.045,-178.336
4011,-0.6372,-0.6841,-0.3057,3.662,13.123,45.410,-107.496,39.446,-178.671
4021,-0.6787,-0.5308,-0.2583,19.287,12.878,55.908,-107.628,40.034,-179.044
4031,-0.6890,-0.4482,-0.2026,29.419,7.690,50.537,-107.589,40.633,-179.341
4041,-0.6704,-0.5122,-0.1416,32.471,-0.183,33.752,-107.336,41.061,-179.473
4051,-0.6455,-0.5830,-0.0996,23.865,-9.644,11.902,-106.974,41.265,-179.396
4061,-0.6343,-0.6855,-0.0952,4.700,-16.846,-5.859,-106.683,41.270,-179.160
4072,-0.6372,-0.7549,-0.0981,-13.000,-17.151,-17.395,-106.529,41.144,-178.874
4081,-0.6504,-0.7178,-0.1636,-26.672,-11.719,-21.179,-106.606,40.979,-178.649
4091,-0.6670,-0.6973,-0.2266,-29.663,-0.854,-16.846,-106.870,40.836,-178.572
4101,-0.6660,-0.6899,-0.2510,-19.958,8.972,-12.329,-107.139,40.704,-178.638
4111,-0.6597,-0.6484,-0.2573,-6.348,14.893,-8.606,-107.347,40.605,-178.792
4121,-0.6543,-0.6514,-0.2559,4.944,17.517,-3.540,-107.474,40.545,-179.000
4131,-0.6509,-0.7422,-0.2305,12.268,16.479,-1.343,-107.479,40.479,-179.198
4141,-0.6362,-0.8511,-0.2031,14.282,11.780,-5.615,-107.375,40.347,-179.324
4151,-0.6030,-0.9102,-0.2075,10.437,6.470,-10.742,-107.254,40.150,-179.363
4161,-0.5830,-0.9146,-0.2236,4.150,1.831,-9.766,-107.166,39.968,-179.352
4171,-0.5942,-0.8687,-0.2471,-2.747,-4.089,-1.343,-107.144,39.902,-179.291
4181,-0.6104,-0.7905,-0.2461,-4.944,-9.338,8.545,-107.144,39.974,-179.209
4191,-0.6289,-0.6616,-0.2412,-2.991,-12.512,15.503,-107.139,40.177,-179.116
4201,-0.6641,-0.5532,-0.2251,3.174,-12.268,18.555,-107.106,40.468,-179.033
4211,-0.6948,-0.5391,-0.1943,11.963,-8.301,15.625,-106.985,40.737,-178.989
4221,-0.6724,-0.6431,-0.1484,19.165,-2.380,5.249,-106.749,40.842,-178.978
4231,-0.6577,-0.7544,-0.1196,16.235,3.357,-7.385,-106.523,40.765,-178.995
4241,-0.6426,-0.7939,-0.1455,3.418,7.080,-15.625,-106.447,40.573,-179.022
4251,-0.6240,-0.7754,-0.1978,-7.141,10.620,-16.541,-106.540,40.358,-179.094
4261,-0.6167,-0.7476,-0.2461,-11.353,13.062,-10.803,-106.749,40.199,-179.220
4271,-0.6250,-0.7446,-0.2603,-9.338,11.230,-2.991,-106.952,40.117,-179.352
4281,-0.6304,-0.7017,-0.2510,-3.601,4.578,1.465,-107.056,40.122,-179.412
4291,-0.6357,-0.6113,-0.2212,3.479,-3.845,3.235,-107.023,40.204,-179.374
4301,-0.6460,-0.6265,-0.1816,11.414,-11.230,3.357,-106.820,40.314,-179.247
4311,-0.6621,-0.6831,-0.1357,22.095,-15.198,-5.432,-106.414,40.342,-179.039
4321,-0.6445,-0.7144,-0.1187,37.048,-13.733,-23.254,-105.809,40.172,-178.781
4331,-0.6172,-0.8447,-0.0913,55.237,-4.272,-37.048,-105.046,39.787,-178.594
4341,-0.5776,-0.9600,-0.0518,57.800,5.249,-37.170,-104.321,39.331,-178.533
4351,-0.5649,-0.8945,-0.0581,33.813,8.301,-20.874,-103.903,39.040,-178.572
4361,-0.5586,-0.8623,-0.0557,-5.920,6.775,5.005,-103.920,39.007,-178.671
4371,-0.5811,-0.7407,-0.0493,-46.448,1.404,24.780,-104.337,39.232,-178.764
4381,-0.6265,-0.5781,-0.1216,-76.843,-8.118,29.602,-105.068,39.611,-178.759
4391,-0.6753,-0.5586,-0.1782,-79.651,-10.010,20.203,-105.848,39.924,-178.698
4401,-0.7153,-0.5229,-0.2871,-59.143,-5.127,-1.526,-106.518,40.029,-178.632
4411,-0.7202,-0.5645,-0.4155,-17.273,6.348,-24.170,-106.880,39.836,-178.621
4421,-0.6392,-0.7788,-0.4229,35.339,21.240,-38.818,-106.721,39.370,-178.737
4431,-0.5830,-0.9619,-0.3853,60.913,26.550,-37.415,-106.287,38.837,-178.929
4441,-0.5752,-1.0107,-0.3516,53.345,21.362,-20.630,-105.908,38.480,-179.116
4451,-0.5806,-0.9722,-0.3267,28.259,12.573,1.343,-105.754,38.370,-179.275
4461,-0.6128,-0.9111,-0.2876,-1.709,2.625,20.081,-105.848,38.496,-179.379
4471,-0.6221,-0.8247,-0.2354,-26.550,-9.033,26.855,-106.100,38.749,-179.363
4481,-0.6172,-0.6655,-0.2095,-38.757,-20.874,21.729,-106.386,39.040,-179.182
4491,-0.6353,-0.5728,-0.2075,-33.447,-27.039,11.108,-106.573,39.293,-178.885
4501,-0.6538,-0.5996,-0.1914,-13.367,-26.367,-1.160,-106.507,39.424,-178.555
4511,-0.6494,-0.5840,-0.2021,7.751,-20.386,-10.559,-106.271,39.452,-178.264
4521,-0.6201,-0.6313,-0.1802,27.100,-10.925,-13.428,-105.886,39.397,-178.077
4531,-0.6162,-0.7588,-0.1250,35.217,-3.723,-10.559,-105.419,39.298,-177.995
4541,-0.5913,-0.8496,-0.0854,30.823,-0.854,-9.705,-104.991,39.161,-177.951
4551,-0.5830,-0.9146,-0.0708,17.273,0.244,-7.812,-104.700,39.018,-177.929
4561,-0.5801,-0.9717,-0.0547,0.427,0.183,-2.869,-104.573,38.908,-177.924
4572,-0.6069,-0.9092,-0.0933,-18.799,-1.831,5.737,-104.672,38.914,-177.918
4581,-0.6362,-0.7705,-0.1802,-30.396,-1.221,14.282,-104.974,39.056,-177.951
4591,-0.6558,-0.6245,-0.2607,-24.780,2.563,18.188,-105.353,39.271,-178.039
4601,-0.6636,-0.5854,-0.2783,-6.958,6.653,16.479,-105.612,39.474,-178.182
4611,-0.6328,-0.6211,-0.2432,11.780,7.874,7.080,-105.634,39.562,-178.303
4621,-0.5908,-0.7065,-0.1685,21.667,3.601,-4.639,-105.414,39.507,-178.330
4631,-0.5796,-0.7778,-0.1206,18.738,-3.113,-9.888,-105.117,39.386,-178.259
4641,-0.5854,-0.8652,-0.0791,9.949,-6.836,-9.644,-104.843,39.260,-178.143
4651,-0.6079,-0.9243,-0.0571,-1.770,-5.066,-6.714,-104.694,39.150,-178.055
4661,-0.6255,-0.9189,-0.0742,-14.038,2.014,-2.441,-104.744,39.067,-178.072
4671,-0.6572,-0.8110,-0.1514,-23.743,13.184,4.333,-105.046,39.073,-178.253
4681,-0.6831,-0.7085,-0.2476,-21.667,28.137,10.742,-105.546,39.133,-178.638
4691,-0.6748,-0.6895,-0.3242,-6.470,43.884,11.536,-106.073,39.155,-179.220
4701,-0.6299,-0.7275,-0.3398,10.681,52.795,6.592,-106.479,39.062,-179.901
4712,-0.5942,-0.7363,-0.3408,16.174,47.974,3.784,-106.782,38.936,179.489
4721,-0.5728,-0.8354,-0.3135,15.625,32.837,3.967,-106.924,38.815,179.072
4731,-0.5693,-0.9082,-0.2402,11.780,12.451,3.418,-106.891,38.738,178.901
4741,-0.5918,-0.7949,-0.2319,0.671,-6.531,6.226,-106.842,38.782,178.962
4751,-0.6294,-0.6284,-0.2422,-7.080,-16.479,15.869,-106.864,39.023,179.105
4761,-0.6602,-0.5337,-0.2383,-6.775,-18.799,22.034,-106.908,39.380,179.253
4772,-0.6602,-0.4663,-0.2100,-0.977,-16.968,18.127,-106.902,39.727,179.396
4781,-0.6411,-0.5454,-0.1611,6.165,-12.207,6.531,-106.760,39.913,179.522
4791,-0.6514,-0.6655,-0.1196,7.263,-5.188,-6.348,-106.562,39.908,179.610
4801,-0.6338,-0.8081,-0.0996,1.343,1.770,-17.151,-106.430,39.721,179.654
4811,-0.5991,-0.9224,-0.1040,-5.859,8.972,-22.766,-106.403,39.408,179.626
4821,-0.5752,-1.0063,-0.1177,-12.268,14.587,-21.301,-106.496,39.067,179.522
4831,-0.5830,-0.9614,-0.1714,-19.165,16.418,-10.620,-106.721,38.837,179.357
4841,-0.6167,-0.8027,-0.2627,-22.522,14.648,7.202,-107.089,38.837,179.149
4851,-0.6431,-0.6367,-0.3359,-14.648,13.184,23.376,-107.496,39.051,178.901
4862,-0.6753,-0.5674,-0.3638,0.427,11.780,30.212,-107.803,39.364,178.638
4871,-0.6582,-0.6704,-0.3188,16.541,8.423,23.682,-107.842,39.584,178.440
4882,-0.6187,-0.7729,-0.2529,22.522,0.305,8.301,-107.644,39.639,178.407
4892,-0.5996,-0.8052,-0.2344,15.137,-9.827,-5.066,-107.391,39.578,178.544
4902,-0.5874,-0.8066,-0.2192,6.165,-15.625,-9.033,-107.166,39.496,178.775
4911,-0.6050,-0.7837,-0.2041,-1.831,-15.564,-2.625,-107.029,39.485,178.978
4921,-0.6357,-0.7241,-0.2129,-7.446,-12.268,7.080,-107.018,39.595,179.105
4931,-0.6626,-0.6362,-0.2207,-7.385,-7.812,12.756,-107.084,39.787,179.149
4942,-0.6855,-0.5669,-0.2412,-2.869,-2.625,13.489,-107.183,40.007,179.132
4952,-0.6860,-0.5737,-0.2412,5.188,2.441,9.094,-107.227,40.161,179.066
4962,-0.6616,-0.6646,-0.2168,11.536,5.127,0.488,-107.166,40.188,179.000
4971,-0.6196,-0.7827,-0.1821,13.733,4.395,-9.949,-106.996,40.051,178.984
4981,-0.5879,-0.8638,-0.1655,10.620,-0.061,-16.296,-106.793,39.836,179.050
4991,-0.5835,-0.9014,-0.1670,4.272,-4.944,-13.672,-106.617,39.650,179.160
5001,-0.6055,-0.8418,-0.1963,-1.709,-7.507,-5.188,-106.523,39.573,179.275
5012,-0.6382,-0.7466,-0.2319,-4.761,-7.385,6.348,-106.534,39.650,179.341
5021,-0.6558,-0.6636,-0.2334,-1.587,-6.348,14.343,-106.562,39.836,179.368
5032,-0.6724,-0.5947,-0.2388,2.014,-6.165,15.686,-106.584,40.067,179.385
5042,-0.6812,-0.5752,-0.2393,4.578,-5.981,11.536,-106.578,40.270,179.418
5052,-0.6631,-0.6592,-0.2197,6.226,-5.737,2.502,-106.496,40.347,179.478
5061,-0.6221,-0.7856,-0.1934,3.906,-6.531,-8.911,-106.359,40.248,179.594
5072,-0.5908,-0.8525,-0.1831,-3.723,-9.277,-15.686,-106.238,40.067,179.769
5081,-0.5952,-0.8213,-0.1963,-10.803,-9.888,-12.329,-106.210,39.930,179.940
5092,-0.6167,-0.6826,-0.2515,-11.597,-8.606,-2.808,-106.293,39.930,-179.940
5102,-0.6660,-0.5806,-0.2656,-2.686,-5.371,7.080,-106.375,40.073,-179.896
5112,-0.7026,-0.5615,-0.2578,8.972,-2.502,9.766,-106.370,40.259,-179.901
5122,-0.6855,-0.6646,-0.2017,17.700,-1.343,2.502,-106.194,40.331,-179.890
5131,-0.6416,-0.7827,-0.1377,15.076,-3.540,-10.071,-105.930,40.232,-179.813
5141,-0.6030,-0.8882,-0.1177,-2.869,-7.996,-17.517,-105.771,40.023,-179.648
5151,-0.5942,-0.9155,-0.1353,-24.597,-10.559,-17.090,-105.820,39.814,-179.456
5162,-0.6069,-0.8037,-0.2158,-39.001,-9.827,-12.146,-106.089,39.688,-179.286
5172,-0.6333,-0.6382,-0.3013,-36.255,-4.578,-5.432,-106.496,39.672,-179.209
5182,-0.6841,-0.5547,-0.3418,-17.761,1.587,-0.061,-106.837,39.732,-179.231
5192,-0.6899,-0.5801,-0.3169,10.254,5.005,-3.967,-106.880,39.749,-179.280
5202,-0.6523,-0.6621,-0.2217,33.752,2.441,-15.137,-106.545,39.633,-179.253
5211,-0.5840,-0.8198,-0.1333,39.124,-5.371,-21.423,-105.991,39.397,-179.105
5221,-0.5264,-1.0151,-0.0317,30.273,-13.123,-21.118,-105.403,39.111,-178.868
5231,-0.5044,-1.1172,0.0464,9.766,-19.287,-14.221,-104.947,38.881,-178.577
5241,-0.5156,-1.0996,0.0640,-12.878,-19.165,-0.732,-104.744,38.782,-178.336
5252,-0.5732,-0.9199,0.0020,-30.701,-12.024,17.212,-104.837,38.908,-178.248
5261,-0.6465,-0.7153,-0.1069,-36.316,0.793,34.363,-105.211,39.265,-178.369
5272,-0.6963,-0.5869,-0.1641,-23.193,17.273,40.161,-105.667,39.699,-178.720
5282,-0.7046,-0.4819,-0.1992,-2.808,29.785,32.166,-106.068,40.067,-179.203
5292,-0.6924,-0.5015,-0.1973,15.442,37.537,18.677,-106.315,40.259,-179.742
5302,-0.6538,-0.6016,-0.1787,24.963,37.354,3.967,-106.381,40.254,179.764
5311,-0.6172,-0.7505,-0.1646,19.165,29.480,-7.629,-106.370,40.084,179.423
5321,-0.6001,-0.8682,-0.1826,2.136,19.836,-13.855,-106.430,39.836,179.225
5332,-0.6016,-0.9048,-0.2373,-17.700,11.597,-14.648,-106.644,39.595,179.138
5342,-0.6152,-0.8154,-0.3271,-31.921,5.554,-10.193,-107.029,39.435,179.105
5352,-0.6406,-0.6836,-0.4141,-32.227,2.197,-2.014,-107.507,39.402,179.083
5362,-0.6504,-0.5942,-0.4414,-17.456,0.488,4.211,-107.880,39.463,179.061
5372,-0.6675,-0.5347,-0.4302,3.540,-2.808,4.639,-108.045,39.562,179.077
5382,-0.6655,-0.5845,-0.3638,23.193,-7.263,0.305,-107.897,39.633,179.165
5392,-0.6538,-0.6499,-0.2974,30.701,-13.428,-5.127,-107.545,39.650,179.352
5402,-0.6265,-0.7671,-0.2349,26.733,-19.714,-10.498,-107.095,39.595,179.637
5412,-0.5942,-0.9004,-0.1689,14.526,-24.170,-15.076,-106.661,39.457,179.995
5422,-0.5767,-0.9873,-0.1147,-3.723,-24.536,-16.479,-106.370,39.276,-179.632
5432,-0.5796,-0.9917,-0.1089,-20.996,-20.447,-12.085,-106.287,39.128,-179.335
5442,-0.5923,-0.9097,-0.1436,-29.053,-12.390,-2.930,-106.397,39.073,-179.171
5452,-0.5977,-0.8350,-0.1553,-23.071,-3.479,6.897,-106.556,39.106,-179.154
5462,-0.6201,-0.7383,-0.1641,-8.972,3.540,14.832,-106.666,39.238,-179.253
5472,-0.6704,-0.6211,-0.1963,7.629,9.521,19.226,-106.721,39.463,-179.440
5482,-0.6782,-0.6030,-0.1982,27.405,15.137,17.761,-106.622,39.661,-179.698
5492,-0.6650,-0.6348,-0.1807,39.551,17.029,12.024,-106.386,39.781,-179.951
5502,-0.6309,-0.6724,-0.1865,37.354,13.428,5.432,-106.128,39.820,179.857
5512,-0.6064,-0.7383,-0.1748,25.085,6.897,1.099,-105.908,39.798,179.764
5522,-0.6060,-0.7744,-0.1831,6.287,-1.892,-0.671,-105.804,39.776,179.791
5532,-0.6177,-0.7310,-0.2026,-11.597,-11.353,-0.732,-105.820,39.792,179.934
5542,-0.6396,-0.6504,-0.2437,-22.949,-17.944,1.221,-105.958,39.880,-179.841
5552,-0.6787,-0.5352,-0.2891,-23.437,-20.874,2.441,-106.150,40.040,-179.588
5562,-0.7017,-0.5229,-0.3145,-12.512,-19.653,-0.305,-106.265,40.182,-179.341
5572,-0.6797,-0.6685,-0.2695,7.202,-15.015,-10.498,-106.106,40.155,-179.110
5582,-0.6392,-0.8115,-0.2285,19.531,-11.902,-23.376,-105.760,39.935,-178.874
5592,-0.6001,-0.9189,-0.2012,19.592,-11.597,-29.053,-105.375,39.617,-178.627
5602,-0.5669,-0.9819,-0.1743,12.024,-13.611,-24.658,-105.040,39.320,-178.374
5612,-0.5767,-0.9551,-0.1729,-0.366,-16.479,-12.573,-104.843,39.155,-178.127
5622,-0.5937,-0.8589,-0.1870,-10.803,-19.470,1.404,-104.777,39.166,-177.885
5632,-0.5986,-0.7949,-0.1753,-12.268,-22.095,11.475,-104.722,39.304,-177.649
5642,-0.6191,-0.7241,-0.1572,-7.446,-25.146,13.916,-104.606,39.507,-177.380
5652,-0.6392,-0.6719,-0.1475,2.014,-24.048,10.681,-104.392,39.699,-177.116
5662,-0.6289,-0.7114,-0.0894,12.878,-16.968,5.798,-104.068,39.814,-176.918
5672,-0.6313,-0.7363,-0.0498,14.954,-8.240,3.052,-103.760,39.869,-176.825
5682,-0.6514,-0.7124,-0.0522,8.667,1.038,2.991,-103.596,39.924,-176.847
5692,-0.6592,-0.6880,-0.0728,0.977,11.108,4.272,-103.607,39.974,-177.001
5702,-0.6577,-0.6914,-0.0874,-6.287,19.714,5.066,-103.771,40.012,-177.264
5712,-0.6562,-0.6992,-0.1060,-14.404,23.621,3.662,-104.063,40.018,-177.578
5722,-0.6396,-0.7187,-0.1377,-18.921,23.865,-0.732,-104.409,39.968,-177.880
5732,-0.6045,-0.7524,-0.1670,-14.771,22.156,-6.348,-104.700,39.831,-178.138
5742,-0.5947,-0.7695,-0.1938,-7.263,17.151,-8.179,-104.886,39.683,-178.325
5752,-0.6152,-0.7744,-0.2207,-1.343,11.047,-5.188,-104.985,39.578,-178.445
5762,-0.6294,-0.7642,-0.2466,2.502,5.676,-1.221,-105.035,39.540,-178.511
5772,-0.6323,-0.7705,-0.2505,5.310,2.563,0.671,-105.029,39.523,-178.550
5782,-0.6313,-0.7930,-0.2515,5.066,2.197,1.099,-105.029,39.507,-178.577
5792,-0.6357,-0.8032,-0.2588,1.404,4.333,1.465,-105.079,39.485,-178.638
5802,-0.6318,-0.7788,-0.2573,-2.930,6.470,1.770,-105.194,39.463,-178.726
5812,-0.6353,-0.7349,-0.2588,-5.920,7.629,3.174,-105.364,39.474,-178.830
5822,-0.6479,-0.6875,-0.2583,-4.822,7.629,4.089,-105.529,39.512,-178.940
5832,-0.6655,-0.6348,-0.2588,-1.648,5.859,3.052,-105.667,39.573,-179.028
5842,-0.6670,-0.5688,-0.2646,4.028,3.601,0.000,-105.749,39.633,-179.072
5852,-0.6538,-0.5430,-0.2700,10.864,0.854,-4.517,-105.743,39.666,-179.066
5862,-0.6221,-0.6567,-0.2187,17.517,-2.869,-10.071,-105.551,39.600,-178.995
5872,-0.5854,-0.7939,-0.1499,15.137,-9.827,-16.052,-105.238,39.435,-178.813
5882,-0.5752,-0.9160,-0.1079,3.418,-16.724,-19.775,-104.947,39.216,-178.539
5892,-0.5923,-0.9834,-0.0649,-7.080,-17.212,-19.043,-104.733,38.996,-178.259
5902,-0.6182,-0.9624,-0.0742,-17.456,-10.010,-11.902,-104.700,38.842,-178.099
5913,-0.6436,-0.8735,-0.1255,-24.658,2.808,0.122,-104.903,38.809,-178.132
5922,-0.6553,-0.6978,-0.1929,-24.109,16.174,10.437,-105.293,38.903,-178.369
5932,-0.6597,-0.5767,-0.2520,-14.099,26.550,15.442,-105.749,39.056,-178.748
5942,-0.6226,-0.6006,-0.2466,3.235,30.762,11.047,-106.046,39.122,-179.171
5952,-0.5835,-0.6929,-0.1963,12.817,23.987,1.404,-106.106,39.073,-179.473
5962,-0.5781,-0.8325,-0.1421,10.864,10.681,-7.263,-106.002,38.925,-179.577
5972,-0.5640,-0.8848,-0.1128,3.418,0.061,-12.268,-105.853,38.743,-179.533
5982,-0.5718,-0.8682,-0.1030,-2.319,-4.639,-9.216,-105.727,38.611,-179.445
5992,-0.6064,-0.8174,-0.1279,-7.141,-3.296,0.732,-105.710,38.606,-179.407
6002,-0.6533,-0.7017,-0.1929,-10.132,2.258,10.071,-105.842,38.727,-179.467
6012,-0.6768,-0.6270,-0.2412,-6.287,11.353,13.611,-106.073,38.892,-179.659
6022,-0.6689,-0.5898,-0.2637,3.357,19.531,9.155,-106.293,38.996,-179.929
6032,-0.6289,-0.6440,-0.2588,10.620,22.705,1.343,-106.419,38.979,179.780
6042,-0.6118,-0.7378,-0.2139,11.108,20.020,-5.981,-106.447,38.859,179.555
6052,-0.6089,-0.7324,-0.2339,2.258,12.512,-10.193,-106.512,38.721,179.434
6062,-0.6162,-0.7471,-0.2534,-3.479,7.874,-9.827,-106.606,38.600,179.374
6072,-0.6191,-0.7681,-0.2520,-4.517,3.723,-7.812,-106.677,38.507,179.357
6082,-0.6128,-0.7900,-0.2676,-3.662,-1.343,-6.409,-106.705,38.425,179.396
6092,-0.5981,-0.8555,-0.2568,3.235,-3.723,-7.019,-106.633,38.326,179.467
6102,-0.5879,-0.8765,-0.2559,10.437,-4.211,-7.385,-106.474,38.210,179.550
6112,-0.6021,-0.8506,-0.2559,14.832,-2.502,-3.235,-106.304,38.145,179.588
6122,-0.6196,-0.7803,-0.2783,15.381,0.183,4.089,-106.199,38.172,179.572
6132,-0.6255,-0.7681,-0.2539,14.282,1.343,9.766,-106.106,38.254,179.522
6142,-0.6294,-0.7051,-0.2397,7.629,-1.709,11.353,-106.073,38.386,179.506
6152,-0.6309,-0.6851,-0.2236,-1.709,-6.531,10.437,-106.084,38.535,179.544
6162,-0.6265,-0.6777,-0.2056,-8.667,-10.925,6.042,-106.106,38.650,179.659
6172,-0.6108,-0.6787,-0.2051,-12.512,-14.221,0.122,-106.128,38.710,179.835
6182,-0.6021,-0.7500,-0.1870,-10.803,-15.320,-5.066,-106.084,38.699,-179.956
6192,-0.5952,-0.8335,-0.1646,-7.629,-15.686,-9.949,-105.974,38.611,-179.725
6202,-0.6084,-0.8560,-0.1606,-4.944,-14.832,-11.841,-105.826,38.502,-179.500
6212,-0.6167,-0.8481,-0.1636,-0.061,-10.071,-9.644,-105.683,38.408,-179.346
6222,-0.6216,-0.7930,-0.1763,3.540,-4.028,-2.441,-105.579,38.386,-179.286
6232,-0.6348,-0.7378,-0.1821,5.249,0.732,5.798,-105.529,38.452,-179.313
6242,-0.6411,-0.6689,-0.1914,4.639,3.723,9.644,-105.535,38.578,-179.396
6252,-0.6338,-0.6211,-0.2061,2.380,5.737,8.972,-105.606,38.705,-179.495
6262,-0.6182,-0.6772,-0.1943,0.793,7.507,4.028,-105.667,38.749,-179.604
6272,-0.5918,-0.7939,-0.1499,-3.479,8.362,-4.211,-105.705,38.661,-179.692
6282,-0.5972,-0.8911,-0.1250,-12.634,11.719,-10.803,-105.820,38.474,-179.797
6292,-0.5967,-0.9180,-0.1558,-18.250,22.339,-13.916,-106.078,38.221,179.973
6302,-0.5986,-0.7974,-0.2246,-18.372,35.400,-8.545,-106.501,38.018,179.566
6312,-0.6113,-0.7012,-0.2969,-12.268,43.823,3.357,-107.023,37.936,179.022
6322,-0.6157,-0.6431,-0.3306,-0.061,42.603,12.878,-107.468,37.958,178.456
6332,-0.6099,-0.6460,-0.3174,12.390,32.104,15.137,-107.704,38.029,178.011
6342,-0.6084,-0.7241,-0.2852,17.883,17.822,12.573,-107.726,38.095,177.748
6352,-0.6133,-0.8042,-0.2593,13.977,2.625,6.775,-107.622,38.128,177.687
6362,-0.5923,-0.8623,-0.2363,5.798,-10.315,1.160,-107.468,38.128,177.808
6372,-0.5884,-0.8638,-0.2207,-3.906,-20.447,-0.183,-107.325,38.139,178.061
6382,-0.6035,-0.8018,-0.2192,-9.338,-26.306,1.709,-107.205,38.210,178.374
6392,-0.6274,-0.7598,-0.1997,-7.019,-26.855,5.737,-107.062,38.348,178.676
6402,-0.6489,-0.6597,-0.1602,12.939,-11.902,6.409,-106.826,38.496,178.797
6412,-0.6396,-0.6611,-0.1489,24.963,0.183,3.967,-106.551,38.584,178.781
6422,-0.6162,-0.7383,-0.1172,29.541,11.719,1.282,-106.271,38.573,178.632
6432,-0.5937,-0.7676,-0.1274,18.799,17.334,-0.183,-106.150,38.507,178.418
6442,-0.5923,-0.7847,-0.1699,1.465,17.395,0.244,-106.227,38.441,178.204
6452,-0.6040,-0.7681,-0.2153,-15.015,13.794,3.296,-106.479,38.425,178.022
6462,-0.6255,-0.7275,-0.2646,-26.428,5.859,6.470,-106.837,38.474,177.929
6472,-0.6382,-0.6641,-0.3047,-25.330,-3.113,6.042,-107.155,38.568,177.946
6482,-0.6353,-0.6416,-0.3140,-10.925,-10.193,2.502,-107.281,38.650,178.061
6492,-0.6304,-0.6782,-0.2861,6.897,-14.099,-0.916,-107.161,38.699,178.237
6502,-0.6250,-0.7559,-0.2378,18.005,-16.418,-3.357,-106.853,38.716,178.451
6512,-0.6025,-0.8008,-0.1909,20.081,-15.991,-4.639,-106.490,38.688,178.665
6522,-0.5903,-0.8457,-0.1504,15.259,-12.817,-3.845,-106.166,38.650,178.835
6532,-0.6182,-0.8682,-0.1333,6.348,-7.080,-0.916,-105.974,38.622,178.923
6542,-0.6240,-0.7729,-0.1689,-1.770,-0.488,0.732,-105.952,38.628,178.929
6552,-0.6460,-0.6729,-0.2090,-0.610,6.653,2.075,-106.029,38.672,178.841
6562,-0.6597,-0.6240,-0.2300,10.803,11.047,1.465,-106.051,38.716,178.698
6573,-0.6353,-0.6265,-0.2256,25.574,10.681,-2.197,-105.908,38.716,178.577
6582,-0.6084,-0.6719,-0.1929,35.828,5.493,-5.432,-105.584,38.672,178.528
6592,-0.5786,-0.7744,-0.1631,36.926,-2.014,-6.409,-105.156,38.589,178.572
6602,-0.5850,-0.8530,-0.1460,22.888,-10.437,-2.747,-104.788,38.546,178.709
6612,-0.6021,-0.8706,-0.1714,0.183,-16.113,2.136,-104.634,38.562,178.901
6622,-0.6279,-0.8115,-0.2109,-18.433,-15.259,5.798,-104.711,38.639,179.072
6632,-0.6465,-0.7407,-0.2686,-25.024,-10.803,6.348,-104.936,38.732,179.187
6642,-0.6631,-0.7173,-0.2744,-17.456,-5.615,4.211,-105.139,38.809,179.242
6652,-0.6587,-0.7173,-0.2603,-2.808,-2.686,-0.610,-105.189,38.831,179.280
6662,-0.6421,-0.7217,-0.2222,13.733,-1.587,-5.554,-105.051,38.798,179.313
6672,-0.6113,-0.7261,-0.1636,23.621,-2.258,-6.348,-104.760,38.749,179.363
6682,-0.5967,-0.7876,-0.1030,20.691,-4.517,-3.235,-104.442,38.710,179.434
6692,-0.5947,-0.7886,-0.0908,7.874,-5.676,-1.526,-104.238,38.694,179.506
6702,-0.6089,-0.7495,-0.1152,-6.042,-4.211,-1.404,-104.211,38.688,179.566
6712,-0.6138,-0.7603,-0.1270,-14.648,-1.038,-1.465,-104.299,38.677,179.583
6722,-0.6108,-0.7603,-0.1626,-20.081,0.366,-2.808,-104.469,38.644,179.588
6732,-0.6133,-0.7754,-0.1875,-17.395,1.038,-5.188,-104.634,38.578,179.588
6742,-0.6182,-0.8071,-0.1978,-9.155,1.038,-6.531,-104.711,38.496,179.599
6752,-0.6162,-0.8237,-0.2051,0.061,-0.732,-5.920,-104.683,38.414,179.626
6762,-0.6011,-0.8169,-0.1997,7.690,-3.906,-2.625,-104.562,38.375,179.681
6772,-0.5977,-0.7759,-0.1948,11.292,-6.836,3.357,-104.403,38.408,179.758
6782,-0.6240,-0.7236,-0.2036,10.620,-7.690,9.827,-104.271,38.535,179.819
6792,-0.6465,-0.7056,-0.2051,8.545,-5.737,12.146,-104.183,38.688,179.852
6802,-0.6274,-0.6968,-0.1909,5.066,-3.357,8.728,-104.134,38.804,179.868
6812,-0.6196,-0.7461,-0.1782,0.854,-2.075,2.991,-104.112,38.842,179.885
6822,-0.6357,-0.8496,-0.1587,2.747,-0.732,-5.798,-104.030,38.760,179.912
6832,-0.6133,-0.9355,-0.1313,15.137,2.625,-16.846,-103.810,38.535,179.929
6842,-0.5820,-0.9385,-0.1196,30.762,7.629,-19.897,-103.458,38.260,179.896
6852,-0.5977,-0.7915,-0.1777,37.537,12.207,-7.996,-103.156,38.134,179.769
6862,-0.6333,-0.6538,-0.2227,41.565,15.991,10.193,-102.942,38.238,179.544
6872,-0.6431,-0.5728,-0.2271,39.185,15.991,23.132,-102.805,38.507,179.275
6882,-0.6479,-0.6611,-0.1748,24.292,11.230,25.879,-102.711,38.782,179.066
6892,-0.6274,-0.8120,-0.1025,1.221,2.014,15.625,-102.689,38.914,178.995
6902,-0.5903,-0.8652,-0.0820,-19.287,-9.277,-3.967,-102.728,38.848,179.121
6912,-0.5732,-0.9009,-0.0752,-28.198,-15.137,-18.311,-102.777,38.644,179.363
6922,-0.5928,-0.8813,-0.1108,-28.320,-14.404,-18.921,-102.859,38.441,179.599
6932,-0.6343,-0.7476,-0.1904,-24.292,-11.230,-8.606,-103.013,38.392,179.764
6942,-0.6694,-0.5532,-0.2749,-11.963,-4.272,5.432,-103.239,38.546,179.797
6952,-0.6846,-0.4487,-0.3135,10.559,5.737,14.160,-103.425,38.798,179.687
6962,-0.6733,-0.5190,-0.2798,30.334,14.099,13.794,-103.409,38.996,179.467
6972,-0.6528,-0.6499,-0.2134,33.630,14.832,5.981,-103.250,39.067,179.264
6982,-0.6035,-0.7900,-0.1475,24.231,9.583,-7.690,-103.041,38.947,179.171
6992,-0.5596,-0.8887,-0.1313,7.385,2.625,-18.555,-102.909,38.694,179.187
7002,-0.5537,-1.0034,-0.1113,-9.949,-5.005,-18.433,-102.870,38.430,179.302
7012,-0.5664,-0.9976,-0.1157,-23.560,-13.428,-11.353,-102.920,38.260,179.506
7022,-0.5874,-0.8496,-0.1733,-32.593,-19.287,1.648,-103.085,38.276,179.736
7032,-0.6338,-0.6860,-0.2412,-27.649,-18.311,15.503,-103.310,38.496,179.923
7042,-0.6782,-0.5723,-0.2725,-8.545,-12.451,21.973,-103.458,38.820,-179.984
7052,-0.6738,-0.5601,-0.2563,16.907,-4.211,17.822,-103.403,39.089,-179.984
7062,-0.6421,-0.6577,-0.1733,36.133,1.587,7.874,-103.085,39.205,179.967
7073,-0.6172,-0.7349,-0.1089,35.217,0.671,-0.549,-102.695,39.199,179.962
7082,-0.5957,-0.8472,-0.0571,21.240,-3.418,-5.249,-102.360,39.117,-179.978
7092,-0.5952,-0.8848,-0.0269,-1.770,-8.606,-4.883,-102.195,39.034,-179.857
7102,-0.6064,-0.8247,-0.0454,-26.672,-14.282,0.061,-102.255,39.040,-179.676
7112,-0.6147,-0.7451,-0.0801,-41.382,-16.724,6.042,-102.486,39.133,-179.484
7122,-0.6353,-0.6274,-0.1216,-43.030,-16.968,8.789,-102.777,39.315,-179.291
7132,-0.6719,-0.5796,-0.1655,-32.898,-13.489,6.958,-103.041,39.496,-179.143
7142,-0.6792,-0.6367,-0.1636,-12.390,-5.676,-0.793,-103.129,39.567,-179.066
7152,-0.6606,-0.7256,-0.1523,4.333,2.197,-9.705,-103.074,39.490,-179.066
7162,-0.6221,-0.8354,-0.1265,12.878,8.789,-15.137,-102.942,39.293,-179.132
7172,-0.5898,-0.9175,-0.1060,11.902,11.963,-14.832,-102.832,39.056,-179.242
7182,-0.5869,-0.8677,-0.1553,0.122,12.573,-7.446,-102.887,38.903,-179.379
7192,-0.6089,-0.7910,-0.2119,-10.315,11.230,3.540,-103.107,38.892,-179.528
7202,-0.6309,-0.6714,-0.2534,-15.076,7.812,10.864,-103.409,39.001,-179.659
7212,-0.6602,-0.5737,-0.3008,-14.832,3.235,11.597,-103.744,39.172,-179.731
7222,-0.6719,-0.6436,-0.2715,-2.808,-0.549,3.540,-103.865,39.254,-179.736
7232,-0.6387,-0.7212,-0.2197,13.550,-5.676,-12.512,-103.694,39.155,-179.626
7242,-0.5913,-0.8472,-0.1621,23.682,-10.254,-23.560,-103.304,38.908,-179.429
7252,-0.5703,-0.9497,-0.0913,23.499,-12.573,-22.583,-102.854,38.639,-179.203
7262,-0.5732,-0.9028,-0.0889,11.414,-12.024,-12.634,-102.557,38.480,-179.017
7272,-0.6035,-0.7764,-0.1274,-0.977,-4.639,1.587,-102.502,38.496,-178.962
7282,-0.6504,-0.7026,-0.1567,-8.484,4.822,13.367,-102.645,38.650,-179.061
7292,-0.6758,-0.6787,-0.1689,-5.188,12.512,12.268,-102.827,38.798,-179.253
7302,-0.6523,-0.7114,-0.1646,12.329,15.930,-2.686,-102.827,38.765,-179.445
7312,-0.5972,-0.8662,-0.0962,42.053,15.442,-20.813,-102.426,38.485,-179.577
7322,-0.5435,-0.9951,-0.0435,66.650,9.399,-30.945,-101.689,38.068,-179.610
7332,-0.4956,-1.0029,0.0083,77.271,3.784,-24.902,-100.794,37.700,-179.594
7342,-0.5259,-0.9106,0.0103,66.895,2.686,-2.502,-100.031,37.595,-179.621
7352,-0.6113,-0.6924,-0.0801,39.124,4.883,23.682,-99.679,37.853,-179.731
7362,-0.7134,-0.4995,-0.1797,9.277,10.864,40.833,-99.822,38.392,-179.956
7372,-0.7510,-0.4189,-0.2368,-7.690,17.883,36.377,-100.283,38.903,179.736
7382,-0.6904,-0.4736,-0.2324,-8.240,18.799,12.146,-100.690,39.128,179.473
7392,-0.6206,-0.6660,-0.1846,-2.747,12.756,-16.785,-100.838,38.969,179.346
7402,-0.5732,-0.8301,-0.1719,2.930,4.944,-39.185,-100.800,38.529,179.379
7412,-0.5127,-0.9790,-0.1519,13.306,0.549,-46.448,-100.580,37.963,179.484
7422,-0.5054,-1.0737,-0.1367,13.855,-0.610,-31.311,-100.360,37.535,179.566
7432,-0.5547,-1.0596,-0.1704,0.305,-0.427,-3.052,-100.338,37.403,179.577
7442,-0.5942,-0.9351,-0.2148,-19.897,-0.305,25.452,-100.596,37.595,179.522
7452,-0.6406,-0.7637,-0.2368,-39.246,-1.526,45.349,-101.102,38.051,179.440
7462,-0.6816,-0.6162,-0.2476,-46.997,-4.883,47.852,-101.711,38.600,179.379
7472,-0.6860,-0.5659,-0.2222,-38.391,-8.911,34.302,-102.173,39.051,179.407
7482,-0.6597,-0.6035,-0.1685,-18.921,-10.681,12.512,-102.332,39.265,179.506
7492,-0.6279,-0.7075,-0.1108,2.380,-9.155,-7.202,-102.189,39.238,179.643
7502,-0.6030,-0.7998,-0.0645,16.052,-5.493,-16.724,-101.882,39.062,179.753
7512,-0.6001,-0.8545,-0.0464,17.944,-0.366,-14.893,-101.591,38.881,179.797
7522,-0.5972,-0.8057,-0.0659,9.888,6.409,-6.836,-101.459,38.776,179.736
7532,-0.6069,-0.7349,-0.0933,-4.150,11.658,4.761,-101.558,38.804,179.577
7542,-0.6401,-0.6558,-0.1230,-18.677,13.306,13.245,-101.860,38.958,179.374
7552,-0.6548,-0.6050,-0.1533,-28.503,12.085,13.306,-102.283,39.133,179.187
7562,-0.6587,-0.6343,-0.1689,-29.480,9.155,5.493,-102.678,39.232,179.061
7573,-0.6377,-0.7339,-0.1729,-20.386,5.615,-8.179,-102.920,39.150,179.011
7582,-0.6113,-0.8252,-0.1880,-7.935,1.709,-18.677,-102.975,38.930,179.044
7592,-0.5869,-0.8916,-0.2090,2.014,-3.296,-19.592,-102.898,38.688,179.143
7602,-0.5737,-0.9185,-0.2207,5.737,-7.751,-10.986,-102.766,38.524,179.269
7612,-0.5791,-0.8853,-0.2134,3.967,-10.864,1.099,-102.656,38.496,179.401
7622,-0.6055,-0.8481,-0.1855,-2.197,-12.451,12.268,-102.596,38.606,179.522
7632,-0.6299,-0.7866,-0.1602,-11.597,-13.000,18.188,-102.634,38.804,179.632
7642,-0.6348,-0.7061,-0.1392,-16.968,-11.658,16.357,-102.722,39.018,179.736
7652,-0.6338,-0.6797,-0.1050,-13.550,-8.362,9.583,-102.772,39.161,179.813
7662,-0.6460,-0.7017,-0.0913,-6.470,-3.479,1.709,-102.755,39.221,179.852
7672,-0.6641,-0.7310,-0.1011,0.854,3.479,-4.822,-102.717,39.194,179.819
7682,-0.6479,-0.7529,-0.1323,9.583,12.207,-10.132,-102.673,39.078,179.698
7692,-0.5908,-0.7861,-0.1509,16.663,20.691,-10.742,-102.634,38.903,179.467
7702,-0.5903,-0.7988,-0.1719,11.475,21.973,-3.906,-102.678,38.787,179.203
7712,-0.6235,-0.7510,-0.2153,-1.099,16.296,3.174,-102.854,38.782,178.989
7722,-0.6353,-0.7363,-0.2251,-9.155,9.033,6.470,-103.068,38.831,178.857
7732,-0.6333,-0.7324,-0.2358,-9.521,0.549,3.418,-103.222,38.870,178.841
7742,-0.6323,-0.7671,-0.2476,0.793,-5.127,-3.479,-103.217,38.842,178.918
7752,-0.6260,-0.8647,-0.2363,18.616,-6.836,-8.972,-102.980,38.732,179.028
7762,-0.5894,-0.9331,-0.2168,37.476,-6.897,-12.329,-102.535,38.557,179.149
7772,-0.5547,-1.0337,-0.1470,48.462,-4.578,-7.996,-101.964,38.381,179.225
7782,-0.5630,-0.9517,-0.1309,40.161,-2.869,5.249,-101.508,38.359,179.247
7792,-0.5967,-0.8164,-0.1230,19.714,-1.404,22.888,-101.310,38.557,179.209
7802,-0.6475,-0.6597,-0.1255,-5.493,-0.793,37.598,-101.409,38.979,179.127
7812,-0.6948,-0.5303,-0.1396,-24.780,-2.991,39.917,-101.728,39.501,179.061
7822,-0.7056,-0.4707,-0.1265,-24.109,-6.592,25.085,-101.992,39.913,179.077
7832,-0.6968,-0.4912,-0.1118,-8.423,-7.324,3.479,-102.030,40.106,179.165
7842,-0.6602,-0.5986,-0.1162,12.512,-4.395,-14.832,-101.832,40.045,179.258
7852,-0.5991,-0.7202,-0.1060,29.968,-0.183,-25.269,-101.459,39.792,179.330
7862,-0.5581,-0.8179,-0.0864,35.828,3.418,-24.780,-101.036,39.490,179.352
7872,-0.5713,-0.8799,-0.0786,28.198,6.409,-14.954,-100.723,39.265,179.308
7882,-0.6006,-0.8589,-0.1152,6.104,7.385,-1.282,-100.690,39.194,179.214
7892,-0.6426,-0.8071,-0.1426,-17.517,6.287,10.254,-100.920,39.271,179.110
7902,-0.6499,-0.7285,-0.1719,-31.494,2.808,13.123,-101.299,39.413,179.044
7914,-0.6387,-0.6875,-0.1826,-32.288,-2.686,9.399,-101.651,39.534,179.055
7922,-0.6333,-0.7021,-0.1768,-23.865,-7.446,4.150,-101.860,39.606,179.138
7932,-0.6294,-0.7451,-0.1777,-12.634,-11.536,-0.305,-101.904,39.622,179.286
7942,-0.6157,-0.7930,-0.1616,-2.563,-13.977,-2.563,-101.810,39.606,179.467
7952,-0.5981,-0.8677,-0.1113,3.113,-14.160,-1.648,-101.618,39.567,179.654
7962,-0.6138,-0.8623,-0.1021,-0.610,-13.611,2.258,-101.470,39.573,179.819
7972,-0.6470,-0.7969,-0.1304,-6.775,-10.193,6.714,-101.442,39.650,179.934
7982,-0.6582,-0.7461,-0.1372,-6.470,-4.028,8.850,-101.481,39.754,179.962
7992,-0.6626,-0.6875,-0.1538,-6.592,0.793,10.071,-101.580,39.886,179.923
8002,-0.6626,-0.6396,-0.1763,-7.568,3.723,9.644,-101.739,40.023,179.852
8012,-0.6611,-0.6069,-0.1958,-7.568,4.089,6.592,-101.920,40.139,179.780
8022,-0.6396,-0.6377,-0.1899,-6.470,1.770,1.526,-102.047,40.188,179.753
8032,-0.6245,-0.7056,-0.1611,-7.202,-2.808,-3.967,-102.096,40.161,179.802
8042,-0.6191,-0.7441,-0.1558,-10.071,-7.385,-9.827,-102.118,40.073,179.923
8052,-0.6196,-0.7930,-0.1514,-9.155,-9.277,-13.611,-102.096,39.930,-179.918
8062,-0.6338,-0.8311,-0.1528,-4.822,-8.362,-14.221,-102.036,39.781,-179.769
8073,-0.6445,-0.8047,-0.1719,-1.282,-6.165,-11.230,-101.975,39.666,-179.659
8082,-0.6465,-0.7827,-0.1797,2.075,-3.357,-5.371,-101.931,39.617,-179.604
8092,-0.6270,-0.7998,-0.1572,4.578,-1.831,-1.099,-101.860,39.589,-179.577
8102,-0.6030,-0.8149,-0.1152,2.808,-2.747,0.488,-101.772,39.562,-179.544
8112,-0.5937,-0.8140,-0.0908,-4.883,-4.944,1.953,-101.728,39.556,-179.489
8122,-0.6074,-0.8140,-0.0933,-12.024,-5.981,3.662,-101.755,39.573,-179.418
8132,-0.6021,-0.8501,-0.0884,-10.498,-4.822,3.235,-101.766,39.573,-179.368
8142,-0.6064,-0.8433,-0.1060,-4.028,-3.113,2.930,-101.744,39.567,-179.335
8152,-0.6299,-0.7949,-0.1348,4.944,-0.366,5.737,-101.678,39.606,-179.346
8162,-0.6440,-0.7344,-0.1572,14.648,3.784,11.169,-101.585,39.716,-179.423
8172,-0.6646,-0.6680,-0.1558,19.165,6.592,17.151,-101.492,39.913,-179.555
8182,-0.6743,-0.5806,-0.1499,15.198,5.615,19.470,-101.453,40.177,-179.676
8192,-0.6729,-0.5352,-0.1494,6.226,2.808,17.578,-101.481,40.446,-179.758
8202,-0.6650,-0.5615,-0.1387,-2.563,-0.793,9.583,-101.541,40.622,-179.769
8212,-0.6436,-0.6348,-0.1191,-9.521,-4.028,-2.869,-101.591,40.649,-179.714
8222,-0.6484,-0.7163,-0.1187,-15.808,-5.249,-13.977,-101.656,40.534,-179.604
8232,-0.6465,-0.7856,-0.1343,-17.639,-2.808,-21.301,-101.750,40.320,-179.517
8242,-0.6353,-0.7959,-0.1685,-16.052,2.502,-22.339,-101.893,40.073,-179.489
8252,-0.6040,-0.8784,-0.1821,-10.071,8.240,-17.944,-102.030,39.820,-179.544
8262,-0.5898,-0.9702,-0.1519,-1.953,9.583,-12.268,-102.074,39.595,-179.632
8272,-0.5918,-0.9663,-0.1509,0.977,7.080,-5.127,-102.079,39.446,-179.709
8282,-0.5894,-1.0273,-0.1138,2.808,5.493,4.456,-102.047,39.380,-179.791
8292,-0.5923,-1.0605,-0.0806,1.526,3.418,11.963,-101.997,39.386,-179.868
8302,-0.5967,-0.9390,-0.1187,-3.418,1.404,17.517,-102.025,39.479,-179.929
8312,-0.6255,-0.7314,-0.1895,-5.066,2.686,26.062,-102.167,39.732,179.962
8322,-0.6763,-0.5376,-0.2568,-2.258,5.127,35.400,-102.426,40.150,179.797
8332,-0.7095,-0.4185,-0.2769,4.089,6.104,36.499,-102.711,40.638,179.615
8342,-0.7119,-0.3223,-0.2720,10.193,4.395,26.672,-102.969,41.072,179.484
8352,-0.6899,-0.3320,-0.2368,11.047,0.427,12.085,-103.112,41.375,179.440
8362,-0.6724,-0.4277,-0.1660,5.371,-4.944,-2.686,-103.096,41.501,179.511
8372,-0.6499,-0.5410,-0.1011,-7.507,-12.146,-17.090,-103.008,41.446,179.725
8382,-0.6401,-0.6499,-0.0625,-22.583,-16.602,-28.381,-102.958,41.237,-179.973
8392,-0.6294,-0.8193,-0.0308,-30.273,-14.404,-36.438,-102.958,40.880,-179.676
8402,-0.6157,-0.9961,-0.0220,-31.860,-6.775,-40.955,-103.019,40.408,-179.467
8412,-0.5859,-1.1025,-0.0708,-31.738,2.930,-38.940,-103.189,39.902,-179.390
8422,-0.5542,-1.0898,-0.1426,-26.917,10.376,-26.428,-103.431,39.496,-179.440
8432,-0.5669,-1.0649,-0.1787,-15.930,13.794,-4.700,-103.651,39.298,-179.599
8442,-0.6060,-1.0420,-0.1865,-1.404,13.977,15.991,-103.771,39.326,-179.824
8452,-0.6470,-0.9160,-0.1968,7.812,12.268,29.541,-103.832,39.534,179.923
8462,-0.6577,-0.7583,-0.2197,11.169,11.047,36.743,-103.903,39.864,179.670
8472,-0.6494,-0.6235,-0.2368,12.329,8.972,38.086,-103.997,40.254,179.440
8482,-0.6406,-0.5298,-0.2349,12.268,4.211,32.471,-104.073,40.627,179.280
8493,-0.6299,-0.4902,-0.2065,7.935,-2.136,22.522,-104.112,40.941,179.236
8502,-0.6382,-0.4761,-0.1934,-0.977,-7.751,11.780,-104.161,41.177,179.297
8512,-0.6504,-0.5059,-0.1743,-10.864,-10.193,1.099,-104.238,41.309,179.429
8522,-0.6641,-0.6060,-0.1533,-19.531,-9.094,-7.812,-104.337,41.309,179.572
8532,-0.6699,-0.7349,-0.1528,-25.330,-5.554,-14.954,-104.480,41.182,179.692
8542,-0.6689,-0.8389,-0.1611,-23.132,-0.183,-20.691,-104.628,40.952,179.764
8552,-0.6494,-0.9180,-0.1968,-15.808,5.493,-21.606,-104.760,40.671,179.764
8563,-0.6509,-0.9355,-0.2607,-4.150,9.460,-15.808,-104.854,40.424,179.698
8573,-0.6475,-0.9121,-0.2959,10.498,10.376,-5.310,-104.854,40.287,179.583
8582,-0.6387,-0.8320,-0.3013,22.217,6.714,7.385,-104.755,40.292,179.473
8592,-0.6470,-0.7373,-0.2651,28.259,-0.671,17.273,-104.557,40.452,179.423
8602,-0.6450,-0.6748,-0.2236,27.344,-9.766,20.386,-104.282,40.693,179.478
8612,-0.6099,-0.6650,-0.1372,22.888,-18.066,15.869,-103.914,40.902,179.659
8622,-0.5898,-0.6948,-0.0610,12.939,-22.827,8.240,-103.524,41.028,179.923
8632,-0.5981,-0.7896,-0.0122,-2.808,-21.423,2.258,-103.255,41.061,-179.802
8642,-0.6318,-0.8516,-0.0112,-17.517,-12.085,-0.793,-103.200,41.034,-179.643
8652,-0.6323,-0.8384,-0.0552,-29.480,1.343,0.671,-103.409,40.995,-179.659
8662,-0.6577,-0.7178,-0.1333,-36.865,13.000,8.301,-103.870,41.056,-179.852
8673,-0.6929,-0.5498,-0.2329,-33.875,18.921,15.930,-104.485,41.248,179.846
8683,-0.7153,-0.4712,-0.2754,-17.395,18.555,17.822,-105.013,41.490,179.550
8693,-0.6777,-0.5547,-0.2202,3.296,10.986,11.047,-105.161,41.638,179.368
8702,-0.6011,-0.7852,-0.1113,14.282,-1.587,1.770,-104.941,41.611,179.385
8712,-0.5913,-0.9492,-0.0430,6.958,-15.930,-3.052,-104.606,41.528,179.599
8722,-0.6064,-0.9722,-0.0859,-8.240,-21.240,-0.671,-104.414,41.479,179.874
8732,-0.6709,-0.8950,-0.1870,-20.264,-13.489,9.888,-104.491,41.556,-179.978
8743,-0.7437,-0.6699,-0.3115,-23.804,-2.319,19.348,-104.854,41.781,179.984
8753,-0.7637,-0.4478,-0.3945,-11.414,6.531,20.874,-105.337,42.067,179.824
8763,-0.7061,-0.4375,-0.3545,15.076,10.620,11.902,-105.546,42.248,179.648
8773,-0.5981,-0.6040,-0.2529,36.255,5.676,-0.122,-105.304,42.231,179.572
8782,-0.4878,-0.7334,-0.1938,41.382,-14.282,-5.676,-104.755,42.122,179.780
8792,-0.4102,-0.8687,-0.0762,36.377,-43.396,2.075,-103.925,42.078,-179.659
8803,-0.5337,-0.9253,-0.0049,16.724,-65.308,24.780,-103.112,42.352,-178.885
8812,-0.7432,-0.8901,-0.0161,-7.629,-71.533,44.312,-102.530,42.918,-178.077
8823,-0.8892,-0.7207,-0.0615,-18.616,-56.946,46.448,-102.217,43.566,-177.457
8833,-0.9287,-0.4941,-0.1562,-13.916,-28.625,33.081,-102.211,44.121,-177.166
8843,-0.8716,-0.4556,-0.1729,8.118,3.357,12.024,-102.272,44.396,-177.248
8853,-0.7456,-0.5596,-0.1221,29.663,26.306,-10.193,-102.206,44.324,-177.578
8862,-0.6050,-0.7305,-0.1099,31.067,36.072,-23.132,-102.156,43.973,-178.000
8873,-0.4917,-0.8687,-0.1392,19.348,30.579,-20.020,-102.178,43.566,-178.358
8882,-0.4692,-0.9849,-0.1377,2.380,9.399,-1.770,-102.195,43.347,-178.478
8893,-0.5806,-0.9102,-0.1729,-18.372,-20.081,22.827,-102.222,43.500,-178.275
8903,-0.7378,-0.7236,-0.2021,-28.503,-43.884,38.940,-102.217,43.978,-177.797
8913,-0.8159,-0.6069,-0.2046,-24.658,-51.514,39.856,-102.123,44.550,-177.215
8923,-0.8418,-0.5127,-0.2065,-12.634,-42.725,29.785,-102.003,45.049,-176.715
8933,-0.8452,-0.4082,-0.2363,1.343,-28.137,13.916,-101.926,45.401,-176.369
8943,-0.8125,-0.3501,-0.2539,16.052,-13.916,-3.845,-101.860,45.555,-176.166
8953,-0.6782,-0.5933,-0.1807,27.100,-2.319,-19.531,-101.580,45.390,-176.072
8963,-0.5815,-0.8481,-0.0981,22.705,1.343,-24.780,-101.266,45.038,-176.023
8973,-0.5596,-0.9810,-0.0542,9.460,-6.653,-19.653,-100.992,44.703,-175.875
8983,-0.6069,-1.0020,-0.0244,-4.089,-15.259,-4.700,-100.778,44.555,-175.649
8993,-0.7017,-0.9346,-0.0210,-15.259,-22.095,12.390,-100.646,44.637,-175.380
9003,-0.7593,-0.7759,-0.0356,-20.203,-24.414,21.423,-100.569,44.890,-175.100
9013,-0.7642,-0.6177,-0.0767,-14.954,-21.057,20.874,-100.519,45.192,-174.858
9023,-0.7632,-0.5361,-0.0781,-1.770,-14.709,13.733,-100.393,45.445,-174.688
9033,-0.7495,-0.5220,-0.0879,8.362,-8.057,2.869,-100.228,45.582,-174.584
9043,-0.6973,-0.6084,-0.0679,12.146,-0.610,-6.653,-100.052,45.549,-174.556
9053,-0.6621,-0.6675,-0.0757,7.019,4.456,-11.353,-99.970,45.423,-174.595
9063,-0.6343,-0.7075,-0.0762,-1.343,5.310,-11.597,-99.976,45.264,-174.639
9073,-0.6436,-0.7769,-0.0469,-12.268,4.517,-5.737,-100.069,45.143,-174.688
9083,-0.6860,-0.7686,-0.0537,-28.137,0.793,2.991,-100.300,45.132,-174.705
9093,-0.7183,-0.7261,-0.0737,-36.255,-2.075,6.836,-100.602,45.198,-174.694
9103,-0.7354,-0.6943,-0.0747,-32.654,0.793,6.042,-100.904,45.269,-174.721
9113,-0.7563,-0.6289,-0.1206,-23.743,4.944,3.235,-101.190,45.335,-174.798
9123,-0.7437,-0.5869,-0.1699,-8.545,10.681,-2.319,-101.426,45.346,-174.941
9133,-0.7095,-0.6260,-0.1748,8.911,18.372,-8.911,-101.541,45.247,-175.172
9143,-0.6948,-0.7134,-0.1489,17.639,22.278,-12.146,-101.563,45.066,-175.452
9153,-0.6816,-0.7612,-0.1558,15.808,21.423,-11.780,-101.591,44.874,-175.715
9163,-0.6748,-0.7769,-0.1392,10.071,18.066,-9.094,-101.635,44.703,-175.935
9173,-0.6948,-0.7427,-0.1304,-0.610,13.306,-3.479,-101.744,44.626,-176.111
9183,-0.7065,-0.6826,-0.1367,-12.024,8.240,0.366,-101.937,44.621,-176.226
9193,-0.7026,-0.5981,-0.1558,-19.287,5.737,0.122,-102.211,44.648,-176.303
9203,-0.7002,-0.5806,-0.1602,-18.433,5.859,-3.662,-102.475,44.648,-176.375
9213,-0.6948,-0.6470,-0.1650,-13.306,7.996,-9.216,-102.678,44.555,-176.457
9223,-0.6826,-0.7271,-0.1611,-6.653,11.108,-14.893,-102.821,44.368,-176.561
9233,-0.6885,-0.8037,-0.1396,-2.319,14.587,-16.846,-102.914,44.132,-176.710
9243,-0.6953,-0.8369,-0.1157,-2.808,17.456,-14.465,-103.024,43.907,-176.902
9253,-0.7090,-0.7886,-0.1084,-7.263,20.386,-10.681,-103.211,43.737,-177.144
9263,-0.7173,-0.7207,-0.1021,-11.658,23.682,-7.324,-103.475,43.621,-177.440
9273,-0.7017,-0.6758,-0.0767,-14.343,27.466,-5.981,-103.788,43.522,-177.786
9283,-0.6826,-0.6011,-0.0898,-18.005,31.128,-8.057,-104.178,43.418,-178.176
9293,-0.6436,-0.5679,-0.1318,-19.409,36.499,-11.658,-104.667,43.264,-178.627
9303,-0.6147,-0.6245,-0.1626,-15.930,38.940,-14.282,-105.139,43.033,-179.094
9313,-0.6289,-0.7100,-0.1973,-10.071,36.682,-16.663,-105.529,42.753,-179.517
9323,-0.6421,-0.8203,-0.2246,-0.366,33.691,-17.883,-105.782,42.435,-179.896
9333,-0.6650,-0.8643,-0.2461,6.104,28.687,-14.099,-105.941,42.166,179.775
9343,-0.6782,-0.8433,-0.2671,4.883,21.667,-5.432,-106.078,42.006,179.517
9353,-0.6978,-0.7451,-0.2715,0.244,15.259,3.235,-106.254,41.990,179.308
9363,-0.6973,-0.6484,-0.2715,-2.686,11.963,5.981,-106.463,42.045,179.127
9373,-0.6963,-0.5630,-0.2808,-3.479,13.977,3.296,-106.727,42.094,178.934
9383,-0.6821,-0.5806,-0.2769,-1.465,20.020,-4.333,-106.990,42.039,178.693
9393,-0.6606,-0.6597,-0.2563,1.282,26.306,-14.404,-107.205,41.836,178.412
9403,-0.6226,-0.7686,-0.2427,3.540,30.457,-23.804,-107.369,41.484,178.116
9413,-0.6133,-0.8604,-0.2144,5.615,31.738,-26.917,-107.474,41.067,177.819
9423,-0.6182,-0.8569,-0.2129,4.395,28.137,-22.522,-107.573,40.710,177.556
9433,-0.6118,-0.8379,-0.2202,3.906,21.729,-13.245,-107.644,40.463,177.330
9443,-0.6328,-0.7686,-0.1929,5.249,13.550,-3.479,-107.661,40.375,177.177
9453,-0.6440,-0.6455,-0.1865,5.310,5.798,2.136,-107.644,40.408,177.094
9463,-0.6504,-0.6367,-0.1533,6.470,3.967,3.174,-107.578,40.474,177.034
9473,-0.6411,-0.6743,-0.1323,3.235,6.226,0.244,-107.529,40.479,176.957
9483,-0.6279,-0.7144,-0.1313,-5.371,9.583,-3.967,-107.578,40.419,176.852
9493,-0.6328,-0.7651,-0.1509,-13.794,13.245,-6.226,-107.743,40.309,176.710
9503,-0.6299,-0.8057,-0.1875,-17.700,14.709,-7.263,-107.974,40.166,176.556
9513,-0.6309,-0.8423,-0.2017,-16.174,14.771,-6.897,-108.188,40.012,176.396
9523,-0.6274,-0.8252,-0.2295,-12.207,13.916,-4.211,-108.380,39.891,176.243
9533,-0.6387,-0.7622,-0.2773,-4.395,13.062,-0.488,-108.539,39.831,176.083
9543,-0.6348,-0.6992,-0.3052,7.202,13.184,2.441,-108.627,39.809,175.913
9553,-0.6279,-0.6792,-0.3198,16.174,13.123,3.906,-108.649,39.809,175.732
9563,-0.6289,-0.6597,-0.3340,17.517,10.681,4.395,-108.649,39.820,175.583
9573,-0.6104,-0.6743,-0.3472,14.099,5.615,4.028,-108.649,39.831,175.496
9583,-0.5894,-0.7583,-0.3135,8.850,-2.869,4.883,-108.594,39.842,175.512
9593,-0.6133,-0.8096,-0.2666,-0.793,-13.306,7.812,-108.512,39.919,175.644
9603,-0.6494,-0.8105,-0.2207,-9.460,-19.348,10.010,-108.446,40.051,175.842
9613,-0.6758,-0.7456,-0.2031,-11.841,-16.235,9.827,-108.430,40.204,176.001
9623,-0.6719,-0.6655,-0.1904,-6.165,-5.798,7.568,-108.441,40.336,176.039
9633,-0.6768,-0.6147,-0.1851,3.784,6.470,5.005,-108.452,40.424,175.941
9643,-0.6670,-0.5835,-0.1909,13.123,15.930,0.916,-108.452,40.452,175.737
9653,-0.6387,-0.5928,-0.1997,18.433,20.325,-3.052,-108.424,40.413,175.496
9663,-0.6025,-0.6611,-0.1982,15.686,17.761,-3.662,-108.380,40.331,175.292
9673,-0.5825,-0.7686,-0.1860,5.676,8.606,-1.770,-108.342,40.243,175.193
9683,-0.5981,-0.8599,-0.1685,-7.507,-0.549,1.343,-108.342,40.199,175.193
9693,-0.6445,-0.9248,-0.1748,-16.968,-3.052,4.333,-108.424,40.193,175.215
9703,-0.6777,-0.9170,-0.1807,-19.775,3.784,6.042,-108.589,40.193,175.139
9713,-0.7041,-0.8213,-0.2163,-16.479,20.386,7.385,-108.896,40.193,174.858
9723,-0.7036,-0.7031,-0.2720,-7.996,41.382,7.324,-109.347,40.161,174.315
9733,-0.6719,-0.6167,-0.3154,2.380,54.504,5.127,-109.841,40.067,173.617
9743,-0.6343,-0.5830,-0.3311,9.766,55.664,2.075,-110.286,39.935,172.925
9753,-0.6074,-0.6006,-0.3364,11.169,46.936,-0.488,-110.627,39.781,172.354
9763,-0.5908,-0.6343,-0.3442,6.653,32.471,-1.770,-110.885,39.650,171.964
9773,-0.5786,-0.6973,-0.3413,0.610,16.541,-2.319,-111.055,39.540,171.777
9783,-0.5884,-0.7646,-0.3276,-7.202,-2.380,-1.770,-111.121,39.490,171.815
9793,-0.6172,-0.8203,-0.2710,-12.207,-15.564,-1.160,-111.094,39.496,172.007
9803,-0.6362,-0.8271,-0.2461,-16.235,-14.038,0.732,-111.105,39.518,172.172
9813,-0.6587,-0.7573,-0.2588,-16.357,-3.174,2.441,-111.226,39.556,172.200
9823,-0.6602,-0.7080,-0.2500,-9.766,10.010,2.197,-111.390,39.556,172.068
9833,-0.6572,-0.6558,-0.2446,-1.648,18.982,0.427,-111.539,39.529,171.837
9843,-0.6353,-0.6255,-0.2549,6.042,23.682,-2.197,-111.660,39.457,171.562
9853,-0.6191,-0.6377,-0.2515,11.902,21.912,-4.211,-111.693,39.364,171.321
9863,-0.6016,-0.7012,-0.2476,12.573,14.404,-4.944,-111.643,39.265,171.167
9873,-0.5962,-0.7329,-0.2515,7.690,0.793,-4.211,-111.533,39.205,171.178
9883,-0.5898,-0.7739,-0.2129,2.686,-14.893,-3.418,-111.319,39.199,171.376
9893,-0.6138,-0.8306,-0.1631,-2.136,-22.949,-2.197,-111.061,39.232,171.661
9903,-0.6411,-0.8564,-0.1548,-7.141,-19.409,-0.854,-110.874,39.265,171.898
9915,-0.6592,-0.8232,-0.1885,-11.169,-6.653,2.014,-110.863,39.293,171.969
9923,-0.6655,-0.7349,-0.2529,-12.390,6.714,5.371,-111.033,39.331,171.865
9933,-0.6572,-0.6357,-0.3135,-9.399,14.893,7.019,-111.308,39.380,171.650
9943,-0.6470,-0.5693,-0.3716,-4.089,17.883,6.042,-111.621,39.413,171.409
9953,-0.6172,-0.5713,-0.4141,1.526,15.869,3.052,-111.879,39.397,171.200
9963,-0.5957,-0.6460,-0.4111,5.127,6.958,-0.488,-111.984,39.353,171.123
9973,-0.5825,-0.7593,-0.3779,5.249,-4.883,-3.174,-111.929,39.293,171.194
9983,-0.5903,-0.8843,-0.3198,1.648,-16.479,-3.418,-111.758,39.254,171.409
9993,-0.6182,-0.9404,-0.2690,-3.967,-21.973,-1.343,-111.572,39.249,171.678
10003,-0.6587,-0.9038,-0.2554,-8.484,-18.738,3.296,-111.467,39.309,171.887
10013,-0.6709,-0.7949,-0.2573,-10.132,-9.521,8.545,-111.484,39.413,171.964
10023,-0.6631,-0.6187,-0.2783,-8.362,-0.427,11.475,-111.627,39.573,171.914
10033,-0.6655,-0.4761,-0.3037,-3.479,5.615,10.498,-111.846,39.749,171.793
10043,-0.6572,-0.4409,-0.3110,3.296,9.827,4.639,-112.033,39.864,171.656
10053,-0.6201,-0.5020,-0.3032,7.751,9.338,-4.761,-112.104,39.853,171.562
10063,-0.5854,-0.5908,-0.3008,7.568,5.066,-13.123,-112.077,39.732,171.568
10073,-0.5811,-0.7632,-0.2656,7.019,-2.563,-16.541,-111.907,39.551,171.678
10083,-0.5957,-0.9302,-0.2119,3.052,-13.306,-15.686,-111.638,39.380,171.914
10093,-0.6221,-0.9829,-0.1816,-2.686,-20.142,-12.146,-111.363,39.265,172.216
10103,-0.6631,-0.9541,-0.1890,-5.249,-21.973,-4.883,-111.138,39.249,172.502
10113,-0.6772,-0.8667,-0.2041,-2.319,-14.954,3.174,-110.978,39.315,172.667
10123,-0.6562,-0.7236,-0.2368,1.709,-5.859,8.789,-110.912,39.430,172.700
10133,-0.6357,-0.5981,-0.2690,5.615,1.404,10.681,-110.929,39.567,172.634
10143,-0.6211,-0.5518,-0.2798,8.972,6.409,8.301,-110.973,39.677,172.518
10153,-0.6108,-0.5933,-0.2710,8.911,7.202,3.418,-110.989,39.721,172.414
10163,-0.6040,-0.6865,-0.2671,3.845,5.859,-1.831,-110.989,39.677,172.348
10173,-0.6040,-0.7915,-0.2603,-2.441,4.028,-5.859,-111.000,39.573,172.326
10183,-0.6167,-0.8535,-0.2632,-7.996,1.221,-6.714,-111.033,39.457,172.343
10193,-0.6396,-0.8477,-0.2866,-12.207,-1.160,-3.845,-111.110,39.386,172.375
10203,-0.6631,-0.7583,-0.3301,-12.634,-1.343,1.099,-111.253,39.397,172.386
10213,-0.6738,-0.6729,-0.3506,-6.958,0.671,5.249,-111.401,39.463,172.354
10223,-0.6558,-0.5767,-0.3667,0.366,3.479,5.554,-111.555,39.545,172.288
10233,-0.6387,-0.5063,-0.3740,4.883,3.784,2.869,-111.693,39.617,172.227
10243,-0.6201,-0.5396,-0.3340,6.897,0.122,-1.282,-111.720,39.650,172.233
10253,-0.6025,-0.6294,-0.2739,3.174,-7.141,-6.165,-111.632,39.639,172.348
10263,-0.5957,-0.7383,-0.2349,-3.906,-12.512,-10.742,-111.506,39.562,172.551
10273,-0.6133,-0.8442,-0.2041,-10.071,-15.808,-12.329,-111.368,39.463,172.798
10283,-0.6289,-0.9058,-0.1851,-13.550,-15.808,-10.254,-111.253,39.375,173.040
10293,-0.6367,-0.8726,-0.2021,-13.916,-11.963,-5.066,-111.204,39.331,173.205
10303,-0.6401,-0.7729,-0.2319,-9.521,-5.127,0.916,-111.215,39.348,173.265
10313,-0.6436,-0.6953,-0.2354,-1.221,1.953,5.066,-111.231,39.408,173.216
10323,-0.6270,-0.6104,-0.2476,5.005,6.409,4.944,-111.253,39.474,173.117
10333,-0.6167,-0.5840,-0.2666,8.789,7.080,1.770,-111.259,39.507,173.024
10343,-0.6089,-0.6987,-0.2515,10.193,5.005,-2.258,-111.176,39.468,172.974
10353,-0.6104,-0.8032,-0.2397,4.822,-0.671,-5.981,-111.061,39.380,173.007
10363,-0.6201,-0.8774,-0.2417,-2.930,-6.042,-6.897,-110.967,39.287,173.112
10373,-0.6328,-0.8940,-0.2471,-8.179,-9.094,-3.845,-110.912,39.232,173.243
10383,-0.6484,-0.8481,-0.2661,-10.620,-9.399,2.258,-110.918,39.254,173.342
10393,-0.6377,-0.7480,-0.2861,-7.751,-7.141,7.812,-110.962,39.348,173.397
10403,-0.6216,-0.6113,-0.3101,-2.686,-4.211,10.254,-111.050,39.485,173.397
10413,-0.6211,-0.5566,-0.3247,3.235,-1.343,9.094,-111.121,39.617,173.370
10423,-0.6221,-0.5742,-0.3159,6.775,-0.671,4.883,-111.143,39.705,173.359
10433,-0.6338,-0.6221,-0.3091,3.845,-3.601,0.061,-111.132,39.749,173.403
10443,-0.6460,-0.6943,-0.2891,-2.991,-7.935,-2.991,-111.105,39.754,173.513
10453,-0.6562,-0.7622,-0.2720,-10.376,-12.512,-4.028,-111.083,39.754,173.683
10463,-0.6592,-0.7969,-0.2705,-14.954,-15.442,-3.967,-111.077,39.760,173.886
10473,-0.6484,-0.7720,-0.2808,-12.634,-14.404,-3.845,-111.072,39.760,174.078
10483,-0.6299,-0.7124,-0.2920,-5.371,-10.620,-2.991,-111.044,39.765,174.221
10493,-0.6201,-0.6743,-0.2832,4.028,-6.287,-2.136,-110.967,39.771,174.309
10503,-0.6172,-0.6738,-0.2485,10.986,-2.869,-3.357,-110.819,39.760,174.359
10513,-0.6201,-0.6909,-0.2100,11.658,-1.160,-5.188,-110.643,39.727,174.397
10523,-0.6201,-0.7222,-0.1758,6.348,-0.305,-6.348,-110.490,39.672,174.430
10533,-0.6250,-0.7607,-0.1484,-3.357,-0.366,-6.287,-110.407,39.606,174.463
10543,-0.6245,-0.7910,-0.1475,-13.733,-0.610,-5.249,-110.424,39.540,174.496
10553,-0.6274,-0.7705,-0.1934,-21.545,0.427,-3.784,-110.566,39.490,174.507
10563,-0.6313,-0.7563,-0.2393,-21.484,3.540,-2.075,-110.770,39.452,174.474
10574,-0.6299,-0.7524,-0.2603,-13.367,7.202,-1.099,-110.934,39.402,174.391
10583,-0.6318,-0.7378,-0.2827,-2.747,9.277,-0.427,-111.033,39.359,174.282
10593,-0.6440,-0.7354,-0.2891,7.202,9.949,0.671,-111.044,39.326,174.161
10603,-0.6475,-0.7271,-0.2900,13.916,9.033,1.404,-110.984,39.315,174.045
10613,-0.6372,-0.7085,-0.2866,14.099,6.470,2.441,-110.912,39.315,173.952
10623,-0.6201,-0.7046,-0.2729,8.728,2.686,3.967,-110.863,39.342,173.903
10633,-0.5981,-0.7075,-0.2686,0.000,-0.610,3.967,-110.869,39.375,173.892
10643,-0.5972,-0.7070,-0.2759,-9.399,-1.160,2.747,-110.962,39.391,173.892
10653,-0.6074,-0.7275,-0.2842,-15.381,1.709,0.977,-111.138,39.380,173.870
10663,-0.6309,-0.7554,-0.2847,-16.113,7.324,-1.160,-111.341,39.331,173.787
10673,-0.6523,-0.7715,-0.2891,-12.146,13.855,-2.563,-111.550,39.243,173.628
10683,-0.6538,-0.7803,-0.2993,-4.700,18.921,-2.441,-111.725,39.144,173.414
10693,-0.6523,-0.7500,-0.3179,2.319,18.982,0.305,-111.857,39.073,173.188
10703,-0.6479,-0.6992,-0.3281,8.545,14.038,4.150,-111.923,39.067,172.996
10713,-0.6299,-0.6519,-0.3330,13.367,6.653,6.714,-111.912,39.122,172.886
10723,-0.6006,-0.6313,-0.3320,13.977,-1.831,6.592,-111.841,39.199,172.875
10733,-0.5806,-0.6567,-0.3057,10.437,-9.705,4.578,-111.709,39.271,172.969
10743,-0.5913,-0.7251,-0.2710,3.052,-14.099,1.160,-111.566,39.315,173.134
10753,-0.6206,-0.8027,-0.2554,-6.165,-13.428,-1.892,-111.478,39.315,173.304
10763,-0.6450,-0.8320,-0.2515,-13.245,-8.850,-2.991,-111.489,39.293,173.425
10773,-0.6606,-0.8154,-0.2500,-13.550,-2.136,-2.197,-111.555,39.265,173.463
10783,-0.6665,-0.7568,-0.2603,-7.751,4.333,0.183,-111.638,39.254,173.408
10793,-0.6489,-0.7061,-0.2578,2.014,9.155,2.808,-111.682,39.265,173.287
10803,-0.6226,-0.6460,-0.2725,10.681,10.010,4.211,-111.676,39.293,173.145
10813,-0.6133,-0.6343,-0.2803,16.235,7.263,4.883,-111.605,39.331,173.035
10823,-0.6060,-0.6582,-0.2876,15.686,1.282,4.517,-111.495,39.375,172.996
10833,-0.5996,-0.6826,-0.2920,9.521,-7.141,2.869,-111.368,39.424,173.068
10843,-0.6260,-0.7354,-0.2734,1.587,-13.000,0.854,-111.248,39.468,173.221
10853,-0.6680,-0.7573,-0.2793,-7.507,-13.367,-0.610,-111.209,39.512,173.386
10863,-0.6665,-0.7715,-0.2822,-13.367,-8.911,-1.465,-111.259,39.529,173.502
10873,-0.6509,-0.7466,-0.2866,-15.503,-2.625,-1.465,-111.385,39.518,173.540
10883,-0.6436,-0.7104,-0.2979,-12.451,2.747,-1.038,-111.539,39.507,173.513
10893,-0.6196,-0.7012,-0.2842,-3.540,6.958,-1.282,-111.627,39.468,173.436
10903,-0.6074,-0.6797,-0.2847,4.639,8.240,-1.831,-111.649,39.419,173.342
10913,-0.6152,-0.6787,-0.2808,11.230,7.996,-2.258,-111.599,39.375,173.260
10923,-0.6094,-0.7290,-0.2656,14.771,6.165,-2.747,-111.478,39.315,173.199
10933,-0.6177,-0.7607,-0.2510,11.536,1.892,-2.258,-111.335,39.271,173.183
10943,-0.6377,-0.7534,-0.2500,4.089,-3.296,-0.488,-111.242,39.271,173.227
10953,-0.6460,-0.7476,-0.2417,-1.526,-5.615,1.160,-111.182,39.304,173.287
10963,-0.6445,-0.7217,-0.2236,-5.127,-5.127,2.197,-111.165,39.359,173.342
10973,-0.6450,-0.6919,-0.2153,-6.653,-2.319,2.258,-111.182,39.408,173.359
10983,-0.6309,-0.6694,-0.2197,-5.737,1.892,1.099,-111.226,39.435,173.331
10993,-0.6177,-0.6392,-0.2446,-4.517,5.249,-0.916,-111.302,39.435,173.271
11003,-0.6133,-0.6499,-0.2646,-2.380,7.141,-3.540,-111.379,39.391,173.199
11013,-0.6064,-0.7036,-0.2808,-0.244,8.057,-6.470,-111.429,39.298,173.134
11023,-0.6113,-0.7666,-0.2905,-0.916,6.592,-7.874,-111.456,39.177,173.095
11033,-0.6323,-0.7896,-0.3174,-3.052,2.869,-6.836,-111.489,39.078,173.090
11043,-0.6392,-0.7930,-0.3237,-3.784,-0.854,-3.967,-111.517,39.018,173.117
11053,-0.6372,-0.7681,-0.3154,-3.479,-4.089,-1.038,-111.528,39.012,173.172
11063,-0.6426,-0.6914,-0.3262,-2.747,-5.554,0.916,-111.550,39.051,173.238
11074,-0.6377,-0.5586,-0.3501,-0.610,-5.066,1.953,-111.632,39.139,173.287
11083,-0.6372,-0.4404,-0.4014,1.587,-3.784,0.427,-111.797,39.232,173.331
11093,-0.6357,-0.4780,-0.4092,5.554,-3.357,-5.249,-111.885,39.260,173.397
11103,-0.6182,-0.6343,-0.3652,6.775,-5.127,-13.855,-111.819,39.155,173.524
11113,-0.5996,-0.7812,-0.3403,-1.038,-9.277,-20.142,-111.720,38.969,173.732
11123,-0.5972,-0.9282,-0.3022,-11.230,-13.550,-20.691,-111.632,38.749,173.990
11133,-0.6123,-1.0239,-0.2720,-17.822,-16.602,-16.357,-111.566,38.573,174.265
11143,-0.6289,-1.0356,-0.2725,-18.738,-16.968,-8.362,-111.539,38.480,174.507
11153,-0.6382,-0.9312,-0.2930,-12.207,-14.282,0.427,-111.511,38.480,174.677
11163,-0.6260,-0.7646,-0.3086,0.854,-11.475,7.141,-111.445,38.573,174.781
11173,-0.6143,-0.6470,-0.2969,17.212,-9.888,10.193,-111.264,38.727,174.847
11183,-0.5791,-0.5620,-0.2666,30.518,-10.437,7.202,-110.945,38.875,174.941
11193,-0.5566,-0.6211,-0.1914,36.499,-12.939,1.160,-110.457,38.947,175.089
11203,-0.5742,-0.7559,-0.1113,29.419,-16.541,-3.845,-109.907,38.947,175.309
11213,-0.5913,-0.8706,-0.0640,12.268,-18.616,-6.653,-109.473,38.903,175.562
11223,-0.6187,-0.9360,-0.0688,-5.188,-14.954,-4.761,-109.243,38.853,175.765
11233,-0.6484,-0.9375,-0.1045,-16.235,-7.324,1.038,-109.226,38.842,175.847
11243,-0.6660,-0.8125,-0.1895,-18.616,-0.366,8.179,-109.363,38.914,175.814
11253,-0.6729,-0.7173,-0.2417,-9.521,5.859,14.465,-109.534,39.056,175.682
11263,-0.6606,-0.6270,-0.2705,4.822,8.972,16.052,-109.638,39.227,175.507
11273,-0.6318,-0.5342,-0.3057,16.602,8.057,13.306,-109.671,39.391,175.353
11283,-0.6045,-0.5415,-0.2944,23.010,4.333,9.277,-109.589,39.512,175.259
11293,-0.5928,-0.6226,-0.2778,18.799,-2.075,5.127,-109.446,39.584,175.259
11303,-0.6006,-0.7256,-0.2437,5.188,-8.057,1.221,-109.330,39.606,175.353
11313,-0.6294,-0.8184,-0.2305,-12.024,-9.949,-0.488,-109.330,39.606,175.479
11323,-0.6602,-0.8574,-0.2334,-23.804,-6.470,-0.183,-109.479,39.595,175.556
11333,-0.6670,-0.8350,-0.2432,-25.024,-0.305,0.122,-109.688,39.573,175.562
11343,-0.6665,-0.7695,-0.2734,-17.456,6.897,1.953,-109.918,39.567,175.468
11353,-0.6553,-0.6646,-0.2959,-4.517,11.902,4.272,-110.110,39.589,175.303
11363,-0.6426,-0.5820,-0.3140,8.972,14.343,4.517,-110.226,39.628,175.111
11373,-0.6069,-0.5850,-0.3027,18.372,12.634,1.587,-110.215,39.633,174.946
11383,-0.5781,-0.6875,-0.2612,17.883,6.409,-1.526,-110.089,39.584,174.875
11393,-0.5967,-0.7812,-0.2266,6.958,-0.977,-2.197,-109.968,39.529,174.897
11403,-0.6362,-0.8384,-0.2046,-6.470,-6.714,-1.892,-109.913,39.507,174.990
11413,-0.6626,-0.8452,-0.1895,-14.099,-7.568,-1.465,-109.918,39.496,175.089
11423,-0.6821,-0.7515,-0.2095,-13.794,-4.028,-1.160,-109.979,39.518,175.144
11433,-0.6689,-0.6309,-0.2524,-4.883,4.944,-0.916,-110.078,39.540,175.084
11443,-0.6235,-0.5684,-0.2856,8.118,15.198,-1.038,-110.176,39.529,174.902
11453,-0.5854,-0.5776,-0.3169,15.747,17.334,-1.221,-110.237,39.479,174.699
11463,-0.5454,-0.6416,-0.3437,17.273,12.024,0.366,-110.237,39.413,174.551
11473,-0.5708,-0.7534,-0.3301,12.939,0.549,5.432,-110.165,39.419,174.518
11483,-0.6318,-0.8262,-0.3081,3.052,-13.062,9.094,-110.061,39.507,174.639
11493,-0.6719,-0.8843,-0.2778,-5.188,-20.874,8.057,-109.951,39.617,174.858
11503,-0.6982,-0.8486,-0.2642,-9.033,-20.996,5.249,-109.869,39.727,175.089
11513,-0.7129,-0.7520,-0.2690,-4.150,-15.015,3.296,-109.797,39.825,175.259
11523,-0.6846,-0.6440,-0.2666,7.629,-4.089,1.709,-109.720,39.902,175.303
11533,-0.6519,-0.5635,-0.2793,18.066,5.737,-1.221,-109.655,39.930,175.237
11543,-0.6025,-0.5371,-0.2871,23.926,10.193,-5.188,-109.567,39.897,175.133
11553,-0.5522,-0.6094,-0.2363,24.292,7.629,-8.118,-109.380,39.798,175.078
11563,-0.5493,-0.7246,-0.1973,14.954,-0.488,-8.179,-109.160,39.688,175.117
11574,-0.5742,-0.8442,-0.1650,1.892,-9.521,-5.737,-108.973,39.606,175.259
11583,-0.6167,-0.9531,-0.1060,-8.911,-18.494,-1.221,-108.787,39.584,175.490
11593,-0.6709,-0.9683,-0.1006,-19.348,-23.010,4.822,-108.688,39.655,175.754
11603,-0.7046,-0.8735,-0.1411,-22.949,-18.616,11.047,-108.704,39.809,175.935
11613,-0.7007,-0.7227,-0.1929,-19.592,-8.545,15.503,-108.831,40.012,175.979
11623,-0.6899,-0.5879,-0.2319,-11.780,1.526,14.954,-109.028,40.221,175.897
11633,-0.6636,-0.4922,-0.2603,-3.906,9.399,9.094,-109.254,40.375,175.737
11643,-0.6377,-0.4946,-0.2822,0.305,14.526,0.732,-109.473,40.413,175.556
11653,-0.6108,-0.5894,-0.2783,1.160,16.296,-7.446,-109.627,40.320,175.386
11663,-0.5923,-0.7012,-0.2808,-3.357,13.306,-12.512,-109.753,40.133,175.276
11673,-0.6055,-0.8096,-0.2681,-8.606,7.812,-12.817,-109.852,39.941,175.237
11683,-0.6177,-0.8838,-0.2500,-11.536,2.563,-10.193,-109.913,39.776,175.254
11693,-0.6206,-0.8667,-0.2646,-13.184,-2.014,-5.066,-109.984,39.683,175.298
11703,-0.6348,-0.8008,-0.2788,-10.254,-3.418,0.854,-110.056,39.677,175.336
11713,-0.6587,-0.7266,-0.2773,-3.601,-2.014,4.333,-110.094,39.727,175.342
11723,-0.6631,-0.6587,-0.2803,2.075,0.610,4.578,-110.121,39.798,175.314
11733,-0.6489,-0.6318,-0.2900,3.784,2.441,3.052,-110.160,39.853,175.270
11743,-0.6387,-0.6304,-0.2993,2.808,2.563,0.000,-110.204,39.869,175.237
11753,-0.6235,-0.6846,-0.2930,1.160,1.831,-4.211,-110.220,39.825,175.237
11763,-0.6304,-0.7622,-0.2764,-1.099,-0.366,-6.958,-110.209,39.743,175.270
11773,-0.6304,-0.8345,-0.2549,-2.808,-3.052,-7.019,-110.160,39.650,175.342
11783,-0.6245,-0.8335,-0.2461,-3.540,-4.333,-4.639,-110.110,39.578,175.413
11793,-0.6216,-0.8047,-0.2441,-1.831,-3.967,-0.732,-110.067,39.556,175.468
11803,-0.6338,-0.7744,-0.2349,1.892,-2.258,2.441,-110.006,39.573,175.485
11813,-0.6289,-0.7363,-0.2397,3.784,-0.122,2.930,-109.951,39.595,175.474
11823,-0.6235,-0.6992,-0.2437,4.578,2.258,2.441,-109.924,39.617,175.435
11833,-0.6216,-0.6636,-0.2593,3.601,3.235,1.831,-109.935,39.633,175.386
11843,-0.6445,-0.6787,-0.2534,1.770,2.502,1.648,-109.946,39.661,175.347
11853,-0.6514,-0.7061,-0.2690,-2.380,0.488,1.648,-109.984,39.688,175.336
11863,-0.6392,-0.7148,-0.3057,-5.493,-1.831,1.343,-110.061,39.705,175.353
11873,-0.6338,-0.7236,-0.3521,-3.784,-4.272,0.793,-110.127,39.710,175.397
11883,-0.6294,-0.7412,-0.3643,1.831,-5.981,0.061,-110.121,39.710,175.474
11893,-0.6406,-0.7427,-0.3394,7.385,-8.484,-0.488,-110.028,39.716,175.578
11903,-0.6318,-0.7446,-0.2886,11.353,-10.132,-0.977,-109.847,39.727,175.704
11916,-0.6333,-0.7192,-0.2290,10.498,-11.169,-0.061,-109.633,39.771,175.842
11923,-0.6436,-0.6636,-0.1777,4.639,-11.292,1.526,-109.457,39.853,175.974
11933,-0.6353,-0.6250,-0.1333,-2.075,-9.949,2.014,-109.330,39.957,176.089
11943,-0.6211,-0.5981,-0.1104,-7.751,-8.728,0.671,-109.254,40.045,176.193
11953,-0.6201,-0.6040,-0.1211,-10.742,-6.958,-2.014,-109.221,40.100,176.287
11963,-0.6240,-0.7007,-0.1313,-8.301,-3.418,-5.310,-109.177,40.073,176.353
11973,-0.6216,-0.8242,-0.1416,-4.700,0.244,-8.362,-109.105,39.963,176.385
11983,-0.6235,-0.9355,-0.1421,-2.869,3.967,-8.484,-109.039,39.803,176.375
11993,-0.6299,-0.9526,-0.1772,-3.479,8.057,-4.395,-109.039,39.666,176.292
12003,-0.6411,-0.9092,-0.2295,-3.723,11.780,1.770,-109.122,39.595,176.138
12013,-0.6602,-0.8525,-0.2729,-2.014,14.832,7.690,-109.265,39.584,175.924
12023,-0.6660,-0.7510,-0.3174,-1.709,15.869,11.169,-109.473,39.633,175.682
12033,-0.6553,-0.6250,-0.3628,-1.221,14.343,11.597,-109.731,39.721,175.457
12043,-0.6431,-0.5298,-0.3867,1.160,10.498,9.033,-109.990,39.820,175.287
12053,-0.6294,-0.4790,-0.3809,3.662,4.822,4.150,-110.187,39.902,175.210
12063,-0.6050,-0.5293,-0.3521,3.052,-1.831,-1.526,-110.275,39.930,175.243
12074,-0.5933,-0.6382,-0.3027,-1.038,-8.850,-6.531,-110.248,39.902,175.380
12083,-0.5986,-0.7656,-0.2402,-8.118,-14.832,-9.033,-110.160,39.836,175.600
12093,-0.6201,-0.8628,-0.1895,-14.221,-15.991,-8.484,-110.072,39.765,175.836
12103,-0.6421,-0.8813,-0.1631,-15.930,-10.681,-6.226,-110.034,39.699,175.990
12113,-0.6587,-0.8301,-0.1763,-13.184,-1.221,-2.563,-110.067,39.661,176.017
12123,-0.6655,-0.7363,-0.2007,-7.690,9.094,1.648,-110.171,39.661,175.902
12133,-0.6616,-0.6353,-0.2173,-1.526,16.479,3.723,-110.314,39.688,175.682
12143,-0.6484,-0.6050,-0.2334,2.869,19.470,2.380,-110.446,39.699,175.435
12153,-0.6274,-0.6616,-0.2354,3.235,17.334,-0.549,-110.539,39.655,175.226
12163,-0.6133,-0.7241,-0.2402,-1.648,10.498,-3.052,-110.605,39.578,175.111
12173,-0.6221,-0.7915,-0.2539,-8.118,2.380,-3.174,-110.665,39.512,175.100
12183,-0.6431,-0.8540,-0.2778,-11.292,-3.113,-1.343,-110.726,39.474,175.144
12193,-0.6650,-0.8628,-0.3501,-13.123,-3.418,1.953,-110.847,39.463,175.177
12203,-0.6582,-0.8193,-0.4263,-11.597,0.854,5.615,-111.050,39.474,175.139
12213,-0.6240,-0.7168,-0.4634,-5.249,5.432,7.202,-111.286,39.485,175.040
12223,-0.6006,-0.6367,-0.4492,4.517,6.409,6.287,-111.445,39.501,174.930
12233,-0.5986,-0.5991,-0.3838,12.573,2.991,3.479,-111.467,39.529,174.880
12243,-0.5937,-0.6069,-0.2988,16.541,-2.686,-1.221,-111.324,39.545,174.919
12253,-0.6084,-0.6621,-0.2070,17.334,-8.667,-5.310,-111.033,39.545,175.045
12263,-0.6294,-0.7393,-0.1499,12.329,-11.414,-6.104,-110.709,39.534,175.215
12273,-0.6426,-0.7827,-0.1401,2.197,-10.803,-3.723,-110.490,39.529,175.364
12283,-0.6523,-0.7896,-0.1445,-5.859,-7.446,-0.427,-110.385,39.551,175.452
12293,-0.6484,-0.7603,-0.1689,-10.254,-2.869,2.747,-110.396,39.589,175.479
12303,-0.6445,-0.7041,-0.2085,-11.108,0.610,4.578,-110.484,39.644,175.446
12313,-0.6304,-0.6709,-0.2354,-6.714,3.845,3.845,-110.583,39.688,175.386
12323,-0.6284,-0.6626,-0.2520,-0.732,4.883,2.258,-110.632,39.710,175.314
12333,-0.6299,-0.6909,-0.2632,2.991,3.418,0.183,-110.632,39.705,175.270
12343,-0.6270,-0.7329,-0.2646,4.333,1.526,-1.587,-110.588,39.677,175.259
12353,-0.6362,-0.7646,-0.2725,2.625,-0.427,-1.953,-110.544,39.644,175.276
12363,-0.6377,-0.7754,-0.2974,-0.427,-1.038,-0.732,-110.544,39.617,175.292
12373,-0.6406,-0.7515,-0.3145,-2.625,-0.671,1.282,-110.588,39.617,175.292
12383,-0.6362,-0.6792,-0.3091,0.732,-0.305,1.587,-110.621,39.644,175.292
12393,-0.6372,-0.6431,-0.2925,4.089,0.549,-0.122,-110.627,39.666,175.281
12403,-0.6313,-0.6304,-0.2749,7.751,0.732,-2.686,-110.577,39.666,175.287
12413,-0.6328,-0.6685,-0.2480,9.644,0.549,-4.639,-110.468,39.639,175.303
12423,-0.6401,-0.6997,-0.2349,7.324,-0.610,-5.676,-110.358,39.606,175.336
12433,-0.6318,-0.7612,-0.2192,2.136,-1.343,-5.310,-110.264,39.551,175.375
12443,-0.6309,-0.8091,-0.2222,-4.578,-2.197,-3.601,-110.237,39.496,175.419
12453,-0.6235,-0.8291,-0.2339,-8.667,-2.930,-1.099,-110.253,39.463,175.457
12463,-0.6240,-0.8208,-0.2515,-9.033,-2.686,1.892,-110.292,39.452,175.485
12473,-0.6313,-0.7617,-0.2769,-6.775,-1.221,3.906,-110.358,39.479,175.479
12483,-0.6382,-0.7148,-0.2891,-1.282,1.099,4.272,-110.407,39.518,175.446
12493,-0.6353,-0.6836,-0.2964,3.967,2.686,2.808,-110.429,39.540,175.402
12503,-0.6421,-0.6548,-0.2974,5.859,2.258,0.549,-110.429,39.562,175.375
12513,-0.6426,-0.6567,-0.2847,5.249,1.038,-1.770,-110.413,39.567,175.369
12523,-0.6304,-0.6797,-0.2671,2.014,-0.549,-3.662,-110.385,39.545,175.391
12533,-0.6089,-0.7085,-0.2529,-2.747,-2.075,-4.272,-110.380,39.507,175.435
12543,-0.6035,-0.7437,-0.2236,-6.531,-3.540,-2.441,-110.374,39.479,175.490
12553,-0.6157,-0.7666,-0.2139,-9.766,-4.517,0.427,-110.385,39.485,175.540
12563,-0.6328,-0.7656,-0.2192,-11.536,-3.113,2.014,-110.440,39.501,175.573
12574,-0.6406,-0.7515,-0.2192,-10.437,-0.244,2.625,-110.506,39.523,175.562
12583,-0.6533,-0.7144,-0.2466,-7.874,2.319,2.747,-110.594,39.556,175.523
12593,-0.6611,-0.6650,-0.2729,-3.540,3.723,2.380,-110.682,39.595,175.463
12603,-0.6660,-0.6172,-0.2998,0.366,3.540,1.648,-110.764,39.644,175.413
12613,-0.6445,-0.6470,-0.3027,2.258,2.014,-0.244,-110.797,39.661,175.391
12623,-0.6118,-0.7163,-0.2837,1.099,-0.305,-2.380,-110.786,39.628,175.408
12633,-0.5981,-0.7993,-0.2710,-4.578,-2.441,-3.052,-110.786,39.562,175.452
12643,-0.5928,-0.8628,-0.2734,-11.047,-3.723,-1.648,-110.830,39.496,175.501
12653,-0.6089,-0.8770,-0.3027,-14.587,-3.174,2.075,-110.934,39.468,175.534
12663,-0.6299,-0.8403,-0.3521,-12.207,-2.258,6.897,-111.077,39.490,175.529
12673,-0.6455,-0.7568,-0.3975,-3.784,-3.479,12.451,-111.193,39.595,175.512
12683,-0.6528,-0.6816,-0.4160,8.057,-8.789,16.968,-111.198,39.776,175.540
12693,-0.6392,-0.6602,-0.3926,18.921,-16.968,18.555,-111.028,40.012,175.655
12703,-0.6265,-0.6489,-0.3379,22.156,-28.198,18.127,-110.709,40.281,175.913
12713,-0.6182,-0.6465,-0.2466,18.738,-37.903,15.320,-110.275,40.573,176.309
12723,-0.6265,-0.6592,-0.1558,13.367,-39.856,10.010,-109.786,40.825,176.754
12733,-0.6606,-0.6812,-0.0742,7.263,-33.081,4.211,-109.325,41.006,177.149
12743,-0.7002,-0.6704,-0.0347,1.465,-17.334,-1.160,-109.001,41.105,177.369
12753,-0.7202,-0.6377,-0.0381,-3.296,3.723,-7.812,-108.885,41.094,177.358
12763,-0.6987,-0.6309,-0.0713,-6.165,24.597,-15.137,-108.984,40.941,177.111
12773,-0.6533,-0.6689,-0.1040,-8.545,38.879,-19.836,-109.226,40.660,176.710
12783,-0.6260,-0.7212,-0.1602,-11.902,43.701,-20.569,-109.567,40.320,176.259
12793,-0.6250,-0.7798,-0.2148,-16.357,41.504,-17.212,-109.968,39.996,175.820
12803,-0.6162,-0.8423,-0.2705,-21.057,35.767,-12.207,-110.402,39.710,175.435
12813,-0.5967,-0.8765,-0.3525,-24.170,28.931,-6.653,-110.858,39.474,175.111
12823,-0.5986,-0.8467,-0.4121,-21.790,20.569,-0.061,-111.281,39.331,174.864
12833,-0.6167,-0.7734,-0.4751,-14.832,10.498,5.798,-111.627,39.293,174.710
12843,-0.6523,-0.6973,-0.5171,-4.456,1.221,7.996,-111.857,39.342,174.655
12853,-0.6431,-0.6387,-0.5068,4.211,-6.775,6.104,-111.945,39.408,174.710
12863,-0.6274,-0.5918,-0.4600,8.118,-13.245,2.869,-111.934,39.490,174.853
12873,-0.6216,-0.5889,-0.3740,7.629,-17.944,-1.404,-111.824,39.567,175.078
12883,-0.6221,-0.6235,-0.2432,3.357,-19.958,-6.287,-111.616,39.617,175.347
12893,-0.6265,-0.6685,-0.1235,-5.310,-17.517,-10.498,-111.390,39.617,175.611
12903,-0.6143,-0.7114,-0.0581,-14.343,-9.277,-12.695,-111.259,39.540,175.781
12913,-0.6060,-0.7280,-0.0278,-19.409,-0.732,-11.841,-111.215,39.435,175.847
12923,-0.6255,-0.7520,-0.0488,-19.775,6.348,-8.667,-111.259,39.337,175.809
12933,-0.6284,-0.7661,-0.1191,-17.212,12.085,-4.333,-111.385,39.249,175.682
12943,-0.6265,-0.7754,-0.2173,-12.878,14.709,0.732,-111.566,39.188,175.507
12953,-0.6406,-0.7910,-0.3101,-7.812,13.000,6.042,-111.758,39.177,175.320
12963,-0.6528,-0.8154,-0.3647,-3.113,9.094,9.033,-111.907,39.199,175.166
12973,-0.6611,-0.8037,-0.4106,-0.488,4.211,9.277,-112.022,39.238,175.073
12983,-0.6475,-0.7622,-0.4150,2.563,-0.427,7.385,-112.083,39.282,175.040
12993,-0.6201,-0.7021,-0.4043,6.836,-4.272,5.066,-112.077,39.326,175.067
13003,-0.6133,-0.6538,-0.3706,11.292,-6.287,3.357,-112.006,39.380,175.128
13013,-0.6099,-0.6328,-0.3291,12.024,-5.554,1.770,-111.901,39.424,175.188
13023,-0.5972,-0.6313,-0.2998,8.301,-2.869,-0.061,-111.835,39.446,175.221
13033,-0.6021,-0.6392,-0.2842,2.380,-1.099,-1.465,-111.819,39.452,175.243
13043,-0.6152,-0.6846,-0.2632,-3.906,-0.916,-2.380,-111.835,39.441,175.265
13053,-0.6445,-0.7241,-0.2593,-10.376,-0.793,-2.930,-111.901,39.419,175.287
13063,-0.6641,-0.7446,-0.2656,-15.625,0.061,-3.357,-112.022,39.397,175.303
13074,-0.6694,-0.7554,-0.2705,-15.503,1.831,-3.601,-112.159,39.359,175.298
13083,-0.6528,-0.7451,-0.2715,-10.620,3.174,-2.869,-112.258,39.320,175.276
13093,-0.6538,-0.7358,-0.2666,-3.967,3.235,-1.099,-112.291,39.304,175.243
13103,-0.6406,-0.7061,-0.2764,0.916,3.418,0.366,-112.302,39.304,175.199
13113,-0.6177,-0.6763,-0.2915,2.502,3.906,0.854,-112.319,39.304,175.150
13123,-0.5967,-0.6777,-0.3076,1.465,3.845,0.916,-112.357,39.293,175.095
13133,-0.5879,-0.7129,-0.3149,-2.258,1.648,0.793,-112.407,39.271,175.073
13144,-0.6030,-0.7681,-0.3018,-7.568,-2.075,0.427,-112.462,39.254,175.095
13153,-0.6299,-0.8115,-0.2817,-13.550,-5.859,0.732,-112.516,39.254,175.161
13164,-0.6270,-0.7856,-0.2822,-17.456,-7.935,2.197,-112.610,39.276,175.243
13174,-0.6343,-0.7451,-0.2876,-16.174,-7.202,4.517,-112.720,39.337,175.309
13184,-0.6479,-0.7080,-0.2866,-10.681,-5.066,5.920,-112.797,39.424,175.342
13193,-0.6592,-0.6626,-0.3076,-5.127,-2.136,5.676,-112.868,39.507,175.336
13204,-0.6538,-0.6543,-0.3154,-0.977,1.038,4.395,-112.928,39.567,175.303
13214,-0.6333,-0.6846,-0.3154,-0.122,1.709,2.502,-112.972,39.589,175.270
13224,-0.6304,-0.7192,-0.3120,-4.211,-0.977,1.343,-113.016,39.600,175.276
13234,-0.6367,-0.7593,-0.3076,-11.292,-5.798,0.793,-113.077,39.611,175.342
13244,-0.6260,-0.8164,-0.2944,-18.005,-10.254,1.221,-113.148,39.622,175.457
13254,-0.6138,-0.8145,-0.3076,-24.109,-13.245,4.150,-113.275,39.672,175.594
13264,-0.6235,-0.7446,-0.3433,-24.048,-14.160,7.263,-113.445,39.765,175.726
13274,-0.6357,-0.6543,-0.3613,-15.930,-15.076,7.751,-113.566,39.902,175.864
13284,-0.6562,-0.5713,-0.3906,-5.310,-18.372,5.554,-113.610,40.062,176.056
13294,-0.6797,-0.5273,-0.4233,5.127,-23.743,0.244,-113.527,40.210,176.336
13304,-0.6528,-0.5488,-0.4453,14.526,-31.616,-7.935,-113.269,40.287,176.759
13314,-0.6167,-0.6421,-0.4189,17.517,-44.434,-13.855,-112.808,40.320,177.363
13324,-0.6216,-0.7051,-0.3745,8.972,-62.927,-15.381,-112.231,40.397,178.204
13334,-0.6338,-0.7563,-0.2681,-1.465,-76.294,-15.808,-111.572,40.518,179.209
13343,-0.6392,-0.8369,-0.1523,-10.559,-72.754,-16.479,-110.940,40.594,-179.813
13353,-0.6475,-0.8174,-0.0757,-21.301,-59.082,-16.846,-110.479,40.622,-179.006
13363,-0.6538,-0.7129,-0.0635,-32.166,-40.283,-16.724,-110.270,40.627,-178.434
13373,-0.6680,-0.6772,-0.0732,-35.034,-19.104,-16.296,-110.275,40.578,-178.121
13383,-0.6631,-0.6895,-0.1206,-32.715,-0.610,-16.541,-110.446,40.457,-178.039
13393,-0.6230,-0.7007,-0.1851,-27.649,9.521,-14.404,-110.693,40.292,-178.094
13404,-0.6128,-0.7222,-0.2676,-19.470,12.634,-6.348,-110.962,40.172,-178.215
13414,-0.6162,-0.7715,-0.3262,-6.897,11.230,3.845,-111.149,40.128,-178.374
13424,-0.6309,-0.8062,-0.3657,2.075,2.869,12.207,-111.220,40.182,-178.467
13434,-0.6450,-0.8237,-0.3662,6.531,-5.981,15.808,-111.187,40.309,-178.467
13444,-0.6494,-0.7925,-0.3491,10.071,-7.935,14.648,-111.094,40.435,-178.440
13454,-0.6475,-0.7432,-0.3340,12.085,-5.676,11.108,-110.995,40.540,-178.423
13464,-0.6455,-0.7534,-0.3052,12.329,-2.747,7.324,-110.885,40.594,-178.423
13474,-0.6597,-0.8076,-0.2881,9.521,3.052,3.906,-110.814,40.589,-178.478
13484,-0.6538,-0.8433,-0.3076,5.249,10.010,2.563,-110.841,40.534,-178.616
13494,-0.6567,-0.7891,-0.3433,6.042,13.672,4.150,-110.929,40.490,-178.802
13504,-0.6772,-0.6621,-0.3789,12.756,12.329,7.690,-111.011,40.534,-178.989
13514,-0.6885,-0.5732,-0.3745,23.560,8.057,11.230,-110.995,40.655,-179.143
13524,-0.6528,-0.5278,-0.3301,31.677,1.160,12.024,-110.841,40.820,-179.214
13534,-0.6260,-0.4897,-0.2539,33.569,-7.935,10.010,-110.539,41.017,-179.160
13544,-0.6206,-0.4673,-0.1484,29.541,-15.259,6.897,-110.116,41.243,-179.006
13554,-0.6377,-0.4966,-0.0571,20.020,-17.639,2.930,-109.649,41.435,-178.797
13564,-0.6519,-0.5957,-0.0083,6.653,-14.465,-3.113,-109.265,41.517,-178.599
13574,-0.6504,-0.7334,-0.0186,-9.766,-5.981,-7.141,-109.111,41.468,-178.495
13584,-0.6553,-0.8188,-0.0889,-24.170,4.395,-6.348,-109.243,41.364,-178.522
13594,-0.6519,-0.8623,-0.1768,-27.954,12.817,-3.723,-109.534,41.243,-178.665
13604,-0.6719,-0.8496,-0.2666,-20.752,17.334,0.244,-109.863,41.144,-178.885
13614,-0.7031,-0.7671,-0.3521,-7.324,17.639,3.906,-110.138,41.105,-179.121
13624,-0.7100,-0.6206,-0.4092,9.644,15.869,4.944,-110.319,41.122,-179.346
13634,-0.6885,-0.4966,-0.3877,25.879,11.108,2.808,-110.336,41.177,-179.495
13644,-0.6489,-0.4819,-0.3164,32.593,3.540,-1.099,-110.171,41.226,-179.533
13654,-0.6221,-0.5322,-0.2349,24.048,-3.357,-5.859,-109.924,41.243,-179.467
13664,-0.6045,-0.6489,-0.1860,3.845,-4.761,-10.803,-109.775,41.160,-179.357
13674,-0.6035,-0.8579,-0.1714,-17.334,1.892,-13.245,-109.836,40.968,-179.319
13684,-0.6094,-0.9951,-0.1963,-33.325,11.902,-11.292,-110.143,40.721,-179.418
13694,-0.6230,-1.0083,-0.2607,-37.476,21.057,-5.249,-110.610,40.501,-179.654
13704,-0.6616,-0.9429,-0.3193,-27.954,27.527,3.723,-111.099,40.375,179.984
13714,-0.7021,-0.7627,-0.3774,-12.024,27.771,11.353,-111.522,40.369,179.588
13724,-0.7041,-0.5991,-0.3755,7.141,22.644,13.611,-111.775,40.457,179.247
13734,-0.6797,-0.4854,-0.3403,22.644,14.893,11.047,-111.835,40.589,179.011
13744,-0.6538,-0.4351,-0.2915,27.710,4.944,5.859,-111.742,40.732,178.923
13754,-0.6304,-0.4395,-0.2651,20.630,-3.784,-0.122,-111.599,40.847,178.967
13764,-0.6177,-0.5249,-0.2524,6.592,-6.958,-5.981,-111.500,40.875,179.083
13774,-0.6079,-0.6670,-0.2534,-8.545,-5.859,-10.681,-111.495,40.792,179.209
13784,-0.6079,-0.8369,-0.2490,-19.592,-1.465,-12.390,-111.594,40.627,179.286
13794,-0.6255,-0.9438,-0.2690,-24.841,2.625,-10.559,-111.769,40.441,179.302
13804,-0.6392,-0.9570,-0.2837,-21.057,6.165,-6.775,-111.951,40.276,179.264
13814,-0.6445,-0.8896,-0.2837,-10.254,8.972,-0.610,-112.077,40.182,179.154
13824,-0.6577,-0.7627,-0.2822,2.014,10.254,7.080,-112.143,40.193,178.995
13834,-0.6704,-0.6621,-0.2729,12.756,10.376,11.230,-112.132,40.287,178.819
13844,-0.6719,-0.5957,-0.2651,17.700,9.644,10.864,-112.088,40.408,178.643
13854,-0.6636,-0.5698,-0.2700,15.381,8.545,7.263,-112.055,40.501,178.506
13864,-0.6406,-0.5884,-0.2715,7.080,6.775,1.831,-112.072,40.534,178.412
13874,-0.6216,-0.6431,-0.2788,-4.150,4.272,-3.479,-112.148,40.501,178.380
13884,-0.6260,-0.7144,-0.3003,-15.076,2.136,-6.287,-112.302,40.419,178.385
13894,-0.6377,-0.7651,-0.3384,-21.973,-0.122,-6.592,-112.511,40.325,178.418
13904,-0.6357,-0.7871,-0.3569,-19.958,-1.526,-5.615,-112.698,40.243,178.467
13917,-0.6313,-0.7725,-0.3540,-11.292,-2.197,-3.235,-112.802,40.182,178.506
13924,-0.6377,-0.7251,-0.3359,-0.793,-2.869,-0.671,-112.808,40.172,178.544
13934,-0.6455,-0.6616,-0.3237,7.629,-3.723,0.793,-112.736,40.204,178.588
13944,-0.6641,-0.6372,-0.3208,11.597,-3.723,1.282,-112.637,40.259,178.627
13954,-0.6748,-0.6646,-0.3125,10.620,-2.991,1.099,-112.538,40.303,178.654
13964,-0.6426,-0.7104,-0.2974,6.042,-1.587,-0.183,-112.467,40.303,178.676
13974,-0.6211,-0.7490,-0.2783,-1.831,-0.244,-0.793,-112.462,40.270,178.682
13984,-0.6230,-0.7842,-0.2720,-8.667,-0.183,-1.038,-112.511,40.232,178.693
13994,-0.6182,-0.7876,-0.2544,-10.681,-2.441,-0.977,-112.549,40.193,178.726
14004,-0.6240,-0.7207,-0.2339,-7.141,-4.700,0.305,-112.538,40.210,178.781
14014,-0.6255,-0.6572,-0.1938,1.343,-4.639,1.282,-112.429,40.259,178.830
14024,-0.6343,-0.6074,-0.1646,9.094,-1.953,0.854,-112.253,40.325,178.852
14034,-0.6470,-0.5576,-0.1792,10.803,2.930,-0.183,-112.126,40.386,178.813
14044,-0.6553,-0.5732,-0.2090,8.484,9.460,-1.770,-112.088,40.402,178.709
14054,-0.6523,-0.6553,-0.2383,2.563,15.625,-4.211,-112.154,40.336,178.539
14064,-0.6587,-0.7622,-0.2896,-6.409,20.447,-6.409,-112.341,40.182,178.325
14074,-0.6519,-0.8823,-0.3433,-15.198,22.644,-7.751,-112.632,39.974,178.088
14084,-0.6416,-0.9390,-0.3862,-20.691,20.020,-7.629,-112.961,39.749,177.885
14094,-0.6245,-0.8706,-0.4116,-18.982,13.733,-5.310,-113.258,39.578,177.748
14104,-0.6177,-0.7319,-0.4160,-9.949,5.859,-0.732,-113.461,39.518,177.682
14114,-0.6260,-0.6230,-0.3882,3.479,-1.953,2.014,-113.505,39.551,177.693
14124,-0.6377,-0.5664,-0.3491,14.404,-7.629,-0.488,-113.384,39.622,177.786
14134,-0.6309,-0.5723,-0.3101,18.799,-9.338,-5.798,-113.159,39.650,177.929
14144,-0.6284,-0.6118,-0.2798,14.404,-7.446,-9.705,-112.945,39.628,178.066
14154,-0.6309,-0.6533,-0.2661,2.808,-3.845,-11.902,-112.841,39.551,178.171
14164,-0.6260,-0.7134,-0.2407,-8.545,0.122,-14.099,-112.841,39.424,178.242
14174,-0.6255,-0.7632,-0.2295,-16.968,3.784,-15.442,-112.928,39.260,178.275
14184,-0.6196,-0.8218,-0.2271,-19.714,8.423,-14.526,-113.066,39.062,178.248
14194,-0.6211,-0.8203,-0.2422,-17.944,11.963,-11.230,-113.231,38.881,178.160
14204,-0.6245,-0.7603,-0.2705,-13.123,14.282,-6.653,-113.406,38.754,178.028
14214,-0.6235,-0.6924,-0.2974,-6.409,15.381,-2.991,-113.571,38.672,177.863
14224,-0.6177,-0.6494,-0.3130,-1.526,15.137,-2.014,-113.714,38.617,177.693
14234,-0.6289,-0.6377,-0.3315,-0.916,14.099,-3.296,-113.851,38.557,177.545
14244,-0.6260,-0.6792,-0.3335,-2.563,14.282,-5.981,-113.983,38.452,177.407
14254,-0.6138,-0.7363,-0.3315,-6.653,15.869,-8.911,-114.137,38.298,177.270
14264,-0.6108,-0.7949,-0.3242,-11.658,16.785,-10.803,-114.318,38.106,177.133
14274,-0.5913,-0.7983,-0.3237,-15.320,15.686,-11.841,-114.521,37.897,177.012
14284,-0.5776,-0.7432,-0.3271,-15.625,12.024,-11.414,-114.714,37.722,176.935
14294,-0.5811,-0.7095,-0.3311,-11.108,8.179,-9.766,-114.851,37.584,176.891
14304,-0.6001,-0.6890,-0.3335,-4.639,6.287,-8.057,-114.928,37.496,176.863
14314,-0.6167,-0.6855,-0.3408,-0.366,6.531,-7.324,-114.966,37.414,176.825
14324,-0.6016,-0.7026,-0.3584,1.526,7.507,-7.446,-114.999,37.315,176.781
14334,-0.5864,-0.7334,-0.3701,2.197,6.409,-5.981,-115.021,37.216,176.737
14344,-0.5972,-0.7798,-0.3755,0.549,3.967,-2.441,-115.043,37.150,176.710
14354,-0.5957,-0.7949,-0.3755,-1.831,1.648,0.366,-115.076,37.117,176.688
14364,-0.5806,-0.7842,-0.3652,-2.625,0.061,1.221,-115.104,37.095,176.677
14374,-0.5791,-0.7637,-0.3467,-1.221,-1.038,2.136,-115.109,37.095,176.682
14384,-0.5889,-0.7466,-0.3252,1.526,-1.282,3.540,-115.082,37.123,176.677
14394,-0.5898,-0.7148,-0.3066,3.601,-0.916,4.089,-115.032,37.161,176.666
14404,-0.5972,-0.6846,-0.3037,4.089,-0.427,4.089,-114.988,37.216,176.649
14414,-0.6079,-0.6611,-0.3135,2.747,0.366,4.089,-114.983,37.277,176.622
14424,-0.6196,-0.6655,-0.3335,0.916,2.075,3.662,-115.016,37.326,176.578
14434,-0.6133,-0.6899,-0.3560,-1.221,3.174,2.991,-115.082,37.348,176.528
14444,-0.6001,-0.7295,-0.3735,-2.808,2.930,2.441,-115.159,37.348,176.479
14454,-0.5854,-0.7461,-0.3877,-3.052,0.732,2.380,-115.225,37.337,176.457
14464,-0.5732,-0.7788,-0.3711,-0.366,-2.747,3.113,-115.219,37.343,176.473
14474,-0.5859,-0.8057,-0.3491,3.052,-6.348,4.150,-115.142,37.370,176.523
14484,-0.6030,-0.7808,-0.3398,5.432,-8.118,4.761,-115.032,37.425,176.589
14494,-0.6182,-0.7510,-0.3242,8.301,-6.775,5.066,-114.906,37.496,176.638
14504,-0.6353,-0.7222,-0.3096,9.216,-3.967,4.761,-114.785,37.568,176.660
14514,-0.6265,-0.6870,-0.3091,6.897,-0.854,3.906,-114.714,37.628,176.649
14524,-0.6206,-0.6602,-0.3125,2.380,1.770,3.113,-114.719,37.678,176.611
14534,-0.6021,-0.6553,-0.3130,-2.258,2.686,1.831,-114.774,37.705,176.572
14544,-0.5786,-0.6450,-0.3223,-6.226,1.587,0.305,-114.868,37.711,176.550
14554,-0.5801,-0.6499,-0.3340,-7.568,-0.732,-0.549,-114.955,37.716,176.561
14564,-0.5884,-0.6714,-0.3398,-5.127,-2.441,-0.977,-115.005,37.722,176.600
14575,-0.6157,-0.7026,-0.3345,-2.258,-2.686,-0.732,-115.016,37.733,176.633
14584,-0.6426,-0.7358,-0.3281,0.366,-0.732,-0.610,-114.994,37.738,176.644
14594,-0.6523,-0.7563,-0.3115,3.784,2.991,-1.587,-114.944,37.722,176.616
14604,-0.6460,-0.7490,-0.3037,6.653,7.751,-2.197,-114.895,37.678,176.539
14614,-0.6235,-0.7280,-0.3042,8.728,12.390,-2.686,-114.868,37.606,176.413
14624,-0.5952,-0.7051,-0.3149,8.057,14.709,-2.808,-114.873,37.518,176.259
14634,-0.5728,-0.7080,-0.3311,4.944,13.306,-2.869,-114.906,37.425,176.122
14644,-0.5645,-0.7344,-0.3389,0.366,9.277,-3.662,-114.955,37.332,176.034
14654,-0.5620,-0.7529,-0.3555,-3.967,4.578,-4.639,-115.010,37.238,176.006
14664,-0.5752,-0.7959,-0.3481,-5.188,0.549,-4.761,-115.038,37.156,176.028
14674,-0.5903,-0.8135,-0.3374,-4.333,-1.709,-3.540,-115.032,37.095,176.067
14684,-0.6060,-0.7969,-0.3389,-1.770,-1.709,-0.793,-115.016,37.073,176.089
14694,-0.6143,-0.7524,-0.3403,2.747,0.305,2.747,-114.994,37.095,176.072
14704,-0.6216,-0.6836,-0.3418,7.263,1.404,5.249,-114.961,37.156,176.028
14714,-0.6069,-0.6333,-0.3354,10.498,1.343,5.737,-114.917,37.233,175.979
14724,-0.5869,-0.6265,-0.3281,11.169,-0.488,4.150,-114.840,37.299,175.963
14734,-0.5757,-0.6567,-0.3257,7.080,-4.639,2.258,-114.763,37.348,176.006
14744,-0.5728,-0.6978,-0.3179,0.488,-9.277,0.793,-114.697,37.386,176.105
14754,-0.5903,-0.7632,-0.2983,-5.615,-12.512,0.427,-114.631,37.425,176.248
14764,-0.6362,-0.7993,-0.2944,-10.437,-11.719,1.099,-114.615,37.474,176.375
14774,-0.6445,-0.7915,-0.2944,-11.719,-6.653,1.953,-114.648,37.518,176.440
14784,-0.6191,-0.7598,-0.3047,-9.766,-0.549,3.479,-114.725,37.551,176.429
14794,-0.6089,-0.7222,-0.3198,-5.188,3.662,4.944,-114.807,37.579,176.364
14804,-0.5908,-0.6797,-0.3467,-0.305,5.981,5.249,-114.890,37.606,176.265
14814,-0.5854,-0.6426,-0.3579,3.113,5.859,4.272,-114.955,37.628,176.177
14824,-0.5977,-0.6504,-0.3564,4.150,3.357,1.648,-114.983,37.639,176.127
14834,-0.6079,-0.6851,-0.3579,3.052,-0.305,-2.197,-114.966,37.628,176.144
14844,-0.6079,-0.7349,-0.3540,1.221,-3.235,-4.761,-114.928,37.590,176.210
14854,-0.6074,-0.7744,-0.3389,-1.282,-5.798,-4.150,-114.873,37.557,176.298
14864,-0.6069,-0.7842,-0.3276,-2.930,-6.775,-1.953,-114.829,37.546,176.385
14874,-0.6138,-0.7900,-0.3066,-1.892,-5.188,0.488,-114.774,37.557,176.440
14884,-0.6128,-0.7812,-0.3066,-0.549,-1.709,2.319,-114.741,37.573,176.446
14894,-0.6060,-0.7427,-0.3228,-0.488,2.197,3.540,-114.763,37.584,176.402
14904,-0.6021,-0.6816,-0.3457,-0.732,4.639,4.333,-114.835,37.612,176.325
14914,-0.6069,-0.6313,-0.3711,1.160,4.700,3.784,-114.922,37.650,176.254
14924,-0.6133,-0.6289,-0.3716,3.906,2.991,1.343,-114.966,37.672,176.215
14934,-0.6147,-0.6533,-0.3555,5.066,0.122,-1.892,-114.950,37.672,176.221
14944,-0.6021,-0.7007,-0.3257,5.066,-2.563,-3.540,-114.868,37.656,176.270
14954,-0.5928,-0.7427,-0.2925,3.967,-5.127,-3.235,-114.752,37.634,176.347
14964,-0.5933,-0.7744,-0.2661,2.686,-6.165,-1.831,-114.615,37.628,176.424
14974,-0.6040,-0.7710,-0.2544,1.465,-4.700,-0.244,-114.505,37.634,176.479
14984,-0.5967,-0.7451,-0.2554,1.038,-0.793,0.854,-114.439,37.639,176.484
14994,-0.5889,-0.7021,-0.2686,0.916,3.906,1.404,-114.423,37.645,176.435
15004,-0.6079,-0.6851,-0.2891,0.916,8.179,1.343,-114.461,37.639,176.331
15014,-0.6240,-0.6938,-0.3174,-0.244,10.803,0.610,-114.543,37.617,176.204
15024,-0.6089,-0.7041,-0.3462,-2.319,11.047,-0.916,-114.653,37.562,176.083
15034,-0.6099,-0.7222,-0.3574,-4.028,7.874,-1.404,-114.763,37.513,176.001
15044,-0.6040,-0.7354,-0.3643,-4.028,2.869,-0.488,-114.835,37.485,175.968
15054,-0.6030,-0.7314,-0.3560,-2.380,-1.221,0.061,-114.862,37.485,175.984
15064,-0.6055,-0.7109,-0.3623,-0.793,-2.869,0.061,-114.873,37.491,176.017
15075,-0.5933,-0.7036,-0.3608,0.488,-1.953,-0.244,-114.873,37.491,176.039
15084,-0.5776,-0.7080,-0.3696,0.793,0.366,-0.977,-114.895,37.469,176.039
15094,-0.5840,-0.7251,-0.3804,0.061,1.648,-1.404,-114.928,37.425,176.028
15104,-0.6118,-0.7495,-0.3726,-0.854,1.892,-1.404,-114.961,37.392,176.017
15114,-0.6187,-0.7686,-0.3501,-0.183,1.709,-0.977,-114.966,37.365,176.001
15124,-0.6226,-0.7705,-0.3164,1.526,0.671,-0.122,-114.928,37.359,175.995
15134,-0.6206,-0.7505,-0.2910,3.479,-1.587,1.221,-114.851,37.375,176.006
15144,-0.6069,-0.7222,-0.2861,4.822,-2.747,2.502,-114.758,37.419,176.023
15154,-0.5913,-0.6904,-0.3096,3.906,-2.686,3.052,-114.703,37.463,176.039
15164,-0.5820,-0.6460,-0.3379,1.282,-1.831,2.747,-114.719,37.507,176.045
15174,-0.5840,-0.6392,-0.3428,-0.488,-0.671,1.526,-114.758,37.535,176.045
15184,-0.5898,-0.6816,-0.3472,-1.709,-0.061,-0.427,-114.796,37.535,176.045
15194,-0.5972,-0.7563,-0.3403,-3.357,-0.488,-1.648,-114.813,37.502,176.061
15204,-0.6108,-0.8140,-0.3335,-5.249,-1.160,-0.793,-114.829,37.474,176.078
15214,-0.6133,-0.8335,-0.3335,-6.226,-1.648,1.892,-114.857,37.463,176.089
15224,-0.6143,-0.8096,-0.3481,-5.859,-2.136,5.554,-114.901,37.496,176.083
15234,-0.6099,-0.7231,-0.3643,-3.967,-3.296,8.728,-114.961,37.584,176.072
15244,-0.6025,-0.6143,-0.3862,0.061,-5.310,9.827,-115.027,37.716,176.083
15254,-0.6162,-0.5820,-0.3779,5.249,-7.568,8.423,-115.032,37.864,176.122
15264,-0.6279,-0.6035,-0.3564,8.423,-9.277,3.052,-114.950,37.969,176.215
15274,-0.6152,-0.6675,-0.3228,9.155,-8.972,-3.479,-114.791,37.991,176.336
15284,-0.6089,-0.7485,-0.2803,6.653,-7.324,-6.653,-114.609,37.958,176.457
15294,-0.6055,-0.8164,-0.2549,2.625,-5.310,-6.042,-114.456,37.897,176.550
15304,-0.6074,-0.8462,-0.2349,-0.366,-2.625,-3.723,-114.340,37.842,176.600
15314,-0.6050,-0.8452,-0.2383,-1.221,0.793,-0.244,-114.269,37.804,176.589
15324,-0.6021,-0.8052,-0.2603,-0.488,4.456,3.296,-114.252,37.793,176.523
15334,-0.5962,-0.7446,-0.2822,1.221,7.874,5.859,-114.280,37.804,176.402
15344,-0.5967,-0.6606,-0.3159,2.014,9.827,7.019,-114.362,37.842,176.254
15354,-0.6079,-0.6069,-0.3437,2.380,9.277,6.409,-114.478,37.892,176.111
15364,-0.6240,-0.6045,-0.3584,2.136,6.531,3.967,-114.576,37.941,176.012
15374,-0.6240,-0.6450,-0.3540,0.732,2.625,0.610,-114.631,37.958,175.979
15384,-0.6167,-0.6934,-0.3467,-2.075,-1.648,-1.953,-114.653,37.952,176.012
15394,-0.6143,-0.7417,-0.3530,-4.333,-4.395,-2.625,-114.664,37.936,176.072
15404,-0.6084,-0.7583,-0.3682,-4.395,-4.883,-2.075,-114.681,37.914,176.144
15414,-0.6104,-0.7568,-0.3857,-1.770,-2.747,-1.648,-114.697,37.892,176.182
15424,-0.6094,-0.7539,-0.4131,1.953,1.282,-1.831,-114.719,37.842,176.177
15434,-0.6167,-0.7354,-0.4351,4.089,4.700,-2.319,-114.763,37.782,176.133
15444,-0.6255,-0.7124,-0.4346,5.432,5.249,-3.174,-114.802,37.722,176.094
15454,-0.6240,-0.7173,-0.3882,7.080,0.610,-4.272,-114.758,37.678,176.105
15464,-0.6011,-0.7373,-0.3047,9.338,-8.484,-5.737,-114.565,37.656,176.237
15474,-0.5864,-0.7573,-0.2271,11.047,-17.761,-5.432,-114.236,37.672,176.468
15484,-0.5859,-0.7637,-0.1812,11.414,-23.132,-3.174,-113.846,37.727,176.754
15494,-0.5947,-0.7485,-0.1880,8.240,-21.301,0.000,-113.516,37.809,176.995
15504,-0.5981,-0.6924,-0.2378,1.953,-12.817,2.625,-113.368,37.897,177.133
15514,-0.6079,-0.6377,-0.3037,-2.930,-3.357,3.418,-113.406,37.974,177.155
15524,-0.6294,-0.6338,-0.3413,-4.578,2.563,2.258,-113.522,38.013,177.116
15534,-0.6226,-0.6523,-0.3442,-5.005,3.662,-0.671,-113.643,38.013,177.072
15544,-0.5991,-0.6909,-0.3105,-5.249,0.793,-2.869,-113.698,37.991,177.078
15554,-0.6177,-0.7310,-0.2642,-5.554,-4.578,-2.563,-113.670,37.991,177.144
15564,-0.6147,-0.7510,-0.2529,-5.432,-7.874,-0.732,-113.615,38.013,177.242
15575,-0.6211,-0.7773,-0.2598,-4.761,-6.409,1.587,-113.571,38.046,177.308
15584,-0.6157,-0.7632,-0.2871,-4.089,-1.465,2.930,-113.582,38.068,177.308
15594,-0.6045,-0.7280,-0.3286,-2.258,4.089,3.174,-113.648,38.068,177.248
15604,-0.6108,-0.7139,-0.3477,1.526,7.812,2.808,-113.719,38.057,177.138
15614,-0.6289,-0.7144,-0.3574,4.333,9.094,2.014,-113.780,38.040,177.023
15624,-0.6260,-0.7056,-0.3604,5.432,8.545,1.099,-113.824,38.024,176.918
15634,-0.6182,-0.6909,-0.3550,5.737,6.409,0.366,-113.846,38.002,176.841
15644,-0.6201,-0.6958,-0.3384,5.920,2.563,0.305,-113.824,38.002,176.814
15654,-0.6074,-0.6885,-0.3364,5.310,-1.526,-0.366,-113.785,38.013,176.830
15664,-0.5918,-0.6807,-0.3462,4.761,-4.395,-1.587,-113.730,38.013,176.891
15674,-0.5767,-0.6938,-0.3467,5.676,-5.859,-3.357,-113.654,37.991,176.979
15684,-0.5781,-0.7422,-0.3315,7.263,-5.920,-5.371,-113.527,37.941,177.072
15694,-0.6001,-0.8052,-0.3149,6.592,-4.944,-6.226,-113.384,37.870,177.160
15704,-0.6133,-0.8398,-0.2983,3.784,-3.662,-4.883,-113.269,37.809,177.226
15714,-0.6313,-0.8345,-0.2847,1.465,-3.052,-2.014,-113.181,37.782,177.275
15724,-0.6396,-0.8052,-0.2788,2.747,-2.747,1.221,-113.099,37.793,177.297
15734,-0.6289,-0.7808,-0.2744,6.775,-2.014,3.967,-112.989,37.831,177.303
15744,-0.6206,-0.7236,-0.2964,9.644,-2.014,5.798,-112.890,37.897,177.297
15754,-0.6094,-0.6675,-0.3193,10.864,-2.869,6.531,-112.808,37.985,177.297
15764,-0.5923,-0.6304,-0.3481,9.521,-4.333,5.554,-112.764,38.068,177.325
15774,-0.5937,-0.6123,-0.3691,6.592,-6.226,3.418,-112.747,38.139,177.380
15784,-0.6167,-0.6436,-0.3628,3.601,-8.362,1.892,-112.725,38.205,177.468
15794,-0.6284,-0.6851,-0.3330,0.122,-10.986,0.977,-112.676,38.271,177.594
15804,-0.6260,-0.7148,-0.2910,-2.319,-13.306,0.366,-112.599,38.331,177.748
15814,-0.6211,-0.7461,-0.2349,-1.099,-14.465,0.183,-112.456,38.386,177.918
15824,-0.6104,-0.7759,-0.2090,2.075,-12.756,0.854,-112.275,38.430,178.061
15834,-0.5928,-0.7690,-0.2178,3.906,-8.118,2.197,-112.115,38.463,178.149
15844,-0.5894,-0.7432,-0.2310,4.333,-3.174,3.113,-112.011,38.491,178.171
15854,-0.6045,-0.7251,-0.2368,4.517,-0.061,2.502,-111.934,38.513,178.160
15864,-0.6216,-0.7310,-0.2329,4.150,1.648,0.977,-111.863,38.524,178.132
15874,-0.6333,-0.7271,-0.2290,1.526,1.770,-0.183,-111.819,38.524,178.116
15884,-0.6396,-0.7271,-0.2109,-1.221,1.343,-0.854,-111.780,38.529,178.105
15894,-0.6318,-0.7212,-0.2104,-2.930,2.258,-1.221,-111.769,38.524,178.083
15904,-0.6299,-0.7178,-0.2227,-3.784,4.456,-1.160,-111.791,38.513,178.033
15918,-0.6104,-0.7183,-0.2593,-4.211,7.751,-0.732,-111.868,38.480,177.946
