elapsed_ms,acc_x_g,acc_y_g,acc_z_g,gyro_x_dps,gyro_y_dps,gyro_z_dps,angle_x_deg,angle_y_deg,angle_z_deg
0,-0.6304,-0.3398,-0.7480,23.254,1.221,-17.883,-171.299,39.359,177.484
10,-0.6138,-0.4102,-0.7651,14.282,3.357,-17.029,-170.832,39.260,177.693
20,-0.6260,-0.3804,-0.7793,0.854,4.150,-11.658,-170.568,39.166,177.836
30,-0.6587,-0.2622,-0.8003,-10.010,3.418,-3.418,-170.557,39.117,177.869
40,-0.6836,-0.1367,-0.7969,-9.033,1.953,3.784,-170.678,39.117,177.819
50,-0.6992,-0.0283,-0.7930,5.371,-0.854,5.249,-170.739,39.155,177.753
60,-0.6738,-0.0239,-0.7783,29.846,-6.348,-1.587,-170.497,39.232,177.786
70,-0.6230,-0.1660,-0.7437,52.795,-14.709,-14.526,-169.805,39.353,178.006
81,-0.5820,-0.3794,-0.7246,56.274,-22.583,-26.855,-168.827,39.485,178.396
91,-0.5688,-0.5815,-0.7168,36.743,-24.536,-31.982,-167.888,39.584,178.863
101,-0.5771,-0.6182,-0.7271,4.333,-19.165,-27.710,-167.311,39.628,179.269
111,-0.6001,-0.4614,-0.7559,-25.757,-10.498,-13.855,-167.250,39.644,179.473
120,-0.6147,-0.2451,-0.7637,-39.673,-4.028,3.723,-167.613,39.672,179.440
130,-0.6426,-0.0376,-0.7559,-29.114,-4.272,16.296,-168.118,39.754,179.242
140,-0.6382,0.0352,-0.7568,0.488,-10.376,18.433,177.336,39.897,179.039
150,-0.6309,-0.1270,-0.7095,33.875,-19.836,9.338,-169.854,40.100,178.901
161,-0.6196,-0.3936,-0.6821,48.950,-26.672,-4.578,-169.091,40.331,179.022
171,-0.6240,-0.6782,-0.6675,35.522,-26.062,-15.198,-168.228,40.485,179.286
181,-0.6602,-0.7222,-0.6782,-3.601,-17.578,-16.235,-167.750,40.556,179.539
191,-0.6606,-0.4316,-0.7197,-39.368,-5.676,-5.066,-167.899,40.578,179.621
200,-0.6328,-0.1079,-0.7217,-46.021,2.747,12.878,-168.503,40.583,179.445
210,-0.6616,0.1289,-0.7036,-21.912,0.244,26.428,169.618,40.655,179.105
221,-0.7061,0.1987,-0.6694,20.752,-12.634,27.771,169.508,40.776,178.715
230,-0.6753,0.0127,-0.6274,57.739,-26.123,16.174,169.997,41.061,178.445
240,-0.6431,-0.3423,-0.5791,69.397,-31.616,-2.441,-149.414,41.402,178.401
251,-0.6743,-0.5479,-0.5718,46.326,-31.616,-21.179,-148.524,41.556,178.857
261,-0.6968,-0.5513,-0.6064,3.906,-18.127,-34.729,-148.030,41.517,179.385
271,-0.6333,-0.3286,-0.6768,-23.804,1.831,-35.095,-148.074,41.303,179.769
280,-0.6025,-0.1558,-0.7197,-26.794,18.616,-20.874,-148.469,41.017,179.874
290,-0.6250,-0.0854,-0.7349,-11.536,24.902,-4.272,-148.914,40.776,179.747
300,-0.6611,0.0088,-0.7554,14.954,18.555,4.944,179.330,40.649,179.566
310,-0.6582,-0.1021,-0.7368,41.809,7.019,4.272,-172.112,40.589,179.511
321,-0.6514,-0.3545,-0.7007,51.208,-2.869,-4.700,-171.370,40.600,179.577
331,-0.6460,-0.5508,-0.6660,38.513,-8.118,-15.930,-170.535,40.616,179.802
341,-0.6772,-0.5757,-0.6621,10.803,-11.108,-21.973,-169.915,40.660,-179.885
351,-0.6709,-0.4141,-0.6821,-14.648,-5.676,-19.409,-169.678,40.677,-179.621
361,-0.6562,-0.2666,-0.7002,-20.935,-2.014,-10.864,-169.684,40.682,-179.473
371,-0.6821,-0.1357,-0.6855,-9.338,-1.038,-3.235,-169.739,40.721,-179.429
381,-0.6870,-0.0176,-0.7007,11.108,-5.188,-0.793,-169.706,40.809,-179.407
390,-0.6562,-0.1152,-0.6714,36.682,-9.583,-4.883,-169.294,40.924,-179.319
401,-0.6455,-0.3071,-0.6387,48.767,-13.184,-14.465,-168.514,41.039,-179.099
411,-0.6431,-0.4814,-0.6299,43.091,-10.742,-25.391,-167.596,41.072,-178.742
421,-0.6470,-0.5986,-0.6479,25.391,-4.089,-32.227,-166.761,40.995,-178.314
431,-0.6514,-0.6206,-0.6611,5.554,7.385,-31.982,-166.157,40.803,-177.924
441,-0.6445,-0.4175,-0.7061,-8.057,13.062,-24.231,-165.894,40.594,-177.654
451,-0.6470,-0.2197,-0.7354,-5.981,16.846,-11.719,-165.866,40.397,-177.561
461,-0.6499,-0.1855,-0.7485,11.536,15.686,-2.441,-165.767,40.237,-177.578
471,-0.6377,-0.2837,-0.7295,32.288,8.423,-3.113,-165.366,40.139,-177.567
481,-0.6250,-0.3975,-0.7100,41.260,-2.441,-11.047,-164.718,40.111,-177.418
491,-0.6328,-0.5308,-0.7061,36.377,-8.606,-18.494,-163.976,40.100,-177.155
501,-0.6382,-0.6279,-0.6997,24.780,-7.446,-21.667,-163.279,40.051,-176.858
511,-0.6392,-0.6006,-0.7168,10.010,-4.272,-18.188,-162.795,39.985,-176.611
521,-0.6221,-0.5254,-0.7510,0.305,-0.916,-8.728,-162.543,39.908,-176.501
531,-0.6387,-0.4331,-0.7568,2.686,-0.610,1.160,-162.400,39.880,-176.512
541,-0.6436,-0.3369,-0.7559,11.353,-2.930,8.118,-162.279,39.913,-176.600
551,-0.6460,-0.3296,-0.7344,23.743,-7.996,10.193,-162.037,40.007,-176.693
561,-0.6396,-0.4351,-0.6899,34.607,-12.878,6.653,-161.576,40.128,-176.726
571,-0.6431,-0.5459,-0.6558,34.912,-15.198,0.793,-160.983,40.243,-176.671
581,-0.6421,-0.5664,-0.6372,23.315,-14.404,-2.625,-160.461,40.336,-176.578
591,-0.6377,-0.5068,-0.6377,9.155,-11.475,-0.183,-160.148,40.419,-176.528
601,-0.6235,-0.4561,-0.6343,-1.099,-7.874,7.019,-160.032,40.501,-176.578
611,-0.6367,-0.2876,-0.6182,-4.333,-10.376,14.404,-160.115,40.671,-176.710
621,-0.6484,-0.1016,-0.5937,0.793,-13.123,19.165,-160.323,40.919,-176.891
631,-0.6577,-0.0063,-0.5518,13.611,-17.334,19.287,-160.483,41.237,-177.050
641,-0.6489,-0.1333,-0.5093,27.588,-20.264,11.719,-160.296,41.561,-177.111
651,-0.6401,-0.3833,-0.4727,29.663,-18.127,-1.099,-159.747,41.776,-177.012
661,-0.6572,-0.5532,-0.4834,10.376,-13.000,-13.977,-159.203,41.852,-176.776
671,-0.6714,-0.6577,-0.5498,-16.602,0.610,-22.095,-158.890,41.732,-176.501
681,-0.6440,-0.7725,-0.6528,-39.612,23.926,-21.423,-158.895,41.342,-176.353
691,-0.5776,-0.8389,-0.7393,-54.504,43.640,-12.146,-159.197,40.754,-176.407
701,-0.5928,-0.5039,-0.7974,-57.861,47.058,7.019,-159.857,40.259,-176.715
711,-0.6060,-0.1499,-0.8369,-42.725,45.410,34.546,-160.779,39.902,-177.347
721,-0.6748,-0.0249,-0.7998,-6.958,33.386,55.786,-161.548,39.776,-178.176
731,-0.7246,0.0293,-0.6851,33.691,11.719,54.321,177.550,39.902,-178.896
741,-0.6680,-0.1143,-0.5762,59.326,-14.343,36.743,-168.783,40.117,-179.379
751,-0.6465,-0.4146,-0.4893,54.993,-36.438,18.066,-168.036,40.562,-179.522
761,-0.6865,-0.5869,-0.4277,23.621,-46.570,-1.099,-167.289,41.034,-179.379
771,-0.6987,-0.5786,-0.4365,-21.790,-38.025,-15.991,-166.899,41.396,-179.061
781,-0.6509,-0.4365,-0.4927,-60.608,-12.146,-18.372,-167.031,41.506,-178.786
791,-0.6089,-0.3296,-0.5605,-83.313,13.428,-7.751,-167.640,41.375,-178.726
801,-0.5845,-0.2236,-0.6353,-92.102,29.724,10.559,-168.629,41.105,-178.945
811,-0.6113,-0.1235,-0.7046,-86.731,33.752,27.710,-169.794,40.825,-179.396
821,-0.6494,-0.0732,-0.7578,-64.697,32.654,34.912,-170.826,40.567,-179.929
831,-0.6797,-0.1665,-0.7856,-33.142,29.236,28.503,-171.403,40.325,179.637
841,-0.6953,-0.3154,-0.7700,-5.737,28.381,13.062,-171.469,40.062,179.412
851,-0.6724,-0.3818,-0.7603,4.822,27.649,-1.831,-171.255,39.771,179.379
861,-0.6694,-0.3315,-0.7598,7.568,24.048,-9.033,-170.991,39.512,179.451
871,-0.6621,-0.3184,-0.7603,9.399,19.653,-8.423,-170.717,39.298,179.517
881,-0.6509,-0.2900,-0.7388,10.742,12.146,-5.005,-170.464,39.172,179.555
891,-0.6338,-0.2520,-0.7397,5.859,0.183,0.488,-170.321,39.172,179.550
901,-0.6274,-0.3018,-0.7231,-0.244,-11.169,5.310,-170.217,39.287,179.506
911,-0.6338,-0.3950,-0.7061,-8.728,-18.738,6.042,-170.134,39.468,179.473
921,-0.6406,-0.4556,-0.7178,-20.386,-19.775,2.747,-170.101,39.639,179.478
931,-0.6431,-0.4683,-0.7393,-27.283,-13.367,-2.441,-170.112,39.732,179.539
941,-0.6631,-0.2583,-0.7700,-25.879,-4.089,-3.235,-170.250,39.760,179.594
951,-0.6885,-0.0957,-0.7900,-9.094,2.197,0.671,-170.376,39.754,179.577
961,-0.6836,-0.1084,-0.7568,22.644,9.155,0.244,-170.178,39.683,179.555
971,-0.6353,-0.2109,-0.6992,44.067,8.179,-5.371,-169.640,39.606,179.604
981,-0.6084,-0.3149,-0.6509,41.199,-0.732,-9.033,-169.008,39.606,179.720
991,-0.5962,-0.4253,-0.6284,20.020,-9.033,-9.033,-168.492,39.661,179.857
1001,-0.5942,-0.5459,-0.6123,-9.216,-12.695,-4.578,-168.223,39.738,179.951
1011,-0.6235,-0.5464,-0.6392,-45.044,-11.597,4.272,-168.393,39.825,179.929
1021,-0.6699,-0.4487,-0.7090,-72.021,-5.188,12.329,-168.992,39.891,179.786
1031,-0.6890,-0.2446,-0.7964,-76.782,-0.244,16.541,-169.827,39.919,179.572
1041,-0.7207,-0.1831,-0.8486,-54.199,3.723,15.259,-170.469,39.908,179.368
1051,-0.7271,-0.1289,-0.8525,-16.541,5.127,5.981,-170.700,39.869,179.280
1061,-0.6812,-0.1636,-0.8047,21.667,4.211,-6.409,-170.420,39.814,179.352
1071,-0.6382,-0.3374,-0.7280,45.044,2.502,-14.160,-169.706,39.754,179.528
1081,-0.6055,-0.5146,-0.6743,42.175,-0.488,-15.137,-168.893,39.694,179.725
1091,-0.5898,-0.6309,-0.6665,17.456,-2.136,-9.277,-168.322,39.628,179.846
1101,-0.6084,-0.7070,-0.7061,-15.503,1.038,1.770,-168.157,39.534,179.824
1111,-0.6465,-0.5449,-0.7559,-45.471,4.089,13.916,-168.486,39.479,179.637
1121,-0.6514,-0.2212,-0.8076,-57.251,1.831,26.917,-169.233,39.496,179.291
1131,-0.6890,-0.0728,-0.8022,-41.992,-0.977,37.292,-170.002,39.584,178.819
1141,-0.7275,0.0664,-0.7817,-10.681,-8.362,32.532,175.144,39.754,178.418
1151,-0.6890,0.0381,-0.7212,33.142,-17.700,12.573,175.375,39.957,178.237
1161,-0.6196,-0.2568,-0.6167,63.416,-21.118,-5.981,-157.385,40.199,178.292
1171,-0.6104,-0.4819,-0.5586,58.533,-22.400,-14.221,-156.445,40.347,178.577
1181,-0.6416,-0.5557,-0.5527,29.297,-17.029,-14.099,-155.770,40.435,178.835
1191,-0.6406,-0.4434,-0.5786,-4.272,-0.732,-5.920,-155.632,40.424,178.912
1201,-0.6113,-0.2759,-0.6113,-28.503,11.719,7.202,-156.011,40.369,178.764
1211,-0.6450,-0.1265,-0.6255,-34.363,14.771,19.836,-156.682,40.364,178.445
1221,-0.6929,0.0420,-0.6567,-24.353,13.062,22.644,176.336,40.397,178.105
1231,-0.6704,-0.0093,-0.6675,-1.770,10.071,11.108,-179.203,40.336,177.968
1241,-0.6387,-0.2861,-0.6416,14.587,12.207,-2.502,-178.802,40.232,178.000
1251,-0.6450,-0.4951,-0.6777,7.874,16.846,-11.169,-178.286,40.040,178.138
1261,-0.6436,-0.5811,-0.7329,-11.658,22.949,-12.146,-177.940,39.754,178.292
1271,-0.6411,-0.4937,-0.7891,-31.921,28.687,-3.662,-177.935,39.413,178.325
1281,-0.6475,-0.3062,-0.8350,-37.964,25.635,9.827,-178.215,39.133,178.182
1291,-0.6714,-0.1230,-0.8418,-27.893,20.447,23.437,-178.621,38.930,177.874
1301,-0.7202,-0.0059,-0.8477,-5.432,5.066,26.428,-178.896,38.897,177.534
1311,-0.7280,-0.0210,-0.8198,28.015,-11.230,13.245,-178.720,39.040,177.363
1321,-0.6733,-0.2305,-0.7490,55.664,-16.907,-5.554,-177.962,39.221,177.440
1331,-0.6450,-0.4702,-0.7017,55.908,-15.381,-17.944,-176.940,39.348,177.682
1341,-0.6309,-0.5571,-0.7017,33.752,-10.193,-21.301,-176.078,39.397,177.962
1351,-0.6113,-0.4722,-0.7100,6.592,0.854,-15.381,-175.589,39.342,178.160
1361,-0.5947,-0.2817,-0.7231,-15.320,6.775,-1.831,-175.562,39.254,178.176
1371,-0.6025,-0.1577,-0.7070,-22.400,2.991,13.306,-175.814,39.238,178.000
1381,-0.6602,-0.0010,-0.6914,-14.404,-6.958,20.142,-176.155,39.370,177.748
1391,-0.6758,0.0259,-0.6772,3.601,-16.052,13.672,177.808,39.589,177.589
1401,-0.6455,-0.1743,-0.6479,22.705,-19.531,-1.770,-164.938,39.825,177.599
1411,-0.6479,-0.4365,-0.6289,27.405,-13.062,-15.930,-164.317,39.913,177.847
1421,-0.6616,-0.5869,-0.6646,12.878,-1.221,-23.682,-163.740,39.831,178.149
1431,-0.6616,-0.5806,-0.7178,-9.094,14.099,-21.790,-163.460,39.595,178.369
1441,-0.6250,-0.3979,-0.7710,-27.771,26.062,-9.460,-163.614,39.282,178.391
1451,-0.6196,-0.2222,-0.7900,-32.043,22.888,9.338,-164.064,39.067,178.193
1461,-0.6543,-0.0845,-0.7720,-20.203,12.756,22.766,-164.564,39.023,177.863
1471,-0.6846,-0.0249,-0.7334,-1.648,-3.723,22.278,-164.883,39.155,177.599
1481,-0.6636,-0.1865,-0.7002,16.968,-18.250,8.484,-164.745,39.386,177.556
1491,-0.6602,-0.4155,-0.6611,27.039,-18.982,-7.812,-164.207,39.556,177.715
1501,-0.6626,-0.5371,-0.6694,18.738,-12.756,-19.653,-163.608,39.606,178.006
1511,-0.6621,-0.4893,-0.7017,1.587,-2.258,-20.935,-163.235,39.551,178.275
1521,-0.6255,-0.2964,-0.7319,-9.827,8.179,-11.536,-163.207,39.424,178.391
1531,-0.6187,-0.1235,-0.7251,-7.935,5.249,3.662,-163.400,39.391,178.325
1541,-0.6489,-0.0103,-0.6934,3.784,-2.197,14.893,-163.630,39.496,178.149
1551,-0.6543,0.0122,-0.6538,22.766,-13.733,12.817,178.929,39.716,178.039
1561,-0.6201,-0.1943,-0.5957,35.706,-21.729,1.770,-161.927,39.979,178.011
1571,-0.6396,-0.4253,-0.5747,27.466,-20.203,-8.850,-161.351,40.161,178.204
1581,-0.6587,-0.5625,-0.6187,6.226,-11.353,-17.639,-160.884,40.193,178.467
1591,-0.6572,-0.6577,-0.6797,-16.846,6.042,-20.264,-160.659,40.018,178.693
1601,-0.6582,-0.5439,-0.7461,-38.940,24.841,-12.878,-160.840,39.699,178.742
1611,-0.6382,-0.1982,-0.8198,-48.462,30.212,3.174,-161.483,39.397,178.577
1621,-0.6733,-0.0542,-0.8545,-29.541,26.367,19.592,-162.142,39.199,178.226
1631,-0.6943,-0.0508,-0.8140,5.432,17.761,21.362,-162.444,39.111,177.896
1641,-0.6567,-0.1250,-0.7456,33.691,1.953,7.629,-162.252,39.133,177.792
1651,-0.6436,-0.3330,-0.6812,46.936,-11.230,-5.981,-161.631,39.232,177.913
1661,-0.6553,-0.5078,-0.6694,37.659,-16.968,-14.343,-160.917,39.337,178.154
1671,-0.6606,-0.5879,-0.6748,16.418,-12.085,-17.822,-160.367,39.364,178.423
1681,-0.6304,-0.5264,-0.7178,-7.568,1.160,-13.672,-160.175,39.265,178.588
1691,-0.6172,-0.3462,-0.7524,-24.536,8.484,-2.075,-160.373,39.155,178.572
1701,-0.6216,-0.1533,-0.7700,-29.236,4.395,12.146,-160.851,39.144,178.407
1711,-0.6655,-0.0093,-0.7651,-15.808,-3.784,19.470,-161.329,39.265,178.187
1721,-0.6514,-0.0098,-0.7090,11.108,-12.573,12.817,-161.466,39.457,178.083
1731,-0.6294,-0.1865,-0.6362,30.945,-19.897,1.282,-161.136,39.688,178.149
1741,-0.6333,-0.3999,-0.6001,30.090,-21.057,-9.277,-160.565,39.869,178.352
1751,-0.6523,-0.5264,-0.6270,14.709,-14.771,-16.357,-160.043,39.941,178.616
1761,-0.6670,-0.5771,-0.6812,-4.578,-0.061,-16.785,-159.758,39.853,178.819
1771,-0.6685,-0.4736,-0.7480,-22.034,15.503,-10.071,-159.818,39.644,178.874
1781,-0.6475,-0.3350,-0.7959,-28.137,23.621,1.343,-160.148,39.402,178.753
1791,-0.6748,-0.1411,-0.8208,-17.029,19.897,12.512,-160.571,39.254,178.511
1801,-0.6611,-0.0610,-0.7671,7.812,11.414,15.442,-160.790,39.216,178.275
1811,-0.6333,-0.1768,-0.6758,27.832,-3.418,10.010,-160.626,39.309,178.165
1821,-0.6274,-0.3218,-0.6060,31.433,-17.029,2.747,-160.203,39.507,178.209
1831,-0.6396,-0.4385,-0.5937,18.372,-25.635,-3.235,-159.758,39.749,178.358
1841,-0.6758,-0.5391,-0.6191,-1.587,-20.874,-7.568,-159.450,39.919,178.544
1851,-0.6846,-0.4824,-0.6851,-19.531,-3.662,-9.399,-159.412,39.913,178.676
1861,-0.6660,-0.3145,-0.7427,-27.100,11.230,-6.165,-159.642,39.781,178.704
1871,-0.6548,-0.1797,-0.7856,-20.447,16.357,0.977,-159.977,39.628,178.616
1881,-0.6445,-0.1284,-0.7598,2.075,17.334,4.944,-160.148,39.485,178.478
1891,-0.6318,-0.0962,-0.6934,23.499,8.789,4.578,-160.093,39.446,178.385
1901,-0.6216,-0.1548,-0.6304,31.555,-4.089,3.052,-159.851,39.534,178.363
1911,-0.6250,-0.3325,-0.5918,24.780,-11.108,0.793,-159.489,39.672,178.401
1921,-0.6460,-0.4507,-0.5952,9.033,-12.634,-4.028,-159.164,39.787,178.511
1931,-0.6660,-0.5000,-0.6421,-11.475,-4.761,-9.033,-159.027,39.798,178.643
1941,-0.6748,-0.4404,-0.7100,-29.480,8.423,-9.521,-159.159,39.677,178.720
1951,-0.6582,-0.2925,-0.7524,-36.072,17.944,-4.944,-159.527,39.490,178.698
1961,-0.6606,-0.1475,-0.7842,-26.489,20.142,2.014,-159.961,39.309,178.583
1971,-0.6504,-0.1128,-0.7583,-1.709,16.907,4.089,-160.175,39.177,178.456
1981,-0.6245,-0.1865,-0.6987,19.592,7.874,0.122,-160.049,39.122,178.418
1991,-0.6182,-0.3564,-0.6699,24.231,-0.061,-3.784,-159.703,39.106,178.467
2001,-0.6304,-0.4658,-0.6772,13.611,-3.601,-6.165,-159.368,39.106,178.555
2011,-0.6255,-0.5244,-0.7036,-0.977,-0.977,-7.080,-159.159,39.051,178.649
2021,-0.6353,-0.4575,-0.7437,-16.113,5.737,-4.028,-159.197,38.958,178.671
2031,-0.6382,-0.2710,-0.7715,-22.339,5.798,2.075,-159.467,38.897,178.616
2041,-0.6797,-0.1499,-0.7759,-12.085,3.296,7.568,-159.747,38.914,178.511
2051,-0.6748,-0.0576,-0.7461,9.583,-1.770,5.310,-159.846,38.979,178.456
2061,-0.6348,-0.1689,-0.6777,31.067,-7.935,-2.747,-159.554,39.078,178.522
2071,-0.6196,-0.3799,-0.6431,37.231,-10.010,-9.888,-158.983,39.139,178.687
2081,-0.6079,-0.5537,-0.6499,25.085,-6.470,-15.137,-158.412,39.111,178.901
2091,-0.6182,-0.6484,-0.6997,2.930,2.808,-14.160,-158.071,38.969,179.055
2101,-0.6396,-0.5098,-0.7539,-21.301,14.771,-5.615,-158.165,38.776,179.055
2112,-0.6353,-0.2065,-0.7896,-31.799,16.113,6.897,-158.648,38.644,178.896
2121,-0.6777,-0.0337,-0.7998,-18.677,7.690,17.883,-159.175,38.655,178.643
2131,-0.6895,-0.0161,-0.7476,11.292,-2.563,15.015,-159.362,38.771,178.478
2141,-0.6460,-0.1631,-0.6772,36.621,-13.977,0.854,-159.038,38.947,178.528
2151,-0.6270,-0.3726,-0.6147,40.955,-19.287,-11.597,-158.390,39.106,178.759
2161,-0.6240,-0.5234,-0.6084,24.963,-16.541,-18.921,-157.758,39.172,179.061
2171,-0.6196,-0.6133,-0.6323,1.160,-5.005,-18.433,-157.379,39.111,179.308
2181,-0.6235,-0.5269,-0.6987,-25.574,10.193,-10.681,-157.440,38.941,179.385
2191,-0.6191,-0.3521,-0.7700,-41.321,17.456,1.282,-157.890,38.760,179.280
2201,-0.6543,-0.2036,-0.8125,-35.522,16.296,12.756,-158.467,38.650,179.050
2211,-0.6694,-0.0410,-0.7964,-11.536,11.108,16.052,-158.917,38.617,178.808
2221,-0.6543,-0.0117,-0.7319,18.005,-0.427,9.277,-159.005,38.688,178.698
2231,-0.6270,-0.1938,-0.6372,39.368,-10.864,-0.793,-158.621,38.831,178.759
2241,-0.6118,-0.3618,-0.5747,40.222,-19.165,-9.644,-157.989,39.007,178.962
2251,-0.6187,-0.5234,-0.5703,23.437,-19.043,-15.686,-157.374,39.117,179.242
2261,-0.6426,-0.5923,-0.6162,-3.845,-4.944,-15.198,-157.072,39.084,179.451
2271,-0.6470,-0.4951,-0.7017,-29.724,11.108,-8.606,-157.214,38.930,179.495
2281,-0.6509,-0.3164,-0.7681,-41.687,21.667,0.610,-157.703,38.721,179.379
2291,-0.6328,-0.1802,-0.8018,-32.776,26.550,8.545,-158.269,38.502,179.149
2301,-0.6401,-0.1670,-0.7847,-10.864,20.813,9.766,-158.604,38.348,178.934
2311,-0.6338,-0.2012,-0.7529,12.024,9.399,3.052,-158.599,38.276,178.857
2321,-0.6167,-0.3560,-0.7056,28.198,1.038,-5.005,-158.231,38.249,178.907
2331,-0.6118,-0.5020,-0.6855,27.649,-4.700,-9.277,-157.736,38.232,179.039
2341,-0.6206,-0.5820,-0.6851,14.465,-4.822,-8.179,-157.335,38.210,179.160
2351,-0.6343,-0.5498,-0.7295,-7.080,0.183,-0.977,-157.258,38.172,179.171
2361,-0.6382,-0.3999,-0.7734,-24.536,3.174,8.728,-157.527,38.156,179.055
2371,-0.6562,-0.2124,-0.7886,-26.733,2.930,17.029,-157.994,38.199,178.841
2381,-0.6699,-0.0562,-0.7734,-12.756,-1.831,18.738,-158.428,38.315,178.627
2391,-0.6157,-0.1602,-0.6440,34.912,-14.648,-2.930,-158.099,38.480,178.731
2401,-0.6001,-0.3579,-0.5874,36.804,-16.846,-12.146,-157.500,38.617,178.956
2411,-0.6030,-0.5225,-0.5942,20.813,-13.428,-17.517,-156.940,38.661,179.225
2421,-0.6133,-0.5601,-0.6406,-2.686,0.427,-15.991,-156.665,38.568,179.412
2431,-0.6182,-0.4717,-0.7178,-25.696,15.808,-7.385,-156.819,38.364,179.418
2441,-0.6235,-0.3389,-0.7803,-36.194,23.132,4.028,-157.275,38.150,179.258
2451,-0.6572,-0.2007,-0.8179,-28.625,22.461,12.878,-157.808,37.991,178.995
2461,-0.6680,-0.1147,-0.8086,-6.958,15.747,13.367,-158.159,37.914,178.764
2471,-0.6597,-0.1655,-0.7632,17.578,5.676,6.042,-158.137,37.903,178.665
2481,-0.6289,-0.3228,-0.7012,31.372,-2.136,-2.747,-157.775,37.925,178.709
2491,-0.6021,-0.4551,-0.6592,25.452,-10.010,-8.118,-157.313,37.980,178.852
2501,-0.6118,-0.4834,-0.6572,6.104,-14.587,-7.507,-157.017,38.073,179.011
2511,-0.6201,-0.4795,-0.6875,-12.512,-10.864,-3.296,-156.967,38.139,179.105
2521,-0.6299,-0.3784,-0.7261,-22.827,-6.287,1.770,-157.143,38.199,179.116
2531,-0.6519,-0.2759,-0.7505,-20.081,-1.770,6.042,-157.407,38.249,179.050
2541,-0.6548,-0.1816,-0.7520,-5.188,-0.183,6.409,-157.593,38.298,178.978
2551,-0.6387,-0.1841,-0.7104,13.733,-1.648,3.601,-157.555,38.353,178.940
2561,-0.6211,-0.2402,-0.6553,26.306,-3.418,0.122,-157.308,38.419,178.956
2571,-0.5986,-0.3062,-0.6245,25.757,-6.897,-2.380,-156.984,38.496,179.017
2581,-0.6045,-0.3936,-0.6172,15.198,-8.301,-3.052,-156.687,38.568,179.099
2591,-0.6274,-0.4775,-0.6475,-1.404,-4.272,-2.136,-156.544,38.595,179.143
2601,-0.6421,-0.4614,-0.6997,-18.066,3.296,-0.488,-156.627,38.551,179.132
2612,-0.6440,-0.3892,-0.7466,-28.503,9.155,2.136,-156.912,38.463,179.061
2621,-0.6479,-0.3130,-0.7720,-26.184,14.038,5.798,-157.269,38.353,178.923
2631,-0.6528,-0.2339,-0.7861,-12.207,14.038,7.446,-157.544,38.254,178.764
2641,-0.6533,-0.1411,-0.7495,10.010,9.155,4.395,-157.626,38.210,178.671
2651,-0.6182,-0.1929,-0.6919,31.921,1.953,-1.160,-157.374,38.216,178.676
2661,-0.6104,-0.3716,-0.6465,36.926,-4.089,-4.272,-156.890,38.243,178.742
2671,-0.6118,-0.5117,-0.6538,20.996,-8.423,-5.127,-156.473,38.282,178.846
2681,-0.6216,-0.5264,-0.6855,-2.625,-5.981,-3.052,-156.319,38.298,178.912
2691,-0.6294,-0.4346,-0.7397,-23.743,0.793,2.991,-156.511,38.287,178.874
2701,-0.6509,-0.3403,-0.7710,-31.128,5.737,9.216,-156.896,38.265,178.737
2711,-0.6792,-0.1934,-0.7944,-22.949,6.592,11.169,-157.319,38.260,178.572
2721,-0.6675,-0.0991,-0.7803,-0.793,6.165,7.202,-157.555,38.254,178.456
2731,-0.6494,-0.0898,-0.7251,25.024,1.770,-0.549,-157.462,38.271,178.456
2741,-0.6152,-0.2358,-0.6562,41.260,-2.625,-7.874,-157.017,38.293,178.561
2751,-0.5923,-0.3867,-0.6196,34.607,-5.737,-11.108,-156.484,38.309,178.720
2761,-0.5923,-0.4937,-0.6313,10.132,-6.042,-9.644,-156.149,38.309,178.863
2771,-0.6143,-0.5308,-0.6899,-18.127,-1.038,-5.005,-156.154,38.271,178.929
2781,-0.6260,-0.4668,-0.7427,-38.086,6.409,-0.549,-156.462,38.183,178.901
2791,-0.6392,-0.3247,-0.7812,-43.884,9.155,4.272,-156.967,38.106,178.802
2801,-0.6685,-0.1436,-0.8013,-32.166,8.057,7.935,-157.495,38.073,178.671
2811,-0.6694,-0.0522,-0.7661,-4.272,4.089,5.432,-157.775,38.090,178.588
2821,-0.6431,-0.1392,-0.6963,26.367,-2.808,-2.930,-157.593,38.145,178.638
2831,-0.6094,-0.3291,-0.6250,40.222,-7.507,-11.780,-157.033,38.194,178.808
2841,-0.6040,-0.4702,-0.6094,29.236,-9.155,-16.357,-156.456,38.216,179.050
2851,-0.6108,-0.5571,-0.6514,7.568,-3.540,-15.503,-156.088,38.156,179.247
2861,-0.6104,-0.5791,-0.7051,-14.038,8.301,-9.949,-156.028,37.996,179.319
2871,-0.6084,-0.4937,-0.7607,-30.334,14.893,-1.709,-156.270,37.815,179.264
2881,-0.6279,-0.3452,-0.8018,-33.569,14.587,6.775,-156.703,37.689,179.110
2891,-0.6431,-0.2275,-0.8076,-21.301,11.658,11.963,-157.104,37.628,178.912
2901,-0.6606,-0.1206,-0.7676,1.831,3.479,10.376,-157.313,37.661,178.775
2911,-0.6382,-0.1650,-0.6978,27.649,-4.517,3.052,-157.137,37.755,178.759
2921,-0.6118,-0.2944,-0.6313,39.673,-9.460,-4.272,-156.665,37.864,178.857
2931,-0.6025,-0.4077,-0.6118,30.579,-11.963,-8.667,-156.165,37.952,179.017
2941,-0.6064,-0.4907,-0.6357,10.254,-7.019,-8.179,-155.841,37.974,179.149
2951,-0.6123,-0.4834,-0.6841,-14.038,2.869,-3.052,-155.858,37.919,179.171
2961,-0.6138,-0.3315,-0.7368,-32.593,8.423,3.906,-156.237,37.848,179.083
2971,-0.6221,-0.2383,-0.7612,-33.875,8.728,9.521,-156.731,37.809,178.923
2981,-0.6421,-0.1460,-0.7539,-19.958,6.653,9.766,-157.137,37.809,178.781
2991,-0.6455,-0.0469,-0.7310,2.625,0.244,3.296,-157.330,37.853,178.737
3001,-0.6260,-0.1636,-0.6729,27.222,-3.662,-6.165,-157.094,37.908,178.830
3011,-0.6040,-0.3862,-0.6338,34.058,-3.906,-13.550,-156.566,37.903,179.006
3021,-0.5996,-0.5640,-0.6484,18.372,-0.916,-16.235,-156.088,37.820,179.198
3031,-0.6089,-0.6206,-0.7207,-6.409,7.568,-12.512,-155.918,37.650,179.308
3041,-0.6123,-0.5396,-0.7871,-27.588,17.334,-3.784,-156.116,37.425,179.258
3051,-0.6152,-0.3530,-0.8188,-36.133,18.616,6.775,-156.583,37.255,179.088
3061,-0.6455,-0.1890,-0.8335,-28.931,10.498,15.137,-157.115,37.216,178.857
3071,-0.6704,-0.1348,-0.7979,-5.920,0.732,13.611,-157.401,37.288,178.698
3081,-0.6509,-0.1948,-0.7480,21.484,-7.996,2.869,-157.264,37.403,178.704
3091,-0.6270,-0.3501,-0.6841,38.147,-11.536,-7.935,-156.753,37.496,178.852
3101,-0.6006,-0.4565,-0.6616,33.447,-10.071,-14.099,-156.182,37.524,179.066
3112,-0.5835,-0.5469,-0.6895,17.761,-4.456,-12.695,-155.759,37.474,179.236
3121,-0.5815,-0.5396,-0.7363,-0.488,3.662,-5.310,-155.616,37.370,179.275
3131,-0.5884,-0.3584,-0.7700,-14.587,6.226,4.456,-155.808,37.304,179.193
3141,-0.6055,-0.1714,-0.7656,-14.587,1.404,13.367,-156.165,37.348,179.033
3151,-0.6470,-0.1011,-0.7051,-0.122,-4.822,15.259,-156.412,37.502,178.879
3161,-0.6440,-0.1060,-0.6333,18.250,-10.132,6.714,-156.385,37.700,178.857
3171,-0.6299,-0.2524,-0.5649,28.687,-12.634,-4.150,-156.033,37.875,178.967
3181,-0.6299,-0.3730,-0.5601,21.606,-8.423,-13.245,-155.599,37.952,179.165
3191,-0.6191,-0.4912,-0.6089,7.080,3.601,-17.944,-155.270,37.848,179.352
3201,-0.6201,-0.5195,-0.7002,-9.644,18.494,-16.357,-155.193,37.590,179.445
3211,-0.6113,-0.4028,-0.7832,-20.325,28.076,-10.315,-155.391,37.266,179.412
3221,-0.6128,-0.2651,-0.8335,-18.311,28.381,-0.305,-155.726,36.985,179.269
3231,-0.6245,-0.2310,-0.8462,-3.235,21.118,7.202,-155.962,36.810,179.077
3241,-0.6226,-0.3062,-0.8135,15.747,10.742,6.470,-155.918,36.727,178.951
3251,-0.6123,-0.3887,-0.7832,23.926,-0.183,0.488,-155.660,36.716,178.945
3261,-0.6016,-0.3965,-0.7583,20.386,-9.460,-4.395,-155.369,36.766,179.044
3271,-0.5972,-0.5093,-0.7402,14.099,-12.939,-6.287,-155.045,36.826,179.182
3281,-0.6064,-0.5444,-0.7510,4.211,-11.475,-5.493,-154.819,36.870,179.302
3291,-0.6133,-0.4619,-0.7812,-3.662,-8.179,-2.258,-154.764,36.903,179.374
3301,-0.6235,-0.3115,-0.7822,-0.671,-4.761,3.540,-154.814,36.958,179.357
3311,-0.6221,-0.1807,-0.7573,14.832,-3.845,7.996,-154.825,37.040,179.286
3321,-0.6064,-0.2236,-0.6816,33.813,-5.676,7.690,-154.594,37.156,179.231
3331,-0.5933,-0.2886,-0.6299,37.537,-11.108,4.211,-154.226,37.310,179.242
3341,-0.5845,-0.3437,-0.6006,26.367,-17.761,0.793,-153.869,37.502,179.330
3351,-0.5903,-0.4155,-0.5952,9.216,-18.555,-0.793,-153.622,37.678,179.445
3361,-0.6006,-0.4526,-0.6172,-11.108,-13.672,0.732,-153.594,37.804,179.511
3371,-0.6318,-0.3970,-0.6826,-30.151,-8.789,4.578,-153.853,37.914,179.511
3381,-0.6572,-0.3457,-0.7349,-36.316,-2.808,7.141,-154.265,37.980,179.445
3391,-0.6655,-0.2681,-0.7622,-27.649,1.953,6.958,-154.655,38.007,179.352
3401,-0.6606,-0.1987,-0.7627,-8.301,4.211,4.211,-154.891,38.007,179.280
3411,-0.6299,-0.2153,-0.7241,14.099,3.174,-0.732,-154.841,37.996,179.275
3421,-0.6060,-0.3066,-0.6787,27.039,-1.648,-5.127,-154.539,37.996,179.341
3431,-0.6084,-0.3833,-0.6548,23.560,-7.019,-6.897,-154.188,38.040,179.456
3441,-0.6128,-0.4639,-0.6548,9.277,-9.216,-6.042,-153.924,38.090,179.577
3451,-0.6167,-0.4868,-0.6758,-8.667,-7.690,-3.052,-153.869,38.128,179.654
3461,-0.6221,-0.4341,-0.6982,-25.818,-4.700,1.526,-154.061,38.167,179.665
3471,-0.6318,-0.3188,-0.7212,-33.142,-3.601,5.249,-154.435,38.227,179.626
3481,-0.6528,-0.2695,-0.7319,-24.414,-2.808,5.737,-154.759,38.293,179.577
3491,-0.6626,-0.2402,-0.7241,-3.967,0.427,0.488,-154.874,38.320,179.566
3501,-0.6348,-0.2759,-0.7085,18.738,3.601,-7.812,-154.682,38.271,179.637
3511,-0.6055,-0.3862,-0.6792,32.898,6.348,-13.000,-154.243,38.150,179.753
3521,-0.5913,-0.4893,-0.6704,27.771,6.226,-11.963,-153.803,38.018,179.857
3531,-0.5967,-0.5518,-0.6802,10.437,5.737,-5.981,-153.550,37.903,179.890
3541,-0.6055,-0.5088,-0.7070,-10.193,4.517,1.526,-153.583,37.837,179.846
3551,-0.6260,-0.4121,-0.7310,-24.536,2.258,8.789,-153.864,37.848,179.736
3561,-0.6504,-0.3125,-0.7397,-26.611,-0.610,12.878,-154.248,37.919,179.594
3571,-0.6538,-0.2280,-0.7344,-15.869,-3.174,10.864,-154.550,38.018,179.484
3581,-0.6436,-0.2222,-0.7090,1.831,-3.845,4.272,-154.633,38.101,179.456
3591,-0.6123,-0.3169,-0.6748,16.785,-3.418,-2.625,-154.440,38.134,179.506
3601,-0.6001,-0.3608,-0.6499,19.592,-2.991,-5.615,-154.160,38.145,179.588
3612,-0.5923,-0.3584,-0.6548,12.207,-3.174,-3.540,-153.973,38.161,179.648
3621,-0.6133,-0.3750,-0.6646,3.052,-2.625,1.221,-153.913,38.194,179.648
3631,-0.6284,-0.2944,-0.6714,-6.226,-3.235,4.089,-154.012,38.265,179.615
3641,-0.6284,-0.2300,-0.6753,-12.329,-4.272,5.310,-154.232,38.359,179.583
3651,-0.6421,-0.2778,-0.6709,-12.756,-3.845,3.418,-154.402,38.441,179.561
3661,-0.6440,-0.3437,-0.6929,-11.597,-0.488,-2.991,-154.484,38.441,179.599
3671,-0.6353,-0.4077,-0.7285,-7.935,6.226,-10.193,-154.473,38.331,179.681
3681,-0.6284,-0.4448,-0.7671,-2.380,13.367,-13.367,-154.402,38.128,179.764
3691,-0.6147,-0.4756,-0.7925,4.761,18.311,-11.658,-154.281,37.870,179.797
3701,-0.6167,-0.4570,-0.8062,11.353,17.456,-6.287,-154.144,37.645,179.775
3711,-0.6128,-0.5005,-0.8047,15.869,12.207,-0.061,-153.968,37.485,179.703
3721,-0.6191,-0.5068,-0.7808,14.221,4.639,4.883,-153.809,37.430,179.626
3731,-0.6196,-0.4741,-0.7744,8.057,-3.662,8.301,-153.721,37.463,179.550
3741,-0.6289,-0.3564,-0.7217,2.930,-9.216,10.864,-153.732,37.601,179.478
3751,-0.6328,-0.1577,-0.6733,-0.305,-17.090,13.000,-153.896,37.859,179.429
3761,-0.6567,-0.1172,-0.6138,5.005,-23.804,11.963,-154.001,38.210,179.423
3771,-0.6572,-0.1172,-0.5649,14.160,-24.902,3.906,-153.946,38.551,179.522
3781,-0.6064,-0.3032,-0.5298,19.531,-18.066,-7.080,-153.605,38.743,179.703
3791,-0.5791,-0.4834,-0.5435,12.146,-5.310,-14.282,-153.210,38.727,179.896
3801,-0.5415,-0.5889,-0.6147,-5.310,12.024,-14.771,-153.034,38.491,179.995
3811,-0.5332,-0.6362,-0.6929,-23.743,27.405,-6.897,-153.160,38.128,179.918
3821,-0.5679,-0.5479,-0.7563,-36.804,36.438,5.798,-153.600,37.766,179.643
3831,-0.6128,-0.1230,-0.7949,-38.452,30.151,20.203,-154.402,37.584,179.242
3841,-0.7065,0.1123,-0.7739,-18.799,14.709,30.151,171.738,37.623,178.819
3851,-0.7256,0.0425,-0.6807,13.367,0.977,23.499,171.744,37.672,178.528
3861,-0.6509,-0.2178,-0.6138,34.485,-11.108,4.761,-160.461,37.848,178.445
3871,-0.6279,-0.4336,-0.5947,28.198,-18.311,-13.733,-159.873,38.002,178.687
3881,-0.6196,-0.5386,-0.6523,6.104,-14.099,-26.489,-159.384,38.024,179.066
3891,-0.6006,-0.6338,-0.7363,-15.991,0.916,-28.381,-159.142,37.853,179.401
3902,-0.5771,-0.6230,-0.7959,-30.884,17.883,-21.301,-159.170,37.529,179.572
3912,-0.5654,-0.4966,-0.8428,-39.917,22.461,-7.751,-159.472,37.222,179.561
3921,-0.6045,-0.3643,-0.8931,-36.560,14.526,9.216,-159.922,37.068,179.390
3931,-0.6411,-0.2285,-0.8525,-13.916,5.432,19.531,-160.263,37.073,179.138
3941,-0.6523,-0.1865,-0.7812,12.390,-6.836,19.897,-160.323,37.222,178.929
3951,-0.6250,-0.2803,-0.6943,28.931,-15.137,13.733,-160.076,37.436,178.830
3961,-0.6157,-0.3530,-0.6362,26.978,-22.400,6.348,-159.703,37.694,178.852
3971,-0.6157,-0.4121,-0.6138,13.794,-25.024,0.122,-159.368,37.947,178.962
3981,-0.6152,-0.4766,-0.6138,-5.127,-18.616,-2.136,-159.181,38.117,179.072
3991,-0.6240,-0.4160,-0.6499,-26.978,-9.033,1.343,-159.313,38.216,179.094
4001,-0.6396,-0.2651,-0.6978,-38.391,-2.380,6.897,-159.736,38.282,179.022
4011,-0.6494,-0.1372,-0.7290,-31.555,2.563,9.705,-160.219,38.320,178.896
4021,-0.6641,-0.0010,-0.7393,-8.118,2.441,5.920,-160.549,38.353,178.813
4031,-0.6304,-0.0615,-0.7080,24.780,1.465,-5.310,-160.411,38.359,178.874
4041,-0.5889,-0.3120,-0.6543,44.617,4.089,-15.564,-159.807,38.276,179.039
4051,-0.5898,-0.4883,-0.6646,34.546,4.944,-19.470,-159.175,38.134,179.253
4061,-0.6074,-0.5698,-0.7017,11.841,8.789,-18.555,-158.763,37.947,179.434
4072,-0.6206,-0.5132,-0.7524,-11.597,14.404,-12.451,-158.698,37.733,179.517
4082,-0.6152,-0.4067,-0.7954,-26.672,14.893,-3.845,-158.923,37.551,179.489
4091,-0.6392,-0.3779,-0.8203,-26.550,6.104,3.052,-159.186,37.480,179.429
4101,-0.6631,-0.3228,-0.8291,-15.564,-2.319,3.174,-159.351,37.507,179.401
4112,-0.6489,-0.3110,-0.8003,3.357,-7.629,-2.014,-159.274,37.568,179.456
4121,-0.6245,-0.3647,-0.7368,22.034,-12.573,-5.981,-158.928,37.656,179.583
4131,-0.6006,-0.4414,-0.6792,25.024,-15.930,-5.615,-158.472,37.771,179.725
4141,-0.5957,-0.4526,-0.6528,14.343,-18.188,-2.197,-158.132,37.925,179.835
4152,-0.6006,-0.4663,-0.6567,1.831,-16.235,2.319,-157.950,38.068,179.885
4161,-0.6172,-0.4531,-0.6660,-9.399,-11.230,7.080,-157.939,38.194,179.852
4171,-0.6382,-0.3271,-0.6875,-16.418,-8.179,10.437,-158.121,38.326,179.769
4181,-0.6445,-0.2163,-0.6870,-11.292,-6.775,10.620,-158.335,38.463,179.676
4191,-0.6587,-0.1562,-0.6655,6.348,-4.639,5.493,-158.379,38.578,179.632
4201,-0.6357,-0.1587,-0.6343,27.710,-2.808,-3.845,-158.148,38.644,179.692
4211,-0.6108,-0.2944,-0.5757,40.588,-0.183,-10.254,-157.615,38.655,179.813
4222,-0.6035,-0.3345,-0.5776,30.640,0.793,-10.803,-157.159,38.644,179.940
4231,-0.5972,-0.4243,-0.5937,10.315,4.333,-7.874,-156.885,38.584,-179.984
4242,-0.6079,-0.4541,-0.6445,-12.817,9.216,-3.784,-156.896,38.474,-179.989
4252,-0.6113,-0.4336,-0.7056,-31.494,11.902,-1.648,-157.143,38.337,179.967
4262,-0.6343,-0.3784,-0.7549,-37.537,13.062,0.061,-157.522,38.205,179.901
4272,-0.6641,-0.3262,-0.7935,-28.931,13.794,0.732,-157.852,38.079,179.824
4282,-0.6665,-0.3066,-0.8013,-7.812,14.099,-2.197,-157.967,37.936,179.786
4292,-0.6387,-0.3545,-0.7759,15.015,13.000,-6.653,-157.786,37.782,179.802
4302,-0.6211,-0.4238,-0.7568,27.283,8.484,-7.996,-157.412,37.656,179.852
4312,-0.6089,-0.4951,-0.7397,24.536,5.005,-5.310,-157.033,37.557,179.890
4322,-0.5874,-0.5269,-0.7300,12.268,2.563,-0.488,-156.786,37.485,179.885
4332,-0.5996,-0.4033,-0.7368,-3.174,-1.465,5.127,-156.797,37.502,179.835
4341,-0.6123,-0.2290,-0.7217,-10.315,-6.897,8.850,-156.995,37.612,179.764
4351,-0.6406,-0.1968,-0.6772,-5.188,-10.742,9.155,-157.148,37.793,179.709
4361,-0.6582,-0.2158,-0.6577,3.540,-11.292,3.296,-157.148,37.963,179.725
4372,-0.6250,-0.2930,-0.6528,12.817,-6.592,-6.836,-156.940,38.029,179.841
4382,-0.5815,-0.4375,-0.6587,15.808,2.380,-13.611,-156.588,37.936,179.989
4392,-0.5732,-0.4907,-0.6880,7.690,9.338,-11.902,-156.335,37.771,-179.918
4402,-0.5840,-0.4814,-0.7314,-3.967,11.963,-4.578,-156.281,37.601,-179.923
4412,-0.6084,-0.3486,-0.7495,-9.583,10.376,3.479,-156.423,37.507,179.978
4422,-0.6445,-0.2402,-0.7568,-7.385,3.479,9.521,-156.632,37.529,179.852
4432,-0.6743,-0.2246,-0.7261,3.479,-3.723,8.240,-156.703,37.639,179.775
4442,-0.6475,-0.2866,-0.6953,14.771,-8.362,-0.305,-156.539,37.744,179.819
4452,-0.6313,-0.4160,-0.6836,19.287,-8.850,-9.521,-156.176,37.793,179.973
4462,-0.6162,-0.5171,-0.6948,16.846,-4.822,-16.541,-155.748,37.744,-179.802
4472,-0.5947,-0.6011,-0.7251,10.498,2.563,-17.090,-155.380,37.601,-179.621
4482,-0.5908,-0.5435,-0.7354,1.526,8.423,-9.705,-155.209,37.436,-179.555
4492,-0.5845,-0.4136,-0.7495,-8.057,7.141,3.052,-155.292,37.354,-179.626
4502,-0.6040,-0.2520,-0.7144,-7.935,0.977,14.160,-155.522,37.414,-179.791
4511,-0.6279,-0.1304,-0.6738,-1.343,-7.874,17.273,-155.764,37.606,-179.951
4521,-0.6343,-0.1650,-0.6323,8.667,-13.367,11.536,-155.814,37.842,179.984
4532,-0.6191,-0.2549,-0.5933,14.160,-13.306,0.427,-155.643,38.024,-179.951
4542,-0.6089,-0.3955,-0.6064,11.047,-8.179,-10.864,-155.341,38.073,-179.780
4552,-0.5986,-0.4966,-0.6519,3.174,3.479,-18.066,-155.067,37.947,-179.588
4562,-0.5757,-0.5791,-0.7036,-7.324,14.893,-17.700,-154.918,37.683,-179.467
4572,-0.6069,-0.5127,-0.7695,-18.738,20.569,-9.216,-155.023,37.414,-179.473
4582,-0.6353,-0.3965,-0.8237,-20.569,17.883,1.465,-155.286,37.233,-179.583
4592,-0.6514,-0.3687,-0.8179,-8.179,13.123,8.972,-155.473,37.139,-179.753
4602,-0.6475,-0.2822,-0.7808,7.080,4.517,9.583,-155.528,37.150,-179.885
4612,-0.6455,-0.1851,-0.7266,20.691,-7.202,5.859,-155.446,37.271,-179.918
4622,-0.6372,-0.3149,-0.6714,31.555,-14.404,-0.916,-155.078,37.430,-179.830
4632,-0.6167,-0.4883,-0.6343,34.485,-13.306,-10.437,-154.495,37.513,-179.643
4642,-0.5923,-0.5596,-0.6611,26.123,-8.484,-17.578,-153.940,37.480,-179.396
4652,-0.5840,-0.6147,-0.7158,12.878,0.549,-15.564,-153.561,37.348,-179.220
4662,-0.5859,-0.5801,-0.7485,0.916,8.911,-6.836,-153.424,37.183,-179.193
4672,-0.5806,-0.3667,-0.7583,-6.042,9.521,5.249,-153.556,37.095,-179.308
4681,-0.5908,-0.1348,-0.7134,-3.784,1.648,18.127,-153.880,37.183,-179.522
4691,-0.6177,-0.0381,-0.6318,3.357,-10.193,24.658,-154.204,37.452,-179.742
4701,-0.6479,-0.0815,-0.5771,7.629,-20.630,20.508,-154.380,37.831,-179.863
4712,-0.6553,-0.2300,-0.5645,7.019,-23.499,5.859,-154.308,38.161,-179.797
4722,-0.6299,-0.4663,-0.5840,1.221,-11.902,-13.672,-154.028,38.227,-179.577
4732,-0.6025,-0.5957,-0.6553,-12.085,6.958,-27.039,-153.820,38.007,-179.308
4742,-0.5806,-0.5776,-0.7461,-28.320,23.804,-27.161,-153.880,37.612,-179.132
4752,-0.5728,-0.4678,-0.8159,-37.292,31.128,-14.954,-154.210,37.211,-179.132
4762,-0.5991,-0.3574,-0.8521,-32.715,25.391,0.671,-154.655,36.942,-179.280
4772,-0.6235,-0.2905,-0.8374,-15.869,11.841,10.559,-154.984,36.865,-179.462
4782,-0.6484,-0.2407,-0.7764,5.371,-4.456,11.108,-155.067,36.969,-179.566
4792,-0.6504,-0.3130,-0.7070,22.217,-16.479,4.883,-154.841,37.167,-179.533
4802,-0.6235,-0.4326,-0.6406,29.663,-21.667,-4.150,-154.358,37.359,-179.368
4812,-0.6094,-0.5269,-0.6294,24.231,-20.386,-11.475,-153.831,37.485,-179.132
4822,-0.6138,-0.5947,-0.6553,12.634,-10.925,-13.977,-153.413,37.496,-178.912
4832,-0.6104,-0.5674,-0.7031,-0.488,0.854,-10.925,-153.226,37.403,-178.792
4842,-0.6055,-0.4404,-0.7373,-6.897,7.690,-4.089,-153.248,37.293,-178.792
4852,-0.6050,-0.2769,-0.7490,-0.183,7.690,3.357,-153.364,37.244,-178.874
4862,-0.6123,-0.2285,-0.7163,18.005,1.709,6.226,-153.325,37.271,-178.951
4872,-0.6035,-0.2295,-0.6284,37.109,-5.066,2.136,-153.018,37.375,-178.945
4882,-0.5762,-0.3330,-0.5781,43.579,-12.024,-2.991,-152.496,37.502,-178.846
4892,-0.5713,-0.5396,-0.5288,34.485,-11.963,-6.165,-151.891,37.573,-178.704
4902,-0.5918,-0.5410,-0.5669,8.789,-7.324,-5.981,-151.584,37.606,-178.594
4912,-0.6030,-0.5078,-0.6333,-17.212,2.441,-1.709,-151.650,37.568,-178.594
4922,-0.6152,-0.3911,-0.6875,-33.447,10.315,4.333,-152.034,37.502,-178.704
4932,-0.6284,-0.2808,-0.7310,-34.485,12.146,8.240,-152.540,37.447,-178.863
4942,-0.6533,-0.2080,-0.7646,-20.569,10.986,6.653,-152.952,37.397,-179.000
4952,-0.6484,-0.2749,-0.7666,3.418,9.338,-1.770,-153.012,37.321,-179.039
4962,-0.5981,-0.4297,-0.7236,24.292,9.460,-11.719,-152.688,37.167,-178.956
4972,-0.5732,-0.5605,-0.6943,23.804,6.592,-13.062,-152.271,37.002,-178.852
4982,-0.5845,-0.5913,-0.6982,8.423,2.014,-6.592,-152.023,36.914,-178.792
4992,-0.5928,-0.5610,-0.7090,-9.766,0.061,3.235,-152.040,36.887,-178.824
5002,-0.6250,-0.3979,-0.7314,-24.658,-3.052,12.573,-152.347,36.974,-178.945
5012,-0.6489,-0.2739,-0.7603,-25.757,-7.446,16.663,-152.765,37.134,-179.088
5022,-0.6709,-0.2319,-0.7681,-9.766,-8.240,11.108,-153.012,37.288,-179.165
5032,-0.6538,-0.2505,-0.7632,16.296,-5.554,-2.563,-152.902,37.343,-179.105
5042,-0.6133,-0.3506,-0.7314,41.931,-2.380,-14.832,-152.397,37.293,-178.923
5052,-0.5825,-0.4497,-0.7236,54.138,-0.671,-19.409,-151.688,37.178,-178.704
5062,-0.5342,-0.6108,-0.7124,54.138,-1.770,-16.052,-150.914,37.046,-178.517
5072,-0.5483,-0.6084,-0.7241,43.396,-8.301,-5.615,-150.309,37.018,-178.407
5082,-0.5908,-0.5327,-0.7490,28.870,-14.832,6.531,-149.952,37.139,-178.385
5092,-0.6279,-0.4214,-0.7637,23.987,-21.484,16.052,-149.749,37.386,-178.423
5102,-0.6577,-0.3428,-0.7476,29.846,-28.381,20.081,-149.535,37.744,-178.462
5112,-0.6372,-0.3701,-0.7041,40.649,-33.142,18.250,-149.150,38.128,-178.451
5122,-0.6328,-0.4531,-0.6533,46.631,-36.255,14.954,-148.607,38.513,-178.374
5132,-0.6196,-0.5176,-0.6152,42.969,-38.025,10.986,-148.013,38.886,-178.242
5142,-0.6157,-0.5059,-0.5830,31.433,-38.269,10.803,-147.519,39.260,-178.099
5152,-0.6294,-0.4072,-0.5586,14.343,-36.926,15.564,-147.288,39.683,-178.011
5162,-0.6528,-0.3179,-0.5454,-0.244,-36.926,19.897,-147.288,40.161,-177.973
5172,-0.6768,-0.2378,-0.5288,-7.202,-36.011,18.799,-147.415,40.649,-177.924
5182,-0.6938,-0.1963,-0.5337,-5.676,-33.081,11.597,-147.530,41.089,-177.819
5192,-0.6885,-0.2910,-0.5249,3.479,-24.353,-0.244,-147.415,41.369,-177.643
5202,-0.6426,-0.4302,-0.5312,9.888,-13.672,-11.108,-147.107,41.440,-177.418
5212,-0.6299,-0.5410,-0.5498,7.507,-2.380,-14.954,-146.794,41.358,-177.231
5222,-0.6260,-0.5581,-0.5718,-2.869,5.554,-11.169,-146.656,41.221,-177.149
5232,-0.6450,-0.4766,-0.5898,-16.541,9.216,-2.075,-146.794,41.127,-177.193
5242,-0.6641,-0.4185,-0.6099,-26.978,7.874,7.324,-147.140,41.111,-177.330
5252,-0.6890,-0.4082,-0.6294,-29.297,3.052,10.193,-147.513,41.155,-177.468
5262,-0.7056,-0.3823,-0.6504,-19.897,-1.587,4.456,-147.755,41.210,-177.506
5272,-0.7046,-0.4312,-0.6592,-1.099,-0.916,-4.578,-147.722,41.199,-177.451
5282,-0.6758,-0.4956,-0.6431,16.846,3.967,-11.536,-147.437,41.089,-177.347
5292,-0.6382,-0.5229,-0.6172,22.217,6.226,-11.841,-147.079,40.946,-177.259
5302,-0.6338,-0.5327,-0.5977,13.977,3.906,-4.700,-146.838,40.864,-177.237
5312,-0.6338,-0.4907,-0.5811,-1.282,-0.610,4.150,-146.805,40.880,-177.275
5322,-0.6519,-0.4194,-0.5771,-16.235,-4.517,10.132,-146.992,40.990,-177.358
5332,-0.6655,-0.3306,-0.5796,-22.766,-6.470,9.949,-147.294,41.133,-177.418
5342,-0.6807,-0.2754,-0.5933,-17.761,-4.639,3.479,-147.546,41.243,-177.424
5352,-0.6694,-0.3062,-0.6167,-0.427,1.038,-7.568,-147.563,41.221,-177.347
5362,-0.6240,-0.4136,-0.5977,19.897,8.301,-17.456,-147.255,41.056,-177.209
5372,-0.6152,-0.5049,-0.5991,25.269,13.123,-17.334,-146.865,40.825,-177.111
5382,-0.6353,-0.5747,-0.6055,17.029,15.015,-9.644,-146.596,40.611,-177.116
5392,-0.6177,-0.5728,-0.6108,3.479,14.709,-1.343,-146.519,40.441,-177.204
5402,-0.6304,-0.5088,-0.6162,-14.343,10.925,8.301,-146.711,40.375,-177.374
5412,-0.6738,-0.4297,-0.6328,-29.297,4.395,15.076,-147.118,40.430,-177.572
5422,-0.6934,-0.3657,-0.6333,-33.447,-0.427,14.587,-147.579,40.545,-177.731
5432,-0.7109,-0.2715,-0.6533,-28.748,-3.296,9.338,-148.013,40.666,-177.814
5442,-0.7017,-0.2998,-0.6641,-13.245,-0.916,0.244,-148.222,40.710,-177.808
5452,-0.6797,-0.4077,-0.6621,5.371,5.554,-10.254,-148.123,40.611,-177.731
5462,-0.6396,-0.4878,-0.6641,15.198,10.437,-16.479,-147.854,40.408,-177.621
5472,-0.6250,-0.5322,-0.6484,11.963,13.489,-12.817,-147.634,40.193,-177.572
5482,-0.6162,-0.5200,-0.6431,-1.892,13.306,-3.784,-147.618,40.029,-177.621
5492,-0.6191,-0.4375,-0.6431,-16.235,9.399,4.089,-147.832,39.952,-177.731
5502,-0.6357,-0.3340,-0.6309,-23.376,2.930,7.629,-148.173,39.985,-177.836
5512,-0.6660,-0.2617,-0.6289,-20.264,-2.563,5.432,-148.491,40.084,-177.880
5522,-0.6777,-0.3188,-0.6333,-7.080,-2.625,-2.991,-148.579,40.122,-177.830
5532,-0.6675,-0.4126,-0.6445,8.240,3.235,-13.977,-148.398,40.034,-177.693
5542,-0.6338,-0.5332,-0.6523,16.907,11.719,-19.958,-148.063,39.803,-177.556
5552,-0.6060,-0.6328,-0.6646,14.709,18.188,-17.517,-147.755,39.496,-177.484
5562,-0.5889,-0.5732,-0.6724,3.906,18.127,-9.277,-147.651,39.232,-177.512
5572,-0.5923,-0.4800,-0.6606,-8.728,10.376,3.052,-147.766,39.133,-177.616
5582,-0.6279,-0.3970,-0.6250,-18.066,-0.122,13.916,-148.041,39.216,-177.764
5592,-0.6592,-0.3389,-0.6128,-20.142,-8.484,16.052,-148.343,39.413,-177.885
5602,-0.6724,-0.3442,-0.6069,-13.000,-10.803,9.583,-148.513,39.600,-177.913
5612,-0.6616,-0.4053,-0.6001,-2.197,-5.615,-0.122,-148.486,39.677,-177.874
5622,-0.6333,-0.5122,-0.6099,5.005,4.028,-6.897,-148.315,39.595,-177.825
5632,-0.6274,-0.5352,-0.6372,3.723,13.306,-6.714,-148.206,39.419,-177.841
5642,-0.6357,-0.4751,-0.6768,-0.977,19.348,-2.136,-148.255,39.227,-177.951
5652,-0.6279,-0.3320,-0.6948,-1.953,21.301,3.540,-148.447,39.067,-178.132
5662,-0.6328,-0.2646,-0.6709,-0.916,14.221,8.911,-148.678,39.012,-178.330
5672,-0.6357,-0.2397,-0.6313,-0.916,2.991,7.996,-148.859,39.073,-178.434
5682,-0.6221,-0.2847,-0.6089,-3.601,-6.531,2.808,-148.947,39.183,-178.423
5692,-0.6245,-0.3677,-0.5894,-9.338,-12.085,-3.479,-148.958,39.293,-178.303
5702,-0.6260,-0.4517,-0.6157,-17.395,-9.460,-9.399,-148.975,39.326,-178.138
5712,-0.6367,-0.5469,-0.6670,-20.203,2.075,-13.428,-149.008,39.210,-178.000
5722,-0.6431,-0.5923,-0.7378,-17.456,16.968,-15.015,-149.068,38.941,-177.951
5732,-0.6216,-0.6011,-0.7676,-8.240,28.503,-11.902,-149.112,38.573,-178.006
5742,-0.6299,-0.4834,-0.7778,-1.404,29.358,-2.441,-149.222,38.271,-178.171
5752,-0.6255,-0.3511,-0.7554,4.639,19.836,7.446,-149.359,38.128,-178.385
5762,-0.6201,-0.3599,-0.6611,11.597,7.690,12.512,-149.381,38.139,-178.572
5772,-0.6367,-0.3198,-0.6216,9.155,-8.362,12.146,-149.376,38.315,-178.649
5782,-0.6445,-0.3096,-0.5913,4.456,-20.874,6.897,-149.321,38.584,-178.588
5792,-0.6411,-0.4019,-0.5767,1.221,-22.583,-1.221,-149.167,38.804,-178.429
5802,-0.6240,-0.5479,-0.6069,-3.540,-13.794,-9.033,-148.975,38.864,-178.237
5812,-0.6050,-0.6562,-0.6650,-10.498,0.183,-12.512,-148.854,38.738,-178.099
5822,-0.5947,-0.6724,-0.7061,-16.479,16.235,-9.521,-148.898,38.480,-178.105
5832,-0.5937,-0.4795,-0.7549,-19.592,25.330,1.404,-149.189,38.221,-178.286
5842,-0.6157,-0.2983,-0.7412,-13.855,24.231,15.991,-149.617,38.090,-178.621
5852,-0.6396,-0.1431,-0.6846,-0.610,13.855,24.048,-150.029,38.139,-178.973
5862,-0.6436,-0.1406,-0.6221,12.939,0.061,21.240,-150.216,38.315,-179.209
5872,-0.6421,-0.2783,-0.5713,21.362,-11.475,10.925,-150.073,38.535,-179.253
5882,-0.6196,-0.4224,-0.5518,16.724,-15.015,-2.380,-149.755,38.683,-179.132
5892,-0.6187,-0.5112,-0.5952,0.061,-10.498,-11.230,-149.529,38.716,-178.940
5902,-0.6221,-0.6021,-0.6655,-16.479,3.052,-13.062,-149.502,38.584,-178.819
5912,-0.6152,-0.5796,-0.7285,-27.710,16.357,-10.132,-149.694,38.342,-178.813
5922,-0.6196,-0.3984,-0.7896,-30.640,20.630,-2.808,-150.095,38.117,-178.912
5932,-0.6377,-0.2793,-0.8047,-18.250,17.944,5.615,-150.491,37.980,-179.088
5942,-0.6382,-0.2466,-0.7612,5.920,10.559,7.568,-150.639,37.930,-179.236
5952,-0.6279,-0.2065,-0.6826,27.466,0.427,3.052,-150.513,37.974,-179.275
5962,-0.6045,-0.2881,-0.6172,34.729,-10.620,-1.404,-150.161,38.095,-179.193
5972,-0.6021,-0.4741,-0.5693,25.330,-14.771,-4.211,-149.727,38.210,-179.055
5982,-0.6099,-0.5591,-0.5952,4.761,-11.841,-7.751,-149.453,38.260,-178.890
5992,-0.6143,-0.6060,-0.6704,-16.663,-1.770,-8.667,-149.436,38.188,-178.786
6002,-0.6201,-0.5615,-0.7344,-31.067,8.484,-5.493,-149.672,38.046,-178.781
6012,-0.6318,-0.4136,-0.7900,-33.936,10.681,0.183,-150.079,37.930,-178.852
6022,-0.6465,-0.3018,-0.8032,-19.531,8.972,4.944,-150.430,37.870,-178.962
6032,-0.6543,-0.2383,-0.7686,4.761,3.723,5.005,-150.557,37.875,-179.039
6042,-0.6362,-0.2832,-0.7012,27.832,-4.578,-0.061,-150.337,37.936,-179.011
6052,-0.6104,-0.3926,-0.6250,37.781,-11.353,-5.066,-149.859,38.024,-178.885
6062,-0.5996,-0.4893,-0.6011,27.893,-14.404,-6.897,-149.392,38.112,-178.715
6072,-0.6084,-0.5649,-0.6133,11.169,-11.658,-7.263,-149.068,38.156,-178.561
6082,-0.6113,-0.5703,-0.6543,-6.470,-3.784,-5.432,-148.980,38.128,-178.478
6092,-0.6211,-0.5112,-0.6938,-19.409,2.380,-0.977,-149.117,38.079,-178.484
6102,-0.6274,-0.4263,-0.7187,-21.912,4.517,3.784,-149.381,38.051,-178.555
6113,-0.6318,-0.3027,-0.7236,-12.634,3.906,5.920,-149.639,38.051,-178.643
6122,-0.6274,-0.2881,-0.6890,6.104,2.014,4.211,-149.694,38.079,-178.704
6132,-0.6104,-0.3140,-0.6333,24.719,-2.441,-1.160,-149.469,38.117,-178.676
6142,-0.6060,-0.3560,-0.5781,31.006,-7.568,-5.005,-149.090,38.194,-178.572
6152,-0.5952,-0.4155,-0.5439,22.644,-9.399,-4.333,-148.733,38.282,-178.462
6162,-0.6025,-0.4741,-0.5430,4.150,-8.545,-0.977,-148.552,38.364,-178.396
6172,-0.6191,-0.4302,-0.5967,-19.348,-5.188,1.953,-148.694,38.436,-178.380
6182,-0.6304,-0.4609,-0.6660,-32.410,1.465,2.563,-149.002,38.430,-178.418
6192,-0.6377,-0.4507,-0.7163,-30.579,9.460,-0.732,-149.326,38.331,-178.473
6202,-0.6396,-0.4170,-0.7646,-20.081,15.198,-3.845,-149.584,38.167,-178.528
6212,-0.6274,-0.3843,-0.7690,-1.953,18.372,-4.883,-149.678,37.963,-178.594
6222,-0.6172,-0.3721,-0.7427,14.465,14.038,-3.906,-149.601,37.809,-178.643
6232,-0.6274,-0.3936,-0.6909,22.400,3.967,-2.136,-149.387,37.771,-178.643
6242,-0.6172,-0.4058,-0.6484,21.362,-6.104,-1.770,-149.128,37.826,-178.583
6252,-0.6079,-0.4390,-0.6230,11.475,-12.817,-0.977,-148.914,37.936,-178.489
6262,-0.6191,-0.5151,-0.6328,-0.183,-13.489,-1.282,-148.771,38.035,-178.391
6272,-0.6094,-0.5859,-0.6758,-8.484,-7.385,-3.662,-148.705,38.040,-178.303
6282,-0.5991,-0.6128,-0.6982,-12.634,2.625,-3.784,-148.716,37.947,-178.275
6292,-0.6152,-0.4185,-0.7339,-15.198,7.751,1.587,-148.925,37.870,-178.347
6302,-0.6260,-0.3560,-0.7227,-6.226,8.789,8.240,-149.123,37.842,-178.489
6312,-0.6333,-0.2510,-0.6724,8.057,5.005,9.399,-149.227,37.881,-178.627
6322,-0.6152,-0.2319,-0.6113,18.433,-3.052,6.348,-149.178,37.991,-178.676
6332,-0.6128,-0.2905,-0.5649,20.203,-10.742,2.747,-148.991,38.156,-178.638
6342,-0.6055,-0.4131,-0.5376,12.268,-12.268,-2.319,-148.738,38.287,-178.528
6352,-0.5928,-0.4961,-0.5698,-3.601,-7.202,-6.897,-148.601,38.309,-178.407
6362,-0.6016,-0.5786,-0.6377,-20.020,2.258,-7.446,-148.651,38.221,-178.341
6372,-0.6084,-0.6138,-0.7104,-31.921,13.916,-5.005,-148.892,38.024,-178.380
6382,-0.6255,-0.4932,-0.7754,-34.790,19.958,0.244,-149.304,37.815,-178.511
6392,-0.6494,-0.3638,-0.8247,-24.109,19.531,6.897,-149.738,37.667,-178.715
6402,-0.6660,-0.2856,-0.8066,-0.061,16.235,9.033,-149.969,37.573,-178.918
6412,-0.6567,-0.2388,-0.7495,25.024,6.470,4.517,-149.897,37.562,-179.006
6422,-0.6357,-0.3057,-0.6611,41.260,-4.761,-1.709,-149.513,37.634,-178.956
6432,-0.5991,-0.3979,-0.6021,38.208,-12.268,-6.531,-149.013,37.727,-178.808
6442,-0.5903,-0.4795,-0.5806,22.034,-15.137,-8.667,-148.596,37.815,-178.616
6452,-0.5830,-0.5439,-0.6113,1.404,-11.047,-8.911,-148.376,37.837,-178.445
6462,-0.5859,-0.5459,-0.6558,-15.503,-2.808,-6.592,-148.392,37.793,-178.358
6472,-0.6006,-0.4619,-0.7007,-24.353,3.784,-2.441,-148.612,37.727,-178.358
6482,-0.6162,-0.4043,-0.7275,-20.813,7.629,2.625,-148.892,37.661,-178.434
6492,-0.6118,-0.3721,-0.7212,-7.324,9.949,5.005,-149.073,37.601,-178.550
6502,-0.6104,-0.3281,-0.7012,7.324,7.019,3.845,-149.112,37.568,-178.638
6512,-0.6069,-0.3584,-0.6475,19.226,1.160,1.770,-148.958,37.584,-178.665
6522,-0.6099,-0.4053,-0.6094,18.860,-5.432,0.793,-148.727,37.656,-178.638
6532,-0.6118,-0.4673,-0.5962,7.935,-9.216,1.038,-148.552,37.749,-178.588
6542,-0.6265,-0.5112,-0.6157,-6.287,-9.094,0.793,-148.502,37.837,-178.539
6552,-0.6313,-0.5137,-0.6714,-19.043,-3.662,0.671,-148.618,37.859,-178.522
6562,-0.6211,-0.4956,-0.7090,-21.606,4.333,0.977,-148.821,37.804,-178.561
6572,-0.6323,-0.3833,-0.7349,-16.785,8.545,2.502,-149.073,37.744,-178.643
6582,-0.6309,-0.3198,-0.7388,-3.113,9.705,3.357,-149.238,37.678,-178.742
6592,-0.6226,-0.3032,-0.6992,15.198,8.057,1.099,-149.200,37.634,-178.808
6602,-0.6113,-0.3252,-0.6504,26.001,2.197,-2.441,-148.980,37.623,-178.797
6613,-0.6079,-0.3525,-0.6089,24.414,-4.150,-3.662,-148.705,37.672,-178.731
6622,-0.5942,-0.4214,-0.6045,12.085,-6.653,-3.235,-148.502,37.727,-178.649
6632,-0.5957,-0.4917,-0.6250,-3.845,-5.432,-3.296,-148.431,37.744,-178.577
6642,-0.6040,-0.5015,-0.6885,-18.738,-1.465,-3.479,-148.541,37.716,-178.533
6652,-0.6084,-0.5127,-0.7271,-24.048,4.944,-2.930,-148.744,37.628,-178.533
6662,-0.6333,-0.4165,-0.7505,-22.278,8.911,-0.427,-149.019,37.535,-178.588
6672,-0.6606,-0.2056,-0.7432,-12.695,8.057,2.625,-149.348,37.513,-178.665
6682,-0.6665,-0.0933,-0.7007,4.822,3.723,2.319,-149.562,37.551,-178.715
6692,-0.6201,-0.2373,-0.6196,23.071,-2.136,-5.615,-149.381,37.595,-178.643
6702,-0.5674,-0.4424,-0.5869,24.719,-7.324,-15.564,-148.942,37.579,-178.423
6712,-0.5518,-0.6172,-0.6030,11.108,-7.080,-22.339,-148.513,37.474,-178.138
6722,-0.5640,-0.6797,-0.6709,-7.019,-0.977,-21.240,-148.304,37.304,-177.902
6732,-0.5688,-0.7344,-0.7271,-20.325,6.836,-13.123,-148.310,37.095,-177.808
6742,-0.5898,-0.6284,-0.7549,-28.870,12.634,-2.502,-148.552,36.914,-177.863
6752,-0.6274,-0.3242,-0.7881,-28.625,6.775,7.996,-149.002,36.892,-177.995
6762,-0.6670,-0.2695,-0.7490,-8.850,0.671,13.672,-149.293,36.985,-178.143
6772,-0.6597,-0.3262,-0.6855,19.470,-3.174,7.629,-149.189,37.095,-178.204
6782,-0.6206,-0.4106,-0.6309,35.889,-6.836,-3.357,-148.760,37.161,-178.127
6792,-0.5869,-0.5264,-0.6045,33.936,-5.554,-10.315,-148.239,37.145,-177.979
6802,-0.5620,-0.5913,-0.6030,19.775,-2.563,-10.376,-147.843,37.079,-177.852
6812,-0.5645,-0.5752,-0.6255,1.465,-2.014,-3.967,-147.689,37.035,-177.797
6822,-0.5869,-0.5239,-0.6514,-16.479,-0.977,5.127,-147.816,37.051,-177.847
6832,-0.6152,-0.3779,-0.6865,-26.062,-2.075,12.512,-148.178,37.150,-177.962
6842,-0.6396,-0.2939,-0.6943,-18.921,-2.625,14.893,-148.541,37.277,-178.105
6852,-0.6416,-0.2158,-0.6855,-0.427,0.488,10.498,-148.749,37.375,-178.220
6862,-0.6104,-0.2900,-0.6582,18.311,3.113,2.136,-148.672,37.386,-178.264
6872,-0.5869,-0.4219,-0.6309,26.672,5.005,-5.493,-148.365,37.321,-178.237
6882,-0.5776,-0.4995,-0.6440,18.616,5.798,-8.484,-148.090,37.211,-178.187
6892,-0.5933,-0.5000,-0.6733,3.174,6.531,-5.005,-148.008,37.106,-178.176
6902,-0.6133,-0.4546,-0.6968,-10.376,6.104,0.244,-148.123,37.051,-178.220
6912,-0.6255,-0.4346,-0.7192,-17.151,3.601,3.723,-148.337,37.035,-178.281
6922,-0.6392,-0.3813,-0.7251,-14.648,0.549,3.296,-148.546,37.057,-178.319
6932,-0.6309,-0.3320,-0.7256,-5.493,-0.427,0.000,-148.667,37.073,-178.319
6942,-0.6104,-0.3960,-0.6958,8.362,0.671,-3.540,-148.579,37.051,-178.286
6952,-0.5850,-0.4844,-0.6855,14.038,0.916,-6.226,-148.365,36.991,-178.226
6962,-0.5654,-0.5693,-0.6890,9.583,0.671,-6.104,-148.156,36.909,-178.160
6972,-0.5786,-0.5894,-0.7017,-0.488,0.549,-1.343,-148.074,36.848,-178.154
6982,-0.6006,-0.4849,-0.7080,-10.315,-1.282,5.981,-148.184,36.876,-178.209
6992,-0.6235,-0.3955,-0.6958,-14.343,-4.883,12.146,-148.403,36.991,-178.303
7002,-0.6445,-0.3096,-0.6689,-9.766,-7.751,11.963,-148.612,37.156,-178.380
7012,-0.6289,-0.2607,-0.6538,0.732,-8.850,5.371,-148.705,37.304,-178.380
7022,-0.6162,-0.3076,-0.6182,14.404,-7.690,-2.930,-148.563,37.403,-178.297
7032,-0.5840,-0.3999,-0.5957,20.447,-4.333,-9.583,-148.255,37.403,-178.165
7042,-0.5659,-0.5518,-0.6074,13.855,-0.244,-10.132,-147.947,37.326,-178.055
7052,-0.5674,-0.6089,-0.6348,-1.709,3.113,-5.615,-147.821,37.227,-178.017
7062,-0.5918,-0.5688,-0.6914,-18.066,5.737,2.441,-147.969,37.156,-178.083
7072,-0.6245,-0.4126,-0.7241,-25.696,6.836,10.132,-148.337,37.145,-178.237
7082,-0.6475,-0.2617,-0.7266,-19.531,3.723,13.611,-148.749,37.216,-178.407
7092,-0.6660,-0.2231,-0.7080,-3.479,-0.427,9.766,-148.980,37.315,-178.506
7102,-0.6489,-0.2671,-0.6787,16.052,-3.052,-1.221,-148.898,37.375,-178.473
7113,-0.5913,-0.4287,-0.6416,28.748,-2.869,-12.756,-148.497,37.337,-178.319
7122,-0.5669,-0.5679,-0.6392,23.254,-0.916,-16.235,-148.057,37.222,-178.138
7132,-0.5723,-0.6338,-0.6626,6.226,1.404,-11.353,-147.810,37.101,-178.028
7142,-0.5776,-0.6226,-0.6870,-12.939,3.662,-1.587,-147.843,37.007,-178.033
7152,-0.6030,-0.4492,-0.7168,-28.076,3.113,9.399,-148.189,37.018,-178.154
7162,-0.6338,-0.3169,-0.7139,-26.611,-0.854,15.808,-148.629,37.128,-178.319
7172,-0.6440,-0.2847,-0.6914,-11.719,-4.150,13.489,-148.909,37.271,-178.434
7182,-0.6279,-0.2935,-0.6621,7.019,-4.150,4.272,-148.920,37.365,-178.451
7192,-0.6050,-0.3833,-0.6382,19.775,-3.418,-4.761,-148.683,37.386,-178.380
7202,-0.5830,-0.4980,-0.6216,20.386,-1.038,-8.667,-148.348,37.337,-178.281
7212,-0.5781,-0.5576,-0.6440,8.240,0.549,-6.714,-148.129,37.266,-178.209
7222,-0.5879,-0.5620,-0.6733,-5.554,2.075,-1.038,-148.107,37.211,-178.215
7232,-0.6050,-0.4473,-0.6875,-16.418,3.418,5.615,-148.310,37.200,-178.297
7242,-0.6284,-0.3296,-0.6992,-17.883,0.244,10.803,-148.618,37.277,-178.412
7252,-0.6475,-0.3110,-0.6821,-7.263,-1.587,9.827,-148.815,37.375,-178.511
7262,-0.6245,-0.3042,-0.6675,4.822,-1.709,2.197,-148.843,37.430,-178.522
7272,-0.6025,-0.3359,-0.6489,13.367,-1.648,-4.700,-148.711,37.441,-178.462
7282,-0.5913,-0.4551,-0.6504,13.855,-0.671,-7.751,-148.486,37.397,-178.374
7292,-0.5776,-0.5703,-0.6699,6.836,1.648,-8.545,-148.282,37.299,-178.292
7302,-0.5908,-0.5728,-0.7095,-4.456,3.296,-5.371,-148.233,37.200,-178.253
7312,-0.6113,-0.5210,-0.7310,-12.756,5.005,1.831,-148.354,37.139,-178.308
7322,-0.6323,-0.3892,-0.7339,-13.733,3.174,8.362,-148.590,37.156,-178.418
7332,-0.6392,-0.3130,-0.7075,-5.920,-1.221,9.644,-148.782,37.244,-178.511
7342,-0.6338,-0.3188,-0.6865,6.409,-4.761,4.700,-148.793,37.332,-178.533
7352,-0.6094,-0.3623,-0.6470,16.907,-5.737,-3.174,-148.601,37.386,-178.462
7362,-0.5884,-0.4326,-0.6245,17.761,-4.822,-7.263,-148.326,37.392,-178.352
7372,-0.5811,-0.5068,-0.6289,7.324,-2.319,-5.981,-148.134,37.365,-178.275
7382,-0.5791,-0.5039,-0.6489,-8.301,-0.366,-2.014,-148.145,37.337,-178.248
7392,-0.5952,-0.5254,-0.6758,-20.569,1.282,3.662,-148.315,37.321,-178.297
7402,-0.6196,-0.4824,-0.6968,-26.001,2.075,8.240,-148.601,37.332,-178.396
7412,-0.6382,-0.3643,-0.7212,-23.132,1.160,10.376,-148.953,37.386,-178.517
7422,-0.6470,-0.3457,-0.7056,-8.667,1.587,8.484,-149.145,37.436,-178.621
7432,-0.6421,-0.3403,-0.7002,8.301,1.709,1.404,-149.128,37.452,-178.643
7442,-0.6001,-0.4146,-0.6631,23.193,1.770,-6.165,-148.854,37.403,-178.588
7452,-0.5991,-0.4438,-0.6416,23.315,1.221,-6.409,-148.552,37.365,-178.528
7462,-0.6206,-0.3584,-0.6328,10.742,-0.732,-1.953,-148.447,37.392,-178.506
7472,-0.6270,-0.2046,-0.6201,-1.038,-3.662,1.587,-148.590,37.496,-178.495
7482,-0.6162,-0.2183,-0.5937,-5.554,-5.066,0.305,-148.738,37.606,-178.467
7492,-0.6016,-0.2720,-0.5957,-6.836,-4.761,-7.080,-148.810,37.661,-178.358
7502,-0.5718,-0.3989,-0.6162,-5.859,-0.488,-15.869,-148.744,37.584,-178.182
7512,-0.5425,-0.5957,-0.6489,-4.700,9.338,-19.897,-148.585,37.343,-178.028
7522,-0.5566,-0.6724,-0.7007,-9.949,17.761,-16.541,-148.519,37.035,-177.968
7532,-0.5757,-0.6201,-0.7471,-17.151,20.447,-7.568,-148.640,36.760,-178.022
7542,-0.6255,-0.5229,-0.7905,-20.569,18.005,4.822,-148.920,36.595,-178.193
7552,-0.6597,-0.4419,-0.7930,-14.282,11.780,12.024,-149.205,36.552,-178.396
7562,-0.6616,-0.3716,-0.7593,-2.747,3.967,10.925,-149.359,36.590,-178.539
7572,-0.6431,-0.3271,-0.7251,7.996,-6.042,5.737,-149.359,36.694,-178.561
7582,-0.6211,-0.4092,-0.6807,15.381,-11.536,-0.671,-149.156,36.804,-178.478
7592,-0.5845,-0.5068,-0.6553,13.672,-12.024,-6.531,-148.865,36.854,-178.330
7602,-0.5615,-0.5645,-0.6748,5.371,-8.850,-8.240,-148.640,36.848,-178.187
7613,-0.5615,-0.6113,-0.7095,-2.991,-1.831,-4.272,-148.541,36.782,-178.127
7622,-0.5771,-0.5654,-0.7432,-7.751,5.005,2.441,-148.590,36.700,-178.187
7632,-0.6016,-0.4326,-0.7559,-6.104,6.958,9.949,-148.760,36.672,-178.341
7642,-0.6260,-0.3335,-0.7456,3.662,5.005,14.771,-148.903,36.711,-178.528
7652,-0.6299,-0.2437,-0.6958,18.677,1.038,12.512,-148.920,36.804,-178.671
7662,-0.6226,-0.1431,-0.6387,30.579,-5.981,6.348,-148.821,36.958,-178.698
7672,-0.5947,-0.2979,-0.5732,33.997,-9.705,0.732,-148.491,37.101,-178.643
7682,-0.5825,-0.4194,-0.5493,19.531,-11.047,-4.028,-148.167,37.205,-178.528
7692,-0.5708,-0.4858,-0.5815,-5.005,-8.484,-7.690,-148.057,37.233,-178.391
7702,-0.5898,-0.4888,-0.6475,-25.879,-1.221,-5.371,-148.222,37.200,-178.325
7712,-0.6016,-0.4697,-0.6895,-36.255,5.127,-1.099,-148.568,37.139,-178.347
7722,-0.6157,-0.4263,-0.7310,-34.973,6.348,2.991,-148.969,37.090,-178.418
7732,-0.6387,-0.3579,-0.7554,-22.156,5.737,4.395,-149.299,37.068,-178.506
7742,-0.6353,-0.3574,-0.7520,-0.427,4.944,1.892,-149.387,37.035,-178.555
7752,-0.6255,-0.3682,-0.7178,21.362,3.479,-3.479,-149.200,36.996,-178.539
7762,-0.6040,-0.3936,-0.6699,31.250,0.610,-7.324,-148.848,36.964,-178.467
7772,-0.5859,-0.4263,-0.6377,26.733,-4.211,-6.714,-148.497,36.969,-178.369
7782,-0.5947,-0.5352,-0.6265,14.404,-7.812,-4.578,-148.206,37.002,-178.270
7792,-0.5967,-0.5474,-0.6450,-1.648,-7.385,-3.967,-148.085,37.024,-178.176
7802,-0.5933,-0.4766,-0.6724,-13.611,-4.761,-1.221,-148.156,37.046,-178.132
7812,-0.6138,-0.3594,-0.6660,-15.808,-2.808,3.418,-148.359,37.106,-178.149
7822,-0.6201,-0.2783,-0.6523,-9.949,-2.747,4.700,-148.563,37.194,-178.182
7832,-0.6099,-0.3467,-0.6406,1.831,-1.160,0.488,-148.574,37.233,-178.182
7842,-0.5830,-0.4595,-0.6470,10.437,2.197,-6.409,-148.398,37.172,-178.127
7852,-0.5703,-0.5352,-0.6719,10.925,6.226,-9.583,-148.184,37.035,-178.066
7862,-0.5703,-0.6099,-0.6899,3.601,9.094,-5.432,-148.052,36.876,-178.066
7872,-0.5791,-0.6152,-0.7173,-8.362,8.301,1.648,-148.090,36.766,-178.138
7882,-0.6050,-0.5269,-0.7378,-18.188,5.005,9.033,-148.310,36.738,-178.270
7892,-0.6421,-0.4019,-0.7461,-19.836,0.122,14.343,-148.634,36.815,-178.418
7902,-0.6655,-0.2896,-0.7241,-10.010,-3.296,14.099,-148.903,36.953,-178.550
7913,-0.6582,-0.2651,-0.6963,4.639,-5.005,7.812,-148.991,37.079,-178.599
7922,-0.6396,-0.2808,-0.6782,19.226,-6.104,-1.892,-148.848,37.161,-178.539
7932,-0.5864,-0.3882,-0.6426,28.992,-3.723,-10.742,-148.480,37.150,-178.401
7942,-0.5474,-0.5000,-0.6323,25.391,-1.160,-12.634,-148.074,37.062,-178.259
7952,-0.5542,-0.5552,-0.6538,9.766,0.671,-7.568,-147.849,36.974,-178.182
7962,-0.5684,-0.5684,-0.6865,-6.775,3.357,-0.305,-147.854,36.903,-178.204
7972,-0.5928,-0.4629,-0.7227,-18.250,4.150,6.836,-148.085,36.881,-178.303
7982,-0.6265,-0.3887,-0.7305,-18.433,2.686,11.719,-148.392,36.920,-178.445
7992,-0.6494,-0.2524,-0.7065,-9.705,0.000,11.047,-148.678,37.018,-178.561
8002,-0.6362,-0.2271,-0.6792,3.418,-4.761,5.615,-148.788,37.134,-178.588
8012,-0.6211,-0.3394,-0.6367,14.648,-7.446,-1.892,-148.634,37.222,-178.522
8022,-0.5835,-0.4585,-0.6143,13.550,-9.033,-8.545,-148.359,37.255,-178.369
8032,-0.5718,-0.5674,-0.6182,0.488,-8.484,-8.545,-148.156,37.255,-178.226
8042,-0.5918,-0.6064,-0.6597,-15.991,-5.676,-3.113,-148.162,37.249,-178.154
8053,-0.6089,-0.5640,-0.7017,-25.208,-0.244,2.136,-148.354,37.227,-178.176
8062,-0.6265,-0.4131,-0.7285,-23.499,3.174,6.470,-148.661,37.233,-178.264
8072,-0.6470,-0.3135,-0.7295,-8.911,2.808,8.545,-148.898,37.271,-178.374
8082,-0.6436,-0.2744,-0.6934,13.611,1.587,4.517,-148.892,37.315,-178.434
8092,-0.6064,-0.3105,-0.6416,32.532,-0.366,-3.357,-148.601,37.332,-178.396
8102,-0.5767,-0.4116,-0.5967,36.926,-2.075,-8.118,-148.145,37.321,-178.292
8113,-0.5693,-0.5283,-0.5923,23.804,-3.174,-8.179,-147.744,37.288,-178.187
8122,-0.5713,-0.5786,-0.6304,3.967,-2.747,-5.188,-147.557,37.249,-178.110
8132,-0.5894,-0.5693,-0.6680,-14.099,-0.854,0.305,-147.618,37.222,-178.110
8142,-0.6104,-0.5005,-0.6924,-25.452,0.793,7.263,-147.881,37.238,-178.193
8152,-0.6440,-0.3237,-0.7114,-25.146,-1.221,11.780,-148.277,37.332,-178.308
8162,-0.6553,-0.2363,-0.6914,-9.521,-1.770,10.925,-148.563,37.447,-178.412
8172,-0.6479,-0.2402,-0.6548,10.376,-0.793,4.272,-148.601,37.535,-178.456
8182,-0.6172,-0.2769,-0.6284,23.743,-1.282,-4.822,-148.403,37.562,-178.396
8192,-0.5791,-0.4551,-0.6060,23.315,1.099,-9.888,-148.057,37.502,-178.297
8202,-0.5674,-0.5610,-0.6338,7.263,3.357,-9.460,-147.843,37.386,-178.215
8213,-0.5874,-0.5889,-0.6772,-15.259,5.920,-3.845,-147.909,37.277,-178.215
8223,-0.6104,-0.5337,-0.7363,-33.752,7.690,3.357,-148.255,37.194,-178.303
8232,-0.6387,-0.3872,-0.7715,-36.682,5.859,7.935,-148.744,37.178,-178.423
8243,-0.6631,-0.3135,-0.7764,-23.499,2.808,8.362,-149.134,37.211,-178.533
8253,-0.6592,-0.3296,-0.7534,-1.648,0.977,2.991,-149.244,37.233,-178.572
8263,-0.6177,-0.3906,-0.7163,17.517,-0.610,-5.188,-149.057,37.211,-178.511
8273,-0.5757,-0.4712,-0.6841,25.391,-1.343,-9.705,-148.700,37.145,-178.401
8283,-0.5581,-0.5483,-0.6704,20.142,-1.953,-7.751,-148.365,37.079,-178.303
8293,-0.5698,-0.5151,-0.6758,7.019,-5.310,-2.625,-148.200,37.079,-178.242
8303,-0.5986,-0.4810,-0.6631,-3.174,-7.690,3.052,-148.178,37.150,-178.220
8313,-0.6279,-0.4419,-0.6577,-8.850,-7.812,7.751,-148.266,37.271,-178.253
8323,-0.6201,-0.3062,-0.6411,-2.808,-6.775,6.226,-148.365,37.397,-178.275
8333,-0.6123,-0.3535,-0.6367,3.967,-5.615,1.526,-148.343,37.480,-178.253
8343,-0.6011,-0.3857,-0.6528,7.568,-4.028,-4.150,-148.233,37.502,-178.182
8353,-0.5908,-0.4653,-0.6558,8.972,-0.671,-7.202,-148.063,37.458,-178.099
8363,-0.5898,-0.5166,-0.6597,4.517,2.747,-5.432,-147.931,37.381,-178.061
8373,-0.6040,-0.4512,-0.6704,-4.211,2.808,-0.488,-147.964,37.354,-178.077
8383,-0.6216,-0.3848,-0.6660,-8.423,0.854,3.967,-148.096,37.381,-178.121
8393,-0.6348,-0.3389,-0.6489,-6.714,-1.831,4.456,-148.228,37.452,-178.160
8403,-0.6377,-0.3169,-0.6411,-1.709,-3.601,0.549,-148.288,37.529,-178.143
8413,-0.6250,-0.3569,-0.6343,3.662,-2.808,-4.456,-148.233,37.562,-178.072
8423,-0.6045,-0.4819,-0.6519,4.822,0.671,-8.179,-148.090,37.507,-177.990
8433,-0.5767,-0.6006,-0.6909,-1.282,4.883,-9.094,-147.969,37.365,-177.924
8443,-0.5698,-0.6289,-0.7319,-10.193,7.385,-5.310,-147.980,37.205,-177.918
8453,-0.5913,-0.5415,-0.7417,-16.968,8.118,2.136,-148.156,37.106,-177.995
8463,-0.6260,-0.3398,-0.7349,-17.639,3.052,9.338,-148.469,37.134,-178.116
8473,-0.6567,-0.2598,-0.6772,-6.897,-2.258,10.803,-148.705,37.260,-178.215
8483,-0.6460,-0.2559,-0.6309,5.432,-6.165,4.578,-148.749,37.397,-178.226
8493,-0.6309,-0.3052,-0.5967,13.611,-7.568,-3.357,-148.601,37.502,-178.138
8503,-0.6035,-0.3848,-0.5869,12.024,-4.333,-8.606,-148.392,37.529,-178.017
8513,-0.5854,-0.4541,-0.6284,1.526,1.099,-9.583,-148.277,37.463,-177.924
8523,-0.5811,-0.5063,-0.6733,-9.460,6.348,-7.812,-148.293,37.343,-177.880
8533,-0.5928,-0.5303,-0.7271,-18.188,11.047,-4.150,-148.447,37.189,-177.907
8543,-0.6069,-0.4756,-0.7627,-19.775,12.329,-0.366,-148.683,37.051,-177.984
8553,-0.6147,-0.4204,-0.7739,-11.536,10.071,2.014,-148.881,36.953,-178.072
8563,-0.6226,-0.3765,-0.7383,2.136,5.432,2.197,-148.936,36.920,-178.132
8573,-0.6206,-0.3730,-0.6875,13.794,-1.282,-0.671,-148.815,36.942,-178.116
8583,-0.6035,-0.3853,-0.6357,17.639,-6.348,-3.601,-148.590,36.996,-178.039
8593,-0.5933,-0.4424,-0.6045,11.230,-8.606,-3.601,-148.376,37.068,-177.940
8603,-0.5913,-0.5034,-0.6094,-3.601,-7.263,-1.282,-148.293,37.117,-177.880
8613,-0.5977,-0.4922,-0.6592,-20.508,-3.479,2.014,-148.447,37.150,-177.880
8623,-0.5981,-0.4800,-0.7007,-27.039,1.526,4.028,-148.716,37.134,-177.935
8633,-0.6069,-0.4204,-0.7271,-22.888,4.822,4.578,-149.008,37.106,-178.011
8643,-0.6230,-0.3140,-0.7295,-10.742,4.761,3.906,-149.233,37.095,-178.088
8653,-0.6226,-0.2920,-0.6987,7.019,3.479,0.854,-149.260,37.095,-178.116
8663,-0.6060,-0.3340,-0.6543,20.508,1.953,-4.456,-149.073,37.079,-178.083
8673,-0.5913,-0.3926,-0.6357,21.912,-0.427,-8.484,-148.793,37.051,-177.990
8683,-0.5884,-0.5029,-0.6348,13.672,-0.122,-8.667,-148.530,36.996,-177.896
8693,-0.5996,-0.5322,-0.6787,-1.892,2.441,-6.104,-148.453,36.925,-177.847
8703,-0.5967,-0.4971,-0.7168,-13.306,4.944,-2.441,-148.557,36.843,-177.852
8713,-0.6016,-0.4800,-0.7363,-17.700,6.287,2.319,-148.755,36.777,-177.918
8723,-0.6128,-0.4277,-0.7549,-15.381,4.456,4.761,-148.969,36.749,-177.995
8733,-0.6147,-0.3755,-0.7456,-5.493,1.892,4.028,-149.101,36.749,-178.050
8743,-0.6206,-0.3726,-0.7129,6.775,-0.305,1.648,-149.079,36.771,-178.066
8753,-0.6157,-0.3906,-0.6787,14.038,-3.052,-1.526,-148.925,36.804,-178.033
8763,-0.6016,-0.4360,-0.6470,14.771,-5.554,-3.235,-148.711,36.843,-177.962
8773,-0.6045,-0.4683,-0.6274,8.850,-5.981,-1.953,-148.530,36.892,-177.902
8783,-0.6011,-0.4658,-0.6387,-0.549,-4.578,1.038,-148.480,36.936,-177.885
8793,-0.5928,-0.4795,-0.6592,-7.629,-1.526,4.211,-148.530,36.964,-177.918
8803,-0.5942,-0.4829,-0.6821,-12.146,1.343,6.592,-148.661,36.969,-177.995
8813,-0.6040,-0.3887,-0.7109,-12.512,1.892,7.996,-148.870,36.996,-178.094
8823,-0.6133,-0.3662,-0.7012,-5.859,1.526,8.118,-149.019,37.029,-178.193
8833,-0.6113,-0.3105,-0.6792,2.136,-1.038,4.944,-149.090,37.090,-178.237
8843,-0.6069,-0.3086,-0.6499,8.972,-4.150,0.977,-149.046,37.156,-178.220
8853,-0.6045,-0.3521,-0.6172,11.292,-4.944,-2.014,-148.914,37.222,-178.171
8863,-0.5957,-0.4014,-0.6162,5.127,-4.517,-3.540,-148.804,37.260,-178.099
8873,-0.5942,-0.4331,-0.6396,-5.005,-1.709,-3.113,-148.799,37.260,-178.055
8883,-0.5952,-0.4590,-0.6763,-13.672,2.563,-1.343,-148.903,37.222,-178.061
8893,-0.6089,-0.4580,-0.7129,-17.944,6.592,0.549,-149.095,37.156,-178.105
8903,-0.6211,-0.3809,-0.7290,-16.479,7.202,1.587,-149.332,37.101,-178.171
8913,-0.6323,-0.2700,-0.7148,-8.362,4.272,1.587,-149.540,37.095,-178.215
8923,-0.6343,-0.2417,-0.6670,3.052,-0.366,-1.038,-149.606,37.139,-178.204
8933,-0.6094,-0.3237,-0.6201,10.315,-3.540,-6.714,-149.474,37.178,-178.105
8943,-0.5786,-0.4600,-0.6035,8.545,-3.174,-11.597,-149.238,37.150,-177.962
8953,-0.5532,-0.5981,-0.6152,-3.479,0.854,-11.414,-149.068,37.040,-177.841
8963,-0.5684,-0.6812,-0.6699,-23.743,6.409,-4.333,-149.150,36.903,-177.836
8973,-0.6016,-0.5923,-0.7373,-39.368,11.169,4.395,-149.535,36.782,-177.957
8983,-0.6255,-0.3887,-0.7832,-40.527,11.658,10.864,-150.090,36.727,-178.149
8993,-0.6553,-0.2871,-0.7622,-23.560,8.667,12.695,-150.529,36.738,-178.341
9003,-0.6660,-0.2427,-0.7295,0.671,4.700,6.165,-150.688,36.766,-178.434
9013,-0.6294,-0.2637,-0.6924,23.193,1.038,-4.700,-150.518,36.771,-178.391
9023,-0.5830,-0.4248,-0.6470,33.386,2.075,-11.841,-150.079,36.700,-178.275
9033,-0.5532,-0.5288,-0.6685,23.010,4.333,-12.329,-149.705,36.563,-178.165
9043,-0.5483,-0.5781,-0.7163,5.615,6.104,-7.690,-149.535,36.414,-178.121
9053,-0.5649,-0.5498,-0.7559,-11.475,8.301,-0.061,-149.623,36.293,-178.176
9063,-0.5898,-0.4707,-0.7925,-21.423,7.080,7.141,-149.903,36.227,-178.297
9073,-0.6221,-0.3867,-0.8037,-18.372,3.784,10.986,-150.211,36.238,-178.440
9083,-0.6318,-0.3726,-0.7944,-5.127,1.587,9.521,-150.375,36.266,-178.550
9093,-0.6138,-0.3735,-0.7700,8.667,-0.244,5.005,-150.359,36.288,-178.599
9103,-0.6006,-0.3838,-0.7412,16.907,-3.723,1.160,-150.211,36.321,-178.594
9113,-0.5972,-0.4272,-0.7090,18.738,-6.714,0.488,-149.991,36.376,-178.555
9123,-0.5967,-0.4297,-0.6963,12.512,-9.583,1.648,-149.821,36.464,-178.511
9133,-0.5996,-0.3931,-0.6855,4.395,-10.925,3.662,-149.766,36.579,-178.484
9143,-0.6011,-0.4038,-0.6743,-1.526,-10.254,5.798,-149.771,36.705,-178.484
9153,-0.5972,-0.4077,-0.6772,-5.310,-8.240,5.859,-149.826,36.810,-178.495
9163,-0.5864,-0.3579,-0.6807,-6.653,-7.141,4.822,-149.919,36.898,-178.500
9173,-0.5869,-0.3633,-0.6782,-4.028,-6.531,4.272,-149.980,36.980,-178.506
9183,-0.5918,-0.3892,-0.6646,1.160,-5.859,2.136,-149.958,37.046,-178.495
9193,-0.5967,-0.3857,-0.6621,4.700,-5.249,0.000,-149.892,37.101,-178.462
9203,-0.6152,-0.3848,-0.6504,6.653,-3.479,0.366,-149.810,37.156,-178.440
9213,-0.6289,-0.3828,-0.6528,4.822,-2.136,1.404,-149.760,37.205,-178.445
9223,-0.6318,-0.3618,-0.6699,2.075,-1.892,1.282,-149.760,37.255,-178.445
9233,-0.6309,-0.3633,-0.6855,1.587,-1.526,0.427,-149.766,37.288,-178.440
9243,-0.6250,-0.4126,-0.6987,2.380,-1.038,-1.343,-149.722,37.293,-178.418
9253,-0.6094,-0.4355,-0.7139,1.648,-1.038,-2.747,-149.672,37.277,-178.385
9263,-0.6104,-0.4541,-0.7051,1.587,-0.793,-1.709,-149.623,37.260,-178.358
9273,-0.6191,-0.4209,-0.7075,1.953,-1.770,0.061,-149.590,37.271,-178.352
9283,-0.6235,-0.3984,-0.6934,5.981,-3.113,1.038,-149.529,37.310,-178.341
9293,-0.6299,-0.3892,-0.6768,10.132,-3.845,0.732,-149.425,37.365,-178.325
9303,-0.6123,-0.3945,-0.6641,11.963,-4.028,-0.488,-149.288,37.408,-178.292
9313,-0.5903,-0.4297,-0.6675,10.132,-3.601,-1.404,-149.145,37.425,-178.253
9323,-0.5762,-0.4707,-0.6768,4.883,-3.052,-1.404,-149.035,37.419,-178.220
9333,-0.5796,-0.4839,-0.6860,-0.977,-2.502,0.366,-148.997,37.414,-178.209
9343,-0.5972,-0.4160,-0.6826,-5.249,-3.113,3.784,-149.057,37.452,-178.226
9353,-0.6206,-0.3511,-0.6733,-4.944,-4.822,6.409,-149.161,37.546,-178.264
9363,-0.6343,-0.3179,-0.6514,0.427,-5.493,4.456,-149.216,37.650,-178.281
9373,-0.6294,-0.2759,-0.6396,6.287,-5.554,-0.671,-149.200,37.738,-178.237
9383,-0.6143,-0.3154,-0.6250,11.475,-3.479,-5.371,-149.079,37.776,-178.154
9393,-0.5918,-0.3975,-0.6284,11.047,-0.671,-9.094,-148.892,37.744,-178.050
9403,-0.5786,-0.4863,-0.6567,4.150,1.648,-9.644,-148.738,37.656,-177.957
9413,-0.5903,-0.5420,-0.6826,-4.333,4.333,-6.348,-148.689,37.551,-177.918
9423,-0.6138,-0.5195,-0.7139,-11.658,5.066,-1.160,-148.766,37.474,-177.940
9433,-0.6362,-0.4531,-0.7251,-12.573,3.967,3.174,-148.920,37.447,-178.000
9443,-0.6460,-0.4082,-0.7212,-7.202,1.953,4.944,-149.046,37.463,-178.066
9453,-0.6436,-0.3740,-0.7124,1.709,-0.366,2.808,-149.079,37.491,-178.094
9463,-0.6221,-0.4019,-0.7021,10.803,-1.526,-1.404,-148.969,37.496,-178.066
9473,-0.5942,-0.4492,-0.6860,14.893,-2.197,-4.150,-148.766,37.480,-178.011
9483,-0.5830,-0.4966,-0.6709,10.193,-3.479,-2.625,-148.579,37.469,-177.957
9493,-0.5874,-0.5239,-0.6782,-0.732,-4.028,1.770,-148.519,37.485,-177.951
9503,-0.6001,-0.4795,-0.6919,-9.827,-3.296,5.554,-148.607,37.518,-177.990
9513,-0.6138,-0.4302,-0.6880,-11.719,-2.197,8.484,-148.766,37.579,-178.066
9523,-0.6406,-0.2944,-0.6753,-8.972,-2.563,9.827,-148.980,37.683,-178.154
9533,-0.6411,-0.2300,-0.6475,-0.610,-3.967,7.324,-149.134,37.809,-178.209
9543,-0.6265,-0.2534,-0.6265,9.644,-3.540,0.183,-149.117,37.892,-178.187
9553,-0.5918,-0.3345,-0.6206,15.198,-1.587,-7.935,-148.931,37.886,-178.088
9563,-0.5806,-0.4355,-0.6294,13.489,2.014,-11.047,-148.700,37.804,-177.984
9573,-0.5903,-0.5000,-0.6694,3.784,4.395,-8.484,-148.568,37.700,-177.924
9583,-0.6021,-0.5469,-0.6997,-5.798,6.409,-3.601,-148.563,37.590,-177.924
9593,-0.6162,-0.4766,-0.7300,-13.611,5.432,1.526,-148.711,37.529,-177.979
9603,-0.6489,-0.3848,-0.7319,-12.878,1.587,5.432,-148.914,37.546,-178.044
9613,-0.6587,-0.3374,-0.6997,-3.540,-1.953,4.700,-149.024,37.617,-178.083
9623,-0.6396,-0.3081,-0.6655,7.019,-4.761,-0.244,-148.997,37.689,-178.050
9633,-0.6133,-0.3579,-0.6343,14.282,-6.042,-5.493,-148.810,37.738,-177.951
9643,-0.5864,-0.4590,-0.6206,14.099,-3.784,-8.667,-148.546,37.722,-177.830
9653,-0.5674,-0.5361,-0.6489,4.822,-1.282,-8.118,-148.359,37.650,-177.737
9663,-0.5806,-0.5659,-0.6865,-6.958,2.136,-2.930,-148.343,37.573,-177.720
9673,-0.5957,-0.5596,-0.7197,-16.052,5.676,3.479,-148.480,37.502,-177.792
9683,-0.6196,-0.4761,-0.7456,-18.616,4.700,8.545,-148.733,37.480,-177.918
9693,-0.6353,-0.4062,-0.7378,-12.024,2.197,10.498,-148.953,37.513,-178.044
9703,-0.6431,-0.3599,-0.7051,0.305,-1.648,8.423,-149.035,37.584,-178.127
9713,-0.6323,-0.3501,-0.6592,11.658,-4.395,4.028,-148.958,37.667,-178.138
9723,-0.6172,-0.3462,-0.6274,16.235,-5.798,0.732,-148.804,37.755,-178.110
9733,-0.6118,-0.3911,-0.6084,14.404,-4.761,-0.122,-148.623,37.815,-178.077
9743,-0.6030,-0.4175,-0.6289,6.226,-3.296,0.000,-148.530,37.853,-178.055
9753,-0.6001,-0.4526,-0.6606,-2.075,-0.488,1.343,-148.524,37.853,-178.066
9763,-0.6040,-0.4473,-0.6797,-8.057,2.930,3.174,-148.618,37.831,-178.121
9773,-0.6084,-0.3853,-0.6938,-10.498,2.747,5.371,-148.793,37.837,-178.198
9783,-0.6333,-0.3379,-0.6909,-8.057,0.732,6.409,-148.969,37.875,-178.270
9793,-0.6357,-0.2915,-0.6733,-1.038,-1.221,2.808,-149.068,37.930,-178.292
9803,-0.6338,-0.2964,-0.6616,7.141,-2.258,-2.380,-149.041,37.974,-178.253
9813,-0.6309,-0.3799,-0.6543,12.695,-0.671,-7.141,-148.876,37.958,-178.171
9823,-0.6089,-0.4751,-0.6714,11.047,2.441,-9.644,-148.667,37.875,-178.083
9833,-0.6016,-0.5396,-0.6978,3.540,4.944,-7.202,-148.541,37.760,-178.039
9843,-0.6001,-0.5220,-0.7314,-5.676,4.944,-1.953,-148.568,37.667,-178.050
9853,-0.6089,-0.4653,-0.7368,-8.911,2.869,2.380,-148.672,37.628,-178.094
9863,-0.6367,-0.3599,-0.7197,-4.883,-1.831,3.967,-148.788,37.672,-178.121
9873,-0.6421,-0.3311,-0.6733,5.310,-5.493,2.136,-148.777,37.760,-178.110
9883,-0.6265,-0.3398,-0.6304,14.709,-6.958,-2.625,-148.618,37.837,-178.039
9893,-0.5962,-0.3784,-0.6074,17.517,-6.348,-7.080,-148.365,37.875,-177.918
9903,-0.5835,-0.4585,-0.6123,13.184,-2.991,-7.812,-148.118,37.853,-177.814
9914,-0.5723,-0.5356,-0.6382,3.723,0.854,-5.859,-147.964,37.782,-177.759
9923,-0.5854,-0.5430,-0.6709,-7.935,4.578,-1.099,-147.986,37.705,-177.775
9933,-0.6143,-0.4917,-0.7012,-16.296,6.042,5.127,-148.173,37.661,-177.869
9943,-0.6431,-0.4146,-0.7129,-15.747,4.700,8.606,-148.420,37.667,-177.995
9953,-0.6470,-0.3481,-0.6963,-7.141,2.319,7.019,-148.596,37.705,-178.088
9963,-0.6348,-0.3672,-0.6626,5.615,-0.183,2.502,-148.585,37.744,-178.110
9973,-0.6230,-0.3896,-0.6421,12.756,-1.770,-1.404,-148.442,37.771,-178.083
9983,-0.6055,-0.4189,-0.6357,11.841,-1.953,-2.502,-148.282,37.782,-178.044
9993,-0.5991,-0.4448,-0.6362,5.371,-1.282,-0.610,-148.189,37.787,-178.028
10003,-0.6021,-0.4321,-0.6548,-4.089,-0.671,2.258,-148.222,37.798,-178.050
10013,-0.6011,-0.4292,-0.6636,-10.803,1.343,4.333,-148.354,37.804,-178.105
10023,-0.6118,-0.4224,-0.6860,-13.550,3.296,4.517,-148.530,37.798,-178.176
10033,-0.6167,-0.3989,-0.7007,-9.949,4.150,2.380,-148.678,37.771,-178.231
10043,-0.6201,-0.3628,-0.6904,-1.953,4.517,0.427,-148.755,37.744,-178.264
10053,-0.6250,-0.3584,-0.6724,6.714,2.808,-0.793,-148.727,37.727,-178.275
10063,-0.6133,-0.4194,-0.6494,13.062,1.648,-3.113,-148.568,37.705,-178.248
10073,-0.6040,-0.4653,-0.6484,11.292,2.441,-4.211,-148.398,37.661,-178.220
10083,-0.6021,-0.4849,-0.6685,3.296,3.296,-1.831,-148.321,37.606,-178.220
10093,-0.6113,-0.4614,-0.6924,-5.432,4.089,1.953,-148.381,37.568,-178.270
10103,-0.6167,-0.3877,-0.7031,-10.925,2.991,4.761,-148.563,37.568,-178.341
10114,-0.6294,-0.3628,-0.7041,-8.911,1.587,5.310,-148.733,37.590,-178.407
10123,-0.6260,-0.3560,-0.7007,-3.235,0.732,2.014,-148.826,37.606,-178.434
10133,-0.6123,-0.3887,-0.7061,2.502,0.488,-2.136,-148.810,37.584,-178.418
10143,-0.6133,-0.4507,-0.7061,6.104,1.587,-4.333,-148.716,37.535,-178.380
10153,-0.6079,-0.4751,-0.7153,5.493,1.709,-3.967,-148.618,37.480,-178.347
10163,-0.6074,-0.5122,-0.7183,2.930,1.709,-0.610,-148.552,37.430,-178.352
10173,-0.6138,-0.4937,-0.7144,-0.366,0.549,2.808,-148.541,37.419,-178.385
10183,-0.6196,-0.4355,-0.7119,-1.770,-2.380,5.005,-148.585,37.458,-178.423
10193,-0.6304,-0.4141,-0.6904,1.648,-4.028,5.432,-148.590,37.529,-178.456
10203,-0.6152,-0.4067,-0.6665,5.005,-4.761,3.540,-148.546,37.595,-178.462
10213,-0.6060,-0.3862,-0.6431,6.226,-5.798,2.441,-148.480,37.667,-178.451
10223,-0.6094,-0.3921,-0.6226,5.249,-6.104,2.625,-148.414,37.755,-178.440
10233,-0.6099,-0.3599,-0.6099,1.953,-5.676,2.319,-148.398,37.842,-178.429
10243,-0.6128,-0.3267,-0.6099,-0.244,-4.639,1.770,-148.425,37.930,-178.412
10253,-0.6172,-0.3535,-0.6060,0.916,-1.099,-0.122,-148.425,37.969,-178.407
10263,-0.6021,-0.4253,-0.6382,1.221,3.906,-3.662,-148.387,37.919,-178.391
10273,-0.5898,-0.5161,-0.6763,0.366,9.216,-4.883,-148.332,37.787,-178.401
10283,-0.5928,-0.5244,-0.7192,-3.235,11.353,-2.319,-148.348,37.639,-178.451
10293,-0.6123,-0.4741,-0.7329,-6.287,8.423,2.808,-148.447,37.557,-178.539
10303,-0.6479,-0.3696,-0.7153,-4.822,2.808,6.592,-148.596,37.579,-178.627
10313,-0.6704,-0.2700,-0.6709,0.793,-2.380,5.676,-148.705,37.678,-178.671
10323,-0.6626,-0.2007,-0.6377,8.423,-5.737,0.549,-148.744,37.804,-178.643
10333,-0.6162,-0.3335,-0.6108,14.404,-4.395,-6.897,-148.563,37.842,-178.539
10343,-0.5713,-0.4746,-0.6401,10.193,0.061,-12.451,-148.332,37.755,-178.401
10353,-0.5469,-0.6064,-0.7031,-1.648,5.249,-10.986,-148.206,37.579,-178.319
10363,-0.5586,-0.6968,-0.7627,-15.686,9.644,-2.808,-148.277,37.392,-178.352
10373,-0.5869,-0.6909,-0.8345,-26.611,9.460,6.836,-148.541,37.260,-178.489
10383,-0.6235,-0.5752,-0.8667,-25.513,5.493,14.038,-148.887,37.222,-178.676
10393,-0.6709,-0.2993,-0.8237,-11.353,-2.441,17.517,-149.211,37.337,-178.846
10403,-0.7139,-0.1353,-0.7100,12.756,-13.855,15.320,-149.332,37.606,-178.923
10413,-0.6987,-0.1206,-0.5723,35.278,-21.057,5.981,-149.128,37.936,-178.852
10423,-0.6230,-0.1772,-0.4829,43.213,-23.743,-6.226,-148.672,38.232,-178.632
10433,-0.5571,-0.3276,-0.4487,31.189,-20.203,-13.306,-148.145,38.403,-178.352
10443,-0.5361,-0.4531,-0.4761,5.859,-11.108,-14.404,-147.827,38.430,-178.121
10453,-0.5249,-0.5244,-0.5649,-20.447,2.441,-12.146,-147.849,38.304,-178.006
10463,-0.5259,-0.6167,-0.6616,-37.048,14.893,-7.751,-148.118,38.057,-178.028
10473,-0.5610,-0.5737,-0.7236,-41.992,19.287,-0.854,-148.546,37.826,-178.143
10483,-0.6152,-0.4517,-0.7788,-34.851,17.944,6.470,-149.019,37.672,-178.336
10493,-0.6587,-0.4160,-0.7603,-12.939,15.442,9.827,-149.293,37.584,-178.539
10503,-0.6763,-0.3813,-0.7246,11.230,8.728,5.981,-149.282,37.562,-178.660
10513,-0.6709,-0.4385,-0.6631,27.588,2.991,0.732,-149.002,37.568,-178.687
10523,-0.6562,-0.4780,-0.6265,29.053,-0.305,-0.610,-148.645,37.590,-178.682
10533,-0.6392,-0.5303,-0.6284,19.104,-1.648,1.221,-148.365,37.612,-178.682
10543,-0.6279,-0.5137,-0.6616,4.211,-0.427,4.089,-148.288,37.628,-178.726
10553,-0.6074,-0.4048,-0.6953,-8.057,-0.183,7.263,-148.431,37.661,-178.802
10563,-0.6079,-0.3437,-0.6987,-11.169,-0.610,10.559,-148.661,37.722,-178.912
10573,-0.6055,-0.3379,-0.6973,-5.920,-0.122,8.606,-148.832,37.771,-179.000
10583,-0.5908,-0.3042,-0.7007,4.272,-0.061,2.747,-148.881,37.787,-179.033
10593,-0.5791,-0.3437,-0.6812,16.418,3.906,-2.197,-148.766,37.738,-179.033
10603,-0.5747,-0.3892,-0.6685,22.278,5.066,-4.578,-148.546,37.661,-179.017
10614,-0.5854,-0.4243,-0.6621,18.372,4.639,-2.502,-148.354,37.595,-179.022
10623,-0.6060,-0.4648,-0.6685,5.920,4.761,2.014,-148.293,37.557,-179.077
10633,-0.6260,-0.4004,-0.6890,-8.606,4.761,4.395,-148.442,37.546,-179.154
10643,-0.6309,-0.2881,-0.6953,-16.907,2.930,5.066,-148.744,37.573,-179.225
10653,-0.6543,-0.2251,-0.6865,-17.639,-0.549,4.211,-149.073,37.645,-179.269
10663,-0.6367,-0.2520,-0.6812,-13.672,-2.808,-1.770,-149.293,37.694,-179.231
10673,-0.6099,-0.3652,-0.6870,-7.874,-2.258,-9.949,-149.326,37.667,-179.110
10683,-0.5894,-0.5039,-0.7114,-3.235,1.038,-15.869,-149.211,37.546,-178.945
10693,-0.5747,-0.6729,-0.7261,-1.099,5.920,-15.259,-149.024,37.343,-178.813
10703,-0.5889,-0.6494,-0.7378,-4.150,8.179,-8.545,-148.936,37.167,-178.775
10713,-0.6152,-0.5015,-0.7490,-7.507,4.639,1.465,-149.013,37.106,-178.824
10723,-0.6465,-0.4224,-0.7168,-1.709,-0.122,8.667,-149.090,37.156,-178.912
10733,-0.6406,-0.3750,-0.6729,7.568,-4.089,8.057,-149.068,37.260,-178.973
10743,-0.6211,-0.3398,-0.6421,13.977,-7.751,4.089,-148.958,37.381,-178.967
10753,-0.5972,-0.4155,-0.6152,15.503,-8.057,0.427,-148.744,37.463,-178.923
10763,-0.5698,-0.5034,-0.6147,8.728,-5.005,-1.892,-148.546,37.480,-178.868
10773,-0.5640,-0.5425,-0.6528,-3.479,-2.563,-1.099,-148.480,37.458,-178.841
10783,-0.5898,-0.5078,-0.6743,-11.047,1.709,3.357,-148.563,37.430,-178.885
10793,-0.6294,-0.2896,-0.6719,-13.916,2.319,9.216,-148.848,37.496,-179.000
10803,-0.6699,-0.0928,-0.6313,-6.409,-0.183,11.230,-149.216,37.645,-179.121
10813,-0.6641,0.0249,-0.5859,6.897,-1.770,4.028,177.561,37.787,-179.154
10823,-0.5923,-0.1694,-0.5293,20.020,-1.709,-8.667,-162.246,37.897,-179.044
10833,-0.5605,-0.4238,-0.5361,15.137,3.723,-19.409,-161.757,37.820,-178.824
10843,-0.5361,-0.5601,-0.6196,-3.174,13.794,-25.330,-161.400,37.562,-178.577
10853,-0.5205,-0.6753,-0.7085,-23.132,26.978,-20.874,-161.290,37.145,-178.434
10863,-0.5474,-0.6431,-0.7881,-39.124,32.898,-9.521,-161.488,36.716,-178.451
10873,-0.6162,-0.5254,-0.8608,-42.664,27.344,2.075,-161.856,36.414,-178.588
10883,-0.6880,-0.4321,-0.8960,-28.076,18.616,7.812,-162.158,36.244,-178.753
10893,-0.7163,-0.4106,-0.8726,-0.610,10.254,4.761,-162.147,36.167,-178.846
10903,-0.6562,-0.4414,-0.7993,25.024,3.845,-2.747,-161.774,36.118,-178.830
10913,-0.5977,-0.4521,-0.7183,34.485,-5.127,-5.371,-161.246,36.140,-178.742
10923,-0.5698,-0.4609,-0.6553,27.039,-12.329,-4.089,-160.757,36.238,-178.649
10933,-0.5537,-0.4565,-0.6304,14.038,-15.747,-2.869,-160.395,36.365,-178.550
10943,-0.5493,-0.4653,-0.6304,2.563,-14.709,-1.648,-160.153,36.486,-178.467
10953,-0.5581,-0.4199,-0.6313,-6.653,-8.240,0.916,-160.071,36.563,-178.445
10963,-0.5684,-0.3545,-0.6387,-10.803,-1.526,4.089,-160.109,36.606,-178.484
10973,-0.5781,-0.3594,-0.6450,-7.385,2.808,4.517,-160.126,36.606,-178.550
10983,-0.5874,-0.3130,-0.6611,0.183,6.042,0.916,-160.093,36.579,-178.588
10993,-0.5835,-0.3916,-0.6582,9.766,7.996,-2.686,-159.890,36.502,-178.588
11003,-0.5815,-0.4683,-0.6606,12.512,7.935,-4.333,-159.604,36.403,-178.572
11013,-0.5937,-0.5059,-0.6885,5.127,6.531,-1.709,-159.395,36.321,-178.583
11023,-0.6187,-0.5054,-0.7153,-5.859,5.432,3.723,-159.351,36.271,-178.649
11033,-0.6108,-0.4858,-0.7505,-13.611,3.662,6.714,-159.417,36.244,-178.742
11043,-0.6138,-0.4937,-0.7642,-14.893,1.465,7.690,-159.494,36.233,-178.841
11053,-0.6279,-0.4404,-0.7793,-12.024,-0.793,7.568,-159.576,36.255,-178.923
11063,-0.6221,-0.3706,-0.7764,-3.784,-2.930,6.104,-159.598,36.299,-178.984
11073,-0.6182,-0.3657,-0.7520,8.911,-4.456,2.808,-159.461,36.354,-178.995
11083,-0.5903,-0.3857,-0.7144,21.301,-5.249,-2.686,-159.137,36.387,-178.940
11093,-0.5698,-0.4194,-0.6606,26.733,-4.883,-4.456,-158.714,36.414,-178.868
11103,-0.5684,-0.4336,-0.6367,19.165,-5.554,-1.221,-158.373,36.464,-178.830
11114,-0.5786,-0.3818,-0.6426,6.165,-6.531,2.380,-158.220,36.546,-178.824
11123,-0.5884,-0.3193,-0.6504,-2.686,-5.798,3.784,-158.214,36.639,-178.841
11133,-0.5962,-0.3457,-0.6377,-5.432,-3.723,2.747,-158.209,36.711,-178.857
11143,-0.5972,-0.3740,-0.6514,-8.606,-2.258,0.183,-158.209,36.749,-178.846
11153,-0.5977,-0.4067,-0.6846,-10.681,-0.244,-1.282,-158.214,36.749,-178.830
11163,-0.5967,-0.4463,-0.7080,-9.155,1.526,-2.075,-158.192,36.711,-178.813
11173,-0.6074,-0.4438,-0.7261,-6.592,0.854,-1.648,-158.154,36.689,-178.802
11183,-0.6191,-0.4722,-0.7222,-1.221,-0.549,-0.671,-158.044,36.678,-178.792
11193,-0.6187,-0.4839,-0.7256,3.906,-1.526,-1.099,-157.874,36.678,-178.770
11203,-0.6040,-0.4800,-0.7246,8.667,-2.319,-1.892,-157.659,36.672,-178.737
11213,-0.5913,-0.4858,-0.6987,11.597,-3.174,-0.732,-157.401,36.678,-178.715
11223,-0.5815,-0.4272,-0.6816,8.118,-6.775,2.258,-157.225,36.744,-178.709
11233,-0.5967,-0.3784,-0.6592,2.747,-10.803,4.944,-157.126,36.876,-178.715
11243,-0.6045,-0.3350,-0.6450,-0.549,-12.817,3.845,-157.077,37.035,-178.693
11253,-0.6064,-0.3584,-0.6353,0.244,-10.376,0.671,-156.984,37.161,-178.654
11263,-0.5962,-0.4351,-0.6450,1.221,-5.005,-3.113,-156.824,37.194,-178.594
11273,-0.5796,-0.5156,-0.6694,-0.061,0.610,-4.578,-156.654,37.145,-178.539
11283,-0.5903,-0.5430,-0.7134,-3.235,4.150,-1.709,-156.544,37.062,-178.544
11293,-0.6094,-0.5068,-0.7368,-4.028,4.761,2.441,-156.506,37.002,-178.594
11303,-0.6338,-0.3667,-0.7310,-1.038,2.258,5.737,-156.533,37.013,-178.671
11313,-0.6543,-0.2896,-0.6992,5.737,-2.747,6.775,-156.522,37.101,-178.737
11323,-0.6338,-0.2803,-0.6475,13.306,-6.592,2.625,-156.390,37.222,-178.731
11333,-0.6011,-0.2969,-0.6255,14.038,-9.277,-3.601,-156.182,37.326,-178.643
11343,-0.5806,-0.4326,-0.6274,9.888,-7.385,-8.240,-155.896,37.359,-178.511
11353,-0.5547,-0.5386,-0.6714,1.221,-2.014,-10.681,-155.654,37.288,-178.380
11363,-0.5518,-0.6108,-0.7080,-7.019,2.930,-7.385,-155.522,37.167,-178.308
11373,-0.5825,-0.6641,-0.7388,-14.587,6.470,0.854,-155.517,37.046,-178.352
11383,-0.6211,-0.5415,-0.7646,-17.456,5.249,8.606,-155.654,36.996,-178.478
11393,-0.6523,-0.3833,-0.7529,-9.094,0.610,13.672,-155.814,37.051,-178.638
11403,-0.6792,-0.2285,-0.6934,8.118,-5.737,13.672,-155.869,37.222,-178.764
11413,-0.6577,-0.1846,-0.6270,25.024,-11.169,6.897,-155.709,37.430,-178.786
11423,-0.6162,-0.2397,-0.5479,34.180,-14.160,-1.770,-155.325,37.634,-178.693
11433,-0.5664,-0.3838,-0.5215,26.428,-13.733,-7.874,-154.847,37.760,-178.528
11443,-0.5474,-0.5059,-0.5493,7.202,-8.240,-10.071,-154.501,37.776,-178.369
11453,-0.5435,-0.5635,-0.6152,-14.160,0.488,-8.118,-154.418,37.689,-178.281
11463,-0.5659,-0.5942,-0.6895,-28.137,9.399,-2.563,-154.561,37.535,-178.303
11473,-0.6016,-0.5796,-0.7559,-30.579,13.306,3.479,-154.808,37.381,-178.412
11483,-0.6372,-0.5049,-0.8047,-20.569,13.550,7.507,-155.039,37.255,-178.572
11493,-0.6577,-0.4126,-0.8140,-0.793,11.658,9.216,-155.127,37.178,-178.737
11503,-0.6606,-0.3989,-0.7729,22.217,6.409,7.446,-154.951,37.150,-178.857
11513,-0.6504,-0.3706,-0.7070,36.011,-1.526,4.028,-154.594,37.200,-178.896
11523,-0.6187,-0.3628,-0.6582,35.461,-9.766,2.014,-154.188,37.321,-178.863
11533,-0.6040,-0.4302,-0.6138,26.978,-14.282,1.953,-153.798,37.469,-178.808
11543,-0.5864,-0.4385,-0.6079,10.925,-15.686,1.465,-153.550,37.623,-178.737
11553,-0.5728,-0.4463,-0.6143,-5.432,-13.550,3.052,-153.484,37.749,-178.698
11563,-0.5854,-0.4526,-0.6445,-17.822,-9.094,6.409,-153.589,37.848,-178.720
11573,-0.5879,-0.4551,-0.6738,-19.592,-3.845,6.775,-153.737,37.892,-178.775
11583,-0.6108,-0.3506,-0.6943,-11.230,-1.587,5.920,-153.880,37.936,-178.830
11593,-0.6455,-0.2476,-0.6836,3.967,0.061,5.188,-153.940,37.991,-178.890
11603,-0.6606,-0.1934,-0.6470,19.714,-1.648,1.160,-153.842,38.079,-178.896
11614,-0.6362,-0.2588,-0.6030,30.701,-3.662,-6.226,-153.512,38.145,-178.802
11623,-0.5957,-0.4482,-0.5859,27.710,-2.563,-11.963,-153.034,38.123,-178.654
11633,-0.5845,-0.6025,-0.6226,9.949,0.122,-13.245,-152.672,38.018,-178.506
11643,-0.5967,-0.6523,-0.6875,-10.681,3.418,-9.216,-152.567,37.886,-178.418
11653,-0.6064,-0.6235,-0.7246,-24.353,5.737,-2.319,-152.677,37.771,-178.429
11663,-0.6421,-0.4272,-0.7412,-28.992,2.380,5.432,-152.985,37.766,-178.500
11673,-0.6729,-0.2935,-0.7153,-18.372,-4.517,9.338,-153.259,37.881,-178.583
11683,-0.6812,-0.2739,-0.6738,3.784,-8.118,4.761,-153.276,38.029,-178.588
11693,-0.6289,-0.3379,-0.6440,25.330,-7.568,-5.676,-152.946,38.095,-178.478
11703,-0.5732,-0.4629,-0.6216,37.292,-5.493,-13.855,-152.369,38.068,-178.292
11713,-0.5508,-0.6147,-0.6182,31.799,-2.197,-13.184,-151.782,37.969,-178.132
11723,-0.5713,-0.6025,-0.6523,12.695,-1.831,-6.165,-151.463,37.903,-178.050
11733,-0.6060,-0.5322,-0.6729,-6.226,-1.709,3.052,-151.441,37.908,-178.077
11743,-0.6416,-0.4395,-0.6880,-15.991,-3.906,9.888,-151.611,37.991,-178.160
11753,-0.6616,-0.3486,-0.6890,-12.939,-6.897,9.644,-151.798,38.123,-178.226
11763,-0.6616,-0.3315,-0.6670,-0.549,-6.165,4.883,-151.831,38.232,-178.248
11773,-0.6255,-0.3320,-0.6582,12.085,-5.859,-2.380,-151.688,38.293,-178.182
11783,-0.5996,-0.4038,-0.6436,23.560,-4.456,-8.606,-151.337,38.293,-178.061
11793,-0.5728,-0.5840,-0.6240,24.963,-2.258,-9.766,-150.870,38.221,-177.935
11803,-0.5762,-0.6338,-0.6494,13.733,-2.808,-5.737,-150.535,38.161,-177.858
11813,-0.5806,-0.6616,-0.6436,-0.061,-1.648,3.052,-150.386,38.128,-177.880
11823,-0.6260,-0.5430,-0.6313,-14.526,-3.113,14.160,-150.502,38.210,-178.017
11833,-0.6758,-0.2612,-0.6353,-23.499,-9.888,21.179,-150.914,38.463,-178.187
11843,-0.6987,-0.0933,-0.5933,-13.428,-13.184,18.555,-151.326,38.776,-178.314
11853,-0.6797,-0.0850,-0.5850,6.104,-12.756,5.859,-151.458,39.018,-178.303
11863,-0.6250,-0.2676,-0.5752,30.273,-7.080,-13.245,-151.078,39.073,-178.110
11873,-0.5430,-0.5254,-0.5571,39.795,2.869,-26.306,-150.364,38.886,-177.830
11883,-0.5474,-0.6963,-0.5898,23.315,10.620,-23.499,-149.810,38.600,-177.632
11893,-0.5596,-0.7788,-0.6475,-3.906,18.066,-11.841,-149.639,38.287,-177.621
11903,-0.5918,-0.7002,-0.7002,-28.503,20.386,2.869,-149.875,38.057,-177.781
11915,-0.6597,-0.4521,-0.7480,-40.405,14.038,15.991,-150.425,38.002,-178.050
11923,-0.7031,-0.3711,-0.7407,-28.442,6.287,20.325,-150.897,38.073,-178.314
11933,-0.6909,-0.2910,-0.7187,-2.869,0.061,12.268,-151.084,38.167,-178.445
11943,-0.6660,-0.2778,-0.6841,24.475,-4.028,-0.610,-150.886,38.238,-178.418
11953,-0.6016,-0.4419,-0.6250,42.175,-3.113,-9.888,-150.331,38.216,-178.286
11963,-0.5581,-0.5669,-0.6011,36.194,-4.089,-10.742,-149.744,38.156,-178.143
11973,-0.5688,-0.6001,-0.6167,14.282,-5.066,-4.089,-149.420,38.134,-178.066
11983,-0.5962,-0.5913,-0.6436,-9.277,-2.930,5.005,-149.414,38.145,-178.099
11993,-0.6182,-0.4717,-0.6611,-24.536,-0.732,12.207,-149.683,38.205,-178.231
12003,-0.6362,-0.3516,-0.6641,-26.672,-1.709,14.832,-150.068,38.315,-178.380
12013,-0.6514,-0.2515,-0.6333,-14.771,-1.953,11.047,-150.359,38.441,-178.489
12023,-0.6421,-0.1606,-0.6123,2.380,-2.563,2.991,-150.496,38.546,-178.506
12033,-0.6313,-0.2026,-0.5786,22.034,-1.038,-7.263,-150.326,38.589,-178.423
12043,-0.5864,-0.3828,-0.5518,30.396,2.808,-15.808,-149.881,38.518,-178.264
12053,-0.5825,-0.5459,-0.5728,18.738,4.639,-17.212,-149.458,38.370,-178.105
12063,-0.6045,-0.6543,-0.6387,-4.272,7.874,-12.085,-149.299,38.194,-178.022
12073,-0.6138,-0.6694,-0.6978,-23.071,11.292,-5.127,-149.409,38.013,-178.039
12083,-0.6377,-0.5630,-0.7422,-31.738,8.789,1.770,-149.700,37.908,-178.116
12093,-0.6704,-0.4170,-0.7495,-26.062,3.235,6.104,-150.024,37.914,-178.204
12103,-0.6787,-0.3384,-0.7246,-8.057,-2.930,4.639,-150.172,37.985,-178.237
12114,-0.6333,-0.4214,-0.6631,13.977,-3.540,-2.014,-149.980,38.018,-178.187
12123,-0.5840,-0.4668,-0.6270,24.170,-4.944,-7.385,-149.606,38.007,-178.077
12133,-0.5737,-0.5146,-0.6084,20.630,-5.615,-6.042,-149.244,38.002,-177.973
12143,-0.5723,-0.5684,-0.6094,7.446,-5.310,-1.526,-149.013,38.007,-177.924
12153,-0.5835,-0.5317,-0.6313,-9.033,-4.395,2.991,-149.019,38.029,-177.929
12163,-0.6167,-0.4893,-0.6431,-20.386,-1.587,8.484,-149.205,38.084,-178.011
12173,-0.6562,-0.3662,-0.6523,-22.705,0.366,10.315,-149.513,38.161,-178.127
12183,-0.6650,-0.3018,-0.6489,-12.512,2.441,6.287,-149.744,38.221,-178.209
12193,-0.6553,-0.3027,-0.6440,5.920,3.296,-1.770,-149.738,38.227,-178.209
12203,-0.6128,-0.4043,-0.6206,22.766,5.554,-10.376,-149.436,38.145,-178.132
12213,-0.5708,-0.5654,-0.5952,26.367,7.263,-12.207,-148.991,37.985,-178.044
12223,-0.5811,-0.5620,-0.6138,10.986,4.944,-5.066,-148.755,37.886,-178.022
12233,-0.5869,-0.5635,-0.6309,-9.705,2.686,4.150,-148.788,37.853,-178.083
12243,-0.6187,-0.5068,-0.6499,-26.917,1.526,10.559,-149.062,37.886,-178.209
12253,-0.6416,-0.4014,-0.6821,-32.715,0.061,11.658,-149.464,37.958,-178.336
12263,-0.6567,-0.3794,-0.6782,-22.461,1.465,8.545,-149.766,38.013,-178.440
12273,-0.6567,-0.2969,-0.6987,-6.226,1.648,1.526,-149.914,38.035,-178.467
12283,-0.6396,-0.3613,-0.6846,15.808,4.028,-6.104,-149.755,37.985,-178.423
12293,-0.5898,-0.4722,-0.6646,30.212,5.615,-11.475,-149.348,37.859,-178.336
12303,-0.5605,-0.5884,-0.6475,26.794,4.089,-9.216,-148.925,37.722,-178.264
12313,-0.5776,-0.6240,-0.6694,8.179,0.366,-0.305,-148.722,37.667,-178.259
12323,-0.6016,-0.5732,-0.6851,-10.803,-1.831,8.118,-148.788,37.683,-178.336
12333,-0.6421,-0.3960,-0.7031,-23.621,-5.737,14.160,-149.112,37.815,-178.451
12343,-0.6694,-0.2666,-0.6777,-21.484,-9.460,14.832,-149.480,38.018,-178.550
12353,-0.6631,-0.2192,-0.6396,-8.728,-10.498,7.751,-149.689,38.210,-178.566
12363,-0.6401,-0.2544,-0.6152,6.165,-8.423,-2.747,-149.656,38.326,-178.484
12373,-0.5977,-0.3696,-0.5889,15.564,-3.845,-10.864,-149.398,38.326,-178.341
12383,-0.5845,-0.4927,-0.5981,11.963,0.122,-13.062,-149.101,38.249,-178.198
12393,-0.5786,-0.6123,-0.6323,1.465,4.333,-11.292,-148.898,38.106,-178.105
12403,-0.5923,-0.6519,-0.6655,-9.216,9.155,-6.226,-148.848,37.941,-178.094
12413,-0.6172,-0.6040,-0.7046,-16.541,10.071,0.427,-148.964,37.815,-178.165
12423,-0.6436,-0.5107,-0.7144,-15.686,7.812,6.165,-149.145,37.760,-178.281
12433,-0.6582,-0.4194,-0.6982,-6.714,2.808,8.484,-149.277,37.793,-178.396
12443,-0.6499,-0.3184,-0.6611,5.005,-1.587,6.531,-149.315,37.875,-178.456
12453,-0.6348,-0.2373,-0.6294,14.832,-5.981,1.648,-149.255,37.991,-178.434
12463,-0.6113,-0.3149,-0.5947,21.423,-7.629,-4.456,-149.013,38.079,-178.336
12473,-0.5835,-0.4253,-0.5889,18.311,-5.981,-9.766,-148.694,38.084,-178.193
12483,-0.5630,-0.5537,-0.6094,6.104,-1.587,-10.498,-148.447,38.007,-178.066
12493,-0.5747,-0.5933,-0.6636,-11.414,3.113,-5.127,-148.436,37.903,-178.033
12503,-0.5996,-0.5898,-0.7065,-23.376,5.737,2.136,-148.623,37.815,-178.094
12513,-0.6304,-0.5361,-0.7290,-26.794,4.883,8.240,-148.909,37.787,-178.215
12523,-0.6548,-0.4468,-0.7368,-20.569,1.953,10.620,-149.189,37.820,-178.341
12533,-0.6636,-0.3491,-0.7104,-5.737,-1.160,8.545,-149.348,37.897,-178.429
12543,-0.6572,-0.3154,-0.6743,10.742,-3.540,3.662,-149.304,37.980,-178.445
12553,-0.6270,-0.3467,-0.6387,21.973,-5.188,-3.174,-149.068,38.035,-178.374
12563,-0.5791,-0.4600,-0.5977,23.804,-5.798,-7.446,-148.694,38.040,-178.259
12573,-0.5801,-0.5249,-0.6035,11.536,-6.348,-5.127,-148.425,38.051,-178.160
12583,-0.5952,-0.5249,-0.6304,-5.310,-6.104,0.000,-148.370,38.079,-178.116
12593,-0.6162,-0.5093,-0.6426,-16.663,-3.723,4.822,-148.480,38.123,-178.143
12603,-0.6372,-0.3765,-0.6689,-19.775,-3.540,7.080,-148.733,38.205,-178.198
12614,-0.6504,-0.3428,-0.6494,-9.460,-2.563,5.920,-148.887,38.293,-178.248
12623,-0.6387,-0.3286,-0.6284,4.456,-0.427,0.183,-148.881,38.337,-178.248
12633,-0.6074,-0.3940,-0.6099,13.794,1.465,-5.737,-148.694,38.309,-178.193
12643,-0.5776,-0.5591,-0.5933,12.085,3.540,-6.714,-148.425,38.216,-178.143
12653,-0.5815,-0.6724,-0.6177,-5.981,3.479,-1.099,-148.332,38.123,-178.154
12663,-0.6147,-0.6797,-0.6772,-28.015,3.418,8.057,-148.541,38.079,-178.264
12673,-0.6567,-0.5054,-0.7310,-41.382,1.831,16.113,-149.035,38.134,-178.451
12683,-0.6846,-0.3101,-0.7305,-35.278,-2.075,18.616,-149.579,38.271,-178.638
12693,-0.7002,-0.1777,-0.7051,-11.841,-5.981,12.756,-149.919,38.441,-178.742
12703,-0.6748,-0.1968,-0.6743,20.081,-6.165,-0.916,-149.826,38.546,-178.693
12713,-0.5825,-0.3633,-0.5913,46.021,-1.404,-14.648,-149.255,38.502,-178.522
12723,-0.5244,-0.5039,-0.5518,41.992,1.160,-15.991,-148.618,38.375,-178.352
12733,-0.5220,-0.5249,-0.5649,16.418,0.244,-7.751,-148.288,38.287,-178.270
12743,-0.5371,-0.5249,-0.5679,-14.038,0.061,1.953,-148.332,38.265,-178.292
12753,-0.5967,-0.4355,-0.6206,-41.504,0.000,10.742,-148.777,38.320,-178.407
12763,-0.6538,-0.3711,-0.6631,-49.988,0.305,13.855,-149.387,38.414,-178.561
12773,-0.6929,-0.3247,-0.7046,-40.955,3.784,10.376,-149.936,38.463,-178.698
12783,-0.6860,-0.3276,-0.7412,-19.653,7.568,2.136,-150.238,38.430,-178.770
12793,-0.6772,-0.4092,-0.7368,5.615,13.000,-5.737,-150.200,38.293,-178.792
12803,-0.6343,-0.5005,-0.7104,18.921,13.062,-9.338,-149.947,38.112,-178.770
12813,-0.6387,-0.5430,-0.7026,17.456,6.897,-5.371,-149.689,38.002,-178.753
12823,-0.6382,-0.5615,-0.6968,9.705,0.488,-0.244,-149.507,37.974,-178.753
12833,-0.6367,-0.5210,-0.7036,1.099,-4.211,3.296,-149.442,38.007,-178.764
12843,-0.6216,-0.4600,-0.6890,-0.366,-6.287,4.395,-149.420,38.068,-178.770
12853,-0.6050,-0.4326,-0.6616,1.831,-6.836,4.761,-149.381,38.145,-178.781
12863,-0.6050,-0.3613,-0.6440,3.479,-7.019,4.578,-149.359,38.243,-178.786
12873,-0.6021,-0.3149,-0.6255,6.714,-5.981,3.052,-149.332,38.331,-178.781
12883,-0.5952,-0.3081,-0.6118,10.437,-3.906,0.122,-149.249,38.392,-178.753
12893,-0.5898,-0.3354,-0.6118,11.414,-2.625,-3.052,-149.128,38.419,-178.704
12903,-0.5977,-0.3882,-0.6133,8.545,-0.610,-4.761,-148.991,38.408,-178.649
12913,-0.6084,-0.4370,-0.6299,2.014,1.831,-4.944,-148.909,38.370,-178.605
12923,-0.6094,-0.4937,-0.6533,-5.371,4.211,-3.967,-148.892,38.293,-178.588
12933,-0.6221,-0.5239,-0.6758,-10.620,5.920,-1.221,-148.947,38.216,-178.616
12943,-0.6387,-0.4980,-0.6943,-11.597,6.226,1.770,-149.052,38.161,-178.676
12953,-0.6499,-0.4507,-0.7002,-6.897,5.737,3.357,-149.150,38.123,-178.753
12963,-0.6558,-0.4209,-0.6870,1.526,4.150,3.174,-149.167,38.117,-178.813
12973,-0.6372,-0.4307,-0.6685,9.399,0.977,1.038,-149.062,38.117,-178.830
12983,-0.6265,-0.4473,-0.6504,12.939,-2.075,-0.793,-148.887,38.134,-178.808
12993,-0.6167,-0.4751,-0.6440,11.475,-3.845,-1.282,-148.694,38.156,-178.770
13003,-0.6094,-0.4922,-0.6382,7.263,-3.601,0.061,-148.546,38.177,-178.748
13013,-0.6187,-0.4478,-0.6445,1.587,-2.258,2.808,-148.508,38.210,-178.759
13023,-0.6221,-0.4287,-0.6372,-0.732,0.244,5.066,-148.524,38.243,-178.819
13033,-0.6172,-0.3667,-0.6392,-0.549,1.892,5.188,-148.590,38.271,-178.885
13043,-0.6201,-0.3101,-0.6406,2.136,2.258,3.113,-148.651,38.298,-178.934
13053,-0.6104,-0.3491,-0.6382,6.836,3.235,-0.488,-148.623,38.282,-178.951
13063,-0.5962,-0.4058,-0.6582,7.874,3.296,-4.517,-148.524,38.227,-178.923
13073,-0.5942,-0.4717,-0.6763,4.761,2.380,-5.127,-148.420,38.156,-178.885
13083,-0.6069,-0.5244,-0.6875,-1.465,0.610,-2.380,-148.359,38.106,-178.863
13093,-0.6201,-0.5088,-0.6997,-8.789,-2.014,0.793,-148.403,38.106,-178.857
13103,-0.6445,-0.4702,-0.6958,-11.841,-3.174,3.784,-148.508,38.145,-178.879
13114,-0.6528,-0.4155,-0.6826,-9.216,-3.418,4.150,-148.612,38.205,-178.901
13123,-0.6445,-0.3906,-0.6641,-1.709,-2.625,1.404,-148.640,38.254,-178.896
13133,-0.6328,-0.4062,-0.6558,6.714,-1.038,-1.831,-148.552,38.260,-178.868
13143,-0.6128,-0.4438,-0.6514,11.719,0.671,-3.967,-148.381,38.232,-178.830
13153,-0.5962,-0.4731,-0.6572,11.169,0.793,-3.723,-148.211,38.188,-178.797
13163,-0.6025,-0.4902,-0.6606,6.592,-0.610,-0.916,-148.090,38.167,-178.786
13173,-0.6255,-0.4707,-0.6675,0.366,-2.747,2.380,-148.057,38.199,-178.792
13183,-0.6411,-0.4639,-0.6709,-2.258,-3.296,3.845,-148.063,38.243,-178.808
13193,-0.6470,-0.4082,-0.6704,-1.648,-3.174,3.418,-148.096,38.304,-178.824
13203,-0.6455,-0.3643,-0.6543,1.892,-3.906,2.686,-148.107,38.375,-178.830
13213,-0.6445,-0.3247,-0.6382,5.981,-4.639,0.854,-148.079,38.452,-178.808
13223,-0.6274,-0.3101,-0.6201,9.705,-5.188,-2.991,-147.997,38.518,-178.737
13233,-0.6104,-0.3584,-0.5996,11.475,-4.333,-6.348,-147.838,38.546,-178.643
13243,-0.6006,-0.4341,-0.6045,7.141,-2.808,-7.935,-147.662,38.535,-178.533
13253,-0.5986,-0.4858,-0.6309,-1.282,-0.610,-7.263,-147.574,38.485,-178.451
13263,-0.6099,-0.5122,-0.6592,-8.362,2.319,-4.578,-147.579,38.414,-178.418
13273,-0.6299,-0.4893,-0.6714,-11.597,3.845,-1.770,-147.662,38.364,-178.429
13283,-0.6382,-0.4546,-0.6724,-9.583,3.357,-0.183,-147.755,38.331,-178.445
13293,-0.6353,-0.4556,-0.6582,-3.662,2.075,-0.488,-147.772,38.315,-178.456
13303,-0.6235,-0.4668,-0.6548,2.380,0.488,-2.502,-147.700,38.293,-178.434
13313,-0.6133,-0.4927,-0.6470,6.775,0.183,-3.540,-147.563,38.260,-178.396
13323,-0.5942,-0.5464,-0.6431,7.019,0.244,-2.075,-147.398,38.216,-178.374
13333,-0.5996,-0.5327,-0.6450,1.587,-1.038,1.831,-147.321,38.205,-178.391
13343,-0.6172,-0.4858,-0.6372,-4.150,-2.136,6.348,-147.349,38.254,-178.440
13353,-0.6353,-0.3936,-0.6333,-7.690,-2.930,8.667,-147.480,38.342,-178.511
13363,-0.6338,-0.3311,-0.6187,-5.981,-2.930,7.141,-147.618,38.447,-178.572
13373,-0.6270,-0.3110,-0.6118,-1.099,-1.831,2.686,-147.689,38.513,-178.588
13383,-0.6206,-0.3125,-0.6084,4.456,0.000,-2.625,-147.678,38.540,-178.561
13393,-0.6084,-0.3799,-0.6187,8.301,2.441,-6.531,-147.574,38.496,-178.506
13403,-0.5996,-0.5049,-0.6431,7.385,5.615,-7.446,-147.415,38.386,-178.462
13413,-0.6089,-0.5972,-0.6875,-0.122,7.874,-5.066,-147.332,38.249,-178.462
13423,-0.6162,-0.6499,-0.7222,-9.705,9.766,0.732,-147.382,38.112,-178.539
13433,-0.6484,-0.5317,-0.7603,-18.311,7.507,7.812,-147.623,38.062,-178.671
13443,-0.6787,-0.4048,-0.7505,-18.066,2.075,12.451,-147.931,38.112,-178.819
13453,-0.6821,-0.2764,-0.7134,-8.545,-4.272,10.681,-148.178,38.243,-178.907
13463,-0.6587,-0.2656,-0.6670,5.432,-8.789,3.540,-148.211,38.375,-178.885
13473,-0.6265,-0.3091,-0.6255,16.479,-9.033,-4.822,-148.035,38.463,-178.775
13483,-0.5762,-0.4170,-0.5981,18.005,-6.470,-10.132,-147.733,38.463,-178.621
13493,-0.5615,-0.5073,-0.6064,8.484,-3.235,-9.094,-147.497,38.414,-178.500
13503,-0.5674,-0.5537,-0.6294,-4.395,0.244,-4.578,-147.426,38.342,-178.451
13513,-0.5952,-0.5640,-0.6572,-14.465,3.845,1.099,-147.513,38.276,-178.489
13523,-0.6348,-0.4927,-0.6846,-18.311,5.554,5.432,-147.717,38.249,-178.588
13533,-0.6523,-0.3877,-0.6885,-13.245,4.395,6.836,-147.942,38.260,-178.687
13543,-0.6582,-0.3359,-0.6694,-0.854,2.075,4.761,-148.046,38.298,-178.753
13553,-0.6489,-0.3345,-0.6401,11.780,-0.366,-0.427,-147.969,38.337,-178.748
13563,-0.6216,-0.3589,-0.6162,18.433,-2.502,-5.615,-147.755,38.353,-178.671
13573,-0.6011,-0.4434,-0.6016,15.869,-2.075,-7.019,-147.502,38.337,-178.583
13583,-0.5942,-0.4873,-0.6260,5.249,-0.732,-5.981,-147.354,38.298,-178.511
13593,-0.5986,-0.5024,-0.6499,-5.127,1.587,-2.869,-147.343,38.249,-178.489
13603,-0.6162,-0.4893,-0.6636,-10.376,2.930,1.038,-147.426,38.216,-178.522
13614,-0.6367,-0.4302,-0.6709,-9.888,1.465,2.930,-147.546,38.221,-178.566
13623,-0.6455,-0.4170,-0.6606,-2.869,1.709,2.319,-147.601,38.232,-178.599
13633,-0.6323,-0.3994,-0.6479,5.188,2.380,-0.793,-147.563,38.221,-178.610
13643,-0.6187,-0.3989,-0.6450,10.620,2.258,-3.418,-147.448,38.199,-178.588
13653,-0.6079,-0.4404,-0.6367,11.414,1.892,-4.150,-147.299,38.161,-178.555
13663,-0.6006,-0.4912,-0.6450,7.507,1.343,-3.540,-147.156,38.112,-178.528
13674,-0.6108,-0.5132,-0.6602,0.183,1.221,-1.160,-147.107,38.079,-178.522
13684,-0.6196,-0.5088,-0.6846,-7.263,1.709,2.441,-147.162,38.057,-178.561
13694,-0.6338,-0.4639,-0.7002,-11.047,0.854,5.127,-147.299,38.068,-178.621
13703,-0.6436,-0.4033,-0.6987,-9.033,-0.610,5.615,-147.453,38.106,-178.676
13713,-0.6392,-0.3579,-0.6802,-1.892,-1.221,3.418,-147.535,38.150,-178.704
13724,-0.6284,-0.3281,-0.6582,5.737,-2.136,-0.244,-147.530,38.188,-178.687
13734,-0.6157,-0.3403,-0.6445,10.864,-2.869,-3.967,-147.431,38.216,-178.627
13744,-0.6001,-0.3857,-0.6382,12.085,-2.930,-6.836,-147.266,38.205,-178.533
13754,-0.5864,-0.5039,-0.6455,8.728,-2.136,-7.812,-147.068,38.156,-178.434
13764,-0.5977,-0.5571,-0.6621,1.465,0.122,-5.798,-146.942,38.090,-178.374
13774,-0.6279,-0.4526,-0.6826,-7.019,0.671,-0.916,-147.008,38.073,-178.369
13784,-0.6680,-0.3237,-0.6792,-6.653,-0.916,2.258,-147.156,38.128,-178.385
13793,-0.6934,-0.1416,-0.6621,3.113,-3.662,-2.075,-147.305,38.221,-178.336
13804,-0.6719,-0.1816,-0.6460,17.151,-4.089,-10.925,-147.217,38.265,-178.193
13814,-0.5933,-0.4438,-0.6318,22.888,-2.380,-19.775,-146.827,38.172,-177.968
13824,-0.5386,-0.6396,-0.6890,9.338,-1.221,-22.095,-146.486,37.980,-177.720
13834,-0.5430,-0.7866,-0.7368,-9.949,-0.183,-15.076,-146.354,37.787,-177.561
13844,-0.5728,-0.8037,-0.7603,-27.405,0.977,-3.113,-146.481,37.661,-177.534
13854,-0.6387,-0.5396,-0.7822,-37.415,-4.700,7.812,-146.871,37.705,-177.583
13864,-0.7021,-0.3228,-0.7241,-23.315,-12.207,11.963,-147.217,37.908,-177.627
13874,-0.7012,-0.3081,-0.6494,7.141,-14.648,5.676,-147.195,38.123,-177.589
13884,-0.6426,-0.2876,-0.5596,36.865,-14.038,-6.836,-146.783,38.276,-177.418
13894,-0.5781,-0.3735,-0.4800,49.377,-11.230,-14.282,-146.107,38.348,-177.187
13904,-0.5430,-0.5415,-0.4487,38.696,-7.385,-13.367,-145.443,38.326,-176.990
13916,-0.5278,-0.6455,-0.4863,13.611,-5.554,-9.705,-145.036,38.265,-176.852
13924,-0.5464,-0.7251,-0.5454,-10.620,-0.916,-2.197,-144.943,38.188,-176.819
13934,-0.5923,-0.6953,-0.5840,-27.649,4.456,8.362,-145.140,38.150,-176.940
13944,-0.6382,-0.5264,-0.6299,-35.706,5.859,17.456,-145.580,38.199,-177.166
13954,-0.6704,-0.3818,-0.6338,-26.855,6.409,20.935,-146.041,38.304,-177.429
13963,-0.6704,-0.3032,-0.6406,-6.470,5.798,16.724,-146.327,38.397,-177.649
13974,-0.6523,-0.3037,-0.6284,14.832,8.545,7.996,-146.343,38.419,-177.792
13984,-0.6167,-0.3530,-0.6187,26.001,9.644,0.488,-146.173,38.370,-177.869
13994,-0.5977,-0.4258,-0.6294,23.499,10.010,-1.343,-145.975,38.276,-177.924
14004,-0.6035,-0.4468,-0.6646,8.179,8.972,0.793,-145.937,38.194,-177.995
14014,-0.6172,-0.4414,-0.7031,-9.216,7.080,3.723,-146.102,38.139,-178.088
14024,-0.6265,-0.4365,-0.7339,-20.447,5.615,5.737,-146.398,38.106,-178.187
14034,-0.6401,-0.3945,-0.7578,-21.179,3.113,4.761,-146.711,38.095,-178.259
14044,-0.6299,-0.3843,-0.7480,-11.902,2.563,1.160,-146.909,38.068,-178.292
14054,-0.6172,-0.3896,-0.7271,-0.427,1.953,-2.258,-146.959,38.029,-178.281
14064,-0.6230,-0.3403,-0.6978,8.118,-1.404,-4.395,-146.915,38.024,-178.220
14074,-0.6245,-0.3965,-0.6582,13.245,-3.723,-5.493,-146.750,38.035,-178.138
14084,-0.6196,-0.4790,-0.6558,11.414,-3.906,-7.324,-146.547,38.018,-178.033
14094,-0.6050,-0.5366,-0.6650,5.127,-3.479,-7.874,-146.371,37.980,-177.924
14104,-0.6060,-0.5737,-0.6748,-3.174,-3.296,-3.967,-146.299,37.947,-177.858
14114,-0.6216,-0.5400,-0.6875,-11.475,-6.042,1.343,-146.349,37.980,-177.830
14124,-0.6353,-0.4868,-0.6782,-11.902,-8.545,4.272,-146.437,38.068,-177.819
14134,-0.6411,-0.4648,-0.6641,-4.272,-9.216,3.418,-146.448,38.167,-177.786
14144,-0.6338,-0.4658,-0.6367,8.606,-7.874,0.061,-146.305,38.238,-177.731
14154,-0.6216,-0.4443,-0.6030,19.348,-5.981,-2.258,-146.047,38.287,-177.665
14164,-0.6079,-0.4507,-0.5562,23.560,-4.578,-1.404,-145.734,38.337,-177.621
14174,-0.6030,-0.4292,-0.5283,17.151,-4.517,1.282,-145.503,38.414,-177.599
14184,-0.6079,-0.3594,-0.5337,4.944,-5.005,3.296,-145.459,38.524,-177.599
14194,-0.6113,-0.3530,-0.5454,-4.944,-2.686,3.174,-145.530,38.611,-177.616
14204,-0.5942,-0.4243,-0.5693,-13.000,1.343,1.221,-145.651,38.622,-177.638
14214,-0.5967,-0.4609,-0.6084,-20.386,5.188,0.610,-145.854,38.573,-177.682
14224,-0.6177,-0.4727,-0.6538,-24.658,8.301,2.014,-146.129,38.507,-177.759
14234,-0.6372,-0.4668,-0.6924,-21.912,9.949,2.441,-146.404,38.425,-177.858
14244,-0.6577,-0.4492,-0.7090,-12.207,9.460,1.404,-146.591,38.353,-177.940
14254,-0.6636,-0.4746,-0.7129,0.305,8.850,-0.061,-146.618,38.276,-178.000
14264,-0.6406,-0.4902,-0.7124,9.583,7.629,-2.075,-146.536,38.183,-178.033
14274,-0.6138,-0.4849,-0.7026,13.672,4.456,-2.869,-146.387,38.106,-178.033
14284,-0.6099,-0.4937,-0.6772,12.024,0.122,-0.610,-146.239,38.079,-178.028
14294,-0.6094,-0.4692,-0.6553,4.578,-4.578,2.258,-146.173,38.123,-178.017
14304,-0.6211,-0.4346,-0.6436,-3.235,-6.592,4.395,-146.201,38.205,-178.017
14314,-0.6230,-0.4326,-0.6382,-7.507,-5.676,4.883,-146.277,38.287,-178.028
14324,-0.6113,-0.4331,-0.6445,-8.301,-3.174,3.845,-146.371,38.331,-178.050
14334,-0.6138,-0.4277,-0.6499,-6.226,-0.488,2.808,-146.453,38.353,-178.077
14344,-0.6196,-0.4272,-0.6519,-2.075,1.709,2.136,-146.497,38.348,-178.110
14354,-0.6206,-0.4126,-0.6553,2.197,2.991,0.671,-146.503,38.331,-178.138
14364,-0.6226,-0.4268,-0.6538,6.348,3.845,-0.854,-146.459,38.298,-178.154
14374,-0.6191,-0.4502,-0.6499,7.202,3.784,-1.831,-146.376,38.254,-178.165
14384,-0.6201,-0.4326,-0.6562,3.662,1.953,-1.587,-146.343,38.232,-178.160
14394,-0.6235,-0.4424,-0.6558,0.183,-0.122,-0.549,-146.332,38.227,-178.154
14404,-0.6338,-0.3857,-0.6460,-2.441,-2.380,-0.671,-146.371,38.265,-178.127
14414,-0.6362,-0.3203,-0.6211,-2.502,-4.028,-1.343,-146.431,38.331,-178.088
14424,-0.6318,-0.3389,-0.6045,-0.427,-3.967,-3.174,-146.442,38.386,-178.022
14434,-0.5884,-0.4229,-0.6108,1.526,-1.465,-7.935,-146.354,38.353,-177.929
14444,-0.5762,-0.5093,-0.6240,1.160,2.625,-9.521,-146.239,38.254,-177.847
14454,-0.6006,-0.5566,-0.6421,-3.235,5.249,-5.737,-146.184,38.150,-177.825
14464,-0.6299,-0.5352,-0.6509,-8.606,5.798,-0.488,-146.234,38.084,-177.858
14474,-0.6685,-0.4687,-0.6562,-6.714,4.272,3.601,-146.327,38.084,-177.929
14484,-0.6401,-0.4761,-0.6602,-0.488,3.662,0.977,-146.332,38.062,-177.962
14494,-0.6191,-0.5068,-0.6670,3.662,2.380,0.000,-146.272,38.024,-177.979
14504,-0.6016,-0.5654,-0.6792,3.418,1.282,1.587,-146.190,37.985,-178.006
14514,-0.5811,-0.5913,-0.6987,0.305,0.793,4.272,-146.157,37.947,-178.055
14524,-0.5923,-0.5337,-0.7012,-2.747,-0.427,8.240,-146.201,37.958,-178.143
14534,-0.6118,-0.4629,-0.6899,-2.747,-1.709,11.292,-146.288,38.018,-178.248
14544,-0.6265,-0.3677,-0.6602,0.916,-3.113,10.559,-146.382,38.117,-178.336
14554,-0.6182,-0.3301,-0.6147,7.935,-3.479,6.897,-146.387,38.216,-178.385
14564,-0.6055,-0.2817,-0.5806,13.123,-2.869,2.380,-146.338,38.304,-178.391
14574,-0.5918,-0.3247,-0.5552,15.381,-1.282,-1.465,-146.206,38.348,-178.369
14584,-0.5864,-0.3950,-0.5625,11.230,3.601,-2.991,-146.074,38.326,-178.363
14594,-0.5952,-0.4370,-0.6064,1.404,7.874,-2.380,-146.063,38.249,-178.391
14604,-0.6182,-0.4702,-0.6543,-7.507,11.292,-0.305,-146.168,38.145,-178.467
14614,-0.6250,-0.5005,-0.6973,-11.475,12.207,0.854,-146.321,38.029,-178.566
14624,-0.6392,-0.5171,-0.7246,-10.376,10.071,1.770,-146.459,37.936,-178.654
14634,-0.6475,-0.4844,-0.7368,-6.897,7.141,2.869,-146.580,37.875,-178.737
14644,-0.6499,-0.4639,-0.7197,-1.648,3.418,3.235,-146.635,37.859,-178.792
14654,-0.6553,-0.4087,-0.6909,3.296,-0.671,3.113,-146.646,37.892,-178.819
14664,-0.6445,-0.3784,-0.6514,6.897,-3.113,3.174,-146.618,37.963,-178.830
14674,-0.6279,-0.3730,-0.6284,6.348,-3.845,2.075,-146.580,38.035,-178.830
14684,-0.6045,-0.4102,-0.6157,3.357,-2.197,-0.244,-146.536,38.062,-178.808
14694,-0.5933,-0.4512,-0.6333,-1.648,1.282,-1.160,-146.525,38.040,-178.808
14704,-0.6050,-0.4854,-0.6621,-7.019,4.639,0.183,-146.591,37.985,-178.841
14714,-0.6118,-0.4858,-0.6934,-10.864,5.432,2.502,-146.722,37.930,-178.907
14724,-0.6196,-0.4785,-0.7119,-10.681,4.578,4.211,-146.865,37.897,-178.984
14734,-0.6279,-0.4248,-0.7124,-7.019,2.563,3.845,-146.997,37.886,-179.039
14744,-0.6230,-0.3589,-0.6860,-1.038,-0.671,2.136,-147.068,37.914,-179.061
14754,-0.6182,-0.3569,-0.6567,4.883,-3.723,-0.732,-147.047,37.958,-179.022
14764,-0.6050,-0.3940,-0.6372,7.568,-4.517,-4.578,-146.937,37.980,-178.945
14774,-0.5923,-0.4478,-0.6519,5.493,-2.991,-5.859,-146.816,37.963,-178.863
14784,-0.5947,-0.4922,-0.6738,1.587,-0.916,-4.639,-146.733,37.919,-178.808
14794,-0.6113,-0.4971,-0.6880,-2.686,-0.549,-0.977,-146.728,37.897,-178.792
14804,-0.6382,-0.4565,-0.6836,-4.761,-1.770,2.991,-146.783,37.930,-178.813
14814,-0.6558,-0.3994,-0.6753,-3.113,-3.723,3.662,-146.849,37.996,-178.824
14824,-0.6641,-0.3516,-0.6592,1.892,-4.883,0.916,-146.865,38.079,-178.802
14834,-0.6382,-0.3315,-0.6235,6.287,-5.859,-3.235,-146.805,38.150,-178.726
14844,-0.6235,-0.2568,-0.5693,5.127,-7.996,-6.165,-146.772,38.254,-178.605
14854,-0.6094,-0.2720,-0.5205,-2.808,-10.681,-6.836,-146.766,38.381,-178.456
14864,-0.5923,-0.4302,-0.5464,-14.282,-8.850,-9.094,-146.761,38.425,-178.297
14874,-0.5601,-0.5728,-0.6294,-22.156,-0.366,-13.550,-146.799,38.304,-178.149
14884,-0.5537,-0.7041,-0.7285,-24.170,9.705,-11.780,-146.893,38.062,-178.094
14894,-0.5962,-0.7603,-0.8228,-19.775,14.587,-4.028,-147.030,37.820,-178.149
14904,-0.6558,-0.6489,-0.8667,-11.169,11.597,3.906,-147.173,37.678,-178.270
14914,-0.7056,-0.4277,-0.8613,2.502,3.174,9.460,-147.288,37.689,-178.396
14924,-0.7144,-0.2534,-0.7769,21.545,-7.263,9.338,-147.250,37.837,-178.445
14934,-0.6582,-0.2031,-0.6509,36.316,-18.005,3.235,-146.992,38.062,-178.358
14944,-0.5923,-0.2739,-0.5698,35.706,-24.841,-3.235,-146.585,38.304,-178.149
14954,-0.5527,-0.4419,-0.5293,20.874,-26.855,-8.606,-146.140,38.485,-177.869
14964,-0.5405,-0.5640,-0.5288,0.854,-19.958,-12.329,-145.838,38.546,-177.594
14974,-0.5503,-0.6260,-0.5610,-17.090,-7.690,-9.216,-145.772,38.502,-177.446
14984,-0.5605,-0.6514,-0.5830,-28.442,3.601,-1.831,-145.915,38.403,-177.451
14994,-0.5908,-0.6084,-0.6035,-30.640,9.155,6.470,-146.190,38.326,-177.583
15004,-0.6499,-0.4668,-0.6177,-21.301,8.484,13.428,-146.492,38.348,-177.786
15014,-0.6948,-0.3535,-0.6016,-1.953,8.972,16.113,-146.689,38.430,-178.022
15024,-0.6816,-0.3159,-0.5806,17.456,9.521,12.085,-146.684,38.491,-178.215
15034,-0.6406,-0.3486,-0.5723,28.687,7.324,5.249,-146.486,38.513,-178.325
15044,-0.6143,-0.4121,-0.5962,24.231,5.615,2.319,-146.272,38.496,-178.391
15054,-0.6045,-0.4565,-0.6538,10.254,4.883,2.014,-146.195,38.452,-178.445
15064,-0.5874,-0.5010,-0.7144,-4.700,5.798,2.258,-146.266,38.370,-178.511
15074,-0.5952,-0.5244,-0.7578,-15.930,5.066,4.272,-146.464,38.298,-178.588
15084,-0.6299,-0.4727,-0.7808,-21.240,3.052,7.935,-146.766,38.282,-178.698
15094,-0.6631,-0.3589,-0.7729,-16.907,0.916,9.827,-147.085,38.320,-178.808
15104,-0.6592,-0.3062,-0.7383,-2.991,-3.296,7.568,-147.255,38.403,-178.863
15114,-0.6421,-0.2915,-0.6943,14.832,-3.967,1.099,-147.195,38.463,-178.852
15124,-0.6084,-0.3374,-0.6504,27.039,-3.845,-5.859,-146.926,38.474,-178.759
15134,-0.6074,-0.4121,-0.6133,29.297,-2.869,-8.484,-146.563,38.463,-178.649
15144,-0.6147,-0.4536,-0.6094,19.348,-1.892,-7.019,-146.283,38.447,-178.561
15154,-0.6333,-0.4258,-0.6284,3.357,-1.526,-3.052,-146.217,38.452,-178.517
15164,-0.6353,-0.4048,-0.6333,-8.484,-1.587,-0.366,-146.305,38.485,-178.500
15174,-0.6294,-0.3892,-0.6465,-14.160,-3.052,-0.793,-146.453,38.518,-178.473
15184,-0.6216,-0.4263,-0.6509,-12.268,-3.052,-3.906,-146.541,38.524,-178.412
15194,-0.6001,-0.5117,-0.6631,-5.554,-2.197,-7.202,-146.497,38.474,-178.319
15204,-0.5937,-0.5864,-0.6772,0.977,0.366,-7.263,-146.365,38.381,-178.242
15214,-0.6108,-0.5923,-0.6880,3.784,0.610,-3.479,-146.239,38.309,-178.209
15224,-0.6289,-0.5688,-0.6812,5.310,-0.793,1.282,-146.129,38.293,-178.220
15234,-0.6431,-0.4648,-0.6660,6.470,-3.296,4.333,-146.069,38.348,-178.242
15244,-0.6592,-0.3452,-0.6318,9.521,-6.287,5.371,-146.036,38.469,-178.253
15254,-0.6548,-0.2886,-0.6016,13.977,-7.874,3.113,-145.964,38.611,-178.231
15264,-0.6226,-0.3047,-0.5903,15.198,-8.301,-2.014,-145.833,38.716,-178.149
15274,-0.5991,-0.4028,-0.5825,12.268,-6.714,-5.798,-145.635,38.754,-178.039
15284,-0.6074,-0.4878,-0.6094,2.319,-4.395,-5.798,-145.514,38.749,-177.946
15294,-0.6211,-0.5586,-0.6460,-9.216,-1.099,-2.991,-145.514,38.710,-177.907
15304,-0.6323,-0.5693,-0.6772,-16.113,2.014,1.038,-145.635,38.672,-177.929
15314,-0.6509,-0.5205,-0.7051,-16.235,2.075,3.967,-145.811,38.655,-177.990
15324,-0.6553,-0.4800,-0.7114,-7.141,0.244,4.761,-145.915,38.666,-178.039
15334,-0.6416,-0.4409,-0.6963,6.470,-3.357,3.174,-145.876,38.705,-178.050
15344,-0.6309,-0.4331,-0.6528,18.677,-6.348,0.488,-145.673,38.760,-178.011
15354,-0.6260,-0.4360,-0.6064,21.973,-9.216,-0.305,-145.393,38.848,-177.940
15364,-0.6167,-0.4136,-0.5820,15.320,-10.925,0.854,-145.190,38.958,-177.869
15374,-0.6167,-0.3960,-0.5806,5.859,-9.644,1.770,-145.107,39.073,-177.819
15384,-0.6182,-0.3159,-0.5879,-2.808,-6.409,1.892,-145.184,39.172,-177.792
15394,-0.6157,-0.3179,-0.6025,-7.996,-3.052,1.343,-145.327,39.232,-177.781
15404,-0.6226,-0.3779,-0.6445,-9.766,0.793,-1.587,-145.459,39.221,-177.770
15414,-0.6152,-0.4497,-0.6924,-7.690,3.967,-5.737,-145.530,39.133,-177.737
15424,-0.6118,-0.5527,-0.7075,-2.502,6.897,-7.080,-145.508,38.990,-177.715
15434,-0.6138,-0.6172,-0.7026,-0.244,5.493,-5.432,-145.432,38.859,-177.698
15444,-0.6455,-0.6255,-0.6665,1.892,0.610,-1.831,-145.316,38.804,-177.682
15454,-0.6763,-0.5410,-0.6260,5.737,-5.249,2.136,-145.190,38.864,-177.665
15464,-0.6719,-0.4219,-0.5693,11.292,-10.437,4.517,-145.042,39.023,-177.638
15474,-0.6528,-0.3774,-0.5151,16.968,-12.512,3.967,-144.827,39.210,-177.589
15484,-0.6133,-0.3960,-0.4854,17.700,-10.254,1.465,-144.575,39.353,-177.528
15494,-0.5796,-0.4282,-0.5015,10.376,-4.883,-0.183,-144.399,39.413,-177.490
15504,-0.5620,-0.4780,-0.5425,-1.282,2.319,0.610,-144.366,39.380,-177.512
15514,-0.5654,-0.5176,-0.6064,-13.367,8.606,2.625,-144.509,39.287,-177.605
15524,-0.6035,-0.5391,-0.6602,-20.996,13.245,5.981,-144.783,39.177,-177.764
15534,-0.6562,-0.4956,-0.7100,-23.254,14.709,9.338,-145.146,39.089,-177.973
15544,-0.6943,-0.4180,-0.7397,-17.212,12.390,10.437,-145.492,39.051,-178.176
15554,-0.7046,-0.3628,-0.7373,-3.540,7.751,8.545,-145.706,39.051,-178.325
15564,-0.6982,-0.3130,-0.7236,9.583,2.625,4.456,-145.761,39.078,-178.391
15574,-0.6650,-0.3213,-0.6885,18.127,-1.587,-1.221,-145.657,39.106,-178.363
15584,-0.6260,-0.4136,-0.6519,18.677,-3.662,-5.127,-145.443,39.106,-178.281
15594,-0.6021,-0.4937,-0.6533,9.033,-4.456,-5.249,-145.272,39.084,-178.193
15604,-0.5928,-0.5454,-0.6597,-2.441,-3.540,-3.113,-145.212,39.056,-178.138
15614,-0.6025,-0.5322,-0.6572,-9.827,-2.380,0.183,-145.256,39.040,-178.121
15624,-0.6245,-0.5171,-0.6313,-10.559,-2.686,3.235,-145.322,39.062,-178.132
15634,-0.6460,-0.4614,-0.6079,-5.127,-2.686,4.211,-145.366,39.122,-178.160
15644,-0.6440,-0.3901,-0.5845,4.456,-2.075,2.991,-145.338,39.188,-178.176
15654,-0.6343,-0.3521,-0.5684,14.465,-1.160,0.854,-145.223,39.243,-178.176
15664,-0.6157,-0.3706,-0.5596,20.203,0.427,-2.441,-145.025,39.260,-178.154
15674,-0.6113,-0.4316,-0.5732,16.968,2.380,-3.906,-144.822,39.232,-178.132
15684,-0.6240,-0.4980,-0.6094,5.676,4.578,-2.441,-144.728,39.172,-178.138
15694,-0.6255,-0.5469,-0.6582,-6.958,6.104,-0.366,-144.778,39.089,-178.182
15704,-0.6431,-0.5410,-0.6953,-15.747,5.798,2.747,-144.954,39.029,-178.253
15714,-0.6689,-0.4678,-0.7158,-18.799,2.625,5.920,-145.212,39.034,-178.336
15724,-0.6689,-0.4072,-0.7148,-12.573,-1.221,6.348,-145.421,39.078,-178.391
15734,-0.6489,-0.3657,-0.6924,-0.854,-4.211,3.174,-145.497,39.139,-178.396
15744,-0.6284,-0.3579,-0.6611,9.949,-6.409,-0.671,-145.426,39.194,-178.341
15754,-0.6172,-0.3604,-0.6357,14.526,-7.812,-2.869,-145.278,39.249,-178.253
15764,-0.6064,-0.4126,-0.5996,11.047,-7.690,-3.540,-145.113,39.298,-178.160
15774,-0.6035,-0.4648,-0.5962,1.648,-5.798,-2.991,-145.020,39.320,-178.083
15784,-0.6143,-0.5244,-0.6113,-7.446,-2.197,-2.075,-145.014,39.309,-178.044
15794,-0.6333,-0.5566,-0.6382,-13.428,1.160,-0.366,-145.085,39.271,-178.050
15804,-0.6606,-0.5122,-0.6509,-14.343,1.831,1.953,-145.217,39.260,-178.083
15814,-0.6782,-0.4395,-0.6475,-8.301,-0.122,3.235,-145.327,39.298,-178.121
15824,-0.6753,-0.3945,-0.6289,3.357,-2.197,1.709,-145.322,39.353,-178.121
15834,-0.6567,-0.3667,-0.6079,15.503,-4.150,-2.563,-145.168,39.408,-178.061
15844,-0.6216,-0.4419,-0.5903,22.217,-3.540,-5.493,-144.871,39.413,-177.979
