elapsed_ms,acc_x_g,acc_y_g,acc_z_g,gyro_x_dps,gyro_y_dps,gyro_z_dps,angle_x_deg,angle_y_deg,angle_z_deg
0,-0.7739,-0.6157,-0.1436,37.354,-25.391,-26.123,-115.203,47.340,-92.307
10,-0.7656,-0.6240,-0.1533,28.503,-14.404,-25.085,-114.659,47.170,-91.956
20,-0.7505,-0.6343,-0.1719,18.616,-5.432,-21.790,-114.324,46.994,-91.752
30,-0.7144,-0.6826,-0.1929,9.583,0.854,-18.921,-114.153,46.818,-91.648
40,-0.6919,-0.7397,-0.2026,-1.221,3.479,-18.066,-114.120,46.642,-91.588
50,-0.6851,-0.7939,-0.2134,-15.442,1.648,-17.761,-114.214,46.472,-91.505
60,-0.7065,-0.8013,-0.2222,-29.846,-1.770,-17.395,-114.417,46.324,-91.373
70,-0.7144,-0.7231,-0.2549,-42.358,-5.493,-14.893,-114.725,46.208,-91.214
80,-0.7227,-0.6030,-0.2949,-43.945,-7.446,-9.827,-115.054,46.148,-91.055
90,-0.7622,-0.5337,-0.3218,-30.518,-5.676,-5.554,-115.280,46.126,-90.950
100,-0.7236,-0.5845,-0.3252,-6.897,-2.991,-4.395,-115.302,46.099,-90.884
110,-0.7021,-0.7803,-0.2925,13.794,-1.892,-7.812,-115.109,46.033,-90.807
120,-0.6567,-0.9497,-0.2632,15.747,-4.578,-12.329,-114.857,45.945,-90.676
130,-0.6504,-1.0122,-0.2446,-0.671,-10.620,-13.367,-114.703,45.868,-90.456
140,-0.6421,-0.9116,-0.2236,-21.423,-16.052,-8.545,-114.730,45.857,-90.192
150,-0.6621,-0.6089,-0.2480,-33.936,-20.264,3.235,-114.895,45.967,-89.951
160,-0.7583,-0.3130,-0.2671,-24.658,-19.470,21.423,-115.054,46.247,-89.824
170,-0.7983,-0.0503,-0.2983,8.728,-12.268,35.950,-115.565,46.851,-89.885
180,-0.8506,-0.0977,-0.3223,55.115,2.319,40.344,-115.697,47.417,-90.170
190,-0.8359,-0.4502,-0.2437,94.971,18.860,28.992,-115.104,47.703,-90.604
200,-0.7817,-0.7642,-0.1792,97.717,25.635,4.456,-114.291,47.609,-90.978
210,-0.7173,-0.9580,-0.1401,66.162,24.902,-23.010,-113.621,47.192,-91.176
220,-0.6597,-0.9399,-0.1494,18.372,18.677,-43.579,-113.286,46.593,-91.170
230,-0.6597,-0.7656,-0.2085,-22.217,8.667,-47.913,-113.313,46.060,-91.011
240,-0.6431,-0.6440,-0.2363,-39.612,2.808,-36.377,-113.549,45.687,-90.840
250,-0.6709,-0.5449,-0.2773,-43.762,0.793,-13.977,-113.972,45.577,-90.769
260,-0.7231,-0.4062,-0.3408,-36.926,1.587,7.385,-114.538,45.720,-90.835
270,-0.7681,-0.4307,-0.3770,-17.761,4.272,17.639,-114.999,45.934,-90.994
280,-0.7617,-0.6089,-0.3369,2.563,8.118,12.695,-115.142,46.033,-91.181
290,-0.7349,-0.7339,-0.3047,8.728,7.935,-2.075,-115.093,45.950,-91.269
300,-0.7114,-0.7524,-0.2988,2.686,4.395,-16.052,-115.005,45.742,-91.230
311,-0.7061,-0.6753,-0.3052,-3.784,0.061,-22.644,-114.939,45.516,-91.093
320,-0.7012,-0.6230,-0.2891,-0.977,-2.319,-21.362,-114.835,45.335,-90.934
330,-0.7124,-0.5718,-0.2822,7.141,-4.028,-13.855,-114.681,45.253,-90.797
340,-0.7227,-0.5498,-0.2793,19.653,-3.723,-5.554,-114.456,45.264,-90.720
350,-0.7114,-0.6143,-0.2603,29.846,-3.357,-1.465,-114.109,45.280,-90.665
360,-0.6768,-0.7944,-0.2144,31.128,-1.709,-3.235,-113.681,45.198,-90.626
370,-0.6406,-0.9629,-0.1738,13.367,-2.563,-8.606,-113.357,45.011,-90.544
380,-0.6333,-0.9956,-0.1533,-20.630,-7.874,-12.634,-113.291,44.797,-90.368
390,-0.6626,-0.7637,-0.1899,-54.688,-13.916,-10.742,-113.571,44.709,-90.132
400,-0.7129,-0.4238,-0.2471,-67.505,-14.587,0.061,-114.175,44.874,-89.940
410,-0.7749,-0.1802,-0.2900,-47.485,-7.263,14.160,-114.977,45.247,-89.929
420,-0.8203,-0.1602,-0.3457,-8.057,4.089,23.804,-115.598,45.643,-90.126
430,-0.8130,-0.5557,-0.3076,36.743,19.043,16.724,-115.516,45.775,-90.472
440,-0.7334,-0.9248,-0.2163,51.514,24.597,-7.263,-115.076,45.522,-90.747
450,-0.6709,-1.0068,-0.1919,25.757,18.188,-30.640,-114.714,45.049,-90.797
460,-0.6592,-0.8696,-0.2378,-9.949,11.780,-39.917,-114.659,44.550,-90.714
470,-0.6416,-0.7178,-0.2886,-26.917,8.362,-34.912,-114.829,44.154,-90.615
480,-0.6416,-0.6177,-0.2822,-22.400,7.019,-18.982,-115.032,43.945,-90.593
490,-0.6738,-0.4673,-0.3071,-12.817,5.188,2.991,-115.296,44.017,-90.676
500,-0.7363,-0.3335,-0.3467,4.822,6.104,20.386,-115.593,44.302,-90.873
510,-0.7583,-0.4331,-0.3481,30.640,12.695,24.353,-115.637,44.561,-91.181
520,-0.7324,-0.7021,-0.2812,47.424,19.592,12.817,-115.356,44.583,-91.505
530,-0.6924,-0.8452,-0.2329,38.269,18.677,-7.202,-115.010,44.379,-91.697
540,-0.6655,-0.8604,-0.2344,10.681,13.245,-22.705,-114.829,44.044,-91.736
550,-0.6523,-0.8188,-0.2451,-15.869,8.362,-29.480,-114.862,43.676,-91.664
560,-0.6528,-0.7144,-0.2642,-32.959,2.625,-26.672,-115.060,43.396,-91.544
570,-0.6592,-0.6094,-0.2876,-38.025,0.671,-15.686,-115.378,43.259,-91.461
580,-0.6807,-0.5239,-0.3394,-32.532,0.061,-2.808,-115.768,43.275,-91.445
590,-0.7036,-0.5898,-0.3442,-17.761,1.831,4.333,-116.021,43.336,-91.494
600,-0.6885,-0.6699,-0.3247,-5.615,2.869,1.831,-116.104,43.330,-91.538
610,-0.6660,-0.7642,-0.3057,-1.709,2.625,-5.920,-116.076,43.226,-91.538
620,-0.6436,-0.8618,-0.2939,-3.845,3.296,-13.794,-116.016,43.006,-91.494
630,-0.6328,-0.8384,-0.2949,-10.376,1.770,-17.822,-115.994,42.764,-91.412
640,-0.6348,-0.7261,-0.3115,-12.756,-0.549,-14.221,-116.032,42.605,-91.318
650,-0.6616,-0.5962,-0.3188,-4.883,-0.793,-4.272,-116.076,42.583,-91.285
660,-0.7144,-0.4575,-0.3345,13.245,1.099,7.385,-116.082,42.737,-91.340
670,-0.7446,-0.4053,-0.3398,39.368,7.751,15.442,-115.961,42.957,-91.527
680,-0.7231,-0.5703,-0.2944,62.805,16.907,16.052,-115.554,43.083,-91.829
690,-0.6782,-0.8242,-0.2344,64.514,20.752,8.667,-115.027,43.022,-92.137
700,-0.6519,-0.9272,-0.1982,36.926,15.686,-1.770,-114.659,42.858,-92.324
710,-0.6333,-0.8931,-0.2134,0.122,8.423,-11.292,-114.571,42.638,-92.362
720,-0.6226,-0.7935,-0.2427,-27.649,2.747,-15.198,-114.736,42.435,-92.313
730,-0.6157,-0.7065,-0.2563,-42.053,-1.160,-11.597,-115.049,42.303,-92.230
740,-0.6401,-0.5933,-0.2793,-43.823,-2.441,-2.869,-115.455,42.308,-92.186
750,-0.6948,-0.4849,-0.3232,-34.729,-2.075,7.019,-115.889,42.457,-92.203
760,-0.7310,-0.5073,-0.3501,-14.587,2.014,11.230,-116.180,42.621,-92.291
770,-0.7075,-0.7178,-0.3301,6.226,9.216,6.287,-116.208,42.632,-92.439
780,-0.6509,-0.9199,-0.2964,11.902,13.184,-4.761,-116.093,42.446,-92.576
790,-0.6045,-0.9746,-0.2905,-1.404,11.719,-12.756,-116.060,42.160,-92.642
800,-0.5957,-0.8525,-0.3081,-17.212,8.118,-12.024,-116.186,41.929,-92.670
811,-0.6162,-0.6479,-0.3413,-20.874,4.822,-1.160,-116.439,41.880,-92.719
820,-0.6558,-0.5474,-0.3486,-7.446,5.005,14.893,-116.675,42.028,-92.867
830,-0.7021,-0.4746,-0.3535,14.587,6.958,26.917,-116.790,42.314,-93.115
840,-0.7466,-0.4258,-0.3652,37.170,9.888,31.372,-116.768,42.654,-93.422
850,-0.7451,-0.5259,-0.3223,59.082,13.916,26.794,-116.455,42.907,-93.757
860,-0.7231,-0.6606,-0.2632,66.345,15.930,16.418,-115.950,43.006,-94.054
870,-0.6885,-0.7661,-0.2305,52.185,14.465,5.615,-115.483,42.973,-94.263
880,-0.6592,-0.8179,-0.2163,26.672,10.803,-3.845,-115.186,42.841,-94.373
890,-0.6528,-0.7627,-0.2358,-1.038,5.005,-9.644,-115.120,42.698,-94.378
900,-0.6587,-0.6655,-0.2612,-21.912,0.732,-8.606,-115.274,42.616,-94.340
910,-0.6821,-0.5186,-0.2983,-32.776,-1.099,-0.916,-115.631,42.676,-94.323
920,-0.7178,-0.4224,-0.3335,-29.907,0.427,8.057,-116.093,42.847,-94.373
930,-0.7432,-0.4155,-0.3696,-15.320,3.357,12.085,-116.472,43.044,-94.488
940,-0.7280,-0.6494,-0.3481,4.089,6.226,5.371,-116.526,43.083,-94.598
950,-0.6787,-0.8042,-0.2915,11.475,3.662,-10.437,-116.334,42.929,-94.576
960,-0.6406,-0.8589,-0.3022,1.648,-2.930,-22.583,-116.131,42.660,-94.406
970,-0.6152,-0.8750,-0.3037,-9.521,-7.141,-26.978,-115.988,42.363,-94.158
980,-0.6118,-0.7480,-0.3125,-16.357,-11.719,-23.499,-115.928,42.149,-93.873
990,-0.6377,-0.6069,-0.3218,-13.550,-13.550,-9.827,-115.933,42.127,-93.653
1000,-0.6792,-0.5020,-0.3408,0.610,-9.583,6.653,-115.961,42.292,-93.576
1010,-0.7168,-0.4458,-0.3486,18.799,-2.380,17.944,-115.944,42.556,-93.653
1020,-0.7168,-0.5781,-0.3232,37.415,6.348,19.348,-115.735,42.748,-93.845
1030,-0.6812,-0.8198,-0.2573,42.480,11.658,9.583,-115.367,42.737,-94.043
1040,-0.6533,-0.8896,-0.2241,23.193,8.850,-4.761,-115.082,42.589,-94.125
1050,-0.6377,-0.8823,-0.2358,-4.395,4.089,-15.076,-114.999,42.358,-94.087
1060,-0.6147,-0.8032,-0.2554,-26.367,-0.916,-17.822,-115.109,42.138,-93.977
1070,-0.6309,-0.6606,-0.2778,-38.574,-7.019,-10.620,-115.373,42.067,-93.829
1080,-0.6772,-0.4907,-0.3076,-35.767,-9.277,2.625,-115.730,42.204,-93.730
1090,-0.7314,-0.3638,-0.3374,-19.165,-7.568,14.709,-116.087,42.501,-93.724
1100,-0.7759,-0.3687,-0.3496,6.348,-1.648,18.616,-116.257,42.819,-93.818
1110,-0.7593,-0.5366,-0.3169,31.677,7.324,10.925,-116.093,42.962,-93.972
1120,-0.6895,-0.8018,-0.2554,42.053,13.245,-5.859,-115.675,42.814,-94.098
1130,-0.6323,-0.9072,-0.2227,26.978,11.414,-22.705,-115.296,42.479,-94.103
1140,-0.6040,-0.8267,-0.2451,1.465,5.310,-31.433,-115.115,42.100,-93.988
1150,-0.6060,-0.6455,-0.2725,-13.367,-1.282,-28.076,-115.104,41.841,-93.812
1160,-0.6528,-0.4883,-0.2866,-12.024,-5.371,-13.672,-115.186,41.814,-93.669
1170,-0.7085,-0.4248,-0.3042,2.014,-4.150,2.258,-115.241,41.968,-93.631
1180,-0.7524,-0.4644,-0.3159,20.203,-0.244,9.277,-115.164,42.166,-93.680
1190,-0.7422,-0.6392,-0.2803,34.912,4.883,2.502,-114.857,42.215,-93.757
1200,-0.6777,-0.8325,-0.2227,35.034,6.775,-14.160,-114.412,42.017,-93.757
1210,-0.6270,-0.9653,-0.2104,14.526,4.028,-29.541,-114.071,41.638,-93.642
1220,-0.5947,-0.9551,-0.2339,-13.062,-1.282,-38.696,-113.945,41.188,-93.417
1230,-0.5859,-0.7451,-0.2935,-32.104,-7.629,-36.926,-114.049,40.836,-93.126
1240,-0.5991,-0.6040,-0.3394,-30.457,-8.118,-22.522,-114.263,40.666,-92.906
1250,-0.6401,-0.5625,-0.3667,-9.827,-3.418,-5.859,-114.401,40.655,-92.834
1260,-0.6787,-0.5366,-0.3691,17.151,3.906,3.601,-114.373,40.726,-92.900
1270,-0.6592,-0.6201,-0.3384,43.396,10.376,4.028,-114.082,40.743,-93.043
1280,-0.6299,-0.8140,-0.2661,55.603,12.695,-1.221,-113.566,40.638,-93.192
1290,-0.5864,-0.9561,-0.2080,42.786,7.629,-8.240,-113.060,40.435,-93.241
1300,-0.5591,-1.0059,-0.1802,13.428,-2.502,-13.062,-112.736,40.210,-93.142
1311,-0.5415,-0.9443,-0.2432,-19.409,-12.878,-13.245,-112.703,40.029,-92.922
1320,-0.6113,-0.7075,-0.2666,-44.006,-16.785,-7.874,-112.967,40.007,-92.681
1330,-0.6416,-0.6089,-0.3149,-49.805,-16.357,4.761,-113.390,40.144,-92.505
1340,-0.6719,-0.5937,-0.2871,-36.865,-10.620,10.559,-113.736,40.336,-92.433
1350,-0.7388,-0.4443,-0.3086,-21.362,-9.460,9.155,-114.016,40.594,-92.368
1360,-0.7510,-0.4341,-0.3203,5.005,-2.014,4.395,-114.088,40.776,-92.368
1370,-0.7021,-0.6509,-0.2700,33.936,7.996,-5.249,-113.780,40.737,-92.433
1380,-0.6353,-0.8774,-0.2095,41.687,12.878,-17.517,-113.307,40.474,-92.499
1390,-0.5752,-0.9810,-0.1919,22.156,10.559,-25.024,-112.961,40.100,-92.494
1400,-0.5459,-0.9805,-0.2041,-5.981,4.456,-26.306,-112.857,39.727,-92.417
1410,-0.5620,-0.7778,-0.2529,-30.762,-1.648,-19.165,-113.038,39.507,-92.296
1420,-0.5967,-0.6680,-0.2949,-39.917,-2.136,-3.296,-113.417,39.485,-92.258
1430,-0.6226,-0.6338,-0.3018,-33.508,0.916,10.437,-113.807,39.595,-92.318
1440,-0.6904,-0.4687,-0.3340,-23.132,1.404,17.761,-114.225,39.858,-92.428
1450,-0.7280,-0.3892,-0.3643,-3.418,7.019,19.165,-114.565,40.139,-92.615
1460,-0.7026,-0.5679,-0.3291,22.766,15.198,12.024,-114.554,40.254,-92.862
1470,-0.6602,-0.7837,-0.2686,32.166,18.311,-2.930,-114.307,40.133,-93.065
1480,-0.6113,-0.9185,-0.2510,15.747,13.062,-18.738,-114.093,39.836,-93.120
1490,-0.5649,-0.9780,-0.2612,-10.376,6.226,-31.677,-114.049,39.419,-93.027
1500,-0.5503,-0.9116,-0.2959,-36.194,-1.221,-36.682,-114.214,38.996,-92.818
1510,-0.5620,-0.8237,-0.3228,-50.903,-3.845,-29.846,-114.565,38.677,-92.615
1520,-0.5708,-0.7241,-0.3623,-53.223,-2.869,-15.015,-115.038,38.518,-92.499
1530,-0.6226,-0.6187,-0.3999,-42.664,-1.343,1.343,-115.538,38.557,-92.494
1540,-0.6553,-0.5400,-0.4116,-20.508,1.831,12.146,-115.911,38.710,-92.582
1550,-0.6553,-0.5889,-0.3950,6.958,5.920,14.832,-116.016,38.859,-92.730
1560,-0.6353,-0.7827,-0.3481,26.428,10.437,9.399,-115.840,38.870,-92.906
1570,-0.6030,-0.8896,-0.3101,25.574,8.667,-0.732,-115.582,38.765,-92.999
1580,-0.5762,-0.8770,-0.2974,10.620,4.028,-8.484,-115.406,38.606,-92.999
1590,-0.5801,-0.7261,-0.3140,-5.798,0.000,-8.362,-115.417,38.507,-92.955
1600,-0.6240,-0.5977,-0.3345,-12.756,-2.014,1.160,-115.571,38.562,-92.939
1610,-0.6421,-0.5937,-0.3398,-9.949,0.732,11.658,-115.757,38.710,-93.010
1620,-0.6665,-0.5957,-0.3389,-3.845,1.282,14.160,-115.889,38.886,-93.104
1630,-0.6821,-0.5439,-0.3521,1.526,0.305,9.338,-115.983,39.045,-93.159
1640,-0.6572,-0.6689,-0.3374,10.193,2.563,0.122,-115.906,39.056,-93.192
1650,-0.6172,-0.8091,-0.3018,12.024,4.089,-11.536,-115.719,38.903,-93.175
1660,-0.5840,-0.8872,-0.3052,-0.366,1.526,-19.714,-115.598,38.650,-93.082
1670,-0.5527,-0.8701,-0.3184,-15.259,-3.479,-22.461,-115.593,38.386,-92.917
1680,-0.5557,-0.7930,-0.3364,-25.024,-8.728,-18.982,-115.692,38.199,-92.714
1690,-0.5752,-0.7432,-0.3413,-25.146,-10.376,-9.460,-115.823,38.128,-92.543
1700,-0.6045,-0.6572,-0.3496,-18.005,-9.888,1.648,-115.961,38.194,-92.439
1710,-0.6416,-0.5522,-0.3589,-5.127,-9.705,10.254,-116.049,38.386,-92.384
1720,-0.6699,-0.5225,-0.3511,14.465,-6.775,13.977,-115.983,38.628,-92.384
1730,-0.6519,-0.6895,-0.3135,34.546,-1.831,10.193,-115.648,38.743,-92.417
1740,-0.6089,-0.8862,-0.2656,38.879,0.488,-0.244,-115.175,38.688,-92.422
1750,-0.5830,-0.9185,-0.2510,20.935,-2.991,-10.559,-114.813,38.535,-92.329
1760,-0.5762,-0.8384,-0.2729,-0.610,-6.470,-15.137,-114.659,38.370,-92.175
1770,-0.5854,-0.6997,-0.2954,-12.878,-7.446,-10.925,-114.675,38.293,-92.032
1780,-0.6255,-0.6074,-0.3081,-13.550,-5.005,0.488,-114.802,38.364,-91.978
1790,-0.6577,-0.5439,-0.3242,-5.188,-1.160,11.108,-114.939,38.546,-92.021
1800,-0.6919,-0.5088,-0.3442,7.446,1.770,15.625,-115.021,38.776,-92.126
1811,-0.6724,-0.6489,-0.3184,23.376,5.920,9.888,-114.879,38.881,-92.247
1820,-0.6255,-0.8823,-0.2715,30.151,7.507,-4.578,-114.538,38.765,-92.313
1830,-0.5781,-0.9771,-0.2734,18.188,5.249,-21.118,-114.241,38.458,-92.258
1840,-0.5469,-0.9043,-0.3042,0.671,1.587,-30.884,-114.088,38.090,-92.115
1850,-0.5552,-0.7378,-0.3418,-8.545,-1.099,-25.940,-114.088,37.820,-91.972
1860,-0.5811,-0.6694,-0.3672,-2.441,1.831,-10.559,-114.142,37.711,-91.934
1870,-0.6245,-0.5806,-0.3633,13.672,6.836,4.639,-114.148,37.771,-92.038
1880,-0.6558,-0.4517,-0.3735,30.701,8.911,17.029,-114.115,37.996,-92.230
1890,-0.6528,-0.6128,-0.3296,46.570,12.634,23.560,-113.857,38.210,-92.499
1900,-0.6357,-0.8496,-0.2529,45.776,9.216,17.151,-113.450,38.304,-92.692
1910,-0.6079,-0.9229,-0.2100,21.240,-2.319,0.916,-113.121,38.265,-92.670
1920,-0.5732,-0.9233,-0.2266,-10.071,-13.123,-15.137,-112.983,38.106,-92.444
1930,-0.5747,-0.7979,-0.2505,-32.654,-21.606,-24.841,-113.022,37.925,-92.065
1940,-0.5977,-0.6597,-0.2852,-39.612,-23.437,-23.499,-113.181,37.820,-91.675
1950,-0.6143,-0.6470,-0.3140,-29.236,-14.954,-14.893,-113.346,37.771,-91.428
1960,-0.6475,-0.5581,-0.3413,-10.925,-5.981,-7.141,-113.472,37.798,-91.324
1970,-0.6587,-0.5156,-0.3433,11.902,2.747,-0.610,-113.472,37.870,-91.351
1980,-0.6294,-0.6714,-0.2935,32.898,10.742,3.174,-113.236,37.886,-91.494
1990,-0.6045,-0.8062,-0.2383,35.522,10.559,0.427,-112.890,37.826,-91.615
2000,-0.5874,-0.8691,-0.2061,20.813,3.601,-5.310,-112.599,37.722,-91.631
2010,-0.5767,-0.8682,-0.2148,0.854,-3.296,-9.888,-112.451,37.595,-91.549
2020,-0.5796,-0.8569,-0.2358,-16.174,-7.446,-11.963,-112.456,37.469,-91.401
2030,-0.5894,-0.7734,-0.2539,-26.611,-8.118,-11.047,-112.588,37.381,-91.252
2040,-0.5986,-0.6885,-0.3071,-27.222,-5.798,-6.836,-112.808,37.354,-91.154
2050,-0.6108,-0.6616,-0.3301,-14.771,-1.221,-3.418,-112.972,37.348,-91.121
2060,-0.6001,-0.6821,-0.3174,2.014,2.258,-2.930,-112.983,37.326,-91.137
2070,-0.5889,-0.7480,-0.2900,14.648,3.601,-2.869,-112.835,37.271,-91.165
2080,-0.5747,-0.8003,-0.2676,12.695,3.235,-2.258,-112.681,37.211,-91.187
2090,-0.5649,-0.8384,-0.2524,5.615,3.052,-0.488,-112.588,37.150,-91.219
2100,-0.5933,-0.7329,-0.2656,-6.836,1.526,2.869,-112.648,37.172,-91.252
2110,-0.6353,-0.6240,-0.3057,-14.709,1.892,7.812,-112.863,37.288,-91.313
2120,-0.6460,-0.6094,-0.3169,-9.705,4.761,9.216,-113.066,37.414,-91.412
2130,-0.6509,-0.6040,-0.3228,-0.671,5.554,4.700,-113.176,37.496,-91.500
2140,-0.6309,-0.6851,-0.3130,7.629,5.005,-1.648,-113.143,37.485,-91.549
2150,-0.5908,-0.8184,-0.2793,10.864,3.052,-9.460,-112.983,37.359,-91.538
2160,-0.5605,-0.8638,-0.2808,2.197,-0.793,-15.564,-112.863,37.161,-91.456
2170,-0.5483,-0.8760,-0.2891,-9.644,-4.028,-17.273,-112.835,36.958,-91.324
2180,-0.5400,-0.8579,-0.2983,-18.738,-5.920,-14.160,-112.901,36.788,-91.187
2190,-0.5625,-0.7598,-0.3174,-23.804,-6.165,-6.897,-113.071,36.722,-91.082
2200,-0.5908,-0.6943,-0.3428,-19.531,-4.028,1.831,-113.275,36.760,-91.044
2210,-0.6094,-0.6431,-0.3467,-6.470,-0.977,7.263,-113.406,36.865,-91.071
2220,-0.6187,-0.6421,-0.3408,8.972,1.526,8.789,-113.395,36.974,-91.132
2230,-0.5986,-0.7476,-0.2944,23.682,3.357,5.371,-113.181,37.007,-91.198
2240,-0.5796,-0.7910,-0.2661,24.353,0.061,0.427,-112.896,36.985,-91.198
2250,-0.5791,-0.8135,-0.2549,13.916,-4.211,-1.953,-112.670,36.958,-91.137
2260,-0.5757,-0.8262,-0.2476,1.404,-6.775,-3.296,-112.538,36.920,-91.044
2270,-0.5845,-0.7715,-0.2632,-11.719,-8.301,-1.892,-112.555,36.925,-90.939
2280,-0.5991,-0.7114,-0.2788,-19.470,-7.324,0.610,-112.687,36.969,-90.857
2290,-0.6230,-0.6597,-0.2974,-17.517,-4.883,1.709,-112.852,37.040,-90.813
2300,-0.6323,-0.6235,-0.3037,-7.812,-1.831,0.610,-112.945,37.106,-90.791
2311,-0.6226,-0.6514,-0.3032,6.042,1.343,-2.075,-112.912,37.117,-90.797
2320,-0.5742,-0.8276,-0.2656,18.921,4.456,-6.653,-112.681,37.007,-90.818
2330,-0.5459,-0.9204,-0.2515,15.686,3.052,-10.254,-112.445,36.826,-90.802
2340,-0.5327,-0.9419,-0.2612,1.587,-0.488,-9.888,-112.330,36.656,-90.747
2350,-0.5391,-0.8428,-0.2710,-11.536,-2.747,-5.432,-112.363,36.563,-90.692
2360,-0.5830,-0.6899,-0.3027,-18.921,-3.723,5.249,-112.555,36.639,-90.676
2370,-0.6226,-0.6025,-0.3174,-13.489,-0.977,15.808,-112.780,36.843,-90.736
2380,-0.6553,-0.5576,-0.3242,-0.671,2.136,20.447,-112.934,37.106,-90.862
2390,-0.6733,-0.5459,-0.3184,13.489,4.150,18.188,-112.956,37.354,-91.000
2400,-0.6504,-0.6240,-0.2896,26.550,6.226,10.132,-112.786,37.485,-91.121
2410,-0.6099,-0.8032,-0.2505,28.076,5.737,-0.549,-112.489,37.441,-91.187
2420,-0.5801,-0.9116,-0.2319,13.000,1.587,-12.390,-112.253,37.266,-91.143
2430,-0.5576,-0.9058,-0.2539,-9.644,-3.235,-21.912,-112.198,37.013,-91.000
2440,-0.5342,-0.8740,-0.2759,-28.015,-4.822,-23.987,-112.330,36.738,-90.835
2450,-0.5386,-0.7896,-0.2925,-37.964,-5.432,-18.799,-112.593,36.546,-90.681
2460,-0.5615,-0.7187,-0.3267,-36.255,-3.662,-8.057,-112.923,36.475,-90.599
2470,-0.5977,-0.6641,-0.3467,-22.522,-0.183,1.770,-113.198,36.513,-90.604
2480,-0.6211,-0.6064,-0.3525,-2.136,2.747,6.775,-113.324,36.617,-90.670
2490,-0.6191,-0.6406,-0.3237,20.752,6.409,8.240,-113.220,36.705,-90.786
2500,-0.5957,-0.7505,-0.2842,35.400,8.728,6.348,-112.923,36.733,-90.917
2510,-0.5801,-0.8359,-0.2603,32.410,6.714,2.869,-112.599,36.700,-91.005
2520,-0.5635,-0.8682,-0.2510,17.212,2.991,-1.282,-112.385,36.628,-91.038
2530,-0.5581,-0.8350,-0.2681,-1.770,-0.549,-3.052,-112.341,36.563,-91.016
2540,-0.5703,-0.7808,-0.2896,-17.700,-1.648,-0.977,-112.484,36.535,-90.989
2550,-0.5894,-0.7246,-0.3154,-26.611,-1.343,2.380,-112.753,36.563,-90.989
2560,-0.6162,-0.6279,-0.3452,-25.635,0.000,4.028,-113.082,36.645,-91.005
2570,-0.6421,-0.5386,-0.3672,-14.465,1.831,4.822,-113.362,36.760,-91.049
2580,-0.6372,-0.6108,-0.3486,5.737,5.066,3.052,-113.412,36.821,-91.126
2590,-0.6118,-0.7407,-0.3032,20.935,5.798,-2.930,-113.225,36.777,-91.176
2600,-0.5811,-0.8311,-0.2827,20.264,2.502,-10.071,-112.967,36.645,-91.154
2610,-0.5552,-0.8721,-0.2754,10.620,-1.831,-15.137,-112.753,36.458,-91.060
2620,-0.5405,-0.8438,-0.2822,-1.648,-5.676,-15.808,-112.643,36.282,-90.917
2630,-0.5479,-0.8257,-0.2852,-11.230,-6.836,-10.681,-112.643,36.172,-90.791
2640,-0.5630,-0.7788,-0.2949,-16.418,-5.981,-4.150,-112.736,36.134,-90.703
2650,-0.5913,-0.7090,-0.3174,-15.747,-4.211,1.770,-112.879,36.178,-90.665
2660,-0.6069,-0.6685,-0.3218,-7.812,-1.099,5.371,-112.994,36.266,-90.676
2670,-0.6104,-0.6450,-0.3169,4.089,2.075,5.920,-113.016,36.348,-90.731
2680,-0.5972,-0.6943,-0.3003,14.954,4.578,4.700,-112.917,36.392,-90.802
2690,-0.5776,-0.8223,-0.2769,17.212,4.761,1.465,-112.736,36.365,-90.862
2700,-0.5591,-0.8906,-0.2612,7.507,1.221,-3.784,-112.599,36.271,-90.862
2710,-0.5620,-0.8154,-0.2803,-7.568,-3.113,-6.897,-112.593,36.189,-90.791
2720,-0.5728,-0.7222,-0.3042,-15.869,-4.700,-3.540,-112.714,36.172,-90.720
2730,-0.6030,-0.6060,-0.3247,-13.184,-3.418,3.357,-112.885,36.266,-90.698
2740,-0.6309,-0.5430,-0.3369,-1.404,-0.854,8.972,-113.011,36.436,-90.731
2750,-0.6353,-0.5923,-0.3359,15.747,2.075,8.667,-112.956,36.573,-90.797
2760,-0.6084,-0.7646,-0.3042,28.687,4.578,-0.061,-112.692,36.557,-90.851
2770,-0.5659,-0.8984,-0.2896,23.560,4.456,-11.475,-112.407,36.376,-90.846
2780,-0.5308,-0.9624,-0.3047,4.028,2.747,-19.714,-112.280,36.101,-90.786
2790,-0.5220,-0.8608,-0.3252,-16.479,0.488,-21.545,-112.374,35.837,-90.687
2800,-0.5562,-0.6787,-0.3638,-28.076,-3.174,-12.573,-112.654,35.733,-90.593
2811,-0.5903,-0.6279,-0.3755,-21.362,-2.502,0.610,-112.934,35.777,-90.566
2820,-0.6289,-0.5425,-0.3706,-6.042,-3.479,8.545,-113.110,35.947,-90.571
2830,-0.6553,-0.5249,-0.3589,11.536,-5.920,10.437,-113.099,36.167,-90.555
2840,-0.6221,-0.7070,-0.2876,28.931,-7.446,3.479,-112.764,36.260,-90.483
2850,-0.5830,-0.8491,-0.2168,28.503,-13.672,-10.498,-112.275,36.189,-90.280
2860,-0.5566,-0.9277,-0.1826,11.597,-22.705,-23.743,-111.830,35.997,-89.907
2870,-0.5283,-0.9282,-0.1562,-6.592,-28.931,-33.447,-111.489,35.733,-89.423
2880,-0.5376,-0.8506,-0.1548,-22.705,-31.982,-32.776,-111.308,35.508,-88.907
2890,-0.5371,-0.8579,-0.1519,-28.015,-25.208,-24.414,-111.242,35.332,-88.511
2900,-0.5586,-0.7661,-0.1826,-27.588,-14.404,-13.184,-111.308,35.266,-88.286
2910,-0.5918,-0.6758,-0.2256,-20.020,-0.793,-0.549,-111.473,35.305,-88.275
2920,-0.5825,-0.7007,-0.2300,-1.953,14.709,8.179,-111.577,35.359,-88.478
2930,-0.5532,-0.8159,-0.2158,14.038,26.550,10.376,-111.566,35.338,-88.830
2940,-0.5332,-0.9341,-0.2148,16.296,31.799,7.629,-111.550,35.228,-89.225
2950,-0.5288,-0.9268,-0.2300,5.432,31.006,3.906,-111.632,35.090,-89.594
2960,-0.5381,-0.8145,-0.2729,-6.470,28.809,4.150,-111.857,34.991,-89.940
2970,-0.5557,-0.7427,-0.3159,-11.536,28.198,10.620,-112.192,34.980,-90.308
2980,-0.5728,-0.6992,-0.3462,-10.559,29.053,17.273,-112.571,35.046,-90.720
2990,-0.5942,-0.6279,-0.3789,-7.446,28.259,20.386,-112.967,35.162,-91.132
3000,-0.6040,-0.6367,-0.3940,-0.854,26.245,19.592,-113.286,35.277,-91.522
3010,-0.5967,-0.7114,-0.3774,5.859,23.132,13.489,-113.461,35.321,-91.846
3020,-0.5918,-0.7485,-0.3765,4.639,17.822,4.578,-113.571,35.294,-92.071
3030,-0.5693,-0.7676,-0.3735,-1.282,12.207,-3.113,-113.681,35.200,-92.192
3040,-0.5601,-0.7358,-0.3848,-6.653,6.653,-7.385,-113.807,35.096,-92.230
3050,-0.5542,-0.7529,-0.3867,-8.362,2.563,-7.690,-113.917,34.997,-92.219
3060,-0.5518,-0.7607,-0.3828,-8.728,-1.221,-7.263,-114.005,34.915,-92.170
3070,-0.5654,-0.6929,-0.3848,-8.789,-5.615,-6.287,-114.088,34.887,-92.076
3080,-0.5840,-0.6543,-0.3887,-3.906,-7.446,-3.601,-114.137,34.909,-91.978
3090,-0.5737,-0.7383,-0.3560,5.737,-6.470,-3.357,-114.044,34.909,-91.884
3100,-0.5596,-0.8062,-0.3354,8.850,-7.263,-6.653,-113.879,34.854,-91.774
3110,-0.5400,-0.8574,-0.3242,4.150,-9.338,-9.827,-113.719,34.761,-91.620
3120,-0.5298,-0.8418,-0.3154,-2.502,-11.841,-11.414,-113.604,34.662,-91.434
3130,-0.5410,-0.7642,-0.3247,-7.751,-13.977,-8.301,-113.566,34.623,-91.236
3140,-0.5474,-0.7852,-0.3198,-5.554,-12.512,-3.052,-113.522,34.629,-91.082
3150,-0.5586,-0.7515,-0.3032,-0.732,-11.169,-0.854,-113.439,34.667,-90.956
3160,-0.5869,-0.6621,-0.3057,4.089,-10.376,1.099,-113.351,34.755,-90.840
3170,-0.5884,-0.6958,-0.2910,14.771,-6.836,2.258,-113.159,34.838,-90.780
3180,-0.5771,-0.7681,-0.2544,23.315,-4.089,-0.122,-112.857,34.860,-90.731
3190,-0.5718,-0.7622,-0.2490,19.958,-3.540,-2.014,-112.582,34.860,-90.681
3200,-0.5542,-0.8140,-0.2539,11.841,-2.869,-2.380,-112.390,34.832,-90.637
3210,-0.5425,-0.8398,-0.2529,2.075,-2.991,-4.395,-112.280,34.772,-90.582
3220,-0.5605,-0.7437,-0.2729,-9.216,-3.906,-4.822,-112.313,34.744,-90.516
3230,-0.5820,-0.6802,-0.3042,-13.977,-2.319,-1.221,-112.451,34.777,-90.489
3240,-0.5889,-0.7036,-0.3066,-9.216,1.587,0.305,-112.566,34.799,-90.505
3250,-0.5864,-0.7256,-0.2969,-3.906,3.174,-3.113,-112.610,34.783,-90.527
3260,-0.5645,-0.7563,-0.2935,-0.977,2.686,-7.263,-112.604,34.706,-90.522
3270,-0.5425,-0.8125,-0.2964,0.366,1.465,-9.460,-112.560,34.585,-90.494
3280,-0.5371,-0.8530,-0.2949,-1.282,0.549,-9.949,-112.516,34.453,-90.456
3291,-0.5278,-0.8291,-0.3032,-6.348,-0.244,-8.118,-112.533,34.343,-90.412
3300,-0.5352,-0.7866,-0.3203,-9.583,0.000,-3.662,-112.615,34.294,-90.396
3311,-0.5493,-0.7583,-0.3228,-7.812,1.160,0.305,-112.703,34.283,-90.412
3320,-0.5620,-0.6904,-0.3213,-3.601,1.648,2.563,-112.780,34.321,-90.445
3330,-0.5713,-0.6870,-0.3184,2.869,2.319,3.601,-112.797,34.371,-90.483
3340,-0.5703,-0.7324,-0.3076,9.155,2.136,1.526,-112.720,34.393,-90.516
3350,-0.5532,-0.8252,-0.2886,9.949,0.732,-3.174,-112.582,34.338,-90.511
3360,-0.5396,-0.8579,-0.2891,2.441,-1.709,-7.568,-112.489,34.244,-90.456
3370,-0.5308,-0.8569,-0.3120,-6.836,-3.418,-8.545,-112.489,34.135,-90.379
3380,-0.5181,-0.8716,-0.3281,-11.108,-2.319,-6.714,-112.549,34.036,-90.319
3390,-0.5166,-0.8496,-0.3320,-11.414,-0.305,-3.723,-112.637,33.953,-90.302
3400,-0.5439,-0.7134,-0.3506,-9.338,0.793,2.014,-112.775,33.975,-90.319
3410,-0.5708,-0.6440,-0.3560,0.488,3.174,10.071,-112.879,34.091,-90.401
3420,-0.5835,-0.6533,-0.3291,15.625,6.409,14.404,-112.841,34.244,-90.538
3430,-0.5962,-0.6455,-0.3018,25.024,6.531,13.245,-112.687,34.398,-90.676
3440,-0.5830,-0.7627,-0.2842,26.367,5.249,9.399,-112.462,34.475,-90.775
3451,-0.5513,-0.9146,-0.2568,18.005,2.747,0.244,-112.236,34.426,-90.807
3461,-0.5342,-0.8994,-0.2749,-2.502,-2.686,-9.521,-112.165,34.299,-90.736
3470,-0.5254,-0.8359,-0.3071,-20.264,-5.432,-12.756,-112.280,34.162,-90.615
3481,-0.5210,-0.8071,-0.3262,-26.978,-4.395,-9.338,-112.495,34.063,-90.522
3490,-0.5439,-0.7236,-0.3384,-25.391,-1.587,-2.563,-112.753,34.047,-90.494
3501,-0.5776,-0.6201,-0.3716,-18.188,0.671,6.531,-113.038,34.151,-90.533
3511,-0.5962,-0.5757,-0.3569,-0.977,3.601,11.658,-113.187,34.316,-90.626
3521,-0.6143,-0.5815,-0.3379,17.090,5.188,11.230,-113.148,34.475,-90.742
3530,-0.5996,-0.7197,-0.2974,29.602,7.019,5.676,-112.906,34.536,-90.846
3541,-0.5635,-0.8315,-0.2681,26.611,5.188,-4.333,-112.615,34.459,-90.884
3551,-0.5322,-0.9243,-0.2725,9.644,1.099,-13.306,-112.429,34.277,-90.829
3561,-0.4937,-1.0010,-0.2822,-10.193,-3.174,-19.531,-112.396,34.019,-90.709
3571,-0.4795,-0.9604,-0.2993,-30.151,-7.812,-20.569,-112.544,33.777,-90.522
3581,-0.5073,-0.7983,-0.3364,-41.565,-10.437,-13.489,-112.857,33.657,-90.346
3591,-0.5464,-0.6514,-0.3833,-34.546,-8.240,0.122,-113.225,33.712,-90.258
3601,-0.5801,-0.6108,-0.3809,-10.986,-3.418,12.512,-113.434,33.893,-90.275
3611,-0.6025,-0.5913,-0.3613,16.541,0.488,17.273,-113.401,34.118,-90.368
3621,-0.5889,-0.6826,-0.3198,39.673,4.150,15.808,-113.093,34.283,-90.489
3631,-0.5576,-0.8433,-0.2666,47.668,5.310,9.216,-112.621,34.327,-90.588
3640,-0.5342,-0.9170,-0.2378,34.851,2.380,0.427,-112.209,34.272,-90.621
3651,-0.5186,-0.9067,-0.2480,12.329,-1.343,-5.188,-112.000,34.178,-90.582
3661,-0.5200,-0.8232,-0.2686,-8.667,-4.700,-4.761,-112.006,34.118,-90.505
3671,-0.5537,-0.7222,-0.2964,-21.423,-5.310,1.709,-112.192,34.167,-90.456
3681,-0.5820,-0.6582,-0.3301,-21.973,-2.869,8.057,-112.456,34.294,-90.461
3691,-0.6045,-0.6045,-0.3433,-13.428,-0.977,9.705,-112.676,34.453,-90.494
3701,-0.6094,-0.6118,-0.3394,-0.061,0.244,6.409,-112.758,34.574,-90.527
3711,-0.5845,-0.7114,-0.3120,13.062,1.526,0.000,-112.648,34.590,-90.544
3721,-0.5601,-0.8242,-0.2856,16.357,0.671,-7.690,-112.434,34.503,-90.516
3731,-0.5347,-0.8877,-0.2778,8.240,-1.282,-14.038,-112.258,34.332,-90.434
3741,-0.5103,-0.8877,-0.2803,-2.747,-3.601,-16.479,-112.176,34.140,-90.319
3751,-0.5190,-0.8208,-0.2910,-11.902,-5.798,-12.756,-112.198,34.008,-90.198
3761,-0.5371,-0.7729,-0.3052,-14.282,-4.395,-5.188,-112.291,33.970,-90.121
3771,-0.5537,-0.7427,-0.3101,-8.911,-2.197,1.587,-112.374,33.997,-90.104
3781,-0.5698,-0.7007,-0.3076,0.244,-1.160,5.127,-112.390,34.074,-90.115
3791,-0.5781,-0.6963,-0.3013,10.376,0.610,6.165,-112.319,34.162,-90.154
3801,-0.5664,-0.7397,-0.2759,18.982,2.380,4.639,-112.137,34.211,-90.198
3811,-0.5586,-0.7983,-0.2632,18.860,2.869,2.136,-111.934,34.211,-90.242
3821,-0.5430,-0.8623,-0.2588,10.010,2.808,-0.793,-111.797,34.162,-90.269
3831,-0.5244,-0.8882,-0.2642,-2.686,1.709,-4.089,-111.775,34.074,-90.269
3841,-0.5327,-0.8125,-0.2891,-15.625,-0.061,-3.845,-111.896,34.014,-90.253
3851,-0.5610,-0.7168,-0.3271,-21.362,0.549,1.160,-112.143,34.036,-90.264
3861,-0.5791,-0.6694,-0.3442,-15.015,3.113,5.615,-112.374,34.113,-90.324
3871,-0.6025,-0.6094,-0.3437,-2.747,4.822,6.470,-112.516,34.222,-90.406
3881,-0.6118,-0.6040,-0.3462,12.268,6.348,4.883,-112.522,34.310,-90.500
3891,-0.5757,-0.7339,-0.3105,26.733,7.324,-0.305,-112.308,34.294,-90.582
3901,-0.5327,-0.8833,-0.2705,26.611,5.005,-7.751,-112.000,34.162,-90.604
3911,-0.5137,-0.9019,-0.2627,9.949,-1.221,-13.062,-111.802,33.992,-90.527
3921,-0.5088,-0.8843,-0.2852,-8.667,-6.531,-13.489,-111.775,33.838,-90.396
3931,-0.5273,-0.7998,-0.2900,-19.470,-7.874,-10.376,-111.879,33.755,-90.264
3941,-0.5996,-0.5811,-0.3306,-19.348,-5.798,-3.967,-112.099,33.821,-90.176
3951,-0.6460,-0.4653,-0.3789,1.709,2.747,2.808,-112.280,33.970,-90.220
3961,-0.6099,-0.6514,-0.3423,41.138,14.099,-0.977,-112.011,33.964,-90.374
3971,-0.5522,-0.9131,-0.2642,70.618,18.494,-14.771,-111.330,33.723,-90.516
3980,-0.4731,-1.0620,-0.2402,73.669,15.320,-29.297,-110.539,33.294,-90.560
3990,-0.4023,-1.1401,-0.2129,57.007,8.484,-33.142,-109.852,32.816,-90.516
4000,-0.3755,-1.1074,-0.1885,28.381,-0.793,-23.437,-109.413,32.459,-90.412
4011,-0.4419,-0.8179,-0.2129,-2.075,-9.338,-1.160,-109.325,32.426,-90.302
4021,-0.5259,-0.5767,-0.2715,-23.743,-9.766,28.320,-109.622,32.794,-90.302
4031,-0.6094,-0.5200,-0.3062,-28.992,-2.258,48.340,-110.105,33.376,-90.472
4041,-0.6665,-0.5474,-0.3081,-25.879,5.005,46.753,-110.588,33.931,-90.720
4051,-0.6753,-0.5815,-0.2939,-21.362,7.202,25.940,-110.973,34.266,-90.912
4061,-0.6411,-0.6660,-0.2812,-17.334,6.958,-3.540,-111.198,34.283,-90.972
4071,-0.5854,-0.8032,-0.2935,-15.442,7.080,-29.663,-111.308,33.986,-90.923
4081,-0.5171,-0.9170,-0.3022,-18.677,5.920,-46.997,-111.385,33.470,-90.786
4091,-0.4771,-0.9082,-0.3184,-26.367,0.916,-51.025,-111.511,32.926,-90.571
4101,-0.4668,-0.8467,-0.3481,-29.358,-1.648,-40.833,-111.703,32.498,-90.374
4111,-0.4541,-0.8682,-0.3647,-21.606,0.671,-22.217,-111.879,32.223,-90.286
4121,-0.4526,-0.8911,-0.3564,-10.742,3.540,-5.127,-111.995,32.091,-90.302
4131,-0.4751,-0.8662,-0.3467,-3.418,3.845,7.141,-112.066,32.091,-90.374
4141,-0.4946,-0.8511,-0.3218,4.822,4.517,13.733,-112.061,32.168,-90.483
4151,-0.5200,-0.8262,-0.3008,11.230,5.066,16.174,-112.000,32.283,-90.615
4161,-0.5298,-0.7974,-0.2817,14.587,6.226,17.029,-111.907,32.410,-90.758
4171,-0.5464,-0.7422,-0.2783,14.893,6.470,18.127,-111.824,32.574,-90.906
4181,-0.5601,-0.7280,-0.2725,14.404,7.507,18.616,-111.758,32.750,-91.071
4191,-0.5688,-0.6890,-0.2725,12.146,7.629,17.395,-111.720,32.932,-91.236
4201,-0.5703,-0.7012,-0.2734,9.094,7.385,14.587,-111.703,33.080,-91.379
4211,-0.5679,-0.7354,-0.2739,4.395,6.348,8.667,-111.709,33.168,-91.489
4221,-0.5688,-0.7505,-0.2837,-2.808,3.418,0.916,-111.747,33.184,-91.533
4231,-0.5513,-0.7925,-0.2988,-8.606,1.587,-6.165,-111.819,33.118,-91.522
4241,-0.5376,-0.8267,-0.3130,-12.695,0.793,-11.292,-111.907,32.997,-91.478
4251,-0.5186,-0.8237,-0.3301,-14.526,-0.122,-13.367,-112.017,32.844,-91.417
4261,-0.5078,-0.7710,-0.3457,-12.756,-1.038,-10.315,-112.137,32.739,-91.362
4271,-0.5083,-0.7690,-0.3516,-5.432,-2.075,-3.418,-112.192,32.695,-91.324
4281,-0.5273,-0.7754,-0.3398,4.822,-3.723,2.014,-112.143,32.723,-91.291
4291,-0.5376,-0.7715,-0.3296,13.550,-6.287,3.845,-111.989,32.778,-91.241
4301,-0.5376,-0.8418,-0.3066,20.630,-7.263,3.235,-111.731,32.816,-91.176
4311,-0.5396,-0.8823,-0.2949,22.583,-7.751,0.061,-111.429,32.822,-91.088
4321,-0.5112,-0.9404,-0.2920,23.254,-6.775,-4.578,-111.105,32.750,-90.994
4331,-0.4692,-0.9253,-0.2632,24.109,-5.493,-8.606,-110.764,32.618,-90.895
4341,-0.5039,-0.7031,-0.2627,20.081,-7.019,-1.648,-110.517,32.640,-90.807
4351,-0.5591,-0.5073,-0.2783,21.912,-5.371,16.724,-110.385,32.932,-90.818
4361,-0.5952,-0.4473,-0.2607,33.081,-1.404,33.875,-110.226,33.409,-90.945
4371,-0.6235,-0.6172,-0.2534,38.086,1.343,40.283,-109.968,33.876,-91.126
4381,-0.6104,-0.9521,-0.1963,31.433,0.916,24.902,-109.638,34.085,-91.241
4391,-0.5498,-1.1079,-0.1602,7.690,-6.775,-9.766,-109.380,33.942,-91.121
4401,-0.5190,-1.0864,-0.1919,-27.405,-13.000,-40.466,-109.391,33.519,-90.813
4411,-0.4858,-0.8320,-0.2480,-53.162,-13.916,-53.040,-109.688,33.025,-90.445
4421,-0.5103,-0.5630,-0.3257,-54.749,-7.751,-38.635,-110.198,32.739,-90.203
4431,-0.5342,-0.5430,-0.3687,-31.555,5.554,-8.850,-110.665,32.706,-90.231
4441,-0.5581,-0.5972,-0.3496,-2.258,13.916,14.893,-110.901,32.855,-90.445
4451,-0.5762,-0.6602,-0.3291,16.235,15.686,24.963,-110.945,33.080,-90.725
4461,-0.5596,-0.8320,-0.2788,21.362,15.686,20.569,-110.852,33.212,-90.989
4471,-0.5371,-0.9346,-0.2422,11.353,12.085,3.845,-110.759,33.162,-91.137
4481,-0.5200,-0.9404,-0.2412,-9.521,7.202,-12.573,-110.803,32.970,-91.165
4491,-0.4917,-0.9336,-0.2749,-28.564,3.418,-22.034,-111.011,32.695,-91.110
4501,-0.4971,-0.8423,-0.3027,-37.048,-0.549,-22.766,-111.313,32.448,-91.011
4511,-0.5103,-0.7163,-0.3540,-34.363,-1.770,-13.550,-111.660,32.333,-90.928
4521,-0.5215,-0.7012,-0.3770,-18.921,-0.366,-1.038,-111.912,32.333,-90.923
4531,-0.5308,-0.6909,-0.3584,1.709,-0.793,5.493,-111.956,32.404,-90.939
4541,-0.5415,-0.7104,-0.3252,18.372,-1.648,8.240,-111.813,32.509,-90.956
4551,-0.5444,-0.7754,-0.2891,27.283,-1.404,7.446,-111.539,32.591,-90.972
4561,-0.5479,-0.8091,-0.2622,25.757,-1.038,3.601,-111.248,32.629,-90.978
4571,-0.5327,-0.8574,-0.2500,16.785,0.610,-1.465,-111.033,32.596,-90.978
4581,-0.5112,-0.8765,-0.2485,3.540,1.526,-5.249,-110.940,32.509,-90.972
4591,-0.5112,-0.8384,-0.2700,-11.780,0.427,-5.371,-111.017,32.437,-90.956
4601,-0.5215,-0.7861,-0.3013,-21.667,-0.305,-3.296,-111.226,32.399,-90.939
4611,-0.5244,-0.7378,-0.3203,-21.179,-0.244,-1.831,-111.451,32.393,-90.928
4621,-0.5332,-0.7261,-0.3286,-12.756,-0.366,-0.671,-111.599,32.399,-90.917
4631,-0.5220,-0.8110,-0.3140,-2.014,-1.038,-0.549,-111.610,32.388,-90.906
4641,-0.5044,-0.8574,-0.3081,2.869,-4.211,-1.709,-111.533,32.349,-90.851
4651,-0.4912,-0.8926,-0.3125,2.625,-8.362,-0.488,-111.434,32.327,-90.758
4661,-0.4873,-0.8833,-0.2988,1.282,-12.085,2.991,-111.330,32.349,-90.637
4671,-0.5176,-0.7603,-0.3154,-2.197,-15.991,10.254,-111.297,32.503,-90.505
4681,-0.5537,-0.6753,-0.3223,1.221,-15.747,18.311,-111.275,32.767,-90.412
4691,-0.5889,-0.6304,-0.3188,11.780,-13.489,21.606,-111.182,33.085,-90.352
4701,-0.6094,-0.6479,-0.3047,25.024,-9.094,18.494,-110.962,33.360,-90.335
4711,-0.5728,-0.7798,-0.2627,35.278,-3.723,9.338,-110.588,33.475,-90.330
4721,-0.5259,-0.9321,-0.2114,32.471,-1.709,-1.770,-110.176,33.420,-90.302
4731,-0.5005,-0.9619,-0.2065,12.268,-3.723,-9.949,-109.929,33.278,-90.220
4741,-0.4961,-0.8979,-0.2227,-10.193,-4.333,-13.489,-109.913,33.113,-90.115
4751,-0.5156,-0.7222,-0.2622,-25.818,-3.662,-8.484,-110.127,33.052,-90.044
4761,-0.5552,-0.6196,-0.2949,-27.405,1.099,2.930,-110.468,33.140,-90.066
4771,-0.5977,-0.5474,-0.3174,-16.663,7.080,10.803,-110.797,33.316,-90.192
4781,-0.6240,-0.5703,-0.3306,0.061,11.475,11.414,-110.984,33.481,-90.368
4791,-0.5903,-0.7451,-0.2959,17.578,13.794,2.258,-110.907,33.481,-90.533
4801,-0.5332,-0.9263,-0.2549,21.423,10.559,-13.245,-110.671,33.278,-90.593
4811,-0.4849,-1.0713,-0.2441,8.911,3.723,-27.771,-110.462,32.915,-90.516
4821,-0.4268,-1.1431,-0.2480,-10.620,-2.808,-36.926,-110.391,32.454,-90.335
4831,-0.4185,-1.0049,-0.2632,-30.823,-9.460,-34.485,-110.506,32.058,-90.088
4841,-0.4712,-0.7505,-0.3096,-40.649,-11.169,-16.052,-110.825,31.932,-89.896
4851,-0.5322,-0.5952,-0.3516,-29.602,-3.967,10.376,-111.215,32.097,-89.896
4861,-0.5781,-0.5186,-0.3564,-4.761,4.700,29.907,-111.489,32.459,-90.077
4871,-0.6118,-0.5205,-0.3413,23.437,11.597,36.194,-111.528,32.871,-90.357
4881,-0.6064,-0.6738,-0.2896,46.631,16.602,28.320,-111.248,33.140,-90.665
4891,-0.5723,-0.8389,-0.2305,51.514,15.869,8.972,-110.797,33.168,-90.884
4901,-0.5347,-0.9458,-0.2021,35.095,10.437,-11.353,-110.402,32.986,-90.950
4911,-0.4985,-0.9702,-0.2104,7.935,4.333,-24.231,-110.209,32.684,-90.901
4921,-0.4849,-0.9048,-0.2407,-19.775,-2.380,-27.039,-110.281,32.388,-90.764
4931,-0.4878,-0.8018,-0.2788,-37.903,-5.310,-18.677,-110.572,32.206,-90.626
4941,-0.5054,-0.7236,-0.3184,-41.809,-4.639,-5.493,-110.978,32.173,-90.549
4951,-0.5366,-0.6616,-0.3413,-34.790,-4.456,5.249,-111.374,32.278,-90.527
4961,-0.5679,-0.6460,-0.3496,-20.203,-3.235,9.827,-111.643,32.432,-90.533
4971,-0.5684,-0.7051,-0.3472,-1.343,0.061,6.470,-111.720,32.525,-90.560
4981,-0.5259,-0.8701,-0.3130,15.076,4.272,-3.296,-111.566,32.448,-90.593
4991,-0.4888,-0.9917,-0.2900,17.700,5.554,-13.062,-111.341,32.239,-90.599
5001,-0.4561,-1.0220,-0.2900,7.996,3.723,-16.907,-111.193,31.981,-90.566
5011,-0.4546,-0.8794,-0.3042,-2.502,0.977,-12.024,-111.176,31.805,-90.527
5021,-0.4951,-0.7354,-0.3252,-5.554,-0.488,3.113,-111.259,31.833,-90.533
5031,-0.5278,-0.6509,-0.3223,1.770,0.671,18.433,-111.341,32.042,-90.621
5041,-0.5845,-0.5615,-0.3091,11.414,0.305,27.527,-111.363,32.399,-90.742
5051,-0.6230,-0.4727,-0.3008,20.813,-1.038,29.907,-111.330,32.838,-90.857
5061,-0.6143,-0.6470,-0.2734,30.762,0.000,24.109,-111.099,33.140,-90.961
5071,-0.5737,-0.8774,-0.2207,29.419,-0.549,4.944,-110.748,33.184,-90.978
5081,-0.5396,-0.9678,-0.2114,7.812,-5.859,-19.348,-110.506,32.975,-90.829
5091,-0.4951,-1.0225,-0.2412,-19.653,-10.010,-38.330,-110.479,32.580,-90.560
5101,-0.4600,-0.9697,-0.2646,-40.405,-12.146,-47.424,-110.649,32.102,-90.225
5111,-0.4663,-0.8110,-0.3071,-49.988,-10.559,-40.649,-110.995,31.723,-89.940
5121,-0.4692,-0.7437,-0.3564,-42.175,-4.211,-20.691,-111.390,31.525,-89.808
5131,-0.4839,-0.7671,-0.3672,-20.447,0.305,-1.038,-111.632,31.498,-89.808
5141,-0.4990,-0.7769,-0.3418,2.502,1.099,10.315,-111.660,31.580,-89.863
5151,-0.5015,-0.8062,-0.3086,20.264,1.038,15.198,-111.495,31.701,-89.940
5161,-0.4971,-0.8701,-0.2798,28.198,0.977,15.808,-111.220,31.811,-90.016
5171,-0.4976,-0.8931,-0.2563,24.780,0.671,13.428,-110.956,31.893,-90.082
5181,-0.5049,-0.8384,-0.2520,15.076,-0.610,11.047,-110.781,31.981,-90.121
5191,-0.5269,-0.7905,-0.2690,6.409,-1.099,11.475,-110.720,32.091,-90.159
5201,-0.5513,-0.7856,-0.2720,2.930,0.610,11.475,-110.704,32.212,-90.214
5211,-0.5674,-0.6992,-0.2812,1.465,1.282,9.766,-110.731,32.344,-90.269
5221,-0.5874,-0.5977,-0.3066,4.700,2.380,9.888,-110.781,32.520,-90.335
5231,-0.5850,-0.5933,-0.3027,17.578,5.371,9.888,-110.726,32.679,-90.439
5241,-0.5596,-0.7046,-0.2700,29.053,6.958,7.874,-110.500,32.767,-90.549
5251,-0.5278,-0.8330,-0.2549,24.780,4.150,3.479,-110.253,32.767,-90.610
5261,-0.5132,-0.9023,-0.2505,5.920,-1.648,-3.113,-110.127,32.706,-90.577
5271,-0.4990,-0.9453,-0.2666,-14.465,-5.920,-11.047,-110.165,32.563,-90.467
5281,-0.5073,-0.8730,-0.2964,-31.189,-7.935,-16.052,-110.380,32.404,-90.313
5291,-0.5161,-0.7920,-0.3335,-37.415,-5.432,-15.564,-110.709,32.267,-90.187
5301,-0.5215,-0.7490,-0.3604,-29.785,-0.977,-10.742,-111.022,32.168,-90.132
5311,-0.5293,-0.7061,-0.3735,-12.573,1.892,-4.517,-111.220,32.130,-90.132
5321,-0.5161,-0.7344,-0.3481,9.338,3.235,0.183,-111.187,32.124,-90.170
5331,-0.5000,-0.8169,-0.3032,25.574,2.258,2.930,-110.945,32.119,-90.209
5341,-0.4941,-0.8623,-0.2666,27.466,-0.732,3.723,-110.638,32.124,-90.214
5351,-0.4858,-0.9087,-0.2451,18.921,-3.235,2.808,-110.385,32.113,-90.192
5361,-0.4868,-0.9131,-0.2305,5.066,-4.700,1.099,-110.248,32.091,-90.143
5371,-0.5181,-0.8184,-0.2510,-11.353,-6.409,2.319,-110.292,32.124,-90.082
5381,-0.5454,-0.7769,-0.2720,-19.958,-5.066,5.615,-110.462,32.212,-90.049
5391,-0.5664,-0.7344,-0.2803,-18.127,-3.052,5.432,-110.643,32.305,-90.038
5401,-0.5884,-0.6504,-0.2983,-11.292,-1.221,3.906,-110.797,32.421,-90.038
5411,-0.5806,-0.6235,-0.2993,2.625,2.686,2.441,-110.841,32.509,-90.082
5421,-0.5474,-0.7183,-0.2764,18.555,6.226,-0.244,-110.693,32.514,-90.148
5431,-0.5166,-0.8301,-0.2471,23.010,6.531,-4.211,-110.457,32.432,-90.203
5441,-0.4893,-0.8945,-0.2432,11.719,2.930,-7.080,-110.286,32.311,-90.209
5451,-0.4834,-0.9399,-0.2568,-3.479,-0.488,-8.484,-110.248,32.173,-90.165
5461,-0.4805,-0.9414,-0.2656,-16.602,-3.235,-8.789,-110.330,32.047,-90.093
5471,-0.5010,-0.8647,-0.2983,-27.649,-4.333,-5.127,-110.555,31.981,-90.027
5481,-0.5137,-0.8018,-0.3325,-27.527,-2.991,0.000,-110.830,31.976,-89.995
5491,-0.5342,-0.7212,-0.3423,-15.991,-1.099,3.845,-111.039,32.031,-89.995
5501,-0.5591,-0.6367,-0.3369,0.732,1.099,7.629,-111.121,32.157,-90.038
5511,-0.5557,-0.6191,-0.3223,19.104,4.395,11.108,-111.044,32.311,-90.137
5521,-0.5420,-0.7373,-0.2827,32.532,7.141,11.597,-110.792,32.410,-90.264
5531,-0.5322,-0.8594,-0.2471,30.090,6.836,6.409,-110.500,32.432,-90.368
5541,-0.4995,-0.9194,-0.2402,13.123,3.723,-1.709,-110.330,32.355,-90.401
5551,-0.4648,-0.9883,-0.2505,-6.897,0.366,-7.141,-110.325,32.206,-90.374
5561,-0.4468,-0.9946,-0.2769,-24.841,-4.456,-6.714,-110.484,32.075,-90.297
5571,-0.4468,-0.9849,-0.3203,-35.400,-8.667,0.488,-110.759,32.020,-90.203
5581,-0.4687,-0.8848,-0.3672,-33.447,-12.878,11.963,-111.061,32.119,-90.115
5591,-0.5088,-0.7554,-0.3906,-17.517,-15.991,26.550,-111.264,32.410,-90.049
5601,-0.5293,-0.6953,-0.3950,11.108,-14.893,39.734,-111.237,32.838,-90.055
5611,-0.5488,-0.6851,-0.3726,44.128,-11.353,47.791,-110.918,33.344,-90.137
5621,-0.5430,-0.7905,-0.3164,70.313,-7.080,51.514,-110.308,33.838,-90.275
5631,-0.5503,-0.8403,-0.2578,76.233,-6.165,51.331,-109.600,34.316,-90.423
5641,-0.5923,-0.7852,-0.2202,61.462,-10.681,45.532,-108.984,34.794,-90.483
5651,-0.6274,-0.7021,-0.1758,35.828,-18.188,34.668,-108.545,35.239,-90.412
5661,-0.6758,-0.5913,-0.1274,4.089,-25.757,17.029,-108.303,35.607,-90.181
5671,-0.7012,-0.4683,-0.1167,-28.748,-28.015,-4.700,-108.347,35.848,-89.835
5681,-0.7144,-0.4141,-0.1338,-53.772,-22.644,-26.489,-108.660,35.898,-89.467
5691,-0.6782,-0.5039,-0.1504,-63.599,-9.460,-48.584,-109.094,35.640,-89.165
5701,-0.6284,-0.6079,-0.1929,-60.486,7.996,-65.308,-109.583,35.090,-88.995
5711,-0.5366,-0.7891,-0.2485,-46.509,27.283,-71.899,-110.034,34.310,-89.017
5721,-0.4375,-0.9717,-0.2822,-28.320,40.894,-65.735,-110.380,33.448,-89.209
5731,-0.3945,-1.0781,-0.3164,-14.465,43.762,-47.485,-110.643,32.717,-89.500
5741,-0.4126,-1.0327,-0.3462,-3.296,38.940,-22.827,-110.836,32.250,-89.835
5751,-0.4375,-0.9556,-0.3589,11.597,31.555,1.099,-110.907,32.058,-90.192
5761,-0.4575,-0.9136,-0.3301,29.053,24.963,20.386,-110.797,32.091,-90.549
5771,-0.4937,-0.8213,-0.3027,37.964,16.724,33.142,-110.588,32.311,-90.873
5781,-0.5132,-0.7690,-0.2832,39.368,9.216,41.199,-110.336,32.657,-91.148
5791,-0.5303,-0.7891,-0.2544,36.926,4.700,43.518,-110.072,33.047,-91.379
5801,-0.5625,-0.7773,-0.2437,27.344,2.625,39.490,-109.874,33.420,-91.571
5812,-0.5864,-0.7358,-0.2510,14.099,4.211,30.151,-109.819,33.723,-91.741
5821,-0.6040,-0.7002,-0.2754,1.709,7.080,17.273,-109.902,33.909,-91.895
5831,-0.6030,-0.6855,-0.2939,-6.531,11.414,3.235,-110.078,33.953,-92.038
5841,-0.5874,-0.6841,-0.3223,-11.230,16.235,-8.423,-110.325,33.854,-92.186
5851,-0.5654,-0.6919,-0.3477,-10.376,19.226,-15.991,-110.572,33.668,-92.335
5861,-0.5381,-0.7397,-0.3589,-4.822,19.287,-18.555,-110.748,33.420,-92.472
5871,-0.5190,-0.7710,-0.3623,0.732,15.930,-16.602,-110.847,33.190,-92.582
5881,-0.5103,-0.7920,-0.3599,3.967,10.437,-11.902,-110.880,33.014,-92.648
5891,-0.5093,-0.8521,-0.3398,5.188,4.089,-7.568,-110.841,32.893,-92.659
5901,-0.5063,-0.8433,-0.3247,2.563,-2.686,-5.615,-110.792,32.816,-92.609
5912,-0.5093,-0.8413,-0.3169,-1.099,-7.507,-4.456,-110.742,32.767,-92.505
5921,-0.5127,-0.8530,-0.2988,-2.686,-9.949,-4.272,-110.687,32.728,-92.373
5931,-0.5210,-0.8135,-0.2974,-3.906,-11.536,-4.517,-110.643,32.712,-92.230
5941,-0.5269,-0.8003,-0.2891,-2.380,-10.132,-3.601,-110.588,32.701,-92.098
5951,-0.5366,-0.7661,-0.2788,1.709,-7.202,-2.136,-110.517,32.717,-92.010
5961,-0.5430,-0.7529,-0.2749,6.653,-3.418,-0.610,-110.424,32.734,-91.972
5971,-0.5317,-0.7769,-0.2607,10.315,0.366,-0.061,-110.308,32.734,-91.978
5981,-0.5210,-0.7935,-0.2583,8.789,1.587,-0.916,-110.204,32.717,-91.989
5991,-0.5195,-0.8086,-0.2539,4.028,1.038,-1.770,-110.138,32.684,-91.994
6001,-0.5234,-0.8135,-0.2490,-1.343,-0.427,-2.502,-110.116,32.651,-91.978
6011,-0.5371,-0.7993,-0.2476,-6.348,-2.441,-2.869,-110.127,32.635,-91.939
6021,-0.5459,-0.7979,-0.2476,-8.972,-3.540,-3.479,-110.160,32.618,-91.884
6031,-0.5513,-0.7773,-0.2461,-8.545,-3.418,-5.188,-110.187,32.596,-91.824
6041,-0.5557,-0.7241,-0.2598,-5.920,-1.709,-5.554,-110.215,32.580,-91.785
6051,-0.5518,-0.7158,-0.2773,1.099,2.197,-4.089,-110.220,32.569,-91.791
6061,-0.5269,-0.8062,-0.2681,9.644,6.775,-4.089,-110.138,32.498,-91.851
6071,-0.4893,-0.8999,-0.2549,10.437,8.240,-6.042,-110.028,32.366,-91.917
6081,-0.4785,-0.8823,-0.2632,2.258,6.226,-5.981,-109.995,32.239,-91.961
6091,-0.4922,-0.8442,-0.2856,-4.883,3.906,-1.953,-110.045,32.173,-92.000
6101,-0.5186,-0.8008,-0.2832,-7.751,1.587,2.747,-110.132,32.190,-92.027
6111,-0.5566,-0.7017,-0.2974,-9.644,-1.221,6.470,-110.264,32.294,-92.038
6121,-0.5771,-0.6655,-0.3071,-6.104,-1.648,8.179,-110.380,32.432,-92.054
6131,-0.5625,-0.7139,-0.2925,2.441,-1.404,3.967,-110.374,32.514,-92.054
6141,-0.5337,-0.7964,-0.2764,6.836,-1.648,-3.540,-110.275,32.481,-92.021
6151,-0.4966,-0.9004,-0.2695,4.089,-0.916,-9.949,-110.171,32.349,-91.972
6161,-0.4785,-0.8960,-0.2861,-3.967,-0.305,-12.695,-110.154,32.179,-91.917
6171,-0.4824,-0.8789,-0.3003,-11.658,2.075,-9.338,-110.253,32.036,-91.901
6181,-0.4937,-0.8325,-0.3066,-13.794,5.188,-3.113,-110.413,31.959,-91.945
6191,-0.5283,-0.7354,-0.3247,-12.390,5.859,3.540,-110.610,31.987,-92.027
6201,-0.5610,-0.6562,-0.3291,-5.127,6.287,8.057,-110.775,32.091,-92.126
6211,-0.5713,-0.6318,-0.3213,6.775,5.249,8.362,-110.819,32.217,-92.219
6221,-0.5605,-0.7217,-0.2881,16.785,3.052,4.272,-110.687,32.283,-92.274
6231,-0.5347,-0.8242,-0.2637,16.479,-1.282,-3.662,-110.479,32.250,-92.241
6241,-0.4966,-0.9033,-0.2549,6.348,-5.615,-11.841,-110.314,32.113,-92.131
6251,-0.4722,-0.9517,-0.2529,-7.446,-7.996,-16.968,-110.248,31.921,-91.972
6261,-0.4687,-0.9126,-0.2676,-20.508,-7.629,-16.602,-110.330,31.734,-91.824
6271,-0.4878,-0.8477,-0.2944,-26.611,-3.723,-10.681,-110.539,31.619,-91.736
6281,-0.5103,-0.7993,-0.3159,-22.827,2.502,-3.235,-110.781,31.569,-91.752
6291,-0.5405,-0.7114,-0.3252,-11.169,7.874,2.014,-110.978,31.591,-91.846
6301,-0.5474,-0.6694,-0.3242,4.944,12.512,5.310,-111.061,31.641,-92.005
6312,-0.5332,-0.7417,-0.2876,21.667,14.893,5.127,-110.945,31.657,-92.192
6321,-0.5190,-0.8120,-0.2661,26.062,11.414,2.502,-110.731,31.641,-92.329
6331,-0.4980,-0.8882,-0.2534,17.395,5.798,-0.977,-110.539,31.575,-92.384
6341,-0.4888,-0.9004,-0.2627,2.625,0.488,-4.395,-110.468,31.492,-92.373
6351,-0.4893,-0.8638,-0.2847,-12.024,-3.174,-5.371,-110.533,31.421,-92.318
6361,-0.4980,-0.8013,-0.3013,-21.240,-4.272,-3.418,-110.715,31.393,-92.258
6371,-0.5308,-0.6992,-0.3286,-22.095,-4.028,0.183,-110.951,31.437,-92.214
6381,-0.5513,-0.6792,-0.3379,-12.512,-2.136,2.686,-111.127,31.520,-92.203
6391,-0.5483,-0.7114,-0.3169,2.563,-0.427,1.099,-111.127,31.564,-92.203
6401,-0.5312,-0.7534,-0.3027,12.878,-0.488,-2.319,-111.000,31.564,-92.186
6411,-0.5088,-0.8384,-0.2866,15.442,-1.038,-4.883,-110.808,31.503,-92.153
6421,-0.4878,-0.8730,-0.2866,10.132,-2.686,-6.714,-110.654,31.415,-92.098
6431,-0.4790,-0.9004,-0.2881,1.648,-4.211,-6.714,-110.572,31.322,-92.021
6441,-0.4780,-0.8779,-0.2944,-6.836,-5.310,-5.737,-110.577,31.251,-91.939
6451,-0.4946,-0.7969,-0.3145,-11.536,-5.798,-2.625,-110.660,31.234,-91.868
6461,-0.5107,-0.7520,-0.3247,-7.385,-4.456,1.648,-110.742,31.267,-91.824
6471,-0.5264,-0.7373,-0.3115,2.380,-3.357,3.845,-110.726,31.339,-91.802
6481,-0.5322,-0.7363,-0.2930,10.864,-3.601,4.211,-110.616,31.415,-91.780
6491,-0.5312,-0.7598,-0.2734,15.503,-4.150,3.601,-110.440,31.481,-91.752
6501,-0.5273,-0.8101,-0.2607,13.428,-4.761,2.319,-110.259,31.525,-91.708
6511,-0.5078,-0.8804,-0.2544,5.737,-4.395,-1.099,-110.132,31.503,-91.653
6521,-0.4839,-0.8774,-0.2612,-5.249,-3.784,-5.310,-110.116,31.432,-91.593
6531,-0.4790,-0.8706,-0.2793,-14.709,-2.808,-6.775,-110.209,31.339,-91.533
6541,-0.4932,-0.8071,-0.2964,-17.822,-0.610,-5.615,-110.369,31.273,-91.505
6551,-0.5166,-0.7407,-0.3164,-12.146,2.136,-2.075,-110.528,31.262,-91.522
6561,-0.5317,-0.7266,-0.3149,1.099,5.493,1.526,-110.577,31.284,-91.588
6571,-0.5425,-0.7041,-0.3008,13.000,6.714,3.662,-110.522,31.333,-91.675
6581,-0.5439,-0.6929,-0.2876,20.081,5.920,5.249,-110.385,31.410,-91.758
6591,-0.5293,-0.7837,-0.2637,21.362,3.540,4.883,-110.187,31.454,-91.818
6601,-0.5122,-0.8643,-0.2524,13.000,-1.160,0.244,-110.012,31.443,-91.807
6611,-0.4932,-0.9019,-0.2539,-1.404,-5.188,-6.958,-109.940,31.355,-91.725
6621,-0.4785,-0.9351,-0.2700,-15.503,-7.080,-12.085,-109.990,31.218,-91.599
6631,-0.4746,-0.9341,-0.2764,-25.208,-5.981,-14.343,-110.143,31.053,-91.472
6641,-0.4961,-0.7778,-0.3140,-28.870,-3.601,-11.475,-110.402,30.954,-91.390
6651,-0.5288,-0.6650,-0.3428,-18.799,2.136,-1.404,-110.665,30.976,-91.406
6661,-0.5679,-0.5332,-0.3496,3.235,8.118,8.911,-110.825,31.135,-91.533
6671,-0.5771,-0.5664,-0.3359,28.748,13.428,14.893,-110.742,31.328,-91.741
6681,-0.5317,-0.7993,-0.2744,46.021,15.747,11.353,-110.385,31.388,-91.961
6691,-0.4863,-0.9780,-0.2314,37.292,9.094,-0.244,-109.995,31.300,-92.060
6701,-0.4570,-1.0459,-0.2344,10.803,-0.427,-13.123,-109.786,31.097,-92.000
6711,-0.4375,-1.0259,-0.2544,-15.991,-7.568,-19.836,-109.803,30.850,-91.840
6721,-0.4551,-0.8550,-0.2837,-33.630,-10.803,-15.869,-110.028,30.696,-91.659
6731,-0.5005,-0.7129,-0.3398,-36.316,-8.789,-2.930,-110.391,30.718,-91.549
6741,-0.5342,-0.6553,-0.3540,-21.606,-3.662,8.789,-110.682,30.861,-91.544
6751,-0.5693,-0.6230,-0.3545,-0.244,-0.732,12.207,-110.792,31.053,-91.588
6761,-0.5557,-0.6641,-0.3325,22.888,2.686,8.118,-110.654,31.174,-91.648
6771,-0.4922,-0.8735,-0.2676,36.499,5.737,-0.671,-110.292,31.119,-91.708
6781,-0.4590,-0.9966,-0.2261,28.687,3.784,-10.803,-109.929,30.937,-91.708
6791,-0.4399,-1.0151,-0.2349,8.728,0.122,-17.334,-109.742,30.696,-91.642
6801,-0.4341,-0.9316,-0.2412,-6.897,-1.343,-15.991,-109.715,30.487,-91.566
6812,-0.4687,-0.8442,-0.2666,-15.869,-1.465,-4.883,-109.836,30.421,-91.527
6821,-0.4927,-0.8389,-0.2705,-16.357,1.648,6.714,-110.001,30.465,-91.571
6831,-0.5352,-0.6816,-0.2910,-14.648,1.526,12.634,-110.209,30.630,-91.637
6841,-0.5688,-0.5972,-0.3086,-4.822,3.113,15.137,-110.374,30.855,-91.736
6851,-0.5635,-0.6699,-0.2891,12.329,7.446,11.841,-110.347,31.009,-91.862
6861,-0.5352,-0.7852,-0.2705,21.118,9.094,2.502,-110.182,31.020,-91.972
6871,-0.4951,-0.8770,-0.2598,16.235,6.531,-6.470,-110.006,30.910,-92.016
6881,-0.4712,-0.9458,-0.2671,5.615,2.380,-12.085,-109.896,30.740,-91.994
6891,-0.4663,-0.8818,-0.2827,-4.395,-2.380,-12.573,-109.880,30.591,-91.923
6901,-0.4731,-0.8574,-0.2944,-8.911,-3.967,-5.859,-109.929,30.520,-91.857
6911,-0.4810,-0.8462,-0.2915,-6.714,-2.625,1.770,-109.973,30.520,-91.835
6921,-0.5117,-0.7520,-0.2964,-3.052,-1.831,6.531,-110.023,30.608,-91.840
6931,-0.5254,-0.6860,-0.3003,3.296,0.732,10.193,-110.050,30.745,-91.884
6941,-0.5312,-0.7075,-0.2949,11.108,4.395,11.658,-110.012,30.877,-91.983
6951,-0.5312,-0.7681,-0.2881,12.207,6.592,8.606,-109.951,30.954,-92.087
6961,-0.5063,-0.8325,-0.2871,5.676,6.470,0.732,-109.924,30.927,-92.164
6971,-0.4780,-0.8638,-0.2915,-5.859,3.296,-7.568,-109.973,30.817,-92.170
6981,-0.4707,-0.9292,-0.2939,-16.907,-0.488,-13.367,-110.089,30.641,-92.109
6991,-0.4687,-0.9067,-0.3057,-25.208,-4.395,-16.541,-110.264,30.460,-91.994
7001,-0.4712,-0.8428,-0.3184,-25.940,-5.554,-14.221,-110.468,30.317,-91.879
7011,-0.4922,-0.7710,-0.3286,-17.334,-3.906,-6.042,-110.632,30.273,-91.813
7021,-0.5273,-0.6973,-0.3335,-1.282,-0.793,3.235,-110.693,30.350,-91.813
7031,-0.5264,-0.6963,-0.3105,18.127,3.906,9.033,-110.588,30.460,-91.895
7041,-0.5098,-0.7676,-0.2798,32.104,7.690,10.193,-110.330,30.542,-92.021
7051,-0.4917,-0.8628,-0.2515,31.921,7.751,7.812,-110.028,30.569,-92.137
7061,-0.4775,-0.9170,-0.2324,18.005,4.639,3.906,-109.825,30.553,-92.203
7071,-0.4644,-0.9282,-0.2329,-1.526,-0.366,0.488,-109.781,30.515,-92.197
7081,-0.4829,-0.8701,-0.2510,-20.447,-6.042,0.854,-109.918,30.515,-92.137
7091,-0.5166,-0.7812,-0.2769,-31.616,-10.071,3.174,-110.176,30.591,-92.038
7101,-0.5425,-0.7202,-0.3154,-30.029,-10.620,4.333,-110.457,30.712,-91.939
7111,-0.5610,-0.6724,-0.3437,-16.846,-7.629,2.136,-110.654,30.817,-91.868
7121,-0.5635,-0.6460,-0.3711,3.723,-1.404,-1.892,-110.698,30.866,-91.846
7131,-0.5166,-0.7354,-0.3506,27.893,7.507,-6.042,-110.500,30.800,-91.901
7141,-0.4702,-0.8633,-0.3013,41.077,12.756,-9.033,-110.132,30.635,-92.005
7151,-0.4453,-0.9072,-0.2734,36.133,12.268,-9.216,-109.786,30.454,-92.098
7161,-0.4497,-0.9141,-0.2568,23.315,10.071,-4.944,-109.561,30.322,-92.192
7171,-0.4751,-0.8872,-0.2539,9.277,5.859,0.305,-109.468,30.273,-92.258
7181,-0.4961,-0.8486,-0.2471,-3.235,1.099,3.784,-109.479,30.295,-92.280
7191,-0.5166,-0.7871,-0.2583,-13.428,-3.845,4.089,-109.589,30.366,-92.258
7201,-0.5317,-0.7227,-0.2739,-15.930,-7.080,1.770,-109.720,30.449,-92.186
7211,-0.5249,-0.7241,-0.2812,-9.644,-6.348,-1.770,-109.792,30.487,-92.109
7221,-0.5225,-0.7471,-0.2861,-0.549,-3.357,-4.944,-109.781,30.476,-92.054
7231,-0.5063,-0.7979,-0.2837,7.751,0.854,-7.202,-109.693,30.410,-92.032
7241,-0.4849,-0.8384,-0.2729,13.123,4.822,-8.179,-109.556,30.306,-92.054
7251,-0.4785,-0.8657,-0.2783,13.000,6.592,-5.859,-109.435,30.201,-92.104
7261,-0.4692,-0.9063,-0.2690,10.864,6.775,-2.808,-109.330,30.114,-92.170
7271,-0.4658,-0.8936,-0.2651,5.249,3.784,-0.427,-109.270,30.064,-92.208
7281,-0.4775,-0.8408,-0.2651,-0.549,-0.061,2.502,-109.265,30.070,-92.214
7291,-0.4844,-0.7808,-0.2681,-2.991,-3.174,4.944,-109.281,30.130,-92.203
7301,-0.4873,-0.7119,-0.2749,-2.014,-6.165,6.531,-109.297,30.234,-92.159
7312,-0.5088,-0.6509,-0.2856,1.587,-9.705,8.362,-109.292,30.399,-92.082
7321,-0.5215,-0.6514,-0.2974,9.705,-12.512,9.277,-109.193,30.586,-91.983
7331,-0.5352,-0.7593,-0.2822,19.226,-15.381,7.568,-108.946,30.734,-91.840
7341,-0.5288,-0.8892,-0.2485,23.499,-18.433,3.113,-108.583,30.811,-91.653
7351,-0.5117,-0.9487,-0.2329,19.775,-19.714,-0.977,-108.226,30.833,-91.428
7361,-0.5044,-0.9526,-0.2266,13.123,-16.296,-1.587,-107.957,30.833,-91.247
7371,-0.4907,-0.8652,-0.2383,7.324,-8.423,2.380,-107.814,30.861,-91.159
7381,-0.4893,-0.7754,-0.2583,6.104,0.732,9.644,-107.781,30.948,-91.203
7391,-0.5078,-0.7773,-0.2695,9.644,10.986,15.198,-107.787,31.069,-91.379
7401,-0.5156,-0.7734,-0.2656,13.855,18.921,15.564,-107.798,31.168,-91.642
7411,-0.5098,-0.7739,-0.2729,14.709,21.729,12.878,-107.820,31.234,-91.934
7421,-0.5132,-0.7881,-0.2749,11.658,19.592,8.240,-107.842,31.256,-92.181
7431,-0.5117,-0.8398,-0.2739,6.775,13.489,1.404,-107.858,31.212,-92.335
7441,-0.5044,-0.8994,-0.2661,-0.122,5.676,-5.127,-107.869,31.119,-92.379
7451,-0.4966,-0.9238,-0.2866,-9.705,-2.686,-9.521,-107.924,30.998,-92.318
7461,-0.4775,-0.9014,-0.3027,-13.977,-8.484,-11.963,-108.001,30.866,-92.181
7471,-0.4722,-0.8564,-0.3101,-11.597,-11.475,-11.353,-108.051,30.762,-92.010
7481,-0.4805,-0.8086,-0.3140,-2.686,-9.705,-7.080,-108.040,30.707,-91.879
7491,-0.4966,-0.7559,-0.3164,9.094,-5.676,-0.793,-107.963,30.723,-91.813
7501,-0.5103,-0.7705,-0.2974,21.606,-0.854,3.723,-107.781,30.767,-91.818
7511,-0.5161,-0.8013,-0.2651,27.649,1.465,5.615,-107.534,30.828,-91.851
7521,-0.5161,-0.8232,-0.2441,23.254,-0.122,6.958,-107.303,30.894,-91.873
7531,-0.5044,-0.8584,-0.2261,13.977,-4.761,5.798,-107.122,30.948,-91.840
7541,-0.4985,-0.8530,-0.2100,1.465,-12.146,2.686,-107.012,30.998,-91.714
7551,-0.5059,-0.8496,-0.2012,-11.169,-18.738,-0.061,-106.979,31.042,-91.505
7561,-0.5112,-0.8223,-0.2007,-19.043,-21.851,-2.808,-107.007,31.080,-91.252
7571,-0.5132,-0.7642,-0.2109,-18.921,-20.996,-4.883,-107.051,31.113,-91.000
7581,-0.5298,-0.7686,-0.2095,-10.376,-14.893,-4.517,-107.040,31.135,-90.818
7591,-0.5410,-0.7549,-0.2075,0.671,-7.141,-2.991,-106.968,31.163,-90.731
7601,-0.5293,-0.7988,-0.1938,11.108,0.488,-1.587,-106.826,31.163,-90.731
7611,-0.5151,-0.8335,-0.1748,15.625,4.700,-0.671,-106.650,31.146,-90.780
7621,-0.5078,-0.8398,-0.1807,11.475,4.883,0.488,-106.518,31.130,-90.835
7631,-0.4971,-0.8687,-0.1816,4.639,3.662,1.282,-106.447,31.113,-90.884
7641,-0.4839,-0.8931,-0.1899,-4.700,1.038,0.916,-106.458,31.086,-90.895
7651,-0.4844,-0.8906,-0.2031,-15.869,-1.587,0.488,-106.573,31.064,-90.879
7661,-0.4897,-0.8560,-0.2310,-24.536,-3.296,0.610,-106.782,31.058,-90.846
7671,-0.5034,-0.8228,-0.2495,-25.452,-2.991,1.282,-107.018,31.069,-90.818
7681,-0.5225,-0.7729,-0.2705,-21.790,-1.831,2.930,-107.254,31.119,-90.807
7691,-0.5400,-0.7388,-0.2871,-15.503,0.122,4.700,-107.457,31.196,-90.824
7701,-0.5435,-0.7334,-0.2935,-6.958,1.953,4.089,-107.584,31.262,-90.862
7711,-0.5332,-0.7622,-0.2866,0.610,2.869,1.587,-107.628,31.289,-90.895
7721,-0.5142,-0.7998,-0.2817,4.089,2.441,-1.404,-107.617,31.267,-90.917
7731,-0.4932,-0.8652,-0.2812,3.906,0.732,-3.967,-107.578,31.201,-90.912
7741,-0.4761,-0.8784,-0.2798,0.671,-2.197,-5.432,-107.551,31.113,-90.868
7751,-0.4712,-0.8613,-0.2832,-2.502,-5.615,-4.517,-107.545,31.053,-90.791
7761,-0.4937,-0.8242,-0.2808,-3.235,-7.568,-1.038,-107.545,31.053,-90.703
7771,-0.5225,-0.7993,-0.2803,-0.977,-7.812,2.869,-107.529,31.108,-90.626
7781,-0.5303,-0.7856,-0.2676,3.418,-6.287,4.578,-107.485,31.185,-90.571
7791,-0.5352,-0.7593,-0.2622,8.179,-4.089,3.845,-107.402,31.256,-90.544
7801,-0.5249,-0.7812,-0.2495,13.672,-0.366,2.197,-107.271,31.295,-90.544
7812,-0.5005,-0.8535,-0.2241,16.968,3.113,0.061,-107.095,31.267,-90.582
7821,-0.4883,-0.8965,-0.2173,13.794,4.578,-1.831,-106.946,31.201,-90.626
7831,-0.4854,-0.9014,-0.2314,7.629,4.883,-2.014,-106.870,31.135,-90.670
7841,-0.4873,-0.8862,-0.2417,4.272,5.310,-0.671,-106.842,31.080,-90.731
7851,-0.4966,-0.8691,-0.2451,4.700,5.920,1.709,-106.820,31.058,-90.802
7861,-0.5034,-0.8481,-0.2373,9.705,6.531,3.784,-106.754,31.058,-90.890
7871,-0.5151,-0.7861,-0.2300,15.930,6.226,6.287,-106.639,31.113,-90.978
7881,-0.5195,-0.7344,-0.2207,22.278,5.493,9.827,-106.469,31.223,-91.071
7891,-0.5264,-0.7334,-0.2021,25.574,4.700,13.000,-106.254,31.366,-91.170
7901,-0.5420,-0.7334,-0.1973,20.935,3.052,14.465,-106.078,31.536,-91.252
7913,-0.5474,-0.7788,-0.1958,9.705,0.732,13.062,-105.985,31.685,-91.302
7921,-0.5400,-0.8247,-0.1953,-5.188,-2.197,6.897,-106.013,31.767,-91.296
7931,-0.5312,-0.8081,-0.2251,-21.362,-5.310,-1.587,-106.183,31.772,-91.230
7941,-0.5332,-0.7930,-0.2554,-31.311,-5.981,-7.568,-106.463,31.723,-91.143
7951,-0.5273,-0.8145,-0.2749,-31.067,-2.869,-11.658,-106.754,31.619,-91.071
7961,-0.5186,-0.8081,-0.2925,-24.048,1.831,-13.306,-107.012,31.481,-91.044
7971,-0.5015,-0.8101,-0.3042,-12.878,6.287,-11.475,-107.188,31.344,-91.077
7981,-0.4897,-0.8237,-0.2910,0.610,8.240,-7.080,-107.243,31.229,-91.143
7991,-0.4922,-0.8179,-0.2788,9.094,5.920,-0.305,-107.199,31.196,-91.208
8001,-0.4946,-0.8247,-0.2559,10.620,1.709,5.737,-107.117,31.229,-91.247
8012,-0.5093,-0.8286,-0.2407,4.944,-4.456,8.911,-107.051,31.322,-91.230
8021,-0.5190,-0.8560,-0.2241,-2.808,-9.644,6.836,-107.007,31.404,-91.143
8031,-0.5176,-0.8418,-0.2217,-10.315,-13.123,0.732,-107.012,31.443,-91.000
8041,-0.5176,-0.8447,-0.2305,-12.573,-13.916,-4.700,-107.034,31.432,-90.829
8051,-0.5195,-0.8169,-0.2329,-7.874,-11.230,-7.629,-107.018,31.393,-90.676
8061,-0.5156,-0.7827,-0.2393,1.587,-5.737,-5.676,-106.963,31.360,-90.593
8071,-0.5039,-0.8057,-0.2231,14.160,1.221,-0.366,-106.815,31.349,-90.604
8081,-0.5127,-0.7881,-0.2041,20.569,5.188,4.944,-106.622,31.393,-90.681
8091,-0.5220,-0.7446,-0.2041,18.005,6.531,10.071,-106.490,31.498,-90.786
8101,-0.5312,-0.7808,-0.1855,11.169,6.348,13.062,-106.408,31.624,-90.901
8111,-0.5396,-0.8296,-0.1855,-0.977,3.113,10.071,-106.414,31.718,-90.967
8121,-0.5342,-0.8633,-0.1953,-15.198,-0.916,1.282,-106.523,31.729,-90.961
8131,-0.5181,-0.8750,-0.2207,-25.574,-4.028,-8.179,-106.716,31.641,-90.890
8142,-0.5117,-0.8423,-0.2456,-28.137,-4.944,-13.916,-106.935,31.509,-90.786
8152,-0.5112,-0.7959,-0.2803,-22.400,-1.831,-12.817,-107.150,31.388,-90.725
8162,-0.5059,-0.7671,-0.2988,-9.949,3.235,-5.676,-107.298,31.328,-90.742
8172,-0.5093,-0.7632,-0.2939,4.883,6.958,2.686,-107.331,31.339,-90.829
8181,-0.5166,-0.7695,-0.2759,14.587,8.484,8.667,-107.276,31.404,-90.950
8192,-0.5112,-0.8594,-0.2378,12.390,5.676,6.348,-107.177,31.432,-91.038
8201,-0.4976,-0.9043,-0.2329,2.197,2.991,-0.061,-107.144,31.393,-91.071
8211,-0.4824,-0.9355,-0.2441,-10.254,0.488,-5.188,-107.216,31.289,-91.060
8222,-0.4800,-0.9199,-0.2495,-19.592,-1.770,-7.690,-107.364,31.179,-91.011
8232,-0.4941,-0.8101,-0.2725,-22.217,-3.540,-5.127,-107.567,31.130,-90.956
8242,-0.5122,-0.7363,-0.2905,-14.160,-3.174,3.174,-107.737,31.185,-90.928
8252,-0.5278,-0.7192,-0.2739,0.366,-2.258,10.742,-107.770,31.328,-90.945
8262,-0.5498,-0.6616,-0.2578,13.123,-2.563,14.160,-107.688,31.531,-90.967
8272,-0.5635,-0.6855,-0.2412,21.240,-2.991,14.343,-107.501,31.740,-90.983
8282,-0.5503,-0.7798,-0.2090,22.888,-2.441,9.277,-107.254,31.860,-90.989
8291,-0.5342,-0.8652,-0.1919,13.977,-3.357,0.366,-107.051,31.866,-90.950
8301,-0.5088,-0.9038,-0.2070,-2.686,-4.150,-7.385,-106.996,31.778,-90.879
8312,-0.4966,-0.9214,-0.2271,-18.127,-4.822,-11.414,-107.095,31.641,-90.786
8322,-0.4976,-0.8862,-0.2520,-27.405,-4.639,-11.536,-107.309,31.514,-90.698
8332,-0.5054,-0.8105,-0.2783,-27.649,-2.991,-7.507,-107.567,31.443,-90.637
8342,-0.5249,-0.7241,-0.3105,-17.395,-0.244,-0.366,-107.792,31.459,-90.632
8352,-0.5435,-0.7100,-0.3091,2.136,3.235,5.737,-107.858,31.542,-90.687
8362,-0.5391,-0.7256,-0.2856,21.606,5.859,7.507,-107.726,31.624,-90.780
8372,-0.5234,-0.8013,-0.2451,33.020,6.104,6.226,-107.441,31.668,-90.873
8381,-0.5039,-0.8960,-0.2075,31.555,2.808,3.052,-107.106,31.663,-90.912
8391,-0.4941,-0.9326,-0.1978,20.386,-1.404,-1.282,-106.842,31.608,-90.895
8401,-0.4795,-0.9111,-0.2075,6.653,-4.272,-3.906,-106.705,31.542,-90.829
8411,-0.4912,-0.8501,-0.2148,-4.944,-5.066,-1.099,-106.699,31.520,-90.769
8422,-0.5254,-0.7559,-0.2373,-11.597,-3.601,5.310,-106.809,31.602,-90.747
8432,-0.5488,-0.6934,-0.2515,-9.949,0.061,10.681,-106.957,31.756,-90.786
8442,-0.5625,-0.6787,-0.2495,-3.540,3.723,12.695,-107.067,31.926,-90.873
8452,-0.5703,-0.7134,-0.2354,2.625,5.310,9.766,-107.106,32.053,-90.967
8462,-0.5562,-0.7822,-0.2251,4.089,4.761,2.747,-107.084,32.091,-91.027
8471,-0.5269,-0.8442,-0.2192,0.366,3.540,-5.859,-107.067,32.014,-91.049
8481,-0.5049,-0.8760,-0.2324,-6.226,2.319,-12.146,-107.100,31.866,-91.033
8492,-0.4907,-0.8491,-0.2500,-11.658,1.770,-13.977,-107.194,31.701,-91.005
8502,-0.4917,-0.8257,-0.2661,-12.939,2.014,-9.827,-107.320,31.580,-90.989
8512,-0.5010,-0.8354,-0.2666,-9.216,2.441,-3.052,-107.424,31.525,-91.011
8522,-0.5103,-0.8374,-0.2607,-5.737,1.160,2.197,-107.490,31.525,-91.027
8532,-0.5225,-0.8076,-0.2563,-4.333,-0.916,4.700,-107.540,31.575,-91.033
8542,-0.5337,-0.7817,-0.2515,-3.235,-2.502,5.737,-107.567,31.652,-91.027
8552,-0.5322,-0.7944,-0.2451,-1.526,-2.625,4.456,-107.573,31.712,-91.016
8562,-0.5278,-0.8154,-0.2441,-1.038,-1.404,1.160,-107.567,31.729,-91.000
8572,-0.5186,-0.8369,-0.2617,-1.587,1.343,-2.258,-107.584,31.690,-91.011
8582,-0.4985,-0.8643,-0.2764,0.183,5.127,-4.456,-107.606,31.608,-91.049
8592,-0.4814,-0.8750,-0.2734,2.075,7.324,-4.578,-107.617,31.503,-91.115
8602,-0.4873,-0.8320,-0.2754,2.258,6.592,-0.610,-107.639,31.454,-91.187
8612,-0.5156,-0.7856,-0.2808,2.625,4.028,6.165,-107.666,31.498,-91.252
8622,-0.5391,-0.7388,-0.2729,4.578,1.465,10.925,-107.677,31.630,-91.313
8632,-0.5566,-0.7109,-0.2637,5.981,-0.793,11.719,-107.661,31.789,-91.346
8642,-0.5566,-0.7349,-0.2490,6.958,-2.441,8.240,-107.606,31.910,-91.346
8652,-0.5391,-0.8052,-0.2324,5.127,-4.272,1.282,-107.518,31.943,-91.302
8662,-0.5186,-0.8530,-0.2339,-1.343,-5.859,-6.714,-107.463,31.882,-91.214
8672,-0.4990,-0.8789,-0.2393,-7.874,-6.531,-12.390,-107.457,31.756,-91.093
8682,-0.4912,-0.8491,-0.2505,-11.414,-5.371,-13.550,-107.501,31.613,-90.989
8692,-0.5073,-0.8198,-0.2617,-9.766,-1.953,-9.216,-107.573,31.520,-90.934
8702,-0.5117,-0.8110,-0.2583,-2.380,2.869,-2.380,-107.611,31.487,-90.956
8712,-0.5176,-0.7871,-0.2515,5.127,5.188,3.296,-107.595,31.509,-91.027
8722,-0.5317,-0.7568,-0.2373,9.888,5.493,6.775,-107.540,31.580,-91.110
8732,-0.5356,-0.7554,-0.2261,11.475,4.089,7.629,-107.457,31.663,-91.187
8742,-0.5332,-0.8174,-0.2119,9.399,2.319,4.639,-107.353,31.707,-91.225
8752,-0.5186,-0.8721,-0.2070,1.404,0.183,-1.709,-107.298,31.674,-91.225
8762,-0.4990,-0.8647,-0.2285,-10.071,-1.892,-6.531,-107.353,31.591,-91.181
8772,-0.4893,-0.8608,-0.2520,-17.639,-2.991,-7.263,-107.485,31.503,-91.121
8782,-0.5044,-0.8398,-0.2671,-19.165,-2.869,-4.578,-107.650,31.454,-91.071
8792,-0.5356,-0.7197,-0.2827,-15.869,-2.258,0.366,-107.831,31.492,-91.049
8802,-0.5811,-0.5396,-0.3062,-6.409,-0.916,7.812,-108.023,31.690,-91.066
8812,-0.6177,-0.4766,-0.3120,11.353,2.380,14.404,-108.105,31.970,-91.143
8822,-0.5928,-0.6812,-0.2461,31.555,5.310,10.254,-107.858,32.124,-91.241
8832,-0.5327,-0.9180,-0.1772,33.386,2.319,-5.554,-107.463,32.042,-91.247
8842,-0.4795,-1.0527,-0.1646,10.986,-6.287,-23.193,-107.188,31.761,-91.093
8852,-0.4263,-1.1509,-0.1748,-18.188,-14.709,-36.133,-107.133,31.349,-90.802
8862,-0.3965,-1.0972,-0.1768,-44.067,-19.714,-39.978,-107.303,30.910,-90.445
8872,-0.4341,-0.8413,-0.2373,-62.256,-19.836,-27.100,-107.743,30.668,-90.132
8882,-0.5020,-0.6753,-0.3242,-55.969,-10.559,-2.258,-108.314,30.712,-90.005
8892,-0.5381,-0.6704,-0.3354,-25.818,1.770,16.724,-108.693,30.910,-90.088
8902,-0.5503,-0.6885,-0.3115,8.362,11.414,22.705,-108.776,31.141,-90.297
8912,-0.5322,-0.7578,-0.2710,34.790,16.968,19.836,-108.572,31.295,-90.560
8922,-0.5049,-0.8867,-0.2187,45.227,17.395,13.550,-108.204,31.344,-90.802
8932,-0.4937,-0.9399,-0.1973,36.011,13.428,4.944,-107.869,31.306,-90.972
8942,-0.4814,-0.9189,-0.2051,17.273,9.399,-0.366,-107.699,31.234,-91.071
8952,-0.4971,-0.8271,-0.2358,-1.526,5.676,1.404,-107.732,31.218,-91.143
8962,-0.5371,-0.7344,-0.2783,-16.479,3.784,7.385,-107.957,31.306,-91.208
8972,-0.5566,-0.6577,-0.3042,-19.531,4.883,10.376,-108.270,31.454,-91.302
8982,-0.5703,-0.5952,-0.3252,-14.404,5.188,10.010,-108.561,31.619,-91.395
8992,-0.5693,-0.6602,-0.3184,-4.456,6.226,5.859,-108.726,31.712,-91.489
9002,-0.5337,-0.8145,-0.2808,4.028,5.859,-3.357,-108.715,31.663,-91.538
9012,-0.4985,-0.9136,-0.2544,2.014,2.075,-14.160,-108.649,31.487,-91.511
9022,-0.4761,-0.9565,-0.2705,-7.935,-1.526,-20.447,-108.649,31.240,-91.417
9032,-0.4531,-0.9468,-0.2861,-15.076,-2.502,-20.996,-108.726,30.987,-91.307
9042,-0.4409,-0.9512,-0.2915,-15.259,-1.892,-16.724,-108.820,30.762,-91.225
9052,-0.4512,-0.9395,-0.2910,-11.719,-0.549,-8.850,-108.896,30.619,-91.187
9062,-0.4712,-0.8511,-0.2998,-7.324,0.305,1.343,-108.979,30.602,-91.198
9072,-0.4941,-0.7773,-0.2969,2.380,1.648,11.047,-109.006,30.701,-91.258
9082,-0.5176,-0.7393,-0.2734,13.977,3.967,17.944,-108.935,30.883,-91.368
9092,-0.5347,-0.7485,-0.2432,21.851,5.615,20.020,-108.781,31.086,-91.505
9102,-0.5366,-0.7524,-0.2388,22.156,5.676,17.395,-108.616,31.262,-91.631
9112,-0.5410,-0.7656,-0.2446,15.991,5.188,12.024,-108.501,31.382,-91.736
9122,-0.5293,-0.7949,-0.2515,6.897,3.723,4.395,-108.452,31.426,-91.791
9132,-0.5244,-0.8027,-0.2646,-4.211,1.221,-2.258,-108.495,31.404,-91.796
9142,-0.5186,-0.8052,-0.2827,-13.367,-1.770,-5.798,-108.616,31.355,-91.758
9152,-0.5146,-0.8091,-0.2891,-16.968,-3.967,-7.141,-108.759,31.295,-91.686
9162,-0.5186,-0.7939,-0.2954,-15.259,-4.456,-7.080,-108.885,31.245,-91.609
9172,-0.5186,-0.8008,-0.2861,-9.155,-3.113,-5.188,-108.957,31.207,-91.555
9182,-0.5186,-0.7856,-0.2871,-1.709,-0.732,-2.502,-108.973,31.190,-91.538
9192,-0.5137,-0.7837,-0.2866,6.775,2.686,-0.793,-108.935,31.179,-91.566
9202,-0.4912,-0.8164,-0.2666,14.343,5.493,-0.122,-108.814,31.146,-91.626
9212,-0.4814,-0.8677,-0.2480,15.625,5.371,0.305,-108.660,31.102,-91.686
9222,-0.4858,-0.8760,-0.2476,9.705,2.747,0.671,-108.550,31.069,-91.719
9232,-0.5020,-0.8359,-0.2549,1.770,-0.671,1.648,-108.517,31.075,-91.719
9242,-0.5254,-0.7793,-0.2651,-4.028,-3.540,3.418,-108.550,31.135,-91.692
9252,-0.5522,-0.7271,-0.2676,-5.737,-5.127,3.845,-108.600,31.229,-91.648
9262,-0.5581,-0.6855,-0.2690,-3.601,-5.737,1.648,-108.633,31.322,-91.593
9272,-0.5420,-0.7153,-0.2700,1.526,-4.639,-2.441,-108.605,31.355,-91.533
9282,-0.5073,-0.8184,-0.2544,5.371,-2.258,-7.935,-108.512,31.278,-91.478
9292,-0.4824,-0.8843,-0.2510,2.258,-1.526,-12.207,-108.430,31.135,-91.412
9302,-0.4727,-0.9121,-0.2461,-4.700,-1.587,-12.756,-108.413,30.976,-91.351
9312,-0.4878,-0.8516,-0.2642,-10.803,-1.770,-9.277,-108.479,30.872,-91.296
9322,-0.5269,-0.7271,-0.2881,-10.620,-1.587,-2.380,-108.605,30.883,-91.269
9332,-0.5723,-0.5986,-0.2993,-3.479,-0.488,5.737,-108.726,31.036,-91.285
9342,-0.5781,-0.6362,-0.2866,9.827,1.099,9.521,-108.710,31.207,-91.335
9352,-0.5337,-0.8096,-0.2222,20.813,0.305,1.587,-108.474,31.234,-91.340
9362,-0.4927,-0.9121,-0.1982,13.672,-5.798,-10.925,-108.221,31.113,-91.236
9372,-0.4639,-0.9585,-0.2119,-3.113,-10.681,-19.775,-108.094,30.905,-91.044
9382,-0.4414,-0.9985,-0.2246,-17.334,-12.146,-22.766,-108.105,30.652,-90.829
9392,-0.4419,-0.9458,-0.2402,-26.733,-10.193,-20.020,-108.237,30.432,-90.643
9402,-0.4717,-0.8296,-0.2979,-28.809,-5.737,-10.864,-108.484,30.322,-90.544
9412,-0.5059,-0.7695,-0.3242,-17.273,1.465,0.366,-108.710,30.333,-90.560
9422,-0.5215,-0.7046,-0.3169,2.197,6.531,7.141,-108.792,30.416,-90.659
9432,-0.5132,-0.7500,-0.2969,20.752,9.888,9.583,-108.688,30.493,-90.802
9442,-0.4868,-0.8599,-0.2441,30.090,8.850,6.592,-108.419,30.509,-90.923
9452,-0.4805,-0.9087,-0.2202,22.827,2.686,1.099,-108.166,30.476,-90.956
9462,-0.4712,-0.9224,-0.2227,8.057,-2.258,-3.052,-108.023,30.416,-90.923
9472,-0.4751,-0.8906,-0.2373,-6.348,-5.188,-3.723,-108.018,30.366,-90.851
9482,-0.5020,-0.7993,-0.2671,-17.029,-6.104,-0.549,-108.155,30.383,-90.780
9492,-0.5288,-0.7275,-0.2959,-17.822,-3.479,3.784,-108.358,30.465,-90.758
9502,-0.5498,-0.6660,-0.3101,-9.949,0.244,5.798,-108.534,30.580,-90.780
9512,-0.5547,-0.6616,-0.3003,2.930,4.456,4.700,-108.600,30.679,-90.846
9522,-0.5254,-0.7383,-0.2661,15.503,7.385,-0.061,-108.501,30.685,-90.928
9532,-0.4932,-0.8359,-0.2378,17.700,6.409,-5.798,-108.320,30.602,-90.978
9542,-0.4683,-0.9370,-0.2266,9.277,3.662,-10.376,-108.182,30.443,-90.978
9552,-0.4551,-0.9897,-0.2383,-3.784,0.244,-13.123,-108.155,30.256,-90.934
9562,-0.4453,-0.9805,-0.2461,-15.381,-2.502,-12.695,-108.226,30.081,-90.862
9572,-0.4585,-0.8940,-0.2690,-21.912,-3.357,-7.751,-108.397,29.982,-90.797
9582,-0.4814,-0.8018,-0.3037,-18.250,-1.343,0.854,-108.594,29.987,-90.786
9592,-0.5005,-0.7705,-0.2979,-5.249,2.441,8.179,-108.699,30.064,-90.840
9602,-0.5200,-0.7324,-0.2842,8.179,5.249,11.292,-108.693,30.190,-90.939
9612,-0.5186,-0.7471,-0.2583,18.433,7.019,11.475,-108.578,30.306,-91.060
9622,-0.5107,-0.7754,-0.2368,21.362,6.592,9.644,-108.402,30.394,-91.170
9632,-0.5078,-0.8057,-0.2344,16.174,4.944,5.981,-108.259,30.443,-91.247
9642,-0.4937,-0.8652,-0.2266,7.019,3.601,0.427,-108.171,30.421,-91.285
9652,-0.4814,-0.8984,-0.2378,-5.432,1.831,-4.272,-108.199,30.344,-91.291
9662,-0.4785,-0.8823,-0.2603,-16.907,0.610,-6.287,-108.336,30.256,-91.274
9672,-0.4888,-0.8247,-0.2866,-22.034,0.488,-4.517,-108.561,30.201,-91.263
9682,-0.5024,-0.7642,-0.3125,-17.700,1.648,-0.244,-108.781,30.207,-91.280
9692,-0.5122,-0.7593,-0.3140,-5.920,3.479,3.418,-108.902,30.245,-91.329
9702,-0.5161,-0.7563,-0.3022,5.676,4.822,4.395,-108.907,30.289,-91.401
9712,-0.5083,-0.7769,-0.2876,12.939,4.883,3.540,-108.825,30.322,-91.467
9722,-0.4927,-0.8296,-0.2690,14.221,4.333,2.136,-108.704,30.317,-91.522
9732,-0.4756,-0.8701,-0.2554,9.216,2.258,-0.122,-108.600,30.284,-91.549
9742,-0.4687,-0.8779,-0.2573,1.038,-0.916,-1.099,-108.561,30.245,-91.533
9752,-0.4731,-0.8833,-0.2642,-5.249,-2.991,-0.122,-108.578,30.223,-91.500
9762,-0.4829,-0.8838,-0.2661,-8.179,-3.906,1.526,-108.622,30.223,-91.461
9772,-0.5005,-0.8154,-0.2837,-8.850,-3.784,3.967,-108.704,30.273,-91.434
9782,-0.5254,-0.7339,-0.2944,-3.784,-2.136,7.385,-108.776,30.377,-91.439
9792,-0.5391,-0.6694,-0.3013,5.737,0.244,10.315,-108.792,30.536,-91.483
9802,-0.5391,-0.6904,-0.2876,17.151,2.869,10.986,-108.699,30.679,-91.555
9812,-0.5044,-0.8213,-0.2534,23.437,3.723,7.202,-108.484,30.734,-91.620
9822,-0.4775,-0.9351,-0.2231,16.602,1.221,-0.183,-108.276,30.685,-91.637
9832,-0.4629,-0.9966,-0.2305,0.916,-2.808,-7.080,-108.182,30.564,-91.577
9842,-0.4590,-1.0000,-0.2349,-11.414,-4.822,-10.681,-108.204,30.416,-91.489
9852,-0.4927,-0.8115,-0.2812,-17.029,-4.578,-7.874,-108.342,30.350,-91.406
9862,-0.5342,-0.6514,-0.3315,-4.822,1.587,2.441,-108.484,30.427,-91.434
9872,-0.5430,-0.6143,-0.3247,24.475,11.230,11.658,-108.424,30.575,-91.599
9882,-0.5371,-0.6558,-0.2817,49.988,16.418,15.808,-108.094,30.734,-91.840
9892,-0.5215,-0.7690,-0.2290,54.932,13.855,16.052,-107.644,30.866,-92.049
9902,-0.5103,-0.8525,-0.1958,39.001,5.676,11.719,-107.265,30.954,-92.153
9914,-0.4976,-0.9028,-0.1758,9.644,-4.089,4.028,-107.089,30.981,-92.120
9922,-0.5063,-0.8882,-0.2021,-23.804,-12.085,-3.235,-107.210,30.965,-91.978
9932,-0.5259,-0.8315,-0.2471,-47.241,-15.320,-9.705,-107.567,30.921,-91.774
9942,-0.5283,-0.7939,-0.2939,-54.260,-12.573,-15.381,-108.029,30.822,-91.577
9952,-0.5083,-0.8091,-0.3140,-46.021,-6.653,-18.738,-108.446,30.663,-91.439
9962,-0.4810,-0.8169,-0.3335,-28.137,-1.221,-19.165,-108.721,30.465,-91.351
9972,-0.4580,-0.8267,-0.3232,-5.127,1.892,-15.076,-108.781,30.289,-91.318
9982,-0.4531,-0.8286,-0.2949,14.954,3.113,-6.104,-108.644,30.190,-91.329
9992,-0.4746,-0.8008,-0.2646,25.818,2.686,4.517,-108.408,30.218,-91.379
10002,-0.5093,-0.7461,-0.2427,28.809,2.380,12.329,-108.155,30.350,-91.445
10012,-0.5356,-0.7378,-0.2383,26.001,3.113,15.991,-107.941,30.536,-91.538
10022,-0.5278,-0.8345,-0.2163,20.203,3.784,11.047,-107.748,30.635,-91.620
10032,-0.5137,-0.8989,-0.2002,6.042,0.061,-1.099,-107.633,30.613,-91.615
10042,-0.4883,-0.9360,-0.2148,-12.024,-5.188,-12.573,-107.655,30.471,-91.516
10052,-0.4653,-0.9160,-0.2271,-24.475,-9.460,-18.799,-107.776,30.284,-91.346
10062,-0.4673,-0.8354,-0.2471,-27.527,-11.047,-16.418,-107.946,30.141,-91.165
10072,-0.4814,-0.7788,-0.2603,-21.362,-8.850,-6.042,-108.100,30.114,-91.044
10082,-0.5083,-0.7612,-0.2681,-8.484,-4.517,3.784,-108.182,30.185,-91.011
10092,-0.5195,-0.7563,-0.2515,4.639,-0.183,7.690,-108.149,30.284,-91.038
10102,-0.5127,-0.7886,-0.2344,12.451,3.296,7.935,-108.045,30.366,-91.099
10112,-0.4937,-0.8931,-0.2095,12.390,4.028,5.005,-107.902,30.377,-91.165
10122,-0.4678,-0.9609,-0.1992,2.502,1.404,-0.793,-107.825,30.317,-91.176
10132,-0.4570,-1.0127,-0.1997,-11.841,-2.563,-4.578,-107.853,30.218,-91.132
10142,-0.4771,-0.8867,-0.2393,-25.574,-6.104,-4.761,-108.034,30.163,-91.049
10152,-0.5083,-0.7109,-0.2905,-28.259,-5.188,2.197,-108.331,30.234,-91.000
10162,-0.5430,-0.6294,-0.3188,-16.052,0.366,11.230,-108.600,30.416,-91.044
10172,-0.5752,-0.5649,-0.3320,1.770,6.470,14.221,-108.759,30.635,-91.165
10182,-0.5630,-0.6187,-0.3208,19.348,12.024,10.254,-108.743,30.778,-91.335
10192,-0.5195,-0.8027,-0.2754,28.320,13.794,0.854,-108.545,30.745,-91.494
10202,-0.4893,-0.8970,-0.2588,19.775,9.644,-10.864,-108.358,30.586,-91.560
10212,-0.4600,-0.9761,-0.2646,4.150,4.822,-19.348,-108.276,30.328,-91.544
10222,-0.4414,-0.9702,-0.2773,-12.146,-0.366,-21.179,-108.331,30.059,-91.461
10232,-0.4497,-0.9063,-0.3047,-23.132,-3.479,-16.296,-108.512,29.872,-91.362
10242,-0.4653,-0.8115,-0.3330,-22.888,-2.747,-7.690,-108.748,29.789,-91.302
10252,-0.4785,-0.7681,-0.3320,-11.169,-0.183,0.977,-108.907,29.795,-91.307
10262,-0.4946,-0.7490,-0.3042,3.479,2.686,6.470,-108.929,29.866,-91.357
10272,-0.5020,-0.7393,-0.2773,13.794,4.822,8.911,-108.853,29.960,-91.445
10282,-0.5063,-0.7773,-0.2471,17.395,5.371,9.583,-108.715,30.053,-91.538
10292,-0.5103,-0.8271,-0.2290,11.475,3.906,6.897,-108.605,30.108,-91.609
10302,-0.5049,-0.8618,-0.2241,-1.343,1.465,1.221,-108.589,30.114,-91.626
10312,-0.4976,-0.8638,-0.2500,-15.259,-1.343,-4.089,-108.699,30.064,-91.599
10322,-0.4922,-0.8628,-0.2754,-21.973,-2.563,-7.324,-108.880,29.987,-91.544
10332,-0.4829,-0.8423,-0.2959,-19.775,-2.197,-8.545,-109.050,29.899,-91.489
10342,-0.4854,-0.8013,-0.3130,-11.108,-1.282,-5.859,-109.166,29.844,-91.450
10352,-0.4854,-0.8130,-0.3022,2.747,0.183,-0.732,-109.149,29.833,-91.450
10362,-0.4854,-0.8140,-0.2837,15.320,-0.061,3.235,-109.006,29.855,-91.461
10372,-0.4844,-0.8101,-0.2656,22.339,-1.160,5.859,-108.781,29.916,-91.472
10382,-0.4907,-0.8037,-0.2598,23.132,-2.380,8.179,-108.545,29.998,-91.478
10392,-0.4990,-0.8237,-0.2534,19.531,-3.235,8.972,-108.336,30.097,-91.472
10402,-0.4956,-0.8584,-0.2417,11.658,-4.517,6.897,-108.182,30.163,-91.450
10412,-0.4888,-0.8379,-0.2451,-0.305,-6.531,2.930,-108.138,30.201,-91.390
10422,-0.4907,-0.8511,-0.2432,-10.315,-8.301,0.122,-108.171,30.218,-91.296
10432,-0.5029,-0.8193,-0.2529,-16.235,-9.705,-2.014,-108.265,30.229,-91.181
10442,-0.5107,-0.7793,-0.2642,-15.564,-8.362,-3.052,-108.375,30.245,-91.082
10452,-0.5186,-0.7646,-0.2646,-8.484,-4.761,-2.014,-108.435,30.262,-91.022
10462,-0.5200,-0.7593,-0.2715,1.343,-1.038,-1.221,-108.424,30.284,-91.005
10472,-0.5039,-0.7812,-0.2622,11.780,2.991,-1.587,-108.325,30.267,-91.033
10482,-0.4849,-0.8379,-0.2456,17.578,5.615,-1.526,-108.155,30.223,-91.088
10492,-0.4673,-0.8979,-0.2378,14.954,4.944,-1.465,-108.001,30.163,-91.137
10502,-0.4546,-0.9600,-0.2163,8.179,2.563,-2.563,-107.875,30.075,-91.154
10512,-0.4600,-0.9688,-0.2104,-1.648,-1.587,-3.357,-107.820,29.998,-91.126
10522,-0.4946,-0.8921,-0.2075,-8.484,-1.221,-5.493,-107.842,29.932,-91.093
10532,-0.5220,-0.7676,-0.2456,-4.700,8.057,-7.935,-107.919,29.861,-91.154
10542,-0.5200,-0.6978,-0.2827,9.827,22.400,-6.714,-107.968,29.778,-91.379
10552,-0.4873,-0.7324,-0.2808,29.419,34.668,-4.395,-107.886,29.652,-91.741
10562,-0.4648,-0.7759,-0.2632,40.283,37.598,-0.549,-107.699,29.531,-92.148
10572,-0.4795,-0.7705,-0.2524,35.339,31.067,5.432,-107.529,29.498,-92.510
10582,-0.5093,-0.7236,-0.2612,22.278,21.423,10.193,-107.463,29.575,-92.780
10592,-0.5312,-0.7510,-0.2671,5.310,12.024,11.658,-107.518,29.691,-92.950
10602,-0.5361,-0.8086,-0.2661,-16.785,1.038,5.676,-107.704,29.762,-92.983
10612,-0.5195,-0.8315,-0.2837,-39.185,-10.315,-6.470,-108.034,29.745,-92.845
10622,-0.5049,-0.8384,-0.3296,-51.208,-18.982,-17.395,-108.446,29.630,-92.576
10632,-0.4653,-0.8745,-0.3560,-45.166,-21.423,-24.536,-108.770,29.438,-92.252
10642,-0.4360,-0.8823,-0.3604,-27.710,-18.372,-24.475,-108.940,29.218,-91.961
10652,-0.4204,-0.8755,-0.3452,-5.005,-11.780,-16.785,-108.924,29.048,-91.774
10662,-0.4204,-0.8809,-0.3135,16.602,-3.540,-3.662,-108.737,28.976,-91.719
10672,-0.4287,-0.9004,-0.2578,30.273,3.357,8.850,-108.446,29.004,-91.791
10682,-0.4536,-0.8672,-0.2251,30.518,6.409,17.883,-108.166,29.130,-91.923
10692,-0.4824,-0.8438,-0.2056,22.339,6.470,22.461,-107.974,29.323,-92.076
10702,-0.5186,-0.7773,-0.2148,8.972,3.174,21.118,-107.913,29.542,-92.186
10712,-0.5449,-0.7310,-0.2349,-2.075,-0.122,14.282,-107.957,29.734,-92.236
10722,-0.5298,-0.7749,-0.2339,-7.324,-3.296,3.967,-108.007,29.817,-92.214
10732,-0.5049,-0.8042,-0.2412,-10.864,-6.653,-5.737,-108.056,29.795,-92.120
10742,-0.4854,-0.8359,-0.2490,-13.428,-9.705,-10.254,-108.105,29.724,-91.978
10752,-0.4736,-0.8433,-0.2583,-13.123,-11.292,-9.155,-108.144,29.658,-91.818
10762,-0.4775,-0.8320,-0.2632,-9.888,-10.559,-4.639,-108.171,29.636,-91.686
10772,-0.4941,-0.7920,-0.2725,-3.662,-7.385,0.671,-108.177,29.674,-91.609
10782,-0.5044,-0.7681,-0.2793,4.639,-3.235,4.700,-108.144,29.751,-91.593
10792,-0.5059,-0.7920,-0.2705,12.146,0.183,6.042,-108.040,29.817,-91.615
10802,-0.4897,-0.8555,-0.2451,14.893,1.099,4.150,-107.886,29.844,-91.642
10813,-0.4858,-0.8530,-0.2427,8.850,-1.648,1.282,-107.770,29.850,-91.626
10822,-0.4761,-0.8745,-0.2402,0.061,-4.456,-0.610,-107.721,29.839,-91.577
10832,-0.4663,-0.8745,-0.2383,-8.850,-6.958,-1.587,-107.743,29.817,-91.494
10842,-0.4844,-0.8130,-0.2646,-17.456,-9.155,-1.099,-107.869,29.833,-91.390
10852,-0.4980,-0.7646,-0.2837,-17.944,-8.057,-0.305,-108.029,29.866,-91.302
10862,-0.4971,-0.7725,-0.2744,-12.512,-5.615,-0.122,-108.133,29.899,-91.236
10872,-0.5054,-0.7622,-0.2632,-9.644,-4.700,-0.732,-108.215,29.927,-91.187
10882,-0.4912,-0.8018,-0.2358,-11.963,-5.493,-0.916,-108.281,29.943,-91.121
10892,-0.4985,-0.8560,-0.2134,-21.484,-8.789,-1.526,-108.402,29.949,-91.016
10902,-0.5210,-0.8423,-0.2222,-35.156,-11.414,-6.104,-108.638,29.938,-90.873
10912,-0.5195,-0.8281,-0.2363,-42.603,-7.935,-14.221,-108.968,29.839,-90.731
10922,-0.4888,-0.8052,-0.2769,-41.870,0.305,-21.179,-109.341,29.641,-90.654
10932,-0.4771,-0.7837,-0.3281,-31.616,8.423,-22.583,-109.693,29.399,-90.659
10942,-0.4644,-0.7852,-0.3628,-9.766,15.015,-18.494,-109.885,29.169,-90.753
10952,-0.4395,-0.8374,-0.3564,17.883,17.944,-10.315,-109.814,28.976,-90.906
10962,-0.4346,-0.9004,-0.3276,37.231,15.015,-0.488,-109.523,28.878,-91.066
10972,-0.4487,-0.9209,-0.2939,41.687,7.935,7.751,-109.149,28.883,-91.181
10982,-0.4551,-0.9141,-0.2651,33.813,0.000,13.794,-108.809,28.976,-91.230
10992,-0.4683,-0.8770,-0.2583,16.846,-7.141,16.968,-108.611,29.141,-91.219
11002,-0.4844,-0.8169,-0.2632,-1.953,-12.268,15.869,-108.583,29.333,-91.143
11012,-0.5083,-0.7563,-0.2773,-16.235,-15.076,11.963,-108.704,29.520,-91.022
11022,-0.5283,-0.7305,-0.2979,-20.935,-13.428,6.226,-108.885,29.663,-90.901
11032,-0.5142,-0.7593,-0.3013,-15.259,-7.324,-0.244,-109.023,29.713,-90.818
11042,-0.4946,-0.8018,-0.2979,-3.906,0.061,-5.371,-109.067,29.663,-90.797
11052,-0.4800,-0.8472,-0.2900,8.667,6.653,-6.714,-109.001,29.564,-90.846
11062,-0.4639,-0.8735,-0.2788,18.494,10.986,-4.211,-108.858,29.465,-90.950
11072,-0.4551,-0.9155,-0.2632,22.705,11.658,0.977,-108.666,29.394,-91.082
11082,-0.4639,-0.9004,-0.2563,18.677,8.179,5.859,-108.506,29.394,-91.192
11092,-0.4800,-0.8467,-0.2583,9.766,2.991,9.094,-108.430,29.460,-91.258
11102,-0.4946,-0.7881,-0.2583,1.404,-1.709,10.132,-108.419,29.575,-91.274
11112,-0.5156,-0.7236,-0.2646,-5.127,-6.042,8.606,-108.468,29.718,-91.241
11122,-0.5322,-0.6978,-0.2749,-7.324,-7.690,4.822,-108.539,29.844,-91.170
11132,-0.5278,-0.7383,-0.2661,-3.845,-5.554,-1.404,-108.561,29.888,-91.110
11142,-0.5122,-0.7856,-0.2617,0.671,-1.648,-7.507,-108.528,29.839,-91.060
11152,-0.4902,-0.8438,-0.2544,4.272,2.808,-10.803,-108.463,29.724,-91.055
11162,-0.4717,-0.8691,-0.2515,5.859,6.714,-10.132,-108.402,29.586,-91.088
11172,-0.4624,-0.8745,-0.2617,5.676,8.850,-5.920,-108.364,29.476,-91.165
11182,-0.4614,-0.8638,-0.2739,5.249,8.484,-0.793,-108.347,29.416,-91.252
11192,-0.4683,-0.8296,-0.2808,4.517,5.981,3.418,-108.347,29.416,-91.329
11202,-0.4785,-0.8110,-0.2910,4.150,2.686,5.920,-108.342,29.460,-91.384
11212,-0.4785,-0.8257,-0.2808,4.456,-0.732,5.676,-108.309,29.509,-91.395
11222,-0.4741,-0.8472,-0.2705,1.770,-5.188,3.906,-108.265,29.548,-91.351
11232,-0.4775,-0.8662,-0.2686,-3.052,-8.850,2.014,-108.243,29.575,-91.263
11242,-0.4927,-0.8423,-0.2764,-6.653,-9.460,0.366,-108.254,29.603,-91.159
11252,-0.5000,-0.8188,-0.2847,-5.127,-5.493,0.427,-108.287,29.630,-91.104
11262,-0.4990,-0.7881,-0.2925,0.122,0.916,1.221,-108.314,29.647,-91.115
11272,-0.5024,-0.7466,-0.2935,6.470,6.409,1.587,-108.320,29.669,-91.192
11282,-0.5068,-0.7363,-0.2827,12.939,9.521,1.465,-108.270,29.680,-91.302
11292,-0.5034,-0.7861,-0.2554,16.296,9.277,0.183,-108.155,29.674,-91.401
11302,-0.4980,-0.8252,-0.2339,11.475,5.127,-1.770,-108.045,29.641,-91.456
11313,-0.4912,-0.8403,-0.2310,0.671,-0.793,-3.174,-108.001,29.614,-91.434
11322,-0.4878,-0.8618,-0.2339,-9.521,-5.798,-4.028,-108.029,29.586,-91.357
11332,-0.4897,-0.8633,-0.2524,-17.151,-8.728,-4.517,-108.127,29.559,-91.241
11342,-0.4883,-0.8560,-0.2656,-19.226,-7.385,-5.005,-108.259,29.526,-91.143
11352,-0.4829,-0.8271,-0.2749,-15.442,-1.831,-6.226,-108.391,29.465,-91.104
11362,-0.4683,-0.8223,-0.2837,-8.179,6.836,-6.714,-108.506,29.372,-91.154
11372,-0.4570,-0.8428,-0.2817,-1.892,14.709,-6.409,-108.589,29.240,-91.291
11382,-0.4517,-0.8594,-0.2754,-0.183,18.250,-4.700,-108.671,29.114,-91.472
11392,-0.4575,-0.8569,-0.2734,-2.014,16.541,-1.709,-108.765,29.026,-91.642
11402,-0.4663,-0.8501,-0.2754,-4.944,10.986,1.282,-108.864,28.987,-91.769
11412,-0.4878,-0.8101,-0.2881,-6.958,3.418,3.662,-108.962,29.015,-91.818
11422,-0.5010,-0.7808,-0.3022,-4.761,-2.502,4.883,-109.028,29.086,-91.807
11432,-0.4990,-0.7793,-0.3003,0.549,-6.409,4.639,-109.017,29.169,-91.758
11442,-0.5000,-0.7822,-0.2969,4.822,-8.240,2.747,-108.951,29.240,-91.681
11452,-0.4902,-0.8140,-0.2803,7.996,-6.897,-0.427,-108.836,29.262,-91.604
11462,-0.4683,-0.8618,-0.2524,7.812,-3.723,-2.930,-108.710,29.229,-91.549
11472,-0.4585,-0.8931,-0.2305,2.930,-0.732,-3.296,-108.627,29.174,-91.533
11482,-0.4487,-0.9243,-0.2158,-3.784,2.136,-2.502,-108.616,29.103,-91.544
11492,-0.4507,-0.9165,-0.2134,-9.521,4.333,-0.977,-108.677,29.048,-91.588
11502,-0.4683,-0.8467,-0.2378,-11.780,5.737,2.808,-108.798,29.042,-91.659
11512,-0.4907,-0.7773,-0.2666,-5.920,8.118,7.996,-108.913,29.108,-91.780
11522,-0.5181,-0.7095,-0.2866,4.517,10.315,12.451,-108.979,29.246,-91.934
11532,-0.5293,-0.6870,-0.2998,15.808,12.634,14.282,-108.957,29.399,-92.126
11542,-0.5117,-0.7397,-0.2876,23.804,12.939,11.719,-108.836,29.498,-92.313
11552,-0.4951,-0.8169,-0.2695,19.836,7.690,6.531,-108.688,29.542,-92.417
11562,-0.4829,-0.8501,-0.2700,5.676,-0.671,0.183,-108.616,29.531,-92.411
11572,-0.4722,-0.8789,-0.2764,-10.010,-8.240,-4.089,-108.649,29.498,-92.307
11582,-0.4707,-0.9023,-0.2886,-22.888,-13.062,-6.165,-108.787,29.449,-92.142
11592,-0.4751,-0.8765,-0.3081,-28.687,-13.733,-7.202,-108.995,29.405,-91.967
11602,-0.4858,-0.7827,-0.3403,-23.499,-9.460,-5.615,-109.210,29.383,-91.840
11612,-0.5000,-0.7212,-0.3550,-5.737,-1.282,-1.343,-109.330,29.399,-91.824
11622,-0.4980,-0.7446,-0.3379,18.311,7.507,1.343,-109.237,29.405,-91.912
11632,-0.4751,-0.8032,-0.2935,35.217,12.268,1.587,-108.968,29.377,-92.049
11642,-0.4585,-0.8442,-0.2612,36.865,10.559,1.282,-108.644,29.339,-92.170
11652,-0.4580,-0.9009,-0.2324,27.893,4.883,1.221,-108.353,29.301,-92.225
11662,-0.4712,-0.9185,-0.2197,11.719,-2.930,0.916,-108.171,29.290,-92.197
11672,-0.4775,-0.8867,-0.2280,-5.554,-9.338,1.038,-108.144,29.312,-92.098
11682,-0.4888,-0.8232,-0.2466,-17.883,-13.245,1.892,-108.237,29.372,-91.961
11692,-0.5093,-0.7778,-0.2617,-19.897,-13.245,2.014,-108.375,29.460,-91.824
11702,-0.5244,-0.7490,-0.2695,-13.611,-9.705,1.343,-108.474,29.542,-91.725
11712,-0.5083,-0.7500,-0.2783,-3.113,-4.089,-0.061,-108.501,29.581,-91.681
11722,-0.4907,-0.7681,-0.2798,7.446,1.221,-1.465,-108.446,29.581,-91.686
11732,-0.4712,-0.8350,-0.2734,14.832,4.395,-2.625,-108.314,29.526,-91.725
11742,-0.4492,-0.9414,-0.2544,15.381,4.333,-3.052,-108.149,29.438,-91.763
11752,-0.4502,-0.9639,-0.2515,6.653,0.488,-2.258,-108.045,29.361,-91.758
11762,-0.4546,-0.9312,-0.2656,-3.174,-3.662,0.916,-108.040,29.339,-91.719
11772,-0.4775,-0.8491,-0.2749,-8.301,-6.287,5.127,-108.094,29.394,-91.670
11782,-0.5166,-0.7173,-0.2871,-7.629,-7.385,8.789,-108.182,29.548,-91.620
11792,-0.5459,-0.6201,-0.2876,-0.427,-6.165,10.620,-108.237,29.756,-91.593
11802,-0.5498,-0.6021,-0.2720,9.583,-3.540,8.667,-108.204,29.949,-91.588
11813,-0.5376,-0.6924,-0.2534,14.587,-1.343,2.747,-108.073,30.042,-91.582
11822,-0.5024,-0.8457,-0.2231,10.559,-0.671,-6.653,-107.919,29.976,-91.549
11832,-0.4536,-0.9868,-0.2261,-2.441,-1.770,-15.991,-107.858,29.773,-91.472
11842,-0.4204,-1.0781,-0.2437,-16.663,-2.869,-20.935,-107.919,29.498,-91.368
11852,-0.4062,-1.0596,-0.2661,-25.879,-3.113,-18.494,-108.089,29.240,-91.269
11862,-0.4272,-0.9365,-0.2993,-26.062,-2.136,-6.836,-108.320,29.125,-91.219
11872,-0.4697,-0.8047,-0.3335,-14.832,0.793,9.644,-108.528,29.207,-91.263
11882,-0.5049,-0.6729,-0.3247,6.592,4.089,21.057,-108.594,29.438,-91.384
11892,-0.5400,-0.5981,-0.2983,28.687,6.775,25.024,-108.474,29.745,-91.549
11902,-0.5430,-0.6504,-0.2515,43.457,7.690,21.729,-108.149,30.009,-91.714
11915,-0.5220,-0.7778,-0.2012,43.091,5.371,11.658,-107.732,30.130,-91.813
11922,-0.4951,-0.8564,-0.1855,25.696,0.854,-1.221,-107.430,30.114,-91.818
11932,-0.4834,-0.9023,-0.2139,1.404,-3.052,-10.132,-107.336,29.998,-91.752
11942,-0.4717,-0.9580,-0.2236,-17.639,-4.395,-15.015,-107.419,29.828,-91.653
11952,-0.4644,-0.9429,-0.2471,-31.433,-3.662,-15.198,-107.661,29.652,-91.560
11962,-0.4766,-0.8271,-0.2910,-36.438,-1.221,-8.972,-108.018,29.559,-91.516
11972,-0.5029,-0.7222,-0.3247,-26.062,2.441,0.122,-108.347,29.581,-91.538
11982,-0.5117,-0.6758,-0.3164,-3.479,5.859,6.287,-108.495,29.669,-91.626
11992,-0.5127,-0.6841,-0.2988,17.944,7.996,7.202,-108.424,29.762,-91.741
12002,-0.4971,-0.7871,-0.2588,30.518,8.057,4.089,-108.166,29.784,-91.846
12012,-0.4805,-0.9087,-0.2222,27.893,5.676,-1.221,-107.875,29.729,-91.901
12022,-0.4561,-0.9521,-0.2231,12.390,1.465,-5.737,-107.704,29.625,-91.895
12032,-0.4429,-0.9727,-0.2324,-3.784,-2.014,-6.592,-107.677,29.509,-91.851
12042,-0.4595,-0.9199,-0.2480,-14.893,-4.700,-4.150,-107.765,29.449,-91.785
12052,-0.4800,-0.8340,-0.2798,-19.531,-5.188,1.526,-107.941,29.471,-91.736
12062,-0.4990,-0.7607,-0.2930,-14.160,-3.235,6.226,-108.105,29.559,-91.719
12072,-0.5166,-0.6982,-0.2905,-2.258,-0.793,6.836,-108.182,29.674,-91.736
12082,-0.5122,-0.7031,-0.2812,10.742,1.831,5.127,-108.133,29.762,-91.774
12092,-0.5044,-0.7700,-0.2695,18.066,2.747,2.014,-107.985,29.789,-91.813
12102,-0.4873,-0.8501,-0.2549,16.052,1.770,-2.136,-107.814,29.756,-91.824
12112,-0.4634,-0.9092,-0.2554,7.202,-0.061,-5.615,-107.715,29.669,-91.802
12122,-0.4512,-0.9526,-0.2598,-2.380,-2.563,-6.348,-107.688,29.564,-91.752
12132,-0.4570,-0.9561,-0.2593,-9.094,-4.822,-4.150,-107.721,29.493,-91.686
12142,-0.4639,-0.9014,-0.2671,-12.329,-5.127,0.671,-107.803,29.482,-91.631
12152,-0.4795,-0.8110,-0.2783,-9.399,-3.174,6.897,-107.902,29.553,-91.620
12162,-0.5049,-0.7266,-0.2710,0.610,0.183,11.414,-107.941,29.696,-91.664
12172,-0.5347,-0.6797,-0.2637,11.963,4.150,13.184,-107.902,29.872,-91.758
12182,-0.5308,-0.7085,-0.2549,21.240,7.935,10.437,-107.770,29.998,-91.879
12192,-0.5103,-0.7788,-0.2378,24.231,9.216,3.845,-107.584,30.026,-91.994
12202,-0.4819,-0.8599,-0.2266,17.334,6.775,-2.380,-107.413,29.971,-92.060
12212,-0.4644,-0.9214,-0.2251,4.639,2.380,-6.165,-107.331,29.866,-92.065
12222,-0.4707,-0.9106,-0.2378,-7.935,-2.686,-6.897,-107.358,29.773,-92.016
12232,-0.4868,-0.8794,-0.2495,-14.893,-5.371,-4.028,-107.457,29.734,-91.939
12242,-0.4951,-0.8262,-0.2607,-14.587,-5.432,0.183,-107.573,29.751,-91.884
12252,-0.5098,-0.7441,-0.2739,-8.118,-3.662,3.967,-107.666,29.833,-91.857
12262,-0.5156,-0.7109,-0.2749,2.747,-0.427,5.920,-107.682,29.932,-91.873
12272,-0.5161,-0.7456,-0.2612,12.390,2.747,4.822,-107.595,30.004,-91.917
12282,-0.4956,-0.8213,-0.2456,15.442,4.333,0.854,-107.457,29.998,-91.972
12292,-0.4634,-0.9009,-0.2314,9.949,3.784,-3.357,-107.347,29.916,-92.000
12302,-0.4453,-0.9512,-0.2368,-0.427,1.404,-5.371,-107.314,29.811,-91.994
12313,-0.4546,-0.9409,-0.2456,-10.010,-1.648,-4.517,-107.369,29.724,-91.961
12322,-0.4751,-0.8838,-0.2490,-15.137,-3.174,-0.916,-107.485,29.702,-91.923
12332,-0.5029,-0.7935,-0.2554,-14.465,-1.221,4.333,-107.633,29.756,-91.928
12342,-0.5142,-0.7119,-0.2480,-6.531,4.639,9.094,-107.754,29.877,-92.010
12352,-0.5293,-0.6724,-0.2324,3.540,13.184,11.963,-107.825,30.020,-92.197
12362,-0.5317,-0.6836,-0.2300,10.437,22.034,12.329,-107.869,30.130,-92.483
12372,-0.5220,-0.7642,-0.2305,11.536,27.771,8.728,-107.913,30.157,-92.818
12382,-0.4976,-0.8569,-0.2319,3.784,27.222,2.197,-108.001,30.086,-93.126
12392,-0.4722,-0.9141,-0.2466,-9.033,21.912,-4.333,-108.171,29.943,-93.351
12402,-0.4614,-0.9263,-0.2754,-20.630,14.587,-8.423,-108.424,29.778,-93.483
12412,-0.4658,-0.8774,-0.3047,-24.231,7.202,-9.827,-108.693,29.630,-93.521
12422,-0.4819,-0.8354,-0.3286,-19.775,0.977,-8.057,-108.907,29.537,-93.505
12432,-0.4868,-0.8154,-0.3374,-9.644,-3.967,-4.700,-109.006,29.498,-93.444
12442,-0.4912,-0.7788,-0.3398,2.380,-8.728,-2.563,-108.979,29.509,-93.340
12452,-0.4883,-0.7671,-0.3228,13.733,-12.329,-1.343,-108.814,29.542,-93.203
12462,-0.4741,-0.8267,-0.2905,19.592,-12.207,-0.244,-108.561,29.570,-93.065
12472,-0.4702,-0.8315,-0.2729,14.648,-10.620,0.366,-108.358,29.592,-92.950
12482,-0.4766,-0.8252,-0.2661,4.517,-7.629,0.977,-108.265,29.619,-92.873
12492,-0.4780,-0.8413,-0.2593,-3.967,-4.333,0.916,-108.276,29.630,-92.829
12502,-0.4829,-0.8550,-0.2520,-10.681,-2.441,-0.305,-108.347,29.625,-92.802
12512,-0.4917,-0.8311,-0.2617,-14.832,-1.770,-1.526,-108.474,29.614,-92.774
12522,-0.4878,-0.8281,-0.2661,-11.047,-0.732,-2.014,-108.567,29.592,-92.763
12532,-0.4854,-0.8291,-0.2627,-2.930,-0.183,-1.404,-108.583,29.575,-92.752
12542,-0.4878,-0.8076,-0.2627,4.761,-0.488,0.793,-108.528,29.586,-92.752
12552,-0.4893,-0.8154,-0.2632,11.292,-1.099,3.357,-108.413,29.625,-92.752
12562,-0.4868,-0.8203,-0.2603,15.259,-2.380,4.517,-108.248,29.674,-92.741
12572,-0.4946,-0.8096,-0.2583,14.954,-4.089,5.249,-108.083,29.740,-92.714
12582,-0.4927,-0.8232,-0.2490,12.329,-5.371,5.127,-107.930,29.806,-92.675
12592,-0.4917,-0.8286,-0.2393,7.629,-6.592,3.540,-107.803,29.855,-92.615
12602,-0.4946,-0.8257,-0.2378,1.953,-6.897,1.648,-107.732,29.894,-92.543
12612,-0.4932,-0.8257,-0.2393,-2.258,-5.920,0.305,-107.710,29.916,-92.483
12622,-0.4937,-0.8262,-0.2471,-4.395,-4.333,-0.610,-107.715,29.921,-92.433
12632,-0.4956,-0.8203,-0.2554,-4.089,-2.441,-0.977,-107.737,29.921,-92.401
12642,-0.4951,-0.8228,-0.2646,-1.404,-0.244,-0.671,-107.748,29.916,-92.395
12652,-0.4893,-0.8276,-0.2729,1.770,1.648,-0.305,-107.743,29.899,-92.411
12662,-0.4814,-0.8306,-0.2759,4.028,2.380,-0.305,-107.726,29.877,-92.439
12672,-0.4702,-0.8340,-0.2744,5.188,1.587,-0.122,-107.688,29.855,-92.455
12682,-0.4839,-0.8276,-0.2671,5.005,-0.610,0.427,-107.639,29.855,-92.450
12692,-0.5049,-0.8228,-0.2593,4.272,-2.930,0.854,-107.578,29.877,-92.422
12702,-0.5146,-0.8091,-0.2554,3.296,-4.089,0.732,-107.523,29.910,-92.379
12712,-0.5039,-0.7891,-0.2490,2.258,-4.639,0.183,-107.474,29.938,-92.329
12722,-0.5044,-0.7720,-0.2451,1.221,-5.188,-0.366,-107.435,29.971,-92.269
12732,-0.5024,-0.7725,-0.2441,-0.122,-5.371,-1.221,-107.408,29.993,-92.208
12742,-0.4971,-0.7861,-0.2466,-1.404,-4.395,-3.113,-107.391,29.987,-92.148
12752,-0.4868,-0.8193,-0.2534,-3.113,-3.052,-5.188,-107.397,29.943,-92.098
12762,-0.4727,-0.8774,-0.2554,-4.517,-1.709,-6.897,-107.408,29.855,-92.054
12772,-0.4663,-0.9170,-0.2622,-5.737,-1.526,-7.874,-107.430,29.751,-92.010
12782,-0.4644,-0.9272,-0.2666,-5.920,-1.648,-6.836,-107.452,29.652,-91.967
12792,-0.4629,-0.9150,-0.2661,-2.869,-0.977,-3.296,-107.457,29.586,-91.945
12803,-0.4746,-0.8726,-0.2671,2.136,0.122,1.892,-107.435,29.581,-91.956
12813,-0.4863,-0.8066,-0.2573,8.301,1.282,6.836,-107.375,29.647,-91.994
12822,-0.4941,-0.7534,-0.2461,13.916,2.075,9.644,-107.271,29.751,-92.049
12832,-0.5063,-0.7339,-0.2378,16.174,2.197,9.888,-107.144,29.877,-92.104
12842,-0.5063,-0.7627,-0.2241,13.000,1.221,7.202,-107.029,29.965,-92.142
12852,-0.5015,-0.8096,-0.2178,3.906,-1.404,1.648,-106.963,29.993,-92.131
12863,-0.4956,-0.8438,-0.2271,-7.507,-4.578,-4.395,-106.990,29.960,-92.065
12873,-0.4922,-0.8784,-0.2437,-15.747,-6.592,-8.057,-107.078,29.888,-91.967
12883,-0.4873,-0.8799,-0.2559,-18.127,-6.104,-8.789,-107.205,29.806,-91.873
12893,-0.4932,-0.8379,-0.2725,-14.404,-3.296,-5.493,-107.325,29.756,-91.818
12903,-0.4883,-0.8188,-0.2729,-3.601,1.770,0.000,-107.380,29.751,-91.835
12913,-0.4819,-0.8110,-0.2705,9.155,5.737,4.089,-107.342,29.767,-91.912
12923,-0.4756,-0.8052,-0.2603,18.005,7.324,5.920,-107.216,29.800,-92.016
12933,-0.4751,-0.8408,-0.2354,21.240,7.080,6.897,-107.040,29.828,-92.115
12942,-0.4834,-0.8423,-0.2202,16.296,4.028,6.409,-106.886,29.872,-92.181
12953,-0.5015,-0.8130,-0.2227,6.531,0.427,5.005,-106.820,29.927,-92.203
12963,-0.5176,-0.7905,-0.2246,-1.587,-1.709,2.930,-106.820,29.982,-92.192
12973,-0.5337,-0.7666,-0.2344,-7.324,-2.625,0.732,-106.880,30.031,-92.164
12983,-0.5317,-0.7563,-0.2451,-9.155,-1.465,-1.099,-106.974,30.064,-92.148
12993,-0.5073,-0.7891,-0.2505,-7.202,0.916,-3.357,-107.051,30.042,-92.148
13003,-0.4839,-0.8110,-0.2588,-4.639,2.625,-5.127,-107.106,29.982,-92.159
13013,-0.4683,-0.8574,-0.2598,-1.709,3.418,-5.005,-107.133,29.905,-92.181
13023,-0.4600,-0.8784,-0.2627,0.549,3.113,-3.784,-107.133,29.828,-92.197
13033,-0.4712,-0.8682,-0.2656,1.953,1.831,-1.404,-107.122,29.784,-92.214
13043,-0.4839,-0.8628,-0.2603,4.395,0.610,1.099,-107.078,29.778,-92.225
13053,-0.5005,-0.8311,-0.2563,5.859,-1.038,2.747,-107.018,29.806,-92.225
13063,-0.5166,-0.7886,-0.2554,6.287,-2.502,3.845,-106.957,29.872,-92.208
13073,-0.5078,-0.7866,-0.2456,6.226,-3.845,4.211,-106.886,29.938,-92.181
13083,-0.5000,-0.7808,-0.2422,3.174,-5.493,2.869,-106.837,29.998,-92.131
13093,-0.4927,-0.7988,-0.2412,-2.258,-6.226,0.122,-106.826,30.020,-92.060
13103,-0.4756,-0.8604,-0.2310,-7.568,-5.554,-3.723,-106.842,29.982,-91.989
13113,-0.4731,-0.8936,-0.2451,-13.489,-4.456,-7.385,-106.924,29.899,-91.912
13123,-0.4707,-0.8970,-0.2544,-15.015,-1.526,-8.850,-107.040,29.789,-91.868
13133,-0.4883,-0.8501,-0.2734,-10.986,2.380,-6.287,-107.161,29.713,-91.873
13143,-0.5020,-0.7920,-0.2876,-2.014,5.981,-0.305,-107.238,29.702,-91.934
13153,-0.5088,-0.7573,-0.2817,9.277,7.751,4.333,-107.227,29.745,-92.038
13163,-0.5063,-0.7617,-0.2598,17.273,6.409,4.944,-107.117,29.795,-92.126
13173,-0.4932,-0.7915,-0.2427,17.395,2.563,3.113,-106.963,29.828,-92.164
13183,-0.4854,-0.8325,-0.2295,10.132,-2.136,-0.610,-106.831,29.822,-92.137
13193,-0.4712,-0.8750,-0.2266,-1.099,-6.409,-4.639,-106.776,29.773,-92.049
13203,-0.4639,-0.9048,-0.2310,-11.353,-9.155,-7.385,-106.804,29.696,-91.923
13213,-0.4712,-0.8838,-0.2412,-17.334,-9.705,-7.935,-106.897,29.625,-91.791
13223,-0.4785,-0.8608,-0.2568,-15.686,-7.080,-5.493,-107.001,29.581,-91.697
13233,-0.4873,-0.8423,-0.2593,-7.874,-2.625,-1.831,-107.062,29.564,-91.659
13243,-0.4966,-0.8076,-0.2578,1.343,1.282,1.343,-107.067,29.581,-91.681
13253,-0.4971,-0.7896,-0.2480,9.094,4.028,3.479,-107.007,29.614,-91.736
13263,-0.4976,-0.7686,-0.2397,12.451,4.822,3.906,-106.919,29.658,-91.802
13273,-0.4990,-0.7764,-0.2368,12.024,4.395,3.052,-106.826,29.696,-91.862
13283,-0.4961,-0.8013,-0.2266,8.240,3.113,0.977,-106.754,29.707,-91.895
13293,-0.4932,-0.8135,-0.2271,1.282,0.732,-1.709,-106.732,29.691,-91.901
13303,-0.4927,-0.8286,-0.2310,-4.883,-1.221,-3.784,-106.754,29.663,-91.873
13313,-0.4902,-0.8364,-0.2363,-8.179,-2.258,-4.700,-106.809,29.619,-91.835
13323,-0.4932,-0.8354,-0.2437,-8.606,-2.258,-4.395,-106.870,29.586,-91.796
13333,-0.4976,-0.8145,-0.2480,-6.775,-1.343,-3.418,-106.924,29.564,-91.769
13343,-0.5000,-0.8037,-0.2515,-2.869,0.305,-2.197,-106.952,29.553,-91.763
13353,-0.4961,-0.8027,-0.2578,1.038,2.136,-1.404,-106.963,29.542,-91.780
13363,-0.4839,-0.8208,-0.2642,3.723,3.479,-0.732,-106.952,29.526,-91.818
13373,-0.4668,-0.8647,-0.2646,4.456,3.662,0.183,-106.924,29.493,-91.857
13383,-0.4556,-0.9063,-0.2617,1.770,1.770,0.916,-106.913,29.460,-91.884
13393,-0.4531,-0.9282,-0.2568,-3.723,-1.404,1.404,-106.930,29.432,-91.873
13403,-0.4536,-0.9302,-0.2554,-9.583,-4.517,1.282,-106.985,29.416,-91.824
13413,-0.4561,-0.9199,-0.2593,-12.756,-6.042,1.221,-107.067,29.405,-91.763
13423,-0.4668,-0.8789,-0.2661,-11.658,-5.676,2.136,-107.155,29.421,-91.708
13433,-0.4897,-0.7881,-0.2788,-6.104,-3.906,4.578,-107.227,29.482,-91.681
13443,-0.5132,-0.7153,-0.2866,3.662,-0.916,7.812,-107.243,29.603,-91.697
13453,-0.5122,-0.7212,-0.2686,14.832,2.136,8.301,-107.155,29.713,-91.747
13463,-0.4951,-0.7529,-0.2490,19.958,2.502,4.944,-106.990,29.778,-91.796
13473,-0.4746,-0.8340,-0.2217,17.578,-0.244,0.244,-106.793,29.767,-91.791
13483,-0.4580,-0.9224,-0.2021,8.667,-5.127,-3.784,-106.628,29.707,-91.725
13493,-0.4546,-0.9824,-0.2017,-2.808,-9.338,-5.554,-106.545,29.630,-91.599
13503,-0.4604,-0.9995,-0.2056,-11.169,-9.033,-4.700,-106.551,29.559,-91.489
13513,-0.4736,-0.9238,-0.2275,-13.428,-3.845,-0.061,-106.639,29.537,-91.445
13523,-0.5083,-0.7637,-0.2676,-7.874,4.395,9.155,-106.782,29.636,-91.522
13533,-0.5459,-0.6172,-0.2939,7.874,13.794,18.555,-106.891,29.866,-91.736
13543,-0.5635,-0.5762,-0.2866,28.320,20.508,22.339,-106.859,30.130,-92.038
13553,-0.5542,-0.6641,-0.2397,39.917,19.592,17.090,-106.628,30.317,-92.313
13563,-0.5161,-0.8169,-0.1968,33.020,11.536,4.456,-106.342,30.339,-92.455
13573,-0.4780,-0.9277,-0.1846,11.047,-0.427,-9.216,-106.166,30.218,-92.417
13583,-0.4531,-0.9990,-0.1885,-12.390,-11.108,-17.883,-106.144,30.015,-92.236
13593,-0.4409,-1.0024,-0.1948,-27.466,-15.015,-19.226,-106.249,29.806,-92.010
13603,-0.4458,-0.9526,-0.2300,-32.471,-12.146,-11.780,-106.458,29.674,-91.835
13613,-0.4888,-0.8428,-0.2764,-25.085,-3.845,0.977,-106.705,29.685,-91.796
13623,-0.5171,-0.7427,-0.2983,-5.554,6.653,11.475,-106.864,29.811,-91.912
13633,-0.5210,-0.6973,-0.2930,17.700,15.259,16.235,-106.859,29.965,-92.131
13643,-0.5181,-0.7036,-0.2734,32.349,17.700,15.442,-106.705,30.108,-92.379
13653,-0.5103,-0.7612,-0.2383,32.532,13.184,9.338,-106.479,30.185,-92.554
13663,-0.4932,-0.8042,-0.2271,18.005,3.479,0.671,-106.315,30.185,-92.598
13673,-0.4810,-0.8696,-0.2187,-1.282,-6.897,-7.690,-106.254,30.108,-92.494
13683,-0.4805,-0.8794,-0.2163,-20.325,-15.198,-12.695,-106.326,30.009,-92.285
13693,-0.5044,-0.8242,-0.2417,-33.691,-18.372,-11.536,-106.540,29.954,-92.043
13703,-0.5142,-0.7749,-0.2744,-34.973,-14.893,-6.531,-106.826,29.954,-91.857
13713,-0.5161,-0.7388,-0.2861,-24.597,-9.033,-2.686,-107.056,29.987,-91.747
13723,-0.5176,-0.7144,-0.2881,-9.460,-3.784,-1.465,-107.177,30.026,-91.703
13733,-0.4966,-0.7749,-0.2803,5.371,0.488,-1.892,-107.150,30.015,-91.703
13743,-0.4766,-0.8647,-0.2617,13.733,2.014,-4.211,-107.012,29.949,-91.708
13753,-0.4570,-0.9268,-0.2554,12.573,0.610,-6.348,-106.870,29.839,-91.697
13763,-0.4409,-0.9614,-0.2490,7.751,-1.892,-5.615,-106.749,29.734,-91.653
13773,-0.4580,-0.9321,-0.2524,2.991,-5.432,-3.174,-106.666,29.674,-91.588
13783,-0.4824,-0.8726,-0.2427,1.160,-7.812,-0.671,-106.600,29.674,-91.494
13793,-0.4956,-0.8208,-0.2275,1.892,-8.179,1.099,-106.529,29.713,-91.412
13803,-0.5024,-0.7739,-0.2100,2.869,-7.080,2.014,-106.452,29.778,-91.340
13813,-0.5044,-0.7744,-0.1953,2.686,-5.127,1.892,-106.375,29.833,-91.285
13823,-0.4907,-0.8037,-0.1958,1.099,-2.747,-0.183,-106.326,29.850,-91.258
13833,-0.4834,-0.8369,-0.1938,-1.465,-0.244,-2.380,-106.298,29.822,-91.247
13843,-0.4785,-0.8638,-0.2041,-4.150,2.563,-3.174,-106.320,29.767,-91.263
13853,-0.4888,-0.8438,-0.2236,-4.944,5.249,-2.625,-106.381,29.724,-91.313
13863,-0.5117,-0.7979,-0.2466,-2.502,7.446,-0.549,-106.452,29.718,-91.395
13873,-0.5195,-0.7593,-0.2510,3.906,8.728,1.404,-106.479,29.740,-91.494
13883,-0.5239,-0.7275,-0.2466,8.789,7.385,1.648,-106.458,29.778,-91.582
13893,-0.5215,-0.7305,-0.2368,9.644,3.540,0.610,-106.397,29.817,-91.626
13903,-0.4985,-0.8013,-0.2295,6.287,-0.793,-2.319,-106.326,29.811,-91.609
13916,-0.4634,-0.8965,-0.2212,-1.709,-4.333,-7.019,-106.282,29.724,-91.538
13923,-0.4380,-0.9688,-0.2329,-11.963,-5.676,-10.193,-106.326,29.581,-91.439
13933,-0.4321,-0.9829,-0.2529,-18.677,-4.150,-10.315,-106.452,29.432,-91.362
13943,-0.4424,-0.9399,-0.2764,-17.700,-0.061,-6.897,-106.617,29.317,-91.340
13953,-0.4717,-0.8608,-0.3018,-9.583,4.883,-0.122,-106.765,29.279,-91.390
13963,-0.4937,-0.8042,-0.3003,3.601,8.606,6.348,-106.820,29.323,-91.505
13973,-0.4990,-0.7632,-0.2764,15.503,9.399,9.583,-106.765,29.410,-91.642
13983,-0.5034,-0.7373,-0.2495,20.203,6.775,10.376,-106.639,29.520,-91.752
13993,-0.5054,-0.7588,-0.2271,17.517,1.770,8.301,-106.485,29.625,-91.796
14003,-0.5034,-0.7754,-0.2217,8.179,-4.028,3.174,-106.381,29.691,-91.763
14013,-0.4907,-0.7988,-0.2227,-3.052,-8.789,-2.808,-106.353,29.696,-91.659
14023,-0.4844,-0.8350,-0.2314,-10.986,-12.268,-7.019,-106.375,29.663,-91.500
14033,-0.4888,-0.8408,-0.2441,-14.160,-13.916,-8.911,-106.425,29.608,-91.318
14043,-0.4888,-0.8511,-0.2471,-12.085,-12.207,-7.874,-106.463,29.564,-91.159
14053,-0.4883,-0.8521,-0.2495,-6.287,-8.240,-5.188,-106.469,29.531,-91.049
14063,-0.4873,-0.8564,-0.2437,1.160,-3.418,-2.563,-106.430,29.504,-91.005
14073,-0.4863,-0.8545,-0.2432,6.958,0.427,-0.305,-106.359,29.493,-91.005
14083,-0.4771,-0.8521,-0.2437,10.437,2.991,1.343,-106.271,29.487,-91.044
14093,-0.4712,-0.8467,-0.2417,10.986,4.028,1.648,-106.183,29.476,-91.093
14103,-0.4761,-0.8374,-0.2349,8.728,3.662,0.366,-106.111,29.465,-91.137
14113,-0.4863,-0.8281,-0.2251,-1.221,1.343,-4.028,-106.117,29.421,-91.137
14123,-0.4912,-0.8081,-0.2354,-4.272,0.305,-5.005,-106.150,29.383,-91.126
14133,-0.4912,-0.8037,-0.2412,-4.517,-0.977,-4.639,-106.188,29.350,-91.099
14143,-0.4917,-0.8105,-0.2441,-4.211,-3.479,-3.723,-106.210,29.333,-91.049
14153,-0.4844,-0.8203,-0.2520,-3.296,-6.165,-2.625,-106.216,29.328,-90.972
14163,-0.4702,-0.8232,-0.2607,-0.793,-8.301,-1.953,-106.188,29.323,-90.873
14173,-0.4580,-0.8506,-0.2578,3.479,-9.216,-0.916,-106.111,29.317,-90.769
14183,-0.4551,-0.8906,-0.2520,7.263,-8.667,0.366,-105.991,29.317,-90.676
14193,-0.4575,-0.9038,-0.2422,8.789,-6.714,1.221,-105.859,29.312,-90.604
14203,-0.4712,-0.8828,-0.2349,8.484,-3.784,2.502,-105.749,29.328,-90.571
14213,-0.4854,-0.8506,-0.2271,7.996,-0.610,4.456,-105.667,29.366,-90.577
14223,-0.5005,-0.8066,-0.2163,7.080,1.831,5.310,-105.606,29.427,-90.615
14233,-0.5132,-0.7754,-0.2100,5.676,3.296,4.761,-105.573,29.493,-90.665
14243,-0.5132,-0.7710,-0.2046,3.784,3.906,2.625,-105.551,29.542,-90.720
14253,-0.5020,-0.7837,-0.2041,1.038,3.113,-0.732,-105.546,29.548,-90.753
14263,-0.4849,-0.8252,-0.2007,-1.953,1.770,-4.089,-105.551,29.509,-90.758
14273,-0.4624,-0.8882,-0.2031,-4.944,0.183,-6.592,-105.568,29.416,-90.742
14283,-0.4487,-0.9312,-0.2119,-7.935,-1.404,-7.446,-105.595,29.306,-90.703
14293,-0.4453,-0.9692,-0.2227,-7.874,-1.465,-6.165,-105.634,29.202,-90.665
14303,-0.4526,-0.9458,-0.2417,-2.991,0.122,-3.662,-105.645,29.125,-90.654
14314,-0.4600,-0.9116,-0.2490,7.019,3.723,0.610,-105.590,29.086,-90.698
14323,-0.4683,-0.8521,-0.2397,17.944,7.019,5.920,-105.463,29.114,-90.797
14333,-0.4932,-0.7812,-0.2275,23.865,8.179,11.108,-105.293,29.218,-90.917
14343,-0.5107,-0.7329,-0.2163,22.949,7.385,13.367,-105.134,29.372,-91.038
14353,-0.5190,-0.7036,-0.2090,15.320,4.822,11.719,-105.040,29.531,-91.126
14363,-0.5239,-0.6968,-0.2046,3.540,1.038,6.409,-105.035,29.652,-91.159
14373,-0.5288,-0.7183,-0.2144,-7.507,-1.953,-0.977,-105.112,29.702,-91.137
14383,-0.5181,-0.7749,-0.2251,-12.817,-1.953,-8.362,-105.227,29.658,-91.088
14393,-0.5020,-0.8286,-0.2388,-11.841,1.221,-12.756,-105.342,29.542,-91.066
14403,-0.4731,-0.8911,-0.2432,-6.287,5.859,-13.672,-105.414,29.372,-91.088
14413,-0.4482,-0.9238,-0.2476,0.793,8.789,-10.681,-105.430,29.202,-91.154
14423,-0.4297,-0.9517,-0.2397,7.141,8.667,-4.272,-105.386,29.081,-91.236
14433,-0.4258,-0.9492,-0.2266,9.460,5.493,3.296,-105.309,29.042,-91.302
14443,-0.4375,-0.9004,-0.2197,7.812,1.648,9.888,-105.238,29.097,-91.351
14453,-0.4653,-0.8535,-0.2134,4.333,-1.343,14.282,-105.200,29.224,-91.379
14463,-0.4990,-0.8140,-0.2114,0.793,-2.930,13.977,-105.189,29.383,-91.390
14473,-0.5210,-0.7612,-0.2202,-1.465,-2.502,9.705,-105.211,29.520,-91.390
14483,-0.5220,-0.7646,-0.2207,-0.854,-0.366,3.845,-105.233,29.597,-91.401
14493,-0.5161,-0.7773,-0.2222,0.244,0.854,-1.831,-105.238,29.603,-91.401
14503,-0.5034,-0.8062,-0.2236,0.732,1.038,-5.066,-105.233,29.570,-91.401
14513,-0.4883,-0.8530,-0.2163,1.282,0.854,-6.653,-105.205,29.498,-91.390
14523,-0.4673,-0.8848,-0.2144,0.854,-0.244,-6.592,-105.172,29.410,-91.368
14533,-0.4492,-0.9043,-0.2153,-0.061,-1.587,-4.211,-105.139,29.339,-91.335
14543,-0.4497,-0.8789,-0.2222,-0.671,-2.747,-0.488,-105.123,29.312,-91.302
14553,-0.4702,-0.8286,-0.2319,0.244,-3.235,3.357,-105.112,29.344,-91.280
14563,-0.4907,-0.7896,-0.2378,3.052,-3.052,6.104,-105.090,29.427,-91.263
14573,-0.5073,-0.7725,-0.2358,5.798,-2.930,6.958,-105.046,29.526,-91.252
14583,-0.5122,-0.7852,-0.2246,6.653,-3.357,5.005,-104.980,29.608,-91.230
14593,-0.5059,-0.8130,-0.2061,4.150,-4.456,0.488,-104.903,29.641,-91.181
14603,-0.4917,-0.8560,-0.1890,-0.977,-5.249,-4.517,-104.854,29.608,-91.110
14613,-0.4829,-0.8906,-0.1929,-7.141,-5.493,-7.629,-104.859,29.531,-91.027
14623,-0.4619,-0.9253,-0.2036,-11.108,-3.723,-8.850,-104.914,29.421,-90.956
14633,-0.4541,-0.9155,-0.2256,-11.719,-0.488,-7.019,-105.002,29.317,-90.934
14643,-0.4600,-0.8633,-0.2456,-7.812,2.930,-2.502,-105.101,29.262,-90.956
14653,-0.4800,-0.8091,-0.2559,0.305,5.371,2.625,-105.156,29.279,-91.022
14663,-0.5005,-0.7534,-0.2490,8.911,5.920,5.615,-105.139,29.344,-91.104
14673,-0.5127,-0.7334,-0.2324,13.245,4.761,6.165,-105.068,29.438,-91.176
14683,-0.5181,-0.7329,-0.2104,10.864,1.404,4.028,-104.980,29.520,-91.203
14693,-0.5229,-0.7549,-0.1929,3.418,-2.747,-0.488,-104.925,29.564,-91.176
14703,-0.5166,-0.7866,-0.1851,-6.775,-5.981,-5.798,-104.936,29.553,-91.088
14713,-0.4951,-0.8345,-0.2075,-15.503,-6.531,-10.315,-105.029,29.476,-90.989
14723,-0.4663,-0.9014,-0.2280,-18.066,-3.967,-13.428,-105.161,29.328,-90.901
14733,-0.4360,-0.9624,-0.2417,-14.587,0.000,-14.587,-105.271,29.136,-90.857
14743,-0.4185,-0.9995,-0.2598,-6.775,4.211,-11.902,-105.337,28.938,-90.868
14753,-0.4077,-0.9990,-0.2651,5.615,7.751,-5.493,-105.309,28.790,-90.939
14763,-0.4141,-0.9790,-0.2476,18.860,8.972,3.723,-105.161,28.740,-91.049
14773,-0.4395,-0.9111,-0.2153,26.794,7.874,12.878,-104.941,28.806,-91.176
14783,-0.4839,-0.8184,-0.1953,26.489,5.249,19.165,-104.716,28.987,-91.285
14793,-0.5259,-0.7363,-0.1865,19.958,1.587,20.203,-104.551,29.235,-91.362
14803,-0.5449,-0.6792,-0.1880,9.705,-2.075,15.137,-104.474,29.471,-91.384
14814,-0.5449,-0.6499,-0.1948,-2.869,-5.676,6.165,-104.502,29.636,-91.340
14823,-0.5400,-0.6631,-0.2051,-13.611,-8.118,-3.479,-104.612,29.702,-91.236
14833,-0.5195,-0.7314,-0.2144,-17.944,-7.996,-12.024,-104.749,29.652,-91.115
14843,-0.4839,-0.8315,-0.2227,-16.479,-5.859,-17.639,-104.854,29.498,-91.000
14853,-0.4463,-0.9678,-0.2246,-12.146,-2.319,-18.616,-104.919,29.273,-90.917
14863,-0.4175,-1.0400,-0.2227,-7.629,1.221,-15.320,-104.952,29.042,-90.884
14873,-0.4116,-1.0273,-0.2290,-3.540,4.150,-7.385,-104.974,28.889,-90.912
14883,-0.4282,-0.9600,-0.2378,0.916,7.019,3.357,-104.996,28.845,-90.994
14893,-0.4619,-0.8477,-0.2329,5.127,9.277,12.146,-105.013,28.927,-91.137
14903,-0.4971,-0.7461,-0.2427,7.935,10.498,16.785,-105.046,29.092,-91.302
14913,-0.5166,-0.7109,-0.2344,9.216,9.399,14.771,-105.057,29.268,-91.450
14923,-0.5156,-0.7222,-0.2207,6.653,5.554,7.629,-105.051,29.377,-91.533
14933,-0.5005,-0.7827,-0.2090,0.610,0.854,-0.610,-105.046,29.394,-91.538
14943,-0.4697,-0.8740,-0.1992,-6.042,-2.625,-5.920,-105.062,29.323,-91.494
14953,-0.4512,-0.9580,-0.1963,-10.071,-4.211,-7.202,-105.095,29.218,-91.423
14963,-0.4390,-0.9932,-0.1968,-9.949,-2.747,-5.066,-105.134,29.119,-91.379
14973,-0.4429,-0.9512,-0.2104,-6.531,1.038,0.916,-105.178,29.081,-91.395
14983,-0.4614,-0.8770,-0.2285,0.916,6.287,8.606,-105.211,29.125,-91.489
14993,-0.4912,-0.8076,-0.2368,9.583,11.719,14.038,-105.205,29.240,-91.659
15003,-0.5103,-0.7397,-0.2441,14.893,15.015,15.259,-105.194,29.388,-91.873
15013,-0.5186,-0.7153,-0.2422,14.282,13.428,12.451,-105.178,29.520,-92.060
15023,-0.5215,-0.7231,-0.2407,7.629,7.080,6.714,-105.183,29.619,-92.159
15033,-0.5122,-0.7559,-0.2310,-0.854,-0.977,-0.671,-105.205,29.647,-92.142
15043,-0.4976,-0.8184,-0.2310,-9.094,-7.568,-6.348,-105.249,29.614,-92.043
15053,-0.4839,-0.8794,-0.2334,-14.343,-11.841,-9.277,-105.309,29.537,-91.884
15063,-0.4658,-0.8965,-0.2446,-14.954,-12.024,-9.094,-105.375,29.454,-91.719
15073,-0.4556,-0.8896,-0.2607,-9.338,-7.446,-5.859,-105.430,29.383,-91.620
15083,-0.4551,-0.8804,-0.2612,0.244,-1.099,-1.038,-105.430,29.350,-91.604
15093,-0.4624,-0.8521,-0.2505,8.118,3.418,3.113,-105.381,29.350,-91.653
15103,-0.4736,-0.8193,-0.2407,11.475,5.432,5.798,-105.315,29.388,-91.730
15113,-0.4937,-0.8008,-0.2241,10.864,4.578,5.554,-105.244,29.443,-91.796
15123,-0.5063,-0.7915,-0.2104,6.897,0.916,1.770,-105.183,29.482,-91.813
15133,-0.5088,-0.8125,-0.2031,1.099,-3.723,-2.747,-105.134,29.482,-91.763
15143,-0.5044,-0.8384,-0.2031,-4.883,-8.179,-6.592,-105.112,29.449,-91.653
15153,-0.4810,-0.8750,-0.2036,-8.118,-11.047,-8.728,-105.101,29.383,-91.505
15163,-0.4614,-0.8989,-0.2065,-8.972,-11.475,-7.324,-105.095,29.312,-91.357
15173,-0.4600,-0.8867,-0.2090,-7.263,-8.667,-3.418,-105.101,29.279,-91.247
15183,-0.4687,-0.8530,-0.2139,-3.052,-3.662,1.160,-105.101,29.284,-91.214
15193,-0.4780,-0.8198,-0.2129,1.831,1.709,5.310,-105.095,29.333,-91.247
15203,-0.4873,-0.7944,-0.2187,5.676,6.531,7.874,-105.090,29.405,-91.346
15213,-0.4937,-0.7861,-0.2300,8.667,9.705,8.057,-105.079,29.471,-91.472
15223,-0.4883,-0.8105,-0.2285,9.949,8.972,5.249,-105.040,29.504,-91.588
15233,-0.4912,-0.8286,-0.2280,7.019,4.272,1.221,-105.002,29.509,-91.642
15243,-0.4873,-0.8535,-0.2236,2.197,-1.709,-1.770,-104.963,29.493,-91.615
15253,-0.4800,-0.8701,-0.2290,-2.258,-7.019,-3.113,-104.941,29.465,-91.527
15263,-0.4731,-0.8735,-0.2295,-6.042,-10.986,-3.052,-104.936,29.443,-91.401
15273,-0.4707,-0.8770,-0.2178,-7.446,-11.597,-2.014,-104.936,29.438,-91.263
15283,-0.4775,-0.8779,-0.2065,-7.324,-7.568,0.122,-104.947,29.443,-91.181
15293,-0.4888,-0.8545,-0.2085,-6.653,-0.366,2.747,-105.002,29.465,-91.187
15303,-0.4985,-0.8350,-0.2104,-4.456,7.385,5.066,-105.084,29.498,-91.280
15314,-0.5049,-0.8042,-0.2153,-1.526,13.000,6.287,-105.178,29.542,-91.445
15323,-0.5015,-0.7930,-0.2227,0.488,14.526,5.676,-105.266,29.581,-91.620
15333,-0.4897,-0.8032,-0.2246,1.465,11.414,3.357,-105.326,29.592,-91.758
15343,-0.4756,-0.8345,-0.2178,1.892,4.822,1.160,-105.326,29.581,-91.818
15353,-0.4648,-0.8735,-0.2070,1.343,-1.587,0.061,-105.282,29.564,-91.802
15363,-0.4580,-0.8896,-0.1973,0.000,-5.737,0.183,-105.227,29.553,-91.736
15373,-0.4590,-0.8789,-0.1890,-1.099,-6.592,1.465,-105.172,29.559,-91.670
15383,-0.4736,-0.8838,-0.1875,-1.404,-2.869,3.601,-105.145,29.581,-91.648
15393,-0.4824,-0.8564,-0.1982,-1.892,3.052,4.639,-105.167,29.608,-91.692
15403,-0.4922,-0.8237,-0.2114,-1.953,8.789,5.005,-105.233,29.641,-91.807
15413,-0.5137,-0.7861,-0.2295,-1.343,12.390,4.883,-105.331,29.680,-91.961
15423,-0.5254,-0.7539,-0.2515,-0.122,12.695,3.784,-105.436,29.718,-92.109
15433,-0.5220,-0.7603,-0.2563,1.587,10.376,1.709,-105.513,29.740,-92.230
15443,-0.5059,-0.7788,-0.2539,1.770,5.615,-1.099,-105.546,29.734,-92.291
15453,-0.4844,-0.8159,-0.2471,0.366,0.732,-3.479,-105.557,29.702,-92.291
15463,-0.4746,-0.8438,-0.2378,-2.563,-3.235,-4.456,-105.557,29.652,-92.241
15473,-0.4736,-0.8604,-0.2349,-5.188,-5.066,-3.967,-105.573,29.614,-92.170
15483,-0.4785,-0.8750,-0.2329,-6.042,-4.089,-2.563,-105.601,29.581,-92.115
15494,-0.4873,-0.8667,-0.2437,-5.920,-0.977,-0.427,-105.656,29.570,-92.104
15503,-0.4912,-0.8433,-0.2529,-3.906,3.174,1.587,-105.721,29.570,-92.142
15513,-0.4932,-0.8042,-0.2598,-0.244,6.409,2.747,-105.787,29.586,-92.225
15523,-0.4946,-0.7725,-0.2622,3.906,7.324,2.441,-105.820,29.608,-92.313
15533,-0.4956,-0.7700,-0.2632,6.897,5.676,0.671,-105.815,29.614,-92.379
15543,-0.4810,-0.8003,-0.2500,7.080,1.465,-2.197,-105.765,29.592,-92.390
15553,-0.4712,-0.8511,-0.2300,3.418,-3.906,-4.883,-105.694,29.542,-92.329
15563,-0.4663,-0.8911,-0.2134,-2.258,-8.240,-6.165,-105.645,29.482,-92.219
15573,-0.4609,-0.9263,-0.1963,-6.531,-9.216,-5.493,-105.612,29.416,-92.098
15583,-0.4756,-0.9155,-0.1987,-9.094,-6.470,-2.258,-105.628,29.388,-92.021
15593,-0.4907,-0.8716,-0.2109,-7.996,-1.648,2.258,-105.683,29.405,-92.010
15603,-0.5015,-0.8174,-0.2290,-3.296,3.357,6.470,-105.743,29.471,-92.065
15613,-0.5010,-0.7817,-0.2393,3.235,6.592,8.789,-105.771,29.559,-92.170
15623,-0.4985,-0.7568,-0.2466,7.629,6.287,7.996,-105.765,29.641,-92.263
15633,-0.4917,-0.7456,-0.2446,9.460,2.808,4.578,-105.721,29.702,-92.307
15644,-0.4707,-0.7876,-0.2290,8.301,-2.686,0.977,-105.628,29.718,-92.280
15653,-0.4707,-0.8486,-0.2114,1.831,-7.996,-1.587,-105.546,29.713,-92.186
15663,-0.4722,-0.8906,-0.1934,-7.812,-9.705,-2.625,-105.535,29.691,-92.071
15673,-0.4834,-0.9233,-0.1929,-15.015,-4.578,-1.770,-105.617,29.658,-92.016
15683,-0.4893,-0.9131,-0.2021,-16.785,3.540,-0.305,-105.771,29.625,-92.054
15693,-0.4932,-0.8755,-0.2266,-13.794,11.658,2.075,-105.963,29.603,-92.186
15703,-0.4858,-0.8320,-0.2495,-7.507,16.235,5.249,-106.139,29.608,-92.384
15714,-0.4883,-0.7866,-0.2637,0.366,15.442,7.690,-106.254,29.647,-92.582
15723,-0.4995,-0.7515,-0.2622,7.202,10.132,7.629,-106.282,29.713,-92.719
15733,-0.5034,-0.7490,-0.2563,10.315,0.427,4.150,-106.216,29.778,-92.736
15743,-0.4985,-0.7715,-0.2495,8.057,-11.353,-1.038,-106.089,29.822,-92.604
15753,-0.4912,-0.8271,-0.2202,2.136,-20.142,-5.493,-105.936,29.822,-92.368
15763,-0.4878,-0.8818,-0.1992,-5.798,-20.935,-6.897,-105.837,29.800,-92.109
15773,-0.4844,-0.9033,-0.1982,-13.000,-12.085,-5.127,-105.859,29.762,-91.961
15783,-0.4790,-0.9043,-0.2021,-15.930,2.563,-2.502,-105.991,29.707,-91.983
15793,-0.4731,-0.8794,-0.2222,-14.038,17.273,0.610,-106.210,29.647,-92.175
15804,-0.4722,-0.8369,-0.2456,-8.423,26.245,4.211,-106.441,29.597,-92.477
15814,-0.4702,-0.8120,-0.2549,-0.366,27.771,6.958,-106.617,29.581,-92.807
15823,-0.4800,-0.8003,-0.2549,7.019,23.560,7.568,-106.694,29.586,-93.093
15833,-0.4868,-0.8125,-0.2539,9.705,15.503,6.165,-106.699,29.603,-93.285
15844,-0.4863,-0.8379,-0.2466,7.812,5.615,3.113,-106.655,29.614,-93.356
15854,-0.5054,-0.8408,-0.2520,2.075,-4.028,-0.061,-106.611,29.625,-93.312
15864,-0.5039,-0.8306,-0.2651,-4.211,-8.179,-1.160,-106.617,29.641,-93.219
15874,-0.5059,-0.8169,-0.2729,-7.019,-7.263,-0.977,-106.666,29.663,-93.131
15884,-0.5073,-0.7891,-0.2832,-6.714,-3.479,-0.305,-106.743,29.685,-93.093
15894,-0.4956,-0.7837,-0.2798,-3.296,0.671,0.183,-106.809,29.696,-93.104
15904,-0.4810,-0.7847,-0.2710,1.099,3.174,0.061,-106.837,29.691,-93.137
15917,-0.4814,-0.7788,-0.2637,4.333,3.418,-0.671,-106.831,29.680,-93.175
15924,-0.4834,-0.7856,-0.2573,6.165,2.380,-2.014,-106.793,29.663,-93.192
15934,-0.4824,-0.8203,-0.2427,6.104,-0.732,-3.357,-106.721,29.630,-93.175
15944,-0.4966,-0.8125,-0.2451,2.502,-4.700,-3.967,-106.666,29.614,-93.109
15954,-0.4927,-0.8398,-0.2451,-0.366,-7.080,-3.967,-106.617,29.592,-93.016
15964,-0.4883,-0.8560,-0.2485,-2.869,-8.362,-4.028,-106.589,29.570,-92.911
15974,-0.4824,-0.8735,-0.2412,-4.822,-7.874,-3.479,-106.578,29.542,-92.813
15984,-0.4751,-0.8887,-0.2358,-5.798,-4.395,-2.136,-106.595,29.515,-92.758
15994,-0.4629,-0.8994,-0.2334,-5.066,0.732,-0.671,-106.628,29.476,-92.763
16004,-0.4546,-0.8857,-0.2378,-3.662,5.371,0.916,-106.677,29.438,-92.823
16014,-0.4604,-0.8652,-0.2378,-0.732,7.812,2.502,-106.716,29.416,-92.922
