elapsed_ms,acc_x_g,acc_y_g,acc_z_g,gyro_x_dps,gyro_y_dps,gyro_z_dps,angle_x_deg,angle_y_deg,angle_z_deg
0,-0.5190,-0.8848,-0.1133,-19.165,3.296,-12.939,-98.795,34.228,-73.455
10,-0.5249,-0.7261,-0.1523,-33.081,-2.319,-5.676,-99.130,34.184,-73.416
20,-0.5454,-0.5449,-0.2148,-30.823,-6.775,6.409,-99.520,34.343,-73.350
30,-0.5762,-0.5688,-0.2520,-11.597,-7.507,15.625,-99.745,34.596,-73.290
40,-0.5898,-0.7368,-0.2305,9.705,-7.812,11.963,-99.690,34.755,-73.224
50,-0.5610,-0.9111,-0.1929,16.602,-9.521,-0.671,-99.481,34.728,-73.109
60,-0.5195,-1.1016,-0.1484,6.226,-11.536,-13.489,-99.305,34.514,-72.938
70,-0.4961,-1.1680,-0.1162,-15.991,-15.503,-22.461,-99.300,34.206,-72.713
80,-0.4810,-1.0220,-0.1143,-37.109,-20.935,-21.057,-99.476,33.942,-72.422
90,-0.4902,-0.7935,-0.1309,-44.006,-24.414,-6.042,-99.745,33.898,-72.120
100,-0.5361,-0.6592,-0.1543,-32.166,-24.902,13.489,-99.948,34.118,-71.851
110,-0.6045,-0.6079,-0.1582,-11.292,-22.949,24.780,-99.987,34.492,-71.631
120,-0.6255,-0.6841,-0.1416,9.216,-18.188,22.644,-99.816,34.821,-71.461
130,-0.6089,-0.8647,-0.1045,22.156,-10.986,9.216,-99.503,34.931,-71.345
140,-0.5776,-1.0352,-0.0713,18.677,-4.272,-7.446,-99.223,34.805,-71.279
150,-0.5400,-1.1421,-0.0493,0.977,0.977,-19.470,-99.130,34.519,-71.252
160,-0.4863,-0.9854,-0.0566,-20.203,1.099,-19.531,-99.261,34.244,-71.230
170,-0.4961,-0.7534,-0.0918,-29.175,-1.892,-3.113,-99.509,34.206,-71.202
180,-0.5552,-0.5986,-0.1182,-18.799,-2.625,19.287,-99.717,34.481,-71.208
190,-0.6011,-0.4839,-0.1436,1.831,-2.441,34.485,-99.789,34.975,-71.246
200,-0.6216,-0.5962,-0.1558,23.682,0.732,36.133,-99.651,35.431,-71.334
210,-0.6206,-0.8228,-0.1211,33.630,5.310,23.804,-99.371,35.667,-71.444
220,-0.5996,-0.9419,-0.0762,21.179,6.470,4.700,-99.163,35.667,-71.532
230,-0.5669,-0.9614,-0.0708,-4.272,4.517,-10.437,-99.179,35.508,-71.570
240,-0.5337,-0.8608,-0.0835,-25.574,1.953,-15.625,-99.388,35.310,-71.559
250,-0.5283,-0.7251,-0.1064,-33.752,-1.160,-9.155,-99.695,35.228,-71.526
260,-0.5649,-0.6748,-0.1406,-28.381,-1.465,3.113,-99.992,35.305,-71.516
270,-0.6045,-0.6641,-0.1699,-16.907,-0.183,10.193,-100.212,35.464,-71.537
280,-0.6206,-0.7153,-0.1841,-4.578,2.747,6.775,-100.327,35.574,-71.587
290,-0.6060,-0.8223,-0.1758,5.554,7.751,-3.662,-100.338,35.524,-71.669
300,-0.5767,-0.9409,-0.1855,8.667,12.756,-13.733,-100.333,35.321,-71.796
310,-0.5396,-1.0762,-0.1826,6.836,17.029,-20.386,-100.349,35.002,-71.955
320,-0.4922,-1.0571,-0.1831,0.244,15.747,-19.470,-100.426,34.684,-72.103
330,-0.4766,-0.9517,-0.2021,-5.310,11.902,-6.470,-100.563,34.514,-72.230
340,-0.5054,-0.8013,-0.2100,-2.197,7.812,12.329,-100.695,34.585,-72.350
350,-0.5547,-0.5952,-0.2139,9.399,3.296,29.297,-100.756,34.931,-72.455
360,-0.5972,-0.4751,-0.2192,28.076,0.793,40.527,-100.673,35.464,-72.559
370,-0.6304,-0.5654,-0.1919,48.889,2.747,40.649,-100.344,35.964,-72.686
380,-0.6377,-0.7349,-0.1191,56.152,4.333,28.137,-99.844,36.277,-72.795
390,-0.6240,-0.8247,-0.0625,40.649,1.526,10.864,-99.410,36.387,-72.839
400,-0.5972,-0.9058,-0.0366,12.512,-1.465,-4.211,-99.196,36.321,-72.812
410,-0.5859,-0.8892,-0.0366,-17.944,-4.456,-15.076,-99.256,36.151,-72.729
420,-0.5601,-0.7695,-0.0620,-41.016,-7.324,-18.005,-99.542,35.986,-72.603
430,-0.5503,-0.7017,-0.0825,-49.561,-7.263,-12.329,-99.943,35.898,-72.488
440,-0.5864,-0.6855,-0.1279,-46.509,-6.714,-4.456,-100.355,35.903,-72.400
451,-0.6191,-0.7642,-0.1597,-34.973,-3.296,-3.296,-100.690,35.903,-72.350
460,-0.6113,-0.8613,-0.1772,-21.729,1.831,-9.460,-100.909,35.799,-72.350
470,-0.5850,-0.9980,-0.1943,-10.986,8.484,-16.968,-101.058,35.557,-72.416
480,-0.5464,-1.0298,-0.1997,-4.700,13.733,-20.935,-101.173,35.250,-72.532
490,-0.5020,-0.8604,-0.2070,1.587,15.137,-15.564,-101.261,35.013,-72.675
500,-0.5049,-0.6812,-0.2144,16.785,13.855,0.854,-101.250,34.997,-72.845
510,-0.5361,-0.5942,-0.1846,40.833,12.634,18.555,-101.019,35.206,-73.037
520,-0.5723,-0.5771,-0.1328,59.875,10.681,28.931,-100.558,35.557,-73.235
530,-0.5977,-0.6685,-0.0840,62.805,7.690,30.884,-99.998,35.903,-73.400
540,-0.6187,-0.8799,-0.0166,46.936,5.127,22.888,-99.509,36.112,-73.510
550,-0.6162,-1.0259,0.0254,10.498,0.305,5.859,-99.300,36.118,-73.526
560,-0.5933,-0.9868,0.0107,-36.560,-4.333,-11.230,-99.520,35.964,-73.449
570,-0.5679,-0.8389,-0.0610,-72.510,-5.615,-20.386,-100.124,35.755,-73.339
580,-0.5610,-0.7256,-0.1191,-81.970,-2.258,-20.264,-100.882,35.574,-73.268
590,-0.5776,-0.6313,-0.1680,-72.571,2.869,-13.550,-101.646,35.497,-73.273
600,-0.6187,-0.5342,-0.2246,-51.758,8.118,-4.822,-102.316,35.546,-73.356
610,-0.6348,-0.5591,-0.2661,-19.287,15.015,-1.587,-102.739,35.601,-73.531
620,-0.6030,-0.7373,-0.2539,15.930,22.644,-7.568,-102.788,35.502,-73.784
630,-0.5474,-0.9668,-0.2012,34.851,25.940,-19.043,-102.585,35.195,-74.042
640,-0.5010,-1.0410,-0.1631,29.297,21.729,-27.039,-102.365,34.788,-74.229
650,-0.4712,-0.9795,-0.1548,15.015,14.038,-25.391,-102.239,34.420,-74.333
660,-0.4849,-0.8682,-0.1572,6.042,4.761,-13.916,-102.173,34.222,-74.350
670,-0.5269,-0.7910,-0.1572,3.845,-0.977,1.404,-102.118,34.228,-74.344
680,-0.5825,-0.7046,-0.1670,5.310,-4.395,12.146,-102.068,34.398,-74.323
690,-0.6235,-0.6646,-0.1895,8.911,-4.761,14.648,-102.008,34.629,-74.306
700,-0.6309,-0.7031,-0.1821,17.578,0.061,6.592,-101.865,34.755,-74.323
710,-0.5923,-0.8257,-0.1655,24.353,6.470,-7.202,-101.651,34.673,-74.377
720,-0.5400,-1.0073,-0.1445,19.043,12.207,-18.921,-101.486,34.398,-74.476
730,-0.4995,-1.0508,-0.1323,0.183,12.878,-24.597,-101.492,34.047,-74.575
740,-0.4746,-0.9209,-0.1592,-19.592,9.521,-20.874,-101.706,33.750,-74.636
750,-0.4775,-0.7583,-0.1904,-25.696,5.432,-7.385,-102.008,33.646,-74.680
760,-0.5127,-0.6426,-0.1880,-17.761,0.244,8.423,-102.239,33.766,-74.707
770,-0.5625,-0.4927,-0.1943,-4.517,-5.432,20.325,-102.371,34.102,-74.691
780,-0.6260,-0.5400,-0.2002,12.207,-6.836,23.560,-102.321,34.475,-74.674
790,-0.6514,-0.7490,-0.1714,25.635,-1.892,11.536,-102.074,34.651,-74.680
800,-0.6245,-0.9624,-0.1289,21.057,4.089,-10.437,-101.832,34.525,-74.702
810,-0.5493,-1.0757,-0.1230,-2.441,6.714,-30.884,-101.805,34.135,-74.707
820,-0.4810,-1.1138,-0.1382,-29.907,7.080,-41.443,-102.047,33.607,-74.685
830,-0.4614,-1.0107,-0.1553,-49.744,4.089,-39.246,-102.475,33.129,-74.636
840,-0.4629,-0.8511,-0.1895,-54.016,-0.183,-25.269,-102.975,32.833,-74.570
850,-0.4912,-0.7129,-0.2251,-41.687,-2.808,-6.287,-103.409,32.783,-74.520
860,-0.5459,-0.6240,-0.2314,-17.090,-4.517,8.728,-103.634,32.943,-74.493
870,-0.5835,-0.5850,-0.2271,12.756,-3.845,14.832,-103.579,33.195,-74.487
880,-0.5767,-0.7036,-0.2026,40.588,1.770,12.207,-103.233,33.360,-74.542
890,-0.5474,-0.9233,-0.1465,51.331,8.057,3.784,-102.739,33.349,-74.647
900,-0.5259,-1.0435,-0.1167,34.485,8.545,-5.676,-102.382,33.206,-74.734
910,-0.4858,-1.0508,-0.1206,5.737,7.324,-11.658,-102.294,32.992,-74.789
920,-0.4775,-0.9297,-0.1313,-18.494,3.845,-9.827,-102.448,32.827,-74.806
930,-0.4971,-0.7661,-0.1646,-32.837,-1.587,0.977,-102.761,32.838,-74.789
940,-0.5391,-0.6777,-0.1831,-30.823,-5.615,13.611,-103.074,33.025,-74.762
951,-0.5923,-0.5503,-0.1904,-20.325,-9.583,19.348,-103.304,33.360,-74.702
960,-0.6411,-0.4873,-0.2266,-2.869,-11.353,16.846,-103.398,33.717,-74.619
970,-0.6206,-0.7090,-0.2070,22.766,-3.723,4.089,-103.184,33.827,-74.586
980,-0.5601,-0.9897,-0.1445,33.264,5.005,-15.686,-102.816,33.618,-74.603
990,-0.5068,-1.1187,-0.1401,14.709,8.301,-30.640,-102.623,33.212,-74.619
1000,-0.4409,-1.0903,-0.1650,-10.620,9.277,-34.302,-102.695,32.745,-74.636
1010,-0.4282,-0.9395,-0.2007,-25.452,6.897,-24.048,-102.953,32.410,-74.652
1020,-0.4541,-0.8208,-0.2305,-22.949,2.808,-2.991,-103.217,32.333,-74.680
1030,-0.4966,-0.7515,-0.2305,-8.240,-0.549,17.456,-103.359,32.498,-74.718
1040,-0.5586,-0.6514,-0.2446,8.301,-5.493,28.564,-103.359,32.849,-74.734
1050,-0.5854,-0.6899,-0.2261,28.137,-6.348,27.710,-103.129,33.190,-74.734
1060,-0.5645,-0.8457,-0.1646,41.870,-3.906,17.883,-102.695,33.376,-74.740
1070,-0.5425,-0.9829,-0.1201,34.973,-2.625,5.310,-102.283,33.382,-74.724
1080,-0.5176,-1.0024,-0.1030,12.695,-3.113,-4.700,-102.068,33.283,-74.674
1090,-0.4858,-0.9272,-0.1021,-10.315,-3.906,-6.287,-102.079,33.173,-74.614
1100,-0.4971,-0.7778,-0.1060,-25.146,-4.211,3.174,-102.261,33.206,-74.570
1110,-0.5391,-0.6494,-0.1265,-28.076,-4.272,16.602,-102.524,33.431,-74.564
1120,-0.5854,-0.5269,-0.1411,-19.897,-3.174,25.513,-102.761,33.821,-74.592
1130,-0.6396,-0.4775,-0.1714,-4.395,-1.709,25.635,-102.898,34.250,-74.641
1140,-0.6636,-0.6089,-0.1768,16.418,4.944,15.076,-102.827,34.508,-74.740
1150,-0.6226,-0.8857,-0.1587,29.114,15.564,-5.127,-102.607,34.426,-74.910
1160,-0.5591,-1.0439,-0.1450,19.287,22.400,-25.879,-102.475,34.063,-75.108
1170,-0.4756,-1.1016,-0.1836,-3.113,23.560,-36.438,-102.579,33.552,-75.289
1180,-0.4292,-1.0439,-0.2041,-21.973,19.104,-31.860,-102.859,33.085,-75.427
1190,-0.4326,-0.8428,-0.2515,-29.358,7.263,-13.611,-103.211,32.871,-75.476
1200,-0.4727,-0.7808,-0.2764,-18.372,-2.014,10.071,-103.458,32.937,-75.482
1210,-0.5288,-0.7124,-0.2559,-0.427,-9.705,24.597,-103.502,33.217,-75.438
1220,-0.5835,-0.6260,-0.2495,15.869,-16.235,27.344,-103.365,33.596,-75.328
1230,-0.6006,-0.7002,-0.2192,33.630,-14.832,21.118,-103.013,33.893,-75.212
1240,-0.5732,-0.8994,-0.1602,43.152,-7.751,7.935,-102.519,33.964,-75.141
1250,-0.5391,-1.0088,-0.1050,30.701,-2.441,-5.676,-102.123,33.854,-75.097
1260,-0.5044,-0.9858,-0.0986,5.249,0.183,-12.512,-101.992,33.668,-75.070
1270,-0.4902,-0.8481,-0.1050,-14.893,1.709,-9.277,-102.085,33.536,-75.064
1280,-0.5210,-0.7187,-0.1255,-22.217,2.625,2.930,-102.305,33.580,-75.103
1290,-0.5571,-0.6704,-0.1255,-17.822,4.150,14.954,-102.513,33.772,-75.190
1300,-0.6001,-0.5811,-0.1357,-10.620,3.967,19.287,-102.678,34.063,-75.289
1310,-0.6299,-0.6084,-0.1694,-0.244,4.639,15.686,-102.761,34.310,-75.383
1320,-0.6216,-0.8218,-0.1558,13.000,10.681,2.258,-102.689,34.332,-75.515
1330,-0.5659,-0.9658,-0.1426,13.062,14.465,-15.747,-102.585,34.107,-75.646
1340,-0.4976,-1.0542,-0.1475,-0.793,14.648,-25.940,-102.607,33.734,-75.751
1350,-0.4590,-0.9917,-0.1758,-17.151,10.681,-24.658,-102.783,33.382,-75.811
1360,-0.4629,-0.8721,-0.2109,-23.926,3.479,-12.695,-103.035,33.190,-75.817
1370,-0.4946,-0.7812,-0.2217,-17.822,-2.747,3.906,-103.228,33.217,-75.795
1380,-0.5415,-0.6846,-0.2031,-6.287,-7.812,16.846,-103.299,33.437,-75.751
1390,-0.5923,-0.5557,-0.1968,5.554,-12.146,23.193,-103.260,33.805,-75.674
1400,-0.6167,-0.6401,-0.1792,20.203,-10.925,21.973,-103.046,34.129,-75.602
1410,-0.6035,-0.8530,-0.1348,26.917,-5.188,10.132,-102.722,34.250,-75.569
1420,-0.5728,-0.9712,-0.1201,13.855,-0.854,-7.141,-102.513,34.140,-75.542
1430,-0.5283,-1.0283,-0.1440,-10.132,2.563,-21.729,-102.552,33.854,-75.515
1440,-0.4780,-0.9761,-0.1655,-30.029,5.127,-28.198,-102.810,33.492,-75.504
1451,-0.4722,-0.8418,-0.2002,-39.063,4.272,-21.423,-103.200,33.228,-75.493
1460,-0.5005,-0.7300,-0.2363,-32.410,3.357,-6.042,-103.579,33.162,-75.520
1470,-0.5522,-0.6240,-0.2505,-13.367,2.258,8.240,-103.826,33.294,-75.569
1480,-0.5913,-0.5024,-0.2471,12.390,1.465,15.198,-103.859,33.569,-75.630
1490,-0.5933,-0.5918,-0.2085,38.757,3.723,15.930,-103.579,33.816,-75.718
1500,-0.5806,-0.8413,-0.1392,50.293,7.568,9.033,-103.101,33.887,-75.833
1510,-0.5615,-1.0225,-0.1050,32.959,6.958,-4.211,-102.739,33.777,-75.899
1520,-0.5137,-1.1064,-0.1040,-1.892,4.211,-18.066,-102.689,33.508,-75.905
1530,-0.4780,-1.0771,-0.1235,-36.743,0.549,-25.391,-102.958,33.162,-75.844
1540,-0.4736,-0.8872,-0.1641,-59.937,-3.418,-21.362,-103.475,32.910,-75.745
1550,-0.4966,-0.7642,-0.2227,-61.340,-5.737,-8.118,-104.057,32.833,-75.657
1560,-0.5459,-0.6475,-0.2563,-42.175,-6.042,4.150,-104.524,32.943,-75.597
1570,-0.6025,-0.4946,-0.2812,-10.986,-6.042,10.315,-104.760,33.195,-75.558
1580,-0.5957,-0.5205,-0.2690,29.297,-0.916,10.376,-104.606,33.415,-75.580
1590,-0.5576,-0.7559,-0.1934,61.340,6.287,5.005,-104.046,33.470,-75.668
1600,-0.5405,-1.0078,-0.1211,60.669,8.972,-3.418,-103.425,33.360,-75.762
1610,-0.5020,-1.1240,-0.1094,30.945,8.545,-13.000,-103.074,33.124,-75.828
1620,-0.4668,-1.1006,-0.1211,-5.188,6.592,-17.822,-103.074,32.833,-75.855
1630,-0.4663,-0.9155,-0.1538,-34.119,3.174,-12.390,-103.376,32.646,-75.861
1640,-0.4858,-0.7441,-0.2036,-46.326,-1.648,2.441,-103.848,32.668,-75.844
1650,-0.5352,-0.6592,-0.2354,-38.147,-4.272,15.930,-104.282,32.882,-75.844
1660,-0.6060,-0.6001,-0.2695,-19.836,-6.836,18.311,-104.562,33.168,-75.817
1670,-0.6133,-0.6475,-0.2842,5.493,-4.150,9.155,-104.590,33.344,-75.795
1680,-0.5571,-0.8667,-0.2363,28.198,3.906,-5.737,-104.332,33.267,-75.822
1690,-0.5034,-1.0259,-0.1885,29.785,8.545,-18.250,-104.024,32.997,-75.872
1700,-0.4761,-0.9780,-0.1797,14.648,7.812,-22.888,-103.854,32.684,-75.894
1710,-0.4668,-0.8525,-0.2070,5.066,4.944,-17.700,-103.804,32.454,-75.899
1720,-0.5049,-0.8159,-0.1963,10.132,1.709,-6.897,-103.700,32.371,-75.899
1730,-0.5522,-0.8193,-0.2021,21.118,-2.991,-0.244,-103.475,32.382,-75.866
1740,-0.5576,-0.8770,-0.1885,34.729,-5.920,-3.052,-103.079,32.360,-75.789
1750,-0.5059,-0.9429,-0.1519,47.241,-8.240,-12.939,-102.502,32.212,-75.657
1760,-0.4502,-1.0322,-0.1050,50.537,-9.705,-16.174,-101.854,31.987,-75.504
1770,-0.4185,-0.9722,-0.0654,38.940,-12.573,-8.545,-101.299,31.844,-75.339
1780,-0.4326,-0.7314,-0.0376,19.897,-16.785,10.681,-100.931,31.965,-75.168
1790,-0.4956,-0.5098,-0.0410,2.319,-18.921,36.682,-100.772,32.481,-75.031
1800,-0.5967,-0.3896,-0.0601,-10.132,-17.334,57.434,-100.816,33.311,-74.960
1810,-0.6929,-0.4199,-0.1016,-19.531,-13.672,59.387,-101.019,34.162,-74.932
1820,-0.7524,-0.6069,-0.1016,-25.085,-6.531,36.255,-101.255,34.695,-74.938
1830,-0.7329,-0.7227,-0.1099,-31.799,3.601,-6.714,-101.563,34.722,-74.965
1840,-0.6509,-0.8555,-0.1646,-37.903,19.775,-51.514,-101.992,34.206,-75.075
1850,-0.5132,-1.0156,-0.2222,-38.940,39.429,-82.031,-102.524,33.250,-75.333
1860,-0.3916,-1.0986,-0.2627,-35.583,51.025,-88.623,-103.085,32.146,-75.701
1870,-0.3340,-1.0889,-0.2969,-28.320,53.650,-70.129,-103.612,31.190,-76.130
1880,-0.3247,-1.0117,-0.3403,-17.700,48.340,-35.767,-104.073,30.591,-76.580
1890,-0.3613,-0.9619,-0.3452,-2.380,36.377,0.122,-104.359,30.394,-76.992
1900,-0.4180,-0.8794,-0.2988,12.695,19.836,27.283,-104.425,30.547,-77.294
1910,-0.4810,-0.7886,-0.2554,23.804,3.357,43.762,-104.310,30.954,-77.459
1920,-0.5361,-0.7754,-0.2163,30.884,-7.019,47.791,-104.046,31.454,-77.514
1930,-0.5732,-0.7856,-0.1826,32.104,-10.742,40.344,-103.716,31.910,-77.509
1940,-0.5908,-0.7803,-0.1621,28.076,-9.827,26.611,-103.398,32.234,-77.470
1951,-0.5752,-0.7944,-0.1606,20.935,-5.615,11.047,-103.151,32.382,-77.437
1960,-0.5322,-0.8354,-0.1558,13.489,0.610,-2.991,-102.991,32.349,-77.437
1970,-0.5010,-0.8398,-0.1475,5.005,4.639,-10.498,-102.925,32.223,-77.459
1980,-0.4878,-0.8257,-0.1475,-2.258,6.165,-10.193,-102.942,32.086,-77.503
1990,-0.4995,-0.7246,-0.1567,-6.165,4.272,-3.845,-103.019,32.058,-77.542
2000,-0.5244,-0.6758,-0.1816,-3.906,0.488,7.019,-103.090,32.173,-77.569
2010,-0.5527,-0.7666,-0.1865,3.845,-1.221,14.771,-103.068,32.349,-77.591
2020,-0.5518,-0.8413,-0.1807,8.362,-3.723,12.512,-102.975,32.481,-77.585
2030,-0.5244,-0.9404,-0.1709,6.897,-6.104,5.554,-102.849,32.509,-77.531
2040,-0.5029,-0.9854,-0.1616,-1.404,-8.850,-1.343,-102.772,32.459,-77.421
2050,-0.4951,-0.8926,-0.1904,-10.742,-12.634,-4.150,-102.788,32.410,-77.267
2060,-0.4897,-0.8423,-0.2012,-9.399,-12.878,-0.977,-102.805,32.399,-77.113
2070,-0.5029,-0.8853,-0.1821,-1.038,-10.315,3.540,-102.744,32.421,-77.003
2080,-0.5283,-0.8301,-0.1763,4.150,-9.033,5.737,-102.651,32.492,-76.915
2090,-0.5303,-0.7739,-0.1689,7.507,-6.958,8.362,-102.541,32.602,-76.855
2100,-0.5273,-0.7515,-0.1558,11.169,-3.967,11.230,-102.415,32.734,-76.838
2110,-0.5337,-0.7407,-0.1489,12.268,-2.075,12.451,-102.283,32.888,-76.849
2120,-0.5444,-0.7979,-0.1416,9.155,-0.305,11.169,-102.184,33.003,-76.871
2130,-0.5479,-0.8564,-0.1270,0.305,0.854,5.493,-102.156,33.047,-76.893
2140,-0.5522,-0.8296,-0.1333,-13.550,0.183,-1.038,-102.261,33.041,-76.893
2150,-0.5669,-0.8022,-0.1523,-23.682,1.038,-5.066,-102.480,33.008,-76.893
2160,-0.5703,-0.7568,-0.1748,-23.743,4.395,-8.728,-102.733,32.948,-76.921
2170,-0.5605,-0.7026,-0.2178,-12.695,8.911,-11.353,-102.947,32.860,-76.998
2180,-0.5063,-0.7637,-0.2305,7.141,13.794,-11.719,-102.980,32.712,-77.124
2190,-0.4692,-0.9048,-0.2031,20.874,14.038,-8.728,-102.849,32.542,-77.267
2200,-0.4678,-0.9683,-0.2036,18.066,7.751,-4.028,-102.700,32.410,-77.344
2210,-0.4697,-0.9937,-0.1948,8.789,0.977,0.488,-102.607,32.338,-77.355
2220,-0.4780,-0.9468,-0.1855,-0.916,-5.554,5.066,-102.574,32.338,-77.305
2230,-0.5117,-0.8228,-0.1846,-7.629,-10.986,11.292,-102.596,32.459,-77.206
2240,-0.5532,-0.6890,-0.2041,-6.409,-13.550,17.700,-102.640,32.712,-77.097
2250,-0.5913,-0.6948,-0.2065,5.493,-11.658,18.677,-102.579,32.981,-77.009
2260,-0.5952,-0.6797,-0.1777,19.958,-8.057,11.963,-102.365,33.190,-76.948
2270,-0.5513,-0.7603,-0.1436,28.198,-2.930,5.310,-102.057,33.272,-76.926
2280,-0.5298,-0.8877,-0.1060,23.193,1.648,1.099,-101.788,33.250,-76.948
2290,-0.5234,-0.9487,-0.0957,5.249,2.869,-3.967,-101.689,33.162,-76.970
2300,-0.4946,-0.9683,-0.0864,-14.954,3.052,-8.057,-101.783,33.014,-76.987
2310,-0.5034,-0.8730,-0.1035,-35.156,1.038,-7.324,-102.074,32.910,-76.981
2320,-0.5381,-0.7803,-0.1387,-44.495,-0.366,-4.272,-102.486,32.882,-76.970
2330,-0.5620,-0.7114,-0.1631,-36.011,0.793,-3.479,-102.849,32.893,-76.970
2340,-0.5864,-0.6797,-0.1934,-16.846,4.028,-5.920,-103.063,32.899,-76.998
2350,-0.5723,-0.7002,-0.2012,10.010,10.803,-11.719,-103.046,32.811,-77.091
2360,-0.5352,-0.7866,-0.1821,32.471,17.456,-15.625,-102.810,32.629,-77.256
2370,-0.5000,-0.9214,-0.1655,38.635,21.912,-15.259,-102.513,32.388,-77.465
2380,-0.4858,-0.9502,-0.1548,28.259,22.156,-12.451,-102.321,32.168,-77.690
2390,-0.4746,-0.9561,-0.1660,9.705,18.799,-7.568,-102.305,31.992,-77.888
2400,-0.4829,-0.8574,-0.1826,-9.583,13.489,-0.854,-102.475,31.921,-78.041
2410,-0.5107,-0.7710,-0.2202,-23.743,6.165,5.798,-102.788,31.970,-78.129
2420,-0.5356,-0.7358,-0.2295,-27.893,-0.122,7.690,-103.123,32.075,-78.146
2430,-0.5498,-0.6968,-0.2520,-24.902,-7.324,3.296,-103.398,32.168,-78.069
2440,-0.5444,-0.7515,-0.2593,-14.160,-11.536,-3.418,-103.519,32.184,-77.932
2451,-0.5278,-0.8911,-0.2490,-3.723,-12.451,-10.864,-103.486,32.086,-77.756
2460,-0.5010,-0.9448,-0.2524,-0.854,-12.207,-17.090,-103.409,31.899,-77.569
2470,-0.4722,-0.9790,-0.2441,-1.282,-10.010,-17.334,-103.343,31.685,-77.410
2480,-0.4556,-0.9033,-0.2295,-2.197,-8.850,-11.597,-103.304,31.536,-77.272
2490,-0.4717,-0.7759,-0.2319,0.122,-9.827,0.610,-103.282,31.553,-77.162
2500,-0.5039,-0.7158,-0.2017,9.460,-10.437,13.794,-103.167,31.734,-77.080
2510,-0.5410,-0.6880,-0.1704,18.311,-12.146,21.118,-102.953,32.025,-76.998
2520,-0.5737,-0.7056,-0.1377,24.414,-13.550,20.935,-102.640,32.322,-76.899
2530,-0.5684,-0.8315,-0.0981,26.184,-12.573,12.756,-102.261,32.492,-76.789
2540,-0.5444,-0.9385,-0.0659,16.479,-10.071,-0.061,-101.953,32.487,-76.668
2550,-0.5322,-0.9678,-0.0786,-2.319,-8.362,-11.047,-101.838,32.360,-76.547
2560,-0.5098,-0.9199,-0.1035,-17.395,-4.822,-17.395,-101.904,32.162,-76.448
2570,-0.4927,-0.8521,-0.1377,-21.545,0.977,-16.663,-102.074,31.976,-76.421
2580,-0.4854,-0.8096,-0.1602,-14.526,6.165,-9.644,-102.233,31.855,-76.465
2590,-0.5029,-0.7373,-0.1846,-3.784,7.080,0.244,-102.332,31.860,-76.547
2600,-0.5166,-0.7261,-0.1821,10.254,6.042,7.874,-102.294,31.948,-76.635
2610,-0.5308,-0.7656,-0.1597,20.874,2.441,11.719,-102.112,32.080,-76.696
2620,-0.5249,-0.8652,-0.1338,21.851,-2.747,11.719,-101.860,32.190,-76.690
2630,-0.5142,-0.9946,-0.1133,11.108,-6.775,7.202,-101.667,32.223,-76.630
2640,-0.5098,-1.0034,-0.1289,-9.338,-10.437,1.099,-101.651,32.201,-76.514
2650,-0.5044,-0.9482,-0.1611,-26.978,-11.292,-1.770,-101.827,32.157,-76.377
2660,-0.5063,-0.8638,-0.1958,-33.203,-7.568,-0.183,-102.118,32.151,-76.289
2670,-0.5166,-0.7554,-0.2354,-25.452,-1.282,3.540,-102.420,32.195,-76.284
2680,-0.5366,-0.6514,-0.2651,-6.897,4.822,8.118,-102.629,32.316,-76.360
2690,-0.5381,-0.6553,-0.2451,18.372,10.803,10.681,-102.601,32.448,-76.514
2700,-0.5391,-0.6821,-0.1992,36.621,12.512,12.207,-102.371,32.585,-76.690
2710,-0.5513,-0.7354,-0.1714,40.344,9.583,13.672,-102.057,32.734,-76.833
2720,-0.5518,-0.8457,-0.1514,33.203,6.470,10.254,-101.761,32.822,-76.937
2730,-0.5396,-0.9385,-0.1406,16.846,2.625,1.282,-101.580,32.794,-76.970
2740,-0.5278,-0.9985,-0.1475,-4.272,-1.465,-9.277,-101.574,32.657,-76.932
2750,-0.5166,-0.9937,-0.1543,-22.766,-3.662,-17.944,-101.722,32.432,-76.844
2760,-0.4917,-0.8926,-0.1885,-31.067,-4.150,-21.057,-101.981,32.195,-76.745
2770,-0.4775,-0.8472,-0.2002,-23.804,-2.686,-15.381,-102.195,32.020,-76.679
2780,-0.4932,-0.7935,-0.1992,-7.812,-0.671,-5.310,-102.277,31.959,-76.657
2790,-0.5225,-0.7017,-0.1880,11.047,1.099,5.371,-102.211,32.047,-76.685
2800,-0.5269,-0.7007,-0.1592,30.701,4.883,14.526,-101.959,32.223,-76.772
2810,-0.5249,-0.8008,-0.1191,42.603,9.033,18.799,-101.585,32.393,-76.926
2820,-0.5312,-0.8960,-0.0933,35.706,9.155,18.311,-101.255,32.531,-77.075
2830,-0.5347,-0.9746,-0.0864,15.442,6.897,12.878,-101.096,32.607,-77.184
2840,-0.5308,-0.9009,-0.0977,-8.606,2.502,5.432,-101.157,32.629,-77.228
2850,-0.5430,-0.7349,-0.1528,-25.208,-2.686,3.357,-101.398,32.701,-77.201
2860,-0.5664,-0.6973,-0.1812,-22.034,-3.540,4.578,-101.629,32.805,-77.173
2870,-0.5913,-0.6548,-0.2080,-7.751,-2.808,2.197,-101.755,32.915,-77.146
2880,-0.5825,-0.6528,-0.2183,11.108,-0.122,-2.991,-101.706,32.959,-77.135
2890,-0.5498,-0.7749,-0.1777,29.114,4.578,-7.507,-101.448,32.893,-77.173
2900,-0.5132,-0.9009,-0.1504,31.799,7.690,-11.536,-101.146,32.728,-77.234
2910,-0.4819,-0.9756,-0.1187,20.325,8.301,-13.245,-100.942,32.520,-77.300
2920,-0.4731,-0.9922,-0.1084,0.183,6.104,-10.803,-100.915,32.333,-77.349
2930,-0.4995,-0.9102,-0.1484,-19.897,3.174,-4.761,-101.113,32.239,-77.371
2940,-0.5273,-0.8452,-0.1841,-26.062,2.625,-0.427,-101.398,32.223,-77.404
2951,-0.5386,-0.7480,-0.2056,-17.944,1.770,0.122,-101.624,32.245,-77.426
2960,-0.5415,-0.6938,-0.2349,-0.977,1.099,0.122,-101.711,32.289,-77.437
2970,-0.5249,-0.7729,-0.2129,21.667,2.136,-0.427,-101.547,32.289,-77.459
2980,-0.5103,-0.8374,-0.1729,33.691,0.427,-0.671,-101.217,32.267,-77.465
2990,-0.4985,-0.8267,-0.1533,28.992,-3.906,2.563,-100.898,32.283,-77.426
3000,-0.4839,-0.8770,-0.1104,18.250,-7.446,8.057,-100.646,32.338,-77.355
3010,-0.5190,-0.8691,-0.0908,-1.282,-13.733,13.367,-100.541,32.481,-77.223
3020,-0.5635,-0.7979,-0.1074,-19.409,-17.395,12.573,-100.613,32.657,-77.053
3030,-0.5874,-0.7476,-0.1245,-23.865,-16.174,5.066,-100.745,32.789,-76.871
3040,-0.5952,-0.7476,-0.1333,-15.686,-10.498,-5.188,-100.822,32.811,-76.740
3050,-0.5654,-0.7998,-0.1460,-1.709,-1.953,-14.526,-100.805,32.690,-76.685
3060,-0.5107,-0.9102,-0.1147,12.634,6.897,-19.653,-100.662,32.454,-76.718
3070,-0.4795,-0.9160,-0.1230,13.367,11.108,-15.869,-100.547,32.228,-76.816
3080,-0.4785,-0.8779,-0.1465,6.897,12.146,-5.005,-100.536,32.119,-76.943
3090,-0.4897,-0.8086,-0.1460,3.052,11.230,5.859,-100.580,32.141,-77.086
3100,-0.5186,-0.7329,-0.1621,0.000,8.179,14.709,-100.668,32.294,-77.212
3110,-0.5581,-0.6968,-0.1738,-0.122,4.883,17.395,-100.750,32.509,-77.311
3120,-0.5835,-0.7656,-0.1855,2.991,1.648,10.620,-100.772,32.651,-77.349
3130,-0.5635,-0.8945,-0.1538,7.629,0.488,-5.249,-100.684,32.591,-77.344
3140,-0.5312,-1.0679,-0.1260,6.592,-0.854,-22.705,-100.547,32.311,-77.283
3150,-0.4526,-1.0537,-0.1313,-4.761,-1.892,-29.663,-100.514,31.932,-77.201
3160,-0.4438,-1.0459,-0.1421,-15.930,1.038,-22.461,-100.624,31.619,-77.162
3170,-0.4204,-0.8804,-0.1533,-16.785,5.249,-7.385,-100.805,31.476,-77.206
3180,-0.4658,-0.7207,-0.1660,-7.507,6.836,14.099,-100.959,31.608,-77.316
3190,-0.5239,-0.6357,-0.1479,8.667,9.277,33.142,-100.986,31.981,-77.498
3200,-0.5737,-0.5894,-0.1357,21.179,10.071,42.175,-100.909,32.487,-77.712
3210,-0.6099,-0.6689,-0.1182,28.137,11.292,40.466,-100.739,32.953,-77.932
3220,-0.6255,-0.7842,-0.1040,24.414,12.329,26.855,-100.574,33.245,-78.135
3230,-0.5991,-0.9375,-0.1064,9.949,12.390,6.165,-100.525,33.278,-78.294
3240,-0.5513,-1.0195,-0.1143,-11.658,9.888,-14.893,-100.646,33.063,-78.376
3250,-0.4907,-0.9824,-0.1548,-33.936,5.127,-29.053,-100.959,32.701,-78.376
3260,-0.4551,-0.8726,-0.2012,-44.983,-1.160,-30.212,-101.382,32.355,-78.294
3270,-0.4722,-0.7710,-0.2393,-39.001,-6.958,-20.447,-101.761,32.146,-78.162
3280,-0.5171,-0.6826,-0.2656,-19.714,-9.583,-6.226,-101.981,32.141,-78.041
3290,-0.5459,-0.6519,-0.2485,6.897,-7.507,4.517,-101.964,32.256,-77.964
3300,-0.5522,-0.7021,-0.2017,27.893,-3.113,9.460,-101.722,32.404,-77.948
3310,-0.5615,-0.8174,-0.1665,34.302,1.343,8.911,-101.398,32.503,-77.986
3320,-0.5454,-0.9009,-0.1353,27.283,4.272,1.831,-101.129,32.498,-78.041
3330,-0.5083,-0.9575,-0.1211,10.803,3.906,-6.958,-100.997,32.371,-78.069
3340,-0.4912,-0.9951,-0.1367,-9.094,0.793,-11.414,-101.047,32.195,-78.052
3350,-0.4863,-0.9614,-0.1538,-25.146,-4.211,-12.085,-101.239,32.031,-77.981
3360,-0.4951,-0.8652,-0.1812,-32.349,-10.315,-9.766,-101.486,31.926,-77.838
3370,-0.5044,-0.7778,-0.1934,-24.536,-14.160,-4.944,-101.662,31.910,-77.662
3380,-0.5273,-0.7109,-0.1899,-6.958,-15.991,1.465,-101.673,31.992,-77.481
3390,-0.5454,-0.6943,-0.1582,13.306,-14.526,6.104,-101.470,32.135,-77.327
3400,-0.5459,-0.7280,-0.1206,27.344,-11.292,7.141,-101.118,32.272,-77.212
3410,-0.5493,-0.8125,-0.0923,31.189,-6.409,5.798,-100.734,32.360,-77.151
3420,-0.5405,-0.8926,-0.0845,23.071,-1.526,1.953,-100.443,32.366,-77.141
3430,-0.5151,-0.9219,-0.1011,7.080,2.075,-2.808,-100.344,32.305,-77.157
3440,-0.5010,-0.9272,-0.1274,-8.118,2.808,-4.761,-100.410,32.212,-77.179
3451,-0.5010,-0.8906,-0.1445,-18.616,0.854,-3.845,-100.580,32.141,-77.179
3460,-0.5078,-0.8105,-0.1655,-21.851,-2.319,-0.793,-100.794,32.130,-77.151
3470,-0.5288,-0.7720,-0.1787,-14.893,-4.700,2.808,-100.937,32.184,-77.102
3480,-0.5415,-0.7842,-0.1699,-1.953,-4.700,4.089,-100.942,32.250,-77.058
3490,-0.5342,-0.7915,-0.1626,8.362,-3.418,3.845,-100.854,32.305,-77.025
3500,-0.5151,-0.8672,-0.1460,13.123,-1.221,4.089,-100.706,32.327,-77.025
3510,-0.5083,-0.9009,-0.1406,9.888,0.183,4.578,-100.596,32.338,-77.036
3520,-0.5098,-0.8735,-0.1509,2.441,0.366,5.127,-100.574,32.366,-77.053
3530,-0.5132,-0.8462,-0.1587,-1.709,0.732,5.798,-100.602,32.404,-77.069
3540,-0.5269,-0.7979,-0.1543,-1.404,0.061,6.165,-100.624,32.470,-77.086
3550,-0.5278,-0.7612,-0.1470,1.221,-1.709,6.897,-100.613,32.558,-77.080
3560,-0.5396,-0.7793,-0.1187,4.639,-2.869,7.385,-100.541,32.651,-77.064
3570,-0.5586,-0.8203,-0.1035,5.310,-3.418,4.761,-100.437,32.717,-77.036
3580,-0.5513,-0.8770,-0.0991,3.845,-0.732,-1.038,-100.355,32.706,-77.025
3590,-0.5273,-0.8960,-0.1104,-0.488,4.272,-6.165,-100.344,32.613,-77.058
3600,-0.5137,-0.8994,-0.1401,-4.639,10.986,-7.446,-100.437,32.487,-77.173
3610,-0.5034,-0.8853,-0.1562,-4.761,17.639,-5.554,-100.580,32.371,-77.366
3620,-0.4976,-0.8057,-0.1738,-1.343,20.813,-1.465,-100.739,32.305,-77.607
3630,-0.5103,-0.7637,-0.1748,5.127,20.081,5.493,-100.838,32.327,-77.849
3640,-0.5352,-0.7593,-0.1602,10.376,16.541,10.986,-100.860,32.426,-78.069
3650,-0.5518,-0.7432,-0.1401,10.010,10.986,12.268,-100.844,32.563,-78.223
3660,-0.5664,-0.7432,-0.1313,3.723,5.493,10.681,-100.844,32.701,-78.311
3670,-0.5723,-0.7910,-0.1367,-4.578,2.380,5.737,-100.904,32.778,-78.349
3680,-0.5591,-0.8442,-0.1514,-13.428,2.014,-2.808,-101.036,32.750,-78.371
3690,-0.5376,-0.9058,-0.1685,-21.484,4.089,-11.353,-101.255,32.607,-78.387
3700,-0.5112,-0.9502,-0.1885,-26.367,8.118,-17.639,-101.547,32.377,-78.442
3710,-0.4785,-0.9136,-0.2197,-26.001,11.536,-19.043,-101.871,32.113,-78.530
3720,-0.4707,-0.8320,-0.2437,-17.273,13.000,-12.573,-102.145,31.926,-78.651
3730,-0.4805,-0.7622,-0.2510,-0.305,11.353,-0.366,-102.277,31.893,-78.783
3740,-0.4971,-0.7046,-0.2187,20.569,6.897,13.855,-102.184,32.031,-78.898
3750,-0.5254,-0.6836,-0.1909,36.804,0.610,26.001,-101.893,32.327,-78.970
3760,-0.5576,-0.7969,-0.1553,41.382,-5.920,31.738,-101.481,32.668,-78.975
3770,-0.5718,-0.9038,-0.1226,31.006,-10.925,27.405,-101.102,32.948,-78.915
3780,-0.5659,-0.9346,-0.1021,9.460,-15.320,15.259,-100.882,33.107,-78.772
3790,-0.5503,-0.8838,-0.1250,-15.930,-17.700,3.418,-100.904,33.162,-78.569
3800,-0.5503,-0.7939,-0.1636,-31.494,-15.686,-3.601,-101.118,33.162,-78.376
3810,-0.5493,-0.7168,-0.1934,-29.480,-10.071,-6.775,-101.376,33.151,-78.245
3820,-0.5454,-0.6646,-0.2065,-16.174,-3.296,-5.920,-101.569,33.151,-78.190
3830,-0.5483,-0.7017,-0.1875,2.563,2.930,-3.357,-101.591,33.151,-78.217
3840,-0.5420,-0.7803,-0.1484,14.160,5.432,-1.648,-101.475,33.135,-78.278
3850,-0.5010,-0.9912,-0.0957,1.892,-0.854,-3.174,-101.387,33.041,-78.261
3860,-0.4932,-1.0093,-0.1089,-16.724,-8.301,-4.211,-101.442,32.948,-78.151
3870,-0.4932,-0.9424,-0.1445,-31.982,-16.418,-1.160,-101.624,32.910,-77.959
3880,-0.5015,-0.8594,-0.1724,-34.668,-23.193,6.409,-101.827,32.986,-77.706
3890,-0.5264,-0.8101,-0.1870,-26.611,-26.184,15.686,-101.959,33.190,-77.437
3900,-0.5469,-0.7544,-0.1855,-11.719,-25.635,21.851,-101.964,33.470,-77.190
3910,-0.5591,-0.7222,-0.1631,5.615,-21.362,25.024,-101.810,33.794,-77.003
3920,-0.5576,-0.7417,-0.1338,18.677,-13.977,26.428,-101.558,34.107,-76.904
3930,-0.5464,-0.8223,-0.1143,21.729,-7.874,27.649,-101.288,34.382,-76.877
3940,-0.5620,-0.8687,-0.0972,14.038,-5.920,28.137,-101.102,34.651,-76.871
3951,-0.5845,-0.8706,-0.1133,-0.793,-6.775,25.452,-101.058,34.898,-76.849
3960,-0.5923,-0.8311,-0.1406,-14.038,-7.568,20.691,-101.157,35.118,-76.811
3970,-0.5850,-0.7642,-0.1694,-20.081,-9.399,15.381,-101.327,35.299,-76.734
3980,-0.5928,-0.7075,-0.1982,-16.724,-11.658,11.108,-101.470,35.469,-76.619
3990,-0.6021,-0.6963,-0.2178,-5.066,-12.207,7.019,-101.508,35.601,-76.492
4000,-0.5957,-0.7559,-0.1968,9.155,-10.864,2.502,-101.376,35.662,-76.366
4010,-0.5781,-0.7812,-0.1743,16.846,-8.179,-1.465,-101.162,35.667,-76.262
4020,-0.5742,-0.7998,-0.1675,16.541,-4.395,-2.869,-100.970,35.640,-76.201
4030,-0.5713,-0.8110,-0.1514,12.512,0.061,-2.502,-100.838,35.607,-76.196
4040,-0.5742,-0.8345,-0.1382,5.432,2.869,-1.709,-100.789,35.574,-76.229
4050,-0.5698,-0.8662,-0.1191,-3.479,3.967,-2.380,-100.816,35.519,-76.273
4060,-0.5620,-0.8232,-0.1274,-14.282,2.380,-3.784,-100.948,35.458,-76.289
4070,-0.5654,-0.8052,-0.1323,-19.104,0.427,-4.395,-101.118,35.409,-76.289
4080,-0.5703,-0.7861,-0.1333,-15.869,0.488,-4.944,-101.255,35.359,-76.278
4090,-0.5723,-0.7622,-0.1445,-8.240,2.136,-5.188,-101.343,35.316,-76.295
4100,-0.5698,-0.7749,-0.1440,2.625,5.676,-4.822,-101.338,35.266,-76.349
4110,-0.5620,-0.7896,-0.1431,11.780,8.667,-4.028,-101.266,35.206,-76.443
4120,-0.5586,-0.8218,-0.1416,16.418,9.644,-2.197,-101.151,35.156,-76.553
4130,-0.5591,-0.8418,-0.1343,15.808,8.240,-0.244,-101.030,35.118,-76.652
4140,-0.5645,-0.8301,-0.1392,11.353,5.066,1.099,-100.937,35.107,-76.718
4150,-0.5664,-0.8096,-0.1475,6.165,2.014,1.709,-100.887,35.112,-76.745
4160,-0.5713,-0.7871,-0.1514,2.747,0.244,1.160,-100.865,35.129,-76.750
4170,-0.5767,-0.7578,-0.1548,0.793,-0.977,0.427,-100.854,35.151,-76.740
4180,-0.5850,-0.7402,-0.1602,0.122,-1.160,0.122,-100.860,35.178,-76.729
4190,-0.5908,-0.7266,-0.1685,0.244,-0.061,-0.671,-100.882,35.206,-76.723
4200,-0.5937,-0.7227,-0.1748,-0.732,1.648,-2.136,-100.920,35.211,-76.740
4210,-0.5923,-0.7329,-0.1821,-1.648,3.540,-4.944,-100.986,35.189,-76.772
4220,-0.5835,-0.7656,-0.1846,-1.282,5.066,-9.644,-101.047,35.096,-76.811
4230,-0.5713,-0.8184,-0.1841,0.061,6.409,-15.137,-101.085,34.931,-76.849
4240,-0.5464,-0.8779,-0.1860,0.610,7.080,-19.592,-101.113,34.689,-76.888
4250,-0.5190,-0.9229,-0.1846,1.160,6.165,-20.813,-101.118,34.420,-76.915
4260,-0.5000,-0.9277,-0.1650,2.808,3.418,-17.578,-101.080,34.178,-76.915
4270,-0.4927,-0.8711,-0.1587,4.028,-0.549,-9.033,-101.014,34.041,-76.888
4280,-0.5166,-0.7974,-0.1455,8.179,-4.761,1.953,-100.898,34.052,-76.833
4290,-0.5459,-0.7192,-0.1226,15.503,-7.324,10.864,-100.701,34.200,-76.772
4300,-0.5869,-0.7202,-0.1069,23.071,-6.836,15.747,-100.421,34.409,-76.723
4310,-0.6084,-0.8154,-0.0854,27.893,-3.662,11.902,-100.091,34.557,-76.707
4320,-0.5854,-0.9243,-0.0542,25.513,0.244,1.038,-99.772,34.541,-76.712
4330,-0.5479,-1.0181,-0.0459,14.099,3.235,-9.033,-99.575,34.387,-76.734
4340,-0.5122,-1.0718,-0.0361,-1.770,6.165,-14.160,-99.542,34.151,-76.778
4350,-0.4863,-0.9570,-0.0688,-18.372,8.179,-10.742,-99.712,33.959,-76.855
4360,-0.4912,-0.7549,-0.1323,-25.391,7.019,2.991,-100.014,33.964,-76.943
4370,-0.5381,-0.6104,-0.1758,-16.907,3.723,20.752,-100.289,34.222,-77.031
4380,-0.6084,-0.5732,-0.2085,1.160,-0.549,32.593,-100.410,34.651,-77.097
4390,-0.6313,-0.6777,-0.1968,21.667,-3.601,30.457,-100.267,35.024,-77.119
4400,-0.6255,-0.9019,-0.1514,28.503,-7.874,16.235,-99.943,35.189,-77.058
4410,-0.5854,-1.0527,-0.1328,14.709,-14.160,-4.028,-99.668,35.112,-76.882
4420,-0.5317,-1.1245,-0.1143,-7.141,-18.677,-20.508,-99.547,34.843,-76.613
4430,-0.4873,-0.9946,-0.1343,-25.940,-20.752,-23.865,-99.619,34.552,-76.317
4440,-0.4902,-0.7969,-0.1753,-29.053,-20.203,-11.108,-99.783,34.442,-76.053
4451,-0.5503,-0.6372,-0.1895,-14.954,-17.761,7.812,-99.893,34.601,-75.855
4460,-0.6230,-0.4785,-0.1875,9.521,-12.939,18.921,-99.849,34.969,-75.740
4470,-0.6514,-0.4126,-0.1631,37.354,-6.042,19.958,-99.575,35.381,-75.707
4480,-0.6323,-0.5381,-0.0986,58.472,1.587,15.259,-99.036,35.662,-75.762
4490,-0.6201,-0.7163,-0.0562,56.946,4.883,7.324,-98.470,35.777,-75.833
4500,-0.5981,-0.8862,-0.0498,35.767,4.883,-4.761,-98.091,35.706,-75.883
4510,-0.5474,-0.9736,-0.0557,6.653,3.418,-15.930,-97.987,35.480,-75.899
4520,-0.5215,-1.0049,-0.0679,-20.264,0.183,-19.104,-98.124,35.211,-75.866
4530,-0.5146,-0.9570,-0.1025,-40.039,-4.150,-13.611,-98.459,35.013,-75.795
4540,-0.5210,-0.8594,-0.1475,-43.457,-7.812,-4.150,-98.844,34.942,-75.690
4550,-0.5474,-0.7808,-0.1621,-28.076,-9.094,4.272,-99.097,34.997,-75.591
4560,-0.5703,-0.7085,-0.1494,-0.732,-7.324,9.521,-99.091,35.134,-75.520
4570,-0.5703,-0.7192,-0.1260,27.039,-2.502,12.695,-98.828,35.288,-75.515
4580,-0.5791,-0.8296,-0.0796,46.692,3.723,14.587,-98.372,35.420,-75.586
4590,-0.5859,-0.9097,-0.0488,46.692,7.324,13.611,-97.921,35.519,-75.701
4600,-0.5820,-0.9282,-0.0435,30.823,8.484,9.644,-97.635,35.568,-75.822
4610,-0.5664,-0.8491,-0.0547,9.521,6.653,5.371,-97.553,35.590,-75.910
4620,-0.5771,-0.7314,-0.0845,-6.897,2.380,4.395,-97.630,35.656,-75.948
4630,-0.5977,-0.6929,-0.0869,-13.367,-1.099,4.639,-97.756,35.750,-75.938
4640,-0.6182,-0.6172,-0.0913,-15.442,-3.479,1.892,-97.894,35.865,-75.899
4650,-0.6284,-0.5586,-0.1216,-13.489,-3.662,-2.502,-98.042,35.964,-75.850
4660,-0.6201,-0.6538,-0.1196,-4.333,0.916,-8.423,-98.108,35.953,-75.850
4670,-0.5884,-0.8120,-0.1025,0.610,5.493,-16.052,-98.113,35.782,-75.888
4680,-0.5464,-0.9385,-0.1069,-4.822,7.385,-21.545,-98.174,35.502,-75.943
4690,-0.5181,-1.0059,-0.1328,-14.832,6.470,-21.423,-98.339,35.200,-75.981
4700,-0.5054,-1.0015,-0.1514,-22.461,4.089,-16.296,-98.575,34.948,-76.003
4710,-0.5190,-0.8882,-0.1641,-23.254,1.343,-6.714,-98.828,34.832,-76.003
4720,-0.5439,-0.7803,-0.1602,-14.709,-0.793,4.639,-99.003,34.871,-76.003
4730,-0.5752,-0.6870,-0.1328,-0.549,-0.549,12.451,-99.036,35.041,-76.020
4740,-0.5947,-0.6377,-0.0972,14.160,1.099,13.916,-98.915,35.250,-76.064
4750,-0.5981,-0.7153,-0.0659,23.682,4.333,10.742,-98.685,35.392,-76.135
4760,-0.5874,-0.8467,-0.0435,20.569,8.972,2.869,-98.487,35.403,-76.251
4770,-0.5645,-0.9380,-0.0430,5.493,10.681,-7.874,-98.443,35.266,-76.366
4780,-0.5415,-0.9375,-0.0698,-13.550,9.766,-16.113,-98.586,35.041,-76.454
4790,-0.5352,-0.8306,-0.1230,-25.696,8.423,-17.273,-98.877,34.832,-76.525
4800,-0.5542,-0.7368,-0.1685,-22.644,7.324,-10.742,-99.179,34.733,-76.591
4810,-0.5942,-0.5977,-0.1768,-8.484,5.005,-1.953,-99.371,34.794,-76.646
4820,-0.6108,-0.5088,-0.1768,11.169,2.747,3.296,-99.377,34.958,-76.690
4830,-0.6079,-0.6250,-0.1406,30.396,1.892,1.953,-99.124,35.063,-76.712
4840,-0.5806,-0.8652,-0.0835,33.386,0.305,-7.080,-98.756,34.980,-76.707
4850,-0.5352,-1.0391,-0.0513,14.221,-2.258,-19.226,-98.520,34.717,-76.641
4860,-0.4966,-1.0801,-0.0591,-17.700,-5.066,-26.123,-98.580,34.371,-76.536
4870,-0.4961,-0.9619,-0.1274,-43.152,-5.615,-23.071,-98.932,34.080,-76.426
4880,-0.5215,-0.8672,-0.1846,-45.898,-2.075,-13.916,-99.393,33.909,-76.371
4890,-0.5527,-0.7812,-0.2109,-31.189,1.221,-4.761,-99.761,33.865,-76.377
4900,-0.5688,-0.7026,-0.2080,-5.127,3.479,-0.916,-99.899,33.887,-76.421
4910,-0.5435,-0.7236,-0.1699,22.095,4.761,-0.793,-99.745,33.898,-76.476
4920,-0.5161,-0.8359,-0.1211,35.461,5.005,-0.854,-99.410,33.854,-76.531
4930,-0.5176,-0.9282,-0.0981,30.334,3.296,-1.343,-99.097,33.788,-76.569
4940,-0.5156,-0.9619,-0.0972,13.123,1.404,-2.197,-98.937,33.706,-76.580
4950,-0.5308,-0.9346,-0.1240,-6.897,-0.244,-2.014,-98.992,33.646,-76.575
4960,-0.5513,-0.8237,-0.1577,-18.372,-0.977,-0.916,-99.185,33.635,-76.558
4970,-0.5771,-0.7461,-0.1738,-16.907,1.160,1.160,-99.399,33.679,-76.575
4980,-0.5835,-0.6631,-0.1636,-5.920,3.723,1.953,-99.531,33.761,-76.624
4990,-0.5771,-0.6460,-0.1367,9.338,4.211,1.160,-99.487,33.838,-76.674
5000,-0.5557,-0.7197,-0.0874,21.851,4.578,-0.977,-99.278,33.860,-76.729
5010,-0.5361,-0.8271,-0.0503,21.973,2.563,-3.296,-99.014,33.810,-76.750
5020,-0.5254,-0.9326,-0.0405,9.583,-0.427,-5.493,-98.844,33.712,-76.740
5030,-0.5205,-0.9946,-0.0444,-8.728,-3.906,-7.324,-98.833,33.585,-76.679
5040,-0.5244,-0.9761,-0.0874,-25.635,-7.751,-7.141,-98.992,33.475,-76.575
5050,-0.5283,-0.9443,-0.1289,-30.823,-8.850,-6.348,-99.223,33.382,-76.454
5060,-0.5308,-0.8677,-0.1523,-21.912,-6.226,-5.432,-99.404,33.316,-76.371
5070,-0.5405,-0.7876,-0.1777,-4.456,-1.343,-2.380,-99.470,33.300,-76.349
5080,-0.5430,-0.7676,-0.1748,18.188,5.676,1.099,-99.360,33.316,-76.421
5090,-0.5327,-0.7852,-0.1470,34.119,10.986,3.479,-99.108,33.333,-76.558
5100,-0.5337,-0.8125,-0.1274,35.950,12.573,5.615,-98.839,33.365,-76.718
5110,-0.5396,-0.8179,-0.1284,26.184,11.108,6.531,-98.657,33.409,-76.860
5120,-0.5376,-0.8208,-0.1147,12.024,7.141,5.127,-98.580,33.448,-76.954
5130,-0.5420,-0.8164,-0.0962,-5.188,0.854,3.113,-98.624,33.475,-76.970
5140,-0.5547,-0.7974,-0.1084,-22.766,-5.920,0.854,-98.800,33.503,-76.899
5150,-0.5586,-0.7769,-0.1260,-31.799,-9.888,-3.296,-99.053,33.503,-76.778
5160,-0.5562,-0.7881,-0.1440,-30.396,-10.315,-8.179,-99.294,33.453,-76.641
5170,-0.5518,-0.7827,-0.1729,-22.278,-7.690,-11.780,-99.481,33.360,-76.525
5180,-0.5479,-0.8027,-0.2002,-9.460,-2.380,-12.634,-99.591,33.245,-76.470
5190,-0.5283,-0.8496,-0.2036,5.981,3.723,-11.536,-99.586,33.102,-76.492
5200,-0.5015,-0.8950,-0.1875,17.517,6.165,-8.301,-99.465,32.970,-76.547
5210,-0.4976,-0.9238,-0.1582,21.423,4.211,-2.319,-99.278,32.888,-76.597
5220,-0.5039,-0.8926,-0.1450,19.348,-0.244,3.357,-99.086,32.888,-76.597
5230,-0.5132,-0.8521,-0.1211,16.602,-4.761,7.385,-98.888,32.943,-76.558
5240,-0.5376,-0.7983,-0.1113,13.000,-8.057,9.949,-98.712,33.063,-76.481
5250,-0.5586,-0.7715,-0.0991,9.705,-8.728,9.827,-98.553,33.195,-76.393
5260,-0.5713,-0.7661,-0.0933,7.202,-8.118,6.775,-98.421,33.311,-76.311
5270,-0.5654,-0.8335,-0.0874,4.456,-5.798,1.770,-98.317,33.344,-76.245
5280,-0.5508,-0.8740,-0.0923,-0.305,-3.052,-3.662,-98.273,33.294,-76.201
5290,-0.5190,-0.9458,-0.0996,-4.883,-0.488,-5.737,-98.295,33.195,-76.185
5300,-0.5015,-1.0278,-0.0918,-7.202,1.648,-5.005,-98.339,33.069,-76.196
5310,-0.5073,-1.0005,-0.1172,-5.920,0.671,-3.479,-98.383,32.970,-76.201
5320,-0.4922,-0.9346,-0.1094,11.047,1.465,-1.038,-98.262,32.904,-76.212
5330,-0.4946,-0.8408,-0.0713,35.767,2.014,6.348,-97.894,32.943,-76.251
5340,-0.5234,-0.7720,-0.0137,58.044,3.540,16.663,-97.284,33.113,-76.317
5350,-0.5332,-0.7383,0.0312,65.674,5.493,23.926,-96.592,33.365,-76.421
5360,-0.5610,-0.6997,0.0596,50.110,5.310,28.137,-96.037,33.690,-76.520
5370,-0.6060,-0.6387,0.0459,15.869,4.028,27.710,-95.828,34.058,-76.602
5380,-0.6357,-0.5288,-0.0273,-23.254,1.343,19.836,-96.048,34.409,-76.646
5390,-0.6514,-0.4902,-0.1006,-52.002,-0.610,4.333,-96.619,34.634,-76.646
5400,-0.6602,-0.5796,-0.1606,-63.599,-0.305,-15.564,-97.322,34.612,-76.619
5410,-0.6069,-0.7563,-0.2017,-60.242,1.892,-36.011,-97.976,34.288,-76.586
5420,-0.5244,-0.9551,-0.2183,-46.326,4.761,-49.316,-98.470,33.739,-76.558
5430,-0.4531,-1.1006,-0.2407,-27.771,6.592,-49.622,-98.778,33.124,-76.547
5440,-0.4131,-1.1333,-0.2476,-6.470,7.690,-36.072,-98.893,32.624,-76.575
5450,-0.4175,-1.0679,-0.2354,13.611,7.812,-12.207,-98.828,32.377,-76.646
5460,-0.4395,-0.9521,-0.1929,31.067,7.141,12.451,-98.602,32.404,-76.750
5470,-0.4883,-0.8481,-0.1411,43.213,7.263,30.701,-98.256,32.668,-76.888
5480,-0.5396,-0.7656,-0.0933,45.715,6.409,39.124,-97.866,33.063,-77.031
5490,-0.5718,-0.7109,-0.0620,38.696,4.456,38.391,-97.520,33.492,-77.146
5500,-0.5898,-0.7124,-0.0327,25.940,2.747,30.945,-97.256,33.854,-77.228
5510,-0.6006,-0.7368,-0.0020,7.690,-0.549,18.616,-97.125,34.091,-77.250
5520,-0.6040,-0.7036,-0.0166,-13.306,-4.517,4.578,-97.169,34.206,-77.201
5530,-0.5957,-0.7461,-0.0498,-24.902,-4.272,-7.202,-97.350,34.184,-77.141
5540,-0.5737,-0.8208,-0.0630,-26.123,-0.305,-15.564,-97.564,34.041,-77.113
5550,-0.5464,-0.8477,-0.0991,-23.926,4.089,-18.860,-97.800,33.832,-77.130
5560,-0.5215,-0.8457,-0.1387,-16.785,8.057,-16.174,-98.020,33.640,-77.201
5570,-0.5088,-0.8462,-0.1499,-3.845,10.010,-9.766,-98.135,33.503,-77.305
5580,-0.5151,-0.8364,-0.1421,10.132,9.460,-2.380,-98.108,33.442,-77.415
5590,-0.5288,-0.8057,-0.1289,17.944,6.775,3.906,-97.987,33.464,-77.498
5600,-0.5464,-0.7964,-0.1089,18.494,2.808,7.874,-97.828,33.547,-77.547
5610,-0.5581,-0.8052,-0.0869,13.489,-1.770,7.507,-97.674,33.635,-77.536
5620,-0.5498,-0.8428,-0.0723,5.005,-4.761,2.869,-97.570,33.662,-77.487
5630,-0.5381,-0.8921,-0.0723,-7.263,-5.737,-3.052,-97.570,33.613,-77.410
5640,-0.5239,-0.9160,-0.0923,-20.447,-5.188,-7.019,-97.712,33.508,-77.338
5650,-0.5166,-0.9009,-0.1157,-27.710,-2.563,-7.874,-97.960,33.398,-77.294
5660,-0.5200,-0.8477,-0.1431,-26.123,1.160,-5.310,-98.240,33.322,-77.300
5670,-0.5361,-0.7905,-0.1675,-15.808,4.700,0.061,-98.465,33.316,-77.355
5680,-0.5571,-0.7690,-0.1719,0.305,7.385,4.700,-98.553,33.371,-77.454
5690,-0.5615,-0.7495,-0.1611,15.076,8.423,6.226,-98.498,33.448,-77.563
5700,-0.5464,-0.7944,-0.1333,23.682,7.080,6.409,-98.328,33.508,-77.657
5710,-0.5405,-0.8438,-0.1055,22.034,3.052,5.615,-98.124,33.547,-77.706
5720,-0.5381,-0.8525,-0.1089,10.681,-2.625,3.479,-97.993,33.574,-77.679
5730,-0.5361,-0.8330,-0.1138,-1.465,-5.859,0.977,-97.971,33.580,-77.613
5740,-0.5474,-0.8184,-0.1147,-9.583,-7.080,-0.671,-98.020,33.580,-77.525
5750,-0.5557,-0.8008,-0.1216,-12.329,-6.104,-1.709,-98.102,33.585,-77.448
5760,-0.5576,-0.7783,-0.1235,-10.437,-3.845,-2.991,-98.190,33.574,-77.399
5770,-0.5522,-0.7778,-0.1172,-4.700,-1.099,-3.845,-98.229,33.552,-77.382
5780,-0.5464,-0.8042,-0.1118,2.563,1.038,-4.211,-98.201,33.514,-77.388
5790,-0.5298,-0.8594,-0.0962,8.545,2.197,-4.333,-98.108,33.448,-77.404
5800,-0.5098,-0.9287,-0.0874,9.583,2.014,-3.357,-97.998,33.365,-77.421
5810,-0.5054,-0.9180,-0.0918,4.089,-0.183,-0.793,-97.932,33.311,-77.421
5820,-0.5161,-0.8545,-0.1030,-0.610,-2.991,2.991,-97.910,33.322,-77.388
5830,-0.5464,-0.7886,-0.1074,0.000,-4.761,6.409,-97.883,33.404,-77.344
5840,-0.5781,-0.7124,-0.1138,3.296,-5.798,7.812,-97.833,33.541,-77.289
5850,-0.5996,-0.6387,-0.1118,8.667,-5.310,6.165,-97.740,33.701,-77.234
5860,-0.6152,-0.6387,-0.1172,15.076,-3.235,1.770,-97.597,33.821,-77.195
5870,-0.5947,-0.7827,-0.0918,22.339,1.465,-7.141,-97.372,33.783,-77.201
5880,-0.5361,-0.9546,-0.0757,21.362,6.409,-18.005,-97.158,33.552,-77.250
5890,-0.4658,-1.0581,-0.0645,8.545,8.362,-24.170,-97.070,33.206,-77.316
5900,-0.4438,-0.9834,-0.0889,-10.132,6.592,-20.264,-97.180,32.910,-77.366
5910,-0.4722,-0.8481,-0.1152,-21.851,2.991,-7.324,-97.416,32.789,-77.388
5920,-0.5410,-0.7202,-0.1221,-23.560,-0.854,6.287,-97.668,32.893,-77.388
5930,-0.5957,-0.6411,-0.1230,-20.630,-4.456,10.315,-97.883,33.096,-77.349
5940,-0.6167,-0.6074,-0.1133,-12.939,-6.165,4.211,-98.004,33.261,-77.283
5950,-0.5967,-0.7148,-0.0991,-5.005,-5.249,-6.531,-98.015,33.267,-77.212
5960,-0.5425,-0.8760,-0.0840,-2.380,-2.075,-17.639,-97.982,33.080,-77.157
5970,-0.4873,-0.9868,-0.0884,-6.592,1.099,-23.682,-98.004,32.778,-77.135
5980,-0.4639,-1.0474,-0.1104,-10.681,5.127,-22.217,-98.102,32.465,-77.157
5990,-0.4658,-1.0791,-0.1260,-9.033,9.644,-16.296,-98.223,32.201,-77.239
6000,-0.4629,-1.0664,-0.1211,-2.625,12.634,-8.362,-98.300,32.009,-77.377
6010,-0.4692,-0.9604,-0.1182,4.089,11.902,2.197,-98.322,31.954,-77.520
6020,-0.4858,-0.8442,-0.1045,10.864,7.751,14.099,-98.262,32.058,-77.635
6030,-0.5195,-0.7290,-0.0874,17.090,3.540,21.729,-98.119,32.300,-77.712
6040,-0.5571,-0.6187,-0.0830,18.616,-0.183,23.315,-97.954,32.624,-77.750
6050,-0.5981,-0.6270,-0.0806,15.320,-0.549,18.982,-97.806,32.915,-77.772
6060,-0.6094,-0.7002,-0.0854,5.676,2.014,7.385,-97.762,33.063,-77.811
6070,-0.5801,-0.7793,-0.1030,-9.216,4.456,-7.324,-97.872,33.019,-77.849
6080,-0.5420,-0.8643,-0.1362,-24.231,5.615,-17.517,-98.141,32.833,-77.888
6090,-0.5146,-0.9307,-0.1738,-31.982,5.859,-20.935,-98.503,32.574,-77.921
6100,-0.4849,-0.9639,-0.2046,-29.236,4.761,-18.311,-98.839,32.322,-77.943
6110,-0.4766,-0.9292,-0.2349,-19.165,1.709,-9.766,-99.086,32.168,-77.948
6120,-0.4771,-0.8887,-0.2461,-3.540,-0.854,1.038,-99.179,32.130,-77.937
6130,-0.4922,-0.8340,-0.2158,14.465,-2.258,9.521,-99.086,32.201,-77.932
6140,-0.5039,-0.7646,-0.1758,28.931,-2.869,14.587,-98.833,32.355,-77.926
6150,-0.5215,-0.7661,-0.1250,35.400,-3.784,17.212,-98.481,32.547,-77.910
6160,-0.5498,-0.7642,-0.0742,31.128,-6.104,15.686,-98.119,32.739,-77.866
6170,-0.5737,-0.7539,-0.0522,18.372,-8.911,9.705,-97.850,32.893,-77.778
6180,-0.5752,-0.7710,-0.0312,3.052,-10.315,1.282,-97.696,32.953,-77.657
6190,-0.5640,-0.8091,-0.0205,-13.367,-10.986,-6.470,-97.690,32.926,-77.520
6200,-0.5508,-0.8477,-0.0303,-29.236,-10.254,-11.963,-97.850,32.822,-77.377
6210,-0.5269,-0.8462,-0.0698,-38.391,-7.202,-14.832,-98.141,32.679,-77.267
6220,-0.5112,-0.8643,-0.1104,-35.767,-2.136,-14.954,-98.459,32.509,-77.217
6230,-0.5020,-0.8662,-0.1426,-23.743,2.869,-12.634,-98.707,32.355,-77.228
6240,-0.4995,-0.8511,-0.1650,-7.385,6.348,-8.118,-98.839,32.239,-77.289
6250,-0.5063,-0.8721,-0.1572,11.658,8.728,-2.930,-98.784,32.173,-77.388
6260,-0.4980,-0.8950,-0.1221,27.222,9.155,1.160,-98.564,32.141,-77.498
6270,-0.5010,-0.9146,-0.0845,30.518,6.470,6.348,-98.273,32.157,-77.585
6280,-0.5220,-0.8877,-0.0801,20.935,2.197,10.681,-98.058,32.239,-77.624
6290,-0.5327,-0.8242,-0.0957,7.690,-0.366,11.414,-97.976,32.355,-77.640
6300,-0.5376,-0.7681,-0.1104,-2.930,-0.977,9.155,-98.009,32.470,-77.646
6310,-0.5444,-0.7534,-0.1216,-9.949,-1.099,4.944,-98.119,32.552,-77.640
6320,-0.5488,-0.7529,-0.1421,-13.306,-0.366,-0.488,-98.273,32.580,-77.635
6330,-0.5410,-0.7822,-0.1572,-12.085,1.038,-5.127,-98.421,32.542,-77.640
6340,-0.5371,-0.8188,-0.1685,-7.812,1.953,-7.324,-98.536,32.470,-77.651
6350,-0.5386,-0.8491,-0.1719,-1.343,2.014,-7.141,-98.586,32.393,-77.662
6360,-0.5210,-0.8657,-0.1689,6.104,1.831,-5.066,-98.558,32.322,-77.673
6370,-0.5034,-0.8740,-0.1592,11.353,0.671,-1.221,-98.465,32.278,-77.679
6380,-0.5049,-0.8062,-0.1519,12.634,-1.648,2.258,-98.355,32.300,-77.662
6390,-0.5137,-0.7490,-0.1475,13.672,-3.662,4.517,-98.229,32.366,-77.629
6400,-0.5288,-0.8032,-0.1313,13.855,-3.784,4.761,-98.080,32.421,-77.591
6410,-0.5425,-0.8315,-0.1133,7.263,-5.554,0.793,-97.976,32.443,-77.525
6420,-0.5474,-0.7759,-0.1089,-1.526,-7.507,-3.906,-97.938,32.437,-77.432
6430,-0.5557,-0.7441,-0.1055,-3.418,-7.141,-5.737,-97.927,32.432,-77.338
6440,-0.5669,-0.8140,-0.0742,1.343,-4.944,-6.287,-97.850,32.404,-77.272
6450,-0.5425,-0.8901,-0.0557,4.211,-3.540,-8.667,-97.734,32.311,-77.217
6460,-0.4756,-0.9717,-0.0537,3.357,-2.747,-10.254,-97.630,32.151,-77.168
6470,-0.4443,-1.0293,-0.0498,-0.488,-2.808,-8.484,-97.559,31.981,-77.119
6480,-0.4463,-0.9902,-0.0483,-5.798,-3.906,-3.296,-97.542,31.877,-77.069
6490,-0.4668,-0.8970,-0.0581,-6.958,-3.845,3.601,-97.553,31.877,-77.031
6500,-0.5034,-0.8335,-0.0542,-1.160,-1.648,9.033,-97.526,31.959,-77.025
6510,-0.5415,-0.7944,-0.0498,6.226,1.709,10.925,-97.443,32.086,-77.064
6520,-0.5591,-0.7891,-0.0527,10.681,5.554,9.277,-97.344,32.201,-77.141
6530,-0.5605,-0.7881,-0.0757,9.033,8.545,6.165,-97.289,32.283,-77.250
6540,-0.5547,-0.7930,-0.1084,3.540,10.742,2.930,-97.328,32.322,-77.382
6550,-0.5493,-0.7534,-0.1421,-2.136,11.169,0.305,-97.454,32.344,-77.514
6560,-0.5474,-0.7217,-0.1753,-4.761,10.376,-1.038,-97.630,32.360,-77.635
6570,-0.5449,-0.7627,-0.1816,-2.869,8.545,-3.540,-97.762,32.338,-77.728
6580,-0.5308,-0.8438,-0.1812,-0.671,5.493,-7.446,-97.844,32.250,-77.783
6590,-0.5054,-0.9326,-0.1650,-0.793,2.075,-10.498,-97.877,32.102,-77.789
6600,-0.4863,-0.9644,-0.1519,-2.625,-0.854,-9.827,-97.899,31.954,-77.761
6610,-0.4819,-0.9141,-0.1548,-4.028,-2.136,-4.395,-97.938,31.866,-77.728
6620,-0.4990,-0.8853,-0.1562,-1.892,-1.709,2.930,-97.971,31.871,-77.717
6630,-0.5166,-0.8242,-0.1470,2.197,-0.916,6.714,-97.971,31.937,-77.717
6640,-0.5273,-0.7812,-0.1455,6.348,-0.244,6.958,-97.938,32.020,-77.723
6650,-0.5366,-0.8091,-0.1294,10.010,0.793,4.761,-97.861,32.080,-77.739
6660,-0.5322,-0.8369,-0.1074,8.118,-0.549,1.343,-97.773,32.097,-77.734
6670,-0.5200,-0.8125,-0.1021,1.648,-4.211,-0.732,-97.723,32.097,-77.684
6680,-0.5166,-0.8140,-0.0942,-1.770,-7.263,-0.977,-97.685,32.097,-77.602
6690,-0.5278,-0.8218,-0.0737,-1.709,-9.277,-1.343,-97.614,32.102,-77.487
6700,-0.5278,-0.8101,-0.0669,-1.282,-10.010,-2.136,-97.537,32.102,-77.366
6710,-0.5210,-0.8398,-0.0542,0.305,-7.263,-2.563,-97.449,32.086,-77.278
6720,-0.5166,-0.8618,-0.0464,0.732,-2.991,-2.991,-97.377,32.047,-77.239
6730,-0.5215,-0.8296,-0.0562,-0.977,0.854,-2.014,-97.355,32.025,-77.245
6740,-0.5410,-0.8281,-0.0640,-0.916,4.883,0.000,-97.366,32.031,-77.305
6750,-0.5415,-0.8252,-0.0815,0.671,8.179,0.305,-97.388,32.036,-77.399
6760,-0.5327,-0.8394,-0.0991,1.587,9.460,-0.122,-97.427,32.025,-77.509
6770,-0.5254,-0.8721,-0.1040,1.465,8.545,-0.610,-97.460,31.992,-77.607
6780,-0.5107,-0.8804,-0.1147,-0.977,5.798,-1.587,-97.498,31.948,-77.673
6790,-0.4941,-0.8662,-0.1284,-3.296,2.686,-1.709,-97.559,31.904,-77.706
6800,-0.4932,-0.8315,-0.1318,-4.517,-0.732,-0.793,-97.614,31.882,-77.695
6810,-0.5088,-0.8003,-0.1401,-4.150,-3.845,-0.366,-97.652,31.888,-77.646
6820,-0.5269,-0.8086,-0.1279,-1.160,-4.883,-1.160,-97.646,31.888,-77.591
6830,-0.5303,-0.8159,-0.1172,-0.122,-4.578,-2.197,-97.625,31.882,-77.531
6840,-0.5371,-0.8188,-0.1191,-1.953,-2.991,-1.953,-97.630,31.877,-77.492
6850,-0.5420,-0.8174,-0.1279,-3.052,-0.488,-1.648,-97.668,31.877,-77.487
6860,-0.5293,-0.8462,-0.1362,-1.953,1.892,-2.014,-97.712,31.855,-77.503
6870,-0.5137,-0.8765,-0.1392,-0.366,3.296,-2.747,-97.745,31.805,-77.542
6880,-0.4863,-0.8770,-0.1475,1.038,3.296,-2.808,-97.773,31.740,-77.574
6890,-0.4756,-0.8696,-0.1387,4.883,2.502,-1.343,-97.751,31.690,-77.602
6900,-0.4868,-0.8667,-0.1138,8.972,-0.061,0.671,-97.657,31.674,-77.602
6910,-0.5112,-0.8613,-0.0708,10.620,-3.113,2.380,-97.509,31.690,-77.569
6920,-0.5332,-0.8203,-0.0532,7.690,-5.798,3.479,-97.361,31.745,-77.509
6930,-0.5513,-0.8105,-0.0430,4.211,-5.676,4.150,-97.245,31.816,-77.448
6940,-0.5532,-0.8140,-0.0454,0.122,-3.418,2.747,-97.185,31.871,-77.410
6951,-0.5410,-0.8232,-0.0723,-5.493,-0.305,-0.061,-97.213,31.882,-77.404
6960,-0.5215,-0.8491,-0.1069,-10.010,3.357,-2.930,-97.333,31.844,-77.443
6970,-0.5044,-0.8755,-0.1475,-11.536,6.592,-5.005,-97.504,31.767,-77.509
6980,-0.4810,-0.8789,-0.1675,-9.705,7.507,-5.188,-97.674,31.668,-77.591
6990,-0.4751,-0.8848,-0.1719,-4.028,5.676,-3.174,-97.778,31.591,-77.651
7000,-0.5049,-0.8711,-0.1558,3.723,2.014,0.000,-97.778,31.569,-77.673
7010,-0.5269,-0.8423,-0.1338,12.085,-1.038,3.113,-97.668,31.602,-77.668
7020,-0.5361,-0.8496,-0.0918,19.409,-2.136,5.066,-97.454,31.663,-77.651
7030,-0.5215,-0.8667,-0.0605,20.203,-2.808,5.920,-97.207,31.718,-77.629
7040,-0.5093,-0.8550,-0.0552,13.306,-2.563,6.897,-97.026,31.778,-77.607
7050,-0.5098,-0.8286,-0.0684,3.479,-1.343,7.629,-96.965,31.849,-77.602
7060,-0.5229,-0.8354,-0.0796,-3.784,0.244,6.531,-96.998,31.915,-77.613
7070,-0.5327,-0.8599,-0.0923,-7.263,1.770,3.418,-97.075,31.943,-77.640
7080,-0.5269,-0.8809,-0.1030,-5.920,3.967,0.854,-97.152,31.937,-77.690
7090,-0.5166,-0.8530,-0.1123,-0.977,6.104,1.404,-97.202,31.932,-77.761
7100,-0.5244,-0.8354,-0.1079,7.324,7.080,4.883,-97.180,31.970,-77.849
7110,-0.5249,-0.8008,-0.0952,14.404,6.592,8.240,-97.081,32.058,-77.943
7120,-0.5273,-0.7637,-0.1001,15.808,5.188,10.315,-96.965,32.173,-78.019
7130,-0.5410,-0.7271,-0.1230,11.780,4.028,10.925,-96.910,32.316,-78.080
7140,-0.5483,-0.7090,-0.1401,6.165,2.930,8.850,-96.916,32.448,-78.129
7150,-0.5566,-0.7266,-0.1489,-0.061,1.282,5.066,-96.976,32.542,-78.151
7160,-0.5635,-0.7524,-0.1543,-6.104,-1.038,0.488,-97.075,32.585,-78.140
7170,-0.5537,-0.7676,-0.1562,-9.277,-3.418,-3.601,-97.191,32.580,-78.091
7180,-0.5410,-0.7964,-0.1440,-8.179,-6.226,-5.920,-97.256,32.542,-78.008
7190,-0.5269,-0.8149,-0.1255,-4.822,-9.338,-7.019,-97.256,32.487,-77.888
7200,-0.5166,-0.8096,-0.1152,-0.854,-12.207,-7.141,-97.191,32.432,-77.734
7210,-0.5151,-0.8008,-0.1118,3.662,-13.977,-6.104,-97.070,32.388,-77.563
7220,-0.5146,-0.7939,-0.0908,8.362,-14.648,-5.066,-96.883,32.360,-77.382
7230,-0.5107,-0.7886,-0.0703,10.925,-14.648,-4.395,-96.663,32.338,-77.206
7240,-0.5229,-0.8408,-0.0444,10.132,-12.329,-4.211,-96.449,32.305,-77.053
7250,-0.5298,-0.9009,-0.0083,5.615,-8.118,-6.226,-96.279,32.234,-76.948
7260,-0.5264,-0.9463,0.0029,-3.418,-3.296,-8.667,-96.224,32.124,-76.899
7270,-0.5210,-0.9619,-0.0020,-12.146,1.282,-9.766,-96.284,31.987,-76.904
7280,-0.5200,-0.9561,-0.0186,-17.761,5.859,-8.789,-96.438,31.860,-76.959
7290,-0.5112,-0.9331,-0.0410,-17.883,9.583,-6.104,-96.630,31.761,-77.064
7300,-0.5093,-0.9038,-0.0693,-14.648,10.681,-2.380,-96.812,31.701,-77.184
7310,-0.5044,-0.8770,-0.0850,-8.667,10.437,1.526,-96.949,31.685,-77.311
7320,-0.5083,-0.8496,-0.0957,-2.563,8.667,4.639,-97.026,31.707,-77.415
7330,-0.5146,-0.8257,-0.1040,2.441,7.141,6.470,-97.053,31.761,-77.509
7340,-0.5181,-0.8042,-0.1045,5.615,6.348,7.019,-97.042,31.833,-77.591
7350,-0.5215,-0.7944,-0.1011,6.409,5.676,6.287,-97.020,31.899,-77.668
7360,-0.5220,-0.8027,-0.0996,4.639,4.578,4.333,-97.009,31.948,-77.728
7370,-0.5273,-0.8164,-0.0869,0.793,2.625,1.282,-97.009,31.965,-77.761
7380,-0.5312,-0.8179,-0.0898,-4.883,0.732,-2.319,-97.053,31.948,-77.767
7390,-0.5322,-0.8228,-0.0977,-9.521,1.343,-4.944,-97.147,31.904,-77.778
7400,-0.5283,-0.8447,-0.1123,-11.047,3.845,-6.531,-97.278,31.838,-77.811
7410,-0.5186,-0.8887,-0.1294,-9.399,7.446,-7.751,-97.421,31.734,-77.888
7420,-0.4990,-0.9263,-0.1436,-5.981,10.864,-8.057,-97.553,31.602,-77.997
7430,-0.4814,-0.9409,-0.1602,-1.648,12.756,-6.042,-97.663,31.481,-78.140
7440,-0.4707,-0.9385,-0.1670,3.662,12.268,-1.465,-97.723,31.399,-78.278
7451,-0.4648,-0.9214,-0.1572,9.155,9.460,4.700,-97.712,31.382,-78.398
7460,-0.4780,-0.8623,-0.1436,12.817,4.639,10.559,-97.641,31.448,-78.470
7470,-0.5049,-0.8027,-0.1221,16.113,-0.122,14.709,-97.504,31.602,-78.486
7480,-0.5361,-0.7817,-0.0996,17.822,-3.845,16.174,-97.311,31.789,-78.470
7490,-0.5669,-0.7646,-0.0835,14.771,-5.676,14.099,-97.136,31.981,-78.426
7500,-0.5757,-0.7842,-0.0820,7.996,-3.906,8.850,-97.026,32.113,-78.393
7510,-0.5713,-0.8149,-0.0864,-0.366,1.709,0.305,-97.031,32.146,-78.409
7520,-0.5459,-0.8779,-0.1064,-7.690,8.789,-9.521,-97.152,32.036,-78.503
7530,-0.5005,-0.9492,-0.1416,-12.085,15.381,-17.334,-97.366,31.800,-78.657
7540,-0.4536,-0.9595,-0.1992,-11.963,16.296,-18.311,-97.614,31.531,-78.816
7550,-0.4170,-0.9453,-0.2261,-1.404,10.376,-9.155,-97.740,31.344,-78.926
7560,-0.4370,-0.9023,-0.2241,15.381,0.000,7.324,-97.657,31.355,-78.937
7570,-0.4941,-0.7920,-0.2041,32.166,-11.414,22.461,-97.355,31.586,-78.838
7580,-0.5474,-0.7358,-0.1626,45.715,-19.531,31.494,-96.861,31.965,-78.657
7590,-0.5713,-0.7563,-0.1074,51.697,-21.118,31.799,-96.257,32.349,-78.453
7600,-0.5713,-0.8291,-0.0483,45.105,-19.043,25.146,-95.680,32.640,-78.267
7610,-0.5615,-0.8887,-0.0186,25.574,-15.503,14.587,-95.290,32.794,-78.096
7620,-0.5483,-0.9370,-0.0083,2.991,-11.841,3.601,-95.142,32.816,-77.964
7630,-0.5190,-0.9619,0.0005,-14.221,-8.118,-4.272,-95.175,32.739,-77.860
7640,-0.4883,-0.9116,-0.0054,-21.729,-4.089,-5.554,-95.312,32.640,-77.805
7650,-0.4985,-0.7920,-0.0430,-18.616,-2.869,0.916,-95.455,32.651,-77.772
7660,-0.5503,-0.6436,-0.0767,-2.441,-1.709,10.864,-95.493,32.833,-77.767
7670,-0.6006,-0.5439,-0.0845,22.461,0.427,17.395,-95.317,33.151,-77.789
7680,-0.6162,-0.5591,-0.0659,41.504,2.319,17.212,-94.944,33.464,-77.838
7690,-0.6016,-0.6689,-0.0259,44.617,1.648,9.460,-94.488,33.640,-77.866
7700,-0.5669,-0.8101,-0.0034,29.541,-2.197,-2.747,-94.142,33.629,-77.838
7710,-0.5444,-0.9463,0.0098,4.150,-6.409,-14.709,-94.005,33.453,-77.750
7720,-0.5229,-1.0396,0.0107,-23.071,-9.033,-21.912,-94.114,33.173,-77.624
7730,-0.5005,-1.0723,-0.0166,-42.297,-7.568,-21.729,-94.444,32.882,-77.514
7740,-0.4922,-0.9751,-0.0645,-49.561,-4.639,-14.648,-94.889,32.679,-77.443
7750,-0.5220,-0.8188,-0.1143,-40.771,-1.282,-3.174,-95.312,32.646,-77.426
7760,-0.5581,-0.6997,-0.1177,-17.761,3.357,7.263,-95.559,32.772,-77.476
7770,-0.5586,-0.6562,-0.0972,8.118,7.690,11.597,-95.565,32.953,-77.580
7780,-0.5449,-0.7109,-0.0732,22.766,9.460,11.230,-95.405,33.096,-77.706
7790,-0.5410,-0.7739,-0.0586,21.606,7.263,7.568,-95.235,33.184,-77.800
7800,-0.5322,-0.8462,-0.0630,9.583,2.075,1.282,-95.142,33.184,-77.827
7810,-0.5264,-0.9053,-0.0757,-4.700,-4.517,-4.883,-95.153,33.107,-77.767
7820,-0.5278,-0.9194,-0.0854,-16.602,-10.376,-8.179,-95.251,33.003,-77.635
7830,-0.5234,-0.8662,-0.0962,-22.644,-13.794,-7.507,-95.389,32.921,-77.459
7840,-0.5425,-0.7998,-0.1084,-20.813,-12.939,-3.174,-95.537,32.910,-77.305
7850,-0.5591,-0.7158,-0.1104,-12.695,-8.972,1.099,-95.636,32.975,-77.201
7860,-0.5601,-0.6816,-0.1030,-1.770,-3.845,2.686,-95.663,33.069,-77.157
7870,-0.5493,-0.7061,-0.0933,6.531,0.244,1.526,-95.620,33.129,-77.162
7880,-0.5356,-0.7778,-0.0913,8.545,1.160,-1.282,-95.548,33.129,-77.173
7890,-0.5308,-0.8677,-0.0928,4.700,-0.854,-5.859,-95.499,33.052,-77.157
7900,-0.5181,-0.9404,-0.0918,-1.953,-4.944,-10.193,-95.482,32.915,-77.086
7910,-0.5132,-0.9717,-0.0752,-7.263,-8.606,-11.169,-95.482,32.761,-76.970
7920,-0.5225,-0.9307,-0.0703,-8.667,-9.521,-7.996,-95.493,32.657,-76.849
7930,-0.5332,-0.8701,-0.0640,-3.479,-6.531,-2.686,-95.471,32.624,-76.767
7940,-0.5420,-0.7969,-0.0493,5.737,-2.197,1.892,-95.383,32.662,-76.745
7951,-0.5449,-0.7095,-0.0518,13.306,1.465,4.944,-95.251,32.756,-76.767
7960,-0.5479,-0.7393,-0.0508,18.250,4.761,6.531,-95.087,32.855,-76.833
7970,-0.5464,-0.7979,-0.0488,16.113,4.822,3.723,-94.949,32.899,-76.893
7980,-0.5278,-0.8613,-0.0474,6.592,1.892,-2.258,-94.872,32.860,-76.915
7990,-0.5107,-0.9111,-0.0527,-5.249,-2.258,-6.897,-94.894,32.761,-76.882
8000,-0.5073,-0.9209,-0.0503,-13.855,-5.981,-8.179,-94.971,32.646,-76.800
8010,-0.5254,-0.8936,-0.0557,-16.663,-7.690,-5.981,-95.070,32.569,-76.701
8020,-0.5410,-0.8340,-0.0591,-12.573,-6.042,-2.686,-95.142,32.552,-76.630
8030,-0.5488,-0.7915,-0.0620,-3.418,-1.770,-0.122,-95.158,32.574,-76.608
8040,-0.5410,-0.8140,-0.0571,6.348,3.418,0.183,-95.109,32.580,-76.646
8050,-0.5190,-0.8618,-0.0625,10.132,7.202,-0.549,-95.043,32.552,-76.734
8060,-0.4985,-0.9126,-0.0576,8.301,8.362,-0.366,-94.999,32.503,-76.833
8070,-0.4893,-0.9385,-0.0625,3.784,7.385,0.854,-94.993,32.454,-76.921
8080,-0.5000,-0.9312,-0.0601,-0.732,5.676,2.808,-95.026,32.437,-76.992
8090,-0.5283,-0.8525,-0.0747,-4.578,3.601,4.944,-95.098,32.476,-77.036
8100,-0.5605,-0.7939,-0.0669,-4.395,2.991,6.592,-95.158,32.563,-77.080
8110,-0.5728,-0.7295,-0.0576,-3.052,2.930,6.165,-95.208,32.679,-77.119
8120,-0.5620,-0.7349,-0.0527,-3.906,2.136,4.517,-95.251,32.767,-77.151
8130,-0.5234,-0.7944,-0.0527,-6.836,1.038,0.854,-95.312,32.778,-77.162
8140,-0.4722,-0.9009,-0.0571,-11.230,-1.587,-2.563,-95.394,32.706,-77.141
8150,-0.4434,-1.0679,-0.0698,-17.273,-6.653,-2.319,-95.504,32.585,-77.064
8160,-0.4526,-1.1060,-0.0806,-25.085,-14.099,2.502,-95.652,32.520,-76.899
8170,-0.4980,-0.9248,-0.1216,-27.649,-19.043,11.353,-95.828,32.607,-76.685
8180,-0.5693,-0.7651,-0.1309,-15.442,-16.357,22.644,-95.933,32.882,-76.520
8190,-0.6235,-0.6387,-0.1187,1.465,-10.315,28.503,-95.916,33.283,-76.432
8200,-0.6460,-0.5176,-0.1172,12.268,-2.808,26.245,-95.867,33.717,-76.432
8210,-0.6362,-0.4897,-0.1021,15.808,2.380,17.578,-95.795,34.069,-76.481
8220,-0.6060,-0.5771,-0.0566,11.047,3.662,4.395,-95.713,34.228,-76.531
8230,-0.5937,-0.6641,-0.0503,-1.831,2.258,-10.315,-95.724,34.200,-76.547
8240,-0.5542,-0.8262,-0.0693,-12.634,3.479,-23.804,-95.845,33.959,-76.558
8250,-0.4961,-1.0020,-0.0884,-13.733,7.629,-32.898,-96.004,33.552,-76.613
8260,-0.4585,-1.1260,-0.1025,-6.897,9.521,-33.142,-96.103,33.102,-76.685
8270,-0.4487,-1.1602,-0.0952,3.052,9.277,-22.034,-96.103,32.750,-76.767
8280,-0.4761,-1.0630,-0.1045,10.254,6.653,-3.967,-96.037,32.618,-76.838
8290,-0.5098,-0.8896,-0.1001,17.151,3.784,11.780,-95.900,32.701,-76.899
8300,-0.5405,-0.7129,-0.0967,21.484,2.930,20.569,-95.740,32.943,-76.959
8310,-0.5718,-0.5762,-0.0928,20.874,2.258,22.400,-95.592,33.278,-77.009
8320,-0.5933,-0.5737,-0.0776,15.686,1.831,17.212,-95.482,33.569,-77.053
8330,-0.5874,-0.6240,-0.0669,4.883,0.427,5.981,-95.449,33.723,-77.064
8340,-0.5610,-0.7617,-0.0601,-9.521,-1.282,-6.653,-95.521,33.684,-77.042
8350,-0.5435,-0.8853,-0.0781,-23.621,-2.380,-16.113,-95.724,33.508,-76.992
8360,-0.5107,-0.9976,-0.0913,-27.832,-0.854,-21.118,-95.977,33.234,-76.959
8370,-0.4907,-1.0117,-0.1040,-22.400,1.282,-18.799,-96.191,32.975,-76.954
8380,-0.5020,-0.9810,-0.1240,-10.559,2.380,-9.949,-96.312,32.811,-76.965
8390,-0.5171,-0.9419,-0.1113,5.981,4.517,-0.061,-96.290,32.767,-77.020
8400,-0.5205,-0.8320,-0.0996,19.714,7.019,6.104,-96.147,32.805,-77.113
8410,-0.5215,-0.7656,-0.0762,28.931,10.803,9.705,-95.933,32.904,-77.250
8420,-0.5371,-0.7583,-0.0542,29.907,13.550,11.108,-95.707,33.025,-77.426
8430,-0.5518,-0.7441,-0.0493,22.034,13.672,8.850,-95.565,33.135,-77.596
8440,-0.5552,-0.7598,-0.0562,9.949,12.756,4.822,-95.537,33.195,-77.756
8451,-0.5518,-0.8027,-0.0654,-1.587,11.414,-0.061,-95.620,33.201,-77.893
8460,-0.5483,-0.8384,-0.0820,-10.620,9.216,-4.761,-95.779,33.140,-77.997
8470,-0.5435,-0.8643,-0.0894,-14.526,7.507,-7.690,-95.971,33.047,-78.074
8480,-0.5312,-0.8813,-0.0991,-12.756,7.080,-8.301,-96.141,32.937,-78.151
8490,-0.5122,-0.9028,-0.1069,-7.385,7.568,-6.714,-96.262,32.827,-78.228
8500,-0.5029,-0.8921,-0.1152,-1.953,8.179,-3.357,-96.339,32.750,-78.322
8510,-0.5059,-0.8491,-0.1191,3.540,8.667,0.488,-96.378,32.723,-78.426
8520,-0.5151,-0.8198,-0.1172,9.338,9.460,3.845,-96.367,32.739,-78.541
8530,-0.5332,-0.8003,-0.1099,13.977,9.521,5.859,-96.306,32.794,-78.662
8540,-0.5376,-0.8042,-0.0957,15.503,7.935,6.104,-96.213,32.855,-78.766
8550,-0.5435,-0.8257,-0.0747,13.123,4.517,4.883,-96.103,32.904,-78.821
8560,-0.5454,-0.8154,-0.0654,5.249,-0.732,2.319,-96.031,32.932,-78.816
8570,-0.5488,-0.8169,-0.0615,-3.296,-4.822,-0.549,-96.021,32.943,-78.761
8580,-0.5410,-0.7959,-0.0630,-10.559,-6.836,-2.930,-96.064,32.932,-78.673
8590,-0.5439,-0.7720,-0.0786,-15.320,-6.348,-3.906,-96.169,32.921,-78.596
8600,-0.5444,-0.7554,-0.0933,-13.855,-2.197,-5.737,-96.295,32.893,-78.563
8610,-0.5444,-0.7695,-0.1011,-7.141,4.028,-8.484,-96.400,32.827,-78.596
8620,-0.5317,-0.8564,-0.0908,2.136,10.132,-11.414,-96.427,32.695,-78.701
8630,-0.5137,-0.9204,-0.0845,6.226,12.817,-12.817,-96.427,32.514,-78.838
8640,-0.5049,-0.9326,-0.0884,4.456,11.963,-10.620,-96.443,32.355,-78.964
8650,-0.5020,-0.9478,-0.0850,2.075,8.911,-5.981,-96.460,32.245,-79.063
8660,-0.5000,-0.9238,-0.0840,-1.099,4.333,-1.160,-96.482,32.184,-79.113
8670,-0.5039,-0.8652,-0.0835,-3.540,-0.122,2.808,-96.509,32.195,-79.113
8680,-0.5107,-0.8062,-0.0767,-2.930,-2.380,5.188,-96.515,32.250,-79.091
8690,-0.5254,-0.7769,-0.0776,-0.977,-2.625,6.348,-96.504,32.333,-79.069
8700,-0.5439,-0.7651,-0.0767,1.770,-0.732,5.493,-96.482,32.415,-79.069
8710,-0.5435,-0.7710,-0.0767,3.601,2.319,3.174,-96.454,32.470,-79.102
8720,-0.5513,-0.8066,-0.0767,3.540,5.493,0.671,-96.443,32.487,-79.167
8730,-0.5444,-0.8369,-0.0903,1.099,7.080,-1.892,-96.471,32.465,-79.244
8740,-0.5317,-0.8867,-0.1016,-2.747,6.775,-3.540,-96.542,32.404,-79.321
8750,-0.5024,-0.8984,-0.1206,-7.019,4.517,-3.662,-96.647,32.333,-79.371
8760,-0.4844,-0.8872,-0.1279,-9.460,0.183,-1.587,-96.757,32.278,-79.371
8770,-0.4878,-0.8672,-0.1240,-8.850,-4.761,1.770,-96.828,32.267,-79.316
8780,-0.5034,-0.8267,-0.1196,-6.653,-9.033,4.517,-96.855,32.311,-79.217
8790,-0.5244,-0.8018,-0.1094,-2.563,-10.742,6.042,-96.828,32.388,-79.102
8800,-0.5449,-0.8022,-0.0991,1.282,-10.010,6.165,-96.762,32.476,-78.992
8810,-0.5591,-0.8203,-0.0903,2.502,-7.751,4.761,-96.685,32.552,-78.904
8820,-0.5542,-0.8379,-0.0903,0.977,-4.761,2.991,-96.641,32.591,-78.854
8830,-0.5264,-0.8682,-0.0845,-2.014,-1.953,2.136,-96.641,32.602,-78.832
8840,-0.5059,-0.8594,-0.0771,-7.141,-1.526,3.052,-96.691,32.613,-78.821
8850,-0.5063,-0.8687,-0.0615,-12.878,-3.174,5.066,-96.773,32.640,-78.788
8860,-0.5210,-0.8682,-0.0566,-17.273,-4.639,6.042,-96.888,32.690,-78.745
8870,-0.5356,-0.8330,-0.0576,-18.921,-4.944,5.798,-97.020,32.750,-78.695
8880,-0.5459,-0.7979,-0.0708,-16.357,-3.662,6.165,-97.147,32.833,-78.657
8890,-0.5518,-0.8047,-0.0742,-10.315,-0.977,6.531,-97.229,32.910,-78.657
8900,-0.5503,-0.8130,-0.0781,-4.578,1.465,6.165,-97.267,32.981,-78.684
8910,-0.5386,-0.7935,-0.0947,-2.197,2.502,6.470,-97.306,33.052,-78.723
8920,-0.5327,-0.8076,-0.1079,-1.831,3.235,7.446,-97.355,33.124,-78.772
8930,-0.5347,-0.8311,-0.1089,-5.066,2.747,7.507,-97.432,33.184,-78.816
8940,-0.5361,-0.8354,-0.1108,-12.146,0.549,5.920,-97.559,33.234,-78.832
8951,-0.5361,-0.8608,-0.1138,-20.386,-2.014,4.211,-97.751,33.267,-78.816
8960,-0.5371,-0.8677,-0.1172,-30.090,-5.676,2.686,-98.015,33.283,-78.750
8970,-0.5366,-0.8662,-0.1387,-39.551,-10.071,2.686,-98.355,33.305,-78.635
8980,-0.5391,-0.8096,-0.1724,-46.753,-14.832,3.906,-98.762,33.360,-78.470
8990,-0.5479,-0.7109,-0.2187,-46.753,-19.531,5.920,-99.190,33.481,-78.250
9000,-0.5640,-0.6670,-0.2349,-34.546,-21.606,6.836,-99.503,33.629,-78.003
9010,-0.5635,-0.6675,-0.2217,-17.578,-21.057,5.798,-99.635,33.772,-77.767
9020,-0.5654,-0.7505,-0.1890,-2.686,-17.822,3.418,-99.591,33.860,-77.563
9030,-0.5493,-0.8828,-0.1372,4.028,-14.160,-0.793,-99.454,33.854,-77.393
9040,-0.5186,-1.0264,-0.0806,-0.610,-10.925,-6.104,-99.327,33.739,-77.250
9050,-0.4966,-1.0718,-0.0547,-16.418,-9.766,-8.545,-99.355,33.585,-77.119
9060,-0.5049,-1.0596,-0.0703,-33.813,-9.399,-5.310,-99.569,33.464,-76.998
9070,-0.5215,-0.9561,-0.0898,-42.847,-8.789,1.526,-99.893,33.442,-76.893
9080,-0.5361,-0.7788,-0.1338,-39.185,-8.057,9.216,-100.239,33.552,-76.822
9090,-0.5640,-0.6479,-0.1543,-18.433,-5.005,16.113,-100.443,33.788,-76.794
9100,-0.6016,-0.5679,-0.1650,10.681,0.183,18.982,-100.415,34.091,-76.838
9110,-0.5996,-0.6211,-0.1597,42.053,8.606,15.137,-100.113,34.310,-76.976
9120,-0.5767,-0.7534,-0.1211,61.523,16.357,7.751,-99.613,34.387,-77.184
9130,-0.5684,-0.8354,-0.1099,58.350,17.395,0.183,-99.130,34.354,-77.393
9140,-0.5654,-0.8892,-0.1216,43.030,16.357,-7.141,-98.795,34.239,-77.574
9150,-0.5439,-0.9067,-0.1309,26.123,14.526,-11.169,-98.613,34.074,-77.728
9160,-0.5337,-0.8828,-0.1387,9.399,9.277,-9.155,-98.575,33.937,-77.822
9170,-0.5415,-0.8062,-0.1436,-4.272,2.991,-2.747,-98.652,33.898,-77.855
9180,-0.5503,-0.7114,-0.1558,-8.118,-3.113,2.747,-98.751,33.964,-77.822
9190,-0.5640,-0.6899,-0.1489,-0.854,-5.798,4.395,-98.762,34.063,-77.761
9200,-0.5737,-0.7236,-0.1299,8.911,-5.554,0.732,-98.652,34.118,-77.695
9210,-0.5566,-0.7847,-0.1182,14.832,-2.808,-5.371,-98.476,34.080,-77.651
9220,-0.5269,-0.8779,-0.0967,16.846,0.549,-10.254,-98.284,33.942,-77.640
9230,-0.5117,-0.9756,-0.0713,12.756,2.686,-11.536,-98.124,33.766,-77.651
9240,-0.5166,-1.0029,-0.0654,2.930,2.136,-9.094,-98.053,33.607,-77.662
9250,-0.5254,-0.9663,-0.0742,-5.188,1.099,-3.723,-98.075,33.519,-77.668
9260,-0.5234,-0.8804,-0.0835,-7.019,0.793,3.723,-98.124,33.525,-77.684
9270,-0.5293,-0.7734,-0.0903,-2.136,0.000,11.780,-98.141,33.646,-77.706
9280,-0.5542,-0.7026,-0.0996,7.751,0.916,17.395,-98.086,33.860,-77.745
9290,-0.5771,-0.7246,-0.1006,18.677,4.944,17.090,-97.949,34.063,-77.833
9300,-0.5776,-0.7832,-0.0937,23.315,10.132,11.597,-97.784,34.184,-77.975
9310,-0.5737,-0.8359,-0.0991,17.456,13.367,4.456,-97.696,34.211,-78.140
9320,-0.5713,-0.8784,-0.1162,6.470,14.465,-2.563,-97.723,34.151,-78.311
9330,-0.5576,-0.9155,-0.1299,-2.014,13.855,-7.568,-97.833,34.030,-78.464
9340,-0.5322,-0.8716,-0.1440,-7.996,9.766,-8.850,-97.982,33.898,-78.569
9350,-0.5220,-0.7856,-0.1694,-8.850,3.601,-4.700,-98.130,33.838,-78.602
9360,-0.5332,-0.7246,-0.1699,-1.099,-2.075,2.258,-98.179,33.882,-78.580
9370,-0.5537,-0.6816,-0.1562,10.376,-6.531,6.958,-98.091,34.003,-78.514
9380,-0.5688,-0.6821,-0.1328,18.982,-8.240,7.080,-97.883,34.140,-78.426
9390,-0.5757,-0.7520,-0.1060,21.423,-6.592,3.052,-97.630,34.206,-78.354
9400,-0.5576,-0.8403,-0.0825,15.686,-4.211,-4.517,-97.421,34.162,-78.294
9410,-0.5454,-0.8994,-0.0757,2.991,-2.136,-11.963,-97.344,34.019,-78.250
9420,-0.5327,-0.9229,-0.0747,-9.216,-1.648,-16.235,-97.383,33.821,-78.206
9430,-0.5391,-0.9014,-0.0806,-16.113,-2.258,-15.198,-97.493,33.640,-78.157
9440,-0.5293,-0.8613,-0.0918,-15.747,-2.441,-9.888,-97.608,33.525,-78.113
9451,-0.5293,-0.8276,-0.1040,-9.155,-2.380,-2.869,-97.679,33.492,-78.080
9460,-0.5439,-0.8145,-0.1123,0.244,-2.441,2.625,-97.663,33.519,-78.052
9470,-0.5415,-0.8354,-0.0991,8.423,-1.892,5.310,-97.564,33.569,-78.041
9480,-0.5322,-0.8569,-0.0928,9.644,-1.892,6.714,-97.449,33.618,-78.030
9490,-0.5205,-0.8750,-0.0967,6.226,-2.197,7.202,-97.366,33.662,-78.014
9500,-0.5298,-0.9023,-0.1006,1.709,-1.953,6.653,-97.333,33.695,-78.003
9510,-0.5322,-0.9189,-0.1084,-2.380,-1.526,5.432,-97.344,33.712,-77.992
9520,-0.5381,-0.8950,-0.1128,-4.395,-1.587,5.066,-97.377,33.734,-77.981
9530,-0.5381,-0.8457,-0.1216,-1.770,-2.258,7.385,-97.394,33.794,-77.964
9540,-0.5508,-0.8438,-0.1030,6.653,-1.770,10.742,-97.322,33.893,-77.959
9550,-0.5610,-0.8037,-0.0913,14.038,-2.319,12.817,-97.174,34.030,-77.953
9560,-0.5527,-0.7905,-0.0864,19.348,-1.831,14.221,-96.971,34.178,-77.953
9570,-0.5537,-0.7734,-0.0864,20.996,0.061,14.893,-96.768,34.338,-77.975
9580,-0.5601,-0.7646,-0.0884,18.738,1.465,14.771,-96.603,34.497,-78.014
9590,-0.5610,-0.7832,-0.0742,15.686,2.991,13.123,-96.465,34.634,-78.069
9600,-0.5635,-0.7725,-0.0654,10.437,3.113,9.399,-96.378,34.739,-78.118
9610,-0.5762,-0.7329,-0.0576,5.554,2.319,6.409,-96.323,34.832,-78.157
9620,-0.6069,-0.7095,-0.0537,3.052,1.770,4.761,-96.290,34.931,-78.184
9630,-0.6099,-0.6846,-0.0562,1.587,1.282,2.808,-96.268,35.024,-78.201
9640,-0.6001,-0.7402,-0.0625,1.648,1.709,-0.610,-96.246,35.057,-78.223
9650,-0.5835,-0.8306,-0.0674,0.122,3.174,-5.249,-96.251,35.002,-78.250
9660,-0.5605,-0.8989,-0.0854,-4.822,3.906,-8.850,-96.306,34.882,-78.289
9670,-0.5317,-0.8999,-0.1147,-9.827,4.028,-8.789,-96.438,34.744,-78.327
9680,-0.5156,-0.8843,-0.1406,-10.193,3.052,-3.174,-96.581,34.662,-78.360
9690,-0.5190,-0.8555,-0.1357,-3.540,1.465,5.066,-96.652,34.673,-78.382
9700,-0.5454,-0.7529,-0.1323,4.395,-2.197,13.062,-96.641,34.810,-78.376
9710,-0.5801,-0.7036,-0.1196,14.832,-4.333,19.226,-96.509,35.046,-78.349
9720,-0.6001,-0.7036,-0.0869,24.780,-4.456,19.653,-96.251,35.299,-78.322
9730,-0.6108,-0.7051,-0.0752,26.672,-4.272,15.930,-95.971,35.513,-78.294
9740,-0.6084,-0.7925,-0.0576,22.217,-1.831,9.338,-95.724,35.629,-78.283
9750,-0.6050,-0.7866,-0.0518,9.827,0.122,-0.671,-95.609,35.640,-78.283
9760,-0.5981,-0.7500,-0.0801,-4.456,1.648,-10.071,-95.663,35.568,-78.289
9770,-0.5967,-0.8218,-0.0776,-12.207,6.104,-17.883,-95.812,35.387,-78.344
9780,-0.5684,-0.8018,-0.0933,-19.592,7.996,-25.085,-96.053,35.129,-78.409
9790,-0.5508,-0.7646,-0.1074,-22.095,5.981,-25.574,-96.312,34.876,-78.448
9800,-0.5454,-0.7466,-0.1045,-18.066,1.221,-19.470,-96.504,34.695,-78.437
9810,-0.5659,-0.6929,-0.0981,-10.498,-6.042,-11.902,-96.570,34.623,-78.349
9820,-0.5869,-0.7363,-0.0830,-1.648,-11.047,-7.202,-96.504,34.607,-78.206
9830,-0.5615,-0.8545,-0.0645,3.540,-11.169,-9.827,-96.367,34.508,-78.058
9840,-0.5273,-0.9976,-0.0415,0.610,-8.850,-15.625,-96.246,34.294,-77.926
9850,-0.5005,-1.1201,-0.0332,-8.423,-5.737,-18.188,-96.235,34.019,-77.838
9860,-0.4854,-1.1523,-0.0376,-16.846,-0.977,-16.357,-96.339,33.750,-77.805
9870,-0.4790,-1.0337,-0.0620,-18.616,3.113,-9.094,-96.509,33.569,-77.827
9880,-0.5103,-0.8184,-0.1021,-12.817,4.578,4.700,-96.674,33.591,-77.888
9890,-0.5615,-0.6426,-0.1001,3.296,5.371,17.944,-96.713,33.832,-77.975
9900,-0.6040,-0.5381,-0.1030,21.484,5.981,22.583,-96.597,34.189,-78.080
9911,-0.6177,-0.5405,-0.0830,35.034,6.409,18.860,-96.328,34.508,-78.184
9920,-0.6045,-0.6543,-0.0601,33.203,5.859,9.644,-96.037,34.678,-78.267
9930,-0.5933,-0.7651,-0.0513,14.404,4.089,-3.113,-95.894,34.673,-78.311
9940,-0.5654,-0.8516,-0.0693,-11.108,2.380,-16.235,-95.999,34.503,-78.322
9951,-0.5430,-0.9229,-0.0952,-32.776,1.221,-23.926,-96.312,34.222,-78.305
9960,-0.5400,-0.8662,-0.1396,-45.715,0.183,-25.513,-96.779,33.942,-78.272
9970,-0.5493,-0.7598,-0.1978,-44.006,-0.488,-20.508,-97.273,33.755,-78.239
9980,-0.5562,-0.7578,-0.2212,-24.597,0.488,-14.038,-97.597,33.629,-78.223
9990,-0.5454,-0.8398,-0.1978,2.136,2.075,-12.512,-97.635,33.492,-78.228
10000,-0.4990,-0.9482,-0.1514,22.217,3.113,-14.343,-97.438,33.283,-78.245
10010,-0.4497,-1.0308,-0.0986,28.381,1.709,-12.390,-97.136,33.063,-78.245
10020,-0.4409,-1.0708,-0.0654,22.949,-1.892,-5.676,-96.855,32.904,-78.212
10030,-0.4722,-1.0537,-0.0464,12.817,-4.578,2.563,-96.658,32.844,-78.162
10040,-0.5112,-0.9575,-0.0332,1.648,-6.165,9.460,-96.564,32.899,-78.102
10050,-0.5547,-0.7954,-0.0474,-6.226,-6.348,14.526,-96.564,33.069,-78.047
10060,-0.5806,-0.6675,-0.0557,-5.615,-4.700,16.785,-96.581,33.316,-78.014
10070,-0.5972,-0.6206,-0.0596,-0.061,-2.991,14.587,-96.564,33.569,-77.997
10080,-0.6060,-0.6309,-0.0557,6.042,-0.427,7.568,-96.493,33.745,-78.003
10090,-0.5820,-0.7187,-0.0610,9.644,3.113,-2.380,-96.400,33.772,-78.036
10100,-0.5483,-0.8594,-0.0664,8.728,7.629,-11.353,-96.334,33.635,-78.113
10110,-0.5098,-0.9902,-0.0664,2.075,9.827,-15.564,-96.345,33.409,-78.212
10120,-0.4893,-0.9868,-0.0972,-7.629,8.118,-13.184,-96.454,33.201,-78.289
10130,-0.4956,-0.9312,-0.1274,-13.123,4.578,-4.578,-96.625,33.096,-78.338
10140,-0.5103,-0.8613,-0.1401,-9.949,0.793,6.714,-96.757,33.129,-78.354
10150,-0.5312,-0.7500,-0.1357,-2.808,-4.272,15.381,-96.806,33.305,-78.327
10160,-0.5605,-0.6279,-0.1338,4.211,-8.911,19.775,-96.773,33.591,-78.250
10170,-0.5820,-0.6104,-0.1108,11.414,-9.155,19.165,-96.652,33.882,-78.168
10180,-0.5986,-0.6865,-0.0850,13.855,-5.676,12.268,-96.487,34.080,-78.118
10190,-0.5981,-0.7876,-0.0771,7.629,-0.671,-0.671,-96.400,34.107,-78.107
10200,-0.5801,-0.8691,-0.0986,-5.188,4.517,-15.076,-96.471,33.948,-78.140
10210,-0.5444,-0.9653,-0.1201,-14.160,9.766,-25.391,-96.663,33.640,-78.223
10220,-0.4863,-1.0127,-0.1450,-16.052,12.268,-27.466,-96.894,33.272,-78.333
10230,-0.4546,-0.9590,-0.1577,-10.559,8.850,-19.287,-97.064,32.992,-78.409
10240,-0.4712,-0.9038,-0.1562,3.967,2.930,-4.028,-97.070,32.888,-78.437
10250,-0.5098,-0.8657,-0.1118,24.597,-1.587,9.583,-96.828,32.959,-78.437
10260,-0.5342,-0.8247,-0.0586,40.283,-3.418,16.235,-96.389,33.124,-78.415
10270,-0.5601,-0.8076,-0.0186,43.030,-3.296,17.090,-95.905,33.311,-78.398
10280,-0.5791,-0.7661,0.0010,32.043,-2.747,11.597,-95.521,33.464,-78.382
10290,-0.5825,-0.7202,0.0024,15.137,-2.075,1.709,-95.301,33.536,-78.360
10300,-0.5850,-0.7026,-0.0059,-2.808,-1.892,-8.484,-95.262,33.519,-78.327
10310,-0.5806,-0.7163,-0.0308,-17.944,-0.977,-16.968,-95.394,33.409,-78.300
10320,-0.5601,-0.7539,-0.0630,-23.865,1.892,-22.705,-95.625,33.212,-78.294
10330,-0.5239,-0.8462,-0.0850,-18.677,5.798,-24.353,-95.828,32.953,-78.333
10340,-0.4902,-0.9180,-0.1123,-8.667,6.775,-20.874,-95.955,32.690,-78.387
10350,-0.4722,-0.9717,-0.1299,2.197,4.211,-12.207,-95.971,32.498,-78.426
10361,-0.4722,-0.9980,-0.1338,12.695,0.244,-0.427,-95.861,32.415,-78.426
10370,-0.4731,-0.9663,-0.1206,21.667,-4.028,11.108,-95.641,32.465,-78.393
10381,-0.4922,-0.8960,-0.1035,26.794,-6.531,21.667,-95.361,32.646,-78.338
10390,-0.5288,-0.8086,-0.0894,27.466,-7.446,28.687,-95.065,32.943,-78.283
10400,-0.5620,-0.7734,-0.0659,24.292,-6.714,29.663,-94.801,33.267,-78.234
10410,-0.5840,-0.7314,-0.0449,16.174,-5.737,24.719,-94.603,33.569,-78.190
10420,-0.5928,-0.7197,-0.0459,5.188,-4.944,16.296,-94.515,33.794,-78.151
10430,-0.5898,-0.7720,-0.0718,-13.672,-2.441,-5.859,-94.642,33.772,-78.113
10441,-0.5518,-0.8354,-0.0884,-17.090,0.305,-15.320,-94.818,33.618,-78.102
10451,-0.5088,-0.8896,-0.1001,-15.930,2.075,-19.348,-94.993,33.382,-78.107
10461,-0.4878,-0.9082,-0.1025,-11.108,0.977,-17.273,-95.114,33.157,-78.102
10471,-0.4839,-0.8921,-0.0786,-3.357,-2.747,-9.949,-95.125,33.014,-78.058
10481,-0.5059,-0.8828,-0.0356,5.127,-6.226,-0.671,-95.004,32.981,-77.986
10491,-0.5381,-0.8384,0.0059,8.911,-7.812,5.798,-94.818,33.041,-77.899
10500,-0.5640,-0.7744,0.0107,7.019,-6.897,7.629,-94.653,33.157,-77.822
10510,-0.5903,-0.7515,0.0039,3.052,-2.380,5.554,-94.559,33.261,-77.800
10520,-0.5981,-0.7559,-0.0146,-3.174,2.625,-1.160,-94.570,33.300,-77.833
10530,-0.5796,-0.7793,-0.0430,-11.230,5.981,-10.315,-94.702,33.228,-77.893
10541,-0.5483,-0.7993,-0.0830,-18.555,7.751,-18.188,-94.938,33.052,-77.964
10551,-0.5127,-0.8374,-0.1191,-19.897,8.301,-21.851,-95.208,32.811,-78.041
10561,-0.4917,-0.8896,-0.1279,-15.503,7.507,-20.081,-95.427,32.563,-78.107
10571,-0.4834,-0.9102,-0.1265,-10.803,4.456,-14.648,-95.581,32.366,-78.146
10581,-0.4907,-0.8955,-0.1157,-5.493,1.099,-7.751,-95.652,32.250,-78.151
10591,-0.5127,-0.8945,-0.0977,0.916,-0.610,-1.465,-95.647,32.212,-78.140
10601,-0.5337,-0.8496,-0.0937,5.554,0.061,2.563,-95.598,32.234,-78.146
10611,-0.5435,-0.8008,-0.0962,7.996,2.258,4.700,-95.548,32.294,-78.179
10621,-0.5483,-0.7832,-0.0962,8.606,4.761,4.822,-95.510,32.366,-78.239
10631,-0.5454,-0.7842,-0.0908,6.592,5.371,1.770,-95.493,32.399,-78.305
10641,-0.5352,-0.8203,-0.0835,2.380,4.211,-2.930,-95.493,32.371,-78.349
10651,-0.5137,-0.8730,-0.0708,-1.770,2.747,-7.202,-95.515,32.278,-78.376
10661,-0.4937,-0.8882,-0.0620,-4.700,0.549,-8.911,-95.548,32.157,-78.371
10671,-0.4971,-0.8896,-0.0469,-3.845,-1.221,-6.653,-95.548,32.064,-78.349
10681,-0.4985,-0.8701,-0.0312,0.244,-1.221,-1.160,-95.504,32.031,-78.333
10691,-0.5107,-0.8442,-0.0273,5.432,0.366,4.822,-95.416,32.069,-78.344
10701,-0.5327,-0.8179,-0.0332,9.216,3.784,8.972,-95.323,32.162,-78.398
10711,-0.5449,-0.8169,-0.0518,9.705,8.545,10.559,-95.268,32.278,-78.508
10721,-0.5449,-0.8525,-0.0679,6.531,12.817,8.972,-95.284,32.355,-78.668
10731,-0.5312,-0.8687,-0.0942,-0.732,13.611,4.639,-95.383,32.377,-78.832
10741,-0.5156,-0.8945,-0.1138,-7.385,11.841,0.854,-95.554,32.349,-78.975
10751,-0.5044,-0.9448,-0.1108,-10.925,8.057,-0.854,-95.724,32.289,-79.069
10761,-0.4956,-0.9517,-0.1040,-13.184,1.831,-0.366,-95.867,32.234,-79.091
10771,-0.5024,-0.8384,-0.1235,-13.367,-5.310,3.235,-95.993,32.256,-79.030
10781,-0.5220,-0.7368,-0.1309,-4.456,-8.972,8.484,-96.031,32.377,-78.937
10791,-0.5684,-0.6704,-0.1211,9.460,-8.179,11.963,-95.933,32.574,-78.854
10801,-0.5903,-0.6396,-0.1177,18.860,-4.639,10.742,-95.773,32.783,-78.816
10811,-0.5786,-0.6880,-0.1040,22.156,0.305,6.042,-95.587,32.910,-78.827
10821,-0.5527,-0.7798,-0.0889,16.174,2.869,-0.183,-95.455,32.932,-78.860
10831,-0.5308,-0.8511,-0.0908,2.747,1.648,-6.287,-95.438,32.855,-78.871
10841,-0.5156,-0.9346,-0.0903,-10.559,-1.526,-10.376,-95.526,32.712,-78.843
10851,-0.5015,-0.9834,-0.0786,-19.043,-4.822,-11.780,-95.669,32.547,-78.772
10861,-0.4868,-0.9507,-0.0757,-20.325,-7.324,-9.399,-95.806,32.404,-78.673
10871,-0.4941,-0.8804,-0.0713,-12.146,-7.141,-2.441,-95.867,32.355,-78.585
10881,-0.5142,-0.8560,-0.0352,2.625,-4.333,5.920,-95.784,32.404,-78.541
10891,-0.5303,-0.8638,0.0015,15.503,1.587,11.475,-95.592,32.509,-78.574
10901,-0.5308,-0.8584,0.0127,19.897,8.972,13.916,-95.394,32.629,-78.695
10911,-0.5327,-0.8750,0.0137,17.822,16.052,14.282,-95.262,32.739,-78.904
10921,-0.5269,-0.8975,0.0020,11.047,20.325,12.268,-95.235,32.822,-79.156
10931,-0.5293,-0.8828,-0.0215,2.136,20.935,9.033,-95.317,32.871,-79.415
10941,-0.5522,-0.8340,-0.0527,-5.249,18.799,6.958,-95.477,32.926,-79.645
10951,-0.5635,-0.7739,-0.0879,-8.118,14.038,6.226,-95.658,33.008,-79.821
10961,-0.5645,-0.7393,-0.1133,-5.310,8.362,4.822,-95.795,33.085,-79.926
10971,-0.5605,-0.6968,-0.1348,-1.160,1.587,2.869,-95.872,33.168,-79.948
10981,-0.5620,-0.6724,-0.1582,2.319,-4.272,1.282,-95.894,33.245,-79.898
10991,-0.5591,-0.6826,-0.1733,3.601,-7.874,-1.099,-95.894,33.294,-79.799
11001,-0.5439,-0.7227,-0.1602,1.709,-9.827,-4.700,-95.878,33.283,-79.678
11011,-0.5308,-0.7266,-0.1377,-3.357,-11.841,-8.606,-95.872,33.239,-79.530
11021,-0.5527,-0.7598,-0.1045,-6.897,-13.367,-11.719,-95.867,33.162,-79.354
11031,-0.5737,-0.8198,-0.0596,-6.836,-12.817,-14.160,-95.828,33.052,-79.184
11041,-0.5669,-0.8730,-0.0195,-6.836,-10.620,-15.259,-95.773,32.910,-79.041
11051,-0.5518,-0.8398,-0.0112,-7.690,-7.996,-13.794,-95.735,32.789,-78.931
11061,-0.5400,-0.8159,-0.0381,-6.226,-4.700,-9.949,-95.735,32.701,-78.860
11071,-0.5146,-0.8794,-0.0547,-2.625,-0.061,-7.324,-95.729,32.602,-78.854
11081,-0.4863,-0.9434,-0.0815,-3.662,3.235,-8.179,-95.773,32.465,-78.882
11091,-0.4692,-0.9844,-0.1187,-6.653,5.615,-8.911,-95.883,32.300,-78.937
11101,-0.4473,-1.0483,-0.1392,-5.188,7.141,-7.080,-95.988,32.130,-79.014
11111,-0.4556,-1.0527,-0.1504,-1.282,6.042,-2.747,-96.059,32.009,-79.080
11121,-0.4937,-0.9609,-0.1665,3.723,2.258,4.272,-96.075,31.998,-79.113
11131,-0.5220,-0.8584,-0.1592,12.939,-1.099,12.024,-95.993,32.102,-79.113
11141,-0.5342,-0.7568,-0.1294,20.508,-4.944,17.944,-95.806,32.316,-79.074
11151,-0.5464,-0.6748,-0.0879,21.423,-9.583,20.996,-95.565,32.596,-78.992
11161,-0.5566,-0.6133,-0.0566,16.846,-13.367,18.860,-95.323,32.888,-78.854
11171,-0.5684,-0.6694,-0.0288,9.338,-14.465,11.414,-95.120,33.091,-78.695
11180,-0.5654,-0.7671,0.0000,-2.808,-13.123,0.122,-95.010,33.135,-78.536
11191,-0.5679,-0.8306,-0.0186,-19.836,-11.353,-11.169,-95.092,33.047,-78.393
11201,-0.5708,-0.8813,-0.0366,-29.297,-7.446,-18.799,-95.295,32.866,-78.283
11211,-0.5415,-0.9097,-0.0674,-26.917,-1.343,-20.752,-95.532,32.640,-78.245
11221,-0.5063,-0.9385,-0.1079,-15.808,3.174,-16.052,-95.707,32.437,-78.261
11231,-0.4868,-0.9497,-0.1401,-0.732,3.723,-7.202,-95.757,32.305,-78.300
11241,-0.4673,-0.9126,-0.1504,14.954,0.671,2.136,-95.652,32.272,-78.311
11251,-0.4556,-0.9033,-0.1353,28.931,-3.418,10.498,-95.378,32.322,-78.283
11261,-0.4697,-0.8970,-0.0923,35.767,-8.972,17.700,-94.988,32.454,-78.195
11271,-0.5166,-0.8638,-0.0493,32.471,-14.832,21.912,-94.565,32.668,-78.041
11281,-0.5698,-0.8218,-0.0117,24.597,-15.930,19.409,-94.191,32.893,-77.871
11291,-0.5942,-0.7920,0.0088,16.296,-9.827,11.292,-93.928,33.052,-77.767
11301,-0.6011,-0.7778,0.0122,6.348,-1.465,3.967,-93.807,33.140,-77.750
11311,-0.5850,-0.7485,0.0063,-3.906,5.310,-1.648,-93.834,33.168,-77.811
11321,-0.5601,-0.6978,-0.0166,-11.780,8.545,-5.127,-93.983,33.168,-77.910
11331,-0.5405,-0.6548,-0.0352,-13.489,9.216,-6.226,-94.164,33.162,-78.014
11341,-0.5488,-0.6904,-0.0420,-11.230,8.057,-6.104,-94.318,33.151,-78.107
11351,-0.5527,-0.7720,-0.0532,-10.071,5.859,-7.324,-94.444,33.096,-78.168
11361,-0.5361,-0.8574,-0.0693,-11.414,3.418,-9.827,-94.576,32.986,-78.201
11371,-0.5264,-0.9531,-0.0781,-11.719,1.648,-11.414,-94.702,32.827,-78.212
11381,-0.5239,-1.0215,-0.0732,-10.254,0.916,-11.047,-94.796,32.662,-78.212
11391,-0.5361,-1.0034,-0.0737,-7.324,3.052,-9.460,-94.878,32.520,-78.239
11401,-0.5244,-0.9468,-0.0659,0.488,13.794,-8.301,-94.944,32.393,-78.393
11411,-0.5073,-0.8833,-0.0669,10.315,29.541,-5.676,-95.021,32.283,-78.734
11421,-0.5093,-0.7944,-0.0767,17.517,43.701,-2.136,-95.120,32.228,-79.244
11431,-0.5122,-0.7456,-0.1279,20.325,55.664,1.404,-95.312,32.212,-79.904
11441,-0.5166,-0.7266,-0.1914,18.005,61.218,2.808,-95.609,32.206,-80.629
11451,-0.5093,-0.7422,-0.2207,13.062,57.129,1.343,-95.944,32.173,-81.299
11461,-0.4941,-0.7886,-0.2275,6.592,42.175,-0.916,-96.246,32.113,-81.793
11471,-0.4990,-0.8398,-0.2129,0.488,19.409,-3.418,-96.438,32.036,-82.018
11481,-0.5059,-0.8911,-0.1777,-3.540,-5.188,-5.737,-96.482,31.954,-81.953
11491,-0.5049,-0.8857,-0.1631,-4.028,-27.893,-5.066,-96.389,31.910,-81.617
11501,-0.4976,-0.8696,-0.1514,0.305,-46.631,-0.549,-96.136,31.932,-81.068
11511,-0.5059,-0.8789,-0.1304,5.310,-56.702,7.141,-95.762,32.036,-80.414
11521,-0.5068,-0.8555,-0.0972,8.179,-56.824,13.733,-95.345,32.217,-79.766
11531,-0.5068,-0.8350,-0.0117,11.108,-50.415,15.320,-94.883,32.404,-79.189
11541,-0.5288,-0.8525,0.0854,12.207,-38.696,11.780,-94.422,32.547,-78.745
11551,-0.5405,-0.8750,0.1919,10.132,-25.757,5.615,-93.994,32.607,-78.442
11561,-0.5576,-0.8730,0.2598,3.174,-15.503,0.183,-93.658,32.607,-78.261
11571,-0.5825,-0.8638,0.2676,-5.676,-5.371,-3.052,-93.472,32.580,-78.195
11581,-0.5977,-0.8149,0.1919,-14.160,6.470,-5.127,-93.483,32.558,-78.267
11591,-0.5801,-0.7607,0.0571,-19.470,18.616,-5.249,-93.713,32.542,-78.486
11601,-0.5562,-0.7432,-0.0688,-19.470,27.588,-3.723,-94.098,32.531,-78.805
11611,-0.5239,-0.7725,-0.1724,-15.198,29.358,-2.991,-94.515,32.487,-79.151
11621,-0.5020,-0.8271,-0.2402,-8.118,24.780,-3.418,-94.867,32.410,-79.442
11631,-0.4873,-0.9082,-0.2686,0.000,16.174,-3.723,-95.081,32.311,-79.629
11641,-0.4854,-0.9600,-0.2837,7.324,5.249,-2.625,-95.153,32.217,-79.689
11651,-0.4922,-0.9521,-0.3135,12.451,-5.188,0.793,-95.131,32.168,-79.629
11661,-0.4980,-0.9194,-0.3281,17.944,-13.428,6.226,-95.015,32.190,-79.475
11671,-0.4961,-0.8003,-0.2896,23.071,-20.874,12.146,-94.812,32.305,-79.244
11681,-0.5186,-0.6958,-0.1963,25.757,-27.954,17.517,-94.504,32.536,-78.931
11691,-0.5449,-0.6528,-0.0635,24.170,-32.104,17.090,-94.081,32.800,-78.569
11701,-0.5464,-0.6597,0.1074,16.479,-34.973,10.010,-93.565,32.992,-78.162
11711,-0.5444,-0.7246,0.2905,3.052,-36.072,-0.610,-93.049,33.025,-77.734
11721,-0.5508,-0.8213,0.3896,-14.526,-34.668,-10.925,-92.681,32.921,-77.311
11731,-0.5684,-0.9414,0.3599,-31.616,-25.757,-17.700,-92.587,32.717,-76.998
11741,-0.5620,-1.0088,0.2446,-42.542,-8.301,-20.020,-92.791,32.481,-76.888
11751,-0.5190,-1.0161,0.1079,-42.297,10.559,-16.663,-93.181,32.256,-77.003
11761,-0.4990,-0.9922,-0.0156,-33.142,22.705,-6.775,-93.625,32.124,-77.267
11771,-0.5151,-0.9063,-0.1411,-18.433,29.419,5.005,-94.043,32.124,-77.613
11781,-0.5249,-0.8242,-0.2334,1.404,31.921,12.695,-94.351,32.223,-78.003
11791,-0.5264,-0.7979,-0.2778,19.592,29.846,15.503,-94.499,32.349,-78.365
11801,-0.5322,-0.7676,-0.3071,27.832,21.973,15.381,-94.543,32.487,-78.640
11811,-0.5400,-0.7456,-0.3105,25.696,9.277,13.794,-94.532,32.629,-78.761
11821,-0.5371,-0.7227,-0.2827,17.517,-5.737,9.460,-94.499,32.750,-78.706
11831,-0.5332,-0.6997,-0.2383,5.920,-19.043,3.052,-94.460,32.827,-78.481
11841,-0.5273,-0.7295,-0.1592,-3.418,-26.184,-3.906,-94.406,32.833,-78.168
11851,-0.5137,-0.8105,-0.0415,-9.094,-25.879,-10.010,-94.312,32.745,-77.849
11861,-0.5088,-0.9004,0.0757,-12.268,-19.226,-13.184,-94.213,32.596,-77.613
11871,-0.5083,-0.9512,0.1802,-11.536,-9.949,-13.306,-94.109,32.426,-77.481
11881,-0.5181,-0.9624,0.2319,-6.592,-0.305,-10.071,-93.994,32.278,-77.470
11891,-0.5488,-0.9370,0.2109,-0.671,10.254,-2.930,-93.895,32.217,-77.591
11901,-0.5591,-0.8774,0.1450,4.272,21.606,4.822,-93.856,32.250,-77.849
11912,-0.5684,-0.7925,0.0552,6.409,31.311,9.644,-93.911,32.355,-78.223
11921,-0.5679,-0.7446,-0.0366,5.981,36.804,10.071,-94.076,32.481,-78.668
11931,-0.5537,-0.7471,-0.1113,2.686,36.865,6.958,-94.329,32.558,-79.107
11941,-0.5391,-0.7734,-0.1763,-3.784,31.067,2.075,-94.647,32.574,-79.481
11951,-0.5259,-0.8267,-0.2388,-10.437,20.752,-2.075,-94.999,32.525,-79.722
11961,-0.5098,-0.8911,-0.2749,-14.893,7.935,-4.272,-95.312,32.437,-79.810
11971,-0.4995,-0.9150,-0.2891,-16.907,-5.798,-3.113,-95.565,32.366,-79.739
11981,-0.4941,-0.8892,-0.2695,-14.954,-18.188,0.671,-95.713,32.344,-79.525
11991,-0.4971,-0.8198,-0.2163,-7.690,-26.001,5.066,-95.718,32.399,-79.228
12001,-0.5112,-0.7925,-0.1187,3.662,-25.208,7.629,-95.559,32.503,-78.937
12011,-0.5298,-0.7832,-0.0122,10.742,-17.822,7.385,-95.301,32.607,-78.734
12021,-0.5425,-0.7764,0.0674,9.644,-7.385,4.822,-95.059,32.684,-78.651
12031,-0.5571,-0.7925,0.1318,4.395,2.991,0.122,-94.889,32.701,-78.690
12041,-0.5757,-0.8164,0.1289,-4.028,12.573,-5.188,-94.867,32.662,-78.832
12051,-0.5679,-0.8467,0.0884,-13.123,20.447,-9.338,-95.010,32.563,-79.063
12061,-0.5396,-0.8711,0.0239,-19.470,24.597,-10.925,-95.284,32.426,-79.343
12071,-0.5225,-0.8857,-0.0562,-21.118,24.902,-9.277,-95.630,32.294,-79.629
12081,-0.5132,-0.8857,-0.1294,-17.334,22.583,-6.165,-95.966,32.184,-79.887
12091,-0.5054,-0.8765,-0.1875,-9.705,18.433,-2.930,-96.235,32.113,-80.101
12101,-0.5054,-0.8735,-0.2134,-1.526,12.512,0.061,-96.400,32.069,-80.250
12111,-0.5068,-0.8584,-0.2075,3.906,4.700,2.625,-96.465,32.069,-80.305
12121,-0.5093,-0.8247,-0.1875,5.066,-3.479,4.517,-96.460,32.108,-80.272
12131,-0.5288,-0.7925,-0.1606,3.418,-11.047,4.944,-96.411,32.179,-80.145
12141,-0.5430,-0.7764,-0.1426,0.549,-14.404,3.296,-96.361,32.250,-79.980
12151,-0.5391,-0.7778,-0.1138,-2.686,-12.451,0.305,-96.328,32.289,-79.838
12161,-0.5303,-0.7856,-0.0874,-6.592,-8.484,-2.258,-96.339,32.289,-79.733
12171,-0.5278,-0.8101,-0.0742,-9.705,-4.333,-3.784,-96.394,32.267,-79.678
12181,-0.5249,-0.8530,-0.0674,-10.681,-0.793,-4.822,-96.476,32.212,-79.662
12191,-0.5161,-0.8887,-0.0591,-9.155,1.221,-5.310,-96.542,32.135,-79.667
12201,-0.5181,-0.8970,-0.0576,-5.493,1.709,-4.822,-96.575,32.069,-79.684
12211,-0.5244,-0.8896,-0.0591,-0.488,2.747,-2.686,-96.564,32.020,-79.711
12221,-0.5293,-0.8618,-0.0732,4.211,4.822,-0.183,-96.537,32.009,-79.766
12231,-0.5381,-0.8340,-0.0840,7.874,7.324,1.770,-96.498,32.025,-79.854
12241,-0.5308,-0.8174,-0.0854,8.179,8.057,2.686,-96.465,32.053,-79.953
12251,-0.5352,-0.7998,-0.0845,3.479,5.798,2.686,-96.460,32.086,-80.024
12261,-0.5366,-0.7944,-0.0869,-2.930,2.014,1.343,-96.504,32.113,-80.052
12271,-0.5352,-0.8086,-0.0806,-8.545,-1.709,-0.244,-96.570,32.130,-80.030
12281,-0.5293,-0.8354,-0.0767,-12.756,-4.639,-1.465,-96.652,32.119,-79.975
12291,-0.5215,-0.8550,-0.0981,-15.625,-6.470,-1.831,-96.762,32.102,-79.898
12301,-0.5151,-0.8755,-0.1089,-15.259,-6.042,-1.526,-96.877,32.075,-79.821
12311,-0.5088,-0.8730,-0.1123,-12.878,-5.066,-0.488,-96.982,32.053,-79.761
12321,-0.5142,-0.8604,-0.1157,-10.559,-4.395,1.404,-97.064,32.058,-79.711
12331,-0.5210,-0.8496,-0.1133,-8.667,-4.211,3.174,-97.130,32.086,-79.667
12341,-0.5181,-0.8403,-0.1055,-8.850,-5.188,4.272,-97.191,32.130,-79.612
12351,-0.5239,-0.8379,-0.0977,-11.902,-7.935,5.310,-97.262,32.190,-79.530
12361,-0.5293,-0.8320,-0.0942,-16.296,-11.597,6.104,-97.344,32.267,-79.404
12371,-0.5337,-0.8286,-0.0991,-20.081,-14.954,6.653,-97.454,32.355,-79.239
12381,-0.5410,-0.8247,-0.1108,-22.095,-17.700,7.141,-97.570,32.454,-79.041
12391,-0.5449,-0.8325,-0.1226,-21.790,-20.325,7.568,-97.674,32.558,-78.816
12401,-0.5449,-0.8364,-0.1348,-19.653,-22.949,7.874,-97.745,32.668,-78.558
12411,-0.5386,-0.8467,-0.1318,-15.869,-24.902,8.179,-97.762,32.778,-78.278
12421,-0.5342,-0.8623,-0.1245,-11.414,-23.682,8.850,-97.740,32.882,-78.014
12431,-0.5352,-0.8765,-0.1279,-6.775,-19.409,9.705,-97.696,32.986,-77.800
12441,-0.5356,-0.8896,-0.1279,-2.014,-13.245,10.437,-97.646,33.085,-77.657
12451,-0.5254,-0.8828,-0.1216,1.953,-7.629,11.475,-97.592,33.179,-77.585
12461,-0.5195,-0.8467,-0.1196,5.188,-3.540,13.123,-97.531,33.294,-77.563
12471,-0.5259,-0.7959,-0.1152,9.705,-0.366,14.832,-97.454,33.442,-77.585
12481,-0.5381,-0.7700,-0.1064,15.320,2.319,15.930,-97.333,33.607,-77.635
12491,-0.5605,-0.7700,-0.0957,18.616,3.967,15.564,-97.185,33.777,-77.706
12501,-0.5791,-0.7583,-0.0786,17.944,4.395,12.756,-97.037,33.931,-77.778
12511,-0.5879,-0.7441,-0.0659,14.526,4.089,8.240,-96.905,34.052,-77.838
12521,-0.5884,-0.7363,-0.0532,9.583,3.418,3.784,-96.806,34.129,-77.888
12531,-0.5781,-0.7373,-0.0332,3.174,2.625,-0.122,-96.751,34.162,-77.921
12541,-0.5786,-0.7461,-0.0239,-4.700,2.380,-5.005,-96.762,34.146,-77.937
12551,-0.5850,-0.7505,-0.0317,-12.756,3.052,-12.695,-96.855,34.058,-77.959
12561,-0.5728,-0.7764,-0.0522,-17.029,8.728,-21.362,-97.031,33.860,-78.030
12571,-0.5410,-0.8335,-0.0952,-15.076,19.836,-25.452,-97.289,33.574,-78.234
12581,-0.5293,-0.8364,-0.1567,-9.888,28.564,-20.935,-97.586,33.316,-78.541
12591,-0.5220,-0.7969,-0.2075,1.343,30.518,-11.658,-97.833,33.151,-78.882
12601,-0.5161,-0.8120,-0.2207,18.738,26.367,-1.160,-97.888,33.091,-79.195
12611,-0.5205,-0.8638,-0.2031,34.546,17.517,6.409,-97.718,33.102,-79.409
12621,-0.5122,-0.9858,-0.1436,39.490,4.822,8.179,-97.366,33.118,-79.481
12631,-0.5083,-1.1147,-0.0840,26.917,-7.629,5.798,-97.026,33.096,-79.398
12641,-0.4951,-1.1997,-0.0269,1.709,-12.817,0.488,-96.872,33.008,-79.250
12651,-0.5010,-1.0986,-0.0107,-26.123,-6.958,-2.625,-97.020,32.910,-79.162
12661,-0.5225,-0.8389,-0.0864,-44.800,6.653,0.732,-97.493,32.899,-79.244
12671,-0.5591,-0.5723,-0.1528,-40.039,20.142,7.263,-98.102,33.047,-79.492
12681,-0.6089,-0.4658,-0.1709,-12.024,28.442,11.047,-98.531,33.294,-79.843
12691,-0.6299,-0.4561,-0.1685,22.400,30.823,8.179,-98.635,33.519,-80.222
12701,-0.5864,-0.5923,-0.1128,50.537,29.358,1.038,-98.344,33.591,-80.574
12711,-0.5449,-0.7793,-0.0454,54.260,20.447,-4.150,-97.888,33.536,-80.810
12721,-0.5293,-0.9111,-0.0366,33.142,6.775,-7.446,-97.542,33.420,-80.876
12731,-0.5205,-0.9824,-0.0620,4.089,-5.676,-9.460,-97.416,33.278,-80.799
12741,-0.5283,-0.9956,-0.0864,-18.982,-12.878,-9.033,-97.487,33.151,-80.629
12751,-0.5273,-0.9395,-0.1323,-36.194,-15.320,-6.042,-97.751,33.069,-80.436
12761,-0.5366,-0.8228,-0.1958,-41.016,-15.564,-1.343,-98.108,33.074,-80.255
12771,-0.5386,-0.7139,-0.2227,-29.663,-13.000,2.075,-98.416,33.135,-80.101
12781,-0.5356,-0.6816,-0.1948,-8.545,-9.705,3.723,-98.514,33.228,-79.997
12791,-0.5273,-0.7285,-0.1416,11.902,-8.118,4.822,-98.377,33.311,-79.909
12801,-0.5210,-0.8052,-0.0996,21.851,-9.644,5.188,-98.091,33.365,-79.799
12811,-0.5337,-0.8618,-0.0767,20.325,-12.878,4.822,-97.778,33.415,-79.656
12821,-0.5488,-0.8950,-0.0591,12.268,-15.564,3.601,-97.520,33.453,-79.481
12831,-0.5654,-0.8633,-0.0732,1.648,-16.052,1.892,-97.377,33.486,-79.288
12841,-0.5718,-0.8110,-0.0854,-5.005,-12.390,0.916,-97.333,33.530,-79.146
12851,-0.5679,-0.7666,-0.0889,-7.507,-7.812,0.427,-97.350,33.569,-79.052
12861,-0.5557,-0.7388,-0.0786,-9.094,-2.930,-0.610,-97.405,33.602,-79.019
12871,-0.5586,-0.6982,-0.0698,-11.475,-0.610,-2.258,-97.498,33.629,-79.008
12881,-0.5474,-0.7344,-0.0625,-12.146,1.709,-4.028,-97.597,33.618,-79.019
12891,-0.5479,-0.8174,-0.0635,-13.550,2.625,-5.859,-97.712,33.558,-79.041
12901,-0.5444,-0.8911,-0.0898,-16.479,1.465,-8.057,-97.861,33.453,-79.047
12911,-0.5317,-0.9541,-0.1157,-16.907,0.549,-9.033,-98.009,33.322,-79.036
12921,-0.5278,-0.9517,-0.1401,-15.015,-0.793,-7.385,-98.152,33.201,-79.014
12931,-0.5259,-0.8911,-0.1694,-10.437,-2.808,-2.991,-98.262,33.146,-78.975
12941,-0.5288,-0.8467,-0.1611,-4.150,-4.089,2.136,-98.300,33.157,-78.931
12951,-0.5391,-0.7778,-0.1475,-1.709,-6.042,4.761,-98.311,33.223,-78.871
12961,-0.5479,-0.7280,-0.1343,-1.465,-7.996,4.089,-98.300,33.305,-78.783
12971,-0.5361,-0.7563,-0.1064,-1.099,-9.033,1.343,-98.251,33.349,-78.679
12981,-0.5327,-0.8096,-0.0850,-4.089,-10.254,-1.953,-98.201,33.344,-78.552
12991,-0.5381,-0.8628,-0.1006,-9.338,-9.644,-4.517,-98.212,33.300,-78.431
13001,-0.5200,-0.9531,-0.1094,-11.780,-6.836,-5.676,-98.262,33.206,-78.338
13011,-0.5107,-0.9829,-0.1152,-13.611,-5.798,-3.967,-98.339,33.113,-78.267
13021,-0.5269,-0.8940,-0.1450,-14.160,-6.226,0.427,-98.448,33.096,-78.190
13031,-0.5479,-0.8027,-0.1504,-9.583,-6.042,5.737,-98.531,33.173,-78.129
13041,-0.5659,-0.6992,-0.1470,-4.028,-7.324,8.179,-98.564,33.316,-78.058
13051,-0.5776,-0.6431,-0.1299,2.502,-8.179,6.165,-98.525,33.470,-77.975
13061,-0.5718,-0.6582,-0.0977,8.118,-6.348,0.793,-98.399,33.558,-77.899
13071,-0.5449,-0.7432,-0.0771,6.958,-4.028,-5.066,-98.278,33.541,-77.844
13081,-0.5391,-0.8354,-0.0703,-2.014,-3.174,-9.338,-98.234,33.442,-77.789
13091,-0.5332,-0.9038,-0.0752,-13.977,-2.258,-12.268,-98.311,33.300,-77.739
13101,-0.5234,-0.9658,-0.0815,-22.888,1.587,-13.428,-98.498,33.113,-77.734
13111,-0.5186,-0.9741,-0.1094,-28.076,6.836,-12.329,-98.789,32.932,-77.794
13121,-0.5132,-0.9058,-0.1509,-26.123,11.169,-8.240,-99.119,32.794,-77.910
13131,-0.5195,-0.8237,-0.1772,-14.893,12.634,-0.610,-99.371,32.761,-78.058
13141,-0.5327,-0.7739,-0.1694,2.136,11.841,6.409,-99.465,32.816,-78.212
13151,-0.5381,-0.7378,-0.1523,17.822,9.705,9.644,-99.377,32.921,-78.344
13161,-0.5317,-0.8071,-0.1138,24.414,5.432,10.193,-99.168,33.014,-78.426
13171,-0.5410,-0.8311,-0.1030,16.785,-2.014,8.728,-98.976,33.102,-78.420
13181,-0.5439,-0.8511,-0.0942,3.967,-7.080,4.822,-98.871,33.151,-78.344
13191,-0.5439,-0.8813,-0.0825,-9.277,-5.798,0.732,-98.893,33.151,-78.278
13201,-0.5532,-0.8872,-0.0928,-21.667,0.122,-2.380,-99.075,33.113,-78.278
13211,-0.5522,-0.8525,-0.1191,-28.137,9.399,-4.517,-99.399,33.052,-78.376
13221,-0.5410,-0.7920,-0.1519,-25.696,17.639,-5.554,-99.772,32.975,-78.574
13231,-0.5312,-0.7275,-0.1743,-14.648,20.935,-4.333,-100.085,32.921,-78.810
13241,-0.5474,-0.7017,-0.1860,0.610,20.020,-1.831,-100.250,32.910,-79.041
13251,-0.5488,-0.7153,-0.1885,14.832,17.517,-0.977,-100.256,32.910,-79.244
13261,-0.5391,-0.7778,-0.1738,23.071,13.123,-1.648,-100.135,32.882,-79.398
13271,-0.5288,-0.8701,-0.1611,20.386,5.676,-2.747,-99.965,32.822,-79.459
13281,-0.5186,-0.9268,-0.1611,9.583,-3.662,-4.272,-99.844,32.750,-79.404
13291,-0.5088,-0.9604,-0.1655,-2.441,-9.888,-4.944,-99.800,32.668,-79.277
13301,-0.5078,-0.9478,-0.1646,-10.925,-11.841,-3.174,-99.833,32.607,-79.135
13311,-0.5132,-0.8745,-0.1670,-13.916,-11.292,-0.061,-99.910,32.596,-79.003
13321,-0.5234,-0.7764,-0.1626,-8.606,-9.094,2.686,-99.959,32.646,-78.904
13331,-0.5430,-0.7271,-0.1401,2.747,-5.737,3.601,-99.910,32.728,-78.843
13341,-0.5571,-0.7266,-0.1235,11.597,-2.502,2.197,-99.778,32.800,-78.816
13351,-0.5459,-0.7578,-0.1191,14.526,0.610,-0.366,-99.630,32.822,-78.821
13361,-0.5376,-0.8125,-0.1167,11.780,2.747,-2.319,-99.514,32.800,-78.849
13371,-0.5283,-0.8862,-0.1182,5.066,3.052,-3.784,-99.459,32.734,-78.876
13381,-0.5225,-0.9375,-0.1362,-2.441,2.319,-4.395,-99.481,32.646,-78.898
13391,-0.5239,-0.9375,-0.1562,-6.653,1.404,-2.808,-99.553,32.580,-78.909
13401,-0.5239,-0.8965,-0.1709,-5.798,0.488,0.122,-99.624,32.552,-78.915
13411,-0.5225,-0.8379,-0.1660,-0.549,-1.038,3.052,-99.641,32.574,-78.909
13421,-0.5249,-0.7720,-0.1396,5.615,-3.540,4.761,-99.575,32.640,-78.876
13431,-0.5381,-0.7280,-0.1084,8.667,-5.310,4.761,-99.454,32.728,-78.821
13441,-0.5459,-0.7339,-0.0752,7.751,-5.005,2.563,-99.311,32.800,-78.772
13452,-0.5435,-0.7676,-0.0630,2.136,-3.418,-0.977,-99.218,32.822,-78.728
13461,-0.5371,-0.8311,-0.0615,-5.798,-1.099,-3.967,-99.218,32.783,-78.706
13471,-0.5376,-0.8760,-0.0845,-14.709,1.709,-5.249,-99.333,32.717,-78.717
13481,-0.5347,-0.8809,-0.1255,-20.325,4.578,-4.944,-99.542,32.640,-78.761
13491,-0.5347,-0.8657,-0.1602,-18.860,6.958,-3.723,-99.778,32.580,-78.838
13501,-0.5293,-0.8223,-0.1831,-12.268,7.385,-1.831,-99.970,32.547,-78.920
13511,-0.5278,-0.7803,-0.1826,-2.747,6.348,-0.366,-100.069,32.542,-78.992
13521,-0.5293,-0.7783,-0.1670,5.249,4.150,-0.183,-100.063,32.542,-79.041
13531,-0.5200,-0.8071,-0.1504,7.996,1.770,-1.282,-99.998,32.525,-79.058
13541,-0.5146,-0.8472,-0.1333,5.432,-0.549,-2.197,-99.932,32.487,-79.047
13551,-0.5200,-0.8784,-0.1318,0.244,-2.197,-2.441,-99.899,32.448,-79.019
13561,-0.5220,-0.8901,-0.1436,-3.967,-2.014,-1.770,-99.915,32.410,-78.992
13571,-0.5322,-0.8735,-0.1626,-5.066,-0.061,-0.366,-99.970,32.393,-78.986
13581,-0.5386,-0.8589,-0.1704,-2.502,2.930,1.099,-100.025,32.388,-79.025
13591,-0.5327,-0.8193,-0.1792,0.732,5.127,2.014,-100.074,32.399,-79.091
13601,-0.5308,-0.7690,-0.1743,3.357,5.127,2.625,-100.102,32.432,-79.151
13611,-0.5288,-0.7427,-0.1655,4.517,2.869,2.136,-100.102,32.470,-79.189
13621,-0.5317,-0.7583,-0.1460,3.723,-0.305,0.305,-100.074,32.498,-79.189
13631,-0.5264,-0.8125,-0.1304,0.122,-3.540,-2.197,-100.036,32.481,-79.140
13641,-0.5166,-0.8901,-0.1235,-5.188,-6.104,-3.784,-100.025,32.432,-79.063
13651,-0.5176,-0.9351,-0.1265,-10.132,-7.446,-3.479,-100.052,32.371,-78.970
13661,-0.5264,-0.9199,-0.1411,-11.230,-7.080,-1.343,-100.107,32.344,-78.882
13671,-0.5347,-0.8608,-0.1528,-6.653,-4.456,1.892,-100.146,32.360,-78.838
13681,-0.5410,-0.8169,-0.1533,2.258,-0.793,4.333,-100.129,32.410,-78.838
13691,-0.5356,-0.7861,-0.1504,10.071,1.770,4.333,-100.052,32.465,-78.865
13701,-0.5273,-0.7671,-0.1396,13.855,2.808,2.991,-99.937,32.503,-78.904
13711,-0.5259,-0.7637,-0.1294,12.939,2.869,1.892,-99.827,32.536,-78.942
13721,-0.5322,-0.7637,-0.1255,7.629,1.160,0.610,-99.756,32.558,-78.959
13731,-0.5405,-0.7871,-0.1274,1.465,-0.854,-1.343,-99.728,32.563,-78.942
13741,-0.5376,-0.8154,-0.1343,-3.784,-2.625,-3.601,-99.739,32.536,-78.904
13751,-0.5317,-0.8530,-0.1470,-6.897,-3.906,-4.822,-99.778,32.487,-78.849
13761,-0.5273,-0.8716,-0.1562,-6.897,-4.211,-4.883,-99.822,32.432,-78.794
13771,-0.5259,-0.8687,-0.1592,-4.456,-3.540,-3.784,-99.844,32.382,-78.745
13781,-0.5273,-0.8726,-0.1543,-0.061,-2.136,-2.136,-99.833,32.349,-78.712
13791,-0.5283,-0.8740,-0.1431,3.723,-0.549,-0.549,-99.783,32.327,-78.706
13801,-0.5195,-0.8394,-0.1396,5.005,0.366,0.916,-99.734,32.327,-78.712
13811,-0.5215,-0.8101,-0.1284,5.310,0.793,2.075,-99.684,32.349,-78.728
13821,-0.5278,-0.7861,-0.1206,4.028,0.305,1.831,-99.635,32.377,-78.734
13831,-0.5322,-0.7964,-0.1094,1.343,-0.244,0.244,-99.602,32.393,-78.728
13841,-0.5303,-0.8013,-0.1138,-2.747,-1.160,-1.892,-99.608,32.382,-78.712
13851,-0.5317,-0.8193,-0.1128,-5.737,-1.953,-3.479,-99.630,32.355,-78.684
13861,-0.5361,-0.8359,-0.1221,-7.568,-2.563,-3.967,-99.673,32.322,-78.646
13871,-0.5396,-0.8501,-0.1333,-7.568,-2.441,-3.906,-99.717,32.289,-78.607
13881,-0.5303,-0.8579,-0.1421,-6.165,-1.526,-3.296,-99.767,32.250,-78.585
13891,-0.5171,-0.8169,-0.1567,-4.272,-0.977,-2.197,-99.811,32.223,-78.569
13901,-0.5220,-0.8013,-0.1616,-0.061,-0.122,-0.977,-99.822,32.217,-78.563
13913,-0.5269,-0.8105,-0.1587,3.906,1.221,-0.610,-99.805,32.212,-78.580
13921,-0.5225,-0.8203,-0.1548,5.310,2.197,-1.282,-99.772,32.195,-78.602
13931,-0.5112,-0.8462,-0.1479,4.822,2.808,-1.465,-99.745,32.162,-78.629
13941,-0.5044,-0.8779,-0.1450,3.662,2.869,-0.916,-99.717,32.124,-78.662
13952,-0.5103,-0.8965,-0.1401,2.380,2.441,0.793,-99.701,32.097,-78.695
13961,-0.5151,-0.8970,-0.1387,2.380,2.625,3.235,-99.690,32.102,-78.728
13971,-0.5112,-0.8882,-0.1362,3.479,3.540,6.470,-99.673,32.135,-78.783
13981,-0.5142,-0.8481,-0.1328,5.615,4.028,9.888,-99.646,32.212,-78.849
13991,-0.5234,-0.8262,-0.1260,8.911,4.700,13.611,-99.591,32.333,-78.931
14001,-0.5356,-0.8042,-0.1230,11.658,5.676,16.296,-99.520,32.492,-79.030
14011,-0.5469,-0.7866,-0.1167,12.512,6.042,16.846,-99.437,32.668,-79.135
14021,-0.5527,-0.7827,-0.1187,11.353,5.981,15.381,-99.371,32.833,-79.233
14031,-0.5615,-0.7939,-0.1113,7.446,4.272,11.658,-99.322,32.959,-79.305
14041,-0.5542,-0.7827,-0.1167,0.427,0.671,6.226,-99.322,33.041,-79.327
14051,-0.5483,-0.7739,-0.1313,-6.226,-3.174,0.916,-99.366,33.074,-79.294
14061,-0.5459,-0.7637,-0.1484,-11.414,-7.690,-3.235,-99.443,33.074,-79.195
14071,-0.5488,-0.7896,-0.1606,-13.367,-10.437,-5.981,-99.525,33.047,-79.058
14081,-0.5400,-0.8340,-0.1689,-12.756,-10.620,-8.362,-99.591,32.975,-78.920
14091,-0.5264,-0.8706,-0.1709,-10.437,-9.033,-10.010,-99.646,32.871,-78.794
14101,-0.5190,-0.8862,-0.1694,-6.775,-6.653,-9.460,-99.668,32.761,-78.695
14111,-0.5146,-0.8945,-0.1587,-1.953,-4.639,-7.019,-99.657,32.668,-78.629
14121,-0.5195,-0.8872,-0.1460,2.258,-4.150,-4.028,-99.602,32.607,-78.569
14131,-0.5278,-0.8735,-0.1367,5.432,-5.005,-1.465,-99.509,32.585,-78.508
14141,-0.5400,-0.8545,-0.1309,7.385,-6.042,0.244,-99.388,32.591,-78.437
14151,-0.5420,-0.8359,-0.1387,8.545,-6.592,0.977,-99.267,32.607,-78.365
14161,-0.5352,-0.8184,-0.1484,9.033,-6.531,1.038,-99.146,32.629,-78.289
14171,-0.5352,-0.8110,-0.1543,9.094,-6.775,0.427,-99.031,32.651,-78.212
14181,-0.5420,-0.8164,-0.1621,9.155,-7.141,-0.671,-98.915,32.657,-78.124
14191,-0.5430,-0.8286,-0.1636,9.277,-7.202,-2.197,-98.800,32.651,-78.036
14201,-0.5400,-0.8462,-0.1582,8.850,-7.385,-3.845,-98.679,32.618,-77.943
14211,-0.5332,-0.8623,-0.1479,7.690,-7.874,-5.249,-98.558,32.563,-77.844
14221,-0.5220,-0.8804,-0.1279,5.981,-8.606,-6.470,-98.438,32.492,-77.728
14231,-0.5093,-0.8877,-0.1060,3.418,-9.583,-7.507,-98.322,32.404,-77.602
14241,-0.5073,-0.8862,-0.0811,0.305,-9.827,-8.118,-98.218,32.311,-77.476
14251,-0.5098,-0.8760,-0.0601,-2.563,-9.094,-8.362,-98.135,32.223,-77.355
14261,-0.5107,-0.8628,-0.0381,-4.333,-6.836,-8.545,-98.075,32.130,-77.261
14271,-0.5161,-0.8516,-0.0200,-4.944,-3.540,-8.728,-98.026,32.042,-77.206
14281,-0.5186,-0.8350,-0.0137,-4.761,0.183,-8.362,-97.998,31.959,-77.190
14291,-0.5195,-0.8252,-0.0098,-3.052,3.723,-6.775,-97.971,31.888,-77.223
14301,-0.5200,-0.8120,-0.0098,-1.404,6.531,-4.578,-97.949,31.844,-77.294
14311,-0.5244,-0.7979,-0.0073,0.122,8.667,-2.563,-97.921,31.822,-77.388
14321,-0.5288,-0.7939,-0.0161,0.854,11.047,-1.465,-97.910,31.811,-77.514
14331,-0.5347,-0.7998,-0.0405,-0.610,14.343,-0.793,-97.954,31.800,-77.684
14341,-0.5400,-0.7993,-0.0835,-4.700,18.494,0.122,-98.091,31.800,-77.899
14351,-0.5547,-0.8052,-0.1377,-10.193,23.071,1.221,-98.350,31.800,-78.168
14361,-0.5513,-0.8071,-0.1953,-15.381,27.771,2.441,-98.729,31.805,-78.497
14371,-0.5244,-0.8052,-0.2534,-18.188,31.311,3.723,-99.190,31.794,-78.865
14381,-0.5078,-0.8066,-0.3008,-15.808,31.555,5.249,-99.651,31.783,-79.244
14391,-0.4971,-0.8105,-0.3262,-7.812,27.405,6.958,-100.025,31.783,-79.574
14401,-0.4980,-0.8232,-0.3301,2.991,20.203,8.789,-100.245,31.811,-79.827
14411,-0.5029,-0.8325,-0.3149,13.550,11.230,9.827,-100.294,31.860,-79.980
14421,-0.5054,-0.8311,-0.2939,23.193,2.258,9.705,-100.184,31.932,-80.024
14431,-0.5029,-0.8398,-0.2441,30.945,-6.409,8.911,-99.910,32.009,-79.969
14441,-0.5005,-0.8599,-0.1904,33.569,-14.771,8.606,-99.520,32.097,-79.816
14452,-0.5059,-0.8633,-0.1392,30.212,-22.400,8.972,-99.091,32.201,-79.568
14461,-0.5210,-0.8628,-0.0894,22.278,-27.527,9.399,-98.674,32.322,-79.266
14471,-0.5366,-0.8452,-0.0547,12.207,-28.748,9.521,-98.339,32.459,-78.948
14481,-0.5483,-0.8057,-0.0386,2.930,-25.757,9.521,-98.102,32.607,-78.662
14491,-0.5586,-0.7656,-0.0322,-3.784,-19.104,9.094,-97.971,32.756,-78.453
14501,-0.5664,-0.7378,-0.0308,-7.019,-10.620,7.751,-97.921,32.893,-78.344
14511,-0.5679,-0.7256,-0.0283,-6.653,-2.258,4.761,-97.921,32.997,-78.322
14521,-0.5688,-0.7373,-0.0288,-4.150,4.517,0.854,-97.932,33.047,-78.376
14531,-0.5581,-0.7725,-0.0229,-1.953,9.033,-2.808,-97.949,33.030,-78.481
14541,-0.5547,-0.7954,-0.0293,-1.892,10.925,-4.944,-97.971,32.986,-78.602
14551,-0.5527,-0.8174,-0.0464,-3.784,10.986,-5.493,-98.026,32.932,-78.723
14561,-0.5435,-0.8477,-0.0601,-6.531,10.498,-5.310,-98.113,32.860,-78.838
14571,-0.5376,-0.8735,-0.0850,-10.010,9.399,-4.883,-98.245,32.783,-78.937
14581,-0.5322,-0.8716,-0.1172,-12.634,8.301,-3.906,-98.410,32.717,-79.030
14591,-0.5234,-0.8525,-0.1494,-12.573,7.935,-2.380,-98.597,32.668,-79.118
14601,-0.5112,-0.8486,-0.1670,-8.850,7.629,-0.671,-98.756,32.629,-79.206
14611,-0.4961,-0.8584,-0.1821,-3.052,6.836,1.526,-98.866,32.602,-79.288
14621,-0.4775,-0.8755,-0.1963,2.869,3.723,4.944,-98.904,32.602,-79.343
14631,-0.4858,-0.9014,-0.1968,8.057,-2.563,9.460,-98.849,32.646,-79.332
14641,-0.5015,-0.9121,-0.1777,10.925,-11.108,13.550,-98.707,32.756,-79.222
14651,-0.5190,-0.8896,-0.1509,10.132,-18.738,17.334,-98.514,32.926,-79.036
14661,-0.5420,-0.8257,-0.1318,7.324,-22.888,20.020,-98.322,33.157,-78.799
14671,-0.5713,-0.7368,-0.1216,4.456,-22.400,20.508,-98.163,33.431,-78.574
14681,-0.5928,-0.6709,-0.0981,3.418,-17.273,18.616,-98.036,33.712,-78.398
14691,-0.6016,-0.6826,-0.0693,4.395,-7.080,13.855,-97.938,33.937,-78.338
14701,-0.5977,-0.7437,-0.0513,4.211,4.822,6.165,-97.894,34.036,-78.404
14711,-0.5737,-0.8306,-0.0410,2.197,14.587,-3.967,-97.916,33.986,-78.574
14721,-0.5391,-0.9282,-0.0508,-1.526,21.729,-12.024,-98.015,33.799,-78.810
14731,-0.5229,-0.9902,-0.0825,-3.601,25.818,-14.465,-98.174,33.558,-79.096
14741,-0.5078,-1.0024,-0.1177,-2.258,25.513,-9.338,-98.339,33.365,-79.382
14751,-0.5112,-0.9365,-0.1553,2.686,20.386,1.953,-98.454,33.305,-79.629
14761,-0.5386,-0.7969,-0.1826,10.925,12.146,14.282,-98.481,33.426,-79.799
14771,-0.5601,-0.6597,-0.1841,20.386,2.747,22.034,-98.394,33.695,-79.871
14781,-0.5718,-0.6104,-0.1646,25.269,-6.897,22.522,-98.185,34.014,-79.827
14791,-0.5791,-0.6055,-0.1479,20.569,-15.991,16.174,-97.949,34.283,-79.662
14801,-0.5864,-0.6372,-0.1377,9.460,-21.362,4.761,-97.756,34.437,-79.415
14811,-0.5786,-0.7080,-0.1196,-2.747,-20.813,-7.874,-97.657,34.431,-79.151
14821,-0.5811,-0.8101,-0.1104,-13.184,-14.526,-17.151,-97.674,34.288,-78.948
14831,-0.5605,-0.9189,-0.1113,-19.775,-4.700,-21.912,-97.811,34.052,-78.860
14841,-0.5244,-0.9932,-0.1333,-22.461,4.211,-21.362,-98.042,33.772,-78.871
14851,-0.5044,-1.0210,-0.1597,-20.386,7.812,-14.709,-98.289,33.541,-78.942
14861,-0.4946,-1.0059,-0.1699,-13.428,6.042,-4.272,-98.470,33.409,-79.008
14871,-0.4917,-0.9111,-0.1670,-3.723,0.122,6.287,-98.531,33.420,-79.019
14881,-0.5063,-0.7822,-0.1504,7.690,-8.057,13.977,-98.443,33.558,-78.948
14891,-0.5435,-0.7251,-0.1021,17.456,-16.418,17.212,-98.174,33.783,-78.783
14901,-0.5674,-0.7178,-0.0444,20.447,-22.461,15.015,-97.789,34.003,-78.541
14911,-0.5869,-0.7222,-0.0024,14.893,-24.475,9.094,-97.416,34.178,-78.261
14921,-0.6006,-0.7124,0.0254,3.906,-20.447,2.686,-97.147,34.288,-78.025
14931,-0.6006,-0.7178,0.0269,-8.667,-12.207,-1.587,-97.059,34.343,-77.871
14941,-0.6084,-0.6699,-0.0078,-21.484,-4.150,-3.540,-97.174,34.393,-77.816
14952,-0.6060,-0.6543,-0.0547,-27.893,2.136,-5.798,-97.438,34.420,-77.833
14961,-0.5820,-0.7061,-0.1025,-25.452,4.761,-8.789,-97.723,34.371,-77.877
14971,-0.5547,-0.7949,-0.1558,-19.104,4.333,-12.329,-97.960,34.244,-77.910
14981,-0.5220,-0.9263,-0.1885,-12.390,2.625,-15.015,-98.124,34.041,-77.915
14991,-0.4995,-1.0127,-0.2070,-8.118,-1.282,-14.771,-98.218,33.816,-77.877
15001,-0.4858,-1.0337,-0.2090,-5.676,-5.371,-11.169,-98.256,33.624,-77.794
15011,-0.4951,-1.0000,-0.1963,-2.747,-7.874,-5.127,-98.256,33.508,-77.690
15021,-0.5312,-0.8931,-0.1758,1.038,-8.179,0.793,-98.223,33.497,-77.596
15031,-0.5586,-0.7388,-0.1445,6.287,-6.531,4.639,-98.152,33.580,-77.525
15041,-0.5771,-0.6470,-0.1187,10.864,-3.723,5.371,-98.047,33.717,-77.492
15051,-0.5903,-0.6533,-0.0884,13.428,0.610,2.380,-97.916,33.821,-77.503
15061,-0.5786,-0.7153,-0.0703,10.803,4.639,-4.639,-97.811,33.816,-77.547
15071,-0.5518,-0.8154,-0.0645,2.808,8.118,-11.719,-97.795,33.695,-77.629
15081,-0.5283,-0.9092,-0.0874,-7.568,9.705,-15.564,-97.899,33.492,-77.717
15091,-0.5181,-0.9727,-0.1138,-13.855,9.583,-16.113,-98.069,33.267,-77.805
15101,-0.5107,-0.9570,-0.1406,-13.672,7.568,-13.489,-98.245,33.069,-77.871
15111,-0.5098,-0.9082,-0.1533,-6.470,4.578,-8.240,-98.344,32.943,-77.910
15121,-0.5225,-0.8667,-0.1465,4.333,1.648,-2.441,-98.322,32.893,-77.926
15131,-0.5293,-0.8481,-0.1172,13.550,-0.183,0.610,-98.179,32.888,-77.926
15141,-0.5220,-0.8340,-0.0942,15.747,-1.526,1.221,-97.998,32.888,-77.910
15151,-0.5205,-0.8403,-0.0752,11.597,-1.404,1.099,-97.850,32.893,-77.893
15161,-0.5352,-0.8452,-0.0693,3.052,-0.610,0.427,-97.784,32.888,-77.888
15171,-0.5405,-0.8545,-0.0850,-4.700,0.916,-0.427,-97.811,32.877,-77.899
15181,-0.5391,-0.8730,-0.0991,-8.911,2.686,-0.671,-97.905,32.855,-77.932
15191,-0.5322,-0.8442,-0.1172,-10.132,3.357,-0.061,-98.026,32.838,-77.970
15201,-0.5327,-0.8101,-0.1294,-7.629,3.784,1.892,-98.135,32.855,-78.014
15211,-0.5371,-0.7817,-0.1289,-2.930,3.601,3.479,-98.207,32.899,-78.063
15221,-0.5425,-0.7461,-0.1284,0.549,1.953,3.662,-98.229,32.959,-78.096
15231,-0.5454,-0.7471,-0.1260,2.930,0.793,2.869,-98.223,33.014,-78.107
15241,-0.5464,-0.7744,-0.1265,2.808,-0.061,1.160,-98.207,33.041,-78.107
15251,-0.5439,-0.7881,-0.1279,0.061,-1.282,-0.671,-98.207,33.047,-78.091
15261,-0.5391,-0.8301,-0.1216,-2.258,-1.465,-2.380,-98.218,33.025,-78.074
15271,-0.5361,-0.8750,-0.1216,-3.967,-0.366,-3.967,-98.251,32.970,-78.063
15281,-0.5317,-0.8960,-0.1279,-4.517,1.953,-4.395,-98.300,32.899,-78.074
15291,-0.5259,-0.9043,-0.1372,-3.174,5.127,-3.052,-98.366,32.833,-78.129
15301,-0.5278,-0.8794,-0.1455,-1.404,7.629,-0.549,-98.438,32.794,-78.223
15311,-0.5293,-0.8335,-0.1587,0.916,8.972,1.892,-98.509,32.789,-78.327
15321,-0.5278,-0.8213,-0.1543,4.395,9.399,2.930,-98.547,32.800,-78.442
15331,-0.5151,-0.7998,-0.1504,5.188,7.263,2.563,-98.569,32.811,-78.536
15341,-0.5166,-0.8062,-0.1333,4.395,3.418,1.709,-98.553,32.816,-78.580
15351,-0.5200,-0.8325,-0.1152,2.502,-0.366,0.549,-98.520,32.811,-78.574
15361,-0.5215,-0.8525,-0.1040,-0.244,-3.418,-0.671,-98.487,32.794,-78.536
15371,-0.5342,-0.8525,-0.0957,-1.770,-5.005,-0.793,-98.448,32.783,-78.475
15381,-0.5498,-0.8174,-0.0903,-0.793,-4.761,0.610,-98.410,32.805,-78.420
15391,-0.5654,-0.7827,-0.0884,2.380,-2.380,1.953,-98.350,32.860,-78.393
15401,-0.5723,-0.7559,-0.0815,5.310,0.610,1.160,-98.284,32.910,-78.404
15411,-0.5596,-0.8027,-0.0791,6.531,3.784,-1.343,-98.212,32.910,-78.442
15421,-0.5332,-0.8828,-0.0801,3.479,6.531,-3.601,-98.185,32.849,-78.514
15431,-0.5112,-0.9370,-0.1045,-4.578,8.118,-4.028,-98.262,32.750,-78.607
15441,-0.4966,-0.9570,-0.1304,-11.047,8.362,-2.075,-98.416,32.668,-78.701
15452,-0.5000,-0.9048,-0.1606,-12.573,6.348,1.892,-98.597,32.635,-78.777
15461,-0.5278,-0.8208,-0.1841,-7.202,2.747,6.714,-98.734,32.690,-78.821
15471,-0.5566,-0.7397,-0.1831,3.418,-1.038,9.766,-98.756,32.822,-78.827
15481,-0.5757,-0.6499,-0.1768,12.573,-5.127,9.521,-98.674,32.997,-78.783
15491,-0.5840,-0.6025,-0.1484,18.555,-8.179,6.714,-98.492,33.179,-78.701
15501,-0.5781,-0.6460,-0.1079,18.982,-8.606,1.892,-98.262,33.294,-78.602
15511,-0.5576,-0.7334,-0.0894,10.010,-7.568,-4.639,-98.097,33.300,-78.503
15521,-0.5327,-0.8345,-0.0859,-4.578,-5.127,-11.169,-98.080,33.184,-78.426
15531,-0.5176,-0.9209,-0.0937,-17.212,-1.770,-14.465,-98.201,33.008,-78.376
15541,-0.5083,-0.9639,-0.1147,-23.682,0.916,-14.038,-98.416,32.816,-78.365
15551,-0.5078,-0.9849,-0.1343,-21.912,2.441,-10.376,-98.630,32.651,-78.376
15561,-0.5059,-0.9678,-0.1455,-13.123,2.869,-4.639,-98.773,32.547,-78.404
15571,-0.5093,-0.9214,-0.1475,-0.732,1.831,0.916,-98.795,32.514,-78.426
15581,-0.5176,-0.8945,-0.1304,11.658,1.343,4.944,-98.690,32.536,-78.448
15591,-0.5234,-0.8452,-0.1230,19.043,1.221,6.592,-98.509,32.585,-78.475
15601,-0.5195,-0.8101,-0.1035,21.851,1.404,7.141,-98.295,32.651,-78.503
15611,-0.5298,-0.7856,-0.0806,17.944,0.488,7.507,-98.102,32.739,-78.525
15621,-0.5532,-0.7490,-0.0684,8.789,-0.793,6.653,-97.987,32.844,-78.525
15631,-0.5601,-0.7158,-0.0615,-0.732,-0.793,4.272,-97.965,32.937,-78.525
15641,-0.5581,-0.7383,-0.0537,-9.827,-0.305,1.465,-98.026,32.992,-78.519
15651,-0.5571,-0.7563,-0.0708,-19.531,-0.854,-1.343,-98.185,33.014,-78.508
15661,-0.5469,-0.7817,-0.1025,-25.208,-0.977,-4.272,-98.416,32.986,-78.492
15671,-0.5312,-0.8477,-0.1353,-23.621,0.305,-6.226,-98.652,32.915,-78.481
15681,-0.5186,-0.9072,-0.1729,-18.005,1.770,-6.653,-98.855,32.811,-78.492
15691,-0.5107,-0.9336,-0.1997,-9.888,2.869,-5.249,-98.998,32.706,-78.514
15701,-0.5024,-0.9497,-0.1958,-0.366,3.540,-2.075,-99.047,32.629,-78.552
15711,-0.5098,-0.9097,-0.1851,6.348,2.502,2.319,-99.031,32.613,-78.585
15721,-0.5278,-0.8452,-0.1606,9.766,0.549,6.165,-98.959,32.657,-78.607
15731,-0.5415,-0.7930,-0.1304,10.376,-0.427,7.446,-98.866,32.745,-78.613
15741,-0.5532,-0.7612,-0.1016,8.301,0.427,6.348,-98.778,32.838,-78.629
15751,-0.5537,-0.7725,-0.0825,3.906,3.601,4.211,-98.740,32.899,-78.679
15761,-0.5469,-0.7954,-0.0835,-3.235,8.728,1.709,-98.800,32.921,-78.788
15771,-0.5376,-0.8062,-0.1069,-10.010,13.428,-0.183,-98.976,32.899,-78.942
15781,-0.5293,-0.8086,-0.1260,-11.841,15.808,-1.221,-99.190,32.866,-79.129
15791,-0.5283,-0.7998,-0.1445,-8.972,14.954,-1.343,-99.382,32.827,-79.299
15801,-0.5396,-0.7837,-0.1455,-3.418,11.719,-0.854,-99.498,32.816,-79.437
15811,-0.5483,-0.7554,-0.1475,2.441,7.996,-1.160,-99.542,32.816,-79.530
15821,-0.5493,-0.7397,-0.1426,7.202,4.883,-2.136,-99.509,32.822,-79.585
15831,-0.5439,-0.7461,-0.1343,8.423,1.343,-3.784,-99.437,32.811,-79.590
15841,-0.5361,-0.8027,-0.1338,4.822,-1.831,-5.798,-99.371,32.761,-79.557
15851,-0.5259,-0.8838,-0.1362,-3.113,-3.296,-7.446,-99.371,32.673,-79.503
15861,-0.5103,-0.9595,-0.1367,-12.939,-3.540,-7.874,-99.454,32.552,-79.448
15871,-0.5000,-1.0024,-0.1392,-19.958,-3.235,-6.165,-99.608,32.437,-79.398
15881,-0.4961,-1.0059,-0.1499,-21.606,-2.808,-2.930,-99.794,32.349,-79.360
15891,-0.4976,-0.9438,-0.1611,-16.296,-1.831,1.404,-99.943,32.316,-79.343
15901,-0.5112,-0.8491,-0.1685,-5.005,-0.061,6.226,-100.009,32.360,-79.354
15914,-0.5337,-0.7598,-0.1577,7.568,1.953,9.399,-99.976,32.470,-79.393
15921,-0.5513,-0.7002,-0.1484,16.602,3.662,9.216,-99.866,32.602,-79.459
15931,-0.5522,-0.7080,-0.1270,18.433,4.639,7.019,-99.723,32.712,-79.525
15941,-0.5625,-0.7319,-0.1265,9.827,3.174,3.662,-99.646,32.789,-79.568
15952,-0.5562,-0.7651,-0.1411,-2.930,0.488,-1.587,-99.684,32.800,-79.574
15961,-0.5435,-0.8184,-0.1558,-11.841,-1.282,-5.981,-99.800,32.745,-79.547
15971,-0.5361,-0.8760,-0.1577,-13.977,-2.563,-8.179,-99.915,32.651,-79.497
15981,-0.5225,-0.9019,-0.1548,-10.193,-2.625,-7.812,-99.992,32.552,-79.453
15991,-0.5020,-0.8936,-0.1460,-3.540,-1.404,-4.517,-100.009,32.476,-79.426
16001,-0.4941,-0.8984,-0.1172,3.479,0.488,0.610,-99.948,32.443,-79.431
16011,-0.5103,-0.8745,-0.0928,5.615,1.526,5.188,-99.871,32.465,-79.464
16021,-0.5293,-0.8223,-0.0942,2.686,3.296,7.935,-99.838,32.542,-79.519
16031,-0.5459,-0.7822,-0.1167,-1.099,6.531,8.545,-99.888,32.635,-79.612
16041,-0.5605,-0.7529,-0.1455,-2.747,9.583,6.165,-99.992,32.712,-79.733
16051,-0.5586,-0.7349,-0.1797,-2.014,11.047,2.258,-100.118,32.750,-79.871
16061,-0.5449,-0.7451,-0.1997,1.526,10.864,-1.526,-100.217,32.745,-79.991
16071,-0.5117,-0.7998,-0.1958,5.127,7.263,-4.089,-100.245,32.684,-80.068
16081,-0.5088,-0.8203,-0.1831,4.028,-0.244,-4.211,-100.223,32.629,-80.057
16091,-0.5122,-0.8442,-0.1758,0.366,-7.385,-3.967,-100.184,32.580,-79.964
16101,-0.5259,-0.8838,-0.1543,-3.052,-9.460,-3.601,-100.146,32.542,-79.843
16111,-0.5303,-0.8999,-0.1416,-6.653,-7.019,-2.869,-100.157,32.503,-79.755
16121,-0.5317,-0.8994,-0.1431,-8.240,-2.136,-1.221,-100.212,32.470,-79.728
16131,-0.5420,-0.8643,-0.1543,-7.629,2.075,0.427,-100.300,32.465,-79.755
16141,-0.5381,-0.8213,-0.1626,-3.235,5.188,1.709,-100.371,32.476,-79.816
16151,-0.5264,-0.7817,-0.1548,2.441,5.737,1.892,-100.393,32.492,-79.887
16161,-0.5195,-0.7520,-0.1523,5.981,3.662,0.854,-100.371,32.509,-79.937
