elapsed_ms,acc_x_g,acc_y_g,acc_z_g,gyro_x_dps,gyro_y_dps,gyro_z_dps,angle_x_deg,angle_y_deg,angle_z_deg
0,-0.4214,-0.9111,-0.2324,9.705,-1.587,-6.775,-106.661,26.136,-87.215
10,-0.4146,-0.9180,-0.2251,8.911,-0.671,-4.944,-106.534,26.065,-87.193
20,-0.4116,-0.9141,-0.2222,5.920,-0.244,-2.686,-106.441,26.016,-87.182
30,-0.4106,-0.9067,-0.2271,2.197,0.122,-0.244,-106.397,25.994,-87.182
40,-0.4175,-0.8926,-0.2285,-0.671,0.610,1.831,-106.386,25.994,-87.193
50,-0.4219,-0.8818,-0.2236,-2.319,1.282,3.418,-106.397,26.010,-87.215
60,-0.4326,-0.8726,-0.2202,-3.845,1.648,4.883,-106.430,26.049,-87.248
70,-0.4458,-0.8525,-0.2261,-5.554,2.197,5.981,-106.485,26.109,-87.292
80,-0.4634,-0.8125,-0.2339,-6.348,3.418,6.653,-106.567,26.186,-87.352
90,-0.4712,-0.7798,-0.2485,-5.066,5.310,6.836,-106.666,26.274,-87.429
100,-0.4658,-0.7578,-0.2612,-2.075,7.751,6.226,-106.754,26.351,-87.534
110,-0.4551,-0.7646,-0.2744,0.427,9.583,4.578,-106.831,26.395,-87.649
121,-0.4258,-0.8252,-0.2871,1.709,10.010,1.404,-106.886,26.373,-87.759
130,-0.3975,-0.9146,-0.2822,-0.977,7.690,-3.296,-106.930,26.285,-87.830
140,-0.3730,-0.9976,-0.2759,-6.958,2.930,-7.812,-106.985,26.136,-87.836
150,-0.3501,-1.0918,-0.2632,-12.817,-2.014,-10.132,-107.056,25.961,-87.781
160,-0.3682,-1.1021,-0.2593,-18.738,-6.958,-7.385,-107.161,25.829,-87.682
170,-0.4009,-1.0391,-0.2778,-21.667,-8.240,3.174,-107.320,25.829,-87.605
180,-0.4253,-0.9385,-0.3096,-16.846,-4.211,17.944,-107.501,25.988,-87.621
190,-0.4482,-0.8550,-0.3252,-4.456,1.953,30.151,-107.633,26.268,-87.742
200,-0.4795,-0.7734,-0.3223,10.742,7.507,36.316,-107.666,26.620,-87.946
210,-0.5112,-0.7109,-0.3042,25.635,11.597,35.156,-107.573,26.988,-88.187
220,-0.5117,-0.6807,-0.2808,38.086,14.282,28.259,-107.358,27.290,-88.440
230,-0.5063,-0.6719,-0.2554,45.105,13.794,19.104,-107.040,27.510,-88.649
240,-0.4956,-0.6792,-0.2437,45.349,11.230,10.437,-106.688,27.642,-88.808
250,-0.4712,-0.7212,-0.2129,39.551,8.179,3.418,-106.342,27.697,-88.907
260,-0.4639,-0.7759,-0.1860,25.574,3.418,-0.122,-106.078,27.713,-88.940
270,-0.4580,-0.8359,-0.1777,5.737,-1.709,-1.343,-105.969,27.708,-88.918
280,-0.4487,-0.9004,-0.1772,-14.832,-4.639,-1.587,-106.040,27.691,-88.863
290,-0.4722,-0.9038,-0.1895,-31.616,-6.104,-0.305,-106.282,27.697,-88.797
300,-0.4790,-0.8843,-0.2231,-41.199,-4.333,1.831,-106.650,27.724,-88.753
310,-0.4536,-0.8564,-0.2593,-40.588,-0.366,2.014,-107.056,27.740,-88.759
320,-0.4414,-0.8438,-0.2891,-31.433,2.747,0.671,-107.397,27.724,-88.792
330,-0.4258,-0.8950,-0.2896,-17.151,5.127,-2.563,-107.595,27.647,-88.835
340,-0.4214,-0.9199,-0.2744,-4.150,5.188,-7.080,-107.639,27.526,-88.868
350,-0.4424,-0.8911,-0.2695,3.906,3.113,-7.019,-107.600,27.433,-88.879
360,-0.4810,-0.8105,-0.2744,9.644,2.319,-0.183,-107.523,27.444,-88.901
370,-0.5195,-0.7153,-0.2935,13.489,3.540,8.911,-107.468,27.581,-88.967
380,-0.5234,-0.6562,-0.3096,15.686,6.409,14.099,-107.446,27.773,-89.088
390,-0.5005,-0.6592,-0.3174,15.442,8.179,11.536,-107.435,27.927,-89.214
400,-0.4507,-0.7642,-0.2920,12.634,6.165,1.770,-107.380,27.933,-89.286
410,-0.4053,-0.9165,-0.2471,3.540,0.610,-9.766,-107.309,27.790,-89.258
420,-0.3770,-1.0645,-0.2163,-10.803,-6.409,-17.883,-107.298,27.554,-89.132
430,-0.3818,-1.1270,-0.2012,-25.024,-11.353,-17.395,-107.391,27.334,-88.951
440,-0.4053,-1.0781,-0.2163,-35.522,-11.902,-6.287,-107.617,27.241,-88.802
450,-0.4370,-0.9580,-0.2598,-35.889,-6.836,11.108,-107.930,27.328,-88.764
460,-0.4619,-0.8423,-0.3018,-23.682,0.977,26.245,-108.226,27.570,-88.868
470,-0.4937,-0.7344,-0.3257,-6.714,8.667,34.851,-108.452,27.916,-89.083
480,-0.5366,-0.6387,-0.3252,10.193,13.000,33.875,-108.556,28.279,-89.346
490,-0.5439,-0.5928,-0.3179,23.254,13.794,24.109,-108.534,28.570,-89.577
500,-0.5142,-0.6265,-0.3008,29.236,12.024,9.888,-108.391,28.702,-89.747
510,-0.4785,-0.7134,-0.2686,25.574,6.714,-3.723,-108.188,28.680,-89.802
520,-0.4683,-0.8159,-0.2407,12.939,-0.977,-12.878,-108.018,28.564,-89.747
530,-0.4585,-0.8892,-0.2212,-3.662,-7.202,-16.968,-107.946,28.411,-89.610
540,-0.4551,-0.9219,-0.2187,-19.653,-10.803,-15.381,-108.018,28.268,-89.440
550,-0.4575,-0.9053,-0.2319,-30.579,-11.108,-9.216,-108.210,28.196,-89.286
560,-0.4639,-0.8716,-0.2588,-33.691,-6.897,-1.465,-108.490,28.191,-89.209
570,-0.4702,-0.8350,-0.2803,-28.259,-1.343,4.028,-108.770,28.229,-89.209
580,-0.4736,-0.8076,-0.2900,-16.663,3.296,6.165,-108.973,28.284,-89.264
590,-0.4702,-0.8042,-0.2896,-2.686,7.446,5.066,-109.050,28.317,-89.363
600,-0.4453,-0.8413,-0.2827,10.315,10.315,2.258,-109.001,28.284,-89.484
610,-0.4346,-0.8774,-0.2720,17.395,10.254,-0.854,-108.864,28.213,-89.588
621,-0.4512,-0.8672,-0.2676,17.090,7.080,-1.709,-108.710,28.158,-89.659
630,-0.4717,-0.8379,-0.2695,13.489,3.967,0.549,-108.589,28.152,-89.703
640,-0.5161,-0.7476,-0.2822,7.263,1.221,4.028,-108.550,28.235,-89.731
650,-0.5459,-0.6489,-0.3062,0.305,-0.244,6.958,-108.622,28.389,-89.753
660,-0.5332,-0.6255,-0.3184,-4.456,0.000,6.348,-108.765,28.537,-89.780
670,-0.4829,-0.7173,-0.3057,-8.789,-0.671,-0.427,-108.885,28.570,-89.769
680,-0.4326,-0.8535,-0.2773,-16.357,-4.822,-11.902,-108.995,28.444,-89.676
690,-0.3872,-1.0181,-0.2559,-25.818,-10.132,-22.278,-109.111,28.185,-89.484
700,-0.3794,-1.1064,-0.2407,-31.189,-12.695,-27.588,-109.243,27.872,-89.242
710,-0.4219,-1.0430,-0.2544,-31.372,-11.475,-21.790,-109.402,27.642,-89.039
720,-0.4614,-0.9077,-0.2847,-22.278,-4.700,-5.310,-109.572,27.592,-88.967
730,-0.5020,-0.7529,-0.3154,-4.456,4.700,12.634,-109.693,27.729,-89.066
740,-0.5522,-0.5820,-0.3320,15.137,14.343,24.170,-109.753,28.026,-89.313
750,-0.5718,-0.5029,-0.3350,30.273,20.996,25.208,-109.742,28.345,-89.632
760,-0.4785,-0.6235,-0.3081,35.095,20.935,13.733,-109.589,28.466,-89.907
770,-0.3940,-0.7935,-0.2593,24.048,11.780,-7.507,-109.385,28.323,-90.005
780,-0.3838,-0.9229,-0.2275,-0.610,-5.005,-26.855,-109.259,28.026,-89.852
790,-0.3999,-1.0449,-0.1909,-23.865,-18.860,-35.278,-109.254,27.686,-89.517
800,-0.4209,-1.0645,-0.1802,-40.039,-22.888,-32.043,-109.385,27.394,-89.154
810,-0.4443,-0.9780,-0.2256,-48.157,-15.747,-17.456,-109.693,27.252,-88.923
820,-0.4497,-0.8682,-0.2827,-40.955,-3.235,0.977,-110.067,27.257,-88.890
830,-0.4863,-0.7485,-0.3081,-23.621,8.118,14.343,-110.391,27.405,-89.033
840,-0.5112,-0.6543,-0.3193,-5.737,17.456,20.935,-110.621,27.614,-89.297
850,-0.4854,-0.6621,-0.3164,9.949,23.499,18.188,-110.720,27.757,-89.621
860,-0.4199,-0.7666,-0.3125,15.259,22.766,6.592,-110.709,27.729,-89.885
870,-0.3774,-0.9019,-0.3032,7.935,15.869,-9.094,-110.671,27.532,-90.016
880,-0.3950,-0.9888,-0.3032,-6.775,5.676,-21.606,-110.687,27.246,-89.995
890,-0.4448,-0.9927,-0.3008,-19.348,-1.587,-23.315,-110.792,26.993,-89.885
900,-0.4961,-0.8936,-0.3408,-29.663,-2.319,-12.451,-111.050,26.889,-89.808
910,-0.4795,-0.7739,-0.4067,-30.579,3.174,2.991,-111.440,26.927,-89.852
920,-0.4854,-0.6812,-0.4438,-21.545,7.263,12.817,-111.830,27.059,-89.984
930,-0.5000,-0.6455,-0.4561,-11.169,8.118,13.672,-112.137,27.208,-90.126
940,-0.4600,-0.7500,-0.4282,-1.343,6.897,5.676,-112.269,27.241,-90.220
950,-0.4009,-0.9038,-0.3740,0.854,0.916,-6.958,-112.253,27.125,-90.198
960,-0.3530,-1.0376,-0.3428,-6.958,-8.728,-16.113,-112.214,26.917,-90.038
970,-0.3643,-1.0845,-0.3174,-16.907,-18.433,-16.479,-112.203,26.746,-89.780
980,-0.4082,-1.0137,-0.3071,-22.583,-22.217,-8.484,-112.253,26.691,-89.511
990,-0.4595,-0.8506,-0.3379,-20.325,-17.761,6.165,-112.379,26.818,-89.357
1000,-0.4727,-0.7373,-0.3574,-5.981,-7.629,19.775,-112.478,27.059,-89.363
1010,-0.5093,-0.6206,-0.3599,10.986,2.075,26.001,-112.505,27.372,-89.495
1020,-0.5234,-0.5937,-0.3540,24.902,7.996,22.705,-112.423,27.647,-89.676
1030,-0.4741,-0.7119,-0.3247,31.494,8.606,9.460,-112.192,27.735,-89.808
1040,-0.4360,-0.8184,-0.2959,23.376,2.319,-7.751,-111.934,27.642,-89.797
1050,-0.4043,-0.9370,-0.2773,6.653,-6.592,-20.996,-111.742,27.422,-89.637
1060,-0.4160,-0.9785,-0.2534,-10.803,-14.160,-24.780,-111.660,27.197,-89.385
1070,-0.4512,-0.9048,-0.2627,-23.865,-17.273,-17.029,-111.725,27.087,-89.138
1080,-0.4775,-0.7993,-0.2925,-25.757,-13.794,-2.930,-111.896,27.136,-88.978
1090,-0.5000,-0.6904,-0.3198,-17.212,-7.080,8.667,-112.077,27.301,-88.940
1100,-0.5239,-0.6133,-0.3398,-3.479,0.122,12.817,-112.209,27.515,-89.000
1110,-0.4883,-0.6631,-0.3384,10.620,6.348,7.935,-112.198,27.620,-89.099
1121,-0.3857,-0.8682,-0.3125,18.555,8.911,-4.639,-112.022,27.493,-89.171
1130,-0.3169,-1.0718,-0.2798,13.916,6.165,-17.883,-111.808,27.191,-89.160
1140,-0.3281,-1.1758,-0.2529,1.343,0.488,-21.667,-111.660,26.873,-89.077
1150,-0.4141,-1.0610,-0.2554,-10.803,-1.892,-10.620,-111.654,26.719,-89.011
1160,-0.4849,-0.8418,-0.3179,-15.259,1.770,11.963,-111.824,26.840,-89.077
1170,-0.5068,-0.6421,-0.3696,-8.484,9.766,32.227,-112.099,27.175,-89.313
1180,-0.5522,-0.4946,-0.4092,3.052,14.954,38.452,-112.385,27.609,-89.632
1190,-0.5806,-0.4360,-0.4058,15.076,15.015,29.846,-112.571,27.993,-89.918
1200,-0.5386,-0.5479,-0.3760,19.775,10.925,12.756,-112.577,28.174,-90.088
1210,-0.4526,-0.7480,-0.3369,11.230,2.991,-9.399,-112.473,28.087,-90.077
1220,-0.3726,-0.9536,-0.3066,-9.216,-8.606,-30.029,-112.418,27.768,-89.857
1230,-0.3535,-1.0879,-0.2729,-31.128,-20.630,-41.382,-112.462,27.367,-89.462
1240,-0.3706,-1.1021,-0.2612,-46.448,-26.794,-38.879,-112.626,27.015,-89.017
1250,-0.3989,-1.0400,-0.2915,-49.316,-23.926,-23.682,-112.885,26.823,-88.665
1260,-0.4307,-0.8916,-0.3423,-36.987,-14.465,-2.014,-113.165,26.834,-88.511
1270,-0.4648,-0.7563,-0.3662,-12.024,-1.953,15.991,-113.329,27.010,-88.561
1280,-0.5107,-0.6299,-0.3716,14.771,10.315,25.208,-113.357,27.279,-88.781
1290,-0.5054,-0.6328,-0.3579,36.804,19.409,22.461,-113.187,27.482,-89.077
1300,-0.4434,-0.7373,-0.3193,44.739,20.935,10.559,-112.868,27.510,-89.341
1310,-0.4092,-0.8389,-0.2949,34.180,14.404,-4.028,-112.555,27.389,-89.473
1320,-0.4160,-0.9033,-0.2891,12.085,4.944,-14.526,-112.385,27.202,-89.462
1330,-0.4253,-0.9375,-0.2798,-10.010,-2.625,-17.822,-112.379,27.010,-89.357
1340,-0.4663,-0.8691,-0.3110,-28.320,-5.981,-13.000,-112.577,26.911,-89.242
1350,-0.4692,-0.7666,-0.3657,-36.499,-4.395,-3.662,-112.939,26.917,-89.182
1360,-0.4937,-0.6567,-0.4009,-28.870,-1.892,3.235,-113.307,27.010,-89.176
1370,-0.5239,-0.6025,-0.4199,-13.184,1.038,4.883,-113.571,27.136,-89.209
1380,-0.4912,-0.6699,-0.4106,5.493,4.211,-0.916,-113.615,27.158,-89.247
1390,-0.3999,-0.8652,-0.3691,19.165,4.822,-13.062,-113.412,26.982,-89.236
1400,-0.3359,-1.0366,-0.3281,19.165,-0.427,-24.353,-113.115,26.664,-89.127
1410,-0.3262,-1.1396,-0.3062,9.766,-8.423,-27.100,-112.846,26.340,-88.918
1420,-0.3491,-1.1357,-0.2915,-2.136,-12.878,-19.592,-112.687,26.109,-88.704
1430,-0.4209,-0.9624,-0.3286,-12.939,-11.353,-2.686,-112.720,26.093,-88.572
1440,-0.4385,-0.8120,-0.3813,-11.047,-4.578,16.785,-112.868,26.263,-88.599
1450,-0.4692,-0.6768,-0.4004,-0.549,2.441,28.442,-113.011,26.559,-88.748
1460,-0.5117,-0.6040,-0.4111,9.583,6.287,28.992,-113.115,26.884,-88.940
1470,-0.4790,-0.6777,-0.3906,17.212,7.019,18.494,-113.082,27.070,-89.094
1480,-0.4370,-0.7935,-0.3437,16.602,2.380,1.160,-112.934,27.070,-89.121
1490,-0.4150,-0.8755,-0.3325,6.409,-6.226,-13.000,-112.797,26.944,-89.000
1500,-0.3848,-0.9878,-0.3037,-3.601,-12.695,-19.104,-112.676,26.752,-88.786
1510,-0.4180,-0.9541,-0.2969,-12.451,-17.029,-16.357,-112.637,26.625,-88.539
1520,-0.4580,-0.8540,-0.3184,-13.489,-16.113,-5.310,-112.665,26.642,-88.352
1530,-0.4834,-0.7637,-0.3389,-3.906,-9.460,7.812,-112.687,26.785,-88.286
1540,-0.5049,-0.6626,-0.3437,9.644,-1.221,15.503,-112.665,27.004,-88.341
1550,-0.5059,-0.6270,-0.3433,21.606,5.371,16.174,-112.566,27.213,-88.467
1560,-0.4434,-0.7456,-0.3062,27.527,7.874,9.033,-112.346,27.279,-88.588
1570,-0.3901,-0.8745,-0.2646,19.409,3.845,-3.357,-112.110,27.197,-88.616
1580,-0.3833,-1.0117,-0.2407,-18.433,-11.414,-15.381,-112.121,27.026,-88.429
1590,-0.4360,-0.9268,-0.2612,-32.959,-14.038,-10.010,-112.302,26.960,-88.242
1600,-0.4683,-0.8125,-0.3091,-34.302,-10.559,0.000,-112.577,27.015,-88.132
1610,-0.4790,-0.7363,-0.3389,-21.301,-2.014,8.240,-112.813,27.131,-88.143
1621,-0.5127,-0.6504,-0.3555,-3.357,5.310,10.498,-112.950,27.285,-88.248
1630,-0.4985,-0.6504,-0.3574,13.062,11.353,9.155,-112.950,27.389,-88.407
1640,-0.4453,-0.7554,-0.3369,22.095,13.367,2.930,-112.813,27.372,-88.555
1650,-0.3970,-0.8843,-0.3252,16.663,9.277,-5.859,-112.654,27.241,-88.627
1660,-0.3848,-0.9756,-0.3301,0.427,2.441,-12.146,-112.599,27.054,-88.599
1670,-0.3853,-1.0010,-0.3418,-18.127,-3.418,-13.489,-112.698,26.873,-88.506
1680,-0.4229,-0.9233,-0.3750,-31.982,-6.348,-8.423,-112.961,26.779,-88.401
1690,-0.4683,-0.7944,-0.4106,-33.447,-5.920,1.282,-113.313,26.823,-88.347
1700,-0.4878,-0.6948,-0.4160,-21.667,-3.235,9.583,-113.610,26.966,-88.358
1710,-0.5112,-0.6079,-0.3789,-3.235,-2.075,10.620,-113.736,27.153,-88.385
1720,-0.4976,-0.6162,-0.3237,13.306,-2.563,6.165,-113.643,27.307,-88.385
1730,-0.4448,-0.7490,-0.2588,21.423,-4.639,-3.174,-113.357,27.312,-88.325
1740,-0.4077,-0.8677,-0.2109,16.296,-9.338,-15.137,-113.027,27.186,-88.160
1750,-0.3833,-0.9707,-0.2017,4.761,-12.329,-23.071,-112.764,26.960,-87.929
1760,-0.3418,-1.1060,-0.2090,-6.409,-8.057,-23.926,-112.621,26.675,-87.742
1770,-0.3413,-1.1133,-0.2476,-15.869,0.610,-18.250,-112.643,26.406,-87.671
1780,-0.4165,-0.9585,-0.3311,-20.630,10.681,-3.967,-112.852,26.290,-87.764
1790,-0.4380,-0.8286,-0.3960,-12.939,20.996,15.564,-113.132,26.340,-88.044
1800,-0.4858,-0.6489,-0.4458,1.343,26.917,29.358,-113.412,26.559,-88.451
1810,-0.5439,-0.5312,-0.4858,14.893,27.832,32.837,-113.643,26.851,-88.885
1820,-0.5034,-0.5942,-0.4722,25.146,23.010,22.766,-113.698,27.032,-89.220
1830,-0.4419,-0.7280,-0.4204,23.132,11.230,2.686,-113.588,27.021,-89.352
1840,-0.4307,-0.8315,-0.3867,8.606,-4.944,-15.930,-113.461,26.878,-89.225
1850,-0.4253,-0.9277,-0.3633,-7.080,-17.456,-26.001,-113.379,26.669,-88.929
1860,-0.3936,-0.9775,-0.3501,-16.052,-21.057,-26.794,-113.351,26.450,-88.594
1870,-0.4019,-0.9419,-0.3511,-16.235,-16.663,-19.531,-113.368,26.290,-88.341
1880,-0.4224,-0.9009,-0.3638,-6.226,-6.226,-7.080,-113.373,26.224,-88.242
1890,-0.4316,-0.8628,-0.3555,10.925,4.150,3.418,-113.280,26.224,-88.303
1900,-0.4473,-0.7817,-0.3403,25.818,11.353,9.705,-113.099,26.285,-88.462
1910,-0.4521,-0.7300,-0.3296,35.767,15.503,13.062,-112.852,26.373,-88.676
1920,-0.4438,-0.7344,-0.3252,36.499,14.893,12.329,-112.588,26.455,-88.885
1930,-0.4229,-0.7988,-0.3218,26.367,8.972,6.714,-112.374,26.483,-89.006
1940,-0.4102,-0.8594,-0.3154,7.141,-0.671,-1.770,-112.275,26.444,-88.989
1950,-0.4136,-0.9033,-0.3208,-13.916,-10.315,-8.118,-112.324,26.378,-88.846
1960,-0.4321,-0.9053,-0.3257,-28.870,-16.541,-9.583,-112.495,26.329,-88.638
1970,-0.4492,-0.8345,-0.3457,-33.203,-17.639,-6.226,-112.731,26.340,-88.429
1980,-0.4458,-0.7930,-0.3452,-22.705,-14.282,-1.221,-112.896,26.395,-88.275
1990,-0.4497,-0.7720,-0.3320,-5.493,-9.277,1.282,-112.912,26.461,-88.187
2000,-0.4561,-0.7583,-0.3032,12.268,-4.089,0.793,-112.764,26.510,-88.149
2010,-0.4229,-0.8145,-0.2651,25.452,1.343,-0.793,-112.473,26.494,-88.160
2020,-0.3936,-0.8760,-0.2329,28.015,3.906,-2.441,-112.132,26.428,-88.187
2030,-0.3931,-0.8994,-0.2339,17.639,2.625,-2.625,-111.885,26.356,-88.204
2040,-0.4028,-0.9053,-0.2495,2.258,1.343,-1.770,-111.802,26.307,-88.209
2050,-0.4351,-0.8535,-0.2783,-11.108,0.366,-1.221,-111.874,26.290,-88.209
2060,-0.4790,-0.7729,-0.3135,-17.334,1.160,0.671,-112.055,26.323,-88.226
2070,-0.4834,-0.7280,-0.3477,-13.916,4.578,1.892,-112.253,26.373,-88.281
2080,-0.4775,-0.7051,-0.3623,-5.798,6.958,-0.061,-112.390,26.395,-88.352
2090,-0.4702,-0.7202,-0.3706,1.465,7.019,-2.869,-112.451,26.378,-88.412
2100,-0.4053,-0.8560,-0.3579,5.981,7.080,-6.775,-112.412,26.263,-88.456
2110,-0.3521,-0.9795,-0.3623,1.160,5.188,-11.047,-112.385,26.065,-88.462
2121,-0.3481,-1.0435,-0.3735,-8.728,1.770,-11.475,-112.429,25.867,-88.434
2130,-0.4102,-0.9824,-0.3882,-16.785,-0.610,-5.554,-112.571,25.768,-88.401
2140,-0.4995,-0.8066,-0.4302,-18.982,-0.549,6.409,-112.824,25.862,-88.423
2150,-0.5356,-0.6118,-0.4634,-10.681,2.136,17.822,-113.115,26.104,-88.522
2160,-0.5215,-0.5410,-0.4907,4.395,3.601,19.836,-113.318,26.367,-88.649
2170,-0.4614,-0.6255,-0.4658,19.470,0.000,8.179,-113.275,26.483,-88.682
2180,-0.3877,-0.8018,-0.3882,26.306,-9.399,-10.742,-112.978,26.395,-88.539
2190,-0.3403,-0.9849,-0.3188,18.494,-22.461,-24.780,-112.593,26.169,-88.198
2200,-0.3091,-1.1196,-0.2549,5.615,-30.884,-28.992,-112.247,25.911,-87.759
2210,-0.3022,-1.1475,-0.2109,-7.385,-31.311,-21.118,-112.028,25.724,-87.347
2220,-0.3643,-1.0327,-0.2104,-15.686,-24.109,-4.944,-111.962,25.703,-87.078
2230,-0.4438,-0.8481,-0.2163,-12.329,-13.794,13.184,-111.967,25.884,-86.990
2240,-0.4707,-0.7266,-0.1919,3.479,-2.258,26.001,-111.896,26.191,-87.078
2250,-0.4912,-0.6387,-0.1821,19.470,7.690,28.076,-111.731,26.526,-87.270
2260,-0.4907,-0.6494,-0.1616,31.067,14.404,19.958,-111.451,26.752,-87.506
2270,-0.4541,-0.7510,-0.1445,27.466,17.334,9.155,-111.171,26.818,-87.720
2280,-0.4253,-0.8364,-0.1626,7.080,15.991,-1.099,-111.072,26.746,-87.885
2290,-0.4370,-0.8472,-0.2227,-21.790,12.573,-7.446,-111.270,26.631,-87.984
2300,-0.4321,-0.8813,-0.3018,-44.983,11.414,-8.667,-111.725,26.494,-88.072
2310,-0.4326,-0.8760,-0.3867,-57.678,11.658,-7.874,-112.357,26.356,-88.160
2320,-0.4375,-0.8149,-0.4644,-56.152,11.475,-5.188,-113.027,26.252,-88.253
2330,-0.4658,-0.7593,-0.5122,-39.124,11.047,-0.549,-113.571,26.208,-88.369
2340,-0.4814,-0.7109,-0.5337,-14.587,10.193,2.747,-113.901,26.213,-88.484
2350,-0.4507,-0.7271,-0.5264,9.949,8.423,3.540,-113.967,26.219,-88.583
2360,-0.3882,-0.8350,-0.4868,24.170,3.967,1.099,-113.813,26.169,-88.632
2370,-0.3677,-0.9224,-0.4395,22.827,-5.249,-3.784,-113.571,26.093,-88.561
2380,-0.3745,-0.9824,-0.3813,12.451,-13.855,-7.446,-113.346,26.016,-88.385
2390,-0.4097,-0.9810,-0.3286,-0.183,-17.822,-6.104,-113.209,25.983,-88.176
2400,-0.4663,-0.8447,-0.3267,-10.498,-16.602,0.000,-113.220,26.060,-88.006
2410,-0.4946,-0.7085,-0.3389,-8.545,-10.132,7.385,-113.297,26.230,-87.935
2420,-0.4971,-0.6372,-0.3408,4.395,-1.404,8.850,-113.313,26.400,-87.957
2430,-0.5010,-0.6104,-0.3379,18.738,5.127,2.930,-113.214,26.499,-88.022
2440,-0.4443,-0.7485,-0.3062,28.442,8.667,-5.493,-112.950,26.439,-88.088
2450,-0.3691,-0.9302,-0.2734,23.315,6.409,-13.794,-112.659,26.230,-88.094
2460,-0.3418,-1.0078,-0.2812,5.127,-0.977,-18.127,-112.495,25.988,-88.006
2470,-0.3491,-1.0308,-0.2993,-12.573,-8.240,-13.916,-112.495,25.812,-87.863
2480,-0.3794,-0.9883,-0.3242,-23.865,-11.353,-5.066,-112.632,25.752,-87.726
2490,-0.4336,-0.8379,-0.3735,-23.987,-10.132,4.456,-112.846,25.829,-87.638
2500,-0.4639,-0.7432,-0.3896,-8.911,-5.920,11.475,-112.978,25.983,-87.627
2510,-0.4985,-0.6484,-0.3853,8.972,-0.977,12.451,-112.983,26.175,-87.671
2520,-0.5449,-0.5659,-0.3765,22.400,1.953,9.827,-112.896,26.384,-87.737
2530,-0.4790,-0.6675,-0.3535,28.992,3.052,3.784,-112.681,26.466,-87.786
2540,-0.3896,-0.8169,-0.3174,23.499,-1.221,-8.850,-112.412,26.367,-87.731
2550,-0.3662,-0.9082,-0.2959,5.737,-11.414,-21.301,-112.220,26.158,-87.523
2560,-0.3467,-1.0420,-0.2588,-10.925,-17.944,-26.611,-112.115,25.900,-87.226
2570,-0.3564,-1.0767,-0.2485,-24.414,-17.639,-24.353,-112.143,25.664,-86.946
2580,-0.4067,-0.9448,-0.2754,-27.710,-10.986,-14.038,-112.286,25.543,-86.770
2590,-0.4258,-0.8652,-0.3042,-16.296,-0.671,1.831,-112.418,25.554,-86.776
2600,-0.4355,-0.7783,-0.3091,0.732,8.728,12.207,-112.462,25.653,-86.913
2610,-0.4844,-0.6528,-0.3101,16.113,13.916,15.259,-112.418,25.823,-87.122
2621,-0.4902,-0.6499,-0.2925,26.855,16.663,13.550,-112.269,25.972,-87.352
2630,-0.4448,-0.7231,-0.2852,26.245,15.259,4.944,-112.083,25.999,-87.528
2640,-0.4014,-0.8120,-0.2798,13.550,9.460,-7.935,-111.945,25.878,-87.594
2650,-0.3608,-0.9375,-0.2798,-4.883,2.930,-18.311,-111.918,25.648,-87.545
2660,-0.3594,-1.0239,-0.2847,-24.963,-2.319,-22.034,-112.055,25.384,-87.429
2670,-0.3560,-1.0229,-0.3179,-38.330,-2.625,-18.127,-112.341,25.153,-87.330
2680,-0.3901,-0.9199,-0.3574,-36.865,1.099,-8.240,-112.687,25.038,-87.308
2690,-0.4229,-0.8369,-0.3916,-23.682,6.897,4.456,-112.983,25.049,-87.396
2700,-0.4380,-0.7690,-0.3916,-4.700,13.428,12.512,-113.148,25.131,-87.583
2710,-0.5063,-0.6299,-0.3965,10.925,16.235,15.320,-113.225,25.296,-87.819
2720,-0.4912,-0.6587,-0.3911,22.766,18.616,13.855,-113.181,25.422,-88.066
2730,-0.3994,-0.8081,-0.3755,23.621,17.029,3.723,-113.044,25.378,-88.259
2740,-0.3682,-0.8833,-0.3799,8.606,7.751,-9.827,-112.978,25.214,-88.292
2750,-0.3623,-0.9609,-0.3857,-9.033,-2.319,-16.907,-113.016,25.010,-88.198
2760,-0.3540,-1.0322,-0.3901,-22.095,-8.118,-15.625,-113.148,24.829,-88.044
2770,-0.3652,-0.9814,-0.4106,-27.832,-10.071,-9.460,-113.362,24.725,-87.902
2781,-0.4136,-0.8506,-0.4307,-22.034,-9.094,0.427,-113.577,24.747,-87.814
2791,-0.4678,-0.7378,-0.4331,-6.165,-5.249,10.254,-113.703,24.901,-87.803
2800,-0.4956,-0.6445,-0.4209,12.756,0.549,13.916,-113.698,25.104,-87.874
2810,-0.5112,-0.5967,-0.3984,28.198,4.883,10.986,-113.560,25.291,-87.973
2820,-0.4385,-0.7124,-0.3516,35.156,5.493,3.479,-113.269,25.334,-88.044
2830,-0.3672,-0.8540,-0.3081,27.466,-0.549,-7.935,-112.945,25.230,-88.000
2840,-0.3462,-0.9414,-0.2886,9.216,-10.620,-17.517,-112.720,25.054,-87.819
2850,-0.3247,-1.0493,-0.2622,-5.493,-16.113,-19.958,-112.582,24.851,-87.567
2860,-0.3149,-1.0864,-0.2603,-16.113,-16.418,-16.541,-112.549,24.670,-87.330
2870,-0.3726,-0.9722,-0.2886,-20.020,-13.062,-7.446,-112.621,24.609,-87.166
2881,-0.4229,-0.8491,-0.3184,-12.146,-5.188,6.409,-112.709,24.692,-87.144
2891,-0.4570,-0.7290,-0.3257,3.052,3.418,16.785,-112.736,24.879,-87.248
2901,-0.5029,-0.5981,-0.3384,17.334,9.766,20.691,-112.714,25.148,-87.435
2910,-0.4907,-0.6099,-0.3247,27.161,12.573,17.212,-112.582,25.356,-87.638
2920,-0.4277,-0.7266,-0.3003,25.330,9.094,6.042,-112.379,25.411,-87.753
2930,-0.3760,-0.8574,-0.2891,11.230,1.526,-8.606,-112.220,25.296,-87.737
2941,-0.3472,-0.9883,-0.2812,-6.958,-5.859,-19.287,-112.165,25.076,-87.594
2950,-0.3247,-1.0859,-0.2764,-23.132,-8.484,-21.484,-112.242,24.824,-87.418
2961,-0.3486,-1.0425,-0.3057,-32.898,-5.615,-14.832,-112.462,24.637,-87.297
2971,-0.4033,-0.9038,-0.3574,-29.785,0.061,-0.671,-112.747,24.609,-87.297
2981,-0.4248,-0.7959,-0.3823,-13.794,7.935,14.160,-112.972,24.719,-87.435
2991,-0.4702,-0.6665,-0.3965,5.066,14.282,21.851,-113.099,24.928,-87.676
3001,-0.5171,-0.5908,-0.4028,21.790,17.883,21.179,-113.104,25.159,-87.951
3011,-0.4731,-0.6587,-0.3770,33.630,18.005,10.498,-112.934,25.252,-88.176
3020,-0.3892,-0.8013,-0.3350,35.522,12.207,-7.324,-112.621,25.131,-88.270
3031,-0.3457,-0.9429,-0.3091,25.513,2.197,-21.667,-112.297,24.862,-88.198
3040,-0.3252,-1.0732,-0.2822,9.644,-5.249,-25.146,-112.055,24.565,-88.044
3050,-0.3237,-1.0752,-0.2695,-8.057,-7.080,-17.517,-112.000,24.351,-87.896
3061,-0.3994,-0.9233,-0.2998,-21.912,-5.554,0.000,-112.154,24.351,-87.841
3071,-0.4478,-0.7759,-0.3447,-27.039,-0.610,18.555,-112.467,24.560,-87.913
3081,-0.4980,-0.6079,-0.3809,-24.536,3.723,25.940,-112.868,24.884,-88.061
3091,-0.5625,-0.4766,-0.4233,-16.357,5.005,21.423,-113.275,25.225,-88.198
3101,-0.5049,-0.5718,-0.4277,-0.305,6.775,5.371,-113.450,25.345,-88.292
3111,-0.4043,-0.7520,-0.3960,14.221,6.836,-17.944,-113.351,25.159,-88.286
3121,-0.3335,-0.9678,-0.3599,18.311,1.526,-34.119,-113.082,24.769,-88.149
3130,-0.2744,-1.1548,-0.3164,13.123,-4.272,-36.133,-112.791,24.340,-87.951
3140,-0.2495,-1.2295,-0.3003,4.395,-5.249,-26.978,-112.588,23.983,-87.781
3150,-0.2988,-1.1245,-0.3071,-2.869,-2.991,-9.277,-112.516,23.813,-87.715
3161,-0.3867,-0.9438,-0.3389,-5.066,0.977,13.062,-112.566,23.901,-87.775
3171,-0.4092,-0.7910,-0.3584,1.465,6.897,29.358,-112.648,24.153,-87.973
3181,-0.4629,-0.6304,-0.3789,8.789,9.766,32.593,-112.736,24.494,-88.209
3191,-0.5063,-0.5596,-0.3721,13.672,8.240,26.245,-112.791,24.829,-88.401
3201,-0.4985,-0.5957,-0.3535,12.756,4.089,13.489,-112.786,25.049,-88.500
3211,-0.4624,-0.6768,-0.3398,5.127,-2.686,-3.296,-112.758,25.093,-88.462
3221,-0.4116,-0.8047,-0.3315,-4.211,-9.399,-18.921,-112.720,24.955,-88.281
3231,-0.3623,-0.9585,-0.3130,-11.353,-14.465,-27.649,-112.676,24.708,-88.017
3241,-0.3218,-1.0605,-0.3027,-14.526,-14.526,-27.893,-112.643,24.423,-87.753
3251,-0.3364,-1.0283,-0.3120,-11.658,-10.681,-19.470,-112.621,24.214,-87.561
3261,-0.3696,-0.9678,-0.3213,-1.648,-3.235,-3.845,-112.577,24.148,-87.512
3271,-0.3760,-0.9014,-0.3149,11.536,5.859,10.681,-112.473,24.197,-87.616
3281,-0.4106,-0.7759,-0.3174,19.653,13.000,19.775,-112.363,24.351,-87.830
3291,-0.4419,-0.7168,-0.3086,21.362,15.564,22.522,-112.264,24.549,-88.083
3301,-0.4395,-0.7241,-0.2979,14.221,11.719,17.456,-112.198,24.714,-88.275
3311,-0.4346,-0.7354,-0.3022,0.671,4.211,5.859,-112.225,24.791,-88.341
3321,-0.4146,-0.7920,-0.3105,-12.695,-2.075,-5.737,-112.324,24.758,-88.297
3331,-0.3916,-0.8828,-0.3232,-21.973,-6.287,-13.428,-112.467,24.637,-88.176
3341,-0.3770,-0.9263,-0.3428,-23.621,-7.263,-17.212,-112.621,24.467,-88.033
3351,-0.3608,-0.9468,-0.3535,-17.212,-4.333,-15.076,-112.725,24.302,-87.924
3361,-0.3711,-0.9307,-0.3628,-6.897,0.366,-7.141,-112.769,24.192,-87.896
3371,-0.3979,-0.8804,-0.3691,4.089,4.822,3.052,-112.753,24.186,-87.957
3381,-0.4287,-0.7935,-0.3662,12.756,8.301,11.169,-112.698,24.280,-88.088
3391,-0.4438,-0.7271,-0.3638,16.907,9.705,14.709,-112.637,24.417,-88.253
3401,-0.4287,-0.7368,-0.3560,15.259,7.202,11.536,-112.566,24.527,-88.374
3411,-0.3896,-0.8149,-0.3335,7.446,0.977,2.441,-112.495,24.538,-88.391
3421,-0.3784,-0.8643,-0.3291,-6.592,-7.019,-6.836,-112.505,24.483,-88.292
3431,-0.3696,-0.9321,-0.3257,-18.127,-12.878,-11.597,-112.577,24.384,-88.110
3441,-0.3730,-0.9419,-0.3301,-21.729,-13.489,-12.207,-112.681,24.285,-87.924
3451,-0.3970,-0.8926,-0.3433,-16.296,-8.728,-7.751,-112.780,24.230,-87.803
3461,-0.4092,-0.8433,-0.3550,-3.357,-0.488,0.000,-112.813,24.230,-87.797
3471,-0.4243,-0.7993,-0.3516,11.292,6.958,5.920,-112.747,24.274,-87.896
3481,-0.4185,-0.7808,-0.3350,21.240,11.902,8.362,-112.604,24.324,-88.050
3491,-0.4204,-0.7769,-0.3149,21.545,11.963,8.301,-112.451,24.379,-88.204
3501,-0.4028,-0.8037,-0.3057,12.085,6.897,5.249,-112.352,24.406,-88.297
3511,-0.3867,-0.8369,-0.2944,-2.380,0.000,-0.305,-112.346,24.395,-88.297
3521,-0.3813,-0.8809,-0.2954,-17.456,-6.226,-4.700,-112.445,24.357,-88.215
3531,-0.3813,-0.9048,-0.3096,-26.001,-9.094,-7.202,-112.615,24.302,-88.094
3541,-0.3896,-0.8872,-0.3267,-23.804,-7.385,-7.874,-112.786,24.236,-87.984
3551,-0.3936,-0.8721,-0.3345,-12.085,-1.526,-5.066,-112.874,24.181,-87.946
3561,-0.4043,-0.8472,-0.3501,2.380,5.920,0.549,-112.868,24.159,-88.011
3571,-0.4102,-0.8140,-0.3521,13.916,11.719,6.165,-112.797,24.181,-88.154
3581,-0.4092,-0.7983,-0.3521,18.433,14.709,10.254,-112.703,24.225,-88.347
3591,-0.4121,-0.7910,-0.3491,13.977,12.939,10.193,-112.643,24.280,-88.522
3601,-0.4116,-0.7944,-0.3477,3.479,7.751,6.409,-112.665,24.324,-88.627
3611,-0.4009,-0.8296,-0.3452,-9.460,1.892,1.038,-112.764,24.318,-88.649
3621,-0.3916,-0.8628,-0.3589,-21.606,-3.235,-3.601,-112.956,24.285,-88.599
3631,-0.3877,-0.8770,-0.3818,-26.123,-5.859,-6.653,-113.187,24.225,-88.511
3641,-0.3838,-0.8843,-0.3916,-20.142,-5.005,-7.812,-113.357,24.148,-88.429
3651,-0.3940,-0.8745,-0.3984,-9.399,-1.648,-5.493,-113.445,24.088,-88.391
3661,-0.3960,-0.8594,-0.4014,2.747,2.258,-1.526,-113.439,24.049,-88.407
3671,-0.3887,-0.8604,-0.3872,12.939,5.066,1.526,-113.346,24.027,-88.462
3681,-0.3940,-0.8457,-0.3770,16.724,5.188,2.991,-113.214,24.022,-88.528
3691,-0.4033,-0.8291,-0.3687,14.648,3.418,3.906,-113.093,24.044,-88.577
3701,-0.4048,-0.8232,-0.3613,9.216,0.549,3.967,-113.016,24.082,-88.599
3711,-0.4067,-0.8105,-0.3511,2.197,-2.991,2.930,-112.994,24.126,-88.583
3721,-0.4141,-0.7974,-0.3467,-2.625,-5.493,1.648,-113.005,24.175,-88.533
3731,-0.4189,-0.8018,-0.3389,-3.967,-6.042,0.183,-113.022,24.214,-88.473
3741,-0.4136,-0.8062,-0.3330,-2.502,-4.944,-1.648,-113.016,24.230,-88.418
3751,-0.4053,-0.8242,-0.3301,0.793,-3.174,-2.625,-112.978,24.225,-88.374
3761,-0.3921,-0.8462,-0.3257,4.761,-0.610,-3.235,-112.901,24.186,-88.352
3771,-0.3853,-0.8540,-0.3281,7.996,1.709,-3.113,-112.808,24.137,-88.358
3781,-0.3828,-0.8657,-0.3198,9.583,2.686,-1.953,-112.692,24.093,-88.380
3791,-0.3848,-0.8784,-0.3140,8.179,1.648,-0.610,-112.588,24.066,-88.391
3801,-0.3779,-0.8848,-0.3135,3.784,-1.099,0.549,-112.516,24.055,-88.385
3811,-0.3574,-0.9224,-0.3110,-0.549,-3.723,0.549,-112.467,24.033,-88.347
3821,-0.3696,-0.9165,-0.3164,-4.333,-6.226,0.366,-112.451,24.027,-88.286
3831,-0.3652,-0.9370,-0.3115,-3.296,-6.592,1.282,-112.423,24.027,-88.226
3841,-0.3896,-0.8872,-0.3115,0.977,-5.188,2.991,-112.363,24.060,-88.187
3851,-0.4307,-0.7939,-0.3232,7.141,-1.953,7.385,-112.297,24.159,-88.198
3861,-0.4507,-0.7241,-0.3193,16.541,3.052,10.803,-112.176,24.302,-88.270
3871,-0.4507,-0.6992,-0.3203,21.362,5.920,10.864,-112.033,24.445,-88.374
3881,-0.4023,-0.7915,-0.3037,19.470,6.104,6.531,-111.868,24.489,-88.467
3891,-0.3579,-0.9175,-0.2939,8.545,3.662,-1.221,-111.753,24.423,-88.500
3901,-0.3354,-1.0200,-0.2861,-7.446,0.854,-6.775,-111.758,24.291,-88.478
3911,-0.3921,-0.9614,-0.3091,-22.156,0.244,-5.127,-111.934,24.208,-88.462
3921,-0.4624,-0.7974,-0.3647,-27.466,3.113,5.249,-112.253,24.285,-88.511
3931,-0.4966,-0.6313,-0.4126,-17.883,8.667,14.832,-112.599,24.478,-88.665
3941,-0.5898,-0.4155,-0.4438,-1.587,10.254,16.785,-112.928,24.791,-88.841
3951,-0.5933,-0.4106,-0.4541,13.367,7.751,11.780,-113.099,25.060,-88.967
3961,-0.3755,-0.7554,-0.4004,19.104,1.099,-5.432,-112.956,24.994,-88.956
3971,-0.2622,-0.9731,-0.3550,2.441,-16.357,-27.832,-112.780,24.692,-88.671
3981,-0.2734,-1.1265,-0.3154,-21.851,-32.776,-39.001,-112.720,24.346,-88.171
3991,-0.2544,-1.2617,-0.2979,-37.415,-32.776,-34.668,-112.802,24.022,-87.693
4001,-0.2661,-1.2139,-0.3232,-40.649,-21.179,-20.020,-113.005,23.802,-87.391
4011,-0.3853,-0.9771,-0.3652,-27.161,-7.568,1.465,-113.220,23.807,-87.325
4021,-0.4463,-0.8091,-0.3716,0.061,5.066,21.912,-113.291,24.016,-87.468
4031,-0.4507,-0.6724,-0.3599,25.757,14.893,31.006,-113.198,24.307,-87.753
4041,-0.4810,-0.5957,-0.3428,38.147,15.808,28.870,-113.005,24.615,-88.039
4051,-0.4614,-0.6172,-0.3086,34.790,9.644,18.921,-112.769,24.840,-88.215
4061,-0.4136,-0.7056,-0.2886,18.127,0.122,3.357,-112.593,24.906,-88.231
4071,-0.3945,-0.8213,-0.2852,-4.578,-8.240,-11.902,-112.544,24.824,-88.099
4081,-0.3730,-0.9668,-0.2812,-24.414,-12.878,-21.729,-112.632,24.631,-87.874
4091,-0.3491,-1.0327,-0.2974,-34.668,-10.132,-24.780,-112.824,24.379,-87.665
4101,-0.3652,-0.9722,-0.3437,-32.104,-3.540,-18.311,-113.060,24.175,-87.550
4111,-0.3784,-0.9209,-0.3613,-17.395,3.723,-3.967,-113.225,24.093,-87.572
4121,-0.3799,-0.8711,-0.3662,1.038,9.827,9.094,-113.269,24.115,-87.709
4131,-0.4248,-0.7549,-0.3721,13.550,12.573,16.052,-113.242,24.236,-87.907
4141,-0.4712,-0.6685,-0.3682,19.592,11.902,17.212,-113.181,24.423,-88.099
4151,-0.4521,-0.6841,-0.3618,17.944,8.545,12.207,-113.110,24.560,-88.242
4161,-0.4053,-0.7583,-0.3540,8.667,2.869,0.549,-113.055,24.565,-88.270
4171,-0.3823,-0.8511,-0.3560,-5.554,-4.700,-11.536,-113.066,24.456,-88.176
4181,-0.3599,-0.9668,-0.3521,-17.273,-10.620,-18.311,-113.132,24.280,-87.990
4191,-0.3271,-1.0259,-0.3525,-21.790,-11.841,-18.860,-113.225,24.082,-87.786
4201,-0.3447,-0.9707,-0.3677,-17.883,-8.728,-12.573,-113.318,23.945,-87.643
4211,-0.4028,-0.8682,-0.3799,-6.775,-2.625,0.305,-113.379,23.945,-87.621
4221,-0.4404,-0.7729,-0.3779,8.057,5.249,11.719,-113.368,24.066,-87.726
4231,-0.4922,-0.6328,-0.3755,19.836,11.536,16.541,-113.318,24.269,-87.913
4241,-0.5229,-0.5649,-0.3623,25.208,12.573,15.747,-113.242,24.500,-88.105
4251,-0.4277,-0.7153,-0.3374,19.104,7.263,8.301,-113.121,24.582,-88.215
4261,-0.3398,-0.8599,-0.3120,0.671,-4.395,-7.202,-113.049,24.494,-88.143
4271,-0.3296,-0.9604,-0.3213,-23.499,-17.456,-20.081,-113.126,24.313,-87.880
4281,-0.3198,-1.0488,-0.3271,-38.391,-22.339,-23.743,-113.318,24.104,-87.550
4291,-0.3076,-1.0664,-0.3579,-38.086,-18.311,-20.264,-113.533,23.901,-87.281
4301,-0.3477,-0.9849,-0.3853,-23.621,-10.132,-9.705,-113.692,23.796,-87.133
4311,-0.4302,-0.8511,-0.4009,-0.305,-1.160,4.761,-113.714,23.851,-87.144
4321,-0.4551,-0.7373,-0.3940,24.231,7.996,14.954,-113.577,24.005,-87.292
4331,-0.4541,-0.6914,-0.3677,39.307,13.062,17.944,-113.313,24.175,-87.501
4341,-0.4624,-0.6450,-0.3447,37.537,9.583,14.526,-113.055,24.351,-87.660
4351,-0.4160,-0.7173,-0.3213,23.010,0.793,5.615,-112.852,24.434,-87.693
4361,-0.3755,-0.8164,-0.2993,2.747,-7.446,-7.446,-112.753,24.384,-87.583
4371,-0.3667,-0.9233,-0.2856,-15.991,-13.000,-17.822,-112.769,24.236,-87.374
4381,-0.3311,-1.0259,-0.2778,-26.428,-12.207,-20.996,-112.868,24.022,-87.166
4391,-0.3262,-1.0308,-0.2993,-27.344,-6.531,-17.395,-113.016,23.818,-87.023
4401,-0.3950,-0.9058,-0.3315,-18.005,0.732,-5.859,-113.159,23.747,-87.006
4411,-0.4053,-0.8286,-0.3452,0.427,9.583,8.362,-113.203,23.791,-87.138
4421,-0.4399,-0.6982,-0.3496,18.188,16.174,16.174,-113.148,23.928,-87.369
4431,-0.4702,-0.6353,-0.3530,27.710,17.761,17.151,-113.033,24.109,-87.621
4441,-0.4243,-0.7065,-0.3320,26.428,14.221,10.620,-112.874,24.192,-87.814
4451,-0.3877,-0.8057,-0.3149,11.963,5.432,-1.831,-112.758,24.153,-87.858
4461,-0.3555,-0.9282,-0.3188,-8.606,-3.540,-13.794,-112.764,24.000,-87.764
4471,-0.3262,-1.0400,-0.3188,-25.818,-8.362,-19.592,-112.896,23.780,-87.599
4481,-0.3203,-1.0444,-0.3496,-34.790,-7.263,-16.968,-113.137,23.577,-87.451
4491,-0.3369,-0.9780,-0.3906,-29.297,-1.160,-7.629,-113.395,23.456,-87.407
4501,-0.3833,-0.8789,-0.4111,-11.658,5.981,5.005,-113.560,23.456,-87.490
4511,-0.4170,-0.7896,-0.4150,8.362,12.207,14.771,-113.593,23.560,-87.676
4521,-0.4463,-0.7061,-0.4102,22.827,16.418,18.066,-113.533,23.708,-87.918
4531,-0.4834,-0.6426,-0.3926,26.855,14.832,16.174,-113.428,23.890,-88.138
4541,-0.4829,-0.6289,-0.3818,19.897,8.118,10.315,-113.362,24.044,-88.264
4551,-0.3984,-0.7334,-0.3716,7.141,-0.610,-1.099,-113.324,24.055,-88.253
4561,-0.3481,-0.8687,-0.3594,-9.399,-11.047,-14.282,-113.335,23.928,-88.077
4571,-0.3257,-1.0010,-0.3296,-23.132,-19.470,-22.278,-113.395,23.736,-87.786
4581,-0.3242,-1.0469,-0.3257,-28.564,-20.020,-21.545,-113.500,23.544,-87.495
4591,-0.3218,-1.0327,-0.3389,-22.583,-12.268,-12.878,-113.599,23.406,-87.314
4601,-0.3564,-0.9546,-0.3452,-8.118,-2.014,0.061,-113.637,23.373,-87.297
4611,-0.4023,-0.8398,-0.3516,8.667,7.690,11.963,-113.593,23.456,-87.424
4622,-0.4263,-0.7236,-0.3516,24.048,15.625,18.555,-113.472,23.610,-87.660
4631,-0.4658,-0.6543,-0.3389,30.701,17.212,19.348,-113.307,23.802,-87.918
4641,-0.4541,-0.6582,-0.3262,25.818,12.878,13.306,-113.159,23.956,-88.105
4651,-0.4282,-0.6987,-0.3291,11.292,5.249,1.892,-113.088,24.000,-88.165
4661,-0.3916,-0.7905,-0.3286,-6.104,-2.197,-10.254,-113.121,23.923,-88.099
4671,-0.3525,-0.9214,-0.3228,-19.653,-8.484,-18.860,-113.209,23.741,-87.935
4681,-0.3291,-1.0059,-0.3232,-26.062,-10.925,-21.606,-113.329,23.522,-87.731
4691,-0.3247,-1.0264,-0.3389,-23.926,-8.118,-16.724,-113.456,23.335,-87.578
4701,-0.3657,-0.9429,-0.3608,-15.686,-2.319,-5.249,-113.571,23.264,-87.528
4711,-0.3848,-0.8745,-0.3745,-2.625,5.249,7.629,-113.626,23.297,-87.616
4721,-0.4077,-0.7744,-0.3789,9.827,11.475,14.526,-113.621,23.406,-87.792
4731,-0.4600,-0.6616,-0.3774,16.418,13.123,15.442,-113.599,23.571,-87.990
4741,-0.4561,-0.6562,-0.3701,16.113,10.193,11.597,-113.555,23.714,-88.143
4751,-0.4028,-0.7407,-0.3555,9.766,4.578,0.977,-113.500,23.725,-88.193
4761,-0.3472,-0.8555,-0.3486,-2.319,-2.380,-11.658,-113.483,23.599,-88.121
4771,-0.3267,-0.9780,-0.3384,-14.893,-8.667,-18.494,-113.516,23.406,-87.951
4781,-0.3115,-1.0317,-0.3320,-21.912,-10.498,-18.311,-113.604,23.209,-87.770
4791,-0.3384,-0.9868,-0.3501,-20.874,-7.751,-11.292,-113.725,23.082,-87.643
4801,-0.3848,-0.8940,-0.3696,-9.949,-1.343,-0.061,-113.802,23.071,-87.627
4811,-0.3970,-0.8301,-0.3784,5.981,5.981,8.362,-113.791,23.126,-87.726
4821,-0.4082,-0.7720,-0.3809,18.066,11.353,10.437,-113.698,23.198,-87.885
4831,-0.4199,-0.7480,-0.3730,21.362,12.085,9.094,-113.577,23.269,-88.044
4841,-0.4121,-0.7632,-0.3706,15.503,8.423,5.859,-113.489,23.313,-88.154
4851,-0.3887,-0.7969,-0.3672,4.028,2.319,0.488,-113.472,23.318,-88.176
4861,-0.3755,-0.8398,-0.3687,-7.812,-3.906,-3.967,-113.527,23.286,-88.121
4871,-0.3711,-0.8872,-0.3682,-16.357,-8.362,-5.310,-113.637,23.247,-88.017
4881,-0.3633,-0.9106,-0.3721,-19.043,-10.254,-5.249,-113.763,23.214,-87.891
4891,-0.3545,-0.9063,-0.3755,-15.320,-9.277,-3.784,-113.862,23.181,-87.781
4901,-0.3604,-0.8970,-0.3755,-7.080,-6.226,-0.793,-113.895,23.170,-87.715
4911,-0.3794,-0.8657,-0.3755,1.587,-2.380,2.686,-113.868,23.192,-87.704
4921,-0.4014,-0.8135,-0.3735,7.935,1.343,5.676,-113.813,23.247,-87.742
4931,-0.4092,-0.7832,-0.3726,11.536,4.395,7.202,-113.741,23.313,-87.819
4941,-0.4062,-0.7832,-0.3750,11.475,5.432,6.775,-113.681,23.373,-87.902
4951,-0.4077,-0.7915,-0.3735,8.484,3.967,4.028,-113.637,23.412,-87.957
4961,-0.3955,-0.8159,-0.3667,4.761,1.465,0.122,-113.599,23.412,-87.973
4971,-0.3750,-0.8506,-0.3560,1.770,-1.526,-2.869,-113.566,23.379,-87.946
4981,-0.3633,-0.8682,-0.3594,0.183,-3.723,-3.906,-113.527,23.335,-87.891
4991,-0.3545,-0.8872,-0.3481,2.136,-3.967,-2.869,-113.467,23.297,-87.841
5001,-0.3633,-0.8882,-0.3394,5.737,-2.930,-0.488,-113.373,23.275,-87.808
5011,-0.4019,-0.8384,-0.3306,9.033,-0.854,2.808,-113.264,23.313,-87.814
5021,-0.4321,-0.7759,-0.3320,12.207,2.014,5.920,-113.159,23.395,-87.858
5031,-0.4292,-0.7612,-0.3271,13.977,4.639,7.141,-113.055,23.483,-87.935
5041,-0.3916,-0.8115,-0.3218,11.719,4.456,3.601,-112.945,23.505,-87.995
5051,-0.3452,-0.8999,-0.3047,3.662,0.610,-2.747,-112.868,23.445,-87.990
5061,-0.3140,-0.9907,-0.3018,-7.935,-4.456,-6.592,-112.857,23.335,-87.918
5071,-0.2871,-1.0703,-0.3022,-16.846,-7.507,-6.348,-112.912,23.220,-87.814
5081,-0.3281,-1.0098,-0.3203,-20.386,-7.324,-1.404,-113.033,23.176,-87.737
5091,-0.4004,-0.8687,-0.3530,-13.794,-2.502,8.484,-113.165,23.258,-87.748
5101,-0.4385,-0.7632,-0.3730,1.831,5.493,17.517,-113.225,23.439,-87.874
5111,-0.4648,-0.6611,-0.3936,17.639,11.902,18.799,-113.203,23.637,-88.077
5122,-0.4731,-0.6367,-0.3916,28.137,14.221,14.160,-113.088,23.802,-88.281
5131,-0.4517,-0.6899,-0.3667,27.405,11.414,6.042,-112.923,23.873,-88.418
5141,-0.4209,-0.7476,-0.3545,14.038,4.761,-2.869,-112.824,23.862,-88.456
5151,-0.3955,-0.8262,-0.3511,-3.296,-1.953,-9.766,-112.835,23.780,-88.396
5161,-0.3730,-0.9023,-0.3467,-16.724,-6.165,-13.306,-112.934,23.654,-88.275
5171,-0.3506,-0.9536,-0.3506,-20.874,-5.920,-13.306,-113.066,23.511,-88.160
5181,-0.3433,-0.9604,-0.3560,-14.709,-2.747,-9.705,-113.159,23.379,-88.094
5191,-0.3623,-0.9277,-0.3599,-2.930,0.977,-2.441,-113.165,23.318,-88.088
5201,-0.3813,-0.8608,-0.3540,9.399,4.333,5.005,-113.093,23.340,-88.154
5211,-0.4023,-0.7822,-0.3486,17.639,6.348,10.193,-112.967,23.428,-88.264
5221,-0.4146,-0.7446,-0.3403,19.104,5.615,12.329,-112.835,23.549,-88.374
5231,-0.4185,-0.7476,-0.3364,13.672,1.953,8.728,-112.736,23.659,-88.429
5241,-0.4082,-0.7856,-0.3345,3.723,-2.747,1.099,-112.698,23.698,-88.407
5251,-0.3916,-0.8540,-0.3330,-6.531,-6.226,-6.104,-112.709,23.659,-88.319
5261,-0.3677,-0.9282,-0.3384,-13.977,-8.301,-9.705,-112.775,23.571,-88.193
5271,-0.3501,-0.9497,-0.3403,-17.334,-8.545,-8.850,-112.863,23.478,-88.066
5281,-0.3564,-0.9243,-0.3506,-15.076,-6.592,-4.333,-112.961,23.428,-87.984
5291,-0.3750,-0.8877,-0.3501,-7.935,-3.052,2.258,-113.016,23.439,-87.962
5301,-0.3901,-0.8379,-0.3501,-0.610,0.366,6.714,-113.033,23.500,-87.995
5311,-0.4067,-0.7861,-0.3496,4.150,2.808,8.057,-113.022,23.577,-88.055
5321,-0.4209,-0.7690,-0.3462,6.042,4.822,7.507,-113.011,23.659,-88.138
5331,-0.4248,-0.7769,-0.3491,5.310,5.432,4.944,-113.000,23.708,-88.215
5341,-0.4072,-0.8062,-0.3511,2.258,4.333,1.099,-113.000,23.714,-88.264
5351,-0.3896,-0.8394,-0.3535,-2.014,2.075,-2.136,-113.022,23.681,-88.275
5361,-0.3853,-0.8628,-0.3496,-5.981,-0.122,-2.869,-113.066,23.643,-88.259
5371,-0.3809,-0.8677,-0.3516,-8.545,-1.526,-1.526,-113.132,23.621,-88.237
5381,-0.3848,-0.8574,-0.3521,-9.888,-2.502,0.366,-113.214,23.626,-88.215
5391,-0.3911,-0.8364,-0.3506,-9.644,-2.686,2.014,-113.297,23.648,-88.198
5401,-0.4023,-0.8125,-0.3584,-8.362,-1.709,3.540,-113.384,23.698,-88.193
5411,-0.4092,-0.7910,-0.3613,-5.127,0.183,4.272,-113.456,23.747,-88.215
5421,-0.4082,-0.7979,-0.3604,-0.244,2.991,5.066,-113.483,23.796,-88.270
5431,-0.4038,-0.8184,-0.3652,4.272,5.737,6.226,-113.483,23.835,-88.352
5441,-0.3931,-0.8477,-0.3608,9.094,8.667,7.812,-113.439,23.862,-88.473
5451,-0.3818,-0.8730,-0.3550,12.573,10.986,10.559,-113.362,23.901,-88.627
5461,-0.3774,-0.8843,-0.3584,14.343,12.329,14.099,-113.280,23.956,-88.813
5471,-0.3662,-0.8892,-0.3613,16.602,12.817,17.090,-113.187,24.027,-89.017
5481,-0.3696,-0.8848,-0.3594,19.836,12.085,18.311,-113.060,24.120,-89.220
5491,-0.3848,-0.8828,-0.3433,21.301,9.644,16.785,-112.901,24.214,-89.385
5501,-0.4102,-0.8472,-0.3359,17.029,5.005,11.414,-112.758,24.302,-89.484
5511,-0.4272,-0.7896,-0.3320,9.949,0.305,2.808,-112.665,24.346,-89.500
5521,-0.4443,-0.7598,-0.3345,2.747,-2.136,-4.089,-112.637,24.357,-89.462
5531,-0.4434,-0.7520,-0.3364,-3.723,-3.601,-9.521,-112.654,24.324,-89.385
5541,-0.4321,-0.7603,-0.3398,-8.057,-4.639,-13.489,-112.709,24.247,-89.280
5551,-0.4072,-0.8008,-0.3340,-9.583,-6.165,-14.099,-112.753,24.153,-89.160
5561,-0.3901,-0.8433,-0.3335,-9.583,-7.263,-12.634,-112.780,24.055,-89.033
5571,-0.3613,-0.8965,-0.3350,-7.263,-7.324,-11.047,-112.786,23.950,-88.912
5581,-0.3428,-0.9609,-0.3267,-2.930,-6.531,-9.338,-112.731,23.835,-88.808
5591,-0.3477,-0.9873,-0.3232,0.122,-5.127,-6.226,-112.648,23.747,-88.726
5601,-0.3599,-0.9653,-0.3281,2.441,-2.930,-1.099,-112.577,23.703,-88.693
5611,-0.3789,-0.8936,-0.3340,4.883,-0.366,4.150,-112.511,23.725,-88.709
5622,-0.4219,-0.7905,-0.3481,7.141,1.953,8.606,-112.473,23.818,-88.764
5631,-0.4351,-0.7529,-0.3467,9.277,3.723,10.742,-112.440,23.939,-88.846
5641,-0.4282,-0.7422,-0.3359,7.263,3.845,8.545,-112.418,24.044,-88.918
5651,-0.4126,-0.7549,-0.3335,0.916,0.854,2.869,-112.429,24.088,-88.940
5661,-0.3916,-0.8223,-0.3320,-6.104,-3.174,-2.747,-112.467,24.077,-88.896
5671,-0.3662,-0.9224,-0.3340,-12.024,-7.080,-6.897,-112.522,24.000,-88.797
5681,-0.3408,-0.9941,-0.3340,-14.099,-9.583,-9.094,-112.566,23.895,-88.660
5691,-0.3369,-1.0171,-0.3394,-11.108,-7.935,-6.958,-112.593,23.796,-88.555
5701,-0.3643,-0.9712,-0.3550,-3.540,-2.563,0.427,-112.593,23.769,-88.528
5711,-0.4053,-0.8794,-0.3750,5.432,3.479,10.864,-112.577,23.846,-88.610
5721,-0.4448,-0.7603,-0.3887,12.329,7.568,18.005,-112.560,24.016,-88.759
5731,-0.4824,-0.6558,-0.4023,15.320,8.850,18.860,-112.566,24.236,-88.929
5741,-0.4810,-0.6333,-0.3994,15.686,7.019,12.573,-112.555,24.412,-89.055
5751,-0.4399,-0.6890,-0.3696,11.414,1.953,1.587,-112.511,24.467,-89.083
5761,-0.3945,-0.7935,-0.3496,0.916,-4.883,-8.423,-112.478,24.406,-88.995
5771,-0.3550,-0.9141,-0.3242,-10.193,-12.146,-15.198,-112.473,24.274,-88.808
5781,-0.3252,-0.9941,-0.3042,-18.433,-17.212,-15.686,-112.505,24.126,-88.566
5791,-0.3228,-1.0278,-0.2969,-19.104,-16.418,-9.949,-112.544,24.022,-88.358
5801,-0.3657,-0.9795,-0.2998,-11.963,-10.010,-0.061,-112.566,24.016,-88.259
5811,-0.4185,-0.8936,-0.3052,-0.793,-0.366,10.803,-112.555,24.115,-88.303
5821,-0.4507,-0.7671,-0.3174,9.949,9.277,17.578,-112.522,24.285,-88.467
5831,-0.4692,-0.6719,-0.3398,17.212,15.198,18.005,-112.489,24.467,-88.698
5841,-0.4370,-0.6963,-0.3359,20.813,15.930,10.925,-112.401,24.560,-88.907
5851,-0.3765,-0.8320,-0.3301,14.587,10.864,0.854,-112.297,24.510,-89.022
5861,-0.3242,-0.9922,-0.3413,-0.549,2.625,-7.812,-112.264,24.351,-89.011
5871,-0.3003,-1.1016,-0.3433,-14.282,-5.737,-11.597,-112.313,24.170,-88.907
5881,-0.3652,-1.0293,-0.3608,-22.339,-10.010,-6.409,-112.456,24.093,-88.781
5891,-0.4844,-0.8110,-0.3921,-18.005,-6.409,7.507,-112.654,24.230,-88.748
5901,-0.5532,-0.6167,-0.4146,-0.610,2.136,20.630,-112.813,24.532,-88.852
5911,-0.5522,-0.4878,-0.4204,18.005,10.376,22.156,-112.896,24.857,-89.055
5921,-0.5034,-0.4810,-0.3921,26.306,11.169,11.658,-112.868,25.060,-89.214
5931,-0.4258,-0.6172,-0.3232,20.325,3.479,-3.784,-112.725,25.076,-89.236
5941,-0.3877,-0.7690,-0.2944,1.221,-8.118,-17.761,-112.626,24.950,-89.077
5951,-0.3369,-0.9517,-0.2627,-15.686,-16.663,-26.978,-112.593,24.703,-88.792
5961,-0.2856,-1.0947,-0.2485,-25.024,-18.188,-29.114,-112.615,24.401,-88.484
5971,-0.2808,-1.1592,-0.2607,-24.048,-12.207,-23.010,-112.659,24.126,-88.264
5981,-0.3008,-1.1514,-0.2744,-11.108,-1.770,-9.644,-112.654,23.945,-88.204
5991,-0.3491,-1.0376,-0.2793,6.836,8.423,6.287,-112.555,23.912,-88.319
6001,-0.4214,-0.8452,-0.2910,19.714,15.442,20.325,-112.423,24.055,-88.561
6011,-0.4771,-0.6538,-0.3159,23.499,18.311,27.222,-112.346,24.324,-88.857
6021,-0.4976,-0.5610,-0.3389,20.752,15.686,23.499,-112.330,24.609,-89.116
6031,-0.4722,-0.5884,-0.3462,11.597,10.193,10.681,-112.357,24.769,-89.264
6041,-0.4282,-0.7031,-0.3530,-4.333,3.296,-4.944,-112.451,24.752,-89.275
6051,-0.3901,-0.8672,-0.3667,-20.935,-4.028,-17.273,-112.615,24.587,-89.165
6061,-0.3589,-1.0029,-0.3687,-30.884,-7.812,-22.705,-112.824,24.346,-88.989
6071,-0.4019,-0.9668,-0.3940,-33.691,-6.714,-19.043,-113.093,24.170,-88.841
6081,-0.4453,-0.8223,-0.4297,-24.902,-1.282,-7.263,-113.362,24.120,-88.797
6091,-0.5024,-0.6470,-0.4355,-5.554,5.005,4.822,-113.555,24.230,-88.868
6101,-0.4780,-0.6011,-0.4443,13.184,10.681,8.728,-113.610,24.351,-89.011
6111,-0.3755,-0.7305,-0.3931,22.888,10.620,0.488,-113.478,24.313,-89.121
6122,-0.3125,-0.8911,-0.3276,14.832,0.671,-12.329,-113.280,24.137,-89.072
6131,-0.2920,-1.0527,-0.2856,-2.502,-9.949,-19.470,-113.148,23.912,-88.890
6141,-0.2710,-1.1626,-0.2539,-18.555,-15.320,-18.494,-113.126,23.692,-88.654
6151,-0.2832,-1.1421,-0.2705,-27.039,-15.259,-10.681,-113.220,23.549,-88.456
6161,-0.3398,-1.0161,-0.2988,-21.179,-8.545,0.977,-113.329,23.533,-88.374
6171,-0.3965,-0.8789,-0.3203,-3.601,1.465,12.390,-113.357,23.637,-88.445
6181,-0.4399,-0.7354,-0.3340,13.794,11.047,18.982,-113.307,23.813,-88.638
6191,-0.5039,-0.5811,-0.3579,22.644,16.785,20.752,-113.269,24.066,-88.896
6201,-0.5215,-0.5356,-0.3706,23.560,17.761,16.785,-113.253,24.296,-89.143
6211,-0.4717,-0.6055,-0.3687,14.648,13.062,5.737,-113.253,24.390,-89.302
6221,-0.4097,-0.7168,-0.3682,-3.357,4.028,-8.545,-113.324,24.324,-89.308
6231,-0.3745,-0.8726,-0.3701,-22.278,-5.371,-19.592,-113.489,24.137,-89.165
6241,-0.3340,-1.0088,-0.3672,-32.715,-9.827,-24.353,-113.692,23.884,-88.962
6251,-0.2954,-1.0879,-0.3647,-31.616,-8.728,-21.240,-113.879,23.632,-88.781
6261,-0.3442,-1.0313,-0.3662,-20.142,-3.906,-10.071,-114.005,23.494,-88.698
6271,-0.3750,-0.9556,-0.3691,-2.319,4.639,4.639,-114.027,23.483,-88.764
6281,-0.3755,-0.8359,-0.3691,15.564,13.306,14.587,-113.945,23.555,-88.962
6291,-0.4121,-0.7217,-0.3735,27.527,17.944,17.212,-113.807,23.670,-89.214
6301,-0.4370,-0.6904,-0.3589,31.006,17.395,13.611,-113.632,23.780,-89.451
6311,-0.4126,-0.7466,-0.3481,23.437,13.184,5.859,-113.478,23.807,-89.610
6321,-0.3892,-0.7993,-0.3594,7.080,6.165,-2.808,-113.434,23.758,-89.659
6331,-0.3760,-0.8740,-0.3672,-8.728,-1.587,-7.996,-113.494,23.670,-89.604
6341,-0.3682,-0.9341,-0.3735,-17.883,-7.202,-9.766,-113.610,23.577,-89.489
6351,-0.3687,-0.9404,-0.3721,-18.433,-9.521,-8.850,-113.714,23.500,-89.357
6361,-0.4004,-0.8892,-0.3604,-11.353,-7.874,-3.784,-113.774,23.489,-89.264
6371,-0.4072,-0.8428,-0.3462,-1.160,-2.502,3.357,-113.769,23.533,-89.253
6381,-0.3970,-0.7886,-0.3413,5.981,3.479,7.874,-113.730,23.604,-89.324
6391,-0.3994,-0.7539,-0.3486,7.385,7.751,9.521,-113.719,23.681,-89.440
6401,-0.3989,-0.7573,-0.3657,5.249,8.362,6.775,-113.730,23.725,-89.555
6411,-0.3877,-0.7837,-0.3872,1.526,5.493,0.366,-113.763,23.708,-89.610
6421,-0.3838,-0.8267,-0.4116,-1.892,1.465,-5.676,-113.807,23.643,-89.599
6431,-0.3857,-0.8887,-0.4150,-1.953,-1.831,-9.277,-113.813,23.544,-89.544
6441,-0.3843,-0.9106,-0.4155,0.305,-4.761,-10.376,-113.780,23.439,-89.451
6451,-0.3765,-0.9175,-0.4053,4.578,-6.653,-7.996,-113.698,23.368,-89.346
6461,-0.3779,-0.9106,-0.3789,8.728,-7.446,-3.296,-113.566,23.340,-89.258
6471,-0.3926,-0.8604,-0.3594,10.071,-7.812,1.404,-113.428,23.379,-89.187
6481,-0.3857,-0.8223,-0.3423,8.911,-7.629,4.333,-113.307,23.450,-89.127
6491,-0.3794,-0.8052,-0.3208,6.104,-7.874,4.700,-113.209,23.527,-89.072
6501,-0.3823,-0.8037,-0.3081,3.052,-8.850,3.113,-113.126,23.593,-88.995
6511,-0.3799,-0.8301,-0.2944,1.831,-8.972,0.488,-113.038,23.632,-88.907
6521,-0.3926,-0.8354,-0.2861,1.648,-7.935,-1.526,-112.945,23.648,-88.819
6531,-0.3975,-0.8423,-0.2808,3.418,-5.066,-1.587,-112.846,23.659,-88.764
6541,-0.4189,-0.8174,-0.2817,5.981,-1.404,-0.977,-112.736,23.681,-88.742
6551,-0.4194,-0.8071,-0.2837,8.118,2.319,-0.427,-112.632,23.692,-88.764
6561,-0.3984,-0.8159,-0.2896,7.385,5.127,-0.854,-112.549,23.676,-88.813
6571,-0.3901,-0.8330,-0.2939,2.441,6.042,-1.465,-112.516,23.637,-88.868
6581,-0.3701,-0.8721,-0.3003,-4.883,6.714,-1.404,-112.555,23.582,-88.929
6591,-0.3364,-0.9297,-0.3081,-12.085,6.836,-1.160,-112.654,23.500,-88.995
6601,-0.3198,-0.9634,-0.3340,-16.113,6.531,-0.305,-112.802,23.412,-89.061
6611,-0.3521,-0.9409,-0.3594,-14.587,6.775,2.563,-112.961,23.368,-89.138
6622,-0.3936,-0.8770,-0.3794,-6.958,8.423,6.897,-113.077,23.390,-89.253
6631,-0.4341,-0.7842,-0.4043,2.075,9.583,10.742,-113.154,23.478,-89.396
6641,-0.4375,-0.7275,-0.4141,10.437,9.644,10.864,-113.176,23.577,-89.539
6651,-0.4619,-0.6763,-0.4141,13.306,6.836,7.019,-113.165,23.681,-89.637
6661,-0.4595,-0.6685,-0.4155,9.521,2.136,1.831,-113.170,23.758,-89.665
6671,-0.3794,-0.7881,-0.4028,1.465,-3.601,-4.639,-113.170,23.725,-89.610
6681,-0.3057,-0.9551,-0.3750,-9.766,-11.047,-11.597,-113.187,23.588,-89.451
6691,-0.2866,-1.0869,-0.3452,-20.020,-16.785,-13.245,-113.242,23.439,-89.225
6701,-0.2983,-1.1255,-0.3315,-24.719,-16.418,-8.057,-113.340,23.340,-89.022
6711,-0.3896,-0.9561,-0.3511,-21.301,-11.658,2.808,-113.478,23.384,-88.918
6721,-0.4336,-0.7891,-0.3740,-6.042,-3.723,14.771,-113.566,23.566,-88.945
6731,-0.4600,-0.6479,-0.3750,14.587,3.784,18.860,-113.533,23.802,-89.066
6741,-0.5415,-0.4941,-0.3848,27.710,5.432,15.808,-113.450,24.093,-89.193
6751,-0.4863,-0.5767,-0.3652,33.386,4.272,9.338,-113.242,24.274,-89.275
6761,-0.3687,-0.7661,-0.3306,24.963,-2.075,-1.587,-112.989,24.263,-89.247
6771,-0.3247,-0.9277,-0.3101,3.296,-12.756,-12.817,-112.835,24.137,-89.061
6781,-0.3125,-1.0713,-0.2837,-18.372,-19.592,-17.822,-112.824,23.967,-88.786
6791,-0.2935,-1.1504,-0.2798,-31.189,-17.761,-16.541,-112.939,23.785,-88.539
6801,-0.3047,-1.0957,-0.3052,-30.701,-9.888,-8.667,-113.115,23.654,-88.401
6811,-0.3662,-0.9365,-0.3320,-15.259,-0.671,4.089,-113.236,23.659,-88.412
6821,-0.4194,-0.7944,-0.3423,7.874,7.629,16.357,-113.220,23.802,-88.561
6831,-0.4434,-0.6895,-0.3477,27.344,14.282,21.606,-113.077,24.005,-88.797
6841,-0.4917,-0.5952,-0.3594,36.438,15.869,19.592,-112.896,24.236,-89.039
6851,-0.4873,-0.6035,-0.3516,33.936,12.878,12.939,-112.709,24.406,-89.225
6861,-0.4395,-0.6943,-0.3413,18.616,5.859,2.258,-112.588,24.461,-89.297
6871,-0.4058,-0.7993,-0.3437,-4.883,-3.418,-10.071,-112.610,24.384,-89.220
6881,-0.3657,-0.9409,-0.3369,-24.231,-10.498,-18.616,-112.747,24.214,-89.033
6891,-0.3301,-1.0342,-0.3350,-34.241,-12.573,-20.447,-112.950,24.000,-88.819
6901,-0.3179,-1.0420,-0.3564,-32.104,-9.949,-15.686,-113.159,23.818,-88.654
6911,-0.3267,-0.9971,-0.3589,-17.212,-3.662,-5.798,-113.269,23.708,-88.588
6921,-0.3789,-0.8994,-0.3618,1.038,2.991,6.348,-113.269,23.736,-88.649
6931,-0.4185,-0.7925,-0.3594,16.724,9.460,15.015,-113.181,23.851,-88.808
6941,-0.4453,-0.7026,-0.3628,25.635,13.794,17.700,-113.055,24.016,-89.022
6951,-0.4731,-0.6519,-0.3667,27.710,13.916,14.221,-112.923,24.175,-89.225
6961,-0.4526,-0.6943,-0.3550,22.400,9.949,6.653,-112.797,24.258,-89.352
6971,-0.4019,-0.7891,-0.3433,8.667,2.563,-2.930,-112.720,24.225,-89.368
6981,-0.3628,-0.8691,-0.3394,-8.972,-6.897,-10.620,-112.747,24.126,-89.253
6991,-0.3447,-0.9580,-0.3354,-20.386,-13.184,-12.817,-112.841,24.005,-89.061
7001,-0.3354,-0.9990,-0.3315,-22.217,-13.306,-10.803,-112.945,23.895,-88.885
7011,-0.3462,-0.9834,-0.3325,-15.869,-7.874,-4.700,-113.016,23.829,-88.786
7021,-0.3926,-0.8950,-0.3394,-4.272,0.122,3.601,-113.044,23.846,-88.802
7031,-0.4233,-0.8188,-0.3311,7.812,8.545,10.681,-113.011,23.928,-88.934
7041,-0.4346,-0.7461,-0.3418,14.709,14.221,12.817,-112.961,24.027,-89.132
7051,-0.4502,-0.6938,-0.3511,15.808,14.099,9.521,-112.917,24.120,-89.313
7061,-0.4233,-0.7476,-0.3481,12.390,10.437,3.723,-112.863,24.148,-89.434
7071,-0.3799,-0.8428,-0.3433,3.784,4.333,-3.845,-112.830,24.082,-89.462
7081,-0.3555,-0.9199,-0.3433,-7.751,-2.808,-8.362,-112.857,23.972,-89.396
7091,-0.3486,-0.9780,-0.3306,-15.564,-7.812,-8.423,-112.923,23.873,-89.280
7101,-0.3530,-0.9707,-0.3335,-18.799,-8.179,-4.456,-113.027,23.813,-89.182
7111,-0.3882,-0.8862,-0.3501,-14.709,-4.028,2.014,-113.148,23.835,-89.149
7122,-0.4170,-0.8135,-0.3564,-4.272,2.441,8.667,-113.220,23.917,-89.209
7131,-0.4146,-0.7554,-0.3545,6.409,8.179,11.292,-113.225,24.011,-89.341
7141,-0.4385,-0.7119,-0.3647,11.719,9.460,10.559,-113.209,24.115,-89.484
7151,-0.4160,-0.7715,-0.3569,12.390,7.935,6.958,-113.143,24.170,-89.594
7161,-0.3901,-0.8340,-0.3516,5.127,2.747,1.282,-113.104,24.159,-89.626
7171,-0.3696,-0.8989,-0.3535,-5.188,-2.808,-2.869,-113.121,24.115,-89.588
7181,-0.3638,-0.9487,-0.3481,-11.047,-5.615,-3.723,-113.176,24.060,-89.511
7191,-0.3867,-0.9326,-0.3447,-11.780,-5.127,-1.892,-113.236,24.033,-89.451
7201,-0.4136,-0.8525,-0.3569,-7.996,-0.916,3.052,-113.313,24.066,-89.456
7211,-0.4004,-0.8159,-0.3604,0.671,4.822,6.836,-113.340,24.109,-89.533
7221,-0.4023,-0.7852,-0.3633,7.324,8.423,6.897,-113.329,24.148,-89.648
7231,-0.3979,-0.8032,-0.3643,9.094,8.606,5.798,-113.297,24.170,-89.764
7241,-0.3335,-0.9321,-0.3540,7.568,7.141,3.662,-113.231,24.115,-89.852
7251,-0.3003,-1.0454,-0.3325,1.343,2.563,1.282,-113.176,24.033,-89.879
7261,-0.3735,-0.9863,-0.3364,-6.226,-3.113,4.028,-113.187,24.038,-89.868
7271,-0.4399,-0.8398,-0.3618,-6.287,-4.395,12.085,-113.253,24.181,-89.874
7281,-0.4858,-0.6689,-0.3809,2.930,-2.930,17.883,-113.307,24.434,-89.923
7291,-0.5371,-0.5132,-0.3896,13.733,-1.648,18.066,-113.340,24.758,-89.984
7301,-0.5557,-0.4639,-0.3882,20.569,-0.122,12.634,-113.324,25.054,-90.038
7311,-0.4878,-0.5830,-0.3545,18.616,-0.305,0.732,-113.220,25.164,-90.038
7321,-0.4053,-0.7441,-0.3281,3.540,-4.883,-14.038,-113.143,25.071,-89.929
7331,-0.3350,-0.9390,-0.3096,-16.602,-11.047,-25.269,-113.165,24.818,-89.709
7341,-0.2993,-1.1025,-0.2935,-30.823,-14.587,-29.175,-113.275,24.510,-89.434
7351,-0.2886,-1.1641,-0.3052,-34.241,-12.024,-24.597,-113.434,24.225,-89.203
7361,-0.3198,-1.1064,-0.3223,-23.071,-5.615,-11.414,-113.544,24.055,-89.099
7371,-0.3701,-0.9619,-0.3437,-3.052,1.770,4.944,-113.555,24.049,-89.138
7381,-0.3989,-0.8213,-0.3511,17.822,8.972,17.395,-113.439,24.175,-89.302
7391,-0.4468,-0.7129,-0.3506,29.907,13.123,22.400,-113.264,24.379,-89.533
7401,-0.4937,-0.6104,-0.3545,29.175,11.414,19.226,-113.126,24.615,-89.731
7411,-0.4731,-0.6045,-0.3555,18.921,6.653,9.094,-113.055,24.763,-89.835
7421,-0.4512,-0.6475,-0.3613,3.418,0.305,-4.028,-113.077,24.791,-89.824
7431,-0.4312,-0.7539,-0.3638,-11.841,-5.676,-14.648,-113.170,24.708,-89.703
7441,-0.3857,-0.9014,-0.3511,-20.203,-8.118,-21.362,-113.280,24.510,-89.528
7451,-0.3364,-1.0146,-0.3511,-21.973,-6.714,-22.949,-113.384,24.258,-89.363
7461,-0.3105,-1.0645,-0.3486,-17.517,-3.174,-17.456,-113.461,24.027,-89.253
7471,-0.3247,-1.0366,-0.3521,-8.728,0.122,-5.981,-113.494,23.895,-89.225
7481,-0.3765,-0.9233,-0.3579,2.380,2.808,6.409,-113.467,23.912,-89.286
7491,-0.4116,-0.8096,-0.3633,12.878,6.897,14.648,-113.401,24.027,-89.418
7501,-0.4307,-0.7290,-0.3662,19.348,9.216,14.893,-113.307,24.164,-89.577
7511,-0.4590,-0.6802,-0.3643,19.592,7.202,9.155,-113.203,24.285,-89.687
7521,-0.4424,-0.7046,-0.3550,13.794,3.235,1.282,-113.121,24.335,-89.725
7531,-0.4087,-0.7661,-0.3457,2.869,-2.197,-5.981,-113.082,24.307,-89.676
7541,-0.3857,-0.8486,-0.3408,-9.460,-8.484,-11.475,-113.110,24.219,-89.544
7551,-0.3696,-0.9082,-0.3359,-17.700,-12.390,-14.282,-113.181,24.104,-89.357
7561,-0.3579,-0.9395,-0.3369,-18.250,-11.414,-13.123,-113.258,23.983,-89.182
7571,-0.3657,-0.9341,-0.3428,-12.756,-6.958,-7.874,-113.313,23.901,-89.077
7581,-0.3833,-0.8979,-0.3462,-3.723,-1.648,-0.793,-113.318,23.879,-89.061
7591,-0.3950,-0.8599,-0.3457,5.798,3.845,4.517,-113.269,23.901,-89.116
7601,-0.4014,-0.8135,-0.3477,11.902,7.629,7.263,-113.192,23.939,-89.225
7611,-0.4155,-0.7842,-0.3506,14.465,8.911,8.179,-113.110,24.000,-89.352
7622,-0.4053,-0.7959,-0.3491,12.756,7.141,5.615,-113.027,24.033,-89.445
7631,-0.4004,-0.7949,-0.3511,6.897,2.197,0.977,-112.978,24.038,-89.473
7641,-0.3921,-0.8438,-0.3433,0.916,-2.502,-2.930,-112.945,24.016,-89.434
7651,-0.3818,-0.8867,-0.3379,-4.089,-5.493,-5.310,-112.934,23.967,-89.357
7661,-0.3848,-0.8945,-0.3350,-7.507,-6.836,-6.470,-112.945,23.912,-89.258
7671,-0.3828,-0.8984,-0.3340,-6.775,-4.517,-4.761,-112.961,23.868,-89.193
7681,-0.3828,-0.8804,-0.3374,-3.662,-0.183,-1.587,-112.972,23.835,-89.187
7691,-0.3901,-0.8447,-0.3374,-0.244,3.296,2.258,-112.978,23.835,-89.231
7701,-0.4038,-0.8027,-0.3437,2.075,4.395,5.249,-112.989,23.879,-89.297
7711,-0.4229,-0.7695,-0.3477,3.723,3.601,5.432,-112.989,23.939,-89.357
7721,-0.4175,-0.7769,-0.3511,5.188,2.441,3.052,-112.967,23.978,-89.396
7731,-0.3887,-0.8413,-0.3462,1.404,-2.075,-3.662,-112.934,23.945,-89.357
7741,-0.3813,-0.8706,-0.3394,-1.282,-3.540,-4.150,-112.906,23.906,-89.302
7751,-0.3882,-0.8594,-0.3398,-2.869,-3.784,-3.540,-112.901,23.873,-89.247
7761,-0.3906,-0.8530,-0.3394,-2.258,-1.892,-1.587,-112.901,23.862,-89.225
7771,-0.3828,-0.8550,-0.3291,0.000,1.709,0.183,-112.890,23.846,-89.242
7781,-0.3833,-0.8535,-0.3247,1.160,5.066,2.197,-112.879,23.835,-89.302
7791,-0.3911,-0.8579,-0.3208,1.709,7.935,4.639,-112.879,23.840,-89.401
7801,-0.3887,-0.8633,-0.3257,1.099,8.484,5.737,-112.890,23.846,-89.511
7811,-0.3843,-0.8657,-0.3315,0.916,7.385,5.005,-112.901,23.851,-89.610
7821,-0.3945,-0.8438,-0.3384,1.099,5.188,3.601,-112.906,23.862,-89.676
7831,-0.3994,-0.8364,-0.3398,2.869,3.479,2.930,-112.890,23.873,-89.725
7841,-0.4214,-0.8062,-0.3545,3.845,1.892,2.197,-112.868,23.906,-89.753
7851,-0.4175,-0.7856,-0.3623,4.395,1.099,1.343,-112.852,23.928,-89.769
7861,-0.4014,-0.8130,-0.3433,5.249,1.038,-0.183,-112.808,23.928,-89.780
7871,-0.4185,-0.8013,-0.3325,0.977,0.244,-0.916,-112.791,23.939,-89.775
7881,-0.4336,-0.7827,-0.3345,-5.127,0.610,-0.305,-112.846,23.967,-89.780
7891,-0.4199,-0.7944,-0.3423,-10.681,1.099,-0.244,-112.961,23.978,-89.791
7901,-0.3555,-0.8828,-0.3481,-13.245,1.526,-3.113,-113.082,23.906,-89.791
7912,-0.3159,-0.9775,-0.3413,-12.207,1.404,-6.470,-113.159,23.774,-89.780
7922,-0.3638,-0.9580,-0.3413,-9.583,0.793,-4.883,-113.209,23.687,-89.769
7932,-0.4287,-0.8389,-0.3613,-2.686,1.953,0.488,-113.247,23.698,-89.786
7942,-0.4424,-0.7393,-0.3926,8.606,5.127,4.028,-113.236,23.758,-89.857
7952,-0.4365,-0.6816,-0.3989,18.860,6.958,1.648,-113.154,23.796,-89.934
7962,-0.4346,-0.7026,-0.3799,20.874,5.676,-2.380,-113.016,23.802,-89.984
7972,-0.4043,-0.7837,-0.3550,11.902,2.319,-7.141,-112.906,23.741,-89.973
7982,-0.3545,-0.8740,-0.3428,-4.089,-2.563,-12.268,-112.901,23.604,-89.896
7992,-0.3159,-0.9917,-0.3315,-18.799,-6.348,-14.404,-112.994,23.434,-89.769
8001,-0.2964,-1.0659,-0.3267,-27.100,-8.057,-13.367,-113.148,23.258,-89.632
8012,-0.3159,-1.0493,-0.3457,-26.917,-6.409,-8.362,-113.329,23.132,-89.533
8022,-0.3584,-0.9639,-0.3599,-15.808,-2.258,0.366,-113.450,23.104,-89.511
8032,-0.3999,-0.8511,-0.3711,0.916,1.953,8.972,-113.461,23.181,-89.572
8042,-0.4287,-0.7373,-0.3833,15.930,5.615,12.634,-113.390,23.313,-89.681
8052,-0.4644,-0.6362,-0.3936,24.353,7.690,11.902,-113.280,23.478,-89.808
8062,-0.4687,-0.6309,-0.3818,25.513,6.836,7.629,-113.148,23.610,-89.912
8072,-0.4312,-0.6782,-0.3657,16.724,1.404,-0.671,-113.038,23.654,-89.923
8082,-0.3721,-0.7974,-0.3545,0.427,-6.348,-9.766,-113.000,23.582,-89.819
8092,-0.3286,-0.9512,-0.3330,-15.991,-12.878,-16.296,-113.044,23.428,-89.615
8102,-0.3174,-1.0488,-0.3145,-26.978,-15.503,-17.578,-113.159,23.258,-89.385
8112,-0.3105,-1.0684,-0.3257,-28.076,-11.169,-13.123,-113.307,23.104,-89.220
8122,-0.3408,-0.9897,-0.3379,-16.663,-2.930,-4.761,-113.406,23.022,-89.171
8132,-0.3965,-0.8599,-0.3428,2.136,5.371,5.615,-113.401,23.055,-89.247
8142,-0.4077,-0.7666,-0.3462,20.996,13.000,12.512,-113.275,23.143,-89.429
8152,-0.4141,-0.7173,-0.3452,30.396,16.052,13.184,-113.082,23.247,-89.648
8162,-0.4463,-0.6724,-0.3369,26.672,12.146,10.437,-112.917,23.368,-89.813
8172,-0.4434,-0.6904,-0.3389,14.465,5.432,4.395,-112.835,23.450,-89.885
8182,-0.4087,-0.7539,-0.3481,-1.282,-1.648,-4.822,-112.852,23.445,-89.852
8192,-0.3628,-0.8579,-0.3521,-15.198,-7.446,-12.329,-112.945,23.340,-89.725
8202,-0.3374,-0.9600,-0.3462,-23.193,-10.620,-15.503,-113.077,23.187,-89.550
8212,-0.3232,-1.0098,-0.3530,-24.841,-10.071,-14.587,-113.220,23.027,-89.390
8222,-0.3345,-1.0000,-0.3613,-18.860,-5.615,-9.216,-113.340,22.912,-89.291
8232,-0.3696,-0.9292,-0.3677,-7.446,0.427,-1.038,-113.395,22.874,-89.291
8242,-0.4043,-0.8311,-0.3735,5.493,6.714,6.287,-113.384,22.917,-89.385
8252,-0.4307,-0.7290,-0.3784,14.893,11.536,9.766,-113.335,23.005,-89.544
8262,-0.4346,-0.6724,-0.3784,18.616,12.207,8.789,-113.275,23.104,-89.703
8272,-0.4048,-0.7212,-0.3628,15.564,8.057,3.052,-113.192,23.132,-89.797
8282,-0.3726,-0.8096,-0.3525,5.493,0.854,-4.578,-113.137,23.088,-89.786
8292,-0.3467,-0.8936,-0.3545,-7.324,-6.531,-9.521,-113.154,22.994,-89.681
8302,-0.3237,-0.9805,-0.3477,-15.076,-10.925,-10.864,-113.203,22.879,-89.522
8312,-0.3242,-0.9990,-0.3486,-15.625,-11.536,-9.338,-113.264,22.780,-89.368
8322,-0.3389,-0.9766,-0.3506,-8.179,-7.385,-4.089,-113.275,22.725,-89.280
8332,-0.3979,-0.8740,-0.3579,2.930,-1.709,3.418,-113.231,22.764,-89.275
8342,-0.4102,-0.7910,-0.3579,13.611,4.211,9.460,-113.137,22.863,-89.357
8352,-0.4380,-0.6899,-0.3643,18.188,7.385,10.986,-113.055,22.994,-89.478
8362,-0.4590,-0.6416,-0.3560,17.029,6.531,7.935,-112.983,23.132,-89.577
8372,-0.4092,-0.7280,-0.3306,11.292,3.052,0.732,-112.896,23.170,-89.610
8382,-0.3604,-0.8394,-0.3169,-2.563,-3.601,-8.057,-112.874,23.093,-89.539
8392,-0.3267,-0.9521,-0.3091,-17.090,-9.644,-13.245,-112.934,22.961,-89.390
8402,-0.3120,-1.0215,-0.3003,-23.560,-11.108,-12.878,-113.038,22.819,-89.220
8412,-0.3481,-0.9746,-0.3145,-21.484,-7.385,-7.935,-113.159,22.736,-89.116
8422,-0.4019,-0.8574,-0.3403,-10.742,0.061,0.366,-113.253,22.747,-89.116
8432,-0.4287,-0.7549,-0.3550,4.272,7.568,6.287,-113.269,22.819,-89.220
8442,-0.4307,-0.6909,-0.3633,16.296,12.329,5.554,-113.209,22.885,-89.368
8452,-0.4009,-0.7451,-0.3652,22.278,12.512,-0.427,-113.060,22.857,-89.489
8462,-0.3145,-0.9048,-0.3545,25.818,10.864,-11.536,-112.813,22.665,-89.550
8471,-0.2676,-1.0703,-0.3276,27.649,9.399,-19.165,-112.484,22.357,-89.561
8481,-0.2417,-1.1787,-0.3003,26.123,9.766,-15.381,-112.159,22.072,-89.594
8491,-0.2856,-1.1050,-0.2959,22.461,11.414,-3.540,-111.901,21.918,-89.698
8502,-0.3945,-0.8652,-0.3154,18.433,13.245,12.329,-111.769,21.995,-89.879
8512,-0.4497,-0.6792,-0.3389,14.282,15.503,24.109,-111.769,22.242,-90.132
8522,-0.4805,-0.5532,-0.3696,4.944,13.306,24.475,-111.923,22.555,-90.363
8532,-0.5259,-0.4429,-0.4062,-11.780,4.944,15.076,-112.291,22.863,-90.472
8542,-0.4902,-0.4927,-0.4316,-26.978,-4.211,-0.122,-112.731,23.016,-90.428
8552,-0.3896,-0.7246,-0.4341,-33.630,-10.681,-18.127,-113.071,22.912,-90.247
8562,-0.2974,-0.9971,-0.3994,-30.151,-13.855,-32.349,-113.253,22.593,-89.967
8572,-0.2466,-1.2178,-0.3623,-18.921,-10.193,-35.217,-113.280,22.198,-89.720
8581,-0.2124,-1.3052,-0.3398,-2.930,-2.747,-24.536,-113.170,21.852,-89.588
8591,-0.2310,-1.2231,-0.3179,15.625,5.493,-4.578,-112.945,21.676,-89.621
8602,-0.3149,-0.9956,-0.3071,30.640,11.536,17.151,-112.648,21.736,-89.808
8612,-0.3828,-0.7930,-0.3140,37.903,16.785,31.067,-112.374,21.984,-90.104
8622,-0.4312,-0.6284,-0.3193,32.837,16.357,31.189,-112.198,22.302,-90.396
8632,-0.4668,-0.5234,-0.3276,18.799,10.315,20.325,-112.181,22.599,-90.582
8642,-0.4668,-0.5503,-0.3291,1.099,2.747,6.042,-112.280,22.775,-90.632
8652,-0.4409,-0.6724,-0.3325,-18.799,-5.188,-6.714,-112.473,22.813,-90.555
8662,-0.4072,-0.8140,-0.3525,-32.898,-10.925,-16.296,-112.742,22.720,-90.374
8672,-0.3467,-0.9648,-0.3589,-32.654,-11.536,-23.071,-112.961,22.516,-90.165
8682,-0.2861,-1.0815,-0.3594,-21.790,-7.751,-23.376,-113.066,22.247,-89.989
8692,-0.2622,-1.1143,-0.3623,-5.676,-1.038,-15.076,-113.044,22.017,-89.912
8702,-0.2783,-1.0464,-0.3662,11.108,6.104,-1.526,-112.912,21.901,-89.967
8712,-0.3203,-0.9238,-0.3560,24.658,11.597,11.353,-112.709,21.918,-90.132
8722,-0.3677,-0.8218,-0.3604,28.992,14.160,19.592,-112.516,22.050,-90.352
8732,-0.4067,-0.7480,-0.3599,24.841,11.719,19.897,-112.374,22.225,-90.549
8742,-0.4312,-0.6997,-0.3486,13.733,4.517,13.428,-112.319,22.401,-90.654
8752,-0.4214,-0.7031,-0.3442,-1.282,-3.662,5.127,-112.363,22.516,-90.637
8762,-0.4092,-0.7480,-0.3413,-15.442,-10.193,-2.563,-112.495,22.571,-90.522
8772,-0.3901,-0.8154,-0.3442,-22.400,-13.184,-8.728,-112.659,22.555,-90.357
8782,-0.3584,-0.9004,-0.3320,-19.165,-11.780,-13.000,-112.758,22.462,-90.181
8792,-0.3306,-0.9463,-0.3286,-11.414,-7.874,-13.306,-112.786,22.330,-90.049
8802,-0.3188,-0.9697,-0.3203,-1.770,-3.113,-8.789,-112.731,22.209,-89.984
8812,-0.3384,-0.9214,-0.3213,5.676,0.488,-1.343,-112.637,22.165,-89.984
8822,-0.3613,-0.8574,-0.3223,9.827,3.357,5.371,-112.544,22.192,-90.038
8832,-0.3818,-0.7974,-0.3267,9.094,4.395,8.301,-112.478,22.269,-90.115
8842,-0.4028,-0.7603,-0.3301,4.822,3.052,7.202,-112.462,22.363,-90.176
8852,-0.4072,-0.7432,-0.3408,-0.793,0.000,2.502,-112.495,22.423,-90.187
8862,-0.3872,-0.7881,-0.3389,-4.944,-2.625,-3.723,-112.538,22.418,-90.143
8872,-0.3589,-0.8638,-0.3364,-8.362,-4.028,-8.850,-112.577,22.341,-90.066
8882,-0.3320,-0.9502,-0.3291,-8.667,-2.991,-11.292,-112.599,22.209,-89.989
8892,-0.3140,-1.0063,-0.3252,-6.836,-0.916,-10.132,-112.604,22.066,-89.940
8902,-0.3179,-0.9858,-0.3418,-4.517,1.221,-5.066,-112.610,21.962,-89.929
8912,-0.3296,-0.9199,-0.3599,0.000,3.479,2.136,-112.610,21.934,-89.973
8922,-0.3730,-0.8359,-0.3682,5.676,5.737,7.690,-112.599,21.984,-90.060
8932,-0.4199,-0.7275,-0.3872,8.545,6.958,9.949,-112.610,22.099,-90.170
8942,-0.4175,-0.6909,-0.3965,9.583,6.592,8.545,-112.626,22.209,-90.275
8952,-0.4014,-0.7427,-0.3828,8.179,2.869,2.258,-112.604,22.253,-90.313
8962,-0.3677,-0.8359,-0.3589,2.014,-3.052,-5.554,-112.571,22.209,-90.258
8972,-0.3174,-0.9360,-0.3359,-5.920,-8.850,-10.132,-112.555,22.104,-90.126
8982,-0.2935,-1.0054,-0.3140,-12.268,-13.550,-9.827,-112.555,22.000,-89.951
8992,-0.3286,-0.9858,-0.3086,-15.869,-14.526,-5.432,-112.599,21.962,-89.786
9002,-0.3750,-0.8911,-0.3267,-12.817,-10.010,0.671,-112.665,22.006,-89.687
9012,-0.3892,-0.7988,-0.3354,-1.038,-1.465,4.700,-112.681,22.077,-89.692
9022,-0.4546,-0.6631,-0.3521,10.803,5.066,5.310,-112.654,22.198,-89.764
9032,-0.4448,-0.6479,-0.3638,21.301,9.583,2.930,-112.549,22.275,-89.874
9042,-0.3398,-0.8218,-0.3354,28.137,9.827,-7.019,-112.291,22.159,-89.945
9052,-0.2803,-0.9629,-0.3203,27.466,5.310,-20.264,-111.973,21.885,-89.912
9062,-0.2656,-1.1050,-0.2812,24.902,3.235,-23.560,-111.627,21.572,-89.852
9072,-0.2681,-1.1377,-0.2642,21.606,5.066,-16.235,-111.319,21.313,-89.835
9082,-0.3584,-0.9404,-0.2969,15.503,7.507,-2.197,-111.154,21.253,-89.901
9092,-0.4048,-0.7769,-0.3193,11.658,10.437,11.536,-111.105,21.368,-90.049
9102,-0.4502,-0.6245,-0.3574,2.625,9.827,16.602,-111.220,21.594,-90.214
9112,-0.4771,-0.5449,-0.3882,-12.207,3.601,11.780,-111.517,21.830,-90.297
9122,-0.4326,-0.5913,-0.3960,-26.367,-5.493,-1.404,-111.879,21.929,-90.236
9132,-0.3496,-0.7739,-0.3882,-35.034,-14.343,-17.883,-112.192,21.819,-90.022
9142,-0.2866,-0.9849,-0.3560,-34.729,-18.494,-28.931,-112.401,21.561,-89.720
9152,-0.2202,-1.1792,-0.3184,-23.254,-13.123,-31.433,-112.462,21.209,-89.462
9162,-0.1968,-1.2578,-0.2881,-5.615,-2.747,-22.034,-112.379,20.891,-89.341
9172,-0.2466,-1.1758,-0.2739,12.512,7.446,-4.272,-112.187,20.731,-89.396
9182,-0.3022,-0.9902,-0.2661,25.879,14.832,14.160,-111.929,20.759,-89.604
9192,-0.3647,-0.8047,-0.2847,28.809,18.860,27.039,-111.720,20.962,-89.896
9202,-0.4116,-0.6577,-0.3066,20.020,15.869,28.687,-111.654,21.253,-90.170
9212,-0.4331,-0.6011,-0.3198,1.160,7.202,20.386,-111.758,21.528,-90.319
9222,-0.4390,-0.6064,-0.3540,-23.621,-2.930,6.592,-112.077,21.703,-90.319
9232,-0.4136,-0.6978,-0.3857,-41.016,-9.521,-8.667,-112.505,21.720,-90.187
9242,-0.3745,-0.8599,-0.3984,-42.236,-9.766,-20.142,-112.879,21.572,-90.005
9252,-0.3135,-1.0073,-0.4067,-29.053,-4.089,-25.879,-113.104,21.292,-89.857
9262,-0.2603,-1.0898,-0.4033,-7.080,4.456,-22.949,-113.126,20.978,-89.808
9272,-0.2202,-1.1465,-0.3696,16.663,11.047,-11.414,-112.934,20.726,-89.868
9282,-0.2656,-1.0439,-0.3525,30.396,13.184,5.066,-112.643,20.654,-90.016
9292,-0.3193,-0.8809,-0.3525,34.485,14.404,19.470,-112.368,20.753,-90.242
9302,-0.3853,-0.7354,-0.3638,30.823,13.611,26.489,-112.187,20.989,-90.483
9312,-0.4468,-0.6382,-0.3652,21.057,8.362,22.339,-112.115,21.264,-90.654
9322,-0.4468,-0.6250,-0.3540,8.057,1.221,11.353,-112.132,21.473,-90.714
9332,-0.4077,-0.6958,-0.3423,-6.897,-6.409,-1.221,-112.214,21.544,-90.648
9342,-0.3711,-0.8022,-0.3423,-21.729,-14.038,-10.986,-112.374,21.511,-90.461
9352,-0.3223,-0.9365,-0.3330,-28.076,-17.883,-16.724,-112.533,21.390,-90.214
9362,-0.2812,-1.0308,-0.3184,-23.804,-15.930,-18.982,-112.632,21.209,-89.978
9372,-0.2690,-1.0620,-0.3169,-12.634,-8.606,-14.343,-112.643,21.039,-89.835
9382,-0.3003,-1.0029,-0.3296,2.319,0.610,-3.418,-112.571,20.951,-89.824
9392,-0.3374,-0.8994,-0.3389,18.616,9.460,7.507,-112.412,20.967,-89.951
9402,-0.3550,-0.8135,-0.3442,30.884,16.174,13.184,-112.187,21.039,-90.165
9412,-0.3813,-0.7705,-0.3403,31.433,16.052,13.916,-111.973,21.138,-90.379
9422,-0.3857,-0.7471,-0.3384,19.836,8.789,9.766,-111.846,21.237,-90.505
9432,-0.3623,-0.7749,-0.3276,3.235,-0.916,2.319,-111.824,21.281,-90.505
9442,-0.3496,-0.8350,-0.3198,-14.099,-10.437,-4.456,-111.912,21.281,-90.385
9452,-0.3252,-0.9248,-0.3145,-24.414,-16.235,-9.155,-112.050,21.226,-90.187
9462,-0.3184,-0.9658,-0.3105,-23.987,-16.113,-11.536,-112.170,21.143,-89.978
9472,-0.3218,-0.9683,-0.3169,-14.221,-9.155,-9.277,-112.225,21.055,-89.852
9482,-0.3442,-0.9150,-0.3345,0.916,1.343,-2.380,-112.198,21.011,-89.857
9492,-0.3408,-0.8677,-0.3467,16.785,11.169,4.883,-112.072,21.006,-89.984
9502,-0.3535,-0.8081,-0.3530,27.283,17.090,8.667,-111.890,21.033,-90.192
9512,-0.3726,-0.7817,-0.3584,26.245,15.808,9.705,-111.725,21.088,-90.385
9522,-0.3643,-0.8086,-0.3442,17.273,8.850,5.554,-111.610,21.121,-90.494
9532,-0.3555,-0.8423,-0.3394,3.296,-0.366,-0.854,-111.577,21.116,-90.489
9542,-0.3267,-0.9209,-0.3354,-8.423,-7.507,-5.798,-111.610,21.061,-90.390
9552,-0.2925,-1.0044,-0.3120,-11.230,-10.132,-9.949,-111.627,20.951,-90.253
9562,-0.2954,-1.0171,-0.2905,-6.592,-6.714,-8.728,-111.599,20.841,-90.148
9572,-0.3320,-0.9360,-0.2939,2.075,1.831,-0.488,-111.544,20.808,-90.165
9582,-0.3799,-0.7988,-0.3066,11.414,10.315,9.949,-111.473,20.896,-90.308
9592,-0.4043,-0.6865,-0.3218,16.968,15.503,15.320,-111.418,21.050,-90.522
9602,-0.4229,-0.6357,-0.3369,11.597,13.733,14.771,-111.440,21.231,-90.720
9612,-0.3965,-0.6904,-0.3433,-5.432,4.456,8.118,-111.566,21.352,-90.797
9623,-0.3604,-0.7935,-0.3530,-29.297,-8.362,-2.808,-111.846,21.368,-90.698
9632,-0.3315,-0.9097,-0.3735,-47.974,-18.677,-13.306,-112.242,21.286,-90.461
9642,-0.3008,-1.0225,-0.3799,-48.218,-20.264,-19.897,-112.599,21.121,-90.176
9652,-0.2788,-1.0674,-0.3877,-30.334,-13.367,-19.226,-112.797,20.923,-89.967
9662,-0.2734,-1.0620,-0.3926,-0.427,-1.221,-9.888,-112.758,20.764,-89.912
9672,-0.2925,-0.9990,-0.3652,30.518,10.559,2.869,-112.473,20.698,-90.027
9682,-0.3203,-0.9082,-0.3350,48.218,18.494,14.771,-112.055,20.737,-90.275
9692,-0.3721,-0.7725,-0.3306,44.495,19.104,23.315,-111.725,20.912,-90.555
9702,-0.4209,-0.6484,-0.3384,27.832,12.329,22.461,-111.583,21.165,-90.769
9712,-0.4331,-0.6172,-0.3340,8.057,2.625,12.268,-111.599,21.374,-90.840
9722,-0.4229,-0.6514,-0.3408,-10.986,-6.592,-2.136,-111.742,21.462,-90.769
9732,-0.3784,-0.7881,-0.3379,-21.973,-13.306,-14.771,-111.901,21.401,-90.577
9742,-0.3267,-0.9468,-0.3125,-21.973,-16.418,-23.437,-111.989,21.209,-90.319
9752,-0.2681,-1.0874,-0.2832,-14.099,-14.343,-24.231,-111.973,20.962,-90.077
9762,-0.2432,-1.1455,-0.2705,-4.333,-7.996,-15.564,-111.879,20.759,-89.934
9772,-0.2686,-1.0698,-0.2808,5.432,-0.366,-1.526,-111.747,20.676,-89.929
9782,-0.3154,-0.9312,-0.2915,16.174,7.812,12.085,-111.588,20.731,-90.049
9792,-0.3540,-0.8042,-0.3154,23.682,14.771,20.264,-111.429,20.880,-90.280
9802,-0.3911,-0.7271,-0.3281,23.376,16.541,19.958,-111.313,21.055,-90.522
9812,-0.4058,-0.6899,-0.3359,14.282,12.207,13.062,-111.281,21.198,-90.692
9822,-0.4067,-0.6953,-0.3423,0.793,5.249,4.150,-111.346,21.286,-90.764
9832,-0.3892,-0.7642,-0.3394,-14.771,-2.686,-3.357,-111.506,21.297,-90.725
9842,-0.3672,-0.8472,-0.3452,-28.198,-9.155,-9.155,-111.742,21.253,-90.593
9852,-0.3369,-0.9219,-0.3437,-30.640,-10.681,-14.160,-111.978,21.138,-90.434
9862,-0.3076,-0.9741,-0.3452,-21.912,-7.080,-16.174,-112.121,20.973,-90.297
9872,-0.2915,-0.9985,-0.3506,-7.996,-0.732,-12.268,-112.148,20.808,-90.242
9882,-0.3022,-0.9741,-0.3545,6.348,5.920,-3.845,-112.083,20.704,-90.286
9892,-0.3296,-0.9033,-0.3535,16.785,10.620,4.700,-111.951,20.687,-90.406
9902,-0.3394,-0.8379,-0.3623,19.592,12.085,9.949,-111.830,20.731,-90.566
9913,-0.3584,-0.8042,-0.3594,14.893,9.338,11.169,-111.753,20.814,-90.703
9922,-0.3848,-0.7720,-0.3506,4.517,2.869,7.751,-111.753,20.912,-90.764
9932,-0.3833,-0.7695,-0.3477,-8.240,-4.028,2.441,-111.852,20.984,-90.736
9942,-0.3730,-0.7837,-0.3516,-17.883,-9.644,-4.028,-112.011,21.006,-90.621
9952,-0.3472,-0.8486,-0.3467,-17.578,-11.169,-10.559,-112.132,20.945,-90.467
9962,-0.3184,-0.9365,-0.3218,-8.911,-9.216,-14.648,-112.137,20.819,-90.319
9972,-0.2935,-0.9829,-0.3086,0.793,-4.700,-13.611,-112.044,20.660,-90.214
9982,-0.2769,-1.0073,-0.2988,9.827,1.709,-7.629,-111.890,20.522,-90.203
9992,-0.3076,-0.9722,-0.2988,15.259,6.775,0.671,-111.714,20.468,-90.275
10002,-0.3340,-0.9053,-0.3076,15.198,9.827,7.751,-111.577,20.490,-90.401
10012,-0.3672,-0.8052,-0.3330,9.033,9.460,11.414,-111.544,20.588,-90.538
10022,-0.3877,-0.7471,-0.3423,1.709,6.042,9.949,-111.594,20.704,-90.637
10032,-0.3809,-0.7407,-0.3477,-5.981,0.549,4.272,-111.698,20.781,-90.659
10042,-0.3794,-0.7544,-0.3599,-13.794,-4.761,-2.747,-111.852,20.814,-90.604
10052,-0.3516,-0.8257,-0.3613,-14.648,-6.592,-9.155,-111.978,20.759,-90.500
10062,-0.3140,-0.9282,-0.3442,-8.789,-5.188,-12.695,-112.011,20.627,-90.396
10072,-0.2861,-1.0000,-0.3291,-2.014,-2.380,-12.451,-111.967,20.468,-90.324
10082,-0.2744,-1.0215,-0.3164,2.808,1.526,-7.019,-111.890,20.336,-90.313
10092,-0.2891,-0.9888,-0.3086,4.395,4.700,1.587,-111.819,20.286,-90.363
10102,-0.3374,-0.8921,-0.3184,2.136,7.080,9.460,-111.813,20.341,-90.472
10112,-0.3613,-0.8027,-0.3374,-0.122,9.888,13.428,-111.874,20.451,-90.621
10123,-0.3784,-0.7598,-0.3525,-1.770,10.071,11.963,-111.973,20.561,-90.769
10132,-0.3882,-0.7524,-0.3550,-3.479,7.751,6.165,-112.077,20.632,-90.873
10142,-0.3765,-0.7793,-0.3628,-6.409,4.333,0.183,-112.181,20.649,-90.917
10152,-0.3511,-0.8286,-0.3682,-9.766,0.183,-3.967,-112.291,20.616,-90.901
10162,-0.3267,-0.8828,-0.3662,-11.902,-3.723,-6.470,-112.390,20.555,-90.840
10172,-0.3022,-0.9443,-0.3525,-11.292,-5.188,-7.080,-112.456,20.473,-90.758
10182,-0.2988,-0.9590,-0.3442,-8.850,-4.883,-5.005,-112.495,20.402,-90.692
10192,-0.3271,-0.9004,-0.3403,-5.615,-2.502,-0.488,-112.522,20.391,-90.665
10202,-0.3486,-0.8276,-0.3394,-0.977,2.014,4.211,-112.538,20.429,-90.698
10212,-0.3638,-0.7861,-0.3437,3.662,5.981,6.592,-112.544,20.495,-90.786
10222,-0.3535,-0.8228,-0.3359,6.348,7.812,5.127,-112.511,20.522,-90.884
10232,-0.3306,-0.8799,-0.3179,3.784,5.188,0.366,-112.467,20.495,-90.939
10242,-0.3052,-0.9492,-0.3062,-3.540,0.244,-3.174,-112.451,20.429,-90.928
10252,-0.2793,-1.0142,-0.3042,-10.986,-3.418,-3.479,-112.489,20.358,-90.879
10262,-0.2891,-1.0059,-0.3179,-15.259,-4.700,-1.160,-112.571,20.314,-90.829
10272,-0.3228,-0.9263,-0.3389,-12.085,-2.075,2.869,-112.665,20.325,-90.818
10282,-0.3447,-0.8462,-0.3535,-2.197,3.418,7.324,-112.709,20.380,-90.884
10292,-0.3682,-0.7715,-0.3672,7.385,7.812,9.644,-112.703,20.468,-91.000
10302,-0.3960,-0.7119,-0.3818,12.817,10.315,9.094,-112.676,20.572,-91.137
10312,-0.3813,-0.7314,-0.3765,13.000,10.864,5.981,-112.643,20.627,-91.269
10322,-0.3613,-0.7808,-0.3628,4.944,7.141,0.671,-112.637,20.627,-91.340
10332,-0.3418,-0.8491,-0.3550,-6.775,1.038,-4.517,-112.703,20.577,-91.335
10342,-0.3174,-0.9243,-0.3496,-14.709,-3.723,-7.324,-112.808,20.500,-91.269
10352,-0.3003,-0.9775,-0.3447,-16.357,-5.493,-7.324,-112.906,20.407,-91.181
10362,-0.3032,-0.9800,-0.3442,-12.695,-4.150,-4.333,-112.978,20.347,-91.126
10372,-0.3081,-0.9590,-0.3457,-4.517,-0.183,0.549,-112.989,20.314,-91.126
10382,-0.3276,-0.8960,-0.3564,5.005,4.517,5.737,-112.950,20.336,-91.192
10392,-0.3613,-0.8159,-0.3623,12.268,8.545,9.216,-112.879,20.402,-91.313
10402,-0.3716,-0.7646,-0.3691,14.771,10.864,10.437,-112.813,20.490,-91.467
10412,-0.3745,-0.7407,-0.3774,11.475,9.277,7.996,-112.786,20.561,-91.588
10422,-0.3735,-0.7534,-0.3750,4.883,4.822,2.502,-112.797,20.599,-91.648
10432,-0.3623,-0.8018,-0.3647,-3.113,-0.366,-3.601,-112.835,20.588,-91.631
10442,-0.3423,-0.8638,-0.3560,-10.010,-4.883,-7.874,-112.901,20.528,-91.549
10452,-0.3267,-0.9160,-0.3486,-13.428,-7.080,-8.911,-112.978,20.457,-91.445
10462,-0.3135,-0.9468,-0.3418,-13.611,-6.653,-7.507,-113.049,20.380,-91.346
10472,-0.3066,-0.9390,-0.3442,-11.780,-3.906,-4.456,-113.115,20.319,-91.291
10482,-0.3130,-0.9126,-0.3496,-8.545,-0.366,-0.854,-113.176,20.292,-91.280
10492,-0.3267,-0.8784,-0.3521,-5.249,2.258,1.831,-113.225,20.286,-91.313
10502,-0.3457,-0.8394,-0.3574,-3.906,3.723,2.686,-113.280,20.297,-91.357
10512,-0.3555,-0.8101,-0.3623,-4.395,4.150,1.953,-113.346,20.314,-91.406
10522,-0.3613,-0.8096,-0.3662,-6.409,3.784,0.183,-113.434,20.319,-91.445
10532,-0.3594,-0.8130,-0.3706,-9.888,3.052,-2.380,-113.549,20.303,-91.467
10542,-0.3574,-0.8154,-0.3726,-13.062,2.625,-5.005,-113.687,20.264,-91.472
10552,-0.3521,-0.8223,-0.3813,-14.954,2.747,-7.141,-113.846,20.198,-91.467
10562,-0.3486,-0.8154,-0.3936,-15.442,2.686,-8.423,-114.016,20.116,-91.456
10572,-0.3481,-0.8154,-0.4160,-13.000,3.113,-8.850,-114.170,20.034,-91.450
10582,-0.3350,-0.8149,-0.4355,-6.042,4.456,-8.545,-114.274,19.935,-91.456
10592,-0.3184,-0.8438,-0.4536,4.822,5.127,-6.348,-114.274,19.841,-91.478
10602,-0.2969,-0.8931,-0.4565,15.686,4.639,-1.770,-114.159,19.775,-91.511
10612,-0.2808,-0.9502,-0.4390,24.780,2.991,3.662,-113.934,19.748,-91.560
10623,-0.2700,-1.0015,-0.4067,28.992,0.671,10.071,-113.648,19.781,-91.609
10632,-0.2725,-1.0137,-0.3799,28.076,-1.892,16.174,-113.351,19.874,-91.659
10642,-0.2842,-0.9839,-0.3535,25.635,-3.479,21.729,-113.082,20.039,-91.714
10652,-0.3125,-0.9111,-0.3423,22.583,-3.967,26.550,-112.857,20.275,-91.785
10662,-0.3672,-0.8252,-0.3354,20.142,-3.723,27.893,-112.681,20.566,-91.868
10672,-0.4072,-0.7295,-0.3350,17.395,-5.005,22.705,-112.544,20.858,-91.912
10682,-0.4189,-0.6758,-0.3301,15.381,-7.507,13.000,-112.418,21.083,-91.890
10692,-0.4072,-0.6899,-0.3169,13.306,-10.681,0.671,-112.269,21.204,-91.785
10702,-0.3911,-0.7246,-0.3052,9.094,-15.442,-10.803,-112.115,21.215,-91.588
10712,-0.3638,-0.8091,-0.2764,4.517,-18.799,-18.311,-111.945,21.138,-91.329
10722,-0.3281,-0.8984,-0.2476,0.183,-18.860,-20.508,-111.780,21.000,-91.060
10732,-0.2871,-1.0083,-0.2227,-2.563,-13.550,-18.616,-111.643,20.825,-90.851
10742,-0.2822,-1.0601,-0.2173,-6.531,-6.470,-13.245,-111.566,20.665,-90.736
10752,-0.2856,-1.0405,-0.2300,-9.155,0.122,-5.920,-111.555,20.550,-90.714
10762,-0.2949,-0.9873,-0.2559,-7.263,5.371,2.808,-111.577,20.511,-90.775
10772,-0.3262,-0.9058,-0.2886,-2.258,7.751,9.705,-111.605,20.561,-90.890
10782,-0.3579,-0.8257,-0.3125,2.686,7.263,12.695,-111.610,20.665,-91.011
10792,-0.3721,-0.7886,-0.3340,3.357,3.784,11.719,-111.621,20.786,-91.099
10802,-0.3701,-0.7656,-0.3574,-0.854,-2.869,7.019,-111.660,20.891,-91.099
10812,-0.3540,-0.7988,-0.3667,-5.981,-8.728,0.000,-111.720,20.934,-91.011
10822,-0.3418,-0.8687,-0.3853,-11.719,-10.315,-5.371,-111.813,20.912,-90.884
10832,-0.3247,-0.9443,-0.3901,-15.930,-7.629,-7.446,-111.940,20.836,-90.780
10842,-0.3096,-0.9951,-0.3916,-16.418,-2.075,-6.287,-112.083,20.742,-90.736
10852,-0.3101,-0.9902,-0.3965,-13.794,3.906,-0.732,-112.231,20.671,-90.769
10862,-0.3535,-0.8872,-0.4175,-8.667,7.263,7.996,-112.379,20.709,-90.873
10872,-0.4141,-0.7417,-0.4355,0.000,7.690,14.771,-112.511,20.869,-91.011
10882,-0.4346,-0.6548,-0.4463,9.827,5.737,14.099,-112.571,21.055,-91.126
10892,-0.3965,-0.6616,-0.4341,17.517,-0.366,6.714,-112.511,21.171,-91.148
10902,-0.3442,-0.7622,-0.3926,19.165,-10.132,-2.014,-112.330,21.198,-91.038
10912,-0.3120,-0.8999,-0.3315,12.268,-20.630,-8.179,-112.104,21.171,-90.802
10922,-0.2881,-1.0107,-0.2749,0.183,-25.757,-9.827,-111.929,21.116,-90.505
10932,-0.2793,-1.0728,-0.2510,-9.766,-21.545,-6.348,-111.852,21.072,-90.269
10942,-0.2959,-1.0708,-0.2476,-12.451,-10.620,-0.183,-111.846,21.050,-90.159
10952,-0.3228,-0.9893,-0.2549,-5.981,1.038,6.226,-111.846,21.066,-90.198
10962,-0.3691,-0.8716,-0.2798,5.127,8.850,13.489,-111.802,21.165,-90.335
10972,-0.4004,-0.7534,-0.3057,16.724,13.062,17.029,-111.714,21.324,-90.533
10983,-0.4258,-0.6626,-0.3271,23.315,12.939,15.503,-111.594,21.506,-90.725
10993,-0.4272,-0.6421,-0.3442,22.766,9.827,11.169,-111.489,21.660,-90.868
11002,-0.4175,-0.6841,-0.3550,13.367,3.784,4.150,-111.434,21.753,-90.923
11012,-0.4082,-0.7461,-0.3691,-2.747,-2.747,-4.150,-111.495,21.769,-90.879
11023,-0.3701,-0.8408,-0.3760,-18.616,-7.996,-11.414,-111.660,21.693,-90.753
11033,-0.3228,-0.9434,-0.3760,-28.259,-11.841,-15.808,-111.874,21.550,-90.571
11043,-0.2944,-1.0054,-0.3638,-28.381,-12.756,-15.564,-112.066,21.396,-90.385
11052,-0.2905,-1.0322,-0.3462,-19.226,-8.850,-10.681,-112.170,21.264,-90.253
11063,-0.3062,-1.0010,-0.3428,-5.798,-2.136,-2.686,-112.187,21.198,-90.220
11073,-0.3335,-0.9233,-0.3486,8.362,4.272,5.005,-112.110,21.204,-90.280
11083,-0.3584,-0.8408,-0.3501,19.897,8.850,9.094,-111.962,21.253,-90.406
11093,-0.3687,-0.7988,-0.3506,25.330,9.094,9.644,-111.775,21.324,-90.538
11103,-0.3765,-0.7905,-0.3423,22.644,5.310,7.568,-111.599,21.401,-90.621
11113,-0.3857,-0.7861,-0.3408,12.634,-0.977,4.578,-111.495,21.473,-90.626
11123,-0.3730,-0.8140,-0.3403,1.099,-7.202,0.244,-111.467,21.517,-90.555
11132,-0.3486,-0.8657,-0.3257,-7.202,-11.047,-4.333,-111.484,21.506,-90.428
11143,-0.3569,-0.8975,-0.3130,-11.902,-10.864,-5.920,-111.533,21.484,-90.297
11153,-0.3604,-0.8945,-0.3101,-12.207,-6.104,-4.395,-111.599,21.456,-90.220
11163,-0.3569,-0.8574,-0.3188,-8.240,-0.244,-2.075,-111.665,21.440,-90.209
11173,-0.3701,-0.8330,-0.3330,-1.160,3.479,0.366,-111.693,21.440,-90.242
11183,-0.3589,-0.8311,-0.3491,6.653,4.761,1.038,-111.654,21.434,-90.297
11193,-0.3418,-0.8511,-0.3701,10.864,3.723,1.038,-111.583,21.418,-90.335
11203,-0.3105,-0.8999,-0.3848,11.658,1.160,0.732,-111.489,21.385,-90.352
11213,-0.3193,-0.9443,-0.3652,9.583,-3.662,0.122,-111.379,21.357,-90.313
11223,-0.3423,-0.9644,-0.3374,5.981,-7.996,1.038,-111.270,21.368,-90.242
11232,-0.3589,-0.9189,-0.3154,2.808,-9.338,2.930,-111.187,21.418,-90.159
11243,-0.3794,-0.8447,-0.3027,1.770,-8.301,5.249,-111.132,21.511,-90.093
11253,-0.3901,-0.7983,-0.2812,3.540,-5.859,5.493,-111.066,21.616,-90.055
11263,-0.3994,-0.7695,-0.2681,3.967,-3.662,3.662,-111.000,21.709,-90.033
11273,-0.3877,-0.7573,-0.2627,2.747,-2.441,1.160,-110.945,21.769,-90.016
11283,-0.3589,-0.8096,-0.2666,0.854,-1.770,-1.648,-110.901,21.769,-89.989
11293,-0.3232,-0.8906,-0.2803,-1.953,-1.953,-4.211,-110.874,21.709,-89.956
11303,-0.3086,-0.9863,-0.2891,-4.944,-2.747,-4.028,-110.863,21.632,-89.912
11313,-0.3101,-1.0366,-0.3037,-7.202,-2.136,-1.282,-110.880,21.572,-89.885
11323,-0.3530,-0.9824,-0.3394,-8.118,-0.671,3.113,-110.945,21.577,-89.890
11333,-0.3882,-0.8628,-0.3652,-4.822,1.831,7.202,-111.028,21.643,-89.934
11343,-0.4058,-0.7705,-0.3818,1.465,4.700,9.155,-111.099,21.747,-90.016
11353,-0.4214,-0.7148,-0.3848,6.592,6.042,7.385,-111.138,21.852,-90.110
11363,-0.4067,-0.7183,-0.3711,8.423,5.615,2.563,-111.138,21.907,-90.176
11373,-0.3638,-0.7891,-0.3452,5.432,3.296,-2.869,-111.116,21.879,-90.198
11383,-0.3208,-0.8916,-0.3218,-1.831,-0.122,-6.592,-111.116,21.786,-90.170
11393,-0.3037,-0.9824,-0.2920,-8.545,-2.686,-7.629,-111.132,21.671,-90.115
11403,-0.3379,-0.9907,-0.2798,-12.146,-2.991,-5.188,-111.182,21.599,-90.066
11413,-0.3564,-0.9434,-0.2866,-10.437,-0.610,0.122,-111.237,21.583,-90.055
11423,-0.3745,-0.8496,-0.2988,-4.333,1.709,4.944,-111.275,21.632,-90.093
11433,-0.3931,-0.7759,-0.3027,2.625,3.052,7.141,-111.270,21.725,-90.154
11443,-0.3857,-0.7549,-0.3062,6.287,3.906,5.920,-111.242,21.802,-90.214
11453,-0.3604,-0.8154,-0.2896,5.493,3.174,2.014,-111.182,21.819,-90.253
11463,-0.3301,-0.9043,-0.2856,-1.221,1.526,-1.648,-111.165,21.769,-90.264
11473,-0.3047,-0.9834,-0.2803,-10.437,0.732,-3.113,-111.209,21.687,-90.258
11483,-0.3257,-0.9795,-0.2910,-17.639,1.160,-1.404,-111.341,21.632,-90.264
11493,-0.3804,-0.8901,-0.3320,-19.043,3.784,2.258,-111.539,21.638,-90.313
11503,-0.4023,-0.7861,-0.3711,-11.536,8.423,5.310,-111.731,21.687,-90.417
11513,-0.4238,-0.7070,-0.3940,-0.916,11.414,5.432,-111.863,21.758,-90.555
11523,-0.4448,-0.6562,-0.4048,6.165,11.536,2.258,-111.945,21.819,-90.676
11533,-0.4224,-0.6831,-0.4009,7.690,9.521,-2.258,-111.984,21.824,-90.764
11543,-0.3569,-0.7993,-0.3813,2.502,4.639,-7.812,-112.000,21.736,-90.780
11553,-0.2974,-0.9438,-0.3589,-7.629,-1.953,-12.634,-112.039,21.577,-90.709
11563,-0.2642,-1.0757,-0.3369,-15.259,-6.348,-13.245,-112.099,21.390,-90.593
11573,-0.2690,-1.1191,-0.3242,-16.357,-7.080,-9.094,-112.165,21.253,-90.483
11583,-0.2852,-1.0728,-0.3271,-10.071,-3.418,-0.732,-112.198,21.187,-90.445
11593,-0.3423,-0.9399,-0.3374,2.075,2.258,8.789,-112.176,21.237,-90.505
11603,-0.3970,-0.7905,-0.3555,15.381,7.812,15.198,-112.094,21.379,-90.643
11613,-0.4048,-0.6987,-0.3594,23.987,11.108,15.869,-111.967,21.544,-90.818
11623,-0.4229,-0.6587,-0.3608,22.400,8.423,11.108,-111.863,21.693,-90.945
11633,-0.4219,-0.6821,-0.3555,12.207,1.953,3.723,-111.808,21.791,-90.983
11643,-0.3960,-0.7607,-0.3550,-0.854,-4.639,-4.395,-111.824,21.802,-90.917
11653,-0.3618,-0.8618,-0.3550,-11.780,-9.583,-10.376,-111.896,21.736,-90.780
11663,-0.3262,-0.9648,-0.3374,-16.113,-10.559,-12.939,-111.973,21.616,-90.621
11673,-0.2969,-1.0337,-0.3247,-14.221,-7.263,-11.780,-112.028,21.473,-90.505
11683,-0.2866,-1.0518,-0.3213,-8.240,-2.014,-6.592,-112.039,21.352,-90.456
11693,-0.3105,-0.9907,-0.3198,-1.038,2.625,1.465,-112.022,21.308,-90.489
11703,-0.3555,-0.8726,-0.3267,5.859,5.859,8.545,-111.978,21.357,-90.582
11713,-0.3818,-0.7725,-0.3389,10.864,7.812,11.475,-111.934,21.467,-90.703
11723,-0.4062,-0.7012,-0.3481,11.658,6.592,9.888,-111.901,21.594,-90.813
11733,-0.4253,-0.6870,-0.3486,9.155,2.625,5.005,-111.879,21.703,-90.857
11743,-0.3999,-0.7432,-0.3511,3.723,-1.831,-1.526,-111.868,21.736,-90.829
11753,-0.3647,-0.8252,-0.3501,-3.906,-6.165,-7.629,-111.885,21.693,-90.742
11763,-0.3325,-0.9185,-0.3408,-9.827,-8.667,-10.376,-111.918,21.599,-90.610
11773,-0.3145,-0.9902,-0.3306,-12.573,-8.423,-9.705,-111.962,21.495,-90.489
11783,-0.3042,-0.9956,-0.3296,-11.536,-5.737,-6.775,-112.011,21.401,-90.406
11793,-0.3218,-0.9507,-0.3296,-5.127,-1.587,-1.404,-112.022,21.357,-90.385
11803,-0.3574,-0.8765,-0.3350,3.906,2.441,4.150,-111.989,21.379,-90.423
11813,-0.3809,-0.7993,-0.3394,11.963,5.554,6.287,-111.907,21.440,-90.505
11823,-0.3877,-0.7700,-0.3384,16.113,7.324,5.127,-111.802,21.495,-90.599
11833,-0.3921,-0.7632,-0.3433,14.404,6.348,1.648,-111.709,21.522,-90.670
11843,-0.3809,-0.7939,-0.3428,7.446,2.441,-2.258,-111.660,21.517,-90.681
11853,-0.3516,-0.8481,-0.3442,-1.648,-2.380,-5.676,-111.660,21.467,-90.637
11863,-0.3320,-0.9014,-0.3354,-7.690,-5.676,-7.812,-111.693,21.390,-90.549
11873,-0.3218,-0.9502,-0.3242,-9.094,-5.920,-7.324,-111.720,21.308,-90.461
11883,-0.3096,-0.9800,-0.3130,-6.042,-3.235,-4.700,-111.725,21.231,-90.412
11893,-0.3188,-0.9595,-0.3140,-1.404,-0.061,0.061,-111.703,21.198,-90.412
11903,-0.3389,-0.9077,-0.3091,3.662,2.686,5.371,-111.654,21.220,-90.456
11914,-0.3750,-0.8286,-0.3149,6.409,3.967,8.484,-111.610,21.297,-90.533
11923,-0.3945,-0.7676,-0.3281,6.531,3.967,7.996,-111.583,21.396,-90.604
11933,-0.3970,-0.7529,-0.3379,5.249,3.174,4.639,-111.577,21.473,-90.654
11943,-0.3975,-0.7686,-0.3511,1.526,0.916,-0.427,-111.594,21.500,-90.659
11953,-0.3672,-0.8223,-0.3574,-2.380,-1.770,-5.371,-111.621,21.467,-90.621
11963,-0.3398,-0.8843,-0.3599,-5.371,-4.639,-7.751,-111.654,21.396,-90.544
11973,-0.3179,-0.9438,-0.3496,-5.554,-5.798,-7.935,-111.660,21.302,-90.456
11983,-0.3057,-0.9819,-0.3364,-3.540,-4.211,-5.981,-111.643,21.215,-90.390
11993,-0.3188,-0.9570,-0.3257,-0.549,-1.221,-1.587,-111.616,21.165,-90.368
12003,-0.3467,-0.8979,-0.3232,2.930,1.953,4.028,-111.583,21.187,-90.406
12013,-0.3647,-0.8398,-0.3232,5.737,4.333,7.385,-111.544,21.248,-90.478
12023,-0.3872,-0.7773,-0.3384,6.470,4.944,7.202,-111.528,21.330,-90.555
12033,-0.4067,-0.7573,-0.3398,6.226,4.150,5.005,-111.517,21.407,-90.615
12043,-0.3955,-0.7749,-0.3408,4.578,1.892,0.854,-111.500,21.445,-90.637
12053,-0.3530,-0.8271,-0.3335,1.160,-1.465,-3.967,-111.484,21.412,-90.610
12063,-0.3354,-0.8828,-0.3257,-3.906,-5.554,-6.714,-111.478,21.352,-90.527
12073,-0.3223,-0.9458,-0.3149,-7.446,-7.568,-6.653,-111.484,21.286,-90.423
12083,-0.3115,-0.9683,-0.3091,-8.240,-6.287,-4.639,-111.500,21.226,-90.346
12093,-0.3213,-0.9492,-0.3076,-5.859,-2.441,-0.977,-111.511,21.193,-90.319
12103,-0.3516,-0.8911,-0.3140,-1.343,2.502,3.357,-111.517,21.204,-90.352
12113,-0.3774,-0.8218,-0.3242,3.601,6.958,5.676,-111.517,21.248,-90.445
12123,-0.3818,-0.7852,-0.3369,6.897,9.399,5.127,-111.506,21.292,-90.560
12133,-0.3789,-0.7832,-0.3423,6.836,8.484,2.136,-111.495,21.308,-90.654
12143,-0.3799,-0.8047,-0.3467,2.319,4.944,-1.099,-111.506,21.302,-90.698
12153,-0.3618,-0.8418,-0.3496,-3.418,0.732,-3.723,-111.544,21.264,-90.692
12163,-0.3369,-0.8828,-0.3442,-8.606,-3.479,-5.554,-111.610,21.209,-90.632
12173,-0.3174,-0.9272,-0.3325,-12.024,-6.653,-5.615,-111.676,21.149,-90.544
12183,-0.3047,-0.9697,-0.3052,-15.259,-8.911,-3.052,-111.747,21.110,-90.445
12193,-0.3320,-0.9302,-0.2964,-21.118,-10.559,1.587,-111.885,21.138,-90.346
12203,-0.3608,-0.8467,-0.3145,-23.560,-8.789,5.188,-112.077,21.226,-90.280
12213,-0.3823,-0.7852,-0.3311,-18.982,-3.662,5.920,-112.269,21.324,-90.269
12223,-0.3936,-0.7588,-0.3535,-9.888,2.014,3.479,-112.407,21.385,-90.302
12233,-0.4009,-0.7676,-0.3677,-0.427,6.958,-0.122,-112.467,21.396,-90.368
12243,-0.3843,-0.7983,-0.3911,5.615,9.827,-4.089,-112.478,21.341,-90.450
12253,-0.3325,-0.8726,-0.3994,9.216,9.155,-7.690,-112.429,21.215,-90.511
12263,-0.3110,-0.9526,-0.3892,8.789,4.822,-8.057,-112.341,21.083,-90.522
12273,-0.3086,-0.9897,-0.3760,5.920,0.305,-5.371,-112.264,20.984,-90.505
12283,-0.3101,-0.9795,-0.3677,2.808,-1.892,-1.221,-112.209,20.934,-90.483
12293,-0.3325,-0.9111,-0.3657,0.916,-2.258,2.625,-112.192,20.945,-90.472
12303,-0.3516,-0.8491,-0.3604,3.235,-0.732,4.761,-112.170,20.989,-90.483
12313,-0.3726,-0.7979,-0.3564,5.798,0.000,5.127,-112.143,21.055,-90.505
12323,-0.3789,-0.7769,-0.3535,6.653,-0.244,4.089,-112.104,21.127,-90.516
12333,-0.3721,-0.7974,-0.3462,5.615,-1.465,2.075,-112.061,21.171,-90.511
12343,-0.3652,-0.8281,-0.3384,3.296,-3.174,-0.427,-112.017,21.187,-90.478
12353,-0.3452,-0.8818,-0.3218,1.526,-4.211,-2.258,-111.962,21.171,-90.428
12363,-0.3193,-0.9375,-0.3071,0.061,-4.578,-2.563,-111.907,21.132,-90.368
12373,-0.3125,-0.9663,-0.2920,-1.709,-3.906,-0.977,-111.857,21.099,-90.330
12383,-0.3311,-0.9390,-0.2910,-2.747,-2.136,2.075,-111.830,21.099,-90.313
12393,-0.3525,-0.8740,-0.3032,-1.587,0.427,5.127,-111.830,21.143,-90.341
12403,-0.3711,-0.8081,-0.3159,1.709,3.296,6.348,-111.830,21.209,-90.396
12413,-0.3901,-0.7637,-0.3301,4.822,5.554,5.371,-111.824,21.281,-90.472
12423,-0.3896,-0.7661,-0.3423,5.737,6.348,2.808,-111.819,21.319,-90.549
12433,-0.3711,-0.8052,-0.3457,2.930,4.456,-0.916,-111.819,21.308,-90.588
12443,-0.3560,-0.8555,-0.3462,-2.869,0.244,-3.723,-111.841,21.275,-90.577
12453,-0.3511,-0.8906,-0.3481,-8.240,-3.662,-4.883,-111.901,21.231,-90.522
12463,-0.3418,-0.9014,-0.3452,-9.827,-5.188,-4.944,-111.962,21.187,-90.450
12473,-0.3437,-0.8970,-0.3408,-7.263,-3.967,-3.967,-112.000,21.149,-90.396
12483,-0.3521,-0.8711,-0.3418,-2.808,-0.916,-2.197,-112.017,21.127,-90.379
12493,-0.3521,-0.8521,-0.3477,1.709,2.808,-0.732,-112.011,21.110,-90.401
12503,-0.3550,-0.8276,-0.3555,3.967,4.456,-0.305,-112.000,21.094,-90.445
12513,-0.3574,-0.8174,-0.3574,4.028,4.150,-0.793,-111.989,21.077,-90.483
12523,-0.3481,-0.8501,-0.3491,2.747,2.502,-1.953,-111.973,21.050,-90.500
12533,-0.3374,-0.8862,-0.3477,-0.793,-0.183,-2.991,-111.967,21.006,-90.483
12543,-0.3247,-0.9321,-0.3359,-4.028,-2.319,-2.686,-111.973,20.962,-90.450
12553,-0.3140,-0.9590,-0.3242,-5.615,-2.808,-1.343,-111.984,20.923,-90.417
12563,-0.3154,-0.9639,-0.3101,-4.700,-1.038,0.854,-111.989,20.896,-90.412
12573,-0.3433,-0.9082,-0.3140,-1.587,2.686,4.333,-111.989,20.912,-90.456
12583,-0.3706,-0.8330,-0.3218,3.479,6.653,7.751,-111.984,20.978,-90.555
12593,-0.3833,-0.7607,-0.3354,8.118,9.338,8.179,-111.962,21.055,-90.681
12603,-0.3872,-0.7363,-0.3423,10.132,9.521,5.554,-111.934,21.116,-90.797
12613,-0.3774,-0.7710,-0.3398,7.812,7.568,1.465,-111.907,21.132,-90.879
12624,-0.3687,-0.8086,-0.3442,-0.610,3.540,-2.747,-111.929,21.110,-90.901
12633,-0.3574,-0.8481,-0.3584,-10.315,-0.610,-5.127,-112.033,21.066,-90.873
12643,-0.3335,-0.8979,-0.3677,-16.113,-3.296,-5.859,-112.176,21.006,-90.818
12653,-0.3320,-0.9141,-0.3740,-15.930,-3.906,-5.981,-112.313,20.940,-90.753
12663,-0.3398,-0.9238,-0.3711,-9.644,-1.648,-4.089,-112.390,20.885,-90.720
12673,-0.3271,-0.9312,-0.3701,-1.709,1.770,-1.221,-112.407,20.841,-90.736
12683,-0.3105,-0.9409,-0.3608,4.944,4.150,1.221,-112.357,20.797,-90.780
12693,-0.3359,-0.9014,-0.3525,7.263,4.333,4.089,-112.297,20.803,-90.840
12703,-0.3481,-0.8569,-0.3467,6.348,3.845,6.348,-112.253,20.847,-90.906
12713,-0.3257,-0.8555,-0.3325,2.686,1.465,6.653,-112.231,20.891,-90.945
12723,-0.3154,-0.8994,-0.3027,-5.859,-4.578,6.226,-112.247,20.940,-90.923
12733,-0.3306,-0.9214,-0.2871,-21.179,-12.512,7.507,-112.374,21.033,-90.829
12743,-0.3662,-0.8687,-0.2988,-36.865,-18.005,9.277,-112.654,21.193,-90.692
12753,-0.4136,-0.7676,-0.3364,-40.466,-16.052,8.972,-113.022,21.385,-90.571
12763,-0.4312,-0.7236,-0.3599,-27.039,-6.348,7.019,-113.313,21.544,-90.538
12773,-0.4155,-0.7358,-0.3735,-7.080,4.822,2.930,-113.439,21.605,-90.599
12783,-0.4009,-0.7490,-0.3857,7.629,13.428,-0.977,-113.450,21.577,-90.725
12793,-0.3643,-0.8008,-0.3833,15.442,17.212,-3.845,-113.373,21.484,-90.879
12803,-0.3115,-0.8926,-0.3652,14.099,15.015,-5.127,-113.269,21.341,-91.005
12813,-0.3022,-0.9385,-0.3672,2.441,6.836,-5.127,-113.242,21.220,-91.049
12823,-0.3188,-0.9556,-0.3750,-10.376,0.000,-3.357,-113.318,21.154,-91.038
12833,-0.3652,-0.8833,-0.4058,-18.005,-3.540,-0.671,-113.500,21.154,-91.000
12843,-0.3799,-0.8174,-0.4321,-14.465,-2.808,0.916,-113.676,21.187,-90.972
12853,-0.3730,-0.8013,-0.4307,-3.357,-0.183,-0.183,-113.758,21.198,-90.972
12863,-0.3784,-0.8003,-0.4253,5.493,1.526,-1.709,-113.747,21.187,-90.978
12873,-0.3516,-0.8301,-0.4121,11.475,2.563,-3.174,-113.665,21.149,-90.989
12883,-0.3218,-0.8882,-0.3872,13.306,1.770,-4.028,-113.533,21.077,-90.989
12893,-0.2783,-0.9829,-0.3501,11.658,-0.671,-3.052,-113.368,20.989,-90.972
12903,-0.2832,-1.0098,-0.3281,5.920,-3.784,0.671,-113.242,20.951,-90.939
12913,-0.3062,-0.9795,-0.3164,1.831,-4.822,5.615,-113.165,20.973,-90.912
12923,-0.3535,-0.8911,-0.3169,2.014,-3.235,10.376,-113.115,21.077,-90.923
12933,-0.4150,-0.7666,-0.3257,4.517,-0.183,13.123,-113.088,21.253,-90.978
12943,-0.4175,-0.6929,-0.3389,7.629,3.479,11.902,-113.071,21.418,-91.060
12953,-0.4155,-0.6812,-0.3477,8.606,4.578,6.653,-113.049,21.533,-91.137
12963,-0.3813,-0.7661,-0.3335,6.592,3.174,0.000,-113.000,21.550,-91.165
12973,-0.3325,-0.8882,-0.3247,-0.244,0.366,-4.700,-112.967,21.484,-91.154
12983,-0.3027,-0.9844,-0.3296,-7.568,-1.343,-5.615,-112.989,21.385,-91.115
12993,-0.2808,-1.0430,-0.3364,-9.827,-0.061,-2.808,-113.027,21.292,-91.104
13003,-0.3364,-0.9727,-0.3501,-6.653,2.808,3.418,-113.077,21.275,-91.143
13013,-0.3872,-0.8408,-0.3696,1.343,7.690,10.986,-113.115,21.363,-91.263
13023,-0.4282,-0.6831,-0.3970,9.460,11.719,14.282,-113.154,21.517,-91.445
13033,-0.4858,-0.5308,-0.4253,14.099,12.268,11.780,-113.231,21.720,-91.615
13043,-0.5249,-0.4370,-0.4268,14.893,9.460,4.456,-113.335,21.912,-91.725
13053,-0.4502,-0.5630,-0.4077,7.690,2.747,-6.653,-113.384,21.951,-91.725
13063,-0.3242,-0.7939,-0.3799,-8.911,-8.057,-20.996,-113.434,21.775,-91.555
13073,-0.2607,-1.0259,-0.3437,-27.283,-19.104,-30.945,-113.538,21.489,-91.236
13083,-0.2334,-1.1953,-0.3110,-36.682,-22.217,-30.518,-113.681,21.187,-90.884
13093,-0.2065,-1.2632,-0.3179,-31.677,-15.076,-20.325,-113.818,20.945,-90.648
13103,-0.2441,-1.1606,-0.3257,-12.573,-3.235,-4.761,-113.840,20.819,-90.593
13113,-0.3315,-0.9619,-0.3394,12.207,8.240,10.437,-113.719,20.852,-90.720
13124,-0.3647,-0.7935,-0.3496,31.555,16.418,19.104,-113.494,20.978,-90.967
13133,-0.3711,-0.7427,-0.3486,34.790,16.235,20.142,-113.253,21.132,-91.208
13143,-0.3965,-0.6846,-0.3506,19.653,7.080,14.404,-113.143,21.297,-91.340
13153,-0.3960,-0.7026,-0.3516,-3.357,-3.418,6.104,-113.209,21.418,-91.335
13163,-0.3779,-0.7852,-0.3545,-25.085,-11.292,-1.099,-113.428,21.478,-91.214
13173,-0.3745,-0.8442,-0.3804,-37.781,-14.465,-6.042,-113.747,21.484,-91.049
13183,-0.3604,-0.8950,-0.3984,-33.630,-10.254,-8.606,-114.033,21.434,-90.912
13193,-0.3398,-0.9243,-0.4121,-18.494,-2.197,-7.141,-114.197,21.352,-90.857
13203,-0.3354,-0.9170,-0.4219,-0.244,5.676,-2.869,-114.219,21.270,-90.901
13213,-0.3496,-0.8608,-0.4312,14.893,11.169,1.892,-114.137,21.231,-91.016
13223,-0.3569,-0.8071,-0.4321,24.353,12.878,4.517,-113.989,21.220,-91.165
13233,-0.3682,-0.7744,-0.4209,25.452,10.071,4.700,-113.824,21.237,-91.285
13243,-0.3804,-0.7725,-0.4019,19.043,3.662,2.136,-113.692,21.264,-91.329
13253,-0.3818,-0.7891,-0.3896,8.911,-3.723,-2.014,-113.610,21.281,-91.285
13263,-0.3599,-0.8472,-0.3745,-1.038,-9.399,-5.859,-113.582,21.264,-91.165
13273,-0.3398,-0.8940,-0.3633,-7.751,-12.451,-7.812,-113.588,21.226,-91.011
13283,-0.3149,-0.9390,-0.3442,-8.179,-12.146,-7.324,-113.582,21.171,-90.857
13293,-0.3022,-0.9561,-0.3311,-4.517,-9.583,-5.005,-113.538,21.116,-90.742
13303,-0.3110,-0.9316,-0.3203,0.610,-5.554,-0.793,-113.467,21.094,-90.687
13313,-0.3311,-0.8994,-0.3125,5.676,-1.465,3.723,-113.368,21.116,-90.687
13323,-0.3555,-0.8452,-0.3140,8.179,1.465,6.165,-113.269,21.171,-90.725
13333,-0.3857,-0.7959,-0.3257,9.399,3.723,6.104,-113.192,21.242,-90.791
13343,-0.4028,-0.7695,-0.3350,10.681,5.432,4.089,-113.115,21.302,-90.862
13353,-0.3936,-0.7734,-0.3413,11.475,5.859,0.610,-113.027,21.319,-90.923
13363,-0.3672,-0.8042,-0.3477,10.132,4.211,-2.502,-112.945,21.297,-90.950
13373,-0.3413,-0.8579,-0.3486,5.615,0.732,-4.272,-112.874,21.242,-90.939
13383,-0.3149,-0.9087,-0.3521,-1.526,-3.418,-4.822,-112.852,21.182,-90.890
13393,-0.3013,-0.9590,-0.3521,-8.118,-6.287,-3.418,-112.879,21.127,-90.813
13403,-0.3330,-0.9390,-0.3599,-12.573,-7.324,0.793,-112.961,21.132,-90.742
13413,-0.3628,-0.8667,-0.3765,-11.353,-4.761,5.066,-113.071,21.198,-90.714
13423,-0.3853,-0.7905,-0.3848,-4.028,-0.793,6.287,-113.143,21.281,-90.736
13433,-0.4253,-0.7124,-0.3896,4.211,2.075,4.944,-113.170,21.379,-90.775
13443,-0.4204,-0.6973,-0.3882,10.559,3.418,1.343,-113.143,21.445,-90.813
13453,-0.2959,-0.9282,-0.3364,9.766,-2.625,-10.132,-112.989,21.313,-90.747
13463,-0.2817,-1.0234,-0.3174,0.732,-7.935,-10.864,-112.879,21.182,-90.621
13473,-0.2827,-1.0596,-0.3003,-4.700,-8.911,-7.019,-112.813,21.083,-90.505
13483,-0.3008,-1.0205,-0.3042,-4.639,-4.517,-0.305,-112.780,21.044,-90.461
13493,-0.3647,-0.8789,-0.3276,0.671,1.892,6.897,-112.769,21.105,-90.505
13503,-0.3955,-0.7734,-0.3457,9.460,7.690,10.681,-112.731,21.209,-90.626
13513,-0.3936,-0.7134,-0.3589,14.709,10.254,8.667,-112.670,21.302,-90.764
13523,-0.3916,-0.7187,-0.3604,13.428,8.179,4.150,-112.615,21.352,-90.862
13533,-0.3716,-0.7803,-0.3540,5.371,3.235,-0.610,-112.588,21.357,-90.890
13543,-0.3506,-0.8369,-0.3501,-6.042,-2.563,-4.761,-112.632,21.319,-90.846
13553,-0.3374,-0.8994,-0.3457,-12.512,-5.737,-6.958,-112.709,21.259,-90.764
13563,-0.3335,-0.9414,-0.3359,-12.268,-5.676,-6.531,-112.769,21.193,-90.676
13573,-0.3403,-0.9443,-0.3325,-7.568,-2.991,-3.540,-112.797,21.149,-90.632
13583,-0.3423,-0.8984,-0.3433,-1.282,0.732,0.366,-112.797,21.132,-90.643
13593,-0.3579,-0.8496,-0.3477,4.639,3.845,3.357,-112.764,21.149,-90.692
13603,-0.3813,-0.7783,-0.3633,7.874,5.432,3.479,-112.731,21.187,-90.764
13613,-0.3906,-0.7344,-0.3726,10.132,6.348,1.343,-112.698,21.220,-90.829
13624,-0.3765,-0.7695,-0.3711,10.254,5.981,-1.648,-112.643,21.209,-90.884
13633,-0.3403,-0.8462,-0.3652,5.676,2.625,-5.188,-112.599,21.138,-90.890
13643,-0.3306,-0.9063,-0.3643,-3.845,-2.686,-6.897,-112.610,21.061,-90.835
13653,-0.3164,-0.9692,-0.3545,-11.597,-6.104,-6.165,-112.665,20.989,-90.747
13663,-0.3091,-0.9868,-0.3477,-15.198,-6.531,-4.211,-112.758,20.929,-90.665
13673,-0.3364,-0.9268,-0.3579,-12.939,-3.906,-0.916,-112.852,20.912,-90.621
13683,-0.3564,-0.8496,-0.3604,-3.906,0.244,2.380,-112.896,20.940,-90.637
13693,-0.3691,-0.7866,-0.3628,6.226,3.235,3.418,-112.868,20.978,-90.681
13703,-0.3867,-0.7378,-0.3691,11.780,3.845,1.709,-112.808,21.022,-90.725
13713,-0.3960,-0.7349,-0.3652,13.245,3.174,-1.282,-112.720,21.044,-90.753
13723,-0.3638,-0.7847,-0.3569,9.277,0.732,-4.883,-112.643,21.017,-90.742
13733,-0.3110,-0.8926,-0.3408,1.465,-2.991,-8.362,-112.588,20.918,-90.676
13743,-0.2749,-1.0015,-0.3193,-7.141,-6.104,-9.277,-112.571,20.797,-90.577
13753,-0.2695,-1.0664,-0.2983,-12.085,-6.165,-6.287,-112.593,20.693,-90.489
13763,-0.3203,-0.9995,-0.3018,-13.062,-4.456,-0.427,-112.648,20.665,-90.445
13773,-0.3584,-0.8926,-0.3115,-6.226,0.366,5.737,-112.687,20.720,-90.472
13783,-0.3828,-0.7817,-0.3267,2.930,5.005,8.972,-112.687,20.819,-90.560
13793,-0.3945,-0.7187,-0.3403,8.911,7.629,8.057,-112.665,20.918,-90.665
13803,-0.4028,-0.7139,-0.3452,8.728,7.568,4.089,-112.643,20.989,-90.758
13813,-0.3760,-0.7573,-0.3555,2.502,5.310,-1.892,-112.659,20.984,-90.802
13823,-0.3394,-0.8247,-0.3711,-5.676,2.563,-7.324,-112.725,20.901,-90.797
13833,-0.3179,-0.9058,-0.3755,-10.132,1.587,-9.949,-112.819,20.775,-90.775
13843,-0.3013,-0.9849,-0.3667,-9.888,1.892,-9.338,-112.885,20.632,-90.753
13853,-0.2925,-1.0137,-0.3579,-8.362,1.892,-5.737,-112.928,20.522,-90.747
13863,-0.3066,-0.9731,-0.3618,-6.592,1.892,-0.305,-112.978,20.468,-90.764
13873,-0.3398,-0.8838,-0.3730,-3.662,2.686,4.456,-113.027,20.490,-90.807
13883,-0.3755,-0.7949,-0.3896,0.000,4.028,6.714,-113.082,20.561,-90.879
13893,-0.3774,-0.7554,-0.3970,3.235,4.944,5.798,-113.121,20.627,-90.950
13903,-0.3701,-0.7612,-0.3965,3.113,3.723,2.502,-113.148,20.665,-91.000
13915,-0.3662,-0.8130,-0.3843,-0.549,0.366,-0.916,-113.176,20.671,-91.000
13923,-0.3408,-0.8862,-0.3594,-7.507,-3.967,-3.052,-113.220,20.643,-90.945
13933,-0.3267,-0.9199,-0.3521,-16.052,-7.507,-3.235,-113.329,20.621,-90.857
13943,-0.3267,-0.9165,-0.3579,-20.081,-8.057,-2.075,-113.478,20.610,-90.769
13953,-0.3179,-0.9185,-0.3564,-16.479,-5.737,-0.671,-113.593,20.599,-90.709
13963,-0.3130,-0.9116,-0.3545,-9.827,-2.441,1.465,-113.665,20.594,-90.692
13973,-0.3154,-0.8906,-0.3530,-3.601,0.244,3.662,-113.687,20.605,-90.714
13983,-0.3242,-0.8638,-0.3506,0.061,1.709,5.676,-113.681,20.632,-90.753
13993,-0.3447,-0.8398,-0.3604,0.732,2.258,7.263,-113.687,20.693,-90.807
14003,-0.3550,-0.8364,-0.3706,0.916,2.869,7.874,-113.703,20.759,-90.868
14013,-0.3545,-0.8486,-0.3770,1.099,3.357,8.179,-113.719,20.819,-90.934
14023,-0.3467,-0.8721,-0.3809,1.465,3.540,9.216,-113.730,20.880,-91.011
14033,-0.3467,-0.8774,-0.3823,0.854,2.808,10.864,-113.747,20.956,-91.082
14043,-0.3613,-0.8535,-0.3843,-1.953,0.610,10.620,-113.785,21.055,-91.137
14053,-0.3701,-0.8047,-0.4028,-6.226,-1.770,8.545,-113.884,21.149,-91.154
14063,-0.3667,-0.7861,-0.4224,-7.080,-3.418,5.798,-113.994,21.231,-91.148
14073,-0.3672,-0.7856,-0.4326,-3.479,-6.165,3.540,-114.060,21.297,-91.104
14083,-0.3657,-0.8164,-0.4326,3.784,-9.521,1.709,-114.033,21.352,-91.016
14093,-0.3638,-0.8423,-0.4238,10.864,-13.306,0.366,-113.906,21.407,-90.890
14103,-0.3613,-0.8589,-0.4072,16.663,-15.686,-0.244,-113.698,21.462,-90.731
14113,-0.3564,-0.8716,-0.3867,21.240,-16.174,-0.305,-113.434,21.517,-90.571
14124,-0.3540,-0.8774,-0.3613,23.193,-15.503,0.427,-113.137,21.572,-90.423
14133,-0.3535,-0.8770,-0.3340,23.071,-13.245,1.892,-112.841,21.627,-90.297
14143,-0.3589,-0.8438,-0.3198,22.766,-10.132,3.418,-112.566,21.698,-90.214
14153,-0.3721,-0.8032,-0.3086,26.062,-6.409,4.517,-112.275,21.780,-90.165
14163,-0.3711,-0.7993,-0.2983,34.058,-2.075,4.761,-111.918,21.852,-90.165
14173,-0.3437,-0.8325,-0.2822,44.128,0.427,2.869,-111.456,21.868,-90.181
14183,-0.3062,-0.9224,-0.2593,51.147,-0.610,1.526,-110.891,21.846,-90.181
14193,-0.2925,-1.0293,-0.2271,47.791,-5.005,2.869,-110.319,21.824,-90.143
14203,-0.3066,-1.0767,-0.2124,33.325,-9.949,6.104,-109.869,21.857,-90.066
14213,-0.3540,-0.9946,-0.2290,18.188,-11.597,9.338,-109.589,21.956,-89.984
14223,-0.4297,-0.8237,-0.2759,9.827,-8.301,12.695,-109.468,22.143,-89.945
14233,-0.4814,-0.6650,-0.3159,11.169,-0.366,13.000,-109.429,22.379,-89.984
14243,-0.5005,-0.5942,-0.3281,17.883,8.301,6.836,-109.391,22.555,-90.093
14253,-0.4780,-0.5981,-0.3149,21.118,14.465,-5.249,-109.314,22.582,-90.225
14263,-0.4092,-0.6890,-0.2915,15.930,15.747,-17.761,-109.232,22.429,-90.319
14273,-0.3315,-0.8433,-0.2612,3.174,11.047,-24.963,-109.188,22.137,-90.346
14283,-0.2852,-0.9858,-0.2368,-10.742,3.357,-25.269,-109.215,21.830,-90.291
14293,-0.2651,-1.0957,-0.2412,-19.470,-3.967,-19.775,-109.297,21.572,-90.181
14303,-0.2676,-1.1367,-0.2446,-18.188,-7.507,-11.536,-109.363,21.401,-90.060
14313,-0.3047,-1.0889,-0.2686,-8.118,-5.554,-2.136,-109.369,21.335,-90.000
14323,-0.3315,-1.0015,-0.2900,10.132,2.502,6.531,-109.254,21.352,-90.049
14333,-0.3784,-0.8799,-0.3237,26.428,11.353,13.855,-109.061,21.451,-90.209
14343,-0.4014,-0.7764,-0.3467,35.339,18.005,18.555,-108.847,21.605,-90.461
14353,-0.3979,-0.7295,-0.3584,34.485,19.226,18.311,-108.677,21.758,-90.720
14363,-0.4023,-0.7134,-0.3560,21.973,11.780,13.245,-108.600,21.896,-90.884
14373,-0.4028,-0.7397,-0.3472,2.136,1.160,5.310,-108.655,21.989,-90.912
14383,-0.3833,-0.7993,-0.3452,-18.250,-9.094,-2.686,-108.842,22.011,-90.813
14394,-0.3696,-0.8525,-0.3413,-31.677,-19.104,-6.165,-109.105,22.011,-90.593
14404,-0.3530,-0.9268,-0.3198,-31.433,-24.475,-7.324,-109.314,22.000,-90.319
14414,-0.3330,-0.9717,-0.2900,-21.545,-24.170,-6.226,-109.402,21.984,-90.049
14423,-0.3403,-0.9790,-0.2646,-8.362,-18.066,-2.441,-109.369,21.984,-89.857
14433,-0.3652,-0.9355,-0.2476,4.456,-7.690,2.502,-109.254,22.022,-89.791
14443,-0.3926,-0.8447,-0.2471,13.489,2.808,5.615,-109.111,22.083,-89.841
14454,-0.3921,-0.7852,-0.2427,17.456,11.169,4.395,-108.968,22.126,-89.967
14464,-0.3950,-0.7617,-0.2441,13.306,14.954,-0.427,-108.880,22.115,-90.121
14473,-0.4014,-0.7710,-0.2622,0.000,13.306,-6.653,-108.918,22.050,-90.231
14484,-0.3740,-0.8135,-0.2837,-16.235,7.263,-13.062,-109.094,21.918,-90.258
14494,-0.3545,-0.8638,-0.2983,-29.114,-1.526,-16.846,-109.352,21.758,-90.187
14504,-0.3452,-0.9175,-0.3179,-34.485,-8.606,-17.639,-109.638,21.599,-90.033
14514,-0.3350,-0.9351,-0.3252,-30.212,-11.780,-15.869,-109.869,21.462,-89.857
14524,-0.3486,-0.9048,-0.3369,-19.714,-10.437,-11.475,-110.017,21.374,-89.709
14534,-0.3486,-0.8916,-0.3311,-5.249,-4.517,-5.676,-110.045,21.324,-89.643
14544,-0.3354,-0.8989,-0.3081,7.935,1.404,-1.953,-109.957,21.281,-89.654
14554,-0.3345,-0.9087,-0.2778,13.733,5.981,-0.977,-109.814,21.237,-89.709
14563,-0.3286,-0.9351,-0.2485,10.803,9.521,-0.549,-109.693,21.171,-89.802
14573,-0.3037,-0.9521,-0.2441,0.488,10.925,-1.343,-109.671,21.083,-89.907
14584,-0.3027,-0.9409,-0.2695,-11.169,9.705,-1.953,-109.775,20.995,-90.000
14594,-0.3462,-0.9077,-0.3013,-17.212,7.141,-1.221,-109.957,20.945,-90.066
14604,-0.3896,-0.8413,-0.3472,-16.968,5.188,0.244,-110.171,20.956,-90.121
14614,-0.4019,-0.7832,-0.3911,-11.353,3.845,1.221,-110.358,20.989,-90.165
14624,-0.3979,-0.7627,-0.4111,-4.761,1.038,0.183,-110.490,21.028,-90.176
14634,-0.3779,-0.7759,-0.4170,-1.221,-4.150,-2.563,-110.561,21.039,-90.121
14644,-0.3398,-0.8350,-0.3862,-0.366,-9.094,-5.920,-110.566,21.006,-90.011
14654,-0.3154,-0.8960,-0.3521,-2.258,-12.207,-8.118,-110.544,20.945,-89.857
14664,-0.3071,-0.9600,-0.3062,-2.441,-13.489,-8.118,-110.484,20.880,-89.692
14674,-0.3169,-0.9697,-0.2627,-0.549,-11.780,-6.165,-110.385,20.830,-89.550
14683,-0.3403,-0.9272,-0.2476,2.869,-7.080,-1.648,-110.275,20.825,-89.473
14694,-0.3599,-0.8833,-0.2388,7.996,-0.977,3.540,-110.143,20.869,-89.473
14704,-0.3843,-0.8140,-0.2437,9.460,3.174,5.798,-110.034,20.945,-89.528
14714,-0.4048,-0.7476,-0.2539,6.409,5.127,5.432,-109.984,21.039,-89.599
14724,-0.3882,-0.7422,-0.2725,0.977,4.944,2.258,-109.995,21.094,-89.659
14734,-0.3599,-0.7925,-0.2935,-7.507,2.258,-3.723,-110.078,21.072,-89.665
14744,-0.3193,-0.8672,-0.3081,-16.174,-1.343,-9.766,-110.215,20.967,-89.615
14754,-0.3086,-0.9512,-0.3081,-21.851,-4.028,-12.451,-110.380,20.825,-89.533
14764,-0.3228,-0.9795,-0.3101,-23.071,-3.601,-11.353,-110.550,20.698,-89.451
14774,-0.3335,-0.9585,-0.3311,-19.287,0.366,-8.179,-110.715,20.599,-89.423
14784,-0.3125,-0.9570,-0.3433,-10.620,5.920,-4.089,-110.830,20.506,-89.467
14794,-0.3071,-0.9521,-0.3394,-2.808,7.874,-0.549,-110.869,20.435,-89.544
14804,-0.3237,-0.9233,-0.3364,-0.061,6.897,3.174,-110.891,20.418,-89.626
14814,-0.3398,-0.8628,-0.3462,-0.488,4.639,5.615,-110.929,20.451,-89.692
14824,-0.3721,-0.7852,-0.3657,-1.282,3.052,5.920,-111.000,20.522,-89.747
14834,-0.3623,-0.7856,-0.3750,0.305,2.563,3.784,-111.055,20.566,-89.786
14844,-0.3379,-0.8423,-0.3706,1.465,1.160,-0.122,-111.072,20.561,-89.797
14854,-0.3291,-0.9111,-0.3540,-0.732,-1.160,-2.380,-111.072,20.522,-89.780
14864,-0.3271,-0.9414,-0.3462,-4.761,-3.601,-1.587,-111.099,20.495,-89.736
14874,-0.3184,-0.9502,-0.3418,-6.897,-5.005,1.221,-111.138,20.495,-89.692
14884,-0.3164,-0.9468,-0.3330,-4.578,-4.150,3.845,-111.154,20.517,-89.665
14894,-0.3296,-0.9150,-0.3188,0.122,-2.014,6.287,-111.138,20.561,-89.670
14904,-0.3442,-0.8774,-0.3120,5.615,0.549,8.545,-111.077,20.638,-89.709
14914,-0.3574,-0.8462,-0.3032,10.193,2.258,8.972,-110.984,20.720,-89.764
14924,-0.3833,-0.7866,-0.3022,11.353,2.991,8.118,-110.891,20.825,-89.824
14934,-0.4033,-0.7393,-0.3105,11.230,4.272,6.042,-110.825,20.923,-89.890
14944,-0.3931,-0.7417,-0.3130,10.071,5.188,2.319,-110.764,20.978,-89.951
14954,-0.3828,-0.7661,-0.3140,4.761,3.479,-2.502,-110.742,20.984,-89.978
14964,-0.3691,-0.8281,-0.3105,-2.747,1.099,-6.226,-110.764,20.934,-89.962
14974,-0.3574,-0.8696,-0.3110,-11.475,-0.549,-7.935,-110.852,20.869,-89.929
14984,-0.3203,-0.9141,-0.3154,-17.700,0.122,-8.240,-111.000,20.764,-89.896
14994,-0.2852,-0.9639,-0.3135,-17.944,2.136,-8.301,-111.143,20.632,-89.885
15004,-0.2905,-1.0200,-0.3052,-13.000,4.578,-5.859,-111.237,20.506,-89.912
15014,-0.3042,-1.0186,-0.3096,-6.226,7.263,-0.549,-111.281,20.429,-89.978
15024,-0.3125,-0.9243,-0.3301,0.854,9.705,6.226,-111.297,20.424,-90.099
15034,-0.3472,-0.8257,-0.3594,8.057,11.841,11.292,-111.292,20.495,-90.264
15044,-0.3892,-0.7764,-0.3789,12.573,12.085,11.719,-111.275,20.594,-90.428
15054,-0.3701,-0.8042,-0.3848,12.329,9.888,7.507,-111.237,20.649,-90.555
15064,-0.3384,-0.8057,-0.3901,5.737,4.211,1.953,-111.248,20.654,-90.604
15074,-0.3208,-0.8701,-0.3740,-1.770,-2.869,-1.221,-111.270,20.632,-90.571
15084,-0.3281,-0.9316,-0.3516,-8.118,-8.362,-2.258,-111.313,20.616,-90.478
15094,-0.3647,-0.8965,-0.3447,-10.742,-9.644,-1.038,-111.385,20.643,-90.379
15104,-0.3672,-0.8530,-0.3428,-5.676,-5.676,1.770,-111.429,20.693,-90.330
15114,-0.3535,-0.8384,-0.3276,2.869,-1.892,3.418,-111.396,20.737,-90.324
15124,-0.3623,-0.8188,-0.3223,7.690,-0.366,3.479,-111.324,20.786,-90.335
15134,-0.3608,-0.8252,-0.3091,8.850,0.793,3.052,-111.237,20.830,-90.357
15144,-0.3525,-0.8218,-0.3091,5.432,0.488,1.831,-111.182,20.852,-90.368
15154,-0.3594,-0.8164,-0.3154,0.427,-0.793,-0.305,-111.171,20.869,-90.357
15164,-0.3638,-0.8481,-0.3130,-3.052,-1.648,-2.625,-111.182,20.863,-90.330
15174,-0.3618,-0.8584,-0.3164,-5.981,-2.136,-5.066,-111.220,20.830,-90.291
15184,-0.3589,-0.8525,-0.3364,-8.240,-2.075,-5.798,-111.286,20.786,-90.247
15194,-0.3301,-0.8750,-0.3452,-7.324,-1.770,-6.104,-111.346,20.726,-90.203
15204,-0.3271,-0.8916,-0.3521,-6.042,-2.075,-5.981,-111.396,20.660,-90.159
15214,-0.3359,-0.9019,-0.3589,-4.456,-1.404,-4.395,-111.429,20.605,-90.132
15224,-0.3325,-0.8994,-0.3638,-2.502,0.122,-2.625,-111.456,20.566,-90.121
15234,-0.3364,-0.8945,-0.3721,-0.977,1.343,-1.282,-111.484,20.533,-90.132
15244,-0.3472,-0.8901,-0.3896,-0.732,2.808,0.122,-111.522,20.517,-90.159
15254,-0.3599,-0.8594,-0.4258,-1.831,4.700,1.343,-111.605,20.511,-90.209
15264,-0.3716,-0.8145,-0.4673,-2.502,4.883,1.709,-111.731,20.522,-90.264
15274,-0.3809,-0.7778,-0.4917,-1.160,1.404,0.000,-111.852,20.533,-90.280
15284,-0.3853,-0.7788,-0.4824,1.526,-5.127,-2.869,-111.918,20.550,-90.214
15294,-0.3530,-0.7896,-0.4302,2.563,-13.123,-5.615,-111.901,20.555,-90.066
15304,-0.3320,-0.8057,-0.3560,1.465,-20.386,-7.751,-111.830,20.561,-89.830
15314,-0.3047,-0.8896,-0.2632,0.183,-23.132,-9.094,-111.682,20.539,-89.566
15324,-0.2700,-0.9878,-0.1826,-1.160,-22.095,-10.010,-111.489,20.473,-89.308
15334,-0.2676,-1.0400,-0.1387,-1.526,-18.616,-8.179,-111.292,20.402,-89.088
15344,-0.2715,-1.0596,-0.1284,1.282,-12.085,-3.357,-111.088,20.352,-88.956
15354,-0.3076,-0.9902,-0.1631,4.272,-5.249,2.563,-110.912,20.363,-88.912
15364,-0.3530,-0.8799,-0.2139,7.751,0.854,7.385,-110.775,20.440,-88.951
15374,-0.3789,-0.7866,-0.2676,10.010,4.089,7.996,-110.682,20.539,-89.022
15384,-0.3911,-0.7480,-0.3105,9.460,3.906,5.432,-110.627,20.627,-89.083
15394,-0.3867,-0.7622,-0.3433,5.554,1.160,0.610,-110.616,20.671,-89.094
15404,-0.3652,-0.7993,-0.3662,-2.075,-3.296,-3.967,-110.660,20.665,-89.050
15414,-0.3525,-0.8301,-0.3750,-10.193,-7.629,-6.226,-110.759,20.638,-88.951
15424,-0.3379,-0.8608,-0.3813,-14.832,-8.240,-6.348,-110.901,20.599,-88.841
15434,-0.3267,-0.9326,-0.3662,-13.672,-5.554,-5.737,-111.017,20.539,-88.764
15444,-0.3208,-0.9512,-0.3525,-10.803,-2.502,-4.700,-111.099,20.479,-88.720
15454,-0.3110,-0.9604,-0.3286,-6.226,0.122,-2.014,-111.138,20.424,-88.715
15464,-0.3198,-0.9272,-0.3062,-1.221,1.404,1.343,-111.127,20.407,-88.737
15474,-0.3335,-0.8994,-0.2759,2.991,2.319,4.333,-111.072,20.429,-88.775
15484,-0.3486,-0.8379,-0.2739,4.089,2.869,5.920,-111.017,20.490,-88.824
15494,-0.3584,-0.8105,-0.2710,4.272,3.418,5.920,-110.973,20.550,-88.885
15504,-0.3823,-0.8018,-0.2720,2.991,2.808,3.601,-110.934,20.616,-88.923
15514,-0.3726,-0.8164,-0.2808,-0.061,2.014,0.061,-110.923,20.632,-88.945
15524,-0.3560,-0.8594,-0.2803,-3.845,2.136,-2.930,-110.934,20.610,-88.956
15534,-0.3369,-0.8853,-0.2920,-8.911,3.113,-4.700,-111.000,20.544,-88.967
15544,-0.3159,-0.9053,-0.3081,-14.038,5.127,-4.333,-111.127,20.468,-89.000
15554,-0.3027,-0.8931,-0.3379,-17.456,6.897,-2.869,-111.319,20.385,-89.061
15564,-0.3179,-0.8989,-0.3623,-16.113,7.751,-1.282,-111.511,20.325,-89.132
15574,-0.3340,-0.9077,-0.3730,-11.230,8.728,-0.244,-111.660,20.275,-89.220
15584,-0.3462,-0.9043,-0.3833,-5.798,9.583,0.732,-111.764,20.237,-89.313
15594,-0.3657,-0.8779,-0.3931,-1.709,10.071,2.075,-111.841,20.226,-89.423
15604,-0.3652,-0.8496,-0.4028,0.122,9.705,2.686,-111.912,20.226,-89.528
15614,-0.3447,-0.8467,-0.3975,0.610,7.996,2.075,-111.967,20.215,-89.615
15624,-0.3198,-0.8540,-0.3872,-1.038,3.784,0.793,-112.017,20.193,-89.659
15634,-0.3052,-0.8647,-0.3755,-4.150,-1.404,0.305,-112.066,20.176,-89.643
15644,-0.2988,-0.8872,-0.3613,-5.981,-5.249,0.488,-112.110,20.176,-89.594
15654,-0.3042,-0.9033,-0.3545,-5.615,-6.592,0.977,-112.137,20.182,-89.533
15664,-0.3071,-0.9136,-0.3447,-2.747,-5.066,2.136,-112.137,20.193,-89.495
15674,-0.3267,-0.9028,-0.3423,1.465,-2.197,3.723,-112.104,20.220,-89.484
15684,-0.3613,-0.8853,-0.3379,5.493,0.671,5.798,-112.050,20.275,-89.517
15694,-0.3711,-0.8374,-0.3540,7.996,2.563,6.409,-111.995,20.347,-89.566
15704,-0.3784,-0.8164,-0.3521,10.498,3.723,6.287,-111.923,20.418,-89.626
15714,-0.3672,-0.7944,-0.3579,9.766,3.113,4.883,-111.868,20.473,-89.681
15724,-0.3687,-0.8062,-0.3477,5.920,1.343,2.808,-111.835,20.517,-89.703
15734,-0.3447,-0.8135,-0.3447,-1.038,-1.526,-0.122,-111.852,20.528,-89.687
15744,-0.3325,-0.8555,-0.3306,-6.042,-3.357,-2.136,-111.890,20.517,-89.648
15754,-0.3413,-0.8867,-0.3262,-8.911,-4.028,-3.113,-111.940,20.495,-89.594
15764,-0.3301,-0.8945,-0.3325,-8.240,-2.136,-2.869,-111.995,20.462,-89.561
15774,-0.3330,-0.9116,-0.3315,-4.578,0.488,-1.770,-112.022,20.429,-89.561
15784,-0.3369,-0.9092,-0.3320,-1.282,1.892,-1.160,-112.017,20.402,-89.572
15794,-0.3472,-0.8867,-0.3398,0.549,3.418,0.427,-112.017,20.391,-89.610
15804,-0.3506,-0.8408,-0.3545,1.953,4.761,1.892,-112.022,20.396,-89.665
15814,-0.3486,-0.8145,-0.3662,4.211,4.761,2.014,-112.022,20.407,-89.720
15824,-0.3433,-0.8252,-0.3682,5.615,2.747,0.732,-111.995,20.407,-89.747
15834,-0.3364,-0.8638,-0.3657,4.517,-0.610,-0.854,-111.956,20.391,-89.736
15844,-0.3149,-0.9141,-0.3545,1.709,-3.601,-1.526,-111.918,20.369,-89.698
15854,-0.2988,-0.9663,-0.3521,-1.831,-5.493,-0.366,-111.901,20.341,-89.643
15864,-0.2876,-1.0078,-0.3481,-3.601,-4.700,1.953,-111.896,20.325,-89.604
15874,-0.3003,-0.9976,-0.3481,-3.784,-1.831,5.737,-111.907,20.341,-89.610
15884,-0.3306,-0.9287,-0.3516,-1.160,2.502,10.803,-111.929,20.413,-89.676
15894,-0.3613,-0.8433,-0.3555,5.310,6.714,14.648,-111.929,20.533,-89.802
15904,-0.3784,-0.7773,-0.3545,12.085,8.850,15.625,-111.885,20.676,-89.951
15916,-0.3892,-0.7490,-0.3442,15.198,7.385,13.428,-111.808,20.819,-90.077
15924,-0.3809,-0.7642,-0.3276,14.832,3.784,9.705,-111.703,20.929,-90.154
15934,-0.3521,-0.8169,-0.3091,11.108,0.244,5.920,-111.594,20.995,-90.181
15944,-0.3467,-0.8545,-0.2964,4.333,-2.380,4.150,-111.522,21.044,-90.170
15954,-0.3501,-0.8999,-0.2910,-2.075,-3.418,4.211,-111.500,21.088,-90.154
15964,-0.3530,-0.9023,-0.3057,-6.653,-2.747,4.517,-111.533,21.132,-90.143
15974,-0.3701,-0.8394,-0.3379,-7.874,-1.221,5.066,-111.621,21.193,-90.154
15984,-0.3926,-0.7690,-0.3745,-3.906,0.977,5.432,-111.714,21.275,-90.181
15994,-0.3896,-0.7646,-0.3862,2.258,2.197,3.662,-111.753,21.330,-90.220
16004,-0.3882,-0.7871,-0.3931,4.150,1.221,0.244,-111.764,21.352,-90.231
