elapsed_ms,acc_x_g,acc_y_g,acc_z_g,gyro_x_dps,gyro_y_dps,gyro_z_dps,angle_x_deg,angle_y_deg,angle_z_deg
0,-0.3667,-0.5117,-0.8159,51.331,-1.587,1.038,-150.787,21.852,-17.276
10,-0.3545,-0.5625,-0.8159,47.791,0.977,0.366,-150.260,21.819,-17.281
20,-0.3604,-0.5576,-0.8198,38.208,1.587,0.977,-149.848,21.791,-17.303
30,-0.3735,-0.5303,-0.8193,28.442,1.099,3.052,-149.551,21.791,-17.336
40,-0.3872,-0.5024,-0.8198,22.217,-0.793,5.737,-149.337,21.830,-17.386
50,-0.3936,-0.5156,-0.8164,19.714,-3.784,7.080,-149.139,21.901,-17.430
60,-0.3936,-0.5176,-0.8047,17.761,-7.568,6.470,-148.953,22.000,-17.446
70,-0.3994,-0.4868,-0.7949,16.785,-12.451,5.371,-148.777,22.148,-17.430
80,-0.4136,-0.4443,-0.7793,19.165,-16.846,4.700,-148.585,22.341,-17.375
90,-0.4307,-0.4058,-0.7661,26.489,-19.409,3.662,-148.326,22.566,-17.303
100,-0.4453,-0.4023,-0.7456,38.574,-19.470,1.160,-147.942,22.786,-17.199
110,-0.4438,-0.4165,-0.7285,51.392,-17.822,-2.991,-147.404,22.967,-17.073
120,-0.4155,-0.5166,-0.7134,60.974,-14.404,-8.057,-146.706,23.071,-16.913
130,-0.3667,-0.6543,-0.6973,59.448,-10.132,-12.451,-145.953,23.066,-16.738
140,-0.3350,-0.7451,-0.6865,42.297,-7.385,-13.123,-145.338,23.005,-16.578
150,-0.3325,-0.7515,-0.6787,15.564,-5.920,-8.728,-145.009,22.956,-16.463
160,-0.3682,-0.6318,-0.6743,-9.949,-5.798,0.732,-145.014,22.994,-16.430
170,-0.4263,-0.4956,-0.6777,-22.461,-5.066,13.184,-145.256,23.148,-16.518
180,-0.4658,-0.4492,-0.6855,-19.348,-1.404,22.400,-145.536,23.351,-16.710
190,-0.4771,-0.4438,-0.7080,-10.071,3.296,24.231,-145.756,23.527,-16.946
200,-0.4536,-0.4976,-0.7251,-1.282,7.019,19.348,-145.849,23.615,-17.166
210,-0.4062,-0.5732,-0.7266,1.709,8.789,10.498,-145.849,23.599,-17.314
220,-0.3657,-0.5913,-0.7261,-3.418,7.996,4.089,-145.865,23.533,-17.402
230,-0.3589,-0.5757,-0.7256,-10.193,5.493,3.967,-145.953,23.489,-17.468
240,-0.3711,-0.5439,-0.7246,-14.465,3.967,8.240,-146.107,23.489,-17.567
250,-0.4019,-0.4912,-0.7241,-14.648,2.869,13.794,-146.305,23.555,-17.710
260,-0.4321,-0.4453,-0.7246,-11.169,2.014,17.090,-146.503,23.665,-17.880
270,-0.4409,-0.4355,-0.7334,-4.578,2.319,16.541,-146.640,23.774,-18.040
280,-0.4229,-0.5127,-0.7471,2.686,2.747,11.780,-146.656,23.829,-18.166
290,-0.3853,-0.6040,-0.7451,4.456,3.235,3.845,-146.574,23.802,-18.221
300,-0.3682,-0.5923,-0.7383,-1.160,1.648,-1.160,-146.536,23.758,-18.221
310,-0.3892,-0.5200,-0.7271,-5.371,-1.343,0.244,-146.563,23.769,-18.215
320,-0.4282,-0.4438,-0.7158,-2.930,-3.113,6.165,-146.624,23.857,-18.254
330,-0.4644,-0.4116,-0.7051,6.592,-2.869,10.620,-146.618,24.000,-18.331
340,-0.4678,-0.4253,-0.7056,17.883,-1.282,9.827,-146.497,24.115,-18.413
350,-0.4365,-0.5156,-0.7021,25.024,0.244,4.272,-146.239,24.164,-18.452
360,-0.3867,-0.6304,-0.7051,21.912,1.160,-3.540,-145.931,24.115,-18.430
370,-0.3467,-0.7051,-0.7051,7.507,1.282,-8.850,-145.723,24.005,-18.358
380,-0.3408,-0.6597,-0.7070,-10.315,0.244,-8.179,-145.706,23.912,-18.287
390,-0.3701,-0.5527,-0.7085,-21.851,-0.488,-0.671,-145.882,23.895,-18.276
400,-0.4272,-0.4375,-0.7153,-20.508,0.244,9.399,-146.146,23.978,-18.364
410,-0.4722,-0.3823,-0.7266,-6.165,3.784,15.137,-146.332,24.093,-18.523
420,-0.4766,-0.3936,-0.7461,13.184,8.972,13.367,-146.332,24.142,-18.699
430,-0.4316,-0.5063,-0.7490,29.358,13.977,5.127,-146.091,24.071,-18.831
440,-0.3701,-0.6313,-0.7451,32.654,16.479,-4.395,-145.728,23.879,-18.891
450,-0.3218,-0.7148,-0.7495,21.729,15.625,-8.789,-145.426,23.637,-18.907
464,-0.3174,-0.6753,-0.7402,4.028,12.756,-6.226,-145.316,23.434,-18.929
470,-0.3760,-0.4971,-0.7446,-8.423,9.155,3.662,-145.448,23.373,-19.023
480,-0.4507,-0.3828,-0.7441,-6.165,9.460,15.991,-145.657,23.439,-19.221
490,-0.5059,-0.3042,-0.7490,7.935,13.428,22.095,-145.816,23.538,-19.506
500,-0.5034,-0.3506,-0.7681,24.780,18.372,20.447,-145.783,23.571,-19.803
510,-0.4429,-0.5576,-0.7646,33.020,23.437,11.658,-145.536,23.461,-20.050
520,-0.3799,-0.6758,-0.7739,21.851,22.766,-1.343,-145.305,23.236,-20.176
530,-0.3306,-0.7417,-0.7783,-1.465,16.113,-10.498,-145.228,22.983,-20.182
540,-0.3320,-0.6641,-0.7759,-25.574,6.836,-11.475,-145.404,22.813,-20.121
550,-0.3892,-0.4971,-0.7852,-38.818,-1.404,-3.723,-145.794,22.802,-20.083
560,-0.4658,-0.3447,-0.7856,-31.189,-4.211,7.507,-146.223,22.934,-20.121
570,-0.5244,-0.2500,-0.7749,-5.676,-2.686,13.611,-146.481,23.132,-20.231
580,-0.5176,-0.2764,-0.7710,24.719,1.404,10.681,-146.415,23.269,-20.336
590,-0.4463,-0.5078,-0.7471,46.875,5.615,-0.488,-145.953,23.253,-20.363
600,-0.3481,-0.7422,-0.7422,43.396,6.165,-15.442,-145.377,23.066,-20.264
610,-0.2651,-0.8828,-0.7437,15.137,2.136,-26.733,-144.987,22.797,-20.039
620,-0.2393,-0.8477,-0.7446,-21.667,-5.066,-28.748,-144.954,22.566,-19.748
630,-0.2900,-0.6479,-0.7568,-49.683,-11.108,-18.921,-145.300,22.489,-19.512
640,-0.3877,-0.4351,-0.7642,-51.331,-11.841,-1.038,-145.827,22.588,-19.429
650,-0.4756,-0.2964,-0.7705,-28.198,-5.920,14.709,-146.272,22.791,-19.528
660,-0.5073,-0.2725,-0.7832,6.531,3.235,19.836,-146.431,22.961,-19.726
670,-0.4580,-0.4277,-0.7773,39.490,11.536,13.062,-146.162,22.983,-19.913
680,-0.3662,-0.6484,-0.7627,52.734,15.076,-1.587,-145.602,22.819,-19.990
690,-0.2842,-0.7734,-0.7441,41.077,11.047,-15.259,-145.052,22.566,-19.924
700,-0.2612,-0.7832,-0.7241,14.526,1.892,-19.592,-144.723,22.352,-19.759
710,-0.3013,-0.6577,-0.7061,-10.193,-6.165,-13.794,-144.690,22.269,-19.600
720,-0.3862,-0.4902,-0.7012,-22.705,-9.216,0.427,-144.893,22.368,-19.545
730,-0.4775,-0.3374,-0.6948,-15.686,-5.798,15.015,-145.179,22.593,-19.644
740,-0.5366,-0.2617,-0.6953,5.798,1.099,21.240,-145.338,22.841,-19.836
750,-0.5151,-0.3462,-0.7080,27.527,9.521,16.479,-145.228,22.956,-20.045
760,-0.4307,-0.5835,-0.6987,37.720,15.564,1.648,-144.849,22.863,-20.154
770,-0.3374,-0.7471,-0.6919,24.292,13.977,-15.930,-144.465,22.615,-20.099
780,-0.2979,-0.7583,-0.6987,-5.432,6.165,-25.146,-144.333,22.357,-19.918
790,-0.3193,-0.6323,-0.7041,-32.227,-2.136,-22.705,-144.509,22.203,-19.704
800,-0.3809,-0.4678,-0.7295,-41.931,-5.554,-10.986,-144.904,22.203,-19.572
810,-0.4390,-0.4219,-0.7520,-30.212,-1.038,2.808,-145.267,22.275,-19.594
820,-0.4604,-0.4189,-0.7632,-7.935,6.714,9.094,-145.453,22.324,-19.715
830,-0.4321,-0.4800,-0.7842,11.169,12.573,6.592,-145.421,22.291,-19.847
840,-0.3701,-0.5942,-0.7837,21.729,14.465,-1.770,-145.212,22.143,-19.924
850,-0.3018,-0.6948,-0.7812,19.470,11.108,-10.498,-144.937,21.934,-19.896
860,-0.2690,-0.7329,-0.7700,7.935,4.578,-13.245,-144.745,21.747,-19.808
870,-0.2847,-0.6753,-0.7637,-4.761,-1.892,-8.911,-144.695,21.649,-19.720
880,-0.3252,-0.5928,-0.7593,-11.414,-4.822,0.305,-144.772,21.660,-19.693
890,-0.3936,-0.4785,-0.7471,-8.789,-4.333,10.437,-144.904,21.775,-19.759
900,-0.4634,-0.3345,-0.7280,4.944,-1.282,16.357,-145.014,21.962,-19.891
910,-0.4795,-0.3296,-0.7231,24.963,3.540,16.785,-144.932,22.121,-20.061
920,-0.4302,-0.4990,-0.7095,40.100,9.094,8.667,-144.586,22.137,-20.198
930,-0.3437,-0.6978,-0.7031,36.560,11.047,-6.042,-144.135,21.984,-20.209
940,-0.2656,-0.8145,-0.7109,11.414,6.897,-18.066,-143.849,21.742,-20.099
950,-0.2500,-0.7671,-0.7090,-21.790,-0.793,-20.691,-143.888,21.544,-19.913
960,-0.3218,-0.5400,-0.7271,-45.410,-8.301,-11.353,-144.278,21.528,-19.759
970,-0.4141,-0.3872,-0.7456,-44.067,-8.789,5.310,-144.794,21.676,-19.753
980,-0.4771,-0.3267,-0.7554,-21.545,-2.502,16.785,-145.173,21.874,-19.885
990,-0.4751,-0.3867,-0.7783,5.005,5.432,16.418,-145.272,21.989,-20.061
1000,-0.4058,-0.5449,-0.7812,23.743,11.475,5.249,-145.080,21.940,-20.182
1010,-0.3159,-0.7061,-0.7651,23.743,11.230,-9.644,-144.761,21.742,-20.165
1020,-0.2773,-0.7246,-0.7603,7.141,4.395,-17.578,-144.558,21.539,-20.039
1030,-0.2896,-0.6655,-0.7446,-8.362,-3.113,-15.503,-144.520,21.418,-19.880
1040,-0.3418,-0.5483,-0.7402,-16.113,-7.141,-5.371,-144.635,21.434,-19.792
1050,-0.4019,-0.4795,-0.7393,-12.573,-5.798,7.690,-144.800,21.555,-19.819
1060,-0.4438,-0.4102,-0.7329,-0.671,-0.610,14.832,-144.910,21.709,-19.946
1070,-0.4487,-0.4341,-0.7373,11.963,4.395,14.648,-144.893,21.819,-20.105
1080,-0.4155,-0.5249,-0.7300,17.273,8.057,7.507,-144.761,21.824,-20.220
1090,-0.3652,-0.6406,-0.7344,11.292,8.301,-3.113,-144.597,21.725,-20.242
1100,-0.2983,-0.7588,-0.7446,-6.592,6.348,-11.841,-144.536,21.550,-20.182
1110,-0.2715,-0.7466,-0.7563,-28.809,1.526,-14.465,-144.690,21.379,-20.061
1120,-0.3086,-0.5762,-0.7769,-43.701,-4.333,-8.240,-145.074,21.330,-19.962
1130,-0.3823,-0.4360,-0.8008,-38.391,-6.409,4.028,-145.514,21.418,-19.962
1140,-0.4355,-0.3931,-0.8081,-14.404,-2.258,12.939,-145.783,21.555,-20.061
1150,-0.4678,-0.3296,-0.8203,15.198,3.418,13.000,-145.805,21.665,-20.198
1160,-0.4268,-0.4629,-0.8086,43.579,9.338,6.409,-145.459,21.654,-20.308
1170,-0.3521,-0.6851,-0.7725,53.040,12.451,-3.235,-144.877,21.506,-20.358
1180,-0.3091,-0.7510,-0.7515,36.560,8.240,-9.888,-144.404,21.330,-20.325
1190,-0.2979,-0.7290,-0.7402,10.803,1.038,-9.338,-144.179,21.215,-20.248
1200,-0.3237,-0.6270,-0.7412,-10.498,-4.944,-1.770,-144.223,21.215,-20.198
1210,-0.3813,-0.5039,-0.7437,-20.508,-7.385,10.010,-144.459,21.346,-20.242
1220,-0.4409,-0.3906,-0.7480,-13.794,-6.104,17.761,-144.717,21.561,-20.358
1230,-0.4751,-0.3403,-0.7578,1.953,-3.479,17.578,-144.855,21.775,-20.490
1240,-0.4380,-0.4634,-0.7578,17.395,-0.061,9.644,-144.756,21.874,-20.577
1250,-0.3696,-0.6250,-0.7427,19.836,1.160,-3.967,-144.498,21.830,-20.550
1260,-0.3057,-0.7065,-0.7422,5.432,-1.892,-15.320,-144.311,21.709,-20.402
1270,-0.2803,-0.6772,-0.7305,-14.587,-6.592,-18.372,-144.311,21.594,-20.198
1280,-0.3188,-0.5405,-0.7280,-26.123,-11.169,-11.536,-144.498,21.594,-20.028
1290,-0.3735,-0.4756,-0.7319,-23.254,-11.414,0.977,-144.728,21.709,-19.968
1300,-0.4053,-0.4663,-0.7334,-10.437,-7.507,9.216,-144.871,21.852,-20.001
1310,-0.4136,-0.4761,-0.7383,2.075,-3.906,9.644,-144.899,21.973,-20.061
1320,-0.3921,-0.5386,-0.7417,8.667,-1.831,4.395,-144.811,22.028,-20.089
1330,-0.3579,-0.6157,-0.7466,8.301,-0.854,-4.211,-144.673,21.989,-20.045
1340,-0.3140,-0.6938,-0.7515,1.831,-0.122,-11.353,-144.542,21.879,-19.946
1350,-0.3052,-0.6289,-0.7451,-6.042,-0.916,-11.658,-144.514,21.775,-19.836
1361,-0.3437,-0.5366,-0.7446,-7.446,-2.380,-2.991,-144.569,21.764,-19.797
1370,-0.3892,-0.4961,-0.7285,-0.854,-1.831,7.935,-144.613,21.846,-19.852
1380,-0.4360,-0.4014,-0.7124,9.399,-0.549,13.794,-144.624,21.989,-19.973
1390,-0.4604,-0.3765,-0.7021,21.118,1.465,14.526,-144.536,22.143,-20.110
1400,-0.4434,-0.4575,-0.6948,28.870,5.066,9.033,-144.311,22.214,-20.220
1410,-0.3848,-0.6333,-0.6875,24.475,8.545,-1.831,-144.014,22.137,-20.259
1420,-0.3179,-0.7334,-0.7017,3.662,8.789,-12.939,-143.855,21.940,-20.198
1430,-0.2661,-0.7773,-0.7183,-23.743,6.287,-18.677,-143.932,21.703,-20.078
1440,-0.2861,-0.6455,-0.7407,-47.241,1.160,-14.893,-144.305,21.555,-19.957
1450,-0.3506,-0.4839,-0.7734,-52.551,-2.869,-3.174,-144.844,21.555,-19.913
1460,-0.4126,-0.3979,-0.7920,-34.058,-1.587,7.690,-145.289,21.643,-19.968
1470,-0.4536,-0.3555,-0.8008,-4.150,2.136,11.475,-145.481,21.747,-20.083
1480,-0.4487,-0.3716,-0.7881,26.123,6.104,7.446,-145.349,21.797,-20.187
1490,-0.3984,-0.5513,-0.7510,46.082,8.484,-0.488,-144.899,21.736,-20.231
1500,-0.3364,-0.7207,-0.7266,42.725,8.057,-8.545,-144.366,21.588,-20.209
1510,-0.2886,-0.8125,-0.7202,20.325,4.700,-13.733,-144.003,21.401,-20.116
1520,-0.2686,-0.7920,-0.7227,-10.193,0.488,-12.329,-143.954,21.253,-20.012
1530,-0.3198,-0.5796,-0.7344,-33.203,-3.662,-2.625,-144.240,21.242,-19.968
1540,-0.4072,-0.4316,-0.7583,-33.630,-4.333,11.841,-144.662,21.385,-20.045
1550,-0.4600,-0.3965,-0.7695,-15.259,0.732,19.348,-144.959,21.555,-20.220
1560,-0.4653,-0.3813,-0.7852,5.005,5.737,15.808,-145.063,21.665,-20.391
1570,-0.4272,-0.4429,-0.7651,22.278,7.568,6.470,-144.932,21.682,-20.495
1580,-0.3750,-0.5835,-0.7480,26.794,6.226,-3.906,-144.635,21.610,-20.500
1590,-0.3179,-0.6992,-0.7422,16.052,3.601,-12.207,-144.366,21.467,-20.418
1600,-0.2769,-0.7539,-0.7432,-2.197,0.366,-15.381,-144.245,21.308,-20.281
1610,-0.2764,-0.6870,-0.7495,-20.264,-3.296,-10.925,-144.333,21.209,-20.165
1620,-0.3252,-0.5557,-0.7637,-29.602,-5.920,-0.122,-144.613,21.231,-20.127
1630,-0.3945,-0.4375,-0.7676,-21.851,-5.432,11.108,-144.904,21.368,-20.193
1640,-0.4526,-0.3311,-0.7666,-2.014,-2.869,17.029,-145.091,21.561,-20.325
1650,-0.4653,-0.3052,-0.7588,22.217,0.366,15.442,-145.052,21.725,-20.462
1660,-0.4219,-0.4814,-0.7192,41.565,3.357,7.385,-144.684,21.780,-20.550
1670,-0.3618,-0.6719,-0.6899,38.330,3.418,-4.517,-144.207,21.720,-20.528
1680,-0.3081,-0.7651,-0.6934,13.794,1.648,-15.076,-143.904,21.566,-20.407
1690,-0.2798,-0.7505,-0.7109,-16.296,-0.854,-18.494,-143.904,21.401,-20.242
1700,-0.2891,-0.6807,-0.7412,-39.917,-2.136,-11.963,-144.190,21.297,-20.127
1710,-0.3457,-0.5054,-0.7720,-47.485,-0.916,0.671,-144.684,21.297,-20.127
1720,-0.4155,-0.3677,-0.8086,-32.104,1.099,13.245,-145.157,21.401,-20.248
1730,-0.4409,-0.3569,-0.8247,-3.296,5.554,17.883,-145.377,21.506,-20.440
1740,-0.4136,-0.4160,-0.8135,23.987,8.057,11.780,-145.267,21.533,-20.594
1750,-0.3657,-0.5508,-0.7764,40.161,5.859,1.343,-144.882,21.489,-20.643
1760,-0.3154,-0.6792,-0.7378,36.682,1.038,-8.179,-144.421,21.396,-20.577
1770,-0.2896,-0.7065,-0.7241,19.714,-4.517,-12.817,-144.086,21.302,-20.435
1780,-0.3018,-0.6572,-0.7109,1.587,-8.423,-10.376,-143.948,21.270,-20.292
1790,-0.3491,-0.5376,-0.7134,-10.498,-9.583,-0.916,-144.020,21.341,-20.226
1800,-0.4082,-0.4697,-0.7207,-10.071,-6.104,9.705,-144.163,21.489,-20.270
1810,-0.4365,-0.4116,-0.7280,-1.160,-1.526,13.245,-144.278,21.638,-20.374
1820,-0.4370,-0.4111,-0.7305,7.324,0.977,10.437,-144.305,21.747,-20.473
1830,-0.4062,-0.5020,-0.7231,12.085,1.526,2.930,-144.207,21.786,-20.506
1840,-0.3564,-0.6299,-0.7217,7.812,1.221,-7.812,-144.053,21.714,-20.446
1850,-0.3140,-0.6943,-0.7344,-5.859,0.305,-16.052,-143.987,21.577,-20.308
1861,-0.2856,-0.7290,-0.7500,-20.142,0.244,-17.334,-144.053,21.412,-20.160
1870,-0.2983,-0.6250,-0.7598,-30.823,-0.244,-11.230,-144.283,21.302,-20.061
1880,-0.3677,-0.4561,-0.7773,-29.053,-1.404,1.404,-144.630,21.330,-20.067
1890,-0.4292,-0.3789,-0.7798,-10.071,0.793,12.451,-144.860,21.445,-20.176
1900,-0.4551,-0.3423,-0.7690,14.465,4.028,15.076,-144.888,21.566,-20.336
1910,-0.4263,-0.4507,-0.7466,35.461,6.165,9.644,-144.624,21.616,-20.457
1920,-0.3701,-0.6289,-0.7163,40.100,5.859,-0.977,-144.174,21.561,-20.490
1930,-0.3188,-0.7368,-0.7061,23.132,2.869,-11.658,-143.811,21.429,-20.402
1940,-0.2812,-0.7788,-0.7139,-3.906,-0.610,-17.090,-143.685,21.270,-20.253
1950,-0.2705,-0.7339,-0.7373,-29.419,-2.991,-14.221,-143.839,21.143,-20.110
1960,-0.2935,-0.5874,-0.7656,-42.786,-3.113,-4.700,-144.229,21.099,-20.050
1970,-0.3516,-0.3931,-0.7798,-35.278,-2.319,7.507,-144.684,21.165,-20.099
1980,-0.4219,-0.3115,-0.7910,-10.132,0.122,16.479,-144.976,21.313,-20.242
1990,-0.4473,-0.3213,-0.7847,19.348,5.371,15.991,-144.970,21.423,-20.418
2000,-0.4180,-0.4360,-0.7407,41.809,9.033,7.324,-144.646,21.440,-20.539
2010,-0.3652,-0.6216,-0.6968,45.105,8.667,-4.150,-144.141,21.346,-20.555
2020,-0.3281,-0.7339,-0.6768,26.489,5.737,-14.221,-143.734,21.182,-20.468
2030,-0.3076,-0.7534,-0.6914,-3.235,2.502,-19.104,-143.602,21.006,-20.319
2040,-0.3228,-0.6509,-0.7217,-30.151,1.831,-15.503,-143.800,20.874,-20.198
2050,-0.3638,-0.5181,-0.7646,-41.748,4.456,-3.235,-144.234,20.830,-20.198
2060,-0.4009,-0.4448,-0.8062,-33.508,9.460,8.301,-144.679,20.825,-20.330
2070,-0.4126,-0.4180,-0.8267,-14.282,12.146,11.169,-144.970,20.825,-20.500
2080,-0.3818,-0.4746,-0.8247,5.798,10.498,5.554,-145.003,20.781,-20.616
2090,-0.3340,-0.6172,-0.8008,18.066,4.822,-4.456,-144.794,20.693,-20.605
2100,-0.2939,-0.7109,-0.7788,15.015,-2.502,-13.977,-144.525,20.583,-20.468
2110,-0.2915,-0.6924,-0.7520,5.859,-9.277,-16.113,-144.327,20.517,-20.270
2120,-0.3467,-0.5854,-0.7261,0.000,-13.184,-8.362,-144.240,20.572,-20.116
2130,-0.4155,-0.4712,-0.7256,2.014,-11.780,4.517,-144.234,20.742,-20.083
2140,-0.4487,-0.4302,-0.7207,13.672,-5.127,13.306,-144.179,20.934,-20.165
2150,-0.4312,-0.4360,-0.7075,25.757,0.488,12.878,-144.009,21.072,-20.281
2160,-0.3970,-0.5400,-0.6919,29.053,1.587,6.775,-143.723,21.132,-20.347
2170,-0.3413,-0.6694,-0.6714,18.005,0.305,-4.089,-143.448,21.094,-20.314
2180,-0.3135,-0.7021,-0.6748,-5.493,-3.418,-13.245,-143.355,21.011,-20.176
2190,-0.3140,-0.6533,-0.6875,-26.733,-5.005,-15.747,-143.492,20.929,-20.012
2200,-0.3369,-0.5820,-0.7134,-36.926,-2.808,-10.925,-143.795,20.880,-19.902
2210,-0.3760,-0.4824,-0.7563,-31.982,2.991,-2.747,-144.146,20.858,-19.896
2220,-0.3921,-0.4434,-0.7915,-13.367,11.169,3.601,-144.377,20.814,-19.995
2230,-0.3843,-0.4404,-0.8037,9.216,16.663,5.798,-144.410,20.731,-20.149
2240,-0.3584,-0.5205,-0.7930,26.611,17.944,4.028,-144.223,20.610,-20.297
2250,-0.3218,-0.6230,-0.7739,30.762,15.076,0.305,-143.921,20.462,-20.396
2260,-0.2954,-0.6948,-0.7500,21.362,8.789,-2.380,-143.652,20.336,-20.429
2270,-0.2969,-0.6719,-0.7358,3.601,1.709,-2.747,-143.553,20.270,-20.413
2280,-0.3301,-0.5845,-0.7446,-11.719,-3.418,1.038,-143.646,20.292,-20.402
2290,-0.3726,-0.5078,-0.7554,-16.663,-4.089,6.409,-143.844,20.385,-20.429
2300,-0.3989,-0.4663,-0.7793,-10.986,-1.160,7.568,-144.025,20.468,-20.490
2310,-0.3911,-0.4839,-0.7974,-1.038,1.587,3.296,-144.097,20.500,-20.528
2320,-0.3599,-0.5342,-0.7944,7.324,2.869,-3.723,-144.042,20.457,-20.511
2330,-0.3281,-0.6021,-0.7925,10.559,2.502,-8.789,-143.904,20.363,-20.451
2340,-0.3018,-0.6528,-0.7793,7.141,1.404,-9.338,-143.767,20.259,-20.380
2350,-0.3145,-0.6030,-0.7642,1.770,-1.404,-4.822,-143.712,20.215,-20.330
2361,-0.3447,-0.5747,-0.7593,-1.221,-3.540,2.930,-143.718,20.259,-20.336
2370,-0.3696,-0.5537,-0.7559,-2.197,-4.272,7.751,-143.756,20.352,-20.374
2380,-0.3906,-0.5151,-0.7651,-2.625,-4.272,7.507,-143.817,20.457,-20.413
2390,-0.3955,-0.5093,-0.7681,-1.404,-3.723,4.089,-143.860,20.539,-20.424
2400,-0.3765,-0.5537,-0.7773,0.427,-2.380,-1.221,-143.855,20.561,-20.396
2410,-0.3403,-0.6152,-0.7769,1.343,-0.427,-6.958,-143.795,20.506,-20.336
2420,-0.3184,-0.6167,-0.7710,0.610,-0.427,-9.033,-143.740,20.429,-20.253
2430,-0.3159,-0.6196,-0.7637,-0.427,-1.648,-5.066,-143.696,20.385,-20.198
2440,-0.3374,-0.5752,-0.7622,-1.160,-2.502,1.160,-143.696,20.407,-20.193
2450,-0.3667,-0.5049,-0.7559,0.671,-3.235,6.409,-143.729,20.484,-20.231
2465,-0.3940,-0.4824,-0.7466,5.371,-2.747,8.972,-143.729,20.594,-20.292
2470,-0.3843,-0.5161,-0.7466,9.399,-1.099,6.104,-143.668,20.660,-20.336
2480,-0.3530,-0.5762,-0.7344,8.728,-0.671,-0.305,-143.564,20.665,-20.330
2490,-0.3335,-0.6030,-0.7300,0.854,-2.869,-5.005,-143.503,20.643,-20.264
2500,-0.3296,-0.5996,-0.7319,-9.460,-5.432,-5.554,-143.536,20.643,-20.187
2510,-0.3306,-0.6074,-0.7524,-15.991,-7.019,-3.845,-143.646,20.660,-20.105
2520,-0.3306,-0.5981,-0.7729,-17.395,-6.165,-2.502,-143.784,20.671,-20.045
2530,-0.3447,-0.5156,-0.7847,-13.000,-4.883,-1.465,-143.926,20.698,-20.001
2540,-0.3652,-0.4644,-0.7896,0.000,-3.418,0.977,-143.976,20.742,-19.990
2550,-0.3550,-0.5439,-0.7637,17.334,-1.282,1.587,-143.811,20.759,-19.995
2560,-0.3462,-0.5835,-0.7344,25.208,-1.587,-0.061,-143.536,20.770,-19.984
2570,-0.3530,-0.5684,-0.7070,22.461,-4.700,0.244,-143.278,20.814,-19.957
2580,-0.3706,-0.5615,-0.6880,15.564,-6.592,2.319,-143.091,20.896,-19.935
2590,-0.3730,-0.6001,-0.6914,6.775,-6.165,2.747,-142.982,20.973,-19.918
2600,-0.3540,-0.6313,-0.6992,-3.906,-4.578,0.122,-142.960,21.006,-19.891
2610,-0.3398,-0.5933,-0.7227,-15.137,-3.845,-2.136,-143.069,21.017,-19.847
2620,-0.3398,-0.5991,-0.7461,-21.362,-2.991,-2.380,-143.251,21.011,-19.808
2630,-0.3467,-0.5596,-0.7549,-21.545,-1.709,-2.380,-143.454,21.000,-19.775
2640,-0.3730,-0.4839,-0.7607,-13.245,-1.709,0.305,-143.619,21.033,-19.770
2650,-0.3931,-0.4858,-0.7485,2.075,-0.488,3.601,-143.646,21.083,-19.797
2660,-0.4009,-0.4858,-0.7427,15.808,0.854,4.028,-143.536,21.132,-19.836
2670,-0.3809,-0.5430,-0.7197,23.682,1.709,2.014,-143.306,21.149,-19.863
2680,-0.3594,-0.6191,-0.6973,21.606,0.122,-0.305,-143.042,21.143,-19.863
2690,-0.3218,-0.7266,-0.6992,7.202,-1.953,-2.808,-142.866,21.110,-19.825
2700,-0.2993,-0.7246,-0.7158,-15.015,-3.967,-4.883,-142.905,21.066,-19.759
2710,-0.3159,-0.6343,-0.7437,-32.043,-5.493,-2.319,-143.168,21.061,-19.704
2720,-0.3521,-0.5410,-0.7734,-33.752,-3.967,3.296,-143.525,21.110,-19.704
2730,-0.3813,-0.4736,-0.7930,-19.531,-0.305,7.080,-143.795,21.165,-19.764
2740,-0.4053,-0.4097,-0.7842,3.418,2.258,8.057,-143.877,21.231,-19.847
2750,-0.4199,-0.3569,-0.7480,28.564,2.441,7.202,-143.729,21.308,-19.929
2760,-0.4146,-0.4458,-0.6997,47.180,1.526,6.653,-143.322,21.385,-19.995
2770,-0.3760,-0.6543,-0.6655,48.523,0.854,2.869,-142.778,21.401,-20.023
2780,-0.3228,-0.7798,-0.6509,28.015,-1.160,-5.981,-142.350,21.335,-19.968
2790,-0.2891,-0.7778,-0.6670,-6.470,-4.150,-11.963,-142.251,21.242,-19.836
2800,-0.2993,-0.6812,-0.6997,-37.048,-4.761,-10.071,-142.509,21.176,-19.720
2810,-0.3516,-0.5195,-0.7378,-48.706,-1.953,-1.892,-143.004,21.182,-19.693
2820,-0.4116,-0.3862,-0.7793,-36.743,3.418,7.629,-143.503,21.242,-19.781
2830,-0.4375,-0.3599,-0.7935,-9.155,9.460,11.658,-143.773,21.292,-19.940
2840,-0.4121,-0.4087,-0.7715,19.226,12.512,7.324,-143.718,21.270,-20.083
2850,-0.3730,-0.5469,-0.7417,34.912,10.925,0.000,-143.399,21.193,-20.154
2861,-0.3149,-0.7080,-0.7148,30.701,7.446,-7.080,-143.009,21.055,-20.138
2870,-0.2759,-0.7588,-0.7109,11.963,2.686,-12.146,-142.756,20.896,-20.050
2880,-0.2686,-0.7246,-0.7207,-9.705,-1.709,-9.705,-142.740,20.792,-19.957
2890,-0.3232,-0.5879,-0.7334,-24.719,-3.540,0.916,-142.965,20.808,-19.946
2900,-0.3975,-0.4736,-0.7642,-24.353,-1.404,12.451,-143.295,20.923,-20.039
2910,-0.4453,-0.3789,-0.7764,-10.681,3.174,16.602,-143.564,21.061,-20.204
2920,-0.4551,-0.3467,-0.7734,8.240,5.798,12.756,-143.657,21.160,-20.352
2930,-0.4082,-0.4980,-0.7573,24.658,7.751,3.296,-143.470,21.149,-20.429
2940,-0.3345,-0.6812,-0.7349,24.170,7.385,-9.216,-143.157,21.006,-20.396
2950,-0.2754,-0.7661,-0.7334,5.981,3.479,-18.005,-142.960,20.808,-20.264
2960,-0.2559,-0.7256,-0.7300,-15.259,-0.977,-17.822,-142.976,20.643,-20.105
2970,-0.3218,-0.5156,-0.7397,-28.259,-5.615,-6.104,-143.245,20.638,-20.017
2980,-0.4155,-0.4087,-0.7598,-20.020,-4.395,9.521,-143.547,20.781,-20.072
2990,-0.4424,-0.4004,-0.7754,2.258,2.563,14.771,-143.668,20.907,-20.215
3000,-0.4004,-0.4824,-0.7729,21.057,7.568,7.202,-143.542,20.918,-20.325
3010,-0.3296,-0.6235,-0.7480,26.672,7.690,-5.737,-143.245,20.803,-20.325
3020,-0.2612,-0.7080,-0.7275,14.648,3.479,-16.174,-142.982,20.616,-20.209
3030,-0.2363,-0.6963,-0.7344,-3.479,-2.014,-18.372,-142.894,20.446,-20.039
3040,-0.2500,-0.6768,-0.7290,-13.733,-4.272,-12.329,-142.927,20.341,-19.907
3050,-0.3179,-0.5273,-0.7329,-17.578,-3.723,-0.732,-143.102,20.358,-19.874
3060,-0.4106,-0.3828,-0.7471,-6.775,-0.488,10.559,-143.300,20.484,-19.962
3070,-0.4570,-0.3872,-0.7563,15.076,5.737,13.062,-143.295,20.594,-20.110
3080,-0.4268,-0.5396,-0.7490,33.691,11.780,3.479,-143.009,20.561,-20.215
3090,-0.3501,-0.7153,-0.7271,36.377,12.573,-10.254,-142.570,20.385,-20.209
3100,-0.2930,-0.7876,-0.7192,17.578,7.812,-16.296,-142.262,20.176,-20.121
3110,-0.2856,-0.6616,-0.7432,-6.897,1.892,-10.498,-142.267,20.056,-20.045
3120,-0.3184,-0.6050,-0.7690,-19.714,0.671,3.601,-142.471,20.050,-20.078
3130,-0.3774,-0.5117,-0.7842,-23.193,4.578,15.381,-142.795,20.127,-20.237
3140,-0.4272,-0.3857,-0.8271,-17.395,9.277,16.907,-143.163,20.204,-20.440
3150,-0.4253,-0.4053,-0.8276,-2.625,12.024,9.583,-143.350,20.215,-20.599
3160,-0.3955,-0.5112,-0.8013,9.155,9.705,-2.930,-143.311,20.143,-20.638
3170,-0.3696,-0.5854,-0.7754,10.742,2.441,-15.381,-143.163,20.039,-20.522
3180,-0.3462,-0.6211,-0.7388,6.042,-6.592,-20.691,-142.998,19.968,-20.303
3190,-0.3496,-0.6372,-0.7085,-0.427,-13.733,-18.066,-142.866,19.968,-20.061
3200,-0.3398,-0.6372,-0.7090,-6.897,-15.808,-13.184,-142.817,20.012,-19.847
3210,-0.3398,-0.5947,-0.7187,-10.376,-13.977,-8.484,-142.839,20.072,-19.687
3220,-0.3345,-0.5366,-0.7349,-9.033,-9.583,-4.944,-142.905,20.116,-19.583
3230,-0.3286,-0.5386,-0.7383,-1.953,-4.333,-3.479,-142.916,20.127,-19.523
3240,-0.3262,-0.5366,-0.7183,6.409,-0.916,-4.822,-142.839,20.105,-19.479
3250,-0.3184,-0.5854,-0.6953,13.367,-0.427,-6.226,-142.657,20.061,-19.424
3260,-0.3013,-0.6821,-0.6636,13.367,-0.427,-6.226,-142.421,20.006,-19.369
3270,-0.2969,-0.7187,-0.6621,1.343,-1.160,-4.578,-142.295,19.957,-19.319
3280,-0.2954,-0.7109,-0.6772,-14.771,-0.305,-1.221,-142.350,19.918,-19.308
3290,-0.3096,-0.6191,-0.7017,-27.954,2.014,3.967,-142.603,19.907,-19.358
3300,-0.3589,-0.4463,-0.7393,-29.907,5.493,10.620,-143.004,19.957,-19.479
3310,-0.4019,-0.3618,-0.7778,-13.123,10.742,13.672,-143.317,20.006,-19.666
3320,-0.3818,-0.3950,-0.7773,12.512,15.198,10.254,-143.355,19.979,-19.852
3330,-0.3364,-0.5356,-0.7612,30.029,15.747,2.075,-143.113,19.869,-19.968
3340,-0.2798,-0.6885,-0.7432,28.870,11.780,-7.751,-142.773,19.682,-19.979
3350,-0.2539,-0.7139,-0.7334,12.146,4.639,-14.404,-142.548,19.501,-19.885
3361,-0.2715,-0.6860,-0.7305,-5.188,-2.441,-12.695,-142.504,19.402,-19.764
3370,-0.3174,-0.6357,-0.7280,-15.991,-5.737,-3.601,-142.603,19.413,-19.693
3380,-0.3735,-0.5493,-0.7397,-18.433,-4.883,5.859,-142.800,19.512,-19.715
3390,-0.4185,-0.4644,-0.7495,-12.024,-2.502,11.047,-142.998,19.660,-19.792
3400,-0.4341,-0.4521,-0.7461,-2.747,1.221,11.047,-143.119,19.781,-19.891
3410,-0.4131,-0.4819,-0.7554,5.432,5.188,4.883,-143.130,19.819,-19.968
3420,-0.3486,-0.6147,-0.7598,10.925,8.667,-4.639,-143.009,19.720,-19.984
3430,-0.2783,-0.7432,-0.7656,5.859,10.376,-12.207,-142.866,19.517,-19.946
3440,-0.2480,-0.7646,-0.7896,-8.057,9.216,-12.695,-142.861,19.297,-19.896
3450,-0.2598,-0.7017,-0.8018,-20.691,6.287,-4.822,-143.026,19.166,-19.896
3460,-0.3276,-0.5479,-0.8066,-24.231,2.869,8.118,-143.322,19.188,-19.984
3470,-0.4019,-0.4185,-0.7998,-13.489,0.610,19.409,-143.597,19.341,-20.149
3480,-0.4473,-0.3706,-0.7871,5.005,-0.183,23.071,-143.723,19.561,-20.347
3490,-0.4253,-0.4365,-0.7676,21.362,0.061,16.541,-143.630,19.715,-20.490
3500,-0.3496,-0.6328,-0.7422,26.184,-0.488,1.831,-143.333,19.731,-20.500
3510,-0.2734,-0.7485,-0.7402,10.803,-4.028,-13.550,-143.091,19.633,-20.363
3520,-0.2378,-0.7681,-0.7534,-13.000,-8.728,-21.606,-143.053,19.501,-20.121
3530,-0.2666,-0.6396,-0.7622,-29.480,-12.451,-17.761,-143.240,19.451,-19.891
3540,-0.3428,-0.4854,-0.7783,-27.222,-12.878,-3.601,-143.520,19.539,-19.781
3550,-0.3999,-0.4238,-0.7817,-5.066,-7.935,10.132,-143.663,19.709,-19.814
3560,-0.4150,-0.3999,-0.7632,21.240,-2.991,16.113,-143.580,19.891,-19.935
3570,-0.4038,-0.4609,-0.7236,39.307,-1.282,15.137,-143.267,20.039,-20.056
3580,-0.3555,-0.6118,-0.6919,40.771,-1.770,7.996,-142.839,20.110,-20.110
3590,-0.2983,-0.7275,-0.6685,23.010,-3.235,-2.930,-142.493,20.089,-20.067
3600,-0.2607,-0.7583,-0.6826,-6.287,-5.066,-10.742,-142.405,20.006,-19.946
3610,-0.2661,-0.6948,-0.7070,-32.959,-5.310,-10.437,-142.625,19.935,-19.819
3620,-0.3096,-0.5640,-0.7490,-46.326,-4.028,-2.563,-143.069,19.935,-19.775
3630,-0.3569,-0.4824,-0.7881,-39.856,-0.305,6.714,-143.536,19.990,-19.830
3640,-0.3931,-0.4043,-0.8110,-19.165,2.869,11.047,-143.866,20.067,-19.940
3650,-0.3945,-0.3823,-0.8022,8.667,3.540,10.071,-143.921,20.132,-20.050
3660,-0.3726,-0.4966,-0.7549,32.471,1.709,5.554,-143.646,20.176,-20.110
3670,-0.3335,-0.6323,-0.7212,38.574,-1.526,-0.671,-143.212,20.171,-20.094
3680,-0.2939,-0.7271,-0.7104,28.931,-4.333,-5.737,-142.811,20.132,-20.017
3690,-0.2676,-0.7568,-0.7075,9.399,-5.737,-6.958,-142.586,20.078,-19.918
3700,-0.2915,-0.6450,-0.7124,-11.719,-6.287,-1.465,-142.635,20.089,-19.869
3710,-0.3555,-0.4980,-0.7358,-21.057,-5.554,8.911,-142.894,20.204,-19.907
3720,-0.3994,-0.4399,-0.7534,-14.221,-1.892,15.442,-143.141,20.352,-20.028
3730,-0.4082,-0.4180,-0.7573,-1.526,0.244,14.221,-143.278,20.484,-20.149
3740,-0.3892,-0.4927,-0.7461,9.094,0.305,6.775,-143.240,20.555,-20.209
3750,-0.3408,-0.6201,-0.7314,11.902,-0.671,-4.456,-143.075,20.522,-20.165
3760,-0.3076,-0.6631,-0.7319,3.723,-2.197,-13.550,-142.938,20.429,-20.039
3770,-0.3081,-0.6235,-0.7388,-3.479,-2.747,-15.076,-142.894,20.330,-19.891
3780,-0.3345,-0.6006,-0.7480,-5.066,-1.709,-7.568,-142.899,20.292,-19.814
3790,-0.3564,-0.5566,-0.7520,-1.526,1.282,1.526,-142.927,20.292,-19.836
3800,-0.3833,-0.4639,-0.7471,6.287,1.648,7.690,-142.943,20.358,-19.913
3810,-0.4004,-0.4580,-0.7310,15.564,0.854,10.864,-142.872,20.462,-20.012
3820,-0.3804,-0.5269,-0.7080,20.508,0.732,6.897,-142.696,20.528,-20.072
3830,-0.3477,-0.6152,-0.6938,16.357,-0.061,-1.282,-142.487,20.517,-20.061
3840,-0.3237,-0.6484,-0.6982,2.014,-0.793,-7.996,-142.388,20.462,-19.990
3850,-0.3071,-0.6875,-0.7236,-13.855,-0.061,-10.864,-142.438,20.363,-19.896
3861,-0.3540,-0.4951,-0.7759,-27.527,2.258,-4.150,-142.751,20.325,-19.880
3870,-0.3701,-0.5229,-0.7988,-13.794,5.249,3.113,-142.949,20.314,-19.940
3880,-0.3472,-0.5552,-0.7954,1.892,7.568,3.479,-142.982,20.264,-20.017
3890,-0.3394,-0.5381,-0.7778,12.573,4.944,0.793,-142.894,20.226,-20.056
3900,-0.3306,-0.5879,-0.7510,18.738,0.671,0.000,-142.696,20.209,-20.061
3910,-0.3394,-0.6211,-0.7227,17.578,-2.136,0.122,-142.487,20.220,-20.045
3920,-0.3501,-0.6196,-0.7163,10.681,-3.540,1.038,-142.339,20.259,-20.034
3930,-0.3691,-0.5898,-0.7271,1.587,-3.235,3.052,-142.311,20.314,-20.039
3940,-0.3657,-0.6167,-0.7422,-5.859,0.000,3.479,-142.361,20.341,-20.067
3950,-0.3403,-0.6304,-0.7734,-12.390,4.028,0.549,-142.482,20.297,-20.099
3960,-0.3271,-0.5664,-0.7935,-15.076,5.737,-1.465,-142.657,20.226,-20.121
3970,-0.3442,-0.4824,-0.7954,-9.583,5.493,0.244,-142.828,20.182,-20.160
3980,-0.3584,-0.4985,-0.7808,4.333,5.127,3.235,-142.850,20.171,-20.220
3990,-0.3540,-0.5454,-0.7520,17.334,3.296,3.479,-142.707,20.171,-20.270
4000,-0.3555,-0.5508,-0.7314,20.325,-1.099,2.197,-142.515,20.204,-20.281
4010,-0.3540,-0.5923,-0.7168,15.503,-5.127,1.160,-142.328,20.259,-20.259
4020,-0.3394,-0.6587,-0.7178,5.005,-6.592,-1.221,-142.213,20.292,-20.204
4030,-0.3252,-0.6699,-0.7261,-10.376,-6.287,-3.052,-142.245,20.303,-20.138
4040,-0.3242,-0.6216,-0.7495,-23.254,-5.981,-1.892,-142.438,20.319,-20.083
4050,-0.3320,-0.5698,-0.7666,-26.123,-4.639,0.610,-142.696,20.347,-20.061
4060,-0.3413,-0.5347,-0.7754,-19.592,-2.808,2.441,-142.916,20.380,-20.061
4070,-0.3574,-0.4966,-0.7646,-6.592,-2.258,4.211,-143.031,20.435,-20.083
4080,-0.3721,-0.4990,-0.7261,7.019,-3.418,6.042,-142.998,20.522,-20.110
4090,-0.3511,-0.5947,-0.7031,12.024,-4.944,6.775,-142.855,20.605,-20.138
4100,-0.3188,-0.7266,-0.6660,2.502,-6.714,5.432,-142.729,20.665,-20.143
4110,-0.3105,-0.7280,-0.6675,-24.048,-9.766,4.883,-142.855,20.737,-20.121
4120,-0.3237,-0.6484,-0.7085,-53.345,-9.460,7.568,-143.333,20.836,-20.121
4130,-0.3623,-0.5239,-0.7607,-69.031,-5.188,12.329,-144.064,20.956,-20.193
4140,-0.4111,-0.3584,-0.8164,-62.866,2.319,15.015,-144.860,21.061,-20.341
4150,-0.4531,-0.2197,-0.8765,-33.386,9.827,13.611,-145.464,21.116,-20.522
4160,-0.4136,-0.2666,-0.8721,13.855,15.137,5.615,-145.552,21.055,-20.660
4170,-0.3521,-0.4805,-0.7964,51.575,12.268,-4.272,-145.085,20.929,-20.698
4180,-0.3013,-0.6685,-0.7319,57.983,1.587,-11.658,-144.404,20.814,-20.605
4190,-0.2861,-0.7393,-0.6792,38.391,-11.353,-14.954,-143.839,20.770,-20.407
4200,-0.2998,-0.6890,-0.6509,6.958,-20.813,-11.169,-143.586,20.836,-20.176
4210,-0.3389,-0.6475,-0.6509,-21.729,-22.339,-0.549,-143.663,21.006,-20.028
4220,-0.3926,-0.5571,-0.6929,-40.405,-15.564,7.263,-144.025,21.198,-19.995
4230,-0.4189,-0.4458,-0.7749,-42.480,-4.639,6.287,-144.514,21.313,-20.017
4240,-0.4033,-0.4341,-0.8306,-27.527,8.301,-0.122,-144.888,21.264,-20.072
4250,-0.3599,-0.4644,-0.8433,-3.784,18.250,-8.789,-144.998,21.061,-20.105
4260,-0.3296,-0.5220,-0.8306,19.348,20.386,-11.902,-144.844,20.803,-20.127
4270,-0.3047,-0.6001,-0.8003,33.936,17.029,-8.850,-144.498,20.577,-20.154
4280,-0.3145,-0.6064,-0.7549,39.551,10.437,-2.808,-144.091,20.451,-20.193
4290,-0.3291,-0.6270,-0.7280,35.583,3.662,4.211,-143.707,20.429,-20.253
4300,-0.3506,-0.6191,-0.7046,23.743,-1.343,9.399,-143.448,20.495,-20.325
4310,-0.3853,-0.5591,-0.7070,7.202,-5.005,11.230,-143.383,20.627,-20.391
4320,-0.4028,-0.5444,-0.7197,-6.775,-4.822,8.545,-143.459,20.753,-20.435
4330,-0.3931,-0.4907,-0.7485,-16.663,-2.319,1.587,-143.657,20.808,-20.435
4340,-0.3721,-0.5127,-0.7749,-17.151,-0.244,-3.723,-143.844,20.797,-20.396
4350,-0.3335,-0.5747,-0.7783,-12.024,1.831,-7.507,-143.937,20.720,-20.347
4361,-0.3394,-0.5366,-0.7720,-8.484,0.549,-6.836,-144.014,20.671,-20.292
4370,-0.3486,-0.5630,-0.7554,-5.554,-1.709,-0.183,-144.058,20.676,-20.275
4380,-0.3589,-0.6270,-0.7349,-8.118,-3.296,5.310,-144.102,20.731,-20.303
4390,-0.3623,-0.5845,-0.7534,-18.494,-5.127,6.042,-144.278,20.808,-20.325
4400,-0.3882,-0.4658,-0.7847,-25.085,-6.287,5.493,-144.575,20.912,-20.330
4410,-0.4160,-0.4121,-0.8149,-16.724,-3.845,3.906,-144.833,21.006,-20.341
4420,-0.3911,-0.4155,-0.8403,4.517,1.038,-1.709,-144.871,21.000,-20.330
4430,-0.3325,-0.5947,-0.8003,27.588,2.441,-7.019,-144.569,20.918,-20.286
4440,-0.2910,-0.7158,-0.7710,29.846,-1.038,-10.315,-144.163,20.814,-20.187
4450,-0.2798,-0.6836,-0.7466,14.404,-7.568,-9.949,-143.910,20.759,-20.056
4460,-0.3306,-0.5425,-0.7104,0.671,-13.550,-2.136,-143.855,20.852,-19.951
4470,-0.4004,-0.4800,-0.6929,-3.479,-15.015,8.972,-143.893,21.072,-19.935
4480,-0.4341,-0.4849,-0.7061,-0.427,-10.010,11.658,-143.926,21.275,-19.973
4490,-0.4023,-0.4932,-0.7236,3.357,-3.601,3.052,-143.915,21.357,-19.979
4500,-0.3618,-0.5234,-0.7285,4.578,-0.488,-6.653,-143.849,21.330,-19.918
4510,-0.3223,-0.6641,-0.7368,2.136,1.953,-11.963,-143.740,21.209,-19.825
4520,-0.3018,-0.6436,-0.7417,-6.714,2.869,-13.916,-143.723,21.066,-19.720
4530,-0.3218,-0.5874,-0.7485,-10.315,1.892,-7.690,-143.784,20.978,-19.666
4540,-0.3325,-0.6157,-0.7310,-8.423,2.808,2.014,-143.844,20.951,-19.704
4550,-0.3887,-0.4536,-0.7290,-8.362,0.061,9.033,-143.998,21.039,-19.781
4560,-0.4468,-0.3569,-0.7393,-1.099,-2.319,13.367,-144.146,21.209,-19.885
4570,-0.4243,-0.4692,-0.7358,10.864,0.549,9.277,-144.102,21.308,-19.968
4580,-0.3306,-0.6797,-0.7446,12.268,4.456,-4.150,-143.910,21.215,-19.957
4590,-0.2441,-0.7915,-0.7744,-5.127,4.944,-16.602,-143.828,20.989,-19.847
4600,-0.2021,-0.7803,-0.8013,-27.283,2.502,-20.874,-143.959,20.742,-19.682
4610,-0.2446,-0.5928,-0.8042,-39.856,-1.587,-12.085,-144.311,20.616,-19.567
4620,-0.3726,-0.3735,-0.8057,-29.480,-4.822,6.287,-144.717,20.709,-19.594
4630,-0.4619,-0.3120,-0.7876,2.808,-1.648,20.081,-144.882,20.918,-19.759
4640,-0.4790,-0.3047,-0.7607,36.072,3.540,21.362,-144.734,21.105,-19.968
4650,-0.4365,-0.4687,-0.7231,56.763,6.714,13.672,-144.250,21.187,-20.127
4660,-0.3555,-0.6748,-0.6880,50.720,7.080,0.122,-143.679,21.121,-20.171
4670,-0.2930,-0.7363,-0.6743,20.264,3.479,-13.062,-143.333,20.967,-20.083
4680,-0.2803,-0.6812,-0.6963,-15.442,-2.014,-17.273,-143.355,20.830,-19.918
4690,-0.3018,-0.6260,-0.7349,-38.757,-2.991,-12.085,-143.657,20.748,-19.797
4700,-0.3408,-0.5190,-0.7817,-43.762,0.793,-3.662,-144.108,20.715,-19.770
4710,-0.4048,-0.3594,-0.8213,-29.358,4.639,4.456,-144.542,20.737,-19.836
4720,-0.4346,-0.3618,-0.8257,-0.732,8.179,8.789,-144.712,20.775,-19.968
4730,-0.3965,-0.5146,-0.7998,24.536,10.437,4.395,-144.531,20.731,-20.067
4740,-0.3315,-0.6416,-0.7695,31.250,7.751,-5.066,-144.179,20.616,-20.072
4750,-0.2935,-0.6875,-0.7383,20.325,0.671,-10.071,-143.877,20.511,-19.990
4760,-0.2842,-0.7036,-0.7231,2.136,-5.371,-8.118,-143.740,20.457,-19.885
4770,-0.3232,-0.6143,-0.7261,-15.503,-8.057,-0.549,-143.833,20.500,-19.830
4780,-0.3853,-0.4883,-0.7495,-22.217,-7.080,8.240,-144.097,20.632,-19.858
4790,-0.4170,-0.4277,-0.7744,-13.855,-2.441,11.536,-144.333,20.764,-19.940
4800,-0.4199,-0.3848,-0.7910,0.183,1.770,7.568,-144.454,20.841,-20.017
4810,-0.3848,-0.4995,-0.7852,14.160,3.967,-0.183,-144.355,20.825,-20.039
4820,-0.3066,-0.7192,-0.7759,16.418,4.883,-10.437,-144.097,20.682,-19.979
4830,-0.2451,-0.7808,-0.7822,-0.427,3.113,-18.250,-143.965,20.468,-19.841
4840,-0.2505,-0.6968,-0.7876,-18.311,-0.427,-15.686,-144.042,20.308,-19.704
4850,-0.3188,-0.5068,-0.7773,-23.560,-3.723,-2.319,-144.289,20.314,-19.660
4861,-0.4258,-0.3306,-0.7686,-9.583,-4.333,13.794,-144.542,20.495,-19.753
4870,-0.4932,-0.2437,-0.7529,18.860,-2.014,21.729,-144.591,20.748,-19.929
4880,-0.4863,-0.3291,-0.7334,45.715,0.610,17.273,-144.305,20.945,-20.083
4890,-0.3994,-0.6372,-0.7163,54.077,4.028,1.282,-143.723,20.940,-20.121
4900,-0.2749,-0.8506,-0.7178,29.053,5.676,-20.691,-143.245,20.704,-19.979
4910,-0.1968,-0.8818,-0.7617,-14.709,3.418,-33.691,-143.174,20.363,-19.709
4920,-0.2017,-0.7471,-0.8145,-51.575,0.671,-28.748,-143.547,20.089,-19.468
4930,-0.2939,-0.4858,-0.8481,-63.293,-0.732,-9.827,-144.207,20.001,-19.380
4940,-0.4189,-0.2871,-0.8721,-40.039,-0.183,10.864,-144.811,20.110,-19.473
4950,-0.4800,-0.2373,-0.8501,2.136,0.366,20.630,-145.047,20.314,-19.655
4960,-0.4731,-0.2803,-0.7920,40.161,-4.089,15.808,-144.844,20.522,-19.770
4970,-0.4194,-0.4556,-0.7192,59.753,-13.550,0.793,-144.256,20.698,-19.693
4980,-0.3506,-0.6846,-0.6548,51.575,-23.071,-18.372,-143.531,20.770,-19.391
4990,-0.2866,-0.7964,-0.6328,18.860,-30.273,-35.950,-143.020,20.753,-18.885
5000,-0.2729,-0.7524,-0.6382,-19.409,-33.325,-42.175,-142.883,20.709,-18.314
5010,-0.2944,-0.6738,-0.6528,-46.143,-28.687,-35.645,-143.080,20.693,-17.825
5020,-0.3491,-0.5410,-0.6870,-52.002,-17.578,-22.461,-143.476,20.709,-17.518
5030,-0.3926,-0.4424,-0.7236,-36.804,-3.967,-8.606,-143.855,20.731,-17.419
5040,-0.3848,-0.4795,-0.7349,-10.498,8.301,-0.183,-144.009,20.693,-17.468
5050,-0.3374,-0.5786,-0.7187,10.254,15.625,1.465,-143.915,20.566,-17.584
5060,-0.2871,-0.6992,-0.7227,13.367,17.395,0.671,-143.745,20.385,-17.693
5070,-0.2612,-0.7305,-0.7261,3.479,16.541,0.671,-143.657,20.198,-17.809
5080,-0.2822,-0.6562,-0.7319,-6.165,15.320,3.784,-143.707,20.056,-17.935
5090,-0.3394,-0.5142,-0.7285,-8.240,15.320,11.536,-143.866,20.012,-18.133
5100,-0.4058,-0.4092,-0.7349,1.587,17.151,20.752,-144.020,20.050,-18.419
5110,-0.4180,-0.4292,-0.7466,18.921,20.996,23.254,-144.003,20.078,-18.748
5120,-0.3833,-0.5562,-0.7441,29.541,24.048,17.639,-143.806,20.012,-19.050
5130,-0.3315,-0.6606,-0.7456,23.254,22.217,7.996,-143.597,19.863,-19.259
5140,-0.3042,-0.6504,-0.7539,3.845,14.954,0.122,-143.542,19.715,-19.352
5150,-0.3135,-0.5874,-0.7646,-12.146,7.629,-2.197,-143.663,19.627,-19.385
5160,-0.3413,-0.5596,-0.7837,-17.151,3.418,0.977,-143.849,19.600,-19.413
5170,-0.3545,-0.5601,-0.7969,-12.878,3.357,3.357,-144.003,19.600,-19.462
5180,-0.3613,-0.4976,-0.8086,-6.165,3.174,4.028,-144.130,19.611,-19.517
5190,-0.3721,-0.4697,-0.8003,3.601,1.465,4.822,-144.163,19.649,-19.567
5200,-0.3667,-0.5088,-0.7827,13.550,0.000,3.845,-144.069,19.687,-19.600
5210,-0.3320,-0.6147,-0.7749,17.578,-1.221,-0.610,-143.866,19.682,-19.589
5220,-0.2798,-0.6978,-0.7651,12.268,-2.686,-6.836,-143.657,19.622,-19.512
5230,-0.2554,-0.7441,-0.7632,-1.587,-5.127,-8.911,-143.558,19.545,-19.407
5240,-0.2822,-0.6777,-0.7529,-17.273,-6.775,-5.310,-143.646,19.528,-19.319
5250,-0.3701,-0.4673,-0.7612,-24.109,-7.935,5.249,-143.926,19.655,-19.314
5260,-0.4312,-0.4009,-0.7607,-11.841,-3.967,16.479,-144.168,19.852,-19.429
5270,-0.4399,-0.3525,-0.7515,8.057,2.502,19.531,-144.256,20.023,-19.611
5280,-0.4204,-0.3530,-0.7451,26.245,5.615,16.296,-144.163,20.143,-19.786
5290,-0.3574,-0.5386,-0.7295,35.645,7.019,7.874,-143.839,20.149,-19.902
5300,-0.2778,-0.7295,-0.7119,23.437,6.165,-5.676,-143.509,20.017,-19.891
5310,-0.2402,-0.7427,-0.7202,-5.737,1.770,-17.029,-143.427,19.830,-19.753
5320,-0.2490,-0.6938,-0.7471,-33.752,-1.587,-18.982,-143.641,19.671,-19.583
5330,-0.2979,-0.5396,-0.7705,-47.180,-1.587,-12.207,-144.080,19.589,-19.468
5340,-0.3564,-0.4419,-0.8110,-37.354,1.282,-0.732,-144.525,19.594,-19.473
5350,-0.3770,-0.4502,-0.8428,-11.902,7.629,6.592,-144.750,19.589,-19.572
5361,-0.3623,-0.4307,-0.8447,15.259,11.108,6.104,-144.723,19.545,-19.693
5370,-0.3281,-0.5078,-0.8164,35.767,9.705,3.601,-144.432,19.479,-19.786
5380,-0.2871,-0.6519,-0.7822,41.260,6.042,-0.183,-143.992,19.396,-19.819
5390,-0.2598,-0.7139,-0.7534,29.602,0.427,-3.967,-143.613,19.314,-19.792
5400,-0.2549,-0.7227,-0.7417,9.216,-4.761,-4.761,-143.421,19.270,-19.720
5410,-0.2896,-0.6440,-0.7368,-11.963,-7.385,-0.732,-143.476,19.297,-19.666
5420,-0.3716,-0.5205,-0.7490,-23.804,-7.202,7.019,-143.734,19.424,-19.682
5430,-0.4326,-0.4570,-0.7612,-19.470,-2.930,11.536,-144.009,19.578,-19.764
5440,-0.4614,-0.4229,-0.7686,-7.812,1.648,11.658,-144.196,19.715,-19.874
5450,-0.4521,-0.4204,-0.7710,4.456,4.944,8.057,-144.256,19.797,-19.973
5460,-0.3945,-0.5361,-0.7539,13.489,6.287,1.404,-144.141,19.786,-20.023
5470,-0.3340,-0.6494,-0.7432,9.460,4.639,-5.615,-143.987,19.709,-20.006
5480,-0.2949,-0.6890,-0.7554,-4.211,1.343,-10.376,-143.937,19.600,-19.924
5490,-0.2900,-0.6450,-0.7607,-17.029,-1.465,-9.949,-144.036,19.523,-19.830
5500,-0.3247,-0.5474,-0.7705,-22.095,-3.174,-3.662,-144.240,19.517,-19.775
5510,-0.3770,-0.4453,-0.7681,-13.245,-3.357,3.174,-144.432,19.600,-19.786
5520,-0.3975,-0.4448,-0.7583,5.798,-3.052,6.348,-144.437,19.709,-19.819
5530,-0.3667,-0.5620,-0.7319,20.203,-3.052,3.174,-144.223,19.770,-19.830
5540,-0.3096,-0.6968,-0.7187,19.226,-4.395,-4.089,-143.926,19.759,-19.764
5550,-0.2646,-0.7383,-0.7134,2.502,-6.836,-9.277,-143.762,19.704,-19.644
5560,-0.2593,-0.7139,-0.7197,-16.174,-8.423,-8.118,-143.795,19.671,-19.523
5570,-0.2969,-0.5815,-0.7256,-26.733,-7.874,-0.488,-144.020,19.709,-19.468
5580,-0.3594,-0.4561,-0.7388,-22.339,-5.310,10.071,-144.300,19.841,-19.523
5590,-0.3945,-0.3901,-0.7397,-4.700,-0.549,16.296,-144.470,19.995,-19.660
5600,-0.3994,-0.4043,-0.7427,14.343,3.113,15.503,-144.448,20.110,-19.814
5610,-0.3599,-0.5391,-0.7295,26.001,5.981,7.996,-144.218,20.121,-19.918
5620,-0.3052,-0.6699,-0.7222,20.508,7.019,-1.465,-143.959,20.028,-19.951
5630,-0.2773,-0.6826,-0.7373,1.282,6.714,-6.897,-143.871,19.891,-19.929
5640,-0.2739,-0.6240,-0.7617,-14.771,6.897,-5.493,-143.981,19.759,-19.929
5650,-0.2930,-0.5771,-0.7871,-21.729,8.484,2.563,-144.223,19.677,-20.001
5660,-0.3232,-0.5132,-0.8149,-19.348,10.132,10.132,-144.498,19.638,-20.154
5670,-0.3452,-0.4663,-0.8281,-9.338,8.972,13.672,-144.712,19.649,-20.325
5680,-0.3618,-0.4448,-0.8169,2.197,5.066,13.000,-144.805,19.698,-20.473
5690,-0.3672,-0.4653,-0.7974,12.146,-0.122,8.667,-144.756,19.770,-20.544
5700,-0.3447,-0.5640,-0.7773,17.090,-3.845,1.831,-144.580,19.814,-20.539
5710,-0.3110,-0.6401,-0.7690,13.123,-6.165,-5.066,-144.377,19.808,-20.457
5720,-0.2803,-0.6924,-0.7642,3.052,-7.324,-8.301,-144.245,19.770,-20.336
5730,-0.2974,-0.6230,-0.7661,-9.460,-8.667,-5.249,-144.267,19.781,-20.237
5740,-0.3623,-0.4648,-0.7749,-13.916,-9.155,4.028,-144.448,19.896,-20.215
5750,-0.4238,-0.4023,-0.7725,-2.319,-6.042,12.756,-144.575,20.083,-20.292
5760,-0.4351,-0.4224,-0.7749,15.015,-0.793,13.977,-144.536,20.231,-20.407
5770,-0.3838,-0.5352,-0.7603,26.978,2.808,7.324,-144.300,20.270,-20.490
5780,-0.3164,-0.6870,-0.7534,22.766,3.174,-1.404,-144.009,20.209,-20.495
5790,-0.2710,-0.7490,-0.7612,1.770,1.831,-8.240,-143.888,20.083,-20.435
5800,-0.2632,-0.7109,-0.7646,-19.653,-0.610,-9.338,-143.981,19.973,-20.352
5810,-0.3003,-0.5713,-0.7778,-31.494,-3.174,-1.160,-144.283,19.968,-20.319
5820,-0.3584,-0.4614,-0.7900,-27.161,-2.380,10.315,-144.630,20.061,-20.396
5830,-0.4082,-0.3647,-0.7939,-9.521,-0.671,17.090,-144.882,20.215,-20.539
5840,-0.4219,-0.3604,-0.7900,12.207,0.122,17.212,-144.915,20.369,-20.693
5850,-0.3901,-0.4727,-0.7656,28.564,-0.061,9.583,-144.695,20.451,-20.775
5861,-0.3335,-0.6196,-0.7334,28.381,-1.953,-1.343,-144.360,20.451,-20.748
5870,-0.3032,-0.6445,-0.7207,12.146,-5.859,-9.033,-144.135,20.413,-20.638
5880,-0.2886,-0.6533,-0.7256,-4.883,-8.911,-10.071,-144.075,20.385,-20.495
5890,-0.3032,-0.6138,-0.7227,-18.494,-9.338,-5.371,-144.179,20.402,-20.385
5900,-0.3628,-0.4722,-0.7446,-24.170,-9.216,2.380,-144.437,20.511,-20.352
5910,-0.3955,-0.4453,-0.7559,-15.625,-5.676,8.057,-144.657,20.643,-20.385
5920,-0.4043,-0.4243,-0.7573,-3.540,-2.136,7.690,-144.772,20.748,-20.440
5930,-0.3853,-0.4810,-0.7539,6.775,-0.244,2.686,-144.739,20.786,-20.462
5940,-0.3364,-0.5986,-0.7437,10.071,1.160,-4.761,-144.591,20.737,-20.429
5950,-0.2969,-0.6729,-0.7485,2.625,0.916,-10.376,-144.470,20.627,-20.341
5960,-0.2681,-0.7061,-0.7539,-6.836,0.000,-11.230,-144.426,20.500,-20.242
5970,-0.2861,-0.6255,-0.7627,-14.465,-2.136,-5.737,-144.509,20.446,-20.182
5980,-0.3477,-0.4932,-0.7671,-13.550,-4.089,4.456,-144.679,20.506,-20.193
5990,-0.4043,-0.4106,-0.7622,0.305,-3.296,13.245,-144.778,20.654,-20.292
6000,-0.4243,-0.3843,-0.7471,18.127,-1.404,15.808,-144.723,20.819,-20.418
6010,-0.4082,-0.4468,-0.7153,31.128,0.000,11.108,-144.481,20.929,-20.517
6020,-0.3745,-0.5586,-0.6963,30.823,0.122,2.808,-144.152,20.967,-20.539
6030,-0.3384,-0.6816,-0.6909,15.015,0.000,-6.226,-143.899,20.912,-20.490
6040,-0.3076,-0.7007,-0.7153,-8.240,0.183,-13.245,-143.855,20.797,-20.374
6050,-0.2998,-0.6782,-0.7446,-27.771,0.671,-13.367,-144.031,20.671,-20.264
6060,-0.3242,-0.5845,-0.7773,-36.682,2.258,-7.507,-144.366,20.583,-20.209
6070,-0.3672,-0.4648,-0.8105,-29.236,4.028,0.977,-144.723,20.566,-20.248
6080,-0.4067,-0.3833,-0.8159,-7.812,4.883,8.911,-144.943,20.616,-20.352
6090,-0.4175,-0.3745,-0.7920,18.799,4.517,11.353,-144.899,20.693,-20.479
6100,-0.3940,-0.4780,-0.7534,38.452,2.991,7.507,-144.575,20.742,-20.566
6110,-0.3530,-0.6221,-0.7256,40.955,0.671,0.244,-144.119,20.731,-20.572
6120,-0.3110,-0.7207,-0.7070,26.062,-1.770,-7.324,-143.734,20.671,-20.495
6130,-0.2876,-0.7231,-0.7090,0.916,-4.028,-10.742,-143.591,20.588,-20.380
6140,-0.3174,-0.6152,-0.7212,-22.095,-5.005,-6.348,-143.740,20.572,-20.292
6150,-0.3926,-0.4517,-0.7461,-30.945,-3.357,3.540,-144.102,20.654,-20.303
6160,-0.4507,-0.3296,-0.7495,-19.958,0.732,11.597,-144.459,20.797,-20.407
6170,-0.4883,-0.2310,-0.7441,0.305,2.930,14.221,-144.684,20.967,-20.550
6180,-0.4575,-0.4253,-0.7329,21.606,5.249,8.545,-144.564,21.050,-20.654
6190,-0.3437,-0.7441,-0.7246,22.766,8.484,-8.423,-144.229,20.907,-20.632
6200,-0.2480,-0.8452,-0.7485,-3.601,7.263,-26.245,-144.069,20.610,-20.451
6210,-0.1943,-0.8291,-0.7910,-34.546,4.517,-32.227,-144.223,20.275,-20.204
6220,-0.2197,-0.6460,-0.8154,-52.673,1.526,-23.010,-144.651,20.050,-20.012
6230,-0.3301,-0.4341,-0.8423,-44.556,0.122,-2.197,-145.168,20.028,-19.995
6240,-0.4136,-0.3398,-0.8428,-11.475,3.113,16.174,-145.464,20.138,-20.154
6250,-0.4487,-0.3198,-0.8154,24.353,5.676,22.644,-145.432,20.286,-20.385
6260,-0.4238,-0.4448,-0.7700,49.500,5.859,17.761,-145.052,20.391,-20.577
6270,-0.3564,-0.6626,-0.7246,51.025,3.662,4.944,-144.498,20.385,-20.643
6280,-0.2891,-0.7588,-0.7046,28.503,-0.366,-10.559,-144.064,20.281,-20.550
6290,-0.2407,-0.7891,-0.7256,-2.991,-4.028,-20.020,-143.915,20.121,-20.352
6300,-0.2305,-0.7407,-0.7490,-29.785,-5.371,-18.860,-144.058,19.973,-20.154
6310,-0.2993,-0.4868,-0.7764,-42.419,-6.287,-6.775,-144.481,19.968,-20.056
6320,-0.4116,-0.3374,-0.8081,-27.100,-5.066,10.254,-144.899,20.121,-20.116
6330,-0.4468,-0.3682,-0.7969,2.808,1.038,18.799,-145.031,20.286,-20.286
6340,-0.4146,-0.4526,-0.7886,25.024,4.761,13.672,-144.882,20.369,-20.435
6350,-0.3437,-0.6030,-0.7505,32.227,3.906,2.075,-144.542,20.341,-20.479
6361,-0.2900,-0.6758,-0.7187,19.470,-0.854,-7.935,-144.245,20.264,-20.402
6370,-0.2729,-0.6689,-0.7124,0.488,-5.859,-11.719,-144.119,20.193,-20.264
6380,-0.3062,-0.5801,-0.7139,-12.939,-8.118,-7.202,-144.179,20.198,-20.149
6390,-0.3477,-0.5151,-0.7397,-16.602,-5.249,1.892,-144.344,20.264,-20.132
6400,-0.3755,-0.4595,-0.7573,-10.498,-0.122,7.690,-144.520,20.336,-20.198
6410,-0.3999,-0.4180,-0.7734,-0.977,2.197,8.972,-144.630,20.413,-20.292
6420,-0.3818,-0.4966,-0.7725,7.690,4.089,4.578,-144.602,20.424,-20.358
6430,-0.3389,-0.5791,-0.7676,9.827,4.333,-4.028,-144.487,20.358,-20.347
6440,-0.2964,-0.6562,-0.7666,3.784,2.991,-10.132,-144.371,20.237,-20.281
6450,-0.2764,-0.6685,-0.7690,-4.578,1.282,-11.292,-144.333,20.110,-20.187
6460,-0.3042,-0.6016,-0.7734,-10.071,-1.099,-5.859,-144.393,20.056,-20.132
6470,-0.3501,-0.5381,-0.7798,-9.766,-2.075,3.357,-144.503,20.094,-20.149
6480,-0.3872,-0.5015,-0.7832,-2.502,-1.404,9.155,-144.580,20.182,-20.220
6490,-0.4004,-0.4756,-0.7798,5.371,-0.305,9.399,-144.597,20.275,-20.297
6500,-0.3926,-0.4927,-0.7686,11.719,0.122,5.310,-144.525,20.336,-20.347
6510,-0.3730,-0.5371,-0.7583,14.099,-0.061,0.305,-144.388,20.352,-20.347
6520,-0.3501,-0.5850,-0.7603,10.864,-0.366,-3.357,-144.250,20.330,-20.319
6530,-0.3325,-0.6230,-0.7627,5.432,-0.732,-4.883,-144.146,20.292,-20.270
6540,-0.3281,-0.6323,-0.7681,-2.319,-1.404,-3.296,-144.119,20.264,-20.231
6550,-0.3516,-0.5527,-0.7690,-9.399,-2.563,0.122,-144.207,20.286,-20.220
6560,-0.3994,-0.4526,-0.7666,-9.277,-4.089,4.700,-144.355,20.385,-20.231
6570,-0.4370,-0.3843,-0.7471,0.061,-4.272,7.324,-144.454,20.533,-20.270
6580,-0.4443,-0.3892,-0.7305,12.329,-3.784,5.676,-144.415,20.676,-20.297
6590,-0.3960,-0.5483,-0.7217,19.714,-2.075,-1.282,-144.196,20.715,-20.270
6600,-0.3130,-0.7349,-0.7227,10.254,0.061,-11.902,-143.959,20.605,-20.171
6610,-0.2466,-0.7905,-0.7544,-14.282,-0.610,-20.203,-143.937,20.413,-19.990
6620,-0.2187,-0.7842,-0.7881,-37.231,-2.136,-20.386,-144.152,20.220,-19.803
6630,-0.2656,-0.5586,-0.8008,-48.767,-4.150,-11.230,-144.602,20.138,-19.677
6640,-0.3887,-0.3188,-0.8120,-33.264,-6.653,5.432,-145.074,20.259,-19.682
6650,-0.4570,-0.2998,-0.7949,3.784,-2.991,18.311,-145.228,20.468,-19.825
6660,-0.4551,-0.3662,-0.7632,38.330,2.136,17.273,-144.998,20.627,-19.990
6670,-0.3994,-0.5347,-0.7227,54.932,3.784,7.202,-144.465,20.671,-20.078
6680,-0.3315,-0.7051,-0.6875,44.983,2.563,-5.249,-143.910,20.599,-20.045
6690,-0.2671,-0.7969,-0.6929,15.015,0.488,-16.479,-143.586,20.435,-19.907
6700,-0.2231,-0.8008,-0.7246,-18.433,-0.610,-20.996,-143.586,20.231,-19.726
6710,-0.2314,-0.7036,-0.7690,-42.725,-0.977,-15.198,-143.904,20.072,-19.589
6720,-0.2896,-0.5542,-0.8101,-47.363,-0.793,-3.052,-144.377,20.023,-19.556
6730,-0.3594,-0.4341,-0.8311,-30.151,0.305,8.911,-144.783,20.083,-19.633
6740,-0.4170,-0.3608,-0.8140,-0.977,0.854,15.930,-144.954,20.215,-19.781
6750,-0.4321,-0.3945,-0.7710,27.771,1.587,15.625,-144.811,20.352,-19.924
6760,-0.3979,-0.5044,-0.7187,44.312,1.770,10.010,-144.410,20.435,-20.023
6770,-0.3535,-0.6377,-0.6816,42.053,0.732,3.540,-143.926,20.457,-20.061
6780,-0.3096,-0.7061,-0.6738,23.499,-0.732,-3.235,-143.580,20.413,-20.028
6790,-0.2886,-0.7124,-0.6919,-4.028,-1.343,-5.859,-143.509,20.347,-19.968
6800,-0.3032,-0.6313,-0.7222,-27.466,-0.488,-2.625,-143.723,20.308,-19.940
6810,-0.3638,-0.4624,-0.7622,-35.889,0.549,4.089,-144.141,20.347,-19.979
6820,-0.4067,-0.3931,-0.7905,-23.010,2.991,9.705,-144.498,20.424,-20.083
6830,-0.4116,-0.3794,-0.7983,-1.282,5.310,9.094,-144.651,20.479,-20.193
6840,-0.3848,-0.4653,-0.7803,18.677,5.432,3.174,-144.531,20.479,-20.253
6850,-0.3223,-0.6157,-0.7529,25.208,3.113,-4.211,-144.240,20.407,-20.237
6861,-0.2808,-0.6875,-0.7285,16.846,-1.465,-9.460,-143.965,20.314,-20.149
6870,-0.2642,-0.6938,-0.7212,3.418,-5.798,-10.254,-143.811,20.248,-20.023
6880,-0.2900,-0.6177,-0.7187,-7.385,-8.301,-4.578,-143.806,20.253,-19.929
6890,-0.3511,-0.5269,-0.7339,-10.132,-7.080,4.822,-143.910,20.347,-19.929
6900,-0.3818,-0.4897,-0.7485,-1.648,-2.502,10.681,-143.981,20.457,-20.006
6910,-0.3916,-0.4727,-0.7480,8.118,2.258,11.536,-143.981,20.544,-20.116
6920,-0.3950,-0.4272,-0.7402,13.916,4.333,8.850,-143.937,20.599,-20.220
6930,-0.3838,-0.4756,-0.7173,18.433,5.066,6.531,-143.811,20.632,-20.308
6940,-0.3628,-0.5669,-0.7095,15.930,5.615,2.441,-143.646,20.616,-20.369
6950,-0.3340,-0.6177,-0.7163,4.761,5.676,-3.540,-143.558,20.539,-20.374
6960,-0.3174,-0.6455,-0.7422,-11.658,5.432,-6.714,-143.619,20.429,-20.347
6970,-0.3159,-0.6152,-0.7812,-27.283,5.737,-7.141,-143.866,20.314,-20.325
6980,-0.3374,-0.5054,-0.8154,-32.776,6.104,-4.822,-144.229,20.226,-20.319
6990,-0.3892,-0.3198,-0.8389,-20.325,5.554,-0.549,-144.591,20.209,-20.352
7000,-0.4248,-0.2275,-0.8511,10.559,5.066,2.625,-144.712,20.242,-20.402
7010,-0.3916,-0.3472,-0.8169,47.119,6.287,-0.916,-144.377,20.220,-20.435
7020,-0.3291,-0.6006,-0.7764,64.758,5.249,-10.559,-143.696,20.099,-20.374
7030,-0.2832,-0.7310,-0.7480,51.270,0.916,-21.301,-143.047,19.918,-20.198
7040,-0.2734,-0.7246,-0.7427,19.470,-5.066,-25.879,-142.696,19.753,-19.946
7050,-0.2866,-0.6797,-0.7432,-9.827,-8.484,-20.142,-142.663,19.660,-19.720
7060,-0.3228,-0.6128,-0.7778,-27.405,-7.690,-10.010,-142.883,19.644,-19.589
7070,-0.3564,-0.4946,-0.8159,-26.123,-5.493,-4.333,-143.174,19.671,-19.517
7080,-0.3735,-0.4297,-0.8311,-7.507,-5.615,-3.174,-143.322,19.715,-19.451
7090,-0.3672,-0.4185,-0.8154,18.066,-6.348,-6.287,-143.207,19.753,-19.358
7100,-0.3276,-0.5713,-0.7666,39.978,-8.606,-12.573,-142.762,19.737,-19.199
7110,-0.2744,-0.7559,-0.7090,44.617,-11.353,-19.043,-142.147,19.660,-18.962
7120,-0.2456,-0.8491,-0.6772,27.222,-14.954,-21.118,-141.647,19.583,-18.688
7130,-0.2515,-0.8354,-0.6665,-0.854,-16.846,-16.846,-141.443,19.545,-18.441
7140,-0.3096,-0.7051,-0.6738,-26.123,-16.052,-5.859,-141.570,19.616,-18.281
7150,-0.3857,-0.5601,-0.7036,-35.095,-10.742,5.554,-141.910,19.770,-18.259
7160,-0.4258,-0.4736,-0.7305,-24.780,-3.296,11.108,-142.229,19.924,-18.331
7170,-0.4243,-0.4399,-0.7349,-6.775,2.319,10.376,-142.399,20.034,-18.430
7180,-0.3970,-0.5151,-0.7251,8.606,4.517,5.188,-142.361,20.072,-18.506
7190,-0.3384,-0.6675,-0.7090,12.512,4.211,-2.625,-142.185,20.012,-18.512
7200,-0.2803,-0.7603,-0.7104,0.244,2.808,-9.277,-142.070,19.885,-18.452
7210,-0.2710,-0.7334,-0.7310,-17.761,0.671,-9.949,-142.147,19.764,-18.369
7220,-0.3081,-0.6206,-0.7510,-28.137,-0.977,-3.845,-142.394,19.726,-18.331
7230,-0.3652,-0.5176,-0.7700,-23.499,-0.610,4.211,-142.674,19.775,-18.364
7240,-0.3960,-0.4814,-0.7793,-6.042,0.793,7.690,-142.817,19.852,-18.435
7250,-0.3984,-0.4854,-0.7676,13.123,0.610,5.615,-142.751,19.918,-18.484
7260,-0.3716,-0.5488,-0.7397,25.818,-1.465,0.549,-142.504,19.957,-18.479
7270,-0.3306,-0.6782,-0.7085,26.794,-4.395,-3.906,-142.152,19.951,-18.419
7280,-0.3052,-0.7212,-0.6948,13.672,-7.385,-6.470,-141.899,19.940,-18.320
7290,-0.2969,-0.7080,-0.6987,-2.930,-8.728,-5.188,-141.823,19.946,-18.215
7300,-0.3105,-0.6328,-0.6978,-14.526,-8.423,0.305,-141.910,19.995,-18.166
7310,-0.3657,-0.4707,-0.7212,-17.151,-8.057,7.202,-142.130,20.132,-18.171
7320,-0.3994,-0.4053,-0.7246,-4.456,-4.883,11.719,-142.284,20.297,-18.237
7330,-0.4106,-0.4092,-0.7187,14.099,0.244,12.329,-142.262,20.429,-18.342
7340,-0.3765,-0.5513,-0.6973,28.931,5.859,8.484,-142.009,20.462,-18.452
7350,-0.3242,-0.6826,-0.6812,29.297,8.789,2.136,-141.674,20.385,-18.528
7361,-0.2812,-0.7661,-0.6787,14.160,7.935,-2.136,-141.443,20.264,-18.561
7370,-0.2788,-0.7393,-0.6978,-6.226,6.165,-1.709,-141.432,20.154,-18.589
7380,-0.3193,-0.6284,-0.7329,-20.020,5.371,4.333,-141.636,20.121,-18.660
7390,-0.3740,-0.4985,-0.7583,-17.639,6.348,11.841,-141.905,20.165,-18.803
7400,-0.4028,-0.4517,-0.7715,-0.610,7.812,14.648,-142.048,20.237,-18.979
7410,-0.3921,-0.4663,-0.7568,17.517,7.507,10.559,-141.987,20.281,-19.116
7420,-0.3604,-0.5469,-0.7236,27.832,4.211,3.113,-141.740,20.281,-19.171
7430,-0.3423,-0.6328,-0.6938,23.682,-1.038,-2.197,-141.454,20.270,-19.144
7440,-0.3276,-0.6953,-0.6792,8.667,-4.272,-5.981,-141.273,20.248,-19.067
7450,-0.3276,-0.6934,-0.6807,-9.583,-5.432,-7.080,-141.268,20.231,-18.968
7460,-0.3589,-0.5605,-0.7051,-25.024,-5.371,-3.845,-141.493,20.264,-18.902
7470,-0.3994,-0.4429,-0.7368,-26.428,-3.601,0.854,-141.823,20.347,-18.885
7480,-0.4072,-0.4277,-0.7520,-14.038,-0.305,2.014,-142.053,20.407,-18.902
7490,-0.3853,-0.4429,-0.7603,0.305,1.526,-2.014,-142.125,20.418,-18.891
7500,-0.3428,-0.5542,-0.7544,10.315,0.671,-8.606,-142.015,20.358,-18.825
7510,-0.2920,-0.6924,-0.7407,9.521,-2.319,-14.282,-141.823,20.242,-18.688
7520,-0.2637,-0.7646,-0.7393,-2.380,-6.470,-17.517,-141.702,20.121,-18.501
7530,-0.2734,-0.7207,-0.7466,-14.832,-10.559,-16.846,-141.724,20.050,-18.292
7540,-0.3110,-0.6016,-0.7612,-20.630,-12.268,-10.193,-141.872,20.061,-18.122
7550,-0.3477,-0.5479,-0.7651,-13.550,-9.399,-1.770,-142.004,20.121,-18.045
7560,-0.3770,-0.4922,-0.7642,-0.122,-5.127,3.540,-142.053,20.209,-18.045
7570,-0.3862,-0.4961,-0.7480,13.916,-1.831,5.127,-141.971,20.286,-18.073
7580,-0.3555,-0.5869,-0.7280,21.667,0.977,2.563,-141.757,20.297,-18.105
7590,-0.3120,-0.6978,-0.7197,16.968,1.770,-1.770,-141.531,20.242,-18.100
7600,-0.2822,-0.7432,-0.7388,1.709,1.343,-5.310,-141.432,20.149,-18.067
7610,-0.2583,-0.7622,-0.7622,-13.855,1.648,-6.042,-141.493,20.034,-18.023
7620,-0.2822,-0.6416,-0.7837,-25.513,1.953,-2.075,-141.735,19.962,-18.023
7630,-0.3486,-0.4771,-0.8047,-24.414,1.953,6.165,-142.075,19.990,-18.083
7640,-0.4058,-0.4033,-0.7993,-6.897,2.502,13.672,-142.300,20.094,-18.215
7650,-0.4189,-0.4199,-0.7734,14.954,3.235,14.587,-142.295,20.209,-18.358
7660,-0.3936,-0.4824,-0.7358,30.579,2.625,9.521,-142.070,20.286,-18.457
7670,-0.3608,-0.5923,-0.7012,32.349,-0.854,3.601,-141.735,20.330,-18.484
7680,-0.3247,-0.6743,-0.6763,18.982,-4.333,-2.808,-141.460,20.330,-18.430
7690,-0.3105,-0.6875,-0.6904,-2.747,-7.568,-6.897,-141.389,20.319,-18.320
7700,-0.3062,-0.7046,-0.7163,-23.132,-7.629,-6.836,-141.520,20.303,-18.215
7710,-0.3193,-0.6260,-0.7544,-35.950,-5.371,-5.371,-141.839,20.286,-18.133
7720,-0.3433,-0.4810,-0.7788,-33.386,-3.479,-2.075,-142.218,20.303,-18.094
7730,-0.3770,-0.4185,-0.7822,-14.160,-1.831,3.113,-142.460,20.363,-18.105
7740,-0.3843,-0.4600,-0.7593,12.451,0.977,4.395,-142.416,20.413,-18.149
7750,-0.3599,-0.5356,-0.7173,31.067,1.770,1.465,-142.125,20.424,-18.177
7760,-0.3384,-0.6309,-0.6787,34.302,-0.183,-0.366,-141.735,20.418,-18.171
7770,-0.3203,-0.7061,-0.6655,23.010,-2.808,-2.441,-141.405,20.407,-18.133
7780,-0.3057,-0.7217,-0.6719,3.662,-4.517,-3.723,-141.268,20.385,-18.073
7790,-0.3179,-0.6626,-0.6934,-14.893,-4.089,-2.014,-141.350,20.385,-18.029
7800,-0.3608,-0.5400,-0.7192,-22.766,-2.502,2.625,-141.592,20.435,-18.034
7810,-0.3843,-0.4990,-0.7344,-16.174,1.038,6.714,-141.817,20.495,-18.094
7820,-0.3857,-0.4966,-0.7432,-4.089,3.967,7.141,-141.932,20.539,-18.182
7830,-0.3672,-0.5430,-0.7314,6.470,4.517,3.845,-141.905,20.539,-18.243
7840,-0.3374,-0.6255,-0.7090,9.094,3.113,-0.427,-141.784,20.506,-18.259
7850,-0.3237,-0.6626,-0.6982,0.793,0.671,-2.686,-141.718,20.462,-18.243
7861,-0.3179,-0.6626,-0.6982,-11.047,-1.160,-2.319,-141.768,20.435,-18.215
7870,-0.3350,-0.6436,-0.7031,-21.973,-1.648,1.587,-141.943,20.451,-18.215
7880,-0.3652,-0.5747,-0.7075,-30.029,-0.732,5.615,-142.245,20.500,-18.259
7890,-0.4062,-0.4434,-0.7212,-30.212,-0.183,8.179,-142.630,20.605,-18.325
7900,-0.4395,-0.3740,-0.7158,-20.081,1.038,9.155,-142.954,20.731,-18.413
7910,-0.4390,-0.3618,-0.7192,-6.165,1.648,6.104,-143.141,20.836,-18.474
7920,-0.3984,-0.4878,-0.7134,6.958,2.197,-2.563,-143.097,20.841,-18.468
7930,-0.3306,-0.6284,-0.7173,7.690,2.441,-13.977,-142.938,20.720,-18.364
7940,-0.2749,-0.7324,-0.7363,-4.456,2.502,-21.851,-142.844,20.511,-18.193
7950,-0.2358,-0.7686,-0.7358,-20.996,2.014,-22.400,-142.899,20.281,-18.018
7960,-0.2671,-0.6670,-0.7476,-37.415,0.732,-13.672,-143.185,20.138,-17.902
7970,-0.3506,-0.4902,-0.7783,-40.649,1.404,0.549,-143.641,20.138,-17.919
7980,-0.4072,-0.4165,-0.8022,-24.048,6.165,10.620,-144.009,20.193,-18.045
7990,-0.4131,-0.4092,-0.8252,-0.488,12.939,11.536,-144.174,20.198,-18.226
8000,-0.3608,-0.4917,-0.8130,21.423,15.991,4.761,-144.058,20.105,-18.369
8010,-0.3081,-0.6270,-0.7759,30.762,12.329,-3.113,-143.740,19.957,-18.419
8020,-0.2856,-0.6772,-0.7563,22.156,4.150,-9.216,-143.443,19.825,-18.364
8030,-0.2710,-0.6992,-0.7544,7.751,-2.747,-11.841,-143.267,19.726,-18.248
8040,-0.2759,-0.7153,-0.7559,-5.798,-5.615,-9.583,-143.218,19.666,-18.127
8050,-0.3027,-0.6411,-0.7744,-16.541,-4.700,-4.944,-143.328,19.644,-18.056
8060,-0.3491,-0.5425,-0.7974,-14.343,-2.136,0.488,-143.492,19.666,-18.051
8070,-0.3813,-0.5098,-0.8027,-1.648,1.587,5.310,-143.569,19.709,-18.105
8080,-0.3862,-0.5088,-0.7944,12.939,4.639,6.531,-143.503,19.737,-18.188
8090,-0.3711,-0.5239,-0.7803,24.536,4.639,5.371,-143.317,19.748,-18.265
8100,-0.3472,-0.5815,-0.7573,29.297,2.808,4.028,-143.031,19.753,-18.314
8110,-0.3296,-0.6343,-0.7427,24.231,-0.305,2.625,-142.767,19.759,-18.336
8120,-0.3159,-0.6724,-0.7441,11.719,-3.357,1.404,-142.597,19.770,-18.325
8130,-0.3110,-0.6602,-0.7441,-3.357,-5.737,1.343,-142.581,19.803,-18.303
8140,-0.3384,-0.5923,-0.7524,-15.259,-7.263,3.479,-142.718,19.874,-18.281
8150,-0.3774,-0.5239,-0.7573,-17.090,-7.080,5.920,-142.916,19.990,-18.287
8160,-0.4023,-0.4785,-0.7646,-10.315,-5.371,6.653,-143.075,20.116,-18.309
8170,-0.3979,-0.4897,-0.7651,2.075,-2.808,4.883,-143.102,20.198,-18.336
8180,-0.3643,-0.5610,-0.7471,13.306,-0.732,0.916,-142.976,20.220,-18.336
8190,-0.3296,-0.6084,-0.7358,15.198,-0.793,-2.197,-142.789,20.204,-18.314
8200,-0.3193,-0.6353,-0.7344,9.827,-1.282,-2.380,-142.646,20.182,-18.287
8210,-0.3164,-0.6470,-0.7427,2.563,-0.427,-0.854,-142.581,20.154,-18.276
8220,-0.3228,-0.6060,-0.7603,-3.479,0.854,1.587,-142.608,20.138,-18.292
8230,-0.3506,-0.5073,-0.7705,-2.441,0.977,4.333,-142.690,20.165,-18.336
8240,-0.3770,-0.4858,-0.7627,6.958,0.793,6.409,-142.690,20.220,-18.397
8250,-0.3804,-0.5029,-0.7363,16.785,0.122,5.432,-142.570,20.281,-18.441
8260,-0.3628,-0.5449,-0.7153,19.958,-2.136,2.441,-142.372,20.330,-18.452
8270,-0.3359,-0.6226,-0.6899,13.245,-5.188,0.122,-142.185,20.369,-18.419
8280,-0.3018,-0.7153,-0.6812,-2.380,-7.568,-2.380,-142.103,20.380,-18.347
8290,-0.2935,-0.7183,-0.7031,-23.560,-9.155,-3.357,-142.229,20.391,-18.259
8300,-0.3193,-0.5947,-0.7334,-38.025,-8.728,-1.526,-142.564,20.429,-18.188
8310,-0.3716,-0.4346,-0.7661,-33.447,-5.066,3.845,-142.976,20.517,-18.188
8320,-0.4058,-0.3921,-0.7788,-9.888,1.892,8.423,-143.207,20.599,-18.276
8330,-0.3843,-0.4102,-0.7373,19.043,6.836,7.568,-143.130,20.627,-18.380
8340,-0.3579,-0.5142,-0.6895,35.767,4.944,6.042,-142.811,20.643,-18.463
8350,-0.3218,-0.6973,-0.6514,29.419,0.183,3.662,-142.432,20.643,-18.495
8361,-0.2900,-0.8042,-0.6421,1.160,-5.005,-1.282,-142.267,20.627,-18.452
8370,-0.2744,-0.7769,-0.6836,-35.217,-8.057,-4.822,-142.471,20.605,-18.358
8380,-0.3081,-0.6113,-0.7305,-59.204,-6.653,-3.296,-143.009,20.610,-18.287
8390,-0.3872,-0.3970,-0.7949,-55.847,-0.183,2.197,-143.674,20.654,-18.309
8400,-0.4482,-0.2793,-0.8511,-23.682,10.437,6.226,-144.130,20.665,-18.424
8410,-0.4224,-0.2993,-0.8276,21.973,18.372,4.944,-144.130,20.594,-18.583
8420,-0.3711,-0.4946,-0.7686,52.673,17.029,2.136,-143.685,20.484,-18.710
8430,-0.3247,-0.6768,-0.7178,49.805,9.338,-2.380,-143.130,20.374,-18.748
8440,-0.2891,-0.7607,-0.6895,23.376,-0.671,-7.874,-142.767,20.286,-18.677
8450,-0.2778,-0.7666,-0.6914,-11.719,-7.568,-8.423,-142.734,20.242,-18.556
8460,-0.2988,-0.6938,-0.7236,-41.565,-8.301,-3.601,-143.053,20.253,-18.474
8470,-0.3682,-0.5024,-0.7832,-52.917,-4.089,2.991,-143.619,20.314,-18.474
8480,-0.4243,-0.3857,-0.8506,-37.598,3.235,7.019,-144.135,20.374,-18.550
8490,-0.3994,-0.4238,-0.8662,-7.324,10.742,4.822,-144.344,20.336,-18.660
8500,-0.3540,-0.5005,-0.8193,19.287,10.010,-1.221,-144.218,20.248,-18.715
8510,-0.3296,-0.5815,-0.7744,28.687,2.014,-4.700,-143.910,20.187,-18.682
8520,-0.3257,-0.6489,-0.7432,22.583,-5.188,-4.700,-143.613,20.182,-18.611
8530,-0.3232,-0.6689,-0.7251,11.841,-8.057,-3.845,-143.405,20.204,-18.528
8540,-0.3286,-0.6470,-0.7363,1.038,-6.348,-1.160,-143.328,20.231,-18.479
8550,-0.3374,-0.6064,-0.7515,-5.371,-2.014,2.197,-143.361,20.253,-18.484
8560,-0.3564,-0.5303,-0.7593,-4.639,0.488,4.272,-143.437,20.281,-18.523
8570,-0.3940,-0.4639,-0.7554,0.000,-0.366,6.775,-143.509,20.358,-18.578
8580,-0.4185,-0.4092,-0.7397,6.775,-2.075,7.568,-143.531,20.479,-18.633
8590,-0.4189,-0.4595,-0.7148,15.198,-3.418,5.676,-143.427,20.599,-18.655
8600,-0.3687,-0.6030,-0.6953,15.381,-2.869,-0.183,-143.223,20.632,-18.638
8610,-0.3140,-0.7070,-0.7056,1.038,-2.075,-7.080,-143.108,20.577,-18.561
8620,-0.2817,-0.7192,-0.7417,-17.334,-2.319,-11.841,-143.168,20.473,-18.446
8630,-0.2749,-0.6646,-0.7705,-30.334,-1.160,-11.169,-143.394,20.358,-18.347
8640,-0.3091,-0.5342,-0.8008,-29.358,1.343,-5.310,-143.696,20.292,-18.309
8650,-0.3506,-0.4575,-0.8135,-10.254,3.906,2.563,-143.882,20.281,-18.353
8660,-0.3618,-0.5049,-0.7822,15.869,5.249,7.629,-143.795,20.292,-18.452
8670,-0.3667,-0.5317,-0.7349,30.457,2.930,8.301,-143.525,20.336,-18.545
8680,-0.3701,-0.5532,-0.7021,30.762,-1.709,8.301,-143.223,20.418,-18.605
8690,-0.3672,-0.5884,-0.6689,22.461,-4.822,7.629,-142.971,20.522,-18.638
8700,-0.3623,-0.6030,-0.6636,7.446,-5.554,5.432,-142.850,20.610,-18.649
8710,-0.3594,-0.5718,-0.6934,-9.338,-3.723,2.686,-142.916,20.671,-18.649
8720,-0.3491,-0.5483,-0.7231,-19.836,0.061,0.122,-143.113,20.676,-18.649
8730,-0.3462,-0.5176,-0.7642,-22.217,3.418,-1.892,-143.361,20.632,-18.655
8740,-0.3335,-0.5308,-0.7803,-16.235,5.310,-3.845,-143.547,20.555,-18.655
8750,-0.3457,-0.4683,-0.7788,-7.141,4.150,-5.127,-143.663,20.495,-18.638
8760,-0.3809,-0.4204,-0.7671,6.653,1.343,-3.906,-143.668,20.495,-18.611
8770,-0.3896,-0.4854,-0.7261,22.705,0.366,-3.174,-143.459,20.506,-18.589
8780,-0.3643,-0.6240,-0.7061,28.625,-0.854,-5.676,-143.108,20.490,-18.534
8790,-0.3237,-0.7617,-0.6963,17.944,-2.441,-9.766,-142.789,20.418,-18.435
8800,-0.2837,-0.7725,-0.7178,-5.554,-3.113,-13.672,-142.696,20.308,-18.298
8810,-0.2988,-0.6958,-0.7554,-25.818,-1.709,-10.193,-142.866,20.220,-18.199
8820,-0.3555,-0.5103,-0.8037,-30.396,3.845,-1.953,-143.218,20.182,-18.210
8830,-0.4014,-0.3667,-0.8442,-11.902,12.146,6.287,-143.514,20.154,-18.342
8840,-0.3989,-0.3809,-0.8242,20.081,18.677,10.254,-143.503,20.099,-18.545
8850,-0.3779,-0.4785,-0.7856,41.504,18.372,8.057,-143.207,20.023,-18.732
8861,-0.3374,-0.6221,-0.7466,40.771,11.047,1.953,-142.800,19.940,-18.820
8870,-0.2827,-0.7476,-0.7075,20.691,0.000,-6.592,-142.482,19.858,-18.765
8880,-0.2622,-0.7788,-0.7041,-11.902,-10.742,-12.146,-142.438,19.808,-18.589
8890,-0.2681,-0.7251,-0.7187,-39.917,-17.334,-13.245,-142.685,19.814,-18.369
8900,-0.3213,-0.5254,-0.7529,-50.415,-19.043,-10.010,-143.135,19.896,-18.160
8910,-0.3813,-0.4473,-0.8003,-33.142,-13.794,-4.089,-143.498,20.012,-18.034
8920,-0.3770,-0.4751,-0.8203,-0.916,-3.540,-2.747,-143.558,20.039,-17.990
8930,-0.3462,-0.4956,-0.7881,29.480,2.625,-4.639,-143.300,19.995,-17.968
8940,-0.3213,-0.6001,-0.7280,48.218,2.563,-3.540,-142.789,19.940,-17.952
8950,-0.3159,-0.6763,-0.6729,46.143,0.122,-0.305,-142.251,19.924,-17.952
8960,-0.3281,-0.6445,-0.6494,31.982,-1.953,2.991,-141.872,19.951,-17.963
8970,-0.3335,-0.6660,-0.6338,15.320,-1.526,8.240,-141.658,20.017,-18.023
8980,-0.3535,-0.6147,-0.6445,-5.676,0.427,12.390,-141.696,20.105,-18.127
8990,-0.3931,-0.5229,-0.7007,-22.034,2.930,13.184,-141.971,20.204,-18.259
9000,-0.3950,-0.4990,-0.7510,-24.048,8.362,7.874,-142.295,20.220,-18.380
9010,-0.3633,-0.5098,-0.7881,-16.113,12.085,-0.183,-142.531,20.132,-18.457
9020,-0.3286,-0.5645,-0.7949,-2.686,12.207,-6.348,-142.586,19.984,-18.484
9030,-0.2969,-0.6235,-0.7891,8.606,8.789,-8.484,-142.487,19.830,-18.468
9040,-0.2983,-0.6338,-0.7720,12.329,4.150,-4.761,-142.344,19.737,-18.457
9050,-0.3350,-0.5757,-0.7422,13.916,-0.366,3.052,-142.213,19.759,-18.479
9060,-0.3760,-0.5220,-0.7275,14.160,-2.686,10.803,-142.114,19.874,-18.550
9070,-0.3877,-0.5332,-0.7222,14.282,-1.770,13.367,-142.026,20.006,-18.649
9080,-0.3730,-0.5679,-0.7183,11.780,-1.465,8.423,-141.921,20.089,-18.715
9090,-0.3452,-0.5894,-0.7158,4.333,-3.296,0.061,-141.861,20.116,-18.693
9100,-0.3291,-0.6240,-0.7227,-4.578,-5.432,-6.104,-141.850,20.110,-18.605
9110,-0.3311,-0.5894,-0.7168,-9.338,-6.958,-8.179,-141.888,20.110,-18.490
9120,-0.3511,-0.5752,-0.7246,-7.751,-6.531,-5.005,-141.932,20.138,-18.408
9130,-0.3516,-0.6001,-0.7305,-1.282,-2.014,-1.282,-141.927,20.149,-18.380
9140,-0.3501,-0.5898,-0.7275,4.211,1.709,0.732,-141.877,20.143,-18.397
9150,-0.3535,-0.5625,-0.7329,6.958,3.906,2.441,-141.833,20.138,-18.446
9160,-0.3579,-0.5601,-0.7378,10.498,6.165,2.808,-141.762,20.116,-18.506
9170,-0.3296,-0.6328,-0.7300,12.024,8.118,1.465,-141.636,20.050,-18.572
9180,-0.3101,-0.6646,-0.7329,6.592,7.263,0.061,-141.548,19.968,-18.622
9190,-0.3315,-0.5991,-0.7666,-3.174,4.761,0.061,-141.597,19.918,-18.655
9200,-0.3599,-0.5459,-0.7881,-4.272,4.578,1.465,-141.691,19.896,-18.699
9210,-0.3916,-0.4907,-0.7871,4.456,5.676,3.052,-141.729,19.902,-18.759
9220,-0.4126,-0.4810,-0.7759,16.479,5.615,3.723,-141.658,19.924,-18.831
9230,-0.3970,-0.5483,-0.7549,25.452,4.700,0.671,-141.438,19.924,-18.864
9240,-0.3350,-0.6919,-0.7227,24.353,2.136,-6.836,-141.130,19.852,-18.825
9250,-0.2827,-0.7720,-0.7114,9.521,-2.625,-14.526,-140.905,19.731,-18.682
9260,-0.2544,-0.7539,-0.7197,-6.348,-6.958,-18.372,-140.828,19.611,-18.484
9270,-0.2700,-0.6733,-0.7227,-12.817,-8.179,-15.381,-140.861,19.534,-18.303
9280,-0.3193,-0.5400,-0.7305,-5.432,-5.676,-6.653,-140.911,19.534,-18.215
9290,-0.3765,-0.4614,-0.7305,12.512,-0.061,5.493,-140.867,19.611,-18.259
9300,-0.3916,-0.4609,-0.7012,29.968,7.202,14.709,-140.685,19.704,-18.430
9310,-0.3779,-0.5366,-0.6787,35.095,12.512,18.005,-140.427,19.759,-18.660
9320,-0.3364,-0.6479,-0.6680,23.926,13.672,14.587,-140.213,19.748,-18.869
9330,-0.3066,-0.6758,-0.6772,-1.343,9.888,5.859,-140.213,19.687,-18.984
9340,-0.2983,-0.6411,-0.7227,-27.405,6.042,-2.625,-140.471,19.600,-19.006
9350,-0.2983,-0.5903,-0.7695,-39.368,4.395,-7.751,-140.872,19.495,-18.973
9361,-0.3120,-0.5405,-0.8071,-33.264,3.418,-10.010,-141.235,19.385,-18.913
9370,-0.3350,-0.5068,-0.8179,-15.625,1.770,-7.874,-141.443,19.325,-18.858
9380,-0.3442,-0.5005,-0.8042,6.165,-0.671,-4.089,-141.438,19.308,-18.820
9390,-0.3403,-0.5400,-0.7607,24.231,-4.150,-1.099,-141.213,19.341,-18.787
9400,-0.3120,-0.6265,-0.7085,30.823,-8.606,0.488,-140.867,19.402,-18.732
9410,-0.3008,-0.6895,-0.6650,21.912,-13.428,2.502,-140.559,19.501,-18.660
9420,-0.3120,-0.6816,-0.6714,2.563,-15.320,2.991,-140.444,19.622,-18.583
9430,-0.3135,-0.6470,-0.6943,-14.709,-11.841,1.587,-140.537,19.709,-18.517
9440,-0.3252,-0.5996,-0.7280,-21.240,-5.737,0.305,-140.735,19.748,-18.479
9450,-0.3452,-0.5264,-0.7598,-14.893,0.122,-1.404,-140.922,19.748,-18.468
9460,-0.3477,-0.5005,-0.7612,2.441,2.930,-1.831,-140.955,19.720,-18.474
9470,-0.3457,-0.5400,-0.7236,21.484,1.770,-1.221,-140.768,19.715,-18.474
9480,-0.3433,-0.5854,-0.6763,29.724,-2.380,0.183,-140.455,19.748,-18.463
9490,-0.3472,-0.6206,-0.6421,25.452,-6.775,2.625,-140.147,19.830,-18.435
9500,-0.3530,-0.6562,-0.6299,14.343,-8.118,3.723,-139.933,19.929,-18.413
9510,-0.3545,-0.6543,-0.6489,-3.052,-4.761,2.808,-139.911,19.995,-18.402
9520,-0.3530,-0.6348,-0.6982,-18.799,2.258,0.854,-140.081,19.990,-18.424
9530,-0.3501,-0.6060,-0.7505,-25.452,9.338,-1.160,-140.361,19.907,-18.479
9540,-0.3408,-0.5796,-0.7837,-23.010,14.038,-2.136,-140.647,19.781,-18.556
9550,-0.3359,-0.5605,-0.8013,-13.855,13.855,-1.526,-140.856,19.660,-18.638
9560,-0.3330,-0.5610,-0.7974,-1.282,9.705,-0.244,-140.927,19.572,-18.699
9570,-0.3330,-0.5479,-0.7749,10.315,3.357,1.099,-140.878,19.550,-18.732
9580,-0.3369,-0.5679,-0.7314,18.005,-3.296,2.502,-140.707,19.600,-18.732
9590,-0.3389,-0.6255,-0.6875,18.555,-9.277,2.869,-140.482,19.693,-18.693
9600,-0.3374,-0.7036,-0.6709,8.240,-13.428,0.671,-140.306,19.792,-18.605
9610,-0.3271,-0.7183,-0.6797,-10.437,-13.855,-3.296,-140.295,19.863,-18.484
9620,-0.3330,-0.6611,-0.7041,-26.428,-10.925,-5.127,-140.488,19.907,-18.369
9630,-0.3521,-0.5615,-0.7314,-29.846,-5.310,-3.845,-140.779,19.929,-18.303
9640,-0.3677,-0.4995,-0.7646,-17.822,1.892,-0.244,-141.021,19.935,-18.314
9650,-0.3462,-0.5127,-0.7686,4.517,7.568,1.709,-141.048,19.891,-18.375
9660,-0.3271,-0.5522,-0.7422,23.437,7.690,1.038,-140.861,19.836,-18.435
9670,-0.3193,-0.6064,-0.7129,29.846,3.601,0.122,-140.559,19.797,-18.463
9681,-0.3276,-0.6514,-0.6904,25.818,-1.099,-0.183,-140.262,19.797,-18.452
9690,-0.3364,-0.6943,-0.6875,14.648,-3.296,-0.549,-140.054,19.814,-18.424
9700,-0.3291,-0.7187,-0.7046,0.732,-2.258,-1.648,-139.982,19.803,-18.397
9711,-0.3296,-0.7046,-0.7202,-9.216,-0.549,-3.296,-140.015,19.770,-18.369
9721,-0.3433,-0.6035,-0.7334,-11.414,0.061,-3.418,-140.125,19.748,-18.342
9731,-0.3721,-0.4917,-0.7285,-2.625,0.244,0.977,-140.213,19.786,-18.347
9740,-0.3774,-0.4639,-0.6987,14.893,1.770,6.592,-140.153,19.858,-18.413
9750,-0.3750,-0.4648,-0.6646,28.076,4.150,9.583,-139.960,19.935,-18.523
9760,-0.3525,-0.5889,-0.6328,27.466,7.996,9.888,-139.702,19.962,-18.655
9770,-0.3242,-0.7217,-0.6235,8.972,12.024,5.737,-139.570,19.896,-18.787
9780,-0.2954,-0.7808,-0.6616,-20.142,15.442,-3.113,-139.702,19.720,-18.869
9790,-0.2612,-0.7847,-0.7212,-44.617,19.897,-11.108,-140.087,19.440,-18.913
9800,-0.2754,-0.6670,-0.7817,-53.284,22.644,-11.658,-140.630,19.149,-18.973
9811,-0.3286,-0.5557,-0.8267,-40.710,22.095,-1.648,-141.130,18.962,-19.111
9820,-0.3564,-0.5649,-0.8315,-14.526,20.325,10.620,-141.394,18.875,-19.330
9831,-0.3579,-0.5674,-0.7983,8.667,16.235,17.334,-141.422,18.869,-19.583
9840,-0.3604,-0.5547,-0.7578,20.203,11.169,20.630,-141.323,18.929,-19.825
9850,-0.3608,-0.5679,-0.7217,22.827,9.094,21.484,-141.174,19.017,-20.061
9861,-0.3496,-0.5962,-0.6948,18.066,9.338,18.188,-141.048,19.078,-20.275
9870,-0.3516,-0.5781,-0.6909,5.920,9.888,13.184,-141.037,19.105,-20.451
9880,-0.3491,-0.5542,-0.7046,-7.935,9.949,8.484,-141.169,19.105,-20.583
9890,-0.3477,-0.5498,-0.7266,-18.921,8.911,4.150,-141.400,19.078,-20.676
9900,-0.3394,-0.5571,-0.7578,-24.292,6.653,-0.854,-141.674,19.028,-20.715
9911,-0.3340,-0.5571,-0.7881,-22.400,3.662,-5.371,-141.921,18.968,-20.693
9921,-0.3218,-0.5493,-0.8027,-12.817,1.770,-8.911,-142.064,18.896,-20.632
9931,-0.2969,-0.5771,-0.7969,3.052,1.099,-9.583,-142.031,18.809,-20.561
9941,-0.2808,-0.6235,-0.7637,18.372,-0.549,-6.592,-141.817,18.743,-20.500
9950,-0.2725,-0.6543,-0.7280,25.269,-3.357,-1.831,-141.520,18.726,-20.462
9960,-0.2793,-0.6333,-0.6958,21.729,-6.592,2.869,-141.262,18.770,-20.446
9970,-0.2925,-0.6064,-0.6680,12.817,-8.850,6.287,-141.097,18.869,-20.435
9981,-0.3164,-0.5679,-0.6655,1.953,-9.155,8.057,-141.064,19.001,-20.440
9991,-0.3350,-0.5454,-0.6826,-6.409,-6.897,6.958,-141.130,19.116,-20.451
10001,-0.3257,-0.5557,-0.7090,-10.681,-2.686,2.686,-141.246,19.166,-20.457
10011,-0.3135,-0.5703,-0.7349,-11.780,1.343,-1.892,-141.372,19.138,-20.451
10021,-0.3096,-0.5635,-0.7578,-8.728,3.723,-3.601,-141.476,19.078,-20.446
10031,-0.3140,-0.5820,-0.7646,-1.709,4.395,-2.319,-141.509,19.017,-20.457
10041,-0.3154,-0.6172,-0.7617,4.272,3.296,-0.183,-141.465,18.979,-20.479
10051,-0.3140,-0.5937,-0.7578,5.310,-0.610,1.526,-141.422,18.984,-20.484
10061,-0.3257,-0.5430,-0.7549,4.395,-5.493,3.540,-141.405,19.050,-20.479
10071,-0.3486,-0.5107,-0.7451,5.127,-10.010,5.188,-141.389,19.182,-20.457
10081,-0.3647,-0.5498,-0.7393,6.653,-13.062,4.089,-141.323,19.330,-20.402
10091,-0.3472,-0.6289,-0.7344,4.211,-14.343,-1.404,-141.229,19.440,-20.297
10101,-0.3252,-0.6675,-0.7432,-4.456,-14.404,-8.240,-141.191,19.484,-20.132
10111,-0.3184,-0.6426,-0.7520,-12.024,-13.367,-12.329,-141.229,19.495,-19.940
10121,-0.3481,-0.5303,-0.7534,-11.353,-10.986,-10.132,-141.323,19.528,-19.786
10131,-0.4033,-0.4082,-0.7471,1.709,-7.019,-3.052,-141.383,19.622,-19.715
10141,-0.4487,-0.3008,-0.7217,24.841,-3.052,3.906,-141.301,19.770,-19.726
10151,-0.4214,-0.4946,-0.6909,46.204,0.244,6.348,-140.894,19.874,-19.781
10161,-0.3267,-0.8203,-0.6509,44.128,1.221,-2.625,-140.328,19.825,-19.764
10170,-0.2520,-0.9419,-0.6626,7.202,-3.906,-16.479,-140.048,19.677,-19.605
10180,-0.2148,-0.9521,-0.7119,-39.307,-8.423,-24.597,-140.219,19.490,-19.347
10190,-0.2192,-0.7983,-0.7451,-70.251,-8.667,-23.132,-140.762,19.325,-19.100
10201,-0.3252,-0.4731,-0.8105,-72.510,-6.958,-8.789,-141.531,19.325,-18.979
10211,-0.3931,-0.3950,-0.8657,-37.415,-0.061,8.911,-142.064,19.407,-19.056
10221,-0.3833,-0.4507,-0.8550,9.216,7.629,14.709,-142.130,19.462,-19.226
10231,-0.3506,-0.5132,-0.7998,42.175,6.042,10.803,-141.806,19.490,-19.358
10241,-0.3325,-0.6323,-0.7207,54.382,-1.831,7.812,-141.257,19.545,-19.407
10251,-0.3311,-0.6816,-0.6650,47.913,-9.521,4.272,-140.702,19.644,-19.380
10261,-0.3418,-0.6631,-0.6377,31.494,-13.123,1.831,-140.301,19.764,-19.308
10271,-0.3525,-0.6489,-0.6265,13.123,-11.780,2.686,-140.087,19.885,-19.248
10281,-0.3618,-0.5996,-0.6416,-4.272,-8.362,4.517,-140.092,20.001,-19.232
10291,-0.3701,-0.5981,-0.6704,-13.977,-5.127,3.906,-140.208,20.089,-19.226
10301,-0.3633,-0.5776,-0.7065,-20.203,-2.869,0.244,-140.411,20.127,-19.210
10311,-0.3477,-0.5937,-0.7368,-19.287,-0.916,-3.662,-140.598,20.110,-19.171
10321,-0.3301,-0.5713,-0.7505,-12.451,0.793,-6.226,-140.724,20.061,-19.127
10331,-0.3286,-0.5684,-0.7583,-1.404,2.380,-4.700,-140.757,20.001,-19.105
10341,-0.3125,-0.6284,-0.7451,13.428,4.028,-1.587,-140.620,19.940,-19.116
10351,-0.3159,-0.6255,-0.7148,22.827,2.014,1.404,-140.383,19.918,-19.144
10361,-0.3462,-0.6436,-0.6821,18.311,-4.089,8.362,-140.175,20.006,-19.182
10371,-0.3447,-0.6450,-0.6777,7.446,-4.272,6.714,-140.076,20.083,-19.210
10381,-0.3384,-0.6426,-0.6875,-4.700,-3.601,4.700,-140.092,20.138,-19.226
10391,-0.3330,-0.6343,-0.7065,-14.282,-2.319,3.113,-140.219,20.165,-19.232
10401,-0.3472,-0.5952,-0.7334,-18.860,-0.793,2.991,-140.416,20.193,-19.254
10411,-0.3672,-0.5205,-0.7563,-14.893,1.282,4.395,-140.630,20.226,-19.297
10421,-0.3774,-0.5000,-0.7578,-1.282,3.174,5.859,-140.729,20.259,-19.369
10431,-0.3755,-0.5264,-0.7480,12.146,3.479,5.615,-140.674,20.292,-19.435
10441,-0.3486,-0.5771,-0.7402,19.226,1.587,2.441,-140.510,20.292,-19.468
10451,-0.3145,-0.6528,-0.7129,16.846,-2.014,-1.282,-140.301,20.281,-19.446
10461,-0.3022,-0.6724,-0.6963,5.310,-6.897,-3.296,-140.180,20.281,-19.369
10471,-0.3218,-0.6562,-0.7007,-8.972,-11.108,-1.770,-140.208,20.336,-19.281
10481,-0.3433,-0.6392,-0.7080,-17.761,-12.024,0.732,-140.334,20.429,-19.204
10491,-0.3726,-0.5532,-0.7227,-18.799,-10.315,1.526,-140.521,20.533,-19.144
10501,-0.4043,-0.4858,-0.7407,-9.521,-6.470,2.930,-140.669,20.643,-19.127
10511,-0.4004,-0.4902,-0.7388,9.155,-0.183,2.319,-140.641,20.693,-19.144
10521,-0.3506,-0.5967,-0.7197,25.574,4.028,-0.916,-140.394,20.654,-19.166
10531,-0.3037,-0.7085,-0.7041,26.245,4.456,-3.418,-140.081,20.566,-19.166
10541,-0.2822,-0.7422,-0.6987,12.573,1.892,-3.296,-139.883,20.479,-19.149
10551,-0.2700,-0.7930,-0.6982,-6.409,-0.488,-0.183,-139.861,20.418,-19.149
10561,-0.3066,-0.6768,-0.7163,-25.085,-2.625,5.188,-140.081,20.440,-19.171
10571,-0.3975,-0.4751,-0.7427,-30.396,-4.272,13.123,-140.482,20.594,-19.248
10581,-0.4468,-0.4053,-0.7510,-16.724,-2.380,18.555,-140.812,20.803,-19.385
10591,-0.4517,-0.3877,-0.7510,2.808,-0.061,15.991,-140.949,20.973,-19.517
10601,-0.4253,-0.4302,-0.7329,19.775,-0.122,6.775,-140.856,21.072,-19.572
10611,-0.3677,-0.5728,-0.6987,27.649,-1.648,-4.150,-140.565,21.072,-19.528
10621,-0.3193,-0.7012,-0.6748,20.752,-4.700,-13.428,-140.240,20.995,-19.385
10631,-0.2944,-0.7505,-0.6836,4.028,-7.629,-18.372,-140.048,20.885,-19.182
10641,-0.2988,-0.7388,-0.6968,-12.207,-7.935,-16.541,-140.037,20.797,-18.990
10651,-0.3271,-0.6587,-0.7183,-22.278,-5.615,-9.888,-140.191,20.753,-18.869
10661,-0.3662,-0.5630,-0.7417,-19.043,-1.770,-1.648,-140.394,20.764,-18.847
10671,-0.3877,-0.5156,-0.7437,-5.371,1.587,5.005,-140.515,20.808,-18.896
10681,-0.3936,-0.5122,-0.7275,11.108,2.930,6.531,-140.477,20.858,-18.973
10691,-0.3784,-0.5420,-0.6973,22.705,2.502,4.211,-140.284,20.891,-19.023
10701,-0.3613,-0.6133,-0.6743,25.330,0.610,1.221,-140.015,20.896,-19.039
10711,-0.3311,-0.6929,-0.6592,18.555,-0.793,-2.930,-139.757,20.869,-19.006
10721,-0.3130,-0.7271,-0.6660,4.517,-2.319,-5.249,-139.614,20.819,-18.951
10731,-0.3062,-0.7461,-0.6870,-11.902,-2.686,-4.028,-139.647,20.775,-18.896
10741,-0.3281,-0.6851,-0.7061,-24.536,-2.441,-0.244,-139.845,20.770,-18.880
10751,-0.3706,-0.5771,-0.7407,-27.771,-1.404,4.944,-140.153,20.819,-18.907
10761,-0.4053,-0.4785,-0.7524,-17.578,0.916,9.338,-140.433,20.907,-18.995
10771,-0.4312,-0.4360,-0.7456,1.587,3.418,10.803,-140.548,21.006,-19.105
10781,-0.4209,-0.4478,-0.7192,21.057,4.883,8.179,-140.449,21.072,-19.204
10791,-0.3809,-0.5688,-0.6777,32.593,3.784,2.991,-140.142,21.083,-19.259
10801,-0.3433,-0.6807,-0.6553,26.672,-0.122,-3.296,-139.807,21.055,-19.226
10811,-0.3164,-0.7300,-0.6602,7.751,-4.395,-8.789,-139.614,21.000,-19.127
10821,-0.3022,-0.7510,-0.6816,-14.038,-5.859,-10.193,-139.636,20.934,-19.001
10831,-0.3164,-0.7183,-0.7139,-29.968,-4.517,-7.935,-139.850,20.880,-18.907
10841,-0.3452,-0.6221,-0.7578,-33.997,-1.282,-4.150,-140.180,20.847,-18.864
10851,-0.3789,-0.5190,-0.7754,-23.315,1.892,1.526,-140.477,20.858,-18.891
10861,-0.4048,-0.4814,-0.7773,-2.014,4.211,6.348,-140.603,20.896,-18.968
10871,-0.3955,-0.5156,-0.7461,21.118,5.127,6.348,-140.477,20.923,-19.056
10881,-0.3608,-0.6069,-0.7070,34.668,3.235,2.869,-140.136,20.918,-19.105
10891,-0.3462,-0.6655,-0.6899,31.982,-0.916,0.671,-139.779,20.918,-19.105
10901,-0.3350,-0.7021,-0.6987,17.639,-3.479,-0.793,-139.543,20.918,-19.072
10911,-0.3262,-0.7065,-0.7070,-0.427,-4.333,-0.916,-139.488,20.918,-19.034
10921,-0.3516,-0.6362,-0.7095,-15.076,-6.470,1.038,-139.614,20.962,-18.995
10931,-0.3916,-0.5444,-0.7056,-17.761,-10.071,2.747,-139.796,21.088,-18.951
10941,-0.4087,-0.5259,-0.6855,-9.460,-13.123,2.869,-139.894,21.248,-18.885
10951,-0.4126,-0.5381,-0.6587,0.854,-14.709,0.671,-139.861,21.407,-18.787
10961,-0.3926,-0.5811,-0.6445,8.362,-13.611,-2.625,-139.719,21.522,-18.671
10971,-0.3574,-0.6709,-0.6484,10.498,-7.874,-5.432,-139.521,21.544,-18.572
10981,-0.3174,-0.7192,-0.6655,5.798,-0.427,-5.432,-139.378,21.473,-18.523
10991,-0.3086,-0.6978,-0.7075,-2.991,6.042,-1.465,-139.378,21.379,-18.556
11001,-0.3296,-0.6152,-0.7310,-8.667,9.521,5.188,-139.510,21.313,-18.666
11011,-0.3706,-0.5239,-0.7437,-7.507,8.789,11.963,-139.691,21.335,-18.825
11021,-0.3950,-0.4961,-0.7446,0.061,5.310,14.282,-139.818,21.412,-18.979
11031,-0.3999,-0.4878,-0.7261,9.705,-0.610,10.132,-139.812,21.511,-19.056
11041,-0.3892,-0.5400,-0.6938,16.663,-7.324,3.540,-139.658,21.616,-19.034
11051,-0.3657,-0.6289,-0.6646,16.907,-11.963,-3.540,-139.422,21.682,-18.924
11061,-0.3301,-0.6987,-0.6567,10.559,-13.672,-9.338,-139.191,21.698,-18.748
11071,-0.3052,-0.7163,-0.6572,-0.305,-12.634,-11.108,-139.065,21.682,-18.572
11081,-0.3140,-0.6372,-0.6719,-10.925,-9.216,-7.202,-139.098,21.671,-18.446
11091,-0.3354,-0.5698,-0.6870,-12.390,-3.113,-0.183,-139.224,21.682,-18.424
11101,-0.3525,-0.5435,-0.6938,-4.211,4.089,4.211,-139.318,21.682,-18.484
11111,-0.3584,-0.5386,-0.6938,5.249,9.521,4.578,-139.334,21.643,-18.589
11121,-0.3579,-0.5728,-0.6899,10.925,11.963,3.174,-139.274,21.577,-18.699
11131,-0.3599,-0.5840,-0.6875,10.803,11.719,1.953,-139.208,21.506,-18.798
11141,-0.3657,-0.6035,-0.7002,6.409,10.132,1.526,-139.175,21.440,-18.880
11151,-0.3662,-0.6265,-0.7114,0.183,8.850,0.854,-139.191,21.374,-18.951
11161,-0.3730,-0.6079,-0.7339,-7.935,6.958,-0.244,-139.301,21.319,-18.995
11171,-0.3765,-0.6201,-0.7520,-13.916,5.615,-1.221,-139.460,21.270,-19.028
11181,-0.3853,-0.5752,-0.7583,-15.808,4.028,-2.869,-139.653,21.226,-19.034
11191,-0.4160,-0.5024,-0.7637,-10.803,1.709,-2.686,-139.823,21.231,-19.023
11201,-0.4263,-0.4990,-0.7383,1.770,1.221,-2.319,-139.867,21.248,-19.012
11211,-0.4170,-0.5059,-0.7046,14.771,0.122,-3.967,-139.752,21.270,-18.979
11221,-0.3872,-0.6372,-0.6772,20.813,-1.831,-6.287,-139.493,21.253,-18.913
11231,-0.3320,-0.7778,-0.6665,10.742,-3.723,-11.108,-139.257,21.176,-18.798
11241,-0.2896,-0.8267,-0.6855,-11.169,-5.432,-15.808,-139.208,21.055,-18.633
11251,-0.2793,-0.8120,-0.7109,-31.616,-5.127,-15.381,-139.384,20.929,-18.474
11261,-0.3213,-0.6826,-0.7402,-40.894,-2.686,-9.094,-139.735,20.858,-18.380
11271,-0.3755,-0.5347,-0.7690,-31.433,1.709,0.549,-140.109,20.858,-18.397
11281,-0.4219,-0.4731,-0.7729,-6.409,6.958,9.644,-140.301,20.907,-18.523
11291,-0.4214,-0.4722,-0.7441,20.264,10.681,12.268,-140.235,20.951,-18.699
11301,-0.4160,-0.4717,-0.7070,37.537,9.521,11.414,-139.982,21.000,-18.853
11311,-0.3848,-0.6548,-0.6733,40.649,6.470,9.033,-139.576,21.022,-18.973
11321,-0.3247,-0.7998,-0.6523,23.499,1.953,0.732,-139.246,20.978,-18.995
11331,-0.2915,-0.8101,-0.6685,-8.606,-5.066,-6.104,-139.208,20.923,-18.907
11341,-0.2920,-0.7476,-0.6997,-38.025,-9.888,-5.615,-139.482,20.907,-18.792
11351,-0.3701,-0.5239,-0.7363,-50.293,-12.329,1.038,-140.004,21.022,-18.715
11361,-0.4312,-0.4434,-0.7690,-35.950,-10.193,9.521,-140.460,21.209,-18.726
11371,-0.4429,-0.4512,-0.7607,-7.385,-5.249,11.047,-140.641,21.374,-18.781
11381,-0.4253,-0.4312,-0.7339,18.250,-3.418,5.615,-140.559,21.484,-18.803
11391,-0.3853,-0.5044,-0.6841,35.767,-4.333,0.366,-140.229,21.550,-18.776
11401,-0.3394,-0.6577,-0.6396,38.818,-5.920,-3.845,-139.757,21.561,-18.704
11411,-0.2969,-0.7905,-0.6328,24.353,-7.080,-8.911,-139.362,21.506,-18.583
11421,-0.2676,-0.8345,-0.6475,-0.488,-6.775,-11.719,-139.197,21.407,-18.441
11431,-0.2749,-0.8042,-0.6743,-25.330,-4.944,-9.155,-139.318,21.319,-18.331
11441,-0.3291,-0.6133,-0.7080,-39.307,-2.563,-1.709,-139.691,21.302,-18.298
11451,-0.4102,-0.4316,-0.7432,-31.189,0.244,9.277,-140.131,21.407,-18.375
11461,-0.4512,-0.4321,-0.7490,-5.371,5.066,16.663,-140.345,21.533,-18.550
11471,-0.4268,-0.4863,-0.7334,18.982,8.972,13.367,-140.279,21.594,-18.721
11481,-0.3711,-0.6050,-0.6992,31.067,7.812,5.066,-139.993,21.566,-18.814
11491,-0.3374,-0.6846,-0.6704,25.024,3.235,-1.465,-139.697,21.511,-18.825
11501,-0.3247,-0.7163,-0.6748,8.240,-0.732,-5.005,-139.532,21.456,-18.781
11511,-0.3252,-0.7148,-0.6816,-8.545,-1.770,-4.456,-139.543,21.407,-18.732
11521,-0.3516,-0.6216,-0.7085,-20.630,-1.160,-0.183,-139.735,21.401,-18.721
11531,-0.4053,-0.5034,-0.7310,-20.325,0.000,4.578,-140.004,21.467,-18.759
11541,-0.4360,-0.4380,-0.7344,-8.545,1.038,7.080,-140.208,21.555,-18.825
11551,-0.4419,-0.4395,-0.7119,7.812,0.977,5.554,-140.229,21.649,-18.875
11561,-0.4175,-0.5254,-0.6875,20.142,-0.305,0.366,-140.054,21.693,-18.880
11571,-0.3643,-0.6724,-0.6689,18.799,-1.221,-6.165,-139.796,21.660,-18.820
11581,-0.3125,-0.7686,-0.6685,4.272,-1.587,-12.573,-139.620,21.544,-18.704
11591,-0.2808,-0.7983,-0.6938,-14.465,-2.625,-14.587,-139.631,21.401,-18.567
11601,-0.2852,-0.7646,-0.7217,-29.663,-2.136,-10.254,-139.823,21.292,-18.468
11611,-0.3340,-0.6138,-0.7549,-33.325,-0.916,-2.014,-140.158,21.259,-18.446
11621,-0.3979,-0.4902,-0.7725,-19.958,1.343,8.057,-140.455,21.324,-18.523
11631,-0.4370,-0.4600,-0.7642,3.784,4.761,13.733,-140.554,21.423,-18.666
11641,-0.4258,-0.4614,-0.7393,27.222,6.958,11.597,-140.411,21.489,-18.809
11651,-0.3926,-0.5396,-0.6865,41.565,5.981,6.714,-140.048,21.511,-18.907
11661,-0.3604,-0.6411,-0.6514,38.757,2.197,2.380,-139.631,21.511,-18.940
11671,-0.3340,-0.7212,-0.6411,20.325,-2.014,-2.197,-139.340,21.489,-18.907
11681,-0.3198,-0.7446,-0.6597,-6.409,-4.272,-5.066,-139.301,21.451,-18.836
11691,-0.3228,-0.7036,-0.6943,-30.457,-4.211,-4.395,-139.532,21.418,-18.776
11701,-0.3682,-0.5503,-0.7329,-40.955,-2.747,-1.526,-139.960,21.434,-18.743
11711,-0.4321,-0.3936,-0.7632,-31.433,-1.099,3.967,-140.411,21.522,-18.765
11721,-0.4653,-0.3486,-0.7520,-5.249,1.526,7.751,-140.636,21.638,-18.842
11731,-0.4551,-0.3936,-0.7148,22.156,1.953,5.798,-140.543,21.736,-18.902
11741,-0.4009,-0.5708,-0.6660,35.767,-0.916,-0.183,-140.175,21.769,-18.896
11751,-0.3335,-0.7646,-0.6416,26.245,-6.104,-8.728,-139.774,21.725,-18.781
11761,-0.2686,-0.8555,-0.6558,-1.709,-10.864,-16.235,-139.587,21.627,-18.572
11771,-0.2539,-0.7983,-0.6899,-32.471,-13.184,-15.625,-139.741,21.544,-18.353
11781,-0.3164,-0.6436,-0.7378,-48.401,-12.329,-6.165,-140.164,21.561,-18.215
11791,-0.3936,-0.4727,-0.7822,-40.649,-7.141,5.371,-140.652,21.671,-18.210
11801,-0.4424,-0.4277,-0.7998,-13.245,-1.038,12.146,-140.927,21.797,-18.303
11811,-0.4224,-0.4883,-0.7861,17.029,2.686,9.460,-140.867,21.863,-18.402
11821,-0.3696,-0.6260,-0.7393,36.316,1.587,0.183,-140.504,21.841,-18.413
11831,-0.3193,-0.7319,-0.6870,35.522,-3.906,-8.240,-140.043,21.775,-18.320
11841,-0.2959,-0.7817,-0.6606,21.912,-9.888,-11.475,-139.669,21.720,-18.155
11851,-0.2979,-0.7764,-0.6494,5.249,-13.000,-8.118,-139.460,21.714,-18.001
11861,-0.3345,-0.6670,-0.6636,-9.094,-12.268,0.427,-139.471,21.791,-17.919
11871,-0.3975,-0.5649,-0.6934,-11.230,-7.690,9.766,-139.609,21.934,-17.941
11881,-0.4243,-0.5181,-0.7002,-4.028,-1.221,14.587,-139.730,22.077,-18.056
11891,-0.4321,-0.4570,-0.6992,3.662,3.113,14.038,-139.812,22.192,-18.193
11901,-0.4302,-0.4502,-0.6846,12.512,4.211,10.742,-139.801,22.286,-18.309
11911,-0.4082,-0.5327,-0.6699,16.907,3.296,6.531,-139.680,22.335,-18.386
11921,-0.3667,-0.6733,-0.6685,11.292,2.136,0.000,-139.526,22.308,-18.402
11931,-0.3311,-0.7334,-0.6768,-3.845,-0.366,-7.629,-139.471,22.220,-18.336
11941,-0.3203,-0.7407,-0.7061,-22.095,-2.075,-10.864,-139.592,22.115,-18.232
11951,-0.3350,-0.6558,-0.7256,-33.203,-1.770,-9.521,-139.872,22.039,-18.144
11961,-0.3862,-0.5107,-0.7544,-28.931,-0.671,-3.296,-140.208,22.033,-18.111
11971,-0.4292,-0.4922,-0.7622,-9.277,2.991,4.272,-140.389,22.066,-18.166
11981,-0.4282,-0.4687,-0.7461,13.794,6.226,4.944,-140.356,22.094,-18.248
11991,-0.4185,-0.4507,-0.7080,32.898,5.737,2.258,-140.125,22.104,-18.309
12001,-0.3950,-0.5776,-0.6611,41.931,3.235,0.610,-139.708,22.104,-18.336
12011,-0.3574,-0.7251,-0.6396,33.813,0.427,-3.723,-139.279,22.061,-18.309
12021,-0.3184,-0.7905,-0.6465,10.193,-2.380,-9.094,-139.043,21.973,-18.215
12031,-0.2969,-0.7998,-0.6709,-17.395,-3.967,-10.071,-139.087,21.874,-18.105
12041,-0.3188,-0.7275,-0.7031,-38.574,-4.211,-5.920,-139.389,21.824,-18.029
12051,-0.3799,-0.5352,-0.7427,-43.091,-3.235,1.099,-139.856,21.863,-18.018
12061,-0.4473,-0.4165,-0.7627,-25.513,-0.610,9.521,-140.251,21.984,-18.089
12071,-0.4687,-0.4312,-0.7471,3.662,3.906,12.329,-140.361,22.099,-18.221
12081,-0.4375,-0.4609,-0.7163,27.161,6.287,6.592,-140.197,22.143,-18.314
12091,-0.3882,-0.5723,-0.6719,37.842,4.211,-0.366,-139.828,22.121,-18.342
12101,-0.3384,-0.6694,-0.6436,31.311,0.061,-6.226,-139.438,22.061,-18.292
12111,-0.2983,-0.7241,-0.6538,11.902,-3.967,-9.766,-139.208,21.978,-18.182
12121,-0.2769,-0.7305,-0.6709,-9.521,-5.737,-9.583,-139.191,21.896,-18.067
12131,-0.2935,-0.6602,-0.7031,-25.818,-6.714,-5.920,-139.389,21.857,-17.968
12141,-0.3335,-0.5972,-0.7251,-29.358,-6.348,-2.930,-139.664,21.863,-17.902
12151,-0.3887,-0.4946,-0.7212,-20.020,-6.958,-0.916,-139.900,21.929,-17.847
12161,-0.4331,-0.4707,-0.6982,-0.671,-7.446,1.160,-139.949,22.050,-17.803
12171,-0.4351,-0.5083,-0.6670,19.531,-5.005,0.366,-139.774,22.143,-17.770
12181,-0.3916,-0.5981,-0.6455,30.029,-1.892,-2.991,-139.438,22.154,-17.732
12191,-0.3516,-0.6733,-0.6343,26.550,0.549,-4.395,-139.098,22.110,-17.699
12201,-0.3262,-0.6704,-0.6582,11.108,3.662,-4.822,-138.939,22.022,-17.688
12211,-0.3359,-0.6274,-0.6943,-4.578,6.592,-3.357,-138.983,21.929,-17.704
12221,-0.3628,-0.6074,-0.7168,-12.451,9.460,-1.465,-139.131,21.841,-17.759
12231,-0.3911,-0.5854,-0.7446,-13.306,11.230,-1.526,-139.318,21.753,-17.831
12241,-0.4038,-0.5952,-0.7534,-9.094,9.888,-2.869,-139.444,21.671,-17.875
12251,-0.3950,-0.5977,-0.7612,-2.563,6.958,-4.639,-139.499,21.594,-17.886
12261,-0.3784,-0.6421,-0.7598,5.798,4.150,-4.822,-139.438,21.522,-17.875
12271,-0.3379,-0.6875,-0.7446,13.306,1.160,-2.930,-139.285,21.462,-17.858
12281,-0.2925,-0.7437,-0.7310,13.855,-3.235,1.831,-139.092,21.445,-17.853
12291,-0.2729,-0.7964,-0.6963,5.249,-9.399,9.216,-138.966,21.500,-17.858
12301,-0.3179,-0.7305,-0.6904,-12.390,-17.029,18.677,-139.043,21.714,-17.891
12311,-0.4043,-0.5688,-0.7031,-26.428,-20.569,27.100,-139.351,22.066,-17.968
12321,-0.4858,-0.4600,-0.7271,-23.437,-17.639,29.480,-139.713,22.462,-18.083
12331,-0.5200,-0.4341,-0.7441,-4.578,-9.338,22.949,-139.905,22.764,-18.210
12341,-0.5083,-0.4331,-0.7646,21.790,0.671,8.423,-139.823,22.890,-18.281
12351,-0.4321,-0.5356,-0.7383,49.072,8.789,-8.667,-139.378,22.791,-18.270
12361,-0.3599,-0.6772,-0.6855,63.110,11.108,-18.677,-138.680,22.566,-18.199
12371,-0.3179,-0.7896,-0.6436,55.847,8.423,-19.470,-137.994,22.319,-18.100
12381,-0.3096,-0.8130,-0.6138,34.790,4.761,-14.343,-137.510,22.137,-18.018
12391,-0.3467,-0.7026,-0.6196,10.376,3.113,-4.761,-137.340,22.066,-18.001
12401,-0.4150,-0.5698,-0.6289,-5.188,4.700,5.981,-137.428,22.110,-18.083
12411,-0.4707,-0.4824,-0.6421,-9.460,9.338,10.681,-137.637,22.198,-18.237
12421,-0.4766,-0.4790,-0.6475,-5.920,14.709,7.080,-137.812,22.220,-18.402
12431,-0.4268,-0.5410,-0.6372,-1.953,16.968,-2.930,-137.889,22.126,-18.501
12441,-0.3706,-0.6157,-0.6313,-4.395,14.465,-11.841,-137.917,21.945,-18.512
12451,-0.3315,-0.6646,-0.6431,-14.221,8.911,-15.259,-137.994,21.758,-18.452
12461,-0.3115,-0.6914,-0.6626,-24.292,4.639,-14.526,-138.164,21.588,-18.369
12471,-0.3213,-0.6724,-0.6909,-30.945,3.174,-11.353,-138.422,21.462,-18.303
12481,-0.3364,-0.6069,-0.7212,-30.029,4.211,-8.362,-138.719,21.357,-18.265
12491,-0.3501,-0.5728,-0.7319,-20.813,6.958,-5.615,-138.961,21.259,-18.270
12501,-0.3628,-0.5479,-0.7231,-8.484,8.423,-3.540,-139.092,21.182,-18.298
12511,-0.3652,-0.5630,-0.6987,3.479,7.324,-2.380,-139.092,21.121,-18.331
12521,-0.3599,-0.5957,-0.6616,10.071,3.723,-2.563,-138.983,21.083,-18.336
12531,-0.3564,-0.6318,-0.6470,8.423,-0.671,-3.296,-138.856,21.072,-18.303
12541,-0.3394,-0.7056,-0.6357,1.770,-2.319,-4.822,-138.752,21.044,-18.248
12551,-0.3257,-0.7412,-0.6489,-11.536,-1.770,-5.859,-138.768,20.989,-18.188
12561,-0.3184,-0.7383,-0.6807,-24.963,0.916,-4.883,-138.944,20.918,-18.160
12571,-0.3345,-0.6519,-0.7227,-31.982,4.639,-2.258,-139.252,20.847,-18.171
12581,-0.3604,-0.5620,-0.7568,-26.855,8.850,1.770,-139.587,20.797,-18.248
12591,-0.3882,-0.5176,-0.7681,-10.315,12.695,6.042,-139.801,20.759,-18.386
12601,-0.3853,-0.5278,-0.7612,9.644,14.709,6.775,-139.818,20.709,-18.545
12611,-0.3608,-0.5894,-0.7271,23.743,12.756,5.188,-139.636,20.649,-18.671
12621,-0.3457,-0.6665,-0.7021,23.376,6.592,4.211,-139.406,20.616,-18.754
12631,-0.3354,-0.7085,-0.6943,11.414,0.183,2.136,-139.246,20.610,-18.770
12641,-0.3379,-0.6855,-0.6992,-3.723,-4.395,0.793,-139.241,20.632,-18.748
12651,-0.3525,-0.6621,-0.7207,-15.198,-5.188,2.014,-139.367,20.676,-18.726
12661,-0.3638,-0.6230,-0.7466,-18.188,-3.662,2.258,-139.548,20.715,-18.721
12671,-0.3765,-0.5464,-0.7607,-13.794,-2.258,1.953,-139.735,20.759,-18.721
12681,-0.3940,-0.5020,-0.7515,-0.671,-1.282,2.563,-139.812,20.808,-18.732
12691,-0.3984,-0.5205,-0.7192,15.625,-1.038,1.892,-139.702,20.863,-18.743
12701,-0.3877,-0.5645,-0.6777,25.452,-2.197,0.061,-139.449,20.912,-18.726
12711,-0.3774,-0.6289,-0.6514,23.193,-4.211,-0.732,-139.175,20.956,-18.693
12721,-0.3350,-0.7456,-0.6465,11.292,-4.578,-2.625,-138.961,20.951,-18.638
12731,-0.3018,-0.7524,-0.6729,-7.507,-4.517,-3.601,-138.939,20.918,-18.578
12741,-0.3096,-0.6968,-0.7275,-23.743,-4.456,0.000,-139.136,20.912,-18.545
12751,-0.3530,-0.5400,-0.7666,-26.550,-2.319,5.676,-139.466,20.962,-18.572
12761,-0.4263,-0.3657,-0.7832,-13.000,-0.244,12.451,-139.785,21.099,-18.677
12771,-0.4814,-0.2993,-0.7559,13.916,2.014,17.029,-139.889,21.286,-18.825
12781,-0.4780,-0.4321,-0.6992,39.551,2.686,13.489,-139.631,21.440,-18.957
12791,-0.4155,-0.6636,-0.6392,43.457,0.366,1.648,-139.147,21.478,-18.973
12801,-0.3257,-0.8159,-0.6113,20.386,-5.737,-15.137,-138.763,21.385,-18.809
12811,-0.2607,-0.8940,-0.6353,-17.273,-12.939,-27.466,-138.686,21.220,-18.495
12821,-0.2334,-0.8677,-0.6768,-50.903,-17.090,-31.433,-138.950,21.050,-18.122
12831,-0.2549,-0.7119,-0.7261,-67.261,-16.174,-26.489,-139.466,20.929,-17.792
12841,-0.3091,-0.5674,-0.7876,-58.716,-11.780,-13.733,-140.026,20.896,-17.600
12851,-0.3525,-0.5137,-0.8062,-29.846,-3.784,-0.305,-140.383,20.918,-17.573
12862,-0.3721,-0.4858,-0.7920,6.775,2.197,6.897,-140.427,20.956,-17.644
12871,-0.3672,-0.5049,-0.7310,38.391,4.456,9.216,-140.131,20.995,-17.748
12881,-0.3437,-0.5937,-0.6670,54.749,3.418,11.047,-139.614,21.039,-17.864
12891,-0.3369,-0.6689,-0.6187,52.124,0.610,12.024,-139.065,21.105,-17.968
12901,-0.3403,-0.6943,-0.6050,33.875,-2.075,11.536,-138.675,21.187,-18.045
12911,-0.3589,-0.6748,-0.6074,9.216,-2.991,10.803,-138.543,21.281,-18.111
12921,-0.3848,-0.6196,-0.6357,-14.954,-1.160,9.460,-138.686,21.374,-18.177
12931,-0.4028,-0.5566,-0.6851,-28.992,2.502,6.897,-139.021,21.434,-18.254
12941,-0.4141,-0.5054,-0.7266,-31.006,6.042,3.479,-139.417,21.445,-18.325
12951,-0.4038,-0.5112,-0.7461,-23.682,8.789,-0.183,-139.735,21.407,-18.386
12961,-0.3730,-0.5430,-0.7461,-12.146,9.460,-3.906,-139.911,21.313,-18.419
12971,-0.3442,-0.5898,-0.7422,-2.747,7.507,-6.165,-139.955,21.204,-18.419
12981,-0.3247,-0.6372,-0.7275,3.662,3.601,-6.226,-139.894,21.110,-18.391
12991,-0.3271,-0.6455,-0.7163,5.066,-1.099,-4.822,-139.807,21.066,-18.347
13001,-0.3384,-0.6396,-0.7046,4.272,-4.822,-2.075,-139.730,21.072,-18.292
13011,-0.3564,-0.6328,-0.6997,2.747,-6.775,0.549,-139.669,21.127,-18.254
13021,-0.3682,-0.6250,-0.6914,0.977,-7.019,1.038,-139.625,21.187,-18.210
13031,-0.3672,-0.6196,-0.6904,-0.793,-6.348,0.732,-139.603,21.248,-18.171
13041,-0.3589,-0.6079,-0.6855,-2.258,-5.676,1.160,-139.603,21.297,-18.144
13051,-0.3486,-0.5815,-0.6992,-3.357,-4.822,2.136,-139.636,21.341,-18.127
13061,-0.3247,-0.5474,-0.7148,-0.366,-3.784,2.747,-139.669,21.374,-18.122
13071,-0.3066,-0.5342,-0.7432,7.996,-4.211,3.662,-139.636,21.401,-18.127
13081,-0.2935,-0.5146,-0.7700,21.912,-6.714,5.737,-139.488,21.451,-18.127
13091,-0.2969,-0.5317,-0.7632,39.856,-11.169,9.644,-139.147,21.561,-18.127
13101,-0.3267,-0.5864,-0.7227,54.688,-18.860,15.442,-138.620,21.780,-18.116
13111,-0.3545,-0.6558,-0.6689,59.937,-27.710,20.325,-137.988,22.104,-18.083
13121,-0.3750,-0.7075,-0.6064,54.443,-34.485,21.790,-137.346,22.505,-18.012
13131,-0.3931,-0.7056,-0.5903,40.100,-37.720,21.179,-136.835,22.928,-17.902
13141,-0.4097,-0.6968,-0.5781,23.376,-35.583,19.531,-136.489,23.329,-17.792
13151,-0.4263,-0.6265,-0.5889,9.277,-28.076,15.625,-136.329,23.670,-17.704
13161,-0.4561,-0.5576,-0.6201,2.441,-15.930,10.864,-136.307,23.906,-17.672
13171,-0.4775,-0.5562,-0.6392,4.822,-1.221,4.700,-136.296,24.000,-17.699
13181,-0.4873,-0.5679,-0.6597,10.193,13.367,-3.113,-136.258,23.939,-17.776
13191,-0.4717,-0.6543,-0.6567,15.625,24.902,-10.498,-136.137,23.719,-17.880
13201,-0.4360,-0.7310,-0.6343,14.893,31.189,-14.648,-135.983,23.401,-18.001
13211,-0.4106,-0.6963,-0.6494,3.235,31.799,-14.038,-135.972,23.077,-18.133
13221,-0.4019,-0.6519,-0.6670,-6.836,30.457,-10.254,-136.093,22.791,-18.281
13231,-0.4082,-0.6133,-0.6846,-12.451,27.283,-5.859,-136.302,22.571,-18.441
13241,-0.4185,-0.5933,-0.6978,-14.038,23.926,-3.967,-136.527,22.390,-18.589
13251,-0.4150,-0.5991,-0.7061,-12.024,20.874,-5.432,-136.719,22.220,-18.704
13261,-0.3936,-0.6602,-0.6997,-8.850,16.602,-7.935,-136.829,22.050,-18.765
13271,-0.3730,-0.7231,-0.6909,-10.559,11.658,-9.827,-136.906,21.879,-18.770
13281,-0.3662,-0.7290,-0.6968,-17.090,7.446,-9.521,-137.038,21.742,-18.754
13291,-0.3579,-0.7256,-0.7119,-22.705,5.249,-6.897,-137.230,21.638,-18.737
13301,-0.3501,-0.6743,-0.7246,-23.865,4.578,-4.028,-137.466,21.555,-18.737
13311,-0.3491,-0.6230,-0.7324,-18.860,3.296,-1.160,-137.681,21.506,-18.754
13321,-0.3560,-0.6006,-0.7129,-7.996,1.221,1.465,-137.791,21.500,-18.776
13331,-0.3662,-0.5962,-0.6787,2.625,-2.319,2.502,-137.774,21.539,-18.776
13341,-0.3726,-0.6426,-0.6519,8.606,-6.042,1.831,-137.653,21.605,-18.748
13351,-0.3691,-0.6904,-0.6338,7.935,-7.751,-0.488,-137.499,21.654,-18.688
13362,-0.3662,-0.7070,-0.6245,1.465,-7.080,-2.014,-137.401,21.687,-18.622
13371,-0.3721,-0.6924,-0.6270,-6.958,-4.456,-0.916,-137.406,21.714,-18.583
13381,-0.3755,-0.6367,-0.6489,-13.062,-0.122,1.343,-137.516,21.731,-18.589
13391,-0.3809,-0.5771,-0.6816,-13.184,5.005,3.540,-137.697,21.731,-18.655
13401,-0.3740,-0.5532,-0.6934,-6.226,10.132,4.211,-137.834,21.698,-18.759
13411,-0.3628,-0.5356,-0.6958,2.991,13.062,2.625,-137.889,21.627,-18.875
13421,-0.3530,-0.5615,-0.6860,10.132,12.207,0.122,-137.851,21.539,-18.968
13431,-0.3359,-0.6558,-0.6636,12.085,8.057,-2.258,-137.719,21.451,-19.006
13441,-0.3276,-0.7173,-0.6504,4.211,2.380,-3.906,-137.620,21.379,-18.990
13451,-0.3384,-0.7153,-0.6523,-8.728,-2.808,-3.418,-137.637,21.352,-18.946
13461,-0.3721,-0.6548,-0.6509,-19.348,-5.493,0.000,-137.785,21.401,-18.907
13471,-0.4136,-0.5264,-0.6733,-22.949,-4.822,4.822,-138.054,21.511,-18.907
13481,-0.4434,-0.4570,-0.6753,-13.672,-0.305,7.874,-138.290,21.638,-18.968
13491,-0.4502,-0.3633,-0.6768,-0.732,4.272,7.507,-138.466,21.742,-19.061
13501,-0.4263,-0.4556,-0.6836,11.780,7.446,5.249,-138.461,21.780,-19.155
13511,-0.3706,-0.7109,-0.6636,14.099,9.033,-2.258,-138.285,21.687,-19.204
13521,-0.3022,-0.8394,-0.6714,-5.920,6.042,-15.259,-138.219,21.484,-19.122
13531,-0.2646,-0.8501,-0.7046,-33.691,1.160,-24.170,-138.400,21.237,-18.935
13541,-0.2861,-0.7573,-0.7393,-53.772,-3.052,-23.376,-138.818,21.044,-18.726
13551,-0.3428,-0.5908,-0.7852,-56.274,-4.211,-14.587,-139.362,20.962,-18.583
13561,-0.3901,-0.4893,-0.8110,-37.109,-0.732,-3.662,-139.812,20.956,-18.545
13571,-0.4199,-0.4219,-0.7998,-5.554,3.723,2.930,-140.010,20.984,-18.594
13581,-0.4058,-0.3965,-0.7578,26.611,4.272,4.333,-139.894,21.028,-18.660
13591,-0.3696,-0.5742,-0.7026,47.302,1.526,3.845,-139.449,21.050,-18.704
13601,-0.3208,-0.7993,-0.6538,43.640,-2.747,-0.977,-138.906,21.028,-18.677
13611,-0.2705,-0.8643,-0.6528,16.052,-7.751,-8.667,-138.582,20.956,-18.550
13621,-0.2515,-0.8477,-0.6738,-14.343,-11.108,-11.841,-138.565,20.885,-18.375
13631,-0.2788,-0.7690,-0.6982,-36.987,-11.414,-8.362,-138.812,20.858,-18.232
13641,-0.3379,-0.5879,-0.7368,-44.556,-9.399,-0.977,-139.257,20.907,-18.155
13651,-0.4004,-0.4663,-0.7646,-30.457,-5.798,7.751,-139.658,21.033,-18.177
13661,-0.4268,-0.4609,-0.7520,-4.517,-0.977,12.329,-139.823,21.165,-18.270
13671,-0.4170,-0.4517,-0.7271,18.860,2.136,10.254,-139.757,21.264,-18.369
13681,-0.3701,-0.5278,-0.6831,34.302,2.258,6.409,-139.466,21.308,-18.441
13691,-0.3398,-0.6484,-0.6338,35.339,-0.122,4.456,-139.076,21.330,-18.474
13701,-0.3218,-0.7163,-0.6299,19.958,-3.662,2.197,-138.801,21.346,-18.468
13711,-0.3184,-0.7271,-0.6460,-0.488,-6.348,1.282,-138.719,21.368,-18.430
13721,-0.3345,-0.7173,-0.6709,-18.982,-6.287,3.174,-138.845,21.412,-18.413
13731,-0.3589,-0.6489,-0.7080,-29.175,-3.723,4.883,-139.125,21.462,-18.424
13741,-0.3940,-0.5278,-0.7368,-27.222,-1.465,6.592,-139.460,21.533,-18.468
13751,-0.4248,-0.4536,-0.7437,-12.268,0.366,8.362,-139.702,21.632,-18.539
13761,-0.4258,-0.4766,-0.7305,8.179,2.625,7.751,-139.724,21.703,-18.622
13771,-0.3940,-0.5361,-0.7065,23.743,3.967,3.479,-139.537,21.720,-18.677
13781,-0.3613,-0.6021,-0.6758,27.771,2.686,-0.244,-139.257,21.698,-18.693
13791,-0.3398,-0.6934,-0.6558,19.287,0.305,-2.869,-138.999,21.654,-18.671
13801,-0.3213,-0.7246,-0.6616,2.625,-2.319,-5.188,-138.889,21.605,-18.616
13811,-0.3237,-0.7114,-0.6782,-14.343,-4.700,-4.944,-138.950,21.572,-18.539
13821,-0.3560,-0.6328,-0.6963,-23.315,-5.798,-2.441,-139.147,21.594,-18.479
13831,-0.3999,-0.5386,-0.7090,-20.325,-5.432,0.854,-139.373,21.665,-18.452
13841,-0.4292,-0.5034,-0.7080,-7.385,-3.052,3.540,-139.499,21.758,-18.457
13851,-0.4321,-0.5122,-0.6948,8.667,0.305,2.319,-139.466,21.819,-18.479
13862,-0.4043,-0.5713,-0.6733,20.264,3.784,-1.770,-139.268,21.808,-18.490
13871,-0.3613,-0.6646,-0.6504,20.935,6.409,-5.371,-139.016,21.720,-18.490
13881,-0.3237,-0.7378,-0.6558,8.118,7.996,-7.629,-138.856,21.572,-18.484
13891,-0.2998,-0.7495,-0.6772,-9.949,9.033,-7.874,-138.889,21.401,-18.484
13901,-0.3169,-0.6748,-0.6997,-26.978,8.850,-4.272,-139.136,21.275,-18.512
13911,-0.3789,-0.4883,-0.7295,-32.043,7.812,2.197,-139.548,21.253,-18.589
13921,-0.4468,-0.3916,-0.7388,-19.592,7.263,8.423,-139.911,21.319,-18.704
13931,-0.4692,-0.4214,-0.7202,1.404,7.019,8.667,-140.037,21.401,-18.825
13941,-0.4233,-0.5596,-0.6968,16.846,6.165,-0.244,-139.900,21.396,-18.864
13951,-0.3447,-0.7183,-0.6812,16.113,2.869,-11.780,-139.647,21.275,-18.787
13961,-0.2803,-0.8242,-0.6997,-2.136,-1.648,-18.738,-139.515,21.099,-18.627
13971,-0.2471,-0.8467,-0.7207,-22.827,-4.150,-19.104,-139.587,20.923,-18.441
13981,-0.2617,-0.7759,-0.7544,-38.635,-4.456,-12.329,-139.867,20.803,-18.309
13991,-0.3213,-0.5728,-0.7856,-40.344,-3.357,-1.038,-140.295,20.797,-18.276
14001,-0.3955,-0.4536,-0.7998,-20.813,-1.221,11.353,-140.636,20.901,-18.364
14011,-0.4307,-0.4609,-0.7632,6.775,1.404,18.127,-140.707,21.055,-18.523
14021,-0.4248,-0.4878,-0.7266,27.283,1.587,15.747,-140.537,21.193,-18.660
14031,-0.3931,-0.5625,-0.6787,35.706,-2.136,10.620,-140.213,21.302,-18.737
14041,-0.3623,-0.6401,-0.6387,29.297,-6.592,5.676,-139.867,21.396,-18.737
14051,-0.3423,-0.6582,-0.6328,12.268,-10.010,1.221,-139.664,21.467,-18.677
14061,-0.3418,-0.6738,-0.6455,-6.592,-10.742,0.183,-139.647,21.539,-18.605
14071,-0.3521,-0.6680,-0.6797,-23.132,-7.568,0.916,-139.818,21.588,-18.561
14081,-0.3652,-0.6123,-0.7227,-30.701,-2.563,0.488,-140.114,21.605,-18.545
14091,-0.3726,-0.5518,-0.7534,-27.466,1.953,1.099,-140.433,21.599,-18.567
14101,-0.3774,-0.5000,-0.7690,-15.198,5.249,2.808,-140.669,21.583,-18.627
14111,-0.3740,-0.4858,-0.7617,2.075,6.104,4.700,-140.746,21.577,-18.710
14121,-0.3638,-0.5073,-0.7363,17.090,4.944,5.371,-140.652,21.577,-18.787
14131,-0.3511,-0.5776,-0.7061,24.597,2.136,4.150,-140.427,21.583,-18.836
14141,-0.3364,-0.6533,-0.6875,19.470,-1.404,1.526,-140.197,21.583,-18.842
14151,-0.3306,-0.6943,-0.6865,5.493,-4.822,-1.038,-140.070,21.583,-18.798
14161,-0.3418,-0.6968,-0.7007,-9.460,-6.531,-2.075,-140.092,21.594,-18.737
14171,-0.3687,-0.6582,-0.7129,-19.287,-6.165,-0.916,-140.235,21.627,-18.688
14181,-0.3989,-0.5811,-0.7412,-20.813,-4.639,1.404,-140.455,21.687,-18.666
14191,-0.4175,-0.5649,-0.7656,-11.719,-1.648,3.357,-140.603,21.736,-18.682
14201,-0.4160,-0.5894,-0.7700,0.916,1.892,2.258,-140.625,21.753,-18.715
14211,-0.3965,-0.6094,-0.7686,9.827,4.028,-0.610,-140.548,21.720,-18.737
14221,-0.3799,-0.6436,-0.7568,13.000,3.479,-0.977,-140.416,21.682,-18.754
14231,-0.3760,-0.6729,-0.7476,9.338,0.916,0.732,-140.306,21.665,-18.765
14241,-0.3774,-0.6875,-0.7451,2.258,-2.625,2.686,-140.251,21.693,-18.770
14251,-0.3735,-0.6553,-0.7446,-4.883,-6.531,4.700,-140.284,21.758,-18.759
14261,-0.3843,-0.5718,-0.7461,-8.423,-10.315,6.592,-140.383,21.885,-18.748
14271,-0.3965,-0.5415,-0.7363,-4.883,-12.207,7.507,-140.455,22.044,-18.726
14281,-0.3999,-0.5552,-0.7095,2.625,-12.634,5.981,-140.433,22.192,-18.688
14291,-0.3887,-0.5713,-0.6865,7.385,-12.695,2.747,-140.334,22.324,-18.622
14301,-0.3765,-0.6035,-0.6641,8.850,-12.024,0.732,-140.191,22.423,-18.545
14311,-0.3691,-0.6401,-0.6470,6.104,-11.414,1.038,-140.054,22.511,-18.474
14321,-0.3784,-0.6538,-0.6460,0.305,-10.132,2.686,-139.977,22.604,-18.430
14331,-0.3853,-0.6157,-0.6572,-4.517,-7.446,4.639,-139.988,22.698,-18.413
14341,-0.3892,-0.5669,-0.6641,-4.333,-3.784,6.775,-140.037,22.780,-18.446
14351,-0.3931,-0.5322,-0.6729,0.305,-0.244,7.629,-140.076,22.852,-18.506
14362,-0.3994,-0.4888,-0.6851,7.996,2.319,6.348,-140.065,22.901,-18.572
14371,-0.3877,-0.5205,-0.6758,18.555,4.272,3.296,-139.927,22.901,-18.633
14381,-0.3696,-0.5986,-0.6548,23.010,4.822,0.000,-139.686,22.863,-18.666
14391,-0.3452,-0.6660,-0.6465,15.930,2.869,-1.526,-139.477,22.808,-18.671
14401,-0.3408,-0.6816,-0.6582,2.563,-0.122,-0.732,-139.395,22.775,-18.666
14411,-0.3403,-0.6738,-0.6758,-9.705,-1.770,1.648,-139.449,22.764,-18.666
14421,-0.3569,-0.5859,-0.6929,-16.418,-1.709,5.066,-139.625,22.797,-18.699
14431,-0.3892,-0.5225,-0.7158,-13.062,0.000,8.362,-139.823,22.863,-18.765
14441,-0.4058,-0.5034,-0.7168,-1.892,2.747,8.545,-139.927,22.917,-18.858
14451,-0.4019,-0.5264,-0.7007,8.423,5.066,5.432,-139.905,22.928,-18.935
14461,-0.3882,-0.5571,-0.6919,12.695,5.310,1.465,-139.812,22.906,-18.984
14471,-0.3696,-0.5962,-0.6846,11.047,4.089,-0.977,-139.702,22.863,-19.006
14481,-0.3623,-0.6279,-0.6851,5.676,2.197,-1.465,-139.625,22.819,-19.012
14491,-0.3696,-0.6221,-0.7002,-2.136,0.488,0.000,-139.636,22.802,-19.012
14501,-0.3770,-0.6157,-0.7207,-7.935,0.671,1.953,-139.719,22.797,-19.034
14511,-0.3833,-0.6021,-0.7324,-9.949,1.892,3.052,-139.845,22.797,-19.072
14521,-0.3911,-0.5718,-0.7432,-9.094,2.319,3.784,-139.977,22.802,-19.122
14531,-0.4009,-0.5288,-0.7427,-4.211,2.502,3.784,-140.081,22.813,-19.171
14541,-0.4077,-0.5269,-0.7266,3.601,2.136,2.686,-140.103,22.830,-19.204
14551,-0.4111,-0.5342,-0.7109,9.766,1.404,0.427,-140.037,22.846,-19.221
14561,-0.4014,-0.5649,-0.7012,11.780,0.183,-2.380,-139.927,22.841,-19.199
14571,-0.3848,-0.6313,-0.6997,9.155,-0.427,-4.761,-139.801,22.808,-19.160
14581,-0.3599,-0.6792,-0.7070,1.953,-0.366,-6.653,-139.724,22.742,-19.100
14591,-0.3418,-0.6919,-0.7163,-6.409,-0.549,-6.531,-139.724,22.665,-19.045
14601,-0.3452,-0.6538,-0.7222,-11.536,-0.977,-3.662,-139.807,22.615,-19.006
14611,-0.3711,-0.5742,-0.7324,-9.888,-1.160,1.160,-139.927,22.626,-19.006
14621,-0.4043,-0.5439,-0.7231,0.244,-0.061,5.005,-139.971,22.670,-19.050
14631,-0.4175,-0.5156,-0.7041,12.207,1.343,4.700,-139.905,22.720,-19.094
14641,-0.4033,-0.5234,-0.6831,21.729,1.770,1.831,-139.730,22.742,-19.122
14651,-0.3818,-0.6094,-0.6548,24.048,1.221,-0.305,-139.466,22.736,-19.133
14661,-0.3687,-0.6494,-0.6411,14.099,-1.526,-1.770,-139.268,22.725,-19.105
14671,-0.3652,-0.6680,-0.6572,-1.648,-4.150,-1.953,-139.219,22.731,-19.061
14681,-0.3643,-0.6924,-0.6709,-15.259,-3.967,-1.160,-139.307,22.736,-19.023
14691,-0.3662,-0.6919,-0.7026,-24.658,-3.235,0.244,-139.504,22.736,-19.001
14701,-0.3579,-0.6431,-0.7397,-26.550,-2.502,2.380,-139.763,22.742,-19.001
14711,-0.3789,-0.5117,-0.7598,-18.250,-4.517,7.690,-140.015,22.824,-19.034
14721,-0.4238,-0.4492,-0.7490,1.770,-8.240,14.587,-140.114,23.011,-19.100
14731,-0.4526,-0.4419,-0.7183,24.902,-11.719,16.479,-139.971,23.258,-19.155
14741,-0.4346,-0.5337,-0.6631,42.664,-14.343,12.878,-139.565,23.483,-19.160
14751,-0.4141,-0.6719,-0.6211,40.649,-16.296,6.897,-139.070,23.659,-19.105
14761,-0.3940,-0.7285,-0.6069,19.348,-18.860,-0.061,-138.735,23.791,-18.968
14771,-0.3911,-0.7407,-0.6147,-8.545,-18.066,-4.639,-138.658,23.879,-18.798
14781,-0.4019,-0.7271,-0.6333,-30.640,-13.000,-5.188,-138.834,23.928,-18.666
14791,-0.4209,-0.6260,-0.6782,-40.466,-4.333,-4.272,-139.191,23.939,-18.594
14801,-0.4375,-0.5142,-0.7241,-35.583,6.287,-1.099,-139.614,23.906,-18.633
14811,-0.4438,-0.4556,-0.7432,-17.639,14.954,2.991,-139.927,23.846,-18.765
14821,-0.4438,-0.4155,-0.7363,6.165,18.555,4.578,-140.043,23.769,-18.935
14831,-0.4258,-0.4731,-0.7134,27.405,16.663,2.808,-139.889,23.687,-19.072
14841,-0.3872,-0.6294,-0.6655,36.377,11.353,-0.244,-139.526,23.593,-19.149
14851,-0.3643,-0.7231,-0.6577,23.743,3.357,-4.028,-139.219,23.511,-19.144
14862,-0.3486,-0.7485,-0.6709,0.671,-3.357,-6.897,-139.103,23.450,-19.061
14871,-0.3447,-0.7471,-0.6895,-20.752,-6.104,-5.981,-139.208,23.406,-18.968
14881,-0.3652,-0.6621,-0.7236,-33.325,-5.310,-2.502,-139.499,23.401,-18.907
14891,-0.4004,-0.5273,-0.7603,-30.518,-2.380,2.502,-139.861,23.434,-18.913
14901,-0.4292,-0.4824,-0.7646,-13.000,1.770,7.568,-140.098,23.489,-18.990
14911,-0.4326,-0.4751,-0.7383,8.545,4.517,8.301,-140.125,23.538,-19.089
14921,-0.4146,-0.5127,-0.7070,23.071,4.333,5.615,-139.966,23.555,-19.166
14931,-0.3955,-0.5718,-0.6709,26.428,1.648,3.113,-139.713,23.571,-19.204
14941,-0.3926,-0.6299,-0.6626,18.860,-1.953,0.549,-139.493,23.588,-19.193
14951,-0.3833,-0.6685,-0.6689,4.883,-4.211,-2.075,-139.378,23.588,-19.149
14961,-0.3789,-0.6553,-0.6904,-10.620,-4.456,-3.174,-139.433,23.582,-19.089
14971,-0.3896,-0.6011,-0.7178,-19.653,-3.906,-2.075,-139.614,23.588,-19.045
14981,-0.4023,-0.5454,-0.7290,-18.250,-2.380,-0.305,-139.823,23.610,-19.028
14991,-0.4175,-0.4761,-0.7300,-8.850,-1.038,1.282,-139.982,23.643,-19.028
15001,-0.4351,-0.4585,-0.7124,5.981,0.061,1.221,-140.004,23.687,-19.039
15011,-0.4395,-0.4814,-0.6968,18.799,1.709,-2.075,-139.867,23.698,-19.034
15021,-0.4043,-0.5986,-0.6709,25.452,3.296,-7.446,-139.581,23.632,-18.995
15031,-0.3608,-0.7407,-0.6519,18.799,2.991,-12.329,-139.285,23.494,-18.913
15041,-0.3223,-0.7998,-0.6714,-0.488,0.366,-15.015,-139.147,23.329,-18.792
15051,-0.2847,-0.7812,-0.6709,-20.264,-2.808,-13.672,-139.213,23.187,-18.660
15061,-0.3013,-0.6064,-0.6733,-29.480,-7.385,-7.629,-139.444,23.143,-18.545
15071,-0.3511,-0.5215,-0.6626,-19.104,-9.583,0.305,-139.631,23.209,-18.479
15081,-0.4102,-0.4966,-0.6328,0.977,-7.080,4.395,-139.642,23.329,-18.468
15091,-0.4692,-0.4883,-0.6079,16.663,-1.709,4.456,-139.499,23.450,-18.490
15101,-0.4941,-0.5366,-0.6016,21.423,6.897,4.211,-139.312,23.505,-18.572
15111,-0.4790,-0.6187,-0.6045,15.625,15.869,2.808,-139.158,23.461,-18.710
15121,-0.4424,-0.6812,-0.6484,0.977,21.667,-0.427,-139.153,23.313,-18.864
15131,-0.4014,-0.7144,-0.7124,-17.883,24.475,-3.113,-139.345,23.093,-19.012
15141,-0.3804,-0.6948,-0.7910,-34.058,24.536,-2.747,-139.735,22.857,-19.160
15151,-0.3784,-0.6113,-0.8511,-39.124,21.423,-0.305,-140.224,22.665,-19.308
15161,-0.3906,-0.5283,-0.8799,-28.564,14.038,2.747,-140.641,22.555,-19.429
15171,-0.4033,-0.5225,-0.8530,-5.981,4.822,4.883,-140.806,22.544,-19.501
15181,-0.4126,-0.5469,-0.7954,16.541,-3.845,3.113,-140.691,22.599,-19.501
15191,-0.4106,-0.5713,-0.7354,30.762,-11.597,-0.244,-140.372,22.698,-19.424
15201,-0.3970,-0.6372,-0.6738,33.569,-17.212,-1.892,-139.949,22.824,-19.286
15211,-0.3848,-0.6909,-0.6338,23.987,-19.226,-2.258,-139.576,22.950,-19.133
15221,-0.3823,-0.6934,-0.6211,6.836,-17.639,-1.465,-139.378,23.066,-18.995
15231,-0.3848,-0.6523,-0.6313,-9.888,-13.000,0.793,-139.389,23.170,-18.913
15241,-0.3950,-0.5747,-0.6538,-18.738,-6.470,3.601,-139.565,23.253,-18.896
15251,-0.4097,-0.5024,-0.6846,-16.052,-0.183,5.676,-139.785,23.313,-18.940
15261,-0.4219,-0.4512,-0.6963,-3.479,4.028,6.531,-139.922,23.362,-19.023
15271,-0.4160,-0.4976,-0.6948,10.803,6.775,5.371,-139.894,23.373,-19.116
15281,-0.3853,-0.6143,-0.6826,17.517,7.324,0.793,-139.724,23.313,-19.177
15291,-0.3550,-0.6924,-0.6807,10.986,3.967,-3.967,-139.565,23.225,-19.171
15301,-0.3428,-0.7012,-0.6963,-1.709,-0.488,-5.371,-139.515,23.154,-19.122
15311,-0.3467,-0.6470,-0.7095,-10.864,-4.089,-2.075,-139.587,23.137,-19.078
15321,-0.3799,-0.5337,-0.7192,-11.536,-6.348,3.967,-139.735,23.214,-19.061
15331,-0.4180,-0.4741,-0.7236,-1.831,-6.958,8.789,-139.828,23.346,-19.089
15341,-0.4414,-0.4629,-0.7046,10.925,-5.554,8.545,-139.801,23.483,-19.122
15351,-0.4312,-0.4976,-0.6836,19.897,-3.784,3.357,-139.647,23.571,-19.122
15362,-0.4038,-0.6118,-0.6616,19.958,-2.747,-2.563,-139.411,23.582,-19.078
15371,-0.3735,-0.6909,-0.6582,7.812,-2.380,-8.362,-139.241,23.522,-18.995
15381,-0.3594,-0.7070,-0.6812,-9.766,-1.953,-10.986,-139.241,23.434,-18.891
15391,-0.3701,-0.6387,-0.7056,-23.254,-1.282,-8.118,-139.427,23.368,-18.814
15401,-0.3936,-0.5703,-0.7441,-26.306,0.793,-2.502,-139.713,23.340,-18.798
15412,-0.4077,-0.5288,-0.7627,-16.479,3.967,0.671,-139.949,23.318,-18.831
15422,-0.4150,-0.5122,-0.7588,-0.854,5.310,0.244,-140.032,23.291,-18.869
15432,-0.4038,-0.5518,-0.7344,13.489,5.066,-2.991,-139.933,23.236,-18.880
15441,-0.3906,-0.5937,-0.7056,19.775,2.075,-5.859,-139.724,23.181,-18.847
15452,-0.3882,-0.6626,-0.6846,15.564,-2.136,-5.981,-139.504,23.148,-18.781
15461,-0.3857,-0.6968,-0.6792,3.601,-4.578,-5.432,-139.389,23.132,-18.704
15471,-0.3887,-0.6743,-0.6929,-10.986,-5.554,-4.883,-139.427,23.132,-18.627
15482,-0.4072,-0.6011,-0.7109,-19.714,-5.249,-2.869,-139.603,23.159,-18.567
15492,-0.4268,-0.5576,-0.7295,-18.738,-3.723,-1.038,-139.807,23.198,-18.528
15502,-0.4238,-0.5562,-0.7227,-9.399,-1.587,-1.709,-139.916,23.214,-18.506
15512,-0.4062,-0.5801,-0.7070,0.977,-0.305,-5.005,-139.894,23.192,-18.463
15522,-0.3838,-0.5884,-0.6821,9.277,-0.671,-7.385,-139.774,23.148,-18.397
15531,-0.3760,-0.6206,-0.6562,13.794,-2.502,-6.531,-139.576,23.121,-18.325
15542,-0.3740,-0.6748,-0.6431,12.207,-4.211,-4.395,-139.367,23.110,-18.259
15552,-0.3794,-0.6724,-0.6489,3.723,-4.944,-3.235,-139.252,23.121,-18.193
15562,-0.3896,-0.6323,-0.6631,-5.493,-4.150,-1.099,-139.263,23.143,-18.155
15572,-0.3989,-0.6265,-0.6743,-9.277,-1.831,1.465,-139.334,23.170,-18.155
15582,-0.4131,-0.6060,-0.6855,-9.338,0.854,2.319,-139.427,23.187,-18.182
15592,-0.4243,-0.5562,-0.7017,-6.653,2.991,2.625,-139.532,23.203,-18.226
15602,-0.4189,-0.5825,-0.7021,-0.977,4.822,1.892,-139.570,23.192,-18.276
15612,-0.3857,-0.6055,-0.7095,2.197,5.554,-1.099,-139.559,23.137,-18.303
15622,-0.3608,-0.6069,-0.7187,3.296,4.211,-3.296,-139.532,23.066,-18.303
15632,-0.3472,-0.6533,-0.7124,4.822,1.648,-3.357,-139.455,22.994,-18.292
15642,-0.3477,-0.6641,-0.7095,3.723,-1.343,-2.075,-139.384,22.961,-18.265
15652,-0.3608,-0.6548,-0.7007,1.892,-3.540,0.610,-139.334,22.967,-18.243
15662,-0.3979,-0.5962,-0.6880,1.526,-3.906,4.150,-139.318,23.033,-18.248
15672,-0.4326,-0.5659,-0.6802,4.150,-2.197,7.446,-139.301,23.126,-18.298
15682,-0.4468,-0.5352,-0.6621,6.470,0.549,7.629,-139.285,23.214,-18.364
15692,-0.4463,-0.5220,-0.6743,6.226,2.625,5.615,-139.274,23.275,-18.430
15702,-0.4155,-0.5967,-0.6797,4.395,4.700,1.587,-139.246,23.264,-18.474
15712,-0.3760,-0.6597,-0.6948,-3.418,5.005,-3.906,-139.252,23.187,-18.479
15722,-0.3496,-0.6963,-0.7246,-14.221,3.601,-6.897,-139.351,23.071,-18.446
15732,-0.3408,-0.6943,-0.7373,-22.095,2.014,-6.165,-139.526,22.972,-18.408
15742,-0.3706,-0.5664,-0.7563,-23.132,0.244,-1.465,-139.790,22.945,-18.397
15752,-0.4297,-0.4561,-0.7559,-11.169,0.000,6.104,-140.010,23.016,-18.452
15762,-0.4634,-0.4014,-0.7271,9.888,2.380,9.949,-140.065,23.121,-18.550
15772,-0.4644,-0.3931,-0.7002,28.381,4.456,7.507,-139.922,23.203,-18.644
15782,-0.4312,-0.5317,-0.6533,36.011,5.066,0.610,-139.592,23.209,-18.682
15792,-0.3716,-0.7046,-0.6304,23.804,3.540,-9.644,-139.257,23.104,-18.627
15802,-0.3135,-0.7803,-0.6533,-4.395,-0.610,-18.616,-139.147,22.928,-18.468
15812,-0.2920,-0.7573,-0.6831,-31.128,-5.554,-20.630,-139.301,22.769,-18.259
15822,-0.3208,-0.6631,-0.7168,-44.556,-7.751,-14.709,-139.658,22.687,-18.083
15832,-0.3813,-0.5254,-0.7559,-37.659,-6.165,-4.944,-140.054,22.698,-18.001
15842,-0.4243,-0.5186,-0.7607,-13.428,-1.526,3.479,-140.251,22.753,-18.018
15852,-0.4209,-0.5322,-0.7295,12.390,3.357,3.845,-140.186,22.775,-18.078
15862,-0.4009,-0.5381,-0.6934,27.893,4.883,0.488,-139.944,22.758,-18.111
15872,-0.3896,-0.5752,-0.6509,34.607,3.601,-1.038,-139.592,22.736,-18.127
15882,-0.3755,-0.6602,-0.6279,30.090,1.892,-1.770,-139.235,22.709,-18.127
15892,-0.3633,-0.7305,-0.6265,13.550,-0.366,-2.563,-139.005,22.676,-18.105
15902,-0.3652,-0.7056,-0.6577,-9.216,-2.258,-2.380,-139.021,22.654,-18.067
15912,-0.3677,-0.6807,-0.6992,-27.771,-2.319,-0.610,-139.257,22.648,-18.051
15922,-0.3672,-0.6382,-0.7329,-34.729,-0.854,-0.061,-139.592,22.637,-18.040
15932,-0.3804,-0.5508,-0.7573,-29.236,-0.183,0.366,-139.927,22.632,-18.045
15942,-0.4033,-0.4829,-0.7607,-10.803,0.305,1.831,-140.120,22.659,-18.062
15952,-0.4116,-0.4951,-0.7305,13.062,0.671,2.686,-140.054,22.692,-18.089
15962,-0.4019,-0.5488,-0.6865,30.945,0.366,0.305,-139.763,22.714,-18.094
15972,-0.3916,-0.6172,-0.6387,35.889,-1.221,-1.465,-139.362,22.720,-18.073
15982,-0.3877,-0.6694,-0.6187,25.757,-2.686,-1.526,-139.032,22.736,-18.040
15992,-0.3789,-0.6953,-0.6260,7.751,-2.441,-1.282,-138.873,22.742,-18.012
16002,-0.3750,-0.6729,-0.6567,-11.292,-0.610,0.000,-138.939,22.736,-18.007
