elapsed_ms,acc_x_g,acc_y_g,acc_z_g,gyro_x_dps,gyro_y_dps,gyro_z_dps,angle_x_deg,angle_y_deg,angle_z_deg
0,-0.4194,-0.8188,-0.4053,2.380,-0.488,5.127,-116.104,24.670,-80.530
10,-0.4204,-0.8076,-0.4062,1.221,-0.671,5.615,-116.109,24.725,-80.552
21,-0.4219,-0.7998,-0.4141,1.099,-1.465,6.531,-116.115,24.796,-80.568
30,-0.4185,-0.8115,-0.4204,2.136,-1.953,6.836,-116.115,24.862,-80.579
40,-0.4141,-0.8340,-0.4292,3.235,-2.197,6.042,-116.093,24.917,-80.590
50,-0.3945,-0.8691,-0.4365,3.967,-2.258,4.700,-116.060,24.939,-80.590
60,-0.3760,-0.9077,-0.4297,4.333,-2.869,3.723,-116.005,24.939,-80.579
70,-0.3765,-0.9307,-0.4165,3.967,-4.333,4.272,-115.939,24.950,-80.557
80,-0.3911,-0.9214,-0.4053,4.089,-5.493,7.263,-115.867,24.999,-80.535
90,-0.4131,-0.8662,-0.3994,5.798,-5.981,12.512,-115.801,25.120,-80.541
100,-0.4365,-0.7896,-0.4058,10.986,-5.432,18.921,-115.719,25.323,-80.574
110,-0.4585,-0.7300,-0.3965,20.508,-3.296,22.949,-115.576,25.582,-80.651
120,-0.4687,-0.6875,-0.3818,31.128,-0.732,22.217,-115.345,25.834,-80.750
130,-0.4663,-0.6812,-0.3647,40.100,0.732,18.066,-115.021,26.043,-80.843
140,-0.4453,-0.7187,-0.3442,44.556,0.916,11.841,-114.609,26.180,-80.909
150,-0.4297,-0.7852,-0.3184,42.480,-0.610,5.005,-114.175,26.235,-80.925
160,-0.4253,-0.8398,-0.3013,33.508,-3.235,-0.244,-113.780,26.235,-80.892
170,-0.4189,-0.8887,-0.2915,21.118,-5.310,-2.747,-113.489,26.213,-80.826
180,-0.4243,-0.9170,-0.2847,7.507,-6.226,-1.953,-113.318,26.197,-80.755
190,-0.4370,-0.8550,-0.3027,-5.554,-5.493,1.892,-113.313,26.230,-80.706
200,-0.4580,-0.7500,-0.3208,-11.597,-2.563,9.094,-113.434,26.351,-80.722
210,-0.4863,-0.6685,-0.3403,-9.216,0.000,16.541,-113.593,26.570,-80.793
220,-0.5015,-0.6313,-0.3428,-0.061,3.479,19.348,-113.698,26.812,-80.914
230,-0.4927,-0.6353,-0.3477,10.254,5.554,15.869,-113.703,27.010,-81.046
240,-0.4683,-0.7505,-0.3262,17.273,6.226,6.775,-113.571,27.076,-81.140
250,-0.4512,-0.8442,-0.3022,13.916,3.418,-5.676,-113.401,27.004,-81.151
260,-0.4263,-0.9014,-0.3091,1.953,-0.305,-14.221,-113.307,26.851,-81.085
270,-0.3955,-0.9473,-0.3169,-9.583,-2.075,-16.968,-113.307,26.653,-80.986
280,-0.3721,-0.9565,-0.3286,-20.020,-4.150,-14.771,-113.417,26.466,-80.876
290,-0.3804,-0.9414,-0.3418,-27.527,-5.981,-7.202,-113.615,26.367,-80.782
300,-0.4038,-0.8872,-0.3584,-28.870,-5.249,3.357,-113.868,26.384,-80.744
310,-0.4360,-0.8354,-0.3647,-23.437,-3.845,13.489,-114.104,26.516,-80.766
320,-0.4702,-0.7632,-0.3735,-15.137,-1.770,20.020,-114.307,26.730,-80.843
330,-0.4922,-0.6943,-0.3804,-4.028,2.930,22.278,-114.450,26.966,-80.975
340,-0.5000,-0.6655,-0.3706,8.057,9.460,21.545,-114.505,27.186,-81.172
350,-0.4907,-0.6963,-0.3643,15.930,14.160,17.456,-114.483,27.334,-81.398
360,-0.4668,-0.7773,-0.3574,17.578,15.564,9.277,-114.401,27.367,-81.601
370,-0.4429,-0.8623,-0.3477,11.658,12.817,-0.916,-114.318,27.285,-81.727
380,-0.4233,-0.9233,-0.3511,1.099,9.094,-8.545,-114.296,27.131,-81.782
390,-0.4214,-0.9248,-0.3540,-8.728,5.249,-11.292,-114.351,26.966,-81.782
400,-0.4326,-0.8511,-0.3750,-16.357,1.953,-6.592,-114.500,26.878,-81.771
410,-0.4624,-0.7573,-0.3979,-16.479,1.160,4.578,-114.714,26.933,-81.804
420,-0.5015,-0.6816,-0.4062,-7.202,3.906,15.564,-114.895,27.109,-81.914
430,-0.5063,-0.6416,-0.4150,4.272,6.348,20.569,-115.005,27.334,-82.079
440,-0.4658,-0.6978,-0.4155,14.648,8.118,17.029,-114.994,27.477,-82.244
450,-0.4312,-0.8135,-0.3970,18.433,8.057,5.981,-114.873,27.477,-82.354
460,-0.4121,-0.9307,-0.3745,11.719,5.066,-7.446,-114.736,27.334,-82.370
470,-0.4136,-0.9976,-0.3735,-0.916,0.000,-17.395,-114.664,27.120,-82.288
480,-0.4058,-0.9888,-0.3853,-11.597,-3.845,-18.982,-114.686,26.900,-82.161
490,-0.3984,-0.9097,-0.4067,-16.846,-6.775,-9.644,-114.796,26.790,-82.046
500,-0.4268,-0.8291,-0.4341,-13.000,-7.935,6.226,-114.928,26.856,-81.996
510,-0.4741,-0.7554,-0.4409,-1.465,-7.019,19.775,-115.005,27.081,-82.018
521,-0.5210,-0.6587,-0.4292,12.634,-4.761,26.672,-114.999,27.405,-82.095
530,-0.5396,-0.6138,-0.4116,26.550,-1.526,27.710,-114.879,27.746,-82.211
540,-0.5273,-0.6338,-0.3838,37.964,2.441,21.973,-114.626,28.010,-82.343
550,-0.4961,-0.6987,-0.3579,42.542,3.845,10.315,-114.269,28.130,-82.430
560,-0.4541,-0.8057,-0.3232,37.842,1.709,-3.418,-113.873,28.087,-82.430
570,-0.4429,-0.8804,-0.2998,24.475,-4.150,-14.648,-113.527,27.949,-82.321
580,-0.4570,-0.8735,-0.2847,9.155,-11.597,-20.081,-113.286,27.795,-82.106
590,-0.4639,-0.8032,-0.2886,-3.357,-16.174,-15.869,-113.170,27.724,-81.870
600,-0.4854,-0.7163,-0.3105,-8.728,-16.113,-4.272,-113.176,27.784,-81.683
610,-0.5059,-0.6523,-0.3296,-5.493,-13.672,6.775,-113.214,27.971,-81.573
620,-0.4795,-0.6895,-0.3350,2.197,-10.010,10.986,-113.192,28.152,-81.519
630,-0.4429,-0.8110,-0.3208,7.385,-7.751,4.578,-113.077,28.213,-81.458
640,-0.4253,-0.9170,-0.3022,4.211,-7.568,-8.179,-112.934,28.120,-81.343
650,-0.4185,-1.0005,-0.2798,-3.967,-7.568,-18.494,-112.824,27.922,-81.178
660,-0.3979,-1.0322,-0.2803,-12.512,-6.714,-22.095,-112.791,27.669,-81.013
670,-0.3867,-0.9790,-0.2954,-19.409,-5.066,-15.747,-112.868,27.477,-80.892
680,-0.4043,-0.8994,-0.3223,-19.836,-3.967,-0.549,-113.016,27.438,-80.848
690,-0.4438,-0.8306,-0.3467,-12.573,-1.892,14.893,-113.154,27.570,-80.892
700,-0.4937,-0.7441,-0.3574,-1.770,1.526,23.926,-113.253,27.817,-81.013
710,-0.5132,-0.6865,-0.3608,10.498,6.287,26.001,-113.280,28.087,-81.194
720,-0.5225,-0.6514,-0.3584,21.118,10.681,22.034,-113.225,28.312,-81.409
730,-0.5151,-0.6650,-0.3599,27.954,13.733,13.977,-113.093,28.449,-81.612
740,-0.4946,-0.7339,-0.3506,29.785,14.404,3.174,-112.901,28.449,-81.777
750,-0.4814,-0.7974,-0.3311,23.804,11.108,-6.714,-112.703,28.350,-81.865
760,-0.4663,-0.8428,-0.3208,12.085,5.737,-11.963,-112.571,28.207,-81.870
770,-0.4619,-0.8481,-0.3164,-0.610,-0.549,-12.756,-112.527,28.087,-81.810
780,-0.4658,-0.7979,-0.3262,-11.902,-6.165,-8.728,-112.593,28.032,-81.711
790,-0.4834,-0.7417,-0.3408,-16.968,-8.545,-2.319,-112.736,28.070,-81.606
800,-0.4858,-0.7246,-0.3564,-15.198,-7.385,2.014,-112.890,28.147,-81.541
810,-0.4351,-0.8364,-0.3604,-11.230,-5.127,-0.671,-112.978,28.130,-81.486
820,-0.3765,-0.9741,-0.3403,-11.841,-4.517,-9.094,-113.016,27.988,-81.398
830,-0.3540,-1.0820,-0.3320,-18.799,-6.958,-15.137,-113.077,27.768,-81.255
840,-0.4043,-1.0532,-0.3120,-27.710,-10.071,-12.695,-113.214,27.614,-81.096
850,-0.4639,-0.8926,-0.3311,-32.227,-11.292,0.977,-113.450,27.653,-80.986
860,-0.4727,-0.7749,-0.3613,-23.254,-5.798,19.287,-113.708,27.861,-81.008
870,-0.4927,-0.6680,-0.3765,-8.118,1.099,31.494,-113.917,28.191,-81.167
880,-0.5430,-0.5942,-0.3726,6.775,5.615,33.630,-114.033,28.570,-81.376
890,-0.5679,-0.5884,-0.3437,18.921,9.338,27.222,-114.011,28.894,-81.601
900,-0.5405,-0.6372,-0.3159,23.804,12.268,14.404,-113.895,29.059,-81.793
910,-0.4897,-0.7192,-0.3037,18.372,12.268,-0.122,-113.763,29.037,-81.925
920,-0.4551,-0.8130,-0.3027,3.479,9.033,-11.658,-113.714,28.883,-81.964
930,-0.4395,-0.8848,-0.3232,-15.442,3.906,-18.982,-113.807,28.652,-81.920
940,-0.4209,-0.9189,-0.3408,-30.579,0.061,-21.362,-114.033,28.405,-81.821
950,-0.4268,-0.9111,-0.3604,-37.842,-0.854,-17.578,-114.340,28.202,-81.733
960,-0.4482,-0.8813,-0.3906,-34.973,1.465,-8.850,-114.670,28.087,-81.705
970,-0.4619,-0.8384,-0.4087,-22.217,5.554,0.793,-114.928,28.054,-81.766
980,-0.4634,-0.8042,-0.4165,-4.700,8.484,7.690,-115.060,28.076,-81.887
990,-0.4580,-0.7891,-0.3999,13.428,11.169,10.315,-115.021,28.114,-82.051
1000,-0.4546,-0.8096,-0.3628,27.283,13.428,10.437,-114.829,28.141,-82.244
1010,-0.4478,-0.8428,-0.3345,29.846,12.756,10.010,-114.587,28.158,-82.419
1021,-0.4561,-0.8452,-0.3174,21.484,9.155,10.071,-114.401,28.202,-82.562
1030,-0.4629,-0.8218,-0.3188,9.583,5.493,10.193,-114.318,28.262,-82.667
1040,-0.4756,-0.7710,-0.3267,-0.305,1.953,10.132,-114.340,28.361,-82.733
1050,-0.4946,-0.7222,-0.3398,-6.165,0.000,9.094,-114.434,28.477,-82.776
1060,-0.5205,-0.6846,-0.3516,-7.019,1.038,6.775,-114.549,28.592,-82.820
1070,-0.5176,-0.6777,-0.3628,-3.113,3.723,2.991,-114.642,28.658,-82.870
1080,-0.4800,-0.7422,-0.3652,1.892,6.165,-1.953,-114.664,28.625,-82.925
1090,-0.4517,-0.8203,-0.3628,2.380,6.165,-7.080,-114.648,28.521,-82.958
1100,-0.4355,-0.8931,-0.3657,-2.441,3.601,-9.521,-114.642,28.378,-82.947
1110,-0.4077,-0.9653,-0.3701,-8.789,0.183,-9.949,-114.670,28.218,-82.903
1120,-0.4263,-0.9263,-0.3809,-15.747,-4.517,-8.301,-114.763,28.109,-82.815
1130,-0.4893,-0.7876,-0.3975,-17.090,-7.629,-1.038,-114.917,28.141,-82.733
1140,-0.5190,-0.6772,-0.4150,-7.019,-5.249,9.705,-115.049,28.301,-82.727
1150,-0.5522,-0.5830,-0.4165,8.850,0.000,16.357,-115.098,28.542,-82.804
1160,-0.5620,-0.5513,-0.4097,23.926,4.333,15.320,-115.032,28.768,-82.925
1170,-0.5015,-0.6621,-0.3848,33.691,7.751,5.493,-114.802,28.828,-83.029
1180,-0.4507,-0.8042,-0.3467,28.748,5.676,-9.766,-114.510,28.702,-83.040
1190,-0.4287,-0.9102,-0.3281,10.376,-1.831,-22.888,-114.302,28.455,-82.914
1200,-0.3989,-1.0000,-0.3120,-9.949,-9.766,-30.029,-114.214,28.147,-82.672
1210,-0.3892,-0.9961,-0.3218,-28.564,-16.663,-28.259,-114.291,27.883,-82.370
1220,-0.4102,-0.9385,-0.3481,-38.757,-20.447,-18.677,-114.500,27.740,-82.073
1230,-0.4448,-0.8496,-0.3838,-33.386,-18.372,-6.592,-114.725,27.735,-81.854
1240,-0.4863,-0.7690,-0.4111,-14.709,-12.756,3.967,-114.851,27.839,-81.738
1250,-0.5093,-0.7163,-0.4121,10.315,-4.517,9.705,-114.802,27.982,-81.738
1260,-0.5010,-0.6973,-0.4019,35.828,5.249,10.010,-114.543,28.087,-81.843
1270,-0.4585,-0.7529,-0.3662,54.504,13.000,8.179,-114.099,28.114,-82.013
1280,-0.4355,-0.8276,-0.3286,56.519,13.794,6.531,-113.599,28.098,-82.189
1290,-0.4390,-0.8838,-0.2939,44.128,9.338,4.578,-113.165,28.076,-82.304
1300,-0.4399,-0.8853,-0.2676,23.437,2.380,4.272,-112.890,28.076,-82.348
1310,-0.4517,-0.8389,-0.2617,0.000,-4.883,7.080,-112.824,28.152,-82.326
1320,-0.4722,-0.7759,-0.2764,-22.095,-10.620,12.085,-112.983,28.317,-82.271
1330,-0.4902,-0.7231,-0.3125,-36.133,-13.428,14.709,-113.307,28.542,-82.194
1340,-0.5156,-0.6968,-0.3369,-39.612,-13.367,12.146,-113.687,28.757,-82.112
1350,-0.5132,-0.7202,-0.3540,-35.339,-10.620,5.798,-114.022,28.889,-82.024
1360,-0.4858,-0.8008,-0.3569,-25.757,-5.554,-2.991,-114.241,28.883,-81.953
1370,-0.4673,-0.8579,-0.3730,-16.479,-0.366,-10.986,-114.373,28.762,-81.898
1380,-0.4365,-0.9136,-0.3745,-6.470,4.456,-15.747,-114.401,28.553,-81.870
1390,-0.4229,-0.9233,-0.3750,0.000,6.714,-13.977,-114.379,28.345,-81.876
1400,-0.4380,-0.8594,-0.3857,4.150,6.958,-5.188,-114.357,28.235,-81.925
1410,-0.4629,-0.7998,-0.3887,9.521,5.859,7.202,-114.324,28.273,-82.018
1420,-0.4941,-0.7271,-0.3809,14.771,4.272,16.235,-114.269,28.427,-82.139
1430,-0.5205,-0.6592,-0.3809,16.479,1.099,19.775,-114.208,28.663,-82.244
1440,-0.5107,-0.6694,-0.3701,16.479,-2.197,16.846,-114.120,28.872,-82.299
1450,-0.4751,-0.7739,-0.3462,11.353,-6.042,7.446,-113.994,28.971,-82.271
1460,-0.4434,-0.8936,-0.3203,-2.441,-11.047,-5.127,-113.912,28.927,-82.128
1470,-0.4243,-1.0039,-0.3125,-20.020,-13.977,-15.320,-113.939,28.773,-81.914
1480,-0.4619,-0.9414,-0.3232,-33.386,-12.512,-18.616,-114.115,28.619,-81.694
1490,-0.5015,-0.7593,-0.3594,-32.593,-6.592,-9.583,-114.395,28.581,-81.584
1500,-0.5303,-0.6309,-0.3867,-13.306,2.991,7.996,-114.631,28.713,-81.650
1510,-0.5576,-0.5493,-0.4077,13.184,11.841,19.348,-114.725,28.943,-81.865
1521,-0.5400,-0.5571,-0.3896,37.476,15.869,18.372,-114.576,29.136,-82.117
1530,-0.4897,-0.6826,-0.3418,48.584,12.695,7.263,-114.197,29.185,-82.288
1540,-0.4468,-0.8330,-0.2930,39.795,3.784,-8.362,-113.752,29.070,-82.288
1550,-0.4229,-0.9526,-0.2681,16.602,-6.836,-22.339,-113.423,28.834,-82.112
1560,-0.3994,-1.0332,-0.2637,-8.545,-14.954,-28.809,-113.280,28.548,-81.826
1570,-0.3979,-0.9990,-0.2832,-30.884,-17.090,-25.146,-113.373,28.312,-81.530
1580,-0.4253,-0.9063,-0.3237,-39.734,-14.526,-11.780,-113.632,28.218,-81.326
1590,-0.4736,-0.8140,-0.3638,-33.081,-7.080,4.700,-113.939,28.284,-81.277
1600,-0.5254,-0.7046,-0.3804,-16.235,1.831,16.357,-114.192,28.477,-81.370
1610,-0.5596,-0.6079,-0.3813,4.150,8.972,21.057,-114.318,28.724,-81.563
1620,-0.5400,-0.5942,-0.3740,22.278,13.428,16.785,-114.280,28.911,-81.777
1630,-0.4673,-0.7119,-0.3486,31.006,13.245,4.395,-114.066,28.911,-81.936
1640,-0.4224,-0.8555,-0.3286,23.560,7.202,-11.658,-113.813,28.735,-81.958
1650,-0.4023,-1.0078,-0.3101,4.639,-0.732,-24.719,-113.643,28.438,-81.837
1660,-0.4033,-1.0723,-0.3135,-19.165,-5.615,-29.541,-113.670,28.103,-81.645
1670,-0.4399,-0.9512,-0.3452,-37.292,-8.179,-21.790,-113.912,27.894,-81.458
1680,-0.4658,-0.7954,-0.3921,-38.818,-7.263,-5.066,-114.274,27.878,-81.359
1690,-0.4683,-0.7339,-0.4189,-25.452,-2.441,10.132,-114.593,27.988,-81.381
1700,-0.4961,-0.6685,-0.4170,-6.592,2.502,15.320,-114.780,28.158,-81.480
1710,-0.5420,-0.6294,-0.3975,9.644,6.042,14.160,-114.818,28.339,-81.612
1720,-0.5161,-0.6841,-0.3745,22.705,10.193,7.385,-114.697,28.416,-81.749
1730,-0.4639,-0.7729,-0.3423,25.696,10.742,-3.540,-114.478,28.345,-81.843
1740,-0.4438,-0.8237,-0.3389,17.395,5.371,-12.268,-114.285,28.191,-81.843
1750,-0.4233,-0.9141,-0.3296,5.066,0.122,-16.235,-114.153,27.999,-81.771
1760,-0.4067,-0.9375,-0.3320,-7.385,-4.211,-16.357,-114.126,27.812,-81.650
1770,-0.4263,-0.9082,-0.3481,-13.794,-6.958,-12.268,-114.170,27.686,-81.519
1780,-0.4565,-0.8447,-0.3662,-13.977,-6.042,-4.517,-114.263,27.658,-81.436
1790,-0.4648,-0.7866,-0.3740,-6.775,-1.648,3.418,-114.340,27.697,-81.436
1800,-0.4927,-0.7144,-0.3745,3.662,2.686,8.545,-114.373,27.801,-81.502
1810,-0.5010,-0.7002,-0.3691,13.611,6.531,9.399,-114.324,27.905,-81.617
1820,-0.4556,-0.7812,-0.3501,19.775,8.789,4.639,-114.175,27.911,-81.727
1830,-0.4209,-0.8599,-0.3291,15.198,5.859,-2.319,-114.016,27.834,-81.777
1840,-0.4111,-0.9185,-0.3247,2.441,0.183,-7.141,-113.934,27.719,-81.744
1850,-0.3945,-0.9746,-0.3257,-9.827,-4.028,-7.690,-113.939,27.598,-81.667
1860,-0.4160,-0.9243,-0.3281,-18.433,-6.592,-3.845,-114.038,27.543,-81.584
1870,-0.4746,-0.8042,-0.3550,-20.508,-7.751,5.432,-114.214,27.631,-81.530
1880,-0.4907,-0.7383,-0.3750,-11.963,-3.967,13.916,-114.373,27.806,-81.552
1890,-0.5259,-0.6440,-0.3784,0.000,0.671,17.090,-114.472,28.032,-81.639
1900,-0.5488,-0.6084,-0.3804,10.376,4.700,16.235,-114.500,28.251,-81.766
1915,-0.5005,-0.6846,-0.3623,17.395,9.216,8.850,-114.428,28.339,-81.903
1920,-0.4307,-0.8232,-0.3506,13.672,8.911,-3.235,-114.313,28.246,-81.980
1930,-0.3936,-0.9502,-0.3467,-0.488,3.662,-13.611,-114.263,28.037,-81.953
1940,-0.3755,-1.0410,-0.3433,-17.700,-3.052,-17.578,-114.329,27.801,-81.837
1950,-0.4150,-0.9546,-0.3594,-32.288,-8.545,-11.780,-114.543,27.675,-81.694
1960,-0.4888,-0.7690,-0.3960,-32.227,-11.230,2.441,-114.840,27.762,-81.590
1970,-0.5059,-0.6821,-0.4155,-15.442,-8.118,16.846,-115.060,27.993,-81.590
1980,-0.5308,-0.6089,-0.4160,4.333,-4.272,21.301,-115.137,28.279,-81.645
1990,-0.5698,-0.5659,-0.4004,19.165,-2.441,15.991,-115.071,28.542,-81.700
2000,-0.5278,-0.6294,-0.3638,27.649,-0.977,4.883,-114.851,28.663,-81.711
2010,-0.4463,-0.7842,-0.3330,25.208,-1.221,-9.155,-114.560,28.575,-81.656
2021,-0.3999,-0.9380,-0.3169,10.559,-5.981,-22.095,-114.318,28.339,-81.491
2030,-0.3701,-1.0630,-0.3115,-6.836,-12.512,-29.602,-114.181,28.021,-81.222
2040,-0.3491,-1.1030,-0.3135,-21.484,-15.564,-28.076,-114.170,27.724,-80.931
2050,-0.4106,-0.9580,-0.3306,-28.137,-17.944,-15.564,-114.280,27.598,-80.673
2060,-0.4741,-0.7881,-0.3618,-19.348,-14.465,5.432,-114.423,27.719,-80.552
2070,-0.5010,-0.6865,-0.3701,1.953,-4.517,23.682,-114.467,27.999,-80.612
2080,-0.5430,-0.5850,-0.3618,23.010,4.761,31.494,-114.406,28.367,-80.810
2090,-0.5591,-0.5430,-0.3335,37.781,10.559,29.602,-114.219,28.718,-81.057
2100,-0.5044,-0.6597,-0.2930,42.236,13.916,20.081,-113.912,28.905,-81.299
2110,-0.4668,-0.7959,-0.2661,29.724,11.658,3.418,-113.632,28.889,-81.436
2120,-0.4395,-0.9014,-0.2700,3.235,4.211,-13.855,-113.522,28.713,-81.414
2130,-0.4102,-1.0225,-0.2710,-24.475,-1.526,-26.489,-113.610,28.400,-81.277
2140,-0.3960,-0.9966,-0.3149,-48.218,-6.165,-30.151,-113.934,28.076,-81.079
2150,-0.4404,-0.8652,-0.3657,-55.725,-8.240,-22.400,-114.384,27.878,-80.887
2160,-0.4590,-0.7646,-0.4194,-44.312,-4.517,-5.554,-114.835,27.845,-80.815
2170,-0.4736,-0.7300,-0.4409,-19.775,2.686,9.094,-115.126,27.927,-80.887
2180,-0.5347,-0.6533,-0.4248,3.540,8.423,16.235,-115.247,28.103,-81.052
2190,-0.5415,-0.6343,-0.4087,21.545,14.771,17.395,-115.219,28.268,-81.288
2200,-0.4814,-0.7104,-0.3809,31.738,19.043,11.841,-115.054,28.323,-81.541
2210,-0.4395,-0.8223,-0.3633,27.344,16.174,0.977,-114.851,28.240,-81.711
2220,-0.4214,-0.9067,-0.3398,11.292,9.521,-9.705,-114.719,28.065,-81.766
2230,-0.3901,-0.9824,-0.3433,-9.705,0.732,-15.381,-114.730,27.850,-81.700
2240,-0.3887,-0.9771,-0.3613,-26.001,-7.996,-14.709,-114.873,27.675,-81.546
2250,-0.4277,-0.8906,-0.3975,-31.372,-13.000,-8.728,-115.093,27.614,-81.370
2260,-0.4702,-0.7900,-0.4224,-21.667,-11.902,0.854,-115.285,27.669,-81.255
2270,-0.5000,-0.7236,-0.4263,-1.587,-5.554,10.620,-115.351,27.823,-81.249
2280,-0.5239,-0.6670,-0.4146,18.799,0.916,15.686,-115.269,28.015,-81.332
2290,-0.5171,-0.6553,-0.3911,34.607,6.165,14.404,-115.043,28.180,-81.469
2300,-0.4727,-0.7334,-0.3491,42.053,8.728,9.033,-114.692,28.246,-81.601
2310,-0.4336,-0.8413,-0.3105,35.889,6.714,0.305,-114.329,28.196,-81.672
2320,-0.4258,-0.9092,-0.2959,16.113,-0.305,-7.812,-114.088,28.087,-81.628
2330,-0.4077,-0.9395,-0.2939,-4.944,-5.249,-11.780,-114.016,27.944,-81.524
2340,-0.4351,-0.8936,-0.3022,-21.851,-10.925,-9.277,-114.109,27.872,-81.365
2350,-0.4736,-0.7896,-0.3457,-29.907,-12.939,-2.258,-114.335,27.911,-81.222
2360,-0.4858,-0.7202,-0.3784,-23.865,-8.301,5.432,-114.576,28.026,-81.161
2370,-0.5122,-0.6768,-0.3867,-9.827,-2.380,9.460,-114.736,28.174,-81.183
2380,-0.5278,-0.6650,-0.3872,5.188,3.113,8.850,-114.769,28.301,-81.255
2390,-0.4795,-0.7441,-0.3779,18.250,7.996,2.747,-114.659,28.312,-81.354
2400,-0.4146,-0.8687,-0.3481,22.888,8.911,-6.287,-114.434,28.174,-81.414
2410,-0.4072,-0.9355,-0.3325,14.343,3.540,-11.353,-114.230,27.999,-81.398
2420,-0.3994,-0.9878,-0.3345,1.770,-0.854,-10.620,-114.131,27.834,-81.337
2430,-0.4062,-0.9546,-0.3335,-7.385,-2.808,-5.798,-114.131,27.735,-81.282
2440,-0.4810,-0.7910,-0.3516,-12.390,-6.226,4.944,-114.236,27.817,-81.244
2450,-0.5151,-0.6943,-0.3657,-7.202,-4.150,16.296,-114.357,28.037,-81.277
2460,-0.5366,-0.6021,-0.3750,2.563,1.038,20.264,-114.456,28.306,-81.381
2470,-0.5352,-0.5952,-0.3750,12.634,4.578,16.235,-114.467,28.521,-81.502
2480,-0.4785,-0.7373,-0.3501,18.433,7.019,4.211,-114.335,28.548,-81.595
2490,-0.4307,-0.8735,-0.3267,13.000,4.456,-11.475,-114.164,28.389,-81.590
2500,-0.4141,-0.9668,-0.3159,-0.671,-1.831,-21.851,-114.055,28.136,-81.469
2510,-0.3945,-1.0024,-0.3188,-13.733,-5.920,-23.010,-114.049,27.878,-81.299
2521,-0.3950,-0.9502,-0.3335,-21.729,-6.836,-14.221,-114.153,27.713,-81.161
2530,-0.4341,-0.8486,-0.3613,-21.423,-6.470,1.404,-114.324,27.724,-81.107
2540,-0.4927,-0.7422,-0.3711,-12.512,-3.174,16.174,-114.494,27.916,-81.145
2550,-0.5508,-0.6021,-0.3770,0.183,1.892,24.109,-114.626,28.224,-81.277
2560,-0.5640,-0.5439,-0.3706,13.916,7.507,24.963,-114.675,28.542,-81.475
2570,-0.5171,-0.6406,-0.3584,22.583,11.536,16.602,-114.593,28.707,-81.672
2580,-0.4497,-0.8013,-0.3359,19.958,10.864,-1.953,-114.428,28.630,-81.777
2590,-0.4214,-0.9189,-0.3286,4.150,3.845,-21.057,-114.307,28.372,-81.716
2600,-0.4028,-0.9995,-0.3252,-14.648,-1.892,-31.128,-114.313,28.026,-81.552
2610,-0.3916,-0.9912,-0.3452,-28.076,-4.578,-28.259,-114.456,27.713,-81.370
2620,-0.4170,-0.9082,-0.3813,-29.724,-3.845,-15.381,-114.681,27.543,-81.260
2630,-0.4424,-0.8384,-0.4097,-18.799,0.427,1.404,-114.890,27.532,-81.271
2640,-0.4673,-0.7754,-0.4248,-0.549,6.348,13.000,-114.988,27.625,-81.398
2650,-0.5034,-0.6890,-0.4155,18.250,10.315,17.273,-114.955,27.784,-81.584
2660,-0.5093,-0.6733,-0.3838,34.180,13.550,17.212,-114.769,27.938,-81.810
2670,-0.4795,-0.7109,-0.3496,40.833,14.282,13.367,-114.472,28.032,-82.018
2680,-0.4521,-0.7822,-0.3276,33.447,9.766,6.470,-114.186,28.048,-82.150
2690,-0.4448,-0.8530,-0.3066,14.709,2.686,-1.587,-114.005,28.004,-82.167
2700,-0.4351,-0.8906,-0.3135,-7.263,-5.127,-7.996,-113.989,27.922,-82.079
2710,-0.4346,-0.8794,-0.3286,-23.987,-10.803,-10.742,-114.120,27.834,-81.920
2720,-0.4580,-0.8203,-0.3599,-30.090,-11.719,-9.888,-114.335,27.784,-81.749
2730,-0.4614,-0.8042,-0.3857,-23.437,-7.141,-5.676,-114.532,27.762,-81.650
2740,-0.4595,-0.7983,-0.3838,-9.583,-1.404,-0.977,-114.631,27.751,-81.634
2750,-0.4946,-0.7461,-0.3760,3.479,0.916,3.845,-114.631,27.812,-81.661
2760,-0.4951,-0.7236,-0.3652,15.076,3.540,7.751,-114.538,27.905,-81.733
2770,-0.4771,-0.7314,-0.3501,20.935,4.578,8.789,-114.379,27.993,-81.821
2780,-0.4399,-0.8037,-0.3350,19.531,2.747,4.700,-114.192,28.010,-81.870
2790,-0.4243,-0.8779,-0.3154,9.583,-1.160,-3.113,-114.044,27.949,-81.843
2800,-0.4253,-0.9131,-0.3247,-15.259,-8.484,-10.132,-114.088,27.850,-81.711
2810,-0.4404,-0.8618,-0.3472,-19.165,-8.118,-7.507,-114.197,27.790,-81.590
2820,-0.4668,-0.7896,-0.3677,-14.404,-5.127,-1.770,-114.318,27.801,-81.530
2830,-0.4888,-0.7480,-0.3789,-4.211,-0.488,5.005,-114.395,27.872,-81.552
2840,-0.5088,-0.6982,-0.3726,6.409,3.113,7.324,-114.401,27.971,-81.617
2850,-0.4985,-0.6777,-0.3662,13.306,4.517,6.775,-114.346,28.065,-81.694
2860,-0.4609,-0.7466,-0.3545,14.282,4.089,4.089,-114.241,28.098,-81.755
2870,-0.4341,-0.8311,-0.3472,6.897,0.183,-2.441,-114.153,28.048,-81.744
2880,-0.4165,-0.9077,-0.3486,-4.883,-5.310,-9.949,-114.126,27.933,-81.645
2890,-0.4048,-0.9517,-0.3418,-14.832,-9.949,-14.038,-114.148,27.784,-81.475
2900,-0.4399,-0.8921,-0.3423,-21.606,-13.428,-11.169,-114.241,27.708,-81.288
2910,-0.5078,-0.7148,-0.3535,-20.020,-14.160,-1.099,-114.395,27.806,-81.134
2920,-0.5830,-0.5479,-0.3662,-7.874,-9.827,11.841,-114.543,28.087,-81.090
2930,-0.5625,-0.5415,-0.3838,9.888,-0.854,17.334,-114.587,28.372,-81.161
2940,-0.4585,-0.7144,-0.3516,23.010,6.897,4.822,-114.423,28.400,-81.255
2950,-0.4111,-0.8657,-0.3164,18.005,4.211,-16.052,-114.181,28.196,-81.227
2960,-0.3960,-0.9858,-0.2949,4.333,0.854,-33.081,-114.000,27.823,-81.079
2970,-0.3696,-1.0498,-0.3052,-10.010,-0.793,-38.635,-113.934,27.383,-80.892
2980,-0.3823,-0.9912,-0.3340,-20.630,-0.610,-29.480,-114.022,27.048,-80.755
2990,-0.4360,-0.8433,-0.3721,-20.569,-0.305,-9.155,-114.203,26.949,-80.711
3000,-0.4648,-0.7529,-0.3955,-8.911,2.380,10.986,-114.357,27.054,-80.782
3010,-0.4888,-0.6846,-0.3979,4.883,6.470,19.775,-114.439,27.252,-80.942
3021,-0.5181,-0.6479,-0.3779,13.123,7.202,17.578,-114.439,27.455,-81.096
3030,-0.4775,-0.7300,-0.3560,13.428,6.714,9.033,-114.373,27.537,-81.205
3040,-0.4292,-0.8228,-0.3315,6.287,5.676,-5.676,-114.296,27.449,-81.238
3050,-0.4092,-0.8750,-0.3389,-8.667,-0.793,-17.578,-114.313,27.252,-81.151
3060,-0.4141,-0.9028,-0.3398,-19.226,-6.348,-22.217,-114.390,27.037,-80.980
3070,-0.4272,-0.8867,-0.3628,-20.508,-8.118,-20.447,-114.489,26.856,-80.804
3080,-0.4155,-0.8677,-0.3833,-10.437,-5.371,-14.832,-114.532,26.713,-80.678
3090,-0.4419,-0.8228,-0.3857,4.517,0.366,-7.263,-114.478,26.642,-80.651
3100,-0.4551,-0.7788,-0.3643,19.531,7.385,1.221,-114.329,26.631,-80.733
3110,-0.4268,-0.7944,-0.3486,28.748,13.184,8.362,-114.115,26.653,-80.903
3120,-0.4185,-0.8066,-0.3237,27.527,15.198,10.864,-113.912,26.675,-81.107
3130,-0.4131,-0.8516,-0.3130,15.442,12.207,9.277,-113.796,26.691,-81.277
3140,-0.4121,-0.8926,-0.3145,-3.235,7.202,4.700,-113.824,26.675,-81.370
3150,-0.4229,-0.8813,-0.3350,-22.644,1.465,1.099,-114.027,26.653,-81.392
3160,-0.4595,-0.8267,-0.3701,-33.813,-2.075,0.977,-114.357,26.669,-81.376
3170,-0.4639,-0.7881,-0.4082,-30.579,-1.892,0.671,-114.681,26.697,-81.359
3181,-0.4741,-0.7212,-0.4170,-17.212,-0.244,-0.549,-114.906,26.719,-81.354
3191,-0.4927,-0.6787,-0.4243,-0.183,0.671,-0.122,-114.977,26.763,-81.359
3201,-0.4712,-0.7222,-0.3970,17.151,5.493,-0.977,-114.868,26.763,-81.409
3210,-0.4312,-0.7993,-0.3691,24.597,7.141,-3.784,-114.648,26.691,-81.464
3220,-0.4082,-0.8613,-0.3477,18.311,4.822,-5.676,-114.450,26.592,-81.486
3230,-0.3726,-0.9424,-0.3359,3.662,0.122,-6.653,-114.357,26.472,-81.458
3240,-0.3716,-0.9600,-0.3413,-13.306,-5.554,-5.737,-114.401,26.378,-81.376
3250,-0.3872,-0.9561,-0.3613,-24.292,-9.705,-2.808,-114.554,26.334,-81.266
3261,-0.4229,-0.8887,-0.3848,-26.001,-10.376,0.977,-114.758,26.362,-81.161
3271,-0.4492,-0.8115,-0.4028,-17.822,-7.385,5.920,-114.928,26.444,-81.118
3281,-0.4795,-0.7285,-0.4033,-2.808,-3.174,10.315,-115.005,26.581,-81.134
3291,-0.5259,-0.6572,-0.3931,12.512,1.038,13.245,-114.972,26.779,-81.205
3301,-0.4980,-0.6636,-0.3828,24.231,6.836,12.634,-114.840,26.927,-81.332
3310,-0.4458,-0.7378,-0.3506,27.283,7.874,6.409,-114.626,26.966,-81.447
3320,-0.4199,-0.8149,-0.3247,17.273,3.845,-1.892,-114.439,26.922,-81.475
3330,-0.4019,-0.8994,-0.3188,-0.427,-2.502,-8.789,-114.362,26.812,-81.409
3340,-0.3853,-0.9712,-0.3237,-17.212,-7.263,-12.451,-114.417,26.664,-81.277
3350,-0.4043,-0.9355,-0.3477,-29.053,-10.498,-11.719,-114.593,26.559,-81.118
3361,-0.4409,-0.8398,-0.3774,-28.320,-9.888,-6.226,-114.813,26.532,-80.986
3371,-0.4492,-0.7896,-0.3979,-13.916,-4.333,3.296,-114.955,26.581,-80.958
3381,-0.4756,-0.7251,-0.4014,5.981,1.160,10.193,-114.961,26.702,-81.019
3391,-0.4971,-0.6709,-0.3887,24.719,5.249,13.062,-114.824,26.856,-81.134
3400,-0.4663,-0.7046,-0.3564,37.598,9.583,13.123,-114.538,26.971,-81.293
3411,-0.4180,-0.8125,-0.3252,37.537,9.216,8.606,-114.203,26.999,-81.425
3421,-0.4033,-0.8999,-0.2983,21.729,4.639,0.488,-113.950,26.944,-81.475
3431,-0.3818,-0.9785,-0.3042,-2.197,-1.831,-5.920,-113.884,26.834,-81.431
3441,-0.3911,-0.9917,-0.3066,-22.278,-6.104,-8.118,-113.994,26.724,-81.332
3451,-0.4619,-0.8203,-0.3467,-33.325,-9.094,-3.174,-114.263,26.735,-81.222
3461,-0.4902,-0.7134,-0.3911,-26.611,-5.615,7.874,-114.565,26.873,-81.200
3471,-0.4956,-0.6533,-0.4038,-8.301,1.343,15.137,-114.752,27.065,-81.288
3481,-0.5464,-0.5571,-0.4028,8.972,4.517,15.747,-114.829,27.301,-81.409
3491,-0.5366,-0.5903,-0.3857,23.621,7.019,11.536,-114.736,27.477,-81.535
3501,-0.4453,-0.7607,-0.3447,31.494,11.597,0.183,-114.478,27.438,-81.650
3511,-0.3921,-0.8999,-0.3184,20.081,8.057,-13.977,-114.236,27.224,-81.667
3521,-0.3911,-0.9824,-0.3169,-3.540,0.549,-23.682,-114.159,26.944,-81.568
3531,-0.3706,-1.0273,-0.3315,-24.597,-5.127,-26.184,-114.263,26.647,-81.392
3541,-0.3604,-0.9902,-0.3730,-34.790,-8.057,-21.423,-114.494,26.411,-81.211
3551,-0.4014,-0.8989,-0.4121,-31.372,-7.874,-9.766,-114.747,26.312,-81.085
3561,-0.4448,-0.8193,-0.4346,-16.479,-3.662,5.188,-114.939,26.367,-81.074
3571,-0.4678,-0.7583,-0.4346,4.639,1.587,15.442,-114.977,26.516,-81.161
3581,-0.4907,-0.6880,-0.4214,23.682,5.432,18.738,-114.873,26.708,-81.304
3591,-0.5015,-0.6841,-0.3843,36.621,8.728,17.700,-114.631,26.889,-81.480
3601,-0.4644,-0.7314,-0.3521,39.551,10.132,12.695,-114.324,26.993,-81.639
3611,-0.4380,-0.7983,-0.3218,30.029,5.798,4.089,-114.038,27.004,-81.722
3621,-0.4102,-0.8701,-0.2974,11.475,-1.404,-5.249,-113.857,26.933,-81.683
3631,-0.3872,-0.9404,-0.3008,-9.033,-10.010,-11.597,-113.813,26.812,-81.524
3641,-0.3936,-0.9346,-0.3066,-23.376,-15.808,-14.771,-113.890,26.691,-81.299
3651,-0.4448,-0.8418,-0.3320,-28.320,-16.724,-11.841,-114.044,26.647,-81.074
3661,-0.4497,-0.8008,-0.3613,-19.958,-9.827,-2.441,-114.192,26.669,-80.958
3671,-0.4604,-0.7788,-0.3687,-5.066,-1.282,6.287,-114.263,26.746,-80.975
3681,-0.4927,-0.7158,-0.3672,8.667,4.517,10.681,-114.247,26.873,-81.074
3691,-0.4746,-0.7241,-0.3511,20.325,10.986,11.108,-114.137,26.966,-81.233
3701,-0.4512,-0.7588,-0.3306,25.269,14.099,7.690,-113.961,26.993,-81.414
3711,-0.4292,-0.8247,-0.3203,20.447,13.123,2.380,-113.796,26.949,-81.563
3721,-0.4072,-0.8984,-0.3198,5.859,7.996,-2.869,-113.725,26.856,-81.628
3731,-0.3853,-0.9355,-0.3379,-12.634,2.014,-5.981,-113.813,26.735,-81.623
3741,-0.4248,-0.8823,-0.3594,-26.184,-5.249,-5.249,-114.022,26.680,-81.546
3751,-0.4751,-0.7827,-0.3970,-27.649,-7.996,-0.793,-114.285,26.724,-81.458
3760,-0.4858,-0.7310,-0.4180,-16.174,-4.517,3.723,-114.483,26.812,-81.431
3771,-0.5122,-0.6797,-0.4233,-0.732,-1.160,4.456,-114.571,26.911,-81.442
3781,-0.5186,-0.6421,-0.4136,14.709,1.160,1.709,-114.516,26.993,-81.458
3791,-0.4609,-0.7476,-0.3940,27.344,3.906,-3.723,-114.291,26.960,-81.480
3801,-0.3765,-0.9053,-0.3604,30.396,5.249,-12.878,-113.961,26.768,-81.475
3811,-0.3511,-1.0044,-0.3496,19.348,-0.610,-19.958,-113.676,26.505,-81.381
3821,-0.3589,-1.0488,-0.3403,6.775,-6.897,-20.569,-113.483,26.257,-81.216
3831,-0.4243,-0.9194,-0.3613,0.061,-11.353,-13.245,-113.384,26.153,-81.041
3841,-0.4961,-0.7827,-0.4019,9.827,-9.888,0.000,-113.280,26.224,-80.942
3851,-0.5107,-0.6821,-0.4233,34.180,-2.869,7.385,-113.027,26.367,-80.942
3861,-0.4795,-0.6602,-0.4146,60.730,3.601,4.272,-112.544,26.444,-80.997
3871,-0.4263,-0.7764,-0.3599,78.430,5.005,-4.822,-111.802,26.384,-81.030
3881,-0.3735,-0.9067,-0.3018,76.843,0.610,-13.733,-110.984,26.202,-80.980
3891,-0.3242,-1.0366,-0.2515,59.326,-7.446,-18.005,-110.259,25.972,-80.832
3901,-0.3325,-1.0869,-0.2104,32.043,-15.686,-14.526,-109.753,25.796,-80.612
3911,-0.3979,-0.9834,-0.2168,2.563,-21.057,-1.892,-109.556,25.807,-80.381
3921,-0.4565,-0.8354,-0.2573,-13.367,-18.921,14.587,-109.605,26.021,-80.239
3931,-0.4888,-0.7090,-0.2930,-13.306,-11.414,25.330,-109.753,26.362,-80.217
3941,-0.5435,-0.5981,-0.3276,-3.296,-4.272,26.611,-109.902,26.746,-80.272
3951,-0.5605,-0.5742,-0.3252,15.198,3.174,19.714,-109.896,27.054,-80.376
3961,-0.4873,-0.6621,-0.2964,34.851,8.484,5.371,-109.638,27.147,-80.491
3971,-0.4238,-0.7847,-0.2363,40.466,5.859,-9.644,-109.221,27.037,-80.513
3981,-0.3926,-0.9131,-0.1968,26.917,-2.808,-17.944,-108.842,26.834,-80.420
3991,-0.3867,-1.0005,-0.1772,3.357,-10.254,-19.592,-108.638,26.625,-80.239
4001,-0.3999,-0.9790,-0.1899,-21.667,-14.038,-16.602,-108.688,26.466,-80.030
4011,-0.4136,-0.9268,-0.2349,-36.682,-11.963,-9.399,-108.935,26.384,-79.871
4021,-0.4292,-0.8633,-0.2715,-35.706,-4.822,-2.258,-109.248,26.373,-79.810
4031,-0.4697,-0.7812,-0.3135,-22.705,3.113,3.235,-109.517,26.417,-79.854
4041,-0.4492,-0.7773,-0.3320,-1.404,11.597,5.859,-109.633,26.450,-79.997
4051,-0.4180,-0.8047,-0.3145,18.616,16.113,4.150,-109.545,26.428,-80.184
4061,-0.4253,-0.8398,-0.2793,25.635,13.855,3.906,-109.352,26.411,-80.343
4071,-0.4360,-0.8711,-0.2612,20.264,9.155,4.822,-109.171,26.417,-80.458
4081,-0.4253,-0.8916,-0.2549,7.996,4.761,3.723,-109.089,26.422,-80.524
4091,-0.4019,-0.9014,-0.2598,-6.836,0.061,1.587,-109.133,26.406,-80.530
4101,-0.4141,-0.8916,-0.2671,-20.203,-5.005,1.221,-109.286,26.406,-80.480
4111,-0.4360,-0.8726,-0.2905,-25.574,-7.507,0.916,-109.495,26.428,-80.403
4121,-0.4312,-0.8613,-0.3066,-20.081,-5.005,-1.038,-109.671,26.422,-80.349
4131,-0.4448,-0.8394,-0.3091,-9.705,-0.305,-1.404,-109.770,26.411,-80.343
4141,-0.4521,-0.8208,-0.3013,1.587,5.310,2.258,-109.786,26.428,-80.403
4151,-0.4468,-0.8101,-0.3003,9.277,9.399,7.507,-109.753,26.472,-80.530
4161,-0.4438,-0.7876,-0.3076,10.864,10.376,10.681,-109.731,26.548,-80.684
4171,-0.4531,-0.7944,-0.3042,8.545,9.521,10.681,-109.720,26.631,-80.821
4181,-0.4497,-0.8115,-0.3018,2.869,6.958,7.324,-109.742,26.686,-80.925
4191,-0.4277,-0.8501,-0.2998,-4.761,2.502,2.075,-109.803,26.686,-80.958
4201,-0.4224,-0.8760,-0.3071,-12.634,-3.113,-2.319,-109.902,26.653,-80.914
4211,-0.4390,-0.8765,-0.3145,-15.442,-7.812,-4.700,-110.012,26.620,-80.815
4221,-0.4546,-0.8530,-0.3213,-10.620,-9.583,-5.127,-110.067,26.603,-80.695
4231,-0.4570,-0.8213,-0.3301,-0.610,-6.348,-3.418,-110.056,26.598,-80.618
4241,-0.4624,-0.7871,-0.3320,11.902,-1.526,-0.977,-109.957,26.614,-80.596
4251,-0.4453,-0.7891,-0.3062,22.949,2.563,0.671,-109.759,26.625,-80.623
4261,-0.4380,-0.7939,-0.2832,24.475,3.052,2.258,-109.528,26.642,-80.667
4271,-0.4307,-0.8247,-0.2642,16.479,0.366,3.601,-109.358,26.675,-80.684
4281,-0.4263,-0.8584,-0.2451,4.272,-4.028,1.709,-109.265,26.691,-80.645
4291,-0.4150,-0.8999,-0.2388,-8.667,-8.667,-2.258,-109.265,26.669,-80.546
4301,-0.4233,-0.9111,-0.2500,-18.433,-12.573,-5.676,-109.336,26.631,-80.392
4311,-0.4355,-0.9019,-0.2651,-18.738,-13.489,-8.301,-109.418,26.581,-80.222
4321,-0.4321,-0.8843,-0.2808,-10.742,-9.216,-7.446,-109.451,26.526,-80.096
4331,-0.4341,-0.8628,-0.2900,0.549,-2.136,-2.380,-109.424,26.505,-80.063
4341,-0.4507,-0.8193,-0.2900,11.475,4.944,3.784,-109.336,26.532,-80.129
4351,-0.4463,-0.7969,-0.2754,20.020,11.414,7.812,-109.204,26.581,-80.277
4361,-0.4287,-0.8169,-0.2563,20.325,14.648,10.559,-109.067,26.631,-80.475
4371,-0.4414,-0.8188,-0.2461,11.108,12.146,10.864,-109.012,26.702,-80.640
4381,-0.4360,-0.8447,-0.2427,-1.465,7.874,7.874,-109.045,26.746,-80.755
4391,-0.4268,-0.8774,-0.2476,-14.648,3.174,3.723,-109.177,26.752,-80.799
4401,-0.4390,-0.8765,-0.2720,-26.245,-1.099,1.343,-109.413,26.757,-80.793
4411,-0.4697,-0.8203,-0.3027,-28.687,-2.563,0.305,-109.698,26.785,-80.766
4421,-0.4966,-0.7402,-0.3433,-20.813,-0.488,1.160,-109.951,26.840,-80.766
4431,-0.4878,-0.7280,-0.3584,-5.188,3.784,1.953,-110.089,26.889,-80.815
4441,-0.4565,-0.7593,-0.3457,10.315,6.836,-1.526,-110.061,26.867,-80.881
4451,-0.4312,-0.8237,-0.3198,17.822,6.836,-6.042,-109.918,26.779,-80.931
4461,-0.3901,-0.9331,-0.2886,14.526,5.249,-8.179,-109.759,26.636,-80.953
4471,-0.3750,-0.9941,-0.2705,1.404,1.099,-7.202,-109.693,26.499,-80.936
4481,-0.3892,-0.9795,-0.2739,-14.160,-3.235,-2.563,-109.770,26.433,-80.892
4491,-0.4463,-0.8491,-0.2969,-23.254,-5.493,5.432,-109.979,26.499,-80.854
4501,-0.4746,-0.7734,-0.3218,-18.555,-4.272,12.085,-110.187,26.658,-80.859
4511,-0.4785,-0.7529,-0.3276,-5.676,-0.916,11.719,-110.297,26.807,-80.892
4521,-0.4775,-0.7456,-0.3228,5.249,1.160,6.042,-110.292,26.895,-80.931
4531,-0.4482,-0.8091,-0.3027,13.184,2.319,0.793,-110.176,26.900,-80.958
4541,-0.4189,-0.8838,-0.2808,14.221,2.014,-2.502,-110.012,26.845,-80.969
4551,-0.3921,-0.9282,-0.2783,8.789,-0.244,-3.174,-109.885,26.768,-80.953
4561,-0.3892,-0.9580,-0.2808,0.854,-2.258,-0.610,-109.830,26.713,-80.925
4571,-0.4219,-0.9199,-0.2861,-5.127,-2.502,4.089,-109.852,26.730,-80.914
4581,-0.4697,-0.8145,-0.3101,-6.104,-1.770,10.681,-109.929,26.851,-80.936
4591,-0.4810,-0.7622,-0.3218,0.427,1.099,15.442,-109.990,27.026,-81.008
4601,-0.4912,-0.7251,-0.3228,7.202,2.991,15.381,-109.995,27.202,-81.101
4611,-0.4927,-0.7358,-0.3066,11.292,3.113,12.268,-109.946,27.350,-81.178
4621,-0.4766,-0.7754,-0.2915,9.949,1.282,6.714,-109.874,27.438,-81.216
4631,-0.4453,-0.8262,-0.2842,4.700,-1.648,-1.038,-109.808,27.427,-81.200
4641,-0.4238,-0.8838,-0.2783,-1.831,-4.517,-7.080,-109.770,27.350,-81.123
4651,-0.4185,-0.9307,-0.2705,-7.324,-6.653,-10.132,-109.759,27.235,-81.013
4661,-0.4321,-0.9043,-0.2734,-10.681,-6.836,-9.949,-109.781,27.142,-80.903
4671,-0.4556,-0.8408,-0.2842,-8.850,-3.845,-4.822,-109.830,27.109,-80.843
4681,-0.4692,-0.7915,-0.3008,-1.709,1.648,3.601,-109.874,27.158,-80.876
4691,-0.4839,-0.7500,-0.3008,6.653,7.202,8.728,-109.874,27.252,-80.986
4701,-0.4780,-0.7393,-0.2993,11.292,10.620,9.338,-109.852,27.339,-81.134
4711,-0.4639,-0.7827,-0.2827,10.376,10.376,6.836,-109.814,27.383,-81.271
4721,-0.4414,-0.8379,-0.2705,2.625,6.104,1.038,-109.797,27.367,-81.337
4731,-0.4155,-0.8931,-0.2720,-7.507,0.366,-5.798,-109.836,27.279,-81.321
4741,-0.4082,-0.9380,-0.2773,-15.564,-4.517,-9.216,-109.918,27.164,-81.238
4751,-0.4053,-0.9507,-0.2900,-18.738,-7.324,-9.155,-110.023,27.048,-81.123
4761,-0.4214,-0.9111,-0.3066,-16.785,-6.531,-4.761,-110.138,26.993,-81.035
4771,-0.4565,-0.8384,-0.3291,-8.789,-2.197,3.662,-110.231,27.037,-81.030
4781,-0.4961,-0.7681,-0.3374,4.211,4.089,11.047,-110.264,27.158,-81.112
4791,-0.5063,-0.7095,-0.3486,17.334,10.864,13.428,-110.226,27.301,-81.282
4801,-0.4771,-0.7354,-0.3286,26.611,14.954,11.169,-110.094,27.389,-81.480
4811,-0.4673,-0.7715,-0.2954,24.109,11.536,6.653,-109.929,27.433,-81.628
4821,-0.4541,-0.8237,-0.2856,11.780,3.662,1.160,-109.825,27.433,-81.672
4831,-0.4277,-0.8770,-0.2827,-3.784,-4.089,-4.333,-109.819,27.378,-81.612
4841,-0.4180,-0.9150,-0.2896,-17.334,-10.742,-8.179,-109.902,27.301,-81.469
4851,-0.4268,-0.9063,-0.3057,-22.949,-13.916,-10.315,-110.028,27.219,-81.282
4861,-0.4536,-0.8584,-0.3174,-19.226,-12.817,-8.850,-110.143,27.169,-81.112
4871,-0.4702,-0.8223,-0.3262,-6.897,-7.507,-3.357,-110.187,27.175,-81.019
4881,-0.4717,-0.7983,-0.3286,9.399,-0.793,1.892,-110.116,27.208,-81.019
4891,-0.4658,-0.7866,-0.3062,23.560,3.662,2.930,-109.918,27.241,-81.068
4901,-0.4678,-0.7876,-0.2778,28.564,4.761,4.150,-109.660,27.285,-81.134
4911,-0.4546,-0.8140,-0.2534,24.475,3.479,4.944,-109.418,27.328,-81.189
4921,-0.4331,-0.8452,-0.2446,12.939,0.061,3.113,-109.265,27.345,-81.200
4931,-0.4219,-0.8652,-0.2397,-1.892,-3.967,-0.549,-109.226,27.328,-81.156
4941,-0.4253,-0.8936,-0.2427,-15.259,-6.958,-2.747,-109.297,27.301,-81.074
4951,-0.4409,-0.8901,-0.2578,-22.949,-7.996,-3.845,-109.446,27.274,-80.975
4961,-0.4707,-0.8340,-0.2822,-22.644,-6.531,-3.784,-109.627,27.268,-80.892
4971,-0.4849,-0.7817,-0.3066,-13.855,-1.465,-0.793,-109.770,27.290,-80.870
4981,-0.4805,-0.7759,-0.3193,-0.244,4.395,1.709,-109.825,27.318,-80.925
4991,-0.4727,-0.7686,-0.3120,11.841,7.324,0.244,-109.764,27.318,-81.002
5001,-0.4639,-0.7847,-0.2935,17.639,7.080,-1.465,-109.633,27.301,-81.074
5011,-0.4351,-0.8296,-0.2837,15.808,5.371,-2.319,-109.490,27.252,-81.123
5021,-0.4048,-0.8867,-0.2754,7.996,2.136,-3.967,-109.391,27.169,-81.129
5031,-0.4092,-0.9126,-0.2764,-3.235,-1.343,-4.578,-109.380,27.092,-81.101
5041,-0.4229,-0.9116,-0.2871,-11.230,-3.296,-3.235,-109.451,27.037,-81.052
5051,-0.4385,-0.8833,-0.3057,-11.353,-2.563,-0.366,-109.550,27.026,-81.024
5061,-0.4502,-0.8516,-0.3169,-4.944,-0.244,2.930,-109.611,27.048,-81.030
5071,-0.4717,-0.8193,-0.3159,4.578,2.991,4.822,-109.600,27.092,-81.079
5081,-0.4858,-0.7778,-0.3110,12.817,5.615,5.249,-109.534,27.153,-81.161
5091,-0.4727,-0.7676,-0.2930,17.639,7.324,5.920,-109.418,27.213,-81.260
5101,-0.4756,-0.7651,-0.2778,15.930,6.042,6.165,-109.303,27.285,-81.348
5111,-0.4585,-0.7812,-0.2715,7.996,2.686,4.395,-109.243,27.334,-81.392
5121,-0.4277,-0.8369,-0.2676,-2.380,-0.732,-0.122,-109.248,27.318,-81.387
5131,-0.4229,-0.8823,-0.2646,-13.062,-4.761,-5.371,-109.319,27.257,-81.315
5141,-0.4419,-0.8896,-0.2749,-19.897,-7.385,-7.568,-109.446,27.191,-81.205
5151,-0.4492,-0.8765,-0.2891,-18.188,-6.226,-6.897,-109.572,27.136,-81.118
5161,-0.4385,-0.8599,-0.3047,-9.705,-2.686,-4.456,-109.649,27.087,-81.068
5171,-0.4565,-0.8354,-0.3027,0.854,1.221,-1.221,-109.649,27.076,-81.079
5181,-0.4722,-0.8110,-0.2915,8.728,4.028,1.465,-109.583,27.092,-81.129
5191,-0.4736,-0.7891,-0.2886,11.536,5.188,2.441,-109.501,27.120,-81.189
5201,-0.4614,-0.7817,-0.2861,9.827,5.005,1.160,-109.440,27.136,-81.249
5211,-0.4390,-0.8149,-0.2900,4.822,4.028,-2.014,-109.407,27.098,-81.282
5221,-0.4224,-0.8594,-0.2852,-1.465,2.136,-6.714,-109.413,27.010,-81.282
5231,-0.4243,-0.8877,-0.2881,-7.446,-0.427,-9.155,-109.451,26.900,-81.244
5241,-0.4292,-0.8989,-0.2925,-9.338,-1.831,-8.789,-109.506,26.796,-81.189
5251,-0.4360,-0.8726,-0.3013,-7.751,-1.221,-5.676,-109.561,26.735,-81.156
5261,-0.4438,-0.8506,-0.3003,-2.686,1.221,-0.671,-109.594,26.719,-81.167
5271,-0.4629,-0.8013,-0.2988,1.892,3.296,3.296,-109.605,26.757,-81.211
5281,-0.4795,-0.7646,-0.2949,4.395,4.578,4.700,-109.605,26.818,-81.277
5291,-0.4683,-0.7529,-0.2910,4.456,5.554,3.113,-109.605,26.862,-81.348
5301,-0.4409,-0.7910,-0.2822,1.648,4.028,-1.160,-109.611,26.845,-81.387
5311,-0.4209,-0.8413,-0.2773,-3.357,-0.244,-6.470,-109.616,26.774,-81.359
5321,-0.4141,-0.8999,-0.2822,-8.484,-4.333,-9.094,-109.644,26.675,-81.282
5331,-0.4097,-0.9341,-0.2861,-10.620,-6.653,-9.216,-109.677,26.570,-81.178
5341,-0.4072,-0.9268,-0.2998,-9.399,-6.287,-6.531,-109.709,26.494,-81.085
5351,-0.4160,-0.9038,-0.3066,-4.150,-3.052,-0.854,-109.726,26.466,-81.052
5361,-0.4463,-0.8467,-0.3047,2.319,0.427,6.226,-109.715,26.521,-81.079
5371,-0.4619,-0.7861,-0.3057,6.897,3.052,12.268,-109.698,26.647,-81.156
5381,-0.4751,-0.7417,-0.3027,8.362,4.150,15.198,-109.688,26.812,-81.255
5391,-0.4834,-0.7124,-0.2896,7.019,2.625,13.550,-109.677,26.982,-81.337
5401,-0.4751,-0.7388,-0.2681,2.258,-0.366,8.423,-109.666,27.109,-81.365
5411,-0.4722,-0.7651,-0.2554,-7.385,-4.517,1.465,-109.709,27.169,-81.321
5421,-0.4653,-0.7935,-0.2598,-19.653,-7.996,-4.578,-109.841,27.169,-81.222
5431,-0.4604,-0.8208,-0.2764,-29.846,-8.728,-8.362,-110.072,27.131,-81.096
5441,-0.4438,-0.8467,-0.3037,-34.119,-6.775,-11.414,-110.352,27.037,-80.980
5451,-0.4346,-0.8696,-0.3286,-31.494,-3.357,-13.062,-110.627,26.911,-80.892
5461,-0.4243,-0.8887,-0.3525,-23.499,0.671,-12.634,-110.852,26.763,-80.848
5471,-0.4116,-0.9023,-0.3652,-12.512,3.418,-9.766,-110.984,26.620,-80.848
5481,-0.4150,-0.9004,-0.3677,-2.625,3.845,-4.944,-111.033,26.526,-80.870
5491,-0.4316,-0.8770,-0.3623,4.333,2.686,-0.488,-111.017,26.494,-80.892
5501,-0.4409,-0.8438,-0.3564,8.240,1.221,2.197,-110.962,26.499,-80.914
5511,-0.4438,-0.8213,-0.3462,9.033,-0.244,3.845,-110.896,26.537,-80.931
5522,-0.4443,-0.8120,-0.3315,6.836,-2.563,4.150,-110.841,26.587,-80.920
5531,-0.4419,-0.8105,-0.3135,0.671,-5.981,3.967,-110.814,26.647,-80.870
5541,-0.4419,-0.8086,-0.2935,-9.338,-9.705,4.272,-110.863,26.724,-80.788
5551,-0.4517,-0.8130,-0.2876,-21.118,-12.451,4.944,-111.006,26.823,-80.678
5561,-0.4590,-0.8232,-0.2993,-30.334,-12.817,3.052,-111.242,26.906,-80.557
5571,-0.4468,-0.8408,-0.3120,-30.884,-10.498,-3.296,-111.484,26.911,-80.431
5581,-0.4302,-0.8711,-0.3276,-20.874,-5.554,-9.888,-111.638,26.818,-80.332
5591,-0.4189,-0.8989,-0.3262,-3.845,-0.610,-13.306,-111.632,26.669,-80.272
5601,-0.3965,-0.9170,-0.3149,13.794,4.211,-12.024,-111.467,26.499,-80.266
5611,-0.3867,-0.9370,-0.2905,27.710,6.653,-5.371,-111.171,26.373,-80.316
5621,-0.3887,-0.9326,-0.2642,32.715,6.531,3.479,-110.830,26.334,-80.392
5631,-0.4067,-0.8887,-0.2471,26.794,4.089,11.536,-110.550,26.406,-80.486
5641,-0.4365,-0.8374,-0.2441,14.221,2.197,18.005,-110.407,26.565,-80.579
5651,-0.4556,-0.7998,-0.2495,1.099,1.648,20.752,-110.407,26.774,-80.673
5661,-0.4653,-0.7734,-0.2651,-11.292,1.587,19.226,-110.544,26.971,-80.766
5671,-0.4761,-0.7729,-0.2876,-21.790,2.625,15.198,-110.797,27.136,-80.854
5681,-0.4687,-0.7974,-0.3203,-28.198,5.127,9.644,-111.132,27.219,-80.947
5691,-0.4590,-0.8242,-0.3525,-28.809,7.751,4.517,-111.484,27.235,-81.046
5701,-0.4463,-0.8530,-0.3745,-22.949,10.254,1.221,-111.780,27.191,-81.156
5711,-0.4390,-0.8545,-0.3955,-12.634,11.047,0.183,-111.989,27.131,-81.277
5721,-0.4385,-0.8428,-0.3989,0.854,9.949,2.258,-112.066,27.098,-81.387
5731,-0.4468,-0.8286,-0.3936,14.282,7.019,7.141,-112.006,27.125,-81.491
5741,-0.4399,-0.8408,-0.3672,22.522,3.113,11.658,-111.835,27.202,-81.573
5751,-0.4419,-0.8374,-0.3467,20.081,-2.197,15.198,-111.660,27.339,-81.612
5761,-0.4453,-0.8545,-0.3335,10.681,-6.226,16.663,-111.555,27.499,-81.617
5771,-0.4380,-0.8901,-0.3237,-0.305,-7.324,14.160,-111.533,27.631,-81.601
5781,-0.4297,-0.9131,-0.3257,-9.766,-6.714,10.071,-111.599,27.713,-81.568
5791,-0.4565,-0.8877,-0.3232,-13.550,-4.883,8.240,-111.709,27.784,-81.552
5801,-0.5068,-0.7729,-0.3281,-9.949,-2.686,10.681,-111.824,27.927,-81.568
5811,-0.5581,-0.6304,-0.3384,1.831,-0.366,16.968,-111.901,28.185,-81.639
5821,-0.5576,-0.5659,-0.3433,19.348,1.709,18.738,-111.852,28.471,-81.733
5831,-0.5156,-0.5874,-0.3154,33.325,0.610,10.803,-111.610,28.658,-81.788
5841,-0.4761,-0.6982,-0.2563,34.790,-5.310,0.122,-111.226,28.718,-81.733
5851,-0.4551,-0.8232,-0.2227,20.874,-11.230,-9.094,-110.880,28.669,-81.573
5861,-0.4370,-0.9258,-0.2158,-1.831,-14.221,-16.724,-110.720,28.526,-81.354
5871,-0.4258,-0.9692,-0.2314,-20.752,-11.841,-19.958,-110.753,28.328,-81.151
5881,-0.4097,-0.9927,-0.2603,-27.344,-3.906,-17.761,-110.907,28.114,-81.035
5891,-0.4038,-0.9702,-0.2954,-23.193,5.188,-10.071,-111.105,27.938,-81.052
5901,-0.4375,-0.8955,-0.3271,-10.010,12.146,2.014,-111.259,27.878,-81.183
5911,-0.4873,-0.8032,-0.3442,9.460,17.273,14.587,-111.297,27.966,-81.431
5921,-0.4927,-0.7397,-0.3384,26.733,20.752,22.339,-111.209,28.130,-81.738
5931,-0.4946,-0.6919,-0.3228,32.349,19.409,24.292,-111.066,28.334,-82.046
5941,-0.5142,-0.6753,-0.3130,26.367,14.038,20.325,-110.956,28.531,-82.277
5951,-0.5112,-0.7158,-0.3101,12.085,7.812,10.864,-110.918,28.652,-82.403
5961,-0.4917,-0.7583,-0.3203,-6.470,1.648,-1.953,-111.006,28.652,-82.414
5971,-0.4707,-0.8169,-0.3345,-21.790,-3.662,-11.780,-111.193,28.548,-82.326
5981,-0.4521,-0.8818,-0.3462,-27.710,-5.920,-16.541,-111.407,28.389,-82.194
5991,-0.4385,-0.8970,-0.3569,-26.306,-6.042,-16.296,-111.610,28.218,-82.062
6001,-0.4438,-0.8760,-0.3608,-17.456,-5.005,-9.949,-111.747,28.114,-81.969
6011,-0.4707,-0.8296,-0.3589,-4.089,-2.930,0.488,-111.791,28.125,-81.942
6022,-0.4990,-0.7510,-0.3516,9.766,-0.610,7.935,-111.742,28.229,-81.969
6031,-0.5107,-0.6924,-0.3369,19.409,1.160,10.071,-111.616,28.372,-82.024
6041,-0.4946,-0.7246,-0.3149,23.071,1.648,6.531,-111.429,28.460,-82.068
6051,-0.4756,-0.7896,-0.2974,17.273,-0.793,-1.770,-111.242,28.455,-82.051
6061,-0.4468,-0.8647,-0.2891,4.517,-4.395,-10.681,-111.127,28.350,-81.958
6071,-0.4199,-0.9360,-0.2900,-8.301,-7.568,-15.808,-111.099,28.180,-81.815
6081,-0.4282,-0.9243,-0.2944,-16.357,-9.460,-15.015,-111.154,28.032,-81.656
6091,-0.4614,-0.8647,-0.3066,-16.357,-8.545,-7.996,-111.242,27.977,-81.530
6101,-0.5059,-0.7549,-0.3159,-9.277,-5.188,1.892,-111.324,28.048,-81.486
6111,-0.5659,-0.6240,-0.3164,1.160,-2.075,9.216,-111.374,28.251,-81.497
6121,-0.5522,-0.5923,-0.3242,11.597,1.526,9.399,-111.363,28.444,-81.557
6131,-0.4512,-0.7427,-0.3057,17.334,3.906,-1.953,-111.215,28.416,-81.590
6141,-0.3931,-0.8887,-0.2842,8.728,0.366,-18.127,-111.061,28.196,-81.519
6151,-0.3701,-1.0435,-0.2861,-6.531,-4.761,-28.564,-110.989,27.856,-81.348
6161,-0.3809,-1.0859,-0.2881,-18.616,-5.005,-27.710,-111.039,27.526,-81.183
6171,-0.4565,-0.9336,-0.3228,-23.315,-4.333,-13.489,-111.204,27.389,-81.085
6181,-0.5278,-0.7373,-0.3574,-14.343,-1.526,7.751,-111.396,27.521,-81.101
6191,-0.5518,-0.5825,-0.3789,3.540,2.258,20.142,-111.528,27.806,-81.205
6201,-0.5225,-0.5703,-0.3647,19.287,3.052,16.785,-111.495,28.048,-81.310
6211,-0.4634,-0.6772,-0.3110,24.109,-0.366,1.404,-111.286,28.103,-81.310
6221,-0.4346,-0.8228,-0.2803,15.564,-5.981,-17.456,-111.044,27.944,-81.178
6231,-0.3984,-0.9644,-0.2661,1.099,-10.132,-30.029,-110.874,27.642,-80.947
6241,-0.3682,-1.0439,-0.2695,-10.864,-10.559,-32.166,-110.808,27.296,-80.706
6251,-0.3687,-1.0435,-0.2891,-16.357,-7.874,-23.743,-110.836,27.015,-80.530
6261,-0.4053,-0.9766,-0.3071,-11.292,-4.944,-9.094,-110.874,26.895,-80.442
6271,-0.4468,-0.8931,-0.3057,2.930,-0.732,4.883,-110.830,26.927,-80.453
6281,-0.4707,-0.8003,-0.3003,18.921,4.639,12.756,-110.682,27.048,-80.552
6291,-0.4800,-0.7339,-0.2847,29.541,9.155,14.771,-110.468,27.197,-80.706
6301,-0.4746,-0.7144,-0.2715,31.799,10.742,12.695,-110.226,27.323,-80.870
6311,-0.4551,-0.7520,-0.2715,24.963,9.399,6.592,-110.034,27.378,-80.991
6321,-0.4507,-0.8008,-0.2778,10.254,6.226,-0.916,-109.951,27.350,-81.057
6331,-0.4448,-0.8652,-0.2949,-7.385,3.418,-6.897,-110.017,27.263,-81.068
6341,-0.4355,-0.9199,-0.3101,-21.423,1.221,-10.132,-110.204,27.136,-81.041
6351,-0.4453,-0.8901,-0.3330,-27.588,-1.038,-10.925,-110.457,27.015,-80.986
6361,-0.4331,-0.8696,-0.3555,-21.851,-1.160,-8.057,-110.671,26.922,-80.942
6371,-0.4438,-0.8354,-0.3594,-7.996,-0.122,-2.441,-110.770,26.889,-80.931
6381,-0.4556,-0.8105,-0.3511,7.446,0.671,2.380,-110.731,26.917,-80.947
6391,-0.4658,-0.7783,-0.3369,18.738,1.526,3.601,-110.588,26.960,-80.980
6401,-0.4463,-0.7988,-0.3130,23.193,2.441,3.357,-110.380,26.988,-81.019
6411,-0.4248,-0.8442,-0.2881,20.325,1.892,1.343,-110.176,26.982,-81.041
6421,-0.4180,-0.8833,-0.2754,9.521,-1.099,-0.977,-110.045,26.949,-81.030
6431,-0.3994,-0.9355,-0.2705,-2.930,-3.479,-1.770,-110.017,26.895,-80.986
6441,-0.4009,-0.9458,-0.2710,-13.672,-6.165,-1.038,-110.083,26.862,-80.914
6451,-0.4434,-0.8647,-0.2827,-17.639,-8.240,1.282,-110.198,26.895,-80.832
6461,-0.4976,-0.7710,-0.2954,-11.658,-6.226,6.348,-110.303,27.015,-80.793
6471,-0.5005,-0.7290,-0.2979,0.671,-0.977,9.766,-110.330,27.164,-80.821
6481,-0.5039,-0.6885,-0.2920,9.705,2.686,7.874,-110.286,27.296,-80.881
6491,-0.4858,-0.7222,-0.2769,13.611,4.883,3.235,-110.187,27.356,-80.942
6501,-0.4434,-0.8135,-0.2617,10.681,5.127,-2.686,-110.078,27.318,-80.986
6511,-0.4023,-0.8994,-0.2671,-0.427,3.052,-7.751,-110.050,27.191,-80.991
6522,-0.3906,-0.9600,-0.2905,-12.817,1.099,-9.766,-110.132,27.037,-80.964
6531,-0.3945,-0.9795,-0.3169,-19.470,0.366,-8.057,-110.292,26.900,-80.936
6541,-0.4233,-0.9209,-0.3291,-18.127,0.732,-3.113,-110.462,26.834,-80.931
6551,-0.4883,-0.7949,-0.3496,-9.094,1.038,5.737,-110.599,26.911,-80.964
6561,-0.5112,-0.7251,-0.3540,5.371,3.601,13.489,-110.638,27.076,-81.057
6571,-0.5142,-0.6460,-0.3491,15.198,5.066,14.099,-110.616,27.268,-81.167
6581,-0.4966,-0.6489,-0.3330,17.029,2.686,9.766,-110.544,27.422,-81.233
6591,-0.4517,-0.7637,-0.3018,11.353,-0.854,0.916,-110.440,27.444,-81.227
6601,-0.3989,-0.8857,-0.2793,-1.770,-6.287,-11.047,-110.374,27.323,-81.118
6611,-0.3809,-0.9902,-0.2710,-17.639,-11.963,-17.700,-110.413,27.131,-80.920
6621,-0.3867,-1.0293,-0.2803,-27.222,-13.489,-16.724,-110.533,26.949,-80.711
6631,-0.3970,-0.9990,-0.2979,-26.306,-10.559,-9.521,-110.693,26.834,-80.563
6641,-0.4409,-0.9043,-0.3203,-14.648,-5.737,2.563,-110.803,26.862,-80.513
6651,-0.4775,-0.8218,-0.3247,4.211,0.427,13.489,-110.792,26.999,-80.574
6661,-0.5054,-0.7012,-0.3267,21.545,6.409,18.188,-110.682,27.208,-80.711
6671,-0.5024,-0.6440,-0.3052,32.654,10.193,17.944,-110.490,27.416,-80.892
6681,-0.4893,-0.6685,-0.2808,33.936,10.193,13.855,-110.248,27.576,-81.052
6691,-0.4463,-0.7769,-0.2578,23.193,6.592,4.639,-110.039,27.603,-81.140
6701,-0.4214,-0.8687,-0.2524,1.038,0.183,-7.324,-109.979,27.510,-81.118
6711,-0.4150,-0.9551,-0.2554,-22.949,-5.737,-15.198,-110.105,27.339,-80.997
6721,-0.4053,-0.9849,-0.2739,-37.659,-7.690,-16.846,-110.363,27.153,-80.848
6731,-0.4185,-0.9131,-0.3018,-40.100,-7.263,-12.085,-110.682,27.032,-80.728
6741,-0.4526,-0.8311,-0.3369,-28.564,-3.845,-0.183,-110.962,27.037,-80.684
6751,-0.4707,-0.7959,-0.3452,-8.179,2.319,9.766,-111.094,27.136,-80.750
6761,-0.4927,-0.7349,-0.3477,9.094,7.263,12.634,-111.105,27.268,-80.876
6771,-0.4961,-0.7153,-0.3296,20.874,10.742,10.742,-111.006,27.378,-81.030
6781,-0.4741,-0.7476,-0.3135,25.146,12.390,5.493,-110.847,27.416,-81.183
6791,-0.4438,-0.8052,-0.3013,20.203,9.521,-2.319,-110.682,27.356,-81.277
6801,-0.4185,-0.8721,-0.3037,7.019,4.028,-8.057,-110.605,27.241,-81.282
6811,-0.4038,-0.9380,-0.3076,-7.263,-1.160,-10.254,-110.627,27.098,-81.233
6821,-0.4092,-0.9351,-0.3159,-17.761,-7.141,-10.132,-110.731,26.982,-81.118
6831,-0.4331,-0.8872,-0.3286,-20.081,-9.644,-5.737,-110.869,26.938,-80.991
6841,-0.4604,-0.8389,-0.3374,-12.878,-7.202,1.282,-110.978,26.977,-80.925
6851,-0.4805,-0.7876,-0.3423,-1.465,-2.808,6.531,-111.011,27.070,-80.920
6861,-0.4961,-0.7324,-0.3379,8.667,0.854,7.996,-110.984,27.186,-80.958
6871,-0.4951,-0.7056,-0.3296,15.930,3.357,6.714,-110.896,27.290,-81.024
6881,-0.4595,-0.7588,-0.3066,20.386,4.517,1.892,-110.731,27.312,-81.079
6891,-0.4224,-0.8467,-0.2822,17.029,2.319,-5.371,-110.539,27.235,-81.079
6901,-0.4014,-0.9185,-0.2759,7.019,-2.258,-10.925,-110.402,27.098,-81.013
6911,-0.3857,-0.9858,-0.2720,-2.502,-5.371,-12.146,-110.330,26.938,-80.909
6921,-0.3896,-0.9883,-0.2764,-7.935,-6.714,-9.399,-110.314,26.812,-80.804
6931,-0.4297,-0.9131,-0.2808,-7.935,-6.348,-1.770,-110.325,26.790,-80.728
6941,-0.4873,-0.8101,-0.2998,-2.502,-3.052,9.827,-110.352,26.922,-80.733
6951,-0.4966,-0.7275,-0.3062,5.920,2.563,16.602,-110.363,27.120,-80.826
6961,-0.4907,-0.6660,-0.3071,11.353,6.165,15.747,-110.347,27.307,-80.953
6971,-0.4868,-0.6812,-0.2920,13.245,6.836,10.132,-110.297,27.438,-81.063
6981,-0.4653,-0.7637,-0.2915,9.216,5.676,1.099,-110.242,27.455,-81.129
6991,-0.4233,-0.8691,-0.2905,-0.183,2.869,-9.338,-110.220,27.328,-81.123
7001,-0.4043,-0.9683,-0.3062,-10.742,-0.854,-15.930,-110.270,27.125,-81.052
7011,-0.4097,-0.9878,-0.3374,-14.099,-2.747,-18.433,-110.352,26.911,-80.953
7022,-0.4331,-0.9434,-0.3745,-4.822,-1.038,-16.602,-110.374,26.719,-80.876
7031,-0.4722,-0.8413,-0.3989,17.761,2.869,-10.193,-110.248,26.620,-80.865
7041,-0.4556,-0.8052,-0.3877,46.631,6.897,-2.563,-109.869,26.576,-80.931
7051,-0.4238,-0.8008,-0.3374,64.331,6.104,1.587,-109.292,26.565,-80.997
7061,-0.4380,-0.7974,-0.2866,61.340,-0.732,3.967,-108.693,26.609,-81.008
7071,-0.4385,-0.8359,-0.2515,47.363,-6.958,3.113,-108.177,26.664,-80.942
7081,-0.4087,-0.8643,-0.2246,28.076,-11.841,-1.099,-107.803,26.669,-80.815
7091,-0.4146,-0.8599,-0.2163,7.385,-15.320,-3.174,-107.617,26.669,-80.640
7101,-0.4487,-0.8423,-0.2134,-5.127,-15.320,-1.526,-107.556,26.708,-80.469
7111,-0.4878,-0.7861,-0.2075,-7.446,-11.841,1.892,-107.551,26.801,-80.349
7121,-0.5005,-0.7495,-0.2104,-2.808,-6.470,4.517,-107.534,26.922,-80.299
7131,-0.4883,-0.7383,-0.1987,2.319,-1.709,2.930,-107.485,27.010,-80.288
7141,-0.4741,-0.7417,-0.1973,3.906,0.854,-1.648,-107.424,27.043,-80.294
7151,-0.4541,-0.7759,-0.1987,2.808,2.380,-6.653,-107.364,26.999,-80.294
7161,-0.4233,-0.8555,-0.2056,-0.977,3.845,-11.536,-107.336,26.862,-80.299
7171,-0.3970,-0.9297,-0.2212,-7.690,4.822,-14.587,-107.375,26.669,-80.299
7181,-0.3750,-0.9971,-0.2373,-14.160,5.371,-14.954,-107.479,26.444,-80.310
7191,-0.3696,-1.0171,-0.2539,-18.555,5.676,-11.963,-107.639,26.246,-80.327
7201,-0.3940,-0.9629,-0.2817,-19.714,5.859,-4.089,-107.842,26.142,-80.376
7211,-0.4272,-0.8936,-0.3110,-14.465,7.080,6.226,-108.040,26.158,-80.475
7221,-0.4517,-0.8237,-0.3232,-5.432,9.644,13.245,-108.188,26.263,-80.623
7231,-0.4746,-0.7539,-0.3364,2.014,10.986,15.137,-108.303,26.411,-80.788
7241,-0.4819,-0.7417,-0.3296,6.714,10.681,13.367,-108.364,26.543,-80.953
7251,-0.4766,-0.7661,-0.3159,6.226,7.690,7.996,-108.391,26.631,-81.063
7261,-0.4502,-0.8008,-0.3032,0.366,2.319,0.061,-108.424,26.631,-81.085
7271,-0.4282,-0.8501,-0.2939,-7.202,-3.174,-5.981,-108.474,26.576,-81.030
7281,-0.4170,-0.9033,-0.2915,-12.329,-7.568,-8.850,-108.539,26.488,-80.920
7291,-0.4072,-0.9243,-0.2866,-11.841,-9.216,-10.864,-108.583,26.378,-80.782
7301,-0.4131,-0.9092,-0.2764,-7.385,-7.874,-8.667,-108.594,26.290,-80.667
7311,-0.4336,-0.8799,-0.2690,-0.122,-3.723,-1.343,-108.556,26.279,-80.623
7321,-0.4414,-0.8403,-0.2617,7.324,0.977,5.188,-108.484,26.329,-80.651
7331,-0.4492,-0.7915,-0.2515,11.230,4.333,7.385,-108.397,26.406,-80.728
7341,-0.4663,-0.7603,-0.2407,10.864,5.493,7.202,-108.320,26.499,-80.810
7351,-0.4736,-0.7559,-0.2378,6.836,4.883,4.883,-108.270,26.570,-80.876
7361,-0.4556,-0.7759,-0.2495,-0.183,3.174,-0.488,-108.281,26.581,-80.909
7371,-0.4287,-0.8315,-0.2656,-7.874,1.343,-6.836,-108.353,26.510,-80.898
7381,-0.4023,-0.9146,-0.2705,-13.489,-0.183,-11.292,-108.446,26.367,-80.859
7391,-0.3979,-0.9590,-0.2788,-16.113,-1.953,-13.000,-108.556,26.208,-80.793
7401,-0.4058,-0.9478,-0.2910,-14.526,-2.075,-10.132,-108.660,26.076,-80.733
7411,-0.4355,-0.8921,-0.3081,-7.629,0.244,-2.747,-108.737,26.038,-80.728
7421,-0.4482,-0.8457,-0.3145,2.930,3.967,4.517,-108.748,26.071,-80.782
7431,-0.4561,-0.7881,-0.3130,11.658,6.592,6.531,-108.704,26.136,-80.876
7441,-0.4409,-0.7827,-0.2979,15.381,6.897,5.371,-108.611,26.180,-80.969
7451,-0.4307,-0.8169,-0.2676,12.695,4.517,2.563,-108.506,26.191,-81.024
7461,-0.4346,-0.8223,-0.2612,3.235,-0.305,-0.488,-108.463,26.197,-81.019
7471,-0.4111,-0.8677,-0.2554,-6.653,-3.845,-2.075,-108.490,26.169,-80.975
7481,-0.4106,-0.8936,-0.2568,-14.893,-6.165,-2.502,-108.578,26.142,-80.898
7491,-0.4272,-0.8862,-0.2671,-18.860,-7.080,-1.709,-108.710,26.136,-80.821
7501,-0.4248,-0.8872,-0.2837,-15.259,-4.517,-0.732,-108.831,26.125,-80.766
7511,-0.4258,-0.8750,-0.2896,-6.836,-0.671,-0.122,-108.891,26.115,-80.760
7522,-0.4507,-0.8320,-0.3042,3.052,2.625,2.319,-108.885,26.136,-80.799
7531,-0.4624,-0.7905,-0.3081,12.512,5.676,4.578,-108.820,26.186,-80.870
7541,-0.4478,-0.7876,-0.2988,19.043,7.141,4.700,-108.693,26.224,-80.964
7551,-0.4365,-0.7993,-0.2876,18.616,5.493,3.357,-108.550,26.246,-81.035
7561,-0.4224,-0.8452,-0.2739,11.902,2.258,0.854,-108.435,26.241,-81.063
7571,-0.4082,-0.8882,-0.2637,0.854,-1.343,-2.258,-108.402,26.202,-81.041
7581,-0.4097,-0.9004,-0.2588,-10.193,-4.639,-3.479,-108.452,26.158,-80.980
7591,-0.4448,-0.8525,-0.2671,-17.822,-6.714,-0.977,-108.583,26.169,-80.903
7601,-0.4888,-0.7666,-0.2837,-18.860,-6.348,2.991,-108.765,26.268,-80.848
7611,-0.5415,-0.6260,-0.3008,-13.794,-4.395,4.456,-108.957,26.439,-80.815
7621,-0.5474,-0.5762,-0.3228,-4.944,-2.014,2.014,-109.100,26.598,-80.804
7631,-0.4624,-0.7109,-0.3057,4.883,1.160,-9.827,-109.083,26.543,-80.777
7641,-0.3804,-0.8535,-0.2876,5.432,-1.282,-27.100,-108.973,26.257,-80.667
7651,-0.3257,-1.0444,-0.2612,-0.854,-5.981,-37.109,-108.847,25.834,-80.469
7661,-0.2988,-1.1548,-0.2563,-9.766,-8.850,-35.095,-108.787,25.417,-80.250
7671,-0.2842,-1.1641,-0.2715,-15.991,-10.376,-24.292,-108.803,25.104,-80.057
7681,-0.3188,-1.0967,-0.2769,-14.954,-8.911,-7.568,-108.858,24.966,-79.937
7691,-0.4033,-0.9619,-0.2808,-7.385,-5.188,10.925,-108.896,25.054,-79.920
7701,-0.4497,-0.8496,-0.2788,3.845,0.061,22.949,-108.885,25.285,-80.002
7711,-0.4780,-0.7314,-0.2739,10.315,4.578,26.428,-108.864,25.582,-80.145
7721,-0.4888,-0.6758,-0.2725,10.254,6.653,24.658,-108.858,25.873,-80.305
7731,-0.4756,-0.6899,-0.2603,6.592,6.775,16.541,-108.869,26.076,-80.436
7741,-0.4502,-0.7422,-0.2637,-2.136,4.639,4.333,-108.924,26.142,-80.497
7751,-0.4248,-0.8320,-0.2847,-12.390,2.625,-5.981,-109.050,26.071,-80.502
7761,-0.4155,-0.9072,-0.2954,-16.968,2.136,-12.024,-109.199,25.928,-80.480
7771,-0.4062,-0.9292,-0.3184,-15.320,3.601,-12.146,-109.341,25.768,-80.475
7781,-0.4131,-0.9009,-0.3379,-8.667,6.226,-5.737,-109.462,25.670,-80.519
7791,-0.4341,-0.8555,-0.3408,1.465,7.568,3.296,-109.506,25.670,-80.612
7801,-0.4604,-0.7817,-0.3384,10.620,7.385,9.399,-109.490,25.757,-80.722
7811,-0.4624,-0.7407,-0.3335,14.771,6.409,10.620,-109.435,25.878,-80.832
7822,-0.4624,-0.7363,-0.3091,13.306,3.662,7.629,-109.369,25.977,-80.898
7831,-0.4448,-0.7705,-0.2876,5.859,-1.038,2.319,-109.319,26.027,-80.892
7841,-0.4141,-0.8481,-0.2690,-4.883,-5.615,-4.578,-109.319,25.994,-80.821
7852,-0.3921,-0.9097,-0.2651,-16.541,-9.583,-10.620,-109.391,25.889,-80.678
7861,-0.3877,-0.9507,-0.2642,-22.339,-11.353,-13.000,-109.501,25.763,-80.513
7871,-0.3765,-0.9624,-0.2700,-19.714,-8.545,-11.475,-109.600,25.631,-80.381
7882,-0.3857,-0.9414,-0.2783,-11.475,-3.235,-5.554,-109.660,25.549,-80.327
7892,-0.4185,-0.8931,-0.2788,-0.549,2.808,2.686,-109.660,25.549,-80.365
7902,-0.4438,-0.8364,-0.2769,9.827,8.606,9.399,-109.600,25.620,-80.491
7912,-0.4526,-0.7729,-0.2798,15.198,12.573,12.207,-109.528,25.724,-80.667
7922,-0.4570,-0.7573,-0.2749,14.893,13.428,11.658,-109.462,25.829,-80.848
7932,-0.4526,-0.7686,-0.2759,8.667,11.353,7.507,-109.446,25.889,-80.997
7941,-0.4385,-0.7979,-0.2852,-1.282,8.179,1.160,-109.501,25.889,-81.085
7952,-0.4204,-0.8389,-0.2964,-11.780,5.249,-4.150,-109.633,25.829,-81.129
7962,-0.4058,-0.8818,-0.3101,-18.311,3.540,-7.019,-109.814,25.730,-81.140
7972,-0.4160,-0.8838,-0.3242,-19.714,2.625,-7.385,-110.012,25.631,-81.140
7982,-0.4111,-0.8892,-0.3428,-15.564,3.174,-5.554,-110.182,25.543,-81.151
7992,-0.4019,-0.8911,-0.3491,-7.019,4.211,-3.113,-110.281,25.477,-81.183
8002,-0.4214,-0.8657,-0.3481,1.343,3.479,0.610,-110.297,25.455,-81.222
8012,-0.4419,-0.8242,-0.3423,8.057,2.563,4.456,-110.259,25.499,-81.266
8022,-0.4463,-0.7866,-0.3301,11.597,1.953,6.653,-110.187,25.576,-81.310
8032,-0.4375,-0.7788,-0.3169,11.414,0.916,6.165,-110.110,25.648,-81.343
8042,-0.4307,-0.8013,-0.3018,7.935,-1.160,2.625,-110.034,25.686,-81.343
8052,-0.4131,-0.8481,-0.2847,1.648,-3.662,-2.197,-109.984,25.670,-81.293
8062,-0.3965,-0.8911,-0.2749,-5.554,-6.042,-5.493,-109.973,25.615,-81.211
8072,-0.3882,-0.9292,-0.2656,-9.888,-7.263,-6.287,-109.990,25.543,-81.112
8082,-0.3921,-0.9355,-0.2568,-9.216,-6.897,-5.554,-109.995,25.477,-81.019
8092,-0.4082,-0.8931,-0.2578,-4.089,-3.906,-2.136,-109.973,25.455,-80.969
8102,-0.4385,-0.8418,-0.2676,4.150,1.709,4.211,-109.924,25.499,-81.002
8112,-0.4429,-0.8062,-0.2720,13.794,7.751,8.118,-109.825,25.565,-81.112
8122,-0.4370,-0.7832,-0.2754,18.738,11.963,9.033,-109.704,25.631,-81.271
8132,-0.4346,-0.7930,-0.2817,15.869,12.573,8.667,-109.611,25.686,-81.436
8142,-0.4395,-0.8130,-0.3013,6.104,10.498,6.531,-109.616,25.724,-81.568
8152,-0.4326,-0.8306,-0.3394,-6.226,7.141,2.136,-109.742,25.724,-81.650
8162,-0.4248,-0.8604,-0.3784,-15.686,3.906,-2.380,-109.951,25.675,-81.683
8172,-0.4199,-0.8994,-0.4038,-19.348,0.916,-4.883,-110.182,25.598,-81.678
8182,-0.4248,-0.8975,-0.4194,-17.029,-2.197,-6.165,-110.374,25.527,-81.628
8192,-0.4395,-0.8408,-0.4238,-9.277,-5.127,-4.272,-110.500,25.499,-81.557
8202,-0.4395,-0.8228,-0.4146,4.089,-6.653,0.549,-110.495,25.527,-81.491
8212,-0.4395,-0.7988,-0.3760,17.700,-8.301,2.319,-110.336,25.587,-81.414
8222,-0.4424,-0.7622,-0.3218,26.367,-10.376,1.282,-110.056,25.659,-81.315
8232,-0.4238,-0.7856,-0.2544,30.151,-11.047,0.305,-109.688,25.714,-81.200
8242,-0.4062,-0.8228,-0.1948,26.550,-11.719,-1.404,-109.303,25.741,-81.074
8252,-0.3950,-0.8628,-0.1470,15.564,-13.062,-4.211,-108.990,25.730,-80.920
8262,-0.3901,-0.8989,-0.1221,1.770,-12.817,-6.287,-108.792,25.686,-80.760
8272,-0.3896,-0.9302,-0.1230,-9.094,-9.888,-7.263,-108.715,25.620,-80.634
8282,-0.3989,-0.9243,-0.1455,-15.686,-4.639,-6.042,-108.743,25.554,-80.563
8292,-0.4282,-0.8813,-0.1851,-17.273,2.319,-1.770,-108.853,25.527,-80.579
8302,-0.4375,-0.8384,-0.2222,-12.329,10.254,3.357,-108.984,25.538,-80.700
8312,-0.4375,-0.8042,-0.2480,-4.456,16.479,5.981,-109.094,25.560,-80.892
8322,-0.4404,-0.7900,-0.2759,0.366,20.020,6.409,-109.188,25.576,-81.129
8332,-0.4448,-0.7974,-0.3188,-1.099,21.667,6.348,-109.336,25.582,-81.376
8342,-0.4414,-0.8232,-0.3677,-7.202,21.973,4.150,-109.556,25.554,-81.623
8352,-0.4185,-0.8530,-0.4131,-15.076,19.775,-0.183,-109.858,25.472,-81.826
8362,-0.4048,-0.8789,-0.4473,-21.179,14.587,-3.784,-110.198,25.356,-81.964
8372,-0.4097,-0.8926,-0.4590,-22.705,7.080,-4.944,-110.517,25.252,-82.018
8382,-0.4126,-0.8848,-0.4590,-18.188,-1.221,-4.883,-110.748,25.186,-81.985
8392,-0.4341,-0.8433,-0.4473,-8.362,-8.057,-3.052,-110.863,25.181,-81.892
8402,-0.4507,-0.8027,-0.4189,5.310,-11.841,-0.244,-110.825,25.230,-81.771
8412,-0.4624,-0.7539,-0.3789,18.982,-13.000,0.366,-110.643,25.312,-81.634
8422,-0.4517,-0.7437,-0.3145,28.748,-12.817,-1.770,-110.319,25.384,-81.497
8432,-0.4175,-0.7852,-0.2520,30.884,-12.695,-4.517,-109.929,25.400,-81.348
8442,-0.3911,-0.8335,-0.2070,23.437,-13.489,-7.751,-109.561,25.362,-81.178
8452,-0.3838,-0.8975,-0.1709,10.803,-14.282,-9.949,-109.286,25.291,-80.991
8462,-0.3809,-0.9482,-0.1611,-2.258,-13.550,-10.376,-109.138,25.203,-80.815
8472,-0.3740,-0.9766,-0.1753,-11.353,-10.254,-8.911,-109.105,25.109,-80.673
8482,-0.3794,-0.9619,-0.2026,-15.076,-4.395,-4.517,-109.155,25.038,-80.612
8492,-0.4062,-0.9048,-0.2373,-14.221,2.441,2.869,-109.265,25.043,-80.645
8502,-0.4355,-0.8525,-0.2656,-8.484,8.789,9.644,-109.385,25.115,-80.771
8512,-0.4448,-0.7808,-0.2891,-1.770,13.184,12.268,-109.484,25.214,-80.958
8522,-0.4517,-0.7354,-0.3101,2.747,15.381,12.573,-109.578,25.323,-81.161
8532,-0.4634,-0.7271,-0.3311,3.845,15.564,10.620,-109.677,25.417,-81.365
8542,-0.4438,-0.7583,-0.3447,0.610,13.062,5.188,-109.786,25.450,-81.519
8552,-0.4077,-0.8257,-0.3477,-6.470,7.874,-2.014,-109.913,25.395,-81.595
8562,-0.3872,-0.9043,-0.3472,-15.991,1.099,-6.714,-110.072,25.291,-81.579
8572,-0.3857,-0.9443,-0.3516,-22.888,-4.883,-7.874,-110.270,25.192,-81.502
8582,-0.4116,-0.9150,-0.3555,-23.682,-8.484,-5.554,-110.468,25.148,-81.392
8592,-0.4375,-0.8618,-0.3564,-16.479,-7.263,0.244,-110.621,25.175,-81.315
8602,-0.4448,-0.8232,-0.3491,-2.808,-3.174,4.517,-110.665,25.241,-81.299
8612,-0.4404,-0.7822,-0.3315,9.338,-0.061,3.967,-110.599,25.296,-81.315
8622,-0.4316,-0.7749,-0.3042,16.968,1.587,1.587,-110.451,25.329,-81.337
8632,-0.4263,-0.7988,-0.2778,18.555,2.136,-0.122,-110.264,25.334,-81.359
8642,-0.4141,-0.8403,-0.2656,12.573,0.916,-1.953,-110.110,25.312,-81.365
8652,-0.3916,-0.8867,-0.2661,1.648,-0.916,-3.784,-110.050,25.258,-81.337
8662,-0.3838,-0.9048,-0.2822,-9.155,-2.747,-3.784,-110.099,25.197,-81.293
8672,-0.3896,-0.9316,-0.2935,-14.709,-3.113,-1.831,-110.198,25.159,-81.255
8682,-0.4028,-0.9272,-0.3013,-15.198,-2.136,0.122,-110.319,25.137,-81.233
8692,-0.4141,-0.8843,-0.3174,-11.108,-0.061,3.052,-110.429,25.153,-81.244
8702,-0.4321,-0.8223,-0.3271,-2.991,3.113,6.592,-110.495,25.214,-81.304
8712,-0.4443,-0.7827,-0.3213,5.859,6.104,8.606,-110.495,25.296,-81.398
8722,-0.4365,-0.7778,-0.3164,9.949,7.568,8.484,-110.462,25.367,-81.513
8732,-0.4326,-0.7974,-0.3125,7.568,6.287,6.104,-110.435,25.417,-81.601
8742,-0.4253,-0.8203,-0.3188,0.244,2.625,1.953,-110.451,25.433,-81.634
8752,-0.4048,-0.8687,-0.3247,-7.019,-0.427,-1.953,-110.517,25.395,-81.623
8762,-0.3999,-0.9067,-0.3286,-11.902,-2.686,-3.723,-110.610,25.340,-81.579
8772,-0.3931,-0.9282,-0.3335,-13.184,-4.089,-2.808,-110.709,25.296,-81.530
8782,-0.3984,-0.9106,-0.3262,-10.498,-4.761,-0.610,-110.786,25.274,-81.475
8792,-0.4395,-0.8389,-0.3262,-4.883,-4.578,4.272,-110.825,25.340,-81.447
8802,-0.4609,-0.7427,-0.3193,12.634,2.136,7.751,-110.748,25.450,-81.497
8812,-0.4546,-0.7417,-0.3057,16.846,4.883,4.883,-110.627,25.516,-81.568
8822,-0.4248,-0.8188,-0.2935,16.113,5.981,1.892,-110.484,25.521,-81.639
8832,-0.3965,-0.8770,-0.2876,6.470,3.113,-1.648,-110.407,25.472,-81.661
8842,-0.3813,-0.9233,-0.2891,-6.714,-1.282,-2.991,-110.435,25.406,-81.639
8852,-0.3789,-0.9561,-0.2949,-16.113,-3.662,-2.075,-110.544,25.351,-81.590
8862,-0.4048,-0.9331,-0.2964,-18.677,-4.272,-0.488,-110.676,25.334,-81.546
8872,-0.4438,-0.8491,-0.3149,-14.709,-2.502,4.150,-110.814,25.389,-81.535
8882,-0.4687,-0.7822,-0.3271,-4.028,1.648,10.010,-110.901,25.510,-81.590
8892,-0.4834,-0.7109,-0.3359,6.531,5.005,11.658,-110.918,25.664,-81.689
8902,-0.4888,-0.6738,-0.3384,12.695,7.141,9.399,-110.901,25.796,-81.804
8912,-0.4668,-0.7070,-0.3228,14.038,7.202,3.845,-110.836,25.862,-81.892
8922,-0.4297,-0.7910,-0.3101,8.423,3.967,-2.808,-110.770,25.829,-81.920
8932,-0.3877,-0.8755,-0.3105,-3.601,-1.709,-8.545,-110.770,25.724,-81.870
8942,-0.3687,-0.9619,-0.3154,-15.625,-6.409,-10.620,-110.852,25.593,-81.760
8952,-0.3765,-0.9922,-0.3223,-21.729,-8.972,-9.460,-110.984,25.477,-81.634
8962,-0.3896,-0.9629,-0.3359,-20.935,-8.911,-4.395,-111.127,25.422,-81.524
8972,-0.4297,-0.8730,-0.3496,-12.756,-5.249,4.028,-111.242,25.472,-81.486
8982,-0.4692,-0.7871,-0.3521,0.977,-0.854,10.925,-111.281,25.604,-81.519
8992,-0.4780,-0.7231,-0.3452,13.184,2.991,12.451,-111.226,25.763,-81.601
9002,-0.4780,-0.6831,-0.3296,18.250,3.357,9.033,-111.121,25.900,-81.672
9012,-0.4585,-0.7187,-0.3008,16.541,0.732,2.625,-110.978,25.966,-81.689
9023,-0.4302,-0.7925,-0.2817,7.080,-3.723,-4.944,-110.869,25.944,-81.628
9032,-0.3945,-0.8745,-0.2817,-6.775,-8.972,-11.292,-110.847,25.845,-81.491
9042,-0.3813,-0.9590,-0.2852,-16.663,-11.719,-14.526,-110.891,25.703,-81.315
9052,-0.3857,-0.9727,-0.2988,-18.066,-10.864,-15.015,-110.956,25.554,-81.140
9062,-0.3857,-0.9702,-0.3159,-11.963,-6.287,-9.583,-111.006,25.439,-81.041
9072,-0.3994,-0.9238,-0.3188,-1.282,0.061,-0.244,-110.995,25.400,-81.041
9082,-0.4448,-0.8330,-0.3228,9.521,4.822,8.972,-110.940,25.477,-81.123
9092,-0.4570,-0.7744,-0.3169,18.433,9.583,14.404,-110.836,25.609,-81.282
9102,-0.4556,-0.7485,-0.3022,19.897,11.169,14.893,-110.726,25.746,-81.453
9112,-0.4624,-0.7295,-0.2925,12.939,7.996,11.169,-110.665,25.867,-81.579
9122,-0.4585,-0.7524,-0.2939,1.831,3.418,4.150,-110.676,25.933,-81.634
9132,-0.4326,-0.8018,-0.3018,-9.094,-0.427,-3.967,-110.759,25.906,-81.612
9142,-0.4155,-0.8613,-0.3149,-16.479,-2.808,-9.094,-110.885,25.818,-81.546
9152,-0.4033,-0.9053,-0.3232,-16.907,-3.052,-11.963,-111.006,25.686,-81.469
9162,-0.3906,-0.9175,-0.3271,-12.390,-1.770,-10.864,-111.088,25.554,-81.409
9172,-0.4058,-0.9004,-0.3237,-4.944,0.427,-4.517,-111.116,25.483,-81.392
9182,-0.4253,-0.8599,-0.3223,3.235,2.991,3.296,-111.099,25.499,-81.436
9192,-0.4336,-0.8086,-0.3232,8.850,4.883,7.324,-111.050,25.560,-81.519
9202,-0.4434,-0.7910,-0.3174,10.742,5.920,7.812,-110.995,25.631,-81.612
9212,-0.4487,-0.7969,-0.3091,9.277,5.798,5.493,-110.940,25.681,-81.694
9222,-0.4370,-0.8018,-0.3164,4.456,4.578,1.831,-110.923,25.692,-81.744
9232,-0.4189,-0.8306,-0.3203,-0.488,3.113,-1.831,-110.940,25.659,-81.771
9242,-0.4072,-0.8589,-0.3271,-3.662,1.465,-4.333,-110.978,25.598,-81.771
9252,-0.4023,-0.8853,-0.3315,-4.089,0.244,-4.456,-111.006,25.532,-81.755
9262,-0.4043,-0.8901,-0.3301,-2.502,-0.427,-2.747,-111.017,25.483,-81.738
9272,-0.4229,-0.8687,-0.3311,-0.061,-0.549,0.427,-111.017,25.477,-81.733
9282,-0.4429,-0.8296,-0.3335,2.991,-0.427,3.113,-110.995,25.516,-81.744
9292,-0.4429,-0.7998,-0.3286,5.920,-0.122,3.784,-110.956,25.565,-81.755
9302,-0.4458,-0.7812,-0.3193,6.836,-0.671,2.625,-110.901,25.615,-81.760
9312,-0.4487,-0.7861,-0.3101,5.920,-1.465,0.183,-110.847,25.648,-81.744
9322,-0.4316,-0.8096,-0.3032,3.723,-1.892,-2.991,-110.792,25.637,-81.716
9332,-0.4077,-0.8486,-0.2964,0.610,-2.502,-5.127,-110.753,25.587,-81.667
9342,-0.3994,-0.8774,-0.2876,-2.136,-3.296,-5.432,-110.720,25.521,-81.612
9352,-0.4028,-0.8916,-0.2915,-3.662,-3.357,-4.028,-110.709,25.477,-81.563
9362,-0.4072,-0.8926,-0.2935,-2.625,-2.258,-2.258,-110.698,25.444,-81.530
9372,-0.4199,-0.8735,-0.2944,-0.061,0.122,-0.122,-110.676,25.433,-81.530
9382,-0.4375,-0.8301,-0.3027,2.991,2.991,2.197,-110.660,25.450,-81.568
9392,-0.4531,-0.7920,-0.3091,6.104,5.371,3.723,-110.632,25.494,-81.639
9402,-0.4556,-0.7671,-0.3081,8.545,6.836,2.625,-110.599,25.527,-81.722
9412,-0.4404,-0.7788,-0.3081,8.545,6.958,-0.488,-110.550,25.521,-81.793
9422,-0.4219,-0.8159,-0.3037,5.066,5.188,-3.845,-110.517,25.472,-81.832
9432,-0.4038,-0.8574,-0.3057,-1.099,2.380,-6.042,-110.522,25.389,-81.832
9442,-0.3975,-0.8892,-0.3149,-6.714,0.305,-6.104,-110.566,25.307,-81.810
9452,-0.3979,-0.9058,-0.3242,-9.521,0.244,-4.272,-110.649,25.236,-81.799
9462,-0.3936,-0.9165,-0.3340,-9.094,1.587,-1.953,-110.737,25.181,-81.804
9472,-0.4023,-0.8984,-0.3433,-6.531,3.296,0.732,-110.819,25.153,-81.843
9482,-0.4268,-0.8599,-0.3477,-2.197,3.967,4.333,-110.874,25.175,-81.903
9492,-0.4424,-0.8115,-0.3486,2.441,3.479,6.897,-110.901,25.241,-81.964
9502,-0.4482,-0.7700,-0.3535,5.676,1.770,6.775,-110.901,25.323,-82.007
9512,-0.4453,-0.7754,-0.3481,7.568,-0.244,3.845,-110.863,25.384,-82.024
9523,-0.4277,-0.8135,-0.3345,6.958,-2.380,-0.671,-110.797,25.389,-81.996
9532,-0.4087,-0.8633,-0.3203,3.540,-4.395,-3.845,-110.731,25.356,-81.936
9542,-0.4009,-0.8965,-0.3179,-1.282,-6.226,-4.089,-110.698,25.312,-81.854
9552,-0.3877,-0.9214,-0.3125,-4.028,-7.324,-2.686,-110.682,25.280,-81.766
9562,-0.4023,-0.9180,-0.3145,-5.066,-6.653,0.610,-110.687,25.280,-81.700
9572,-0.4297,-0.8818,-0.3145,-3.784,-3.296,5.127,-110.709,25.334,-81.689
9582,-0.4438,-0.8262,-0.3101,0.305,1.038,8.667,-110.726,25.422,-81.733
9592,-0.4448,-0.7881,-0.3086,5.371,4.211,9.521,-110.709,25.521,-81.810
9602,-0.4365,-0.8008,-0.2920,10.071,5.981,7.019,-110.643,25.582,-81.903
9612,-0.4194,-0.8428,-0.2852,11.658,5.493,2.319,-110.533,25.576,-81.969
9622,-0.4053,-0.8813,-0.2710,9.399,3.784,-1.953,-110.424,25.527,-82.002
9632,-0.4185,-0.8745,-0.2778,3.845,2.747,-3.601,-110.363,25.477,-82.013
9642,-0.4380,-0.8271,-0.2993,-1.953,2.991,-2.380,-110.385,25.455,-82.035
9652,-0.4580,-0.7544,-0.3159,-4.700,3.540,-0.488,-110.473,25.477,-82.073
9662,-0.4687,-0.6982,-0.3291,-5.188,2.747,-0.488,-110.583,25.521,-82.095
9672,-0.4585,-0.7129,-0.3281,-4.883,1.343,-3.235,-110.671,25.532,-82.101
9682,-0.4414,-0.7637,-0.3188,-6.653,-0.366,-7.996,-110.742,25.483,-82.062
9692,-0.4062,-0.8525,-0.3135,-9.766,-1.221,-12.634,-110.808,25.356,-82.002
9702,-0.3760,-0.9355,-0.3105,-11.719,-0.793,-15.686,-110.869,25.170,-81.931
9712,-0.3574,-0.9897,-0.3115,-10.559,0.427,-15.259,-110.918,24.966,-81.876
9722,-0.3618,-0.9849,-0.3032,-5.615,1.587,-10.254,-110.923,24.813,-81.854
9732,-0.3872,-0.9229,-0.2974,1.465,2.869,-1.770,-110.885,24.752,-81.876
9742,-0.4150,-0.8584,-0.2925,9.277,4.211,6.348,-110.803,24.796,-81.942
9752,-0.4395,-0.7891,-0.2852,14.099,5.371,9.949,-110.693,24.895,-82.035
9762,-0.4619,-0.7256,-0.2822,13.306,6.226,10.742,-110.610,25.032,-82.145
9772,-0.4600,-0.7148,-0.2837,7.446,6.348,9.460,-110.588,25.159,-82.244
9782,-0.4492,-0.7202,-0.2925,-2.197,4.822,4.272,-110.654,25.230,-82.310
9792,-0.4229,-0.7705,-0.3130,-12.085,2.869,-2.563,-110.797,25.214,-82.332
9802,-0.3999,-0.8599,-0.3267,-18.494,2.197,-8.179,-110.978,25.109,-82.321
9812,-0.3892,-0.9287,-0.3413,-20.813,2.014,-10.498,-111.165,24.972,-82.299
9822,-0.3838,-0.9595,-0.3589,-17.944,2.625,-9.399,-111.335,24.829,-82.293
9832,-0.3809,-0.9517,-0.3735,-9.766,3.967,-5.554,-111.440,24.719,-82.310
9842,-0.3896,-0.9160,-0.3745,0.916,4.517,0.305,-111.456,24.675,-82.359
9852,-0.4233,-0.8486,-0.3672,9.338,3.357,5.981,-111.407,24.719,-82.414
9862,-0.4429,-0.7803,-0.3633,13.000,1.587,8.789,-111.335,24.818,-82.469
9872,-0.4434,-0.7476,-0.3604,12.268,-0.305,8.667,-111.270,24.933,-82.496
9882,-0.4453,-0.7441,-0.3496,8.789,-3.052,5.005,-111.220,25.027,-82.485
9892,-0.4414,-0.7656,-0.3398,3.113,-6.165,-0.305,-111.187,25.071,-82.425
9902,-0.4277,-0.7983,-0.3330,-2.441,-8.606,-5.493,-111.182,25.065,-82.310
9912,-0.4058,-0.8472,-0.3271,-5.432,-10.071,-8.789,-111.176,25.010,-82.172
9922,-0.3936,-0.8940,-0.3203,-5.249,-10.437,-9.827,-111.154,24.928,-82.029
9932,-0.3843,-0.9272,-0.3071,-2.258,-9.460,-9.033,-111.088,24.846,-81.892
9942,-0.3872,-0.9268,-0.2939,1.160,-7.080,-5.676,-111.006,24.785,-81.799
9952,-0.4004,-0.9087,-0.2881,3.723,-4.456,-0.244,-110.912,24.780,-81.749
9962,-0.4116,-0.8726,-0.2886,5.432,-2.136,3.540,-110.830,24.813,-81.744
9972,-0.4307,-0.8145,-0.2905,5.432,-0.244,4.700,-110.770,24.879,-81.760
9982,-0.4443,-0.7842,-0.3013,4.211,1.221,3.601,-110.742,24.933,-81.788
9992,-0.4507,-0.7651,-0.3208,0.732,1.526,-0.610,-110.759,24.961,-81.799
10002,-0.4502,-0.7612,-0.3477,-4.089,0.183,-6.226,-110.830,24.933,-81.777
10012,-0.4336,-0.7837,-0.3672,-6.897,-1.465,-12.695,-110.912,24.840,-81.711
10023,-0.4067,-0.8237,-0.3887,-6.653,-4.028,-18.066,-110.978,24.681,-81.601
10032,-0.3745,-0.9106,-0.3794,-2.991,-6.653,-19.104,-110.962,24.489,-81.458
10042,-0.3687,-0.9580,-0.3701,-0.366,-9.033,-14.526,-110.907,24.335,-81.304
10052,-0.3682,-0.9580,-0.3589,1.831,-11.108,-5.493,-110.830,24.280,-81.172
10062,-0.3857,-0.9121,-0.3467,4.883,-12.939,4.211,-110.731,24.340,-81.052
10072,-0.4023,-0.8447,-0.3276,8.789,-14.893,10.193,-110.605,24.483,-80.942
10082,-0.4106,-0.8066,-0.3018,12.817,-15.747,12.146,-110.429,24.659,-80.826
10092,-0.4141,-0.8052,-0.2622,16.174,-15.259,9.766,-110.198,24.818,-80.706
10102,-0.4170,-0.8110,-0.2236,16.235,-13.733,4.761,-109.935,24.922,-80.585
10112,-0.4209,-0.8286,-0.1982,13.000,-10.193,0.000,-109.698,24.972,-80.475
10122,-0.4209,-0.8477,-0.1943,7.935,-5.371,-3.540,-109.523,24.966,-80.409
10132,-0.4189,-0.8618,-0.1958,2.808,0.000,-5.981,-109.418,24.911,-80.387
10142,-0.4097,-0.8608,-0.2090,-1.831,5.554,-7.141,-109.391,24.824,-80.420
10152,-0.4028,-0.8638,-0.2295,-5.859,9.766,-6.531,-109.440,24.725,-80.497
10162,-0.3984,-0.8740,-0.2568,-8.545,11.841,-4.639,-109.534,24.631,-80.601
10172,-0.3882,-0.8638,-0.2925,-9.766,11.719,-1.953,-109.671,24.560,-80.717
10182,-0.4014,-0.8452,-0.3213,-8.606,9.766,1.343,-109.814,24.532,-80.821
10192,-0.4199,-0.8320,-0.3423,-4.883,7.629,3.174,-109.924,24.543,-80.914
10202,-0.4292,-0.8149,-0.3569,-1.343,5.981,2.075,-110.001,24.554,-80.980
10212,-0.4292,-0.8247,-0.3613,0.732,5.310,-0.854,-110.050,24.538,-81.035
10222,-0.4199,-0.8486,-0.3501,0.671,5.676,-3.662,-110.089,24.483,-81.079
10232,-0.4170,-0.8682,-0.3296,-2.258,7.812,-5.005,-110.143,24.412,-81.140
10242,-0.4067,-0.8584,-0.3154,-8.118,11.597,-5.188,-110.264,24.318,-81.238
10252,-0.4072,-0.8481,-0.3169,-13.489,15.137,-4.639,-110.457,24.219,-81.376
10262,-0.3931,-0.8252,-0.3193,-14.954,16.113,-4.639,-110.671,24.120,-81.524
10272,-0.3853,-0.8315,-0.3320,-11.780,13.550,-3.906,-110.847,24.027,-81.650
10282,-0.3765,-0.8564,-0.3252,-4.761,8.179,-3.357,-110.923,23.950,-81.722
10292,-0.3838,-0.8721,-0.3286,1.892,1.282,-1.831,-110.907,23.912,-81.727
10302,-0.3979,-0.8755,-0.3340,7.690,-4.395,0.061,-110.808,23.923,-81.683
10312,-0.3940,-0.8652,-0.3301,11.536,-8.728,1.526,-110.665,23.956,-81.595
10322,-0.4058,-0.8486,-0.3130,11.292,-11.230,3.113,-110.506,24.027,-81.497
10332,-0.4209,-0.8354,-0.3071,7.263,-8.484,3.906,-110.402,24.104,-81.425
10342,-0.4194,-0.8110,-0.3047,0.977,-2.808,2.258,-110.385,24.153,-81.403
10352,-0.4136,-0.8081,-0.2993,-4.700,1.587,-1.465,-110.435,24.148,-81.414
10362,-0.4131,-0.8242,-0.2988,-8.362,4.150,-5.554,-110.522,24.093,-81.436
10372,-0.4043,-0.8560,-0.2998,-8.911,5.676,-8.667,-110.610,23.994,-81.458
10382,-0.3809,-0.8838,-0.3115,-6.775,6.226,-10.193,-110.676,23.857,-81.486
10392,-0.3721,-0.9111,-0.3213,-3.357,5.127,-8.911,-110.704,23.730,-81.502
10402,-0.3853,-0.9146,-0.3340,0.122,3.174,-5.249,-110.698,23.648,-81.513
10412,-0.3955,-0.9058,-0.3501,2.930,1.892,-0.610,-110.682,23.621,-81.530
10422,-0.3945,-0.8560,-0.3721,4.822,2.136,2.747,-110.676,23.632,-81.563
10432,-0.3940,-0.8037,-0.3755,6.958,1.953,3.906,-110.665,23.665,-81.601
10442,-0.4038,-0.7832,-0.3574,9.277,0.732,2.319,-110.616,23.698,-81.617
10452,-0.4141,-0.7900,-0.3271,10.437,-1.892,-0.916,-110.522,23.719,-81.590
10462,-0.4023,-0.8232,-0.2949,8.728,-4.395,-3.967,-110.402,23.708,-81.530
10472,-0.3774,-0.8594,-0.2715,4.517,-6.042,-5.920,-110.297,23.665,-81.447
10482,-0.3716,-0.8955,-0.2515,0.183,-6.470,-6.165,-110.215,23.610,-81.359
10492,-0.3799,-0.9155,-0.2427,-2.991,-5.493,-4.700,-110.160,23.566,-81.282
10502,-0.3774,-0.9194,-0.2490,-4.883,-3.357,-2.441,-110.143,23.538,-81.238
10512,-0.3750,-0.9141,-0.2583,-4.761,-0.732,-0.366,-110.143,23.516,-81.233
10523,-0.3794,-0.8989,-0.2720,-3.357,1.953,2.075,-110.154,23.511,-81.260
10532,-0.3877,-0.8730,-0.2954,-1.709,4.089,4.272,-110.176,23.533,-81.315
10542,-0.3921,-0.8569,-0.3145,-0.061,5.676,5.798,-110.209,23.566,-81.398
10552,-0.3901,-0.8589,-0.3315,0.671,6.409,7.324,-110.248,23.604,-81.491
10562,-0.3872,-0.8716,-0.3428,0.061,5.981,9.521,-110.297,23.659,-81.590
10572,-0.3945,-0.8726,-0.3560,-1.648,4.761,12.756,-110.374,23.752,-81.683
10582,-0.4043,-0.8662,-0.3662,-2.502,3.906,16.357,-110.462,23.884,-81.788
10592,-0.4185,-0.8364,-0.3716,-1.526,3.540,19.287,-110.555,24.060,-81.898
10602,-0.4316,-0.7930,-0.3774,1.770,2.930,20.813,-110.632,24.263,-82.007
10612,-0.4336,-0.7817,-0.3701,7.080,1.892,19.470,-110.649,24.461,-82.101
10622,-0.4370,-0.7666,-0.3555,9.583,-1.587,14.221,-110.610,24.626,-82.139
10632,-0.4375,-0.7734,-0.3452,8.972,-6.104,6.897,-110.544,24.741,-82.106
10642,-0.4204,-0.8179,-0.3252,7.996,-8.484,0.000,-110.440,24.780,-82.018
10652,-0.3999,-0.8677,-0.3042,5.798,-9.583,-5.127,-110.319,24.752,-81.898
10662,-0.3896,-0.8965,-0.2852,2.380,-9.583,-6.714,-110.220,24.697,-81.771
10672,-0.3936,-0.8818,-0.2769,-1.221,-7.385,-4.089,-110.165,24.670,-81.683
10682,-0.4150,-0.8477,-0.2783,-2.625,-4.578,0.061,-110.149,24.686,-81.634
10692,-0.4395,-0.8042,-0.2764,-1.038,-2.258,2.502,-110.143,24.747,-81.623
10702,-0.4492,-0.7715,-0.2729,2.686,-0.427,2.075,-110.110,24.807,-81.623
10712,-0.4336,-0.7769,-0.2666,5.005,0.549,0.732,-110.056,24.840,-81.634
10722,-0.4067,-0.8262,-0.2637,3.113,-0.793,-0.366,-109.995,24.846,-81.623
10732,-0.3809,-0.8984,-0.2559,-3.296,-3.784,-2.380,-109.968,24.807,-81.573
10742,-0.3711,-0.9541,-0.2495,-12.634,-5.859,-5.920,-110.006,24.730,-81.491
10752,-0.3765,-0.9673,-0.2681,-21.851,-5.676,-7.874,-110.138,24.637,-81.403
10762,-0.3843,-0.9512,-0.2969,-25.696,-0.793,-6.653,-110.352,24.538,-81.370
10772,-0.3945,-0.8975,-0.3213,-21.606,6.287,-3.479,-110.583,24.467,-81.420
10782,-0.4199,-0.8281,-0.3398,-11.597,12.634,1.038,-110.770,24.439,-81.557
10792,-0.4399,-0.7690,-0.3540,-0.122,15.625,4.761,-110.880,24.456,-81.733
10802,-0.4385,-0.7368,-0.3638,8.911,13.855,4.944,-110.912,24.494,-81.898
10812,-0.4209,-0.7598,-0.3535,11.658,7.141,2.808,-110.874,24.516,-81.980
10822,-0.4028,-0.8135,-0.3525,6.042,-1.709,0.305,-110.830,24.521,-81.964
10832,-0.3774,-0.8818,-0.3496,-3.906,-10.864,-2.197,-110.830,24.510,-81.843
10842,-0.3638,-0.9463,-0.3423,-13.855,-18.433,-2.991,-110.874,24.505,-81.645
10852,-0.3799,-0.9722,-0.3379,-20.752,-20.691,-0.549,-110.973,24.527,-81.431
10862,-0.3975,-0.9448,-0.3389,-20.813,-16.174,4.333,-111.105,24.598,-81.282
10872,-0.4253,-0.8774,-0.3364,-13.306,-7.629,9.094,-111.220,24.703,-81.238
10882,-0.4653,-0.7725,-0.3345,-1.282,0.610,11.658,-111.275,24.851,-81.288
10892,-0.4873,-0.6919,-0.3354,12.268,7.629,10.986,-111.253,24.999,-81.414
10902,-0.4849,-0.6562,-0.3335,22.827,10.864,5.493,-111.138,25.098,-81.546
10912,-0.4414,-0.7051,-0.3135,26.855,8.972,-4.333,-110.934,25.071,-81.623
10922,-0.3989,-0.8198,-0.2979,20.630,3.418,-11.719,-110.715,24.944,-81.612
10932,-0.3579,-0.9434,-0.3003,7.263,-3.601,-14.893,-110.572,24.769,-81.513
10942,-0.3311,-1.0176,-0.3032,-6.287,-9.583,-13.672,-110.533,24.604,-81.365
10952,-0.3325,-1.0303,-0.3076,-13.550,-12.573,-7.202,-110.561,24.505,-81.205
10962,-0.3638,-0.9873,-0.3115,-11.292,-12.146,1.648,-110.594,24.510,-81.090
10972,-0.4116,-0.8994,-0.3105,-2.014,-8.362,10.071,-110.577,24.620,-81.041
10982,-0.4434,-0.8042,-0.3042,9.705,-4.089,14.954,-110.490,24.802,-81.057
10992,-0.4639,-0.7290,-0.2998,18.066,-1.099,15.320,-110.352,25.005,-81.107
11002,-0.4839,-0.6934,-0.2910,20.203,-0.366,10.986,-110.193,25.186,-81.145
11012,-0.4644,-0.7134,-0.2729,16.113,-0.305,3.418,-110.045,25.280,-81.151
11023,-0.4409,-0.7705,-0.2681,5.310,-0.916,-2.991,-109.973,25.285,-81.134
11032,-0.4297,-0.8306,-0.2695,-7.996,-1.404,-7.568,-110.012,25.230,-81.090
11042,-0.3994,-0.8848,-0.2690,-17.761,0.305,-11.108,-110.143,25.109,-81.052
11052,-0.3647,-0.9302,-0.2842,-23.071,3.174,-10.559,-110.336,24.950,-81.041
11062,-0.3716,-0.9258,-0.3086,-22.888,4.639,-5.066,-110.555,24.846,-81.068
11072,-0.3989,-0.8862,-0.3306,-15.381,4.822,1.465,-110.731,24.824,-81.129
11082,-0.4238,-0.8457,-0.3413,-3.113,5.432,5.798,-110.808,24.862,-81.205
11092,-0.4297,-0.8267,-0.3428,7.874,6.775,6.958,-110.786,24.911,-81.304
11102,-0.4238,-0.8247,-0.3423,12.451,6.348,6.470,-110.715,24.950,-81.392
11112,-0.4165,-0.8486,-0.3447,11.230,4.089,4.517,-110.643,24.972,-81.453
11122,-0.3931,-0.9014,-0.3467,5.920,1.465,1.465,-110.599,24.955,-81.475
11132,-0.3716,-0.9531,-0.3477,-0.671,-0.610,-0.244,-110.599,24.906,-81.464
11142,-0.3760,-0.9663,-0.3584,-5.310,-1.587,1.465,-110.643,24.879,-81.453
11152,-0.4111,-0.8882,-0.3657,-5.371,-1.465,5.310,-110.715,24.911,-81.458
11162,-0.4531,-0.7905,-0.3579,0.305,-0.366,10.803,-110.764,25.043,-81.497
11172,-0.4790,-0.7085,-0.3423,8.240,-0.366,12.634,-110.753,25.225,-81.546
11182,-0.4844,-0.6670,-0.3164,12.268,-1.953,9.644,-110.687,25.400,-81.563
11192,-0.4736,-0.6870,-0.2827,11.230,-3.418,4.456,-110.583,25.527,-81.546
11202,-0.4463,-0.7622,-0.2612,5.554,-3.967,-2.014,-110.490,25.554,-81.497
11212,-0.4023,-0.8579,-0.2612,-2.808,-3.479,-8.301,-110.451,25.477,-81.425
11222,-0.3682,-0.9604,-0.2622,-8.667,-0.427,-11.414,-110.468,25.318,-81.376
11232,-0.3696,-0.9922,-0.2783,-10.437,3.723,-10.437,-110.522,25.153,-81.376
11242,-0.3862,-0.9473,-0.3096,-7.324,7.080,-4.517,-110.594,25.049,-81.431
11252,-0.4126,-0.8618,-0.3291,2.747,8.423,3.235,-110.610,25.038,-81.530
11262,-0.4692,-0.7378,-0.3433,13.855,7.690,8.728,-110.566,25.142,-81.645
11272,-0.4927,-0.6704,-0.3398,21.851,6.470,9.766,-110.457,25.291,-81.749
11282,-0.4761,-0.6621,-0.3125,22.034,2.747,5.798,-110.308,25.411,-81.799
11292,-0.4448,-0.7251,-0.2959,10.925,-2.991,-0.305,-110.204,25.461,-81.771
11302,-0.3838,-0.8511,-0.2900,-6.531,-6.836,-8.240,-110.209,25.384,-81.667
11312,-0.3525,-0.9653,-0.2910,-24.292,-8.789,-13.916,-110.358,25.225,-81.524
11322,-0.3467,-1.0259,-0.2925,-32.166,-7.996,-14.832,-110.572,25.043,-81.381
11332,-0.3486,-1.0352,-0.2998,-25.574,-3.967,-10.986,-110.742,24.884,-81.299
11342,-0.3799,-0.9678,-0.3066,-8.789,0.366,-1.892,-110.797,24.824,-81.293
11352,-0.4331,-0.8657,-0.2954,10.864,3.174,7.996,-110.698,24.890,-81.359
11362,-0.4717,-0.7329,-0.2891,24.963,4.578,12.695,-110.500,25.049,-81.453
11372,-0.4932,-0.6460,-0.2734,30.457,4.333,11.719,-110.259,25.247,-81.546
11382,-0.4810,-0.6523,-0.2681,24.902,3.174,5.981,-110.056,25.378,-81.601
11392,-0.4468,-0.7266,-0.2837,7.568,1.526,-3.235,-109.995,25.389,-81.606
11402,-0.4077,-0.8486,-0.3135,-14.465,0.977,-12.756,-110.127,25.258,-81.568
11412,-0.3740,-0.9780,-0.3389,-30.823,1.526,-18.250,-110.396,25.027,-81.513
11422,-0.3340,-1.0454,-0.3643,-35.583,3.296,-18.555,-110.726,24.763,-81.475
11432,-0.3252,-1.0366,-0.3931,-27.100,4.089,-11.230,-110.989,24.560,-81.475
11442,-0.3643,-0.9863,-0.3906,-6.958,3.906,1.099,-111.083,24.500,-81.519
11452,-0.4204,-0.8628,-0.3779,14.038,2.441,11.353,-111.000,24.593,-81.590
11462,-0.4595,-0.7363,-0.3594,28.137,0.488,15.686,-110.797,24.780,-81.656
11472,-0.4795,-0.6875,-0.3232,33.142,-1.526,13.428,-110.528,24.988,-81.694
11482,-0.4629,-0.6826,-0.2959,26.001,-5.249,6.226,-110.292,25.131,-81.661
11492,-0.4443,-0.7334,-0.2803,9.888,-9.094,-2.258,-110.154,25.186,-81.557
11502,-0.4248,-0.8257,-0.2710,-7.507,-10.742,-9.155,-110.149,25.148,-81.414
11512,-0.3989,-0.8994,-0.2695,-19.958,-9.949,-12.878,-110.248,25.038,-81.260
11523,-0.3784,-0.9346,-0.2798,-24.170,-6.226,-13.000,-110.402,24.901,-81.145
11532,-0.3711,-0.9434,-0.2837,-18.738,-1.160,-9.888,-110.528,24.769,-81.096
11542,-0.3921,-0.9082,-0.2803,-7.874,2.380,-3.967,-110.577,24.703,-81.107
11552,-0.4160,-0.8613,-0.2749,3.418,4.456,2.014,-110.539,24.703,-81.161
11562,-0.4141,-0.7983,-0.2842,9.888,5.066,4.333,-110.457,24.741,-81.227
11572,-0.4326,-0.7437,-0.2852,11.292,4.517,4.333,-110.380,24.802,-81.293
11582,-0.4443,-0.7578,-0.3008,8.362,3.967,2.991,-110.330,24.857,-81.343
11592,-0.4185,-0.8130,-0.3198,1.099,3.235,-1.892,-110.341,24.835,-81.370
11602,-0.3887,-0.8833,-0.3457,-8.911,1.221,-7.507,-110.435,24.736,-81.354
11612,-0.3784,-0.9585,-0.3560,-15.442,0.305,-9.277,-110.572,24.604,-81.321
11622,-0.3867,-0.9629,-0.3638,-16.357,0.488,-7.446,-110.726,24.494,-81.299
11632,-0.3989,-0.9058,-0.3711,-11.475,1.587,-2.686,-110.858,24.439,-81.304
11642,-0.4043,-0.8579,-0.3560,-1.160,2.991,2.625,-110.901,24.445,-81.343
11652,-0.4092,-0.8179,-0.3315,10.071,4.028,4.517,-110.836,24.478,-81.403
11662,-0.4248,-0.7720,-0.3198,16.418,4.089,3.723,-110.715,24.521,-81.458
11672,-0.4312,-0.7773,-0.3159,18.677,3.723,0.488,-110.561,24.538,-81.502
11682,-0.4019,-0.8203,-0.3096,18.921,1.953,-5.920,-110.374,24.478,-81.497
11692,-0.3936,-0.8823,-0.2988,15.686,-1.282,-9.521,-110.182,24.379,-81.447
11702,-0.3813,-0.9355,-0.2778,9.888,-3.784,-10.681,-110.012,24.263,-81.370
11712,-0.3716,-0.9414,-0.2603,3.052,-3.906,-8.362,-109.907,24.164,-81.299
11722,-0.3999,-0.8706,-0.2646,-3.235,-2.747,-2.014,-109.896,24.148,-81.260
11732,-0.4209,-0.7891,-0.2793,-5.371,-0.244,3.540,-109.951,24.208,-81.271
11742,-0.4321,-0.7388,-0.2920,-4.639,1.709,4.272,-110.028,24.285,-81.304
11752,-0.4385,-0.7383,-0.3076,-3.296,2.563,1.526,-110.099,24.335,-81.337
11762,-0.4282,-0.7793,-0.3208,-1.831,3.113,-2.441,-110.149,24.329,-81.359
11772,-0.3896,-0.8594,-0.3213,0.000,3.418,-6.042,-110.154,24.247,-81.370
11782,-0.3589,-0.9585,-0.3120,0.732,3.296,-7.202,-110.132,24.120,-81.381
11792,-0.3467,-1.0171,-0.2983,-0.061,3.052,-5.310,-110.099,24.005,-81.392
11802,-0.3667,-0.9883,-0.2876,-0.854,3.479,-0.305,-110.083,23.945,-81.425
11812,-0.3862,-0.9043,-0.2861,0.610,5.066,5.981,-110.078,23.967,-81.502
11822,-0.4062,-0.8066,-0.2866,2.808,6.897,10.254,-110.089,24.049,-81.612
11832,-0.4307,-0.7559,-0.2949,3.113,7.751,11.292,-110.121,24.170,-81.733
11842,-0.4399,-0.7427,-0.3047,0.122,6.653,7.446,-110.182,24.263,-81.826
11852,-0.4248,-0.7739,-0.3169,-5.127,4.578,1.038,-110.275,24.280,-81.881
11862,-0.3936,-0.8491,-0.3306,-10.925,2.197,-3.784,-110.396,24.230,-81.887
11872,-0.3711,-0.9277,-0.3452,-15.137,0.244,-4.761,-110.539,24.148,-81.870
11882,-0.3579,-0.9814,-0.3467,-15.991,-1.160,-3.113,-110.676,24.071,-81.848
11892,-0.3667,-0.9624,-0.3452,-13.611,-2.258,0.610,-110.792,24.044,-81.826
11902,-0.4009,-0.8862,-0.3467,-7.507,-2.136,5.615,-110.874,24.088,-81.826
11912,-0.4399,-0.7920,-0.3467,0.427,-1.404,8.667,-110.907,24.203,-81.848
11922,-0.4365,-0.7534,-0.3369,7.141,-0.305,7.812,-110.880,24.313,-81.876
11932,-0.4214,-0.7700,-0.3232,9.827,0.488,5.249,-110.808,24.384,-81.898
11942,-0.4082,-0.8188,-0.3086,8.240,0.610,3.296,-110.731,24.417,-81.920
11952,-0.3936,-0.8643,-0.3047,3.784,0.244,3.418,-110.687,24.439,-81.936
11962,-0.3828,-0.8931,-0.3057,0.732,-0.061,5.188,-110.671,24.461,-81.953
11972,-0.3828,-0.9087,-0.3066,1.343,0.977,8.423,-110.654,24.510,-81.996
11982,-0.3921,-0.9038,-0.2998,5.188,3.784,12.634,-110.616,24.593,-82.084
11992,-0.4092,-0.8789,-0.2944,10.620,7.507,16.968,-110.550,24.714,-82.227
12002,-0.4204,-0.8403,-0.2881,15.991,11.414,21.057,-110.457,24.879,-82.425
12012,-0.4238,-0.8042,-0.2852,19.165,14.465,23.743,-110.358,25.065,-82.667
12023,-0.4312,-0.7856,-0.2871,18.127,15.320,24.048,-110.281,25.258,-82.919
12032,-0.4370,-0.7866,-0.2896,13.428,13.367,20.325,-110.242,25.422,-83.134
12042,-0.4424,-0.7964,-0.3013,7.141,10.071,13.367,-110.242,25.532,-83.293
12052,-0.4253,-0.8428,-0.3140,1.831,7.385,6.104,-110.270,25.560,-83.392
12062,-0.4126,-0.8765,-0.3198,-2.991,4.944,0.793,-110.319,25.532,-83.447
12072,-0.4067,-0.8970,-0.3291,-7.141,2.380,-0.610,-110.396,25.494,-83.469
12082,-0.4092,-0.8857,-0.3359,-9.399,0.671,1.160,-110.500,25.483,-83.480
12092,-0.4185,-0.8496,-0.3457,-8.911,-0.244,4.639,-110.610,25.516,-83.496
12102,-0.4312,-0.8296,-0.3433,-4.517,0.671,9.094,-110.693,25.598,-83.535
12112,-0.4351,-0.8232,-0.3340,1.099,2.747,12.756,-110.726,25.714,-83.617
12122,-0.4390,-0.8203,-0.3179,4.944,4.639,14.526,-110.726,25.840,-83.721
12132,-0.4419,-0.8198,-0.3096,6.348,5.554,14.282,-110.715,25.961,-83.837
12142,-0.4316,-0.8267,-0.3062,6.042,5.554,12.695,-110.698,26.060,-83.941
12152,-0.4243,-0.8384,-0.3022,4.883,4.517,10.193,-110.676,26.136,-84.029
12162,-0.4282,-0.8447,-0.2998,2.808,2.502,7.629,-110.665,26.191,-84.084
12172,-0.4287,-0.8506,-0.2964,0.977,0.732,5.493,-110.654,26.230,-84.117
12182,-0.4385,-0.8315,-0.2974,-0.732,-0.916,4.517,-110.654,26.279,-84.122
12192,-0.4502,-0.8169,-0.3076,-1.526,-2.319,4.578,-110.665,26.340,-84.117
12202,-0.4463,-0.8188,-0.3027,-0.854,-2.258,4.395,-110.665,26.395,-84.111
12212,-0.4478,-0.8164,-0.2969,-1.282,-2.502,4.028,-110.671,26.450,-84.100
12222,-0.4551,-0.8130,-0.2949,-2.625,-2.625,3.357,-110.682,26.505,-84.084
12232,-0.4404,-0.8115,-0.2964,-2.930,-2.075,1.099,-110.698,26.526,-84.067
12242,-0.4346,-0.8198,-0.3071,-2.930,-1.587,-1.526,-110.715,26.516,-84.045
12252,-0.4380,-0.8433,-0.3140,-2.686,-0.977,-3.540,-110.726,26.483,-84.023
12262,-0.4375,-0.8584,-0.3208,-2.441,-0.122,-4.883,-110.737,26.428,-84.001
12272,-0.4331,-0.8623,-0.3247,-2.625,0.061,-4.822,-110.753,26.367,-83.985
12282,-0.4326,-0.8540,-0.3262,-2.991,-0.793,-3.540,-110.775,26.329,-83.963
12292,-0.4429,-0.8354,-0.3213,-3.418,-2.197,-1.343,-110.803,26.323,-83.930
12302,-0.4502,-0.8145,-0.3149,-3.113,-2.441,0.854,-110.825,26.351,-83.908
12312,-0.4551,-0.7866,-0.3105,-2.686,-1.465,1.587,-110.858,26.389,-83.903
12322,-0.4551,-0.7681,-0.3101,-1.892,0.305,0.854,-110.891,26.422,-83.908
12332,-0.4321,-0.8081,-0.3091,-0.549,2.625,-1.892,-110.901,26.395,-83.930
12342,-0.4116,-0.8706,-0.3086,-0.854,4.089,-6.042,-110.907,26.301,-83.947
12352,-0.4019,-0.9346,-0.3066,-2.808,4.517,-8.240,-110.912,26.169,-83.963
12362,-0.4067,-0.9453,-0.3091,-4.944,4.333,-6.531,-110.940,26.054,-83.979
12372,-0.4175,-0.8936,-0.3188,-6.165,3.113,-1.343,-111.000,26.005,-84.007
12382,-0.4375,-0.8232,-0.3325,-4.578,1.648,5.249,-111.072,26.049,-84.045
12392,-0.4614,-0.7563,-0.3286,-0.427,-0.061,9.521,-111.116,26.169,-84.084
12402,-0.4702,-0.7241,-0.3208,3.906,-1.160,9.399,-111.116,26.307,-84.106
12412,-0.4702,-0.7280,-0.3022,5.981,-1.343,5.676,-111.077,26.411,-84.117
12422,-0.4609,-0.7471,-0.2964,4.150,-1.343,0.000,-111.033,26.450,-84.100
12432,-0.4390,-0.7939,-0.3022,-0.244,-1.038,-5.737,-111.022,26.406,-84.067
12442,-0.4180,-0.8643,-0.3042,-4.944,-1.221,-11.230,-111.028,26.290,-84.012
12452,-0.4126,-0.9058,-0.3110,-10.071,-3.296,-15.137,-111.066,26.131,-83.919
12462,-0.4048,-0.9253,-0.3208,-13.611,-4.883,-15.503,-111.132,25.972,-83.804
12472,-0.4121,-0.8828,-0.3350,-13.794,-4.700,-11.230,-111.226,25.856,-83.710
12482,-0.4229,-0.8569,-0.3486,-8.850,-2.441,-3.540,-111.302,25.823,-83.672
12492,-0.4238,-0.8657,-0.3398,-1.221,0.488,1.770,-111.319,25.823,-83.683
12502,-0.4199,-0.8491,-0.3379,3.357,1.343,2.869,-111.302,25.834,-83.710
12512,-0.4136,-0.8735,-0.3271,6.348,1.648,2.747,-111.242,25.834,-83.738
12523,-0.4092,-0.9014,-0.3193,6.653,1.526,3.052,-111.176,25.829,-83.765
12532,-0.3965,-0.9233,-0.3271,3.784,0.183,3.601,-111.127,25.823,-83.782
12542,-0.4028,-0.9131,-0.3350,-0.793,-0.732,4.883,-111.132,25.840,-83.793
12552,-0.4341,-0.8491,-0.3491,-3.662,-1.831,7.751,-111.182,25.911,-83.804
12562,-0.4614,-0.7744,-0.3545,-1.221,-2.258,10.803,-111.237,26.043,-83.826
12572,-0.4819,-0.7241,-0.3442,4.150,-2.563,11.414,-111.248,26.208,-83.842
12582,-0.4863,-0.6968,-0.3281,7.812,-3.418,9.460,-111.209,26.367,-83.848
12592,-0.4746,-0.7163,-0.3125,8.423,-4.028,5.493,-111.143,26.483,-83.826
12602,-0.4399,-0.7959,-0.2905,6.714,-3.723,-0.671,-111.044,26.499,-83.787
12612,-0.4077,-0.8950,-0.2764,1.160,-2.686,-7.019,-110.973,26.417,-83.727
12622,-0.3896,-0.9878,-0.2710,-6.226,-0.183,-10.010,-110.956,26.268,-83.688
12632,-0.3633,-1.0308,-0.2778,-11.902,4.089,-9.705,-111.017,26.087,-83.694
12642,-0.3857,-0.9629,-0.3071,-14.282,6.653,-3.784,-111.149,25.977,-83.743
12652,-0.4395,-0.8330,-0.3359,-9.155,7.019,7.812,-111.297,26.027,-83.848
12662,-0.5059,-0.6865,-0.3530,2.563,6.775,18.372,-111.390,26.241,-83.996
12672,-0.5376,-0.5957,-0.3662,14.587,7.202,21.240,-111.418,26.526,-84.155
12682,-0.5132,-0.6201,-0.3452,23.010,6.348,13.672,-111.324,26.724,-84.276
12692,-0.4619,-0.7100,-0.3120,19.409,0.977,-0.061,-111.160,26.757,-84.287
12702,-0.4150,-0.8369,-0.3013,4.089,-6.531,-13.245,-111.050,26.642,-84.166
12712,-0.3936,-0.9595,-0.2954,-14.038,-11.963,-21.790,-111.055,26.433,-83.952
12722,-0.3760,-1.0107,-0.3076,-28.137,-12.390,-22.339,-111.198,26.202,-83.732
12732,-0.3599,-1.0195,-0.3291,-31.494,-9.583,-16.052,-111.401,26.010,-83.568
12742,-0.3882,-0.9473,-0.3462,-22.949,-5.737,-5.127,-111.583,25.933,-83.491
12752,-0.4438,-0.8335,-0.3589,-5.615,-2.136,7.568,-111.660,26.016,-83.496
12762,-0.4873,-0.7471,-0.3535,15.198,2.380,16.602,-111.583,26.202,-83.589
12772,-0.4775,-0.6987,-0.3418,30.640,5.615,18.250,-111.385,26.406,-83.727
12782,-0.4565,-0.7119,-0.3130,34.668,4.456,14.465,-111.110,26.559,-83.831
12792,-0.4478,-0.7603,-0.2939,24.597,-0.732,7.202,-110.880,26.653,-83.853
12802,-0.4409,-0.8208,-0.2866,5.859,-6.775,-2.441,-110.770,26.658,-83.771
12812,-0.4253,-0.9053,-0.2817,-12.878,-10.559,-10.803,-110.792,26.570,-83.617
12822,-0.4224,-0.9219,-0.2866,-25.818,-12.268,-14.587,-110.929,26.450,-83.430
12832,-0.4346,-0.8765,-0.3047,-29.053,-10.498,-11.902,-111.132,26.362,-83.276
12842,-0.4390,-0.8281,-0.3242,-21.545,-6.165,-4.822,-111.308,26.340,-83.188
12852,-0.4507,-0.7974,-0.3247,-7.080,-1.160,2.075,-111.385,26.373,-83.188
12862,-0.4692,-0.7607,-0.3135,6.287,1.648,5.127,-111.352,26.450,-83.227
12872,-0.4443,-0.7642,-0.3037,14.954,3.845,4.639,-111.231,26.499,-83.282
12882,-0.4170,-0.8306,-0.2944,16.296,4.211,2.380,-111.077,26.494,-83.337
12892,-0.4038,-0.8950,-0.2925,9.033,2.136,-0.610,-110.967,26.444,-83.359
12902,-0.4004,-0.9302,-0.2944,-1.282,-0.488,-1.953,-110.940,26.389,-83.342
12912,-0.4160,-0.9150,-0.3013,-7.568,-2.136,-0.122,-110.978,26.362,-83.320
12922,-0.4575,-0.8369,-0.3149,-6.958,-2.625,3.967,-111.039,26.417,-83.309
12932,-0.4731,-0.7749,-0.3330,-0.366,-0.916,6.958,-111.072,26.516,-83.326
12942,-0.4780,-0.7446,-0.3379,6.775,1.648,5.859,-111.055,26.598,-83.370
12952,-0.4692,-0.7466,-0.3335,10.864,2.686,2.441,-110.995,26.647,-83.408
12962,-0.4424,-0.7910,-0.3237,11.169,2.563,-1.038,-110.907,26.636,-83.430
12972,-0.4126,-0.8613,-0.3169,6.714,1.221,-3.479,-110.836,26.576,-83.430
12982,-0.4004,-0.9092,-0.3223,-0.854,-1.099,-3.967,-110.814,26.499,-83.403
12992,-0.4004,-0.9365,-0.3232,-5.798,-2.625,-2.869,-110.841,26.439,-83.364
13002,-0.4263,-0.9243,-0.3193,-5.554,-2.747,-0.671,-110.863,26.411,-83.331
13012,-0.4580,-0.8481,-0.3286,-1.282,-2.136,2.563,-110.874,26.450,-83.320
13023,-0.4717,-0.7705,-0.3281,6.104,-0.122,6.226,-110.847,26.537,-83.342
13032,-0.4883,-0.6987,-0.3291,12.329,1.282,7.141,-110.786,26.653,-83.386
13042,-0.4834,-0.6914,-0.3213,15.320,1.282,4.944,-110.687,26.752,-83.419
13052,-0.4580,-0.7515,-0.3096,12.695,-0.305,0.061,-110.577,26.779,-83.414
13062,-0.4194,-0.8345,-0.3032,4.150,-3.357,-6.592,-110.506,26.719,-83.353
13072,-0.4019,-0.8970,-0.2974,-5.371,-6.104,-10.681,-110.490,26.603,-83.249
13082,-0.3931,-0.9624,-0.2886,-10.071,-6.836,-10.986,-110.500,26.472,-83.134
13092,-0.4053,-0.9561,-0.2822,-10.071,-6.409,-9.094,-110.511,26.367,-83.029
13102,-0.4302,-0.9082,-0.2817,-5.981,-4.761,-3.113,-110.511,26.334,-82.969
13112,-0.4556,-0.8369,-0.2817,0.854,-1.831,4.517,-110.484,26.389,-82.963
13122,-0.4702,-0.7676,-0.2827,6.897,0.916,8.667,-110.435,26.505,-83.007
13132,-0.4731,-0.7207,-0.2783,9.583,3.113,8.545,-110.374,26.620,-83.073
13142,-0.4692,-0.7119,-0.2798,8.789,4.517,5.981,-110.330,26.713,-83.145
13152,-0.4478,-0.7700,-0.2827,4.456,5.188,1.587,-110.308,26.730,-83.205
13162,-0.4072,-0.8628,-0.2910,-3.662,4.272,-4.395,-110.341,26.647,-83.232
13172,-0.3857,-0.9590,-0.2998,-12.451,1.953,-8.728,-110.429,26.499,-83.221
13182,-0.3784,-1.0137,-0.3032,-16.785,0.305,-8.789,-110.544,26.351,-83.188
13192,-0.4043,-0.9688,-0.3179,-16.479,-0.549,-3.784,-110.676,26.268,-83.172
13202,-0.4531,-0.8594,-0.3433,-10.254,0.183,5.554,-110.797,26.318,-83.194
13212,-0.4751,-0.7656,-0.3516,1.526,2.747,12.390,-110.858,26.455,-83.271
13222,-0.4951,-0.6763,-0.3555,10.437,3.784,12.939,-110.863,26.625,-83.364
13232,-0.5161,-0.6416,-0.3477,14.282,2.930,9.705,-110.825,26.790,-83.430
13242,-0.4951,-0.6807,-0.3374,12.756,0.854,3.540,-110.764,26.884,-83.452
13252,-0.4326,-0.7988,-0.3271,4.333,-2.075,-4.822,-110.720,26.845,-83.414
13262,-0.3931,-0.9116,-0.3252,-10.193,-6.836,-12.695,-110.753,26.702,-83.293
13272,-0.3857,-0.9985,-0.3140,-20.752,-9.521,-16.724,-110.852,26.521,-83.123
13282,-0.3818,-1.0112,-0.3101,-22.034,-7.996,-15.259,-110.967,26.340,-82.980
13292,-0.3994,-0.9575,-0.3130,-14.526,-3.906,-6.836,-111.055,26.241,-82.914
13302,-0.4365,-0.8608,-0.3086,-0.427,0.488,4.883,-111.055,26.279,-82.936
13312,-0.4668,-0.7559,-0.2998,13.794,4.700,12.512,-110.967,26.411,-83.035
13322,-0.4756,-0.7031,-0.2944,21.790,7.080,13.489,-110.825,26.570,-83.167
13332,-0.4736,-0.7344,-0.2676,22.766,6.409,8.728,-110.638,26.675,-83.265
13342,-0.4453,-0.7861,-0.2544,13.367,3.235,1.709,-110.495,26.691,-83.309
13352,-0.4038,-0.8667,-0.2578,-2.197,0.000,-3.540,-110.473,26.636,-83.293
13362,-0.4019,-0.9272,-0.2759,-17.639,-2.258,-4.333,-110.588,26.559,-83.254
13372,-0.4062,-0.9492,-0.2979,-24.963,-2.136,-2.380,-110.792,26.505,-83.221
13382,-0.4131,-0.9082,-0.3252,-22.461,0.122,0.488,-111.006,26.477,-83.221
13392,-0.4521,-0.8223,-0.3472,-11.902,3.357,5.371,-111.165,26.516,-83.282
13402,-0.4766,-0.7642,-0.3540,3.357,7.629,10.071,-111.226,26.614,-83.403
13412,-0.4795,-0.7148,-0.3574,15.747,10.315,10.864,-111.187,26.719,-83.551
13422,-0.4790,-0.7002,-0.3447,21.606,8.972,8.240,-111.083,26.812,-83.677
13432,-0.4756,-0.7339,-0.3149,19.287,4.456,4.578,-110.940,26.878,-83.743
13442,-0.4570,-0.7754,-0.2959,8.484,-2.319,-1.709,-110.841,26.889,-83.710
13452,-0.4224,-0.8462,-0.2847,-6.165,-8.301,-9.705,-110.825,26.812,-83.589
13462,-0.4053,-0.9370,-0.2764,-18.127,-11.597,-15.564,-110.880,26.669,-83.403
13472,-0.3989,-0.9702,-0.2837,-23.865,-9.949,-16.052,-110.995,26.505,-83.238
13482,-0.3960,-0.9697,-0.2969,-21.667,-3.723,-10.437,-111.132,26.367,-83.156
13492,-0.4097,-0.9146,-0.3174,-13.611,3.235,-1.099,-111.259,26.312,-83.183
13502,-0.4312,-0.8403,-0.3301,-1.709,8.118,8.118,-111.330,26.351,-83.304
13512,-0.4580,-0.7666,-0.3413,10.071,10.864,13.123,-111.330,26.455,-83.469
13523,-0.4717,-0.7397,-0.3394,18.066,10.925,12.756,-111.259,26.570,-83.633
13532,-0.4678,-0.7622,-0.3262,18.860,8.606,8.484,-111.143,26.647,-83.760
13542,-0.4536,-0.8066,-0.3315,10.132,4.211,2.625,-111.083,26.664,-83.809
13552,-0.4385,-0.8306,-0.3462,-3.784,-1.465,-3.479,-111.121,26.631,-83.782
13562,-0.4204,-0.8594,-0.3555,-14.526,-6.531,-7.507,-111.237,26.559,-83.683
13572,-0.4258,-0.8657,-0.3574,-19.104,-9.155,-8.301,-111.379,26.494,-83.557
13582,-0.4287,-0.8647,-0.3579,-16.846,-8.423,-5.981,-111.506,26.450,-83.441
13592,-0.4409,-0.8369,-0.3540,-9.460,-5.066,-1.892,-111.588,26.444,-83.381
13602,-0.4492,-0.8159,-0.3447,0.061,-2.075,2.136,-111.594,26.477,-83.370
13612,-0.4526,-0.8022,-0.3291,8.728,-0.244,3.845,-111.522,26.526,-83.381
13622,-0.4556,-0.7915,-0.3140,13.733,-0.488,3.540,-111.390,26.576,-83.392
13632,-0.4453,-0.8115,-0.2969,16.052,-1.160,2.136,-111.215,26.609,-83.392
13642,-0.4189,-0.8540,-0.2900,14.771,-2.380,-0.549,-111.033,26.592,-83.364
13652,-0.4033,-0.9106,-0.2817,10.315,-3.540,-2.747,-110.874,26.543,-83.315
13662,-0.4004,-0.9380,-0.2773,3.540,-4.150,-1.770,-110.770,26.499,-83.265
13672,-0.4058,-0.9087,-0.2891,-1.953,-3.906,2.197,-110.748,26.499,-83.232
13682,-0.4512,-0.8330,-0.2954,-2.747,-3.052,6.958,-110.759,26.581,-83.227
13692,-0.4785,-0.7720,-0.3037,0.671,-1.343,10.498,-110.770,26.713,-83.254
13702,-0.4785,-0.7373,-0.3086,4.883,0.977,10.132,-110.764,26.851,-83.304
13712,-0.4741,-0.7310,-0.3022,6.104,1.526,6.775,-110.742,26.944,-83.348
13722,-0.4722,-0.7666,-0.2886,3.967,0.549,1.831,-110.704,26.993,-83.359
13732,-0.4453,-0.8169,-0.2891,-1.343,-0.610,-3.967,-110.698,26.960,-83.337
13742,-0.4341,-0.8467,-0.2979,-7.019,-2.258,-8.179,-110.726,26.878,-83.282
13752,-0.4277,-0.8726,-0.2998,-9.338,-3.357,-9.521,-110.770,26.785,-83.210
13762,-0.4194,-0.8901,-0.3027,-8.545,-3.357,-8.179,-110.803,26.691,-83.145
13772,-0.4321,-0.8579,-0.2983,-6.592,-3.113,-4.700,-110.830,26.647,-83.090
13782,-0.4497,-0.8257,-0.2861,-2.930,-1.587,0.000,-110.836,26.658,-83.073
13792,-0.4561,-0.7886,-0.2788,0.793,1.099,2.258,-110.825,26.697,-83.095
13802,-0.4517,-0.7695,-0.2793,2.197,3.540,2.136,-110.814,26.724,-83.139
13812,-0.4258,-0.8145,-0.2837,0.732,5.859,0.854,-110.819,26.708,-83.205
13822,-0.4131,-0.8691,-0.3071,-4.822,6.287,-1.038,-110.880,26.653,-83.265
13832,-0.4028,-0.9385,-0.3291,-11.414,5.737,-2.075,-111.000,26.565,-83.320
13842,-0.4121,-0.9663,-0.3643,-16.479,4.700,-1.160,-111.182,26.488,-83.364
13852,-0.4390,-0.9292,-0.4043,-15.564,3.723,0.977,-111.374,26.455,-83.408
13862,-0.4653,-0.8457,-0.4282,-6.958,2.869,4.395,-111.522,26.483,-83.452
13873,-0.4771,-0.7715,-0.4385,5.981,1.099,8.301,-111.561,26.570,-83.502
13882,-0.4961,-0.6929,-0.4321,17.395,-2.441,9.155,-111.500,26.713,-83.513
13892,-0.4873,-0.6763,-0.3994,24.902,-6.104,6.165,-111.324,26.840,-83.474
13902,-0.4512,-0.7407,-0.3369,25.818,-9.216,1.465,-111.061,26.911,-83.381
13912,-0.4229,-0.8062,-0.2808,16.846,-13.062,-2.380,-110.808,26.927,-83.238
13922,-0.3940,-0.9102,-0.2275,3.357,-15.259,-4.761,-110.627,26.900,-83.057
13932,-0.3989,-0.9629,-0.1807,-10.315,-14.160,-4.578,-110.555,26.856,-82.892
13942,-0.4253,-0.9126,-0.1748,-20.142,-9.827,-1.343,-110.610,26.856,-82.782
13952,-0.4639,-0.8335,-0.1787,-20.447,-2.991,2.930,-110.720,26.911,-82.760
13962,-0.4805,-0.7632,-0.1938,-13.367,4.211,5.554,-110.814,26.993,-82.831
13972,-0.4746,-0.7163,-0.2163,-4.944,10.742,4.517,-110.885,27.048,-82.958
13982,-0.4805,-0.7178,-0.2388,-0.061,14.343,1.160,-110.929,27.065,-83.117
13993,-0.4687,-0.7510,-0.2847,-1.648,15.625,-2.441,-111.011,27.021,-83.271
14002,-0.4253,-0.8271,-0.3379,-8.789,14.771,-5.676,-111.171,26.900,-83.403
14012,-0.3950,-0.8989,-0.3911,-19.165,10.864,-7.935,-111.423,26.735,-83.480
14023,-0.3911,-0.9756,-0.4277,-26.855,6.104,-7.629,-111.725,26.576,-83.513
14032,-0.4067,-0.9951,-0.4546,-28.503,2.441,-4.944,-112.039,26.461,-83.518
14042,-0.4209,-0.9434,-0.4731,-22.034,1.160,0.244,-112.308,26.411,-83.535
14053,-0.4487,-0.8394,-0.4727,-6.531,2.075,6.775,-112.462,26.455,-83.584
14062,-0.4756,-0.7520,-0.4551,12.695,2.869,11.780,-112.462,26.570,-83.661
14073,-0.4766,-0.7046,-0.4170,28.137,1.770,11.841,-112.297,26.708,-83.732
14082,-0.4434,-0.7324,-0.3652,34.729,-1.587,7.996,-112.000,26.807,-83.749
14092,-0.4048,-0.8364,-0.3179,30.212,-7.080,3.479,-111.665,26.840,-83.688
14102,-0.3696,-0.9653,-0.2881,17.456,-13.245,0.427,-111.379,26.823,-83.551
14112,-0.3389,-1.0747,-0.2349,6.958,-15.320,2.197,-111.154,26.801,-83.403
14122,-0.3770,-1.0317,-0.2041,-0.732,-13.916,12.817,-111.017,26.900,-83.309
14132,-0.4492,-0.9014,-0.1899,-0.732,-8.362,25.879,-110.940,27.158,-83.326
14142,-0.4814,-0.7632,-0.1895,5.859,-0.916,32.593,-110.869,27.504,-83.447
14152,-0.5195,-0.6724,-0.2031,9.888,3.052,32.166,-110.803,27.883,-83.606
14162,-0.5361,-0.6221,-0.2266,7.507,3.784,24.841,-110.786,28.213,-83.749
14172,-0.5547,-0.5967,-0.2705,-0.244,4.578,14.221,-110.874,28.449,-83.853
14182,-0.5557,-0.6113,-0.3267,-8.972,7.080,3.052,-111.077,28.553,-83.941
14193,-0.5303,-0.6665,-0.3667,-15.137,9.949,-7.446,-111.341,28.515,-84.018
14203,-0.4917,-0.7427,-0.3867,-20.203,11.414,-15.869,-111.627,28.345,-84.073
14213,-0.4453,-0.8389,-0.4146,-23.437,9.705,-20.081,-111.912,28.098,-84.089
14223,-0.4155,-0.9194,-0.4150,-20.630,5.249,-19.348,-112.132,27.839,-84.062
14233,-0.4023,-0.9678,-0.4097,-15.076,-0.427,-13.428,-112.258,27.653,-84.001
14243,-0.4155,-0.9443,-0.4019,-6.470,-4.395,-4.456,-112.302,27.570,-83.936
14253,-0.4380,-0.8740,-0.3838,5.310,-6.287,3.479,-112.236,27.598,-83.886
14262,-0.4668,-0.7974,-0.3564,16.113,-6.653,9.460,-112.083,27.713,-83.859
14272,-0.4878,-0.7383,-0.3252,21.423,-6.836,10.803,-111.879,27.872,-83.831
14283,-0.4873,-0.7329,-0.3003,20.325,-6.592,7.202,-111.660,27.999,-83.793
14293,-0.4824,-0.7793,-0.2754,14.465,-5.798,0.610,-111.467,28.048,-83.732
14303,-0.4639,-0.8379,-0.2603,4.944,-4.700,-5.493,-111.346,28.015,-83.661
14313,-0.4346,-0.8882,-0.2583,-4.150,-3.235,-8.240,-111.302,27.922,-83.595
14323,-0.4219,-0.9243,-0.2642,-8.362,-1.160,-7.568,-111.313,27.812,-83.551
14333,-0.4233,-0.9199,-0.2749,-7.751,0.854,-4.456,-111.335,27.729,-83.540
14343,-0.4316,-0.8760,-0.2925,-3.845,2.869,0.549,-111.363,27.697,-83.573
14353,-0.4653,-0.7925,-0.3037,1.953,4.333,5.554,-111.368,27.746,-83.644
14363,-0.4858,-0.7285,-0.3130,7.996,4.822,7.080,-111.346,27.828,-83.721
14373,-0.4907,-0.7290,-0.3271,11.169,4.761,4.150,-111.297,27.889,-83.787
14383,-0.4707,-0.7900,-0.3398,9.155,4.272,-0.977,-111.242,27.872,-83.831
14393,-0.4341,-0.8818,-0.3374,2.380,2.808,-4.822,-111.220,27.784,-83.842
14403,-0.4175,-0.9585,-0.3374,-6.470,1.038,-4.822,-111.264,27.680,-83.831
14413,-0.4248,-0.9639,-0.3408,-13.306,-0.183,-2.014,-111.374,27.614,-83.820
14423,-0.4497,-0.8838,-0.3608,-13.794,0.366,2.991,-111.522,27.614,-83.837
14433,-0.4678,-0.7808,-0.3711,-4.761,2.014,8.179,-111.638,27.691,-83.892
14443,-0.4995,-0.6973,-0.3662,9.277,2.380,9.521,-111.632,27.817,-83.958
14453,-0.5146,-0.6787,-0.3521,22.644,2.136,5.493,-111.489,27.922,-84.001
14463,-0.4810,-0.7319,-0.3223,31.006,1.953,-0.977,-111.215,27.938,-84.018
14473,-0.4302,-0.8188,-0.2837,29.907,0.366,-5.310,-110.885,27.872,-84.001
14483,-0.4165,-0.8726,-0.2568,19.897,-3.296,-6.042,-110.616,27.795,-83.941
14493,-0.4492,-0.8735,-0.2417,7.446,-5.859,-4.211,-110.457,27.762,-83.864
14503,-0.4775,-0.8521,-0.2417,0.854,-5.554,-2.441,-110.369,27.762,-83.793
14513,-0.4780,-0.8159,-0.2500,-0.122,-3.723,-1.831,-110.314,27.773,-83.749
14523,-0.4751,-0.7915,-0.2554,1.648,-1.160,-1.404,-110.270,27.784,-83.732
14533,-0.4756,-0.7637,-0.2666,3.479,1.526,-1.343,-110.226,27.795,-83.743
14543,-0.4683,-0.7549,-0.2812,4.089,3.723,-2.380,-110.204,27.784,-83.771
14553,-0.4502,-0.7886,-0.2915,3.418,5.615,-4.211,-110.187,27.729,-83.815
14563,-0.4321,-0.8149,-0.3149,-0.427,5.676,-5.310,-110.220,27.647,-83.853
14573,-0.4370,-0.8750,-0.3291,-5.127,4.639,-5.188,-110.292,27.554,-83.881
14583,-0.4297,-0.9307,-0.3511,-10.254,3.357,-4.578,-110.402,27.460,-83.903
14593,-0.4233,-0.9390,-0.3608,-13.306,1.465,-2.625,-110.544,27.383,-83.908
14603,-0.4487,-0.9009,-0.3735,-12.085,-0.488,1.282,-110.682,27.372,-83.908
14613,-0.4619,-0.8604,-0.3716,-5.920,-1.221,4.700,-110.770,27.405,-83.914
14623,-0.4678,-0.8013,-0.3657,1.831,-1.831,6.409,-110.792,27.477,-83.919
14633,-0.4717,-0.7358,-0.3589,7.935,-3.601,6.409,-110.759,27.576,-83.908
14643,-0.4644,-0.7456,-0.3291,12.146,-5.798,3.723,-110.649,27.653,-83.859
14653,-0.4473,-0.7817,-0.2939,12.451,-8.606,-1.038,-110.484,27.675,-83.765
14663,-0.4424,-0.8364,-0.2563,9.583,-11.047,-3.967,-110.292,27.669,-83.633
14672,-0.4443,-0.8921,-0.2266,5.188,-10.376,-4.150,-110.121,27.647,-83.507
14682,-0.4473,-0.9106,-0.2090,1.404,-5.920,-2.869,-110.001,27.620,-83.430
14693,-0.4536,-0.8755,-0.2051,-1.282,0.427,-0.366,-109.951,27.609,-83.436
14702,-0.4629,-0.8311,-0.2104,-1.221,7.019,2.197,-109.940,27.614,-83.518
14713,-0.4712,-0.7803,-0.2305,-0.061,11.963,3.784,-109.973,27.631,-83.661
14723,-0.4731,-0.7476,-0.2563,0.610,14.587,3.906,-110.034,27.653,-83.831
14733,-0.4751,-0.7466,-0.2832,-1.282,14.465,2.686,-110.127,27.658,-83.990
14743,-0.4766,-0.7539,-0.3184,-6.287,12.024,-0.061,-110.275,27.642,-84.122
14753,-0.4561,-0.7905,-0.3525,-11.414,8.545,-2.991,-110.462,27.587,-84.199
14763,-0.4375,-0.8447,-0.3823,-16.113,4.028,-5.066,-110.671,27.504,-84.221
14773,-0.4409,-0.8687,-0.4053,-19.653,-0.977,-5.798,-110.896,27.422,-84.188
14783,-0.4434,-0.8872,-0.4165,-18.188,-3.845,-4.822,-111.088,27.361,-84.128
14793,-0.4458,-0.8760,-0.4136,-12.085,-4.700,-2.808,-111.226,27.328,-84.067
14803,-0.4463,-0.8589,-0.3975,-2.930,-5.066,-0.671,-111.264,27.318,-84.012
14813,-0.4502,-0.8574,-0.3672,6.409,-5.432,1.465,-111.198,27.334,-83.963
14823,-0.4590,-0.8340,-0.3433,12.390,-5.798,3.418,-111.066,27.383,-83.914
14833,-0.4668,-0.7983,-0.3174,15.625,-5.798,4.578,-110.896,27.460,-83.870
14843,-0.4648,-0.7754,-0.2910,16.663,-5.676,4.822,-110.709,27.543,-83.831
14853,-0.4526,-0.7974,-0.2622,14.648,-6.470,2.747,-110.511,27.598,-83.771
14863,-0.4453,-0.8359,-0.2441,8.789,-7.812,-0.244,-110.347,27.620,-83.688
14873,-0.4443,-0.8618,-0.2354,1.099,-8.179,-1.648,-110.242,27.620,-83.595
14883,-0.4507,-0.8633,-0.2451,-5.310,-7.324,-1.221,-110.215,27.625,-83.513
14893,-0.4541,-0.8511,-0.2549,-7.385,-5.188,-0.854,-110.220,27.625,-83.458
14903,-0.4600,-0.8213,-0.2598,-4.456,-2.686,-0.977,-110.226,27.631,-83.425
14913,-0.4697,-0.7974,-0.2651,0.122,-0.366,-0.549,-110.204,27.642,-83.419
14923,-0.4785,-0.7690,-0.2705,3.052,1.221,-0.977,-110.171,27.658,-83.425
14933,-0.4805,-0.7476,-0.2832,2.502,1.526,-2.136,-110.154,27.669,-83.436
14943,-0.4668,-0.7495,-0.2964,-0.732,1.099,-4.211,-110.171,27.647,-83.430
14953,-0.4575,-0.7769,-0.3105,-6.775,-0.122,-6.470,-110.242,27.598,-83.403
14963,-0.4600,-0.8047,-0.3159,-13.916,-1.770,-8.728,-110.369,27.526,-83.353
14973,-0.4453,-0.8550,-0.3276,-19.104,-2.502,-10.132,-110.533,27.427,-83.282
14983,-0.4414,-0.8677,-0.3306,-20.203,-2.747,-12.085,-110.704,27.307,-83.210
14993,-0.4551,-0.8521,-0.3320,-16.785,-2.747,-11.536,-110.841,27.197,-83.134
15003,-0.4624,-0.8267,-0.3335,-10.193,-2.319,-9.155,-110.923,27.125,-83.073
15013,-0.4521,-0.8013,-0.3271,-2.991,-2.319,-7.751,-110.940,27.065,-83.018
15023,-0.4336,-0.8169,-0.3154,2.869,-2.930,-7.690,-110.891,26.999,-82.952
15033,-0.4043,-0.8950,-0.2900,5.249,-3.113,-7.568,-110.781,26.900,-82.892
15043,-0.3916,-0.9463,-0.2808,0.671,-3.052,-5.493,-110.704,26.807,-82.837
15053,-0.3926,-0.9614,-0.2852,-5.676,-2.014,-2.197,-110.704,26.741,-82.809
15063,-0.4033,-0.9385,-0.2930,-7.996,-0.122,1.282,-110.753,26.708,-82.809
15073,-0.4209,-0.9028,-0.3062,-4.517,1.831,4.639,-110.792,26.719,-82.848
15083,-0.4277,-0.8940,-0.3027,2.197,4.089,6.775,-110.781,26.741,-82.919
15093,-0.4443,-0.8784,-0.3013,6.897,5.798,8.057,-110.737,26.785,-83.013
15103,-0.4536,-0.8359,-0.3003,9.949,7.812,9.888,-110.682,26.851,-83.134
15113,-0.4785,-0.7715,-0.3076,11.780,9.338,12.329,-110.643,26.966,-83.282
15123,-0.4844,-0.7153,-0.3232,13.550,9.460,12.085,-110.610,27.092,-83.425
15133,-0.4756,-0.7080,-0.3267,13.977,7.935,7.507,-110.566,27.175,-83.540
15143,-0.4687,-0.7539,-0.3169,10.803,5.554,2.258,-110.511,27.202,-83.606
15153,-0.4634,-0.7803,-0.3149,2.014,3.113,-0.549,-110.517,27.202,-83.639
15163,-0.4702,-0.7803,-0.3135,-7.996,1.953,-1.587,-110.621,27.202,-83.650
15173,-0.4800,-0.7617,-0.3145,-14.587,2.014,-2.625,-110.786,27.202,-83.661
15183,-0.4668,-0.7725,-0.3130,-16.235,2.808,-4.211,-110.967,27.175,-83.677
15193,-0.4634,-0.7793,-0.3071,-14.954,2.808,-6.226,-111.121,27.125,-83.683
15203,-0.4678,-0.7822,-0.3071,-11.902,2.136,-7.568,-111.237,27.065,-83.672
15213,-0.4297,-0.8511,-0.3135,-5.310,2.502,-9.888,-111.275,26.949,-83.661
15223,-0.3662,-0.9800,-0.3140,1.404,3.174,-12.207,-111.220,26.752,-83.644
15233,-0.3550,-1.0625,-0.3096,3.113,2.136,-8.667,-111.132,26.570,-83.628
15243,-0.3872,-1.0205,-0.3184,0.305,0.122,0.427,-111.094,26.510,-83.633
15253,-0.4409,-0.8804,-0.3359,-0.977,-1.099,9.521,-111.110,26.587,-83.661
15263,-0.4731,-0.7578,-0.3437,2.014,-1.221,13.123,-111.143,26.741,-83.699
15273,-0.4971,-0.6953,-0.3276,1.709,-1.160,6.104,-111.171,26.867,-83.710
15283,-0.4819,-0.7031,-0.3330,-4.822,-2.930,0.916,-111.248,26.933,-83.683
15293,-0.4619,-0.7563,-0.3350,-9.521,-4.761,-4.517,-111.341,26.933,-83.617
15303,-0.4277,-0.8452,-0.3291,-10.071,-5.737,-8.789,-111.396,26.856,-83.518
15313,-0.4014,-0.9443,-0.3149,-7.629,-5.554,-10.498,-111.396,26.730,-83.419
15323,-0.3979,-0.9761,-0.3086,-4.578,-3.967,-8.301,-111.368,26.609,-83.342
15333,-0.4141,-0.9468,-0.3105,0.427,-1.038,-2.075,-111.324,26.554,-83.326
15343,-0.4380,-0.8608,-0.3105,6.958,1.770,5.188,-111.259,26.587,-83.364
15353,-0.4639,-0.7754,-0.3081,12.573,3.235,8.606,-111.165,26.680,-83.436
15363,-0.4731,-0.7383,-0.2983,13.550,3.174,8.118,-111.072,26.785,-83.502
15373,-0.4775,-0.7329,-0.2881,7.629,1.221,4.822,-111.011,26.867,-83.529
15383,-0.4761,-0.7485,-0.2871,-2.319,-0.793,0.366,-111.033,26.911,-83.524
15393,-0.4561,-0.7778,-0.2988,-11.353,-1.160,-3.540,-111.132,26.900,-83.496
15403,-0.4448,-0.8125,-0.3149,-16.663,-0.061,-5.676,-111.292,26.851,-83.474
15413,-0.4395,-0.8560,-0.3262,-16.235,2.258,-7.080,-111.445,26.768,-83.469
15423,-0.4165,-0.9014,-0.3340,-11.780,4.456,-7.935,-111.555,26.642,-83.485
15433,-0.4136,-0.8975,-0.3457,-7.690,4.761,-5.432,-111.638,26.543,-83.513
15443,-0.4292,-0.8823,-0.3521,-3.967,3.845,-0.854,-111.693,26.499,-83.546
15453,-0.4385,-0.8564,-0.3550,0.000,2.991,2.136,-111.720,26.494,-83.584
15463,-0.4497,-0.8223,-0.3516,2.991,1.892,3.479,-111.720,26.521,-83.622
15473,-0.4478,-0.8013,-0.3413,5.066,1.282,4.150,-111.698,26.565,-83.650
15483,-0.4507,-0.7842,-0.3276,5.554,0.305,3.601,-111.660,26.609,-83.672
15493,-0.4580,-0.7803,-0.3135,4.272,-0.977,1.892,-111.621,26.647,-83.666
15503,-0.4424,-0.7983,-0.3018,2.136,-1.770,-0.671,-111.577,26.658,-83.644
15513,-0.4263,-0.8350,-0.2964,-0.916,-1.953,-2.991,-111.555,26.625,-83.611
15523,-0.4316,-0.8511,-0.3032,-4.211,-1.587,-3.784,-111.561,26.587,-83.578
15533,-0.4409,-0.8643,-0.3169,-5.371,0.366,-2.991,-111.594,26.548,-83.573
15543,-0.4375,-0.8740,-0.3296,-3.296,2.380,-2.258,-111.627,26.505,-83.589
15553,-0.4380,-0.8701,-0.3340,-0.549,2.991,-0.732,-111.638,26.472,-83.617
15563,-0.4424,-0.8491,-0.3403,1.709,2.930,2.014,-111.638,26.477,-83.655
15573,-0.4482,-0.8076,-0.3457,3.784,1.953,3.540,-111.632,26.505,-83.688
15583,-0.4492,-0.7720,-0.3496,5.859,0.549,3.235,-111.610,26.548,-83.710
15593,-0.4409,-0.7959,-0.3423,7.507,-0.671,1.343,-111.550,26.565,-83.705
15603,-0.4233,-0.8286,-0.3374,5.798,-2.014,-0.549,-111.489,26.559,-83.683
15613,-0.4180,-0.8545,-0.3379,1.282,-3.540,-0.366,-111.462,26.543,-83.644
15623,-0.4395,-0.8872,-0.3320,-2.625,-4.517,0.916,-111.462,26.554,-83.600
15633,-0.4502,-0.8818,-0.3271,-4.028,-4.456,2.136,-111.473,26.581,-83.568
15643,-0.4575,-0.8457,-0.3237,-2.136,-3.174,4.272,-111.478,26.631,-83.551
15653,-0.4585,-0.7993,-0.3164,2.380,-1.526,5.432,-111.462,26.702,-83.557
15663,-0.4604,-0.7485,-0.3027,7.141,-1.038,4.578,-111.401,26.779,-83.562
15673,-0.4653,-0.7402,-0.2915,10.254,-0.854,2.869,-111.302,26.845,-83.568
15683,-0.4468,-0.7832,-0.2837,10.193,-1.221,-0.366,-111.176,26.856,-83.551
15693,-0.4282,-0.8467,-0.2847,5.859,-2.014,-2.625,-111.083,26.829,-83.518
15703,-0.4165,-0.8936,-0.2993,-1.770,-2.502,-2.319,-111.055,26.785,-83.485
15713,-0.4185,-0.9126,-0.3179,-8.057,-1.892,-0.244,-111.110,26.757,-83.463
15723,-0.4282,-0.8999,-0.3315,-10.498,-0.916,2.930,-111.204,26.763,-83.469
15733,-0.4409,-0.8770,-0.3335,-8.484,-0.366,5.737,-111.292,26.801,-83.485
15743,-0.4590,-0.8379,-0.3340,-3.906,0.061,7.019,-111.352,26.867,-83.513
15753,-0.4668,-0.7759,-0.3389,2.258,0.977,7.263,-111.368,26.949,-83.557
15763,-0.4766,-0.7339,-0.3384,8.362,1.709,6.775,-111.341,27.043,-83.600
15773,-0.4839,-0.7300,-0.3413,12.329,1.221,4.395,-111.270,27.114,-83.633
15783,-0.4575,-0.7573,-0.3384,11.841,-0.671,1.404,-111.176,27.147,-83.628
15793,-0.4482,-0.8076,-0.3330,4.822,-3.662,-0.854,-111.121,27.153,-83.589
15803,-0.4375,-0.8794,-0.3296,-3.967,-5.493,-2.808,-111.127,27.125,-83.518
15813,-0.4146,-0.9482,-0.3213,-10.559,-4.944,-3.662,-111.176,27.065,-83.452
15823,-0.4097,-0.9810,-0.3130,-12.817,-3.052,-1.587,-111.253,27.010,-83.414
15833,-0.4219,-0.9375,-0.3130,-9.155,-1.038,2.808,-111.313,26.999,-83.414
15843,-0.4531,-0.8359,-0.3110,0.183,0.854,8.545,-111.324,27.076,-83.458
15853,-0.4883,-0.7646,-0.2969,11.719,3.052,12.085,-111.242,27.213,-83.540
15863,-0.5005,-0.6812,-0.3003,18.799,4.578,10.498,-111.121,27.356,-83.628
15873,-0.4814,-0.6816,-0.2964,21.362,5.615,6.775,-110.973,27.455,-83.716
15883,-0.4731,-0.7192,-0.2852,15.869,4.272,2.808,-110.852,27.510,-83.771
15893,-0.4761,-0.7324,-0.2959,1.526,0.061,-0.427,-110.847,27.537,-83.771
15903,-0.4668,-0.7817,-0.3101,-12.390,-3.113,-3.052,-110.956,27.537,-83.727
15913,-0.4399,-0.8535,-0.3262,-21.545,-4.578,-6.348,-111.132,27.477,-83.655
15923,-0.4233,-0.9189,-0.3306,-22.461,-4.517,-8.606,-111.308,27.372,-83.573
15933,-0.4219,-0.9585,-0.3311,-15.320,-2.869,-7.568,-111.407,27.263,-83.507
15943,-0.4219,-0.9575,-0.3252,-3.540,0.061,-3.052,-111.412,27.191,-83.496
15953,-0.4375,-0.8882,-0.3232,7.996,2.197,3.723,-111.335,27.191,-83.535
15963,-0.4629,-0.7788,-0.3242,16.113,3.357,8.423,-111.220,27.274,-83.606
15973,-0.4751,-0.7168,-0.3252,19.287,3.601,9.155,-111.094,27.383,-83.683
15983,-0.4775,-0.7275,-0.3198,15.381,2.197,6.470,-110.989,27.471,-83.732
15993,-0.4766,-0.7295,-0.3237,3.723,-1.160,1.465,-110.978,27.526,-83.721
16003,-0.4668,-0.7573,-0.3267,-8.057,-3.906,-3.784,-111.055,27.521,-83.666
16013,-0.4556,-0.8354,-0.3081,-13.977,-5.005,-7.385,-111.149,27.466,-83.584
16023,-0.4375,-0.9229,-0.2881,-14.404,-5.005,-9.705,-111.215,27.367,-83.491
16033,-0.4087,-0.9736,-0.2759,-10.315,-3.540,-9.705,-111.226,27.235,-83.414
