elapsed_ms,acc_x_g,acc_y_g,acc_z_g,gyro_x_dps,gyro_y_dps,gyro_z_dps,angle_x_deg,angle_y_deg,angle_z_deg
0,-0.7466,-0.5029,-0.3188,-3.906,2.930,7.385,-130.067,48.582,-89.934
10,-0.7515,-0.5020,-0.3379,-3.601,5.005,2.563,-130.166,48.571,-90.016
20,-0.7495,-0.5098,-0.3506,0.244,5.798,-3.296,-130.188,48.505,-90.055
30,-0.7490,-0.5254,-0.3579,5.737,5.310,-8.240,-130.117,48.411,-90.033
40,-0.7476,-0.5493,-0.3525,10.437,4.456,-10.864,-129.974,48.296,-89.978
50,-0.7397,-0.5840,-0.3408,11.536,3.601,-10.925,-129.809,48.192,-89.918
60,-0.7358,-0.6128,-0.3276,6.897,1.770,-8.240,-129.694,48.115,-89.857
70,-0.7363,-0.6299,-0.3218,-3.540,-0.671,-3.296,-129.705,48.093,-89.819
80,-0.7373,-0.6382,-0.3228,-16.663,-2.686,1.648,-129.858,48.126,-89.802
90,-0.7373,-0.6323,-0.3276,-29.846,-4.639,6.287,-130.034,48.181,-89.808
100,-0.7402,-0.6113,-0.3496,-39.551,-6.836,10.254,-130.336,48.285,-89.830
110,-0.7534,-0.5776,-0.3770,-42.603,-8.423,12.085,-130.704,48.422,-89.852
120,-0.7720,-0.5435,-0.4048,-37.048,-8.789,11.047,-131.034,48.565,-89.863
130,-0.7861,-0.5269,-0.4150,-23.315,-7.690,7.446,-131.226,48.680,-89.846
140,-0.7974,-0.4893,-0.4146,-5.798,-6.042,3.845,-131.254,48.774,-89.813
150,-0.7974,-0.4868,-0.4009,12.634,-3.235,2.319,-131.100,48.840,-89.802
160,-0.7803,-0.5513,-0.3740,26.489,0.366,2.625,-130.792,48.867,-89.835
170,-0.7568,-0.6260,-0.3545,28.320,1.404,3.784,-130.435,48.862,-89.885
180,-0.7329,-0.7148,-0.3350,17.517,-0.366,5.066,-130.144,48.840,-89.934
190,-0.7075,-0.7695,-0.3252,-1.831,-3.662,5.127,-129.996,48.818,-89.940
200,-0.7012,-0.7622,-0.3335,-24.414,-7.751,7.690,-130.062,48.840,-89.923
210,-0.7163,-0.6885,-0.3545,-43.091,-10.376,15.381,-130.386,48.961,-89.956
220,-0.7485,-0.5576,-0.3799,-50.476,-11.414,24.780,-130.908,49.208,-90.066
230,-0.7939,-0.4307,-0.3916,-42.053,-10.437,31.006,-131.479,49.554,-90.258
240,-0.8379,-0.3218,-0.3989,-21.484,-8.423,32.593,-131.962,49.944,-90.494
250,-0.8623,-0.2871,-0.3945,5.920,-4.700,28.442,-132.209,50.290,-90.736
260,-0.8550,-0.3569,-0.3740,33.752,1.038,18.250,-132.072,50.499,-90.939
270,-0.8262,-0.5322,-0.3457,50.537,7.324,4.578,-131.583,50.504,-91.071
280,-0.7729,-0.6895,-0.3232,46.326,11.719,-8.545,-130.995,50.317,-91.121
290,-0.7183,-0.7729,-0.3188,26.672,13.611,-17.151,-130.534,50.004,-91.104
300,-0.6836,-0.7612,-0.3188,2.014,13.245,-15.503,-130.336,49.697,-91.104
310,-0.6787,-0.6294,-0.3413,-18.005,9.216,-2.258,-130.463,49.559,-91.192
320,-0.7266,-0.4795,-0.3511,-23.926,2.991,18.555,-130.820,49.691,-91.412
330,-0.7954,-0.3320,-0.3457,-14.526,-1.587,35.889,-131.281,50.065,-91.752
340,-0.8521,-0.2212,-0.3491,3.601,-3.235,44.067,-131.721,50.554,-92.170
350,-0.8760,-0.2700,-0.3521,25.574,-0.305,42.542,-131.913,50.993,-92.615
360,-0.8618,-0.4580,-0.3408,40.649,6.836,28.992,-131.759,51.218,-92.999
370,-0.8027,-0.6475,-0.3267,37.659,12.634,6.470,-131.407,51.152,-93.219
381,-0.7329,-0.7656,-0.3179,15.808,14.160,-13.977,-131.078,50.856,-93.241
390,-0.6787,-0.7749,-0.3398,-13.489,12.146,-24.414,-130.952,50.477,-93.131
400,-0.6577,-0.6582,-0.3657,-36.438,6.653,-19.226,-131.105,50.197,-93.016
410,-0.6919,-0.5059,-0.3950,-43.030,0.427,-0.427,-131.501,50.158,-93.016
420,-0.7559,-0.4272,-0.4165,-31.982,-2.808,19.836,-131.973,50.339,-93.186
430,-0.7993,-0.3457,-0.4097,-12.085,-3.906,32.043,-132.391,50.658,-93.477
440,-0.8315,-0.2881,-0.3979,10.437,-3.479,35.645,-132.665,51.031,-93.818
450,-0.8462,-0.3394,-0.3735,31.189,0.793,31.067,-132.671,51.334,-94.158
460,-0.8198,-0.4644,-0.3462,42.725,5.554,16.602,-132.380,51.449,-94.406
470,-0.7710,-0.5815,-0.3198,38.391,7.080,-1.282,-131.918,51.372,-94.477
480,-0.7300,-0.6582,-0.3105,19.775,4.822,-14.099,-131.484,51.174,-94.384
490,-0.7114,-0.6685,-0.3159,-2.991,1.160,-17.883,-131.215,50.960,-94.208
500,-0.7129,-0.5942,-0.3325,-21.973,-2.075,-11.414,-131.204,50.845,-94.065
510,-0.7354,-0.4839,-0.3594,-30.701,-3.479,2.502,-131.451,50.883,-94.048
520,-0.7759,-0.3936,-0.3750,-25.208,-2.502,16.602,-131.830,51.064,-94.191
530,-0.8086,-0.3105,-0.3745,-10.803,-0.793,25.269,-132.220,51.334,-94.449
540,-0.8311,-0.2988,-0.3774,5.798,1.282,26.611,-132.495,51.608,-94.752
550,-0.8384,-0.4072,-0.3716,20.630,4.883,18.921,-132.490,51.762,-95.015
560,-0.8027,-0.5659,-0.3613,25.879,8.789,2.319,-132.237,51.707,-95.147
570,-0.7461,-0.6714,-0.3496,15.808,9.460,-14.832,-131.896,51.460,-95.098
585,-0.7148,-0.6396,-0.3511,-1.709,6.592,-23.071,-131.649,51.180,-94.927
590,-0.7187,-0.5454,-0.3608,-14.099,2.686,-17.334,-131.594,50.999,-94.779
600,-0.7539,-0.4409,-0.3682,-15.747,0.061,-1.709,-131.715,51.004,-94.763
610,-0.8003,-0.3374,-0.3662,-7.751,-1.160,13.855,-131.951,51.185,-94.894
620,-0.8398,-0.2617,-0.3643,4.700,-1.709,23.560,-132.209,51.476,-95.125
630,-0.8643,-0.3193,-0.3643,19.165,0.366,24.963,-132.297,51.751,-95.400
640,-0.8535,-0.4624,-0.3574,27.710,4.822,13.428,-132.133,51.855,-95.603
650,-0.8101,-0.5840,-0.3516,23.193,7.446,-6.897,-131.803,51.735,-95.614
660,-0.7632,-0.6533,-0.3599,8.240,7.141,-24.780,-131.451,51.443,-95.433
670,-0.7310,-0.6816,-0.3799,-7.141,5.859,-34.302,-131.171,51.070,-95.142
680,-0.7139,-0.6372,-0.4019,-18.982,3.601,-32.776,-131.039,50.724,-94.839
690,-0.7290,-0.5518,-0.4141,-23.010,0.061,-20.630,-131.061,50.526,-94.625
700,-0.7651,-0.4697,-0.4282,-14.832,-1.831,-4.272,-131.171,50.504,-94.559
710,-0.7983,-0.3984,-0.4141,1.770,-1.465,8.667,-131.259,50.620,-94.636
720,-0.8223,-0.3374,-0.4009,20.935,-0.122,14.648,-131.254,50.795,-94.785
730,-0.8228,-0.4160,-0.3701,39.246,2.930,13.611,-131.006,50.933,-94.960
740,-0.7808,-0.6060,-0.3296,44.434,5.127,5.188,-130.529,50.911,-95.076
750,-0.7368,-0.7168,-0.2910,25.391,1.099,-5.615,-130.062,50.790,-95.032
760,-0.7163,-0.7046,-0.2847,-7.080,-6.409,-11.292,-129.803,50.669,-94.839
770,-0.7388,-0.5781,-0.2974,-35.095,-11.414,-6.714,-129.864,50.669,-94.636
780,-0.7876,-0.4385,-0.3262,-48.462,-11.230,5.615,-130.254,50.834,-94.554
790,-0.8315,-0.3213,-0.3574,-43.030,-6.226,16.235,-130.825,51.086,-94.647
800,-0.8608,-0.2256,-0.3789,-25.696,-0.854,21.545,-131.429,51.372,-94.861
810,-0.8770,-0.3008,-0.3989,-2.563,4.761,18.921,-131.770,51.570,-95.120
820,-0.8438,-0.4888,-0.3945,16.479,10.925,3.723,-131.710,51.542,-95.290
830,-0.7754,-0.6265,-0.3877,20.569,13.062,-18.127,-131.380,51.273,-95.251
840,-0.7163,-0.7476,-0.3921,10.681,10.620,-33.203,-130.963,50.845,-95.026
850,-0.6738,-0.7729,-0.3989,-5.371,5.981,-36.926,-130.638,50.400,-94.713
860,-0.6714,-0.6519,-0.4028,-19.653,-0.488,-26.855,-130.529,50.109,-94.433
870,-0.7227,-0.4980,-0.4082,-22.827,-5.493,-5.554,-130.655,50.087,-94.312
881,-0.7979,-0.3906,-0.4062,-11.169,-6.409,15.686,-130.880,50.290,-94.400
890,-0.8438,-0.3442,-0.3975,7.568,-3.906,27.344,-131.067,50.598,-94.631
900,-0.8550,-0.3750,-0.3818,26.367,0.183,26.367,-131.061,50.867,-94.905
910,-0.8291,-0.4985,-0.3511,38.513,3.723,14.526,-130.770,50.982,-95.103
920,-0.7754,-0.6211,-0.3193,34.180,3.235,-2.380,-130.309,50.911,-95.114
930,-0.7339,-0.6895,-0.3003,14.221,-1.343,-15.930,-129.858,50.735,-94.938
940,-0.7148,-0.6792,-0.2974,-10.681,-7.202,-21.606,-129.567,50.548,-94.631
950,-0.7266,-0.5698,-0.3101,-32.715,-11.902,-15.686,-129.551,50.482,-94.329
960,-0.7754,-0.4165,-0.3457,-43.457,-14.404,-0.305,-129.847,50.614,-94.153
970,-0.8335,-0.3257,-0.3770,-38.025,-11.353,14.282,-130.325,50.883,-94.158
980,-0.8594,-0.2559,-0.3950,-21.484,-5.554,19.958,-130.809,51.174,-94.296
990,-0.8662,-0.3213,-0.4097,-0.977,0.122,16.541,-131.061,51.378,-94.471
1000,-0.8350,-0.5112,-0.4053,15.869,5.737,2.563,-130.957,51.361,-94.565
1010,-0.7637,-0.6406,-0.3945,16.235,7.141,-16.846,-130.633,51.130,-94.477
1020,-0.7178,-0.6982,-0.3916,3.540,3.479,-28.748,-130.287,50.801,-94.219
1030,-0.7012,-0.6973,-0.3892,-10.376,-0.671,-29.785,-130.034,50.482,-93.906
1040,-0.7085,-0.5811,-0.3848,-19.653,-5.066,-20.142,-129.963,50.312,-93.642
1050,-0.7593,-0.4736,-0.3872,-17.578,-7.812,-2.625,-130.040,50.350,-93.521
1060,-0.8022,-0.4272,-0.3838,-5.493,-6.042,12.207,-130.150,50.526,-93.571
1070,-0.8257,-0.3843,-0.3750,8.362,-3.235,18.616,-130.226,50.751,-93.724
1080,-0.8364,-0.4033,-0.3667,21.545,-0.305,17.944,-130.172,50.949,-93.900
1090,-0.8184,-0.5044,-0.3540,30.762,3.723,8.728,-129.919,51.015,-94.037
1100,-0.7686,-0.6309,-0.3369,27.954,5.676,-5.615,-129.529,50.894,-94.048
1110,-0.7285,-0.6797,-0.3428,11.414,3.357,-16.174,-129.194,50.680,-93.928
1120,-0.7129,-0.6895,-0.3501,-6.958,0.549,-18.921,-129.001,50.449,-93.746
1130,-0.7192,-0.6162,-0.3711,-20.447,-1.587,-12.817,-129.012,50.306,-93.598
1140,-0.7500,-0.5010,-0.3833,-22.461,-2.441,0.122,-129.199,50.317,-93.571
1150,-0.7900,-0.4214,-0.3906,-12.085,-0.916,13.000,-129.446,50.460,-93.686
1160,-0.8145,-0.3491,-0.3813,3.784,1.587,20.752,-129.661,50.680,-93.911
1170,-0.8291,-0.3306,-0.3701,20.203,3.235,22.766,-129.754,50.922,-94.180
1180,-0.8242,-0.4351,-0.3477,32.837,6.165,17.456,-129.611,51.064,-94.433
1190,-0.7920,-0.5820,-0.3320,31.555,7.080,4.944,-129.304,51.042,-94.570
1200,-0.7490,-0.6504,-0.3262,15.076,4.639,-8.179,-129.007,50.900,-94.548
1210,-0.7334,-0.6694,-0.3374,-5.493,0.977,-15.686,-128.831,50.707,-94.400
1220,-0.7383,-0.5942,-0.3511,-20.752,-1.465,-14.526,-128.826,50.570,-94.241
1230,-0.7603,-0.5029,-0.3774,-25.696,-2.625,-5.066,-129.001,50.543,-94.158
1240,-0.7866,-0.4399,-0.3862,-17.151,-0.793,5.798,-129.227,50.620,-94.202
1250,-0.8047,-0.3809,-0.3882,-3.296,1.160,13.306,-129.435,50.768,-94.351
1260,-0.8188,-0.3784,-0.3867,10.193,2.747,16.357,-129.551,50.933,-94.548
1270,-0.8120,-0.4502,-0.3745,21.118,4.883,11.963,-129.479,51.026,-94.730
1280,-0.7817,-0.5737,-0.3604,22.644,5.676,1.587,-129.249,50.988,-94.818
1290,-0.7480,-0.6299,-0.3560,12.024,3.357,-9.277,-128.990,50.845,-94.763
1300,-0.7402,-0.6406,-0.3740,-14.404,-2.380,-11.475,-128.936,50.713,-94.620
1310,-0.7588,-0.5400,-0.3945,-20.264,-4.272,-2.625,-129.051,50.696,-94.543
1320,-0.7915,-0.4482,-0.4028,-14.832,-3.906,9.155,-129.260,50.812,-94.587
1330,-0.8164,-0.3496,-0.3872,-0.549,-2.014,17.822,-129.468,51.026,-94.741
1340,-0.8389,-0.2861,-0.3765,15.869,-0.671,22.583,-129.617,51.301,-94.960
1350,-0.8369,-0.3804,-0.3569,30.823,1.709,20.630,-129.523,51.515,-95.191
1360,-0.7979,-0.5854,-0.3267,32.471,3.357,9.521,-129.205,51.548,-95.328
1370,-0.7524,-0.6924,-0.3164,13.000,0.305,-5.249,-128.892,51.438,-95.279
1381,-0.7334,-0.7212,-0.3252,-14.099,-4.639,-15.625,-128.721,51.262,-95.065
1390,-0.7329,-0.6484,-0.3501,-35.095,-7.446,-17.273,-128.760,51.108,-94.801
1400,-0.7568,-0.4570,-0.3755,-42.542,-8.789,-8.484,-129.034,51.108,-94.603
1410,-0.7998,-0.3364,-0.3950,-28.809,-6.409,6.409,-129.413,51.257,-94.592
1420,-0.8315,-0.2905,-0.3960,-5.371,-1.587,18.250,-129.738,51.487,-94.757
1430,-0.8506,-0.2739,-0.3887,16.418,1.465,21.362,-129.913,51.735,-94.993
1440,-0.8423,-0.3975,-0.3701,33.997,4.883,14.648,-129.771,51.866,-95.208
1450,-0.7915,-0.5977,-0.3403,36.682,6.714,-0.916,-129.364,51.790,-95.279
1460,-0.7412,-0.6929,-0.3325,17.822,3.357,-16.907,-128.947,51.564,-95.147
1470,-0.7158,-0.7139,-0.3442,-7.385,-1.282,-25.574,-128.677,51.279,-94.872
1480,-0.7202,-0.6240,-0.3599,-27.100,-5.127,-22.461,-128.633,51.075,-94.587
1490,-0.7578,-0.4951,-0.3872,-33.630,-7.019,-9.705,-128.820,51.037,-94.400
1500,-0.8057,-0.4209,-0.4033,-22.644,-5.005,3.967,-129.078,51.130,-94.378
1510,-0.8369,-0.3823,-0.4033,-4.150,-1.587,12.329,-129.271,51.284,-94.482
1520,-0.8389,-0.3618,-0.3979,14.221,1.587,13.245,-129.337,51.438,-94.636
1530,-0.8130,-0.4482,-0.3701,30.518,4.150,7.568,-129.133,51.498,-94.763
1540,-0.7764,-0.5986,-0.3369,32.654,3.967,-1.038,-128.743,51.438,-94.807
1550,-0.7437,-0.6792,-0.3228,16.724,0.244,-8.972,-128.375,51.301,-94.719
1560,-0.7256,-0.7148,-0.3237,-6.470,-4.578,-11.902,-128.167,51.152,-94.543
1570,-0.7354,-0.6338,-0.3301,-26.855,-8.362,-6.531,-128.194,51.097,-94.373
1580,-0.7793,-0.4531,-0.3564,-36.194,-10.681,5.798,-128.496,51.229,-94.296
1590,-0.8315,-0.3320,-0.3657,-26.550,-8.484,18.738,-128.914,51.509,-94.378
1600,-0.8643,-0.1978,-0.3569,-7.568,-4.700,26.245,-129.370,51.872,-94.581
1610,-0.8911,-0.1870,-0.3564,14.832,-0.793,26.978,-129.655,52.224,-94.850
1620,-0.8706,-0.4087,-0.3462,33.142,6.836,15.198,-129.529,52.361,-95.092
1630,-0.7905,-0.6313,-0.3242,30.884,12.085,-9.155,-129.144,52.169,-95.153
1640,-0.7227,-0.7104,-0.3364,8.179,8.850,-30.457,-128.765,51.784,-94.949
1650,-0.6909,-0.7007,-0.3623,-13.550,2.441,-38.574,-128.507,51.367,-94.587
1660,-0.7021,-0.5952,-0.3853,-25.635,-3.662,-31.189,-128.430,51.081,-94.235
1670,-0.7573,-0.4663,-0.4048,-22.949,-6.897,-12.512,-128.518,51.026,-94.021
1680,-0.8022,-0.4448,-0.4146,-6.714,-4.517,6.287,-128.633,51.119,-94.026
1690,-0.8154,-0.4434,-0.4097,10.071,0.244,15.808,-128.699,51.262,-94.191
1700,-0.8047,-0.4663,-0.3965,24.292,4.211,15.259,-128.633,51.372,-94.395
1710,-0.7798,-0.5562,-0.3672,31.067,6.470,9.338,-128.408,51.383,-94.570
1720,-0.7490,-0.6304,-0.3398,24.414,4.944,1.404,-128.128,51.312,-94.647
1730,-0.7310,-0.6323,-0.3364,7.996,0.549,-3.784,-127.919,51.224,-94.614
1740,-0.7388,-0.5996,-0.3335,-7.935,-3.113,-2.991,-127.859,51.180,-94.543
1750,-0.7734,-0.4902,-0.3447,-18.616,-5.127,3.784,-127.996,51.251,-94.515
1760,-0.8120,-0.3911,-0.3613,-18.799,-4.089,12.451,-128.282,51.427,-94.587
1770,-0.8315,-0.3325,-0.3618,-9.827,-0.122,17.029,-128.600,51.641,-94.757
1780,-0.8428,-0.2964,-0.3618,2.197,3.418,16.418,-128.864,51.839,-94.966
1790,-0.8394,-0.4272,-0.3677,14.771,6.531,10.010,-128.875,51.921,-95.147
1800,-0.7817,-0.6108,-0.3462,16.357,8.667,-3.601,-128.677,51.801,-95.224
1810,-0.7402,-0.6416,-0.3506,1.282,4.761,-16.113,-128.485,51.581,-95.120
1820,-0.7344,-0.6392,-0.3652,-14.893,-0.488,-19.409,-128.392,51.367,-94.916
1830,-0.7466,-0.5571,-0.3755,-24.475,-3.784,-13.855,-128.447,51.251,-94.735
1840,-0.7837,-0.4160,-0.3867,-22.949,-5.127,-1.892,-128.650,51.295,-94.647
1850,-0.8276,-0.3506,-0.3857,-8.972,-3.113,10.437,-128.881,51.460,-94.713
1860,-0.8584,-0.3154,-0.3813,7.751,0.488,16.113,-129.051,51.669,-94.883
1870,-0.8467,-0.3462,-0.3696,23.926,4.517,11.902,-129.029,51.806,-95.059
1881,-0.8110,-0.5317,-0.3394,33.386,7.263,0.916,-128.716,51.768,-95.164
1890,-0.7568,-0.6768,-0.3203,22.949,5.371,-12.878,-128.304,51.575,-95.098
1900,-0.7241,-0.7119,-0.3384,0.000,-0.671,-22.644,-127.991,51.312,-94.867
1910,-0.7202,-0.7124,-0.3506,-19.958,-5.371,-22.949,-127.848,51.075,-94.570
1920,-0.7310,-0.6123,-0.3716,-32.471,-7.874,-14.282,-127.919,50.955,-94.334
1930,-0.7759,-0.4595,-0.3984,-31.189,-7.751,0.488,-128.188,51.015,-94.241
1940,-0.8149,-0.3940,-0.4038,-15.015,-3.479,14.343,-128.485,51.191,-94.340
1950,-0.8418,-0.3218,-0.3931,5.554,0.793,21.301,-128.721,51.427,-94.559
1960,-0.8589,-0.2861,-0.3813,25.574,4.395,20.386,-128.815,51.658,-94.818
1970,-0.8428,-0.4102,-0.3447,41.565,8.606,12.146,-128.595,51.757,-95.048
1980,-0.7910,-0.6123,-0.3110,39.307,9.155,-1.831,-128.167,51.658,-95.147
1990,-0.7417,-0.7197,-0.3037,15.503,3.967,-15.259,-127.776,51.432,-95.043
2000,-0.7148,-0.7437,-0.3247,-14.221,-3.113,-22.278,-127.579,51.174,-94.785
2010,-0.7192,-0.6348,-0.3521,-37.659,-8.484,-18.738,-127.639,51.015,-94.499
2020,-0.7603,-0.4585,-0.3896,-43.518,-10.010,-6.287,-127.958,51.037,-94.312
2030,-0.8066,-0.3975,-0.4165,-27.405,-5.981,7.690,-128.309,51.163,-94.312
2040,-0.8276,-0.3667,-0.4028,-3.052,0.366,15.991,-128.562,51.345,-94.471
2050,-0.8457,-0.3169,-0.3906,19.287,5.859,17.456,-128.683,51.520,-94.719
2060,-0.8350,-0.3823,-0.3491,39.490,12.146,14.099,-128.557,51.619,-95.015
2070,-0.8022,-0.5439,-0.3037,47.180,16.174,7.141,-128.210,51.581,-95.290
2080,-0.7690,-0.6968,-0.2847,32.959,14.221,-0.549,-127.859,51.432,-95.466
2090,-0.7393,-0.7466,-0.2886,4.700,8.728,-5.615,-127.689,51.246,-95.521
2100,-0.7344,-0.7139,-0.3081,-24.719,3.601,-3.174,-127.804,51.125,-95.532
2110,-0.7686,-0.5283,-0.3521,-45.532,0.366,7.385,-128.271,51.169,-95.609
2120,-0.8208,-0.3789,-0.3970,-44.861,1.648,20.264,-128.963,51.367,-95.834
2130,-0.8516,-0.3154,-0.4170,-26.489,5.737,27.710,-129.639,51.619,-96.180
2140,-0.8594,-0.2866,-0.4292,-4.089,8.728,26.062,-130.139,51.833,-96.559
2150,-0.8496,-0.3896,-0.4302,17.029,11.414,15.991,-130.287,51.921,-96.866
2160,-0.7905,-0.5518,-0.4058,27.405,12.695,-0.671,-130.089,51.806,-97.015
2170,-0.7402,-0.6509,-0.3965,20.508,7.812,-14.282,-129.760,51.575,-96.965
2180,-0.7061,-0.7119,-0.3931,5.798,0.305,-19.470,-129.441,51.317,-96.768
2190,-0.7144,-0.6001,-0.3901,-8.850,-8.057,-15.442,-129.265,51.185,-96.509
2200,-0.7651,-0.4224,-0.4038,-15.320,-14.099,-0.977,-129.320,51.279,-96.328
2210,-0.8208,-0.3521,-0.3960,-6.104,-13.367,14.282,-129.457,51.531,-96.306
2220,-0.8501,-0.2896,-0.3853,9.094,-9.277,20.081,-129.573,51.833,-96.394
2230,-0.8525,-0.2974,-0.3804,23.621,-5.249,17.578,-129.551,52.086,-96.515
2240,-0.8252,-0.4482,-0.3491,34.302,-1.770,6.042,-129.227,52.180,-96.553
2250,-0.7700,-0.5894,-0.3159,29.724,-2.686,-10.315,-128.710,52.086,-96.411
2260,-0.7402,-0.6362,-0.3145,9.949,-7.446,-21.240,-128.249,51.910,-96.103
2270,-0.7393,-0.6592,-0.3257,-10.254,-11.597,-23.682,-127.930,51.729,-95.718
2280,-0.7441,-0.6240,-0.3467,-25.085,-12.878,-18.738,-127.815,51.608,-95.367
2290,-0.7583,-0.5366,-0.3799,-30.090,-11.597,-9.033,-127.908,51.581,-95.131
2300,-0.7827,-0.4658,-0.4033,-21.423,-8.240,1.831,-128.079,51.647,-95.043
2310,-0.8027,-0.4077,-0.3950,-4.211,-4.944,10.498,-128.216,51.790,-95.087
2320,-0.8267,-0.3755,-0.3838,14.038,-2.197,15.137,-128.243,51.971,-95.208
2330,-0.8149,-0.4312,-0.3535,28.503,0.488,13.672,-128.084,52.114,-95.350
2341,-0.7954,-0.5293,-0.3130,31.250,1.038,8.667,-127.782,52.174,-95.455
2350,-0.7642,-0.6416,-0.2817,17.029,-1.404,4.150,-127.491,52.169,-95.477
2360,-0.7495,-0.6953,-0.2749,-9.399,-5.920,2.197,-127.381,52.152,-95.422
2370,-0.7578,-0.6157,-0.2969,-36.682,-9.949,5.554,-127.568,52.213,-95.345
2381,-0.7954,-0.4443,-0.3325,-51.331,-10.925,13.977,-128.068,52.416,-95.345
2390,-0.8354,-0.3208,-0.3672,-44.556,-7.080,22.278,-128.721,52.707,-95.477
2400,-0.8579,-0.2041,-0.3755,-23.254,-2.197,25.940,-129.370,53.031,-95.718
2410,-0.8813,-0.1226,-0.3872,2.441,0.732,24.658,-129.886,53.339,-95.988
2420,-0.8960,-0.2764,-0.3872,29.724,5.920,15.198,-129.930,53.503,-96.229
2430,-0.8301,-0.5674,-0.3491,45.166,11.230,-7.507,-129.452,53.350,-96.290
2440,-0.7539,-0.6997,-0.3228,32.166,9.277,-30.334,-128.826,52.971,-96.086
2450,-0.7139,-0.7017,-0.3374,6.348,3.113,-41.016,-128.326,52.531,-95.702
2460,-0.7100,-0.5815,-0.3525,-13.062,-2.686,-35.767,-128.068,52.207,-95.301
2470,-0.7515,-0.4351,-0.3716,-17.090,-5.432,-17.639,-128.068,52.108,-95.054
2480,-0.8076,-0.4082,-0.3906,-5.798,-2.869,0.793,-128.161,52.163,-95.026
2490,-0.8237,-0.3887,-0.3955,9.277,0.427,8.240,-128.210,52.262,-95.114
2500,-0.8169,-0.4121,-0.3765,22.217,2.563,6.287,-128.106,52.328,-95.213
2511,-0.7959,-0.4897,-0.3320,30.273,3.418,-0.854,-127.798,52.311,-95.246
2521,-0.7671,-0.5820,-0.2954,24.353,1.953,-7.629,-127.408,52.213,-95.197
2530,-0.7417,-0.6694,-0.2729,5.432,-0.061,-11.047,-127.112,52.064,-95.087
2540,-0.7412,-0.6802,-0.2832,-20.935,-2.319,-8.911,-127.084,51.938,-94.966
2551,-0.7642,-0.5693,-0.3232,-43.030,-2.747,-1.587,-127.397,51.916,-94.916
2561,-0.8130,-0.4375,-0.3740,-48.157,-0.244,8.484,-127.969,52.015,-94.999
2571,-0.8442,-0.3569,-0.4150,-33.325,5.066,15.564,-128.584,52.152,-95.219
2581,-0.8677,-0.3198,-0.4355,-9.155,9.399,16.357,-129.045,52.284,-95.504
2590,-0.8545,-0.3911,-0.4312,15.320,12.634,10.071,-129.188,52.317,-95.768
2601,-0.7993,-0.5645,-0.3901,30.090,13.123,-0.488,-128.974,52.202,-95.927
2611,-0.7598,-0.6416,-0.3569,21.545,7.568,-7.690,-128.672,52.031,-95.944
2621,-0.7446,-0.6421,-0.3452,2.319,0.244,-8.850,-128.480,51.899,-95.861
2631,-0.7603,-0.5767,-0.3491,-15.259,-5.127,-2.502,-128.485,51.877,-95.768
2640,-0.7998,-0.4756,-0.3716,-25.330,-7.263,8.362,-128.727,51.993,-95.762
2651,-0.8394,-0.4082,-0.3950,-22.400,-5.920,15.991,-129.073,52.196,-95.850
2661,-0.8569,-0.3486,-0.4097,-11.047,-3.235,16.113,-129.380,52.394,-95.971
2671,-0.8638,-0.2944,-0.4204,4.944,-0.549,9.949,-129.567,52.542,-96.070
2681,-0.8389,-0.3882,-0.3975,24.536,2.075,-0.366,-129.402,52.570,-96.092
2691,-0.7954,-0.5410,-0.3579,34.668,2.319,-11.353,-128.930,52.449,-96.004
2701,-0.7534,-0.6440,-0.3350,23.804,-1.770,-18.188,-128.414,52.256,-95.790
2711,-0.7354,-0.6812,-0.3257,3.479,-6.653,-18.127,-128.040,52.075,-95.521
2721,-0.7402,-0.6123,-0.3345,-15.808,-10.559,-10.559,-127.914,52.004,-95.284
2731,-0.7764,-0.4761,-0.3564,-25.513,-11.353,2.930,-128.062,52.103,-95.164
2741,-0.8154,-0.3936,-0.3721,-19.043,-7.996,14.526,-128.342,52.306,-95.208
2751,-0.8335,-0.3506,-0.3765,-4.333,-3.723,18.677,-128.584,52.537,-95.350
2761,-0.8452,-0.3257,-0.3828,11.047,-0.366,15.137,-128.699,52.723,-95.499
2771,-0.8311,-0.4258,-0.3677,26.001,3.296,5.188,-128.540,52.773,-95.598
2781,-0.7881,-0.5811,-0.3350,30.762,4.944,-8.362,-128.134,52.646,-95.576
2791,-0.7480,-0.6484,-0.3301,17.944,2.319,-18.005,-127.722,52.427,-95.422
2801,-0.7290,-0.6821,-0.3286,0.244,-1.831,-18.677,-127.436,52.207,-95.213
2811,-0.7417,-0.5659,-0.3325,-15.930,-5.737,-10.193,-127.386,52.125,-95.037
2821,-0.7920,-0.4150,-0.3564,-21.606,-7.080,5.798,-127.606,52.245,-94.999
2831,-0.8345,-0.3521,-0.3525,-11.780,-3.845,19.287,-127.908,52.487,-95.142
2841,-0.8545,-0.2920,-0.3516,0.977,-0.427,23.560,-128.205,52.767,-95.378
2851,-0.8662,-0.2925,-0.3521,13.855,2.319,19.531,-128.370,52.998,-95.603
2861,-0.8521,-0.4131,-0.3315,24.414,5.371,6.531,-128.238,53.069,-95.740
2871,-0.8047,-0.5464,-0.3125,23.682,6.470,-11.780,-127.892,52.927,-95.707
2881,-0.7632,-0.6060,-0.3149,9.094,3.906,-24.719,-127.535,52.663,-95.504
2891,-0.7471,-0.6499,-0.3325,-6.897,0.854,-28.076,-127.288,52.366,-95.235
2901,-0.7427,-0.6372,-0.3584,-19.958,-0.793,-23.010,-127.222,52.119,-94.993
2911,-0.7539,-0.5469,-0.3887,-25.330,-1.770,-12.146,-127.343,51.998,-94.850
2921,-0.7881,-0.4814,-0.4165,-17.456,-0.977,1.282,-127.546,52.004,-94.856
2931,-0.8105,-0.4287,-0.4102,0.427,1.282,10.437,-127.700,52.097,-94.971
2941,-0.8315,-0.3638,-0.4004,17.639,3.357,13.977,-127.766,52.234,-95.158
2951,-0.8301,-0.3950,-0.3672,32.959,5.493,12.878,-127.650,52.350,-95.356
2961,-0.8145,-0.4995,-0.3262,38.635,6.104,7.812,-127.343,52.388,-95.515
2971,-0.7979,-0.5928,-0.3037,26.733,3.540,0.793,-127.018,52.350,-95.565
2981,-0.7759,-0.6362,-0.3047,4.517,-0.061,-5.737,-126.815,52.262,-95.510
2991,-0.7656,-0.6484,-0.3179,-17.578,-3.235,-7.263,-126.793,52.169,-95.394
3001,-0.7793,-0.5732,-0.3477,-33.569,-5.127,-3.174,-126.996,52.141,-95.295
3011,-0.8013,-0.4224,-0.3828,-35.767,-4.944,3.601,-127.375,52.224,-95.268
3021,-0.8296,-0.3120,-0.3979,-20.325,-2.686,11.719,-127.787,52.399,-95.350
3030,-0.8579,-0.2227,-0.3857,2.625,0.244,17.761,-128.128,52.641,-95.532
3041,-0.8750,-0.2212,-0.3799,24.597,3.540,17.822,-128.276,52.861,-95.757
3051,-0.8472,-0.4429,-0.3398,41.382,7.690,8.423,-128.007,52.921,-95.944
3061,-0.7793,-0.6343,-0.2969,35.034,6.714,-7.507,-127.540,52.773,-95.955
3071,-0.7485,-0.6899,-0.3013,7.019,-0.549,-20.447,-127.161,52.537,-95.746
3081,-0.7378,-0.6934,-0.3145,-20.020,-6.470,-24.780,-126.974,52.295,-95.411
3091,-0.7446,-0.6104,-0.3428,-39.001,-9.277,-19.836,-127.035,52.136,-95.098
3101,-0.7656,-0.4917,-0.3877,-42.664,-8.362,-9.277,-127.315,52.097,-94.894
3111,-0.7988,-0.4312,-0.4238,-28.259,-5.432,2.014,-127.628,52.158,-94.845
3121,-0.8252,-0.4126,-0.4331,-5.005,-2.014,7.935,-127.804,52.251,-94.900
3131,-0.8237,-0.3809,-0.4189,19.043,1.160,5.981,-127.776,52.322,-94.971
3141,-0.7974,-0.4082,-0.3687,40.405,2.380,1.099,-127.452,52.344,-95.015
3151,-0.7861,-0.5024,-0.3096,48.218,0.793,-1.038,-126.914,52.339,-95.015
3161,-0.7773,-0.5835,-0.2729,38.452,-2.014,-3.906,-126.365,52.300,-94.949
3171,-0.7559,-0.6440,-0.2437,18.555,-4.761,-6.592,-125.925,52.229,-94.823
3181,-0.7603,-0.6426,-0.2358,-6.653,-7.385,-3.967,-125.728,52.202,-94.686
3191,-0.7910,-0.5439,-0.2710,-29.236,-7.690,3.296,-125.870,52.273,-94.620
3201,-0.8330,-0.4355,-0.3154,-38.574,-3.906,11.841,-126.299,52.443,-94.680
3211,-0.8550,-0.3955,-0.3555,-32.410,2.686,16.602,-126.832,52.614,-94.878
3221,-0.8613,-0.3452,-0.3960,-20.142,8.179,15.015,-127.354,52.745,-95.131
3231,-0.8706,-0.3467,-0.4282,-2.808,11.292,7.690,-127.694,52.789,-95.356
3241,-0.8345,-0.4790,-0.4160,16.968,12.817,-3.784,-127.661,52.679,-95.488
3251,-0.7778,-0.6006,-0.3823,25.208,9.583,-14.038,-127.348,52.460,-95.471
3261,-0.7539,-0.6401,-0.3574,15.259,1.587,-15.320,-127.013,52.262,-95.339
3271,-0.7500,-0.6470,-0.3354,0.977,-5.188,-8.850,-126.782,52.163,-95.186
3281,-0.7710,-0.5811,-0.3311,-12.268,-9.094,2.563,-126.760,52.202,-95.092
3291,-0.8066,-0.4673,-0.3516,-19.165,-9.521,13.184,-126.958,52.383,-95.092
3301,-0.8398,-0.3994,-0.3643,-13.855,-7.141,17.517,-127.211,52.614,-95.175
3311,-0.8579,-0.3662,-0.3755,-1.099,-3.784,14.709,-127.381,52.811,-95.268
3321,-0.8540,-0.3696,-0.3818,14.221,-0.488,5.310,-127.365,52.910,-95.317
3331,-0.8193,-0.4712,-0.3516,28.503,1.587,-6.042,-127.046,52.866,-95.279
3341,-0.7842,-0.5522,-0.3271,30.457,0.183,-13.184,-126.573,52.740,-95.147
3351,-0.7632,-0.6084,-0.3086,19.775,-2.991,-13.000,-126.151,52.608,-94.982
3361,-0.7529,-0.6182,-0.3047,4.211,-5.249,-7.202,-125.903,52.531,-94.839
3371,-0.7661,-0.5654,-0.3174,-10.315,-6.165,2.563,-125.892,52.559,-94.785
3381,-0.7944,-0.4629,-0.3384,-18.494,-5.188,12.268,-126.118,52.707,-94.834
3391,-0.8247,-0.4033,-0.3569,-15.808,-2.197,17.029,-126.436,52.894,-94.971
3401,-0.8359,-0.3921,-0.3687,-4.578,1.709,13.977,-126.672,53.042,-95.131
3411,-0.8320,-0.3931,-0.3755,8.057,4.578,4.578,-126.749,53.086,-95.235
3421,-0.8057,-0.4409,-0.3618,19.958,6.226,-6.287,-126.595,53.020,-95.257
3431,-0.7822,-0.5044,-0.3374,26.367,6.592,-12.695,-126.277,52.872,-95.219
3441,-0.7646,-0.5635,-0.3179,23.193,5.920,-12.207,-125.942,52.707,-95.180
3451,-0.7549,-0.5825,-0.3071,11.108,4.700,-6.165,-125.755,52.592,-95.180
3461,-0.7637,-0.5479,-0.3140,-3.723,2.930,2.625,-125.782,52.575,-95.246
3471,-0.7896,-0.4800,-0.3325,-14.954,1.770,10.498,-126.019,52.657,-95.372
3481,-0.8164,-0.4199,-0.3560,-18.127,2.197,13.672,-126.370,52.789,-95.532
3491,-0.8330,-0.3784,-0.3711,-13.245,3.418,10.742,-126.700,52.899,-95.685
3501,-0.8291,-0.3975,-0.3765,-3.845,4.272,4.028,-126.881,52.943,-95.779
3511,-0.8008,-0.5107,-0.3667,3.723,4.456,-4.272,-126.843,52.872,-95.795
3521,-0.7627,-0.6011,-0.3530,2.747,2.258,-11.475,-126.689,52.718,-95.713
3531,-0.7515,-0.6172,-0.3604,-5.310,-2.136,-12.939,-126.552,52.564,-95.559
3541,-0.7627,-0.5947,-0.3677,-9.949,-4.578,-8.545,-126.491,52.471,-95.411
3551,-0.7876,-0.4756,-0.3730,-7.812,-5.066,-0.305,-126.530,52.498,-95.345
3561,-0.8335,-0.3662,-0.3701,2.747,-3.845,10.010,-126.628,52.657,-95.389
3571,-0.8730,-0.2773,-0.3545,18.066,-0.610,16.602,-126.722,52.894,-95.543
3581,-0.8696,-0.2705,-0.3330,32.776,3.052,15.869,-126.694,53.113,-95.740
3591,-0.8418,-0.4590,-0.2861,38.513,5.432,8.850,-126.392,53.190,-95.905
3601,-0.7974,-0.6226,-0.2554,22.339,3.357,-3.845,-126.035,53.108,-95.911
3611,-0.7739,-0.6733,-0.2759,-8.789,-2.380,-16.418,-125.832,52.927,-95.718
3621,-0.7729,-0.6646,-0.3110,-35.522,-5.676,-22.156,-125.848,52.718,-95.427
3631,-0.7754,-0.5742,-0.3735,-49.438,-5.188,-20.203,-126.101,52.542,-95.164
3641,-0.7808,-0.4771,-0.4233,-42.908,-1.587,-12.573,-126.469,52.432,-95.021
3651,-0.8018,-0.4233,-0.4487,-20.264,1.709,-1.038,-126.782,52.416,-95.032
3661,-0.8232,-0.3970,-0.4380,7.812,3.845,6.897,-126.909,52.465,-95.147
3671,-0.8154,-0.4116,-0.3960,31.738,5.066,9.033,-126.782,52.537,-95.306
3681,-0.7954,-0.5103,-0.3311,42.969,3.662,9.399,-126.431,52.586,-95.444
3691,-0.7891,-0.6104,-0.2793,34.973,0.061,7.874,-126.030,52.619,-95.521
3701,-0.7744,-0.6206,-0.2578,12.451,-4.395,3.906,-125.755,52.641,-95.504
3711,-0.7817,-0.5557,-0.2734,-12.207,-7.080,3.906,-125.733,52.707,-95.444
3721,-0.8110,-0.4795,-0.3032,-27.405,-6.470,8.057,-125.964,52.828,-95.438
3731,-0.8325,-0.4043,-0.3545,-28.015,-2.930,9.521,-126.337,52.965,-95.488
3741,-0.8389,-0.3765,-0.3818,-15.930,0.671,7.202,-126.645,53.064,-95.570
3751,-0.8232,-0.3823,-0.3857,1.038,2.808,1.343,-126.766,53.097,-95.620
3761,-0.8047,-0.4253,-0.3687,16.052,2.563,-4.761,-126.634,53.058,-95.609
3771,-0.7832,-0.4922,-0.3335,23.499,1.404,-8.545,-126.326,52.982,-95.543
3781,-0.7715,-0.5322,-0.3066,19.287,-0.549,-8.362,-126.002,52.905,-95.449
3791,-0.7734,-0.5630,-0.2935,8.057,-2.075,-4.822,-125.777,52.855,-95.378
3801,-0.7891,-0.5327,-0.3013,-4.944,-2.747,0.549,-125.739,52.866,-95.345
3811,-0.8154,-0.4868,-0.3257,-14.343,-2.258,5.249,-125.876,52.938,-95.367
3821,-0.8325,-0.4692,-0.3525,-14.587,-0.183,5.188,-126.068,52.998,-95.411
3831,-0.8267,-0.4634,-0.3809,-7.202,1.709,-0.244,-126.189,52.998,-95.433
3841,-0.8169,-0.4551,-0.3896,4.089,2.991,-5.676,-126.178,52.943,-95.416
3851,-0.7974,-0.4980,-0.3784,16.357,4.028,-8.972,-126.002,52.839,-95.383
3861,-0.7871,-0.5381,-0.3579,22.644,3.784,-8.911,-125.728,52.723,-95.350
3871,-0.7769,-0.5698,-0.3403,19.775,2.258,-5.676,-125.464,52.630,-95.323
3882,-0.7783,-0.5474,-0.3184,10.742,-0.183,0.061,-125.299,52.614,-95.323
3891,-0.7930,-0.4868,-0.3188,0.366,-3.235,7.080,-125.294,52.701,-95.345
3901,-0.8066,-0.4634,-0.3184,-6.409,-5.737,13.306,-125.392,52.866,-95.394
3911,-0.8130,-0.4302,-0.3276,-11.169,-8.545,15.259,-125.546,53.075,-95.427
3921,-0.8223,-0.4185,-0.3398,-12.329,-11.475,13.062,-125.678,53.284,-95.400
3931,-0.8228,-0.4575,-0.3491,-9.277,-12.451,6.958,-125.706,53.427,-95.295
3941,-0.8096,-0.5029,-0.3574,-4.395,-11.841,-1.465,-125.607,53.476,-95.120
3951,-0.7944,-0.4932,-0.3481,-0.244,-10.742,-6.714,-125.436,53.481,-94.905
3961,-0.8013,-0.4360,-0.3398,3.723,-9.521,-3.784,-125.294,53.520,-94.741
3971,-0.8228,-0.4272,-0.3267,8.545,-7.751,4.517,-125.178,53.635,-94.680
3981,-0.8345,-0.4341,-0.3149,12.085,-5.676,9.644,-125.079,53.784,-94.691
3991,-0.8325,-0.4897,-0.3086,10.620,-4.456,9.338,-124.969,53.899,-94.724
4001,-0.8154,-0.5698,-0.3008,4.456,-3.845,3.479,-124.838,53.926,-94.702
4011,-0.7900,-0.6099,-0.3091,-5.432,-3.845,-4.883,-124.733,53.860,-94.603
4021,-0.7832,-0.6162,-0.3237,-14.221,-3.540,-9.827,-124.684,53.745,-94.455
4031,-0.7778,-0.5469,-0.3369,-17.090,-1.831,-9.888,-124.728,53.641,-94.340
4041,-0.7969,-0.4448,-0.3579,-11.597,0.183,-4.089,-124.854,53.619,-94.301
4051,-0.8271,-0.4229,-0.3516,3.113,2.991,3.174,-124.931,53.652,-94.373
4061,-0.8174,-0.4258,-0.3271,17.273,5.127,5.981,-124.887,53.701,-94.499
4071,-0.8184,-0.4072,-0.3091,22.461,3.784,6.958,-124.783,53.784,-94.620
4081,-0.8247,-0.4878,-0.2935,20.996,2.258,7.629,-124.623,53.849,-94.724
4091,-0.8091,-0.5771,-0.2798,10.864,0.916,2.991,-124.459,53.844,-94.768
4101,-0.7935,-0.5850,-0.2944,-6.714,-1.953,-2.930,-124.404,53.800,-94.713
4111,-0.8027,-0.5771,-0.3135,-20.874,-4.028,-4.578,-124.475,53.751,-94.614
4121,-0.8140,-0.5083,-0.3428,-25.330,-3.662,-4.272,-124.645,53.729,-94.521
4131,-0.8242,-0.4707,-0.3652,-18.005,-1.099,-2.563,-124.821,53.718,-94.482
4141,-0.8345,-0.4126,-0.3696,-3.967,1.831,-0.305,-124.953,53.734,-94.504
4151,-0.8511,-0.3633,-0.3647,12.512,4.150,0.977,-124.980,53.767,-94.570
4161,-0.8335,-0.3901,-0.3306,29.114,6.348,-0.061,-124.816,53.778,-94.658
4171,-0.8149,-0.4434,-0.2900,34.851,5.676,-0.793,-124.514,53.773,-94.730
4181,-0.8105,-0.5117,-0.2686,26.001,2.502,-1.038,-124.206,53.762,-94.752
4191,-0.7983,-0.5942,-0.2627,8.484,-0.183,-3.418,-123.992,53.701,-94.719
4201,-0.7944,-0.6196,-0.2847,-12.390,-2.075,-6.226,-123.948,53.619,-94.631
4211,-0.8008,-0.5923,-0.3208,-27.161,-1.831,-7.385,-124.091,53.531,-94.537
4221,-0.8135,-0.5137,-0.3662,-28.748,0.610,-7.141,-124.338,53.459,-94.477
4231,-0.8159,-0.4380,-0.3872,-16.235,4.028,-4.456,-124.585,53.410,-94.488
4241,-0.8276,-0.3999,-0.3853,3.662,6.287,0.183,-124.711,53.399,-94.576
4251,-0.8286,-0.4170,-0.3628,22.644,7.202,2.502,-124.645,53.410,-94.702
4261,-0.8145,-0.4771,-0.3257,32.654,6.592,1.892,-124.409,53.399,-94.812
4271,-0.7983,-0.5352,-0.2939,29.358,4.089,0.488,-124.107,53.377,-94.872
4281,-0.7939,-0.5737,-0.2822,16.052,1.160,-0.671,-123.876,53.339,-94.883
4291,-0.7876,-0.5937,-0.2900,-0.610,-0.610,-0.671,-123.794,53.306,-94.867
4301,-0.7930,-0.5791,-0.3101,-15.564,-1.282,1.160,-123.887,53.295,-94.861
4311,-0.8091,-0.4756,-0.3457,-23.010,-1.282,3.723,-124.151,53.339,-94.878
4321,-0.8315,-0.3452,-0.3682,-16.418,-0.244,7.263,-124.492,53.454,-94.944
4331,-0.8525,-0.2690,-0.3594,1.770,1.770,10.864,-124.761,53.619,-95.070
4341,-0.8530,-0.2993,-0.3428,20.996,4.089,10.132,-124.816,53.762,-95.224
4351,-0.8179,-0.4810,-0.3022,29.907,5.310,3.113,-124.579,53.773,-95.328
4361,-0.7754,-0.6294,-0.2681,17.456,2.808,-7.507,-124.261,53.641,-95.295
4371,-0.7456,-0.6938,-0.2798,-8.179,-2.014,-16.907,-124.069,53.427,-95.103
4382,-0.7446,-0.6729,-0.2983,-30.884,-5.005,-19.226,-124.074,53.218,-94.856
4391,-0.7646,-0.5024,-0.3481,-43.274,-5.432,-13.000,-124.354,53.124,-94.658
4401,-0.8047,-0.3579,-0.3926,-33.508,-2.136,-0.916,-124.788,53.163,-94.620
4411,-0.8462,-0.3213,-0.3911,-8.301,2.625,10.681,-125.140,53.295,-94.757
4421,-0.8560,-0.2485,-0.3926,17.151,6.042,12.939,-125.359,53.448,-94.966
4431,-0.8340,-0.4033,-0.3521,40.344,8.057,8.606,-125.173,53.509,-95.158
4441,-0.7837,-0.6133,-0.2881,43.457,6.714,-0.671,-124.711,53.421,-95.246
4451,-0.7402,-0.6782,-0.2725,21.240,-0.732,-11.169,-124.277,53.256,-95.131
4461,-0.7339,-0.6807,-0.2876,-5.371,-8.606,-14.709,-124.014,53.097,-94.872
4471,-0.7666,-0.6201,-0.3076,-24.048,-12.756,-10.193,-123.959,53.031,-94.598
4481,-0.8057,-0.5220,-0.3540,-29.541,-11.047,-2.258,-124.118,53.064,-94.427
4491,-0.8276,-0.4429,-0.3804,-18.677,-7.019,6.775,-124.343,53.179,-94.395
4501,-0.8433,-0.4360,-0.3779,-0.793,-2.869,13.733,-124.486,53.328,-94.482
4511,-0.8364,-0.4487,-0.3491,15.686,0.000,14.221,-124.470,53.470,-94.620
4521,-0.8232,-0.4526,-0.3145,25.208,0.122,11.841,-124.316,53.591,-94.730
4531,-0.8237,-0.5225,-0.2749,25.330,-0.732,10.498,-124.069,53.690,-94.823
4541,-0.8188,-0.5674,-0.2603,15.381,-1.770,6.775,-123.854,53.745,-94.861
4551,-0.8247,-0.5791,-0.2720,-1.221,-2.502,2.625,-123.772,53.767,-94.850
4561,-0.8315,-0.5303,-0.2891,-16.418,-1.648,0.183,-123.865,53.778,-94.828
4571,-0.8438,-0.4336,-0.3223,-21.729,0.183,0.610,-124.113,53.822,-94.839
4581,-0.8540,-0.3999,-0.3389,-13.733,3.601,2.930,-124.376,53.871,-94.916
4591,-0.8467,-0.3989,-0.3384,-1.282,6.226,3.052,-124.541,53.904,-95.032
4601,-0.8335,-0.3784,-0.3389,8.911,6.165,0.183,-124.596,53.921,-95.120
4611,-0.8184,-0.4541,-0.3350,16.235,4.456,-2.991,-124.481,53.888,-95.153
4621,-0.7812,-0.5859,-0.3105,16.785,1.587,-7.263,-124.211,53.778,-95.103
4631,-0.7593,-0.6294,-0.3135,5.615,-4.639,-9.644,-123.953,53.657,-94.949
4641,-0.7671,-0.6333,-0.3223,-5.920,-10.681,-7.080,-123.766,53.591,-94.735
4651,-0.7954,-0.5884,-0.3281,-12.146,-13.306,-0.977,-123.684,53.619,-94.537
4661,-0.8271,-0.4517,-0.3350,-10.376,-12.817,6.165,-123.723,53.762,-94.417
4671,-0.8589,-0.3760,-0.3296,2.136,-8.911,13.489,-123.777,53.981,-94.417
4681,-0.8721,-0.2983,-0.3179,17.151,-3.479,16.785,-123.821,54.234,-94.526
4691,-0.8569,-0.2842,-0.2925,30.029,0.793,15.930,-123.777,54.465,-94.691
4701,-0.8408,-0.4395,-0.2544,33.752,3.174,13.306,-123.547,54.602,-94.861
4711,-0.8154,-0.6040,-0.2246,18.372,2.197,5.066,-123.294,54.602,-94.944
4721,-0.7959,-0.6631,-0.2319,-11.780,-0.732,-7.324,-123.206,54.487,-94.861
4731,-0.7896,-0.6484,-0.2690,-40.466,-2.319,-16.663,-123.349,54.300,-94.669
4741,-0.7915,-0.5405,-0.3208,-55.420,-1.404,-19.409,-123.706,54.119,-94.466
4751,-0.8018,-0.3921,-0.3804,-47.729,1.709,-15.076,-124.189,54.003,-94.351
4761,-0.8247,-0.3765,-0.4141,-21.240,6.042,-5.859,-124.557,53.937,-94.378
4771,-0.8257,-0.4072,-0.4082,8.362,9.094,-1.770,-124.667,53.888,-94.488
4781,-0.7998,-0.4429,-0.3740,31.067,8.972,-3.174,-124.492,53.811,-94.581
4791,-0.7812,-0.5552,-0.3193,40.100,6.287,-3.235,-124.096,53.718,-94.642
4801,-0.7695,-0.6348,-0.2822,31.860,2.808,-2.930,-123.684,53.619,-94.653
4811,-0.7603,-0.6494,-0.2695,12.146,0.000,-2.197,-123.437,53.536,-94.631
4821,-0.7729,-0.5874,-0.2817,-9.460,-1.709,1.709,-123.448,53.525,-94.625
4831,-0.8149,-0.4883,-0.3188,-23.193,-2.014,8.179,-123.712,53.613,-94.669
4841,-0.8472,-0.4019,-0.3521,-20.935,-0.244,11.536,-124.080,53.751,-94.774
4851,-0.8677,-0.3208,-0.3667,-7.874,1.465,10.864,-124.404,53.904,-94.900
4861,-0.8706,-0.2896,-0.3584,9.766,2.502,7.202,-124.552,54.031,-95.004
4871,-0.8511,-0.3472,-0.3276,25.330,2.930,1.587,-124.437,54.091,-95.059
4882,-0.8179,-0.4902,-0.2832,28.198,1.892,-3.662,-124.107,54.064,-95.048
4891,-0.7930,-0.5933,-0.2632,11.963,-1.038,-8.362,-123.810,53.970,-94.955
4901,-0.7773,-0.6338,-0.2754,-12.146,-4.150,-10.986,-123.695,53.844,-94.796
4911,-0.7827,-0.6040,-0.3027,-32.959,-5.493,-9.277,-123.821,53.751,-94.631
4921,-0.8071,-0.4844,-0.3491,-41.809,-4.883,-5.127,-124.162,53.734,-94.510
4931,-0.8340,-0.3921,-0.3809,-30.701,-2.686,0.061,-124.536,53.778,-94.477
4941,-0.8652,-0.3423,-0.3867,-7.019,0.183,2.808,-124.766,53.855,-94.504
4951,-0.8550,-0.3521,-0.3745,18.799,3.174,0.061,-124.739,53.888,-94.548
4961,-0.8149,-0.4854,-0.3232,37.598,3.967,-5.432,-124.360,53.828,-94.554
4971,-0.7700,-0.6250,-0.2686,35.095,0.549,-9.644,-123.832,53.696,-94.466
4981,-0.7559,-0.6694,-0.2598,14.709,-4.700,-10.864,-123.426,53.558,-94.301
4991,-0.7559,-0.6772,-0.2632,-8.789,-7.629,-7.263,-123.250,53.465,-94.125
5001,-0.7744,-0.5962,-0.2876,-27.344,-7.263,-0.122,-123.365,53.465,-94.021
5011,-0.8125,-0.4150,-0.3340,-32.410,-5.371,7.385,-123.734,53.586,-94.016
5021,-0.8608,-0.3242,-0.3521,-18.677,-2.258,14.648,-124.140,53.795,-94.120
5031,-0.8755,-0.2690,-0.3442,2.380,1.831,14.954,-124.431,54.003,-94.285
5041,-0.8599,-0.2314,-0.3286,22.522,4.089,8.789,-124.525,54.163,-94.427
5051,-0.8486,-0.4248,-0.2822,36.621,5.371,1.953,-124.228,54.196,-94.526
5061,-0.8018,-0.6284,-0.2383,28.198,5.371,-9.521,-123.799,54.047,-94.510
5071,-0.7676,-0.6084,-0.2539,0.305,1.038,-20.142,-123.547,53.828,-94.334
5081,-0.7686,-0.5937,-0.2822,-24.048,-1.831,-18.860,-123.541,53.641,-94.131
5091,-0.7876,-0.5361,-0.3208,-37.720,-0.916,-12.085,-123.788,53.525,-94.005
5101,-0.8081,-0.4092,-0.3784,-35.889,0.427,-6.165,-124.189,53.492,-93.950
5111,-0.8325,-0.3921,-0.3970,-18.372,1.709,-0.793,-124.497,53.503,-93.966
5121,-0.8247,-0.4458,-0.3809,3.296,2.563,-2.441,-124.536,53.476,-93.983
5131,-0.8032,-0.5063,-0.3442,17.334,0.854,-8.728,-124.305,53.394,-93.911
5141,-0.7808,-0.6191,-0.3086,19.226,-1.221,-12.756,-123.926,53.245,-93.774
5151,-0.7583,-0.6802,-0.2861,10.193,-2.319,-14.282,-123.580,53.069,-93.609
5161,-0.7510,-0.6533,-0.2876,-4.395,-3.784,-11.230,-123.404,52.932,-93.450
5171,-0.7773,-0.5986,-0.3135,-14.954,-3.601,-2.319,-123.437,52.894,-93.378
5181,-0.8008,-0.5435,-0.3325,-15.686,-1.343,5.066,-123.596,52.927,-93.406
5191,-0.8179,-0.4277,-0.3384,-8.789,0.122,8.911,-123.794,53.036,-93.488
5201,-0.8472,-0.3369,-0.3350,4.395,1.343,12.451,-123.970,53.207,-93.625
5211,-0.8647,-0.3198,-0.3188,20.630,3.662,12.939,-124.008,53.383,-93.796
5221,-0.8452,-0.4243,-0.2861,31.128,5.920,8.606,-123.832,53.476,-93.961
5231,-0.8286,-0.5283,-0.2598,24.048,5.188,1.648,-123.585,53.476,-94.048
5241,-0.8105,-0.5933,-0.2695,3.357,2.930,-6.348,-123.448,53.383,-94.026
5251,-0.7939,-0.6299,-0.2886,-18.372,1.282,-11.780,-123.470,53.234,-93.939
5261,-0.7900,-0.5913,-0.3237,-35.095,0.183,-12.451,-123.679,53.091,-93.823
5271,-0.7969,-0.5107,-0.3760,-38.757,0.183,-8.728,-124.030,53.004,-93.746
5281,-0.8042,-0.4771,-0.4028,-26.123,1.648,-3.113,-124.343,52.960,-93.741
5291,-0.8101,-0.4521,-0.4043,-6.226,2.380,0.977,-124.514,52.960,-93.785
5301,-0.8213,-0.4375,-0.3896,13.611,1.831,1.953,-124.486,52.982,-93.829
5311,-0.8188,-0.4990,-0.3472,29.297,1.770,1.099,-124.222,52.982,-93.862
5321,-0.8003,-0.5684,-0.2993,31.128,1.221,0.122,-123.865,52.960,-93.878
5331,-0.7891,-0.5947,-0.2847,18.982,-0.732,-0.183,-123.585,52.932,-93.867
5341,-0.7842,-0.6328,-0.2891,1.770,-1.953,1.038,-123.464,52.910,-93.851
5351,-0.7920,-0.5908,-0.3125,-14.343,-2.197,2.625,-123.547,52.910,-93.845
5361,-0.8032,-0.5010,-0.3447,-20.630,-2.197,4.761,-123.772,52.965,-93.856
5371,-0.8242,-0.4194,-0.3647,-12.512,-1.282,7.263,-124.003,53.058,-93.906
5382,-0.8428,-0.3647,-0.3618,3.784,-0.366,8.240,-124.129,53.185,-93.977
5391,-0.8457,-0.3828,-0.3413,20.264,0.977,6.104,-124.063,53.289,-94.048
5401,-0.8110,-0.4624,-0.2979,28.870,1.038,1.648,-123.788,53.322,-94.076
5411,-0.7979,-0.5156,-0.2734,22.339,-1.526,-0.671,-123.486,53.328,-94.048
5421,-0.7905,-0.5718,-0.2710,7.629,-3.174,-1.770,-123.283,53.311,-93.988
5431,-0.7827,-0.5850,-0.2808,-8.667,-3.296,-1.404,-123.245,53.289,-93.933
5441,-0.7930,-0.5649,-0.3052,-22.034,-2.502,1.343,-123.393,53.289,-93.906
5451,-0.8086,-0.4507,-0.3408,-25.879,-1.099,3.357,-123.701,53.344,-93.922
5461,-0.8301,-0.3521,-0.3545,-14.893,0.732,6.042,-124.014,53.443,-93.988
5471,-0.8486,-0.2656,-0.3384,4.333,2.441,8.423,-124.239,53.597,-94.103
5481,-0.8550,-0.2593,-0.3237,22.705,3.052,8.728,-124.288,53.756,-94.230
5491,-0.8403,-0.4873,-0.2808,32.043,3.967,4.517,-124.003,53.795,-94.329
5501,-0.7900,-0.6748,-0.2588,17.822,2.930,-8.545,-123.668,53.646,-94.285
5511,-0.7427,-0.6978,-0.2881,-10.498,-0.977,-22.400,-123.481,53.377,-94.065
5521,-0.7339,-0.6538,-0.3208,-32.715,-4.028,-24.597,-123.503,53.113,-93.779
5531,-0.7559,-0.5601,-0.3677,-40.710,-4.395,-16.968,-123.734,52.954,-93.565
5541,-0.7852,-0.4683,-0.4048,-28.809,-2.014,-6.165,-124.025,52.899,-93.477
5551,-0.8208,-0.4302,-0.4102,-6.714,0.244,4.089,-124.217,52.943,-93.521
5561,-0.8315,-0.4009,-0.3872,15.259,2.258,7.812,-124.250,53.026,-93.625
5571,-0.8237,-0.4238,-0.3525,32.654,2.563,6.897,-124.058,53.102,-93.724
5581,-0.8101,-0.5190,-0.2944,39.490,2.136,4.822,-123.679,53.135,-93.796
5591,-0.7910,-0.5991,-0.2627,29.907,-0.305,-0.183,-123.283,53.108,-93.790
5601,-0.7759,-0.6309,-0.2500,8.606,-3.662,-3.906,-123.008,53.053,-93.708
5611,-0.7817,-0.6255,-0.2646,-15.381,-6.531,-2.991,-122.970,53.026,-93.587
5621,-0.8018,-0.5811,-0.3047,-32.043,-6.836,0.671,-123.162,53.042,-93.499
5631,-0.8188,-0.4893,-0.3442,-33.569,-4.578,2.441,-123.481,53.097,-93.455
5641,-0.8379,-0.3823,-0.3691,-20.630,-1.465,4.700,-123.810,53.190,-93.477
5651,-0.8618,-0.3345,-0.3706,2.258,1.709,6.226,-123.992,53.300,-93.560
5661,-0.8477,-0.3564,-0.3442,26.245,4.578,4.211,-123.915,53.372,-93.664
5671,-0.8188,-0.4600,-0.2939,39.246,4.456,1.404,-123.569,53.388,-93.741
5681,-0.8032,-0.5728,-0.2510,31.067,0.977,-0.183,-123.173,53.366,-93.752
5691,-0.7886,-0.6216,-0.2476,8.301,-2.930,-2.319,-122.926,53.328,-93.686
5701,-0.7837,-0.6245,-0.2642,-16.113,-5.005,-2.380,-122.915,53.295,-93.598
5711,-0.8018,-0.5469,-0.3037,-33.630,-5.188,0.732,-123.157,53.317,-93.532
5721,-0.8296,-0.4375,-0.3584,-34.912,-3.784,3.601,-123.547,53.388,-93.510
5731,-0.8535,-0.3838,-0.3813,-19.043,-1.099,5.432,-123.876,53.481,-93.543
5741,-0.8579,-0.3833,-0.3853,3.418,1.221,2.686,-123.986,53.542,-93.587
5751,-0.8262,-0.4136,-0.3594,23.865,1.953,-3.906,-123.816,53.525,-93.576
5761,-0.7979,-0.5063,-0.3091,34.668,0.061,-7.568,-123.393,53.465,-93.510
5771,-0.7754,-0.5869,-0.2744,29.663,-2.686,-7.874,-122.926,53.377,-93.395
5781,-0.7627,-0.6172,-0.2666,13.672,-5.371,-6.104,-122.591,53.311,-93.268
5791,-0.7661,-0.6045,-0.2759,-4.517,-6.775,-1.953,-122.465,53.289,-93.153
5801,-0.7808,-0.5381,-0.2944,-17.944,-7.080,3.418,-122.552,53.339,-93.082
5811,-0.8130,-0.4712,-0.3223,-20.447,-6.714,7.812,-122.750,53.454,-93.060
5821,-0.8242,-0.4312,-0.3262,-12.085,-5.066,8.545,-122.921,53.586,-93.065
5831,-0.8252,-0.4219,-0.3232,-0.488,-4.150,5.615,-122.964,53.690,-93.060
5841,-0.8149,-0.4409,-0.3081,9.949,-3.784,0.854,-122.849,53.751,-93.010
5851,-0.7949,-0.4771,-0.2915,15.320,-4.211,-2.869,-122.613,53.762,-92.928
5861,-0.7783,-0.5493,-0.2759,13.367,-5.737,-2.808,-122.338,53.745,-92.818
5871,-0.7861,-0.5654,-0.2837,4.150,-8.362,-0.061,-122.141,53.762,-92.697
5882,-0.8032,-0.5566,-0.2949,-6.042,-9.888,4.089,-122.075,53.833,-92.593
5891,-0.8228,-0.5088,-0.3125,-11.902,-9.644,8.423,-122.141,53.954,-92.532
5901,-0.8442,-0.4561,-0.3374,-9.827,-8.118,10.681,-122.261,54.108,-92.510
5911,-0.8540,-0.4731,-0.3428,0.183,-5.554,8.850,-122.300,54.229,-92.510
5921,-0.8364,-0.4961,-0.3276,9.888,-3.113,2.625,-122.195,54.272,-92.488
5931,-0.8218,-0.4619,-0.3164,14.099,-2.075,-2.197,-122.036,54.278,-92.439
5941,-0.8267,-0.4751,-0.3022,15.442,-0.671,-2.563,-121.860,54.272,-92.406
5951,-0.8135,-0.5107,-0.2803,13.123,1.221,-2.991,-121.696,54.245,-92.401
5961,-0.8091,-0.5029,-0.2764,5.249,1.404,-3.235,-121.608,54.212,-92.390
5971,-0.8149,-0.5195,-0.2827,-2.869,1.587,-2.625,-121.602,54.179,-92.390
5981,-0.8105,-0.5459,-0.2847,-8.240,2.502,-3.235,-121.652,54.130,-92.395
5991,-0.7979,-0.5142,-0.3032,-11.108,2.502,-4.089,-121.750,54.069,-92.395
6001,-0.7979,-0.4697,-0.3145,-8.179,2.197,-2.075,-121.860,54.047,-92.411
6011,-0.8130,-0.4404,-0.3125,-0.305,1.770,1.282,-121.926,54.075,-92.444
6021,-0.8296,-0.4238,-0.3076,7.690,1.465,2.563,-121.926,54.124,-92.488
6031,-0.8320,-0.4429,-0.2925,13.000,1.770,0.854,-121.844,54.157,-92.521
6041,-0.8198,-0.4927,-0.2769,12.817,1.526,-2.625,-121.690,54.141,-92.521
6051,-0.8057,-0.5713,-0.2671,5.859,0.793,-5.798,-121.531,54.064,-92.483
6061,-0.7900,-0.5879,-0.2803,-6.287,-0.305,-7.568,-121.476,53.965,-92.411
6071,-0.7920,-0.5620,-0.2979,-16.846,-1.770,-5.432,-121.547,53.904,-92.335
6081,-0.8071,-0.5562,-0.3247,-20.081,-1.343,-0.488,-121.718,53.882,-92.313
6091,-0.8120,-0.5225,-0.3408,-16.052,0.305,1.709,-121.904,53.877,-92.335
6101,-0.8213,-0.4839,-0.3491,-6.409,1.465,2.502,-122.042,53.893,-92.373
6111,-0.8291,-0.5034,-0.3354,6.348,2.441,2.319,-122.042,53.899,-92.433
6121,-0.8149,-0.5132,-0.3174,15.625,2.258,-0.183,-121.904,53.882,-92.461
6131,-0.8057,-0.5024,-0.2920,18.677,0.793,-0.854,-121.707,53.877,-92.466
6141,-0.8091,-0.5156,-0.2690,15.625,-1.221,1.770,-121.509,53.899,-92.466
6151,-0.8198,-0.5181,-0.2578,6.714,-3.235,5.005,-121.388,53.970,-92.461
6161,-0.8242,-0.5415,-0.2637,-4.578,-3.906,6.409,-121.382,54.042,-92.461
6171,-0.8159,-0.5542,-0.2773,-13.733,-3.052,5.005,-121.470,54.086,-92.461
6181,-0.8164,-0.4941,-0.3086,-17.944,-2.197,3.357,-121.652,54.130,-92.461
6191,-0.8306,-0.4497,-0.3276,-11.353,-0.122,3.235,-121.827,54.179,-92.488
6201,-0.8384,-0.4160,-0.3345,3.296,2.625,2.502,-121.915,54.223,-92.549
6211,-0.8350,-0.3745,-0.3208,18.982,3.967,0.854,-121.866,54.261,-92.615
6221,-0.8271,-0.4189,-0.2817,30.640,3.967,0.366,-121.630,54.283,-92.675
6231,-0.8174,-0.5020,-0.2476,29.053,1.770,0.244,-121.311,54.294,-92.703
6241,-0.8013,-0.5742,-0.2388,13.611,-1.282,-1.404,-121.064,54.267,-92.670
6251,-0.7827,-0.6323,-0.2490,-7.263,-2.808,-3.479,-120.987,54.201,-92.598
6261,-0.7783,-0.6392,-0.2749,-26.367,-3.540,-3.601,-121.102,54.124,-92.516
6271,-0.7866,-0.5522,-0.3184,-36.011,-2.686,-2.136,-121.399,54.091,-92.455
6281,-0.8032,-0.4175,-0.3481,-28.870,-0.549,1.465,-121.772,54.124,-92.461
6291,-0.8384,-0.3389,-0.3486,-7.324,1.587,7.996,-122.064,54.240,-92.560
6301,-0.8535,-0.3140,-0.3267,17.334,3.967,11.414,-122.162,54.393,-92.719
6311,-0.8369,-0.3892,-0.2925,33.447,4.761,9.277,-122.003,54.503,-92.873
6321,-0.8184,-0.5259,-0.2397,33.508,3.113,3.601,-121.657,54.520,-92.950
6331,-0.7925,-0.5996,-0.2295,14.832,-0.610,-4.883,-121.360,54.443,-92.900
6341,-0.7793,-0.6060,-0.2534,-9.216,-3.723,-10.132,-121.251,54.333,-92.752
6351,-0.7935,-0.5820,-0.2808,-26.123,-4.822,-9.705,-121.328,54.240,-92.593
6361,-0.8120,-0.4624,-0.3345,-31.860,-3.479,-6.042,-121.602,54.212,-92.488
6371,-0.8433,-0.3862,-0.3647,-20.996,-0.977,0.488,-121.921,54.261,-92.483
6382,-0.8555,-0.4199,-0.3584,-0.793,2.075,3.479,-122.064,54.305,-92.543
6391,-0.8237,-0.4409,-0.3384,15.137,3.418,-0.916,-122.003,54.300,-92.582
6401,-0.7666,-0.5635,-0.3047,22.766,1.099,-5.310,-121.712,54.207,-92.554
6411,-0.7212,-0.7393,-0.2896,16.541,-2.136,-6.897,-121.371,54.042,-92.461
6421,-0.6909,-0.7979,-0.3159,-0.244,-6.592,-7.874,-121.146,53.855,-92.291
6431,-0.7368,-0.6787,-0.3286,-13.184,-10.437,-1.160,-121.091,53.806,-92.131
6441,-0.8276,-0.4458,-0.3623,-11.292,-9.338,11.719,-121.256,53.965,-92.098
6451,-0.9106,-0.3149,-0.3672,8.301,-2.563,25.696,-121.509,54.278,-92.285
6461,-0.9473,-0.2139,-0.3521,33.081,5.981,31.067,-121.745,54.630,-92.653
6471,-0.9106,-0.1934,-0.2812,56.030,11.536,28.137,-121.772,54.954,-93.076
6481,-0.8857,-0.3140,-0.1958,62.012,11.230,25.757,-121.487,55.239,-93.483
6491,-0.8618,-0.4946,-0.1538,42.236,7.202,16.541,-121.135,55.377,-93.741
6501,-0.8252,-0.6157,-0.1323,3.540,0.854,-1.465,-120.910,55.333,-93.741
6511,-0.8188,-0.6196,-0.1602,-42.786,-4.822,-18.677,-120.976,55.168,-93.499
6521,-0.8374,-0.5601,-0.2300,-78.552,-5.249,-30.090,-121.382,54.926,-93.148
6531,-0.8413,-0.4844,-0.3154,-88.745,1.343,-36.560,-122.025,54.619,-92.834
6541,-0.8301,-0.4004,-0.3965,-72.449,9.827,-36.560,-122.712,54.272,-92.648
6551,-0.8071,-0.3931,-0.4429,-39.429,15.686,-30.884,-123.212,53.926,-92.587
6561,-0.7676,-0.4546,-0.4341,-2.625,16.846,-22.705,-123.365,53.613,-92.615
6571,-0.7412,-0.5537,-0.3750,26.123,11.719,-14.221,-123.140,53.377,-92.648
6581,-0.7549,-0.6113,-0.3188,35.034,3.845,-6.348,-122.734,53.245,-92.642
6591,-0.7637,-0.6313,-0.2788,30.518,-1.526,-2.563,-122.311,53.179,-92.598
6601,-0.7744,-0.6299,-0.2563,19.165,-3.845,-0.305,-121.970,53.152,-92.543
6611,-0.7861,-0.5757,-0.2583,5.310,-3.418,1.526,-121.816,53.163,-92.505
6621,-0.8120,-0.4834,-0.2842,-3.906,-2.502,3.479,-121.833,53.229,-92.499
6631,-0.8311,-0.4082,-0.3003,-1.404,-1.099,4.333,-121.910,53.322,-92.527
6641,-0.8403,-0.3569,-0.3052,7.141,0.061,4.517,-121.959,53.438,-92.565
6651,-0.8364,-0.3574,-0.2822,16.296,0.244,4.333,-121.893,53.553,-92.609
6661,-0.8340,-0.4268,-0.2598,20.020,-0.427,3.418,-121.712,53.641,-92.631
6671,-0.8193,-0.5352,-0.2373,13.062,-1.160,0.183,-121.492,53.657,-92.615
6681,-0.8027,-0.5581,-0.2412,-4.333,-2.502,-4.944,-121.388,53.619,-92.538
6691,-0.8115,-0.5508,-0.2754,-20.874,-3.174,-6.531,-121.465,53.569,-92.433
6701,-0.8193,-0.5571,-0.3091,-28.137,-1.099,-6.470,-121.663,53.509,-92.362
6711,-0.8071,-0.5063,-0.3564,-25.208,1.343,-7.996,-121.904,53.427,-92.313
6721,-0.7935,-0.4829,-0.3652,-12.695,2.258,-6.470,-122.064,53.350,-92.285
6731,-0.7974,-0.5083,-0.3560,1.953,1.282,-3.296,-122.064,53.306,-92.274
6741,-0.7959,-0.5186,-0.3296,11.536,-1.160,-2.014,-121.926,53.284,-92.241
6751,-0.7998,-0.5361,-0.3062,14.282,-3.906,-1.038,-121.712,53.284,-92.175
6761,-0.8096,-0.5615,-0.2852,11.902,-5.310,-0.916,-121.481,53.295,-92.093
6771,-0.8188,-0.5566,-0.2788,6.042,-5.310,-2.258,-121.295,53.295,-91.994
6781,-0.8271,-0.5571,-0.2871,0.977,-3.784,-2.441,-121.185,53.289,-91.923
6791,-0.8257,-0.5371,-0.2930,-0.854,-1.343,-2.014,-121.141,53.284,-91.884
6801,-0.8247,-0.4541,-0.3096,0.366,0.549,0.061,-121.174,53.311,-91.890
6811,-0.8398,-0.4219,-0.3130,6.653,2.014,3.540,-121.207,53.377,-91.950
6821,-0.8208,-0.4673,-0.3027,13.611,3.418,3.784,-121.157,53.416,-92.032
6831,-0.7900,-0.4976,-0.2827,12.817,1.648,1.160,-121.042,53.427,-92.065
6841,-0.7891,-0.5552,-0.2744,2.808,-2.441,0.671,-120.943,53.427,-92.038
6851,-0.7915,-0.6187,-0.2729,-11.047,-5.127,0.061,-120.921,53.416,-91.967
6861,-0.7930,-0.6313,-0.2876,-24.658,-6.348,-1.709,-121.020,53.388,-91.857
6871,-0.8027,-0.5757,-0.3115,-31.311,-5.920,-1.770,-121.223,53.377,-91.758
6882,-0.8174,-0.4854,-0.3364,-25.391,-3.174,0.549,-121.476,53.405,-91.719
6891,-0.8389,-0.4121,-0.3481,-8.240,0.671,4.883,-121.685,53.481,-91.769
6901,-0.8516,-0.3613,-0.3398,13.489,4.700,6.897,-121.772,53.580,-91.895
6911,-0.8306,-0.3955,-0.3105,31.555,7.385,5.310,-121.641,53.635,-92.049
6921,-0.8047,-0.4775,-0.2710,36.804,6.531,3.113,-121.355,53.652,-92.170
6931,-0.7944,-0.6113,-0.2461,25.452,2.930,0.366,-121.047,53.608,-92.219
6941,-0.7725,-0.6768,-0.2524,1.892,-0.793,-5.676,-120.872,53.492,-92.159
6951,-0.7681,-0.6973,-0.2773,-21.301,-3.845,-9.399,-120.883,53.355,-92.021
6961,-0.7832,-0.6382,-0.3154,-35.339,-4.333,-9.216,-121.075,53.245,-91.879
6971,-0.7935,-0.4829,-0.3599,-33.325,-2.502,-5.493,-121.393,53.207,-91.796
6981,-0.8281,-0.3740,-0.3726,-14.160,0.366,4.822,-121.707,53.289,-91.840
6991,-0.8521,-0.3174,-0.3521,11.963,3.296,13.733,-121.882,53.465,-92.010
7001,-0.8516,-0.2944,-0.3169,33.813,4.822,16.479,-121.871,53.674,-92.225
7011,-0.8408,-0.3843,-0.2617,46.570,4.883,15.137,-121.597,53.849,-92.428
7021,-0.8276,-0.5322,-0.2075,41.504,3.540,8.972,-121.190,53.921,-92.560
7031,-0.8003,-0.6182,-0.1938,17.456,0.366,-1.465,-120.872,53.877,-92.554
7041,-0.7861,-0.6504,-0.2119,-13.306,-2.441,-9.094,-120.784,53.762,-92.439
7051,-0.7910,-0.6206,-0.2524,-38.452,-3.479,-11.536,-120.959,53.641,-92.291
7061,-0.7974,-0.5308,-0.3257,-48.767,-1.099,-11.841,-121.349,53.531,-92.170
7071,-0.7959,-0.4551,-0.3760,-38.025,2.441,-9.766,-121.772,53.438,-92.120
7081,-0.7944,-0.4409,-0.3965,-14.648,4.822,-4.944,-122.036,53.366,-92.142
7091,-0.7983,-0.4507,-0.3784,9.827,4.150,-0.732,-122.064,53.344,-92.197
7101,-0.7847,-0.4922,-0.3315,26.917,1.648,1.953,-121.844,53.344,-92.236
7111,-0.7930,-0.5664,-0.2886,30.090,-1.038,5.371,-121.525,53.377,-92.269
7121,-0.7881,-0.6318,-0.2607,20.813,-2.014,4.578,-121.240,53.383,-92.280
7131,-0.7847,-0.6079,-0.2642,4.517,-2.441,2.441,-121.102,53.377,-92.269
7141,-0.7910,-0.5269,-0.2871,-8.423,-1.709,3.113,-121.163,53.410,-92.269
7151,-0.8242,-0.3945,-0.3159,-10.376,-0.427,6.775,-121.382,53.520,-92.324
7161,-0.8574,-0.3394,-0.3267,-0.793,1.770,10.132,-121.608,53.674,-92.439
7171,-0.8613,-0.3105,-0.3276,11.108,4.028,8.179,-121.750,53.811,-92.565
7181,-0.8374,-0.3560,-0.3013,22.156,4.272,2.441,-121.685,53.877,-92.653
7191,-0.8203,-0.4976,-0.2642,23.010,2.319,-2.808,-121.426,53.860,-92.659
7201,-0.7827,-0.6807,-0.2632,-12.695,-2.930,-17.273,-121.295,53.657,-92.466
7211,-0.7812,-0.6519,-0.2920,-31.006,-3.906,-19.409,-121.349,53.454,-92.236
7222,-0.7876,-0.5562,-0.3428,-37.170,-2.686,-16.052,-121.575,53.300,-92.060
7231,-0.7935,-0.4741,-0.3726,-25.146,0.122,-7.935,-121.838,53.229,-91.989
7242,-0.8086,-0.4658,-0.3691,-3.174,2.136,0.854,-121.965,53.229,-92.027
7251,-0.8086,-0.4800,-0.3398,16.052,1.831,4.639,-121.893,53.267,-92.093
7262,-0.8042,-0.4849,-0.2998,26.917,-0.183,5.188,-121.657,53.328,-92.137
7271,-0.8101,-0.5288,-0.2529,28.503,-1.709,6.287,-121.339,53.394,-92.170
7282,-0.8140,-0.5732,-0.2305,21.118,-1.709,5.127,-121.053,53.443,-92.192
7291,-0.8164,-0.5908,-0.2251,7.019,-1.160,2.502,-120.883,53.459,-92.197
7302,-0.8076,-0.5806,-0.2466,-8.545,0.122,0.916,-120.899,53.448,-92.203
7312,-0.8032,-0.5454,-0.2769,-18.555,1.160,1.465,-121.064,53.448,-92.236
7321,-0.7998,-0.4883,-0.2983,-18.433,2.014,3.174,-121.295,53.476,-92.291
7331,-0.8096,-0.3384,-0.3076,-10.559,1.404,6.531,-121.569,53.597,-92.368
7341,-0.8398,-0.2324,-0.2974,4.150,0.427,12.268,-121.827,53.817,-92.483
7351,-0.8589,-0.2319,-0.2798,20.142,1.709,15.991,-121.943,54.080,-92.648
7361,-0.8486,-0.4561,-0.2354,27.344,3.845,11.047,-121.750,54.196,-92.807
7371,-0.8169,-0.6279,-0.2148,12.939,3.479,-4.700,-121.503,54.108,-92.813
7382,-0.7871,-0.6694,-0.2495,-13.977,0.732,-22.278,-121.377,53.855,-92.626
7391,-0.7734,-0.6440,-0.2856,-33.447,0.183,-30.945,-121.421,53.531,-92.357
7401,-0.7627,-0.5264,-0.3437,-39.307,1.770,-28.809,-121.646,53.245,-92.126
7411,-0.7808,-0.4551,-0.3931,-27.100,4.395,-17.456,-121.932,53.069,-92.038
7422,-0.8057,-0.4600,-0.3979,-4.761,5.859,-5.310,-122.097,52.993,-92.071
7432,-0.8062,-0.5093,-0.3755,13.977,5.371,-0.916,-122.058,52.943,-92.142
7442,-0.7861,-0.5713,-0.3433,23.132,2.930,-2.502,-121.833,52.877,-92.159
7452,-0.7783,-0.6089,-0.3042,21.179,-0.244,-4.089,-121.536,52.800,-92.120
7461,-0.7769,-0.6328,-0.2930,11.963,-1.709,-4.700,-121.300,52.723,-92.054
7471,-0.7773,-0.6255,-0.2983,1.038,-1.160,-3.967,-121.196,52.652,-92.005
7482,-0.7891,-0.5493,-0.3198,-7.874,-0.671,-1.770,-121.240,52.625,-91.983
7492,-0.8135,-0.4800,-0.3452,-7.263,0.488,0.916,-121.371,52.646,-91.994
7502,-0.8330,-0.4224,-0.3408,2.258,1.709,2.563,-121.459,52.701,-92.043
7512,-0.8403,-0.4185,-0.3311,13.794,2.930,1.953,-121.437,52.751,-92.098
7522,-0.8281,-0.4805,-0.3022,20.508,3.296,-1.038,-121.273,52.751,-92.137
7532,-0.8013,-0.5581,-0.2793,15.930,1.892,-4.395,-121.058,52.701,-92.126
7541,-0.7861,-0.5977,-0.2793,2.380,-0.488,-6.836,-120.921,52.619,-92.060
7552,-0.7812,-0.5908,-0.2959,-11.719,-2.869,-6.287,-120.921,52.553,-91.967
7562,-0.7964,-0.5723,-0.3135,-20.874,-3.784,-2.563,-121.047,52.531,-91.890
7572,-0.8105,-0.5449,-0.3486,-22.034,-2.930,0.549,-121.251,52.537,-91.857
7582,-0.8115,-0.5342,-0.3638,-14.709,-0.977,1.587,-121.426,52.548,-91.857
7592,-0.8013,-0.5322,-0.3618,-3.662,0.549,1.282,-121.509,52.542,-91.873
7602,-0.7939,-0.5669,-0.3447,7.080,0.732,0.977,-121.448,52.520,-91.895
7612,-0.7944,-0.5381,-0.3262,11.902,-0.610,1.343,-121.333,52.526,-91.895
7622,-0.8086,-0.4907,-0.3062,12.207,-2.014,4.333,-121.223,52.592,-91.906
7632,-0.8242,-0.4619,-0.2939,10.681,-2.502,7.874,-121.157,52.712,-91.934
7642,-0.8320,-0.4600,-0.2861,7.568,-2.625,8.789,-121.119,52.839,-91.972
7652,-0.8140,-0.5000,-0.2842,3.540,-3.235,4.944,-121.064,52.921,-91.972
7662,-0.7832,-0.5586,-0.2808,-2.075,-5.188,-1.526,-120.976,52.916,-91.884
7672,-0.7686,-0.5913,-0.2886,-9.460,-7.874,-5.798,-120.888,52.872,-91.725
7682,-0.7637,-0.5801,-0.2949,-14.526,-9.705,-6.714,-120.839,52.833,-91.527
7692,-0.7710,-0.5396,-0.2998,-14.404,-9.644,-4.089,-120.828,52.833,-91.357
7702,-0.7886,-0.4829,-0.2939,-8.118,-8.362,1.099,-120.828,52.899,-91.247
7712,-0.8105,-0.4326,-0.2812,2.319,-6.226,6.165,-120.800,53.031,-91.208
7721,-0.8306,-0.3789,-0.2686,12.268,-3.357,8.240,-120.740,53.196,-91.230
7732,-0.8232,-0.4165,-0.2441,20.386,-0.061,7.202,-120.580,53.322,-91.291
7742,-0.8062,-0.5215,-0.2178,19.836,1.526,3.662,-120.350,53.361,-91.346
7752,-0.7822,-0.5791,-0.2139,6.165,0.671,-2.258,-120.179,53.322,-91.335
7762,-0.7700,-0.5957,-0.2388,-11.841,-0.122,-6.409,-120.168,53.234,-91.280
7772,-0.7744,-0.5972,-0.2651,-24.597,0.916,-6.653,-120.317,53.141,-91.236
7782,-0.7876,-0.5200,-0.3130,-28.259,3.235,-5.676,-120.602,53.069,-91.236
7791,-0.8076,-0.4531,-0.3477,-18.616,6.165,-2.747,-120.910,53.031,-91.302
7802,-0.8267,-0.4521,-0.3521,0.122,8.911,0.183,-121.080,53.009,-91.428
7812,-0.8159,-0.5112,-0.3296,17.212,9.888,-1.160,-121.031,52.954,-91.560
7822,-0.7969,-0.5586,-0.3071,23.437,7.324,-4.028,-120.828,52.866,-91.631
7832,-0.7871,-0.5864,-0.2822,18.494,3.845,-4.089,-120.613,52.789,-91.653
7842,-0.7920,-0.5718,-0.2798,7.507,1.221,-1.160,-120.498,52.756,-91.659
7852,-0.8101,-0.5337,-0.2900,-3.418,0.000,3.784,-120.536,52.789,-91.692
7862,-0.8262,-0.5103,-0.3076,-9.888,0.000,5.920,-120.679,52.855,-91.741
7872,-0.8242,-0.4995,-0.3252,-9.705,0.122,3.357,-120.822,52.899,-91.769
7882,-0.8101,-0.5146,-0.3325,-3.845,0.366,-0.977,-120.877,52.888,-91.769
7892,-0.7905,-0.5425,-0.3252,3.906,0.427,-3.906,-120.817,52.839,-91.741
7902,-0.7788,-0.5806,-0.3130,8.423,-0.061,-3.723,-120.685,52.773,-91.708
7912,-0.7773,-0.6104,-0.2959,7.629,-0.549,-1.099,-120.547,52.729,-91.692
7922,-0.7866,-0.5547,-0.3013,2.075,-1.099,3.174,-120.515,52.745,-91.703
7932,-0.8125,-0.4951,-0.3003,-0.916,-0.916,8.850,-120.580,52.844,-91.763
7942,-0.8281,-0.4336,-0.3047,0.000,-0.122,12.268,-120.707,52.998,-91.862
7952,-0.8320,-0.3984,-0.3076,3.784,0.916,12.573,-120.833,53.157,-91.983
7962,-0.8228,-0.4204,-0.2944,7.629,0.916,10.193,-120.877,53.289,-92.082
7972,-0.8066,-0.5283,-0.2734,5.920,-0.610,5.615,-120.817,53.344,-92.126
7982,-0.7866,-0.5972,-0.2681,-5.249,-3.418,-1.221,-120.751,53.317,-92.065
7992,-0.7847,-0.5952,-0.2900,-19.958,-5.920,-5.981,-120.795,53.262,-91.928
8002,-0.7939,-0.5601,-0.3145,-26.367,-5.188,-7.141,-120.932,53.207,-91.791
8012,-0.8022,-0.4868,-0.3433,-21.057,-1.953,-5.676,-121.124,53.168,-91.714
8022,-0.8237,-0.4077,-0.3657,-3.967,2.625,-1.282,-121.289,53.179,-91.741
8031,-0.8164,-0.4180,-0.3413,19.043,7.629,4.150,-121.295,53.207,-91.884
8041,-0.8125,-0.4595,-0.2983,34.546,10.437,9.399,-121.157,53.262,-92.115
8051,-0.8066,-0.5137,-0.2812,36.621,10.925,13.367,-120.981,53.328,-92.390
8062,-0.7983,-0.6011,-0.2549,28.076,9.949,13.062,-120.828,53.361,-92.642
8072,-0.8027,-0.6270,-0.2681,8.972,6.226,8.362,-120.789,53.361,-92.807
8082,-0.8032,-0.5933,-0.2993,-10.254,2.319,3.357,-120.899,53.350,-92.867
8092,-0.8223,-0.5605,-0.3354,-19.287,0.122,1.648,-121.108,53.344,-92.884
8102,-0.8164,-0.4893,-0.3486,-14.282,-1.465,0.977,-121.278,53.366,-92.873
8112,-0.8335,-0.4351,-0.3418,-3.296,-2.747,3.906,-121.377,53.443,-92.867
8122,-0.8496,-0.4297,-0.3218,9.277,-4.456,6.104,-121.333,53.558,-92.856
8132,-0.8354,-0.4658,-0.2959,18.005,-5.920,3.418,-121.119,53.652,-92.802
8142,-0.7964,-0.5264,-0.2563,18.799,-7.568,-1.892,-120.784,53.674,-92.675
8152,-0.7744,-0.5547,-0.2397,8.911,-10.132,-4.517,-120.471,53.668,-92.488
8162,-0.7749,-0.5537,-0.2490,-4.517,-11.780,-5.066,-120.284,53.668,-92.274
8172,-0.7832,-0.5410,-0.2637,-13.428,-11.047,-5.005,-120.212,53.668,-92.071
8182,-0.7910,-0.5122,-0.2866,-15.198,-8.972,-5.798,-120.207,53.663,-91.890
8192,-0.8032,-0.4995,-0.2979,-9.827,-6.409,-6.897,-120.190,53.641,-91.736
8202,-0.8042,-0.4761,-0.2998,0.000,-3.357,-8.179,-120.114,53.602,-91.620
8212,-0.8052,-0.4590,-0.2920,10.742,-0.305,-7.751,-119.976,53.558,-91.549
8222,-0.8042,-0.4941,-0.2715,19.287,2.563,-5.554,-119.767,53.514,-91.538
8232,-0.7949,-0.5361,-0.2568,19.226,3.601,-3.540,-119.553,53.459,-91.566
8242,-0.7944,-0.5542,-0.2524,9.644,2.991,-1.404,-119.432,53.427,-91.593
8252,-0.7930,-0.5571,-0.2681,-2.991,1.892,0.854,-119.449,53.410,-91.631
8262,-0.7954,-0.5444,-0.2847,-12.878,1.160,3.418,-119.597,53.421,-91.675
8272,-0.8076,-0.5078,-0.3101,-18.372,0.427,5.432,-119.839,53.470,-91.725
8282,-0.8169,-0.4858,-0.3208,-16.663,0.061,5.554,-120.075,53.525,-91.774
8292,-0.8257,-0.4678,-0.3252,-10.864,-0.183,4.028,-120.256,53.580,-91.807
8302,-0.8281,-0.4731,-0.3154,-3.296,-0.366,1.587,-120.328,53.619,-91.813
8312,-0.8223,-0.5083,-0.2979,2.258,-0.122,-0.610,-120.300,53.619,-91.807
8322,-0.8105,-0.5005,-0.2925,2.686,-0.488,-2.014,-120.256,53.613,-91.780
8332,-0.8140,-0.4980,-0.2852,1.099,-1.282,-0.671,-120.218,53.624,-91.758
8342,-0.8252,-0.5088,-0.2871,-1.953,-1.282,1.465,-120.229,53.657,-91.752
8352,-0.8330,-0.4678,-0.3081,-5.920,-1.343,1.770,-120.311,53.701,-91.747
8362,-0.8555,-0.4600,-0.3384,-6.226,-1.099,1.587,-120.432,53.751,-91.747
8372,-0.8574,-0.5156,-0.3525,-2.380,-0.183,-0.732,-120.487,53.745,-91.736
8382,-0.8345,-0.5508,-0.3618,-0.122,-1.892,-5.798,-120.454,53.685,-91.659
8392,-0.8145,-0.5454,-0.3589,1.099,-7.263,-8.423,-120.333,53.624,-91.478
8402,-0.8027,-0.5820,-0.3154,4.272,-14.648,-7.019,-120.053,53.608,-91.208
8412,-0.8066,-0.5840,-0.2739,4.700,-22.644,-4.211,-119.669,53.663,-90.840
8422,-0.8164,-0.5532,-0.2319,3.113,-28.137,-1.526,-119.229,53.789,-90.417
8432,-0.8267,-0.5166,-0.1978,3.784,-28.625,0.183,-118.768,53.948,-89.995
8442,-0.8193,-0.5088,-0.1699,7.751,-24.353,0.000,-118.301,54.097,-89.632
8452,-0.7998,-0.5186,-0.1582,11.902,-16.418,-2.380,-117.856,54.168,-89.368
8462,-0.7905,-0.5151,-0.1675,12.573,-7.385,-3.845,-117.521,54.185,-89.225
8472,-0.7661,-0.5225,-0.1812,11.230,1.587,-2.686,-117.323,54.152,-89.225
8482,-0.7539,-0.5376,-0.1938,7.751,7.385,0.366,-117.268,54.108,-89.341
8492,-0.7534,-0.5430,-0.2227,2.197,9.827,2.869,-117.334,54.069,-89.511
8502,-0.7651,-0.5239,-0.2500,-2.441,10.254,4.089,-117.488,54.047,-89.698
8512,-0.7856,-0.4951,-0.2744,-4.211,10.376,5.432,-117.708,54.053,-89.901
8522,-0.8037,-0.4907,-0.2925,-2.563,11.536,5.615,-117.938,54.053,-90.121
8532,-0.8062,-0.4946,-0.3091,-0.061,12.573,4.150,-118.158,54.031,-90.341
8542,-0.8018,-0.4951,-0.3115,2.136,12.878,2.380,-118.345,53.992,-90.555
8552,-0.8052,-0.4927,-0.3169,2.686,11.230,1.953,-118.510,53.954,-90.736
8562,-0.8188,-0.5010,-0.3257,2.136,9.033,1.709,-118.652,53.926,-90.884
8572,-0.8193,-0.4849,-0.3306,1.648,6.714,-0.122,-118.773,53.899,-90.983
8582,-0.8188,-0.4546,-0.3306,2.747,3.540,-1.404,-118.850,53.882,-91.027
8592,-0.8188,-0.4976,-0.3081,5.798,0.183,-1.282,-118.817,53.877,-91.016
8602,-0.8101,-0.5532,-0.2900,4.578,-3.113,-2.075,-118.707,53.860,-90.956
8612,-0.7983,-0.5635,-0.2739,-2.075,-6.287,-2.808,-118.608,53.844,-90.840
8622,-0.8110,-0.5640,-0.2754,-9.399,-8.057,-0.366,-118.575,53.866,-90.714
8632,-0.8247,-0.5527,-0.2871,-12.146,-6.592,1.709,-118.619,53.904,-90.632
8642,-0.8267,-0.5293,-0.2964,-9.399,-3.357,1.770,-118.691,53.932,-90.593
8652,-0.8296,-0.4971,-0.2998,-2.075,0.000,1.526,-118.746,53.959,-90.610
8662,-0.8320,-0.4800,-0.2988,7.568,2.747,1.404,-118.740,53.976,-90.659
8672,-0.8271,-0.5034,-0.2847,15.686,5.005,0.488,-118.658,53.965,-90.742
8682,-0.8145,-0.5117,-0.2754,17.334,5.737,-0.977,-118.542,53.937,-90.818
8692,-0.8096,-0.5449,-0.2681,12.146,4.822,-0.488,-118.455,53.899,-90.884
8702,-0.8018,-0.5811,-0.2729,1.770,2.808,0.427,-118.438,53.866,-90.928
8712,-0.7930,-0.5688,-0.2876,-9.888,-0.244,0.671,-118.526,53.844,-90.934
8722,-0.7998,-0.5552,-0.3052,-15.991,-2.991,2.197,-118.663,53.855,-90.906
8732,-0.8110,-0.5288,-0.3159,-14.771,-4.517,3.235,-118.801,53.899,-90.862
8742,-0.8188,-0.4658,-0.3110,-6.470,-4.822,3.174,-118.878,53.965,-90.818
8752,-0.8418,-0.4136,-0.3047,6.409,-4.150,3.784,-118.861,54.064,-90.786
8762,-0.8374,-0.4336,-0.2715,19.592,-2.197,3.235,-118.696,54.146,-90.780
8772,-0.8247,-0.4526,-0.2373,22.705,-1.526,2.747,-118.460,54.218,-90.780
8782,-0.8394,-0.4634,-0.2495,12.451,-1.953,4.639,-118.345,54.305,-90.791
8792,-0.8389,-0.5586,-0.2656,-2.502,-0.122,4.944,-118.367,54.344,-90.829
8802,-0.8223,-0.6011,-0.2837,-20.447,0.854,0.793,-118.553,54.311,-90.846
8812,-0.8140,-0.5474,-0.3203,-34.485,-0.916,-3.967,-118.878,54.261,-90.802
8822,-0.8154,-0.4829,-0.3330,-31.006,-4.333,-7.446,-119.141,54.218,-90.676
8832,-0.8203,-0.4712,-0.3242,-12.756,-9.155,-9.399,-119.147,54.190,-90.461
8842,-0.8252,-0.4478,-0.2915,9.155,-13.245,-11.230,-118.861,54.185,-90.170
8852,-0.8115,-0.4810,-0.2319,28.198,-13.977,-12.573,-118.301,54.168,-89.857
8862,-0.7847,-0.5718,-0.1660,37.720,-11.169,-12.024,-117.592,54.102,-89.588
8872,-0.7710,-0.6265,-0.1387,28.625,-6.470,-7.874,-117.032,54.025,-89.429
8882,-0.7642,-0.6309,-0.1514,7.874,-0.122,-1.221,-116.807,53.970,-89.418
8892,-0.7715,-0.5845,-0.1831,-13.794,5.798,6.836,-116.960,53.981,-89.561
8902,-0.8027,-0.4941,-0.2402,-29.846,8.972,13.489,-117.438,54.075,-89.797
8912,-0.8325,-0.4458,-0.2915,-32.043,10.620,14.893,-118.037,54.190,-90.077
8922,-0.8291,-0.4478,-0.3208,-22.522,11.230,9.216,-118.531,54.240,-90.319
8932,-0.8164,-0.4507,-0.3267,-9.277,9.460,1.282,-118.817,54.223,-90.472
8942,-0.8115,-0.4644,-0.3130,3.479,6.714,-2.808,-118.900,54.179,-90.549
8952,-0.8110,-0.5225,-0.2832,11.414,4.333,-2.808,-118.817,54.130,-90.593
8962,-0.8062,-0.5522,-0.2651,10.498,2.441,-2.441,-118.691,54.086,-90.610
8972,-0.8042,-0.5503,-0.2656,4.211,1.099,-1.648,-118.625,54.053,-90.610
8982,-0.8110,-0.5176,-0.2700,-1.526,1.099,0.488,-118.647,54.053,-90.632
8992,-0.8296,-0.4683,-0.2817,-3.418,1.526,2.441,-118.735,54.091,-90.676
9002,-0.8467,-0.4546,-0.2964,-0.366,2.563,2.197,-118.828,54.130,-90.731
9012,-0.8364,-0.4761,-0.3013,5.798,3.906,-1.648,-118.845,54.119,-90.775
9022,-0.8140,-0.5156,-0.2959,10.803,4.150,-6.531,-118.751,54.036,-90.786
9032,-0.7993,-0.5562,-0.2949,10.803,2.930,-8.484,-118.619,53.926,-90.758
9042,-0.7817,-0.6006,-0.2891,6.470,1.648,-7.324,-118.493,53.811,-90.725
9052,-0.7759,-0.6045,-0.2876,-0.671,-0.427,-3.906,-118.444,53.734,-90.687
9062,-0.7910,-0.5610,-0.2900,-6.836,-2.808,1.404,-118.471,53.740,-90.654
9072,-0.8232,-0.5063,-0.2876,-7.874,-3.418,6.653,-118.564,53.822,-90.659
9082,-0.8433,-0.4678,-0.2778,-3.845,-2.258,8.301,-118.652,53.937,-90.692
9092,-0.8433,-0.4634,-0.2671,2.136,-0.671,6.165,-118.674,54.031,-90.731
9102,-0.8364,-0.4512,-0.2490,5.981,0.122,2.319,-118.636,54.097,-90.753
9112,-0.8271,-0.4634,-0.2344,5.981,0.122,0.244,-118.559,54.135,-90.758
9122,-0.8291,-0.4941,-0.2388,2.014,0.732,-0.366,-118.521,54.152,-90.764
9132,-0.8159,-0.5483,-0.2524,-5.127,2.991,-1.831,-118.559,54.113,-90.797
9142,-0.7954,-0.5615,-0.2852,-12.817,5.371,-3.845,-118.707,54.031,-90.846
9152,-0.7842,-0.5547,-0.3120,-16.235,6.226,-3.723,-118.922,53.937,-90.906
9162,-0.7935,-0.5474,-0.3369,-12.634,5.615,-1.709,-119.130,53.866,-90.978
9172,-0.8037,-0.5322,-0.3330,-3.479,4.272,0.366,-119.246,53.833,-91.044
9182,-0.8130,-0.5078,-0.3218,6.470,1.892,2.258,-119.251,53.839,-91.088
9192,-0.8164,-0.4551,-0.2856,14.526,-0.488,3.845,-119.158,53.904,-91.115
9202,-0.8262,-0.3999,-0.2583,18.372,-2.686,6.348,-119.020,54.031,-91.126
9212,-0.8423,-0.4307,-0.2319,18.433,-2.869,8.606,-118.856,54.179,-91.154
9222,-0.8330,-0.5171,-0.2212,11.230,-0.977,4.456,-118.702,54.240,-91.176
9232,-0.8022,-0.5850,-0.2290,-3.418,1.099,-4.578,-118.647,54.174,-91.154
9242,-0.7739,-0.6255,-0.2617,-18.738,2.319,-11.719,-118.724,54.009,-91.093
9252,-0.7593,-0.6025,-0.3018,-28.564,2.502,-12.817,-118.932,53.828,-91.027
9262,-0.7705,-0.5430,-0.3437,-28.442,1.953,-7.507,-119.224,53.718,-90.994
9272,-0.8052,-0.4634,-0.3574,-15.625,0.916,0.671,-119.476,53.723,-91.011
9282,-0.8408,-0.4277,-0.3354,4.272,0.061,7.568,-119.570,53.822,-91.077
9292,-0.8496,-0.3975,-0.2979,21.790,-0.122,9.460,-119.487,53.959,-91.154
9302,-0.8384,-0.4282,-0.2437,31.006,-0.732,8.301,-119.229,54.091,-91.214
9312,-0.8340,-0.5156,-0.2026,26.978,-1.343,5.432,-118.905,54.168,-91.236
9322,-0.8149,-0.5776,-0.1968,11.047,-1.160,-1.770,-118.669,54.152,-91.208
9332,-0.7969,-0.5864,-0.2231,-8.911,0.183,-8.423,-118.625,54.053,-91.137
9342,-0.7954,-0.5981,-0.2593,-23.193,2.258,-10.986,-118.762,53.910,-91.082
9352,-0.7881,-0.6055,-0.3003,-27.039,4.822,-12.268,-118.982,53.734,-91.055
9362,-0.7808,-0.5806,-0.3340,-21.667,6.042,-11.841,-119.196,53.564,-91.049
9372,-0.7769,-0.5479,-0.3428,-9.216,6.042,-6.653,-119.344,53.443,-91.082
9382,-0.7935,-0.5010,-0.3311,5.798,4.822,2.808,-119.405,53.438,-91.176
9392,-0.8159,-0.4678,-0.3008,18.555,4.150,10.864,-119.372,53.536,-91.324
9402,-0.8228,-0.4419,-0.2812,24.170,4.578,14.404,-119.312,53.674,-91.511
9412,-0.8271,-0.4609,-0.2554,22.766,5.005,14.465,-119.240,53.817,-91.703
9422,-0.8232,-0.5454,-0.2456,14.587,5.493,9.705,-119.174,53.877,-91.868
9432,-0.7939,-0.6060,-0.2466,0.000,4.639,0.916,-119.163,53.828,-91.945
9442,-0.7783,-0.6035,-0.2681,-16.235,2.075,-4.456,-119.268,53.734,-91.939
9452,-0.7988,-0.4629,-0.2954,-24.902,-0.488,-2.747,-119.520,53.734,-91.906
9462,-0.8579,-0.3359,-0.3247,-18.311,-0.183,5.493,-119.883,53.860,-91.950
9472,-0.9014,-0.2666,-0.3130,0.732,3.601,11.841,-120.196,54.058,-92.104
9482,-0.8955,-0.3003,-0.3022,19.348,8.301,10.315,-120.322,54.212,-92.313
9492,-0.8472,-0.4678,-0.2720,28.625,10.742,0.732,-120.168,54.196,-92.477
9502,-0.7881,-0.6636,-0.2534,18.982,8.789,-12.390,-119.910,53.987,-92.499
9512,-0.7314,-0.7676,-0.2671,-5.737,3.296,-23.926,-119.734,53.641,-92.346
9522,-0.7197,-0.7407,-0.3008,-29.663,-2.930,-25.818,-119.745,53.317,-92.087
9532,-0.7461,-0.6587,-0.3481,-41.931,-6.287,-17.151,-119.954,53.119,-91.857
9542,-0.7808,-0.5190,-0.3828,-35.156,-5.371,-4.517,-120.278,53.080,-91.741
9552,-0.8325,-0.4058,-0.3901,-13.184,-3.296,9.460,-120.569,53.207,-91.769
9562,-0.8662,-0.3589,-0.3579,13.672,-0.305,17.517,-120.690,53.421,-91.917
9572,-0.8477,-0.4048,-0.3149,36.194,2.686,16.724,-120.547,53.608,-92.098
9582,-0.8110,-0.6016,-0.2388,44.373,3.357,11.658,-120.141,53.668,-92.247
9592,-0.7681,-0.7305,-0.2070,26.489,0.305,2.075,-119.751,53.597,-92.269
9602,-0.7397,-0.7788,-0.2300,-3.601,-3.845,-5.249,-119.575,53.459,-92.170
9612,-0.7368,-0.7783,-0.2427,-30.457,-5.554,-4.578,-119.658,53.333,-92.049
9622,-0.7563,-0.5254,-0.2974,-47.913,-5.920,2.747,-120.081,53.366,-91.989
9632,-0.8237,-0.2686,-0.3442,-38.269,-4.822,18.677,-120.751,53.641,-92.071
9642,-0.8940,-0.1704,-0.3315,-6.104,0.122,32.959,-121.360,54.058,-92.357
9652,-0.9277,-0.1230,-0.3135,26.550,5.615,33.386,-121.772,54.470,-92.736
9662,-0.9019,-0.2163,-0.2734,53.162,10.193,21.362,-121.718,54.739,-93.082
9672,-0.8481,-0.4634,-0.1973,61.646,12.512,3.052,-121.196,54.745,-93.290
9682,-0.8003,-0.6392,-0.1689,39.978,9.766,-16.846,-120.630,54.514,-93.285
9692,-0.7676,-0.7305,-0.1958,1.343,5.432,-30.151,-120.311,54.135,-93.104
9702,-0.7593,-0.7056,-0.2339,-35.278,2.563,-32.227,-120.350,53.762,-92.862
9712,-0.7690,-0.5923,-0.3184,-59.143,1.831,-23.682,-120.773,53.503,-92.686
9722,-0.7959,-0.4834,-0.4004,-55.786,2.930,-10.803,-121.371,53.377,-92.637
9732,-0.8208,-0.4341,-0.4316,-29.785,4.456,0.000,-121.855,53.355,-92.697
9742,-0.8330,-0.4355,-0.4170,1.831,3.357,4.883,-122.025,53.388,-92.791
9752,-0.8213,-0.4580,-0.3643,27.710,0.671,4.639,-121.855,53.432,-92.840
9762,-0.8149,-0.5049,-0.2920,39.673,-2.258,4.395,-121.448,53.492,-92.845
9772,-0.8071,-0.5796,-0.2349,35.767,-3.540,4.456,-120.992,53.536,-92.834
9782,-0.8052,-0.6040,-0.2061,19.165,-4.211,4.150,-120.663,53.569,-92.813
9792,-0.8115,-0.5952,-0.2173,-3.235,-4.333,3.845,-120.564,53.613,-92.780
9802,-0.8203,-0.5571,-0.2495,-20.447,-2.563,3.723,-120.696,53.652,-92.774
9812,-0.8223,-0.4912,-0.3003,-24.841,0.244,2.380,-120.970,53.685,-92.802
9822,-0.8330,-0.3945,-0.3394,-15.869,2.502,1.709,-121.267,53.729,-92.851
9832,-0.8423,-0.4106,-0.3477,2.319,4.639,1.831,-121.399,53.762,-92.933
9842,-0.8208,-0.4336,-0.3213,18.372,5.432,-1.221,-121.322,53.751,-92.999
9852,-0.8008,-0.4399,-0.2959,24.353,3.784,-2.380,-121.135,53.740,-93.038
9862,-0.8052,-0.5103,-0.2622,20.996,1.831,1.465,-120.921,53.751,-93.076
9872,-0.8086,-0.5771,-0.2539,8.789,0.671,2.869,-120.789,53.756,-93.109
9882,-0.7905,-0.6235,-0.2646,-8.057,0.488,0.671,-120.800,53.712,-93.120
9892,-0.7856,-0.5937,-0.2979,-23.437,0.000,-0.977,-120.981,53.668,-93.115
9902,-0.8037,-0.5122,-0.3394,-27.588,-0.183,-0.244,-121.278,53.657,-93.109
9912,-0.8179,-0.4595,-0.3579,-16.541,1.648,0.854,-121.531,53.663,-93.142
9922,-0.8291,-0.3877,-0.3516,1.770,2.563,0.916,-121.657,53.701,-93.186
9932,-0.8350,-0.3506,-0.3271,20.508,1.831,0.977,-121.597,53.762,-93.219
9942,-0.8286,-0.4185,-0.2866,33.813,1.160,0.000,-121.306,53.806,-93.235
9952,-0.8066,-0.5728,-0.2363,32.532,-0.427,-3.845,-120.861,53.762,-93.197
9962,-0.7852,-0.6475,-0.2227,13.550,-3.174,-9.094,-120.509,53.652,-93.071
9972,-0.7891,-0.6309,-0.2476,-10.132,-5.371,-10.437,-120.383,53.547,-92.906
9982,-0.8096,-0.5742,-0.2812,-24.292,-4.089,-6.653,-120.487,53.492,-92.791
9992,-0.8267,-0.5000,-0.3311,-25.208,0.549,-1.892,-120.762,53.476,-92.780
10002,-0.8350,-0.4258,-0.3647,-14.893,4.456,2.136,-121.075,53.503,-92.862
10012,-0.8359,-0.4004,-0.3628,1.831,6.104,3.357,-121.262,53.536,-92.977
10022,-0.8130,-0.4004,-0.3335,17.700,4.761,0.610,-121.229,53.553,-93.054
10032,-0.7974,-0.4541,-0.2788,26.062,0.427,-1.282,-120.970,53.569,-93.049
10042,-0.7935,-0.5537,-0.2295,21.179,-4.578,-2.197,-120.608,53.564,-92.961
10052,-0.7754,-0.6235,-0.2104,4.028,-8.179,-5.371,-120.317,53.525,-92.802
10062,-0.7754,-0.6704,-0.2178,-17.395,-10.010,-7.324,-120.201,53.454,-92.593
10072,-0.7842,-0.6504,-0.2573,-34.180,-8.911,-7.690,-120.300,53.377,-92.395
10082,-0.7876,-0.5698,-0.3154,-37.842,-4.822,-7.568,-120.553,53.311,-92.263
10092,-0.7900,-0.4639,-0.3560,-25.452,0.427,-4.456,-120.850,53.273,-92.230
10102,-0.8037,-0.4229,-0.3643,-2.319,4.883,1.343,-121.036,53.278,-92.313
10112,-0.8052,-0.4097,-0.3408,20.813,7.080,4.395,-121.025,53.311,-92.450
10122,-0.8027,-0.4692,-0.2954,34.241,6.409,5.920,-120.811,53.350,-92.593
10132,-0.8027,-0.5200,-0.2539,31.494,3.723,6.897,-120.542,53.399,-92.708
10142,-0.8071,-0.5610,-0.2349,17.273,0.549,5.920,-120.339,53.443,-92.769
10152,-0.8174,-0.5913,-0.2417,-2.014,-1.526,3.296,-120.284,53.465,-92.774
10162,-0.8232,-0.5649,-0.2817,-18.250,-1.160,-0.305,-120.410,53.459,-92.752
10172,-0.8286,-0.5444,-0.3252,-24.170,1.038,-2.869,-120.646,53.421,-92.741
10182,-0.8188,-0.5063,-0.3535,-18.433,4.333,-4.761,-120.888,53.350,-92.763
10192,-0.8101,-0.4854,-0.3647,-5.310,5.676,-4.028,-121.042,53.289,-92.813
10202,-0.8027,-0.5117,-0.3462,9.277,5.249,-1.404,-121.031,53.240,-92.873
10212,-0.7959,-0.4980,-0.3120,17.700,2.441,1.038,-120.899,53.240,-92.917
10222,-0.8062,-0.4639,-0.2866,17.395,-1.465,6.042,-120.762,53.328,-92.950
10232,-0.8237,-0.4951,-0.2651,12.451,-3.784,10.742,-120.641,53.459,-92.988
10242,-0.8232,-0.5342,-0.2544,2.869,-4.883,9.033,-120.564,53.569,-92.994
10252,-0.8091,-0.5894,-0.2573,-9.888,-5.493,3.113,-120.553,53.602,-92.944
10262,-0.8022,-0.5928,-0.2837,-21.545,-5.615,-2.014,-120.635,53.586,-92.845
10272,-0.8027,-0.5615,-0.3154,-25.330,-4.395,-5.127,-120.789,53.542,-92.736
10282,-0.8115,-0.4785,-0.3481,-17.517,-1.099,-5.310,-120.965,53.503,-92.675
10292,-0.8281,-0.4199,-0.3647,0.305,2.808,-1.160,-121.086,53.509,-92.703
10302,-0.8237,-0.4175,-0.3384,21.301,5.737,2.136,-121.036,53.531,-92.807
10312,-0.8145,-0.4214,-0.3013,33.813,5.554,4.028,-120.839,53.575,-92.922
10322,-0.8057,-0.4736,-0.2598,33.630,2.625,6.592,-120.558,53.646,-93.016
10332,-0.7993,-0.5771,-0.2227,21.606,-1.343,7.202,-120.284,53.701,-93.060
10342,-0.7905,-0.6367,-0.2207,-0.610,-4.822,3.845,-120.146,53.718,-93.021
10352,-0.7949,-0.6187,-0.2612,-23.499,-6.653,0.671,-120.234,53.718,-92.928
10362,-0.8062,-0.5742,-0.3027,-33.936,-5.066,-1.465,-120.476,53.701,-92.840
10372,-0.8096,-0.4580,-0.3447,-28.687,-1.831,-3.052,-120.784,53.696,-92.791
10382,-0.8408,-0.3477,-0.3599,-9.583,0.549,0.488,-121.042,53.751,-92.802
10392,-0.8628,-0.3184,-0.3364,16.846,2.930,4.639,-121.097,53.860,-92.884
10402,-0.8516,-0.3604,-0.2920,37.537,4.456,4.333,-120.888,53.948,-92.988
10412,-0.8232,-0.4917,-0.2256,41.626,2.808,2.380,-120.460,53.981,-93.049
10422,-0.8027,-0.6108,-0.1865,24.719,-1.160,-2.197,-120.053,53.943,-93.010
10432,-0.7778,-0.6777,-0.1885,-4.456,-4.272,-7.141,-119.850,53.844,-92.889
10442,-0.7773,-0.6489,-0.2271,-32.104,-5.066,-8.728,-119.943,53.740,-92.741
10452,-0.7915,-0.5688,-0.3018,-46.997,-2.197,-7.385,-120.317,53.657,-92.648
10462,-0.7964,-0.4902,-0.3613,-41.260,2.441,-6.104,-120.773,53.586,-92.631
10472,-0.7998,-0.4341,-0.3892,-19.714,5.249,-4.089,-121.108,53.525,-92.670
10482,-0.7944,-0.4897,-0.3647,7.080,5.188,-1.282,-121.146,53.476,-92.736
10492,-0.7852,-0.5454,-0.3154,25.208,2.075,-0.061,-120.910,53.443,-92.763
10502,-0.7876,-0.5596,-0.2666,27.893,-1.892,2.441,-120.575,53.459,-92.758
10512,-0.7954,-0.5527,-0.2290,21.362,-2.625,6.409,-120.295,53.525,-92.774
10522,-0.8120,-0.4897,-0.2148,9.827,-2.136,11.597,-120.185,53.663,-92.840
10532,-0.8384,-0.4585,-0.2231,-1.038,-0.671,16.541,-120.256,53.860,-92.972
10542,-0.8618,-0.4409,-0.2524,-9.583,1.221,15.259,-120.465,54.042,-93.120
10552,-0.8560,-0.4165,-0.2915,-12.146,3.784,5.737,-120.718,54.124,-93.224
10562,-0.8335,-0.4404,-0.3252,-6.165,7.080,-5.249,-120.883,54.069,-93.285
10572,-0.7866,-0.5503,-0.3281,4.333,9.888,-13.428,-120.861,53.871,-93.312
10582,-0.7544,-0.6016,-0.3203,7.874,8.728,-16.968,-120.734,53.624,-93.290
10592,-0.7476,-0.6045,-0.3130,3.723,4.272,-13.245,-120.624,53.432,-93.235
10602,-0.7837,-0.5239,-0.3022,-0.549,0.061,-2.808,-120.602,53.394,-93.214
10612,-0.8311,-0.4517,-0.3003,-1.465,-1.709,9.033,-120.690,53.514,-93.268
10622,-0.8574,-0.4160,-0.2920,1.953,-0.427,13.672,-120.806,53.690,-93.378
10632,-0.8530,-0.4233,-0.2881,6.104,1.099,9.216,-120.855,53.817,-93.472
10642,-0.8228,-0.4814,-0.2822,8.606,1.892,-0.549,-120.784,53.828,-93.499
10652,-0.7808,-0.5542,-0.2773,6.897,1.953,-10.193,-120.624,53.707,-93.439
10662,-0.7520,-0.5986,-0.2793,-0.122,0.122,-14.404,-120.471,53.531,-93.312
10672,-0.7505,-0.5991,-0.2852,-7.996,-1.892,-12.207,-120.394,53.388,-93.181
10682,-0.7725,-0.5620,-0.2876,-12.390,-3.113,-6.165,-120.410,53.328,-93.087
10692,-0.8027,-0.4990,-0.2949,-10.071,-1.648,0.488,-120.493,53.344,-93.065
10702,-0.8228,-0.4614,-0.2915,-0.671,1.709,5.615,-120.575,53.416,-93.137
10712,-0.8232,-0.4756,-0.2915,9.888,5.859,6.958,-120.602,53.470,-93.285
10722,-0.8057,-0.4937,-0.2886,15.930,9.460,5.188,-120.586,53.481,-93.466
10732,-0.7881,-0.5283,-0.2812,14.343,10.681,3.662,-120.564,53.448,-93.647
10742,-0.7778,-0.5254,-0.2866,5.127,9.766,3.418,-120.630,53.421,-93.818
10752,-0.7881,-0.5103,-0.3062,-5.554,7.446,3.723,-120.800,53.410,-93.961
10762,-0.8115,-0.5112,-0.3179,-12.451,5.554,4.028,-121.025,53.416,-94.076
10772,-0.8291,-0.4795,-0.3413,-15.320,4.456,2.563,-121.289,53.427,-94.158
10782,-0.8403,-0.4531,-0.3535,-10.620,4.272,0.427,-121.514,53.432,-94.224
10792,-0.8525,-0.4614,-0.3516,-0.854,4.150,-1.343,-121.619,53.421,-94.274
10802,-0.8550,-0.4741,-0.3394,8.606,3.174,-3.967,-121.580,53.394,-94.285
10812,-0.8374,-0.5039,-0.3179,14.526,1.648,-6.775,-121.415,53.344,-94.246
10822,-0.8242,-0.5396,-0.2969,14.648,-0.427,-7.996,-121.185,53.273,-94.169
10832,-0.8120,-0.5479,-0.2886,10.010,-2.441,-7.385,-120.970,53.218,-94.070
10842,-0.8091,-0.5552,-0.2827,3.906,-3.540,-4.150,-120.822,53.196,-93.988
10852,-0.8179,-0.5503,-0.2856,-2.319,-3.723,-0.793,-120.767,53.201,-93.928
10862,-0.8213,-0.5425,-0.2925,-5.493,-3.235,0.610,-120.762,53.223,-93.884
10872,-0.8223,-0.5464,-0.3032,-5.066,-1.587,0.488,-120.778,53.229,-93.867
10882,-0.8164,-0.5532,-0.3081,-1.831,0.549,-0.610,-120.784,53.212,-93.867
10892,-0.8091,-0.5488,-0.3086,1.709,1.953,-0.122,-120.773,53.190,-93.895
10902,-0.8071,-0.5347,-0.3057,4.517,2.563,2.380,-120.767,53.196,-93.955
10912,-0.8149,-0.4941,-0.3057,5.737,2.197,5.127,-120.778,53.240,-94.026
10922,-0.8174,-0.4517,-0.3091,6.592,1.709,6.836,-120.811,53.317,-94.109
10932,-0.8218,-0.4463,-0.3071,7.263,1.282,7.812,-120.850,53.410,-94.197
10942,-0.8120,-0.4736,-0.3037,5.310,0.000,6.287,-120.855,53.481,-94.252
10952,-0.7969,-0.5176,-0.2974,0.061,-2.869,1.953,-120.828,53.514,-94.224
10962,-0.7817,-0.5552,-0.2954,-7.690,-6.348,-2.380,-120.784,53.503,-94.114
10972,-0.7817,-0.5713,-0.3003,-14.221,-9.216,-4.272,-120.762,53.481,-93.944
10982,-0.7881,-0.5410,-0.3047,-15.686,-9.338,-4.822,-120.762,53.470,-93.768
10992,-0.7949,-0.4805,-0.3135,-10.132,-7.080,-2.991,-120.784,53.487,-93.642
11002,-0.8086,-0.4287,-0.2979,2.563,-3.174,1.160,-120.767,53.553,-93.604
11012,-0.8188,-0.4189,-0.2837,15.564,0.549,4.272,-120.685,53.630,-93.647
11022,-0.8101,-0.4531,-0.2710,22.400,4.089,3.845,-120.536,53.679,-93.741
11032,-0.7920,-0.5396,-0.2495,18.616,5.493,1.709,-120.372,53.657,-93.834
11042,-0.7759,-0.5942,-0.2427,2.747,3.967,-0.610,-120.306,53.602,-93.889
11052,-0.7832,-0.5869,-0.2710,-16.968,1.038,-1.465,-120.421,53.553,-93.889
11062,-0.8091,-0.5435,-0.3027,-29.236,-0.122,0.671,-120.701,53.547,-93.895
11072,-0.8311,-0.4805,-0.3384,-28.748,1.343,1.648,-121.053,53.564,-93.928
11082,-0.8462,-0.4258,-0.3618,-15.930,3.479,0.916,-121.349,53.586,-93.988
11092,-0.8589,-0.3999,-0.3594,3.906,5.310,-0.854,-121.476,53.597,-94.054
11102,-0.8442,-0.4067,-0.3403,23.254,6.287,-4.517,-121.371,53.569,-94.103
11112,-0.8154,-0.5161,-0.2930,34.790,5.798,-7.385,-121.020,53.481,-94.125
11122,-0.7817,-0.5796,-0.2388,28.442,1.770,-7.812,-120.619,53.383,-94.081
11132,-0.7837,-0.6382,-0.2422,7.324,-3.601,-4.333,-120.377,53.317,-93.994
11142,-0.7852,-0.6660,-0.2495,-14.343,-5.188,-1.038,-120.355,53.284,-93.911
11152,-0.7939,-0.5913,-0.2900,-31.189,-5.554,1.892,-120.569,53.295,-93.845
11162,-0.8247,-0.4883,-0.3413,-31.616,-3.845,4.761,-120.916,53.366,-93.829
11172,-0.8486,-0.4121,-0.3608,-14.587,-0.610,5.920,-121.196,53.454,-93.873
11182,-0.8491,-0.4058,-0.3457,7.996,2.014,4.395,-121.262,53.525,-93.939
11192,-0.8320,-0.4346,-0.3159,24.841,3.113,0.732,-121.108,53.553,-93.994
11202,-0.8032,-0.5200,-0.2656,29.907,1.892,-2.380,-120.773,53.531,-93.999
11212,-0.7783,-0.6138,-0.2285,19.226,-0.732,-3.845,-120.443,53.465,-93.955
11222,-0.7598,-0.6333,-0.2314,-0.427,-3.357,-3.784,-120.284,53.399,-93.873
11232,-0.7637,-0.6206,-0.2437,-17.456,-4.517,-0.488,-120.311,53.372,-93.801
11242,-0.7881,-0.5537,-0.2871,-26.672,-2.808,4.272,-120.542,53.405,-93.801
11252,-0.8130,-0.4663,-0.3267,-22.949,0.854,7.446,-120.872,53.481,-93.873
11262,-0.8262,-0.3857,-0.3379,-7.019,5.005,8.179,-121.163,53.569,-94.016
11272,-0.8306,-0.3809,-0.3242,12.268,7.812,7.141,-121.273,53.646,-94.191
11282,-0.8076,-0.4116,-0.2900,24.963,8.118,4.395,-121.185,53.685,-94.351
11292,-0.7949,-0.4854,-0.2451,24.170,5.737,2.502,-120.987,53.696,-94.455
11302,-0.7891,-0.5435,-0.2334,8.850,2.625,0.061,-120.855,53.679,-94.493
11312,-0.7891,-0.5640,-0.2632,-10.742,1.282,-2.136,-120.899,53.635,-94.493
11322,-0.7964,-0.5801,-0.3096,-24.963,2.747,-3.052,-121.130,53.564,-94.504
11332,-0.7920,-0.5430,-0.3560,-28.625,5.066,-4.700,-121.459,53.470,-94.537
11342,-0.7983,-0.4521,-0.3970,-21.057,5.920,-3.845,-121.805,53.399,-94.587
11352,-0.8159,-0.4375,-0.3926,-2.808,5.920,-0.427,-122.003,53.372,-94.669
11362,-0.8022,-0.4365,-0.3389,14.648,3.662,0.488,-121.959,53.377,-94.724
11372,-0.8076,-0.4067,-0.2876,22.095,-1.831,0.671,-121.756,53.443,-94.708
11382,-0.8218,-0.4976,-0.2363,19.531,-5.798,1.770,-121.448,53.514,-94.636
11392,-0.8125,-0.6807,-0.2168,6.958,-5.676,-4.089,-121.146,53.465,-94.521
11402,-0.8232,-0.7544,-0.2935,-15.747,-2.380,-15.381,-121.069,53.267,-94.351
11412,-0.8428,-0.6836,-0.4023,-31.921,7.446,-19.897,-121.328,52.993,-94.290
11422,-0.8491,-0.5405,-0.4990,-28.381,20.264,-9.888,-121.882,52.767,-94.488
11432,-0.8423,-0.4243,-0.5122,-3.052,27.283,7.996,-122.454,52.679,-94.944
11442,-0.8091,-0.3589,-0.4209,29.541,21.545,21.057,-122.717,52.773,-95.427
11452,-0.7817,-0.3643,-0.2734,48.828,4.211,26.550,-122.509,53.042,-95.724
11462,-0.8096,-0.4038,-0.1338,44.067,-14.832,28.809,-121.970,53.454,-95.773
11472,-0.8252,-0.5166,-0.0474,17.334,-22.400,23.560,-121.443,53.811,-95.663
11482,-0.8022,-0.5391,-0.0317,-20.142,-16.785,8.484,-121.229,53.992,-95.499
11492,-0.8042,-0.5024,-0.1089,-52.490,-3.113,-6.958,-121.470,53.987,-95.389
11502,-0.7891,-0.4868,-0.2363,-64.636,15.381,-20.203,-122.091,53.751,-95.433
11512,-0.7451,-0.5122,-0.3726,-54.077,32.227,-28.503,-122.827,53.300,-95.641
11522,-0.6812,-0.5630,-0.4502,-28.748,40.100,-27.527,-123.420,52.756,-95.955
11532,-0.6733,-0.5464,-0.4795,-2.991,35.278,-15.320,-123.805,52.339,-96.301
11542,-0.7246,-0.4917,-0.4604,18.372,24.902,2.747,-123.997,52.174,-96.663
11552,-0.7793,-0.4639,-0.4155,31.189,16.235,17.395,-124.063,52.218,-97.042
11562,-0.8179,-0.4590,-0.3613,34.668,9.460,22.522,-124.025,52.372,-97.377
11572,-0.8379,-0.4507,-0.3101,28.259,2.991,18.860,-123.915,52.553,-97.592
11582,-0.8560,-0.4492,-0.2808,14.465,-2.563,10.071,-123.799,52.712,-97.646
11592,-0.8574,-0.4409,-0.2754,-0.122,-5.859,-1.282,-123.712,52.795,-97.553
11602,-0.8521,-0.4546,-0.2930,-9.521,-6.348,-10.071,-123.657,52.795,-97.377
11612,-0.8423,-0.4927,-0.3105,-11.719,-4.578,-16.296,-123.591,52.707,-97.163
11622,-0.8267,-0.5161,-0.3330,-10.132,-1.770,-19.836,-123.519,52.564,-96.960
11632,-0.8159,-0.5435,-0.3618,-6.592,1.770,-19.043,-123.470,52.383,-96.812
11642,-0.8013,-0.5845,-0.3838,-1.404,5.615,-15.381,-123.431,52.191,-96.746
11652,-0.7827,-0.6064,-0.3896,3.357,7.202,-10.681,-123.393,52.015,-96.751
11662,-0.7881,-0.5825,-0.3960,6.165,5.432,-4.578,-123.365,51.910,-96.784
11672,-0.8115,-0.5479,-0.3818,8.972,1.831,2.075,-123.327,51.905,-96.823
11682,-0.8271,-0.4956,-0.3604,11.353,-1.709,6.836,-123.272,51.982,-96.861
11692,-0.8418,-0.4780,-0.3413,12.024,-4.395,9.521,-123.195,52.119,-96.888
11702,-0.8345,-0.4707,-0.3213,10.498,-6.592,7.935,-123.085,52.256,-96.866
11712,-0.8232,-0.5044,-0.3125,6.226,-8.545,3.174,-122.943,52.350,-96.779
11722,-0.7969,-0.5464,-0.3110,0.244,-9.155,-3.235,-122.783,52.366,-96.625
11732,-0.7695,-0.5757,-0.3159,-6.042,-9.521,-7.507,-122.651,52.322,-96.427
11742,-0.7563,-0.5718,-0.3184,-10.132,-10.254,-7.751,-122.547,52.284,-96.218
11752,-0.7710,-0.5342,-0.3301,-11.047,-10.620,-3.357,-122.514,52.295,-96.042
11762,-0.7998,-0.4893,-0.3315,-5.981,-8.179,2.869,-122.520,52.377,-95.955
11772,-0.8232,-0.4473,-0.3345,2.563,-3.723,7.019,-122.547,52.493,-95.966
11782,-0.8281,-0.4204,-0.3315,11.108,1.160,8.179,-122.563,52.597,-96.053
11792,-0.8174,-0.4087,-0.3320,17.639,4.333,6.348,-122.542,52.674,-96.169
11802,-0.7998,-0.4868,-0.3086,19.775,4.761,3.296,-122.421,52.690,-96.268
11812,-0.7695,-0.5718,-0.2988,11.780,2.136,-1.465,-122.272,52.641,-96.284
11822,-0.7559,-0.5928,-0.3115,-3.845,-2.380,-6.104,-122.195,52.564,-96.196
11832,-0.7651,-0.5776,-0.3252,-15.930,-5.859,-7.629,-122.206,52.493,-96.048
11842,-0.7852,-0.5239,-0.3457,-18.433,-6.470,-5.798,-122.289,52.471,-95.905
11852,-0.8086,-0.4653,-0.3613,-11.230,-4.089,-1.526,-122.404,52.493,-95.834
11862,-0.8188,-0.4438,-0.3525,1.221,-1.038,2.380,-122.454,52.548,-95.845
11872,-0.8130,-0.4434,-0.3247,10.925,0.244,3.357,-122.410,52.608,-95.878
11882,-0.8135,-0.3965,-0.3071,13.306,-1.160,3.967,-122.349,52.707,-95.894
11892,-0.8291,-0.4399,-0.2935,10.681,-2.686,5.676,-122.267,52.811,-95.905
11902,-0.8115,-0.5527,-0.2676,2.747,-3.052,1.160,-122.146,52.839,-95.872
11912,-0.7896,-0.5586,-0.2832,-13.245,-5.493,-7.141,-122.119,52.795,-95.735
11922,-0.7939,-0.6089,-0.3174,-26.733,-6.714,-11.108,-122.184,52.701,-95.543
11932,-0.7842,-0.6245,-0.3413,-30.884,-5.005,-14.832,-122.294,52.559,-95.345
11942,-0.7837,-0.5127,-0.3838,-26.184,-4.089,-15.015,-122.454,52.432,-95.153
11952,-0.8076,-0.4805,-0.3921,-9.644,-2.502,-7.507,-122.536,52.383,-95.054
11962,-0.8154,-0.4907,-0.3726,11.780,-0.732,-1.892,-122.448,52.377,-95.026
11972,-0.7935,-0.5059,-0.3296,26.428,-1.648,-1.221,-122.162,52.383,-94.993
11982,-0.7832,-0.5137,-0.2832,28.137,-5.005,1.831,-121.811,52.432,-94.938
11992,-0.7983,-0.5337,-0.2534,18.372,-8.118,6.470,-121.520,52.537,-94.883
12002,-0.8013,-0.5610,-0.2490,4.272,-8.057,6.531,-121.355,52.635,-94.823
12012,-0.8037,-0.5464,-0.2754,-11.292,-7.080,3.418,-121.366,52.701,-94.757
12022,-0.8032,-0.5479,-0.3203,-20.325,-5.005,-0.427,-121.498,52.712,-94.680
12032,-0.7964,-0.5474,-0.3437,-18.372,-3.113,-4.456,-121.624,52.674,-94.598
12042,-0.7827,-0.5249,-0.3516,-9.338,-2.808,-6.775,-121.663,52.619,-94.499
12052,-0.7764,-0.5078,-0.3379,2.563,-4.089,-4.883,-121.575,52.592,-94.400
12062,-0.7837,-0.4883,-0.3086,12.878,-5.920,-0.427,-121.388,52.625,-94.312
12072,-0.7944,-0.4741,-0.2725,18.921,-6.531,2.563,-121.130,52.712,-94.246
12082,-0.7998,-0.4683,-0.2490,18.738,-5.432,3.540,-120.877,52.806,-94.197
12092,-0.8101,-0.4946,-0.2397,12.817,-2.991,4.395,-120.696,52.888,-94.191
12102,-0.8140,-0.5317,-0.2466,2.563,-0.183,3.784,-120.635,52.938,-94.224
12112,-0.7988,-0.5811,-0.2705,-8.423,2.625,0.427,-120.696,52.910,-94.263
12122,-0.7900,-0.5757,-0.3145,-17.151,4.395,-1.953,-120.883,52.844,-94.307
12132,-0.7954,-0.5249,-0.3584,-18.372,5.310,-1.465,-121.146,52.789,-94.373
12142,-0.8032,-0.4736,-0.3838,-9.338,6.104,-0.305,-121.382,52.756,-94.455
12152,-0.8203,-0.4497,-0.3911,5.737,5.493,0.671,-121.487,52.745,-94.537
12162,-0.8125,-0.4849,-0.3667,19.775,3.906,-0.488,-121.388,52.729,-94.592
12172,-0.7998,-0.5068,-0.3271,24.414,0.000,-1.465,-121.152,52.718,-94.576
12182,-0.8052,-0.5464,-0.2939,17.456,-5.371,1.221,-120.899,52.751,-94.510
12192,-0.8105,-0.5786,-0.2817,3.540,-8.972,3.479,-120.740,52.817,-94.417
12202,-0.8057,-0.5469,-0.2920,-12.451,-10.803,4.150,-120.740,52.899,-94.296
12212,-0.8047,-0.5112,-0.3135,-21.912,-10.681,4.822,-120.877,52.998,-94.186
12222,-0.8003,-0.4834,-0.3301,-19.897,-9.094,2.625,-121.025,53.075,-94.076
12232,-0.7793,-0.4692,-0.3267,-8.423,-7.629,-2.869,-121.042,53.097,-93.944
12242,-0.7661,-0.4736,-0.2871,7.874,-7.996,-8.423,-120.817,53.080,-93.757
12252,-0.7515,-0.5273,-0.2187,21.545,-9.399,-11.475,-120.339,53.026,-93.527
12262,-0.7559,-0.5771,-0.1538,25.208,-10.132,-10.193,-119.751,52.976,-93.296
12272,-0.7729,-0.5986,-0.1416,16.418,-6.836,-4.700,-119.317,52.954,-93.159
12282,-0.7925,-0.5669,-0.1812,2.502,2.808,2.014,-119.218,52.960,-93.214
12292,-0.8042,-0.5200,-0.2510,-8.911,15.747,8.057,-119.504,52.965,-93.505
12302,-0.8096,-0.4858,-0.3145,-12.634,27.100,10.132,-120.037,52.938,-93.983
12312,-0.7969,-0.4541,-0.3696,-9.583,33.264,8.057,-120.652,52.850,-94.526
12322,-0.7827,-0.4912,-0.3838,-2.319,31.982,5.005,-121.146,52.718,-95.026
12332,-0.7822,-0.5068,-0.3926,-0.610,23.193,2.197,-121.487,52.597,-95.372
12342,-0.7969,-0.4785,-0.3857,-2.747,10.864,0.977,-121.718,52.548,-95.532
12352,-0.8281,-0.4380,-0.3745,-3.357,0.427,1.709,-121.855,52.586,-95.554
12362,-0.8452,-0.4448,-0.3496,-1.892,-6.104,1.709,-121.882,52.668,-95.482
12372,-0.8403,-0.5156,-0.3223,-2.563,-9.460,-0.305,-121.800,52.729,-95.345
12383,-0.8145,-0.5767,-0.3008,-8.240,-11.047,-4.028,-121.690,52.740,-95.158
12392,-0.7959,-0.5957,-0.3013,-15.747,-11.719,-6.226,-121.624,52.718,-94.938
12402,-0.7866,-0.5942,-0.3071,-18.738,-10.925,-5.127,-121.613,52.701,-94.741
12412,-0.7842,-0.5713,-0.3149,-16.174,-8.972,-1.770,-121.635,52.712,-94.598
12422,-0.7715,-0.5903,-0.2939,-9.644,-6.592,2.930,-121.624,52.734,-94.532
12432,-0.7744,-0.5723,-0.2720,-6.958,-5.737,8.789,-121.624,52.822,-94.526
12442,-0.7827,-0.5093,-0.2642,-7.690,-5.798,13.367,-121.690,52.971,-94.559
12452,-0.7993,-0.4390,-0.2568,-6.042,-5.310,16.052,-121.783,53.179,-94.625
12462,-0.8208,-0.4009,-0.2534,-0.916,-3.967,15.930,-121.866,53.405,-94.708
12472,-0.8311,-0.3940,-0.2510,5.066,-0.854,12.329,-121.899,53.586,-94.807
12482,-0.8296,-0.4399,-0.2573,7.690,4.822,7.019,-121.910,53.668,-94.938
12492,-0.8286,-0.4810,-0.2852,3.296,11.536,2.563,-122.020,53.652,-95.125
12502,-0.8223,-0.5063,-0.3296,-5.066,18.311,-0.854,-122.278,53.547,-95.383
12512,-0.8149,-0.5312,-0.3706,-11.108,23.865,-3.418,-122.662,53.372,-95.691
12522,-0.8071,-0.5112,-0.4180,-13.000,26.123,-5.066,-123.113,53.168,-96.015
12532,-0.7964,-0.4932,-0.4492,-8.667,24.048,-4.883,-123.525,52.965,-96.306
12542,-0.7920,-0.4634,-0.4517,0.671,17.273,-3.723,-123.783,52.817,-96.509
12552,-0.8071,-0.4702,-0.4219,9.888,7.019,-1.465,-123.832,52.756,-96.592
12562,-0.8169,-0.4805,-0.3779,14.404,-2.380,-0.610,-123.706,52.773,-96.553
12572,-0.8164,-0.4756,-0.3394,12.878,-9.155,-1.099,-123.486,52.828,-96.416
12582,-0.8179,-0.5010,-0.3135,7.507,-12.146,-1.404,-123.256,52.894,-96.235
12592,-0.8125,-0.5244,-0.3105,-0.732,-11.719,-3.235,-123.085,52.938,-96.048
12602,-0.7988,-0.5410,-0.3296,-7.629,-8.789,-6.287,-123.003,52.916,-95.867
12612,-0.7842,-0.5830,-0.3428,-9.827,-5.249,-8.728,-122.953,52.839,-95.713
12622,-0.7686,-0.6094,-0.3491,-7.996,-2.808,-10.559,-122.899,52.712,-95.581
12632,-0.7651,-0.5845,-0.3491,-3.357,-2.502,-9.521,-122.816,52.603,-95.460
12642,-0.7847,-0.5190,-0.3384,4.150,-2.869,-3.418,-122.723,52.581,-95.389
12652,-0.8169,-0.4839,-0.3120,12.634,-2.563,5.615,-122.607,52.663,-95.405
12662,-0.8306,-0.4517,-0.2920,16.846,-1.099,11.780,-122.514,52.811,-95.493
12672,-0.8340,-0.4453,-0.2773,15.259,0.305,13.977,-122.459,52.976,-95.625
12682,-0.8394,-0.4453,-0.2744,7.690,0.732,13.245,-122.476,53.135,-95.751
12692,-0.8413,-0.4712,-0.2954,-2.686,0.854,8.789,-122.569,53.240,-95.839
12702,-0.8423,-0.4722,-0.3296,-11.719,0.977,0.488,-122.723,53.262,-95.861
12712,-0.8452,-0.4824,-0.3730,-13.977,1.709,-7.629,-122.877,53.196,-95.817
12722,-0.8232,-0.5029,-0.3901,-6.531,2.502,-15.015,-122.910,53.053,-95.713
12732,-0.7954,-0.5376,-0.3833,5.859,1.038,-19.775,-122.750,52.855,-95.548
12742,-0.7710,-0.5620,-0.3486,16.602,-3.479,-18.127,-122.410,52.685,-95.339
12752,-0.7729,-0.5718,-0.2974,20.569,-9.216,-8.972,-121.992,52.635,-95.131
12762,-0.7900,-0.5371,-0.2544,15.625,-13.611,2.747,-121.641,52.734,-94.966
12772,-0.8096,-0.4917,-0.2310,5.188,-15.137,11.963,-121.437,52.949,-94.856
12782,-0.8330,-0.4639,-0.2339,-6.470,-13.062,15.442,-121.415,53.196,-94.807
12792,-0.8477,-0.4629,-0.2764,-14.526,-7.874,10.742,-121.536,53.372,-94.785
12802,-0.8232,-0.4946,-0.3115,-14.709,-0.427,-0.854,-121.679,53.377,-94.774
12812,-0.7900,-0.5347,-0.3389,-9.216,5.188,-11.353,-121.756,53.234,-94.746
12822,-0.7529,-0.5708,-0.3335,-1.465,7.019,-14.465,-121.734,53.031,-94.719
12832,-0.7554,-0.5405,-0.3374,2.686,4.456,-8.362,-121.701,52.910,-94.708
12842,-0.7920,-0.5430,-0.3267,4.700,1.465,2.502,-121.685,52.905,-94.752
12852,-0.8149,-0.5249,-0.3174,3.479,0.427,8.057,-121.701,52.971,-94.828
12862,-0.8179,-0.4756,-0.3335,0.061,0.183,8.179,-121.794,53.058,-94.900
12872,-0.8130,-0.4746,-0.3369,0.610,0.916,5.981,-121.877,53.119,-94.966
12883,-0.7944,-0.5156,-0.3340,1.465,0.671,1.831,-121.893,53.119,-94.993
12892,-0.7749,-0.5479,-0.3359,-1.282,-1.587,-1.709,-121.871,53.086,-94.955
12902,-0.7759,-0.5264,-0.3398,-5.798,-4.700,-1.587,-121.877,53.075,-94.872
12912,-0.7920,-0.5059,-0.3369,-6.470,-6.775,1.404,-121.893,53.119,-94.790
12922,-0.7993,-0.5117,-0.3232,-2.747,-7.385,2.808,-121.860,53.179,-94.713
12932,-0.8042,-0.4839,-0.3154,-0.427,-8.301,2.197,-121.800,53.251,-94.614
12942,-0.8130,-0.4580,-0.2925,2.869,-8.179,1.221,-121.696,53.333,-94.504
12952,-0.8115,-0.4502,-0.2734,6.226,-7.019,0.732,-121.553,53.416,-94.411
12962,-0.8052,-0.5020,-0.2588,6.653,-5.554,-0.122,-121.382,53.459,-94.334
12972,-0.7969,-0.5449,-0.2573,1.526,-3.906,-2.380,-121.245,53.454,-94.257
12982,-0.7861,-0.5684,-0.2759,-6.592,-1.709,-3.540,-121.212,53.410,-94.202
12992,-0.7798,-0.5566,-0.2915,-11.780,0.610,-2.930,-121.278,53.361,-94.186
13002,-0.7930,-0.5044,-0.3154,-12.390,2.197,0.122,-121.432,53.344,-94.219
13012,-0.8213,-0.4736,-0.3193,-7.141,3.113,5.249,-121.602,53.394,-94.307
13022,-0.8428,-0.4282,-0.3149,-0.488,3.723,7.446,-121.750,53.481,-94.427
13032,-0.8618,-0.3652,-0.3262,5.188,4.395,6.592,-121.893,53.580,-94.548
13042,-0.8574,-0.3838,-0.3184,12.939,5.554,2.930,-121.926,53.641,-94.653
13052,-0.8311,-0.4927,-0.2993,16.602,4.944,-3.723,-121.789,53.602,-94.691
13062,-0.7939,-0.6138,-0.2920,8.545,1.404,-11.597,-121.575,53.454,-94.609
13072,-0.7646,-0.6699,-0.3076,-7.751,-3.662,-16.174,-121.426,53.262,-94.411
13082,-0.7490,-0.6323,-0.3120,-20.935,-7.812,-14.221,-121.393,53.119,-94.175
13092,-0.7773,-0.4917,-0.3257,-24.841,-10.437,-3.357,-121.520,53.141,-93.999
13102,-0.8296,-0.3735,-0.3110,-15.442,-9.155,11.292,-121.729,53.350,-93.966
13112,-0.8774,-0.1885,-0.2725,-0.122,-5.005,21.240,-122.058,53.712,-94.081
13122,-0.9092,-0.1748,-0.2471,13.916,1.099,26.733,-122.355,54.108,-94.340
13132,-0.8911,-0.4028,-0.1895,20.630,8.423,20.813,-122.327,54.333,-94.653
13142,-0.8350,-0.5381,-0.1748,3.723,10.132,1.221,-122.272,54.305,-94.807
13152,-0.7886,-0.5996,-0.2197,-27.771,7.507,-17.029,-122.388,54.091,-94.763
13162,-0.7515,-0.6782,-0.2729,-54.077,5.615,-26.733,-122.690,53.756,-94.598
13172,-0.7236,-0.6772,-0.3643,-70.984,5.493,-29.480,-123.195,53.372,-94.406
13182,-0.7241,-0.6069,-0.4619,-69.275,6.348,-26.367,-123.799,53.020,-94.252
13192,-0.7349,-0.5327,-0.5176,-45.776,7.446,-18.982,-124.299,52.740,-94.180
13202,-0.7554,-0.5435,-0.5181,-10.864,7.446,-10.193,-124.508,52.542,-94.186
13212,-0.7793,-0.5864,-0.4604,22.095,5.127,-4.822,-124.343,52.410,-94.213
13222,-0.7842,-0.5688,-0.3926,41.809,1.770,-2.319,-123.931,52.344,-94.213
13232,-0.7812,-0.5547,-0.3179,47.363,-0.427,2.930,-123.437,52.355,-94.235
13242,-0.7812,-0.5557,-0.2622,41.626,-1.648,10.071,-122.997,52.443,-94.307
13252,-0.7949,-0.5161,-0.2358,25.757,-2.930,14.343,-122.728,52.597,-94.395
13262,-0.8179,-0.4541,-0.2378,6.409,-2.991,14.587,-122.684,52.789,-94.482
13272,-0.8379,-0.4150,-0.2563,-8.240,-0.916,11.047,-122.822,52.954,-94.565
13282,-0.8364,-0.4146,-0.2944,-14.221,3.540,2.991,-123.052,53.020,-94.642
13292,-0.8145,-0.4624,-0.3335,-12.146,8.789,-5.737,-123.256,52.943,-94.713
13302,-0.7822,-0.5327,-0.3481,-6.775,11.902,-11.475,-123.365,52.762,-94.774
13312,-0.7656,-0.5205,-0.3682,-4.028,11.536,-12.512,-123.464,52.570,-94.818
13322,-0.7764,-0.5229,-0.3760,-0.061,10.071,-7.141,-123.541,52.438,-94.894
13332,-0.7930,-0.5269,-0.3735,4.700,8.972,-1.648,-123.602,52.355,-94.999
13342,-0.8018,-0.5015,-0.3643,7.629,6.897,-0.183,-123.618,52.317,-95.092
13352,-0.8018,-0.4927,-0.3384,10.193,4.028,-0.305,-123.569,52.300,-95.147
13362,-0.8091,-0.5200,-0.3105,10.315,0.610,0.427,-123.448,52.311,-95.158
13372,-0.8076,-0.5366,-0.2930,4.822,-2.502,1.221,-123.333,52.339,-95.136
13383,-0.8120,-0.5376,-0.3008,-4.333,-4.272,2.136,-123.305,52.388,-95.098
13392,-0.8179,-0.5337,-0.3262,-12.146,-4.028,2.747,-123.382,52.432,-95.065
13402,-0.8145,-0.5142,-0.3579,-13.672,-1.831,1.404,-123.525,52.454,-95.054
13412,-0.8110,-0.4863,-0.3755,-7.385,0.183,-0.732,-123.635,52.454,-95.048
13422,-0.8062,-0.5078,-0.3726,3.845,1.099,-1.709,-123.624,52.427,-95.048
13432,-0.8091,-0.5225,-0.3594,12.878,0.488,-2.502,-123.492,52.399,-95.032
13442,-0.8047,-0.4956,-0.3433,17.212,-1.099,-2.625,-123.305,52.394,-94.993
13452,-0.8154,-0.4971,-0.3237,17.944,-2.869,0.427,-123.096,52.427,-94.955
13462,-0.8203,-0.5254,-0.3125,14.343,-3.906,3.418,-122.910,52.487,-94.933
13472,-0.8115,-0.5503,-0.3135,5.371,-4.517,3.906,-122.805,52.537,-94.905
13482,-0.7983,-0.5483,-0.3247,-5.249,-4.822,3.174,-122.805,52.581,-94.867
13492,-0.7949,-0.5566,-0.3433,-11.292,-4.700,2.625,-122.871,52.603,-94.828
13502,-0.7935,-0.5337,-0.3569,-10.254,-3.784,0.793,-122.948,52.614,-94.779
13512,-0.7910,-0.4624,-0.3608,-2.502,-3.113,-0.610,-122.981,52.635,-94.735
13522,-0.8154,-0.4277,-0.3413,10.559,-2.625,2.136,-122.921,52.701,-94.719
13532,-0.8320,-0.4092,-0.3184,21.484,-1.709,4.395,-122.772,52.800,-94.730
13542,-0.8228,-0.4497,-0.2988,25.269,-0.122,4.211,-122.558,52.877,-94.768
13552,-0.8018,-0.5488,-0.2744,18.127,0.183,3.174,-122.344,52.899,-94.801
13562,-0.7778,-0.5986,-0.2925,-1.953,-1.709,0.977,-122.289,52.883,-94.785
13572,-0.7715,-0.5967,-0.3301,-21.912,-2.808,-0.061,-122.437,52.855,-94.746
13582,-0.7778,-0.5703,-0.3604,-31.799,-2.625,0.793,-122.728,52.839,-94.713
13592,-0.7866,-0.5112,-0.4004,-29.114,-1.892,0.488,-123.052,52.828,-94.691
13602,-0.7954,-0.4326,-0.3984,-13.367,-1.892,-0.061,-123.261,52.844,-94.664
13612,-0.8174,-0.3877,-0.3760,9.155,-3.052,0.854,-123.250,52.905,-94.631
13622,-0.8174,-0.4536,-0.3198,28.931,-3.601,1.038,-122.953,52.965,-94.592
13632,-0.7808,-0.5356,-0.2368,23.132,-7.080,0.610,-122.558,53.009,-94.499
13642,-0.7876,-0.5630,-0.2378,5.310,-7.141,2.747,-122.349,53.058,-94.422
13652,-0.7905,-0.5469,-0.2661,-11.230,-5.005,3.052,-122.360,53.108,-94.378
13662,-0.8037,-0.5137,-0.3203,-20.325,-1.770,2.380,-122.558,53.135,-94.373
13672,-0.8101,-0.4951,-0.3584,-17.273,1.953,-0.122,-122.783,53.124,-94.400
13682,-0.7949,-0.4893,-0.3701,-4.639,4.089,-3.967,-122.888,53.058,-94.422
13692,-0.7788,-0.4966,-0.3530,10.803,2.991,-6.470,-122.794,52.976,-94.406
13702,-0.7729,-0.5352,-0.3057,22.156,-0.977,-4.700,-122.498,52.932,-94.351
13712,-0.7871,-0.5063,-0.2681,22.400,-5.737,-0.305,-122.162,52.971,-94.268
13722,-0.8130,-0.4736,-0.2456,15.808,-8.179,4.822,-121.904,53.091,-94.197
13732,-0.8315,-0.4712,-0.2339,8.118,-7.141,6.958,-121.740,53.229,-94.153
13742,-0.8359,-0.4619,-0.2495,0.427,-4.028,3.967,-121.679,53.333,-94.131
13752,-0.8286,-0.4624,-0.2783,-4.395,0.305,-1.099,-121.712,53.355,-94.125
13762,-0.8208,-0.5039,-0.3066,-4.517,4.883,-4.761,-121.778,53.300,-94.153
13772,-0.8096,-0.5342,-0.3364,-2.319,8.179,-7.446,-121.844,53.185,-94.208
13782,-0.7896,-0.5894,-0.3491,1.038,9.399,-8.301,-121.871,53.026,-94.268
13792,-0.7773,-0.5898,-0.3589,2.258,7.446,-6.226,-121.882,52.888,-94.318
13802,-0.7896,-0.5391,-0.3560,2.136,2.930,0.122,-121.910,52.850,-94.356
13812,-0.8169,-0.4937,-0.3369,3.601,-1.160,7.812,-121.937,52.932,-94.411
13822,-0.8374,-0.4414,-0.3174,4.456,-4.089,11.963,-121.970,53.097,-94.460
13832,-0.8506,-0.4204,-0.3032,4.944,-5.249,11.658,-121.981,53.278,-94.488
13842,-0.8452,-0.4600,-0.2886,5.310,-4.944,6.287,-121.921,53.394,-94.471
13852,-0.8208,-0.5220,-0.2905,2.808,-3.906,-2.625,-121.800,53.399,-94.395
13862,-0.7964,-0.5723,-0.3081,-1.526,-2.441,-10.559,-121.679,53.295,-94.263
13872,-0.7705,-0.5957,-0.3149,-4.456,-0.977,-14.282,-121.575,53.135,-94.125
13883,-0.7524,-0.5762,-0.3276,-5.249,-0.122,-11.780,-121.525,52.993,-94.021
13892,-0.7651,-0.5186,-0.3237,-2.014,-0.427,-3.296,-121.520,52.954,-93.988
13902,-0.7969,-0.4692,-0.3066,3.662,-0.671,6.592,-121.536,53.031,-94.032
13912,-0.8208,-0.3833,-0.2788,7.996,-0.244,12.512,-121.586,53.207,-94.142
13922,-0.8438,-0.3252,-0.2573,10.193,0.305,15.137,-121.663,53.438,-94.274
13932,-0.8477,-0.3779,-0.2251,9.094,1.770,13.855,-121.679,53.641,-94.422
13942,-0.8315,-0.4575,-0.2139,-1.404,2.136,6.287,-121.696,53.734,-94.510
13952,-0.8130,-0.4775,-0.2383,-19.104,1.770,-4.517,-121.822,53.712,-94.493
13962,-0.8052,-0.5010,-0.2808,-31.982,3.174,-12.695,-122.058,53.597,-94.427
13972,-0.8008,-0.5024,-0.3296,-35.400,6.836,-17.395,-122.377,53.410,-94.373
13982,-0.7964,-0.5034,-0.3833,-29.724,11.597,-18.188,-122.723,53.179,-94.373
13992,-0.7661,-0.5566,-0.4014,-16.724,15.076,-15.625,-122.975,52.921,-94.444
14002,-0.7451,-0.6226,-0.3950,-5.676,13.123,-10.254,-123.096,52.685,-94.532
14012,-0.7520,-0.6270,-0.3882,-1.770,6.226,-4.150,-123.135,52.548,-94.581
14022,-0.7754,-0.6089,-0.3691,-1.160,-0.244,1.282,-123.135,52.509,-94.587
14032,-0.7915,-0.5630,-0.3613,-2.380,-4.028,3.784,-123.140,52.537,-94.565
14042,-0.8062,-0.5273,-0.3545,-1.526,-5.249,3.479,-123.129,52.586,-94.526
14052,-0.7949,-0.5137,-0.3398,2.869,-4.700,0.061,-123.052,52.608,-94.460
14062,-0.7847,-0.5210,-0.3228,7.874,-4.395,-2.808,-122.893,52.603,-94.378
14072,-0.7832,-0.5498,-0.3047,10.437,-4.272,-3.296,-122.684,52.586,-94.285
14082,-0.7856,-0.5596,-0.2979,9.155,-3.296,-2.319,-122.492,52.570,-94.219
14092,-0.7939,-0.5303,-0.2979,5.432,-1.465,0.122,-122.393,52.575,-94.202
14102,-0.8091,-0.5146,-0.3047,2.991,0.671,3.174,-122.377,52.608,-94.241
14112,-0.8169,-0.5127,-0.3125,2.502,2.747,4.333,-122.399,52.641,-94.318
14122,-0.8130,-0.5088,-0.3271,1.587,4.028,3.479,-122.454,52.657,-94.400
14132,-0.8140,-0.5210,-0.3364,0.671,4.700,3.113,-122.525,52.657,-94.493
14142,-0.8096,-0.5068,-0.3477,0.427,4.761,2.441,-122.613,52.652,-94.581
14152,-0.8130,-0.4814,-0.3604,2.380,4.089,2.136,-122.690,52.657,-94.658
14162,-0.8188,-0.4785,-0.3569,7.019,2.686,1.648,-122.701,52.668,-94.713
14172,-0.8179,-0.4897,-0.3403,10.803,0.427,0.183,-122.618,52.685,-94.719
14182,-0.8179,-0.5039,-0.3242,11.169,-2.380,-1.038,-122.476,52.696,-94.675
14192,-0.8140,-0.5210,-0.3110,8.850,-4.700,-1.465,-122.311,52.718,-94.598
14202,-0.8120,-0.5215,-0.3071,5.188,-6.287,-0.854,-122.168,52.751,-94.504
14212,-0.8188,-0.5068,-0.3145,2.441,-6.409,0.366,-122.069,52.795,-94.417
14222,-0.8208,-0.4883,-0.3208,3.052,-4.883,0.854,-122.003,52.850,-94.356
14232,-0.8105,-0.5103,-0.3169,5.920,-2.991,0.671,-121.915,52.877,-94.318
14242,-0.8008,-0.5234,-0.3091,6.287,-2.075,0.549,-121.822,52.888,-94.296
14252,-0.7959,-0.5200,-0.3174,2.625,-2.258,0.732,-121.772,52.905,-94.268
14262,-0.7871,-0.5117,-0.3257,-0.671,-2.319,0.916,-121.767,52.921,-94.246
14272,-0.7812,-0.4956,-0.3335,-1.465,-3.174,0.610,-121.772,52.938,-94.202
14282,-0.7822,-0.4800,-0.3262,1.221,-4.822,0.061,-121.729,52.971,-94.136
14292,-0.7886,-0.4814,-0.3115,5.127,-6.409,-1.038,-121.613,53.004,-94.037
14302,-0.7920,-0.4917,-0.2876,7.996,-7.202,-2.686,-121.421,53.031,-93.911
14312,-0.7974,-0.5371,-0.2700,8.057,-6.836,-3.967,-121.190,53.031,-93.779
14322,-0.7896,-0.5898,-0.2598,5.066,-5.310,-5.066,-120.970,52.993,-93.664
14332,-0.7822,-0.6045,-0.2700,-0.488,-3.662,-4.639,-120.833,52.943,-93.571
14342,-0.7842,-0.5874,-0.2778,-3.967,-1.587,-1.404,-120.789,52.910,-93.538
14352,-0.8022,-0.5220,-0.2969,-3.296,0.977,4.395,-120.855,52.949,-93.587
14362,-0.8262,-0.4438,-0.3071,2.075,3.662,10.071,-120.981,53.053,-93.724
14372,-0.8462,-0.4121,-0.3096,9.521,6.226,13.062,-121.102,53.190,-93.928
14383,-0.8438,-0.4404,-0.2969,14.282,7.446,11.047,-121.152,53.289,-94.125
14392,-0.8213,-0.5063,-0.2808,11.597,5.676,5.554,-121.119,53.322,-94.257
14402,-0.8018,-0.5674,-0.2734,-0.122,1.099,1.099,-121.086,53.311,-94.279
14412,-0.8081,-0.5947,-0.2925,-14.404,-3.235,-0.610,-121.135,53.300,-94.230
14422,-0.8145,-0.6079,-0.3110,-23.376,-4.944,-1.465,-121.262,53.278,-94.147
14432,-0.8032,-0.5225,-0.3398,-23.499,-4.028,-2.258,-121.448,53.267,-94.070
14442,-0.8071,-0.4155,-0.3633,-10.925,-1.099,0.793,-121.646,53.306,-94.059
14452,-0.8218,-0.4028,-0.3467,10.803,3.662,5.554,-121.712,53.372,-94.164
14462,-0.8032,-0.4229,-0.3140,27.039,7.568,5.920,-121.619,53.416,-94.323
14472,-0.7827,-0.4834,-0.2822,28.687,7.080,4.517,-121.437,53.427,-94.460
14482,-0.7739,-0.5615,-0.2583,16.602,3.418,1.770,-121.256,53.405,-94.526
14492,-0.7651,-0.5923,-0.2739,-2.808,-0.977,-2.747,-121.190,53.350,-94.488
14502,-0.7729,-0.5918,-0.3003,-17.334,-3.357,-5.371,-121.240,53.278,-94.395
14512,-0.7852,-0.5840,-0.3281,-22.217,-3.784,-5.981,-121.360,53.212,-94.290
14522,-0.7871,-0.5420,-0.3545,-17.151,-2.441,-4.944,-121.487,53.157,-94.208
14532,-0.7910,-0.4756,-0.3506,-3.418,0.244,-0.854,-121.564,53.146,-94.208
14542,-0.8125,-0.4248,-0.3291,14.282,2.930,5.249,-121.553,53.212,-94.296
14552,-0.8203,-0.4160,-0.2925,29.541,5.859,7.690,-121.415,53.295,-94.444
14562,-0.7959,-0.4697,-0.2466,35.156,7.019,6.104,-121.152,53.344,-94.598
14572,-0.7935,-0.5117,-0.2178,24.231,4.822,4.822,-120.921,53.372,-94.708
14582,-0.8018,-0.5459,-0.2271,3.113,2.686,2.625,-120.855,53.383,-94.768
14592,-0.8076,-0.5547,-0.2583,-15.625,3.235,-0.366,-120.987,53.361,-94.812
14602,-0.8174,-0.5547,-0.3115,-24.902,5.249,-3.174,-121.251,53.295,-94.861
14612,-0.8081,-0.5273,-0.3584,-21.545,7.507,-6.409,-121.536,53.185,-94.911
14622,-0.8018,-0.4888,-0.3818,-8.911,7.996,-6.470,-121.734,53.080,-94.971
14632,-0.8096,-0.4639,-0.3770,8.301,6.958,-2.930,-121.783,53.026,-95.043
14642,-0.8140,-0.4609,-0.3447,23.132,5.066,1.099,-121.668,53.026,-95.125
14652,-0.8135,-0.4756,-0.3101,28.503,2.747,4.211,-121.459,53.069,-95.202
14662,-0.8188,-0.5283,-0.2788,21.973,-0.305,6.653,-121.251,53.135,-95.251
14672,-0.8159,-0.5747,-0.2637,6.653,-2.686,5.554,-121.124,53.185,-95.262
14682,-0.8081,-0.6069,-0.2759,-12.024,-4.456,2.991,-121.146,53.207,-95.224
14692,-0.8184,-0.6133,-0.3115,-26.245,-4.761,1.770,-121.322,53.212,-95.175
14702,-0.8184,-0.5742,-0.3462,-29.175,-3.174,0.122,-121.575,53.207,-95.131
14712,-0.8159,-0.4829,-0.3872,-19.409,-0.427,0.916,-121.838,53.212,-95.131
14722,-0.8350,-0.4170,-0.3916,1.282,2.136,4.761,-121.998,53.267,-95.202
14732,-0.8340,-0.3916,-0.3647,24.658,3.967,6.775,-121.954,53.339,-95.317
14742,-0.8223,-0.4165,-0.3188,40.649,3.906,5.798,-121.696,53.410,-95.427
14752,-0.8032,-0.4966,-0.2554,40.955,0.732,4.883,-121.284,53.465,-95.482
14762,-0.8037,-0.5503,-0.2280,25.635,-3.723,3.418,-120.927,53.514,-95.455
14772,-0.8018,-0.5967,-0.2285,3.845,-5.493,0.977,-120.729,53.531,-95.383
14782,-0.7930,-0.5996,-0.2598,-15.747,-4.211,-0.488,-120.762,53.520,-95.317
14792,-0.7939,-0.5396,-0.3159,-26.062,-1.343,-0.427,-120.998,53.503,-95.295
14802,-0.8003,-0.4600,-0.3657,-21.606,3.174,1.343,-121.333,53.498,-95.356
14812,-0.8032,-0.3989,-0.3770,-4.639,6.714,3.784,-121.602,53.520,-95.482
14822,-0.8081,-0.3735,-0.3647,15.198,7.202,4.578,-121.690,53.558,-95.625
14832,-0.8066,-0.4136,-0.3301,29.236,5.127,3.174,-121.553,53.591,-95.729
14842,-0.7944,-0.4995,-0.2788,29.907,1.160,1.831,-121.262,53.608,-95.762
14852,-0.7910,-0.5605,-0.2495,15.442,-3.235,-0.427,-120.992,53.602,-95.713
14862,-0.7881,-0.5908,-0.2549,-5.615,-5.737,-2.563,-120.888,53.586,-95.609
14872,-0.7959,-0.5977,-0.2754,-21.667,-5.798,-3.113,-120.954,53.558,-95.493
14883,-0.7988,-0.5605,-0.3174,-28.259,-3.845,-3.723,-121.146,53.520,-95.405
14892,-0.7944,-0.4937,-0.3550,-22.705,-0.549,-3.357,-121.388,53.487,-95.372
14902,-0.8052,-0.4478,-0.3633,-6.958,2.686,0.122,-121.569,53.481,-95.411
14912,-0.8232,-0.4404,-0.3457,10.681,4.761,3.845,-121.608,53.514,-95.510
14922,-0.8242,-0.4595,-0.3125,22.400,5.066,4.761,-121.503,53.553,-95.625
14932,-0.8154,-0.5200,-0.2725,22.827,2.625,4.211,-121.300,53.580,-95.702
14942,-0.8115,-0.5718,-0.2485,12.451,-1.465,2.197,-121.097,53.597,-95.702
14952,-0.8125,-0.5830,-0.2607,-2.441,-5.005,-0.427,-120.987,53.602,-95.625
14962,-0.8198,-0.5830,-0.2715,-11.902,-6.531,-1.587,-120.959,53.602,-95.515
14972,-0.8198,-0.5410,-0.2915,-13.794,-5.859,-1.160,-120.992,53.619,-95.422
14982,-0.8335,-0.4785,-0.3154,-7.874,-3.418,1.648,-121.069,53.668,-95.383
14992,-0.8521,-0.4326,-0.3228,4.456,0.305,5.371,-121.124,53.751,-95.438
15002,-0.8511,-0.3931,-0.3115,17.151,3.540,6.348,-121.108,53.844,-95.543
15012,-0.8389,-0.4067,-0.2930,25.635,4.517,5.615,-120.992,53.926,-95.658
15022,-0.8237,-0.4795,-0.2607,25.085,1.953,3.723,-120.773,53.970,-95.718
15032,-0.8110,-0.5566,-0.2490,12.695,-3.113,0.000,-120.542,53.976,-95.674
15042,-0.8042,-0.6011,-0.2563,-5.249,-7.568,-3.967,-120.405,53.954,-95.526
15052,-0.8027,-0.6396,-0.2671,-19.226,-9.827,-5.249,-120.366,53.910,-95.339
15062,-0.8008,-0.6343,-0.2944,-25.330,-9.155,-4.822,-120.421,53.860,-95.164
15072,-0.7974,-0.5898,-0.3262,-21.301,-6.287,-3.296,-120.520,53.828,-95.043
15082,-0.7920,-0.5366,-0.3398,-7.690,-2.014,1.282,-120.602,53.822,-95.026
15092,-0.7974,-0.4761,-0.3467,9.827,1.709,6.958,-120.624,53.866,-95.109
15102,-0.8003,-0.4268,-0.3267,27.039,4.700,10.315,-120.553,53.954,-95.268
15112,-0.7852,-0.4395,-0.3018,38.879,6.836,10.193,-120.355,54.025,-95.455
15122,-0.7686,-0.5205,-0.2603,39.368,5.371,9.644,-120.059,54.069,-95.620
15132,-0.7837,-0.5518,-0.2373,26.489,0.427,9.033,-119.795,54.130,-95.702
15142,-0.8066,-0.5532,-0.2441,8.179,-3.601,8.179,-119.669,54.207,-95.718
15152,-0.8281,-0.5371,-0.2666,-6.348,-3.479,8.301,-119.713,54.294,-95.735
15162,-0.8408,-0.4927,-0.3032,-13.062,-0.854,8.423,-119.910,54.388,-95.795
15172,-0.8438,-0.4048,-0.3418,-9.094,2.319,7.690,-120.179,54.476,-95.894
15182,-0.8545,-0.3276,-0.3447,3.906,4.883,7.263,-120.416,54.575,-96.031
15192,-0.8481,-0.3076,-0.3232,18.127,6.226,5.798,-120.509,54.673,-96.174
15202,-0.8345,-0.3643,-0.2842,25.940,5.676,2.686,-120.416,54.728,-96.284
15212,-0.8096,-0.4712,-0.2437,19.653,2.563,-2.563,-120.201,54.717,-96.301
15222,-0.7993,-0.5439,-0.2349,1.404,-1.831,-8.545,-120.037,54.641,-96.196
15232,-0.7886,-0.6235,-0.2568,-18.005,-4.761,-13.062,-119.993,54.498,-96.010
15242,-0.7847,-0.6577,-0.2842,-30.701,-5.798,-16.174,-120.048,54.322,-95.784
15252,-0.7808,-0.6299,-0.3296,-32.104,-5.127,-16.541,-120.163,54.141,-95.570
15262,-0.7842,-0.5581,-0.3477,-21.484,-3.235,-10.193,-120.289,54.025,-95.433
15272,-0.8096,-0.4771,-0.3472,-1.709,-0.671,2.441,-120.372,54.047,-95.444
15282,-0.8330,-0.3877,-0.3027,19.165,1.831,14.893,-120.383,54.223,-95.598
15292,-0.8501,-0.3037,-0.2622,32.471,4.211,24.109,-120.383,54.514,-95.872
15302,-0.8643,-0.2993,-0.2031,35.706,5.310,28.870,-120.333,54.860,-96.202
15312,-0.8760,-0.3677,-0.1689,26.306,4.822,25.269,-120.251,55.157,-96.493
15322,-0.8721,-0.4580,-0.1572,5.981,2.991,11.047,-120.196,55.294,-96.636
15332,-0.8569,-0.4878,-0.1987,-19.897,1.343,-8.179,-120.273,55.250,-96.586
15342,-0.8506,-0.5298,-0.2559,-39.001,1.587,-23.682,-120.460,55.036,-96.400
15352,-0.8247,-0.5557,-0.3267,-43.518,4.761,-34.912,-120.701,54.684,-96.163
15362,-0.7798,-0.5776,-0.3877,-35.095,7.263,-37.598,-120.899,54.267,-95.938
15372,-0.7495,-0.6177,-0.4150,-17.334,6.836,-29.419,-120.970,53.888,-95.779
15383,-0.7534,-0.6392,-0.4082,0.793,3.723,-13.977,-120.927,53.663,-95.713
15392,-0.7769,-0.6167,-0.3726,15.198,-0.854,1.770,-120.778,53.619,-95.713
15402,-0.7988,-0.5537,-0.3276,22.766,-4.272,13.062,-120.591,53.723,-95.768
15412,-0.8105,-0.5054,-0.2817,23.132,-6.470,19.165,-120.405,53.926,-95.839
15422,-0.8242,-0.4771,-0.2432,19.470,-8.240,19.714,-120.218,54.168,-95.883
15432,-0.8374,-0.4717,-0.2168,11.963,-9.399,14.954,-120.037,54.382,-95.878
15442,-0.8330,-0.4839,-0.2095,2.075,-9.155,6.592,-119.888,54.520,-95.795
15452,-0.8286,-0.4932,-0.2256,-7.812,-7.080,-0.854,-119.817,54.569,-95.685
15462,-0.8281,-0.5049,-0.2568,-12.817,-3.174,-5.310,-119.844,54.553,-95.592
15472,-0.8247,-0.5054,-0.2920,-10.742,2.136,-7.690,-119.921,54.476,-95.554
15482,-0.8193,-0.5039,-0.3203,-2.747,7.324,-7.446,-120.009,54.371,-95.603
15492,-0.8047,-0.4888,-0.3247,8.057,10.498,-4.822,-120.059,54.272,-95.718
15502,-0.8066,-0.4775,-0.3145,17.273,10.376,0.061,-120.048,54.223,-95.872
15512,-0.8047,-0.4556,-0.2905,21.057,7.935,4.578,-119.987,54.245,-96.026
15522,-0.8159,-0.4346,-0.2661,18.066,4.272,8.850,-119.938,54.338,-96.163
15532,-0.8320,-0.4712,-0.2524,9.705,1.221,10.681,-119.910,54.454,-96.273
15542,-0.8350,-0.5117,-0.2534,-2.319,-0.610,5.798,-119.932,54.514,-96.317
15552,-0.8291,-0.5303,-0.2754,-14.465,-1.465,-1.709,-120.020,54.509,-96.279
15562,-0.8281,-0.5742,-0.3091,-20.203,-1.038,-7.568,-120.135,54.421,-96.196
15572,-0.8081,-0.5947,-0.3379,-17.517,0.244,-12.878,-120.218,54.261,-96.092
15582,-0.7876,-0.5747,-0.3560,-8.850,0.793,-13.245,-120.240,54.097,-95.988
15592,-0.7925,-0.5195,-0.3584,3.296,0.305,-5.554,-120.218,54.020,-95.944
15602,-0.8125,-0.4839,-0.3340,16.052,-0.732,5.005,-120.125,54.069,-95.977
15612,-0.8140,-0.4355,-0.2979,23.804,-2.258,11.658,-119.987,54.207,-96.042
15622,-0.8203,-0.4209,-0.2622,23.376,-5.005,14.832,-119.817,54.410,-96.097
15632,-0.8330,-0.4658,-0.2231,16.052,-8.179,13.184,-119.608,54.597,-96.086
15642,-0.8311,-0.5186,-0.2075,3.052,-10.071,4.883,-119.410,54.706,-95.977
15652,-0.8218,-0.5386,-0.2285,-11.780,-9.766,-5.066,-119.312,54.706,-95.790
15662,-0.8188,-0.5459,-0.2559,-20.020,-6.653,-10.864,-119.312,54.635,-95.598
15672,-0.8159,-0.5288,-0.2944,-19.043,-0.916,-12.390,-119.399,54.520,-95.477
15682,-0.8066,-0.4893,-0.3247,-9.705,5.371,-9.216,-119.542,54.410,-95.477
15692,-0.8086,-0.4614,-0.3330,4.578,9.644,-2.380,-119.658,54.349,-95.603
15702,-0.8057,-0.4609,-0.3110,17.456,10.925,3.418,-119.685,54.333,-95.795
15712,-0.8066,-0.4409,-0.2827,21.667,8.484,7.568,-119.652,54.382,-95.988
15722,-0.8252,-0.4434,-0.2598,16.907,3.845,10.681,-119.614,54.498,-96.136
15732,-0.8359,-0.5000,-0.2432,6.836,0.122,9.399,-119.575,54.597,-96.218
15742,-0.8306,-0.5376,-0.2383,-7.629,-3.113,2.991,-119.575,54.635,-96.196
15752,-0.8281,-0.5552,-0.2637,-21.667,-5.066,-2.930,-119.663,54.624,-96.092
15762,-0.8276,-0.5757,-0.2871,-27.466,-4.944,-7.141,-119.795,54.564,-95.960
15772,-0.8135,-0.5527,-0.3208,-23.193,-2.625,-10.742,-119.921,54.454,-95.828
15782,-0.8052,-0.5078,-0.3379,-11.414,0.366,-9.277,-120.015,54.360,-95.751
15792,-0.8149,-0.4619,-0.3398,4.089,3.235,-2.014,-120.064,54.333,-95.784
15802,-0.8169,-0.4365,-0.3140,18.311,4.883,4.944,-120.031,54.371,-95.900
15812,-0.8159,-0.4160,-0.2866,25.513,4.578,8.911,-119.938,54.465,-96.042
15822,-0.8208,-0.4399,-0.2461,22.949,1.404,11.353,-119.800,54.597,-96.163
15832,-0.8286,-0.4883,-0.2324,11.902,-2.686,9.094,-119.669,54.712,-96.202
15842,-0.8242,-0.5293,-0.2300,-3.235,-5.798,0.854,-119.575,54.750,-96.119
15852,-0.8135,-0.5469,-0.2524,-17.090,-7.080,-7.874,-119.553,54.701,-95.944
15862,-0.8071,-0.5645,-0.2803,-23.376,-6.592,-13.550,-119.581,54.591,-95.729
15872,-0.7964,-0.5518,-0.3145,-20.264,-3.906,-16.663,-119.619,54.437,-95.532
15883,-0.7783,-0.5171,-0.3247,-9.460,-0.854,-14.587,-119.630,54.289,-95.394
15892,-0.7827,-0.5044,-0.3252,4.639,1.709,-6.775,-119.592,54.207,-95.361
15902,-0.7964,-0.4985,-0.2993,16.602,2.869,0.732,-119.476,54.196,-95.411
15912,-0.8086,-0.4912,-0.2754,21.179,3.296,5.615,-119.344,54.234,-95.504
15922,-0.8179,-0.5122,-0.2500,16.846,3.235,9.155,-119.246,54.311,-95.630
15932,-0.8320,-0.5249,-0.2534,5.798,2.563,9.338,-119.246,54.382,-95.746
15942,-0.8345,-0.5342,-0.2700,-6.958,1.526,5.676,-119.344,54.426,-95.817
15952,-0.8315,-0.5176,-0.3022,-16.357,0.366,1.343,-119.531,54.432,-95.834
15962,-0.8311,-0.5132,-0.3311,-17.944,-0.183,-1.221,-119.734,54.415,-95.823
15972,-0.8262,-0.5107,-0.3354,-11.292,-0.549,-3.784,-119.844,54.377,-95.784
15982,-0.8286,-0.4927,-0.3301,-0.793,-1.221,-4.944,-119.844,54.344,-95.724
15992,-0.8315,-0.4790,-0.3140,10.315,-1.831,-3.296,-119.734,54.333,-95.663
16002,-0.8252,-0.4844,-0.2764,18.616,-2.319,-1.648,-119.509,54.349,-95.620
16012,-0.8188,-0.4932,-0.2441,19.409,-3.723,-0.244,-119.240,54.382,-95.559
16022,-0.8154,-0.5044,-0.2271,12.329,-5.554,1.526,-119.009,54.437,-95.488
