elapsed_ms,acc_x_g,acc_y_g,acc_z_g,gyro_x_dps,gyro_y_dps,gyro_z_dps,angle_x_deg,angle_y_deg,angle_z_deg
0,-0.4697,-0.2827,-0.8735,-20.020,6.226,5.859,-163.878,27.142,-26.241
10,-0.4800,-0.2461,-0.8701,-12.695,4.517,4.517,-164.037,27.120,-26.307
20,-0.4873,-0.2393,-0.8608,-1.587,3.662,1.953,-164.070,27.103,-26.334
30,-0.4814,-0.2622,-0.8535,8.972,3.845,-1.282,-163.971,27.076,-26.334
40,-0.4712,-0.3096,-0.8467,13.855,5.005,-3.906,-163.779,27.021,-26.307
50,-0.4502,-0.3682,-0.8433,11.230,7.263,-5.737,-163.575,26.927,-26.268
60,-0.4277,-0.4189,-0.8467,2.136,10.071,-6.653,-163.438,26.790,-26.230
70,-0.4121,-0.4150,-0.8506,-10.376,12.817,-5.310,-163.438,26.620,-26.213
80,-0.4126,-0.3467,-0.8545,-20.691,13.611,-1.343,-163.603,26.461,-26.241
90,-0.4365,-0.2520,-0.8564,-22.522,11.536,3.540,-163.856,26.356,-26.318
100,-0.4775,-0.1611,-0.8501,-13.306,7.446,6.104,-164.081,26.329,-26.406
110,-0.5005,-0.1689,-0.8423,5.127,4.150,3.601,-164.103,26.340,-26.455
120,-0.4736,-0.3120,-0.8423,22.766,4.639,-3.540,-163.823,26.301,-26.433
130,-0.4097,-0.4897,-0.8467,25.024,7.874,-11.780,-163.389,26.158,-26.329
140,-0.3491,-0.5884,-0.8501,6.714,10.925,-14.893,-163.087,25.933,-26.208
150,-0.3213,-0.5723,-0.8560,-23.132,12.939,-9.949,-163.120,25.697,-26.142
160,-0.3408,-0.4487,-0.8667,-47.974,13.428,1.404,-163.515,25.510,-26.202
170,-0.4019,-0.2812,-0.8770,-55.481,10.925,13.245,-164.125,25.428,-26.378
180,-0.4570,-0.1821,-0.8784,-41.748,7.935,19.470,-164.680,25.417,-26.609
190,-0.4839,-0.1489,-0.8765,-17.639,5.310,18.311,-164.998,25.444,-26.818
200,-0.4790,-0.1753,-0.8643,7.141,3.479,12.085,-165.026,25.477,-26.955
210,-0.4468,-0.2827,-0.8467,24.719,3.296,3.845,-164.767,25.466,-27.010
220,-0.3979,-0.3960,-0.8350,27.771,5.188,-3.540,-164.377,25.384,-26.988
230,-0.3594,-0.4644,-0.8369,17.029,8.118,-6.348,-164.059,25.241,-26.944
240,-0.3345,-0.4780,-0.8447,-0.916,11.292,-3.235,-163.932,25.065,-26.944
250,-0.3418,-0.4185,-0.8579,-18.921,12.451,4.700,-164.059,24.906,-27.032
260,-0.3779,-0.3286,-0.8701,-28.381,11.963,14.038,-164.366,24.802,-27.213
270,-0.4175,-0.2334,-0.8794,-24.841,10.315,19.958,-164.724,24.752,-27.455
280,-0.4507,-0.1494,-0.8779,-11.902,6.470,20.752,-164.993,24.769,-27.697
290,-0.4756,-0.1045,-0.8662,7.812,2.197,16.479,-165.075,24.829,-27.878
300,-0.4663,-0.1772,-0.8481,28.931,0.916,8.606,-164.861,24.873,-27.971
310,-0.4214,-0.3213,-0.8350,38.330,3.418,0.000,-164.421,24.846,-27.982
320,-0.3750,-0.4272,-0.8364,30.029,7.019,-5.554,-163.998,24.730,-27.944
330,-0.3364,-0.4932,-0.8350,9.216,10.681,-5.981,-163.746,24.560,-27.911
340,-0.3237,-0.4565,-0.8491,-17.517,12.512,-0.977,-163.812,24.379,-27.944
350,-0.3486,-0.3628,-0.8677,-37.415,11.597,7.996,-164.163,24.247,-28.059
360,-0.3979,-0.2627,-0.8877,-42.358,8.728,16.296,-164.658,24.197,-28.257
370,-0.4414,-0.1929,-0.9053,-32.898,4.456,19.592,-165.108,24.219,-28.477
380,-0.4639,-0.1621,-0.9087,-16.479,-0.488,17.456,-165.394,24.296,-28.663
390,-0.4629,-0.1885,-0.8989,0.732,-4.272,11.597,-165.460,24.390,-28.773
400,-0.4360,-0.2822,-0.8896,13.306,-4.822,4.150,-165.306,24.450,-28.806
410,-0.3887,-0.3906,-0.8892,14.954,-1.770,-2.197,-165.059,24.439,-28.779
420,-0.3521,-0.4253,-0.8911,7.263,1.526,-4.822,-164.861,24.362,-28.729
430,-0.3403,-0.3960,-0.8911,-4.028,2.747,-2.441,-164.806,24.280,-28.713
440,-0.3623,-0.3345,-0.8984,-12.878,1.770,4.395,-164.905,24.236,-28.762
450,-0.4033,-0.2720,-0.9053,-13.062,-0.305,11.108,-165.064,24.258,-28.878
460,-0.4429,-0.1987,-0.9043,-4.578,-3.113,13.672,-165.190,24.335,-29.015
470,-0.4629,-0.1631,-0.8975,8.972,-6.348,12.390,-165.190,24.456,-29.130
480,-0.4609,-0.2085,-0.8862,21.606,-7.568,8.362,-165.020,24.571,-29.196
490,-0.4365,-0.3145,-0.8760,26.489,-6.165,2.686,-164.718,24.642,-29.207
500,-0.3975,-0.3926,-0.8706,20.264,-3.113,-2.258,-164.410,24.648,-29.174
510,-0.3682,-0.4092,-0.8633,5.676,-0.854,-3.174,-164.240,24.609,-29.141
520,-0.3706,-0.3442,-0.8643,-9.460,-1.099,0.427,-164.279,24.593,-29.141
530,-0.4033,-0.2524,-0.8643,-16.602,-3.784,7.019,-164.460,24.642,-29.202
540,-0.4453,-0.1890,-0.8647,-11.719,-6.287,11.841,-164.652,24.758,-29.312
550,-0.4727,-0.1533,-0.8628,0.122,-8.789,12.146,-164.751,24.906,-29.416
560,-0.4800,-0.1606,-0.8564,12.817,-10.559,8.179,-164.691,25.071,-29.471
570,-0.4580,-0.2637,-0.8477,20.508,-8.911,2.075,-164.465,25.181,-29.465
580,-0.4146,-0.3672,-0.8496,17.029,-4.272,-3.967,-164.196,25.203,-29.410
590,-0.3721,-0.4214,-0.8613,4.517,1.404,-6.836,-164.020,25.131,-29.344
600,-0.3491,-0.4126,-0.8721,-11.902,5.981,-5.371,-164.026,25.005,-29.306
610,-0.3569,-0.3213,-0.8872,-25.452,7.080,0.610,-164.251,24.895,-29.333
620,-0.3989,-0.2153,-0.8979,-27.161,4.333,8.362,-164.586,24.862,-29.432
630,-0.4419,-0.1519,-0.8965,-14.893,-0.732,12.207,-164.844,24.911,-29.559
640,-0.4741,-0.1104,-0.8857,4.089,-7.568,10.193,-164.921,25.043,-29.647
650,-0.4771,-0.1226,-0.8691,24.231,-13.367,3.113,-164.751,25.214,-29.641
660,-0.4512,-0.2578,-0.8477,37.537,-14.709,-5.981,-164.317,25.356,-29.537
670,-0.4082,-0.3911,-0.8242,36.560,-11.230,-13.733,-163.779,25.411,-29.355
680,-0.3682,-0.4546,-0.8105,20.508,-6.836,-17.273,-163.361,25.395,-29.152
690,-0.3506,-0.4531,-0.8130,-3.601,-2.869,-14.709,-163.202,25.329,-28.987
700,-0.3604,-0.3848,-0.8267,-24.170,-0.549,-6.958,-163.328,25.280,-28.911
710,-0.4067,-0.2788,-0.8438,-31.250,-0.366,2.380,-163.630,25.280,-28.932
720,-0.4487,-0.1899,-0.8579,-22.461,-1.404,7.874,-163.927,25.334,-29.015
730,-0.4805,-0.1436,-0.8608,-4.578,-4.150,7.996,-164.064,25.433,-29.086
740,-0.4810,-0.1792,-0.8525,14.893,-6.104,2.686,-163.965,25.532,-29.097
750,-0.4497,-0.2969,-0.8354,28.442,-5.310,-5.432,-163.614,25.582,-29.020
760,-0.4028,-0.4121,-0.8276,27.954,-1.648,-11.536,-163.185,25.543,-28.894
770,-0.3672,-0.4712,-0.8247,14.709,2.686,-12.939,-162.856,25.439,-28.768
780,-0.3530,-0.4644,-0.8247,-5.432,6.775,-8.850,-162.757,25.296,-28.696
790,-0.3706,-0.3730,-0.8389,-23.315,9.094,-0.244,-162.927,25.175,-28.724
800,-0.4185,-0.2715,-0.8506,-28.625,8.667,9.216,-163.257,25.120,-28.845
810,-0.4634,-0.1929,-0.8643,-20.752,6.592,14.343,-163.581,25.126,-29.020
820,-0.4917,-0.1450,-0.8750,-6.897,2.869,13.062,-163.779,25.175,-29.169
830,-0.4893,-0.1851,-0.8735,8.667,0.122,6.348,-163.762,25.225,-29.235
840,-0.4556,-0.2954,-0.8716,18.860,0.366,-2.930,-163.542,25.225,-29.207
850,-0.4053,-0.3857,-0.8740,16.907,3.235,-10.254,-163.257,25.142,-29.108
860,-0.3711,-0.4302,-0.8701,7.446,6.470,-12.390,-163.043,25.005,-28.998
870,-0.3569,-0.3940,-0.8730,-6.348,7.751,-8.850,-163.004,24.862,-28.927
880,-0.3848,-0.3223,-0.8789,-16.235,6.470,-1.099,-163.136,24.769,-28.938
890,-0.4326,-0.2305,-0.8833,-15.503,3.357,5.859,-163.339,24.763,-29.009
900,-0.4741,-0.1309,-0.8857,-4.700,-1.160,7.874,-163.504,24.824,-29.086
910,-0.5054,-0.0874,-0.8882,11.169,-5.127,5.676,-163.521,24.939,-29.130
920,-0.4971,-0.1665,-0.8892,25.574,-5.066,-0.671,-163.317,25.021,-29.108
930,-0.4478,-0.3525,-0.8945,28.198,-0.793,-9.399,-162.944,25.005,-29.009
940,-0.3896,-0.4365,-0.9053,12.634,4.089,-16.602,-162.669,24.879,-28.845
950,-0.3486,-0.4253,-0.9116,-11.230,4.944,-18.799,-162.625,24.719,-28.663
960,-0.3569,-0.3433,-0.9067,-29.724,1.282,-14.526,-162.823,24.620,-28.515
970,-0.4053,-0.2573,-0.9058,-35.095,-6.348,-7.080,-163.147,24.642,-28.422
980,-0.4595,-0.2021,-0.8926,-24.963,-14.771,-2.747,-163.405,24.796,-28.345
990,-0.4946,-0.1636,-0.8770,-8.545,-22.705,-4.211,-163.499,25.043,-28.229
1000,-0.4980,-0.1934,-0.8564,7.935,-27.100,-10.315,-163.378,25.312,-28.037
1010,-0.4644,-0.2832,-0.8330,21.301,-24.719,-18.372,-163.032,25.521,-27.762
1020,-0.4111,-0.4053,-0.8208,25.024,-17.334,-23.682,-162.559,25.604,-27.455
1030,-0.3657,-0.5010,-0.8203,16.113,-7.324,-22.766,-162.147,25.560,-27.191
1040,-0.3389,-0.5015,-0.8311,-2.380,1.465,-15.747,-161.966,25.433,-27.026
1050,-0.3452,-0.4404,-0.8428,-20.447,6.531,-4.028,-162.065,25.307,-27.010
1060,-0.3887,-0.3452,-0.8574,-29.907,7.385,8.301,-162.367,25.236,-27.120
1070,-0.4346,-0.2529,-0.8716,-26.489,4.944,15.503,-162.724,25.241,-27.301
1080,-0.4722,-0.1812,-0.8765,-13.489,-0.061,15.625,-162.982,25.312,-27.466
1090,-0.4849,-0.1797,-0.8765,3.906,-5.066,9.644,-163.032,25.417,-27.554
1100,-0.4614,-0.2490,-0.8652,19.775,-6.409,0.366,-162.839,25.499,-27.532
1110,-0.4185,-0.3813,-0.8511,26.245,-4.517,-7.507,-162.471,25.505,-27.438
1120,-0.3770,-0.4790,-0.8398,17.456,-0.366,-10.193,-162.125,25.439,-27.328
1130,-0.3496,-0.4907,-0.8345,-0.610,3.540,-7.812,-161.977,25.323,-27.263
1140,-0.3540,-0.4043,-0.8364,-19.165,5.249,-0.488,-162.098,25.230,-27.274
1150,-0.4033,-0.2725,-0.8374,-26.855,3.296,9.460,-162.405,25.219,-27.383
1160,-0.4673,-0.1494,-0.8345,-18.066,-0.305,16.357,-162.735,25.307,-27.554
1170,-0.5142,-0.0347,-0.8130,2.808,-5.432,17.151,-162.922,25.477,-27.719
1180,-0.5303,-0.0376,-0.7969,28.809,-10.620,11.475,-162.817,25.697,-27.806
1190,-0.4937,-0.2627,-0.7788,45.593,-8.362,1.404,-162.345,25.829,-27.795
1200,-0.4209,-0.4663,-0.7734,35.339,0.305,-9.766,-161.818,25.790,-27.691
1210,-0.3667,-0.5273,-0.7925,3.540,8.972,-16.479,-161.565,25.609,-27.548
1220,-0.3213,-0.5244,-0.8213,-31.128,16.541,-16.357,-161.686,25.329,-27.433
1230,-0.3135,-0.4326,-0.8599,-59.204,20.691,-7.629,-162.186,25.038,-27.427
1240,-0.3613,-0.2725,-0.9048,-66.284,18.127,5.859,-162.900,24.846,-27.548
1250,-0.4253,-0.1841,-0.9443,-49.377,12.024,15.930,-163.537,24.763,-27.757
1260,-0.4727,-0.1382,-0.9600,-22.522,4.761,17.822,-163.927,24.785,-27.960
1270,-0.4946,-0.1084,-0.9453,5.554,-2.808,11.414,-164.015,24.868,-28.070
1280,-0.4800,-0.1670,-0.9097,31.555,-7.629,0.977,-163.751,24.966,-28.059
1290,-0.4409,-0.2930,-0.8706,47.424,-7.019,-8.789,-163.213,25.016,-27.944
1300,-0.3960,-0.4106,-0.8389,46.570,-2.563,-13.916,-162.592,24.983,-27.790
1310,-0.3721,-0.4863,-0.8271,29.724,2.380,-13.489,-162.109,24.884,-27.653
1320,-0.3618,-0.4502,-0.8276,2.808,5.981,-7.935,-161.949,24.763,-27.592
1330,-0.3931,-0.3398,-0.8462,-18.982,5.737,1.038,-162.114,24.697,-27.620
1340,-0.4429,-0.2637,-0.8687,-25.757,4.211,8.911,-162.422,24.697,-27.729
1350,-0.4722,-0.1953,-0.8838,-20.874,1.587,11.169,-162.729,24.747,-27.850
1360,-0.4844,-0.1304,-0.8848,-8.850,-3.479,8.240,-162.938,24.840,-27.927
1370,-0.4761,-0.1831,-0.8745,6.531,-7.324,2.258,-162.927,24.944,-27.927
1380,-0.4414,-0.3320,-0.8691,15.198,-6.226,-5.127,-162.708,24.994,-27.850
1390,-0.3901,-0.4336,-0.8687,9.521,-1.343,-10.498,-162.471,24.944,-27.735
1400,-0.3584,-0.4668,-0.8716,-7.141,3.723,-10.315,-162.394,24.829,-27.642
1410,-0.3491,-0.3901,-0.8818,-24.231,7.446,-4.456,-162.565,24.697,-27.620
1420,-0.3867,-0.2847,-0.8926,-31.433,6.348,4.944,-162.900,24.631,-27.691
1430,-0.4365,-0.2070,-0.9014,-23.376,2.380,12.085,-163.229,24.648,-27.828
1440,-0.4731,-0.1572,-0.8970,-6.348,-3.052,12.756,-163.416,24.741,-27.949
1450,-0.4839,-0.1377,-0.8857,12.024,-8.667,7.751,-163.394,24.884,-28.004
1460,-0.4639,-0.2187,-0.8623,27.649,-10.803,-0.427,-163.130,25.010,-27.966
1470,-0.4175,-0.3667,-0.8452,30.762,-8.179,-7.751,-162.713,25.060,-27.861
1480,-0.3784,-0.4502,-0.8398,18.372,-3.418,-10.681,-162.372,25.027,-27.735
1491,-0.3516,-0.5034,-0.8467,-3.235,2.441,-8.301,-162.235,24.922,-27.658
1500,-0.3437,-0.4551,-0.8613,-27.466,6.714,-1.343,-162.411,24.802,-27.664
1510,-0.3765,-0.3008,-0.8789,-42.419,6.287,8.240,-162.861,24.741,-27.773
1520,-0.4375,-0.1489,-0.8877,-36.438,1.892,16.296,-163.372,24.780,-27.949
1530,-0.4893,-0.0889,-0.8877,-13.855,-3.723,18.188,-163.696,24.906,-28.130
1540,-0.4985,-0.0942,-0.8682,12.146,-9.216,11.902,-163.718,25.076,-28.229
1550,-0.4644,-0.1885,-0.8384,32.410,-13.123,-0.061,-163.416,25.236,-28.185
1560,-0.4165,-0.3579,-0.8135,38.086,-13.550,-11.414,-162.894,25.329,-28.021
1570,-0.3828,-0.4619,-0.8130,25.330,-9.399,-16.052,-162.438,25.340,-27.823
1580,-0.3706,-0.4673,-0.8320,3.601,-2.197,-11.963,-162.224,25.285,-27.691
1590,-0.3784,-0.4097,-0.8408,-16.357,5.249,-1.648,-162.307,25.197,-27.691
1600,-0.4111,-0.2998,-0.8633,-27.039,9.827,10.803,-162.620,25.126,-27.834
1610,-0.4556,-0.2178,-0.8828,-24.414,10.803,19.592,-162.999,25.098,-28.081
1620,-0.4829,-0.1440,-0.8945,-12.878,7.812,21.301,-163.312,25.115,-28.328
1630,-0.4922,-0.1187,-0.8936,1.404,1.404,16.113,-163.460,25.186,-28.504
1640,-0.4717,-0.2124,-0.8721,13.977,-4.028,6.714,-163.378,25.269,-28.564
1650,-0.4331,-0.3481,-0.8555,14.648,-6.409,-3.113,-163.152,25.318,-28.510
1660,-0.3911,-0.4268,-0.8535,1.648,-6.165,-9.460,-162.988,25.318,-28.389
1670,-0.3667,-0.4312,-0.8594,-16.541,-3.052,-9.949,-163.010,25.274,-28.273
1680,-0.3711,-0.3291,-0.8711,-30.762,-0.244,-4.456,-163.257,25.230,-28.224
1690,-0.4165,-0.2075,-0.8789,-29.236,-0.183,4.761,-163.603,25.236,-28.273
1700,-0.4653,-0.1499,-0.8882,-11.902,-0.610,11.475,-163.839,25.296,-28.394
1710,-0.4937,-0.1074,-0.8877,10.864,-2.319,11.353,-163.872,25.384,-28.510
1720,-0.4780,-0.1431,-0.8618,31.799,-4.333,5.066,-163.641,25.477,-28.548
1730,-0.4482,-0.2998,-0.8247,40.833,-5.005,-2.075,-163.185,25.532,-28.510
1740,-0.4131,-0.3979,-0.8062,29.602,-3.784,-7.019,-162.757,25.538,-28.427
1750,-0.3877,-0.4355,-0.8086,6.775,-0.671,-7.996,-162.543,25.494,-28.339
1760,-0.3726,-0.4111,-0.8281,-16.602,4.700,-4.822,-162.603,25.400,-28.301
1770,-0.3882,-0.3223,-0.8638,-33.264,8.545,1.770,-162.922,25.302,-28.350
1780,-0.4233,-0.1929,-0.8970,-34.485,9.338,8.240,-163.361,25.230,-28.466
1790,-0.4629,-0.1343,-0.9268,-18.860,7.629,11.108,-163.691,25.203,-28.608
1800,-0.4824,-0.1025,-0.9390,2.991,4.639,7.874,-163.806,25.197,-28.707
1810,-0.4609,-0.1328,-0.9170,25.696,0.610,-0.488,-163.630,25.203,-28.702
1820,-0.4336,-0.2793,-0.8794,40.039,-2.563,-8.118,-163.180,25.203,-28.608
1830,-0.3945,-0.4180,-0.8569,34.485,-2.808,-12.756,-162.686,25.164,-28.466
1840,-0.3652,-0.4438,-0.8472,14.099,-1.831,-13.489,-162.383,25.104,-28.317
1850,-0.3564,-0.4316,-0.8438,-8.057,-0.610,-9.705,-162.323,25.032,-28.213
1860,-0.3784,-0.3521,-0.8511,-25.269,0.183,-1.953,-162.515,24.999,-28.191
1870,-0.4326,-0.2515,-0.8735,-29.358,-0.916,5.249,-162.845,25.027,-28.246
1880,-0.4697,-0.1753,-0.8838,-19.653,-1.648,8.118,-163.130,25.093,-28.328
1890,-0.4902,-0.0977,-0.8818,-3.296,-3.723,6.104,-163.290,25.186,-28.378
1900,-0.4907,-0.1284,-0.8696,17.090,-5.554,0.671,-163.202,25.280,-28.367
1910,-0.4526,-0.2832,-0.8477,31.494,-3.052,-6.287,-162.839,25.307,-28.290
1920,-0.4048,-0.4121,-0.8408,26.184,0.916,-11.292,-162.444,25.247,-28.174
1930,-0.3730,-0.4438,-0.8398,6.287,4.089,-12.024,-162.230,25.131,-28.065
1940,-0.3594,-0.3784,-0.8379,-15.320,6.287,-7.874,-162.290,25.010,-27.999
1950,-0.3970,-0.2393,-0.8438,-26.306,4.456,0.488,-162.576,24.961,-28.021
1960,-0.4648,-0.1616,-0.8491,-20.386,1.160,7.568,-162.878,25.010,-28.103
1970,-0.5010,-0.1328,-0.8564,-5.554,-0.793,7.568,-163.048,25.087,-28.180
1980,-0.5020,-0.1694,-0.8638,7.568,-1.831,0.671,-163.032,25.153,-28.180
1991,-0.4575,-0.2847,-0.8623,13.489,0.671,-9.277,-162.845,25.137,-28.087
2000,-0.3955,-0.4053,-0.8677,7.019,4.883,-16.052,-162.636,25.016,-27.933
2010,-0.3447,-0.4551,-0.8794,-8.301,9.155,-16.968,-162.554,24.824,-27.784
2020,-0.3262,-0.4053,-0.9019,-23.437,10.620,-12.085,-162.680,24.620,-27.691
2030,-0.3540,-0.3037,-0.9185,-28.259,8.179,-2.686,-162.949,24.489,-27.691
2040,-0.4102,-0.2495,-0.9443,-20.447,3.845,5.920,-163.207,24.456,-27.768
2050,-0.4434,-0.2075,-0.9526,-4.333,0.305,8.484,-163.328,24.472,-27.856
2060,-0.4526,-0.2124,-0.9399,10.620,-3.540,5.371,-163.284,24.532,-27.900
2070,-0.4375,-0.2407,-0.9097,19.165,-5.981,-0.671,-163.103,24.587,-27.878
2080,-0.4155,-0.2793,-0.8794,20.752,-7.751,-5.981,-162.850,24.642,-27.790
2090,-0.4028,-0.3232,-0.8545,16.541,-8.301,-8.240,-162.609,24.686,-27.675
2100,-0.3965,-0.3389,-0.8394,8.057,-7.690,-7.751,-162.438,24.725,-27.565
2110,-0.4058,-0.3315,-0.8354,-1.648,-7.324,-4.761,-162.383,24.780,-27.493
2120,-0.4243,-0.2896,-0.8350,-9.216,-6.836,-1.038,-162.444,24.846,-27.460
2130,-0.4541,-0.2271,-0.8374,-9.644,-6.958,0.793,-162.554,24.944,-27.444
2140,-0.4756,-0.1987,-0.8296,-1.892,-6.226,0.488,-162.609,25.049,-27.427
2150,-0.4771,-0.1880,-0.8232,8.606,-4.822,-2.197,-162.554,25.131,-27.389
2160,-0.4644,-0.2344,-0.8052,18.066,-2.563,-5.493,-162.356,25.175,-27.323
2170,-0.4429,-0.3257,-0.7915,19.470,1.038,-7.568,-162.087,25.164,-27.246
2180,-0.4165,-0.4033,-0.8027,8.667,5.493,-7.751,-161.884,25.087,-27.186
2190,-0.3911,-0.4390,-0.8257,-10.315,9.949,-6.104,-161.878,24.950,-27.153
2200,-0.3784,-0.4038,-0.8574,-29.541,13.123,-2.197,-162.109,24.791,-27.175
2210,-0.3911,-0.3135,-0.8940,-40.344,12.817,3.479,-162.526,24.653,-27.257
2220,-0.4229,-0.2339,-0.9219,-36.316,9.888,7.385,-162.960,24.576,-27.367
2230,-0.4453,-0.2139,-0.9399,-20.264,5.493,7.202,-163.246,24.549,-27.460
2240,-0.4526,-0.2109,-0.9360,-1.526,0.671,3.052,-163.312,24.560,-27.493
2250,-0.4438,-0.2280,-0.9185,14.893,-3.540,-2.563,-163.180,24.587,-27.455
2260,-0.4292,-0.3218,-0.8901,25.818,-4.578,-6.470,-162.856,24.615,-27.372
2270,-0.4048,-0.3906,-0.8716,24.597,-3.113,-7.874,-162.504,24.604,-27.279
2280,-0.3906,-0.4175,-0.8613,14.099,-1.648,-6.409,-162.252,24.576,-27.208
2290,-0.3989,-0.3721,-0.8574,-0.305,-1.770,-2.197,-162.186,24.571,-27.180
2300,-0.4287,-0.2910,-0.8599,-9.949,-4.211,3.052,-162.285,24.626,-27.197
2310,-0.4668,-0.2368,-0.8647,-9.460,-6.592,5.676,-162.416,24.736,-27.235
2320,-0.4839,-0.1904,-0.8623,-2.136,-8.057,3.967,-162.493,24.862,-27.252
2330,-0.4795,-0.2007,-0.8545,7.812,-8.667,-0.244,-162.449,24.983,-27.219
2340,-0.4570,-0.2925,-0.8452,14.282,-6.592,-4.822,-162.263,25.049,-27.147
2350,-0.4194,-0.3501,-0.8472,11.169,-3.174,-7.996,-162.065,25.049,-27.048
2360,-0.3911,-0.3892,-0.8535,2.197,0.549,-7.324,-161.944,24.999,-26.977
2370,-0.3804,-0.3555,-0.8638,-7.812,3.113,-3.479,-161.966,24.933,-26.949
2380,-0.4062,-0.2852,-0.8701,-12.024,2.441,2.563,-162.098,24.906,-26.982
2390,-0.4429,-0.2300,-0.8779,-7.935,0.977,7.019,-162.241,24.928,-27.059
2400,-0.4629,-0.2144,-0.8843,0.671,0.000,7.568,-162.312,24.972,-27.142
2410,-0.4536,-0.2422,-0.8818,7.874,-0.122,4.517,-162.274,24.999,-27.186
2420,-0.4253,-0.2852,-0.8774,9.827,0.671,0.183,-162.175,24.994,-27.191
2430,-0.3960,-0.3418,-0.8711,5.737,1.648,-1.831,-162.081,24.950,-27.180
2440,-0.3794,-0.3818,-0.8789,-3.113,2.930,-0.916,-162.054,24.890,-27.180
2450,-0.3745,-0.3628,-0.8911,-13.367,3.540,2.136,-162.158,24.824,-27.213
2460,-0.3926,-0.2983,-0.9033,-19.714,2.197,6.409,-162.378,24.802,-27.290
2470,-0.4238,-0.2300,-0.9165,-17.822,0.061,9.216,-162.631,24.818,-27.383
2480,-0.4473,-0.1919,-0.9199,-7.202,-1.587,8.728,-162.795,24.868,-27.471
2491,-0.4438,-0.1851,-0.9053,7.629,-2.869,4.822,-162.795,24.917,-27.515
2500,-0.4272,-0.2290,-0.8716,19.714,-4.333,0.000,-162.620,24.961,-27.499
2511,-0.4102,-0.2773,-0.8413,22.644,-5.859,-2.563,-162.367,25.010,-27.455
2520,-0.4014,-0.3203,-0.8198,16.357,-6.470,-2.686,-162.147,25.054,-27.405
2530,-0.3955,-0.3242,-0.8218,4.761,-5.859,-1.465,-162.048,25.098,-27.367
2540,-0.4072,-0.3115,-0.8384,-6.775,-4.578,0.427,-162.087,25.137,-27.356
2550,-0.4229,-0.2891,-0.8652,-14.404,-2.502,1.282,-162.224,25.159,-27.361
2560,-0.4263,-0.2778,-0.8926,-15.747,-0.244,0.488,-162.389,25.159,-27.367
2570,-0.4180,-0.2637,-0.9092,-12.024,0.732,-0.977,-162.515,25.137,-27.356
2580,-0.4160,-0.2598,-0.9077,-4.456,-0.366,-2.258,-162.565,25.120,-27.334
2590,-0.4126,-0.2759,-0.8936,5.127,-2.563,-2.930,-162.499,25.120,-27.296
2600,-0.4082,-0.2900,-0.8682,13.916,-5.432,-3.052,-162.334,25.153,-27.246
2610,-0.4150,-0.3286,-0.8389,17.944,-7.812,-2.197,-162.098,25.214,-27.197
2620,-0.4199,-0.3311,-0.8203,14.282,-9.033,-0.854,-161.900,25.302,-27.153
2630,-0.4277,-0.3311,-0.8125,6.287,-8.606,0.977,-161.785,25.389,-27.136
2640,-0.4355,-0.2949,-0.8101,-2.075,-7.019,2.686,-161.790,25.477,-27.142
2650,-0.4512,-0.2666,-0.8179,-6.531,-5.554,4.211,-161.867,25.565,-27.164
2660,-0.4619,-0.2529,-0.8306,-6.226,-3.296,4.028,-161.955,25.637,-27.197
2670,-0.4614,-0.2368,-0.8384,-3.845,-1.892,2.197,-162.021,25.681,-27.213
2680,-0.4551,-0.2632,-0.8335,-0.610,-0.427,0.488,-162.032,25.703,-27.213
2690,-0.4443,-0.3032,-0.8384,-0.305,1.099,-0.732,-162.015,25.703,-27.213
2700,-0.4292,-0.3486,-0.8516,-5.066,3.113,-1.160,-162.021,25.659,-27.208
2710,-0.4146,-0.3491,-0.8818,-13.672,4.822,-0.671,-162.125,25.593,-27.219
2720,-0.4121,-0.3027,-0.9033,-19.592,5.127,0.854,-162.323,25.527,-27.246
2730,-0.4297,-0.2363,-0.9204,-17.212,3.357,2.991,-162.548,25.488,-27.290
2740,-0.4507,-0.2065,-0.9199,-5.188,0.122,3.296,-162.658,25.499,-27.323
2750,-0.4648,-0.2100,-0.9058,9.949,-2.991,0.916,-162.603,25.543,-27.323
2760,-0.4585,-0.2407,-0.8765,21.362,-5.432,-3.479,-162.389,25.593,-27.268
2770,-0.4429,-0.3281,-0.8496,24.475,-5.859,-6.287,-162.076,25.637,-27.186
2780,-0.4233,-0.3511,-0.8345,16.602,-4.822,-6.653,-161.823,25.653,-27.098
2790,-0.4155,-0.3569,-0.8311,4.700,-3.845,-4.272,-161.702,25.670,-27.037
2800,-0.4233,-0.3633,-0.8394,-6.714,-1.831,-0.305,-161.713,25.675,-27.026
2810,-0.4316,-0.2974,-0.8569,-15.198,-0.061,2.808,-161.867,25.681,-27.059
2820,-0.4502,-0.2432,-0.8721,-15.137,0.793,4.761,-162.065,25.697,-27.109
2830,-0.4580,-0.2280,-0.8726,-6.958,2.136,4.944,-162.197,25.703,-27.169
2840,-0.4580,-0.2178,-0.8589,3.113,2.197,3.418,-162.219,25.708,-27.213
2850,-0.4551,-0.2354,-0.8408,11.658,1.709,1.404,-162.131,25.719,-27.235
2860,-0.4487,-0.2886,-0.8228,15.381,2.502,-0.305,-161.966,25.708,-27.241
2870,-0.4390,-0.3486,-0.8193,10.254,4.333,-1.160,-161.818,25.670,-27.241
2880,-0.4331,-0.3530,-0.8335,-1.587,6.958,-0.854,-161.790,25.598,-27.257
2890,-0.4395,-0.3135,-0.8564,-12.939,8.606,1.099,-161.917,25.521,-27.301
2900,-0.4541,-0.2935,-0.8823,-17.273,9.644,3.784,-162.120,25.450,-27.372
2910,-0.4624,-0.2637,-0.9053,-15.686,9.216,5.188,-162.328,25.384,-27.460
2920,-0.4644,-0.2544,-0.9102,-9.705,7.202,4.883,-162.477,25.340,-27.532
2930,-0.4565,-0.2603,-0.9136,-3.357,4.395,3.235,-162.543,25.312,-27.581
2940,-0.4429,-0.3081,-0.9146,0.427,2.014,1.099,-162.537,25.291,-27.603
2950,-0.4155,-0.3320,-0.9141,-0.244,0.610,-0.488,-162.515,25.258,-27.598
2960,-0.4009,-0.3296,-0.9150,-3.174,-1.465,-0.488,-162.515,25.241,-27.587
2970,-0.4053,-0.3013,-0.9165,-4.456,-4.211,1.221,-162.554,25.263,-27.587
2980,-0.4194,-0.2578,-0.9048,-1.770,-7.812,2.563,-162.587,25.329,-27.587
2991,-0.4355,-0.2598,-0.8892,5.188,-11.108,2.380,-162.543,25.444,-27.576
3000,-0.4321,-0.2598,-0.8623,10.925,-12.817,0.549,-162.427,25.565,-27.537
3010,-0.4277,-0.2241,-0.8257,13.367,-14.465,-1.038,-162.290,25.708,-27.482
3020,-0.4360,-0.2529,-0.8003,14.587,-14.587,-1.221,-162.120,25.862,-27.416
3030,-0.4312,-0.3081,-0.7891,11.475,-11.292,-1.953,-161.949,25.972,-27.356
3040,-0.4165,-0.3384,-0.7891,2.075,-6.714,-2.380,-161.856,26.027,-27.312
3050,-0.4077,-0.3530,-0.8052,-11.414,-1.587,-0.488,-161.906,26.032,-27.301
3060,-0.4062,-0.3276,-0.8335,-23.865,2.502,2.747,-162.125,25.999,-27.339
3070,-0.4160,-0.2456,-0.8574,-28.198,4.456,6.165,-162.460,25.966,-27.416
3080,-0.4468,-0.1919,-0.8774,-21.423,4.272,8.362,-162.768,25.955,-27.521
3090,-0.4634,-0.1631,-0.8809,-6.653,3.662,7.080,-162.938,25.955,-27.609
3100,-0.4634,-0.1592,-0.8721,9.583,2.258,2.930,-162.927,25.961,-27.647
3110,-0.4448,-0.2256,-0.8462,22.278,1.465,-2.014,-162.724,25.950,-27.631
3120,-0.4209,-0.3403,-0.8330,22.522,2.319,-4.639,-162.433,25.906,-27.587
3130,-0.3970,-0.3989,-0.8408,8.057,4.211,-4.883,-162.257,25.823,-27.548
3140,-0.3843,-0.3862,-0.8652,-11.292,5.798,-3.052,-162.301,25.719,-27.537
3150,-0.3970,-0.3184,-0.8921,-24.414,5.981,1.099,-162.537,25.637,-27.570
3160,-0.4297,-0.2334,-0.9146,-25.208,4.395,4.822,-162.845,25.598,-27.636
3170,-0.4663,-0.1592,-0.9209,-12.817,0.916,5.920,-163.076,25.615,-27.702
3180,-0.4912,-0.1533,-0.8979,7.202,-2.930,3.601,-163.087,25.681,-27.729
3190,-0.4834,-0.1899,-0.8623,23.682,-5.615,-1.770,-162.883,25.763,-27.691
3200,-0.4590,-0.2729,-0.8257,31.311,-6.775,-6.348,-162.521,25.829,-27.603
3210,-0.4365,-0.3672,-0.8110,24.963,-5.920,-7.996,-162.164,25.862,-27.499
3220,-0.4131,-0.4062,-0.8184,7.935,-2.930,-7.690,-161.955,25.851,-27.405
3230,-0.4038,-0.3950,-0.8501,-11.292,-0.610,-5.371,-161.977,25.812,-27.350
3240,-0.4126,-0.3423,-0.8838,-23.376,0.916,-1.831,-162.169,25.779,-27.334
3250,-0.4365,-0.2383,-0.9102,-22.034,-0.366,0.732,-162.422,25.774,-27.339
3260,-0.4687,-0.1948,-0.9102,-6.165,-3.174,1.770,-162.537,25.818,-27.345
3270,-0.4785,-0.2090,-0.8843,15.747,-5.493,-0.793,-162.416,25.889,-27.323
3280,-0.4629,-0.2583,-0.8354,32.593,-6.897,-4.272,-162.065,25.961,-27.252
3290,-0.4453,-0.3262,-0.7905,36.499,-7.080,-5.310,-161.625,26.027,-27.169
3300,-0.4341,-0.4038,-0.7734,26.794,-5.310,-4.150,-161.241,26.071,-27.109
3310,-0.4180,-0.4019,-0.7769,8.179,-2.136,-1.892,-161.060,26.076,-27.081
3320,-0.4258,-0.3633,-0.8076,-9.644,0.000,1.892,-161.115,26.082,-27.103
3330,-0.4453,-0.3325,-0.8521,-20.630,2.625,5.737,-161.323,26.071,-27.169
3341,-0.4521,-0.2466,-0.8853,-22.461,4.822,6.775,-161.614,26.049,-27.263
3350,-0.4673,-0.2119,-0.8989,-13.367,4.761,6.409,-161.834,26.032,-27.345
3360,-0.4658,-0.2324,-0.8994,0.122,4.639,4.395,-161.900,26.010,-27.405
3371,-0.4458,-0.2427,-0.8882,10.742,3.479,1.099,-161.829,25.977,-27.433
3381,-0.4316,-0.2808,-0.8657,16.907,1.892,-0.488,-161.664,25.950,-27.433
3391,-0.4243,-0.3120,-0.8413,16.296,1.160,-0.305,-161.483,25.933,-27.433
3401,-0.4312,-0.3091,-0.8325,8.911,-0.427,1.282,-161.384,25.944,-27.444
3411,-0.4443,-0.3198,-0.8433,-0.183,-1.160,2.747,-161.373,25.966,-27.471
3421,-0.4448,-0.3350,-0.8711,-10.376,0.488,2.502,-161.466,25.961,-27.499
3431,-0.4307,-0.2949,-0.8960,-18.066,2.319,1.648,-161.658,25.933,-27.521
3441,-0.4297,-0.2539,-0.9111,-17.090,2.563,2.075,-161.867,25.900,-27.554
3450,-0.4390,-0.2383,-0.9136,-7.935,1.038,2.808,-161.993,25.889,-27.587
3461,-0.4429,-0.2583,-0.9004,3.784,-0.793,2.380,-161.988,25.900,-27.609
3471,-0.4419,-0.2759,-0.8760,11.597,-2.319,1.038,-161.878,25.922,-27.614
3481,-0.4326,-0.2949,-0.8584,12.817,-3.113,-0.061,-161.741,25.944,-27.603
3491,-0.4272,-0.3052,-0.8486,9.705,-3.113,-0.183,-161.625,25.966,-27.587
3501,-0.4253,-0.2920,-0.8472,5.127,-3.235,0.488,-161.565,25.994,-27.581
3511,-0.4365,-0.2617,-0.8457,2.014,-3.601,1.343,-161.554,26.038,-27.587
3521,-0.4512,-0.2466,-0.8452,1.343,-4.272,1.404,-161.565,26.093,-27.581
3531,-0.4585,-0.2612,-0.8457,2.075,-3.845,0.122,-161.548,26.142,-27.570
3541,-0.4497,-0.2842,-0.8452,1.404,-2.319,-1.831,-161.526,26.164,-27.543
3551,-0.4341,-0.3013,-0.8501,-1.160,-0.488,-2.625,-161.510,26.153,-27.515
3561,-0.4287,-0.3066,-0.8589,-4.517,0.366,-1.831,-161.537,26.136,-27.499
3571,-0.4297,-0.3188,-0.8682,-6.287,0.549,-0.549,-161.581,26.115,-27.493
3581,-0.4331,-0.3062,-0.8794,-6.287,-0.061,0.488,-161.636,26.109,-27.499
3591,-0.4409,-0.2861,-0.8818,-3.479,-1.282,1.343,-161.680,26.115,-27.510
3601,-0.4517,-0.2588,-0.8765,2.502,-2.319,1.526,-161.675,26.142,-27.515
3611,-0.4629,-0.2510,-0.8560,10.010,-3.540,1.099,-161.598,26.191,-27.515
3621,-0.4619,-0.2720,-0.8345,15.869,-4.211,-0.122,-161.439,26.246,-27.499
3631,-0.4609,-0.2954,-0.8125,15.808,-4.517,-1.160,-161.252,26.307,-27.471
3641,-0.4551,-0.3428,-0.8086,8.545,-3.967,-1.343,-161.115,26.351,-27.444
3651,-0.4385,-0.3721,-0.8223,-4.150,-1.526,-1.160,-161.093,26.356,-27.422
3661,-0.4297,-0.3535,-0.8506,-18.066,0.793,0.000,-161.235,26.334,-27.427
3671,-0.4331,-0.3110,-0.8784,-26.001,2.197,2.136,-161.499,26.307,-27.455
3681,-0.4482,-0.2183,-0.8896,-22.949,1.465,3.967,-161.796,26.301,-27.504
3691,-0.4814,-0.1616,-0.8770,-8.789,-1.709,4.639,-161.977,26.356,-27.548
3701,-0.5029,-0.1396,-0.8438,9.766,-4.578,2.502,-161.971,26.444,-27.559
3711,-0.5034,-0.1934,-0.7900,23.682,-6.226,-1.709,-161.763,26.554,-27.521
3721,-0.4824,-0.3296,-0.7617,22.278,-3.845,-4.944,-161.461,26.609,-27.455
3731,-0.4463,-0.3999,-0.7676,2.136,2.075,-6.165,-161.323,26.576,-27.394
3741,-0.4170,-0.3813,-0.8066,-26.062,8.057,-4.150,-161.510,26.472,-27.378
3751,-0.4204,-0.3218,-0.8613,-46.570,12.451,0.854,-161.977,26.340,-27.433
3761,-0.4448,-0.2563,-0.9307,-51.880,14.526,4.944,-162.559,26.202,-27.537
3771,-0.4551,-0.2251,-0.9902,-41.321,14.709,5.310,-163.059,26.060,-27.642
3781,-0.4429,-0.2358,-1.0161,-21.667,12.024,2.258,-163.345,25.922,-27.702
3791,-0.4141,-0.2622,-0.9966,-0.488,7.019,-1.343,-163.372,25.812,-27.713
3801,-0.4048,-0.2593,-0.9346,17.029,0.061,-1.831,-163.202,25.774,-27.691
3811,-0.4292,-0.2354,-0.8638,29.175,-7.935,0.305,-162.922,25.845,-27.669
3821,-0.4551,-0.2568,-0.8135,34.119,-12.451,1.648,-162.570,25.994,-27.647
3831,-0.4634,-0.3013,-0.7832,28.748,-12.512,0.183,-162.230,26.142,-27.609
3841,-0.4463,-0.3511,-0.7769,13.245,-7.935,-2.197,-162.010,26.224,-27.559
3851,-0.4189,-0.3633,-0.8027,-9.460,-1.831,-2.808,-162.026,26.224,-27.521
3861,-0.4004,-0.3223,-0.8447,-28.381,2.991,-1.160,-162.279,26.169,-27.521
3871,-0.4062,-0.2510,-0.8770,-33.386,4.700,1.648,-162.642,26.109,-27.554
3881,-0.4243,-0.2246,-0.9097,-23.804,3.418,2.930,-162.927,26.065,-27.598
3891,-0.4268,-0.2295,-0.9121,-6.775,1.526,1.953,-163.037,26.043,-27.620
3901,-0.4282,-0.2344,-0.8921,9.521,-0.977,0.061,-162.966,26.038,-27.620
3911,-0.4253,-0.2749,-0.8613,20.752,-2.014,-1.221,-162.746,26.049,-27.598
3921,-0.4175,-0.2739,-0.8213,24.902,-2.686,-1.282,-162.477,26.065,-27.576
3931,-0.4287,-0.2759,-0.7920,23.437,-4.272,0.000,-162.219,26.115,-27.565
3941,-0.4468,-0.2891,-0.7812,15.442,-4.517,1.648,-162.043,26.186,-27.565
3951,-0.4644,-0.2915,-0.7983,3.296,-3.540,1.831,-161.993,26.246,-27.570
3961,-0.4614,-0.2993,-0.8291,-8.301,0.549,0.366,-162.059,26.257,-27.576
3971,-0.4424,-0.2729,-0.8535,-16.235,4.944,-1.404,-162.224,26.208,-27.581
3981,-0.4414,-0.2764,-0.8877,-17.334,6.897,-1.587,-162.400,26.131,-27.587
3991,-0.4341,-0.2944,-0.9126,-12.634,7.812,-1.892,-162.526,26.032,-27.592
4001,-0.4268,-0.2788,-0.9146,-5.249,5.859,-1.892,-162.581,25.950,-27.592
4011,-0.4390,-0.2769,-0.9033,2.991,2.136,-0.305,-162.559,25.922,-27.598
4021,-0.4536,-0.2715,-0.8906,9.949,-1.343,0.977,-162.466,25.939,-27.603
4031,-0.4585,-0.2568,-0.8657,15.076,-3.845,0.977,-162.328,25.988,-27.598
4041,-0.4678,-0.2480,-0.8428,17.090,-5.920,0.671,-162.164,26.065,-27.587
4051,-0.4731,-0.2715,-0.8271,14.893,-6.409,0.061,-162.004,26.147,-27.565
4061,-0.4658,-0.3105,-0.8296,7.263,-4.456,-1.648,-161.895,26.202,-27.532
4071,-0.4468,-0.3320,-0.8408,-3.784,-1.221,-3.296,-161.878,26.202,-27.493
4081,-0.4316,-0.2900,-0.8613,-13.733,1.160,-3.296,-161.999,26.175,-27.460
4091,-0.4355,-0.2686,-0.8818,-15.808,1.953,-1.709,-162.158,26.142,-27.449
4101,-0.4351,-0.2144,-0.8848,-9.338,1.404,-0.854,-162.290,26.120,-27.444
4111,-0.4351,-0.1675,-0.8594,3.784,-1.892,-1.465,-162.312,26.136,-27.422
4121,-0.4365,-0.1768,-0.8257,19.165,-5.615,-3.784,-162.153,26.191,-27.367
4131,-0.4321,-0.2642,-0.7998,26.855,-5.981,-6.897,-161.840,26.235,-27.274
4141,-0.4180,-0.3521,-0.7964,20.081,-1.587,-9.338,-161.537,26.219,-27.169
4151,-0.3887,-0.3882,-0.8110,2.136,5.432,-9.949,-161.411,26.104,-27.081
4161,-0.3730,-0.3501,-0.8315,-16.541,9.521,-8.240,-161.510,25.955,-27.026
4171,-0.4014,-0.2861,-0.8652,-26.245,8.606,-3.357,-161.768,25.840,-27.021
4181,-0.4492,-0.2295,-0.9033,-23.193,6.104,0.671,-162.048,25.785,-27.054
4191,-0.4790,-0.1265,-0.9028,-9.216,3.906,0.854,-162.252,25.768,-27.076
4201,-0.5044,-0.0854,-0.8735,13.245,1.099,-1.770,-162.235,25.796,-27.059
4211,-0.4946,-0.2334,-0.8354,33.142,1.465,-6.531,-161.900,25.801,-26.993
4221,-0.4419,-0.3838,-0.8267,31.311,4.333,-11.597,-161.477,25.724,-26.889
4231,-0.3882,-0.4595,-0.8418,9.338,7.507,-13.977,-161.230,25.576,-26.768
4241,-0.3525,-0.4727,-0.8823,-19.165,10.132,-12.024,-161.285,25.378,-26.675
4251,-0.3579,-0.4150,-0.9248,-40.588,9.521,-6.104,-161.620,25.214,-26.647
4261,-0.4043,-0.2441,-0.9629,-44.189,4.456,0.610,-162.109,25.142,-26.669
4271,-0.4756,-0.1396,-0.9678,-23.865,-2.686,4.456,-162.460,25.186,-26.708
4281,-0.5181,-0.1426,-0.9331,7.812,-7.629,2.502,-162.471,25.302,-26.708
4291,-0.5044,-0.1724,-0.8682,34.546,-10.010,-4.456,-162.158,25.428,-26.625
4301,-0.4644,-0.2979,-0.7969,47.546,-10.071,-10.315,-161.598,25.521,-26.483
4311,-0.4263,-0.4165,-0.7539,38.330,-7.629,-12.146,-161.049,25.565,-26.329
4321,-0.3950,-0.4668,-0.7534,11.475,-3.784,-10.559,-160.752,25.549,-26.202
4331,-0.3882,-0.4146,-0.7954,-19.104,-0.122,-6.348,-160.829,25.510,-26.136
4341,-0.4106,-0.3608,-0.8540,-37.903,3.113,-1.709,-161.164,25.461,-26.131
4351,-0.4355,-0.3013,-0.9219,-40.894,5.554,-0.366,-161.587,25.395,-26.147
4361,-0.4365,-0.2241,-0.9458,-27.100,4.944,-1.770,-161.906,25.329,-26.147
4371,-0.4429,-0.2056,-0.9282,-2.197,0.671,-2.991,-161.971,25.312,-26.115
4381,-0.4443,-0.2437,-0.8818,24.170,-2.991,-3.723,-161.735,25.334,-26.065
4391,-0.4307,-0.3149,-0.8159,39.185,-5.615,-3.723,-161.296,25.384,-26.010
4401,-0.4282,-0.3794,-0.7749,36.255,-6.653,-2.075,-160.840,25.450,-25.966
4411,-0.4263,-0.3892,-0.7607,19.775,-4.822,-0.122,-160.560,25.505,-25.944
4421,-0.4312,-0.3638,-0.7778,0.244,-1.526,1.953,-160.505,25.538,-25.961
4431,-0.4438,-0.2974,-0.8047,-14.587,1.953,3.601,-160.664,25.549,-26.005
4441,-0.4668,-0.2285,-0.8389,-19.409,3.784,4.395,-160.922,25.554,-26.065
4451,-0.4814,-0.2251,-0.8711,-13.672,5.310,2.869,-161.125,25.538,-26.115
4461,-0.4595,-0.2378,-0.8833,-3.601,6.592,-1.831,-161.197,25.483,-26.120
4471,-0.4292,-0.2612,-0.8730,6.531,6.287,-5.371,-161.142,25.406,-26.082
4481,-0.4165,-0.3442,-0.8652,12.634,5.493,-5.676,-160.972,25.323,-26.043
4491,-0.4043,-0.4136,-0.8745,9.521,5.737,-4.883,-160.801,25.225,-26.016
4501,-0.3882,-0.4302,-0.8906,-0.244,5.981,-3.235,-160.730,25.120,-26.005
4512,-0.3872,-0.3721,-0.9048,-8.911,5.127,0.305,-160.801,25.038,-26.021
4521,-0.4136,-0.2612,-0.9023,-9.277,1.465,4.883,-160.944,25.032,-26.082
4531,-0.4590,-0.2134,-0.8862,1.343,-3.601,7.446,-161.016,25.104,-26.142
4541,-0.4819,-0.1621,-0.8447,15.747,-7.141,5.615,-160.955,25.230,-26.180
4551,-0.4834,-0.1611,-0.7939,27.100,-9.705,1.099,-160.752,25.384,-26.153
4561,-0.4785,-0.2915,-0.7778,29.602,-7.385,-3.235,-160.417,25.483,-26.093
4571,-0.4419,-0.4404,-0.8013,15.869,0.977,-8.057,-160.137,25.455,-26.016
4581,-0.3823,-0.4756,-0.8477,-9.644,10.437,-11.414,-160.104,25.280,-25.933
4591,-0.3472,-0.4521,-0.9102,-33.020,16.235,-9.094,-160.351,25.032,-25.900
4601,-0.3540,-0.3442,-0.9580,-42.725,16.174,-1.465,-160.790,24.818,-25.944
4611,-0.4033,-0.2334,-0.9858,-31.311,9.521,6.714,-161.202,24.719,-26.049
4621,-0.4565,-0.1904,-0.9780,-4.578,1.038,10.254,-161.373,24.741,-26.158
4631,-0.4771,-0.1445,-0.9214,22.400,-5.859,7.568,-161.268,24.846,-26.219
4641,-0.4766,-0.1235,-0.8345,44.067,-11.353,2.319,-160.933,25.005,-26.202
4651,-0.4761,-0.2622,-0.7656,53.711,-13.062,-1.282,-160.373,25.175,-26.142
4661,-0.4468,-0.4458,-0.7520,41.321,-7.629,-5.188,-159.824,25.247,-26.060
4671,-0.3965,-0.4917,-0.7861,8.118,0.854,-8.789,-159.587,25.192,-25.972
4681,-0.3569,-0.4604,-0.8477,-28.015,7.263,-8.606,-159.758,25.043,-25.911
4691,-0.3618,-0.3584,-0.9067,-49.255,10.315,-2.991,-160.236,24.890,-25.917
4701,-0.3989,-0.1997,-0.9580,-46.204,7.812,3.845,-160.801,24.807,-25.988
4711,-0.4536,-0.1050,-0.9600,-18.188,1.038,7.751,-161.147,24.824,-26.071
4721,-0.4854,-0.1104,-0.9185,17.883,-5.798,5.432,-161.104,24.922,-26.109
4731,-0.4663,-0.2217,-0.8384,44.800,-9.583,-1.221,-160.681,25.043,-26.060
4741,-0.4360,-0.3823,-0.7866,47.546,-9.705,-6.348,-160.104,25.126,-25.961
4751,-0.3906,-0.4663,-0.7725,26.733,-5.066,-9.705,-159.675,25.126,-25.840
4761,-0.3550,-0.4580,-0.7930,-2.930,-0.122,-9.277,-159.565,25.054,-25.741
4771,-0.3599,-0.4282,-0.8379,-26.184,2.991,-3.784,-159.747,24.972,-25.714
4781,-0.3970,-0.2944,-0.8921,-36.255,3.967,2.258,-160.142,24.922,-25.752
4791,-0.4448,-0.2017,-0.9292,-26.428,1.953,5.981,-160.510,24.928,-25.823
4801,-0.4687,-0.1948,-0.9238,-4.578,-0.183,5.432,-160.653,24.961,-25.878
4811,-0.4604,-0.1948,-0.8901,16.479,-2.808,1.160,-160.560,25.010,-25.878
4821,-0.4409,-0.2812,-0.8345,32.043,-4.700,-2.747,-160.230,25.060,-25.834
4831,-0.4131,-0.3882,-0.7983,31.677,-4.395,-4.578,-159.829,25.087,-25.768
4841,-0.3882,-0.4326,-0.7930,14.832,-2.930,-4.517,-159.576,25.076,-25.714
4851,-0.3867,-0.3940,-0.8096,-6.592,-1.587,-2.258,-159.571,25.065,-25.686
4861,-0.4146,-0.3032,-0.8369,-19.531,-1.404,1.282,-159.774,25.082,-25.692
4871,-0.4541,-0.2803,-0.8711,-19.531,-0.854,2.991,-160.005,25.115,-25.719
4881,-0.4629,-0.2412,-0.8906,-10.925,0.305,1.160,-160.164,25.131,-25.730
4891,-0.4482,-0.2578,-0.8828,1.648,0.244,-2.075,-160.175,25.131,-25.714
4901,-0.4292,-0.3057,-0.8599,11.047,0.183,-3.906,-160.049,25.115,-25.670
4911,-0.4155,-0.3672,-0.8452,13.245,-0.061,-3.601,-159.868,25.098,-25.637
4921,-0.4004,-0.3926,-0.8438,6.897,0.061,-2.563,-159.741,25.071,-25.609
4931,-0.3975,-0.3867,-0.8569,-2.747,-0.244,-0.793,-159.725,25.049,-25.598
4941,-0.4111,-0.3745,-0.8765,-9.949,-0.793,1.343,-159.802,25.043,-25.609
4951,-0.4253,-0.3208,-0.8916,-11.475,-1.770,2.991,-159.928,25.060,-25.637
4961,-0.4468,-0.2944,-0.8921,-5.981,-3.052,3.845,-160.016,25.104,-25.664
4971,-0.4551,-0.2466,-0.8784,3.540,-3.967,2.808,-160.032,25.164,-25.675
4981,-0.4629,-0.2290,-0.8477,14.954,-5.615,1.221,-159.928,25.247,-25.670
4992,-0.4609,-0.2520,-0.8164,24.231,-6.348,-0.793,-159.703,25.334,-25.637
5001,-0.4404,-0.3682,-0.7891,14.404,-3.723,-3.723,-159.489,25.373,-25.582
5011,-0.4263,-0.3965,-0.8125,-2.625,-0.244,-4.211,-159.445,25.356,-25.538
5021,-0.4155,-0.3984,-0.8525,-17.944,3.418,-3.418,-159.565,25.302,-25.516
5031,-0.4131,-0.3550,-0.8911,-25.146,6.226,-1.892,-159.802,25.214,-25.521
5041,-0.4155,-0.2944,-0.9111,-21.667,5.737,0.305,-160.049,25.148,-25.543
5051,-0.4307,-0.2778,-0.9194,-9.155,3.052,2.197,-160.186,25.115,-25.582
5061,-0.4351,-0.2754,-0.9067,6.226,-0.183,1.770,-160.164,25.120,-25.598
5071,-0.4277,-0.2788,-0.8706,20.020,-3.662,0.122,-159.977,25.153,-25.587
5081,-0.4238,-0.2891,-0.8213,28.015,-6.653,-0.305,-159.697,25.219,-25.554
5091,-0.4351,-0.3291,-0.7866,26.245,-8.850,0.427,-159.401,25.323,-25.527
5101,-0.4443,-0.3706,-0.7832,16.052,-8.057,0.549,-159.186,25.417,-25.499
5111,-0.4380,-0.3823,-0.8018,0.610,-4.395,-0.793,-159.120,25.466,-25.477
5121,-0.4224,-0.3765,-0.8291,-14.282,0.427,-1.404,-159.219,25.450,-25.461
5131,-0.4175,-0.3555,-0.8662,-23.193,4.211,-0.427,-159.439,25.395,-25.477
5141,-0.4175,-0.3130,-0.8999,-22.644,5.615,1.038,-159.692,25.329,-25.510
5151,-0.4214,-0.2700,-0.9097,-12.207,4.883,2.075,-159.868,25.280,-25.549
5161,-0.4414,-0.2412,-0.8984,3.845,1.953,2.258,-159.895,25.269,-25.582
5171,-0.4492,-0.2749,-0.8726,20.142,-0.793,0.305,-159.719,25.285,-25.582
5181,-0.4326,-0.3228,-0.8340,28.320,-2.258,-2.441,-159.417,25.302,-25.543
5191,-0.4248,-0.3408,-0.8037,24.353,-4.150,-2.869,-159.131,25.340,-25.499
5201,-0.4258,-0.3633,-0.7959,13.733,-4.517,-1.526,-158.945,25.378,-25.466
5211,-0.4263,-0.3750,-0.8096,-0.427,-2.991,-0.427,-158.906,25.406,-25.450
5221,-0.4268,-0.3496,-0.8438,-13.672,-0.793,0.061,-159.027,25.411,-25.444
5231,-0.4277,-0.3208,-0.8765,-19.165,1.648,0.061,-159.225,25.389,-25.455
5241,-0.4258,-0.2930,-0.8911,-15.137,3.052,-0.366,-159.406,25.351,-25.461
5251,-0.4253,-0.2671,-0.8862,-4.333,2.380,-0.305,-159.489,25.318,-25.466
5261,-0.4341,-0.2573,-0.8638,8.789,0.061,-0.305,-159.439,25.323,-25.466
5271,-0.4424,-0.2759,-0.8252,19.104,-2.502,-1.282,-159.263,25.356,-25.444
5281,-0.4419,-0.3237,-0.7959,21.301,-3.601,-2.441,-159.022,25.400,-25.400
5291,-0.4341,-0.3770,-0.7920,13.184,-2.563,-2.930,-158.829,25.422,-25.362
5301,-0.4180,-0.4146,-0.8101,-2.014,0.061,-3.357,-158.774,25.406,-25.329
5311,-0.4023,-0.4316,-0.8472,-18.921,3.296,-2.625,-158.895,25.340,-25.312
5321,-0.3965,-0.3823,-0.8936,-31.311,5.493,-0.610,-159.192,25.252,-25.329
5331,-0.4126,-0.2612,-0.9150,-30.334,5.127,1.770,-159.560,25.197,-25.367
5341,-0.4531,-0.1587,-0.9067,-13.428,2.502,3.967,-159.818,25.197,-25.417
5351,-0.4868,-0.1113,-0.8672,14.282,-0.916,2.686,-159.818,25.252,-25.444
5361,-0.4932,-0.2324,-0.8086,38.696,-2.930,-1.953,-159.461,25.323,-25.411
5371,-0.4629,-0.4678,-0.8032,38.269,-0.732,-8.118,-158.950,25.312,-25.323
5381,-0.3984,-0.5635,-0.8354,11.780,5.005,-14.160,-158.648,25.181,-25.197
5391,-0.3354,-0.5757,-0.8955,-21.118,9.460,-15.930,-158.692,24.961,-25.071
5401,-0.3228,-0.4224,-0.9390,-42.358,8.972,-9.277,-159.055,24.769,-25.016
5411,-0.4009,-0.2095,-0.9634,-34.973,0.732,2.136,-159.500,24.741,-25.038
5421,-0.4961,-0.1450,-0.9404,-1.038,-7.690,9.338,-159.653,24.873,-25.104
5431,-0.5400,-0.1387,-0.8711,35.217,-13.000,7.202,-159.428,25.087,-25.131
5441,-0.5171,-0.2437,-0.7808,58.533,-14.465,-0.427,-158.857,25.291,-25.071
5451,-0.4717,-0.3906,-0.7075,56.519,-11.902,-6.714,-158.170,25.428,-24.950
5461,-0.4277,-0.4390,-0.6860,30.334,-7.324,-10.071,-157.703,25.477,-24.818
5471,-0.3906,-0.4609,-0.7236,-2.502,-0.916,-9.766,-157.582,25.439,-24.714
5481,-0.3730,-0.4624,-0.7925,-28.992,5.676,-6.348,-157.775,25.329,-24.675
5492,-0.3794,-0.4263,-0.8682,-44.739,10.071,-2.319,-158.187,25.192,-24.692
5501,-0.3906,-0.3379,-0.9360,-45.654,11.108,1.160,-158.681,25.054,-24.752
5511,-0.4102,-0.2568,-0.9556,-29.663,7.812,4.028,-159.071,24.972,-24.824
5521,-0.4346,-0.2266,-0.9312,-2.502,2.563,6.104,-159.197,24.966,-24.895
5531,-0.4502,-0.2344,-0.8691,26.428,-1.221,5.188,-159.011,25.010,-24.944
5541,-0.4399,-0.2817,-0.7925,44.739,-3.357,2.319,-158.588,25.076,-24.955
5551,-0.4316,-0.3604,-0.7422,43.335,-3.967,0.793,-158.110,25.142,-24.944
5561,-0.4258,-0.4277,-0.7300,24.597,-2.197,-0.793,-157.775,25.175,-24.928
5571,-0.4062,-0.4189,-0.7617,-0.854,1.709,-2.625,-157.709,25.148,-24.911
5581,-0.3975,-0.3706,-0.8110,-21.057,5.127,-2.563,-157.896,25.082,-24.906
5591,-0.4150,-0.3198,-0.8643,-28.076,7.202,-1.343,-158.198,24.999,-24.922
5601,-0.4248,-0.2832,-0.9019,-20.813,7.935,-1.099,-158.456,24.917,-24.944
5611,-0.4307,-0.2915,-0.9155,-4.700,6.409,-1.709,-158.544,24.840,-24.950
5621,-0.4175,-0.3452,-0.8979,11.963,4.761,-2.991,-158.423,24.774,-24.939
5631,-0.3984,-0.3726,-0.8604,20.386,2.380,-3.235,-158.192,24.725,-24.917
5641,-0.4023,-0.3696,-0.8213,19.531,-0.854,-1.465,-157.967,24.719,-24.895
5651,-0.4150,-0.3750,-0.7993,15.259,-2.808,0.671,-157.786,24.752,-24.895
5661,-0.4316,-0.3643,-0.7944,8.606,-3.113,1.831,-157.676,24.802,-24.901
5671,-0.4409,-0.3398,-0.8003,0.793,-1.892,1.953,-157.670,24.846,-24.911
5681,-0.4424,-0.3521,-0.8164,-5.737,0.793,1.404,-157.725,24.862,-24.928
5691,-0.4307,-0.3447,-0.8379,-11.292,3.967,0.183,-157.841,24.835,-24.944
5701,-0.4175,-0.3394,-0.8613,-12.512,5.920,-0.366,-157.978,24.769,-24.966
5711,-0.4126,-0.3579,-0.8794,-9.216,6.897,-0.061,-158.082,24.697,-24.994
5721,-0.4092,-0.3511,-0.8848,-4.883,6.775,0.183,-158.143,24.620,-25.027
5731,-0.4180,-0.3286,-0.8853,-0.427,4.395,1.038,-158.176,24.576,-25.054
5741,-0.4341,-0.3174,-0.8750,5.127,1.526,1.892,-158.154,24.571,-25.082
5751,-0.4443,-0.3359,-0.8584,11.230,-0.916,1.526,-158.055,24.598,-25.093
5761,-0.4380,-0.3472,-0.8467,12.939,-2.014,0.000,-157.917,24.626,-25.082
5771,-0.4268,-0.3428,-0.8311,10.498,-3.174,-1.160,-157.802,24.659,-25.060
5781,-0.4253,-0.3706,-0.8193,5.432,-3.601,-0.732,-157.714,24.697,-25.038
5791,-0.4224,-0.3691,-0.8223,-2.441,-3.052,-0.183,-157.714,24.725,-25.021
5801,-0.4268,-0.3369,-0.8325,-8.667,-2.258,0.244,-157.802,24.758,-25.016
5811,-0.4385,-0.2964,-0.8389,-9.949,-0.732,0.732,-157.928,24.780,-25.016
5821,-0.4478,-0.2363,-0.8379,-5.432,0.732,0.061,-158.049,24.796,-25.021
5831,-0.4521,-0.1680,-0.7949,6.653,0.916,-1.465,-158.077,24.829,-25.010
5841,-0.4702,-0.2144,-0.7578,18.066,-0.488,-2.075,-157.950,24.884,-24.988
5851,-0.4648,-0.4014,-0.7612,17.273,2.258,-4.822,-157.703,24.879,-24.950
5861,-0.3936,-0.5010,-0.7881,-3.540,9.277,-10.498,-157.610,24.736,-24.879
5871,-0.3452,-0.5205,-0.8350,-33.569,13.916,-12.024,-157.819,24.510,-24.813
5881,-0.3252,-0.4634,-0.9077,-57.434,15.686,-8.362,-158.329,24.263,-24.796
5891,-0.3521,-0.2852,-0.9556,-60.547,13.184,-2.380,-158.994,24.088,-24.824
5901,-0.4136,-0.1255,-0.9653,-35.583,6.165,2.808,-159.505,24.027,-24.879
5911,-0.4839,-0.1201,-0.9434,5.554,0.183,3.662,-159.593,24.071,-24.917
5921,-0.4756,-0.2471,-0.8887,40.710,-0.671,-3.174,-159.225,24.099,-24.879
5931,-0.4062,-0.4565,-0.8359,51.758,0.732,-11.719,-158.588,24.038,-24.763
5941,-0.3442,-0.5742,-0.8193,33.264,2.441,-15.442,-158.066,23.912,-24.615
5951,-0.2935,-0.5786,-0.8569,0.427,3.418,-14.282,-157.885,23.747,-24.483
5961,-0.2983,-0.4575,-0.8896,-22.583,2.441,-7.202,-158.033,23.626,-24.423
5971,-0.3735,-0.3350,-0.9302,-26.917,-0.793,2.563,-158.329,23.615,-24.445
5981,-0.4355,-0.3062,-0.9531,-11.780,-3.113,7.080,-158.511,23.665,-24.505
5992,-0.4565,-0.2485,-0.9253,9.216,-6.042,5.127,-158.494,23.758,-24.532
6001,-0.4561,-0.2642,-0.8550,28.442,-9.094,1.709,-158.247,23.879,-24.510
6011,-0.4365,-0.3115,-0.7886,37.720,-9.766,-0.244,-157.857,24.005,-24.472
6021,-0.4268,-0.3799,-0.7466,33.508,-8.484,-0.183,-157.462,24.109,-24.434
6031,-0.4185,-0.3955,-0.7310,18.494,-5.432,0.061,-157.214,24.186,-24.412
6041,-0.4199,-0.4053,-0.7588,-1.831,-2.014,0.488,-157.176,24.225,-24.406
6051,-0.4170,-0.3916,-0.8120,-21.057,2.563,0.549,-157.363,24.208,-24.423
6061,-0.4194,-0.3203,-0.8682,-31.982,5.859,0.671,-157.714,24.159,-24.456
6071,-0.4258,-0.3057,-0.9033,-27.588,7.324,0.732,-158.038,24.099,-24.494
6081,-0.4102,-0.3091,-0.9248,-14.465,7.019,-0.488,-158.231,24.016,-24.516
6091,-0.3975,-0.3179,-0.9175,1.465,4.456,-1.953,-158.242,23.950,-24.516
6101,-0.3921,-0.3569,-0.8882,15.076,1.038,-2.502,-158.082,23.917,-24.494
6111,-0.3901,-0.3989,-0.8579,20.630,-1.831,-1.892,-157.835,23.912,-24.467
6121,-0.3896,-0.4229,-0.8311,17.273,-4.089,-0.549,-157.604,23.934,-24.445
6131,-0.4033,-0.3857,-0.8179,9.399,-5.249,1.465,-157.484,23.989,-24.439
6141,-0.4248,-0.3145,-0.8105,3.357,-6.165,3.296,-157.467,24.077,-24.445
6151,-0.4492,-0.3032,-0.8086,3.052,-6.042,3.967,-157.462,24.181,-24.461
6161,-0.4497,-0.3286,-0.8101,3.967,-3.662,1.831,-157.429,24.252,-24.461
6171,-0.4277,-0.3555,-0.8125,1.953,-0.244,-1.526,-157.390,24.263,-24.445
6181,-0.4038,-0.3999,-0.8301,-2.747,3.296,-3.174,-157.379,24.214,-24.428
6191,-0.3833,-0.4165,-0.8550,-8.667,6.470,-2.686,-157.434,24.126,-24.428
6201,-0.3750,-0.3623,-0.8730,-12.146,7.141,-0.061,-157.566,24.033,-24.461
6211,-0.4023,-0.2905,-0.8750,-8.118,4.639,4.211,-157.709,24.005,-24.521
6221,-0.4438,-0.2842,-0.8672,2.930,1.587,6.348,-157.753,24.033,-24.593
6231,-0.4395,-0.3159,-0.8403,12.634,0.183,4.150,-157.659,24.066,-24.637
6241,-0.4238,-0.3364,-0.8101,13.428,-1.465,0.793,-157.527,24.099,-24.637
6251,-0.4155,-0.3853,-0.8076,5.615,-2.075,-1.160,-157.429,24.120,-24.615
6261,-0.3950,-0.3984,-0.8198,-6.042,-0.061,-2.563,-157.445,24.104,-24.587
6271,-0.3828,-0.3682,-0.8413,-14.648,1.465,-2.625,-157.571,24.071,-24.571
6281,-0.3955,-0.3291,-0.8535,-14.771,2.563,-0.793,-157.736,24.033,-24.571
6291,-0.4209,-0.3057,-0.8652,-7.385,2.197,0.671,-157.841,24.022,-24.587
6301,-0.4263,-0.3271,-0.8589,4.578,2.502,0.061,-157.813,24.011,-24.598
6311,-0.4116,-0.3394,-0.8330,13.916,2.502,-1.648,-157.676,23.989,-24.593
6321,-0.4082,-0.3779,-0.8174,16.052,1.587,-1.709,-157.484,23.967,-24.582
6331,-0.3979,-0.4092,-0.8091,11.169,2.136,-1.343,-157.330,23.945,-24.576
6341,-0.3901,-0.4170,-0.8125,0.916,2.319,-0.427,-157.280,23.912,-24.582
6351,-0.3906,-0.4370,-0.8364,-11.108,2.625,1.404,-157.352,23.879,-24.609
6361,-0.3838,-0.4316,-0.8687,-21.118,3.418,2.808,-157.538,23.835,-24.648
6371,-0.3813,-0.3486,-0.8906,-24.658,3.113,4.456,-157.813,23.802,-24.708
6381,-0.4072,-0.3042,-0.8984,-16.174,1.404,6.592,-158.038,23.807,-24.780
6391,-0.4258,-0.2876,-0.8979,-0.244,1.160,6.714,-158.115,23.829,-24.851
6401,-0.4258,-0.2827,-0.8711,15.808,0.854,3.845,-158.011,23.846,-24.895
6411,-0.4165,-0.3218,-0.8354,26.123,0.732,0.854,-157.769,23.851,-24.906
6421,-0.4019,-0.3945,-0.8047,25.513,0.183,-0.366,-157.473,23.851,-24.906
6431,-0.3965,-0.4258,-0.8071,12.634,0.000,0.061,-157.297,23.851,-24.906
6441,-0.3916,-0.4209,-0.8296,-4.333,1.587,0.854,-157.302,23.829,-24.922
6451,-0.3950,-0.3652,-0.8638,-17.151,3.357,2.380,-157.489,23.796,-24.961
6461,-0.4121,-0.3130,-0.8984,-18.738,4.089,3.174,-157.725,23.769,-25.010
6471,-0.4229,-0.2656,-0.9092,-8.423,4.150,2.563,-157.885,23.741,-25.049
6481,-0.4277,-0.2471,-0.8872,7.507,2.808,1.221,-157.885,23.730,-25.076
6492,-0.4233,-0.3081,-0.8442,21.545,1.465,-0.305,-157.692,23.730,-25.076
6501,-0.4038,-0.3862,-0.8242,22.583,0.610,-1.221,-157.440,23.725,-25.071
6513,-0.3828,-0.4150,-0.8174,11.414,0.427,-1.465,-157.280,23.703,-25.054
6521,-0.3745,-0.4004,-0.8257,-4.822,0.854,-0.061,-157.297,23.681,-25.060
6531,-0.3926,-0.3901,-0.8594,-18.127,1.648,2.502,-157.473,23.665,-25.093
6541,-0.4004,-0.3750,-0.9038,-24.658,3.540,3.296,-157.731,23.632,-25.137
6551,-0.4023,-0.3066,-0.9312,-21.851,4.578,2.258,-158.005,23.582,-25.181
6561,-0.4082,-0.2671,-0.9360,-8.667,4.150,1.709,-158.165,23.544,-25.214
6571,-0.4121,-0.2671,-0.9194,9.033,2.563,0.732,-158.143,23.522,-25.230
6581,-0.4023,-0.3315,-0.8770,24.902,0.488,-1.221,-157.901,23.511,-25.225
6591,-0.3896,-0.3740,-0.8286,28.137,-2.014,-2.136,-157.588,23.516,-25.192
6601,-0.3901,-0.3843,-0.8066,18.677,-4.578,-1.343,-157.363,23.555,-25.159
6611,-0.4023,-0.3555,-0.8013,4.517,-5.371,0.122,-157.297,23.615,-25.137
6621,-0.4219,-0.2642,-0.8013,-5.676,-5.371,1.160,-157.390,23.698,-25.126
6631,-0.4536,-0.1860,-0.7939,-5.249,-4.639,1.160,-157.533,23.796,-25.120
6641,-0.4746,-0.1406,-0.7744,3.052,-3.418,-0.977,-157.615,23.901,-25.093
6651,-0.4702,-0.1860,-0.7441,12.268,-1.038,-5.249,-157.555,23.967,-25.038
6661,-0.4331,-0.3896,-0.7397,10.986,3.479,-11.292,-157.352,23.923,-24.939
6671,-0.3638,-0.5474,-0.7720,-9.644,10.315,-17.395,-157.269,23.736,-24.807
6681,-0.2900,-0.5410,-0.8340,-40.710,15.564,-20.264,-157.511,23.439,-24.670
6691,-0.2788,-0.3896,-0.8901,-60.669,15.015,-15.076,-158.066,23.170,-24.576
6701,-0.3457,-0.2163,-0.9170,-52.734,10.254,-5.737,-158.670,23.027,-24.560
6711,-0.4355,-0.1240,-0.9136,-18.250,4.089,0.122,-158.994,23.011,-24.582
6721,-0.4761,-0.1465,-0.8398,23.499,0.000,-1.343,-158.868,23.071,-24.565
6731,-0.4692,-0.2485,-0.7568,47.974,-2.075,-7.141,-158.390,23.137,-24.483
6741,-0.4351,-0.4546,-0.7217,44.495,1.099,-12.939,-157.797,23.121,-24.357
6751,-0.3604,-0.5811,-0.7495,15.930,9.583,-18.982,-157.423,22.934,-24.208
6761,-0.2842,-0.6431,-0.8403,-21.790,17.944,-21.240,-157.434,22.615,-24.071
6771,-0.2363,-0.6934,-0.9653,-54.626,24.353,-17.883,-157.813,22.209,-23.994
6781,-0.2129,-0.6406,-1.1050,-75.317,26.978,-10.437,-158.483,21.797,-24.000
6791,-0.2373,-0.4282,-1.1733,-70.251,20.142,-0.793,-159.219,21.495,-24.071
6801,-0.3345,-0.1504,-1.1147,-33.325,3.235,10.803,-159.725,21.456,-24.192
6811,-0.4595,-0.0703,-1.0029,25.757,-13.184,19.348,-159.686,21.676,-24.335
6821,-0.5059,-0.2183,-0.8906,76.233,-17.456,18.982,-159.044,21.973,-24.461
6831,-0.4766,-0.3491,-0.7651,95.825,-15.076,12.207,-158.082,22.231,-24.527
6841,-0.4473,-0.3901,-0.6724,79.590,-13.062,5.615,-157.214,22.451,-24.532
6851,-0.4155,-0.4204,-0.6562,42.358,-8.423,-0.122,-156.682,22.582,-24.494
6861,-0.3989,-0.4067,-0.7026,1.892,-1.099,-2.686,-156.583,22.621,-24.461
6871,-0.4048,-0.3911,-0.7876,-28.931,5.615,-3.296,-156.835,22.577,-24.456
6881,-0.4062,-0.3472,-0.8887,-44.189,11.108,-5.188,-157.291,22.462,-24.450
6891,-0.3906,-0.2964,-0.9634,-42.297,12.451,-7.202,-157.758,22.302,-24.428
6901,-0.3711,-0.3027,-0.9873,-24.963,9.399,-7.141,-158.044,22.165,-24.395
6911,-0.3623,-0.3325,-0.9658,-1.404,4.333,-4.517,-158.077,22.083,-24.368
6921,-0.3662,-0.3730,-0.9165,20.081,-1.221,-0.427,-157.874,22.077,-24.362
6931,-0.3677,-0.4043,-0.8657,31.067,-4.944,2.319,-157.538,22.121,-24.362
6941,-0.3579,-0.4556,-0.8267,30.212,-5.981,3.418,-157.176,22.176,-24.373
6951,-0.3550,-0.4536,-0.8066,19.104,-6.348,4.700,-156.929,22.236,-24.390
6961,-0.3638,-0.4258,-0.8125,2.197,-6.470,6.226,-156.879,22.313,-24.428
6971,-0.3755,-0.3740,-0.8345,-10.925,-4.944,7.690,-156.995,22.390,-24.483
6981,-0.3896,-0.2783,-0.8521,-14.404,-2.930,8.301,-157.214,22.462,-24.554
6992,-0.4189,-0.2114,-0.8618,-5.859,-2.930,7.996,-157.385,22.544,-24.620
7001,-0.4375,-0.2495,-0.8628,10.986,-0.977,5.249,-157.363,22.610,-24.670
7011,-0.3955,-0.3496,-0.8384,23.254,2.258,-0.549,-157.132,22.593,-24.670
7021,-0.3618,-0.4185,-0.8271,19.531,3.052,-2.747,-156.896,22.544,-24.659
7031,-0.3428,-0.4375,-0.8447,4.761,2.441,-1.648,-156.802,22.489,-24.653
7041,-0.3447,-0.4399,-0.8774,-8.972,1.770,1.282,-156.863,22.445,-24.670
7051,-0.3560,-0.3945,-0.9155,-16.602,0.854,3.662,-157.044,22.423,-24.714
7061,-0.3784,-0.3042,-0.9365,-13.245,-1.343,4.761,-157.236,22.440,-24.752
7071,-0.4067,-0.2817,-0.9282,0.122,-3.479,5.127,-157.308,22.495,-24.791
7081,-0.4131,-0.2856,-0.8901,15.564,-4.822,3.296,-157.209,22.566,-24.802
7091,-0.3989,-0.3052,-0.8442,25.146,-7.507,0.854,-156.984,22.654,-24.780
7101,-0.3818,-0.3867,-0.8032,26.367,-9.216,0.244,-156.682,22.742,-24.741
7111,-0.3730,-0.4443,-0.7861,13.916,-9.583,0.793,-156.467,22.830,-24.708
7121,-0.3696,-0.4492,-0.8022,-6.958,-7.812,1.648,-156.473,22.896,-24.692
7131,-0.3691,-0.4297,-0.8438,-25.696,-4.272,2.991,-156.698,22.934,-24.703
7141,-0.3823,-0.3516,-0.8843,-34.668,-0.854,3.906,-157.072,22.945,-24.741
7151,-0.4087,-0.2290,-0.9092,-27.100,0.610,3.296,-157.440,22.956,-24.774
7161,-0.4370,-0.1895,-0.9277,-2.808,0.488,0.732,-157.582,22.972,-24.785
7171,-0.4229,-0.2607,-0.9028,28.259,0.122,-5.554,-157.341,22.967,-24.730
7181,-0.4014,-0.3252,-0.8350,48.950,-3.357,-10.681,-156.824,22.967,-24.609
7191,-0.3936,-0.4497,-0.7812,51.208,-7.812,-10.864,-156.198,23.000,-24.467
7201,-0.3843,-0.5508,-0.7715,34.302,-8.484,-9.888,-155.687,23.027,-24.329
7211,-0.3706,-0.5371,-0.7910,6.897,-6.958,-8.179,-155.479,23.038,-24.219
7221,-0.3813,-0.4673,-0.8311,-14.648,-4.944,-3.845,-155.550,23.055,-24.159
7231,-0.4062,-0.3853,-0.8789,-21.667,-2.747,0.183,-155.770,23.082,-24.148
7241,-0.4253,-0.3345,-0.9111,-12.573,-0.732,1.831,-155.940,23.099,-24.164
7251,-0.4170,-0.3262,-0.9077,7.385,-0.183,-0.244,-155.907,23.104,-24.159
7261,-0.3901,-0.4106,-0.8667,26.672,-0.916,-2.808,-155.616,23.093,-24.126
7271,-0.3643,-0.5088,-0.8203,33.142,-2.075,-2.380,-155.204,23.077,-24.093
7281,-0.3481,-0.5244,-0.8008,23.499,-2.991,0.305,-154.880,23.071,-24.082
7291,-0.3496,-0.5020,-0.7930,8.179,-2.319,4.578,-154.742,23.088,-24.120
7301,-0.3774,-0.4199,-0.7920,-5.859,-2.380,10.193,-154.808,23.148,-24.208
7311,-0.4229,-0.3745,-0.8125,-13.062,-2.197,14.343,-154.995,23.253,-24.340
7321,-0.4312,-0.3491,-0.8286,-14.282,0.183,13.916,-155.209,23.329,-24.478
7331,-0.4233,-0.3027,-0.8291,-13.367,2.319,11.230,-155.435,23.379,-24.598
7341,-0.4214,-0.2354,-0.8267,-8.850,2.869,8.667,-155.649,23.417,-24.697
7351,-0.4321,-0.2456,-0.8213,1.892,2.808,5.676,-155.737,23.450,-24.769
7361,-0.4150,-0.3154,-0.8169,12.695,3.662,0.732,-155.649,23.439,-24.791
7371,-0.3828,-0.4121,-0.8184,12.512,3.967,-3.052,-155.500,23.379,-24.780
7381,-0.3716,-0.4565,-0.8384,-1.892,3.296,-3.845,-155.468,23.313,-24.752
7391,-0.3584,-0.4482,-0.8730,-17.395,2.808,-3.174,-155.605,23.242,-24.736
7401,-0.3672,-0.3877,-0.8945,-24.780,0.610,-0.977,-155.858,23.209,-24.730
7411,-0.4023,-0.2925,-0.9023,-16.846,-3.540,0.793,-156.083,23.242,-24.719
7421,-0.4399,-0.2373,-0.8853,4.761,-7.874,0.549,-156.116,23.340,-24.692
7431,-0.4468,-0.2583,-0.8281,30.762,-10.925,-2.441,-155.847,23.467,-24.620
7441,-0.4360,-0.3540,-0.7563,47.119,-12.573,-5.676,-155.325,23.599,-24.505
7451,-0.4136,-0.4341,-0.7056,44.373,-12.207,-6.409,-154.770,23.714,-24.390
7461,-0.4038,-0.5063,-0.6958,25.574,-8.423,-4.761,-154.374,23.780,-24.302
7471,-0.3784,-0.5093,-0.7329,-1.770,-0.732,-2.869,-154.286,23.769,-24.269
7481,-0.3623,-0.4888,-0.7969,-24.902,6.897,-0.244,-154.490,23.681,-24.302
7492,-0.3652,-0.4482,-0.8799,-37.048,12.268,1.953,-154.869,23.544,-24.379
7501,-0.3647,-0.3896,-0.9424,-34.180,14.587,2.930,-155.275,23.384,-24.472
7511,-0.3696,-0.3276,-0.9624,-17.700,12.939,3.906,-155.544,23.253,-24.571
7521,-0.3867,-0.2993,-0.9360,6.653,7.568,5.127,-155.583,23.187,-24.653
7531,-0.4004,-0.3296,-0.8755,30.396,1.709,6.042,-155.347,23.198,-24.725
7541,-0.4033,-0.3696,-0.8062,40.894,-2.075,6.592,-154.962,23.258,-24.780
7551,-0.4126,-0.3857,-0.7632,33.752,-4.395,6.714,-154.627,23.346,-24.824
7561,-0.4155,-0.4038,-0.7520,15.930,-3.906,5.249,-154.457,23.434,-24.857
7571,-0.4146,-0.3853,-0.7866,-5.554,-1.465,2.136,-154.512,23.472,-24.873
7581,-0.4087,-0.3706,-0.8452,-19.958,2.502,-1.709,-154.720,23.445,-24.868
7591,-0.4087,-0.3623,-0.9067,-22.095,6.531,-5.493,-154.968,23.357,-24.846
7601,-0.3901,-0.3569,-0.9399,-13.000,8.301,-9.094,-155.116,23.225,-24.791
7611,-0.3755,-0.3799,-0.9409,3.235,5.188,-10.132,-155.083,23.104,-24.714
7621,-0.3750,-0.4341,-0.9077,20.569,-0.793,-8.240,-154.841,23.055,-24.631
7631,-0.3838,-0.4629,-0.8608,30.701,-7.019,-4.944,-154.473,23.077,-24.549
7641,-0.3940,-0.4653,-0.8076,30.945,-12.207,-1.709,-154.094,23.181,-24.478
7651,-0.4067,-0.4790,-0.7734,23.987,-15.137,0.793,-153.776,23.324,-24.412
7661,-0.4180,-0.4897,-0.7651,11.047,-15.015,1.953,-153.583,23.483,-24.357
7671,-0.4131,-0.4727,-0.7759,-2.319,-11.414,1.892,-153.539,23.599,-24.324
7681,-0.4053,-0.4399,-0.7974,-11.475,-6.287,2.441,-153.627,23.670,-24.313
7691,-0.4033,-0.3975,-0.8291,-12.146,-1.526,3.479,-153.765,23.703,-24.340
7701,-0.4062,-0.3477,-0.8428,-2.930,1.465,4.333,-153.853,23.708,-24.390
7711,-0.4146,-0.3560,-0.8291,11.963,2.502,5.371,-153.787,23.719,-24.456
7721,-0.4097,-0.3735,-0.8037,23.010,2.502,5.615,-153.600,23.736,-24.521
7731,-0.4102,-0.3872,-0.7764,24.109,1.282,5.859,-153.386,23.763,-24.587
7741,-0.4092,-0.4243,-0.7632,16.174,0.549,6.226,-153.226,23.802,-24.648
7751,-0.4067,-0.4365,-0.7759,0.793,0.793,5.981,-153.215,23.829,-24.714
7761,-0.4009,-0.4155,-0.8135,-15.808,1.892,4.456,-153.391,23.829,-24.763
7771,-0.4004,-0.3750,-0.8491,-24.597,3.296,2.747,-153.682,23.807,-24.807
7781,-0.4038,-0.3325,-0.8740,-20.935,4.395,1.099,-153.957,23.769,-24.840
7791,-0.4053,-0.3311,-0.8857,-7.629,4.456,-0.366,-154.094,23.719,-24.857
7801,-0.3926,-0.3511,-0.8672,8.423,3.113,-2.197,-154.045,23.676,-24.851
7811,-0.3853,-0.3857,-0.8257,20.569,0.671,-2.991,-153.842,23.648,-24.824
7821,-0.3867,-0.3970,-0.7822,23.376,-2.441,-1.770,-153.589,23.665,-24.796
7831,-0.3970,-0.4087,-0.7534,17.822,-4.761,0.122,-153.386,23.719,-24.774
7841,-0.4067,-0.4277,-0.7461,6.592,-4.700,0.732,-153.281,23.780,-24.758
7851,-0.4092,-0.4443,-0.7642,-7.751,-2.441,-0.183,-153.320,23.813,-24.747
7861,-0.3955,-0.4512,-0.8066,-20.569,1.709,-2.075,-153.490,23.780,-24.730
7871,-0.3784,-0.4321,-0.8521,-26.184,6.042,-3.418,-153.743,23.692,-24.730
7881,-0.3716,-0.4116,-0.8838,-21.179,8.667,-3.174,-153.973,23.571,-24.741
7891,-0.3701,-0.4263,-0.9053,-8.240,9.583,-2.075,-154.072,23.445,-24.763
7901,-0.3647,-0.4106,-0.8970,6.958,8.240,-0.488,-154.028,23.335,-24.802
7911,-0.3774,-0.4062,-0.8530,20.081,4.211,2.380,-153.853,23.297,-24.840
7921,-0.4019,-0.4141,-0.8022,25.940,0.305,5.371,-153.605,23.324,-24.895
7931,-0.4185,-0.3862,-0.7646,22.278,-2.136,7.202,-153.402,23.401,-24.955
7941,-0.4375,-0.3960,-0.7520,12.878,-2.502,7.324,-153.287,23.494,-25.016
7951,-0.4341,-0.4067,-0.7739,-0.977,-0.061,4.211,-153.303,23.544,-25.054
7961,-0.4111,-0.4141,-0.8125,-14.587,3.357,-0.305,-153.452,23.516,-25.071
7971,-0.3906,-0.4058,-0.8550,-23.315,6.653,-2.808,-153.693,23.434,-25.076
7981,-0.3804,-0.3682,-0.8867,-23.865,7.324,-3.357,-153.968,23.335,-25.076
7992,-0.3877,-0.3643,-0.8999,-14.221,5.920,-3.052,-154.149,23.258,-25.076
8001,-0.3906,-0.3423,-0.8877,0.610,2.747,-2.930,-154.188,23.209,-25.060
8011,-0.4043,-0.3560,-0.8472,15.930,-1.648,-2.686,-154.045,23.220,-25.027
8021,-0.4077,-0.4111,-0.7983,24.292,-4.883,-3.113,-153.770,23.258,-24.972
8031,-0.4092,-0.4570,-0.7676,20.020,-6.958,-4.456,-153.495,23.318,-24.895
8041,-0.4038,-0.4868,-0.7681,7.996,-6.226,-6.104,-153.325,23.351,-24.807
8052,-0.3931,-0.5044,-0.7871,-4.639,-3.235,-6.531,-153.281,23.346,-24.725
8062,-0.3945,-0.5054,-0.8213,-13.794,-0.122,-5.615,-153.347,23.307,-24.670
8072,-0.3896,-0.4902,-0.8530,-15.442,2.625,-4.700,-153.452,23.247,-24.637
8082,-0.3872,-0.4604,-0.8682,-9.399,3.906,-2.930,-153.528,23.181,-24.626
8091,-0.3877,-0.4346,-0.8574,3.113,3.418,0.427,-153.501,23.143,-24.648
8102,-0.4092,-0.4155,-0.8271,16.968,1.587,4.944,-153.353,23.159,-24.703
8112,-0.4277,-0.4312,-0.7900,25.452,-0.183,8.240,-153.111,23.220,-24.785
8121,-0.4277,-0.4395,-0.7607,22.766,-0.610,10.010,-152.891,23.297,-24.879
8132,-0.4287,-0.4429,-0.7549,10.193,-0.061,10.803,-152.798,23.373,-24.983
8142,-0.4277,-0.4229,-0.7832,-7.324,1.709,9.766,-152.902,23.428,-25.087
8152,-0.4165,-0.3960,-0.8345,-21.606,4.028,7.385,-153.166,23.434,-25.175
8162,-0.4102,-0.3818,-0.8877,-26.489,6.042,4.639,-153.495,23.395,-25.252
8172,-0.3965,-0.3740,-0.9316,-21.545,6.836,1.831,-153.776,23.324,-25.302
8182,-0.3813,-0.3452,-0.9438,-8.423,4.822,-0.427,-153.924,23.253,-25.323
8192,-0.3809,-0.3691,-0.9199,10.071,0.122,-0.854,-153.864,23.225,-25.312
8202,-0.3857,-0.4097,-0.8716,26.428,-4.822,-0.366,-153.605,23.253,-25.291
8212,-0.3921,-0.4263,-0.8101,33.081,-9.094,0.671,-153.248,23.335,-25.252
8222,-0.4028,-0.4419,-0.7642,28.687,-11.475,2.258,-152.919,23.461,-25.214
8232,-0.4072,-0.4556,-0.7500,15.808,-11.292,3.113,-152.710,23.588,-25.192
8242,-0.4048,-0.4497,-0.7578,0.488,-8.789,2.869,-152.666,23.692,-25.175
8252,-0.3989,-0.4438,-0.7954,-10.864,-4.517,2.075,-152.754,23.741,-25.170
8262,-0.3926,-0.4458,-0.8438,-13.245,0.793,0.244,-152.880,23.719,-25.181
8272,-0.3721,-0.4404,-0.8813,-6.042,4.578,-2.563,-152.946,23.637,-25.175
8282,-0.3516,-0.4473,-0.8818,9.094,5.676,-3.174,-152.853,23.533,-25.175
8292,-0.3462,-0.4487,-0.8525,25.879,3.296,0.610,-152.600,23.467,-25.197
8302,-0.3809,-0.4790,-0.8037,37.170,-0.916,7.568,-152.227,23.500,-25.263
8312,-0.4062,-0.5146,-0.7705,35.889,-2.991,12.268,-151.853,23.582,-25.367
8322,-0.4136,-0.4922,-0.7495,23.560,-3.296,13.977,-151.611,23.687,-25.483
8332,-0.4292,-0.4370,-0.7549,7.385,-3.113,15.381,-151.578,23.813,-25.615
8342,-0.4438,-0.3516,-0.7720,-3.540,-2.319,15.564,-151.705,23.945,-25.752
8352,-0.4595,-0.2773,-0.7837,-3.784,-1.221,14.282,-151.886,24.071,-25.884
8362,-0.4697,-0.2637,-0.7886,4.089,-0.061,11.047,-151.985,24.175,-25.994
8372,-0.4531,-0.3345,-0.7856,11.597,2.258,5.127,-151.941,24.219,-26.054
8382,-0.4102,-0.4175,-0.7900,11.414,5.188,-1.770,-151.837,24.170,-26.065
8392,-0.3755,-0.4722,-0.8081,3.052,7.141,-6.226,-151.776,24.055,-26.038
8402,-0.3481,-0.4990,-0.8330,-5.920,8.789,-7.935,-151.793,23.901,-26.010
8412,-0.3350,-0.4844,-0.8491,-11.230,8.057,-5.615,-151.886,23.752,-25.994
8422,-0.3496,-0.4009,-0.8486,-10.315,4.089,-0.366,-152.023,23.681,-26.016
8432,-0.4009,-0.3301,-0.8271,-0.122,-1.221,5.005,-152.100,23.719,-26.054
8442,-0.4429,-0.3311,-0.7793,13.489,-3.784,6.775,-152.034,23.824,-26.104
8452,-0.4478,-0.3662,-0.7383,19.714,-3.296,3.906,-151.864,23.917,-26.120
8462,-0.4292,-0.4448,-0.7134,15.564,-0.610,-1.099,-151.666,23.950,-26.109
8472,-0.3965,-0.4795,-0.7197,0.671,3.174,-5.249,-151.595,23.906,-26.076
8482,-0.3774,-0.4844,-0.7690,-16.602,7.019,-6.165,-151.710,23.802,-26.054
8492,-0.3750,-0.4741,-0.8271,-27.222,11.047,-4.578,-151.968,23.659,-26.065
8502,-0.3887,-0.4136,-0.8691,-27.100,13.428,-2.747,-152.281,23.511,-26.109
8514,-0.4072,-0.3794,-0.8926,-15.930,13.855,-1.160,-152.507,23.379,-26.164
8522,-0.4131,-0.4092,-0.8857,1.160,12.756,-0.305,-152.545,23.264,-26.230
8532,-0.3989,-0.4385,-0.8633,13.489,8.850,-0.244,-152.435,23.176,-26.268
8542,-0.3950,-0.4541,-0.8296,17.090,2.930,1.038,-152.265,23.148,-26.296
8552,-0.3965,-0.4565,-0.8071,13.306,-2.075,2.625,-152.122,23.176,-26.307
8562,-0.4082,-0.4458,-0.7964,6.104,-4.883,3.418,-152.051,23.247,-26.318
8572,-0.4219,-0.4355,-0.7969,-1.221,-5.066,2.197,-152.056,23.318,-26.312
8582,-0.4194,-0.4341,-0.8110,-6.226,-3.357,-0.610,-152.106,23.357,-26.290
8592,-0.4048,-0.4448,-0.8228,-7.690,-0.793,-2.869,-152.161,23.351,-26.257
8602,-0.3892,-0.4600,-0.8325,-6.409,1.160,-3.357,-152.205,23.313,-26.230
8612,-0.3857,-0.4756,-0.8350,-3.540,1.526,-2.380,-152.216,23.275,-26.219
8622,-0.3833,-0.4609,-0.8262,0.122,1.160,-0.488,-152.199,23.253,-26.219
8632,-0.3931,-0.4399,-0.8125,3.601,-0.427,2.686,-152.166,23.264,-26.241
8642,-0.4077,-0.4302,-0.7964,5.798,-2.075,5.310,-152.122,23.318,-26.279
8652,-0.4150,-0.3999,-0.7847,5.310,-2.991,5.798,-152.095,23.390,-26.323
8662,-0.4214,-0.3887,-0.7764,3.723,-2.869,5.066,-152.084,23.461,-26.356
8672,-0.4194,-0.3984,-0.7778,0.916,-1.404,3.174,-152.089,23.511,-26.378
8682,-0.4058,-0.4229,-0.7876,-3.784,0.366,0.854,-152.128,23.522,-26.389
8692,-0.3921,-0.4487,-0.8037,-10.254,2.136,-0.671,-152.221,23.494,-26.395
8702,-0.3779,-0.4404,-0.8311,-16.479,3.479,-1.221,-152.386,23.445,-26.400
8712,-0.3745,-0.4150,-0.8560,-18.433,4.028,-0.610,-152.589,23.384,-26.417
8722,-0.3838,-0.4092,-0.8750,-13.977,3.784,0.000,-152.759,23.335,-26.433
8732,-0.3848,-0.4160,-0.8804,-5.432,2.991,-0.977,-152.836,23.286,-26.439
8742,-0.3779,-0.4297,-0.8647,3.662,1.282,-2.197,-152.798,23.247,-26.422
8752,-0.3770,-0.4453,-0.8379,9.216,-1.709,-1.770,-152.688,23.236,-26.400
8762,-0.3867,-0.4399,-0.8149,9.277,-5.066,-0.305,-152.578,23.275,-26.373
8772,-0.3975,-0.4180,-0.7979,6.470,-7.263,0.916,-152.501,23.346,-26.345
8782,-0.4062,-0.3984,-0.7876,3.296,-7.874,1.099,-152.463,23.434,-26.312
8792,-0.4038,-0.4111,-0.7822,0.916,-6.470,0.061,-152.441,23.505,-26.279
8802,-0.3892,-0.4424,-0.7783,-2.686,-3.662,-0.977,-152.435,23.533,-26.252
8812,-0.3818,-0.4517,-0.7852,-9.644,-0.427,-0.793,-152.501,23.527,-26.246
8822,-0.3848,-0.4082,-0.8076,-16.113,1.892,0.549,-152.672,23.505,-26.257
8832,-0.4058,-0.3940,-0.8340,-15.808,3.296,2.258,-152.864,23.489,-26.296
8842,-0.4136,-0.3770,-0.8604,-9.277,4.822,1.587,-153.007,23.456,-26.334
8852,-0.4077,-0.3726,-0.8677,0.427,5.066,-0.488,-153.051,23.412,-26.356
8862,-0.3936,-0.4092,-0.8496,9.583,4.028,-1.892,-152.968,23.357,-26.356
8872,-0.3926,-0.4297,-0.8301,11.475,0.977,-1.709,-152.847,23.335,-26.345
8882,-0.3979,-0.4458,-0.8169,6.836,-2.258,-0.488,-152.759,23.351,-26.329
8892,-0.4043,-0.4326,-0.8188,-1.282,-4.150,0.122,-152.754,23.390,-26.312
8902,-0.4121,-0.4116,-0.8276,-7.812,-4.761,-0.305,-152.831,23.439,-26.285
8912,-0.4102,-0.4185,-0.8398,-9.399,-4.028,-1.648,-152.919,23.467,-26.246
8922,-0.4038,-0.4106,-0.8423,-7.507,-3.113,-3.235,-152.985,23.478,-26.202
8932,-0.4053,-0.4268,-0.8394,-2.808,-2.747,-3.723,-152.990,23.483,-26.153
8942,-0.4019,-0.4355,-0.8286,2.075,-2.380,-3.601,-152.946,23.489,-26.104
8952,-0.4023,-0.4214,-0.8120,5.066,-2.991,-2.930,-152.875,23.505,-26.060
8962,-0.4146,-0.3989,-0.7954,7.080,-4.150,-1.770,-152.792,23.549,-26.027
8972,-0.4238,-0.3975,-0.7842,7.751,-4.944,-1.465,-152.704,23.604,-25.983
8982,-0.4150,-0.4482,-0.7754,5.798,-4.089,-2.563,-152.606,23.643,-25.939
8992,-0.3926,-0.4971,-0.7764,-2.441,-2.136,-4.089,-152.556,23.637,-25.889
9002,-0.3770,-0.4951,-0.7935,-15.686,-0.488,-3.540,-152.650,23.610,-25.851
9012,-0.3774,-0.4570,-0.8228,-25.330,0.549,-0.671,-152.880,23.582,-25.851
9022,-0.3975,-0.4224,-0.8525,-25.085,1.160,2.136,-153.149,23.571,-25.873
9032,-0.4131,-0.3574,-0.8696,-14.893,1.221,2.563,-153.353,23.577,-25.906
9042,-0.4292,-0.3276,-0.8657,3.357,0.671,0.977,-153.386,23.588,-25.917
9052,-0.4155,-0.3911,-0.8174,22.156,0.732,-1.587,-153.171,23.582,-25.906
9062,-0.4048,-0.4336,-0.7651,26.733,-0.427,-2.747,-152.869,23.588,-25.878
9072,-0.4019,-0.4570,-0.7515,17.334,-1.587,-2.258,-152.644,23.599,-25.851
9082,-0.3999,-0.4761,-0.7603,1.221,-0.610,-1.282,-152.578,23.604,-25.834
9092,-0.3926,-0.4531,-0.7998,-15.930,1.038,-0.793,-152.715,23.588,-25.829
9102,-0.3970,-0.4331,-0.8521,-25.452,2.869,-0.793,-152.974,23.549,-25.840
9112,-0.3906,-0.4204,-0.8896,-24.292,4.578,-1.587,-153.232,23.483,-25.845
9122,-0.3833,-0.3833,-0.8965,-15.320,4.028,-1.892,-153.419,23.417,-25.845
9132,-0.3916,-0.3491,-0.8740,-1.221,1.160,-0.916,-153.479,23.395,-25.845
9142,-0.4077,-0.3433,-0.8335,13.306,-2.441,0.000,-153.386,23.423,-25.829
9152,-0.4136,-0.3506,-0.7764,21.851,-5.798,-0.305,-153.177,23.500,-25.801
9162,-0.4194,-0.3813,-0.7441,18.921,-8.362,-0.671,-152.968,23.604,-25.752
9172,-0.4185,-0.4434,-0.7402,5.920,-7.690,-2.502,-152.847,23.681,-25.692
9182,-0.3931,-0.4790,-0.7720,-13.855,-3.601,-5.798,-152.908,23.687,-25.615
9192,-0.3696,-0.4609,-0.8281,-32.104,1.160,-7.751,-153.177,23.615,-25.543
9202,-0.3579,-0.4351,-0.8804,-38.635,4.456,-7.690,-153.545,23.505,-25.494
9212,-0.3594,-0.3853,-0.9146,-31.128,4.883,-6.897,-153.869,23.395,-25.450
9222,-0.3696,-0.3726,-0.9150,-11.963,2.747,-5.493,-154.012,23.318,-25.406
9232,-0.3823,-0.3735,-0.8809,10.742,-0.061,-4.211,-153.918,23.286,-25.367
9242,-0.3936,-0.3975,-0.8184,27.771,-3.296,-3.113,-153.627,23.302,-25.323
9252,-0.3960,-0.4502,-0.7554,31.921,-5.737,-1.404,-153.254,23.357,-25.280
9262,-0.4072,-0.4785,-0.7271,21.729,-6.836,0.244,-152.957,23.434,-25.247
9272,-0.4131,-0.4512,-0.7290,3.174,-5.920,0.916,-152.875,23.516,-25.230
9282,-0.4219,-0.4385,-0.7534,-14.465,-3.235,1.099,-152.985,23.571,-25.225
9292,-0.4238,-0.3979,-0.8081,-26.184,0.793,0.122,-153.254,23.582,-25.230
9302,-0.4214,-0.3706,-0.8535,-25.879,4.395,-1.648,-153.545,23.544,-25.236
9312,-0.4126,-0.3872,-0.8779,-15.503,6.592,-3.479,-153.721,23.467,-25.230
9322,-0.3975,-0.3975,-0.8760,-2.380,5.981,-4.639,-153.759,23.384,-25.214
9332,-0.3931,-0.4351,-0.8599,9.460,2.930,-4.150,-153.649,23.329,-25.186
9342,-0.3931,-0.4844,-0.8403,15.320,0.183,-3.235,-153.452,23.297,-25.159
9352,-0.3892,-0.4995,-0.8208,12.146,-2.502,-1.953,-153.270,23.302,-25.126
9362,-0.3984,-0.4819,-0.8169,4.272,-5.066,0.366,-153.182,23.340,-25.104
9372,-0.4082,-0.4395,-0.8140,-2.991,-6.836,2.869,-153.193,23.417,-25.098
9382,-0.4253,-0.3828,-0.8184,-5.615,-8.057,4.456,-153.265,23.527,-25.104
9392,-0.4395,-0.3452,-0.8154,-1.587,-7.751,4.028,-153.320,23.643,-25.104
9402,-0.4468,-0.3398,-0.8105,5.615,-6.042,1.343,-153.298,23.736,-25.087
9412,-0.4297,-0.3511,-0.8062,12.573,-2.625,-2.747,-153.188,23.769,-25.049
9422,-0.3999,-0.4380,-0.7939,16.296,0.488,-5.859,-152.985,23.741,-24.994
9432,-0.3706,-0.5200,-0.7939,9.888,2.075,-6.714,-152.803,23.665,-24.939
9442,-0.3584,-0.5073,-0.8208,-5.310,1.587,-4.883,-152.792,23.599,-24.901
9452,-0.3696,-0.4482,-0.8447,-17.090,0.610,-0.732,-152.957,23.566,-24.895
9462,-0.4087,-0.3613,-0.8579,-17.578,-1.587,3.235,-153.182,23.593,-24.917
9472,-0.4458,-0.3096,-0.8564,-5.920,-3.418,4.150,-153.320,23.670,-24.944
9482,-0.4487,-0.2935,-0.8267,10.864,-4.150,1.038,-153.276,23.741,-24.933
9492,-0.4346,-0.3315,-0.7793,22.827,-4.822,-3.174,-153.067,23.807,-24.879
9502,-0.4106,-0.4028,-0.7427,23.071,-4.700,-6.104,-152.787,23.840,-24.796
9512,-0.3926,-0.4927,-0.7305,10.925,-3.174,-7.385,-152.578,23.840,-24.708
9522,-0.3750,-0.5278,-0.7612,-9.460,-0.305,-7.751,-152.567,23.785,-24.631
9532,-0.3628,-0.5229,-0.8135,-29.114,3.296,-6.592,-152.787,23.698,-24.582
9542,-0.3643,-0.4912,-0.8696,-38.940,6.042,-4.639,-153.144,23.588,-24.565
9552,-0.3730,-0.4194,-0.9072,-35.461,6.470,-2.136,-153.517,23.489,-24.576
9562,-0.3970,-0.3555,-0.9160,-17.273,4.211,0.793,-153.754,23.439,-24.609
9572,-0.4155,-0.3452,-0.8916,9.094,0.977,2.197,-153.721,23.439,-24.631
9582,-0.4092,-0.3892,-0.8296,31.860,-2.319,0.671,-153.419,23.472,-24.626
9592,-0.3989,-0.4302,-0.7642,39.856,-5.554,-0.122,-152.985,23.527,-24.598
9602,-0.3955,-0.4834,-0.7305,31.006,-7.202,0.671,-152.600,23.604,-24.571
9612,-0.3901,-0.5078,-0.7285,10.803,-5.920,0.916,-152.408,23.659,-24.549
9622,-0.3799,-0.4844,-0.7612,-12.268,-3.235,0.793,-152.479,23.687,-24.543
9632,-0.3896,-0.4434,-0.8125,-28.137,-0.610,1.343,-152.748,23.687,-24.549
9642,-0.3984,-0.4023,-0.8604,-30.212,2.075,1.404,-153.083,23.665,-24.576
9652,-0.4067,-0.3394,-0.8823,-19.226,3.113,0.671,-153.342,23.637,-24.598
9662,-0.4155,-0.3076,-0.8804,1.221,2.502,0.000,-153.408,23.621,-24.609
9672,-0.4126,-0.3594,-0.8398,23.743,2.014,-0.916,-153.204,23.604,-24.609
9682,-0.4087,-0.4097,-0.7954,34.607,0.854,-1.221,-152.853,23.599,-24.604
9692,-0.4014,-0.4810,-0.7725,28.625,0.305,-0.671,-152.523,23.599,-24.598
9702,-0.3848,-0.5010,-0.7754,10.376,0.916,-0.732,-152.364,23.577,-24.593
9712,-0.3789,-0.4805,-0.7979,-11.292,1.221,0.549,-152.446,23.555,-24.609
9722,-0.4009,-0.3989,-0.8413,-26.794,0.549,3.052,-152.748,23.560,-24.637
9732,-0.4282,-0.3437,-0.8730,-26.794,0.671,3.906,-153.083,23.582,-24.681
9742,-0.4351,-0.2954,-0.8789,-15.381,1.282,2.136,-153.331,23.593,-24.708
9752,-0.4448,-0.1826,-0.8462,1.770,-0.671,-0.977,-153.457,23.632,-24.697
9762,-0.4658,-0.2134,-0.7979,23.437,-2.808,-3.845,-153.320,23.698,-24.642
9772,-0.4434,-0.4351,-0.7588,34.302,-1.343,-8.545,-152.913,23.703,-24.554
9782,-0.3877,-0.5913,-0.7593,19.531,2.075,-14.709,-152.556,23.604,-24.423
9792,-0.3306,-0.6377,-0.8081,-13.306,4.700,-18.860,-152.518,23.417,-24.263
9802,-0.2954,-0.6113,-0.8682,-42.297,5.981,-17.639,-152.803,23.203,-24.120
9812,-0.3154,-0.4468,-0.9121,-53.101,3.174,-10.986,-153.303,23.066,-24.033
9822,-0.3979,-0.3057,-0.9292,-33.325,-2.380,-2.258,-153.704,23.071,-24.000
9832,-0.4561,-0.3745,-0.9146,3.723,-4.028,2.136,-153.710,23.132,-24.000
9842,-0.4438,-0.4482,-0.8584,29.114,-3.784,-0.061,-153.402,23.181,-23.978
9852,-0.4160,-0.4614,-0.7939,36.072,-4.700,-1.465,-152.996,23.225,-23.945
9862,-0.4053,-0.5005,-0.7505,31.433,-5.005,0.610,-152.611,23.286,-23.923
9872,-0.3940,-0.5127,-0.7480,18.494,-3.479,3.174,-152.358,23.329,-23.939
9882,-0.3965,-0.4839,-0.7729,2.441,-2.258,4.700,-152.303,23.373,-23.972
9892,-0.4023,-0.4307,-0.8057,-10.254,-1.526,4.944,-152.419,23.412,-24.011
9902,-0.4150,-0.4053,-0.8398,-15.381,-1.587,4.517,-152.606,23.456,-24.049
9912,-0.4146,-0.4116,-0.8511,-11.841,-0.977,3.296,-152.748,23.483,-24.071
9922,-0.3994,-0.4141,-0.8447,-3.418,-1.343,2.014,-152.798,23.494,-24.088
9932,-0.3945,-0.4268,-0.8301,5.066,-2.808,2.075,-152.748,23.527,-24.093
9942,-0.3911,-0.4204,-0.8105,12.024,-4.272,2.502,-152.628,23.571,-24.093
9952,-0.3955,-0.4092,-0.7812,16.052,-6.348,3.052,-152.468,23.648,-24.093
9962,-0.4092,-0.4019,-0.7603,15.991,-8.179,3.662,-152.303,23.752,-24.088
9972,-0.4155,-0.4126,-0.7476,13.306,-8.911,2.930,-152.155,23.868,-24.071
9982,-0.4131,-0.4390,-0.7476,7.812,-6.836,0.916,-152.040,23.945,-24.044
9992,-0.3945,-0.4468,-0.7666,0.366,-3.418,-1.038,-152.001,23.972,-24.016
10002,-0.3760,-0.4868,-0.7842,-5.432,0.122,-1.404,-152.012,23.945,-24.005
10012,-0.3628,-0.5015,-0.8042,-10.315,2.380,-0.427,-152.078,23.895,-24.011
10022,-0.3667,-0.4604,-0.8179,-12.756,2.380,2.197,-152.205,23.857,-24.044
10032,-0.3921,-0.3862,-0.8262,-8.728,1.038,5.432,-152.342,23.868,-24.104
10042,-0.4282,-0.3374,-0.8135,3.723,-0.061,7.385,-152.380,23.923,-24.175
10052,-0.4443,-0.3296,-0.7944,18.127,0.000,5.981,-152.276,23.983,-24.230
10062,-0.4302,-0.3779,-0.7646,28.015,0.549,2.747,-152.029,24.022,-24.263
10072,-0.4136,-0.4624,-0.7446,24.841,1.099,0.916,-151.749,24.027,-24.274
10082,-0.3984,-0.4883,-0.7549,8.362,1.953,0.427,-151.622,24.011,-24.291
10092,-0.3901,-0.4810,-0.7808,-10.498,3.540,0.916,-151.705,23.972,-24.318
10102,-0.3979,-0.4365,-0.8208,-23.315,5.676,2.441,-151.963,23.928,-24.373
10112,-0.4165,-0.3804,-0.8599,-23.804,7.751,2.808,-152.265,23.873,-24.439
10122,-0.4277,-0.3462,-0.8813,-12.146,9.399,1.831,-152.474,23.802,-24.505
10132,-0.4243,-0.3711,-0.8745,4.883,9.705,0.305,-152.490,23.725,-24.554
10142,-0.3994,-0.4375,-0.8335,18.066,8.179,-1.160,-152.325,23.637,-24.587
10152,-0.3989,-0.4731,-0.7900,18.494,4.211,0.000,-152.117,23.599,-24.604
10162,-0.4102,-0.4492,-0.7739,9.094,1.404,1.587,-152.012,23.604,-24.631
10172,-0.4214,-0.4453,-0.7749,-1.770,1.221,3.113,-152.029,23.626,-24.664
10182,-0.4253,-0.4414,-0.8003,-11.353,3.357,2.686,-152.144,23.621,-24.708
10192,-0.4155,-0.4155,-0.8364,-16.174,5.859,0.244,-152.336,23.577,-24.741
10202,-0.4038,-0.4429,-0.8511,-13.428,8.118,-1.099,-152.479,23.489,-24.769
10212,-0.3887,-0.4507,-0.8579,-8.545,9.033,-0.732,-152.578,23.390,-24.807
10222,-0.3911,-0.4150,-0.8638,-2.808,7.507,0.916,-152.644,23.318,-24.857
10232,-0.4019,-0.4355,-0.8594,5.615,5.981,2.380,-152.611,23.269,-24.911
10242,-0.3857,-0.4756,-0.8486,11.414,4.456,1.465,-152.496,23.220,-24.944
10252,-0.3706,-0.4902,-0.8374,9.949,1.404,0.793,-152.375,23.192,-24.961
10262,-0.3691,-0.4956,-0.8301,3.357,-2.319,2.014,-152.309,23.198,-24.966
10272,-0.3760,-0.4785,-0.8379,-3.479,-5.005,4.211,-152.331,23.242,-24.983
10282,-0.3916,-0.4316,-0.8354,-5.920,-6.470,5.798,-152.402,23.318,-25.005
10292,-0.4121,-0.3594,-0.8228,-1.221,-7.141,6.226,-152.463,23.423,-25.032
10302,-0.4326,-0.3555,-0.7979,9.094,-6.897,5.737,-152.419,23.538,-25.049
10312,-0.4312,-0.3848,-0.7729,15.991,-5.493,3.784,-152.271,23.632,-25.060
10322,-0.4155,-0.4258,-0.7627,14.587,-3.174,1.465,-152.111,23.687,-25.060
10332,-0.3950,-0.4609,-0.7622,6.226,-0.732,0.366,-152.018,23.698,-25.060
10342,-0.3921,-0.4111,-0.7871,-5.005,0.183,0.549,-152.073,23.698,-25.065
10352,-0.4028,-0.4116,-0.8232,-9.949,0.732,1.404,-152.194,23.698,-25.082
10362,-0.4009,-0.4214,-0.8477,-8.423,2.319,0.427,-152.298,23.670,-25.098
10372,-0.3843,-0.4111,-0.8647,-4.272,2.258,-1.343,-152.364,23.626,-25.098
10382,-0.3779,-0.4233,-0.8633,2.625,1.709,-1.648,-152.347,23.582,-25.087
10392,-0.3716,-0.4146,-0.8491,8.972,-0.183,-0.916,-152.271,23.560,-25.076
10402,-0.3853,-0.3950,-0.8271,14.282,-3.540,0.549,-152.150,23.588,-25.065
10412,-0.3975,-0.4219,-0.8003,17.761,-5.920,1.160,-151.963,23.643,-25.049
10422,-0.3994,-0.4390,-0.7812,14.587,-6.958,0.366,-151.793,23.714,-25.016
10432,-0.3989,-0.4346,-0.7808,5.371,-7.263,-0.061,-151.716,23.780,-24.977
10442,-0.3960,-0.4434,-0.8022,-3.479,-5.798,0.061,-151.732,23.824,-24.950
10452,-0.3906,-0.4312,-0.8301,-8.728,-3.479,-0.122,-151.820,23.840,-24.928
10462,-0.3926,-0.3823,-0.8413,-7.080,-2.502,-0.122,-151.924,23.857,-24.911
10472,-0.4077,-0.4126,-0.8335,1.465,-1.953,0.427,-151.924,23.873,-24.906
10482,-0.4082,-0.4375,-0.8140,7.751,-1.526,-0.183,-151.842,23.884,-24.901
10493,-0.4038,-0.4424,-0.7964,8.057,-1.953,-0.732,-151.743,23.901,-24.884
10502,-0.4087,-0.4282,-0.7896,5.066,-2.075,-0.183,-151.688,23.923,-24.868
10515,-0.4204,-0.3950,-0.7891,2.747,-2.563,0.549,-151.672,23.961,-24.862
10522,-0.4375,-0.4233,-0.7822,3.418,-2.380,0.366,-151.633,24.005,-24.851
10532,-0.4326,-0.4268,-0.7832,2.197,-1.404,-1.526,-151.600,24.033,-24.829
10542,-0.4268,-0.4443,-0.7808,-1.282,0.183,-2.747,-151.595,24.033,-24.807
10552,-0.4204,-0.4600,-0.8003,-6.714,2.319,-2.258,-151.639,24.005,-24.796
10562,-0.4102,-0.4814,-0.8140,-12.512,3.601,-1.221,-151.743,23.961,-24.802
10572,-0.4067,-0.4473,-0.8369,-17.883,4.089,0.305,-151.930,23.917,-24.824
10582,-0.4038,-0.4033,-0.8525,-17.517,3.967,0.488,-152.144,23.879,-24.851
10592,-0.4072,-0.4233,-0.8481,-8.545,5.249,-1.770,-152.243,23.818,-24.862
10602,-0.3901,-0.4307,-0.8457,4.089,7.507,-5.859,-152.205,23.714,-24.840
10612,-0.3687,-0.4604,-0.8281,18.127,10.254,-7.812,-152.001,23.560,-24.818
10622,-0.3599,-0.5059,-0.7925,27.649,11.475,-5.432,-151.688,23.412,-24.824
10632,-0.3765,-0.5254,-0.7642,26.001,9.827,0.488,-151.392,23.313,-24.879
10642,-0.3984,-0.5000,-0.7637,15.259,7.690,6.409,-151.232,23.280,-24.983
10652,-0.4077,-0.4824,-0.7764,1.282,6.653,10.498,-151.243,23.280,-25.115
10662,-0.4048,-0.4497,-0.7891,-12.451,5.920,11.658,-151.408,23.291,-25.258
10672,-0.4141,-0.3760,-0.8179,-23.254,3.967,10.254,-151.727,23.318,-25.378
10682,-0.4204,-0.3594,-0.8477,-25.146,2.380,7.019,-152.062,23.346,-25.455
10692,-0.4150,-0.3379,-0.8647,-19.165,1.831,2.319,-152.325,23.346,-25.488
10702,-0.4146,-0.3262,-0.8721,-7.874,0.610,-1.770,-152.474,23.340,-25.477
10712,-0.4072,-0.3774,-0.8560,6.348,-1.221,-4.150,-152.430,23.335,-25.428
10722,-0.3960,-0.4692,-0.8306,14.160,-3.235,-5.432,-152.243,23.329,-25.362
10732,-0.3926,-0.4771,-0.8213,9.094,-5.188,-5.249,-152.100,23.340,-25.285
10742,-0.3979,-0.4580,-0.8218,0.854,-5.493,-3.174,-152.056,23.368,-25.225
10752,-0.4141,-0.4067,-0.8389,-3.906,-4.578,-0.793,-152.100,23.412,-25.192
10762,-0.4248,-0.3984,-0.8477,-1.404,-3.845,0.061,-152.133,23.456,-25.175
10772,-0.4229,-0.3765,-0.8481,4.700,-3.784,-1.160,-152.117,23.494,-25.142
10782,-0.4136,-0.3892,-0.8325,10.986,-4.822,-2.930,-152.012,23.533,-25.093
10792,-0.3911,-0.4478,-0.8086,14.221,-5.188,-4.089,-151.837,23.549,-25.027
10802,-0.3701,-0.4951,-0.7979,9.705,-5.981,-4.456,-151.677,23.560,-24.950
10812,-0.3545,-0.4961,-0.8022,-0.488,-6.470,-3.845,-151.617,23.571,-24.884
10822,-0.3618,-0.4604,-0.8086,-10.071,-7.263,-1.526,-151.683,23.604,-24.829
10832,-0.3926,-0.3950,-0.8169,-14.038,-8.423,0.977,-151.837,23.681,-24.796
10842,-0.4287,-0.3237,-0.8184,-8.240,-9.644,1.099,-151.968,23.791,-24.758
10852,-0.4443,-0.3184,-0.8101,4.883,-8.972,-1.648,-151.957,23.895,-24.692
10862,-0.4287,-0.3423,-0.7827,17.334,-7.629,-7.202,-151.787,23.956,-24.587
10872,-0.4082,-0.4390,-0.7607,21.484,-6.775,-10.864,-151.501,23.972,-24.445
10882,-0.3936,-0.5220,-0.7632,10.681,-5.676,-11.047,-151.282,23.961,-24.307
10892,-0.3774,-0.5308,-0.7969,-8.179,-4.700,-10.071,-151.265,23.928,-24.186
10902,-0.3774,-0.5205,-0.8364,-22.766,-4.517,-7.812,-151.419,23.901,-24.088
10912,-0.3906,-0.4897,-0.8745,-27.649,-5.737,-5.859,-151.650,23.901,-24.005
10922,-0.4019,-0.4375,-0.8931,-20.996,-7.935,-5.493,-151.842,23.923,-23.912
10932,-0.4126,-0.3955,-0.8706,-4.089,-10.620,-5.493,-151.880,23.983,-23.802
10942,-0.4199,-0.4116,-0.8257,16.785,-12.512,-5.615,-151.683,24.071,-23.681
10952,-0.4111,-0.4912,-0.7637,32.227,-12.451,-6.348,-151.265,24.153,-23.555
10962,-0.3896,-0.5430,-0.7061,33.386,-11.902,-5.676,-150.798,24.225,-23.439
10972,-0.3955,-0.5278,-0.6768,20.691,-11.169,-2.563,-150.474,24.313,-23.357
10982,-0.4141,-0.4980,-0.6807,5.005,-8.850,1.099,-150.342,24.417,-23.318
10993,-0.4258,-0.4663,-0.7012,-7.263,-4.517,2.991,-150.375,24.494,-23.324
11002,-0.4282,-0.4224,-0.7383,-13.306,0.244,2.441,-150.518,24.527,-23.346
11012,-0.4277,-0.4209,-0.7578,-11.169,4.639,1.526,-150.650,24.510,-23.384
11022,-0.4170,-0.4497,-0.7700,-6.714,7.751,0.671,-150.727,24.450,-23.434
11032,-0.4092,-0.4434,-0.7754,-3.906,9.155,1.038,-150.782,24.379,-23.494
11042,-0.4185,-0.4014,-0.7832,-1.892,8.545,2.563,-150.853,24.329,-23.566
11052,-0.4326,-0.3979,-0.7827,2.625,7.080,3.113,-150.875,24.302,-23.632
11062,-0.4331,-0.4062,-0.7910,5.737,5.188,1.465,-150.853,24.280,-23.676
11072,-0.4111,-0.4751,-0.8003,2.014,1.953,-2.991,-150.809,24.241,-23.654
11082,-0.3892,-0.5000,-0.8203,-6.653,1.526,-4.150,-150.842,24.186,-23.626
11092,-0.3765,-0.5068,-0.8472,-14.221,0.793,-3.845,-150.952,24.131,-23.593
11102,-0.3760,-0.4814,-0.8691,-16.602,-0.549,-2.441,-151.106,24.088,-23.566
11112,-0.3882,-0.4375,-0.8745,-11.536,-2.991,-1.221,-151.232,24.088,-23.538
11122,-0.4082,-0.3979,-0.8555,0.732,-5.371,-0.244,-151.254,24.126,-23.505
11132,-0.4297,-0.3818,-0.8218,15.503,-7.263,-0.732,-151.117,24.197,-23.461
11142,-0.4346,-0.4150,-0.7827,26.917,-7.690,-2.930,-150.831,24.269,-23.390
11152,-0.4219,-0.4453,-0.7451,28.809,-7.629,-5.249,-150.496,24.324,-23.302
11162,-0.4160,-0.4819,-0.7280,20.752,-7.751,-5.676,-150.211,24.373,-23.203
11172,-0.4058,-0.5078,-0.7324,6.653,-6.470,-5.310,-150.057,24.406,-23.121
11182,-0.4033,-0.4897,-0.7539,-8.972,-5.127,-4.089,-150.090,24.428,-23.055
11192,-0.4106,-0.4609,-0.7822,-18.860,-3.235,-2.625,-150.255,24.439,-23.011
11202,-0.4160,-0.4404,-0.8042,-19.287,-0.427,-2.258,-150.447,24.434,-22.983
11212,-0.4160,-0.4478,-0.8145,-12.634,1.770,-2.258,-150.573,24.406,-22.972
11222,-0.4116,-0.4434,-0.8145,-3.967,3.174,-1.709,-150.623,24.362,-22.972
11232,-0.4106,-0.4600,-0.8042,4.272,3.601,-0.916,-150.579,24.324,-22.983
11242,-0.4092,-0.4746,-0.7905,9.277,3.479,-0.244,-150.480,24.291,-23.000
11252,-0.4116,-0.4800,-0.7827,9.399,2.808,0.183,-150.370,24.263,-23.016
11262,-0.4077,-0.4868,-0.7749,5.554,2.197,0.854,-150.298,24.247,-23.038
11272,-0.4155,-0.4502,-0.7749,-1.160,1.221,2.136,-150.315,24.252,-23.066
11282,-0.4375,-0.3921,-0.7871,-6.165,0.610,3.113,-150.425,24.285,-23.099
11292,-0.4648,-0.3203,-0.7852,-4.700,1.160,2.869,-150.557,24.335,-23.132
11302,-0.5010,-0.2769,-0.7935,3.967,2.930,0.427,-150.628,24.373,-23.154
11312,-0.5083,-0.3315,-0.8115,18.250,7.874,-6.165,-150.513,24.335,-23.137
11322,-0.4717,-0.4600,-0.8115,29.907,13.367,-14.648,-150.189,24.175,-23.066
11332,-0.4019,-0.5737,-0.8169,30.823,15.991,-20.264,-149.788,23.912,-22.961
11342,-0.3657,-0.5552,-0.8086,22.827,12.573,-18.616,-149.474,23.681,-22.857
11352,-0.3838,-0.5264,-0.7852,15.076,4.639,-10.986,-149.266,23.571,-22.780
11362,-0.4375,-0.5054,-0.7666,9.827,-1.892,-3.235,-149.123,23.588,-22.736
11372,-0.4683,-0.4219,-0.7520,6.653,-4.150,-0.977,-149.062,23.665,-22.703
11382,-0.4775,-0.4229,-0.7554,7.202,-2.625,-2.808,-148.991,23.725,-22.665
11392,-0.4238,-0.5786,-0.7715,7.019,2.380,-8.484,-148.837,23.665,-22.599
11402,-0.3364,-0.6328,-0.7939,-2.380,4.639,-14.221,-148.744,23.500,-22.489
11412,-0.2900,-0.6797,-0.8276,-13.306,2.380,-12.817,-148.749,23.329,-22.385
11422,-0.2700,-0.7041,-0.8496,-19.409,0.305,-6.348,-148.837,23.198,-22.330
11432,-0.2944,-0.5669,-0.8511,-20.081,-2.747,2.136,-149.013,23.159,-22.330
11442,-0.3628,-0.4619,-0.8276,-6.958,-5.615,10.620,-149.123,23.242,-22.401
11452,-0.4189,-0.4189,-0.7808,13.611,-4.517,15.320,-149.062,23.379,-22.516
11462,-0.4268,-0.3667,-0.7217,30.396,-1.831,14.771,-148.854,23.511,-22.643
11472,-0.4238,-0.4189,-0.6572,38.696,1.343,13.306,-148.508,23.621,-22.775
11482,-0.4043,-0.4868,-0.6411,28.809,5.005,11.536,-148.217,23.665,-22.912
11493,-0.3818,-0.4893,-0.6631,5.371,7.568,7.812,-148.167,23.654,-23.027
11502,-0.3564,-0.4785,-0.7178,-17.639,10.620,4.456,-148.365,23.577,-23.132
11512,-0.3437,-0.4717,-0.7886,-32.349,14.526,2.686,-148.733,23.439,-23.242
11522,-0.3428,-0.4365,-0.8594,-35.645,16.907,1.770,-149.172,23.269,-23.351
11532,-0.3418,-0.4111,-0.9038,-26.733,16.846,1.648,-149.546,23.088,-23.461
11542,-0.3467,-0.4292,-0.9082,-10.132,13.611,2.747,-149.738,22.945,-23.560
11552,-0.3589,-0.4043,-0.8818,6.836,8.850,4.089,-149.760,22.863,-23.648
11562,-0.3853,-0.4146,-0.8281,20.752,2.869,5.188,-149.612,22.863,-23.714
11572,-0.4023,-0.4292,-0.7832,26.550,-0.854,5.005,-149.381,22.906,-23.752
11582,-0.4111,-0.4536,-0.7539,22.217,-2.136,3.418,-149.167,22.967,-23.774
11592,-0.4116,-0.4766,-0.7422,9.460,-1.648,1.099,-149.057,23.005,-23.774
11602,-0.3999,-0.4810,-0.7549,-5.737,-0.366,-1.099,-149.090,23.016,-23.763
11612,-0.3892,-0.5005,-0.7847,-17.395,1.221,-1.770,-149.244,22.994,-23.752
11622,-0.3828,-0.5098,-0.8267,-23.132,3.357,-1.526,-149.464,22.939,-23.758
11632,-0.3804,-0.4883,-0.8657,-22.034,4.639,-1.038,-149.700,22.874,-23.774
11642,-0.3789,-0.4746,-0.8823,-13.245,5.371,0.122,-149.865,22.808,-23.807
11652,-0.3896,-0.4429,-0.8706,0.549,4.272,2.075,-149.908,22.775,-23.846
11662,-0.4067,-0.4175,-0.8428,14.893,0.916,4.150,-149.815,22.791,-23.890
11672,-0.4175,-0.4443,-0.7969,24.780,-2.686,4.822,-149.590,22.857,-23.923
11682,-0.4194,-0.4780,-0.7549,22.644,-6.348,4.150,-149.348,22.956,-23.928
11692,-0.4160,-0.5127,-0.7441,9.155,-8.606,2.930,-149.211,23.060,-23.906
11702,-0.4033,-0.5200,-0.7539,-9.216,-8.728,1.038,-149.249,23.148,-23.868
11712,-0.3892,-0.5200,-0.7856,-24.841,-6.836,-0.427,-149.453,23.198,-23.824
11722,-0.3882,-0.4790,-0.8315,-31.189,-4.150,-1.221,-149.755,23.214,-23.791
11732,-0.3921,-0.4165,-0.8633,-24.353,-2.380,-2.014,-150.024,23.214,-23.758
11742,-0.4097,-0.3555,-0.8628,-4.944,-2.014,-1.709,-150.139,23.225,-23.730
11752,-0.4126,-0.3813,-0.8286,20.752,-1.953,-1.404,-149.974,23.247,-23.708
11762,-0.4082,-0.4585,-0.7646,38.696,-2.747,-1.648,-149.573,23.280,-23.676
11772,-0.3945,-0.5278,-0.7187,36.499,-4.700,-1.038,-149.139,23.318,-23.643
11782,-0.3853,-0.5708,-0.7134,17.883,-5.371,-0.122,-148.870,23.357,-23.610
11792,-0.3750,-0.5605,-0.7349,-7.568,-4.272,0.549,-148.876,23.384,-23.593
11802,-0.3779,-0.5093,-0.7822,-28.259,-2.380,1.831,-149.139,23.401,-23.593
11812,-0.3989,-0.4136,-0.8311,-35.339,-1.160,2.625,-149.540,23.423,-23.615
11822,-0.4175,-0.3491,-0.8574,-25.024,-0.793,1.831,-149.875,23.445,-23.626
11832,-0.4268,-0.3652,-0.8511,-4.333,-0.610,-0.244,-149.985,23.467,-23.621
11842,-0.4097,-0.4033,-0.8267,14.893,-0.244,-3.113,-149.865,23.456,-23.588
11852,-0.3823,-0.4785,-0.7793,24.780,-0.549,-4.822,-149.584,23.428,-23.544
11862,-0.3643,-0.5381,-0.7544,19.165,-1.587,-4.517,-149.326,23.401,-23.489
11872,-0.3594,-0.5488,-0.7524,4.456,-2.319,-3.418,-149.211,23.379,-23.445
11882,-0.3721,-0.5215,-0.7734,-11.108,-2.319,-1.648,-149.277,23.373,-23.417
11892,-0.3945,-0.4678,-0.8057,-20.447,-2.258,0.122,-149.480,23.390,-23.406
11902,-0.4180,-0.4268,-0.8296,-18.188,-1.953,0.549,-149.689,23.417,-23.401
11912,-0.4292,-0.4062,-0.8374,-6.714,-1.587,-0.183,-149.799,23.445,-23.390
11922,-0.4253,-0.4399,-0.8271,7.446,-0.854,-1.709,-149.738,23.450,-23.368
11932,-0.3984,-0.4941,-0.7974,18.250,-0.183,-3.235,-149.529,23.434,-23.335
11942,-0.3862,-0.5210,-0.7734,18.311,-1.648,-2.197,-149.299,23.428,-23.307
11952,-0.3936,-0.5278,-0.7583,10.254,-3.845,0.671,-149.150,23.461,-23.291
11962,-0.4087,-0.5186,-0.7676,-0.977,-5.188,3.052,-149.128,23.522,-23.291
11972,-0.4194,-0.4663,-0.7808,-9.705,-5.859,3.540,-149.227,23.604,-23.291
11982,-0.4331,-0.4521,-0.7949,-11.841,-5.920,3.418,-149.354,23.687,-23.291
11993,-0.4287,-0.4272,-0.8022,-8.911,-4.578,2.197,-149.469,23.752,-23.286
12002,-0.4175,-0.4204,-0.7949,-2.258,-3.845,1.038,-149.513,23.802,-23.275
12012,-0.4116,-0.4531,-0.7734,5.432,-2.991,0.305,-149.453,23.840,-23.264
12022,-0.4038,-0.5024,-0.7500,7.568,-3.784,-0.305,-149.337,23.873,-23.236
12032,-0.3809,-0.5693,-0.7388,1.831,-3.906,-0.854,-149.238,23.884,-23.209
12042,-0.3647,-0.5493,-0.7363,-11.719,-4.089,0.244,-149.282,23.901,-23.187
12052,-0.3936,-0.4312,-0.7529,-23.376,-5.615,4.700,-149.529,23.978,-23.198
12062,-0.4360,-0.3516,-0.7676,-20.325,-6.104,8.362,-149.810,24.104,-23.247
12072,-0.4697,-0.3120,-0.7700,-6.653,-5.005,7.019,-149.969,24.236,-23.286
12082,-0.4702,-0.3340,-0.7686,8.667,-3.052,1.343,-149.947,24.318,-23.280
12092,-0.4263,-0.4746,-0.7549,18.311,0.977,-5.676,-149.727,24.296,-23.231
12102,-0.3662,-0.5859,-0.7593,11.108,4.089,-9.644,-149.513,24.175,-23.165
12112,-0.3281,-0.6250,-0.7876,-8.606,4.456,-8.606,-149.496,24.033,-23.104
12122,-0.3247,-0.5923,-0.8252,-27.527,4.211,-3.235,-149.716,23.917,-23.099
12132,-0.3525,-0.4756,-0.8657,-35.339,2.563,2.808,-150.095,23.868,-23.137
12142,-0.4062,-0.3862,-0.8857,-25.269,-0.854,6.653,-150.436,23.901,-23.198
12152,-0.4370,-0.3647,-0.8774,-3.662,-2.991,6.531,-150.557,23.961,-23.242
12162,-0.4458,-0.3711,-0.8457,17.639,-4.761,3.174,-150.441,24.038,-23.247
12172,-0.4238,-0.4478,-0.7939,31.372,-4.822,-0.183,-150.123,24.088,-23.220
12182,-0.3970,-0.5181,-0.7490,29.846,-5.005,-1.160,-149.766,24.120,-23.181
12192,-0.3945,-0.5298,-0.7358,14.465,-6.348,0.549,-149.551,24.170,-23.154
12202,-0.4014,-0.4980,-0.7510,-4.944,-6.348,2.991,-149.568,24.236,-23.143
12212,-0.4268,-0.4502,-0.7842,-19.409,-4.883,4.822,-149.771,24.313,-23.165
12222,-0.4424,-0.4043,-0.8286,-23.743,-2.991,3.723,-150.057,24.373,-23.181
12232,-0.4365,-0.3945,-0.8540,-16.479,-1.221,0.610,-150.271,24.390,-23.181
12242,-0.4214,-0.3999,-0.8535,-3.357,-0.916,-2.319,-150.342,24.384,-23.154
12252,-0.4028,-0.4331,-0.8311,10.193,-1.709,-3.479,-150.244,24.373,-23.110
12262,-0.3984,-0.4673,-0.7910,18.372,-3.662,-2.747,-150.035,24.379,-23.066
12272,-0.4058,-0.4917,-0.7627,17.456,-5.493,-1.587,-149.815,24.417,-23.022
12282,-0.4106,-0.4883,-0.7573,10.071,-5.920,-1.282,-149.672,24.461,-22.978
12292,-0.4150,-0.5044,-0.7646,1.587,-4.822,-1.526,-149.606,24.494,-22.934
12302,-0.4087,-0.4771,-0.7842,-6.409,-3.540,-1.892,-149.645,24.510,-22.896
12312,-0.4116,-0.4561,-0.7993,-8.423,-3.174,-1.038,-149.727,24.527,-22.868
12322,-0.4175,-0.4600,-0.8032,-4.272,-2.991,0.000,-149.766,24.549,-22.852
12332,-0.4194,-0.4487,-0.7949,1.892,-3.540,0.183,-149.749,24.582,-22.835
12342,-0.4204,-0.4585,-0.7686,7.507,-4.089,0.244,-149.656,24.626,-22.813
12352,-0.4219,-0.4570,-0.7515,8.423,-4.517,0.244,-149.557,24.675,-22.791
12362,-0.4307,-0.4590,-0.7388,5.493,-4.761,0.366,-149.480,24.736,-22.769
12372,-0.4302,-0.4951,-0.7388,0.488,-3.418,0.488,-149.436,24.774,-22.753
12382,-0.4175,-0.5000,-0.7515,-7.202,-1.953,-0.244,-149.469,24.791,-22.742
12392,-0.4087,-0.4966,-0.7607,-14.832,-0.916,0.427,-149.590,24.796,-22.742
12402,-0.4219,-0.4272,-0.7847,-19.348,-0.671,2.136,-149.804,24.818,-22.758
12412,-0.4448,-0.3750,-0.7920,-13.550,-0.732,2.441,-149.996,24.857,-22.775
12422,-0.4590,-0.3477,-0.7935,1.160,0.000,-0.183,-150.046,24.890,-22.775
12432,-0.4453,-0.3984,-0.7773,17.822,0.854,-4.517,-149.881,24.879,-22.736
12442,-0.4131,-0.5205,-0.7485,25.818,2.380,-7.568,-149.557,24.818,-22.676
12452,-0.3750,-0.6143,-0.7402,16.174,2.869,-7.996,-149.277,24.714,-22.615
12462,-0.3516,-0.6221,-0.7612,-3.418,3.113,-5.432,-149.211,24.609,-22.582
12472,-0.3564,-0.5615,-0.7939,-20.020,3.113,-0.244,-149.376,24.538,-22.599
12482,-0.3979,-0.4380,-0.8296,-24.048,2.258,5.310,-149.667,24.532,-22.659
12493,-0.4453,-0.3613,-0.8423,-12.268,1.282,7.935,-149.892,24.576,-22.742
12502,-0.4629,-0.3628,-0.8218,6.836,0.977,6.592,-149.914,24.626,-22.813
12516,-0.4561,-0.4072,-0.7812,20.142,0.488,2.380,-149.749,24.659,-22.835
12522,-0.4292,-0.4468,-0.7568,20.325,0.061,-0.977,-149.546,24.670,-22.830
12532,-0.4106,-0.4771,-0.7471,12.573,-0.122,-2.747,-149.387,24.659,-22.802
12542,-0.4019,-0.5146,-0.7524,1.343,0.122,-2.869,-149.326,24.631,-22.775
12552,-0.3965,-0.5205,-0.7842,-11.230,0.610,-2.197,-149.398,24.598,-22.758
12562,-0.4048,-0.4956,-0.8140,-20.264,0.916,-0.610,-149.595,24.571,-22.758
12572,-0.4136,-0.4609,-0.8389,-21.545,1.160,0.793,-149.826,24.554,-22.769
12582,-0.4214,-0.4150,-0.8457,-13.000,0.977,1.465,-150.007,24.549,-22.791
12592,-0.4346,-0.3789,-0.8315,3.113,-0.061,1.465,-150.035,24.565,-22.802
12602,-0.4360,-0.3975,-0.7876,21.729,-1.221,0.366,-149.848,24.598,-22.802
12612,-0.4380,-0.4668,-0.7393,30.945,-2.258,-0.610,-149.513,24.631,-22.780
12622,-0.4258,-0.5122,-0.7109,23.437,-1.953,-0.671,-149.222,24.659,-22.764
12632,-0.4155,-0.5303,-0.7178,5.493,-0.671,-0.183,-149.112,24.664,-22.758
12642,-0.4067,-0.5156,-0.7490,-13.245,1.099,0.183,-149.205,24.653,-22.769
12652,-0.4087,-0.4932,-0.7964,-25.085,2.563,0.916,-149.458,24.626,-22.791
12662,-0.4038,-0.4683,-0.8413,-26.001,3.662,0.610,-149.738,24.576,-22.819
12672,-0.4048,-0.4019,-0.8623,-16.052,3.479,0.183,-149.958,24.532,-22.835
12682,-0.4194,-0.3896,-0.8491,2.014,1.770,1.160,-150.002,24.521,-22.857
12692,-0.4297,-0.3960,-0.8140,19.836,-0.183,1.160,-149.848,24.538,-22.868
12702,-0.4272,-0.4360,-0.7617,30.457,-2.258,-0.366,-149.546,24.565,-22.852
12712,-0.4209,-0.4902,-0.7178,27.344,-3.906,-1.221,-149.222,24.609,-22.819
12722,-0.4160,-0.5029,-0.7085,12.085,-4.395,-1.709,-149.041,24.648,-22.780
12732,-0.4121,-0.5088,-0.7217,-7.385,-3.296,-1.770,-149.057,24.670,-22.742
12742,-0.4092,-0.4893,-0.7603,-24.292,-1.221,-1.343,-149.271,24.670,-22.725
12752,-0.4102,-0.4448,-0.8101,-31.189,0.610,-1.709,-149.590,24.648,-22.709
12762,-0.4062,-0.4116,-0.8408,-23.926,1.709,-2.747,-149.865,24.609,-22.692
12772,-0.4053,-0.4058,-0.8433,-7.385,1.526,-3.418,-149.974,24.565,-22.670
12782,-0.4062,-0.4248,-0.8213,10.498,1.099,-3.540,-149.886,24.532,-22.643
12792,-0.4019,-0.4697,-0.7764,22.644,0.183,-2.869,-149.639,24.510,-22.615
12802,-0.4102,-0.5142,-0.7490,21.729,-1.038,-1.160,-149.376,24.510,-22.599
12812,-0.4102,-0.5176,-0.7495,10.803,-1.038,-0.732,-149.222,24.510,-22.588
12822,-0.4048,-0.4878,-0.7705,-1.831,-0.549,-0.610,-149.222,24.510,-22.577
12832,-0.4126,-0.4614,-0.7979,-10.254,-0.366,-0.305,-149.332,24.505,-22.571
12842,-0.4233,-0.4199,-0.8218,-10.193,-0.488,-0.610,-149.464,24.510,-22.566
12852,-0.4287,-0.4058,-0.8101,-1.831,-0.854,-1.343,-149.513,24.516,-22.544
12862,-0.4399,-0.4292,-0.7827,7.874,-1.465,-2.014,-149.442,24.538,-22.522
12872,-0.4395,-0.4434,-0.7563,12.024,-1.526,-3.418,-149.310,24.554,-22.478
12882,-0.4272,-0.5005,-0.7363,10.315,-0.854,-4.456,-149.150,24.549,-22.434
12892,-0.4077,-0.5479,-0.7441,1.343,0.793,-4.700,-149.068,24.510,-22.390
12902,-0.3809,-0.6094,-0.7563,-12.024,2.136,-3.235,-149.095,24.445,-22.374
12912,-0.3628,-0.6704,-0.7866,-28.625,3.052,0.732,-149.299,24.373,-22.396
12922,-0.3667,-0.5630,-0.8354,-44.739,2.747,5.371,-149.733,24.335,-22.462
12932,-0.3989,-0.3843,-0.8491,-42.603,0.000,10.315,-150.255,24.373,-22.560
12942,-0.4609,-0.2886,-0.8340,-19.897,-3.296,14.038,-150.606,24.500,-22.676
12952,-0.5029,-0.2603,-0.7939,10.742,-4.333,12.024,-150.650,24.664,-22.769
12962,-0.4912,-0.2832,-0.7451,34.790,-2.441,4.211,-150.403,24.774,-22.797
12972,-0.4404,-0.4277,-0.6821,43.274,0.977,-3.723,-149.936,24.785,-22.764
12982,-0.3979,-0.5518,-0.6597,26.428,2.747,-7.507,-149.551,24.725,-22.709
12993,-0.3643,-0.5796,-0.6924,-4.822,3.906,-8.423,-149.480,24.620,-22.654
13002,-0.3540,-0.5840,-0.7422,-34.424,5.432,-5.737,-149.733,24.505,-22.626
13012,-0.3730,-0.5005,-0.8193,-54.382,6.042,-1.648,-150.271,24.417,-22.643
13022,-0.4019,-0.3926,-0.8823,-53.833,6.165,0.610,-150.875,24.346,-22.687
13032,-0.4238,-0.3433,-0.9082,-31.433,5.371,0.977,-151.287,24.296,-22.720
13042,-0.4365,-0.3491,-0.9004,0.977,4.639,-0.488,-151.359,24.252,-22.742
13052,-0.4092,-0.3950,-0.8496,31.067,4.028,-3.479,-151.084,24.197,-22.731
13062,-0.3931,-0.4951,-0.7646,45.959,1.709,-3.235,-150.579,24.159,-22.709
13072,-0.3989,-0.5078,-0.7251,38.086,-0.793,-0.916,-150.139,24.159,-22.692
13082,-0.4160,-0.4873,-0.7119,21.179,-1.587,0.977,-149.886,24.197,-22.698
13092,-0.4341,-0.4756,-0.7314,3.357,-0.366,1.526,-149.832,24.230,-22.709
13102,-0.4360,-0.4507,-0.7749,-11.658,1.953,-0.427,-149.947,24.225,-22.714
13112,-0.4297,-0.4253,-0.8174,-18.372,4.150,-2.686,-150.156,24.186,-22.714
13122,-0.4199,-0.4175,-0.8511,-15.747,5.615,-3.601,-150.348,24.115,-22.709
13132,-0.4092,-0.4551,-0.8618,-7.019,6.042,-3.540,-150.430,24.033,-22.709
13142,-0.3940,-0.5073,-0.8477,2.319,5.432,-3.052,-150.397,23.950,-22.709
13152,-0.3950,-0.5229,-0.8325,5.554,3.296,-1.465,-150.320,23.895,-22.714
13162,-0.4033,-0.5112,-0.8188,4.211,1.587,0.916,-150.260,23.873,-22.731
13172,-0.4214,-0.4707,-0.8135,2.991,0.305,3.418,-150.244,23.890,-22.764
13182,-0.4399,-0.4409,-0.8091,5.188,-0.916,4.456,-150.216,23.934,-22.802
13192,-0.4438,-0.4312,-0.7964,9.644,-1.648,3.540,-150.145,23.989,-22.824
13202,-0.4331,-0.4585,-0.7725,12.695,-1.831,2.197,-150.013,24.033,-22.835
13212,-0.4272,-0.4668,-0.7480,9.155,-1.953,2.136,-149.908,24.077,-22.846
13222,-0.4287,-0.4585,-0.7505,-0.061,-2.014,2.930,-149.903,24.131,-22.863
13232,-0.4277,-0.4458,-0.7656,-7.507,-0.610,2.625,-149.985,24.164,-22.885
13242,-0.4258,-0.4229,-0.7856,-12.146,0.854,1.404,-150.128,24.175,-22.901
13252,-0.4189,-0.4204,-0.8081,-11.536,2.136,-0.122,-150.271,24.164,-22.912
13262,-0.4048,-0.4517,-0.8203,-6.592,2.930,-1.892,-150.342,24.120,-22.912
13272,-0.3857,-0.4751,-0.8184,-1.709,2.258,-2.930,-150.348,24.066,-22.896
13282,-0.3765,-0.4883,-0.8154,1.587,0.061,-2.075,-150.315,24.033,-22.874
13292,-0.3735,-0.4951,-0.7993,4.089,-1.953,-0.549,-150.244,24.022,-22.857
13302,-0.3848,-0.4717,-0.7832,5.066,-3.784,0.793,-150.178,24.049,-22.846
13312,-0.4097,-0.4453,-0.7666,6.409,-4.089,1.770,-150.106,24.099,-22.841
13322,-0.4219,-0.4487,-0.7490,7.874,-2.930,1.831,-150.018,24.148,-22.841
13332,-0.4268,-0.4507,-0.7363,6.592,-0.916,1.465,-149.941,24.186,-22.852
13342,-0.4263,-0.4683,-0.7363,2.136,0.732,1.587,-149.908,24.208,-22.868
13352,-0.4209,-0.4888,-0.7524,-5.493,2.441,2.258,-149.947,24.208,-22.906
13362,-0.4111,-0.4712,-0.7881,-13.794,4.395,2.747,-150.095,24.181,-22.956
13372,-0.3989,-0.4497,-0.8267,-16.968,6.348,2.991,-150.304,24.131,-23.016
13382,-0.3926,-0.4175,-0.8521,-13.611,7.263,2.686,-150.496,24.066,-23.082
13392,-0.3872,-0.4043,-0.8613,-4.883,5.981,1.770,-150.612,24.000,-23.132
13402,-0.3887,-0.4233,-0.8403,5.615,3.357,0.488,-150.590,23.961,-23.154
13412,-0.3906,-0.4497,-0.8091,11.292,-0.183,-0.854,-150.480,23.945,-23.148
13422,-0.4004,-0.4707,-0.7773,9.216,-3.174,-1.343,-150.359,23.967,-23.115
13432,-0.4111,-0.4536,-0.7725,1.770,-4.272,-1.343,-150.320,24.005,-23.082
13442,-0.4170,-0.4634,-0.7832,-4.517,-2.808,-1.343,-150.342,24.027,-23.055
13452,-0.4072,-0.4761,-0.7983,-8.118,0.427,-2.014,-150.403,24.011,-23.033
13462,-0.3965,-0.4512,-0.8198,-9.338,2.869,-2.075,-150.502,23.967,-23.033
13472,-0.3843,-0.4536,-0.8198,-5.310,4.211,-0.732,-150.568,23.906,-23.049
13482,-0.3921,-0.4375,-0.8027,-0.671,3.235,1.892,-150.595,23.884,-23.082
13493,-0.4224,-0.3945,-0.7954,1.709,1.038,4.028,-150.628,23.906,-23.126
13502,-0.4404,-0.3955,-0.7900,4.333,1.038,3.479,-150.628,23.945,-23.165
13512,-0.4258,-0.4365,-0.7930,3.784,2.625,0.488,-150.606,23.934,-23.181
13522,-0.3936,-0.5063,-0.8022,-2.747,3.784,-1.770,-150.606,23.879,-23.187
13532,-0.3672,-0.5425,-0.8354,-14.709,3.906,-1.770,-150.716,23.802,-23.192
13542,-0.3604,-0.5400,-0.8730,-26.306,2.808,0.854,-150.958,23.736,-23.214
13552,-0.3711,-0.4541,-0.9014,-29.541,0.671,4.150,-151.293,23.714,-23.258
13562,-0.4087,-0.3169,-0.8989,-17.456,-3.357,6.042,-151.573,23.769,-23.297
13572,-0.4551,-0.2646,-0.8760,9.766,-6.653,4.211,-151.595,23.873,-23.302
13582,-0.4414,-0.3145,-0.8013,39.673,-7.568,-2.319,-151.249,23.961,-23.242
13592,-0.4165,-0.4565,-0.7095,52.368,-8.362,-6.897,-150.645,24.022,-23.132
13602,-0.3970,-0.5425,-0.6768,36.926,-7.996,-8.179,-150.139,24.060,-23.011
13612,-0.3730,-0.5591,-0.6968,8.789,-5.188,-8.423,-149.919,24.049,-22.901
13622,-0.3672,-0.5269,-0.7437,-16.968,-1.587,-6.104,-150.007,24.011,-22.835
13632,-0.3882,-0.4927,-0.8105,-30.090,1.648,-3.723,-150.282,23.961,-22.808
13642,-0.3984,-0.4634,-0.8672,-28.320,3.906,-3.479,-150.573,23.890,-22.797
13652,-0.3853,-0.4595,-0.8809,-14.221,4.272,-4.028,-150.727,23.807,-22.780
13662,-0.3779,-0.4570,-0.8599,3.601,2.441,-2.197,-150.699,23.747,-22.775
13672,-0.3921,-0.4453,-0.8071,20.081,-1.099,1.526,-150.507,23.758,-22.786
13682,-0.4268,-0.4517,-0.7520,29.785,-4.700,4.517,-150.205,23.840,-22.802
13692,-0.4414,-0.4551,-0.7173,28.503,-5.432,5.188,-149.903,23.950,-22.819
13702,-0.4526,-0.4370,-0.6982,18.433,-4.639,4.883,-149.711,24.066,-22.841
13712,-0.4609,-0.4639,-0.7085,3.662,-2.197,3.662,-149.656,24.148,-22.863
13722,-0.4438,-0.4805,-0.7495,-13.794,1.282,1.160,-149.777,24.164,-22.885
13733,-0.4248,-0.4800,-0.8047,-27.344,4.089,-0.427,-150.046,24.131,-22.901
13743,-0.4111,-0.4648,-0.8545,-31.616,6.104,-0.610,-150.386,24.060,-22.928
13752,-0.4023,-0.4395,-0.8872,-25.391,5.737,-0.549,-150.683,23.989,-22.956
13762,-0.4019,-0.4189,-0.8921,-9.766,3.235,-0.610,-150.826,23.939,-22.967
13772,-0.4004,-0.4360,-0.8555,8.972,-0.183,-0.305,-150.754,23.928,-22.961
13782,-0.4062,-0.4268,-0.7905,21.973,-4.517,0.366,-150.540,23.972,-22.939
13792,-0.4209,-0.4443,-0.7412,25.024,-8.240,1.160,-150.260,24.071,-22.906
13802,-0.4253,-0.4785,-0.7153,18.616,-8.789,0.732,-150.018,24.170,-22.868
13812,-0.4141,-0.5029,-0.7148,4.639,-6.958,-0.671,-149.903,24.241,-22.824
13822,-0.3975,-0.5166,-0.7461,-12.939,-3.357,-1.709,-149.974,24.252,-22.786
13833,-0.3867,-0.4805,-0.7974,-25.940,0.366,-1.465,-150.216,24.225,-22.775
13843,-0.3906,-0.4229,-0.8374,-26.672,2.747,-0.427,-150.513,24.186,-22.786
13853,-0.4092,-0.3745,-0.8501,-14.160,2.869,0.610,-150.721,24.159,-22.808
13863,-0.4219,-0.3794,-0.8340,4.395,1.648,0.610,-150.732,24.153,-22.824
13872,-0.4150,-0.4199,-0.7866,18.860,0.000,-0.854,-150.551,24.159,-22.813
13883,-0.4194,-0.4600,-0.7446,18.982,-2.258,-0.549,-150.331,24.186,-22.797
13892,-0.3965,-0.5093,-0.7290,5.920,-3.235,0.366,-150.216,24.219,-22.780
13903,-0.3901,-0.5659,-0.7222,-17.639,-3.357,2.686,-150.309,24.247,-22.791
13913,-0.3818,-0.4307,-0.8003,-46.753,-3.357,3.967,-150.798,24.280,-22.808
13922,-0.3804,-0.2817,-0.8784,-56.152,-2.319,2.808,-151.474,24.296,-22.824
13932,-0.3848,-0.1558,-0.9331,-36.560,-1.404,-2.930,-152.012,24.274,-22.791
13942,-0.4116,-0.1138,-0.9375,4.395,-2.136,-13.611,-152.117,24.219,-22.648
13953,-0.3735,-0.3208,-0.8218,53.955,-2.380,-27.588,-151.534,24.104,-22.368
13963,-0.3555,-0.5630,-0.6772,75.378,-6.714,-33.203,-150.535,23.983,-22.011
13973,-0.3652,-0.7065,-0.6035,56.519,-12.451,-30.090,-149.634,23.917,-21.660
13982,-0.3701,-0.7529,-0.5835,21.851,-9.766,-20.630,-149.095,23.873,-21.407
13993,-0.3867,-0.6948,-0.6279,-14.404,-0.244,-6.653,-149.046,23.824,-21.346
14002,-0.4170,-0.5400,-0.7290,-39.490,11.597,6.409,-149.431,23.769,-21.473
14012,-0.4380,-0.4009,-0.8281,-41.382,22.034,14.282,-149.991,23.670,-21.725
14023,-0.4355,-0.3276,-0.8750,-24.292,27.649,16.235,-150.447,23.527,-22.033
14033,-0.4336,-0.3140,-0.8828,-2.502,26.428,12.573,-150.672,23.373,-22.291
14043,-0.4287,-0.3604,-0.8491,11.963,20.996,6.531,-150.688,23.236,-22.467
14053,-0.4204,-0.4458,-0.8179,11.719,14.709,0.183,-150.612,23.121,-22.549
14063,-0.4033,-0.5088,-0.8071,-2.197,9.583,-4.456,-150.606,23.016,-22.555
14073,-0.3975,-0.5273,-0.8291,-20.203,5.493,-6.348,-150.765,22.928,-22.527
14083,-0.4014,-0.5151,-0.8730,-32.715,3.052,-6.714,-151.057,22.857,-22.478
14093,-0.4087,-0.4541,-0.9097,-32.715,1.282,-7.080,-151.381,22.802,-22.418
14103,-0.4121,-0.4331,-0.9263,-19.287,0.244,-6.165,-151.584,22.764,-22.357
14113,-0.4082,-0.4116,-0.9072,1.648,-0.549,-4.761,-151.589,22.742,-22.313
14123,-0.4058,-0.4272,-0.8555,21.545,-2.563,-3.235,-151.381,22.747,-22.269
14133,-0.4019,-0.4785,-0.7773,32.898,-4.211,-1.709,-151.007,22.786,-22.231
14143,-0.3970,-0.5039,-0.7461,26.672,-5.432,-0.610,-150.683,22.841,-22.192
14153,-0.3936,-0.5210,-0.7471,10.742,-4.395,-0.427,-150.507,22.885,-22.170
14163,-0.3804,-0.5005,-0.7783,-7.324,-1.831,-0.854,-150.540,22.890,-22.148
14173,-0.3789,-0.4600,-0.8203,-19.409,-0.732,-0.977,-150.732,22.879,-22.137
14183,-0.3818,-0.4229,-0.8584,-19.958,-0.366,-0.977,-150.952,22.868,-22.126
14193,-0.3833,-0.4111,-0.8647,-10.193,-0.671,-1.404,-151.084,22.857,-22.110
14203,-0.3945,-0.4189,-0.8467,3.052,-2.258,-1.526,-151.068,22.868,-22.083
14213,-0.3965,-0.4487,-0.8091,13.184,-3.784,-1.465,-150.925,22.896,-22.050
14223,-0.4033,-0.4575,-0.7710,15.625,-4.578,-0.793,-150.743,22.945,-22.017
14233,-0.4121,-0.4702,-0.7515,10.071,-4.639,0.305,-150.606,23.005,-21.995
14243,-0.4131,-0.4600,-0.7642,1.221,-3.052,0.366,-150.573,23.055,-21.984
14253,-0.4067,-0.4795,-0.7900,-5.371,-0.671,-0.488,-150.606,23.066,-21.973
14263,-0.3809,-0.4902,-0.8276,-10.071,1.343,-1.465,-150.688,23.033,-21.967
14273,-0.3535,-0.5127,-0.8516,-11.414,2.197,-1.160,-150.787,22.972,-21.967
14283,-0.3403,-0.5073,-0.8589,-9.827,1.221,0.610,-150.875,22.923,-21.978
14293,-0.3530,-0.4282,-0.8525,-5.310,-1.953,3.357,-150.958,22.928,-22.000
14303,-0.4014,-0.3555,-0.8271,5.859,-5.432,5.676,-150.969,23.016,-22.028
14313,-0.4336,-0.3662,-0.7861,19.592,-6.653,4.700,-150.820,23.132,-22.039
14323,-0.4282,-0.4258,-0.7358,25.940,-6.287,0.793,-150.546,23.225,-22.011
14333,-0.4175,-0.4771,-0.7144,17.883,-5.554,-2.136,-150.304,23.291,-21.962
14343,-0.3931,-0.5176,-0.7329,0.366,-3.418,-3.479,-150.227,23.307,-21.912
14353,-0.3730,-0.5371,-0.7700,-18.494,-0.488,-2.502,-150.348,23.280,-21.885
14363,-0.3760,-0.4932,-0.8232,-31.860,1.526,0.122,-150.656,23.253,-21.890
14373,-0.3877,-0.4038,-0.8711,-30.212,2.563,1.465,-151.007,23.225,-21.918
14383,-0.4077,-0.3472,-0.8818,-12.024,2.014,1.465,-151.210,23.214,-21.945
14393,-0.4131,-0.3345,-0.8530,14.221,0.244,-0.244,-151.144,23.220,-21.945
14403,-0.4121,-0.4043,-0.7803,36.987,-2.014,-2.441,-150.776,23.247,-21.912
14413,-0.4043,-0.4946,-0.7266,40.588,-3.540,-2.869,-150.309,23.275,-21.863
14423,-0.3906,-0.5483,-0.7202,24.475,-2.808,-2.686,-149.974,23.286,-21.824
14433,-0.3735,-0.5439,-0.7593,-0.305,-0.244,-2.197,-149.914,23.264,-21.802
14443,-0.3682,-0.5024,-0.8179,-20.630,1.770,-1.282,-150.101,23.220,-21.797
14453,-0.3833,-0.4819,-0.8706,-27.771,2.380,-0.610,-150.386,23.176,-21.808
14463,-0.3911,-0.4146,-0.8926,-22.217,0.488,-1.282,-150.650,23.148,-21.797
14473,-0.4048,-0.3750,-0.8677,-4.456,-3.662,-1.404,-150.743,23.176,-21.764
14483,-0.4204,-0.4072,-0.8203,15.747,-7.080,-0.977,-150.595,23.247,-21.714
14493,-0.4043,-0.4697,-0.7617,27.222,-7.874,-1.648,-150.282,23.318,-21.660
14503,-0.3940,-0.5195,-0.7158,23.987,-8.057,-1.221,-149.963,23.384,-21.605
14517,-0.3911,-0.5332,-0.7144,8.850,-7.141,-0.183,-149.793,23.450,-21.566
14523,-0.3911,-0.5117,-0.7490,-7.446,-4.639,0.732,-149.815,23.494,-21.544
14533,-0.3960,-0.4858,-0.7969,-17.151,-0.793,1.648,-149.980,23.500,-21.555
14543,-0.3989,-0.4629,-0.8462,-17.761,2.380,1.648,-150.178,23.478,-21.583
14553,-0.3931,-0.4282,-0.8750,-9.521,3.723,0.977,-150.320,23.439,-21.616
14563,-0.3779,-0.4199,-0.8613,6.165,2.502,0.671,-150.304,23.401,-21.632
14573,-0.3833,-0.4497,-0.8081,20.020,-1.038,2.014,-150.117,23.412,-21.649
14583,-0.4048,-0.4531,-0.7666,22.339,-4.639,3.601,-149.892,23.478,-21.654
14593,-0.4175,-0.4468,-0.7358,16.296,-6.348,3.113,-149.716,23.571,-21.649
14603,-0.4150,-0.4609,-0.7310,6.714,-5.310,1.404,-149.628,23.643,-21.638
14613,-0.4131,-0.4668,-0.7520,-4.578,-3.296,-0.732,-149.645,23.681,-21.610
14623,-0.4067,-0.4805,-0.7852,-12.085,0.305,-2.625,-149.744,23.670,-21.588
14633,-0.3984,-0.4687,-0.8247,-14.648,3.845,-3.296,-149.892,23.610,-21.577
14643,-0.3950,-0.4180,-0.8472,-9.521,5.798,-2.075,-150.029,23.544,-21.588
14653,-0.4053,-0.3916,-0.8511,3.784,5.066,0.183,-150.057,23.500,-21.616
14663,-0.4014,-0.4072,-0.8218,19.165,3.113,0.366,-149.914,23.472,-21.638
14673,-0.3901,-0.4121,-0.7725,27.283,-0.977,-0.427,-149.656,23.483,-21.627
14683,-0.4019,-0.4351,-0.7275,23.682,-6.958,0.000,-149.403,23.566,-21.594
14693,-0.4102,-0.4873,-0.7056,12.207,-9.705,-1.221,-149.216,23.659,-21.528
14703,-0.4106,-0.4966,-0.7153,-4.272,-8.972,-3.906,-149.183,23.736,-21.440
14713,-0.4087,-0.4956,-0.7544,-18.738,-4.700,-5.798,-149.315,23.752,-21.357
14723,-0.4009,-0.5044,-0.8101,-25.146,1.404,-7.080,-149.524,23.692,-21.297
14733,-0.3818,-0.5039,-0.8481,-21.484,6.714,-7.507,-149.722,23.571,-21.264
14743,-0.3647,-0.4888,-0.8618,-11.169,8.972,-5.188,-149.843,23.434,-21.264
14753,-0.3730,-0.4634,-0.8535,2.197,7.568,-0.671,-149.848,23.346,-21.302
14763,-0.3862,-0.4507,-0.8223,15.503,4.700,2.930,-149.733,23.307,-21.357
14773,-0.3960,-0.4653,-0.7842,23.315,1.648,4.517,-149.518,23.318,-21.407
14783,-0.4087,-0.4854,-0.7563,20.386,-1.221,4.822,-149.310,23.362,-21.445
14793,-0.4199,-0.4902,-0.7510,8.728,-2.808,3.601,-149.205,23.423,-21.462
14803,-0.4131,-0.4976,-0.7700,-5.737,-2.075,1.038,-149.238,23.456,-21.462
14813,-0.4019,-0.4854,-0.8003,-17.883,-0.549,-0.549,-149.409,23.456,-21.451
14823,-0.4019,-0.4497,-0.8359,-21.973,0.305,-0.793,-149.645,23.445,-21.445
14833,-0.4072,-0.4082,-0.8516,-15.076,0.183,-0.854,-149.843,23.439,-21.440
14843,-0.4116,-0.4082,-0.8428,-1.404,-0.671,-1.038,-149.892,23.439,-21.429
14853,-0.4121,-0.4189,-0.8169,12.024,-1.709,-2.014,-149.793,23.450,-21.396
14863,-0.4087,-0.4316,-0.7773,20.569,-2.930,-3.540,-149.579,23.472,-21.346
14873,-0.4072,-0.4873,-0.7412,21.851,-3.540,-3.845,-149.315,23.494,-21.292
14883,-0.4004,-0.5229,-0.7349,12.146,-3.052,-3.723,-149.123,23.505,-21.242
14893,-0.3901,-0.5156,-0.7520,-3.174,-2.014,-3.845,-149.101,23.500,-21.193
14903,-0.3931,-0.4873,-0.7944,-15.625,-0.122,-3.845,-149.233,23.478,-21.160
14913,-0.3970,-0.4302,-0.8359,-18.066,1.648,-4.395,-149.436,23.434,-21.127
14923,-0.4033,-0.3965,-0.8574,-9.033,2.075,-5.127,-149.568,23.390,-21.088
14933,-0.4028,-0.3960,-0.8525,7.080,1.831,-7.019,-149.535,23.335,-21.033
14943,-0.3945,-0.4404,-0.8110,21.484,-0.061,-8.057,-149.310,23.291,-20.956
14953,-0.3931,-0.5039,-0.7651,25.879,-2.380,-7.874,-148.991,23.275,-20.869
14963,-0.3853,-0.5112,-0.7383,19.409,-4.211,-7.446,-148.727,23.269,-20.775
14973,-0.3853,-0.5200,-0.7231,8.728,-5.005,-6.226,-148.563,23.280,-20.693
14983,-0.3926,-0.5146,-0.7319,-2.502,-4.639,-4.456,-148.524,23.302,-20.621
14993,-0.3950,-0.5005,-0.7568,-10.803,-2.869,-3.418,-148.590,23.313,-20.577
15003,-0.3940,-0.5024,-0.7803,-13.367,0.122,-2.625,-148.700,23.291,-20.550
15013,-0.3848,-0.5151,-0.7959,-11.536,2.869,-1.953,-148.799,23.247,-20.550
15023,-0.3730,-0.5225,-0.8091,-7.751,4.578,-0.732,-148.865,23.181,-20.566
15033,-0.3716,-0.5015,-0.8154,-3.052,4.700,1.404,-148.909,23.132,-20.610
15043,-0.3770,-0.4795,-0.8081,2.930,3.540,4.089,-148.903,23.110,-20.665
15053,-0.3940,-0.4717,-0.7964,7.812,1.282,5.676,-148.854,23.126,-20.726
15063,-0.4058,-0.4453,-0.7744,9.460,-1.221,5.188,-148.788,23.176,-20.770
15073,-0.4165,-0.4419,-0.7539,8.362,-2.869,3.662,-148.722,23.242,-20.786
15083,-0.4155,-0.4609,-0.7402,3.601,-2.869,1.648,-148.678,23.297,-20.786
15093,-0.4048,-0.4834,-0.7358,-4.639,-1.709,-0.305,-148.700,23.324,-20.770
15103,-0.3955,-0.5034,-0.7495,-13.611,0.427,-1.221,-148.804,23.318,-20.764
15113,-0.3867,-0.5127,-0.7842,-20.325,3.113,-1.404,-148.991,23.275,-20.770
15123,-0.3779,-0.5151,-0.8213,-21.545,5.676,-1.160,-149.200,23.203,-20.786
15133,-0.3765,-0.4717,-0.8496,-16.235,6.714,-0.366,-149.392,23.121,-20.825
15143,-0.3853,-0.4331,-0.8604,-2.563,6.042,1.160,-149.474,23.066,-20.869
15153,-0.3965,-0.4214,-0.8408,15.320,4.089,2.075,-149.376,23.038,-20.907
15163,-0.4053,-0.4424,-0.7993,29.114,1.770,1.648,-149.117,23.038,-20.934
15173,-0.4048,-0.4868,-0.7583,30.579,-0.244,0.427,-148.793,23.055,-20.934
15183,-0.3965,-0.5332,-0.7407,18.921,-1.343,-0.793,-148.557,23.066,-20.923
15193,-0.3892,-0.5474,-0.7505,0.000,-1.343,-1.343,-148.502,23.066,-20.901
15203,-0.3877,-0.5435,-0.7793,-17.761,-0.183,-0.549,-148.640,23.060,-20.896
15213,-0.3926,-0.5044,-0.8218,-28.015,1.465,1.038,-148.925,23.044,-20.912
15223,-0.3970,-0.4219,-0.8442,-25.024,2.197,2.075,-149.227,23.033,-20.945
15233,-0.4175,-0.3823,-0.8472,-9.888,1.221,3.296,-149.409,23.049,-20.984
15243,-0.4282,-0.3882,-0.8232,9.094,0.000,2.930,-149.381,23.088,-21.011
15253,-0.4160,-0.4146,-0.7744,22.888,-1.221,0.793,-149.178,23.121,-21.011
15263,-0.4004,-0.4819,-0.7393,24.414,-2.441,-0.916,-148.909,23.154,-20.989
15273,-0.3774,-0.5527,-0.7212,12.817,-2.808,-2.136,-148.700,23.159,-20.951
15283,-0.3599,-0.5728,-0.7412,-6.958,-2.625,-2.441,-148.694,23.148,-20.912
15293,-0.3574,-0.5513,-0.7798,-24.658,-1.587,-1.282,-148.887,23.126,-20.896
15303,-0.3633,-0.5142,-0.8271,-31.250,0.366,0.183,-149.189,23.099,-20.896
15313,-0.3760,-0.4429,-0.8540,-24.292,1.038,1.770,-149.474,23.082,-20.918
15323,-0.3999,-0.3955,-0.8486,-5.798,0.366,3.662,-149.601,23.099,-20.956
15333,-0.4165,-0.3921,-0.8149,15.808,-0.305,4.272,-149.507,23.137,-20.995
15343,-0.4155,-0.4248,-0.7549,32.166,-0.732,3.174,-149.211,23.187,-21.022
15353,-0.4136,-0.4468,-0.7104,33.569,-1.221,3.174,-148.870,23.242,-21.044
15363,-0.4199,-0.4927,-0.6895,21.851,-0.916,3.357,-148.623,23.297,-21.072
15373,-0.4048,-0.5283,-0.7075,0.854,0.244,2.014,-148.568,23.318,-21.088
15383,-0.3945,-0.5225,-0.7573,-22.766,2.014,0.183,-148.766,23.302,-21.105
15393,-0.3872,-0.5049,-0.8247,-38.330,4.150,-0.610,-149.150,23.247,-21.121
15403,-0.3789,-0.4697,-0.8809,-39.490,5.554,-1.160,-149.579,23.170,-21.143
15413,-0.3755,-0.4346,-0.9058,-26.184,4.761,-1.099,-149.892,23.099,-21.154
15423,-0.3887,-0.3892,-0.8955,-3.845,2.197,0.000,-150.002,23.066,-21.171
15433,-0.4048,-0.4004,-0.8530,21.729,-0.305,0.732,-149.837,23.077,-21.176
15443,-0.4053,-0.4648,-0.7749,39.368,-2.319,0.305,-149.436,23.104,-21.165
15453,-0.4028,-0.4961,-0.7187,38.147,-4.517,0.549,-149.008,23.165,-21.143
15463,-0.4102,-0.5386,-0.6958,23.132,-5.493,1.160,-148.705,23.236,-21.127
15473,-0.4033,-0.5493,-0.7100,-0.061,-3.784,0.488,-148.634,23.280,-21.110
15483,-0.3867,-0.5327,-0.7559,-22.461,-0.977,0.244,-148.815,23.286,-21.105
15493,-0.3857,-0.4990,-0.8218,-34.729,1.709,0.671,-149.167,23.258,-21.121
15503,-0.3818,-0.4639,-0.8657,-31.433,3.662,0.854,-149.513,23.209,-21.149
15513,-0.3740,-0.4312,-0.8799,-16.724,3.784,1.587,-149.738,23.165,-21.187
15523,-0.3872,-0.4053,-0.8657,3.357,2.136,3.052,-149.771,23.148,-21.226
15533,-0.3979,-0.4077,-0.8169,22.583,-0.366,3.906,-149.601,23.176,-21.259
15543,-0.4121,-0.4404,-0.7510,32.288,-2.991,4.211,-149.288,23.242,-21.281
15553,-0.4189,-0.4697,-0.7197,27.771,-4.639,3.479,-148.991,23.329,-21.292
15563,-0.4155,-0.4976,-0.7144,13.184,-4.272,0.916,-148.815,23.390,-21.275
15573,-0.3940,-0.5229,-0.7402,-6.042,-1.587,-1.892,-148.826,23.395,-21.248
15583,-0.3750,-0.5347,-0.7832,-22.888,1.648,-2.625,-149.013,23.351,-21.231
15593,-0.3682,-0.4995,-0.8271,-31.738,3.784,-1.587,-149.332,23.286,-21.237
15603,-0.3765,-0.4253,-0.8438,-26.917,4.028,0.366,-149.645,23.236,-21.264
15613,-0.4033,-0.3877,-0.8428,-11.475,2.625,3.052,-149.832,23.231,-21.308
15623,-0.4287,-0.3833,-0.8198,7.263,1.892,3.723,-149.832,23.258,-21.352
15633,-0.4209,-0.4038,-0.7832,21.179,1.953,0.977,-149.656,23.269,-21.374
15643,-0.3994,-0.4717,-0.7446,25.269,2.258,-1.648,-149.387,23.253,-21.368
15653,-0.3789,-0.5264,-0.7324,15.625,1.587,-2.930,-149.172,23.220,-21.352
15663,-0.3667,-0.5278,-0.7524,-1.831,0.671,-3.174,-149.139,23.181,-21.324
15673,-0.3691,-0.5107,-0.7842,-17.273,0.732,-1.770,-149.282,23.148,-21.313
15683,-0.3857,-0.4541,-0.8232,-24.170,0.793,0.000,-149.540,23.137,-21.319
15693,-0.4014,-0.4014,-0.8389,-18.555,0.488,0.671,-149.777,23.137,-21.324
15703,-0.4150,-0.3232,-0.8125,-3.418,-1.038,0.610,-149.897,23.170,-21.324
15713,-0.4404,-0.3247,-0.7534,13.977,-3.296,-0.183,-149.815,23.247,-21.308
15723,-0.4419,-0.3975,-0.7095,23.621,-2.930,-3.418,-149.573,23.307,-21.259
15733,-0.4033,-0.5288,-0.6914,17.822,0.061,-8.118,-149.299,23.286,-21.182
15743,-0.3501,-0.6079,-0.7085,-3.235,3.967,-10.986,-149.200,23.165,-21.099
15753,-0.3052,-0.6377,-0.7700,-30.518,6.775,-10.132,-149.392,22.994,-21.044
15763,-0.2935,-0.5742,-0.8472,-50.476,8.301,-6.104,-149.854,22.824,-21.033
15773,-0.3276,-0.4121,-0.9082,-50.171,7.019,-1.221,-150.414,22.714,-21.061
15783,-0.3896,-0.2861,-0.9238,-24.963,4.211,2.747,-150.804,22.681,-21.110
15793,-0.4453,-0.2837,-0.9009,14.587,2.380,2.136,-150.787,22.698,-21.143
15803,-0.4399,-0.3589,-0.8262,48.706,2.502,-3.540,-150.359,22.692,-21.121
15813,-0.4048,-0.4951,-0.7441,60.547,2.441,-7.385,-149.694,22.654,-21.066
15823,-0.3789,-0.6138,-0.7007,44.861,1.648,-8.667,-149.117,22.588,-20.995
15833,-0.3516,-0.6396,-0.7178,12.024,1.709,-8.484,-148.859,22.505,-20.923
15843,-0.3433,-0.5962,-0.7632,-19.470,3.174,-5.188,-148.975,22.423,-20.891
15853,-0.3726,-0.5005,-0.8369,-39.551,4.639,-0.488,-149.376,22.368,-20.912
15863,-0.4048,-0.4141,-0.8960,-39.063,5.371,1.648,-149.837,22.330,-20.962
15873,-0.4141,-0.3940,-0.9214,-21.057,5.249,1.221,-150.134,22.291,-21.000
15883,-0.4028,-0.4346,-0.9048,4.395,3.967,-0.610,-150.134,22.247,-21.017
15893,-0.3745,-0.4951,-0.8604,21.301,2.075,-1.892,-149.919,22.209,-21.006
15903,-0.3643,-0.5425,-0.8008,25.513,-0.183,0.000,-149.628,22.192,-21.006
15913,-0.3652,-0.5508,-0.7710,17.761,-2.319,2.747,-149.403,22.214,-21.022
15923,-0.3857,-0.5166,-0.7671,4.944,-4.333,5.127,-149.332,22.280,-21.044
15933,-0.4087,-0.4321,-0.7686,-5.676,-5.920,6.104,-149.409,22.390,-21.066
15943,-0.4321,-0.3960,-0.7778,-8.118,-6.592,5.310,-149.529,22.511,-21.083
15953,-0.4375,-0.4111,-0.7832,-5.249,-5.127,2.136,-149.606,22.604,-21.072
15963,-0.4097,-0.4399,-0.7778,-1.648,-2.563,-1.953,-149.623,22.637,-21.039
15973,-0.3770,-0.4946,-0.7759,-0.122,0.488,-3.662,-149.590,22.610,-21.011
15983,-0.3564,-0.5337,-0.7803,-3.418,2.563,-3.052,-149.579,22.555,-20.995
15993,-0.3525,-0.5244,-0.7964,-8.789,3.052,-1.099,-149.639,22.500,-21.000
16003,-0.3623,-0.4722,-0.8154,-10.498,2.197,1.526,-149.755,22.473,-21.028
16013,-0.3882,-0.4419,-0.8188,-3.906,0.671,3.601,-149.826,22.489,-21.066
16023,-0.3999,-0.4297,-0.8057,6.042,-0.916,3.113,-149.799,22.522,-21.088
16033,-0.4067,-0.4351,-0.7803,13.367,-2.258,1.404,-149.678,22.566,-21.088
16043,-0.3989,-0.4634,-0.7632,15.381,-1.831,-0.488,-149.507,22.599,-21.077
16053,-0.3867,-0.4775,-0.7578,11.414,-0.732,-1.831,-149.370,22.599,-21.055
