elapsed_ms,acc_x_g,acc_y_g,acc_z_g,gyro_x_dps,gyro_y_dps,gyro_z_dps,angle_x_deg,angle_y_deg,angle_z_deg
0,-0.4199,-0.5386,-0.7451,36.316,12.207,-9.644,-142.570,20.544,-47.703
10,-0.3281,-0.7319,-0.7593,36.377,16.541,-25.757,-142.103,20.226,-47.593
20,-0.2368,-0.9409,-0.7729,16.602,17.090,-32.959,-141.757,19.803,-47.428
30,-0.1797,-0.9771,-0.7715,-16.907,12.390,-27.710,-141.740,19.418,-47.280
40,-0.2085,-0.7656,-0.7676,-49.927,2.441,-9.094,-142.147,19.259,-47.219
50,-0.3198,-0.5234,-0.7671,-62.927,-5.249,16.785,-142.839,19.402,-47.324
60,-0.4268,-0.3940,-0.7588,-50.354,-5.432,35.706,-143.525,19.726,-47.593
70,-0.4878,-0.3149,-0.7632,-25.879,-0.305,38.818,-144.031,20.067,-47.922
80,-0.4956,-0.3271,-0.7676,2.441,7.385,28.015,-144.234,20.275,-48.208
90,-0.4492,-0.4668,-0.7676,24.597,15.930,8.972,-144.097,20.264,-48.384
100,-0.3604,-0.6196,-0.7710,33.752,22.766,-10.681,-143.751,20.017,-48.433
110,-0.2749,-0.7183,-0.7671,28.198,22.400,-21.912,-143.383,19.655,-48.389
120,-0.2354,-0.7739,-0.7554,11.169,16.174,-20.752,-143.157,19.330,-48.312
131,-0.2427,-0.7002,-0.7466,-8.667,8.789,-10.071,-143.174,19.144,-48.285
140,-0.3008,-0.5967,-0.7480,-21.301,2.380,5.798,-143.388,19.144,-48.351
150,-0.3677,-0.5088,-0.7368,-23.437,0.305,18.982,-143.690,19.281,-48.510
160,-0.4102,-0.4370,-0.7388,-17.212,0.366,23.132,-143.981,19.479,-48.713
170,-0.4214,-0.4502,-0.7451,-7.080,1.465,18.494,-144.157,19.638,-48.878
180,-0.3877,-0.5200,-0.7568,-0.366,3.601,7.019,-144.201,19.682,-48.961
190,-0.3213,-0.6162,-0.7593,-0.061,5.371,-5.737,-144.163,19.589,-48.944
200,-0.2700,-0.6743,-0.7622,-6.165,4.211,-12.268,-144.141,19.440,-48.867
210,-0.2583,-0.6650,-0.7646,-13.306,0.977,-10.864,-144.196,19.314,-48.779
220,-0.2783,-0.6138,-0.7593,-15.808,-1.465,-3.418,-144.305,19.276,-48.741
230,-0.3330,-0.4741,-0.7466,-10.437,-2.625,6.470,-144.454,19.347,-48.779
240,-0.4033,-0.3521,-0.7217,5.249,-2.136,13.794,-144.536,19.517,-48.884
250,-0.4458,-0.3149,-0.7109,26.001,1.465,13.977,-144.437,19.687,-49.016
260,-0.4331,-0.4194,-0.7051,44.800,7.080,5.493,-144.069,19.742,-49.109
270,-0.3633,-0.6211,-0.7041,50.720,12.939,-8.728,-143.514,19.605,-49.114
280,-0.2690,-0.7944,-0.7173,35.583,15.686,-21.362,-143.020,19.297,-49.032
290,-0.1948,-0.8828,-0.7329,5.371,13.367,-25.452,-142.789,18.946,-48.900
300,-0.1909,-0.7456,-0.7324,-24.231,6.409,-18.250,-142.910,18.699,-48.785
310,-0.2661,-0.5195,-0.7446,-37.903,-0.854,-1.038,-143.306,18.677,-48.774
320,-0.3652,-0.3950,-0.7485,-27.344,-1.099,16.479,-143.707,18.831,-48.906
330,-0.4287,-0.3213,-0.7388,-3.601,3.967,22.949,-143.943,19.023,-49.125
340,-0.4395,-0.3179,-0.7437,20.874,9.644,17.395,-143.932,19.144,-49.334
350,-0.3887,-0.5073,-0.7373,38.452,15.747,3.418,-143.608,19.078,-49.460
360,-0.2954,-0.6934,-0.7344,37.781,19.775,-14.099,-143.163,18.814,-49.466
370,-0.2129,-0.8125,-0.7358,19.531,18.188,-25.146,-142.828,18.441,-49.367
380,-0.1729,-0.8140,-0.7319,-6.775,11.475,-24.353,-142.745,18.111,-49.235
390,-0.2134,-0.6484,-0.7358,-28.748,3.296,-12.268,-142.965,17.952,-49.153
400,-0.3052,-0.4844,-0.7466,-34.607,-0.427,6.470,-143.366,18.001,-49.208
410,-0.3848,-0.3877,-0.7456,-22.278,3.479,19.958,-143.734,18.160,-49.395
420,-0.4209,-0.3184,-0.7495,-2.380,9.094,21.912,-143.965,18.309,-49.636
430,-0.4097,-0.3999,-0.7588,16.907,13.855,14.160,-143.943,18.353,-49.845
440,-0.3384,-0.6216,-0.7695,24.719,19.104,-0.916,-143.707,18.199,-49.955
450,-0.2373,-0.8027,-0.7881,12.512,21.118,-16.724,-143.487,17.869,-49.944
460,-0.1567,-0.8867,-0.7935,-13.733,17.029,-24.109,-143.476,17.485,-49.850
470,-0.1665,-0.7046,-0.7891,-39.368,7.141,-18.250,-143.778,17.238,-49.741
480,-0.2612,-0.4604,-0.8032,-46.448,-2.075,0.061,-144.300,17.238,-49.730
490,-0.3711,-0.3398,-0.7910,-28.809,-2.441,18.799,-144.750,17.430,-49.872
500,-0.4482,-0.2153,-0.7788,0.793,3.357,25.024,-145.014,17.661,-50.109
510,-0.4595,-0.2275,-0.7764,34.058,9.766,17.822,-144.926,17.803,-50.317
520,-0.3916,-0.5049,-0.7666,57.068,16.785,0.488,-144.410,17.721,-50.422
530,-0.2749,-0.7773,-0.7632,53.040,20.508,-21.484,-143.767,17.397,-50.367
540,-0.1636,-0.9507,-0.7744,22.522,16.907,-37.170,-143.339,16.946,-50.158
550,-0.1162,-0.8994,-0.7661,-18.372,5.798,-39.185,-143.306,16.556,-49.861
560,-0.1782,-0.6240,-0.7798,-47.485,-7.751,-25.391,-143.679,16.403,-49.603
570,-0.2964,-0.4478,-0.7900,-47.607,-12.573,-1.709,-144.196,16.507,-49.510
580,-0.3872,-0.3696,-0.7920,-24.658,-7.446,15.686,-144.569,16.732,-49.598
590,-0.4336,-0.2949,-0.7964,5.432,0.793,18.372,-144.712,16.935,-49.757
600,-0.4053,-0.3970,-0.7930,33.813,7.568,8.789,-144.503,17.001,-49.878
610,-0.3252,-0.6177,-0.7827,47.791,13.123,-7.812,-144.003,16.864,-49.894
620,-0.2178,-0.8071,-0.7754,39.368,13.306,-23.743,-143.481,16.556,-49.774
631,-0.1460,-0.8721,-0.7651,13.672,6.287,-30.640,-143.157,16.232,-49.554
640,-0.1538,-0.7173,-0.7554,-13.428,-4.700,-24.780,-143.163,16.046,-49.323
650,-0.2344,-0.5566,-0.7529,-25.696,-12.817,-7.019,-143.383,16.084,-49.180
660,-0.3330,-0.4512,-0.7427,-19.958,-12.634,11.414,-143.635,16.304,-49.197
670,-0.3892,-0.3813,-0.7432,-3.723,-5.981,19.348,-143.800,16.551,-49.323
680,-0.3779,-0.4844,-0.7563,12.573,1.526,15.564,-143.751,16.694,-49.466
690,-0.3110,-0.6675,-0.7593,16.296,7.385,2.075,-143.558,16.650,-49.526
700,-0.2241,-0.7412,-0.7681,3.601,8.240,-12.268,-143.432,16.463,-49.477
710,-0.1846,-0.7100,-0.7695,-15.686,3.784,-16.968,-143.492,16.271,-49.356
720,-0.1973,-0.6255,-0.7720,-28.564,-1.648,-10.498,-143.723,16.172,-49.257
730,-0.2554,-0.5161,-0.7744,-29.236,-4.639,2.258,-144.036,16.210,-49.252
740,-0.3369,-0.3872,-0.7637,-15.137,-4.211,12.878,-144.300,16.375,-49.334
750,-0.3975,-0.3013,-0.7505,7.019,-0.244,16.357,-144.404,16.567,-49.471
760,-0.4033,-0.3354,-0.7485,29.724,5.798,11.047,-144.261,16.683,-49.598
770,-0.3437,-0.5718,-0.7378,43.640,12.817,-2.380,-143.828,16.600,-49.658
780,-0.2446,-0.7642,-0.7373,35.889,16.296,-19.104,-143.355,16.320,-49.598
790,-0.1636,-0.8203,-0.7539,9.216,12.085,-29.480,-143.108,15.974,-49.422
800,-0.1362,-0.7612,-0.7642,-17.883,3.662,-27.649,-143.146,15.688,-49.219
810,-0.1841,-0.6245,-0.7783,-34.729,-3.906,-14.832,-143.432,15.579,-49.070
820,-0.2764,-0.4653,-0.7949,-31.616,-6.348,1.587,-143.800,15.650,-49.043
830,-0.3486,-0.4204,-0.7988,-10.864,-2.808,12.085,-144.020,15.798,-49.125
840,-0.3623,-0.4395,-0.8008,11.353,2.991,11.292,-144.009,15.897,-49.241
850,-0.3228,-0.5488,-0.8027,26.062,7.385,1.038,-143.778,15.870,-49.296
860,-0.2432,-0.6870,-0.7886,29.724,9.583,-12.756,-143.427,15.694,-49.246
870,-0.1724,-0.7803,-0.7871,20.996,6.531,-21.667,-143.097,15.447,-49.109
880,-0.1455,-0.7915,-0.7676,6.348,-0.061,-21.362,-142.899,15.238,-48.928
890,-0.1797,-0.6641,-0.7598,-6.714,-7.507,-11.169,-142.888,15.178,-48.790
900,-0.2656,-0.5234,-0.7427,-8.667,-11.047,4.944,-142.987,15.309,-48.763
910,-0.3550,-0.3799,-0.7202,1.831,-9.521,17.334,-143.080,15.568,-48.845
920,-0.4028,-0.3677,-0.7119,17.212,-3.479,21.179,-143.047,15.831,-48.999
930,-0.3833,-0.4849,-0.7100,28.442,3.540,13.367,-142.828,15.969,-49.131
940,-0.3032,-0.6929,-0.7109,26.062,10.132,-3.357,-142.509,15.875,-49.169
950,-0.2036,-0.8213,-0.7192,4.456,12.573,-19.531,-142.328,15.606,-49.087
960,-0.1460,-0.8179,-0.7402,-26.245,8.911,-24.536,-142.449,15.309,-48.944
970,-0.1548,-0.7026,-0.7642,-50.232,2.869,-15.686,-142.866,15.123,-48.829
980,-0.2251,-0.5342,-0.7871,-56.335,-1.709,1.282,-143.454,15.128,-48.829
990,-0.3066,-0.4199,-0.8076,-41.016,-1.038,16.785,-143.987,15.266,-48.966
1000,-0.3540,-0.3955,-0.8145,-14.099,3.113,22.278,-144.278,15.436,-49.169
1010,-0.3535,-0.4492,-0.8267,10.315,7.751,16.357,-144.300,15.518,-49.356
1020,-0.3008,-0.5811,-0.8301,27.527,12.085,1.892,-144.058,15.441,-49.444
1030,-0.2241,-0.6938,-0.8242,32.104,13.000,-13.367,-143.690,15.222,-49.411
1040,-0.1646,-0.7568,-0.8042,25.574,9.521,-19.836,-143.339,14.963,-49.301
1050,-0.1655,-0.7061,-0.7822,14.526,2.808,-15.259,-143.113,14.793,-49.197
1060,-0.2168,-0.6069,-0.7661,6.592,-3.357,-2.319,-143.020,14.782,-49.153
1070,-0.2998,-0.4858,-0.7417,6.287,-5.920,11.658,-143.015,14.936,-49.213
1080,-0.3682,-0.3916,-0.7275,13.733,-4.211,19.165,-142.998,15.172,-49.345
1090,-0.3804,-0.4028,-0.7183,23.682,0.061,16.907,-142.877,15.370,-49.488
1100,-0.3325,-0.5869,-0.7231,26.733,3.723,5.737,-142.608,15.419,-49.559
1110,-0.2329,-0.7969,-0.7163,14.404,6.165,-10.620,-142.350,15.276,-49.510
1120,-0.1592,-0.8589,-0.7339,-15.015,2.502,-21.790,-142.333,15.051,-49.345
1131,-0.1411,-0.7637,-0.7593,-44.312,-4.028,-20.386,-142.652,14.881,-49.153
1140,-0.2036,-0.5405,-0.7871,-56.763,-9.277,-7.446,-143.212,14.881,-49.032
1150,-0.3003,-0.3887,-0.8032,-41.199,-8.667,9.155,-143.734,15.040,-49.054
1160,-0.3760,-0.2876,-0.7974,-7.019,-1.099,18.799,-144.003,15.249,-49.208
1170,-0.3955,-0.2480,-0.7891,30.457,7.263,17.395,-143.937,15.397,-49.395
1180,-0.3340,-0.4893,-0.7573,59.753,14.587,7.202,-143.421,15.370,-49.543
1190,-0.2280,-0.8091,-0.7124,60.120,17.578,-7.446,-142.718,15.156,-49.592
1200,-0.1401,-0.9634,-0.6963,26.306,12.451,-18.982,-142.267,14.859,-49.515
1210,-0.0947,-0.9409,-0.6963,-23.560,2.991,-20.569,-142.306,14.606,-49.362
1220,-0.1338,-0.6660,-0.7202,-65.186,-7.263,-8.850,-142.872,14.540,-49.246
1230,-0.2632,-0.3892,-0.7451,-74.768,-12.329,13.306,-143.712,14.749,-49.279
1240,-0.3799,-0.2637,-0.7661,-51.086,-6.775,30.579,-144.443,15.084,-49.493
1250,-0.4160,-0.3145,-0.8057,-17.517,4.456,30.273,-144.833,15.326,-49.774
1260,-0.3682,-0.4517,-0.8369,9.888,14.648,12.634,-144.855,15.342,-49.966
1270,-0.2471,-0.6665,-0.8398,23.010,20.630,-12.329,-144.597,15.079,-49.988
1280,-0.1338,-0.8052,-0.8359,16.724,18.005,-29.358,-144.311,14.678,-49.845
1290,-0.0928,-0.7725,-0.8125,1.465,7.935,-30.518,-144.168,14.343,-49.636
1300,-0.1523,-0.5459,-0.7769,-9.033,-4.028,-16.968,-144.223,14.222,-49.471
1310,-0.2896,-0.3149,-0.7495,-3.357,-11.902,5.859,-144.382,14.409,-49.449
1320,-0.3745,-0.3037,-0.7124,19.592,-8.789,22.949,-144.344,14.722,-49.587
1330,-0.3911,-0.3960,-0.6992,38.025,0.305,23.010,-144.080,14.963,-49.785
1340,-0.3350,-0.6362,-0.6924,40.649,8.850,7.751,-143.641,14.985,-49.905
1350,-0.2344,-0.8296,-0.7026,15.991,12.939,-14.221,-143.339,14.771,-49.861
1360,-0.1406,-0.8833,-0.7456,-25.757,11.902,-31.067,-143.416,14.414,-49.680
1370,-0.1030,-0.7700,-0.7861,-62.073,6.592,-34.729,-143.893,14.068,-49.433
1380,-0.1685,-0.4258,-0.8232,-73.792,-1.343,-22.949,-144.662,13.909,-49.235
1390,-0.2808,-0.3047,-0.8491,-48.645,-4.761,-1.892,-145.289,13.969,-49.191
1400,-0.3335,-0.3428,-0.8481,-4.761,1.282,10.437,-145.486,14.079,-49.285
1410,-0.3252,-0.3467,-0.8193,35.339,7.507,8.301,-145.278,14.123,-49.400
1420,-0.2891,-0.5977,-0.7744,57.312,10.925,1.831,-144.701,14.068,-49.477
1430,-0.2080,-0.8501,-0.7461,48.889,12.634,-9.155,-144.080,13.876,-49.477
1440,-0.1279,-0.9302,-0.7437,13.062,10.376,-19.958,-143.773,13.601,-49.373
1450,-0.1060,-0.8164,-0.7627,-27.039,3.906,-21.118,-143.899,13.365,-49.224
1460,-0.1475,-0.6104,-0.8027,-50.781,-1.526,-11.169,-144.366,13.260,-49.120
1470,-0.2314,-0.4434,-0.8325,-46.509,-2.930,4.456,-144.910,13.315,-49.142
1481,-0.3135,-0.3623,-0.8579,-19.592,-0.427,14.587,-145.250,13.453,-49.257
1490,-0.3369,-0.3154,-0.8589,16.296,4.456,13.062,-145.267,13.557,-49.395
1501,-0.3105,-0.4844,-0.8286,46.753,7.629,4.089,-144.866,13.563,-49.477
1510,-0.2358,-0.7417,-0.7930,53.467,9.277,-8.789,-144.256,13.425,-49.455
1520,-0.1460,-0.8770,-0.7778,33.630,5.676,-20.325,-143.762,13.200,-49.323
1530,-0.0996,-0.8794,-0.7612,1.770,-1.587,-22.522,-143.569,12.997,-49.125
1540,-0.1313,-0.7012,-0.7661,-25.146,-8.911,-13.062,-143.723,12.931,-48.961
1550,-0.2168,-0.5298,-0.7856,-34.729,-10.986,5.432,-144.086,13.052,-48.939
1561,-0.2964,-0.4692,-0.7910,-23.437,-6.714,20.264,-144.399,13.271,-49.070
1570,-0.3452,-0.3457,-0.7954,-3.784,-1.343,24.414,-144.602,13.508,-49.263
1581,-0.3608,-0.3369,-0.8042,20.996,3.479,20.386,-144.564,13.683,-49.455
1591,-0.3022,-0.5874,-0.7808,37.476,8.972,8.362,-144.207,13.694,-49.581
1600,-0.2046,-0.7764,-0.7598,29.785,10.010,-7.996,-143.811,13.541,-49.576
1610,-0.1255,-0.8354,-0.7642,1.831,4.456,-18.005,-143.652,13.326,-49.449
1620,-0.1079,-0.7598,-0.7759,-26.550,-4.272,-16.235,-143.800,13.189,-49.290
1631,-0.1538,-0.6084,-0.7925,-43.701,-10.254,-4.272,-144.196,13.200,-49.191
1640,-0.2485,-0.4233,-0.8003,-39.368,-11.414,11.597,-144.673,13.381,-49.219
1650,-0.3457,-0.2788,-0.8018,-14.648,-8.606,22.583,-145.009,13.667,-49.362
1661,-0.3804,-0.2891,-0.8101,18.127,-2.075,22.339,-145.025,13.914,-49.537
1671,-0.3193,-0.5435,-0.7886,43.396,6.775,9.766,-144.630,13.958,-49.658
1680,-0.2075,-0.7725,-0.7617,41.626,10.681,-8.484,-144.113,13.793,-49.653
1690,-0.1279,-0.8169,-0.7544,13.367,4.944,-20.081,-143.833,13.563,-49.510
1700,-0.1064,-0.7812,-0.7559,-18.372,-4.211,-18.860,-143.877,13.409,-49.329
1710,-0.1411,-0.6636,-0.7744,-40.222,-10.925,-8.240,-144.201,13.392,-49.197
1720,-0.2197,-0.4844,-0.7896,-43.518,-12.634,6.958,-144.668,13.535,-49.180
1731,-0.3091,-0.3657,-0.7969,-26.489,-9.705,18.738,-145.063,13.777,-49.279
1741,-0.3706,-0.2832,-0.8105,1.404,-3.906,20.020,-145.239,14.019,-49.422
1751,-0.3384,-0.3984,-0.8135,30.457,3.296,10.437,-145.047,14.117,-49.532
1760,-0.2437,-0.6743,-0.7812,45.166,8.789,-5.737,-144.547,14.002,-49.532
1770,-0.1431,-0.8374,-0.7749,31.372,7.080,-20.142,-144.086,13.760,-49.406
1780,-0.0806,-0.8936,-0.7783,1.404,0.122,-24.536,-143.893,13.519,-49.202
1790,-0.0869,-0.7568,-0.7710,-25.757,-8.057,-17.578,-144.020,13.392,-49.010
1800,-0.1880,-0.4775,-0.7729,-36.987,-14.465,1.770,-144.410,13.502,-48.939
1811,-0.3193,-0.3364,-0.7661,-21.851,-12.573,23.010,-144.772,13.810,-49.054
1821,-0.3872,-0.2642,-0.7607,6.104,-4.639,31.372,-144.932,14.145,-49.290
1831,-0.3760,-0.3159,-0.7632,32.471,3.174,25.085,-144.789,14.365,-49.521
1841,-0.2842,-0.6436,-0.7529,45.227,10.559,7.629,-144.322,14.343,-49.647
1850,-0.1367,-0.9355,-0.7754,26.184,12.573,-14.832,-143.904,14.073,-49.598
1860,-0.0181,-1.0503,-0.7988,-13.733,5.798,-29.358,-143.822,13.722,-49.389
1870,-0.0234,-0.8018,-0.8164,-52.063,-8.057,-26.001,-144.190,13.513,-49.125
1880,-0.1680,-0.4038,-0.8330,-59.265,-20.142,-2.502,-144.844,13.623,-48.983
1891,-0.3369,-0.2588,-0.8159,-28.259,-19.287,27.588,-145.327,14.019,-49.098
1900,-0.4419,-0.1772,-0.7998,16.541,-9.277,43.457,-145.464,14.480,-49.417
1911,-0.4570,-0.2354,-0.7759,59.570,3.052,39.246,-145.135,14.826,-49.768
1921,-0.3770,-0.4966,-0.7285,84.900,14.832,19.653,-144.366,14.897,-50.021
1930,-0.2686,-0.7856,-0.6807,72.571,20.142,-4.272,-143.536,14.711,-50.109
1940,-0.1650,-0.8970,-0.6802,27.771,18.616,-26.611,-143.069,14.343,-49.999
1950,-0.0815,-0.9258,-0.7168,-24.902,13.000,-39.856,-143.102,13.898,-49.752
1960,-0.0850,-0.6841,-0.7681,-65.002,2.502,-36.438,-143.630,13.568,-49.466
1970,-0.1948,-0.3931,-0.8164,-73.792,-6.592,-14.099,-144.432,13.524,-49.307
1981,-0.3101,-0.3169,-0.8433,-45.593,-5.859,10.620,-145.042,13.689,-49.362
1991,-0.3604,-0.3101,-0.8525,-5.371,-0.366,20.325,-145.283,13.887,-49.532
2001,-0.3408,-0.3853,-0.8335,29.724,3.418,15.381,-145.124,14.008,-49.680
2011,-0.2739,-0.6372,-0.7988,45.715,4.761,3.052,-144.651,13.997,-49.735
2020,-0.1836,-0.8223,-0.7617,34.241,2.197,-12.512,-144.168,13.859,-49.642
2030,-0.1226,-0.8540,-0.7529,3.479,-4.700,-23.010,-143.954,13.689,-49.422
2040,-0.1313,-0.7183,-0.7412,-25.024,-12.085,-21.667,-144.064,13.596,-49.169
2050,-0.2129,-0.4814,-0.7559,-36.804,-16.785,-8.240,-144.421,13.678,-48.999
2061,-0.3145,-0.3618,-0.7671,-22.522,-14.526,8.667,-144.745,13.914,-48.988
2071,-0.3750,-0.2720,-0.7695,7.996,-6.531,15.930,-144.849,14.161,-49.081
2081,-0.3667,-0.3970,-0.7627,39.856,0.732,12.024,-144.553,14.315,-49.186
2091,-0.2832,-0.7124,-0.7334,52.063,6.836,-1.526,-143.959,14.266,-49.213
2100,-0.1787,-0.8813,-0.7271,32.043,7.019,-19.897,-143.465,14.041,-49.092
2110,-0.1050,-0.8979,-0.7354,-5.615,1.221,-30.334,-143.322,13.760,-48.845
2120,-0.1030,-0.7490,-0.7466,-37.598,-6.348,-27.283,-143.547,13.568,-48.582
2131,-0.1841,-0.4956,-0.7705,-47.913,-11.963,-10.376,-144.025,13.579,-48.422
2141,-0.2935,-0.3789,-0.7695,-30.457,-10.193,10.864,-144.426,13.777,-48.455
2151,-0.3677,-0.2783,-0.7695,1.831,-3.296,21.790,-144.608,14.035,-48.615
2161,-0.3550,-0.3950,-0.7554,33.508,4.456,19.836,-144.399,14.200,-48.807
2171,-0.2871,-0.6924,-0.7339,46.448,10.864,6.836,-143.888,14.167,-48.933
2180,-0.1865,-0.8340,-0.7246,28.564,11.292,-12.207,-143.470,13.958,-48.900
2190,-0.1177,-0.8311,-0.7339,-5.127,5.737,-23.804,-143.361,13.694,-48.735
2200,-0.1147,-0.7026,-0.7339,-33.264,-2.502,-21.362,-143.575,13.513,-48.543
2210,-0.2095,-0.4160,-0.7563,-42.664,-9.705,-5.127,-144.053,13.563,-48.444
2221,-0.3315,-0.3130,-0.7642,-24.902,-8.789,14.954,-144.448,13.804,-48.516
2231,-0.3765,-0.3120,-0.7705,5.432,-0.549,21.423,-144.575,14.035,-48.691
2241,-0.3564,-0.4448,-0.7783,30.151,7.202,12.329,-144.366,14.128,-48.840
2250,-0.2637,-0.6562,-0.7598,39.185,12.756,-7.751,-143.932,13.986,-48.851
2260,-0.1646,-0.7778,-0.7427,25.208,11.292,-27.100,-143.542,13.683,-48.691
2270,-0.1079,-0.8315,-0.7476,-1.648,5.005,-35.828,-143.377,13.354,-48.428
2280,-0.0991,-0.7822,-0.7622,-24.231,-2.197,-33.203,-143.459,13.090,-48.137
2290,-0.1445,-0.6377,-0.7642,-34.363,-7.263,-19.531,-143.723,12.986,-47.933
2300,-0.2368,-0.5068,-0.7607,-27.649,-8.301,-0.183,-144.009,13.068,-47.884
2311,-0.2974,-0.4785,-0.7524,-8.240,-4.150,13.184,-144.146,13.228,-47.966
2321,-0.3101,-0.5054,-0.7646,10.559,3.418,14.832,-144.097,13.343,-48.109
2331,-0.2632,-0.5972,-0.7720,22.888,12.329,7.507,-143.882,13.304,-48.246
2341,-0.1909,-0.7251,-0.7725,21.973,19.592,-2.197,-143.619,13.107,-48.345
2351,-0.1421,-0.7471,-0.7808,5.920,21.667,-6.775,-143.503,12.838,-48.422
2361,-0.1475,-0.6553,-0.7949,-11.292,18.799,-3.052,-143.608,12.623,-48.510
2371,-0.1924,-0.5674,-0.8096,-18.005,15.625,7.202,-143.833,12.524,-48.669
2380,-0.2329,-0.5605,-0.8145,-14.893,14.099,15.625,-144.042,12.508,-48.884
2391,-0.2598,-0.4741,-0.8140,-9.827,11.414,17.090,-144.240,12.546,-49.092
2401,-0.2812,-0.4468,-0.8203,-1.099,6.775,15.686,-144.360,12.623,-49.263
2411,-0.2646,-0.5303,-0.8008,5.676,4.395,9.949,-144.349,12.673,-49.373
2421,-0.2236,-0.6094,-0.7900,4.761,2.197,-0.549,-144.283,12.656,-49.378
2431,-0.1738,-0.7031,-0.7754,-5.920,-0.122,-9.399,-144.261,12.568,-49.301
2441,-0.1470,-0.6978,-0.7896,-21.423,-3.479,-12.817,-144.388,12.475,-49.175
2450,-0.1602,-0.6548,-0.8057,-32.104,-5.188,-8.972,-144.646,12.431,-49.070
2461,-0.2129,-0.4922,-0.8428,-31.921,-4.333,-1.282,-145.009,12.453,-49.032
2471,-0.2622,-0.4639,-0.8638,-13.672,0.549,5.737,-145.223,12.508,-49.081
2480,-0.2539,-0.4521,-0.8477,11.353,6.348,5.554,-145.195,12.513,-49.169
2490,-0.2461,-0.4487,-0.8213,31.860,6.531,3.906,-144.954,12.502,-49.241
2500,-0.2065,-0.6748,-0.7905,41.321,4.944,2.502,-144.503,12.464,-49.290
2511,-0.1416,-0.8691,-0.7637,27.588,3.235,-3.296,-144.097,12.365,-49.279
2521,-0.0952,-0.8687,-0.7725,-3.418,-1.953,-8.362,-143.987,12.255,-49.197
2530,-0.1050,-0.7427,-0.7939,-31.433,-7.324,-3.784,-144.212,12.222,-49.125
2541,-0.1875,-0.4722,-0.8125,-40.588,-9.949,9.766,-144.673,12.349,-49.147
2551,-0.3101,-0.3091,-0.8223,-24.170,-7.446,24.841,-145.096,12.623,-49.307
2561,-0.3730,-0.2300,-0.8203,7.568,-0.061,28.625,-145.267,12.898,-49.548
2571,-0.3535,-0.3027,-0.8052,40.344,5.859,19.958,-145.052,13.057,-49.752
2581,-0.2646,-0.5918,-0.7529,56.702,8.911,4.150,-144.476,13.030,-49.839
2591,-0.1816,-0.7710,-0.7095,41.870,5.432,-12.939,-143.926,12.881,-49.763
2601,-0.1333,-0.8135,-0.7202,5.066,-1.221,-24.048,-143.707,12.689,-49.554
2611,-0.1152,-0.7476,-0.7354,-27.771,-6.287,-25.513,-143.839,12.530,-49.307
2621,-0.1562,-0.5591,-0.7695,-45.349,-10.376,-14.954,-144.245,12.491,-49.120
2631,-0.2349,-0.4492,-0.8047,-38.086,-9.399,1.282,-144.679,12.590,-49.076
2641,-0.2725,-0.4824,-0.8345,-16.541,-3.540,10.132,-144.910,12.711,-49.136
2651,-0.2559,-0.5034,-0.8423,3.784,0.610,7.874,-144.932,12.772,-49.208
2661,-0.2314,-0.5757,-0.8242,16.235,0.183,1.953,-144.772,12.783,-49.224
2671,-0.1909,-0.6274,-0.7935,17.517,-1.770,-4.028,-144.558,12.750,-49.180
2681,-0.1855,-0.6128,-0.7617,12.512,-4.822,-5.371,-144.388,12.739,-49.109
2691,-0.1948,-0.6147,-0.7402,7.080,-5.676,-1.770,-144.267,12.761,-49.059
2701,-0.2168,-0.5991,-0.7378,2.258,-5.127,4.028,-144.212,12.827,-49.065
2711,-0.2241,-0.6455,-0.7622,-4.456,-1.709,7.080,-144.218,12.881,-49.109
2721,-0.2100,-0.6455,-0.7969,-10.925,2.258,4.456,-144.305,12.876,-49.164
2731,-0.2056,-0.5664,-0.8296,-14.648,2.747,1.831,-144.470,12.849,-49.191
2741,-0.1963,-0.4858,-0.8696,-5.127,1.099,2.808,-144.591,12.843,-49.224
2751,-0.1514,-0.5889,-0.8726,18.433,-0.854,6.470,-144.437,12.838,-49.274
2761,-0.1123,-0.6558,-0.8525,38.574,-7.568,12.817,-144.047,12.903,-49.334
2771,-0.1411,-0.6401,-0.8320,45.959,-21.179,23.987,-143.591,13.162,-49.406
2781,-0.2036,-0.6631,-0.7939,46.265,-33.203,35.767,-143.119,13.618,-49.499
2791,-0.2666,-0.6372,-0.7593,42.908,-39.246,43.518,-142.690,14.200,-49.614
2801,-0.3154,-0.6050,-0.7266,37.903,-39.001,47.058,-142.328,14.832,-49.757
2811,-0.3467,-0.5659,-0.6953,32.715,-32.959,45.471,-142.026,15.430,-49.922
2821,-0.3589,-0.5229,-0.6948,26.550,-25.391,39.978,-141.817,15.941,-50.087
2831,-0.3628,-0.5337,-0.6958,21.606,-16.235,31.982,-141.652,16.326,-50.246
2841,-0.3496,-0.5425,-0.6943,16.785,-8.240,20.813,-141.526,16.573,-50.361
2851,-0.3394,-0.5732,-0.6846,10.559,-2.380,9.583,-141.422,16.694,-50.422
2861,-0.3311,-0.5342,-0.6846,3.479,2.014,0.061,-141.400,16.716,-50.438
2871,-0.3398,-0.4878,-0.6846,-1.343,6.470,-4.395,-141.443,16.694,-50.444
2881,-0.3496,-0.5308,-0.6851,-1.770,12.329,-7.507,-141.476,16.606,-50.460
2891,-0.3252,-0.6094,-0.6797,-3.113,20.386,-14.709,-141.476,16.386,-50.477
2901,-0.2783,-0.6069,-0.6777,-10.193,27.100,-23.254,-141.542,16.040,-50.460
2911,-0.2339,-0.6436,-0.6909,-20.508,30.212,-25.269,-141.696,15.628,-50.449
2921,-0.1997,-0.6807,-0.7095,-30.823,30.579,-21.729,-141.949,15.216,-50.471
2931,-0.1812,-0.6050,-0.7412,-39.612,27.283,-15.442,-142.344,14.865,-50.521
2941,-0.2109,-0.5146,-0.7891,-38.513,21.240,-5.676,-142.795,14.639,-50.609
2951,-0.2339,-0.5732,-0.8262,-24.780,18.433,-0.061,-143.091,14.480,-50.718
2961,-0.2158,-0.6196,-0.8481,-7.751,18.188,-3.357,-143.196,14.288,-50.806
2971,-0.1943,-0.6562,-0.8477,5.920,15.930,-7.629,-143.135,14.073,-50.839
2981,-0.1772,-0.6543,-0.8120,14.038,12.024,-7.629,-142.982,13.892,-50.850
2991,-0.2090,-0.5747,-0.7866,14.648,5.310,-0.610,-142.850,13.826,-50.878
3001,-0.2476,-0.6016,-0.7534,14.771,1.526,6.653,-142.707,13.859,-50.944
3011,-0.2671,-0.5708,-0.7397,11.658,0.488,7.507,-142.603,13.925,-51.010
3021,-0.2710,-0.5840,-0.7339,5.371,0.488,4.578,-142.548,13.969,-51.048
3031,-0.2568,-0.5786,-0.7388,-2.258,1.831,-0.732,-142.564,13.964,-51.053
3041,-0.2563,-0.5781,-0.7617,-9.216,3.174,-5.127,-142.652,13.920,-51.031
3051,-0.2490,-0.5845,-0.7808,-11.597,4.822,-8.301,-142.762,13.832,-50.993
3061,-0.2358,-0.5757,-0.7910,-9.949,5.188,-9.460,-142.866,13.733,-50.949
3071,-0.2290,-0.5679,-0.7920,-5.676,4.089,-7.202,-142.927,13.651,-50.916
3081,-0.2397,-0.5703,-0.7925,-0.427,2.136,-2.747,-142.943,13.623,-50.905
3091,-0.2437,-0.5879,-0.7861,3.662,0.610,-0.244,-142.910,13.618,-50.911
3101,-0.2437,-0.6094,-0.7808,5.249,-0.854,-0.854,-142.844,13.623,-50.894
3111,-0.2285,-0.6494,-0.7715,3.906,-1.221,-2.808,-142.767,13.607,-50.867
3121,-0.2222,-0.6499,-0.7651,-1.526,-1.038,-3.967,-142.745,13.579,-50.828
3131,-0.2266,-0.6260,-0.7764,-8.606,-0.854,-2.808,-142.806,13.563,-50.801
3141,-0.2427,-0.5854,-0.7896,-11.719,0.488,-0.366,-142.932,13.557,-50.801
3151,-0.2568,-0.5757,-0.8115,-9.277,2.502,0.977,-143.042,13.552,-50.823
3161,-0.2500,-0.5396,-0.8257,-2.075,4.700,-0.671,-143.108,13.519,-50.845
3171,-0.2368,-0.5298,-0.8223,8.789,4.272,-2.686,-143.064,13.469,-50.850
3181,-0.2339,-0.5464,-0.8022,19.409,0.793,-2.869,-142.894,13.447,-50.834
3191,-0.2231,-0.6714,-0.7788,23.804,-2.930,-3.662,-142.608,13.436,-50.784
3201,-0.1968,-0.7354,-0.7603,16.663,-6.042,-6.775,-142.355,13.414,-50.691
3211,-0.1855,-0.7173,-0.7495,1.282,-9.460,-7.812,-142.256,13.409,-50.565
3221,-0.2178,-0.5596,-0.7344,-10.803,-13.306,-2.625,-142.344,13.497,-50.460
3231,-0.2871,-0.4751,-0.7344,-12.085,-14.526,6.348,-142.498,13.694,-50.422
3241,-0.3262,-0.4785,-0.7280,-4.028,-10.437,8.728,-142.581,13.898,-50.427
3251,-0.3130,-0.5259,-0.7393,2.869,-4.639,1.587,-142.570,13.997,-50.411
3261,-0.2622,-0.5688,-0.7402,5.798,1.282,-9.460,-142.498,13.947,-50.345
3271,-0.2134,-0.6797,-0.7534,3.662,5.493,-15.198,-142.394,13.788,-50.251
3281,-0.1538,-0.8354,-0.7686,-5.127,9.521,-16.907,-142.328,13.552,-50.175
3291,-0.1187,-0.8027,-0.7920,-21.301,9.827,-15.076,-142.449,13.310,-50.114
3301,-0.1475,-0.5752,-0.8105,-28.992,3.845,-4.944,-142.751,13.200,-50.098
3311,-0.2412,-0.4097,-0.8062,-18.555,-3.723,11.047,-143.053,13.315,-50.164
3321,-0.3184,-0.3447,-0.7837,4.883,-7.141,21.423,-143.168,13.568,-50.295
3331,-0.3364,-0.4204,-0.7529,29.114,-7.141,19.104,-142.982,13.815,-50.411
3341,-0.2993,-0.5977,-0.7119,41.016,-6.958,6.287,-142.548,13.947,-50.416
3351,-0.2363,-0.7915,-0.6772,29.968,-6.531,-9.949,-142.103,13.925,-50.295
3361,-0.1636,-0.8848,-0.6870,-1.770,-5.005,-23.132,-141.927,13.771,-50.076
3371,-0.1343,-0.8193,-0.7222,-35.400,-3.723,-24.658,-142.119,13.579,-49.850
3381,-0.1670,-0.5737,-0.7534,-51.514,-3.601,-13.428,-142.603,13.491,-49.719
3391,-0.2666,-0.3525,-0.7969,-41.626,-4.211,5.981,-143.157,13.596,-49.746
3401,-0.3306,-0.2974,-0.8013,-10.193,0.061,19.348,-143.459,13.788,-49.905
3411,-0.2988,-0.3379,-0.7988,24.658,3.357,17.151,-143.388,13.914,-50.065
3421,-0.2212,-0.6064,-0.7588,46.204,0.122,8.118,-142.927,13.947,-50.136
3431,-0.1631,-0.8057,-0.7183,38.086,-10.620,-1.770,-142.416,13.969,-50.054
3441,-0.1270,-0.8608,-0.7275,7.019,-21.179,-9.155,-142.180,14.002,-49.845
3451,-0.1353,-0.8115,-0.7549,-22.705,-27.405,-8.972,-142.251,14.095,-49.598
3461,-0.1826,-0.6226,-0.7705,-36.682,-30.273,-0.488,-142.553,14.293,-49.406
3471,-0.2793,-0.4038,-0.7861,-28.320,-29.236,14.160,-142.921,14.639,-49.334
3481,-0.3643,-0.4429,-0.7915,-3.601,-22.217,24.536,-143.053,15.035,-49.400
3491,-0.3691,-0.4126,-0.7808,17.151,-12.878,19.470,-142.993,15.326,-49.482
3501,-0.3677,-0.3779,-0.7593,33.142,-8.240,9.705,-142.778,15.529,-49.510
3511,-0.3208,-0.5918,-0.7256,41.016,-3.052,-0.793,-142.344,15.584,-49.482
3521,-0.2681,-0.7349,-0.6953,30.334,1.160,-12.878,-141.927,15.491,-49.384
3531,-0.2290,-0.7871,-0.7046,4.517,2.747,-20.447,-141.746,15.309,-49.235
3541,-0.2144,-0.7734,-0.7241,-19.165,4.028,-20.996,-141.812,15.112,-49.092
3551,-0.2266,-0.6431,-0.7578,-34.790,5.005,-14.771,-142.108,14.958,-49.005
3561,-0.2607,-0.5137,-0.8052,-31.921,6.409,-4.639,-142.482,14.886,-49.005
3571,-0.2808,-0.4136,-0.8311,-12.512,7.874,2.686,-142.734,14.859,-49.076
3581,-0.2715,-0.3569,-0.8315,15.320,6.836,2.991,-142.740,14.843,-49.147
3591,-0.2544,-0.4868,-0.7812,41.443,3.296,-0.427,-142.388,14.821,-49.164
3601,-0.2236,-0.7007,-0.7266,47.974,-0.488,-7.935,-141.828,14.749,-49.092
3611,-0.1899,-0.8506,-0.6929,30.151,-3.784,-18.372,-141.361,14.617,-48.922
3621,-0.1548,-0.8882,-0.6807,-1.038,-6.348,-25.085,-141.174,14.447,-48.675
3631,-0.1772,-0.7271,-0.6870,-26.855,-9.277,-20.569,-141.306,14.348,-48.450
3641,-0.2725,-0.4971,-0.7212,-35.400,-8.606,-3.479,-141.674,14.420,-48.367
3651,-0.3486,-0.4229,-0.7539,-21.667,0.793,13.916,-142.009,14.573,-48.488
3661,-0.3594,-0.3496,-0.7935,1.465,12.573,18.860,-142.196,14.672,-48.719
3671,-0.3271,-0.4272,-0.8047,22.217,20.386,15.076,-142.136,14.656,-48.972
3681,-0.2686,-0.6279,-0.7847,30.945,22.583,5.493,-141.872,14.513,-49.158
3691,-0.2114,-0.7261,-0.7705,17.883,18.066,-7.874,-141.652,14.293,-49.213
3701,-0.1704,-0.7930,-0.7764,-3.540,9.827,-18.738,-141.592,14.046,-49.120
3711,-0.1543,-0.7153,-0.7744,-21.667,1.038,-22.339,-141.724,13.843,-48.950
3721,-0.2339,-0.4692,-0.7812,-26.123,-10.010,-13.550,-142.015,13.843,-48.774
3731,-0.3311,-0.4741,-0.7749,-11.658,-13.000,0.671,-142.174,14.013,-48.697
3741,-0.3384,-0.5142,-0.7593,6.531,-8.972,2.930,-142.141,14.161,-48.664
3751,-0.3115,-0.5864,-0.7461,15.442,-8.057,-3.479,-141.965,14.244,-48.587
3761,-0.2490,-0.6982,-0.7349,14.587,-7.935,-12.878,-141.729,14.222,-48.433
3771,-0.1978,-0.7407,-0.7168,1.587,-8.179,-19.043,-141.586,14.134,-48.224
3781,-0.2026,-0.6938,-0.7119,-12.878,-7.507,-19.592,-141.603,14.046,-48.016
3791,-0.2197,-0.7095,-0.7251,-17.578,0.854,-18.555,-141.685,13.909,-47.873
3801,-0.2251,-0.6387,-0.7339,-15.198,12.268,-15.991,-141.795,13.705,-47.823
3811,-0.2637,-0.5039,-0.7661,-8.179,20.203,-7.751,-141.938,13.524,-47.889
3821,-0.2690,-0.5005,-0.7905,7.996,25.574,1.709,-141.960,13.359,-48.065
3831,-0.2271,-0.5518,-0.8032,22.583,23.560,6.714,-141.817,13.217,-48.268
3841,-0.1851,-0.7075,-0.7993,29.602,11.108,9.399,-141.526,13.151,-48.417
3851,-0.1572,-0.7930,-0.7764,21.545,-6.409,8.789,-141.246,13.206,-48.444
3861,-0.1660,-0.7612,-0.7764,3.662,-23.499,6.287,-141.130,13.381,-48.345
3871,-0.2007,-0.7207,-0.7632,-9.155,-33.325,5.005,-141.136,13.645,-48.170
3881,-0.2676,-0.5625,-0.7388,-12.634,-34.058,5.554,-141.235,13.964,-47.994
3891,-0.3437,-0.4873,-0.7446,-5.432,-25.757,7.019,-141.317,14.277,-47.884
3901,-0.3506,-0.4961,-0.7227,8.972,-10.681,4.456,-141.262,14.464,-47.851
3911,-0.3301,-0.5396,-0.7168,17.761,3.113,-2.625,-141.108,14.480,-47.851
3921,-0.2446,-0.6841,-0.7227,18.250,14.221,-11.047,-140.883,14.299,-47.851
3931,-0.1646,-0.7510,-0.7285,7.568,16.418,-14.893,-140.735,14.024,-47.840
3941,-0.1465,-0.7378,-0.7480,-5.798,10.803,-10.132,-140.735,13.815,-47.829
3951,-0.1753,-0.6577,-0.7671,-13.550,5.188,0.366,-140.867,13.738,-47.867
3961,-0.2300,-0.5571,-0.7939,-10.498,0.671,10.315,-141.031,13.793,-47.955
3971,-0.2764,-0.5015,-0.8013,2.441,-1.709,15.442,-141.103,13.931,-48.065
3981,-0.2773,-0.4985,-0.7759,17.883,-3.052,12.878,-141.010,14.063,-48.148
3991,-0.2563,-0.5874,-0.7480,26.184,-5.554,5.615,-140.757,14.150,-48.159
4001,-0.2026,-0.7471,-0.7241,21.301,-8.179,-2.869,-140.466,14.161,-48.082
4011,-0.1729,-0.7803,-0.7163,2.991,-10.925,-9.216,-140.317,14.139,-47.939
4021,-0.1836,-0.6567,-0.7280,-15.381,-11.658,-10.254,-140.411,14.128,-47.780
4031,-0.2412,-0.5581,-0.7422,-18.066,-6.531,-3.906,-140.598,14.156,-47.708
4041,-0.2959,-0.5527,-0.7495,-4.761,3.723,4.578,-140.691,14.189,-47.769
4051,-0.3306,-0.4780,-0.7461,11.292,13.489,8.118,-140.680,14.200,-47.917
4061,-0.3115,-0.4634,-0.7407,27.832,18.738,7.751,-140.521,14.161,-48.104
4071,-0.2695,-0.6162,-0.7183,37.659,18.555,6.348,-140.180,14.079,-48.274
4081,-0.2031,-0.7930,-0.6963,27.771,13.794,1.892,-139.839,13.953,-48.384
4091,-0.1572,-0.8452,-0.7090,0.427,6.836,-2.258,-139.746,13.826,-48.411
4101,-0.1543,-0.7920,-0.7388,-28.931,0.977,-2.136,-139.960,13.749,-48.400
4111,-0.2148,-0.5752,-0.7847,-43.335,-3.601,1.282,-140.427,13.771,-48.384
4121,-0.2974,-0.4312,-0.8218,-31.616,-4.944,5.371,-140.861,13.881,-48.395
4131,-0.3433,-0.4351,-0.8247,-3.601,-4.089,4.700,-141.010,14.008,-48.406
4141,-0.3149,-0.5054,-0.7842,21.118,-4.700,-3.296,-140.850,14.068,-48.351
4151,-0.2695,-0.6035,-0.7412,32.532,-8.362,-11.963,-140.493,14.073,-48.197
4161,-0.2256,-0.7510,-0.7041,26.794,-12.085,-17.395,-140.103,14.041,-47.983
4171,-0.1899,-0.8281,-0.6929,8.911,-13.306,-20.630,-139.850,13.969,-47.730
4181,-0.1758,-0.7925,-0.7041,-10.193,-13.306,-19.775,-139.812,13.898,-47.488
4191,-0.2036,-0.6670,-0.7217,-19.287,-12.939,-12.878,-139.933,13.892,-47.302
4201,-0.2549,-0.5786,-0.7402,-15.930,-10.376,-2.014,-140.092,13.975,-47.214
4211,-0.2920,-0.5078,-0.7358,-2.991,-5.676,5.981,-140.175,14.095,-47.225
4221,-0.3193,-0.4170,-0.7241,12.451,-2.625,9.277,-140.164,14.244,-47.280
4231,-0.3018,-0.5625,-0.7109,25.085,0.671,9.338,-139.949,14.337,-47.357
4241,-0.2334,-0.8066,-0.6855,22.339,2.930,2.441,-139.642,14.310,-47.395
4251,-0.1670,-0.8188,-0.6865,0.732,0.793,-8.606,-139.521,14.194,-47.335
4261,-0.1743,-0.6665,-0.7090,-20.996,-4.944,-9.888,-139.675,14.128,-47.225
4271,-0.2363,-0.5522,-0.7300,-26.062,-9.094,0.000,-139.949,14.200,-47.164
4281,-0.2964,-0.4854,-0.7363,-14.160,-7.629,10.132,-140.164,14.365,-47.192
4291,-0.3354,-0.4341,-0.7510,4.883,-4.639,12.634,-140.235,14.551,-47.263
4301,-0.3081,-0.5679,-0.7480,21.851,-2.075,7.263,-140.054,14.650,-47.307
4311,-0.2305,-0.7446,-0.7324,25.452,-1.892,-4.578,-139.735,14.612,-47.258
4321,-0.1611,-0.8291,-0.7231,11.780,-4.944,-15.259,-139.493,14.491,-47.104
4331,-0.1514,-0.7334,-0.7192,-7.019,-10.254,-16.235,-139.460,14.398,-46.906
4341,-0.2085,-0.5640,-0.7139,-14.893,-14.343,-5.066,-139.598,14.458,-46.774
4351,-0.2979,-0.4443,-0.7085,-5.127,-13.855,10.498,-139.730,14.683,-46.763
4361,-0.3501,-0.4277,-0.7095,11.108,-7.507,19.104,-139.735,14.947,-46.862
4371,-0.3340,-0.5527,-0.6987,23.254,-0.854,15.686,-139.554,15.106,-46.983
4381,-0.2715,-0.6772,-0.6919,20.386,2.319,2.625,-139.323,15.112,-47.016
4391,-0.2031,-0.7842,-0.7007,3.479,2.197,-12.817,-139.191,14.974,-46.934
4401,-0.1484,-0.8228,-0.7305,-19.104,-0.366,-23.132,-139.257,14.755,-46.747
4411,-0.1362,-0.8047,-0.7651,-35.522,-2.869,-22.949,-139.504,14.546,-46.549
4421,-0.1807,-0.6045,-0.7866,-39.185,-5.737,-12.756,-139.883,14.469,-46.412
4431,-0.2734,-0.4609,-0.8027,-22.400,-6.714,3.723,-140.208,14.562,-46.395
4441,-0.3271,-0.4375,-0.7856,6.470,-2.991,14.038,-140.273,14.727,-46.489
4451,-0.3228,-0.4785,-0.7510,31.921,-0.305,13.367,-140.054,14.865,-46.593
4461,-0.2983,-0.6416,-0.7031,43.396,-0.061,7.324,-139.614,14.941,-46.648
4471,-0.2437,-0.7695,-0.6699,33.691,-0.183,-4.028,-139.186,14.897,-46.615
4481,-0.2144,-0.7935,-0.6792,9.033,-0.854,-13.611,-138.983,14.782,-46.505
4491,-0.1919,-0.8101,-0.7061,-13.855,-0.305,-16.724,-139.005,14.634,-46.368
4501,-0.1958,-0.7285,-0.7388,-27.161,1.282,-12.939,-139.219,14.496,-46.280
4511,-0.2393,-0.5723,-0.7729,-26.489,2.502,-2.441,-139.521,14.458,-46.274
4521,-0.2861,-0.5215,-0.7939,-10.864,4.395,8.545,-139.724,14.502,-46.373
4531,-0.2969,-0.5391,-0.7798,7.935,6.409,11.353,-139.735,14.557,-46.505
4541,-0.2886,-0.5215,-0.7485,21.179,4.822,7.812,-139.603,14.601,-46.599
4551,-0.2764,-0.6309,-0.7153,26.794,1.709,3.357,-139.334,14.623,-46.637
4561,-0.2354,-0.7593,-0.6953,20.874,1.099,-4.395,-139.054,14.568,-46.609
4571,-0.1997,-0.7881,-0.7021,3.784,-0.427,-11.292,-138.922,14.464,-46.516
4581,-0.2021,-0.7324,-0.7085,-12.024,-3.235,-9.399,-138.966,14.392,-46.423
4591,-0.2480,-0.6196,-0.7246,-19.653,-4.761,0.854,-139.158,14.436,-46.395
4601,-0.3047,-0.5117,-0.7422,-15.442,-3.662,10.681,-139.389,14.573,-46.456
4611,-0.3437,-0.4448,-0.7485,-1.770,-0.977,14.221,-139.532,14.744,-46.560
4621,-0.3281,-0.4556,-0.7476,14.771,1.099,9.277,-139.499,14.854,-46.642
4631,-0.2832,-0.6064,-0.7290,26.855,2.014,-2.441,-139.241,14.837,-46.637
4641,-0.2158,-0.7559,-0.7095,24.292,1.465,-16.418,-138.906,14.694,-46.516
4651,-0.1626,-0.8423,-0.7192,8.240,-1.160,-24.597,-138.691,14.474,-46.318
4661,-0.1406,-0.8687,-0.7222,-10.742,-3.662,-23.926,-138.658,14.271,-46.104
4671,-0.1772,-0.6797,-0.7241,-22.339,-7.446,-13.672,-138.823,14.200,-45.950
4681,-0.2725,-0.4990,-0.7305,-16.663,-9.583,4.761,-139.048,14.332,-45.923
4691,-0.3442,-0.4658,-0.7134,2.930,-5.188,18.555,-139.125,14.568,-46.033
4701,-0.3618,-0.4355,-0.7012,20.874,0.427,19.409,-139.043,14.782,-46.187
4711,-0.3354,-0.5439,-0.6748,31.982,3.845,10.925,-138.779,14.886,-46.296
4721,-0.2617,-0.7510,-0.6494,27.710,5.371,-4.211,-138.422,14.815,-46.302
4731,-0.1875,-0.8555,-0.6558,4.639,4.272,-19.348,-138.241,14.606,-46.181
4741,-0.1421,-0.8867,-0.6919,-23.621,1.099,-26.062,-138.323,14.354,-45.989
4751,-0.1543,-0.7686,-0.7344,-42.175,-1.831,-20.996,-138.647,14.167,-45.813
4761,-0.2246,-0.5874,-0.7710,-40.710,-3.357,-6.042,-139.076,14.145,-45.742
4771,-0.2949,-0.5127,-0.7852,-19.653,-0.427,9.705,-139.367,14.244,-45.818
4781,-0.3267,-0.4722,-0.7798,7.141,4.395,16.113,-139.427,14.370,-45.972
4791,-0.3091,-0.4971,-0.7520,29.724,6.531,13.611,-139.241,14.453,-46.121
4801,-0.2612,-0.6738,-0.7100,40.222,6.287,5.920,-138.840,14.447,-46.208
4811,-0.2090,-0.7666,-0.6738,31.128,3.723,-4.517,-138.450,14.365,-46.203
4821,-0.1812,-0.7944,-0.6782,9.277,-1.221,-10.376,-138.257,14.260,-46.115
4831,-0.1831,-0.7690,-0.6885,-11.414,-4.944,-10.071,-138.279,14.189,-46.000
4841,-0.2383,-0.5923,-0.7124,-21.301,-8.179,-2.563,-138.494,14.233,-45.923
4851,-0.3076,-0.5220,-0.7290,-14.587,-7.385,7.446,-138.697,14.381,-45.934
4861,-0.3447,-0.4702,-0.7285,1.587,-3.845,9.766,-138.779,14.546,-45.983
4871,-0.3364,-0.5005,-0.7305,16.296,-1.160,4.700,-138.691,14.650,-46.011
4881,-0.2720,-0.6694,-0.7090,25.574,1.038,-4.883,-138.411,14.617,-45.978
4891,-0.1934,-0.8169,-0.6997,18.372,1.282,-15.259,-138.126,14.464,-45.873
4901,-0.1411,-0.8594,-0.7153,0.366,-0.488,-19.714,-137.999,14.266,-45.714
4911,-0.1416,-0.7900,-0.7310,-14.832,-2.747,-14.832,-138.060,14.123,-45.582
4921,-0.1899,-0.6445,-0.7407,-17.883,-4.883,-1.282,-138.235,14.117,-45.538
4931,-0.2842,-0.5420,-0.7368,-8.362,-4.211,15.137,-138.395,14.277,-45.626
4941,-0.3369,-0.4814,-0.7324,6.714,-0.061,22.034,-138.450,14.491,-45.797
4951,-0.3364,-0.4966,-0.7183,21.729,3.906,17.273,-138.345,14.639,-45.956
4961,-0.2856,-0.6177,-0.6846,28.870,5.249,5.127,-138.076,14.661,-46.033
4971,-0.2310,-0.7187,-0.6616,20.386,3.845,-7.568,-137.812,14.568,-46.000
4981,-0.1899,-0.7837,-0.6763,0.793,1.343,-15.564,-137.703,14.414,-45.890
4991,-0.1753,-0.8071,-0.6958,-19.104,-0.732,-16.724,-137.791,14.260,-45.758
5001,-0.1899,-0.6924,-0.7192,-32.959,-2.563,-10.803,-138.076,14.172,-45.659
5011,-0.2539,-0.5391,-0.7559,-31.982,-3.540,0.854,-138.455,14.216,-45.643
5021,-0.3037,-0.4932,-0.7671,-15.442,-0.671,9.155,-138.708,14.321,-45.709
5031,-0.3154,-0.4668,-0.7554,6.104,3.174,7.935,-138.768,14.403,-45.791
5041,-0.2998,-0.5054,-0.7236,23.682,4.272,1.648,-138.604,14.425,-45.829
5051,-0.2686,-0.6489,-0.6880,29.968,3.174,-4.761,-138.285,14.381,-45.818
5061,-0.2227,-0.7349,-0.6694,19.531,2.136,-10.803,-138.016,14.277,-45.747
5071,-0.1777,-0.6572,-0.7490,-20.935,2.014,-7.263,-138.219,14.172,-45.703
5081,-0.2104,-0.5039,-0.8066,-25.391,4.028,-2.808,-138.571,14.106,-45.714
5091,-0.2651,-0.4189,-0.8296,-11.780,5.005,-1.648,-138.840,14.079,-45.731
5101,-0.2671,-0.4980,-0.8086,12.451,2.747,-8.118,-138.801,14.024,-45.687
5111,-0.2358,-0.6465,-0.7295,30.029,-6.226,-20.203,-138.450,13.931,-45.489
5121,-0.2295,-0.7065,-0.6597,31.128,-20.386,-29.297,-137.999,13.887,-45.126
5132,-0.2363,-0.8042,-0.5908,22.156,-30.762,-28.625,-137.565,13.914,-44.692
5141,-0.2500,-0.8765,-0.5464,5.493,-32.349,-20.874,-137.263,14.013,-44.308
5151,-0.2588,-0.8394,-0.5835,-17.944,-25.452,-10.742,-137.252,14.123,-44.050
5161,-0.2529,-0.7671,-0.6558,-34.119,-10.681,-1.526,-137.499,14.194,-43.962
5171,-0.2383,-0.7329,-0.7451,-39.856,7.629,2.991,-137.895,14.145,-44.039
5181,-0.2075,-0.7007,-0.8091,-35.706,21.851,2.563,-138.301,13.969,-44.209
5191,-0.1924,-0.5708,-0.8389,-20.508,26.123,0.488,-138.620,13.744,-44.396
5201,-0.2227,-0.5063,-0.8159,6.287,19.897,2.869,-138.691,13.612,-44.550
5211,-0.2534,-0.6523,-0.7598,32.776,11.536,5.920,-138.406,13.568,-44.676
5221,-0.2466,-0.8110,-0.7051,40.405,4.517,3.174,-137.944,13.552,-44.731
5231,-0.2466,-0.8037,-0.6714,26.062,-3.052,0.000,-137.598,13.568,-44.709
5241,-0.2539,-0.7158,-0.6621,3.723,-7.751,2.136,-137.505,13.651,-44.670
5251,-0.2681,-0.6851,-0.6763,-13.184,-6.897,7.690,-137.609,13.771,-44.681
5261,-0.2744,-0.5923,-0.7061,-21.118,-3.113,9.399,-137.856,13.887,-44.731
5271,-0.2739,-0.5190,-0.7393,-17.883,-1.160,7.446,-138.115,13.975,-44.780
5281,-0.2598,-0.5518,-0.7480,-6.409,-0.366,2.441,-138.235,14.008,-44.797
5291,-0.2217,-0.6475,-0.7437,3.357,-0.244,-7.568,-138.197,13.947,-44.736
5301,-0.1763,-0.7085,-0.7256,7.507,-1.953,-16.724,-138.060,13.810,-44.594
5311,-0.1626,-0.7588,-0.7002,7.080,-6.165,-17.395,-137.895,13.689,-44.418
5321,-0.1646,-0.7876,-0.6787,2.930,-8.423,-11.963,-137.763,13.629,-44.269
5331,-0.1992,-0.6787,-0.6689,-2.136,-9.033,-2.625,-137.730,13.656,-44.187
5341,-0.2480,-0.5854,-0.6587,-1.648,-6.897,9.460,-137.758,13.793,-44.214
5351,-0.2891,-0.4780,-0.6514,3.967,-2.075,16.968,-137.807,13.980,-44.330
5361,-0.3066,-0.4849,-0.6509,12.390,4.272,18.188,-137.780,14.134,-44.495
5371,-0.2617,-0.6753,-0.6450,16.602,11.292,9.521,-137.609,14.128,-44.648
5381,-0.1831,-0.8242,-0.6528,4.822,15.015,-6.348,-137.483,13.936,-44.703
5391,-0.1250,-0.8506,-0.6973,-19.226,13.916,-18.433,-137.582,13.640,-44.659
5401,-0.1304,-0.6836,-0.7261,-36.682,9.277,-17.700,-137.922,13.387,-44.588
5411,-0.2388,-0.5005,-0.7632,-34.058,4.089,-2.380,-138.351,13.354,-44.599
5421,-0.3115,-0.5156,-0.7778,-12.024,6.348,13.733,-138.582,13.453,-44.747
5431,-0.3105,-0.5083,-0.7812,11.536,10.925,15.686,-138.598,13.524,-44.945
5441,-0.2808,-0.5684,-0.7520,26.978,11.475,10.010,-138.411,13.535,-45.099
5451,-0.2407,-0.6738,-0.7158,27.832,8.423,2.136,-138.137,13.486,-45.170
5461,-0.1958,-0.7715,-0.6978,14.282,4.578,-7.202,-137.928,13.376,-45.148
5471,-0.1523,-0.8594,-0.7129,-6.531,0.427,-14.160,-137.884,13.222,-45.044
5481,-0.1367,-0.8560,-0.7275,-26.855,-3.357,-15.686,-138.043,13.079,-44.901
5491,-0.1904,-0.6392,-0.7515,-38.452,-7.263,-8.789,-138.411,13.057,-44.786
5501,-0.3057,-0.4287,-0.7642,-30.640,-7.629,6.470,-138.840,13.217,-44.780
5511,-0.3994,-0.2612,-0.7471,-4.211,-2.075,19.104,-139.131,13.491,-44.918
5521,-0.4175,-0.3213,-0.7368,27.771,6.836,20.508,-139.076,13.711,-45.121
5531,-0.3188,-0.6865,-0.6987,47.424,16.724,6.104,-138.609,13.672,-45.280
5541,-0.1821,-0.8726,-0.6694,32.959,17.944,-17.944,-138.170,13.376,-45.264
5551,-0.0854,-0.9097,-0.7031,-4.578,9.766,-33.203,-138.065,12.997,-45.077
5561,-0.0444,-0.9165,-0.7520,-37.964,0.183,-34.424,-138.296,12.656,-44.819
5571,-0.0825,-0.7988,-0.7896,-55.359,-8.606,-24.231,-138.752,12.475,-44.572
5581,-0.1938,-0.5713,-0.8242,-49.622,-13.794,-6.958,-139.279,12.519,-44.423
5591,-0.2939,-0.4707,-0.8301,-20.508,-12.329,8.728,-139.592,12.711,-44.412
5601,-0.3286,-0.4775,-0.8032,14.282,-7.019,14.221,-139.559,12.925,-44.473
5611,-0.3008,-0.5117,-0.7495,40.771,-2.014,10.986,-139.235,13.063,-44.550
5621,-0.2490,-0.6431,-0.6880,52.063,1.221,5.493,-138.708,13.107,-44.599
5632,-0.1943,-0.7734,-0.6431,44.312,2.747,-0.610,-138.181,13.063,-44.610
5641,-0.1470,-0.8252,-0.6270,21.545,1.770,-5.249,-137.851,12.964,-44.583
5651,-0.1318,-0.8247,-0.6460,-4.883,-0.183,-4.761,-137.796,12.876,-44.544
5661,-0.1636,-0.7339,-0.6724,-23.315,-2.197,0.488,-137.972,12.859,-44.533
5671,-0.2373,-0.5972,-0.7007,-27.832,-3.235,7.751,-138.268,12.953,-44.572
5681,-0.2993,-0.5308,-0.7217,-17.700,-2.075,12.817,-138.516,13.107,-44.654
5691,-0.3125,-0.5342,-0.7202,-1.953,0.549,11.780,-138.609,13.239,-44.753
5701,-0.2935,-0.5522,-0.7075,10.925,1.892,5.981,-138.549,13.315,-44.808
5711,-0.2466,-0.6436,-0.6880,17.151,3.174,-0.305,-138.362,13.304,-44.830
5721,-0.1875,-0.7534,-0.6846,12.756,4.700,-5.981,-138.175,13.200,-44.813
5731,-0.1401,-0.7959,-0.7075,-0.061,5.188,-8.911,-138.104,13.046,-44.780
5741,-0.1328,-0.7881,-0.7271,-13.550,3.418,-6.409,-138.175,12.920,-44.758
5751,-0.1743,-0.6260,-0.7466,-21.057,0.732,0.488,-138.406,12.887,-44.764
5761,-0.2651,-0.4922,-0.7627,-14.221,-1.343,10.010,-138.647,12.997,-44.835
5771,-0.3145,-0.5063,-0.7563,4.639,0.000,12.512,-138.697,13.140,-44.929
5781,-0.2881,-0.5430,-0.7280,21.606,1.404,4.028,-138.538,13.200,-44.973
5791,-0.2617,-0.5937,-0.7002,29.419,-0.977,-5.127,-138.252,13.200,-44.923
5801,-0.2227,-0.7085,-0.6777,26.428,-3.052,-10.986,-137.917,13.145,-44.819
5811,-0.1836,-0.8052,-0.6724,12.451,-3.601,-14.954,-137.686,13.041,-44.681
5821,-0.1685,-0.8101,-0.6895,-6.531,-4.211,-14.038,-137.648,12.942,-44.544
5831,-0.1802,-0.6797,-0.7051,-21.912,-4.028,-7.202,-137.829,12.898,-44.462
5841,-0.2603,-0.4146,-0.7178,-23.560,-3.723,5.615,-138.186,13.008,-44.478
5851,-0.3735,-0.2515,-0.7021,-6.042,0.305,19.348,-138.499,13.266,-44.626
5861,-0.4053,-0.3711,-0.6973,18.799,8.179,21.545,-138.499,13.486,-44.852
5871,-0.3184,-0.6743,-0.6807,30.518,15.503,3.845,-138.197,13.447,-44.984
5881,-0.1895,-0.8213,-0.6689,17.029,15.137,-24.353,-137.917,13.140,-44.901
5891,-0.1011,-0.8413,-0.7119,-13.306,6.287,-41.321,-137.911,12.739,-44.632
5901,-0.0635,-0.9263,-0.7627,-37.354,-2.380,-42.419,-138.126,12.382,-44.291
5911,-0.0728,-0.8208,-0.7983,-49.255,-9.155,-34.668,-138.505,12.129,-43.967
5921,-0.1753,-0.5933,-0.8350,-41.626,-13.916,-17.212,-138.928,12.096,-43.737
5931,-0.2485,-0.5137,-0.8281,-11.902,-11.047,0.977,-139.125,12.206,-43.671
5941,-0.2793,-0.5425,-0.7773,20.996,-5.676,8.911,-138.983,12.349,-43.704
5951,-0.2705,-0.6187,-0.7227,42.480,-1.404,7.812,-138.576,12.448,-43.753
5961,-0.2212,-0.7588,-0.6699,46.814,1.465,0.549,-138.049,12.437,-43.770
5971,-0.1470,-0.8169,-0.6411,31.555,1.831,-8.545,-137.626,12.327,-43.715
5981,-0.1069,-0.7949,-0.6533,5.920,-0.732,-11.292,-137.466,12.189,-43.627
5991,-0.1206,-0.7642,-0.6880,-14.038,-2.686,-7.080,-137.532,12.107,-43.555
6001,-0.1475,-0.6768,-0.7168,-22.827,-2.136,-3.235,-137.741,12.063,-43.517
6011,-0.2144,-0.5337,-0.7471,-16.479,-2.686,-0.305,-137.966,12.096,-43.495
6021,-0.2554,-0.5396,-0.7510,3.235,-1.526,0.977,-137.999,12.145,-43.489
6031,-0.2534,-0.5469,-0.7148,24.536,0.244,-2.869,-137.796,12.162,-43.473
6041,-0.2393,-0.5605,-0.6714,39.246,-0.427,-5.493,-137.422,12.156,-43.423
6051,-0.2261,-0.6636,-0.6274,42.175,-0.061,-3.174,-136.961,12.156,-43.401
6061,-0.1978,-0.7793,-0.6089,29.297,2.197,-1.770,-136.582,12.118,-43.401
6071,-0.1587,-0.8291,-0.6294,3.235,4.883,-2.197,-136.461,12.036,-43.423
6081,-0.1367,-0.8174,-0.6772,-24.597,7.263,-1.648,-136.642,11.926,-43.462
6091,-0.1416,-0.7573,-0.7305,-43.884,9.277,0.549,-137.065,11.816,-43.528
6101,-0.1802,-0.6021,-0.7832,-47.668,10.681,3.052,-137.609,11.744,-43.627
6111,-0.2456,-0.4619,-0.8154,-31.982,10.254,7.996,-138.082,11.755,-43.759
6121,-0.2808,-0.5195,-0.8125,-3.357,11.353,10.193,-138.241,11.783,-43.912
6132,-0.2480,-0.6167,-0.7871,19.836,12.146,3.540,-138.104,11.739,-44.022
6141,-0.2046,-0.6890,-0.7563,28.137,8.789,-4.700,-137.823,11.640,-44.044
6151,-0.1655,-0.7681,-0.7275,23.132,3.723,-8.484,-137.543,11.525,-44.006
6161,-0.1499,-0.7607,-0.7227,9.705,-1.343,-7.324,-137.395,11.453,-43.945
6171,-0.1611,-0.7451,-0.7310,-1.770,-4.578,-2.502,-137.373,11.442,-43.890
6181,-0.1870,-0.6982,-0.7412,-7.080,-5.493,2.075,-137.433,11.486,-43.868
6191,-0.2148,-0.6479,-0.7476,-6.836,-5.676,3.845,-137.516,11.563,-43.863
6201,-0.2354,-0.5942,-0.7363,-0.977,-6.592,2.991,-137.554,11.656,-43.835
6211,-0.2598,-0.5552,-0.7158,8.850,-7.935,1.404,-137.505,11.766,-43.792
6221,-0.2554,-0.6328,-0.6870,18.555,-6.897,-1.526,-137.307,11.838,-43.737
6231,-0.2187,-0.7192,-0.6577,20.325,-4.639,-6.104,-137.043,11.843,-43.654
6241,-0.1929,-0.7676,-0.6538,10.864,-3.113,-7.080,-136.851,11.805,-43.583
6251,-0.1738,-0.7905,-0.6616,-2.991,-0.793,-4.639,-136.807,11.755,-43.539
6261,-0.1743,-0.7397,-0.6895,-16.296,1.343,0.732,-136.928,11.733,-43.555
6271,-0.2095,-0.6196,-0.7202,-21.484,3.723,7.080,-137.181,11.761,-43.638
6281,-0.2603,-0.4897,-0.7329,-13.123,6.042,12.939,-137.433,11.849,-43.775
6291,-0.3013,-0.4463,-0.7314,3.967,8.850,15.442,-137.538,11.964,-43.951
6301,-0.2788,-0.5669,-0.7227,20.203,11.841,9.338,-137.417,11.992,-44.105
6311,-0.2026,-0.7705,-0.7139,22.644,11.597,-4.517,-137.153,11.865,-44.149
6321,-0.1206,-0.8628,-0.7266,7.019,6.836,-19.043,-136.994,11.629,-44.055
6331,-0.0718,-0.8521,-0.7573,-11.658,-1.648,-25.696,-137.016,11.387,-43.852
6341,-0.0986,-0.6875,-0.7734,-19.104,-9.583,-20.325,-137.175,11.261,-43.632
6351,-0.2036,-0.5142,-0.7876,-6.470,-13.000,-5.981,-137.313,11.321,-43.500
6361,-0.2666,-0.4902,-0.7637,22.644,-8.240,5.493,-137.181,11.470,-43.484
6371,-0.2603,-0.5801,-0.7090,48.523,-2.747,6.592,-136.741,11.580,-43.511
6381,-0.2222,-0.7080,-0.6494,56.213,-1.587,0.488,-136.143,11.607,-43.506
6391,-0.1704,-0.8242,-0.6055,42.969,-4.089,-7.507,-135.604,11.563,-43.423
6401,-0.1348,-0.8447,-0.5952,14.954,-8.057,-12.207,-135.324,11.497,-43.275
6411,-0.1514,-0.8110,-0.6235,-13.489,-10.620,-9.338,-135.352,11.475,-43.132
6421,-0.1831,-0.7300,-0.6709,-30.273,-7.996,-2.991,-135.604,11.503,-43.050
6431,-0.2065,-0.6323,-0.7300,-30.945,-1.465,0.671,-135.945,11.519,-43.044
6441,-0.2217,-0.5640,-0.7705,-16.663,4.028,1.953,-136.198,11.519,-43.088
6451,-0.2139,-0.5405,-0.7666,6.042,5.859,0.977,-136.236,11.497,-43.138
6461,-0.2090,-0.5811,-0.7207,27.283,3.418,-0.671,-136.016,11.481,-43.154
6471,-0.1973,-0.6543,-0.6738,37.964,-0.549,-2.502,-135.632,11.475,-43.132
6481,-0.1807,-0.7422,-0.6255,37.598,-3.174,-4.578,-135.198,11.453,-43.077
6491,-0.1626,-0.8125,-0.5981,23.865,-5.188,-5.798,-134.857,11.426,-43.000
6501,-0.1582,-0.8271,-0.5947,1.160,-6.714,-4.089,-134.736,11.420,-42.924
6511,-0.1816,-0.8071,-0.6216,-21.423,-6.653,0.610,-134.868,11.459,-42.880
6521,-0.2007,-0.7520,-0.6646,-36.133,-3.601,4.211,-135.192,11.508,-42.880
6531,-0.2246,-0.6309,-0.7114,-37.598,0.183,5.615,-135.604,11.569,-42.924
6541,-0.2441,-0.5713,-0.7544,-23.254,4.822,6.531,-135.928,11.607,-43.006
6551,-0.2393,-0.5747,-0.7773,1.038,10.193,4.150,-136.011,11.585,-43.110
6561,-0.2051,-0.6235,-0.7554,24.536,12.573,-0.732,-135.829,11.492,-43.193
6571,-0.1807,-0.7041,-0.7012,36.377,9.583,-1.648,-135.472,11.404,-43.248
6581,-0.1855,-0.7578,-0.6621,31.799,3.540,1.709,-135.121,11.382,-43.286
6591,-0.1934,-0.7920,-0.6411,15.503,-1.709,4.639,-134.912,11.415,-43.308
6601,-0.2046,-0.7881,-0.6338,-4.700,-5.066,6.042,-134.896,11.497,-43.314
6611,-0.2104,-0.7842,-0.6626,-23.376,-5.737,5.676,-135.082,11.574,-43.314
6621,-0.1997,-0.7603,-0.6997,-33.081,-3.967,1.160,-135.379,11.607,-43.292
6632,-0.2036,-0.6401,-0.7319,-32.043,-4.089,-2.136,-135.725,11.624,-43.248
6641,-0.2295,-0.5601,-0.7583,-17.883,-3.113,0.183,-135.972,11.667,-43.226
6651,-0.2412,-0.5488,-0.7578,5.920,0.671,3.235,-136.000,11.711,-43.259
6661,-0.2324,-0.5723,-0.7246,28.015,4.639,3.479,-135.797,11.728,-43.314
6671,-0.1870,-0.6880,-0.6929,39.978,6.531,2.258,-135.406,11.684,-43.380
6681,-0.1328,-0.8286,-0.6641,36.926,4.517,0.061,-134.978,11.607,-43.412
6691,-0.1045,-0.8784,-0.6655,18.616,-1.648,-1.282,-134.714,11.552,-43.391
6701,-0.1045,-0.8838,-0.6836,-2.136,-7.446,0.427,-134.654,11.541,-43.336
6711,-0.1504,-0.7559,-0.6885,-14.404,-11.902,5.432,-134.764,11.635,-43.292
6721,-0.2388,-0.5815,-0.6997,-13.428,-13.916,13.977,-134.951,11.860,-43.292
6731,-0.3042,-0.5283,-0.6870,1.404,-11.047,21.301,-135.027,12.162,-43.363
6741,-0.3154,-0.5259,-0.6616,16.357,-5.676,19.958,-134.951,12.420,-43.467
6751,-0.2964,-0.5303,-0.6338,23.865,-1.160,12.024,-134.786,12.590,-43.544
6761,-0.2529,-0.6440,-0.6030,21.667,3.052,2.258,-134.561,12.618,-43.583
6771,-0.2026,-0.7349,-0.5884,7.812,6.104,-8.850,-134.418,12.508,-43.566
6781,-0.1621,-0.7969,-0.6143,-13.367,6.897,-16.846,-134.467,12.305,-43.495
6791,-0.1377,-0.8271,-0.6475,-33.081,6.653,-18.677,-134.714,12.079,-43.412
6801,-0.1362,-0.7773,-0.6895,-47.058,5.005,-14.893,-135.132,11.893,-43.341
6811,-0.1758,-0.6597,-0.7432,-48.523,2.563,-6.592,-135.643,11.810,-43.308
6821,-0.2187,-0.5957,-0.7754,-33.081,2.075,2.014,-136.044,11.821,-43.341
6831,-0.2378,-0.5850,-0.7808,-7.568,2.563,5.066,-136.203,11.854,-43.396
6841,-0.2339,-0.5796,-0.7588,18.555,2.930,2.136,-136.088,11.865,-43.429
6851,-0.1929,-0.6812,-0.7139,39.063,2.869,-2.686,-135.703,11.821,-43.434
6861,-0.1597,-0.8062,-0.6597,42.969,1.160,-4.517,-135.209,11.750,-43.407
6871,-0.1460,-0.8682,-0.6357,29.114,-2.625,-3.906,-134.824,11.700,-43.358
6881,-0.1445,-0.8716,-0.6328,7.751,-5.615,-0.977,-134.648,11.689,-43.314
6891,-0.1655,-0.8252,-0.6387,-11.841,-6.409,4.639,-134.692,11.744,-43.297
6901,-0.2173,-0.6914,-0.6694,-23.376,-4.639,11.414,-134.929,11.865,-43.347
6912,-0.2646,-0.5830,-0.6953,-20.935,-0.793,16.724,-135.209,12.030,-43.462
6922,-0.2944,-0.5244,-0.7046,-8.057,4.089,17.761,-135.401,12.189,-43.621
6932,-0.2769,-0.5571,-0.7178,6.165,8.545,13.000,-135.445,12.272,-43.775
6941,-0.2031,-0.6841,-0.7251,16.418,11.047,3.174,-135.313,12.206,-43.879
6951,-0.1172,-0.8301,-0.7222,17.029,8.484,-5.859,-135.104,12.047,-43.896
6961,-0.0703,-0.9067,-0.7344,7.690,1.526,-7.996,-134.962,11.893,-43.852
6971,-0.0718,-0.9111,-0.7515,-3.296,-5.859,-3.296,-134.923,11.827,-43.786
6981,-0.1162,-0.8428,-0.7480,-8.179,-10.681,6.592,-134.967,11.887,-43.753
6991,-0.1992,-0.6509,-0.7417,-3.845,-13.733,19.043,-135.049,12.112,-43.792
7002,-0.2896,-0.5591,-0.7168,11.963,-12.695,30.884,-135.027,12.475,-43.923
7012,-0.3335,-0.5532,-0.6904,30.396,-7.690,33.020,-134.830,12.838,-44.110
7022,-0.3057,-0.6191,-0.6602,43.213,-2.197,23.315,-134.456,13.074,-44.264
7031,-0.2212,-0.7593,-0.6230,43.884,0.549,8.972,-133.984,13.134,-44.330
7041,-0.1514,-0.8887,-0.6104,27.161,-1.099,-0.854,-133.616,13.085,-44.313
7051,-0.1123,-0.9551,-0.6211,0.549,-5.249,-4.517,-133.489,13.013,-44.242
7061,-0.1177,-0.9517,-0.6421,-25.085,-8.972,-0.366,-133.627,12.997,-44.176
7071,-0.1660,-0.7773,-0.6675,-42.053,-10.986,10.437,-134.011,13.112,-44.165
7082,-0.2607,-0.5693,-0.7095,-39.734,-10.254,25.696,-134.506,13.392,-44.275
7092,-0.3320,-0.5137,-0.7139,-16.418,-5.066,37.231,-134.819,13.760,-44.506
7102,-0.3716,-0.4473,-0.6899,11.780,-0.061,38.391,-134.885,14.139,-44.786
7112,-0.3823,-0.4502,-0.6787,36.621,4.333,32.959,-134.703,14.453,-45.055
7122,-0.3228,-0.6025,-0.6377,54.321,9.216,20.325,-134.242,14.584,-45.269
7132,-0.2490,-0.7881,-0.5889,53.711,9.949,6.958,-133.665,14.562,-45.396
7141,-0.2109,-0.8823,-0.5850,30.945,5.798,-1.526,-133.264,14.480,-45.428
7151,-0.1997,-0.8633,-0.6055,2.075,0.427,-5.127,-133.154,14.403,-45.396
7161,-0.2417,-0.7075,-0.6196,-18.982,-3.662,-0.854,-133.314,14.420,-45.363
7172,-0.3330,-0.4927,-0.6631,-21.729,-3.479,11.292,-133.643,14.601,-45.412
7182,-0.4185,-0.3687,-0.6909,-2.991,2.136,23.376,-133.901,14.886,-45.599
7192,-0.4165,-0.3325,-0.6895,26.062,9.216,24.902,-133.912,15.139,-45.846
7202,-0.3501,-0.5825,-0.6343,48.706,12.268,17.761,-133.522,15.255,-46.066
7211,-0.2476,-0.8354,-0.5825,43.030,9.216,2.136,-133.028,15.189,-46.148
7222,-0.1782,-0.9404,-0.5781,10.132,0.122,-13.489,-132.792,15.029,-46.055
7232,-0.1460,-0.9614,-0.6099,-30.090,-7.629,-20.874,-132.929,14.854,-45.851
7242,-0.1440,-0.8965,-0.6592,-59.753,-10.559,-20.325,-133.401,14.700,-45.626
7251,-0.1895,-0.7124,-0.7158,-68.481,-10.132,-10.803,-134.055,14.650,-45.472
7262,-0.2622,-0.5498,-0.7700,-51.514,-7.935,3.845,-134.665,14.744,-45.439
7272,-0.3320,-0.4502,-0.7876,-15.259,-4.150,14.343,-134.989,14.925,-45.516
7282,-0.3472,-0.3955,-0.7632,25.574,0.366,16.663,-134.945,15.112,-45.643
7292,-0.3125,-0.5161,-0.6816,58.594,3.967,14.038,-134.478,15.233,-45.775
7302,-0.2656,-0.7314,-0.5981,69.946,3.113,8.423,-133.753,15.276,-45.857
7312,-0.2026,-0.8843,-0.5518,53.223,-0.244,-1.770,-133.105,15.222,-45.840
7322,-0.1646,-0.9092,-0.5479,18.921,-5.737,-10.193,-132.770,15.123,-45.725
7332,-0.1763,-0.8687,-0.5698,-16.296,-9.338,-10.803,-132.797,15.051,-45.577
7341,-0.2197,-0.7056,-0.6099,-38.818,-8.057,-4.578,-133.138,15.051,-45.483
7352,-0.2983,-0.5391,-0.6777,-39.795,-4.028,5.615,-133.616,15.161,-45.494
7362,-0.3555,-0.4443,-0.7070,-18.677,1.587,12.756,-133.973,15.320,-45.599
7372,-0.3716,-0.4233,-0.7046,9.216,4.639,12.939,-134.061,15.469,-45.725
7382,-0.3345,-0.5801,-0.6665,31.372,6.348,6.287,-133.824,15.524,-45.818
7392,-0.2627,-0.7891,-0.6123,35.400,4.456,-6.165,-133.412,15.441,-45.807
7402,-0.2056,-0.8906,-0.5913,17.944,-0.183,-17.944,-133.105,15.271,-45.676
7412,-0.1729,-0.9199,-0.5986,-8.789,-4.089,-22.766,-133.039,15.068,-45.483
7422,-0.1768,-0.8672,-0.6216,-33.020,-5.249,-17.700,-133.248,14.919,-45.319
7432,-0.2192,-0.7075,-0.6743,-46.387,-3.174,-6.104,-133.693,14.875,-45.253
7442,-0.2812,-0.5679,-0.7251,-38.757,-0.061,6.226,-134.171,14.941,-45.297
7452,-0.3320,-0.5234,-0.7378,-15.503,2.686,12.634,-134.456,15.062,-45.406
7462,-0.3345,-0.5400,-0.7354,9.888,4.150,9.094,-134.478,15.150,-45.505
7472,-0.2793,-0.6929,-0.6836,29.297,3.845,-0.916,-134.193,15.128,-45.527
7482,-0.2295,-0.8027,-0.6289,30.396,-1.221,-9.705,-133.813,15.040,-45.450
7492,-0.2007,-0.8721,-0.6206,15.625,-7.568,-13.062,-133.533,14.952,-45.297
7502,-0.1816,-0.8857,-0.6201,-2.380,-11.597,-11.292,-133.429,14.897,-45.132
7512,-0.2119,-0.7842,-0.6265,-18.188,-13.550,-3.479,-133.528,14.936,-45.005
7522,-0.2793,-0.6411,-0.6646,-23.560,-11.414,7.751,-133.781,15.090,-44.973
7532,-0.3311,-0.5737,-0.6812,-13.550,-6.470,14.526,-133.989,15.287,-45.027
7542,-0.3535,-0.5210,-0.6895,2.747,-1.892,13.306,-134.072,15.469,-45.110
7552,-0.3359,-0.5625,-0.6821,19.348,1.770,6.470,-133.962,15.557,-45.170
7562,-0.2734,-0.7310,-0.6475,30.518,2.869,-3.540,-133.632,15.513,-45.165
7572,-0.2231,-0.8687,-0.6152,24.414,-0.427,-12.329,-133.286,15.386,-45.077
7582,-0.1851,-0.9199,-0.6255,5.310,-5.615,-16.968,-133.099,15.244,-44.912
7592,-0.1763,-0.8940,-0.6235,-13.672,-8.911,-14.221,-133.110,15.139,-44.742
7602,-0.2236,-0.7158,-0.6475,-26.184,-10.071,-3.052,-133.336,15.167,-44.648
7612,-0.2944,-0.6025,-0.6709,-22.644,-6.592,11.658,-133.616,15.326,-44.681
7622,-0.3340,-0.5654,-0.6738,-6.958,-0.732,18.616,-133.781,15.518,-44.808
7632,-0.3408,-0.5654,-0.6787,9.277,2.930,14.771,-133.786,15.661,-44.934
7642,-0.2979,-0.6523,-0.6553,22.705,4.333,4.272,-133.594,15.683,-45.000
7652,-0.2407,-0.7896,-0.6235,24.597,2.563,-5.920,-133.286,15.601,-44.978
7662,-0.2070,-0.8501,-0.6123,12.756,-1.648,-11.780,-133.061,15.480,-44.879
7672,-0.1973,-0.8428,-0.6279,-3.540,-5.005,-11.108,-133.000,15.386,-44.764
7682,-0.2241,-0.7402,-0.6396,-14.465,-5.981,-3.601,-133.105,15.375,-44.692
7692,-0.2817,-0.6382,-0.6675,-15.381,-4.333,7.385,-133.292,15.474,-44.709
7702,-0.3169,-0.5796,-0.6689,-6.104,-0.244,13.733,-133.440,15.617,-44.808
7712,-0.3413,-0.5098,-0.6655,5.493,1.770,13.977,-133.506,15.771,-44.918
7722,-0.3423,-0.5664,-0.6455,16.907,2.686,9.949,-133.412,15.886,-45.011
7732,-0.3042,-0.7090,-0.6201,20.874,2.625,0.183,-133.193,15.886,-45.033
7742,-0.2578,-0.8203,-0.6060,10.498,0.488,-10.864,-133.000,15.787,-44.962
7752,-0.2261,-0.8818,-0.6270,-9.705,-2.686,-18.188,-132.979,15.634,-44.808
7762,-0.2173,-0.8564,-0.6582,-27.893,-4.028,-18.311,-133.160,15.485,-44.648
7772,-0.2363,-0.7056,-0.7080,-35.767,-3.296,-10.986,-133.506,15.408,-44.544
7782,-0.2793,-0.5942,-0.7515,-26.306,0.305,0.916,-133.846,15.419,-44.555
7792,-0.3071,-0.5566,-0.7466,-2.869,5.371,8.911,-134.000,15.474,-44.659
7802,-0.2920,-0.5854,-0.7153,19.897,6.958,9.338,-133.901,15.518,-44.780
7812,-0.2651,-0.6968,-0.6641,31.860,3.113,5.615,-133.599,15.535,-44.841
7822,-0.2349,-0.7910,-0.6196,26.611,-3.601,-1.587,-133.270,15.524,-44.802
7832,-0.1958,-0.8672,-0.6011,7.935,-10.620,-8.423,-133.066,15.485,-44.665
7842,-0.1816,-0.8862,-0.5981,-14.587,-16.724,-11.108,-133.066,15.458,-44.456
7852,-0.2114,-0.7666,-0.6216,-31.372,-19.287,-7.935,-133.286,15.496,-44.258
7862,-0.2744,-0.6270,-0.6592,-30.945,-16.357,0.244,-133.594,15.623,-44.132
7872,-0.3159,-0.5781,-0.6714,-14.526,-8.545,7.690,-133.792,15.776,-44.127
7882,-0.3428,-0.5146,-0.6685,7.141,-0.183,8.850,-133.819,15.903,-44.187
7892,-0.3286,-0.5249,-0.6519,27.649,6.287,5.493,-133.643,15.958,-44.275
7902,-0.2793,-0.6807,-0.6079,38.879,9.094,0.732,-133.259,15.908,-44.346
7912,-0.2427,-0.8140,-0.5771,31.494,6.714,-5.249,-132.874,15.804,-44.363
7922,-0.2139,-0.8652,-0.5923,8.850,2.563,-11.169,-132.687,15.661,-44.302
7932,-0.1855,-0.8735,-0.6206,-13.733,-0.305,-13.428,-132.720,15.507,-44.203
7942,-0.1973,-0.8188,-0.6445,-29.419,-2.319,-9.399,-132.946,15.408,-44.121
7952,-0.2480,-0.6665,-0.6758,-31.677,-2.991,-0.793,-133.275,15.414,-44.094
7962,-0.3120,-0.5767,-0.6914,-19.775,-2.197,8.667,-133.555,15.529,-44.138
7972,-0.3389,-0.5625,-0.6763,-0.854,0.366,12.451,-133.654,15.672,-44.231
7982,-0.3423,-0.5479,-0.6577,14.587,2.197,9.216,-133.594,15.782,-44.313
7992,-0.3149,-0.6348,-0.6304,23.315,3.601,2.686,-133.391,15.815,-44.357
8002,-0.2549,-0.7905,-0.5947,20.813,3.113,-5.493,-133.116,15.738,-44.341
8012,-0.2236,-0.8677,-0.5962,4.333,-0.549,-12.268,-132.962,15.617,-44.253
8022,-0.2007,-0.8892,-0.6294,-15.930,-2.869,-15.137,-133.006,15.474,-44.121
8032,-0.2051,-0.8501,-0.6650,-29.053,-3.601,-12.512,-133.215,15.364,-44.006
8042,-0.2427,-0.7002,-0.7026,-29.175,-2.808,-5.615,-133.506,15.326,-43.945
8052,-0.2910,-0.6167,-0.7187,-12.451,-0.732,4.395,-133.698,15.381,-43.973
8062,-0.3198,-0.6143,-0.6987,10.376,1.953,10.254,-133.665,15.474,-44.061
8072,-0.3164,-0.6147,-0.6636,27.588,3.113,10.071,-133.451,15.562,-44.154
8082,-0.3042,-0.6509,-0.6157,34.241,2.502,8.667,-133.138,15.639,-44.236
8092,-0.2900,-0.7222,-0.5781,28.931,1.587,6.104,-132.819,15.694,-44.291
8102,-0.2700,-0.7798,-0.5718,14.221,0.061,1.648,-132.616,15.705,-44.302
8112,-0.2441,-0.8037,-0.5869,-5.615,-1.221,-2.747,-132.599,15.672,-44.275
8122,-0.2397,-0.7925,-0.6216,-22.461,-1.526,-4.761,-132.764,15.623,-44.231
8132,-0.2490,-0.7378,-0.6631,-29.480,-0.366,-5.371,-133.039,15.573,-44.187
8142,-0.2637,-0.6426,-0.7012,-23.865,0.854,-4.028,-133.314,15.535,-44.165
8152,-0.2935,-0.6011,-0.7148,-6.958,1.892,0.610,-133.451,15.546,-44.187
8162,-0.2949,-0.6025,-0.6914,14.404,2.808,3.174,-133.374,15.573,-44.231
8172,-0.2900,-0.6108,-0.6572,29.480,2.625,4.272,-133.132,15.612,-44.280
8182,-0.2842,-0.6714,-0.6216,33.264,2.258,5.676,-132.819,15.650,-44.335
8192,-0.2642,-0.7441,-0.5903,26.062,1.648,3.906,-132.528,15.667,-44.379
8202,-0.2412,-0.8008,-0.5869,9.155,-0.366,-0.305,-132.369,15.650,-44.374
8212,-0.2275,-0.7998,-0.6050,-10.437,-2.075,-4.578,-132.407,15.601,-44.324
8222,-0.2319,-0.7656,-0.6382,-23.865,-2.869,-5.981,-132.599,15.551,-44.258
8232,-0.2393,-0.7236,-0.6733,-26.550,-1.709,-5.615,-132.852,15.502,-44.209
8242,-0.2563,-0.6587,-0.7031,-19.104,-0.244,-3.113,-133.077,15.474,-44.182
8252,-0.2803,-0.6313,-0.7100,-3.601,1.953,0.244,-133.171,15.474,-44.198
8262,-0.2876,-0.6196,-0.6968,13.794,3.967,1.892,-133.099,15.474,-44.242
8272,-0.2710,-0.6855,-0.6606,26.245,4.944,1.709,-132.858,15.458,-44.291
8282,-0.2529,-0.7339,-0.6230,26.733,3.113,1.465,-132.578,15.441,-44.330
8292,-0.2515,-0.7632,-0.6030,15.503,0.061,2.197,-132.385,15.447,-44.341
8302,-0.2480,-0.7603,-0.6069,-1.160,-2.197,2.075,-132.358,15.469,-44.341
8312,-0.2559,-0.7422,-0.6230,-15.137,-3.113,1.404,-132.479,15.491,-44.324
8322,-0.2661,-0.7090,-0.6528,-22.278,-2.502,-0.122,-132.698,15.507,-44.308
8332,-0.2778,-0.6616,-0.6816,-20.325,-1.282,-1.831,-132.924,15.507,-44.286
8342,-0.2793,-0.6455,-0.6982,-11.047,0.244,-2.991,-133.072,15.496,-44.264
8352,-0.2861,-0.6416,-0.6992,2.075,1.526,-3.479,-133.094,15.474,-44.253
8362,-0.2808,-0.6816,-0.6875,15.076,3.052,-3.174,-132.962,15.436,-44.253
8372,-0.2671,-0.7568,-0.6577,22.583,5.188,-1.221,-132.731,15.386,-44.286
8382,-0.2612,-0.8071,-0.6406,19.897,6.775,3.296,-132.512,15.353,-44.357
8392,-0.2549,-0.8257,-0.6421,9.338,7.874,8.362,-132.402,15.348,-44.478
8402,-0.2495,-0.7969,-0.6519,-2.930,7.751,11.230,-132.435,15.359,-44.615
8412,-0.2598,-0.7383,-0.6646,-10.864,5.859,12.085,-132.572,15.403,-44.742
8422,-0.2759,-0.6865,-0.6807,-10.559,3.845,10.681,-132.726,15.458,-44.846
8432,-0.2842,-0.6372,-0.6865,-1.770,1.953,7.263,-132.803,15.513,-44.912
8442,-0.2861,-0.6270,-0.6699,10.681,-0.305,4.395,-132.748,15.562,-44.945
8452,-0.2837,-0.6748,-0.6304,20.691,-2.441,2.441,-132.545,15.612,-44.940
8462,-0.2739,-0.7168,-0.5991,21.301,-4.395,1.160,-132.303,15.661,-44.918
8472,-0.2686,-0.7412,-0.5747,13.245,-5.554,1.099,-132.116,15.705,-44.879
8482,-0.2588,-0.7505,-0.5684,0.061,-5.920,1.648,-132.056,15.754,-44.846
8492,-0.2627,-0.7349,-0.5908,-14.282,-5.859,2.747,-132.160,15.809,-44.819
8502,-0.2734,-0.6807,-0.6309,-22.766,-4.883,1.709,-132.385,15.864,-44.797
8512,-0.2754,-0.6694,-0.6738,-20.264,-2.991,-1.770,-132.599,15.875,-44.758
8522,-0.2700,-0.6909,-0.6982,-9.766,-1.404,-7.507,-132.709,15.820,-44.698
8532,-0.2622,-0.6836,-0.6997,3.479,-1.648,-12.573,-132.676,15.732,-44.594
8542,-0.2549,-0.7275,-0.6733,16.418,-3.357,-11.963,-132.484,15.656,-44.484
8552,-0.2539,-0.7612,-0.6357,22.034,-5.310,-6.714,-132.215,15.628,-44.396
8562,-0.2725,-0.7031,-0.6123,18.555,-7.446,-0.366,-132.006,15.683,-44.335
8572,-0.2910,-0.7324,-0.5972,12.207,-7.751,4.700,-131.852,15.782,-44.308
8582,-0.2754,-0.7759,-0.5859,2.197,-6.531,3.235,-131.770,15.853,-44.280
8592,-0.2686,-0.7495,-0.6079,-11.475,-6.714,-0.671,-131.841,15.886,-44.225
8602,-0.2773,-0.6992,-0.6377,-19.287,-7.019,-2.502,-132.023,15.919,-44.154
8612,-0.2876,-0.7046,-0.6509,-17.334,-6.104,-3.174,-132.182,15.947,-44.083
8622,-0.2788,-0.7187,-0.6582,-10.742,-3.784,-4.578,-132.275,15.936,-44.022
8632,-0.2671,-0.6670,-0.6553,-3.052,-2.991,-4.883,-132.308,15.919,-43.967
8642,-0.2812,-0.6499,-0.6411,5.127,-3.235,-0.854,-132.275,15.947,-43.934
8652,-0.2891,-0.6753,-0.6104,11.169,-3.235,1.709,-132.160,15.996,-43.923
8662,-0.2832,-0.6958,-0.5952,11.597,-4.089,0.916,-132.017,16.046,-43.896
8672,-0.2725,-0.7734,-0.5757,7.080,-5.127,-1.160,-131.885,16.068,-43.852
8682,-0.2524,-0.8389,-0.5762,-4.150,-5.859,-4.700,-131.830,16.051,-43.770
8692,-0.2485,-0.8506,-0.6030,-18.372,-6.287,-7.080,-131.918,16.013,-43.676
8702,-0.2549,-0.7305,-0.6279,-27.527,-6.531,-5.188,-132.155,16.007,-43.588
8712,-0.2886,-0.6074,-0.6704,-22.644,-3.357,1.709,-132.435,16.057,-43.572
8722,-0.3237,-0.5601,-0.6743,-5.127,1.831,7.324,-132.578,16.139,-43.638
8732,-0.3262,-0.5107,-0.6748,15.015,6.165,7.202,-132.561,16.199,-43.737
8742,-0.2939,-0.6348,-0.6426,32.288,8.057,3.174,-132.292,16.188,-43.819
8752,-0.2524,-0.8198,-0.5962,33.325,5.371,-4.517,-131.902,16.100,-43.830
8762,-0.2075,-0.9199,-0.5850,15.381,-0.977,-13.794,-131.627,15.952,-43.726
8772,-0.1816,-0.9434,-0.5991,-8.667,-7.690,-18.005,-131.572,15.798,-43.544
8782,-0.2100,-0.8467,-0.6123,-26.855,-12.207,-12.939,-131.732,15.738,-43.358
8792,-0.2905,-0.6343,-0.6440,-30.457,-12.451,0.183,-132.045,15.842,-43.264
8802,-0.3623,-0.5454,-0.6558,-15.015,-6.226,14.221,-132.286,16.062,-43.314
8812,-0.3887,-0.4687,-0.6455,6.348,3.235,18.494,-132.385,16.276,-43.467
8822,-0.3809,-0.4634,-0.6416,27.222,11.353,14.038,-132.286,16.397,-43.654
8832,-0.3130,-0.7158,-0.6030,39.978,17.273,3.845,-131.913,16.331,-43.813
8842,-0.2314,-0.9219,-0.5713,28.442,16.418,-10.498,-131.545,16.100,-43.868
8852,-0.1714,-0.9736,-0.6030,-3.479,8.606,-21.057,-131.457,15.815,-43.792
8862,-0.1499,-0.9839,-0.6504,-32.898,0.549,-21.423,-131.666,15.562,-43.649
8872,-0.1816,-0.8887,-0.6968,-49.255,-4.822,-13.672,-132.083,15.430,-43.517
8882,-0.2388,-0.6499,-0.7378,-45.349,-6.409,-1.038,-132.583,15.447,-43.462
8892,-0.3350,-0.4678,-0.7544,-20.081,-5.432,15.259,-132.957,15.650,-43.522
8902,-0.3931,-0.4648,-0.7271,14.160,0.549,24.536,-133.006,15.908,-43.704
8912,-0.3564,-0.5269,-0.6709,43.274,7.812,19.409,-132.720,16.068,-43.901
8922,-0.2959,-0.7012,-0.6001,55.054,10.071,9.583,-132.193,16.084,-44.044
8932,-0.2339,-0.8579,-0.5479,42.175,7.080,-1.160,-131.693,15.996,-44.094
8942,-0.1982,-0.8789,-0.5605,11.597,0.793,-8.850,-131.468,15.875,-44.039
8952,-0.1958,-0.8687,-0.5898,-15.869,-5.066,-8.667,-131.528,15.793,-43.934
8962,-0.2256,-0.8174,-0.6162,-32.776,-7.141,-2.502,-131.786,15.787,-43.863
8972,-0.2754,-0.6489,-0.6621,-36.621,-6.287,3.967,-132.182,15.864,-43.841
8982,-0.3394,-0.4702,-0.6860,-23.254,-4.578,10.864,-132.556,16.040,-43.885
8992,-0.3823,-0.3960,-0.6812,1.648,-1.221,14.221,-132.737,16.249,-43.973
9002,-0.3374,-0.5703,-0.6582,27.527,4.150,8.118,-132.556,16.331,-44.061
9012,-0.2119,-0.9116,-0.5854,36.011,5.798,-7.935,-132.094,16.177,-44.050
9022,-0.0845,-1.1201,-0.5601,12.695,-2.136,-22.888,-131.765,15.903,-43.874
9032,-0.0664,-1.1226,-0.5688,-26.550,-14.160,-23.376,-131.808,15.694,-43.605
9042,-0.1519,-0.7969,-0.6021,-55.908,-20.996,-6.836,-132.253,15.710,-43.396
9052,-0.3374,-0.4956,-0.6655,-53.528,-15.747,24.109,-132.907,16.057,-43.440
9062,-0.4463,-0.4287,-0.6978,-22.461,5.066,46.082,-133.385,16.485,-43.808
9072,-0.4854,-0.3481,-0.7231,14.771,26.367,43.762,-133.594,16.765,-44.319
9082,-0.4087,-0.4561,-0.7046,51.636,41.931,25.879,-133.363,16.754,-44.824
9092,-0.2842,-0.7544,-0.6289,70.068,46.753,5.432,-132.742,16.474,-45.220
9102,-0.1978,-0.9336,-0.5728,53.955,37.659,-10.010,-132.160,16.084,-45.434
9112,-0.1479,-0.9458,-0.5557,16.052,22.339,-14.587,-131.902,15.743,-45.505
9122,-0.1929,-0.8491,-0.5781,-21.484,8.362,-4.578,-132.050,15.606,-45.538
9132,-0.2891,-0.7358,-0.6299,-45.654,3.052,11.047,-132.512,15.677,-45.637
9142,-0.3569,-0.6021,-0.6914,-47.729,6.592,17.395,-133.094,15.815,-45.813
9152,-0.3647,-0.5127,-0.7422,-31.860,10.742,12.329,-133.577,15.892,-45.978
9162,-0.3315,-0.5312,-0.7568,-7.019,11.902,1.953,-133.792,15.864,-46.082
9172,-0.2700,-0.6338,-0.7314,14.526,7.935,-8.667,-133.698,15.743,-46.082
9182,-0.2241,-0.7720,-0.6729,23.743,0.244,-14.038,-133.412,15.606,-45.983
9192,-0.2158,-0.8237,-0.6245,17.395,-8.667,-13.550,-133.132,15.529,-45.818
9202,-0.2217,-0.8667,-0.5962,3.784,-13.245,-9.766,-132.962,15.513,-45.648
9212,-0.2510,-0.7886,-0.5898,-10.742,-14.648,-4.211,-132.973,15.573,-45.511
9222,-0.3115,-0.6465,-0.6274,-19.653,-13.000,3.174,-133.154,15.716,-45.434
9232,-0.3457,-0.5981,-0.6572,-13.916,-7.141,6.226,-133.336,15.864,-45.423
9242,-0.3437,-0.5317,-0.6724,-0.610,-2.197,2.441,-133.429,15.958,-45.423
9252,-0.3101,-0.5957,-0.6675,14.404,0.061,-2.136,-133.330,15.974,-45.406
9262,-0.2690,-0.7163,-0.6328,22.522,0.122,-6.653,-133.072,15.925,-45.363
9272,-0.2451,-0.8013,-0.6079,15.991,-2.502,-10.864,-132.830,15.837,-45.264
9282,-0.2212,-0.8569,-0.6064,1.465,-4.822,-12.634,-132.704,15.738,-45.143
9292,-0.2275,-0.8765,-0.6040,-13.855,-6.836,-9.033,-132.731,15.683,-45.022
9302,-0.2622,-0.7881,-0.6348,-26.672,-7.141,-2.563,-132.935,15.699,-44.951
9312,-0.3066,-0.6860,-0.6753,-25.818,-3.784,3.235,-133.209,15.771,-44.945
9322,-0.3262,-0.6260,-0.6929,-11.841,1.526,5.188,-133.385,15.831,-44.995
9332,-0.3169,-0.5752,-0.6973,8.057,5.615,3.906,-133.396,15.859,-45.066
9342,-0.2949,-0.5991,-0.6743,27.405,6.836,1.892,-133.193,15.848,-45.132
9352,-0.2627,-0.7007,-0.6436,36.926,5.310,-0.732,-132.830,15.798,-45.165
9362,-0.2251,-0.8311,-0.5996,31.006,1.526,-4.761,-132.446,15.721,-45.143
9372,-0.1987,-0.8691,-0.5913,9.521,-5.310,-7.568,-132.242,15.650,-45.049
9382,-0.2056,-0.9023,-0.6040,-14.404,-10.864,-7.019,-132.264,15.623,-44.918
9392,-0.2275,-0.8457,-0.6191,-31.189,-12.878,-5.798,-132.479,15.634,-44.775
9402,-0.2764,-0.6494,-0.6631,-34.302,-12.146,-1.770,-132.819,15.710,-44.670
9412,-0.3447,-0.5034,-0.6875,-18.494,-7.751,7.019,-133.110,15.875,-44.665
9422,-0.3696,-0.4951,-0.6772,8.728,-0.061,12.085,-133.154,16.046,-44.747
9432,-0.3330,-0.5747,-0.6362,31.250,6.042,8.728,-132.924,16.117,-44.857
9442,-0.2798,-0.7026,-0.5903,36.621,5.859,2.563,-132.550,16.106,-44.918
9452,-0.2305,-0.8472,-0.5537,22.522,2.014,-3.906,-132.226,16.029,-44.907
9462,-0.1958,-0.9121,-0.5698,-5.066,-2.258,-10.193,-132.149,15.914,-44.819
9472,-0.1851,-0.8687,-0.6030,-30.518,-4.272,-12.451,-132.347,15.793,-44.698
9482,-0.2271,-0.7051,-0.6533,-42.786,-4.211,-8.301,-132.753,15.732,-44.610
9492,-0.2964,-0.5298,-0.7124,-33.264,-1.465,0.610,-133.182,15.776,-44.599
9502,-0.3296,-0.5469,-0.7251,-6.165,4.028,6.897,-133.363,15.837,-44.681
9512,-0.2817,-0.6230,-0.6763,17.639,6.409,4.700,-133.253,15.842,-44.764
9522,-0.2622,-0.6445,-0.6455,24.719,2.197,2.869,-133.033,15.848,-44.797
9532,-0.2363,-0.7915,-0.5986,18.433,-1.160,1.160,-132.792,15.842,-44.797
9542,-0.1870,-0.9385,-0.5591,-0.793,-3.296,-3.967,-132.665,15.771,-44.747
9552,-0.1831,-0.9355,-0.5791,-30.518,-6.409,-6.897,-132.836,15.699,-44.648
9562,-0.2158,-0.7520,-0.6201,-50.537,-6.958,-3.723,-133.281,15.688,-44.566
9572,-0.2949,-0.5708,-0.6665,-48.523,-4.028,7.080,-133.824,15.798,-44.588
9582,-0.3647,-0.4785,-0.6973,-26.184,4.578,16.541,-134.242,15.958,-44.742
9592,-0.4038,-0.3188,-0.7139,3.296,14.404,17.883,-134.495,16.100,-44.978
9602,-0.3618,-0.4502,-0.6831,37.109,21.912,14.709,-134.319,16.128,-45.247
9612,-0.2817,-0.8232,-0.6025,51.392,26.184,5.066,-133.792,15.980,-45.483
9622,-0.1938,-0.9937,-0.5703,28.687,22.766,-11.475,-133.396,15.677,-45.571
9632,-0.1216,-1.0518,-0.5947,-13.489,14.465,-21.545,-133.380,15.320,-45.527
9642,-0.1221,-0.9429,-0.6426,-51.147,6.897,-16.479,-133.775,15.068,-45.461
9652,-0.2144,-0.6851,-0.7241,-67.627,4.456,0.122,-134.484,15.007,-45.494
9662,-0.3369,-0.4409,-0.7881,-49.377,8.545,18.677,-135.187,15.134,-45.692
9672,-0.4092,-0.3437,-0.8198,-7.935,15.198,27.161,-135.566,15.309,-46.005
9682,-0.3740,-0.4482,-0.7876,35.645,20.569,20.264,-135.439,15.381,-46.302
9692,-0.2935,-0.6841,-0.6934,61.157,18.860,5.859,-134.879,15.298,-46.483
9702,-0.2461,-0.8105,-0.6187,53.345,9.705,-6.348,-134.280,15.172,-46.505
9712,-0.2212,-0.8408,-0.5991,25.940,0.000,-13.306,-133.912,15.046,-46.412
9722,-0.2158,-0.8286,-0.6108,-0.916,-5.554,-13.733,-133.808,14.952,-46.269
9732,-0.2373,-0.7720,-0.6396,-19.409,-7.141,-8.728,-133.929,14.925,-46.154
9742,-0.2612,-0.7197,-0.6909,-25.024,-5.127,-3.906,-134.160,14.930,-46.088
9752,-0.2910,-0.6592,-0.7217,-18.005,-3.906,-1.587,-134.363,14.963,-46.049
9762,-0.2959,-0.5889,-0.7310,-2.991,-4.089,-1.343,-134.451,15.007,-46.011
9772,-0.2856,-0.6191,-0.6895,15.259,-4.211,-0.610,-134.324,15.051,-45.972
9782,-0.2642,-0.7007,-0.6323,25.879,-4.456,-0.305,-134.039,15.084,-45.939
9792,-0.2446,-0.7632,-0.5869,23.071,-5.615,-0.183,-133.731,15.117,-45.895
9802,-0.2300,-0.8267,-0.5649,9.644,-5.676,-0.366,-133.533,15.128,-45.851
9812,-0.2090,-0.8545,-0.5767,-9.460,-4.211,-0.366,-133.522,15.117,-45.813
9822,-0.2183,-0.8267,-0.6118,-27.222,-2.502,2.075,-133.720,15.117,-45.813
9832,-0.2480,-0.6968,-0.6709,-34.241,0.061,4.089,-134.072,15.139,-45.840
9842,-0.2949,-0.5400,-0.7280,-22.705,3.052,6.348,-134.407,15.194,-45.912
9852,-0.3218,-0.4873,-0.7480,6.470,6.714,7.874,-134.495,15.249,-46.016
9862,-0.3062,-0.5596,-0.7051,39.246,8.667,4.639,-134.203,15.255,-46.115
9872,-0.2739,-0.6558,-0.6450,55.298,5.188,0.366,-133.671,15.238,-46.154
9882,-0.2627,-0.7388,-0.5889,48.157,-1.953,-1.282,-133.132,15.244,-46.132
9892,-0.2588,-0.8149,-0.5615,24.719,-8.301,-2.136,-132.781,15.276,-46.055
9902,-0.2485,-0.8203,-0.5781,-4.639,-10.864,-3.906,-132.726,15.309,-45.945
9912,-0.2480,-0.7773,-0.6187,-27.100,-9.888,-4.822,-132.924,15.326,-45.835
9922,-0.2583,-0.7183,-0.6797,-36.133,-6.165,-6.104,-133.259,15.320,-45.742
9932,-0.2632,-0.6343,-0.7256,-30.396,-2.502,-7.324,-133.599,15.282,-45.676
9942,-0.2798,-0.5967,-0.7437,-11.902,0.305,-5.737,-133.786,15.249,-45.637
9952,-0.2788,-0.6113,-0.7319,11.597,2.808,-3.845,-133.731,15.216,-45.626
9962,-0.2612,-0.6899,-0.6851,29.968,2.441,-3.113,-133.445,15.172,-45.626
9972,-0.2451,-0.7778,-0.6265,32.959,-0.122,-1.648,-133.066,15.150,-45.610
9982,-0.2275,-0.8276,-0.6201,20.447,-3.052,-0.427,-132.797,15.139,-45.588
9992,-0.1914,-0.8604,-0.6328,0.793,-3.418,-0.549,-132.715,15.106,-45.555
10002,-0.1890,-0.7881,-0.6626,-18.188,-2.991,0.183,-132.863,15.084,-45.533
10012,-0.2349,-0.6284,-0.6885,-24.109,-2.747,3.418,-133.149,15.117,-45.538
10022,-0.2935,-0.5386,-0.6763,-10.559,-2.991,6.165,-133.347,15.216,-45.560
10032,-0.3271,-0.5718,-0.6362,13.062,-3.723,3.906,-133.264,15.326,-45.560
10042,-0.2979,-0.7192,-0.5620,30.884,-4.089,-3.418,-132.891,15.359,-45.505
10052,-0.2666,-0.7998,-0.5146,29.053,-5.310,-8.179,-132.473,15.337,-45.406
10062,-0.2529,-0.8281,-0.5073,12.695,-3.357,-6.897,-132.220,15.304,-45.330
10072,-0.2490,-0.7837,-0.5327,-3.906,2.991,-1.404,-132.182,15.266,-45.346
10082,-0.2573,-0.6807,-0.5776,-14.648,9.399,5.981,-132.336,15.255,-45.456
10092,-0.2837,-0.6211,-0.6182,-14.282,13.306,11.292,-132.550,15.276,-45.637
10102,-0.2964,-0.5776,-0.6538,-9.277,14.038,9.827,-132.748,15.287,-45.813
10112,-0.2925,-0.6138,-0.6792,-2.869,12.024,2.319,-132.858,15.249,-45.923
10122,-0.2549,-0.7310,-0.6787,2.197,9.277,-8.301,-132.836,15.117,-45.934
10132,-0.2119,-0.8271,-0.6777,1.404,5.249,-16.785,-132.770,14.919,-45.857
10142,-0.1973,-0.8750,-0.6729,-2.686,-0.122,-18.250,-132.709,14.744,-45.725
10152,-0.2153,-0.8105,-0.6777,-7.080,-4.761,-11.963,-132.720,14.656,-45.604
10162,-0.2598,-0.7261,-0.6860,-4.639,-5.493,-0.183,-132.764,14.689,-45.566
10172,-0.2876,-0.6904,-0.6807,5.249,-1.648,9.338,-132.742,14.788,-45.615
10182,-0.2905,-0.6675,-0.6777,12.695,3.052,12.817,-132.671,14.881,-45.731
10192,-0.2788,-0.6245,-0.7002,14.587,5.859,12.878,-132.621,14.952,-45.862
10202,-0.2666,-0.6460,-0.7002,11.414,6.897,12.634,-132.589,15.007,-46.005
10212,-0.2632,-0.6729,-0.6816,0.854,3.967,10.803,-132.638,15.062,-46.110
10222,-0.2817,-0.6621,-0.6831,-14.832,-3.357,6.287,-132.819,15.145,-46.132
10232,-0.2817,-0.6606,-0.6880,-24.963,-10.437,-1.953,-133.077,15.211,-46.038
10242,-0.2803,-0.6821,-0.6948,-26.611,-16.113,-10.681,-133.314,15.255,-45.840
10252,-0.2632,-0.6865,-0.7061,-21.851,-18.372,-18.311,-133.484,15.244,-45.571
10262,-0.2412,-0.7109,-0.6924,-9.827,-17.029,-20.874,-133.517,15.194,-45.297
10272,-0.2114,-0.8013,-0.6431,4.028,-13.855,-18.250,-133.369,15.123,-45.060
10282,-0.2056,-0.8203,-0.6094,9.827,-11.047,-11.169,-133.160,15.079,-44.896
10292,-0.2222,-0.7969,-0.5962,8.362,-7.935,-1.526,-132.995,15.095,-44.824
10302,-0.2583,-0.7466,-0.5859,4.150,-4.578,6.714,-132.913,15.178,-44.841
10312,-0.2891,-0.7144,-0.5879,-0.061,-1.587,11.108,-132.896,15.287,-44.907
10322,-0.2969,-0.7246,-0.5967,-1.648,0.488,9.705,-132.896,15.381,-44.978
10332,-0.2788,-0.7217,-0.6006,-3.296,0.854,4.761,-132.907,15.419,-45.016
10342,-0.2686,-0.7075,-0.6128,-5.798,-0.244,2.380,-132.946,15.447,-45.033
10352,-0.2666,-0.6997,-0.6270,-6.287,-0.549,2.625,-133.000,15.469,-45.049
10362,-0.2729,-0.6733,-0.6431,-3.967,0.061,2.869,-133.055,15.502,-45.066
10372,-0.2764,-0.6519,-0.6582,1.282,1.282,2.686,-133.072,15.524,-45.099
10382,-0.2734,-0.6470,-0.6558,7.690,2.563,1.709,-133.028,15.529,-45.126
10392,-0.2651,-0.7007,-0.6387,11.353,2.441,0.732,-132.913,15.518,-45.154
10402,-0.2485,-0.7544,-0.6230,8.118,1.343,-1.404,-132.797,15.485,-45.154
10412,-0.2363,-0.7402,-0.6279,0.061,-0.061,-2.502,-132.770,15.452,-45.132
10422,-0.2402,-0.7368,-0.6436,-4.639,-0.061,-0.549,-132.797,15.430,-45.132
10432,-0.2344,-0.7485,-0.6523,-3.479,2.014,0.671,-132.819,15.397,-45.148
10442,-0.2476,-0.6846,-0.6694,0.122,3.723,2.136,-132.847,15.381,-45.192
10452,-0.2788,-0.6362,-0.6782,6.348,5.737,5.371,-132.847,15.392,-45.275
10462,-0.2964,-0.6240,-0.6807,14.404,8.911,6.348,-132.775,15.403,-45.385
10472,-0.2773,-0.6802,-0.6743,19.104,11.108,4.395,-132.638,15.370,-45.505
10482,-0.2578,-0.7354,-0.6597,15.625,9.033,1.953,-132.501,15.315,-45.588
10492,-0.2529,-0.7422,-0.6689,4.089,3.784,-0.244,-132.462,15.276,-45.615
10502,-0.2495,-0.7607,-0.6738,-6.653,-0.854,-1.831,-132.512,15.255,-45.593
10512,-0.2534,-0.7510,-0.6826,-12.573,-4.028,-2.502,-132.621,15.249,-45.544
10522,-0.2651,-0.7036,-0.6865,-12.634,-6.104,-1.709,-132.748,15.276,-45.489
10532,-0.2881,-0.6646,-0.6792,-6.714,-7.019,1.709,-132.830,15.353,-45.445
10542,-0.3071,-0.6699,-0.6621,1.526,-5.676,4.150,-132.830,15.447,-45.428
10552,-0.2979,-0.6841,-0.6504,6.531,-3.113,2.869,-132.775,15.513,-45.428
10562,-0.2798,-0.6719,-0.6445,7.080,-1.099,0.610,-132.715,15.535,-45.423
10572,-0.2642,-0.6880,-0.6475,6.165,0.122,-1.282,-132.654,15.524,-45.417
10582,-0.2500,-0.7197,-0.6475,4.944,-0.122,-3.845,-132.594,15.491,-45.390
10592,-0.2358,-0.7568,-0.6475,2.014,-2.258,-6.042,-132.534,15.436,-45.330
10602,-0.2300,-0.7822,-0.6401,-0.916,-5.005,-7.324,-132.490,15.392,-45.236
10612,-0.2412,-0.7612,-0.6289,-2.747,-7.568,-6.592,-132.457,15.375,-45.132
10622,-0.2676,-0.7061,-0.6206,-1.221,-8.362,-2.319,-132.440,15.419,-45.055
10633,-0.3032,-0.6763,-0.6162,4.761,-6.409,3.296,-132.385,15.518,-45.027
10642,-0.3062,-0.6880,-0.6011,11.108,-2.625,4.944,-132.264,15.601,-45.044
10652,-0.2891,-0.6782,-0.6094,11.841,0.549,3.052,-132.149,15.639,-45.066
10662,-0.2720,-0.6992,-0.6172,9.033,2.380,1.099,-132.061,15.639,-45.093
10672,-0.2563,-0.7085,-0.6260,3.784,2.747,-0.366,-132.023,15.612,-45.110
10682,-0.2451,-0.7261,-0.6499,-2.319,1.587,-1.648,-132.045,15.573,-45.115
10692,-0.2476,-0.7183,-0.6611,-5.676,0.122,-3.113,-132.100,15.540,-45.093
10702,-0.2686,-0.6792,-0.6611,-5.554,-2.197,-2.686,-132.166,15.535,-45.055
10712,-0.2925,-0.6870,-0.6509,-1.709,-4.028,-0.732,-132.187,15.573,-45.022
10722,-0.2866,-0.7427,-0.6353,1.648,-4.700,-1.953,-132.144,15.601,-44.973
10732,-0.2656,-0.7412,-0.6289,0.122,-5.798,-4.944,-132.100,15.595,-44.890
10742,-0.2510,-0.7471,-0.6265,-2.625,-7.080,-4.089,-132.083,15.601,-44.808
10752,-0.2412,-0.7559,-0.6309,-4.333,-6.592,-2.258,-132.089,15.612,-44.742
10762,-0.2490,-0.7104,-0.6426,-5.005,-5.554,-0.610,-132.122,15.634,-44.698
10772,-0.2729,-0.6646,-0.6538,-2.319,-3.540,1.465,-132.166,15.672,-44.676
10782,-0.2827,-0.6704,-0.6523,4.272,-0.671,1.099,-132.144,15.699,-44.681
10792,-0.2695,-0.7026,-0.6431,9.216,0.488,-2.197,-132.056,15.683,-44.670
10802,-0.2563,-0.7490,-0.6245,8.850,-0.732,-4.700,-131.935,15.639,-44.632
10812,-0.2549,-0.7568,-0.6196,3.235,-2.808,-4.944,-131.858,15.612,-44.577
10822,-0.2593,-0.7700,-0.6157,-3.784,-4.089,-2.930,-131.852,15.612,-44.522
10832,-0.2686,-0.7603,-0.6118,-9.705,-4.578,0.305,-131.907,15.639,-44.489
10842,-0.2837,-0.7002,-0.6274,-12.817,-4.028,2.747,-132.034,15.699,-44.478
10852,-0.2920,-0.6602,-0.6475,-8.850,-1.770,3.174,-132.144,15.749,-44.484
10862,-0.2939,-0.6416,-0.6650,0.793,1.892,1.160,-132.182,15.765,-44.511
10872,-0.2949,-0.6152,-0.6758,12.207,4.700,-1.160,-132.127,15.749,-44.539
10882,-0.2817,-0.6851,-0.6436,22.278,5.493,-2.197,-131.924,15.705,-44.566
10892,-0.2773,-0.7422,-0.6206,20.020,2.502,-2.625,-131.704,15.672,-44.566
10902,-0.2725,-0.7974,-0.6196,6.348,-1.709,-3.479,-131.594,15.650,-44.528
10912,-0.2549,-0.8364,-0.6255,-9.583,-4.456,-5.371,-131.622,15.623,-44.456
10922,-0.2505,-0.8218,-0.6470,-22.522,-6.653,-5.920,-131.786,15.601,-44.363
10932,-0.2651,-0.7476,-0.6855,-26.245,-8.179,-3.540,-132.028,15.617,-44.275
10942,-0.2827,-0.6699,-0.7041,-16.418,-7.690,0.732,-132.220,15.683,-44.220
10952,-0.3027,-0.6440,-0.7051,2.380,-5.188,4.272,-132.248,15.765,-44.209
10962,-0.2847,-0.7148,-0.6743,20.386,-2.075,3.174,-132.061,15.809,-44.220
10972,-0.2358,-0.7944,-0.6289,27.466,-1.038,-0.305,-131.748,15.782,-44.209
10982,-0.2358,-0.7832,-0.5933,21.057,-3.662,1.038,-131.484,15.793,-44.187
10992,-0.2700,-0.7046,-0.5786,9.521,-6.409,6.653,-131.369,15.892,-44.182
11002,-0.3057,-0.6973,-0.5610,1.587,-6.958,12.085,-131.336,16.057,-44.209
11012,-0.3281,-0.6821,-0.5620,-6.226,-6.165,12.146,-131.391,16.232,-44.247
11022,-0.3301,-0.6387,-0.5845,-13.611,-4.578,7.446,-131.539,16.364,-44.264
11032,-0.3057,-0.6543,-0.6021,-14.526,-0.854,0.488,-131.693,16.397,-44.258
11042,-0.2642,-0.6890,-0.6411,-10.071,3.357,-6.958,-131.797,16.315,-44.236
11052,-0.2168,-0.7729,-0.6646,-1.099,6.714,-11.841,-131.792,16.144,-44.209
11062,-0.1934,-0.7627,-0.6719,6.714,7.385,-12.268,-131.710,15.947,-44.176
11072,-0.2266,-0.6782,-0.6641,12.695,5.371,-3.662,-131.616,15.859,-44.193
11082,-0.3145,-0.6577,-0.6021,18.494,3.052,13.123,-131.473,15.974,-44.308
11092,-0.3257,-0.6392,-0.5913,11.658,0.916,10.559,-131.391,16.089,-44.390
11102,-0.3057,-0.7051,-0.5742,1.953,-0.671,3.418,-131.358,16.144,-44.407
11112,-0.2769,-0.7563,-0.5884,-12.451,-2.136,-5.676,-131.429,16.117,-44.352
11122,-0.2583,-0.7744,-0.6294,-23.560,-2.625,-12.817,-131.611,16.024,-44.242
11133,-0.2480,-0.7690,-0.6616,-24.719,-1.099,-15.808,-131.814,15.892,-44.127
11142,-0.2544,-0.7534,-0.6943,-17.334,2.136,-12.634,-131.973,15.765,-44.055
11152,-0.2563,-0.7534,-0.7065,-2.563,5.859,-6.592,-132.012,15.661,-44.055
11162,-0.2588,-0.7046,-0.6816,13.184,6.836,0.000,-131.913,15.606,-44.105
11172,-0.2847,-0.6729,-0.6357,23.315,4.517,8.850,-131.726,15.656,-44.203
11182,-0.3032,-0.6660,-0.5928,24.536,2.014,15.137,-131.512,15.787,-44.324
11192,-0.3076,-0.7090,-0.5518,16.602,-0.610,14.404,-131.336,15.925,-44.418
11202,-0.2954,-0.7646,-0.5439,-1.648,-2.747,6.897,-131.303,16.013,-44.445
11212,-0.2715,-0.7798,-0.5854,-24.109,-2.625,-3.113,-131.484,16.002,-44.401
11222,-0.2583,-0.7661,-0.6431,-37.292,-0.671,-10.742,-131.819,15.914,-44.324
11232,-0.2456,-0.7427,-0.6816,-34.485,2.686,-13.489,-132.149,15.771,-44.247
11242,-0.2578,-0.6973,-0.7139,-18.433,5.310,-8.789,-132.358,15.661,-44.231
11252,-0.2837,-0.7061,-0.6973,5.371,6.531,0.122,-132.341,15.617,-44.280
11262,-0.3008,-0.6890,-0.6538,23.926,6.958,7.019,-132.144,15.645,-44.385
11272,-0.3115,-0.6675,-0.6099,31.616,7.507,11.780,-131.874,15.716,-44.522
11282,-0.3174,-0.6499,-0.5781,30.457,8.423,13.550,-131.611,15.804,-44.681
11292,-0.3145,-0.6704,-0.5664,19.897,8.301,10.925,-131.435,15.864,-44.819
11302,-0.2949,-0.7012,-0.5781,2.869,6.714,3.235,-131.407,15.870,-44.896
11312,-0.2529,-0.7617,-0.6094,-16.052,3.906,-6.409,-131.539,15.782,-44.885
11322,-0.2192,-0.7959,-0.6582,-32.593,0.061,-14.160,-131.814,15.639,-44.786
11332,-0.2026,-0.7812,-0.7007,-39.490,-3.235,-18.250,-132.166,15.480,-44.632
11342,-0.1982,-0.7598,-0.7173,-32.776,-4.333,-15.442,-132.462,15.348,-44.495
11352,-0.2388,-0.6973,-0.7075,-15.869,-4.150,-5.798,-132.632,15.315,-44.423
11362,-0.2925,-0.6455,-0.6738,5.310,-2.075,5.005,-132.621,15.386,-44.440
11372,-0.3086,-0.6646,-0.6138,23.743,1.404,11.353,-132.413,15.491,-44.528
11382,-0.3037,-0.7412,-0.5703,29.907,4.089,11.597,-132.094,15.573,-44.643
11392,-0.2881,-0.7383,-0.5732,21.973,5.127,5.798,-131.858,15.601,-44.725
11402,-0.2739,-0.7290,-0.6133,9.949,5.859,-1.343,-131.748,15.557,-44.758
11412,-0.2549,-0.7495,-0.6484,3.601,7.019,-6.836,-131.710,15.447,-44.764
11422,-0.2422,-0.7627,-0.6743,2.502,5.920,-9.644,-131.677,15.315,-44.747
11432,-0.2485,-0.8081,-0.6777,5.371,2.563,-8.362,-131.594,15.216,-44.709
11442,-0.2627,-0.7822,-0.6616,7.690,-0.732,-3.967,-131.495,15.183,-44.676
11452,-0.2998,-0.7007,-0.6436,8.911,-2.747,5.005,-131.424,15.260,-44.687
11462,-0.3252,-0.6597,-0.6162,10.803,-1.953,13.733,-131.353,15.419,-44.764
11472,-0.3281,-0.6470,-0.6045,9.338,0.793,15.869,-131.309,15.584,-44.879
11482,-0.3037,-0.6567,-0.6045,3.174,2.380,11.536,-131.314,15.688,-44.978
11492,-0.2715,-0.6670,-0.6211,-6.897,1.953,3.540,-131.407,15.710,-45.016
11502,-0.2417,-0.7144,-0.6519,-16.296,0.854,-4.883,-131.572,15.650,-44.989
11512,-0.2153,-0.7627,-0.6855,-18.799,0.061,-12.329,-131.743,15.518,-44.907
11522,-0.1934,-0.7778,-0.7065,-14.465,-0.793,-16.296,-131.858,15.353,-44.786
11532,-0.1919,-0.7686,-0.7021,-4.211,-2.075,-13.306,-131.874,15.222,-44.681
11542,-0.2246,-0.7510,-0.6685,8.667,-3.296,-3.113,-131.776,15.194,-44.632
11552,-0.2632,-0.7236,-0.6206,17.883,-3.418,7.812,-131.594,15.276,-44.659
11562,-0.2856,-0.6797,-0.5835,20.447,-2.197,13.916,-131.402,15.419,-44.742
11572,-0.3013,-0.6699,-0.5605,17.334,0.305,15.320,-131.248,15.568,-44.846
11582,-0.3037,-0.6553,-0.5674,9.094,3.418,11.475,-131.182,15.667,-44.951
11592,-0.2881,-0.6899,-0.5898,-1.221,5.920,4.517,-131.204,15.683,-45.027
11602,-0.2603,-0.7363,-0.6187,-11.780,7.019,-2.808,-131.320,15.606,-45.066
11612,-0.2461,-0.7500,-0.6631,-20.081,6.653,-7.080,-131.523,15.496,-45.066
11622,-0.2422,-0.7368,-0.6992,-20.691,5.920,-8.057,-131.743,15.375,-45.060
11633,-0.2427,-0.7231,-0.7114,-13.489,4.883,-5.798,-131.907,15.282,-45.055
11642,-0.2593,-0.6753,-0.7061,-1.343,2.930,-1.404,-131.968,15.249,-45.071
11652,-0.2798,-0.6782,-0.6729,12.573,0.549,2.625,-131.874,15.271,-45.093
11662,-0.2773,-0.6821,-0.6367,20.325,-1.465,3.235,-131.688,15.320,-45.104
11672,-0.2769,-0.6934,-0.6016,19.470,-3.662,2.930,-131.484,15.381,-45.093
11682,-0.2651,-0.7402,-0.5771,12.024,-5.249,1.526,-131.325,15.430,-45.066
11692,-0.2500,-0.7681,-0.5703,-1.587,-6.287,-1.892,-131.276,15.447,-45.000
11702,-0.2485,-0.7578,-0.5874,-15.320,-6.409,-4.150,-131.369,15.452,-44.923
11712,-0.2573,-0.7422,-0.6201,-21.484,-4.211,-4.639,-131.550,15.441,-44.857
11722,-0.2524,-0.7300,-0.6533,-18.494,0.000,-5.798,-131.726,15.386,-44.819
11732,-0.2563,-0.6846,-0.6743,-8.240,3.723,-5.554,-131.836,15.315,-44.808
11742,-0.2686,-0.6436,-0.6826,7.202,5.676,-2.625,-131.819,15.266,-44.835
11752,-0.2729,-0.6948,-0.6460,23.132,5.737,-0.305,-131.611,15.233,-44.879
11762,-0.2661,-0.7378,-0.6187,27.710,3.479,-0.366,-131.325,15.211,-44.901
11772,-0.2651,-0.7671,-0.5933,20.142,-0.183,-0.305,-131.089,15.211,-44.901
11782,-0.2637,-0.7710,-0.5869,4.517,-3.296,0.061,-131.001,15.233,-44.874
11792,-0.2612,-0.7441,-0.6021,-11.597,-4.639,-0.061,-131.089,15.260,-44.835
11802,-0.2637,-0.7173,-0.6289,-20.630,-4.211,-0.122,-131.281,15.287,-44.802
11812,-0.2637,-0.6938,-0.6514,-20.264,-2.441,-1.099,-131.495,15.298,-44.775
11822,-0.2646,-0.6787,-0.6680,-12.207,-0.061,-3.418,-131.638,15.276,-44.753
11832,-0.2695,-0.6895,-0.6699,0.305,2.625,-5.249,-131.660,15.227,-44.736
11842,-0.2646,-0.6914,-0.6611,13.550,4.395,-6.409,-131.545,15.150,-44.725
11852,-0.2603,-0.7134,-0.6387,23.499,4.272,-4.883,-131.314,15.090,-44.725
11862,-0.2627,-0.7568,-0.6064,24.902,2.380,-2.014,-131.039,15.057,-44.731
11872,-0.2676,-0.7607,-0.5903,15.442,-0.916,-0.122,-130.853,15.068,-44.725
11882,-0.2598,-0.7744,-0.5879,0.793,-3.967,0.183,-130.803,15.095,-44.692
11892,-0.2485,-0.7822,-0.6006,-13.733,-5.737,-1.221,-130.891,15.112,-44.637
11902,-0.2476,-0.7461,-0.6221,-23.499,-6.775,-3.052,-131.094,15.123,-44.566
11912,-0.2651,-0.6611,-0.6523,-22.217,-6.165,-3.967,-131.331,15.145,-44.489
11922,-0.3042,-0.6353,-0.6714,-8.240,-2.747,-3.357,-131.451,15.167,-44.445
11932,-0.3159,-0.6396,-0.6719,12.146,2.502,-6.165,-131.375,15.139,-44.423
11942,-0.2974,-0.7329,-0.6504,30.884,6.104,-9.949,-131.067,15.046,-44.401
11952,-0.2378,-0.8779,-0.6270,35.461,7.202,-11.780,-130.655,14.886,-44.379
11962,-0.1772,-0.9043,-0.6367,23.010,4.456,-10.986,-130.364,14.716,-44.341
11972,-0.1436,-0.8745,-0.6440,6.348,-0.061,-5.188,-130.248,14.606,-44.308
11982,-0.1738,-0.7549,-0.6313,-5.066,-5.859,2.502,-130.287,14.617,-44.275
11992,-0.2412,-0.6514,-0.6089,-6.592,-10.620,7.812,-130.375,14.749,-44.242
12002,-0.2930,-0.5747,-0.5703,0.183,-11.536,8.240,-130.408,14.936,-44.209
12012,-0.3335,-0.5693,-0.5430,6.897,-8.362,5.554,-130.364,15.112,-44.182
12022,-0.3276,-0.6348,-0.5249,8.789,-1.709,-0.061,-130.265,15.189,-44.165
12032,-0.2935,-0.7231,-0.5176,2.502,3.906,-5.310,-130.193,15.150,-44.160
12042,-0.2505,-0.8315,-0.5356,-12.085,7.446,-7.874,-130.243,15.035,-44.165
12052,-0.2227,-0.8975,-0.5869,-30.762,8.484,-8.362,-130.479,14.886,-44.176
12062,-0.2124,-0.8628,-0.6519,-45.471,8.789,-6.836,-130.902,14.738,-44.203
12072,-0.2388,-0.7432,-0.7129,-46.448,8.728,-0.793,-131.402,14.661,-44.264
12082,-0.2905,-0.6636,-0.7393,-29.663,8.301,7.080,-131.792,14.678,-44.379
12092,-0.3145,-0.6543,-0.7197,-2.197,7.996,9.277,-131.907,14.722,-44.506
12102,-0.3047,-0.6963,-0.6709,20.142,5.859,6.104,-131.748,14.755,-44.588
12112,-0.2769,-0.7515,-0.6182,28.015,1.709,2.563,-131.457,14.777,-44.621
12122,-0.2578,-0.7920,-0.5830,21.179,-2.625,1.160,-131.193,14.799,-44.610
12133,-0.2500,-0.8032,-0.5859,6.226,-5.371,0.977,-131.072,14.837,-44.572
12142,-0.2568,-0.7524,-0.6138,-7.812,-5.310,0.793,-131.122,14.875,-44.539
12152,-0.2749,-0.7031,-0.6426,-11.719,-2.930,1.404,-131.248,14.919,-44.522
12162,-0.2842,-0.6875,-0.6509,-5.127,-0.061,1.465,-131.320,14.947,-44.533
12172,-0.2808,-0.6792,-0.6416,5.676,2.014,1.099,-131.292,14.958,-44.555
12182,-0.2798,-0.6738,-0.6245,14.587,3.052,1.587,-131.171,14.974,-44.594
12192,-0.2749,-0.6514,-0.6084,17.700,3.601,2.502,-131.023,14.991,-44.637
12202,-0.2642,-0.6650,-0.6050,14.404,4.578,4.089,-130.913,15.002,-44.698
12212,-0.2461,-0.7153,-0.6128,5.615,5.249,2.625,-130.869,14.985,-44.758
12222,-0.2158,-0.7598,-0.6362,-7.874,4.395,-2.441,-130.941,14.914,-44.775
12232,-0.1870,-0.8076,-0.6631,-21.606,2.258,-6.165,-131.133,14.804,-44.753
12242,-0.1934,-0.7964,-0.7021,-30.273,-0.366,-6.775,-131.424,14.711,-44.703
12252,-0.2026,-0.7471,-0.7314,-27.222,-1.343,-6.042,-131.710,14.639,-44.654
12262,-0.2290,-0.6714,-0.7388,-10.986,-1.465,-2.869,-131.869,14.606,-44.621
12272,-0.2646,-0.6343,-0.7202,12.573,-0.793,1.526,-131.814,14.634,-44.626
12282,-0.2661,-0.6533,-0.6646,33.142,0.244,2.808,-131.528,14.667,-44.648
12292,-0.2559,-0.6914,-0.6133,39.429,-0.549,2.563,-131.144,14.694,-44.659
12302,-0.2490,-0.7251,-0.5742,31.189,-2.991,1.526,-130.803,14.733,-44.648
12312,-0.2520,-0.7437,-0.5630,12.939,-5.981,0.000,-130.627,14.771,-44.599
12322,-0.2563,-0.7402,-0.5776,-7.568,-7.568,-2.319,-130.655,14.810,-44.528
12332,-0.2515,-0.7485,-0.6040,-20.691,-6.226,-4.700,-130.820,14.815,-44.445
12342,-0.2461,-0.7427,-0.6323,-24.597,-3.296,-6.348,-131.045,14.782,-44.374
12352,-0.2441,-0.7017,-0.6592,-19.897,-0.122,-5.798,-131.254,14.733,-44.335
12362,-0.2520,-0.6953,-0.6592,-7.446,2.686,-2.075,-131.353,14.700,-44.341
12372,-0.2686,-0.7026,-0.6421,4.883,4.150,1.465,-131.325,14.694,-44.385
12382,-0.2749,-0.6875,-0.6304,11.353,4.578,2.197,-131.237,14.700,-44.434
12392,-0.2646,-0.7065,-0.6089,13.733,4.333,0.977,-131.105,14.689,-44.478
12402,-0.2544,-0.7334,-0.5933,10.132,2.502,-0.916,-130.984,14.667,-44.489
12412,-0.2515,-0.7524,-0.6016,0.305,-0.305,-2.625,-130.957,14.650,-44.467
12422,-0.2412,-0.7729,-0.6113,-8.728,-2.075,-4.272,-131.006,14.623,-44.423
12432,-0.2329,-0.7944,-0.6240,-14.221,-2.869,-4.822,-131.100,14.590,-44.368
12442,-0.2354,-0.7930,-0.6313,-15.991,-3.296,-4.150,-131.221,14.562,-44.313
12452,-0.2485,-0.7383,-0.6445,-13.367,-2.686,-2.197,-131.342,14.562,-44.280
12462,-0.2681,-0.6992,-0.6450,-4.639,-0.977,1.282,-131.402,14.590,-44.280
12472,-0.2842,-0.6851,-0.6333,5.920,0.916,3.052,-131.364,14.628,-44.308
12482,-0.2832,-0.6914,-0.6260,13.062,2.014,1.526,-131.248,14.650,-44.335
12492,-0.2607,-0.7427,-0.6104,15.564,1.892,-1.587,-131.078,14.634,-44.335
12502,-0.2363,-0.7798,-0.5996,11.414,0.305,-3.479,-130.924,14.595,-44.319
12512,-0.2310,-0.7847,-0.6016,1.892,-1.953,-2.197,-130.864,14.573,-44.286
12522,-0.2437,-0.7495,-0.6162,-6.470,-2.747,0.488,-130.908,14.590,-44.269
12532,-0.2632,-0.7104,-0.6338,-10.010,-2.319,2.258,-131.017,14.634,-44.264
12542,-0.2686,-0.6812,-0.6440,-7.141,-1.038,1.038,-131.111,14.661,-44.264
12552,-0.2700,-0.6841,-0.6382,0.488,-0.305,-1.770,-131.122,14.661,-44.247
12562,-0.2612,-0.7222,-0.6245,7.751,0.305,-3.967,-131.034,14.639,-44.225
12572,-0.2505,-0.7549,-0.6104,10.193,0.732,-4.150,-130.908,14.601,-44.203
12582,-0.2461,-0.7773,-0.6030,6.653,1.038,-2.258,-130.809,14.573,-44.198
12592,-0.2471,-0.7651,-0.6138,-0.183,1.343,-0.549,-130.792,14.557,-44.203
12602,-0.2495,-0.7261,-0.6353,-5.554,2.075,0.671,-130.858,14.546,-44.225
12612,-0.2578,-0.6982,-0.6489,-5.310,2.869,1.404,-130.935,14.546,-44.253
12622,-0.2559,-0.6934,-0.6372,-1.892,2.869,1.099,-130.979,14.540,-44.286
12633,-0.2583,-0.7187,-0.6099,-0.732,0.854,0.977,-130.984,14.551,-44.297
12642,-0.2793,-0.7158,-0.5947,-5.371,-2.136,0.793,-131.023,14.590,-44.286
12652,-0.3027,-0.7344,-0.5928,-12.146,-3.296,0.427,-131.116,14.645,-44.264
12662,-0.3091,-0.7720,-0.6143,-18.677,-1.282,-1.099,-131.270,14.672,-44.247
12672,-0.2861,-0.8154,-0.6685,-23.071,3.052,-3.784,-131.479,14.634,-44.242
12682,-0.2466,-0.8633,-0.7187,-22.278,7.812,-5.005,-131.688,14.518,-44.269
12692,-0.2192,-0.8364,-0.7627,-18.677,9.766,-2.563,-131.896,14.403,-44.330
12702,-0.2241,-0.7646,-0.7905,-10.254,8.850,4.517,-132.061,14.348,-44.429
12712,-0.2603,-0.6953,-0.7666,3.723,5.798,12.146,-132.111,14.398,-44.555
12722,-0.2949,-0.6274,-0.7275,14.893,1.587,16.663,-132.067,14.535,-44.681
12732,-0.3154,-0.6050,-0.6714,19.470,-3.418,16.296,-131.957,14.722,-44.769
12742,-0.3062,-0.6499,-0.6157,14.954,-8.423,10.193,-131.825,14.897,-44.775
12752,-0.2729,-0.7148,-0.5937,-0.671,-12.451,1.282,-131.786,15.002,-44.687
12762,-0.2329,-0.7534,-0.6147,-19.714,-14.099,-6.226,-131.918,15.035,-44.539
12772,-0.1880,-0.7788,-0.6431,-29.114,-12.024,-11.108,-132.138,14.985,-44.368
12782,-0.1675,-0.7520,-0.6777,-25.513,-7.751,-11.047,-132.352,14.903,-44.231
12792,-0.1748,-0.6929,-0.6978,-6.958,-3.174,-6.897,-132.435,14.826,-44.160
12802,-0.1855,-0.6636,-0.6646,21.484,0.793,-0.854,-132.248,14.777,-44.160
12812,-0.2100,-0.6782,-0.5894,42.969,2.319,6.165,-131.825,14.788,-44.220
12822,-0.2563,-0.6880,-0.5361,46.265,2.075,11.414,-131.353,14.875,-44.313
12832,-0.2798,-0.6968,-0.4976,34.729,1.526,10.803,-130.974,14.980,-44.401
12842,-0.2915,-0.6865,-0.5068,13.245,0.305,6.104,-130.803,15.062,-44.445
12852,-0.2764,-0.6855,-0.5547,-8.484,0.305,-0.427,-130.869,15.079,-44.445
12862,-0.2529,-0.6982,-0.6221,-21.301,2.014,-5.920,-131.083,15.024,-44.418
12872,-0.2319,-0.7187,-0.6694,-23.193,3.845,-9.460,-131.325,14.908,-44.385
12882,-0.2153,-0.7700,-0.7002,-16.357,5.310,-9.888,-131.490,14.771,-44.357
12892,-0.2158,-0.7949,-0.7041,-5.432,4.944,-7.507,-131.539,14.650,-44.346
12902,-0.2451,-0.7471,-0.7021,5.066,2.869,-1.770,-131.506,14.606,-44.357
12912,-0.2817,-0.7085,-0.6763,15.259,1.343,4.761,-131.391,14.645,-44.396
12922,-0.3018,-0.6758,-0.6392,20.630,-0.244,8.362,-131.221,14.744,-44.456
12932,-0.3120,-0.6743,-0.6138,19.287,-2.502,8.484,-131.050,14.865,-44.495
12942,-0.2925,-0.7197,-0.5815,12.390,-4.822,3.967,-130.902,14.952,-44.484
12952,-0.2656,-0.7427,-0.5718,-0.244,-7.385,-2.319,-130.853,14.991,-44.407
12962,-0.2607,-0.7642,-0.5894,-12.451,-8.240,-4.883,-130.919,15.007,-44.308
12972,-0.2563,-0.7842,-0.6118,-18.005,-5.920,-4.822,-131.050,15.007,-44.231
12982,-0.2451,-0.7710,-0.6416,-16.357,-2.197,-3.845,-131.188,14.980,-44.187
12992,-0.2466,-0.7192,-0.6650,-8.179,0.732,0.122,-131.287,14.963,-44.193
13002,-0.2632,-0.6914,-0.6611,4.944,2.380,4.944,-131.270,14.991,-44.247
13012,-0.2681,-0.6729,-0.6299,15.076,2.197,7.019,-131.160,15.040,-44.313
13022,-0.2759,-0.6733,-0.5986,17.761,-0.244,6.348,-130.995,15.112,-44.352
13032,-0.2866,-0.6743,-0.5811,12.695,-3.357,3.601,-130.869,15.189,-44.352
13042,-0.2764,-0.6997,-0.5786,2.930,-5.371,-0.610,-130.814,15.233,-44.302
13052,-0.2437,-0.7500,-0.5854,-7.446,-5.554,-5.066,-130.842,15.222,-44.225
13062,-0.2173,-0.7847,-0.6060,-16.296,-5.554,-7.202,-130.946,15.178,-44.132
13072,-0.2114,-0.7910,-0.6348,-20.874,-4.517,-6.165,-131.111,15.128,-44.055
13082,-0.2144,-0.7656,-0.6587,-17.395,-1.404,-3.845,-131.270,15.073,-44.022
13092,-0.2314,-0.7334,-0.6675,-6.958,1.831,0.732,-131.353,15.051,-44.039
13102,-0.2588,-0.6992,-0.6660,5.981,4.150,4.944,-131.336,15.057,-44.105
13112,-0.2671,-0.6616,-0.6597,17.578,5.432,5.737,-131.215,15.073,-44.187
13122,-0.2666,-0.6626,-0.6362,24.658,4.700,5.859,-131.017,15.101,-44.264
13133,-0.2686,-0.7114,-0.6118,23.315,1.587,5.310,-130.798,15.139,-44.313
13142,-0.2515,-0.7559,-0.6099,12.939,-2.441,1.038,-130.649,15.156,-44.302
13152,-0.2334,-0.7847,-0.6226,-1.770,-6.287,-3.235,-130.622,15.150,-44.231
13162,-0.2314,-0.7637,-0.6338,-12.451,-9.216,-4.211,-130.710,15.156,-44.127
13172,-0.2754,-0.6919,-0.6499,-13.611,-10.193,-1.221,-130.847,15.227,-44.039
13182,-0.3257,-0.6567,-0.6567,-4.333,-7.812,2.808,-130.924,15.337,-44.000
13192,-0.3408,-0.6768,-0.6436,8.972,-3.540,2.808,-130.858,15.430,-43.989
13202,-0.3164,-0.7046,-0.6299,15.808,-0.549,-0.244,-130.710,15.463,-43.984
13212,-0.2715,-0.7539,-0.6133,14.404,-0.427,-2.686,-130.545,15.447,-43.962
13222,-0.2383,-0.7930,-0.6035,6.348,-3.418,-3.662,-130.435,15.419,-43.912
13232,-0.2222,-0.8032,-0.5972,-3.113,-7.080,-2.991,-130.408,15.414,-43.835
13242,-0.2373,-0.7920,-0.5913,-9.583,-9.216,-0.916,-130.446,15.447,-43.753
13252,-0.2725,-0.7554,-0.5986,-11.475,-8.423,1.892,-130.523,15.518,-43.704
13262,-0.2939,-0.7358,-0.6040,-7.446,-4.211,3.845,-130.583,15.590,-43.693
13272,-0.2905,-0.7163,-0.6079,-0.732,0.854,4.395,-130.600,15.634,-43.731
13282,-0.2861,-0.7056,-0.6055,4.456,3.845,5.188,-130.573,15.661,-43.797
13292,-0.2773,-0.7187,-0.6045,6.409,4.944,4.822,-130.523,15.677,-43.868
13302,-0.2686,-0.7305,-0.6094,4.028,4.639,3.113,-130.490,15.672,-43.923
13312,-0.2656,-0.7266,-0.6245,-1.648,3.113,2.441,-130.523,15.667,-43.967
13322,-0.2686,-0.7363,-0.6396,-6.958,1.892,2.380,-130.600,15.672,-43.995
13332,-0.2671,-0.7183,-0.6548,-8.789,0.671,0.916,-130.710,15.667,-44.006
13342,-0.2671,-0.6943,-0.6621,-5.676,-0.916,-0.061,-130.792,15.672,-44.000
13352,-0.2720,-0.6831,-0.6514,1.038,-2.563,0.061,-130.809,15.694,-43.978
13362,-0.2798,-0.6670,-0.6240,6.958,-4.578,-0.244,-130.748,15.738,-43.945
13372,-0.2896,-0.6597,-0.5947,10.071,-5.859,-0.732,-130.649,15.793,-43.890
13382,-0.2871,-0.6816,-0.5723,9.033,-5.859,-2.258,-130.540,15.831,-43.830
13392,-0.2598,-0.7422,-0.5674,4.639,-4.761,-5.615,-130.441,15.820,-43.753
13402,-0.2261,-0.7847,-0.5742,-1.587,-3.601,-8.606,-130.391,15.749,-43.671
13412,-0.2207,-0.8110,-0.5928,-7.385,-2.441,-8.057,-130.402,15.672,-43.594
13422,-0.2275,-0.8071,-0.6123,-8.972,0.305,-4.639,-130.452,15.606,-43.566
13432,-0.2417,-0.7637,-0.6309,-6.470,3.845,0.000,-130.512,15.562,-43.599
13442,-0.2656,-0.7085,-0.6343,-0.488,6.287,4.883,-130.551,15.557,-43.682
13452,-0.2881,-0.6709,-0.6226,5.920,7.507,7.690,-130.545,15.584,-43.792
13462,-0.3008,-0.6270,-0.6128,8.301,7.080,7.751,-130.529,15.634,-43.896
13472,-0.3135,-0.6260,-0.6040,6.897,5.310,5.920,-130.518,15.683,-43.978
13482,-0.3115,-0.6665,-0.6079,1.099,3.357,0.732,-130.534,15.699,-44.011
13492,-0.2832,-0.7275,-0.6333,-7.629,1.648,-6.958,-130.605,15.645,-43.978
13502,-0.2539,-0.7861,-0.6763,-15.137,0.244,-12.451,-130.737,15.529,-43.896
13512,-0.2378,-0.8271,-0.7080,-18.188,-0.732,-13.611,-130.886,15.403,-43.797
13522,-0.2324,-0.7993,-0.7388,-15.686,-1.282,-10.742,-131.039,15.298,-43.715
13532,-0.2598,-0.7363,-0.7383,-4.578,-1.709,-4.517,-131.116,15.260,-43.671
13542,-0.2988,-0.6934,-0.7002,13.062,-2.075,1.465,-131.023,15.298,-43.665
13552,-0.3184,-0.6807,-0.6445,26.978,-2.319,4.578,-130.787,15.386,-43.676
13562,-0.3213,-0.7085,-0.5898,29.480,-2.747,5.188,-130.485,15.480,-43.693
13572,-0.3223,-0.7139,-0.5679,18.066,-4.517,3.784,-130.287,15.579,-43.682
13582,-0.3096,-0.7212,-0.5830,-0.305,-5.310,-0.916,-130.259,15.634,-43.632
13592,-0.2764,-0.7236,-0.6147,-15.137,-4.944,-6.409,-130.391,15.623,-43.550
13602,-0.2446,-0.7383,-0.6504,-20.935,-4.517,-9.583,-130.583,15.562,-43.451
13612,-0.2119,-0.7881,-0.6606,-17.151,-3.906,-11.414,-130.715,15.463,-43.341
13622,-0.1909,-0.8159,-0.6558,-8.728,-4.028,-11.047,-130.754,15.353,-43.237
13633,-0.1973,-0.8037,-0.6304,1.465,-4.089,-6.348,-130.693,15.287,-43.160
13642,-0.2363,-0.7622,-0.5991,11.475,-2.747,1.404,-130.551,15.304,-43.149
13652,-0.2646,-0.7344,-0.5576,17.944,-0.488,7.507,-130.353,15.370,-43.193
13662,-0.2798,-0.7017,-0.5361,17.029,0.977,10.437,-130.177,15.463,-43.275
13672,-0.2871,-0.6865,-0.5332,10.071,1.282,9.277,-130.073,15.551,-43.347
13682,-0.2627,-0.6909,-0.5400,-0.122,1.343,4.272,-130.062,15.590,-43.385
13692,-0.2451,-0.6904,-0.5601,-10.315,0.977,-0.610,-130.155,15.573,-43.391
13702,-0.2437,-0.7090,-0.5884,-16.113,1.648,-2.563,-130.309,15.540,-43.385
13712,-0.2529,-0.7285,-0.6177,-16.907,3.296,-3.357,-130.479,15.485,-43.391
13722,-0.2495,-0.7500,-0.6382,-14.099,5.127,-4.028,-130.622,15.408,-43.401
13732,-0.2437,-0.7563,-0.6509,-8.667,6.042,-3.601,-130.710,15.326,-43.423
13742,-0.2471,-0.7500,-0.6523,-1.221,5.554,-1.221,-130.737,15.266,-43.462
13752,-0.2539,-0.7212,-0.6431,6.409,4.333,1.221,-130.693,15.244,-43.500
13762,-0.2661,-0.6943,-0.6216,12.024,2.136,2.930,-130.594,15.260,-43.539
13772,-0.2886,-0.6807,-0.5977,13.367,0.061,3.540,-130.479,15.309,-43.561
13782,-0.3027,-0.6968,-0.5820,9.766,-1.343,1.892,-130.375,15.364,-43.566
13792,-0.2930,-0.7114,-0.5747,1.953,-1.953,-2.197,-130.331,15.381,-43.533
13802,-0.2715,-0.7441,-0.5894,-7.874,-2.075,-5.371,-130.380,15.359,-43.484
13812,-0.2461,-0.7705,-0.6191,-15.320,-1.526,-6.653,-130.501,15.309,-43.423
13822,-0.2349,-0.7852,-0.6436,-18.005,-0.732,-6.897,-130.649,15.238,-43.374
13832,-0.2354,-0.7793,-0.6626,-16.113,0.610,-5.493,-130.798,15.167,-43.341
13842,-0.2437,-0.7632,-0.6694,-9.460,2.319,-2.625,-130.897,15.117,-43.341
13853,-0.2725,-0.7363,-0.6680,-0.305,3.601,1.038,-130.924,15.106,-43.380
13862,-0.2935,-0.7183,-0.6567,8.057,4.395,3.357,-130.875,15.117,-43.434
13872,-0.2944,-0.7100,-0.6431,12.939,4.395,3.296,-130.770,15.134,-43.489
13882,-0.2876,-0.7187,-0.6294,13.062,2.869,2.258,-130.660,15.150,-43.528
13893,-0.2754,-0.7422,-0.6240,8.667,0.488,0.793,-130.567,15.156,-43.539
13902,-0.2578,-0.7593,-0.6348,0.916,-1.709,-0.732,-130.545,15.156,-43.517
13912,-0.2407,-0.7583,-0.6509,-5.920,-3.052,-1.282,-130.600,15.150,-43.489
13922,-0.2349,-0.7764,-0.6582,-8.179,-3.723,-0.549,-130.666,15.150,-43.456
13932,-0.2407,-0.7661,-0.6582,-6.470,-4.456,-0.183,-130.721,15.161,-43.418
13943,-0.2642,-0.7290,-0.6489,-0.916,-5.371,1.099,-130.732,15.205,-43.385
13953,-0.3018,-0.7109,-0.6274,7.446,-4.883,3.784,-130.660,15.287,-43.369
13963,-0.3164,-0.7075,-0.6016,13.428,-2.930,5.005,-130.529,15.381,-43.380
13973,-0.3101,-0.6890,-0.5933,12.939,-0.854,4.883,-130.408,15.458,-43.407
13983,-0.3013,-0.6992,-0.5830,7.629,0.122,5.127,-130.336,15.524,-43.440
13993,-0.2788,-0.7090,-0.5913,-0.793,-0.183,3.601,-130.347,15.562,-43.467
14002,-0.2471,-0.7471,-0.6060,-9.766,-1.282,0.610,-130.430,15.562,-43.462
14012,-0.2212,-0.7759,-0.6250,-15.869,-2.319,-2.502,-130.562,15.529,-43.423
14022,-0.2207,-0.7744,-0.6470,-16.174,-2.991,-4.089,-130.699,15.485,-43.374
14032,-0.2383,-0.7578,-0.6509,-8.789,-2.136,-2.869,-130.776,15.458,-43.336
14043,-0.2720,-0.7124,-0.6440,3.174,0.061,1.221,-130.759,15.469,-43.347
14053,-0.3101,-0.6504,-0.6235,15.381,2.563,5.615,-130.655,15.529,-43.401
14063,-0.3213,-0.6089,-0.5957,23.804,5.127,7.507,-130.479,15.606,-43.495
14073,-0.3164,-0.6284,-0.5586,23.804,5.127,7.263,-130.281,15.677,-43.583
14083,-0.2988,-0.6895,-0.5566,12.024,2.441,3.662,-130.161,15.721,-43.627
14093,-0.2568,-0.7549,-0.5767,-6.653,-0.305,-4.700,-130.188,15.677,-43.594
14102,-0.2148,-0.8027,-0.6162,-23.865,-1.587,-11.658,-130.375,15.562,-43.506
14112,-0.1943,-0.8306,-0.6567,-33.386,-1.587,-12.878,-130.655,15.425,-43.407
14122,-0.1846,-0.8286,-0.6943,-30.579,0.000,-10.437,-130.935,15.293,-43.336
14133,-0.1899,-0.8291,-0.7046,-16.357,2.014,-5.066,-131.083,15.183,-43.314
14142,-0.2178,-0.7681,-0.6880,1.770,2.747,2.441,-131.083,15.156,-43.352
14153,-0.2690,-0.6929,-0.6548,18.555,2.686,9.705,-130.946,15.216,-43.440
14162,-0.2935,-0.6465,-0.6089,31.189,3.601,12.939,-130.693,15.320,-43.555
14173,-0.3047,-0.6387,-0.5654,35.156,2.625,12.756,-130.380,15.441,-43.665
14183,-0.3091,-0.6753,-0.5337,27.893,-0.305,9.521,-130.100,15.557,-43.726
14193,-0.2944,-0.7026,-0.5332,10.986,-2.991,2.686,-129.963,15.628,-43.720
14203,-0.2676,-0.7329,-0.5615,-8.789,-3.418,-4.089,-130.007,15.623,-43.665
14212,-0.2549,-0.7515,-0.5957,-23.254,-2.258,-6.775,-130.204,15.579,-43.599
14222,-0.2539,-0.7358,-0.6445,-29.541,-0.305,-6.348,-130.496,15.524,-43.555
14232,-0.2539,-0.6963,-0.6782,-24.170,2.441,-4.883,-130.770,15.458,-43.544
14243,-0.2671,-0.6792,-0.6865,-9.888,4.333,-1.770,-130.919,15.419,-43.566
14253,-0.2827,-0.6914,-0.6665,6.104,5.249,0.671,-130.902,15.397,-43.610
14263,-0.2827,-0.7065,-0.6460,16.235,5.066,-0.122,-130.765,15.375,-43.649
14273,-0.2715,-0.7427,-0.6172,19.592,3.784,-2.136,-130.562,15.337,-43.665
14282,-0.2568,-0.7886,-0.5967,16.052,1.709,-2.869,-130.369,15.298,-43.660
14292,-0.2520,-0.7988,-0.6030,5.737,-0.427,-2.319,-130.276,15.271,-43.638
14302,-0.2573,-0.7769,-0.6201,-4.272,-1.221,-0.427,-130.298,15.271,-43.627
14313,-0.2622,-0.7339,-0.6396,-8.911,-0.793,1.526,-130.391,15.282,-43.632
14323,-0.2749,-0.6797,-0.6592,-7.141,-0.793,2.502,-130.507,15.315,-43.643
14333,-0.2876,-0.6582,-0.6543,0.610,-0.854,1.770,-130.545,15.353,-43.649
14343,-0.2993,-0.6670,-0.6387,8.118,-0.854,-0.366,-130.490,15.386,-43.638
14353,-0.2954,-0.7075,-0.6216,10.925,-0.916,-3.174,-130.386,15.386,-43.610
14363,-0.2690,-0.7725,-0.6050,8.179,-1.099,-6.287,-130.265,15.348,-43.561
14372,-0.2471,-0.8115,-0.6074,1.099,-2.136,-6.958,-130.204,15.287,-43.495
14382,-0.2427,-0.8384,-0.6196,-6.042,-2.686,-4.456,-130.215,15.249,-43.445
14392,-0.2485,-0.8062,-0.6289,-9.583,-2.197,-0.549,-130.281,15.244,-43.423
14402,-0.2568,-0.7485,-0.6455,-8.179,-0.916,4.211,-130.375,15.276,-43.445
14413,-0.2729,-0.6909,-0.6479,-1.648,0.427,7.202,-130.430,15.337,-43.495
14423,-0.2832,-0.6538,-0.6348,5.432,0.427,7.507,-130.430,15.408,-43.550
14433,-0.2861,-0.6284,-0.6177,9.888,-0.549,5.737,-130.380,15.480,-43.583
14443,-0.2944,-0.6333,-0.6011,10.315,-2.808,2.869,-130.309,15.551,-43.583
14453,-0.2837,-0.7300,-0.5776,6.409,-4.150,-1.892,-130.210,15.579,-43.533
14462,-0.2456,-0.8169,-0.5864,-3.113,-4.333,-8.606,-130.172,15.524,-43.445
14472,-0.2046,-0.8813,-0.6060,-13.794,-3.845,-12.207,-130.221,15.408,-43.330
14482,-0.1758,-0.9102,-0.6191,-19.592,-2.197,-9.644,-130.336,15.287,-43.248
14493,-0.1978,-0.7773,-0.6440,-18.677,-0.671,-0.793,-130.512,15.244,-43.237
14503,-0.2646,-0.6450,-0.6489,-5.432,1.770,11.719,-130.633,15.326,-43.330
14513,-0.3213,-0.5820,-0.6230,14.038,5.310,18.494,-130.605,15.485,-43.495
14523,-0.3398,-0.5820,-0.5874,27.405,6.836,15.137,-130.419,15.623,-43.654
14533,-0.3242,-0.6572,-0.5547,28.564,5.554,5.798,-130.155,15.683,-43.737
14543,-0.2808,-0.7446,-0.5415,15.808,2.563,-3.479,-129.957,15.656,-43.731
14553,-0.2451,-0.8198,-0.5723,-5.249,-0.183,-8.667,-129.946,15.568,-43.676
14563,-0.2187,-0.8638,-0.6147,-22.522,-0.977,-10.071,-130.100,15.458,-43.599
14573,-0.2100,-0.8325,-0.6704,-31.494,0.122,-7.690,-130.386,15.359,-43.550
14582,-0.2236,-0.7402,-0.7080,-26.306,2.258,-1.648,-130.682,15.298,-43.555
14593,-0.2681,-0.6401,-0.7100,-7.324,3.601,5.798,-130.847,15.326,-43.621
14603,-0.3037,-0.6201,-0.6562,15.869,4.211,10.559,-130.776,15.408,-43.726
14613,-0.3091,-0.6465,-0.6035,30.151,3.418,8.789,-130.523,15.491,-43.813
14623,-0.2856,-0.7231,-0.5459,30.273,0.549,2.258,-130.193,15.524,-43.835
14633,-0.2661,-0.7627,-0.5195,15.259,-3.479,-2.502,-129.968,15.535,-43.792
14642,-0.2554,-0.8052,-0.5352,-6.165,-5.371,-3.845,-129.946,15.529,-43.720
14653,-0.2485,-0.8062,-0.5688,-23.376,-4.211,-3.967,-130.117,15.513,-43.660
14663,-0.2476,-0.7773,-0.6323,-32.227,-0.854,-3.296,-130.419,15.480,-43.632
14673,-0.2417,-0.7554,-0.6792,-27.588,3.967,-2.319,-130.710,15.414,-43.649
14683,-0.2368,-0.7217,-0.6992,-12.756,7.568,-0.916,-130.886,15.337,-43.704
14692,-0.2573,-0.6660,-0.6938,4.456,8.362,2.747,-130.919,15.298,-43.786
14703,-0.2930,-0.6147,-0.6743,19.958,7.324,6.226,-130.814,15.326,-43.885
14713,-0.3008,-0.6582,-0.6260,30.090,5.798,6.226,-130.562,15.364,-43.973
14723,-0.2993,-0.7114,-0.5752,27.893,1.404,3.357,-130.281,15.408,-44.006
14733,-0.2993,-0.7363,-0.5684,12.085,-3.967,-0.610,-130.128,15.452,-43.973
14743,-0.2700,-0.8101,-0.5659,-6.287,-5.920,-5.005,-130.117,15.452,-43.890
14753,-0.2441,-0.8325,-0.5977,-23.437,-6.165,-8.972,-130.276,15.403,-43.781
14762,-0.2251,-0.8501,-0.6509,-33.081,-4.211,-9.705,-130.545,15.320,-43.682
14773,-0.1987,-0.8354,-0.6865,-30.396,-0.793,-8.118,-130.820,15.216,-43.621
14783,-0.2202,-0.6978,-0.7090,-18.066,1.160,-2.014,-131.045,15.167,-43.616
14793,-0.2896,-0.6216,-0.6938,3.662,2.808,8.850,-131.100,15.233,-43.698
14803,-0.3267,-0.6118,-0.6533,25.146,5.798,14.282,-130.946,15.353,-43.841
14813,-0.3076,-0.6772,-0.6035,34.363,6.226,11.780,-130.649,15.430,-43.973
14823,-0.2715,-0.7817,-0.5488,26.611,2.319,6.104,-130.342,15.469,-44.033
14833,-0.2417,-0.8169,-0.5464,2.319,-1.953,0.977,-130.254,15.469,-44.022
14843,-0.2407,-0.8198,-0.5723,-23.560,-2.136,1.343,-130.430,15.474,-44.017
14853,-0.2568,-0.7798,-0.6182,-39.307,2.014,3.967,-130.809,15.480,-44.055
14863,-0.2759,-0.6865,-0.6841,-40.100,7.690,5.920,-131.276,15.480,-44.160
14873,-0.2891,-0.6040,-0.7339,-22.217,12.329,6.470,-131.627,15.463,-44.297
14883,-0.3037,-0.5864,-0.7402,6.042,13.733,5.798,-131.704,15.441,-44.445
14893,-0.2676,-0.6553,-0.6885,31.128,11.719,2.625,-131.473,15.386,-44.555
14903,-0.2500,-0.7222,-0.6162,39.185,4.089,0.671,-131.083,15.353,-44.588
14913,-0.2593,-0.7812,-0.5703,28.992,-5.188,0.366,-130.737,15.392,-44.550
14923,-0.2666,-0.7930,-0.5527,10.010,-10.803,-1.404,-130.556,15.447,-44.456
14933,-0.2744,-0.7515,-0.5591,-7.019,-11.414,-2.991,-130.556,15.507,-44.346
14943,-0.2817,-0.7319,-0.5903,-15.381,-7.080,-2.930,-130.671,15.546,-44.269
14953,-0.2749,-0.7236,-0.6162,-14.221,-0.977,-2.625,-130.803,15.535,-44.247
14963,-0.2622,-0.7031,-0.6333,-6.104,4.150,-2.686,-130.880,15.491,-44.258
14973,-0.2661,-0.6621,-0.6274,4.272,7.446,-0.427,-130.875,15.447,-44.313
14983,-0.3027,-0.5967,-0.6177,13.306,7.996,3.723,-130.820,15.463,-44.401
14993,-0.3149,-0.6348,-0.5986,19.287,7.996,5.188,-130.677,15.491,-44.500
15003,-0.3032,-0.6929,-0.5850,16.846,6.287,0.427,-130.523,15.485,-44.555
15013,-0.2686,-0.7749,-0.5879,3.479,3.113,-5.615,-130.452,15.419,-44.539
15023,-0.2070,-0.8281,-0.6001,-14.221,0.183,-9.155,-130.529,15.309,-44.478
15033,-0.1821,-0.8301,-0.6338,-29.541,-3.113,-8.240,-130.770,15.216,-44.401
15043,-0.1968,-0.7607,-0.6689,-33.752,-4.395,-5.310,-131.089,15.161,-44.330
15053,-0.2422,-0.6206,-0.6968,-21.606,-3.174,-2.197,-131.369,15.161,-44.291
15063,-0.2827,-0.5864,-0.6836,5.005,-0.061,0.977,-131.396,15.189,-44.297
15073,-0.2910,-0.6187,-0.6436,31.250,2.441,-2.075,-131.138,15.189,-44.302
15083,-0.2783,-0.6782,-0.5923,43.152,1.099,-6.897,-130.699,15.150,-44.264
15093,-0.2617,-0.7778,-0.5381,37.781,-2.808,-8.301,-130.248,15.106,-44.187
15103,-0.2432,-0.8677,-0.5249,17.334,-5.920,-8.667,-129.957,15.062,-44.083
15113,-0.2241,-0.8760,-0.5527,-9.216,-6.226,-9.216,-129.941,15.007,-43.967
15123,-0.2261,-0.8433,-0.6021,-28.503,-2.258,-6.470,-130.166,14.941,-43.907
15133,-0.2280,-0.8232,-0.6641,-34.790,4.333,-2.075,-130.501,14.870,-43.929
15143,-0.2236,-0.8130,-0.6987,-27.527,10.315,0.000,-130.798,14.777,-44.011
15153,-0.2305,-0.7642,-0.7153,-13.306,12.390,2.014,-130.979,14.689,-44.121
15163,-0.2739,-0.6973,-0.7065,4.211,11.230,7.202,-131.017,14.678,-44.258
15173,-0.3228,-0.6323,-0.6777,20.874,10.010,12.573,-130.908,14.749,-44.418
15183,-0.3408,-0.6318,-0.6353,31.982,8.850,14.160,-130.677,14.859,-44.588
15193,-0.3359,-0.6621,-0.6016,30.457,5.249,10.803,-130.419,14.963,-44.698
15203,-0.3193,-0.7212,-0.5898,15.930,-0.549,3.723,-130.254,15.035,-44.720
15213,-0.2627,-0.8081,-0.6021,-5.432,-5.310,-5.493,-130.254,15.024,-44.643
15223,-0.2051,-0.8755,-0.6323,-25.757,-9.033,-12.634,-130.424,14.941,-44.484
15233,-0.1748,-0.8735,-0.6694,-37.415,-11.108,-13.550,-130.721,14.854,-44.308
15243,-0.1890,-0.8008,-0.6992,-32.043,-9.460,-7.507,-131.012,14.810,-44.182
15253,-0.2515,-0.6763,-0.7017,-11.780,-5.859,3.601,-131.171,14.870,-44.160
15263,-0.3242,-0.6084,-0.6616,14.587,-1.404,15.137,-131.111,15.040,-44.253
15273,-0.3374,-0.6216,-0.6162,33.325,3.113,18.555,-130.858,15.222,-44.401
15283,-0.3223,-0.6299,-0.5552,37.842,3.723,13.306,-130.518,15.353,-44.522
15293,-0.2949,-0.6802,-0.5239,26.184,0.549,6.897,-130.243,15.436,-44.572
15303,-0.2534,-0.7583,-0.5195,4.883,-2.625,0.122,-130.133,15.458,-44.555
15313,-0.2095,-0.7983,-0.5674,-19.592,-4.272,-6.226,-130.259,15.403,-44.478
15323,-0.1919,-0.7798,-0.6230,-36.133,-4.028,-9.216,-130.578,15.315,-44.385
15333,-0.2056,-0.7046,-0.6836,-37.537,-2.625,-7.568,-130.963,15.238,-44.313
15343,-0.2285,-0.6768,-0.7090,-20.020,-0.732,-3.601,-131.210,15.194,-44.280
15353,-0.2563,-0.6724,-0.6890,6.104,0.244,-0.854,-131.193,15.183,-44.280
15363,-0.2661,-0.6655,-0.6523,26.855,0.854,-0.061,-130.963,15.183,-44.286
15373,-0.2661,-0.6938,-0.5967,35.767,1.038,1.587,-130.605,15.200,-44.302
15383,-0.2573,-0.7500,-0.5615,30.151,0.305,2.930,-130.276,15.222,-44.324
15393,-0.2393,-0.7749,-0.5640,13.428,-2.075,0.488,-130.100,15.227,-44.313
15403,-0.2236,-0.7998,-0.5767,-5.310,-4.700,-3.052,-130.095,15.211,-44.253
15413,-0.2104,-0.8101,-0.6084,-18.494,-5.981,-5.432,-130.221,15.172,-44.171
15423,-0.2178,-0.8062,-0.6372,-23.254,-6.104,-5.493,-130.413,15.139,-44.088
15433,-0.2363,-0.7378,-0.6592,-18.494,-4.395,-3.174,-130.594,15.123,-44.033
15443,-0.2725,-0.6445,-0.6553,-4.517,-2.258,2.136,-130.688,15.172,-44.028
15453,-0.3154,-0.6289,-0.6260,13.000,-0.305,7.263,-130.611,15.271,-44.072
15463,-0.3228,-0.6689,-0.5996,24.353,2.319,5.554,-130.397,15.342,-44.132
15473,-0.3027,-0.6948,-0.5732,24.536,2.808,0.305,-130.155,15.359,-44.154
15483,-0.2783,-0.7642,-0.5625,13.916,1.160,-2.258,-129.974,15.342,-44.149
15493,-0.2490,-0.8154,-0.5830,-2.991,-0.427,-4.333,-129.952,15.298,-44.116
15503,-0.2246,-0.8135,-0.6113,-17.700,-1.465,-5.188,-130.084,15.244,-44.072
15513,-0.2314,-0.8027,-0.6382,-25.208,-1.953,-2.258,-130.309,15.211,-44.039
15523,-0.2461,-0.7690,-0.6680,-24.597,-1.099,0.732,-130.562,15.205,-44.033
15533,-0.2739,-0.6855,-0.6738,-14.587,-0.183,2.075,-130.748,15.233,-44.050
15543,-0.3232,-0.6177,-0.6616,1.953,0.427,4.333,-130.798,15.304,-44.083
15553,-0.3525,-0.6147,-0.6484,19.653,2.808,4.333,-130.677,15.381,-44.132
15563,-0.3276,-0.6777,-0.6143,30.273,5.127,0.305,-130.402,15.392,-44.176
15573,-0.2783,-0.7915,-0.5693,27.466,3.845,-3.845,-130.084,15.348,-44.182
15583,-0.2368,-0.8374,-0.5781,9.338,0.183,-6.104,-129.924,15.276,-44.138
15593,-0.2056,-0.8677,-0.6045,-10.498,-1.770,-5.615,-129.968,15.200,-44.088
15603,-0.1904,-0.8496,-0.6245,-23.254,-2.808,-3.601,-130.150,15.145,-44.044
15613,-0.2100,-0.7412,-0.6689,-25.818,-3.235,-0.671,-130.413,15.128,-44.011
15623,-0.2690,-0.6226,-0.6724,-12.024,-3.052,3.845,-130.600,15.189,-44.011
15633,-0.3252,-0.6191,-0.6377,10.742,-1.343,7.141,-130.556,15.298,-44.050
15643,-0.3267,-0.6494,-0.6025,27.100,1.770,4.578,-130.325,15.370,-44.094
15653,-0.2910,-0.7192,-0.5547,31.250,3.479,0.000,-129.996,15.370,-44.121
15663,-0.2529,-0.7856,-0.5229,20.142,2.380,-1.526,-129.732,15.342,-44.132
15673,-0.2217,-0.8457,-0.5308,-1.038,0.305,-1.587,-129.666,15.298,-44.127
15683,-0.1904,-0.8330,-0.5674,-20.813,-0.244,-1.648,-129.814,15.244,-44.110
15693,-0.1953,-0.7788,-0.6177,-31.738,0.427,1.160,-130.117,15.205,-44.121
15703,-0.2163,-0.7383,-0.6543,-28.687,2.991,3.357,-130.430,15.183,-44.171
15713,-0.2627,-0.5942,-0.6724,-13.428,4.944,4.028,-130.660,15.194,-44.236
15723,-0.3315,-0.5449,-0.6538,9.277,6.226,7.690,-130.688,15.276,-44.335
15733,-0.3555,-0.5669,-0.6255,28.137,9.216,7.507,-130.512,15.348,-44.456
15743,-0.3311,-0.6162,-0.5947,33.081,9.277,1.648,-130.243,15.359,-44.544
15753,-0.2803,-0.7485,-0.5654,22.583,5.554,-5.066,-129.990,15.298,-44.555
15763,-0.2236,-0.8335,-0.5728,-1.282,-0.671,-12.146,-129.924,15.178,-44.467
15773,-0.1855,-0.8950,-0.5981,-24.353,-5.798,-16.174,-130.067,15.040,-44.313
15783,-0.1709,-0.8965,-0.6313,-36.011,-5.859,-16.113,-130.331,14.892,-44.160
15793,-0.1929,-0.7915,-0.6631,-32.898,-2.625,-10.864,-130.633,14.788,-44.066
15803,-0.2573,-0.6553,-0.6587,-12.451,2.075,-0.183,-130.803,14.777,-44.083
15813,-0.3169,-0.6211,-0.6055,14.832,6.775,10.010,-130.721,14.859,-44.203
15823,-0.3340,-0.6226,-0.5566,31.921,10.620,12.451,-130.457,14.958,-44.368
15833,-0.3242,-0.6841,-0.5166,31.067,11.414,8.667,-130.155,15.007,-44.517
15843,-0.2842,-0.7842,-0.5142,10.620,9.888,1.343,-130.001,14.969,-44.604
15853,-0.2319,-0.8315,-0.5566,-21.484,6.714,-6.836,-130.155,14.859,-44.610
15863,-0.2026,-0.8525,-0.6440,-48.828,3.662,-10.620,-130.600,14.711,-44.572
15873,-0.1870,-0.8384,-0.7480,-59.021,3.113,-11.963,-131.177,14.551,-44.511
15883,-0.1826,-0.7729,-0.8276,-46.509,4.395,-9.888,-131.688,14.392,-44.478
15893,-0.2271,-0.6724,-0.8530,-15.808,3.723,-2.563,-131.951,14.326,-44.489
15903,-0.2749,-0.6655,-0.7949,24.658,0.671,6.653,-131.797,14.376,-44.544
15913,-0.2871,-0.7227,-0.6958,55.725,-2.747,12.024,-131.281,14.496,-44.604
15923,-0.2964,-0.7168,-0.6060,63.599,-7.629,13.916,-130.649,14.678,-44.637
15933,-0.3047,-0.7490,-0.5420,50.049,-12.695,15.808,-130.111,14.914,-44.648
15943,-0.3052,-0.7744,-0.5234,22.583,-15.076,13.062,-129.820,15.145,-44.615
15953,-0.2852,-0.7544,-0.5693,-7.019,-13.123,4.639,-129.842,15.276,-44.539
15963,-0.2617,-0.7480,-0.6494,-25.574,-6.775,-0.977,-130.089,15.309,-44.478
15973,-0.2578,-0.7383,-0.7124,-28.625,0.671,-2.930,-130.408,15.271,-44.467
