elapsed_ms,acc_x_g,acc_y_g,acc_z_g,gyro_x_dps,gyro_y_dps,gyro_z_dps,angle_x_deg,angle_y_deg,angle_z_deg
0,-0.3354,-0.6743,-0.6357,-11.108,-2.258,12.268,-135.445,22.121,-11.865
10,-0.3379,-0.6685,-0.6382,-9.583,-0.671,13.611,-135.560,22.203,-11.964
20,-0.3389,-0.6602,-0.6455,-7.996,0.977,14.282,-135.670,22.275,-12.085
30,-0.3403,-0.6602,-0.6553,-6.592,2.808,14.404,-135.775,22.330,-12.217
40,-0.3408,-0.6621,-0.6670,-5.737,4.517,14.221,-135.879,22.374,-12.360
50,-0.3442,-0.6577,-0.6782,-5.249,5.798,13.977,-135.989,22.407,-12.513
60,-0.3496,-0.6450,-0.6836,-4.333,6.592,13.794,-136.099,22.434,-12.673
70,-0.3584,-0.6333,-0.6870,-2.380,6.836,13.489,-136.192,22.462,-12.827
80,-0.3633,-0.6318,-0.6870,0.916,6.470,12.756,-136.252,22.495,-12.975
90,-0.3657,-0.6377,-0.6792,4.272,5.432,11.902,-136.269,22.522,-13.107
100,-0.3711,-0.6411,-0.6772,6.592,3.906,11.108,-136.247,22.566,-13.222
110,-0.3745,-0.6465,-0.6719,7.751,2.625,10.437,-136.208,22.610,-13.326
120,-0.3760,-0.6509,-0.6660,7.507,1.770,9.949,-136.165,22.659,-13.414
130,-0.3813,-0.6460,-0.6626,5.981,1.526,10.132,-136.132,22.714,-13.508
140,-0.3931,-0.6338,-0.6582,3.662,1.892,11.230,-136.137,22.786,-13.612
150,-0.4102,-0.6074,-0.6567,0.854,3.052,13.367,-136.187,22.874,-13.738
160,-0.4224,-0.5859,-0.6597,-1.038,5.127,16.052,-136.285,22.972,-13.903
170,-0.4312,-0.5566,-0.6587,-1.465,7.812,18.005,-136.412,23.077,-14.101
180,-0.4409,-0.5093,-0.6592,-1.160,9.705,19.775,-136.571,23.192,-14.332
190,-0.4453,-0.4883,-0.6665,0.671,11.780,21.179,-136.736,23.302,-14.584
200,-0.4380,-0.5044,-0.6738,3.235,13.672,20.325,-136.868,23.384,-14.848
210,-0.4263,-0.5381,-0.6821,3.296,14.160,16.602,-136.978,23.417,-15.084
220,-0.4092,-0.6021,-0.6919,-1.465,13.428,10.803,-137.087,23.401,-15.271
230,-0.3926,-0.6406,-0.6953,-11.536,11.719,3.540,-137.247,23.335,-15.386
240,-0.3857,-0.6099,-0.6992,-24.353,9.094,-1.892,-137.527,23.247,-15.441
250,-0.3970,-0.5312,-0.7012,-33.447,6.042,-2.197,-137.922,23.198,-15.463
260,-0.4277,-0.4438,-0.7036,-33.081,3.235,0.366,-138.356,23.214,-15.491
270,-0.4590,-0.3857,-0.7104,-21.423,1.160,0.916,-138.708,23.280,-15.507
280,-0.4575,-0.4243,-0.7271,-2.625,0.610,-3.601,-138.834,23.302,-15.485
290,-0.4126,-0.5386,-0.7388,15.442,1.587,-14.526,-138.691,23.203,-15.375
300,-0.3408,-0.6958,-0.7485,26.001,2.441,-28.137,-138.334,22.956,-15.161
310,-0.2578,-0.8706,-0.7490,23.560,2.197,-37.292,-137.911,22.593,-14.875
320,-0.2158,-0.9214,-0.7383,6.348,-0.916,-37.598,-137.642,22.225,-14.568
330,-0.2378,-0.7876,-0.7212,-15.503,-7.141,-27.344,-137.642,22.000,-14.299
340,-0.3223,-0.6055,-0.6938,-25.696,-12.878,-9.094,-137.845,22.006,-14.128
350,-0.4165,-0.4849,-0.6714,-17.395,-12.878,7.263,-138.071,22.198,-14.095
360,-0.4639,-0.4634,-0.6763,1.709,-7.202,13.733,-138.148,22.412,-14.156
370,-0.4502,-0.5513,-0.6758,22.400,-0.488,8.911,-137.977,22.522,-14.222
380,-0.3838,-0.7061,-0.6606,33.875,3.967,-3.540,-137.593,22.462,-14.222
390,-0.3096,-0.8354,-0.6587,27.405,4.395,-15.137,-137.197,22.269,-14.134
400,-0.2627,-0.8955,-0.6567,6.042,1.831,-18.799,-136.978,22.039,-13.997
410,-0.2627,-0.8350,-0.6582,-21.729,-1.953,-12.146,-137.065,21.890,-13.887
420,-0.3223,-0.6924,-0.6616,-42.053,-6.226,3.174,-137.439,21.923,-13.865
430,-0.4199,-0.5137,-0.6611,-45.410,-8.240,19.531,-137.972,22.159,-13.964
440,-0.5068,-0.3569,-0.6597,-30.457,-6.104,28.198,-138.477,22.511,-14.145
450,-0.5474,-0.3071,-0.6567,-2.502,-2.747,26.978,-138.741,22.852,-14.343
460,-0.5186,-0.4346,-0.6499,27.893,1.892,15.747,-138.593,23.049,-14.485
470,-0.4429,-0.6279,-0.6377,45.654,6.714,-3.174,-138.120,23.011,-14.507
480,-0.3530,-0.7881,-0.6245,41.260,8.606,-20.386,-137.576,22.775,-14.403
490,-0.2910,-0.8843,-0.6187,17.700,8.240,-28.076,-137.208,22.451,-14.238
500,-0.2715,-0.8291,-0.6255,-15.076,6.287,-23.560,-137.203,22.170,-14.101
510,-0.3169,-0.6963,-0.6494,-42.297,4.150,-6.836,-137.571,22.055,-14.073
520,-0.3945,-0.5625,-0.6685,-51.514,4.456,13.245,-138.159,22.132,-14.216
530,-0.4570,-0.4580,-0.6895,-42.725,6.775,24.841,-138.752,22.319,-14.464
540,-0.4727,-0.4634,-0.7114,-23.987,9.583,24.780,-139.175,22.473,-14.733
550,-0.4282,-0.6021,-0.7217,-3.662,11.597,15.076,-139.301,22.505,-14.936
560,-0.3437,-0.7490,-0.7251,6.958,11.658,-0.305,-139.208,22.374,-15.018
570,-0.2705,-0.8320,-0.7295,2.869,8.240,-11.292,-139.087,22.154,-14.985
580,-0.2559,-0.7759,-0.7236,-9.583,3.967,-11.169,-139.098,21.962,-14.919
590,-0.3130,-0.6274,-0.7139,-18.677,1.587,0.183,-139.285,21.918,-14.930
600,-0.4102,-0.4580,-0.6982,-16.296,3.357,16.663,-139.576,22.039,-15.095
610,-0.4946,-0.3154,-0.6772,1.648,8.972,27.466,-139.823,22.264,-15.381
620,-0.5293,-0.3120,-0.6841,28.137,15.808,27.466,-139.828,22.451,-15.716
630,-0.4683,-0.5347,-0.6743,50.232,24.231,16.296,-139.460,22.429,-16.024
641,-0.3545,-0.7642,-0.6655,52.368,26.672,-2.747,-138.922,22.181,-16.188
650,-0.2642,-0.8657,-0.6548,29.724,19.653,-18.372,-138.505,21.830,-16.177
660,-0.2397,-0.7905,-0.6489,-5.615,7.385,-21.362,-138.428,21.550,-16.057
670,-0.3018,-0.6177,-0.6577,-33.264,-3.845,-10.620,-138.697,21.478,-15.947
680,-0.3882,-0.5098,-0.6689,-41.504,-6.897,6.592,-139.153,21.605,-15.947
690,-0.4561,-0.4238,-0.6909,-33.081,-2.197,17.212,-139.614,21.808,-16.073
700,-0.4624,-0.4609,-0.7129,-15.137,2.625,16.235,-139.900,21.962,-16.227
710,-0.4019,-0.6401,-0.7202,-3.052,6.592,6.042,-139.949,21.956,-16.320
720,-0.3164,-0.7656,-0.7290,-2.136,5.798,-9.033,-139.894,21.802,-16.287
730,-0.2666,-0.7744,-0.7373,-9.827,0.671,-18.188,-139.872,21.605,-16.139
740,-0.2715,-0.7070,-0.7246,-17.395,-4.883,-16.052,-139.944,21.473,-15.974
750,-0.3374,-0.5684,-0.7183,-17.944,-7.629,-5.127,-140.103,21.484,-15.881
760,-0.4165,-0.4609,-0.7031,-5.859,-4.089,8.118,-140.240,21.616,-15.919
770,-0.4727,-0.4014,-0.6875,14.954,3.174,15.015,-140.240,21.780,-16.068
780,-0.4741,-0.4209,-0.6753,35.339,10.559,13.245,-140.037,21.874,-16.249
790,-0.4229,-0.5645,-0.6611,47.607,16.235,5.188,-139.620,21.824,-16.403
800,-0.3398,-0.7622,-0.6509,44.312,17.761,-6.287,-139.114,21.616,-16.474
810,-0.2812,-0.8359,-0.6509,20.081,13.367,-14.771,-138.796,21.352,-16.447
820,-0.2627,-0.7959,-0.6597,-13.367,6.592,-14.343,-138.812,21.138,-16.381
830,-0.3037,-0.6860,-0.6763,-41.443,1.160,-4.089,-139.169,21.066,-16.353
840,-0.3911,-0.5000,-0.7012,-53.650,-0.183,10.193,-139.785,21.171,-16.436
850,-0.4629,-0.3530,-0.7183,-43.701,3.723,19.348,-140.422,21.352,-16.622
860,-0.4785,-0.3774,-0.7432,-19.836,9.155,18.127,-140.823,21.484,-16.831
870,-0.4233,-0.5547,-0.7607,0.488,13.550,6.409,-140.900,21.445,-16.979
880,-0.3311,-0.7212,-0.7725,10.437,13.611,-11.719,-140.757,21.231,-16.974
890,-0.2554,-0.7700,-0.7773,4.822,9.033,-23.987,-140.603,20.929,-16.837
900,-0.2681,-0.6118,-0.7539,-0.793,1.160,-23.804,-140.548,20.715,-16.644
910,-0.3872,-0.2954,-0.7187,6.775,-4.944,-11.963,-140.603,20.737,-16.512
920,-0.5303,0.0015,-0.6753,40.466,-4.089,2.808,179.874,20.956,-16.507
930,-0.5586,-0.1504,-0.6528,90.393,6.775,7.629,-167.025,21.077,-16.589
940,-0.4673,-0.5215,-0.6055,123.596,20.508,-5.615,-165.520,20.962,-16.578
950,-0.3477,-0.7485,-0.5713,114.929,22.095,-30.151,-163.911,20.671,-16.326
960,-0.2480,-0.9468,-0.5537,72.754,11.536,-50.049,-162.587,20.341,-15.848
970,-0.1860,-0.9854,-0.5479,12.573,-0.610,-59.998,-161.818,20.061,-15.233
980,-0.2207,-0.7168,-0.5923,-42.480,-10.925,-55.359,-161.713,19.924,-14.639
990,-0.3110,-0.5430,-0.6396,-65.918,-13.306,-36.377,-162.004,19.940,-14.227
1000,-0.3721,-0.5039,-0.6973,-58.411,-4.761,-19.226,-162.334,19.962,-14.019
1010,-0.3804,-0.5293,-0.7588,-35.889,5.432,-15.564,-162.471,19.885,-13.876
1020,-0.3267,-0.6260,-0.7949,-11.536,12.268,-24.353,-162.307,19.682,-13.667
1030,-0.2368,-0.7441,-0.7988,9.216,13.855,-36.743,-161.856,19.363,-13.343
1040,-0.1748,-0.8281,-0.7886,22.156,7.385,-43.335,-161.219,19.056,-12.931
1050,-0.1523,-0.8623,-0.7476,26.123,0.305,-40.710,-160.521,18.809,-12.524
1060,-0.2124,-0.7075,-0.7031,24.963,-5.859,-29.419,-159.917,18.699,-12.211
1070,-0.2808,-0.7007,-0.6938,25.696,-7.019,-13.367,-159.362,18.688,-12.052
1080,-0.3052,-0.7598,-0.6709,26.978,0.000,-2.747,-158.807,18.660,-12.025
1090,-0.3232,-0.6943,-0.6694,22.766,5.310,-0.671,-158.340,18.605,-12.036
1100,-0.3115,-0.7139,-0.6831,13.916,8.972,-1.282,-157.961,18.506,-12.063
1110,-0.2773,-0.7651,-0.6880,4.944,10.620,-5.615,-157.648,18.358,-12.047
1120,-0.2446,-0.8042,-0.7051,-5.127,8.484,-10.376,-157.412,18.182,-11.981
1130,-0.2153,-0.8735,-0.7256,-16.663,5.554,-11.353,-157.275,18.018,-11.893
1141,-0.2173,-0.8271,-0.7388,-26.367,1.892,-9.094,-157.258,17.897,-11.810
1150,-0.2617,-0.6846,-0.7554,-29.968,-1.892,-1.709,-157.352,17.869,-11.788
1160,-0.3184,-0.5879,-0.7573,-20.386,-3.357,7.141,-157.418,17.935,-11.843
1170,-0.3525,-0.5640,-0.7437,-1.099,-1.648,12.207,-157.319,18.023,-11.953
1180,-0.3472,-0.6260,-0.7280,17.212,1.099,10.986,-157.000,18.073,-12.068
1190,-0.2422,-0.8550,-0.6777,18.188,-2.075,-1.892,-156.528,18.029,-12.041
1200,-0.2056,-0.9214,-0.6611,-3.357,-8.179,-4.211,-156.226,18.007,-11.964
1210,-0.2256,-0.8140,-0.6597,-28.442,-14.099,0.549,-156.220,18.078,-11.909
1220,-0.2964,-0.6445,-0.6680,-43.457,-16.785,12.634,-156.462,18.281,-11.959
1230,-0.3770,-0.5083,-0.6792,-40.649,-13.489,24.353,-156.791,18.556,-12.140
1240,-0.4141,-0.4653,-0.6836,-25.269,-5.981,28.320,-157.006,18.798,-12.387
1250,-0.4097,-0.4771,-0.6851,-7.019,0.366,23.193,-157.033,18.962,-12.618
1260,-0.3604,-0.6055,-0.6826,5.981,4.639,11.963,-156.830,18.990,-12.750
1270,-0.2803,-0.7251,-0.6772,7.263,5.493,-2.075,-156.522,18.902,-12.755
1280,-0.2236,-0.8179,-0.6763,-2.380,2.686,-11.658,-156.242,18.759,-12.651
1290,-0.1968,-0.8018,-0.6797,-17.578,-2.014,-12.634,-156.116,18.644,-12.519
1300,-0.2310,-0.6929,-0.6846,-30.823,-7.690,-3.662,-156.182,18.649,-12.453
1310,-0.3066,-0.5737,-0.6943,-33.691,-9.766,10.559,-156.379,18.781,-12.513
1320,-0.3755,-0.4756,-0.7046,-22.827,-6.470,20.264,-156.555,18.968,-12.684
1330,-0.3984,-0.4600,-0.7075,-5.554,-0.366,20.691,-156.577,19.116,-12.881
1340,-0.3628,-0.5635,-0.7075,10.925,5.676,12.024,-156.363,19.138,-13.024
1350,-0.2827,-0.7119,-0.6968,17.700,8.484,-1.831,-155.973,19.023,-13.041
1360,-0.2187,-0.7925,-0.6816,10.132,5.737,-11.658,-155.594,18.853,-12.953
1370,-0.2075,-0.7485,-0.6665,-5.066,-1.282,-11.536,-155.369,18.743,-12.838
1380,-0.2622,-0.6230,-0.6680,-17.029,-7.385,-1.587,-155.336,18.776,-12.788
1390,-0.3389,-0.5508,-0.6689,-18.799,-7.324,11.658,-155.402,18.918,-12.870
1400,-0.3813,-0.5220,-0.6743,-12.512,-2.197,17.822,-155.446,19.061,-13.030
1410,-0.3804,-0.5635,-0.6895,-5.615,3.662,14.404,-155.402,19.127,-13.184
1420,-0.3340,-0.6387,-0.7061,-3.784,7.812,3.967,-155.292,19.078,-13.255
1430,-0.2656,-0.7227,-0.7300,-6.653,8.789,-7.507,-155.143,18.924,-13.222
1440,-0.2070,-0.7876,-0.7412,-12.451,7.141,-13.184,-155.017,18.721,-13.129
1450,-0.2100,-0.7124,-0.7461,-17.273,1.953,-10.254,-154.973,18.589,-13.041
1460,-0.2656,-0.6421,-0.7437,-16.235,-2.563,1.526,-154.979,18.583,-13.041
1470,-0.3291,-0.5693,-0.7271,-7.812,-2.747,13.428,-154.962,18.677,-13.156
1480,-0.3813,-0.4937,-0.7061,4.272,-0.549,19.226,-154.880,18.814,-13.343
1490,-0.4082,-0.4434,-0.6807,16.418,2.686,18.738,-154.698,18.946,-13.530
1500,-0.3818,-0.5645,-0.6738,26.001,7.019,12.146,-154.341,18.979,-13.678
1510,-0.3091,-0.7261,-0.6670,23.804,10.071,-0.244,-153.902,18.875,-13.722
1520,-0.2393,-0.8301,-0.6792,4.639,7.568,-11.169,-153.583,18.693,-13.651
1530,-0.2031,-0.8345,-0.6904,-21.301,1.953,-13.855,-153.517,18.534,-13.530
1540,-0.2358,-0.7085,-0.7139,-42.053,-4.517,-6.531,-153.726,18.495,-13.447
1550,-0.3145,-0.5469,-0.7256,-45.776,-6.836,7.019,-154.083,18.589,-13.480
1560,-0.3955,-0.4287,-0.7358,-29.846,-3.662,18.616,-154.385,18.765,-13.640
1570,-0.4326,-0.4009,-0.7285,-5.127,2.930,22.278,-154.473,18.924,-13.865
1580,-0.4155,-0.4673,-0.7295,17.395,9.705,15.930,-154.297,18.973,-14.063
1590,-0.3374,-0.6431,-0.7197,30.701,14.648,1.770,-153.858,18.853,-14.145
1600,-0.2456,-0.7852,-0.7114,26.001,13.794,-12.329,-153.364,18.616,-14.095
1610,-0.1880,-0.8442,-0.7100,6.531,8.728,-18.311,-153.029,18.369,-13.964
1620,-0.1963,-0.7681,-0.7090,-15.381,1.526,-12.939,-152.941,18.221,-13.848
1630,-0.2603,-0.6709,-0.7197,-30.457,-2.869,1.648,-153.083,18.221,-13.848
1641,-0.3350,-0.5591,-0.7300,-32.898,-1.770,16.235,-153.347,18.325,-13.997
1650,-0.3882,-0.4541,-0.7354,-23.376,1.648,23.437,-153.600,18.474,-14.222
1660,-0.4028,-0.4380,-0.7378,-8.118,5.310,22.522,-153.710,18.594,-14.464
1670,-0.3643,-0.5459,-0.7407,6.531,8.423,13.550,-153.600,18.605,-14.628
1680,-0.2739,-0.7329,-0.7510,12.634,9.766,-1.404,-153.303,18.474,-14.661
1690,-0.1953,-0.8096,-0.7534,4.333,6.042,-13.367,-153.029,18.276,-14.562
1700,-0.1860,-0.7427,-0.7466,-10.071,-1.160,-12.939,-152.908,18.149,-14.436
1710,-0.2490,-0.6230,-0.7451,-18.860,-6.287,-0.244,-152.957,18.166,-14.403
1724,-0.3413,-0.5137,-0.7354,-15.564,-5.310,15.442,-153.073,18.309,-14.524
1730,-0.4146,-0.3940,-0.7192,-2.380,-0.061,24.841,-153.149,18.501,-14.755
1740,-0.4517,-0.3555,-0.7153,13.794,6.287,26.062,-153.100,18.677,-15.029
1750,-0.4087,-0.4814,-0.7124,28.564,12.878,16.785,-152.820,18.704,-15.249
1760,-0.3135,-0.6763,-0.7144,31.006,15.808,-0.854,-152.369,18.550,-15.320
1770,-0.2251,-0.8081,-0.7275,15.747,11.536,-16.846,-151.979,18.303,-15.216
1780,-0.1812,-0.8120,-0.7388,-7.202,2.625,-23.621,-151.787,18.083,-15.013
1790,-0.2075,-0.6763,-0.7520,-25.696,-6.470,-17.517,-151.848,17.990,-14.815
1800,-0.2915,-0.5737,-0.7642,-29.175,-10.559,-1.343,-152.029,18.067,-14.755
1810,-0.3638,-0.4946,-0.7661,-17.090,-7.202,12.329,-152.172,18.221,-14.832
1820,-0.4126,-0.3970,-0.7505,1.221,-2.686,18.066,-152.205,18.408,-14.985
1830,-0.4131,-0.4448,-0.7373,20.081,1.465,16.113,-152.023,18.539,-15.145
1840,-0.3516,-0.6128,-0.7227,31.982,5.615,5.432,-151.611,18.534,-15.222
1850,-0.2598,-0.7788,-0.7104,28.076,5.737,-8.850,-151.122,18.397,-15.167
1860,-0.1953,-0.8462,-0.7017,8.240,0.854,-18.066,-150.776,18.221,-15.007
1870,-0.1992,-0.7378,-0.7075,-15.991,-6.531,-15.808,-150.710,18.127,-14.826
1880,-0.2705,-0.6260,-0.7173,-30.762,-11.353,-2.625,-150.870,18.188,-14.744
1890,-0.3584,-0.5112,-0.7290,-28.809,-9.460,11.597,-151.111,18.364,-14.804
1900,-0.4209,-0.4155,-0.7251,-14.099,-3.784,18.982,-151.293,18.572,-14.958
1910,-0.4390,-0.3770,-0.7256,4.700,1.587,18.127,-151.315,18.743,-15.134
1920,-0.4009,-0.4888,-0.7241,22.339,6.653,9.277,-151.078,18.787,-15.255
1930,-0.3086,-0.6880,-0.7104,29.846,9.827,-5.615,-150.628,18.660,-15.255
1940,-0.2217,-0.8281,-0.7080,19.348,6.897,-18.066,-150.194,18.441,-15.123
1950,-0.1719,-0.8472,-0.7109,-4.578,0.977,-21.057,-149.980,18.232,-14.936
1960,-0.2129,-0.6865,-0.7139,-27.771,-5.981,-11.719,-150.073,18.166,-14.799
1970,-0.3125,-0.5474,-0.7280,-35.889,-9.033,6.226,-150.364,18.281,-14.804
1980,-0.3892,-0.4722,-0.7310,-26.306,-4.272,19.409,-150.639,18.474,-14.963
1990,-0.4292,-0.4023,-0.7217,-8.911,0.916,21.729,-150.793,18.660,-15.167
2000,-0.4263,-0.3921,-0.7178,8.118,5.066,15.991,-150.771,18.781,-15.337
2010,-0.3735,-0.5244,-0.7163,21.729,8.423,3.357,-150.513,18.765,-15.414
2020,-0.2700,-0.7329,-0.7148,26.123,9.949,-13.000,-150.068,18.578,-15.348
2030,-0.1821,-0.8506,-0.7202,11.169,7.141,-24.231,-149.705,18.303,-15.161
2040,-0.1572,-0.8115,-0.7202,-13.367,0.671,-22.949,-149.590,18.083,-14.958
2050,-0.2349,-0.5879,-0.7207,-32.410,-6.958,-8.240,-149.788,18.062,-14.843
2060,-0.3745,-0.3521,-0.7085,-30.884,-8.606,12.451,-150.150,18.270,-14.914
2070,-0.4766,-0.2588,-0.6953,-9.155,-2.563,25.818,-150.408,18.561,-15.134
2080,-0.4883,-0.3174,-0.6860,19.165,5.920,22.949,-150.342,18.770,-15.375
2090,-0.4014,-0.5552,-0.6685,36.743,13.245,4.150,-149.908,18.732,-15.485
2100,-0.2788,-0.7500,-0.6611,30.029,14.648,-20.752,-149.392,18.474,-15.370
2110,-0.2227,-0.7031,-0.6909,3.723,9.644,-35.767,-149.123,18.155,-15.101
2120,-0.2393,-0.6104,-0.7578,-22.217,8.301,-31.738,-149.189,17.880,-14.859
2130,-0.2715,-0.5967,-0.8174,-33.081,13.794,-17.090,-149.436,17.644,-14.777
2141,-0.3037,-0.5371,-0.8555,-31.067,19.897,-4.333,-149.749,17.446,-14.843
2150,-0.3169,-0.5195,-0.8794,-19.348,20.142,0.610,-149.969,17.276,-14.958
2160,-0.3047,-0.5464,-0.8613,-2.075,12.024,-4.456,-149.974,17.144,-14.980
2170,-0.2847,-0.5669,-0.8149,13.916,-3.113,-15.686,-149.744,17.078,-14.821
2180,-0.2671,-0.6431,-0.7612,27.710,-17.944,-25.574,-149.271,17.084,-14.496
2190,-0.2363,-0.7661,-0.7007,35.339,-28.625,-32.166,-148.629,17.122,-14.052
2200,-0.2261,-0.8232,-0.6406,30.212,-34.119,-33.386,-147.980,17.194,-13.568
2210,-0.2437,-0.8037,-0.6235,13.611,-33.997,-26.733,-147.519,17.298,-13.140
2220,-0.2559,-0.8486,-0.6323,-4.395,-25.757,-14.832,-147.272,17.397,-12.865
2230,-0.2456,-0.8579,-0.6621,-23.499,-11.230,-4.822,-147.277,17.419,-12.761
2240,-0.2500,-0.7480,-0.7100,-39.612,2.380,3.540,-147.546,17.380,-12.805
2250,-0.2954,-0.5005,-0.7524,-42.358,11.353,14.099,-148.008,17.369,-12.991
2260,-0.3540,-0.4102,-0.7749,-23.071,18.799,25.635,-148.376,17.391,-13.326
2270,-0.3525,-0.4888,-0.7734,6.226,26.001,28.259,-148.425,17.353,-13.722
2280,-0.3306,-0.5244,-0.7559,27.893,26.978,21.179,-148.217,17.260,-14.057
2290,-0.3135,-0.5630,-0.7290,32.898,21.545,13.611,-147.903,17.166,-14.299
2300,-0.3003,-0.6396,-0.7012,28.503,12.451,6.531,-147.552,17.100,-14.425
2310,-0.2700,-0.7207,-0.6792,14.282,3.784,-0.366,-147.277,17.051,-14.442
2320,-0.2661,-0.6890,-0.6792,-8.911,-4.089,-4.089,-147.217,17.045,-14.381
2330,-0.2822,-0.6396,-0.7021,-29.724,-9.094,-2.258,-147.398,17.100,-14.310
2340,-0.2964,-0.6221,-0.7305,-38.818,-9.094,0.183,-147.689,17.183,-14.260
2350,-0.2988,-0.5425,-0.7539,-39.429,-7.019,-0.122,-148.035,17.243,-14.222
2360,-0.3237,-0.4429,-0.7856,-28.870,-5.005,0.366,-148.337,17.314,-14.200
2370,-0.3135,-0.5215,-0.8027,-7.324,1.526,-0.122,-148.398,17.309,-14.205
2380,-0.2598,-0.6284,-0.8120,10.803,8.240,-5.310,-148.228,17.183,-14.205
2390,-0.2139,-0.6909,-0.8096,20.874,10.071,-9.888,-147.925,16.985,-14.172
2400,-0.1860,-0.7354,-0.7900,21.790,8.911,-8.789,-147.596,16.793,-14.139
2410,-0.1992,-0.6924,-0.7690,18.066,4.639,-2.930,-147.321,16.677,-14.139
2420,-0.2524,-0.6143,-0.7593,14.587,-0.610,6.409,-147.129,16.699,-14.194
2430,-0.2954,-0.6069,-0.7417,13.123,-2.441,14.343,-146.964,16.798,-14.304
2440,-0.3105,-0.5972,-0.7280,9.583,-2.563,15.381,-146.838,16.919,-14.425
2450,-0.3120,-0.5991,-0.7207,4.333,-3.845,11.658,-146.755,17.029,-14.507
2460,-0.2852,-0.6738,-0.7168,-2.625,-3.540,5.493,-146.689,17.078,-14.535
2470,-0.2539,-0.6812,-0.7217,-11.841,-3.418,-0.610,-146.700,17.078,-14.507
2480,-0.2651,-0.5967,-0.7373,-19.348,-3.662,-0.732,-146.827,17.089,-14.480
2490,-0.2935,-0.5508,-0.7495,-16.357,-2.502,4.578,-146.964,17.139,-14.507
2500,-0.3213,-0.5352,-0.7563,-5.249,1.221,9.216,-147.019,17.199,-14.595
2510,-0.3306,-0.5215,-0.7505,6.897,4.333,10.925,-146.970,17.249,-14.716
2520,-0.3291,-0.5200,-0.7407,15.686,5.615,10.315,-146.827,17.281,-14.837
2530,-0.3125,-0.5728,-0.7222,19.409,5.737,7.812,-146.613,17.292,-14.941
2540,-0.2852,-0.6660,-0.7173,14.465,4.272,4.700,-146.393,17.271,-15.007
2550,-0.2397,-0.7739,-0.7202,0.488,2.808,0.977,-146.261,17.210,-15.029
2560,-0.2241,-0.7534,-0.7285,-20.813,-0.488,-0.183,-146.343,17.161,-15.024
2570,-0.2515,-0.6182,-0.7402,-38.330,-4.211,4.028,-146.667,17.194,-15.035
2580,-0.3301,-0.4336,-0.7500,-39.124,-5.310,12.085,-147.107,17.336,-15.112
2590,-0.3926,-0.3672,-0.7529,-20.325,-2.197,18.555,-147.420,17.534,-15.266
2600,-0.3984,-0.4272,-0.7607,3.967,3.296,16.968,-147.464,17.666,-15.430
2610,-0.3335,-0.5801,-0.7603,19.897,8.484,5.737,-147.250,17.644,-15.529
2620,-0.2383,-0.7266,-0.7554,19.409,9.094,-7.874,-146.942,17.479,-15.513
2630,-0.1626,-0.8560,-0.7715,4.272,6.042,-15.930,-146.717,17.249,-15.408
2641,-0.1274,-0.8208,-0.7832,-15.137,2.075,-14.832,-146.700,17.040,-15.287
2650,-0.1963,-0.6016,-0.7979,-27.771,-3.235,-1.099,-146.931,17.001,-15.260
2660,-0.3242,-0.3950,-0.7935,-18.127,-4.944,18.616,-147.217,17.172,-15.397
2670,-0.4185,-0.3428,-0.7700,8.118,-0.977,31.616,-147.305,17.446,-15.667
2680,-0.4468,-0.3628,-0.7485,34.302,4.883,30.212,-147.118,17.672,-15.963
2690,-0.3882,-0.5747,-0.7168,50.720,9.033,16.907,-146.618,17.743,-16.161
2700,-0.2803,-0.7969,-0.6758,43.884,7.996,-2.502,-146.030,17.633,-16.188
2710,-0.1992,-0.8560,-0.6699,13.306,0.122,-18.127,-145.673,17.463,-16.029
2720,-0.1831,-0.7812,-0.6748,-23.132,-9.460,-20.264,-145.684,17.353,-15.798
2730,-0.2241,-0.6787,-0.7021,-49.316,-15.076,-8.850,-146.025,17.380,-15.634
2740,-0.2983,-0.5684,-0.7451,-55.908,-12.939,6.836,-146.541,17.529,-15.617
2750,-0.3564,-0.4590,-0.7656,-44.312,-5.981,17.517,-147.041,17.715,-15.738
2760,-0.3911,-0.3979,-0.7754,-24.048,0.305,21.667,-147.393,17.891,-15.930
2770,-0.3877,-0.4453,-0.7788,-2.686,5.615,18.738,-147.508,18.001,-16.128
2780,-0.3403,-0.5547,-0.7695,15.015,8.606,8.850,-147.365,17.996,-16.254
2790,-0.2695,-0.6851,-0.7505,20.508,8.484,-0.977,-147.079,17.886,-16.293
2800,-0.2295,-0.7290,-0.7402,10.742,5.249,-5.493,-146.849,17.759,-16.276
2810,-0.2437,-0.6763,-0.7490,-4.578,0.488,-1.709,-146.799,17.704,-16.260
2820,-0.2949,-0.6030,-0.7524,-15.442,-2.502,8.118,-146.915,17.759,-16.320
2830,-0.3623,-0.4844,-0.7534,-17.273,-2.869,17.212,-147.129,17.919,-16.452
2840,-0.4155,-0.3696,-0.7461,-7.446,-1.770,21.179,-147.321,18.133,-16.628
2850,-0.4429,-0.3433,-0.7480,9.399,-0.732,18.982,-147.360,18.347,-16.793
2860,-0.3833,-0.5591,-0.7544,23.926,3.967,7.812,-147.112,18.391,-16.886
2870,-0.2686,-0.7842,-0.7505,23.621,6.958,-9.888,-146.733,18.237,-16.837
2880,-0.1865,-0.8638,-0.7617,1.770,3.296,-20.996,-146.508,18.007,-16.672
2890,-0.1802,-0.7510,-0.7656,-23.743,-3.357,-18.372,-146.580,17.847,-16.490
2900,-0.2695,-0.5273,-0.7783,-34.851,-8.301,-2.686,-146.898,17.880,-16.419
2910,-0.3735,-0.4019,-0.7793,-21.790,-5.981,16.724,-147.206,18.073,-16.534
2920,-0.4429,-0.3291,-0.7822,4.944,0.854,27.527,-147.332,18.309,-16.782
2930,-0.4395,-0.3896,-0.7866,33.081,7.874,24.841,-147.151,18.457,-17.045
2940,-0.3530,-0.5957,-0.7622,49.622,12.329,10.559,-146.656,18.430,-17.210
2950,-0.2466,-0.8101,-0.7358,44.067,9.216,-6.531,-146.074,18.259,-17.205
2960,-0.1694,-0.8965,-0.7407,17.212,1.221,-18.127,-145.695,18.051,-17.056
2970,-0.1538,-0.8208,-0.7363,-14.038,-8.362,-18.005,-145.629,17.919,-16.848
2980,-0.2334,-0.6128,-0.7310,-35.522,-16.357,-3.174,-145.887,17.990,-16.727
2990,-0.3555,-0.4468,-0.7422,-34.424,-16.235,17.944,-146.277,18.270,-16.787
3000,-0.4390,-0.3203,-0.7334,-14.832,-8.484,31.677,-146.596,18.616,-17.012
3010,-0.4902,-0.2231,-0.7236,10.681,-1.770,34.546,-146.750,18.962,-17.309
3020,-0.4614,-0.3560,-0.7148,35.095,5.249,26.917,-146.552,19.177,-17.578
3030,-0.3540,-0.6328,-0.6963,46.570,11.414,7.141,-146.047,19.133,-17.704
3040,-0.2505,-0.7891,-0.6860,28.748,11.597,-14.160,-145.596,18.907,-17.650
3050,-0.1841,-0.8052,-0.6909,-5.859,6.470,-25.330,-145.443,18.622,-17.468
3060,-0.2021,-0.6553,-0.7139,-37.659,-0.916,-20.996,-145.679,18.441,-17.281
3070,-0.2944,-0.4692,-0.7397,-50.720,-5.371,-3.906,-146.179,18.463,-17.216
3080,-0.3940,-0.3345,-0.7588,-38.452,-2.258,13.245,-146.689,18.627,-17.314
3090,-0.4424,-0.3120,-0.7856,-10.986,2.991,20.264,-146.981,18.803,-17.512
3100,-0.4048,-0.4487,-0.7930,15.137,8.179,13.245,-146.915,18.858,-17.677
3110,-0.3018,-0.6587,-0.7759,27.527,9.155,-4.456,-146.574,18.732,-17.688
3120,-0.2202,-0.7754,-0.7612,20.813,3.601,-20.325,-146.201,18.517,-17.534
3130,-0.1875,-0.7515,-0.7598,2.502,-4.211,-26.184,-145.986,18.325,-17.276
3141,-0.2202,-0.6348,-0.7578,-11.658,-9.155,-19.287,-145.970,18.237,-17.056
3150,-0.2964,-0.5645,-0.7617,-13.367,-8.850,-3.235,-146.052,18.281,-16.974
3160,-0.3638,-0.4902,-0.7671,-4.822,-2.747,10.132,-146.140,18.397,-17.045
3170,-0.4014,-0.4014,-0.7676,9.033,3.296,14.954,-146.157,18.512,-17.199
3180,-0.4023,-0.4199,-0.7529,24.475,6.287,13.062,-146.008,18.600,-17.347
3190,-0.3604,-0.5669,-0.7358,32.532,7.324,4.944,-145.679,18.594,-17.435
3200,-0.2910,-0.7285,-0.7217,27.832,5.066,-7.812,-145.283,18.479,-17.397
3210,-0.2329,-0.7817,-0.7202,5.859,0.122,-17.761,-145.047,18.320,-17.243
3220,-0.2290,-0.7021,-0.7275,-19.714,-5.676,-18.372,-145.096,18.204,-17.051
3230,-0.2925,-0.5405,-0.7397,-33.997,-9.766,-8.423,-145.377,18.232,-16.919
3240,-0.3784,-0.4326,-0.7568,-28.931,-7.019,4.211,-145.712,18.364,-16.913
3250,-0.4277,-0.3848,-0.7739,-9.949,0.366,10.132,-145.915,18.495,-17.007
3260,-0.4033,-0.4556,-0.7852,11.963,7.385,5.798,-145.865,18.523,-17.100
3270,-0.3164,-0.6426,-0.7822,23.804,10.620,-6.104,-145.580,18.391,-17.111
3280,-0.2192,-0.8208,-0.7686,19.043,8.057,-18.066,-145.234,18.149,-17.001
3290,-0.1797,-0.7725,-0.7603,0.854,-0.244,-22.583,-145.058,17.941,-16.804
3300,-0.2280,-0.6484,-0.7495,-14.221,-8.850,-13.794,-145.085,17.880,-16.633
3310,-0.3145,-0.5391,-0.7407,-16.541,-11.597,2.563,-145.223,18.001,-16.584
3320,-0.4004,-0.4253,-0.7310,-7.141,-8.057,14.709,-145.366,18.221,-16.661
3330,-0.4331,-0.4146,-0.7422,7.629,-1.282,17.395,-145.388,18.419,-16.804
3340,-0.3906,-0.5361,-0.7305,19.104,5.981,9.216,-145.217,18.474,-16.919
3350,-0.3071,-0.6587,-0.7280,17.578,8.728,-5.859,-144.970,18.358,-16.924
3360,-0.2354,-0.7476,-0.7402,3.967,6.226,-17.395,-144.794,18.149,-16.809
3370,-0.1938,-0.7480,-0.7529,-12.634,1.160,-20.935,-144.772,17.941,-16.639
3380,-0.2266,-0.6177,-0.7603,-24.780,-4.089,-13.611,-144.937,17.847,-16.496
3390,-0.3301,-0.4678,-0.7744,-23.315,-6.897,2.319,-145.201,17.941,-16.474
3400,-0.3950,-0.4585,-0.7686,-7.202,-2.502,14.771,-145.344,18.100,-16.584
3410,-0.4077,-0.4497,-0.7651,8.423,2.991,15.259,-145.349,18.232,-16.738
3420,-0.3760,-0.5176,-0.7588,19.226,5.920,7.324,-145.190,18.265,-16.837
3430,-0.3013,-0.6587,-0.7480,20.325,6.653,-5.066,-144.926,18.166,-16.831
3440,-0.2437,-0.7104,-0.7480,9.277,3.296,-14.709,-144.717,18.007,-16.727
3450,-0.2080,-0.7593,-0.7666,-6.042,-0.732,-16.602,-144.635,17.847,-16.578
3460,-0.2036,-0.7505,-0.7856,-19.287,-4.272,-12.146,-144.701,17.737,-16.447
3470,-0.2573,-0.5752,-0.7935,-25.757,-8.484,-2.686,-144.932,17.765,-16.375
3480,-0.3398,-0.4775,-0.8003,-16.418,-9.583,9.033,-145.140,17.913,-16.392
3490,-0.3794,-0.4712,-0.7900,3.357,-6.226,14.526,-145.173,18.094,-16.479
3500,-0.3774,-0.4795,-0.7646,21.484,-3.052,10.620,-145.014,18.221,-16.556
3510,-0.3481,-0.5327,-0.7261,33.936,-2.197,3.296,-144.668,18.287,-16.567
3520,-0.3091,-0.6353,-0.6821,34.790,-3.540,-3.235,-144.234,18.298,-16.518
3530,-0.2944,-0.6499,-0.6680,22.400,-6.348,-7.263,-143.893,18.303,-16.419
3540,-0.2891,-0.6895,-0.6680,5.249,-7.263,-7.263,-143.712,18.303,-16.309
3550,-0.3013,-0.6553,-0.6807,-12.146,-6.348,-4.272,-143.729,18.320,-16.238
3560,-0.3301,-0.5776,-0.7070,-24.170,-3.906,0.427,-143.932,18.369,-16.216
3570,-0.3540,-0.5278,-0.7358,-25.330,0.305,3.357,-144.201,18.419,-16.243
3580,-0.3599,-0.4932,-0.7505,-17.822,3.662,3.052,-144.415,18.441,-16.293
3590,-0.3379,-0.5386,-0.7646,-4.639,5.798,-0.549,-144.476,18.402,-16.326
3600,-0.2886,-0.6235,-0.7622,7.690,6.958,-6.165,-144.360,18.292,-16.315
3610,-0.2402,-0.7139,-0.7603,11.780,5.737,-9.827,-144.152,18.133,-16.265
3620,-0.2266,-0.7344,-0.7539,8.362,2.686,-8.423,-143.965,18.007,-16.210
3630,-0.2554,-0.6548,-0.7432,1.282,-0.732,-1.526,-143.893,17.968,-16.194
3641,-0.3228,-0.5151,-0.7319,-1.770,-3.479,9.277,-143.937,18.067,-16.249
3650,-0.3906,-0.4297,-0.7168,4.517,-3.601,17.700,-143.987,18.270,-16.381
3660,-0.4121,-0.4404,-0.6992,13.733,-0.732,18.250,-143.932,18.463,-16.529
3670,-0.3848,-0.5303,-0.6929,17.456,1.892,10.315,-143.778,18.561,-16.628
3680,-0.3188,-0.6641,-0.6919,10.437,3.296,-2.808,-143.597,18.517,-16.628
3690,-0.2549,-0.7495,-0.7041,-8.362,2.258,-14.709,-143.542,18.369,-16.512
3700,-0.2114,-0.7754,-0.7358,-29.480,-0.061,-19.653,-143.685,18.182,-16.348
3710,-0.2129,-0.6973,-0.7603,-44.861,-2.136,-14.893,-144.020,18.045,-16.210
3725,-0.2856,-0.5039,-0.7964,-46.021,-4.028,-2.197,-144.498,18.051,-16.166
3730,-0.3569,-0.4248,-0.8135,-26.489,-0.488,11.047,-144.871,18.149,-16.254
3740,-0.3979,-0.3955,-0.8032,1.770,5.371,16.541,-144.998,18.259,-16.430
3750,-0.3818,-0.4258,-0.7891,28.564,10.437,11.475,-144.827,18.287,-16.595
3760,-0.3208,-0.5762,-0.7505,47.180,12.939,1.465,-144.366,18.199,-16.683
3770,-0.2559,-0.7383,-0.7197,44.800,10.437,-7.385,-143.822,18.029,-16.683
3780,-0.2129,-0.7983,-0.7178,23.254,5.005,-12.634,-143.448,17.847,-16.611
3790,-0.2080,-0.7627,-0.7222,-3.784,-1.099,-10.498,-143.361,17.726,-16.512
3800,-0.2676,-0.6167,-0.7344,-24.231,-5.066,-0.244,-143.553,17.743,-16.479
3810,-0.3525,-0.5083,-0.7588,-29.053,-3.479,11.902,-143.893,17.875,-16.556
3820,-0.3911,-0.4521,-0.7749,-18.921,1.831,16.846,-144.185,18.018,-16.716
3830,-0.4009,-0.3984,-0.7803,-5.005,5.005,13.794,-144.366,18.122,-16.864
3840,-0.3740,-0.4604,-0.7754,9.033,6.775,6.104,-144.355,18.144,-16.957
3850,-0.3135,-0.5991,-0.7554,17.761,7.202,-4.456,-144.152,18.062,-16.963
3860,-0.2578,-0.7124,-0.7476,14.160,4.028,-12.573,-143.910,17.913,-16.880
3870,-0.2129,-0.7710,-0.7524,0.122,0.061,-15.503,-143.773,17.759,-16.749
3880,-0.2300,-0.6729,-0.7524,-15.686,-5.066,-10.193,-143.839,17.688,-16.628
3890,-0.3052,-0.5415,-0.7651,-24.109,-8.606,2.075,-144.075,17.776,-16.595
3900,-0.3638,-0.4854,-0.7700,-17.029,-6.042,11.414,-144.300,17.930,-16.655
3910,-0.3867,-0.4731,-0.7744,-3.662,-1.526,12.390,-144.404,18.062,-16.749
3920,-0.3574,-0.5059,-0.7715,8.484,2.197,5.798,-144.366,18.111,-16.815
3930,-0.3022,-0.5791,-0.7529,15.686,3.296,-3.296,-144.190,18.062,-16.804
3940,-0.2637,-0.6445,-0.7354,14.954,0.916,-8.728,-143.965,17.974,-16.738
3950,-0.2461,-0.6865,-0.7290,7.996,-2.319,-9.399,-143.784,17.897,-16.644
3960,-0.2603,-0.6284,-0.7246,-1.709,-4.761,-5.371,-143.729,17.875,-16.567
3970,-0.3081,-0.5635,-0.7290,-7.935,-5.432,2.808,-143.795,17.941,-16.556
3980,-0.3516,-0.5205,-0.7393,-6.592,-2.869,7.507,-143.882,18.040,-16.600
3990,-0.3677,-0.4854,-0.7529,-1.953,0.916,6.836,-143.954,18.116,-16.666
4000,-0.3447,-0.5210,-0.7568,4.822,4.456,1.587,-143.932,18.116,-16.710
4010,-0.2959,-0.5894,-0.7505,9.827,5.798,-5.493,-143.811,18.029,-16.699
4020,-0.2446,-0.7104,-0.7534,7.996,4.456,-9.766,-143.646,17.886,-16.644
4030,-0.2065,-0.7769,-0.7607,-2.563,1.526,-11.047,-143.553,17.737,-16.556
4040,-0.2197,-0.6982,-0.7646,-15.747,-2.686,-6.775,-143.624,17.661,-16.485
4050,-0.2861,-0.5493,-0.7729,-21.912,-5.798,3.845,-143.849,17.721,-16.479
4060,-0.3608,-0.4629,-0.7632,-13.611,-4.517,13.489,-144.064,17.880,-16.567
4070,-0.3965,-0.4321,-0.7593,1.282,-0.549,16.052,-144.152,18.045,-16.699
4080,-0.3931,-0.4380,-0.7480,14.954,2.991,10.803,-144.091,18.144,-16.809
4090,-0.3521,-0.5020,-0.7354,23.376,4.517,0.854,-143.888,18.149,-16.848
4100,-0.2959,-0.6304,-0.7192,22.339,3.906,-8.545,-143.602,18.056,-16.798
4110,-0.2456,-0.7300,-0.7256,9.338,1.221,-15.076,-143.383,17.913,-16.677
4120,-0.2144,-0.7817,-0.7476,-9.705,-1.953,-16.235,-143.339,17.765,-16.529
4130,-0.2261,-0.7192,-0.7686,-28.564,-4.700,-10.681,-143.520,17.682,-16.408
4141,-0.2896,-0.5371,-0.7832,-37.109,-6.042,-0.305,-143.893,17.721,-16.370
4150,-0.3735,-0.3999,-0.7925,-25.757,-3.967,10.376,-144.261,17.864,-16.430
4160,-0.4121,-0.3965,-0.7881,-1.038,1.282,14.160,-144.404,18.007,-16.562
4170,-0.3804,-0.4565,-0.7783,23.254,6.104,6.836,-144.256,18.045,-16.655
4180,-0.3042,-0.6123,-0.7456,37.659,7.324,-4.883,-143.844,17.957,-16.661
4190,-0.2466,-0.7202,-0.7080,31.860,2.808,-12.512,-143.410,17.820,-16.573
4200,-0.2285,-0.7388,-0.7061,13.367,-3.723,-13.733,-143.141,17.715,-16.430
4210,-0.2466,-0.6855,-0.6973,-5.737,-7.629,-7.690,-143.086,17.693,-16.320
4220,-0.3018,-0.5859,-0.7100,-18.066,-8.484,3.113,-143.229,17.781,-16.293
4230,-0.3379,-0.5532,-0.7383,-19.226,-4.089,10.681,-143.437,17.902,-16.353
4240,-0.3335,-0.5508,-0.7554,-14.282,0.732,10.193,-143.613,17.974,-16.447
4250,-0.3179,-0.5293,-0.7534,-9.338,1.892,5.005,-143.734,18.001,-16.501
4260,-0.3027,-0.5610,-0.7456,-3.540,1.404,0.427,-143.767,17.990,-16.512
4270,-0.2778,-0.6392,-0.7412,1.465,1.038,-2.808,-143.701,17.946,-16.496
4280,-0.2520,-0.7002,-0.7310,0.122,0.305,-4.700,-143.613,17.875,-16.458
4290,-0.2539,-0.6460,-0.7266,-7.690,-1.221,-2.808,-143.624,17.836,-16.425
4300,-0.3003,-0.5698,-0.7290,-14.771,-2.869,4.150,-143.762,17.886,-16.441
4310,-0.3579,-0.4893,-0.7300,-15.564,-2.319,9.949,-143.959,18.001,-16.512
4320,-0.3960,-0.4565,-0.7358,-10.620,0.549,11.108,-144.141,18.127,-16.611
4330,-0.3804,-0.4937,-0.7427,-4.395,4.700,6.348,-144.229,18.177,-16.694
4340,-0.3281,-0.5747,-0.7563,-0.305,7.935,-3.174,-144.223,18.105,-16.716
4350,-0.2686,-0.6445,-0.7661,-2.563,8.789,-10.864,-144.196,17.941,-16.677
4360,-0.2461,-0.6187,-0.7720,-7.629,5.493,-11.658,-144.223,17.787,-16.611
4370,-0.2676,-0.5962,-0.7793,-8.667,1.465,-5.554,-144.278,17.721,-16.573
4380,-0.2939,-0.6021,-0.7817,-5.920,0.000,1.465,-144.322,17.715,-16.584
4390,-0.3140,-0.5742,-0.7749,-3.174,0.122,4.395,-144.360,17.743,-16.622
4400,-0.3276,-0.5122,-0.7661,-0.671,0.732,5.005,-144.399,17.787,-16.672
4410,-0.3437,-0.5122,-0.7642,4.150,2.319,4.517,-144.388,17.820,-16.727
4420,-0.3247,-0.5732,-0.7700,9.705,5.554,0.732,-144.294,17.787,-16.765
4430,-0.2788,-0.6382,-0.7715,10.681,7.446,-4.272,-144.152,17.682,-16.776
4440,-0.2529,-0.6211,-0.7744,4.822,5.798,-5.005,-144.075,17.573,-16.765
4450,-0.2842,-0.5410,-0.7695,-0.427,2.075,-0.061,-144.091,17.545,-16.776
4460,-0.3340,-0.5098,-0.7588,-0.366,-0.671,6.226,-144.130,17.617,-16.826
4470,-0.3628,-0.4932,-0.7544,2.625,-0.977,7.935,-144.146,17.710,-16.891
4480,-0.3530,-0.5386,-0.7588,4.456,0.427,4.089,-144.119,17.765,-16.924
4490,-0.3140,-0.5933,-0.7646,1.648,2.319,-3.601,-144.080,17.726,-16.908
4500,-0.2744,-0.6182,-0.7817,-5.066,2.869,-9.216,-144.086,17.628,-16.848
4510,-0.2578,-0.6279,-0.7935,-9.949,2.380,-10.010,-144.141,17.512,-16.782
4520,-0.2637,-0.5913,-0.8052,-9.949,0.916,-6.592,-144.218,17.441,-16.727
4530,-0.2822,-0.5669,-0.8081,-4.883,-0.427,-1.038,-144.272,17.424,-16.716
4540,-0.3057,-0.5552,-0.7979,3.540,-1.099,2.563,-144.250,17.446,-16.732
4550,-0.3164,-0.5435,-0.7725,10.437,-1.404,3.174,-144.157,17.490,-16.749
4560,-0.3101,-0.5747,-0.7578,13.794,-1.343,2.258,-144.014,17.518,-16.760
4571,-0.2856,-0.6382,-0.7461,12.024,-0.977,0.244,-143.844,17.512,-16.760
4580,-0.2583,-0.6826,-0.7529,2.258,-1.465,-1.343,-143.756,17.485,-16.738
4590,-0.2422,-0.6987,-0.7666,-10.803,-1.770,-1.160,-143.795,17.452,-16.716
4600,-0.2700,-0.5649,-0.7783,-20.813,-2.930,2.319,-144.003,17.468,-16.716
4610,-0.3311,-0.4668,-0.7930,-17.700,-2.869,8.911,-144.250,17.567,-16.776
4620,-0.3711,-0.4263,-0.7852,-1.526,0.000,11.780,-144.371,17.688,-16.875
4630,-0.3838,-0.3936,-0.7793,16.541,2.075,8.667,-144.322,17.781,-16.963
4641,-0.3481,-0.4805,-0.7451,31.311,3.418,1.404,-144.047,17.798,-16.996
4650,-0.2988,-0.6133,-0.7222,33.020,1.648,-6.226,-143.668,17.743,-16.952
4660,-0.2534,-0.7397,-0.7207,17.578,-1.831,-11.902,-143.366,17.650,-16.842
4670,-0.2090,-0.8008,-0.7354,-7.141,-5.066,-15.259,-143.278,17.534,-16.683
4680,-0.2080,-0.7236,-0.7568,-30.457,-8.301,-12.451,-143.465,17.463,-16.523
4690,-0.2686,-0.5576,-0.7749,-40.710,-9.460,-2.441,-143.849,17.507,-16.447
4700,-0.3462,-0.4512,-0.7935,-28.992,-7.019,8.545,-144.212,17.644,-16.474
4710,-0.3789,-0.4492,-0.7852,-4.395,-1.953,13.184,-144.344,17.787,-16.573
4721,-0.3677,-0.4565,-0.7651,17.029,2.197,9.277,-144.250,17.869,-16.666
4730,-0.3354,-0.4956,-0.7222,31.250,3.540,2.869,-143.970,17.886,-16.710
4740,-0.3145,-0.5811,-0.6909,34.546,2.380,-1.221,-143.591,17.875,-16.716
4750,-0.2793,-0.7104,-0.6821,25.146,2.319,-5.005,-143.234,17.803,-16.688
4760,-0.2349,-0.7681,-0.6997,2.686,2.502,-7.568,-143.086,17.688,-16.639
4770,-0.2241,-0.7358,-0.7295,-23.315,1.831,-5.615,-143.223,17.589,-16.606
4780,-0.2637,-0.6255,-0.7759,-41.504,1.404,1.709,-143.619,17.562,-16.628
4791,-0.3130,-0.5190,-0.8110,-42.297,3.174,9.216,-144.102,17.595,-16.727
4800,-0.3604,-0.4062,-0.8208,-26.550,4.456,13.672,-144.503,17.677,-16.870
4810,-0.3896,-0.3721,-0.8091,-0.488,5.127,13.794,-144.662,17.770,-17.018
4820,-0.3760,-0.4058,-0.7793,25.391,6.348,7.751,-144.520,17.820,-17.122
4830,-0.3276,-0.5181,-0.7329,43.091,5.554,-0.977,-144.102,17.792,-17.150
4840,-0.2798,-0.6514,-0.7017,41.809,2.563,-7.385,-143.608,17.715,-17.100
4850,-0.2275,-0.7710,-0.7007,22.278,-0.671,-11.414,-143.240,17.600,-17.001
4860,-0.1841,-0.8413,-0.7271,-7.996,-3.723,-11.597,-143.163,17.474,-16.880
4870,-0.1655,-0.8452,-0.7783,-37.598,-4.883,-7.446,-143.399,17.380,-16.787
4880,-0.1948,-0.6816,-0.8169,-54.749,-4.761,0.244,-143.904,17.347,-16.760
4891,-0.2686,-0.5337,-0.8403,-50.293,-4.028,11.230,-144.459,17.424,-16.831
4901,-0.3477,-0.4136,-0.8364,-26.123,-0.977,20.203,-144.855,17.578,-16.996
4910,-0.4028,-0.3262,-0.8003,7.263,2.014,24.292,-144.981,17.776,-17.216
4921,-0.4136,-0.3335,-0.7539,40.283,5.432,22.827,-144.761,17.946,-17.446
4931,-0.3818,-0.4561,-0.7051,65.002,9.033,15.503,-144.201,18.029,-17.633
4940,-0.3252,-0.6021,-0.6582,65.918,10.681,5.127,-143.514,17.990,-17.743
4950,-0.2759,-0.7104,-0.6436,39.795,9.277,-3.418,-143.015,17.880,-17.770
4960,-0.2412,-0.7578,-0.6709,-1.465,6.531,-7.690,-142.910,17.737,-17.748
4970,-0.2368,-0.7178,-0.7139,-41.016,4.639,-7.446,-143.223,17.611,-17.715
4981,-0.2759,-0.5547,-0.7661,-66.223,4.028,-2.319,-143.888,17.551,-17.721
4990,-0.3315,-0.4321,-0.8169,-65.857,4.333,4.944,-144.646,17.567,-17.792
5000,-0.3745,-0.3521,-0.8413,-44.739,5.554,8.972,-145.245,17.622,-17.902
5011,-0.3887,-0.3340,-0.8418,-13.550,5.737,7.568,-145.541,17.672,-18.001
5021,-0.3628,-0.4165,-0.8208,18.555,5.676,0.671,-145.448,17.672,-18.040
5031,-0.3018,-0.5854,-0.7754,40.405,4.700,-8.484,-145.009,17.578,-17.996
5040,-0.2563,-0.6846,-0.7456,39.063,2.258,-14.526,-144.514,17.446,-17.886
5050,-0.2324,-0.7290,-0.7368,21.790,0.610,-14.954,-144.168,17.303,-17.759
5060,-0.2432,-0.6641,-0.7314,0.366,-1.038,-9.155,-144.075,17.227,-17.677
5071,-0.3066,-0.5684,-0.7485,-14.709,-1.282,1.709,-144.212,17.254,-17.682
5081,-0.3589,-0.5132,-0.7676,-17.029,1.709,9.338,-144.426,17.336,-17.770
5091,-0.3745,-0.4604,-0.7803,-11.841,4.089,9.705,-144.624,17.408,-17.880
5101,-0.3652,-0.4648,-0.7832,-3.479,4.333,4.761,-144.723,17.446,-17.946
5111,-0.3213,-0.5708,-0.7832,4.578,4.028,-3.296,-144.668,17.402,-17.941
5120,-0.2603,-0.6602,-0.7822,6.531,2.258,-10.864,-144.536,17.292,-17.864
5130,-0.2358,-0.6978,-0.7817,1.831,-0.549,-12.756,-144.421,17.177,-17.748
5141,-0.2432,-0.6460,-0.7739,-5.615,-2.075,-8.057,-144.410,17.111,-17.672
5151,-0.3018,-0.5396,-0.7842,-10.010,-2.808,2.014,-144.520,17.150,-17.672
5161,-0.3574,-0.4946,-0.7847,-5.127,-0.854,9.888,-144.624,17.254,-17.748
5171,-0.3662,-0.4751,-0.7798,3.296,2.686,10.559,-144.662,17.336,-17.853
5181,-0.3472,-0.4873,-0.7681,9.888,3.540,6.104,-144.619,17.380,-17.930
5191,-0.3115,-0.5762,-0.7593,12.451,2.197,-0.977,-144.476,17.364,-17.935
5200,-0.2627,-0.6528,-0.7563,7.019,-0.610,-7.263,-144.333,17.298,-17.869
5210,-0.2388,-0.6748,-0.7603,-2.869,-5.310,-9.949,-144.272,17.243,-17.754
5220,-0.2456,-0.6504,-0.7607,-11.780,-8.484,-7.263,-144.305,17.238,-17.639
5231,-0.2881,-0.5581,-0.7710,-17.212,-9.521,-0.671,-144.454,17.303,-17.573
5241,-0.3301,-0.4990,-0.7832,-12.817,-7.202,5.310,-144.613,17.419,-17.573
5251,-0.3525,-0.4507,-0.7700,-2.014,-2.808,7.141,-144.695,17.523,-17.617
5261,-0.3584,-0.4180,-0.7607,9.644,0.183,5.432,-144.679,17.600,-17.666
5271,-0.3281,-0.5181,-0.7437,20.691,2.380,0.549,-144.487,17.606,-17.688
5281,-0.2725,-0.6572,-0.7280,21.667,2.502,-6.592,-144.196,17.529,-17.644
5290,-0.2207,-0.7627,-0.7368,7.751,0.000,-12.329,-143.981,17.397,-17.540
5300,-0.1880,-0.7827,-0.7490,-12.573,-2.563,-13.794,-143.965,17.265,-17.408
5310,-0.2104,-0.6689,-0.7686,-30.884,-4.639,-7.507,-144.196,17.199,-17.314
5321,-0.2773,-0.5327,-0.7891,-35.156,-4.211,4.822,-144.564,17.254,-17.331
5331,-0.3394,-0.4536,-0.7964,-22.034,0.122,14.832,-144.877,17.369,-17.457
5341,-0.3677,-0.4287,-0.7915,-2.075,4.944,17.761,-145.020,17.479,-17.639
5351,-0.3555,-0.4526,-0.7783,15.808,7.751,12.939,-144.959,17.529,-17.798
5361,-0.3115,-0.5464,-0.7520,27.344,8.423,4.395,-144.701,17.496,-17.886
5371,-0.2686,-0.6538,-0.7310,26.855,5.737,-2.502,-144.377,17.413,-17.897
5380,-0.2417,-0.7114,-0.7334,14.465,2.136,-5.615,-144.135,17.325,-17.864
5390,-0.2295,-0.7275,-0.7485,-3.540,0.366,-3.662,-144.080,17.249,-17.836
5400,-0.2500,-0.6631,-0.7720,-20.508,0.183,2.747,-144.245,17.232,-17.858
5411,-0.2993,-0.5322,-0.7910,-27.527,1.892,10.986,-144.564,17.281,-17.963
5421,-0.3599,-0.3965,-0.7935,-20.569,3.784,18.066,-144.910,17.402,-18.144
5431,-0.3916,-0.3926,-0.7886,-3.784,5.859,20.935,-145.096,17.540,-18.358
5441,-0.3667,-0.4526,-0.7769,12.390,7.507,15.320,-145.074,17.611,-18.534
5451,-0.3179,-0.5566,-0.7632,18.311,6.592,5.920,-144.910,17.600,-18.622
5461,-0.2754,-0.6196,-0.7559,11.963,3.357,-2.075,-144.750,17.545,-18.627
5471,-0.2544,-0.6460,-0.7700,-0.793,0.244,-5.920,-144.695,17.474,-18.578
5481,-0.2646,-0.6089,-0.7773,-13.794,-1.099,-4.211,-144.789,17.435,-18.534
5491,-0.3013,-0.5146,-0.7988,-20.630,-1.953,1.160,-145.020,17.457,-18.534
5501,-0.3423,-0.4644,-0.8115,-15.991,-0.793,5.859,-145.239,17.523,-18.578
5511,-0.3618,-0.4409,-0.8091,-5.066,0.427,6.409,-145.371,17.595,-18.638
5521,-0.3403,-0.5137,-0.8003,5.737,1.099,2.197,-145.338,17.622,-18.660
5531,-0.2832,-0.6294,-0.7915,10.742,0.977,-5.005,-145.184,17.567,-18.622
5540,-0.2349,-0.6870,-0.7852,6.042,-1.404,-9.766,-145.036,17.474,-18.534
5551,-0.2231,-0.6553,-0.7842,-1.648,-4.517,-9.094,-144.970,17.408,-18.424
5561,-0.2598,-0.6030,-0.7832,-6.042,-5.676,-1.831,-144.987,17.413,-18.375
5571,-0.3115,-0.5347,-0.7935,-5.493,-3.967,6.653,-145.063,17.490,-18.408
5581,-0.3433,-0.5015,-0.7891,1.038,-0.061,10.681,-145.107,17.578,-18.501
5591,-0.3564,-0.4487,-0.7822,7.751,3.296,10.071,-145.113,17.650,-18.605
5601,-0.3496,-0.4604,-0.7686,15.015,5.127,6.287,-145.025,17.677,-18.693
5611,-0.3120,-0.5474,-0.7549,19.043,5.554,1.465,-144.844,17.650,-18.737
5621,-0.2676,-0.6641,-0.7344,12.451,2.258,-0.854,-144.651,17.600,-18.743
5631,-0.2461,-0.7153,-0.7476,-7.080,-3.662,-1.831,-144.624,17.578,-18.710
5641,-0.2490,-0.6792,-0.7642,-29.724,-8.179,-0.732,-144.844,17.600,-18.649
5651,-0.2876,-0.5488,-0.7739,-43.762,-10.132,3.357,-145.261,17.693,-18.616
5661,-0.3467,-0.4282,-0.7998,-40.161,-8.484,8.972,-145.734,17.847,-18.644
5671,-0.3804,-0.3970,-0.8086,-19.897,-3.540,11.414,-146.036,17.990,-18.726
5681,-0.3838,-0.3770,-0.7979,4.517,0.793,7.629,-146.102,18.083,-18.792
5691,-0.3516,-0.4258,-0.7788,26.184,4.211,0.488,-145.904,18.083,-18.825
5701,-0.2939,-0.5986,-0.7505,38.696,6.287,-5.676,-145.470,17.990,-18.814
5711,-0.2412,-0.7134,-0.7432,31.616,6.165,-9.338,-145.052,17.842,-18.765
5720,-0.2134,-0.7119,-0.7412,11.658,4.333,-8.667,-144.833,17.693,-18.721
5731,-0.2256,-0.6724,-0.7500,-9.827,2.258,-1.282,-144.860,17.617,-18.721
5741,-0.2710,-0.6064,-0.7695,-25.085,1.587,8.484,-145.107,17.633,-18.803
5751,-0.3164,-0.5410,-0.7949,-30.518,2.502,14.221,-145.453,17.699,-18.940
5760,-0.3403,-0.4658,-0.8066,-28.076,3.235,15.015,-145.822,17.781,-19.089
5771,-0.3423,-0.4453,-0.7998,-18.921,2.869,12.329,-146.096,17.853,-19.215
5781,-0.3330,-0.4531,-0.7930,-7.629,2.136,7.446,-146.239,17.897,-19.292
5791,-0.2988,-0.5269,-0.7944,2.991,1.648,2.197,-146.223,17.891,-19.319
5800,-0.2622,-0.6196,-0.8013,5.493,2.258,-1.709,-146.124,17.831,-19.319
5810,-0.2285,-0.6455,-0.8203,-1.526,3.113,-3.662,-146.096,17.732,-19.303
5821,-0.2334,-0.5957,-0.8296,-11.108,2.930,-0.854,-146.190,17.650,-19.314
5831,-0.2856,-0.4639,-0.8286,-13.855,1.099,5.737,-146.387,17.666,-19.369
5841,-0.3516,-0.3276,-0.8013,-3.052,-1.099,12.085,-146.563,17.787,-19.468
5851,-0.4111,-0.2749,-0.7734,16.907,-2.869,14.709,-146.569,17.979,-19.583
5861,-0.4082,-0.3418,-0.7441,35.950,-2.441,9.033,-146.321,18.133,-19.649
5871,-0.3521,-0.5293,-0.7080,42.908,-1.038,-3.418,-145.854,18.160,-19.611
5881,-0.2788,-0.6860,-0.6968,27.710,-1.648,-15.930,-145.426,18.062,-19.462
5890,-0.2231,-0.7788,-0.7158,-2.869,-2.747,-24.353,-145.256,17.886,-19.237
5901,-0.1929,-0.7637,-0.7417,-36.255,-2.136,-24.475,-145.437,17.688,-19.012
5911,-0.2275,-0.6021,-0.7822,-60.486,-0.854,-13.672,-145.970,17.573,-18.891
5921,-0.2993,-0.4663,-0.8242,-60.486,2.869,2.014,-146.624,17.556,-18.924
5931,-0.3550,-0.3955,-0.8486,-40.344,8.118,13.672,-147.156,17.600,-19.089
5941,-0.3799,-0.3784,-0.8506,-12.573,11.230,16.418,-147.431,17.639,-19.297
5951,-0.3618,-0.3916,-0.8247,13.733,11.963,10.864,-147.415,17.639,-19.462
5961,-0.3320,-0.4800,-0.7822,34.180,10.132,3.235,-147.112,17.589,-19.550
5971,-0.2954,-0.6035,-0.7598,40.588,8.118,-3.235,-146.662,17.501,-19.567
5981,-0.2578,-0.6924,-0.7549,29.480,7.385,-7.751,-146.272,17.364,-19.539
5991,-0.2471,-0.6733,-0.7671,5.615,5.798,-7.019,-146.135,17.238,-19.512
6001,-0.2734,-0.6226,-0.7944,-16.052,4.272,-0.916,-146.255,17.177,-19.528
6011,-0.3110,-0.5542,-0.8218,-26.978,5.005,5.249,-146.541,17.166,-19.605
6021,-0.3535,-0.4546,-0.8452,-25.879,5.127,8.240,-146.876,17.199,-19.704
6031,-0.3828,-0.3682,-0.8501,-13.062,4.150,8.240,-147.134,17.265,-19.803
6041,-0.3906,-0.3481,-0.8389,8.545,2.869,4.028,-147.167,17.320,-19.852
6051,-0.3525,-0.4551,-0.8145,30.701,2.441,-3.540,-146.893,17.314,-19.836
6061,-0.2925,-0.6045,-0.7788,42.664,0.305,-11.230,-146.393,17.243,-19.737
6071,-0.2490,-0.7041,-0.7734,34.607,-3.540,-15.625,-145.920,17.150,-19.583
6081,-0.2134,-0.7646,-0.7847,13.916,-6.042,-15.991,-145.629,17.051,-19.407
6091,-0.2222,-0.6758,-0.7939,-8.972,-8.423,-10.681,-145.618,17.007,-19.265
6101,-0.2959,-0.4956,-0.8008,-20.142,-10.010,0.977,-145.827,17.100,-19.215
6111,-0.3599,-0.4434,-0.8042,-12.329,-7.385,11.108,-146.019,17.265,-19.270
6121,-0.3740,-0.4375,-0.8008,2.136,-3.235,12.085,-146.074,17.408,-19.352
6131,-0.3379,-0.5210,-0.7817,13.245,-1.526,5.127,-145.959,17.474,-19.391
6141,-0.2808,-0.5928,-0.7627,13.550,-2.502,-3.601,-145.772,17.463,-19.347
6151,-0.2456,-0.6318,-0.7563,6.653,-6.165,-8.057,-145.618,17.435,-19.237
6161,-0.2363,-0.6377,-0.7588,-1.831,-7.996,-7.141,-145.547,17.419,-19.127
6171,-0.2559,-0.6074,-0.7671,-10.986,-7.812,-1.404,-145.596,17.446,-19.072
6181,-0.3022,-0.5078,-0.7896,-17.090,-6.592,5.371,-145.789,17.534,-19.078
6191,-0.3379,-0.4648,-0.7959,-13.428,-3.357,9.094,-145.975,17.639,-19.138
6201,-0.3525,-0.4365,-0.7949,-5.432,-0.549,8.484,-146.102,17.726,-19.210
6211,-0.3369,-0.4814,-0.7881,3.357,1.038,3.845,-146.107,17.759,-19.248
6221,-0.3042,-0.5269,-0.7700,8.789,1.465,-2.258,-146.014,17.743,-19.237
6231,-0.2720,-0.5996,-0.7607,8.667,-0.061,-4.944,-145.871,17.693,-19.193
6241,-0.2495,-0.6577,-0.7588,2.380,-1.526,-5.127,-145.761,17.639,-19.138
6251,-0.2603,-0.6001,-0.7646,-7.751,-2.563,-2.197,-145.789,17.622,-19.105
6261,-0.3145,-0.4902,-0.7793,-14.282,-2.869,4.578,-145.959,17.682,-19.127
6271,-0.3657,-0.4185,-0.7832,-9.399,-0.122,10.132,-146.140,17.787,-19.215
6281,-0.3945,-0.3613,-0.7812,1.465,3.967,10.498,-146.250,17.880,-19.330
6291,-0.3696,-0.4375,-0.7778,13.611,7.324,5.188,-146.184,17.897,-19.418
6301,-0.3081,-0.5757,-0.7803,17.395,8.911,-4.089,-145.992,17.798,-19.435
6311,-0.2446,-0.6904,-0.7905,7.080,6.714,-12.085,-145.827,17.628,-19.369
6321,-0.1968,-0.7319,-0.8130,-9.827,2.380,-16.113,-145.811,17.446,-19.243
6331,-0.1919,-0.7070,-0.8315,-23.499,-2.380,-12.207,-145.948,17.320,-19.122
6341,-0.2383,-0.6025,-0.8452,-29.541,-6.287,-1.770,-146.212,17.320,-19.072
6351,-0.3135,-0.4644,-0.8481,-20.935,-7.629,8.911,-146.475,17.435,-19.105
6361,-0.3740,-0.3662,-0.8203,-0.671,-7.141,16.174,-146.607,17.639,-19.204
6371,-0.4111,-0.3345,-0.7896,22.034,-5.249,16.541,-146.530,17.853,-19.319
6381,-0.3892,-0.4146,-0.7593,41.260,-2.075,9.338,-146.190,17.985,-19.391
6391,-0.3252,-0.5649,-0.7168,47.729,0.061,-1.404,-145.668,17.990,-19.374
6401,-0.2720,-0.6660,-0.7051,32.959,-1.221,-9.766,-145.223,17.924,-19.286
6411,-0.2378,-0.7349,-0.7275,5.249,-2.747,-13.611,-145.025,17.820,-19.149
6421,-0.2402,-0.6709,-0.7534,-22.949,-3.662,-12.024,-145.146,17.737,-19.023
6431,-0.3047,-0.5039,-0.7842,-39.001,-3.967,-3.174,-145.541,17.754,-18.973
6441,-0.3696,-0.4561,-0.8203,-34.058,-0.366,6.714,-145.948,17.831,-19.028
6451,-0.3853,-0.4312,-0.8359,-17.944,3.906,9.521,-146.228,17.897,-19.138
6461,-0.3687,-0.4473,-0.8374,-0.610,4.578,5.798,-146.310,17.924,-19.215
6471,-0.3159,-0.5371,-0.8247,13.428,4.395,-1.038,-146.190,17.880,-19.232
6481,-0.2651,-0.6235,-0.8062,19.104,1.648,-6.165,-145.948,17.803,-19.188
6491,-0.2319,-0.6685,-0.8027,14.526,-1.282,-6.714,-145.728,17.721,-19.122
6501,-0.2354,-0.6406,-0.7983,5.310,-3.235,-2.441,-145.618,17.688,-19.078
6511,-0.2905,-0.5244,-0.7925,-2.869,-5.554,5.798,-145.662,17.759,-19.094
6521,-0.3599,-0.4678,-0.7881,-3.052,-5.859,12.207,-145.750,17.908,-19.166
6531,-0.3779,-0.4810,-0.7812,0.977,-3.845,11.475,-145.789,18.051,-19.243
6541,-0.3457,-0.5454,-0.7778,2.136,-2.808,4.639,-145.767,18.116,-19.270
6551,-0.2949,-0.6094,-0.7769,-2.197,-3.418,-3.052,-145.734,18.116,-19.221
6561,-0.2554,-0.6543,-0.7871,-10.010,-5.493,-5.981,-145.756,18.083,-19.138
6571,-0.2563,-0.5835,-0.7832,-15.869,-8.484,-3.845,-145.860,18.100,-19.056
6581,-0.3135,-0.4878,-0.7905,-13.306,-10.803,3.784,-146.008,18.215,-19.023
6591,-0.3652,-0.4399,-0.7773,-1.526,-8.545,9.521,-146.074,18.380,-19.056
6601,-0.3975,-0.3877,-0.7666,11.536,-5.310,9.705,-146.052,18.539,-19.111
6611,-0.3882,-0.4233,-0.7495,22.705,-1.587,5.249,-145.882,18.638,-19.144
6621,-0.3345,-0.5488,-0.7246,27.527,2.014,-2.502,-145.574,18.622,-19.138
6631,-0.2788,-0.6416,-0.7227,17.761,2.808,-8.545,-145.311,18.528,-19.078
6641,-0.2456,-0.6582,-0.7373,-0.366,1.770,-10.437,-145.217,18.408,-19.001
6651,-0.2466,-0.5996,-0.7563,-16.479,0.488,-6.287,-145.327,18.331,-18.946
6661,-0.2949,-0.5117,-0.7808,-23.743,-0.366,1.831,-145.580,18.336,-18.962
6671,-0.3394,-0.4614,-0.8022,-18.372,0.549,6.958,-145.827,18.386,-19.023
6681,-0.3618,-0.4268,-0.8008,-5.737,1.892,6.287,-145.970,18.441,-19.089
6691,-0.3599,-0.4302,-0.7935,7.629,2.075,1.099,-145.953,18.463,-19.111
6701,-0.3257,-0.5264,-0.7729,18.372,2.319,-5.493,-145.761,18.419,-19.078
6711,-0.2773,-0.6211,-0.7632,19.409,1.526,-10.681,-145.492,18.320,-18.995
6721,-0.2422,-0.6860,-0.7661,10.803,0.000,-12.207,-145.278,18.204,-18.885
6731,-0.2310,-0.6875,-0.7749,-2.441,-1.892,-9.094,-145.206,18.111,-18.798
6741,-0.2568,-0.6260,-0.7837,-14.038,-3.967,-2.258,-145.294,18.094,-18.754
6751,-0.3057,-0.5718,-0.7974,-17.456,-4.761,5.127,-145.464,18.149,-18.770
6761,-0.3359,-0.5288,-0.8013,-13.062,-3.174,8.484,-145.618,18.237,-18.825
6771,-0.3540,-0.4536,-0.7891,-4.700,-1.831,8.545,-145.728,18.331,-18.885
6781,-0.3574,-0.4482,-0.7769,7.263,-0.732,7.141,-145.717,18.408,-18.946
6791,-0.3379,-0.5195,-0.7607,17.761,0.244,3.723,-145.552,18.446,-18.979
6801,-0.3027,-0.5942,-0.7510,18.494,0.061,-0.488,-145.333,18.435,-18.973
6811,-0.2769,-0.6270,-0.7524,8.362,-1.282,-2.991,-145.184,18.402,-18.940
6821,-0.2666,-0.6274,-0.7656,-5.493,-2.136,-2.502,-145.184,18.369,-18.907
6831,-0.2861,-0.5967,-0.7817,-16.296,-2.197,0.793,-145.316,18.369,-18.902
6841,-0.3203,-0.5215,-0.7979,-19.775,-1.587,4.883,-145.541,18.413,-18.935
6851,-0.3530,-0.4644,-0.8032,-13.306,0.061,7.996,-145.739,18.484,-19.006
6861,-0.3735,-0.4453,-0.7920,-0.793,1.892,8.179,-145.822,18.550,-19.089
6871,-0.3652,-0.4707,-0.7861,10.498,3.540,4.761,-145.767,18.578,-19.149
6881,-0.3306,-0.5337,-0.7832,16.968,4.456,-0.610,-145.607,18.545,-19.171
6891,-0.2925,-0.6147,-0.7837,14.404,4.639,-4.700,-145.421,18.463,-19.155
6901,-0.2642,-0.6699,-0.8052,3.174,4.028,-5.920,-145.333,18.353,-19.127
6911,-0.2598,-0.6484,-0.8262,-11.414,3.052,-3.479,-145.404,18.265,-19.116
6921,-0.2842,-0.5620,-0.8457,-21.301,0.549,2.319,-145.635,18.243,-19.144
6931,-0.3428,-0.4219,-0.8442,-17.700,-3.479,8.179,-145.904,18.336,-19.193
6941,-0.3911,-0.3735,-0.8286,0.549,-6.958,10.376,-146.008,18.501,-19.243
6951,-0.4062,-0.3398,-0.7881,21.973,-10.620,6.653,-145.898,18.693,-19.237
6961,-0.3877,-0.3950,-0.7422,39.185,-14.893,-0.671,-145.541,18.869,-19.144
6971,-0.3457,-0.5435,-0.7031,44.373,-17.944,-9.155,-145.009,18.990,-18.957
6981,-0.2915,-0.6782,-0.6919,31.677,-19.348,-17.456,-144.514,19.028,-18.688
6991,-0.2471,-0.7305,-0.7026,5.737,-19.287,-21.545,-144.256,19.006,-18.386
7001,-0.2417,-0.6816,-0.7222,-20.203,-17.883,-17.761,-144.294,18.990,-18.122
7011,-0.2852,-0.5752,-0.7515,-35.034,-14.832,-7.874,-144.569,19.045,-17.963
7021,-0.3267,-0.5322,-0.7822,-31.433,-8.972,1.465,-144.882,19.127,-17.919
7031,-0.3408,-0.4966,-0.7866,-16.602,-3.357,5.310,-145.080,19.193,-17.946
7041,-0.3511,-0.4316,-0.7710,0.793,-1.526,5.249,-145.140,19.259,-17.979
7051,-0.3589,-0.4404,-0.7490,18.921,-0.732,3.845,-145.009,19.319,-18.007
7061,-0.3320,-0.5347,-0.7158,33.569,1.526,0.000,-144.662,19.319,-18.018
7071,-0.2925,-0.6318,-0.6958,33.447,3.418,-3.662,-144.256,19.248,-18.007
7081,-0.2700,-0.6914,-0.7012,16.907,4.700,-4.150,-143.998,19.149,-18.001
7091,-0.2715,-0.6348,-0.7261,-6.836,6.409,-1.526,-144.025,19.050,-18.029
7101,-0.3110,-0.5376,-0.7505,-22.766,7.812,4.272,-144.283,19.012,-18.111
7111,-0.3516,-0.4927,-0.7847,-24.719,10.315,8.850,-144.608,18.995,-18.254
7121,-0.3594,-0.4653,-0.8052,-16.052,11.353,8.179,-144.866,18.973,-18.391
7131,-0.3584,-0.4175,-0.8066,-3.967,9.155,3.845,-145.009,18.946,-18.484
7141,-0.3486,-0.4590,-0.7920,9.521,6.409,-0.549,-144.976,18.913,-18.517
7151,-0.3130,-0.5571,-0.7788,19.470,4.211,-5.249,-144.772,18.836,-18.495
7161,-0.2798,-0.5913,-0.7651,17.883,1.343,-8.301,-144.547,18.754,-18.435
7171,-0.2769,-0.6069,-0.7676,7.446,-0.488,-7.446,-144.426,18.682,-18.364
7181,-0.2954,-0.5610,-0.7725,-3.662,-1.099,-4.150,-144.443,18.655,-18.325
7191,-0.3330,-0.5010,-0.7764,-8.911,-0.977,-1.099,-144.553,18.666,-18.309
7201,-0.3623,-0.4727,-0.7754,-6.714,0.061,-0.610,-144.662,18.693,-18.303
7211,-0.3662,-0.4849,-0.7710,0.000,0.488,-3.174,-144.684,18.704,-18.281
7221,-0.3335,-0.5767,-0.7671,4.700,1.465,-8.728,-144.602,18.649,-18.210
7231,-0.2905,-0.6279,-0.7676,2.930,1.892,-13.062,-144.503,18.534,-18.111
7241,-0.2661,-0.6831,-0.7769,-2.625,1.343,-12.573,-144.437,18.408,-18.012
7251,-0.2710,-0.6431,-0.7793,-8.484,0.977,-8.972,-144.459,18.314,-17.941
7261,-0.3154,-0.5596,-0.7871,-10.803,0.366,-1.831,-144.564,18.303,-17.930
7271,-0.3574,-0.5381,-0.7871,-4.456,1.648,3.723,-144.630,18.331,-17.968
7281,-0.3740,-0.5205,-0.7822,3.906,3.235,3.723,-144.624,18.358,-18.023
7291,-0.3638,-0.5264,-0.7759,9.827,3.967,0.305,-144.547,18.358,-18.051
7301,-0.3340,-0.5723,-0.7598,14.160,3.906,-4.150,-144.388,18.314,-18.034
7311,-0.2988,-0.6460,-0.7705,13.062,2.747,-7.385,-144.201,18.232,-17.990
7321,-0.2666,-0.6597,-0.7852,8.423,1.404,-9.399,-144.053,18.127,-17.919
7331,-0.2695,-0.5977,-0.7842,5.493,-0.793,-7.507,-143.965,18.062,-17.847
7341,-0.3130,-0.5610,-0.7739,7.019,-1.770,-0.854,-143.893,18.073,-17.831
7351,-0.3491,-0.5508,-0.7583,11.536,-1.221,4.211,-143.789,18.133,-17.858
7361,-0.3496,-0.5820,-0.7358,12.939,0.671,5.127,-143.652,18.177,-17.908
7371,-0.3369,-0.5801,-0.7251,6.958,1.587,3.235,-143.569,18.204,-17.946
7381,-0.3354,-0.5581,-0.7197,-3.113,1.099,2.014,-143.597,18.226,-17.968
7391,-0.3467,-0.5176,-0.7324,-10.498,1.038,1.709,-143.718,18.259,-17.990
7401,-0.3579,-0.4951,-0.7495,-11.414,1.831,1.038,-143.866,18.281,-18.012
7411,-0.3477,-0.5469,-0.7705,-7.446,3.967,-1.526,-143.948,18.259,-18.023
7421,-0.3057,-0.5889,-0.7803,-4.761,5.859,-6.042,-143.981,18.171,-18.007
7431,-0.2808,-0.5913,-0.7969,-4.272,5.127,-7.751,-144.009,18.062,-17.974
7441,-0.2651,-0.6436,-0.7910,-1.770,4.517,-5.493,-143.987,17.957,-17.952
7451,-0.2637,-0.6323,-0.7866,-0.366,3.052,-1.526,-143.965,17.891,-17.957
7461,-0.2861,-0.5962,-0.7896,0.488,1.221,3.601,-143.965,17.886,-17.996
7471,-0.2993,-0.5835,-0.7817,2.258,0.854,6.470,-143.954,17.908,-18.056
7481,-0.2930,-0.5986,-0.7861,2.930,1.099,5.432,-143.926,17.919,-18.111
7491,-0.2803,-0.5850,-0.7944,2.319,0.793,3.113,-143.910,17.908,-18.144
7501,-0.2725,-0.5913,-0.7974,3.113,0.122,3.174,-143.882,17.897,-18.171
7511,-0.2734,-0.6060,-0.8013,4.150,-0.610,4.944,-143.844,17.908,-18.210
7521,-0.2827,-0.5698,-0.7939,3.601,-2.014,6.348,-143.828,17.941,-18.248
7531,-0.3149,-0.5015,-0.7876,4.639,-4.456,8.362,-143.828,18.034,-18.292
7541,-0.3320,-0.5015,-0.7573,9.094,-5.310,9.338,-143.784,18.149,-18.336
7551,-0.3359,-0.4932,-0.7422,10.254,-6.042,8.057,-143.718,18.270,-18.369
7561,-0.3345,-0.4956,-0.7192,6.897,-6.775,6.348,-143.668,18.391,-18.380
7571,-0.3369,-0.4883,-0.7148,-0.793,-7.812,4.761,-143.690,18.506,-18.375
7581,-0.3359,-0.5381,-0.7231,-10.376,-7.751,2.258,-143.784,18.605,-18.342
7591,-0.3096,-0.5830,-0.7451,-20.447,-5.798,-2.625,-143.948,18.627,-18.287
7601,-0.2842,-0.5928,-0.7744,-29.175,-3.296,-7.019,-144.196,18.589,-18.204
7611,-0.2852,-0.5332,-0.8032,-31.250,-1.770,-7.874,-144.503,18.539,-18.127
7621,-0.2979,-0.5142,-0.8208,-21.851,-0.061,-4.517,-144.745,18.495,-18.089
7631,-0.3179,-0.5098,-0.8047,13.672,2.197,0.488,-144.641,18.484,-18.105
7641,-0.3174,-0.5117,-0.7681,26.550,1.282,0.977,-144.399,18.484,-18.122
7651,-0.3188,-0.5576,-0.7349,29.846,-0.305,2.075,-144.097,18.501,-18.138
7661,-0.3154,-0.5786,-0.7139,22.705,-1.648,1.953,-143.839,18.534,-18.144
7671,-0.3110,-0.6016,-0.7129,8.362,-2.380,0.916,-143.718,18.556,-18.138
7681,-0.2954,-0.6143,-0.7305,-8.423,-1.831,-0.977,-143.756,18.550,-18.116
7691,-0.2900,-0.5879,-0.7583,-22.827,-1.404,-2.136,-143.959,18.534,-18.089
7701,-0.2993,-0.5327,-0.7827,-29.297,-0.977,-1.587,-144.261,18.523,-18.073
7711,-0.3149,-0.4785,-0.7866,-24.902,-0.671,-0.061,-144.547,18.528,-18.067
7721,-0.3423,-0.4531,-0.7715,-12.695,-1.709,1.648,-144.728,18.578,-18.067
7731,-0.3501,-0.4824,-0.7407,-0.610,-2.808,1.465,-144.750,18.638,-18.067
7741,-0.3320,-0.5601,-0.7173,2.502,-3.723,-0.671,-144.690,18.677,-18.034
7751,-0.3047,-0.6411,-0.7051,-7.263,-4.822,-3.540,-144.673,18.688,-17.974
7761,-0.2817,-0.6621,-0.7236,-26.794,-5.005,-5.493,-144.844,18.671,-17.897
7771,-0.2842,-0.5874,-0.7642,-44.556,-4.089,-4.517,-145.239,18.655,-17.836
7781,-0.3325,-0.4565,-0.8066,-47.119,-1.770,-1.770,-145.750,18.671,-17.809
7791,-0.3818,-0.3589,-0.8452,-29.053,2.258,-0.366,-146.157,18.688,-17.820
7801,-0.4014,-0.3022,-0.8667,5.127,6.836,-3.845,-146.250,18.660,-17.825
7811,-0.3564,-0.4351,-0.8140,43.823,9.888,-11.292,-145.860,18.545,-17.781
7821,-0.2939,-0.6392,-0.7695,62.012,8.484,-17.090,-145.162,18.358,-17.682
7831,-0.2334,-0.7891,-0.7314,50.720,3.540,-19.775,-144.487,18.155,-17.534
7841,-0.2017,-0.8208,-0.7227,20.508,-2.747,-16.907,-144.102,18.001,-17.375
7851,-0.2139,-0.7700,-0.7271,-12.573,-6.958,-7.019,-144.091,17.952,-17.271
7861,-0.2930,-0.6143,-0.7607,-36.499,-8.362,6.226,-144.421,18.040,-17.271
7871,-0.3564,-0.5186,-0.7920,-40.955,-4.272,14.832,-144.882,18.188,-17.375
7881,-0.3916,-0.4092,-0.8145,-32.288,-0.366,15.381,-145.327,18.331,-17.501
7891,-0.4043,-0.3750,-0.8140,-16.663,1.953,10.071,-145.618,18.430,-17.600
7901,-0.3765,-0.4316,-0.8042,2.380,4.028,0.793,-145.668,18.441,-17.633
7911,-0.3223,-0.5117,-0.7798,17.639,4.944,-7.751,-145.492,18.364,-17.595
7921,-0.2900,-0.6084,-0.7544,23.926,3.235,-10.132,-145.190,18.265,-17.529
7931,-0.2725,-0.6841,-0.7568,15.991,1.587,-7.996,-144.943,18.171,-17.468
7941,-0.2705,-0.6553,-0.7598,-0.610,0.610,-3.662,-144.882,18.116,-17.441
7951,-0.3018,-0.5991,-0.7783,-16.724,-0.916,2.930,-145.025,18.127,-17.457
7961,-0.3369,-0.5386,-0.7959,-23.376,0.061,7.385,-145.289,18.182,-17.523
7971,-0.3560,-0.4961,-0.8179,-20.569,0.793,7.324,-145.547,18.237,-17.589
7981,-0.3452,-0.5151,-0.8159,-10.437,1.343,3.906,-145.684,18.265,-17.633
7991,-0.3208,-0.5342,-0.8140,-0.549,1.892,-0.610,-145.701,18.248,-17.639
8001,-0.3062,-0.5347,-0.8052,10.376,0.977,-2.258,-145.602,18.221,-17.622
8011,-0.3042,-0.5557,-0.7715,21.179,-0.549,-0.854,-145.377,18.215,-17.617
8021,-0.3232,-0.5518,-0.7471,25.024,-2.625,1.892,-145.113,18.254,-17.617
8031,-0.3330,-0.5630,-0.7358,21.606,-4.028,3.357,-144.871,18.320,-17.622
8041,-0.3223,-0.5708,-0.7202,12.207,-3.479,2.991,-144.723,18.380,-17.622
8051,-0.3237,-0.5308,-0.7129,-0.488,-4.333,2.686,-144.712,18.446,-17.622
8061,-0.3359,-0.5591,-0.7119,-10.254,-4.761,3.235,-144.783,18.523,-17.622
8071,-0.3364,-0.5591,-0.7466,-17.090,-3.357,-0.061,-144.932,18.561,-17.600
8081,-0.3374,-0.5454,-0.7896,-15.259,-0.916,-5.554,-145.069,18.545,-17.545
8091,-0.3276,-0.5518,-0.8262,-0.366,3.174,-11.108,-145.058,18.452,-17.468
8101,-0.2954,-0.5742,-0.8218,22.522,6.897,-13.733,-144.811,18.298,-17.391
8111,-0.2871,-0.5815,-0.7720,43.701,6.775,-9.277,-144.349,18.171,-17.353
8121,-0.3120,-0.6602,-0.7192,52.612,4.395,2.563,-143.773,18.149,-17.402
8131,-0.3032,-0.7334,-0.6851,41.504,3.479,11.230,-143.295,18.171,-17.518
8141,-0.2866,-0.7207,-0.6665,14.832,2.502,15.198,-143.086,18.226,-17.661
8151,-0.3018,-0.6309,-0.6699,-18.188,1.648,18.799,-143.251,18.320,-17.831
8161,-0.3457,-0.4775,-0.7124,-42.725,2.686,20.935,-143.767,18.463,-18.023
8171,-0.3896,-0.3428,-0.7593,-45.959,6.165,19.043,-144.404,18.589,-18.226
8181,-0.4121,-0.2993,-0.8081,-30.762,10.376,13.000,-144.915,18.649,-18.402
8191,-0.3608,-0.4077,-0.8423,-6.897,15.015,1.221,-145.107,18.561,-18.501
8201,-0.2671,-0.5718,-0.8271,11.047,16.235,-11.780,-144.998,18.325,-18.495
8211,-0.2046,-0.6426,-0.8208,12.573,11.108,-16.602,-144.822,18.067,-18.424
8221,-0.1904,-0.6504,-0.7891,7.263,4.761,-11.658,-144.684,17.886,-18.353
8231,-0.2388,-0.5713,-0.7720,0.000,-0.549,1.038,-144.673,17.858,-18.358
8241,-0.3057,-0.5317,-0.7563,-4.578,-2.502,13.306,-144.750,17.957,-18.457
8251,-0.3433,-0.4839,-0.7671,-8.362,-0.854,15.808,-144.904,18.083,-18.583
8261,-0.3467,-0.4580,-0.7783,-12.939,1.892,10.620,-145.107,18.160,-18.688
8271,-0.3145,-0.4761,-0.7886,-15.137,5.005,1.953,-145.311,18.138,-18.737
8281,-0.2715,-0.5620,-0.8105,-14.893,7.507,-5.249,-145.459,18.018,-18.737
8291,-0.2266,-0.6045,-0.8291,-14.709,7.568,-8.545,-145.580,17.853,-18.704
8301,-0.2275,-0.5435,-0.8354,-12.695,4.883,-6.104,-145.712,17.726,-18.682
8311,-0.2847,-0.4741,-0.8398,-5.859,1.160,1.770,-145.827,17.715,-18.704
8321,-0.3354,-0.4453,-0.8223,5.981,0.427,7.324,-145.844,17.776,-18.770
8331,-0.3501,-0.3979,-0.8027,17.395,0.977,6.592,-145.767,17.836,-18.836
8341,-0.3462,-0.4336,-0.7725,25.391,1.221,2.991,-145.574,17.880,-18.869
8351,-0.3174,-0.5508,-0.7622,23.193,1.343,-2.747,-145.327,17.864,-18.853
8361,-0.2656,-0.6484,-0.7661,8.423,0.732,-9.827,-145.162,17.770,-18.770
8371,-0.2217,-0.6841,-0.7852,-11.597,-1.831,-14.893,-145.173,17.644,-18.633
8381,-0.2300,-0.5937,-0.7959,-26.978,-5.493,-12.573,-145.382,17.573,-18.490
8391,-0.3013,-0.4683,-0.8213,-29.297,-7.996,-3.906,-145.695,17.617,-18.408
8401,-0.3584,-0.4380,-0.8335,-13.611,-5.676,2.747,-145.893,17.710,-18.397
8411,-0.3711,-0.4473,-0.8188,7.446,-1.831,2.502,-145.876,17.776,-18.408
8421,-0.3428,-0.4893,-0.7935,22.217,0.427,-3.052,-145.673,17.781,-18.386
8431,-0.3027,-0.5620,-0.7598,26.428,0.671,-7.507,-145.371,17.732,-18.325
8441,-0.2754,-0.6504,-0.7495,19.287,-0.488,-8.789,-145.096,17.666,-18.243
8451,-0.2441,-0.7275,-0.7563,3.784,-1.099,-8.362,-144.943,17.584,-18.166
8461,-0.2324,-0.7114,-0.7764,-15.869,-1.709,-5.249,-145.009,17.512,-18.111
8471,-0.2822,-0.5518,-0.8003,-30.151,-3.479,1.831,-145.311,17.540,-18.105
8481,-0.3584,-0.4062,-0.8174,-27.710,-3.784,9.460,-145.684,17.661,-18.166
8491,-0.4170,-0.3447,-0.8101,-9.216,-1.831,12.634,-145.920,17.825,-18.265
8501,-0.4160,-0.3306,-0.7896,13.672,0.122,7.812,-145.915,17.946,-18.331
8511,-0.3735,-0.4453,-0.7686,31.006,1.038,-2.136,-145.646,17.979,-18.320
8521,-0.2910,-0.6499,-0.7622,32.715,2.075,-14.526,-145.228,17.858,-18.204
8531,-0.2192,-0.7666,-0.7881,17.334,0.977,-25.635,-144.893,17.644,-17.990
8541,-0.1875,-0.7539,-0.8125,-4.028,-1.038,-27.039,-144.789,17.419,-17.754
8551,-0.2314,-0.6436,-0.8345,-17.761,-3.540,-16.296,-144.888,17.303,-17.589
8561,-0.3291,-0.4946,-0.8442,-13.000,-5.554,-1.343,-145.052,17.353,-17.545
8571,-0.4048,-0.4429,-0.8247,7.446,-5.127,8.911,-145.058,17.507,-17.595
8581,-0.4175,-0.4536,-0.7827,29.419,-5.432,9.033,-144.833,17.672,-17.639
8591,-0.3745,-0.5591,-0.7280,40.344,-7.141,2.075,-144.399,17.787,-17.611
8601,-0.3174,-0.6943,-0.6870,32.288,-9.949,-5.798,-143.948,17.836,-17.501
8611,-0.2646,-0.7222,-0.6802,10.193,-12.817,-10.986,-143.690,17.847,-17.331
8621,-0.2529,-0.6626,-0.6929,-14.099,-14.343,-8.606,-143.707,17.880,-17.166
8631,-0.3022,-0.5547,-0.7227,-29.053,-13.550,0.183,-143.959,17.996,-17.084
8642,-0.3535,-0.4741,-0.7690,-28.198,-8.484,5.920,-144.278,18.127,-17.084
8651,-0.3662,-0.4448,-0.7959,-14.038,-2.869,5.127,-144.492,18.221,-17.111
8661,-0.3359,-0.4751,-0.7881,4.150,-0.244,-0.793,-144.492,18.237,-17.100
8671,-0.2861,-0.5679,-0.7676,18.127,-0.549,-6.104,-144.283,18.188,-17.045
8681,-0.2495,-0.6514,-0.7368,21.301,-3.235,-7.507,-143.992,18.133,-16.963
8691,-0.2354,-0.6792,-0.7207,16.846,-6.348,-4.822,-143.729,18.105,-16.880
8701,-0.2412,-0.6831,-0.7031,6.836,-6.531,1.099,-143.569,18.122,-16.848
8711,-0.2886,-0.5732,-0.7187,-6.958,-6.104,8.667,-143.630,18.215,-16.886
8721,-0.3281,-0.5630,-0.7441,-13.794,-2.441,13.611,-143.789,18.325,-16.985
8731,-0.3218,-0.5635,-0.7686,-16.357,2.991,11.047,-143.987,18.369,-17.095
8741,-0.3066,-0.4897,-0.7861,-17.639,5.798,6.409,-144.229,18.364,-17.188
8751,-0.3081,-0.4902,-0.7896,-11.108,6.897,5.493,-144.404,18.336,-17.276
8761,-0.3032,-0.5420,-0.7886,-1.282,7.324,4.761,-144.454,18.298,-17.364
8771,-0.2993,-0.5547,-0.7837,4.822,5.493,3.113,-144.432,18.259,-17.424
8781,-0.2930,-0.5703,-0.7827,5.615,2.991,2.625,-144.382,18.237,-17.463
8791,-0.3013,-0.5391,-0.7817,3.052,1.099,2.747,-144.371,18.237,-17.496
8801,-0.3242,-0.5181,-0.7861,-0.183,-0.732,4.456,-144.404,18.281,-17.529
8811,-0.3359,-0.4922,-0.7837,-0.305,-0.732,5.005,-144.454,18.331,-17.567
8821,-0.3374,-0.4951,-0.7808,1.587,-0.732,3.418,-144.481,18.375,-17.589
8831,-0.3257,-0.5493,-0.7744,2.502,-0.549,0.305,-144.454,18.386,-17.589
8841,-0.3042,-0.5537,-0.7671,-0.244,-1.038,-3.235,-144.443,18.369,-17.556
8851,-0.3115,-0.5312,-0.7593,-2.319,-3.174,-3.479,-144.459,18.375,-17.507
8861,-0.3208,-0.5356,-0.7339,0.305,-4.517,-2.136,-144.437,18.413,-17.463
8871,-0.3413,-0.5024,-0.7109,2.930,-5.615,-1.099,-144.393,18.479,-17.419
8881,-0.3535,-0.5249,-0.7114,3.906,-5.188,-0.305,-144.338,18.556,-17.380
8891,-0.3442,-0.5332,-0.7158,2.747,-0.427,-1.953,-144.294,18.572,-17.364
8901,-0.3291,-0.5601,-0.7417,-1.953,5.554,-3.235,-144.300,18.517,-17.369
8911,-0.2944,-0.6035,-0.7642,-8.667,12.024,-3.967,-144.371,18.380,-17.408
8921,-0.2900,-0.5342,-0.7939,-16.235,14.709,-4.089,-144.569,18.221,-17.463
8931,-0.3174,-0.4878,-0.8057,-18.127,13.550,-1.221,-144.811,18.111,-17.540
8941,-0.3345,-0.4868,-0.8179,-13.367,10.559,-0.427,-145.009,18.034,-17.595
8951,-0.3271,-0.5205,-0.8184,-7.935,6.592,-4.211,-145.113,17.963,-17.600
8961,-0.3252,-0.4687,-0.8091,-4.944,0.916,-9.399,-145.184,17.913,-17.523
8971,-0.3413,-0.4746,-0.7954,0.061,-2.991,-11.353,-145.190,17.897,-17.408
8981,-0.3320,-0.5718,-0.7856,5.859,-3.235,-13.123,-145.080,17.858,-17.276
8991,-0.2744,-0.7129,-0.7974,4.517,-1.587,-17.029,-144.921,17.743,-17.122
9001,-0.2036,-0.7959,-0.8184,-6.042,-0.122,-20.325,-144.833,17.551,-16.946
9011,-0.1675,-0.8125,-0.8315,-19.470,-0.427,-17.883,-144.888,17.358,-16.787
9021,-0.2051,-0.6284,-0.8369,-28.015,-2.808,-7.568,-145.124,17.276,-16.705
9031,-0.3154,-0.4365,-0.8281,-18.616,-4.211,8.545,-145.393,17.375,-16.754
9041,-0.3999,-0.3672,-0.7905,10.071,-1.099,19.470,-145.437,17.562,-16.919
9051,-0.4258,-0.3350,-0.7529,37.354,2.625,18.738,-145.228,17.743,-17.095
9061,-0.3931,-0.4687,-0.7070,52.856,5.615,10.010,-144.750,17.825,-17.216
9071,-0.3198,-0.6592,-0.6812,44.739,6.226,-2.136,-144.229,17.770,-17.232
9081,-0.2461,-0.7500,-0.6982,14.221,3.662,-14.038,-143.943,17.622,-17.139
9091,-0.1880,-0.7993,-0.7451,-21.362,0.549,-18.738,-143.998,17.430,-16.979
9101,-0.1802,-0.7539,-0.7974,-49.438,-1.953,-14.648,-144.377,17.276,-16.848
9111,-0.2407,-0.5542,-0.8530,-59.387,-3.906,-4.333,-144.970,17.243,-16.782
9121,-0.3193,-0.4624,-0.8945,-42.053,-3.113,7.996,-145.481,17.320,-16.837
9131,-0.3516,-0.4409,-0.8765,-9.521,0.000,13.000,-145.684,17.413,-16.946
9142,-0.3672,-0.4043,-0.8340,19.592,0.427,11.536,-145.607,17.518,-17.051
9151,-0.3491,-0.4624,-0.7739,42.786,0.549,8.118,-145.239,17.595,-17.122
9161,-0.3223,-0.5532,-0.7168,53.345,0.061,4.150,-144.695,17.639,-17.161
9171,-0.2925,-0.6279,-0.6943,44.556,-1.038,0.305,-144.185,17.644,-17.155
9181,-0.2710,-0.6714,-0.6973,23.010,-1.953,-1.465,-143.866,17.633,-17.128
9191,-0.2705,-0.6284,-0.7192,-3.723,-2.747,-0.488,-143.844,17.633,-17.111
9201,-0.3042,-0.5537,-0.7549,-22.583,-3.052,2.686,-144.069,17.677,-17.111
9211,-0.3330,-0.5068,-0.7896,-26.428,-1.465,4.761,-144.371,17.737,-17.144
9221,-0.3501,-0.4365,-0.8047,-18.188,-0.427,4.211,-144.635,17.792,-17.177
9231,-0.3521,-0.4487,-0.7969,-2.991,0.671,2.441,-144.734,17.836,-17.205
9241,-0.3354,-0.4854,-0.7754,13.428,1.465,-1.282,-144.630,17.842,-17.199
9251,-0.2939,-0.5884,-0.7515,22.217,1.221,-4.333,-144.377,17.798,-17.172
9261,-0.2559,-0.6758,-0.7402,17.944,-0.061,-5.432,-144.113,17.732,-17.122
9271,-0.2373,-0.6787,-0.7490,3.113,-1.282,-4.211,-144.009,17.672,-17.078
9281,-0.2568,-0.6216,-0.7529,-11.597,-2.014,1.160,-144.086,17.666,-17.078
9291,-0.3213,-0.4844,-0.7671,-18.188,-2.808,7.690,-144.316,17.754,-17.128
9301,-0.3682,-0.4580,-0.7725,-10.498,-0.854,11.108,-144.498,17.869,-17.216
9311,-0.3765,-0.4321,-0.7666,1.648,1.099,7.996,-144.569,17.957,-17.292
9321,-0.3521,-0.5078,-0.7485,11.536,1.892,1.526,-144.470,17.985,-17.314
9331,-0.2905,-0.6226,-0.7476,12.268,2.625,-5.615,-144.300,17.919,-17.281
9341,-0.2373,-0.7100,-0.7539,2.686,1.709,-10.193,-144.174,17.798,-17.205
9351,-0.2109,-0.7075,-0.7686,-11.963,0.610,-9.460,-144.201,17.672,-17.128
9361,-0.2490,-0.5562,-0.7788,-23.437,-0.549,-1.770,-144.432,17.633,-17.111
9371,-0.3550,-0.3413,-0.7798,-18.677,-1.465,9.827,-144.756,17.754,-17.188
9381,-0.4492,-0.2310,-0.7598,3.479,1.709,17.883,-144.954,17.957,-17.347
9391,-0.4702,-0.2187,-0.7520,30.151,6.714,14.587,-144.893,18.116,-17.518
9401,-0.3984,-0.4976,-0.7183,49.194,12.085,0.427,-144.437,18.089,-17.595
9411,-0.2734,-0.7427,-0.6997,38.940,13.306,-19.470,-143.910,17.836,-17.507
9421,-0.1748,-0.7769,-0.7295,4.517,6.592,-33.997,-143.685,17.501,-17.260
9431,-0.1230,-0.8311,-0.7725,-27.466,-0.488,-33.691,-143.762,17.194,-16.974
9441,-0.1479,-0.6704,-0.8052,-47.424,-5.554,-21.423,-144.135,17.023,-16.754
9451,-0.2949,-0.3809,-0.8428,-42.053,-9.338,-1.160,-144.646,17.095,-16.688
9461,-0.4116,-0.3286,-0.8545,-8.301,-5.127,16.602,-144.904,17.303,-16.798
9471,-0.4243,-0.3726,-0.8379,29.663,3.418,16.968,-144.772,17.446,-16.968
9481,-0.3687,-0.4824,-0.7983,56.396,8.362,4.272,-144.278,17.446,-17.051
9491,-0.2612,-0.7397,-0.7485,63.660,9.155,-9.888,-143.553,17.281,-17.023
9501,-0.1641,-0.9492,-0.7349,45.044,5.615,-20.630,-142.905,17.018,-16.886
9511,-0.0835,-1.0200,-0.7539,7.751,0.793,-23.804,-142.608,16.738,-16.694
9521,-0.1172,-0.7671,-0.7607,-28.564,-6.958,-12.512,-142.773,16.611,-16.545
9531,-0.2949,-0.4414,-0.7793,-42.114,-12.146,12.268,-143.273,16.798,-16.573
9541,-0.4253,-0.3784,-0.7920,-24.719,-5.981,31.616,-143.696,17.122,-16.798
9551,-0.4551,-0.4111,-0.7954,-0.854,4.517,31.555,-143.877,17.369,-17.089
9561,-0.4116,-0.4536,-0.7812,19.409,10.437,17.578,-143.811,17.463,-17.303
9571,-0.3218,-0.5864,-0.7480,24.231,11.597,2.014,-143.575,17.391,-17.391
9581,-0.2529,-0.6665,-0.7310,14.771,7.568,-9.033,-143.361,17.249,-17.364
9591,-0.2158,-0.7012,-0.7422,-0.366,2.991,-12.512,-143.273,17.095,-17.276
9601,-0.2134,-0.7046,-0.7642,-15.686,-0.671,-7.507,-143.350,17.001,-17.210
9611,-0.2607,-0.6299,-0.7886,-26.550,-2.563,1.099,-143.591,17.007,-17.205
9621,-0.3208,-0.4932,-0.8203,-28.503,-1.892,7.996,-143.943,17.084,-17.260
9631,-0.3687,-0.4282,-0.8174,-14.771,-0.244,12.329,-144.201,17.205,-17.364
9642,-0.3657,-0.4697,-0.8032,3.784,1.770,10.559,-144.250,17.292,-17.463
9651,-0.3262,-0.5420,-0.7886,16.235,2.319,3.723,-144.113,17.309,-17.507
9661,-0.2798,-0.5913,-0.7578,20.996,0.122,-2.380,-143.882,17.287,-17.490
9671,-0.2578,-0.6392,-0.7471,15.808,-2.502,-4.150,-143.663,17.254,-17.441
9681,-0.2544,-0.6567,-0.7441,5.249,-3.357,-2.563,-143.547,17.238,-17.397
9691,-0.2822,-0.5937,-0.7622,-5.371,-4.211,1.709,-143.586,17.271,-17.386
9701,-0.3125,-0.5723,-0.7749,-9.155,-2.319,5.798,-143.685,17.331,-17.419
9711,-0.3301,-0.5049,-0.7803,-7.629,-0.549,6.531,-143.811,17.397,-17.468
9721,-0.3486,-0.4414,-0.7666,-1.343,-0.732,6.409,-143.899,17.479,-17.523
9731,-0.3560,-0.4385,-0.7544,8.972,-2.014,5.127,-143.877,17.573,-17.551
9741,-0.3354,-0.5308,-0.7319,18.494,-2.441,1.404,-143.696,17.628,-17.551
9751,-0.2930,-0.6338,-0.7217,15.320,-3.052,-4.089,-143.481,17.622,-17.496
9761,-0.2515,-0.7017,-0.7344,1.587,-3.845,-8.911,-143.361,17.562,-17.397
9771,-0.2256,-0.7358,-0.7573,-15.686,-3.784,-10.803,-143.410,17.474,-17.281
9781,-0.2334,-0.6558,-0.7803,-29.846,-3.174,-8.545,-143.641,17.402,-17.188
9791,-0.2827,-0.5015,-0.8027,-30.212,-2.747,-1.465,-143.976,17.408,-17.161
9801,-0.3335,-0.4409,-0.8022,-13.000,-0.610,6.897,-144.190,17.479,-17.216
9811,-0.3608,-0.4224,-0.7783,10.620,1.770,9.705,-144.190,17.573,-17.309
9821,-0.3491,-0.4888,-0.7446,29.419,2.930,6.836,-143.943,17.622,-17.386
9831,-0.3105,-0.5894,-0.7051,34.180,2.441,1.831,-143.580,17.628,-17.413
9841,-0.2749,-0.6812,-0.7075,22.339,0.671,-3.601,-143.273,17.578,-17.386
9851,-0.2441,-0.7266,-0.7427,1.892,0.793,-7.690,-143.163,17.485,-17.331
9861,-0.2432,-0.6670,-0.7915,-17.395,2.258,-8.240,-143.284,17.375,-17.276
9871,-0.3027,-0.4805,-0.8481,-23.682,2.991,-3.845,-143.586,17.325,-17.260
9881,-0.3711,-0.4146,-0.8901,-7.629,4.517,1.343,-143.789,17.331,-17.298
9891,-0.3862,-0.4375,-0.8843,22.949,5.798,-0.122,-143.668,17.325,-17.336
9901,-0.3599,-0.5337,-0.8364,51.025,1.099,-6.531,-143.190,17.303,-17.287
9911,-0.2998,-0.7026,-0.7690,61.768,-7.507,-12.756,-142.476,17.276,-17.133
9921,-0.2588,-0.7642,-0.7168,50.720,-19.043,-16.663,-141.806,17.292,-16.870
9931,-0.2559,-0.7451,-0.6797,30.151,-29.297,-14.465,-141.317,17.402,-16.562
9941,-0.2842,-0.7021,-0.6479,10.498,-33.752,-6.104,-141.048,17.617,-16.293
9951,-0.3452,-0.5957,-0.6489,-3.845,-32.593,2.197,-140.993,17.919,-16.095
9961,-0.3789,-0.5674,-0.6626,-8.118,-24.658,5.249,-141.021,18.199,-15.974
9971,-0.3594,-0.5864,-0.6753,-7.385,-14.404,2.625,-141.048,18.358,-15.903
9981,-0.3223,-0.5796,-0.6934,-6.714,-5.188,-2.075,-141.092,18.402,-15.848
9991,-0.2847,-0.6011,-0.7036,-2.808,2.258,-3.723,-141.097,18.347,-15.837
10001,-0.2593,-0.6235,-0.7061,2.808,6.775,-0.977,-141.059,18.259,-15.870
10011,-0.2671,-0.6099,-0.7134,5.127,7.751,3.906,-141.015,18.199,-15.952
10021,-0.2827,-0.6157,-0.7227,4.700,7.812,7.996,-140.993,18.171,-16.073
10031,-0.2847,-0.5898,-0.7310,1.282,7.874,8.850,-141.021,18.155,-16.194
10041,-0.2954,-0.5723,-0.7427,-2.930,6.653,8.850,-141.097,18.149,-16.315
10051,-0.2949,-0.5728,-0.7500,-5.737,5.554,7.935,-141.202,18.149,-16.414
10061,-0.2871,-0.5757,-0.7603,-6.897,3.906,5.920,-141.306,18.144,-16.490
10071,-0.2808,-0.5913,-0.7598,-6.348,2.258,4.333,-141.394,18.133,-16.540
10081,-0.2759,-0.6030,-0.7661,-7.080,0.488,3.540,-141.476,18.127,-16.573
10091,-0.2783,-0.5898,-0.7646,-7.568,-1.282,3.784,-141.570,18.138,-16.595
10101,-0.3003,-0.5186,-0.7603,-5.615,-3.052,5.310,-141.674,18.199,-16.617
10111,-0.3428,-0.4546,-0.7471,0.854,-4.211,7.507,-141.746,18.309,-16.650
10121,-0.3647,-0.4795,-0.7280,10.742,-3.418,7.141,-141.702,18.424,-16.688
10131,-0.3418,-0.5610,-0.7148,15.320,-1.465,2.136,-141.553,18.468,-16.699
10142,-0.3047,-0.6138,-0.7158,10.559,-0.610,-4.517,-141.411,18.441,-16.655
10151,-0.2671,-0.6694,-0.7300,-0.427,0.000,-7.935,-141.356,18.358,-16.589
10161,-0.2505,-0.6694,-0.7441,-11.292,0.122,-8.057,-141.416,18.265,-16.523
10171,-0.2549,-0.6772,-0.7539,-18.616,-0.122,-4.517,-141.553,18.193,-16.485
10181,-0.2773,-0.6245,-0.7729,-21.545,-0.549,0.427,-141.762,18.177,-16.485
10191,-0.3145,-0.5620,-0.7817,-17.151,-0.366,5.249,-141.971,18.210,-16.529
10201,-0.3374,-0.5278,-0.7734,-5.554,0.793,7.812,-142.086,18.270,-16.600
10211,-0.3491,-0.5259,-0.7603,7.568,1.953,7.385,-142.064,18.320,-16.672
10221,-0.3418,-0.5142,-0.7388,17.578,2.563,4.578,-141.938,18.353,-16.727
10231,-0.3276,-0.5762,-0.7187,21.912,2.441,2.747,-141.729,18.364,-16.765
10241,-0.3066,-0.6699,-0.7109,15.259,2.197,1.038,-141.531,18.342,-16.787
10251,-0.2783,-0.7085,-0.7217,-2.441,1.099,-1.099,-141.498,18.298,-16.787
10261,-0.2798,-0.6641,-0.7402,-21.667,-0.610,-0.366,-141.674,18.276,-16.782
10271,-0.3130,-0.5630,-0.7627,-31.433,-2.136,3.601,-142.009,18.314,-16.793
10281,-0.3579,-0.4888,-0.7778,-26.917,-2.136,7.690,-142.350,18.408,-16.848
10291,-0.3828,-0.4351,-0.7817,-11.780,-1.282,8.118,-142.570,18.512,-16.902
10301,-0.3823,-0.4619,-0.7637,6.409,-0.671,4.456,-142.581,18.594,-16.935
10311,-0.3394,-0.5933,-0.7388,18.494,-0.305,-2.441,-142.377,18.594,-16.913
10321,-0.2793,-0.7056,-0.7227,14.648,-1.587,-8.789,-142.136,18.523,-16.831
10331,-0.2393,-0.7432,-0.7275,-0.427,-4.395,-11.108,-142.026,18.430,-16.710
10341,-0.2485,-0.6890,-0.7280,-15.930,-6.958,-6.592,-142.097,18.402,-16.611
10351,-0.3115,-0.5771,-0.7441,-23.865,-8.057,3.296,-142.328,18.484,-16.584
10361,-0.3623,-0.5220,-0.7578,-17.395,-5.493,10.254,-142.548,18.616,-16.639
10371,-0.3818,-0.4766,-0.7559,-3.906,-1.892,10.742,-142.663,18.743,-16.716
10381,-0.3740,-0.4648,-0.7437,10.071,0.671,6.897,-142.635,18.820,-16.776
10391,-0.3389,-0.5742,-0.7114,20.691,2.319,2.014,-142.427,18.831,-16.809
10401,-0.2979,-0.6636,-0.6973,17.883,1.892,-2.502,-142.185,18.787,-16.798
10411,-0.2754,-0.6782,-0.7070,4.333,0.183,-4.761,-142.070,18.726,-16.760
10421,-0.2754,-0.6743,-0.7158,-9.399,-0.488,-2.625,-142.103,18.682,-16.738
10431,-0.3120,-0.5776,-0.7397,-19.226,-0.244,1.709,-142.295,18.688,-16.749
10441,-0.3516,-0.5259,-0.7710,-17.761,1.709,5.859,-142.526,18.732,-16.809
10451,-0.3584,-0.5127,-0.7759,-7.263,4.822,6.104,-142.663,18.754,-16.891
10461,-0.3481,-0.5161,-0.7700,3.906,5.981,2.808,-142.679,18.743,-16.952
10471,-0.3315,-0.5176,-0.7461,13.000,4.639,-0.183,-142.586,18.721,-16.979
10481,-0.3174,-0.5996,-0.7261,17.212,1.770,-0.366,-142.394,18.699,-16.990
10491,-0.2891,-0.7036,-0.7183,11.414,0.061,-1.221,-142.213,18.666,-16.979
10501,-0.2705,-0.6982,-0.7241,-4.761,-1.892,-2.075,-142.185,18.633,-16.952
10511,-0.2886,-0.6357,-0.7476,-20.996,-3.296,1.404,-142.366,18.644,-16.941
10521,-0.3271,-0.5513,-0.7710,-26.672,-1.953,6.042,-142.663,18.699,-16.979
10531,-0.3594,-0.4795,-0.7935,-19.592,0.488,8.057,-142.943,18.770,-17.051
10541,-0.3755,-0.4546,-0.7944,-3.479,3.296,6.897,-143.075,18.820,-17.128
10551,-0.3506,-0.4873,-0.7852,14.709,4.700,1.892,-142.993,18.814,-17.172
10561,-0.3164,-0.5605,-0.7388,26.123,3.357,-2.930,-142.734,18.770,-17.172
10571,-0.3096,-0.5923,-0.7168,22.949,-1.160,-3.540,-142.471,18.754,-17.133
10581,-0.3042,-0.6626,-0.7109,11.963,-4.150,-2.991,-142.278,18.754,-17.084
10591,-0.2900,-0.6816,-0.7207,-4.822,-4.761,-3.052,-142.256,18.748,-17.023
10601,-0.3032,-0.6064,-0.7510,-21.790,-4.822,-1.282,-142.443,18.765,-16.985
10611,-0.3311,-0.5488,-0.7769,-26.550,-3.906,1.343,-142.729,18.809,-16.968
10621,-0.3423,-0.5308,-0.7886,-19.775,-1.953,1.953,-142.954,18.847,-16.974
10631,-0.3428,-0.5229,-0.7896,-7.141,-1.099,0.427,-143.064,18.869,-16.968
10642,-0.3408,-0.5112,-0.7700,7.568,-1.160,-1.526,-143.015,18.880,-16.952
10651,-0.3408,-0.5327,-0.7437,20.752,-1.160,-2.869,-142.811,18.891,-16.919
10661,-0.3242,-0.6074,-0.7163,27.222,-0.427,-3.845,-142.498,18.869,-16.880
10671,-0.2939,-0.6797,-0.7036,22.278,-0.061,-4.639,-142.202,18.825,-16.842
10681,-0.2769,-0.7114,-0.7041,5.981,-0.427,-3.113,-142.059,18.776,-16.815
10691,-0.2817,-0.6812,-0.7212,-13.550,-0.427,0.427,-142.136,18.748,-16.815
10701,-0.3105,-0.5884,-0.7476,-26.245,-0.061,5.249,-142.410,18.776,-16.859
10711,-0.3477,-0.5210,-0.7759,-25.940,2.258,8.911,-142.729,18.831,-16.946
10721,-0.3618,-0.4854,-0.7886,-14.404,5.432,8.423,-142.965,18.864,-17.051
10731,-0.3691,-0.4346,-0.7817,1.343,6.653,4.761,-143.058,18.875,-17.133
10741,-0.3628,-0.4492,-0.7524,17.273,6.226,0.977,-142.960,18.864,-17.183
10751,-0.3457,-0.5200,-0.7251,26.611,4.639,-1.770,-142.718,18.842,-17.199
10761,-0.3193,-0.6436,-0.7065,23.071,2.136,-4.272,-142.432,18.798,-17.177
10771,-0.2778,-0.7002,-0.7124,5.371,-0.427,-7.263,-142.289,18.721,-17.111
10781,-0.2603,-0.7139,-0.7358,-17.334,-3.113,-6.958,-142.372,18.660,-17.034
10791,-0.2739,-0.6567,-0.7573,-34.485,-4.456,-3.723,-142.657,18.638,-16.974
10801,-0.3267,-0.5049,-0.7896,-37.903,-4.395,1.099,-143.075,18.688,-16.957
10811,-0.3721,-0.4570,-0.8066,-22.400,-1.526,5.798,-143.383,18.765,-16.996
10821,-0.3804,-0.4712,-0.8037,1.831,2.197,4.639,-143.448,18.809,-17.045
10831,-0.3457,-0.5093,-0.7827,21.790,3.601,-1.160,-143.267,18.787,-17.062
10841,-0.3022,-0.6191,-0.7427,31.555,1.465,-4.700,-142.916,18.732,-17.029
10851,-0.2778,-0.7070,-0.7202,25.513,-3.052,-5.310,-142.570,18.693,-16.968
10861,-0.2690,-0.7202,-0.7271,8.423,-7.324,-3.601,-142.388,18.688,-16.891
10871,-0.2886,-0.6846,-0.7339,-10.071,-9.216,1.099,-142.416,18.743,-16.837
10881,-0.3364,-0.5718,-0.7559,-21.118,-9.521,5.737,-142.630,18.858,-16.826
10891,-0.3760,-0.5103,-0.7715,-19.531,-7.935,7.690,-142.866,19.001,-16.837
10901,-0.3892,-0.4678,-0.7764,-7.751,-5.737,5.737,-143.004,19.122,-16.853
10911,-0.3804,-0.4858,-0.7676,8.484,-3.357,0.366,-142.960,19.188,-16.831
10921,-0.3418,-0.5444,-0.7397,24.475,-0.671,-5.432,-142.712,19.171,-16.782
10931,-0.3115,-0.6206,-0.7031,30.518,-0.488,-6.714,-142.350,19.127,-16.721
10941,-0.3096,-0.6533,-0.6899,23.743,-2.197,-4.395,-142.037,19.111,-16.672
10951,-0.3135,-0.6616,-0.6992,10.071,-2.686,-1.343,-141.872,19.111,-16.644
10961,-0.3213,-0.6138,-0.7158,-4.028,-1.770,1.343,-141.888,19.127,-16.644
10971,-0.3379,-0.5596,-0.7329,-11.475,-0.610,3.235,-142.020,19.166,-16.666
10981,-0.3418,-0.5581,-0.7485,-10.681,0.916,3.113,-142.147,19.188,-16.699
10991,-0.3228,-0.6021,-0.7432,-6.409,2.563,1.221,-142.207,19.166,-16.727
11001,-0.3003,-0.6030,-0.7427,-4.578,2.991,-0.122,-142.245,19.127,-16.743
11011,-0.2988,-0.6108,-0.7393,-3.601,3.052,2.380,-142.278,19.100,-16.782
11021,-0.3032,-0.6035,-0.7397,-2.869,4.211,5.493,-142.311,19.083,-16.853
11031,-0.3281,-0.5449,-0.7573,-2.991,4.822,7.751,-142.394,19.094,-16.952
11041,-0.3467,-0.5317,-0.7671,-0.854,6.409,8.240,-142.465,19.105,-17.062
11051,-0.3403,-0.5386,-0.7720,1.282,8.179,5.676,-142.515,19.083,-17.161
11061,-0.3335,-0.5244,-0.7705,1.099,7.324,3.052,-142.559,19.050,-17.238
11071,-0.3286,-0.5454,-0.7646,0.061,5.005,1.770,-142.592,19.028,-17.281
11081,-0.3164,-0.5776,-0.7622,-2.197,2.380,-0.244,-142.619,19.001,-17.298
11091,-0.3003,-0.6001,-0.7637,-6.165,-1.465,-2.380,-142.663,18.979,-17.265
11101,-0.2925,-0.6309,-0.7603,-10.498,-4.333,-2.686,-142.729,18.973,-17.216
11111,-0.3018,-0.5581,-0.7588,-14.343,-6.409,-2.136,-142.861,18.995,-17.155
11121,-0.3394,-0.5210,-0.7554,-10.986,-7.080,0.732,-142.982,19.072,-17.117
11131,-0.3521,-0.5547,-0.7549,-1.526,-3.723,0.977,-142.998,19.122,-17.100
11142,-0.3262,-0.5747,-0.7549,7.263,0.366,-2.869,-142.916,19.100,-17.078
11151,-0.2993,-0.6128,-0.7383,14.282,3.113,-5.615,-142.740,19.023,-17.051
11161,-0.2808,-0.6733,-0.7271,16.113,4.150,-4.883,-142.520,18.929,-17.040
11171,-0.2808,-0.6909,-0.7310,10.071,4.150,-0.671,-142.372,18.858,-17.062
11181,-0.2998,-0.6240,-0.7300,1.526,3.967,4.822,-142.344,18.842,-17.128
11191,-0.3521,-0.5205,-0.7349,-3.723,3.723,10.925,-142.443,18.902,-17.243
11201,-0.3906,-0.4619,-0.7368,-1.099,5.249,13.367,-142.553,18.995,-17.386
11211,-0.3901,-0.4844,-0.7378,5.005,7.080,9.644,-142.586,19.045,-17.512
11221,-0.3540,-0.5308,-0.7295,6.958,7.385,2.258,-142.553,19.028,-17.578
11231,-0.3276,-0.5527,-0.7305,1.526,5.127,-2.991,-142.548,18.973,-17.589
11241,-0.3135,-0.5859,-0.7422,-7.446,2.502,-3.967,-142.608,18.924,-17.573
11251,-0.3042,-0.6050,-0.7529,-16.174,0.854,-3.601,-142.745,18.880,-17.545
11261,-0.3057,-0.5928,-0.7754,-22.766,-0.610,-2.869,-142.960,18.853,-17.518
11271,-0.3062,-0.5996,-0.8003,-22.583,-1.160,-3.174,-143.174,18.825,-17.485
11281,-0.3013,-0.5913,-0.8105,-16.968,-1.526,-4.272,-143.333,18.792,-17.435
11291,-0.3047,-0.5693,-0.8003,-7.141,-2.075,-2.991,-143.405,18.776,-17.397
11301,-0.3169,-0.5625,-0.7734,5.920,-2.502,0.488,-143.350,18.792,-17.386
11311,-0.3413,-0.5439,-0.7397,16.357,-3.235,4.089,-143.196,18.858,-17.402
11321,-0.3569,-0.5562,-0.7192,20.081,-3.113,5.737,-142.993,18.946,-17.430
11331,-0.3589,-0.5518,-0.7168,16.296,-1.587,3.967,-142.833,19.006,-17.452
11341,-0.3462,-0.5684,-0.7261,8.423,0.549,0.366,-142.745,19.023,-17.463
11351,-0.3140,-0.6235,-0.7412,-0.488,2.625,-3.296,-142.718,18.968,-17.452
11361,-0.2959,-0.6304,-0.7632,-10.620,2.319,-4.456,-142.795,18.902,-17.424
11371,-0.2959,-0.6299,-0.7817,-17.090,0.854,-2.502,-142.943,18.853,-17.413
11381,-0.3052,-0.6035,-0.7959,-17.639,-0.549,0.366,-143.113,18.842,-17.413
11391,-0.3350,-0.5142,-0.7925,-11.902,-2.014,3.418,-143.278,18.885,-17.424
11401,-0.3774,-0.4419,-0.7759,1.587,-2.991,6.287,-143.344,18.990,-17.463
11411,-0.3970,-0.4648,-0.7559,17.639,-1.404,5.676,-143.229,19.083,-17.501
11421,-0.3599,-0.5464,-0.7314,27.039,0.488,-0.610,-142.965,19.100,-17.501
11431,-0.3081,-0.6401,-0.7061,21.973,0.000,-6.348,-142.674,19.050,-17.446
11441,-0.2783,-0.6899,-0.7158,3.906,-2.319,-8.118,-142.542,18.984,-17.364
11451,-0.2705,-0.6758,-0.7266,-15.503,-4.700,-6.470,-142.614,18.946,-17.276
11461,-0.3105,-0.5674,-0.7476,-27.344,-6.531,-0.671,-142.872,18.990,-17.232
11471,-0.3594,-0.5112,-0.7764,-23.621,-5.432,4.639,-143.146,19.078,-17.232
11481,-0.3633,-0.5376,-0.7832,-9.460,-2.563,4.944,-143.273,19.149,-17.260
11491,-0.3286,-0.5728,-0.7773,3.174,-1.038,0.854,-143.245,19.160,-17.260
11501,-0.2871,-0.6353,-0.7607,9.705,-1.770,-1.282,-143.108,19.133,-17.238
11511,-0.2754,-0.6694,-0.7417,9.216,-4.272,1.038,-142.960,19.138,-17.221
11521,-0.2939,-0.6489,-0.7310,4.211,-6.592,5.493,-142.877,19.199,-17.227
11531,-0.3330,-0.5679,-0.7261,-0.916,-8.057,11.108,-142.888,19.336,-17.265
11541,-0.3848,-0.4775,-0.7266,-1.709,-7.751,15.137,-142.971,19.534,-17.347
11551,-0.4072,-0.4834,-0.7231,2.808,-5.127,14.832,-143.004,19.715,-17.435
11561,-0.3882,-0.5229,-0.7192,5.066,-1.831,9.094,-142.987,19.825,-17.501
11571,-0.3379,-0.5972,-0.7227,1.831,0.488,1.587,-142.949,19.830,-17.518
11581,-0.2964,-0.6431,-0.7285,-6.897,0.793,-2.563,-142.965,19.781,-17.501
11591,-0.2910,-0.6265,-0.7510,-16.846,-0.122,-1.770,-143.102,19.737,-17.490
11601,-0.3164,-0.5845,-0.7739,-21.240,-0.366,2.441,-143.317,19.737,-17.507
11611,-0.3472,-0.5029,-0.7920,-16.541,0.305,5.371,-143.536,19.775,-17.556
11621,-0.3833,-0.4487,-0.7983,-2.686,0.916,6.714,-143.657,19.836,-17.617
11631,-0.3945,-0.4253,-0.7866,15.991,2.441,4.333,-143.597,19.880,-17.672
11642,-0.3750,-0.4717,-0.7524,32.837,2.991,-0.549,-143.317,19.885,-17.682
11651,-0.3364,-0.5972,-0.7139,38.635,1.160,-3.723,-142.894,19.852,-17.661
11661,-0.2964,-0.7339,-0.7012,27.100,-2.197,-6.348,-142.509,19.797,-17.589
11671,-0.2671,-0.7524,-0.7144,2.625,-5.432,-8.423,-142.361,19.731,-17.485
11681,-0.2710,-0.6934,-0.7339,-20.386,-7.141,-6.226,-142.471,19.704,-17.386
11691,-0.3281,-0.5190,-0.7520,-31.250,-6.226,0.916,-142.800,19.759,-17.353
11701,-0.3892,-0.4624,-0.7793,-22.583,-2.136,8.667,-143.108,19.863,-17.413
11711,-0.3877,-0.5156,-0.7817,-3.906,4.517,9.155,-143.218,19.907,-17.518
11721,-0.3491,-0.5254,-0.7759,9.399,7.507,2.014,-143.174,19.869,-17.584
11731,-0.3145,-0.5513,-0.7578,16.174,6.226,-2.625,-143.026,19.786,-17.600
11741,-0.3057,-0.6079,-0.7339,19.592,3.601,-2.625,-142.806,19.726,-17.606
11751,-0.3037,-0.6646,-0.7217,15.320,1.038,-0.671,-142.603,19.687,-17.606
11761,-0.3179,-0.6030,-0.7275,2.930,-1.160,2.319,-142.553,19.698,-17.617
11771,-0.3608,-0.5186,-0.7324,-7.080,-2.502,6.104,-142.657,19.775,-17.650
11781,-0.3911,-0.4878,-0.7388,-9.766,-1.160,7.324,-142.811,19.869,-17.704
11791,-0.3882,-0.4980,-0.7549,-8.301,1.465,4.517,-142.949,19.918,-17.754
11801,-0.3555,-0.5176,-0.7583,-5.005,3.845,-1.099,-143.026,19.896,-17.770
11811,-0.3228,-0.5728,-0.7622,-2.380,4.456,-5.188,-143.047,19.819,-17.754
11821,-0.3018,-0.6221,-0.7720,-2.930,3.296,-6.348,-143.047,19.726,-17.721
11831,-0.2891,-0.6406,-0.7812,-4.883,1.587,-5.615,-143.058,19.644,-17.682
11841,-0.2998,-0.6040,-0.7871,-6.226,0.000,-2.686,-143.108,19.600,-17.661
11851,-0.3281,-0.5430,-0.7793,-3.540,-1.404,1.587,-143.163,19.611,-17.666
11861,-0.3652,-0.5059,-0.7656,3.845,-2.441,5.127,-143.168,19.682,-17.693
11871,-0.3770,-0.5117,-0.7407,11.108,-1.953,5.127,-143.091,19.759,-17.726
11881,-0.3721,-0.4766,-0.7251,13.977,-1.831,2.441,-142.993,19.825,-17.732
11891,-0.3584,-0.5591,-0.7100,14.343,-1.953,-0.183,-142.833,19.858,-17.721
11901,-0.3164,-0.6543,-0.7036,6.287,-1.587,-5.066,-142.696,19.819,-17.666
11911,-0.2866,-0.6836,-0.7261,-10.498,-2.991,-7.996,-142.707,19.759,-17.578
11921,-0.2798,-0.6616,-0.7451,-25.757,-3.906,-6.714,-142.894,19.709,-17.496
11931,-0.3271,-0.4834,-0.7598,-31.982,-4.456,-1.221,-143.245,19.737,-17.457
11941,-0.3906,-0.4385,-0.7705,-20.508,-3.296,6.775,-143.531,19.847,-17.496
11951,-0.3911,-0.5132,-0.7549,-1.648,1.282,8.179,-143.597,19.918,-17.573
11961,-0.3398,-0.6182,-0.7383,6.775,3.479,2.502,-143.509,19.902,-17.617
11971,-0.2812,-0.7100,-0.7158,-0.916,1.831,-0.061,-143.437,19.841,-17.628
11981,-0.2642,-0.7783,-0.7231,-19.531,-1.465,4.211,-143.536,19.819,-17.655
11991,-0.2861,-0.6865,-0.7485,-39.429,-3.906,12.573,-143.893,19.885,-17.737
12001,-0.3545,-0.5488,-0.7822,-47.424,-5.066,22.888,-144.426,20.061,-17.902
12011,-0.4136,-0.4707,-0.8164,-39.063,-2.319,28.931,-144.948,20.286,-18.138
12021,-0.4429,-0.4136,-0.8306,-21.545,0.549,27.527,-145.333,20.490,-18.380
12031,-0.4282,-0.4170,-0.8140,-0.732,2.747,20.569,-145.486,20.627,-18.578
12041,-0.3896,-0.4810,-0.7837,17.395,3.479,13.123,-145.388,20.698,-18.715
12051,-0.3584,-0.5859,-0.7524,22.583,2.014,8.423,-145.162,20.726,-18.803
12061,-0.3408,-0.5879,-0.7329,15.381,-1.404,5.737,-144.987,20.764,-18.842
12071,-0.3545,-0.5420,-0.7349,2.808,-5.615,6.348,-144.954,20.847,-18.864
12081,-0.3818,-0.5327,-0.7441,-7.202,-7.141,7.141,-145.025,20.967,-18.885
12091,-0.3857,-0.5278,-0.7700,-13.000,-5.859,3.601,-145.157,21.050,-18.880
12101,-0.3691,-0.5132,-0.7954,-13.367,-3.601,-1.648,-145.294,21.072,-18.842
12111,-0.3457,-0.5083,-0.7905,-7.141,-1.282,-5.127,-145.366,21.044,-18.787
12121,-0.3369,-0.5073,-0.7666,2.258,-0.793,-4.944,-145.338,21.011,-18.743
12131,-0.3403,-0.5264,-0.7393,10.010,-2.197,-1.160,-145.223,21.022,-18.715
12142,-0.3564,-0.5396,-0.7197,12.390,-3.662,2.136,-145.080,21.066,-18.715
12151,-0.3550,-0.5586,-0.7227,9.033,-2.930,2.136,-144.965,21.105,-18.715
12161,-0.3320,-0.5864,-0.7280,0.488,-0.610,0.488,-144.921,21.099,-18.715
12171,-0.3057,-0.5898,-0.7339,-11.719,1.465,0.122,-145.003,21.055,-18.726
12181,-0.3130,-0.5586,-0.7510,-24.048,1.648,3.052,-145.239,21.033,-18.765
12191,-0.3379,-0.5010,-0.7656,-30.212,1.465,6.042,-145.574,21.050,-18.825
12201,-0.3623,-0.4624,-0.7729,-26.489,1.648,6.958,-145.898,21.083,-18.896
12211,-0.3716,-0.4478,-0.7729,-15.930,2.197,5.005,-146.113,21.105,-18.951
12221,-0.3799,-0.3975,-0.7598,-4.272,1.709,2.258,-146.234,21.132,-18.984
12231,-0.3882,-0.4316,-0.7275,6.958,0.854,0.793,-146.195,21.165,-18.995
12241,-0.3916,-0.4800,-0.7163,10.010,0.427,-0.916,-146.096,21.193,-18.990
12251,-0.3711,-0.5796,-0.7227,3.296,1.282,-4.028,-146.003,21.165,-18.962
12261,-0.3364,-0.6328,-0.7446,-11.597,3.662,-7.996,-146.036,21.066,-18.913
12271,-0.3169,-0.6392,-0.7974,-28.870,5.920,-8.667,-146.261,20.934,-18.869
12281,-0.3135,-0.6060,-0.8452,-37.964,8.118,-6.531,-146.613,20.786,-18.864
12291,-0.3315,-0.4829,-0.8784,-32.410,8.484,-2.808,-146.992,20.676,-18.885
12301,-0.3745,-0.4043,-0.8940,-10.681,7.812,2.808,-147.206,20.632,-18.957
12311,-0.3955,-0.4004,-0.8735,20.691,7.751,3.967,-147.112,20.605,-19.039
12321,-0.3931,-0.4146,-0.8140,48.157,6.653,0.793,-146.711,20.583,-19.083
12331,-0.3901,-0.4521,-0.7495,61.401,3.601,-1.099,-146.129,20.577,-19.094
12341,-0.3843,-0.5737,-0.7070,57.190,1.282,-1.892,-145.508,20.583,-19.083
12351,-0.3564,-0.6890,-0.6909,34.912,0.305,-4.822,-145.042,20.544,-19.045
12361,-0.3276,-0.7104,-0.7134,0.000,-0.244,-7.263,-144.921,20.484,-18.979
12371,-0.3125,-0.6831,-0.7588,-33.203,0.000,-6.958,-145.162,20.407,-18.918
12382,-0.3232,-0.5791,-0.8174,-51.208,0.793,-5.249,-145.646,20.347,-18.880
12392,-0.3467,-0.4580,-0.8687,-46.936,1.221,-2.014,-146.173,20.319,-18.869
12402,-0.3823,-0.3809,-0.8916,-23.376,1.282,1.953,-146.519,20.330,-18.891
12412,-0.3838,-0.3975,-0.8667,10.437,2.075,2.441,-146.519,20.341,-18.924
12422,-0.3564,-0.4658,-0.7954,39.795,0.793,-0.488,-146.157,20.341,-18.924
12432,-0.3447,-0.5225,-0.7261,49.500,-3.296,-1.221,-145.635,20.369,-18.896
12441,-0.3437,-0.5840,-0.6929,41.504,-6.653,-1.221,-145.151,20.418,-18.847
12451,-0.3394,-0.6377,-0.6782,22.156,-6.226,-1.831,-144.827,20.457,-18.792
12461,-0.3408,-0.5811,-0.6992,-2.991,-4.150,-1.953,-144.800,20.479,-18.748
12472,-0.3550,-0.5181,-0.7275,-21.973,-1.099,-0.061,-145.009,20.500,-18.743
12482,-0.3818,-0.4438,-0.7563,-28.198,1.099,1.709,-145.344,20.528,-18.765
12492,-0.3940,-0.4272,-0.7778,-22.583,2.014,1.465,-145.635,20.555,-18.787
12502,-0.3755,-0.4814,-0.7852,-11.963,3.540,-2.380,-145.783,20.533,-18.787
12512,-0.3379,-0.5127,-0.7856,-4.211,4.211,-7.324,-145.822,20.446,-18.748
12522,-0.3130,-0.5508,-0.7769,0.793,2.686,-8.789,-145.778,20.352,-18.688
12532,-0.3091,-0.5879,-0.7642,1.892,0.671,-7.324,-145.706,20.281,-18.627
12542,-0.3154,-0.5674,-0.7588,-2.808,-1.709,-4.517,-145.690,20.253,-18.578
12552,-0.3560,-0.4985,-0.7471,-8.118,-4.395,-0.793,-145.767,20.297,-18.545
12562,-0.3828,-0.4736,-0.7417,-9.460,-5.249,1.465,-145.871,20.380,-18.523
12572,-0.3936,-0.4629,-0.7300,-8.850,-3.967,-0.061,-145.964,20.457,-18.501
12582,-0.3989,-0.4219,-0.7427,-7.080,-3.174,-4.211,-146.063,20.500,-18.446
12592,-0.3809,-0.5112,-0.7524,-0.610,0.671,-9.521,-146.036,20.468,-18.364
12602,-0.3369,-0.4907,-0.7715,4.211,4.639,-16.113,-145.970,20.336,-18.248
12612,-0.3066,-0.6255,-0.7896,9.338,7.080,-17.273,-145.794,20.149,-18.138
12621,-0.2583,-0.7114,-0.7783,8.057,9.583,-17.761,-145.602,19.907,-18.040
12631,-0.2559,-0.6260,-0.7778,-3.052,5.920,-13.245,-145.558,19.731,-17.957
12642,-0.3232,-0.4697,-0.7632,-8.850,0.977,-1.465,-145.673,19.715,-17.952
12652,-0.4004,-0.4380,-0.7554,-3.906,-0.183,8.301,-145.778,19.814,-18.023
12662,-0.4189,-0.4600,-0.7715,3.723,3.601,7.446,-145.805,19.874,-18.111
12672,-0.3662,-0.5576,-0.7729,9.216,7.141,-3.296,-145.701,19.814,-18.122
12682,-0.2881,-0.6743,-0.7837,3.723,8.972,-14.404,-145.574,19.616,-18.051
12691,-0.2207,-0.7759,-0.8174,-10.254,6.958,-18.860,-145.547,19.369,-17.930
12701,-0.1821,-0.8193,-0.8418,-23.865,2.625,-15.808,-145.646,19.155,-17.803
12711,-0.2129,-0.6387,-0.8472,-33.447,-3.174,-4.517,-145.931,19.072,-17.748
12721,-0.3389,-0.3862,-0.8438,-25.452,-8.301,12.512,-146.294,19.221,-17.809
12732,-0.4570,-0.3193,-0.8223,2.563,-5.493,24.658,-146.453,19.484,-17.990
12742,-0.4795,-0.2910,-0.7983,33.081,4.150,22.156,-146.338,19.671,-18.215
12752,-0.4312,-0.3867,-0.7446,56.641,12.024,10.437,-145.893,19.704,-18.375
12762,-0.3540,-0.5811,-0.7007,57.251,15.015,-0.671,-145.300,19.594,-18.457
12772,-0.2871,-0.7095,-0.7085,32.471,12.329,-10.498,-144.866,19.396,-18.441
12781,-0.2358,-0.7695,-0.7456,-2.136,6.775,-15.564,-144.750,19.182,-18.347
12791,-0.2231,-0.7427,-0.7925,-32.471,1.831,-13.245,-144.959,19.017,-18.243
12801,-0.2705,-0.5786,-0.8560,-48.035,-0.916,-5.554,-145.426,18.951,-18.193
12812,-0.3369,-0.4487,-0.9004,-38.452,-0.488,3.662,-145.898,18.968,-18.221
12822,-0.3901,-0.3276,-0.8965,-10.132,0.183,10.315,-146.168,19.061,-18.314
12832,-0.4185,-0.3423,-0.8462,24.719,0.122,11.963,-146.074,19.182,-18.419
12842,-0.3950,-0.4292,-0.7852,50.293,0.610,7.812,-145.651,19.265,-18.490
12852,-0.3477,-0.5659,-0.7251,59.021,-0.183,0.854,-145.036,19.286,-18.495
12862,-0.2920,-0.7080,-0.6919,46.814,-1.892,-5.920,-144.443,19.237,-18.435
12871,-0.2622,-0.7295,-0.7036,16.663,-4.517,-9.033,-144.141,19.177,-18.331
12882,-0.2690,-0.6665,-0.7378,-13.855,-6.104,-6.042,-144.185,19.149,-18.237
12892,-0.3296,-0.5186,-0.7720,-30.701,-5.798,1.648,-144.503,19.210,-18.215
12902,-0.4033,-0.3237,-0.8071,-26.917,-3.967,9.155,-144.921,19.352,-18.270
12912,-0.4492,-0.3115,-0.8149,-2.136,-1.770,12.268,-145.113,19.512,-18.369
12922,-0.4092,-0.4712,-0.7896,23.743,1.648,5.066,-144.937,19.572,-18.419
12932,-0.3140,-0.6562,-0.7720,31.006,1.648,-8.118,-144.558,19.490,-18.358
12942,-0.2207,-0.7754,-0.7588,20.691,-1.953,-17.578,-144.196,19.325,-18.199
12952,-0.1768,-0.8057,-0.7505,0.671,-6.958,-17.822,-144.014,19.177,-18.001
12961,-0.2378,-0.5664,-0.7466,-17.883,-13.184,-4.578,-144.141,19.204,-17.880
12972,-0.3843,-0.3745,-0.7490,-17.578,-15.381,16.418,-144.421,19.479,-17.924
12982,-0.4756,-0.3521,-0.7554,1.526,-8.301,26.733,-144.575,19.803,-18.105
12992,-0.4697,-0.3472,-0.7583,22.156,0.488,19.470,-144.520,20.006,-18.276
13002,-0.3955,-0.5190,-0.7280,37.048,4.822,2.441,-144.168,20.017,-18.325
13012,-0.2905,-0.7070,-0.6968,30.884,4.944,-13.733,-143.740,19.863,-18.237
13021,-0.2241,-0.7656,-0.7031,7.996,0.000,-22.095,-143.481,19.655,-18.051
13032,-0.1943,-0.7998,-0.7148,-16.785,-3.967,-17.944,-143.470,19.490,-17.869
13041,-0.2505,-0.6167,-0.7368,-38.147,-6.775,-3.784,-143.789,19.473,-17.798
13052,-0.3823,-0.3623,-0.7734,-39.795,-5.676,12.451,-144.322,19.638,-17.869
13062,-0.4687,-0.2485,-0.7949,-15.991,2.197,21.790,-144.728,19.841,-18.067
13072,-0.4521,-0.3281,-0.7842,16.846,10.864,17.578,-144.761,19.935,-18.287
13082,-0.3613,-0.6025,-0.7588,36.499,14.893,1.709,-144.404,19.830,-18.397
13092,-0.2280,-0.8115,-0.7349,26.123,12.512,-16.602,-143.998,19.556,-18.331
13102,-0.1416,-0.8462,-0.7314,-3.906,3.174,-26.367,-143.839,19.254,-18.122
13112,-0.1846,-0.6445,-0.7261,-30.457,-8.789,-18.005,-144.020,19.133,-17.913
13122,-0.3325,-0.4468,-0.7412,-38.269,-14.282,3.540,-144.426,19.286,-17.853
13132,-0.4531,-0.3750,-0.7715,-20.691,-7.141,18.372,-144.767,19.534,-17.968
13142,-0.4849,-0.3066,-0.7881,5.371,3.967,16.846,-144.910,19.698,-18.138
13152,-0.4399,-0.3887,-0.7617,30.334,9.949,5.859,-144.728,19.731,-18.248
13162,-0.3545,-0.6235,-0.7251,38.025,11.902,-7.751,-144.294,19.594,-18.254
13172,-0.2666,-0.7476,-0.7124,21.851,9.216,-18.616,-143.937,19.363,-18.155
13182,-0.2119,-0.7749,-0.7148,-1.404,3.723,-20.569,-143.789,19.133,-18.001
13192,-0.2290,-0.7217,-0.7290,-22.888,-0.488,-10.742,-143.899,19.006,-17.902
13202,-0.3120,-0.5674,-0.7695,-35.278,-2.075,3.906,-144.256,19.039,-17.924
13212,-0.4053,-0.3965,-0.8047,-29.114,1.038,14.282,-144.679,19.166,-18.056
13222,-0.4531,-0.3950,-0.8179,-9.155,6.592,17.944,-144.926,19.286,-18.248
13232,-0.4185,-0.4712,-0.8105,9.583,10.559,10.376,-144.932,19.308,-18.402
13242,-0.3433,-0.5723,-0.7891,16.907,10.376,-1.770,-144.772,19.215,-18.452
13252,-0.2925,-0.6060,-0.7793,14.160,5.432,-8.972,-144.591,19.094,-18.408
13262,-0.2656,-0.6763,-0.7817,12.451,0.366,-10.010,-144.388,18.984,-18.325
13272,-0.2637,-0.6968,-0.7773,7.446,-3.174,-5.127,-144.229,18.935,-18.259
13282,-0.3037,-0.6353,-0.7930,-1.892,-5.493,3.235,-144.218,18.973,-18.254
13292,-0.3599,-0.5166,-0.7944,-4.883,-5.859,9.949,-144.311,19.100,-18.303
13302,-0.4170,-0.4102,-0.7871,-0.061,-5.676,14.282,-144.421,19.286,-18.391
13312,-0.4380,-0.4053,-0.7729,10.742,-2.686,14.404,-144.426,19.462,-18.495
13322,-0.4136,-0.4316,-0.7422,19.775,-0.122,8.911,-144.311,19.578,-18.572
13332,-0.3716,-0.5444,-0.7227,19.043,0.244,2.625,-144.119,19.622,-18.600
13342,-0.3135,-0.6763,-0.7227,6.958,-0.732,-5.310,-143.959,19.572,-18.550
13352,-0.2646,-0.7529,-0.7578,-14.893,-2.563,-12.451,-143.976,19.468,-18.424
13362,-0.2397,-0.7334,-0.7910,-36.926,-4.089,-14.648,-144.223,19.347,-18.276
13372,-0.2754,-0.5273,-0.8335,-47.363,-5.676,-9.277,-144.690,19.297,-18.160
13382,-0.3511,-0.4194,-0.8643,-33.020,-5.005,1.648,-145.107,19.358,-18.144
13392,-0.3896,-0.3623,-0.8560,-0.244,-0.977,8.057,-145.250,19.446,-18.204
13402,-0.3916,-0.3862,-0.8037,33.691,1.221,7.690,-145.031,19.517,-18.281
13412,-0.3589,-0.5288,-0.7446,53.040,1.038,4.089,-144.514,19.556,-18.325
13422,-0.3208,-0.6470,-0.7002,49.744,-2.197,-1.892,-143.943,19.550,-18.292
13432,-0.2793,-0.7080,-0.6826,29.663,-5.920,-8.118,-143.514,19.517,-18.188
13441,-0.2651,-0.7070,-0.6997,3.052,-8.362,-9.399,-143.350,19.479,-18.056
13452,-0.2793,-0.6812,-0.7373,-19.409,-7.751,-5.981,-143.448,19.468,-17.952
13462,-0.3086,-0.5937,-0.7827,-29.358,-4.944,-2.136,-143.718,19.473,-17.902
13472,-0.3516,-0.4678,-0.8130,-26.062,-2.197,2.380,-144.042,19.517,-17.913
13482,-0.3916,-0.3799,-0.8013,-8.179,-1.282,6.897,-144.245,19.611,-17.963
13492,-0.4180,-0.3779,-0.7642,15.259,-1.770,8.850,-144.212,19.737,-18.029
13502,-0.3984,-0.4497,-0.7275,33.325,-2.625,5.676,-143.932,19.847,-18.062
13512,-0.3613,-0.5776,-0.6875,39.490,-4.944,-0.366,-143.487,19.902,-18.023
13522,-0.3062,-0.7314,-0.6724,26.550,-7.385,-8.911,-143.075,19.885,-17.902
13532,-0.2607,-0.7793,-0.6851,-1.404,-9.949,-15.320,-142.905,19.814,-17.710
13542,-0.2607,-0.7178,-0.7114,-30.273,-11.780,-14.221,-143.058,19.764,-17.512
13552,-0.3184,-0.4995,-0.7393,-44.373,-12.207,-5.676,-143.487,19.830,-17.386
13562,-0.4087,-0.3843,-0.7661,-32.654,-9.827,5.554,-143.904,19.995,-17.369
13572,-0.4429,-0.3936,-0.7739,-4.150,-4.395,9.216,-144.053,20.154,-17.424
13582,-0.3936,-0.5430,-0.7520,21.057,1.587,1.770,-143.855,20.182,-17.446
13592,-0.3130,-0.6724,-0.7295,29.419,3.296,-8.545,-143.476,20.078,-17.397
13602,-0.2598,-0.7803,-0.7212,21.057,1.343,-13.428,-143.124,19.924,-17.287
13612,-0.2324,-0.7700,-0.7217,5.310,-0.244,-11.902,-142.938,19.781,-17.188
13622,-0.2754,-0.6411,-0.7437,-8.484,-1.648,-0.854,-142.982,19.748,-17.172
13632,-0.3521,-0.5923,-0.7617,-10.193,0.977,12.695,-143.113,19.819,-17.281
13642,-0.3984,-0.4902,-0.7827,-3.174,5.310,17.090,-143.251,19.913,-17.463
13652,-0.4150,-0.3774,-0.7754,9.644,7.080,15.381,-143.322,20.006,-17.639
13662,-0.4146,-0.4731,-0.7437,26.001,7.202,11.719,-143.157,20.072,-17.781
13672,-0.3647,-0.6055,-0.7163,29.968,7.263,4.578,-142.855,20.050,-17.869
13682,-0.3247,-0.6689,-0.7217,19.470,4.089,-1.709,-142.608,19.990,-17.880
13692,-0.2876,-0.7114,-0.7319,1.770,2.197,-4.517,-142.515,19.907,-17.858
13702,-0.2832,-0.6753,-0.7490,-16.663,0.610,-2.319,-142.630,19.841,-17.842
13712,-0.3315,-0.5425,-0.7739,-29.480,-1.099,5.005,-142.960,19.880,-17.875
13722,-0.3936,-0.3940,-0.7949,-26.245,-1.099,11.963,-143.355,20.001,-17.974
13732,-0.4429,-0.3643,-0.7915,-8.240,0.610,13.977,-143.597,20.143,-18.094
13742,-0.4229,-0.4287,-0.7837,10.925,3.052,6.287,-143.591,20.209,-18.166
13752,-0.3389,-0.6133,-0.7549,21.240,4.578,-6.714,-143.344,20.121,-18.138
13762,-0.2617,-0.6987,-0.7446,15.198,1.221,-16.235,-143.086,19.962,-18.007
13772,-0.2324,-0.7295,-0.7461,3.784,-4.578,-17.090,-142.916,19.819,-17.831
13782,-0.2471,-0.6929,-0.7393,-7.507,-8.179,-9.399,-142.883,19.770,-17.699
13792,-0.3184,-0.5254,-0.7383,-13.306,-10.132,3.296,-143.020,19.863,-17.666
13802,-0.4028,-0.4497,-0.7368,-5.371,-8.301,14.099,-143.152,20.067,-17.732
13812,-0.4365,-0.4399,-0.7261,5.554,-2.136,16.052,-143.196,20.248,-17.853
13822,-0.4009,-0.4873,-0.7183,12.817,3.662,8.240,-143.124,20.314,-17.946
13832,-0.3340,-0.6143,-0.7002,12.512,6.409,-1.648,-142.965,20.248,-17.974
13842,-0.2827,-0.6699,-0.7187,0.488,5.737,-7.935,-142.894,20.116,-17.946
13852,-0.2617,-0.6528,-0.7417,-10.742,3.418,-8.667,-142.938,19.984,-17.891
13862,-0.3511,-0.5151,-0.7729,-13.489,-0.061,7.324,-143.124,20.034,-17.952
13872,-0.3882,-0.4893,-0.7754,-4.211,1.221,10.559,-143.245,20.116,-18.051
13882,-0.3853,-0.4912,-0.7686,3.967,2.686,7.507,-143.278,20.165,-18.133
13892,-0.3540,-0.5400,-0.7539,9.277,3.662,1.587,-143.212,20.154,-18.171
13902,-0.3208,-0.5723,-0.7324,7.507,2.991,-2.197,-143.124,20.105,-18.171
13912,-0.3213,-0.5444,-0.7329,2.441,0.122,-1.831,-143.097,20.089,-18.155
13922,-0.3350,-0.5742,-0.7363,0.671,-1.587,0.244,-143.075,20.099,-18.149
13932,-0.3296,-0.6035,-0.7437,-3.296,-0.854,-0.122,-143.086,20.094,-18.138
13942,-0.3242,-0.5859,-0.7681,-10.132,-0.488,-1.404,-143.179,20.072,-18.127
13952,-0.3169,-0.5903,-0.7793,-12.695,0.244,-1.160,-143.295,20.045,-18.116
13962,-0.3218,-0.5635,-0.7886,-10.925,0.916,-0.183,-143.416,20.017,-18.122
13972,-0.3354,-0.5396,-0.7856,-4.272,0.854,1.770,-143.487,20.017,-18.144
13982,-0.3447,-0.5396,-0.7651,5.249,0.061,3.357,-143.459,20.039,-18.171
13992,-0.3623,-0.5200,-0.7515,11.475,-1.343,3.418,-143.372,20.083,-18.193
14002,-0.3643,-0.5630,-0.7495,13.855,-1.770,2.441,-143.234,20.121,-18.204
14012,-0.3359,-0.6338,-0.7422,10.864,-0.732,-0.671,-143.086,20.116,-18.193
14022,-0.3154,-0.6387,-0.7534,0.183,-1.160,-3.113,-143.036,20.083,-18.155
14032,-0.3154,-0.6206,-0.7690,-9.033,-1.892,-2.197,-143.097,20.061,-18.127
14042,-0.3511,-0.4775,-0.7612,-10.620,-3.357,1.038,-143.245,20.105,-18.116
14052,-0.4287,-0.3433,-0.7466,0.061,-5.737,6.775,-143.372,20.264,-18.133
14062,-0.4570,-0.4258,-0.7197,20.508,-4.395,8.179,-143.245,20.429,-18.177
14072,-0.4111,-0.5659,-0.6904,30.457,-1.465,-0.610,-142.916,20.484,-18.160
14082,-0.3457,-0.7339,-0.6938,19.836,-0.793,-11.475,-142.586,20.407,-18.062
14092,-0.2690,-0.8584,-0.7246,-4.272,0.671,-20.996,-142.443,20.204,-17.886
14102,-0.2163,-0.7876,-0.7520,-28.320,0.305,-24.048,-142.570,19.968,-17.682
14112,-0.2778,-0.5669,-0.7700,-39.368,-3.174,-9.888,-142.932,19.896,-17.584
14122,-0.3892,-0.4219,-0.7891,-26.001,-3.296,10.803,-143.306,20.023,-17.650
14132,-0.4502,-0.3799,-0.7661,1.526,1.892,22.278,-143.459,20.215,-17.853
14142,-0.4424,-0.4077,-0.7334,25.513,6.897,19.165,-143.355,20.347,-18.062
14152,-0.3809,-0.5693,-0.6963,36.194,9.766,7.080,-143.009,20.341,-18.182
14162,-0.2920,-0.7183,-0.6704,26.062,9.521,-7.019,-142.652,20.182,-18.188
14172,-0.2266,-0.7617,-0.6875,0.977,5.310,-15.625,-142.504,19.973,-18.089
14182,-0.2227,-0.6377,-0.6973,-21.912,0.488,-12.695,-142.635,19.825,-17.985
14192,-0.3164,-0.4521,-0.7339,-32.288,-2.930,1.343,-143.009,19.858,-17.974
14202,-0.3916,-0.4595,-0.7661,-23.010,1.587,12.451,-143.339,19.957,-18.094
14212,-0.3926,-0.4888,-0.7788,-10.681,8.179,10.742,-143.536,19.990,-18.237
14222,-0.3540,-0.4707,-0.7891,-3.296,10.193,1.038,-143.652,19.924,-18.309
14232,-0.3066,-0.5400,-0.7729,2.502,9.827,-6.104,-143.646,19.792,-18.320
14242,-0.2861,-0.5566,-0.7578,4.395,7.324,-7.751,-143.597,19.660,-18.298
14252,-0.2905,-0.5952,-0.7642,7.202,3.296,-6.165,-143.498,19.567,-18.265
14262,-0.2949,-0.6279,-0.7651,7.141,1.709,-4.089,-143.388,19.501,-18.243
14272,-0.3105,-0.5776,-0.7705,1.709,0.244,-2.808,-143.366,19.462,-18.221
14282,-0.3369,-0.5732,-0.7749,-1.404,-1.343,-0.854,-143.372,19.468,-18.204
14292,-0.3311,-0.6216,-0.7646,-2.625,0.000,-0.793,-143.372,19.457,-18.199
14302,-0.3218,-0.5571,-0.7578,-5.859,0.427,-1.343,-143.432,19.435,-18.188
14312,-0.3608,-0.4790,-0.7505,-5.127,-1.282,1.831,-143.525,19.484,-18.199
14322,-0.3843,-0.5093,-0.7358,0.793,-0.793,3.723,-143.542,19.550,-18.221
14332,-0.3765,-0.5508,-0.7461,2.686,0.916,0.427,-143.520,19.572,-18.232
14342,-0.3442,-0.5996,-0.7603,0.183,1.892,-4.883,-143.492,19.528,-18.204
14352,-0.3096,-0.6558,-0.7866,-5.920,3.418,-8.850,-143.498,19.418,-18.149
14362,-0.2852,-0.6914,-0.8115,-12.268,3.967,-10.132,-143.558,19.286,-18.089
14372,-0.2930,-0.6094,-0.8276,-14.282,2.197,-6.958,-143.685,19.193,-18.040
14382,-0.3462,-0.5063,-0.8179,-5.432,-0.549,1.160,-143.789,19.210,-18.051
14392,-0.3936,-0.4785,-0.7798,11.169,-2.136,8.850,-143.745,19.319,-18.111
14402,-0.4165,-0.4805,-0.7466,24.048,-3.113,11.658,-143.569,19.473,-18.193
14412,-0.3960,-0.5576,-0.7129,27.283,-3.296,8.362,-143.300,19.589,-18.243
14422,-0.3584,-0.6118,-0.6938,17.456,-3.906,1.282,-143.075,19.644,-18.226
14432,-0.3188,-0.6567,-0.6914,-0.977,-5.066,-4.761,-142.993,19.644,-18.155
14442,-0.3071,-0.6353,-0.7222,-21.545,-6.409,-5.920,-143.135,19.638,-18.062
14452,-0.3130,-0.6255,-0.7573,-33.630,-5.920,-4.089,-143.416,19.644,-17.990
14462,-0.3252,-0.5342,-0.7900,-34.607,-3.845,-2.991,-143.767,19.649,-17.941
14472,-0.3662,-0.4609,-0.8130,-22.644,-2.197,-0.183,-144.053,19.682,-17.924
14482,-0.3706,-0.5044,-0.8193,-0.793,1.526,0.244,-144.108,19.682,-17.935
14492,-0.3320,-0.5464,-0.7998,20.508,3.967,-4.028,-143.915,19.622,-17.930
14502,-0.3052,-0.5991,-0.7681,32.654,2.380,-5.554,-143.564,19.545,-17.897
14512,-0.3071,-0.6660,-0.7476,32.959,-0.977,-2.991,-143.174,19.512,-17.864
14522,-0.2861,-0.7471,-0.7432,22.766,-2.686,-1.465,-142.855,19.484,-17.836
14532,-0.2710,-0.7280,-0.7451,4.150,-4.395,0.183,-142.734,19.468,-17.809
14542,-0.3008,-0.6045,-0.7544,-12.024,-6.714,4.883,-142.839,19.528,-17.803
14552,-0.3706,-0.4790,-0.7529,-16.174,-8.606,11.292,-143.058,19.693,-17.847
14562,-0.4204,-0.3999,-0.7378,-8.057,-8.606,13.672,-143.245,19.913,-17.908
14572,-0.4351,-0.3726,-0.7212,4.272,-7.935,10.376,-143.306,20.121,-17.946
14582,-0.4072,-0.4429,-0.6968,15.808,-6.165,1.282,-143.185,20.237,-17.919
14592,-0.3462,-0.5791,-0.6768,18.188,-3.967,-9.521,-142.932,20.226,-17.809
14602,-0.2856,-0.6797,-0.6870,6.592,-3.235,-16.663,-142.734,20.110,-17.650
14612,-0.2549,-0.7095,-0.7080,-10.010,-3.601,-17.395,-142.696,19.979,-17.479
14622,-0.2734,-0.6494,-0.7319,-24.780,-3.906,-10.132,-142.861,19.902,-17.364
14632,-0.3267,-0.5366,-0.7539,-28.320,-3.174,0.366,-143.152,19.929,-17.347
14642,-0.3687,-0.4883,-0.7646,-18.005,-0.732,7.935,-143.394,20.001,-17.413
14652,-0.3794,-0.4766,-0.7524,-1.831,1.953,9.155,-143.487,20.072,-17.501
14662,-0.3662,-0.4976,-0.7344,10.132,3.601,5.981,-143.437,20.099,-17.578
14672,-0.3423,-0.5562,-0.7104,14.832,4.150,2.502,-143.289,20.089,-17.622
14682,-0.3228,-0.5996,-0.7036,10.864,3.723,-0.366,-143.152,20.050,-17.644
14692,-0.3135,-0.6025,-0.7153,1.892,2.686,-1.770,-143.102,20.001,-17.644
14702,-0.3232,-0.5669,-0.7354,-6.287,2.258,-0.610,-143.157,19.973,-17.655
14712,-0.3472,-0.5625,-0.7622,-9.399,2.625,0.610,-143.262,19.957,-17.677
14722,-0.3457,-0.5830,-0.7852,-7.874,4.822,-0.732,-143.350,19.907,-17.704
14732,-0.3306,-0.5796,-0.7910,-4.883,5.920,-2.136,-143.410,19.836,-17.721
14742,-0.3350,-0.5396,-0.7822,0.122,5.066,-0.854,-143.437,19.786,-17.748
14752,-0.3521,-0.5591,-0.7583,7.080,3.540,2.136,-143.383,19.781,-17.787
14762,-0.3608,-0.5713,-0.7456,9.949,2.136,2.686,-143.289,19.792,-17.825
14772,-0.3618,-0.5156,-0.7432,8.911,0.183,1.343,-143.223,19.819,-17.836
14782,-0.3687,-0.5273,-0.7319,7.874,-1.099,1.160,-143.157,19.858,-17.836
14792,-0.3604,-0.5659,-0.7266,4.028,-1.038,-0.244,-143.102,19.880,-17.831
14802,-0.3672,-0.4824,-0.7222,-3.479,-2.563,-2.014,-143.157,19.918,-17.798
14812,-0.3960,-0.3877,-0.7100,-5.798,-4.211,-0.366,-143.289,20.012,-17.765
14822,-0.4175,-0.4204,-0.6978,-1.221,-3.235,1.221,-143.350,20.116,-17.754
14832,-0.4009,-0.5635,-0.7075,-0.610,-0.366,-2.808,-143.328,20.138,-17.732
14842,-0.3140,-0.6855,-0.7310,-11.108,3.723,-14.404,-143.339,19.995,-17.633
14852,-0.2383,-0.6880,-0.7739,-28.076,5.371,-23.804,-143.514,19.742,-17.463
14862,-0.2271,-0.6001,-0.7974,-38.330,4.150,-23.499,-143.828,19.501,-17.287
14872,-0.2856,-0.4526,-0.8408,-33.447,1.160,-13.794,-144.201,19.385,-17.177
14882,-0.3521,-0.4219,-0.8384,-9.094,1.892,-4.028,-144.377,19.358,-17.155
14892,-0.3779,-0.4258,-0.8105,18.860,3.174,-2.380,-144.267,19.347,-17.150
14902,-0.3506,-0.5859,-0.7837,36.255,3.601,-8.545,-143.882,19.276,-17.100
14912,-0.2681,-0.7603,-0.7417,33.691,2.441,-17.944,-143.405,19.100,-16.963
14922,-0.2197,-0.7974,-0.7500,11.047,-3.174,-22.034,-143.130,18.918,-16.754
14932,-0.1973,-0.8623,-0.7676,-11.475,-7.385,-17.639,-143.064,18.776,-16.562
14942,-0.2285,-0.7051,-0.7783,-29.114,-10.681,-8.667,-143.256,18.748,-16.419
14952,-0.3413,-0.4834,-0.8042,-29.724,-13.306,3.540,-143.591,18.885,-16.364
14962,-0.4175,-0.4302,-0.7949,-7.629,-9.216,12.207,-143.762,19.089,-16.408
14972,-0.4351,-0.4272,-0.7754,18.372,-2.869,9.949,-143.674,19.243,-16.479
14982,-0.3799,-0.4980,-0.7168,37.476,2.197,1.221,-143.328,19.276,-16.501
14992,-0.3398,-0.5820,-0.6733,39.307,2.686,-3.296,-142.894,19.248,-16.490
15002,-0.3037,-0.7051,-0.6655,25.757,2.197,-5.371,-142.531,19.182,-16.458
15012,-0.2588,-0.7651,-0.6948,4.089,1.892,-6.897,-142.372,19.072,-16.414
15022,-0.2456,-0.7695,-0.7329,-19.104,2.014,-4.883,-142.465,18.968,-16.386
15032,-0.2783,-0.6528,-0.7915,-35.461,2.869,0.305,-142.800,18.907,-16.408
15042,-0.3252,-0.5122,-0.8228,-33.875,3.479,6.531,-143.218,18.918,-16.485
15052,-0.3813,-0.4297,-0.8252,-14.893,3.723,12.268,-143.498,18.995,-16.611
15062,-0.3965,-0.4658,-0.7983,11.597,4.211,13.428,-143.487,19.083,-16.754
15072,-0.3604,-0.5483,-0.7500,29.236,5.188,8.911,-143.240,19.116,-16.859
15082,-0.3350,-0.5771,-0.7104,30.029,2.869,5.005,-142.938,19.133,-16.919
15092,-0.3281,-0.6206,-0.6992,20.447,0.488,3.540,-142.701,19.149,-16.952
15102,-0.3135,-0.6401,-0.7012,5.432,0.061,2.380,-142.603,19.155,-16.974
15112,-0.3164,-0.6177,-0.7402,-11.353,-0.122,3.052,-142.696,19.166,-17.001
15122,-0.3193,-0.6182,-0.7754,-20.813,1.465,3.479,-142.905,19.160,-17.040
15132,-0.3262,-0.5684,-0.8066,-24.048,2.075,2.991,-143.174,19.155,-17.078
15143,-0.3428,-0.4639,-0.8091,-17.395,1.465,3.357,-143.427,19.171,-17.117
15152,-0.3833,-0.3921,-0.7935,0.244,-0.488,5.737,-143.542,19.254,-17.161
15162,-0.3960,-0.4126,-0.7432,23.010,-1.099,6.409,-143.405,19.358,-17.210
15172,-0.3809,-0.5024,-0.7104,37.415,-1.709,3.601,-143.053,19.435,-17.227
15182,-0.3237,-0.6724,-0.6914,34.241,-1.892,-2.625,-142.630,19.424,-17.194
15192,-0.2593,-0.7749,-0.7051,12.329,-2.136,-10.498,-142.372,19.325,-17.089
15202,-0.2100,-0.8008,-0.7407,-16.724,-3.174,-13.367,-142.399,19.182,-16.957
15212,-0.2349,-0.6060,-0.7646,-38.635,-4.456,-6.775,-142.745,19.122,-16.875
15222,-0.3594,-0.3213,-0.7959,-36.255,-6.470,8.179,-143.267,19.259,-16.902
15232,-0.4468,-0.2925,-0.7812,-5.676,-2.441,19.958,-143.536,19.484,-17.056
15242,-0.4590,-0.3647,-0.7988,27.039,3.418,15.381,-143.437,19.627,-17.205
15252,-0.3691,-0.5762,-0.7920,48.462,9.277,-3.967,-142.971,19.539,-17.232
15262,-0.2383,-0.7666,-0.7920,48.218,9.705,-24.902,-142.372,19.243,-17.084
15272,-0.1211,-0.8345,-0.8208,32.776,3.479,-36.560,-141.877,18.858,-16.798
15282,-0.1338,-0.6787,-0.8271,17.944,-7.935,-29.907,-141.592,18.622,-16.496
15292,-0.2676,-0.5171,-0.8037,17.578,-18.616,-7.874,-141.416,18.688,-16.309
15302,-0.3833,-0.4980,-0.7358,33.508,-22.705,9.827,-141.108,18.973,-16.243
15312,-0.4321,-0.5542,-0.6484,43.762,-24.231,12.390,-140.636,19.314,-16.183
15322,-0.4141,-0.6196,-0.5537,39.001,-27.710,2.930,-140.109,19.616,-16.024
15332,-0.3677,-0.7100,-0.4902,18.250,-29.541,-7.812,-139.686,19.825,-15.754
15342,-0.3286,-0.7598,-0.5034,-10.620,-26.611,-14.526,-139.526,19.935,-15.458
15352,-0.3027,-0.7490,-0.5479,-32.532,-16.846,-15.015,-139.636,19.946,-15.216
15362,-0.3110,-0.6978,-0.6304,-45.898,-0.793,-8.606,-139.993,19.880,-15.145
15372,-0.3345,-0.5400,-0.7310,-43.030,18.982,0.732,-140.499,19.742,-15.276
15382,-0.3711,-0.4375,-0.7930,-21.912,36.377,13.062,-140.938,19.572,-15.634
15392,-0.3691,-0.4927,-0.7905,8.057,47.485,21.667,-141.097,19.363,-16.128
15402,-0.3628,-0.5283,-0.7734,25.452,48.157,24.963,-141.059,19.166,-16.655
15412,-0.3530,-0.5825,-0.7393,27.100,40.771,24.902,-140.955,19.023,-17.133
15422,-0.3398,-0.6621,-0.7246,17.151,29.358,19.714,-140.867,18.918,-17.490
15432,-0.3232,-0.7002,-0.7349,-2.686,17.090,10.803,-140.916,18.842,-17.688
15442,-0.3086,-0.6748,-0.7666,-26.428,7.263,2.686,-141.174,18.781,-17.759
15452,-0.3203,-0.5923,-0.8076,-39.429,0.732,-1.892,-141.586,18.754,-17.748
15462,-0.3428,-0.5034,-0.8369,-37.415,-4.333,-3.601,-142.015,18.776,-17.693
15472,-0.3667,-0.4561,-0.8296,-20.752,-7.629,-2.136,-142.289,18.842,-17.622
15482,-0.3706,-0.5068,-0.8047,2.808,-8.545,-1.221,-142.295,18.929,-17.562
15492,-0.3296,-0.6240,-0.7549,20.935,-7.996,-3.601,-142.042,18.962,-17.479
15502,-0.2837,-0.7168,-0.7207,23.560,-8.057,-5.920,-141.707,18.957,-17.375
15512,-0.2573,-0.7397,-0.6997,13.489,-7.874,-5.066,-141.460,18.940,-17.281
15522,-0.2725,-0.6665,-0.6953,0.183,-7.080,0.977,-141.394,18.968,-17.243
15532,-0.3345,-0.5229,-0.7090,-8.179,-5.493,11.475,-141.515,19.100,-17.303
15542,-0.4014,-0.4458,-0.7261,-4.700,-1.343,18.555,-141.680,19.286,-17.446
15552,-0.4116,-0.4541,-0.7456,3.723,4.761,16.296,-141.768,19.413,-17.611
15562,-0.3623,-0.5312,-0.7378,10.010,8.911,5.798,-141.729,19.402,-17.721
15572,-0.2935,-0.6460,-0.7358,7.935,8.728,-4.272,-141.625,19.281,-17.743
15582,-0.2495,-0.7202,-0.7412,-2.502,4.639,-8.972,-141.581,19.133,-17.699
15592,-0.2368,-0.6919,-0.7520,-12.817,-0.977,-7.996,-141.641,19.028,-17.628
15602,-0.2817,-0.6162,-0.7588,-18.921,-5.127,0.854,-141.812,19.045,-17.600
15612,-0.3364,-0.5601,-0.7759,-16.541,-5.249,9.155,-142.015,19.144,-17.639
15622,-0.3726,-0.4678,-0.7705,-6.409,-3.052,11.475,-142.169,19.270,-17.715
15632,-0.3975,-0.4233,-0.7559,7.263,-1.221,11.047,-142.207,19.402,-17.803
15643,-0.3843,-0.4673,-0.7285,20.386,1.099,7.507,-142.081,19.484,-17.869
15652,-0.3408,-0.5791,-0.7041,24.597,1.587,2.014,-141.833,19.495,-17.897
15662,-0.2949,-0.7085,-0.6992,16.174,0.305,-3.723,-141.592,19.440,-17.869
15672,-0.2534,-0.7388,-0.7241,-3.357,-1.160,-8.850,-141.526,19.336,-17.787
15682,-0.2461,-0.7026,-0.7466,-22.156,-1.892,-8.118,-141.669,19.243,-17.710
15692,-0.2954,-0.5542,-0.7773,-31.494,-2.136,-0.916,-142.004,19.232,-17.688
15702,-0.3555,-0.4922,-0.8091,-23.437,-0.061,7.507,-142.322,19.292,-17.748
15712,-0.3721,-0.4902,-0.8096,-4.272,3.784,9.338,-142.465,19.341,-17.853
15722,-0.3589,-0.4438,-0.7925,14.221,4.456,4.761,-142.427,19.358,-17.919
15732,-0.3521,-0.4893,-0.7446,28.564,2.319,1.953,-142.196,19.374,-17.952
15742,-0.3423,-0.5742,-0.7036,33.386,-0.610,0.916,-141.855,19.396,-17.957
15752,-0.3237,-0.6509,-0.6909,25.574,-3.113,-1.404,-141.537,19.407,-17.924
15762,-0.2939,-0.7085,-0.6958,7.019,-3.906,-3.601,-141.383,19.385,-17.869
15772,-0.2842,-0.7031,-0.7202,-16.113,-3.906,-3.967,-141.465,19.352,-17.809
15782,-0.3062,-0.6191,-0.7510,-33.142,-3.662,-1.953,-141.768,19.352,-17.770
15792,-0.3447,-0.5098,-0.7871,-35.156,-2.441,1.282,-142.169,19.385,-17.765
15802,-0.3730,-0.4741,-0.8022,-20.874,0.183,3.723,-142.460,19.435,-17.798
15812,-0.3813,-0.4668,-0.7944,1.160,1.831,1.953,-142.526,19.462,-17.825
15822,-0.3633,-0.5127,-0.7607,22.156,1.648,-2.258,-142.339,19.457,-17.814
15832,-0.3179,-0.6548,-0.7153,32.471,0.000,-5.493,-141.954,19.407,-17.770
15842,-0.2886,-0.7202,-0.6924,24.780,-3.784,-6.287,-141.603,19.369,-17.693
15852,-0.2812,-0.7344,-0.6875,6.165,-6.836,-3.418,-141.432,19.363,-17.617
15862,-0.3047,-0.6660,-0.6997,-13.855,-7.019,2.869,-141.515,19.413,-17.595
15872,-0.3584,-0.5381,-0.7305,-24.658,-5.859,9.155,-141.790,19.539,-17.633
15882,-0.3960,-0.4536,-0.7500,-20.691,-2.380,11.169,-142.092,19.671,-17.710
15892,-0.4189,-0.3936,-0.7603,-6.592,0.854,8.667,-142.289,19.781,-17.787
15902,-0.3994,-0.4634,-0.7500,10.742,2.869,2.197,-142.256,19.819,-17.825
15912,-0.3364,-0.6157,-0.7300,21.118,3.662,-6.470,-142.009,19.748,-17.798
15922,-0.2710,-0.7412,-0.7217,16.113,1.099,-13.550,-141.740,19.605,-17.688
15932,-0.2295,-0.7759,-0.7373,1.038,-2.991,-15.869,-141.597,19.457,-17.540
15942,-0.2437,-0.6865,-0.7476,-13.855,-5.432,-10.071,-141.652,19.380,-17.419
15952,-0.3218,-0.4878,-0.7593,-17.944,-6.592,1.587,-141.877,19.440,-17.386
15962,-0.4014,-0.4355,-0.7471,-3.723,-4.211,11.597,-142.015,19.600,-17.457
15972,-0.4248,-0.4565,-0.7339,13.855,-0.122,11.902,-141.971,19.737,-17.556
15982,-0.3936,-0.5010,-0.7070,24.902,1.343,2.808,-141.762,19.792,-17.589
15992,-0.3447,-0.5977,-0.7041,23.865,1.343,-5.371,-141.493,19.753,-17.551
16002,-0.2803,-0.7119,-0.7485,14.648,2.197,-12.634,-141.268,19.616,-17.463
16012,-0.1924,-0.7744,-0.8408,3.418,4.395,-19.470,-141.147,19.358,-17.331
