elapsed_ms,acc_x_g,acc_y_g,acc_z_g,gyro_x_dps,gyro_y_dps,gyro_z_dps,angle_x_deg,angle_y_deg,angle_z_deg
0,0.0986,-0.1025,-0.9941,7.751,-1.038,28.992,-171.881,-4.136,0.593
30,0.1865,-0.0435,-1.2749,7.751,-1.038,28.992,-171.42,-3.499,-0.571
40,0.1865,-0.0435,-1.2749,34.973,-33.63,53.711,-171.101,-3.126,-1.055
50,0.1865,-0.0435,-1.2749,34.119,-36.621,54.138,-170.793,-2.703,-1.533
60,0.1865,-0.0435,-1.2749,34.119,-36.621,54.138,-170.568,-2.346,-1.961
80,0.0303,-0.1348,-1.0532,5.127,-3.479,27.71,-170.414,-2.049,-2.582
90,0.0303,-0.1348,-1.0532,5.127,-3.479,27.71,-170.42,-2.032,-2.774
100,0.0098,-0.1802,-0.9209,-7.202,3.235,15.076,-170.469,-2.027,-2.928
110,-0.0244,-0.187,-0.8491,-7.202,3.235,15.076,-170.519,-1.956,-3.065
130,-0.0537,-0.186,-0.7881,-1.77,-2.136,15.015,-170.502,-1.714,-3.34
150,-0.0615,-0.1748,-0.7485,2.319,9.46,17.517,-170.398,-1.675,-3.691
169,0.0518,-0.1685,-0.9805,2.319,9.46,17.517,-170.189,-1.906,-4.153
180,0.0898,-0.1655,-1.0991,2.319,9.46,17.517,-170.013,-2.087,-4.411
190,0.1235,-0.1748,-1.2046,22.156,20.081,23.804,-169.805,-2.28,-4.68
209,0.1235,-0.1748,-1.2046,22.156,20.081,23.804,-169.437,-2.626,-5.29
239,0.1216,-0.2134,-1.2676,-1.953,-1.831,50.049,-169.321,-2.648,-6.564
249,0.1216,-0.2134,-1.2676,-4.395,-8.301,58.167,-169.349,-2.466,-7.119
260,0.0259,-0.1602,-1.0508,-4.395,-8.301,58.167,-169.42,-2.192,-7.734
279,-0.0073,-0.1167,-0.939,-9.521,-17.761,68.848,-169.629,-1.555,-9.025
289,-0.0166,-0.1157,-0.9121,-9.521,-17.761,68.848,-169.678,-1.258,-9.651
300,-0.0166,-0.1157,-0.9121,-0.793,-13.245,63.721,-169.706,-0.983,-10.256
319,-0.0488,-0.1328,-0.8784,-11.597,-7.385,59.753,-169.893,-0.522,-11.415
339,-0.0308,-0.1665,-0.896,-26.672,-6.409,58.96,-170.332,-0.137,-12.557
350,-0.0239,-0.1743,-0.9272,-29.175,-10.437,61.584,-170.612,0.082,-13.145
389,-0.0273,-0.1758,-0.9941,-21.79,-20.63,85.205,-171.563,1.302,-16.084
399,-0.0273,-0.1758,-0.9941,-23.071,-19.165,86.182,-171.788,1.626,-16.908
409,-0.0547,-0.2026,-0.9824,-23.071,-19.165,86.182,-172.029,1.934,-17.743
429,-0.062,-0.1929,-0.978,-21.362,-8.362,85.449,-172.496,2.406,-19.413
439,-0.0708,-0.1641,-0.9751,-21.362,-8.362,85.449,-172.667,2.565,-20.237
449,-0.0708,-0.1641,-0.9751,-7.69,1.038,79.285,-172.771,2.659,-21.022
468,-0.0259,-0.1509,-1.0469,5.127,8.728,66.467,-172.793,2.686,-22.434
479,-0.0024,-0.1699,-1.0903,10.498,11.841,56.641,-172.7,2.615,-23.011
498,0.0254,-0.1919,-1.1235,23.071,15.442,45.41,-172.117,2.302,-23.84
538,0.1602,-0.3032,-1.2046,37.903,23.499,23.193,-170.53,0.879,-24.604
569,0.0161,-0.2656,-0.8457,24.17,18.86,14.282,-169.47,0.082,-25.104
578,0.0161,-0.2656,-0.8457,15.137,15.747,13.855,-169.272,-0.038,-25.269
588,-0.0244,-0.1914,-0.7915,13.977,16.113,13.184,-169.102,-0.154,-25.428
599,-0.0244,-0.1914,-0.7915,14.038,20.569,11.658,-168.981,-0.33,-25.582
608,-0.0244,-0.1914,-0.7915,14.038,20.569,11.658,-168.882,-0.61,-25.724
618,-0.0244,-0.1914,-0.7915,18.494,39.124,5.554,-168.772,-1.016,-25.856
668,0.0122,-0.1104,-1.0967,27.893,45.837,4.944,-167.679,-2.906,-26.829
688,-0.0459,-0.1631,-0.98,27.893,45.837,4.944,-166.866,-2.895,-27.499
708,-0.1182,-0.2637,-0.8467,27.893,45.837,4.944,-165.954,-2.615,-28.185
728,-0.0205,-0.2871,-0.9453,41.87,6.409,34.241,-165.02,-2.466,-28.889
748,0.0073,-0.2979,-1.001,48.645,10.925,35.645,-164.048,-2.444,-29.63
797,0.0933,-0.4346,-1.0742,60.852,21.606,33.264,-160.818,-2.939,-31.547
807,0.0933,-0.4346,-1.0742,67.017,24.292,40.1,-160.087,-3.049,-32.003
837,0.064,-0.4307,-0.9771,75.5,31.86,52.368,-157.813,-3.307,-33.64
858,0.0518,-0.4233,-0.9565,82.275,36.804,56.702,-156.094,-3.549,-34.997
887,0.0469,-0.4604,-0.8633,62.744,4.211,46.082,-154.006,-3.356,-36.628
898,0.0469,-0.4604,-0.8633,55.176,-4.028,41.077,-153.391,-3.12,-36.98
917,-0.0835,-0.5142,-0.7026,39.551,-9.155,39.246,-152.457,-2.455,-37.562
937,-0.1455,-0.5474,-0.6265,24.231,-15.015,32.349,-151.6,-1.697,-38.018
947,-0.1455,-0.5474,-0.6265,12.817,-16.357,30.273,-151.32,-1.269,-38.21
957,-0.1455,-0.5474,-0.6265,10.803,-12.939,26.306,-151.057,-0.884,-38.375
967,-0.2021,-0.5732,-0.6055,10.803,-12.939,26.306,-150.82,-0.549,-38.529
987,-0.2231,-0.5562,-0.6235,5.859,10.193,14.954,-150.474,-0.121,-38.864
997,-0.2485,-0.5278,-0.6895,12.817,26.855,9.399,-150.266,-0.143,-39.078
1007,-0.2266,-0.5313,-0.7358,12.817,26.855,9.399,-149.98,-0.324,-39.287
1037,-0.062,-0.5586,-1.0293,0.183,32.837,-7.69,-149.464,-1.219,-39.727
1047,-0.062,-0.5586,-1.0293,-11.169,35.217,-6.958,-149.628,-1.527,-39.847
1056,-0.062,-0.5586,-1.0293,5.859,43.884,-9.827,-149.639,-1.95,-39.985
1066,-0.062,-0.5586,-1.0293,17.273,43.945,-10.62,-149.551,-2.379,-40.111
1096,0.0039,-0.4922,-1.165,24.292,44.8,-9.583,-148.859,-3.373,-40.562
1117,-0.0762,-0.481,-0.9492,40.1,18.738,5.859,-148.206,-3.367,-40.814
1146,-0.1372,-0.4873,-0.6909,-12.634,-32.288,0.366,-148.063,-2.384,-40.611
1157,-0.1372,-0.4873,-0.6909,-32.227,-37.842,-7.446,-148.337,-1.989,-40.347
1176,-0.1094,-0.4727,-0.6445,-69.946,-35.095,-13.184,-149.513,-1.296,-39.76
1197,-0.043,-0.4336,-0.7368,-80.933,-26.672,-14.099,-151.057,-0.813,-39.227
1206,-0.043,-0.4336,-0.7368,-80.933,-26.672,-14.099,-151.963,-0.692,-39.023
1216,-0.043,-0.4336,-0.7368,-80.933,-26.672,-14.099,-152.902,-0.665,-38.848
1256,0.1777,-0.2832,-1.2822,-50.72,-0.366,-11.047,-155.687,-1.055,-38.375
1266,0.1777,-0.2832,-1.2822,-21.118,-5.249,-8.484,-156.0,-1.099,-38.276
1296,0.0073,-0.3984,-1.0371,-8.667,-19.592,-6.104,-156.445,-0.884,-37.908
1306,0.0073,-0.3984,-1.0371,-5.249,-25.085,-6.592,-156.5,-0.654,-37.744
1326,-0.0898,-0.4385,-0.8745,-5.249,-25.085,-6.592,-156.725,-0.066,-37.365
1336,-0.0986,-0.439,-0.8433,-5.249,-25.085,-6.592,-156.874,0.214,-37.172
1346,-0.0986,-0.439,-0.8433,-20.63,-26.489,-8.362,-157.033,0.483,-36.991
1355,-0.0986,-0.439,-0.8433,-20.63,-26.489,-8.362,-157.231,0.78,-36.821
1376,-0.0698,-0.4321,-0.8574,-20.63,-26.489,-8.362,-157.582,1.472,-36.562
1395,0.0039,-0.4111,-1.0244,-23.315,-32.471,6.47,-158.005,2.126,-36.409
1416,0.043,-0.3911,-1.1294,-21.667,-23.437,1.77,-158.527,2.51,-36.277
1435,0.0503,-0.3887,-1.2056,-12.146,-17.944,-2.319,-158.895,2.741,-36.118
1445,0.0171,-0.3896,-1.1685,-6.042,-16.968,-1.465,-158.978,2.862,-36.046
1456,0.0171,-0.3896,-1.1685,0.244,-16.052,0.244,-158.994,2.988,-35.986
1465,0.0171,-0.3896,-1.1685,0.244,-16.052,0.244,-158.934,3.126,-35.953
1505,-0.0908,-0.4087,-0.936,12.634,-5.188,-2.686,-158.324,3.494,-35.804
1515,-0.0952,-0.416,-0.8921,10.498,-4.578,-5.066,-158.181,3.538,-35.744
1525,-0.1108,-0.4199,-0.8726,10.498,-4.578,-5.066,-158.055,3.576,-35.662
1555,-0.1328,-0.415,-0.854,-0.122,-4.395,-10.864,-157.885,3.702,-35.31
1565,-0.1328,-0.415,-0.854,-4.028,-4.028,-13.672,-157.879,3.724,-35.167
1574,-0.1328,-0.415,-0.854,-4.028,-4.028,-13.672,-157.896,3.752,-35.024
1585,-0.1133,-0.4341,-0.8623,-7.08,-6.897,-11.292,-157.906,3.801,-34.893
1614,-0.0596,-0.4155,-0.9736,-8.301,-10.193,-4.578,-158.077,4.01,-34.585
1635,0.0815,-0.3545,-1.2329,-4.15,-6.897,-4.333,-158.192,3.939,-34.475
1654,0.0859,-0.3501,-1.2603,9.338,-0.793,-2.075,-158.033,3.779,-34.453
1675,-0.0083,-0.3491,-1.0815,9.338,-0.793,-2.075,-157.599,3.675,-34.519
1694,-0.0552,-0.3525,-0.9849,9.338,-0.793,-2.075,-156.989,3.68,-34.612
1704,-0.0552,-0.3525,-0.9849,28.076,-0.61,5.066,-156.709,3.741,-34.656
1715,-0.126,-0.3555,-0.7739,22.949,-2.686,4.028,-156.473,3.829,-34.684
1724,-0.126,-0.3555,-0.7739,22.949,-2.686,4.028,-156.319,3.922,-34.689
1764,-0.0664,-0.3594,-0.8022,-2.38,-4.883,-3.113,-156.401,4.147,-34.459
1774,-0.0664,-0.3594,-0.8022,-9.644,-9.155,-6.287,-156.5,4.18,-34.365
1784,-0.0122,-0.3604,-0.938,-9.644,-9.155,-6.287,-156.66,4.208,-34.266
1804,0.0156,-0.3613,-0.9873,-9.644,-9.155,-6.287,-157.011,4.197,-34.08
1814,0.0366,-0.3521,-1.0845,-13.367,-6.897,-7.507,-157.187,4.169,-33.986
1824,0.0366,-0.3521,-1.0845,-13.245,-6.897,-7.385,-157.357,4.142,-33.887
1845,0.0278,-0.376,-1.0908,-13.245,-6.897,-7.385,-157.599,4.142,-33.701
1864,0.0107,-0.4063,-1.0356,0.366,-14.587,-1.038,-157.643,4.274,-33.558
1873,0.0107,-0.4063,-1.0356,0.366,-14.587,-1.038,-157.648,4.411,-33.497
1894,-0.1123,-0.478,-0.8574,-7.324,-20.203,0.427,-157.753,4.807,-33.322
1913,-0.1626,-0.4263,-0.8398,-47.058,-18.555,-6.165,-158.439,5.257,-33.08
1924,-0.1426,-0.3467,-0.8516,-47.058,-18.555,-6.165,-158.912,5.35,-32.932
1934,-0.1426,-0.3467,-0.8516,-43.213,-3.906,-15.015,-159.346,5.345,-32.778
1953,-0.0459,-0.29,-1.0103,-21.301,0.366,-9.827,-159.95,5.219,-32.552
1964,-0.0225,-0.2959,-1.0591,-7.874,0.916,-5.249,-160.065,5.147,-32.509
1974,-0.0225,-0.2959,-1.0591,2.319,1.77,-3.357,-160.065,5.076,-32.481
1983,-0.0313,-0.3589,-1.0444,2.319,1.77,-3.357,-160.005,5.021,-32.454
2014,-0.0884,-0.373,-0.9668,-0.977,-0.244,-4.395,-159.906,4.933,-32.338
2043,-0.1064,-0.3809,-0.9238,0.0,2.136,-4.883,-159.846,4.867,-32.228
2063,-0.0811,-0.3687,-0.959,-3.601,2.869,-3.723,-159.879,4.779,-32.173
2083,-0.0483,-0.3579,-1.0347,1.465,3.296,-2.93,-159.906,4.642,-32.135
2094,-0.0435,-0.3706,-1.0239,1.465,3.296,-2.93,-159.873,4.592,-32.13
2113,-0.0962,-0.3955,-0.9355,8.423,-0.61,0.854,-159.675,4.598,-32.141
2132,-0.1099,-0.394,-0.8887,4.7,-1.282,1.16,-159.576,4.691,-32.146
2172,-0.0566,-0.3115,-0.9971,-13.184,1.038,-3.235,-160.082,4.642,-32.069
2193,-0.0679,-0.3174,-0.9966,-9.583,-0.122,-4.089,-160.296,4.614,-31.992
2223,-0.1221,-0.3564,-0.854,-9.155,-8.789,-3.357,-160.488,4.79,-31.838
2242,-0.1367,-0.3608,-0.8257,-15.076,-11.292,-3.418,-160.741,5.059,-31.696
2282,-0.0664,-0.3662,-0.9023,-27.771,-10.254,-3.052,-161.774,5.389,-31.47
2292,0.0088,-0.2886,-1.1284,-35.767,-5.188,-0.061,-162.164,5.378,-31.454
2302,0.0088,-0.2886,-1.1284,-31.494,-2.319,0.427,-162.532,5.339,-31.448
2322,-0.0273,-0.269,-1.2139,-12.207,-0.549,0.61,-162.999,5.257,-31.454
2332,-0.064,-0.29,-1.166,-2.38,-0.366,1.221,-163.054,5.246,-31.465
2342,-0.064,-0.29,-1.166,2.93,0.122,1.465,-163.032,5.24,-31.481
2362,-0.1108,-0.335,-1.0342,2.93,0.122,1.465,-162.944,5.235,-31.492
2372,-0.1226,-0.3218,-0.9844,1.038,2.136,-0.671,-162.927,5.229,-31.492
2431,-0.1201,-0.3179,-0.9307,3.052,0.366,2.869,-162.691,5.208,-31.624
2452,-0.0977,-0.2822,-0.9683,3.052,0.366,2.869,-162.719,5.213,-31.663
2471,-0.0576,-0.2607,-1.0586,-2.258,0.854,-0.061,-162.823,5.164,-31.674
2541,-0.0737,-0.2915,-1.0156,13.245,0.671,-5.188,-162.422,4.96,-31.459
2551,-0.0737,-0.2915,-1.0156,11.841,-1.343,-10.01,-162.285,4.955,-31.36
2562,-0.1304,-0.3384,-0.9004,11.841,-1.343,-10.01,-162.147,4.96,-31.234
2581,-0.1382,-0.3511,-0.8755,3.967,-1.648,-14.465,-161.933,4.971,-30.954
2601,-0.1382,-0.3511,-0.8755,2.869,-0.793,-15.198,-161.757,4.949,-30.657
2631,-0.0933,-0.374,-0.98,2.869,-0.793,-15.198,-161.466,4.856,-30.295
2641,-0.0933,-0.374,-0.98,8.301,1.343,-9.277,-161.367,4.807,-30.212
2681,-0.0313,-0.2998,-1.1177,15.869,5.005,-6.287,-160.928,4.482,-29.987
2691,-0.0283,-0.2925,-1.1216,17.761,5.31,-7.08,-160.79,4.378,-29.938
2711,-0.0313,-0.2817,-1.1133,19.226,5.066,-9.094,-160.499,4.175,-29.806
2730,-0.0605,-0.2769,-1.0063,19.226,5.066,-9.094,-160.225,4.01,-29.663
2741,-0.0742,-0.2793,-0.957,19.226,5.066,-9.094,-160.098,3.944,-29.597
2751,-0.0742,-0.2793,-0.957,15.137,3.479,-8.24,-159.966,3.895,-29.531
2791,-0.0859,-0.332,-0.8462,6.531,1.77,-10.742,-159.582,3.768,-29.207
2800,-0.0859,-0.332,-0.8462,6.531,1.77,-10.742,-159.549,3.724,-29.114
2841,-0.0054,-0.3735,-1.0146,-5.92,-0.671,-6.47,-159.653,3.527,-28.795
2850,-0.0054,-0.3735,-1.0146,-5.676,-0.977,-4.822,-159.714,3.483,-28.746
2890,-0.0361,-0.3765,-1.0205,-1.099,-2.747,0.854,-159.835,3.455,-28.68
2950,-0.0825,-0.3467,-0.9243,-6.042,-1.404,3.357,-159.999,3.73,-28.79
2960,-0.0825,-0.3467,-0.9243,-4.578,-0.488,2.869,-160.043,3.746,-28.817
2970,-0.0557,-0.3452,-0.9878,-4.578,-0.488,2.869,-160.082,3.746,-28.839
2990,-0.0557,-0.3452,-0.9878,-0.854,0.977,2.075,-160.131,3.724,-28.889
3010,-0.0371,-0.3623,-1.0454,1.099,0.244,1.892,-160.131,3.691,-28.927
3029,-0.0513,-0.3613,-1.0464,1.099,0.244,1.892,-160.098,3.669,-28.96
3050,-0.0601,-0.3667,-1.0112,7.568,2.075,0.916,-159.966,3.631,-28.993
3099,-0.0903,-0.3647,-0.9126,2.625,1.831,0.793,-159.637,3.604,-29.053
3120,-0.0874,-0.3438,-0.9077,2.441,2.38,1.099,-159.593,3.593,-29.092
3139,-0.0483,-0.3374,-0.98,2.441,2.38,1.099,-159.549,3.543,-29.125
3149,-0.0352,-0.3403,-1.0034,3.967,2.136,0.488,-159.527,3.51,-29.136
3160,-0.0352,-0.3403,-1.0034,3.967,1.587,0.427,-159.505,3.477,-29.147
3209,-0.0415,-0.3472,-1.0186,6.104,0.305,0.854,-159.357,3.4,-29.196
3229,-0.0781,-0.3677,-0.9229,5.493,-0.305,1.648,-159.247,3.428,-29.229
3259,-0.0942,-0.3726,-0.8691,2.136,1.404,2.014,-159.099,3.499,-29.301
3269,-0.0942,-0.3726,-0.8691,-0.671,1.77,2.136,-159.088,3.51,-29.328
3309,-0.0293,-0.3394,-1.0127,-6.287,2.197,2.014,-159.291,3.461,-29.432
3318,-0.0293,-0.3394,-1.0127,-6.287,2.197,2.014,-159.39,3.417,-29.46
3328,-0.0015,-0.3179,-1.0889,-5.493,1.77,2.014,-159.489,3.373,-29.487
3339,-0.0044,-0.3174,-1.1021,-5.493,1.77,2.014,-159.565,3.334,-29.504
3358,-0.0278,-0.3232,-1.0762,1.953,1.038,-0.244,-159.626,3.268,-29.515
3379,-0.0278,-0.3232,-1.0762,4.333,1.953,-2.197,-159.598,3.214,-29.493
3408,-0.0864,-0.374,-0.9209,4.639,0.793,-3.296,-159.401,3.192,-29.421
3419,-0.1094,-0.397,-0.8472,1.953,0.671,-3.296,-159.335,3.208,-29.394
3428,-0.1094,-0.397,-0.8472,1.953,0.671,-3.296,-159.318,3.235,-29.366
3468,-0.084,-0.3911,-0.8579,-7.324,-0.427,-1.709,-159.456,3.345,-29.306
3488,-0.0137,-0.3608,-1.0151,-9.888,-2.441,0.793,-159.648,3.351,-29.312
3508,0.0234,-0.312,-1.1475,-11.23,-0.732,1.465,-159.95,3.29,-29.333
3528,0.0288,-0.2944,-1.1997,-1.404,2.197,-0.366,-160.17,3.164,-29.35
3598,-0.1221,-0.375,-0.7891,3.723,-1.831,1.038,-159.922,3.389,-29.328
3617,-0.083,-0.3564,-0.8652,3.723,-1.831,1.038,-160.378,3.356,-29.273
3628,0.0078,-0.2979,-1.1387,-30.701,5.066,-6.165,-160.73,3.252,-29.229
3638,0.0293,-0.2817,-1.2178,-31.494,6.775,-7.568,-161.098,3.12,-29.18
3727,-0.0825,-0.3862,-0.9087,7.996,3.845,-3.357,-160.906,2.736,-28.932
3747,-0.0708,-0.3726,-0.8994,7.996,3.845,-3.357,-160.735,2.697,-28.861
3767,-0.0698,-0.3643,-0.894,-0.122,-0.916,-3.052,-160.681,2.714,-28.795
3777,-0.0596,-0.3506,-0.9185,-0.671,-1.16,-2.136,-160.67,2.725,-28.768
3787,-0.0596,-0.3506,-0.9185,-1.892,-0.732,-1.282,-160.681,2.73,-28.757
3796,-0.0327,-0.3394,-0.9746,-1.892,-0.732,-1.282,-160.708,2.719,-28.746
3807,-0.0264,-0.3311,-1.0,-3.113,-0.488,-1.038,-160.746,2.708,-28.735
3817,-0.0234,-0.3213,-1.0273,-2.808,0.366,-1.465,-160.79,2.686,-28.718
3827,-0.0234,-0.3213,-1.0273,-1.465,1.709,-2.197,-160.834,2.637,-28.707
3837,-0.0234,-0.3213,-1.0273,-0.793,2.441,-2.991,-160.862,2.576,-28.685
3847,-0.0234,-0.3213,-1.0273,-0.793,2.441,-2.991,-160.867,2.527,-28.658
3857,-0.0273,-0.3359,-1.0205,-0.793,2.441,-2.991,-160.845,2.494,-28.63
3876,-0.04,-0.3511,-0.9829,3.784,0.427,-1.892,-160.752,2.472,-28.592
3887,-0.0757,-0.3765,-0.9209,3.784,0.0,-1.282,-160.686,2.488,-28.581
3897,-0.0757,-0.3765,-0.9209,1.953,-0.549,-0.732,-160.626,2.516,-28.57
3916,-0.0869,-0.3931,-0.8896,-2.502,-0.977,-1.038,-160.565,2.576,-28.548
3927,-0.082,-0.3823,-0.9272,-5.615,-0.488,-1.221,-160.593,2.598,-28.537
3937,-0.082,-0.3823,-0.9272,-7.996,1.587,-1.099,-160.664,2.587,-28.531
3946,-0.082,-0.3823,-0.9272,-7.996,1.587,-1.099,-160.752,2.532,-28.531
3977,0.0205,-0.3188,-1.1479,7.202,7.69,-1.831,-160.84,2.23,-28.559
3986,0.0205,-0.3188,-1.1479,7.202,7.69,-1.831,-160.735,2.137,-28.559
4006,-0.0342,-0.3647,-1.0176,7.202,7.69,-1.831,-160.461,2.027,-28.526
4036,-0.0698,-0.3374,-0.8892,0.183,1.953,-6.042,-160.258,1.967,-28.4
4046,-0.0698,-0.3374,-0.8892,-2.625,1.526,-5.981,-160.28,1.956,-28.35
4056,-0.0532,-0.3066,-0.9058,-2.625,1.526,-5.981,-160.313,1.939,-28.306
4076,-0.0264,-0.3081,-0.9556,0.366,0.732,-4.7,-160.351,1.895,-28.224
4086,-0.0264,-0.3081,-0.9556,0.549,0.549,-4.944,-160.362,1.857,-28.18
4116,0.0527,-0.2651,-1.1094,-0.977,1.404,-2.686,-160.516,1.675,-28.125
4135,0.1143,-0.2847,-1.2017,6.348,10.254,2.258,-160.549,1.373,-28.218
4146,0.1089,-0.3115,-1.1836,8.606,10.742,2.747,-160.51,1.219,-28.279
4156,0.1089,-0.3115,-1.1836,8.606,10.742,2.747,-160.395,1.088,-28.35
4175,-0.0444,-0.3862,-0.9033,18.982,7.324,5.31,-159.983,1.005,-28.515
4186,-0.0859,-0.4312,-0.7915,18.127,6.47,8.606,-159.725,1.022,-28.614
4196,-0.0859,-0.4312,-0.7915,15.869,5.554,9.277,-159.445,1.077,-28.724
4205,-0.0859,-0.4312,-0.7915,15.869,5.554,9.277,-159.214,1.176,-28.828
4236,-0.1343,-0.4097,-0.6758,-14.648,-0.122,8.179,-159.071,1.549,-29.097
4245,-0.1343,-0.4097,-0.6758,-20.508,-1.587,8.24,-159.23,1.626,-29.169
4265,-0.1343,-0.4097,-0.6758,-24.536,-2.808,9.583,-159.802,1.692,-29.323
4295,0.0947,-0.228,-1.3062,-5.981,2.136,5.127,-160.499,1.582,-29.531
4305,0.0615,-0.2417,-1.2783,-5.981,2.136,5.127,-160.571,1.533,-29.564
4315,0.0615,-0.2417,-1.2783,-5.981,2.136,5.127,-160.554,1.494,-29.575
4345,-0.0571,-0.3359,-1.0073,12.573,3.845,-5.249,-160.252,1.384,-29.509
4394,-0.0742,-0.3975,-0.855,7.751,4.395,-8.606,-159.675,1.154,-29.18
4415,-0.0625,-0.4277,-0.8408,7.751,4.395,-8.606,-159.439,1.093,-29.059
4434,-0.0552,-0.4385,-0.8525,-4.7,-0.793,-3.357,-159.34,1.104,-28.976
4445,-0.0488,-0.4253,-0.8696,-8.728,-1.648,-1.099,-159.373,1.137,-28.96
4455,-0.0488,-0.4253,-0.8696,-10.01,-2.869,0.305,-159.434,1.17,-28.954
4474,0.0088,-0.3501,-1.0273,-12.207,-4.089,4.517,-159.681,1.247,-28.993
4504,0.0503,-0.2876,-1.147,0.244,-2.136,5.31,-160.01,1.291,-29.119
4525,0.0186,-0.3022,-1.1143,6.653,-2.319,4.211,-159.95,1.307,-29.174
4535,-0.0059,-0.3252,-1.0581,12.939,-2.93,2.38,-159.851,1.329,-29.185
4544,-0.0273,-0.3447,-1.0034,13.55,-2.502,1.16,-159.725,1.357,-29.191
4564,-0.0273,-0.3447,-1.0034,7.996,-2.014,-0.305,-159.494,1.445,-29.174
4594,-0.0889,-0.4048,-0.7979,-1.953,-3.174,-0.549,-159.296,1.626,-29.13
4614,-0.0845,-0.4033,-0.8052,-9.827,-4.578,0.793,-159.357,1.763,-29.108
4664,0.062,-0.3003,-1.1646,-4.822,-2.38,1.953,-160.038,1.78,-29.141
4674,0.0356,-0.3154,-1.1411,-4.822,-2.38,1.953,-160.087,1.763,-29.147
4693,-0.0161,-0.3472,-1.0435,3.784,0.061,0.488,-160.065,1.747,-29.152
4714,-0.0303,-0.3599,-0.9941,3.601,1.709,-0.305,-159.983,1.725,-29.158
4754,-0.0146,-0.3501,-0.9683,-2.258,4.272,-3.601,-159.939,1.588,-29.13
4784,0.0107,-0.3364,-1.062,-6.531,5.859,-5.371,-160.175,1.307,-29.037
4803,0.0122,-0.3413,-1.0591,-4.822,8.545,-9.033,-160.307,1.06,-28.932
4824,0.0122,-0.3413,-1.0591,-0.061,6.592,-7.629,-160.291,0.89,-28.828
4834,-0.0566,-0.3936,-0.8833,-0.061,6.592,-7.629,-160.241,0.84,-28.784
4863,-0.0269,-0.3638,-0.9087,-5.31,6.409,-6.042,-160.252,0.654,-28.691
4913,-0.002,-0.3184,-0.9805,-1.038,5.859,-2.869,-160.45,0.28,-28.608
4923,-0.002,-0.3184,-0.9805,-1.038,5.859,-2.869,-160.455,0.214,-28.614
4933,0.0024,-0.3022,-1.0151,-1.038,5.859,-2.869,-160.461,0.165,-28.619
4953,-0.0151,-0.2617,-1.0029,2.686,3.906,-0.488,-160.488,0.104,-28.63
4973,-0.0293,-0.2573,-0.9917,8.057,1.587,-4.7,-160.444,0.077,-28.581
4992,-0.021,-0.3145,-0.9658,8.057,1.587,-4.7,-160.302,0.016,-28.416
5013,-0.0059,-0.3911,-0.9419,8.423,2.625,-15.747,-160.065,-0.11,-28.152
5032,0.0176,-0.4282,-0.9546,6.104,0.977,-13.794,-159.857,-0.236,-27.883
5043,0.0293,-0.4302,-0.9702,6.104,0.977,-13.794,-159.785,-0.302,-27.779
5062,0.0371,-0.4248,-1.0024,2.075,3.967,-7.019,-159.697,-0.45,-27.642
5072,0.0444,-0.4189,-1.0171,3.357,5.188,-3.418,-159.642,-0.527,-27.631
5083,0.0444,-0.4189,-1.0171,3.723,6.47,0.793,-159.593,-0.604,-27.658
5102,0.0449,-0.3833,-1.019,6.897,10.498,6.714,-159.478,-0.775,-27.828
5123,0.0308,-0.373,-0.9858,10.681,13.855,6.287,-159.274,-0.989,-28.048
5132,0.0308,-0.373,-0.9858,10.681,13.855,6.287,-159.164,-1.121,-28.152
5142,0.0308,-0.373,-0.9858,10.681,13.855,6.287,-159.071,-1.269,-28.262
5152,0.0229,-0.3442,-0.9551,10.681,13.855,6.287,-159.011,-1.428,-28.394
5172,0.042,-0.3291,-0.9619,1.892,17.395,11.292,-159.005,-1.719,-28.718
5182,0.0488,-0.2905,-0.9868,2.563,14.526,10.62,-159.022,-1.829,-28.867
5192,0.0488,-0.2905,-0.9868,4.944,12.329,8.057,-159.016,-1.923,-28.987
5201,0.0449,-0.3066,-0.9956,4.944,12.329,8.057,-158.994,-2.0,-29.081
5212,0.0449,-0.3066,-0.9956,4.944,12.329,8.057,-158.983,-2.071,-29.152
5222,0.0449,-0.3066,-0.9956,1.892,7.568,2.808,-158.983,-2.131,-29.207
5241,0.0381,-0.3696,-0.957,0.366,4.7,1.709,-158.994,-2.181,-29.257
5252,0.0381,-0.3696,-0.957,-6.104,0.305,0.671,-159.022,-2.17,-29.262
5281,0.0156,-0.4438,-0.9106,-16.785,-4.944,3.235,-159.236,-2.016,-29.284
5302,0.0288,-0.4136,-0.9551,-20.935,-6.531,4.272,-159.626,-1.851,-29.323
5321,0.0474,-0.3643,-1.0171,-28.687,-6.042,4.822,-160.175,-1.708,-29.366
5351,0.0591,-0.3462,-1.0576,-26.123,-5.188,3.052,-160.994,-1.566,-29.405
5361,0.0415,-0.3359,-1.0454,-25.208,-5.249,2.563,-161.252,-1.511,-29.41
5391,0.0122,-0.3047,-1.0259,-23.682,-4.517,2.563,-161.999,-1.357,-29.438
5411,0.0068,-0.2661,-1.0288,-12.878,1.526,-2.38,-162.372,-1.351,-29.41
5431,0.0059,-0.2578,-1.0142,-4.089,4.089,-5.798,-162.576,-1.434,-29.339
5451,0.001,-0.269,-0.9893,4.822,4.211,-6.348,-162.554,-1.522,-29.24
5471,-0.0127,-0.3013,-0.9316,10.986,3.906,-4.456,-162.361,-1.577,-29.169
5491,-0.0112,-0.3027,-0.9263,18.066,4.639,-1.648,-162.043,-1.637,-29.147
5500,-0.0112,-0.3027,-0.9263,18.066,4.639,-1.648,-161.801,-1.675,-29.163
5511,-0.0112,-0.3027,-0.9263,29.236,4.395,1.831,-161.51,-1.714,-29.196
5521,0.0459,-0.3364,-0.9951,29.236,4.395,1.831,-161.208,-1.747,-29.224
5540,0.0576,-0.3472,-1.0122,29.236,4.395,1.831,-160.741,-1.829,-29.224
5561,0.0576,-0.3472,-1.0122,1.038,1.099,-9.338,-160.642,-1.939,-29.086
5580,0.0498,-0.3281,-1.002,-12.268,0.244,-13.0,-160.867,-2.049,-28.856
5591,0.0493,-0.3325,-0.9893,-12.268,0.244,-13.0,-161.016,-2.093,-28.735
5620,0.0327,-0.332,-0.9546,-9.888,-1.709,-6.897,-161.373,-2.137,-28.46
5660,0.0361,-0.3296,-0.9561,-0.061,-0.183,0.488,-161.472,-2.126,-28.4
5670,0.042,-0.3481,-0.9683,-0.061,-0.183,0.488,-161.472,-2.12,-28.4
5690,0.0459,-0.332,-0.9805,-6.775,-1.587,0.61,-161.565,-2.093,-28.405
5700,0.0479,-0.3213,-0.9956,-8.118,-1.892,0.244,-161.647,-2.082,-28.405
5710,0.0479,-0.3213,-0.9956,-8.057,-2.136,0.122,-161.741,-2.065,-28.4
5730,0.0532,-0.311,-1.0122,-7.568,-2.136,0.061,-161.917,-2.043,-28.389
5759,0.0464,-0.3286,-1.0054,-8.24,-1.77,-1.77,-162.175,-2.021,-28.317
5770,0.0464,-0.3286,-1.0054,-13.428,-1.831,-3.784,-162.301,-2.016,-28.279
5780,0.0356,-0.3335,-0.9868,-13.428,-1.831,-3.784,-162.449,-2.01,-28.229
5799,0.0317,-0.3247,-0.9785,-15.991,-0.977,-4.517,-162.757,-2.01,-28.125
5820,0.0278,-0.3071,-0.9731,-13.916,-0.122,-2.991,-162.988,-2.016,-28.092
5839,0.0308,-0.3022,-0.981,-13.916,-0.122,-2.991,-162.993,-2.043,-28.158
5860,0.0596,-0.314,-1.0176,6.47,3.418,5.493,-162.867,-2.093,-28.273
5879,0.0596,-0.314,-1.0176,5.676,3.479,5.493,-162.746,-2.148,-28.4
5890,0.0605,-0.3096,-1.0356,5.676,3.479,5.493,-162.702,-2.181,-28.455
5909,0.0605,-0.3096,-1.0356,3.357,5.737,2.625,-162.658,-2.291,-28.548
5919,0.062,-0.2959,-1.0405,3.357,5.737,2.625,-162.625,-2.357,-28.581
5929,0.062,-0.2959,-1.0405,3.357,5.737,2.625,-162.587,-2.433,-28.608
5959,0.0503,-0.2959,-1.0176,6.836,8.606,-0.244,-162.422,-2.681,-28.68
5969,0.0503,-0.2959,-1.0176,6.287,9.277,-0.488,-162.378,-2.769,-28.702
5979,0.0503,-0.2959,-1.0176,6.287,9.277,-0.488,-162.307,-2.862,-28.724
5989,0.0503,-0.2959,-1.0176,8.85,9.216,-1.831,-162.219,-2.95,-28.735
6009,0.0303,-0.3521,-0.9478,5.798,7.019,-2.319,-162.048,-3.093,-28.735
6019,0.0151,-0.3643,-0.9131,3.906,5.676,-1.404,-161.971,-3.126,-28.74
6029,0.0151,-0.3643,-0.9131,1.404,4.211,-0.305,-161.911,-3.137,-28.746
6039,-0.0015,-0.3687,-0.8799,1.404,4.211,-0.305,-161.878,-3.131,-28.768
6058,0.0161,-0.3506,-0.8955,-5.798,0.977,2.136,-161.895,-3.098,-28.812
6069,0.0332,-0.3364,-0.9238,-7.446,-0.122,2.869,-161.949,-3.076,-28.839
6079,0.0332,-0.3364,-0.9238,-8.301,-1.16,3.662,-162.026,-3.054,-28.872
6098,0.0332,-0.3364,-0.9238,-8.301,-1.16,3.662,-162.219,-2.999,-28.943
6109,0.1001,-0.2734,-1.0835,-8.301,-1.16,3.662,-162.323,-2.988,-28.976
6128,0.105,-0.2695,-1.1104,-3.906,-0.122,0.122,-162.499,-3.01,-28.993
6149,0.0737,-0.3164,-1.0659,-4.333,-0.122,-1.465,-162.642,-3.038,-28.949
6168,0.0508,-0.3247,-1.0244,-9.888,-2.563,-3.723,-162.861,-2.994,-28.861
6178,0.0288,-0.3115,-0.9463,-13.977,-3.784,-3.479,-162.993,-2.955,-28.812
6189,0.0288,-0.3115,-0.9463,-15.076,-4.089,-2.625,-163.13,-2.906,-28.779
6218,0.0313,-0.2856,-0.9316,-12.695,-3.906,0.61,-163.499,-2.758,-28.724
6238,0.0342,-0.2886,-0.9448,-11.536,-3.723,1.404,-163.696,-2.659,-28.729
6248,0.0342,-0.2886,-0.9448,-8.85,-4.395,2.075,-163.79,-2.609,-28.74
6258,0.0576,-0.2539,-1.0176,-8.85,-4.395,2.075,-163.9,-2.565,-28.751
6288,0.0933,-0.2187,-1.0986,-2.441,-0.549,-0.122,-164.163,-2.56,-28.762
6298,0.0933,-0.2187,-1.0986,-0.488,0.61,-1.404,-164.213,-2.587,-28.751
6338,0.0396,-0.3022,-1.0005,2.136,-1.221,-4.639,-164.081,-2.626,-28.614
6357,0.0112,-0.3203,-0.9189,-3.418,-4.395,-5.981,-164.064,-2.56,-28.488
6378,0.0127,-0.3154,-0.9136,-6.348,-6.226,-5.859,-164.125,-2.439,-28.339
6387,0.0195,-0.311,-0.9287,-6.897,-6.958,-5.005,-164.169,-2.373,-28.268
6397,0.0327,-0.2915,-0.9521,-7.751,-7.935,-3.54,-164.235,-2.302,-28.213
6408,0.0449,-0.2759,-0.9829,-7.751,-7.935,-3.54,-164.312,-2.23,-28.169
6467,0.0928,-0.2466,-1.0903,11.841,-15.564,2.197,-164.355,-1.758,-27.977
6477,0.0527,-0.2524,-1.0679,11.841,-15.564,2.197,-164.24,-1.604,-27.949
6507,0.0317,-0.2671,-1.041,19.043,-13.977,-2.197,-163.696,-1.208,-27.773
6517,-0.0127,-0.3394,-0.9336,19.043,-13.977,-2.197,-163.493,-1.11,-27.691
6537,-0.0278,-0.355,-0.894,7.69,-5.798,-4.15,-163.191,-0.956,-27.559
6557,-0.0278,-0.355,-0.894,2.136,-3.296,-2.808,-163.092,-0.884,-27.504
6587,0.0317,-0.3149,-0.9771,-8.179,-0.671,2.991,-163.235,-0.873,-27.543
6597,0.0317,-0.3149,-0.9771,-8.179,-0.793,4.639,-163.323,-0.868,-27.581
6606,0.0317,-0.3149,-0.9771,-7.69,-0.366,5.615,-163.427,-0.868,-27.636
6627,0.0635,-0.2344,-1.1118,-7.69,-0.366,5.615,-163.603,-0.906,-27.746
6656,0.041,-0.2437,-1.0923,6.47,2.441,1.892,-163.636,-0.994,-27.845
6667,0.041,-0.2437,-1.0923,8.301,2.625,0.916,-163.586,-1.022,-27.861
6686,0.0142,-0.2705,-1.0322,9.338,2.869,-1.404,-163.422,-1.071,-27.861
6707,-0.0078,-0.3101,-0.9619,6.104,1.648,-1.953,-163.24,-1.082,-27.839
6736,-0.0122,-0.3364,-0.9121,-0.793,0.061,-0.977,-163.098,-1.038,-27.806
6747,-0.0059,-0.3354,-0.9214,-3.113,-0.61,-0.671,-163.098,-1.022,-27.795
6766,0.0161,-0.3169,-0.9717,-6.653,-1.77,0.0,-163.18,-0.989,-27.784
6806,0.0713,-0.2827,-1.1021,-5.737,-1.099,0.244,-163.488,-0.989,-27.79
6856,0.0059,-0.2734,-1.0361,-27.588,-1.526,-8.911,-164.46,-1.11,-27.521
6865,0.0059,-0.2734,-1.0361,-27.588,-1.526,-8.911,-164.707,-1.093,-27.427
6876,-0.0396,-0.2661,-0.9355,-20.142,-3.235,-7.69,-164.905,-1.049,-27.345
6905,-0.0508,-0.2778,-0.8633,9.033,-1.282,4.883,-164.894,-0.846,-27.339
6916,-0.0396,-0.2915,-0.8701,15.198,-0.916,8.179,-164.707,-0.786,-27.416
6926,-0.0171,-0.2998,-0.8989,15.198,-0.916,8.179,-164.504,-0.731,-27.51
6995,0.0605,-0.2275,-1.1353,-4.211,-2.258,1.343,-164.416,-0.61,-27.839
7015,0.0444,-0.231,-1.1118,4.7,0.916,-2.014,-164.432,-0.654,-27.806
7055,-0.0195,-0.3271,-0.9106,12.024,1.16,0.305,-163.916,-0.676,-27.795
7075,-0.0264,-0.333,-0.8872,5.859,0.366,0.61,-163.68,-0.643,-27.806
7095,-0.0034,-0.2998,-0.9194,-0.122,-0.916,1.709,-163.608,-0.599,-27.828
7105,0.0112,-0.29,-0.9517,-0.122,-1.343,2.258,-163.603,-0.577,-27.85
7124,0.0269,-0.2832,-0.9893,-0.122,-1.343,2.258,-163.597,-0.555,-27.894
7145,0.0571,-0.2739,-1.0767,3.418,-1.038,2.869,-163.548,-0.56,-27.938
7164,0.0596,-0.2861,-1.0889,3.418,-1.038,2.869,-163.433,-0.604,-27.993
7185,0.0532,-0.2964,-1.084,3.418,-1.038,2.869,-163.268,-0.676,-28.032
7215,0.022,-0.3154,-1.0063,7.996,5.127,0.671,-163.032,-0.818,-28.087
7225,0.022,-0.3154,-1.0063,8.911,5.432,1.282,-162.933,-0.868,-28.114
7244,0.022,-0.3154,-1.0063,10.437,5.798,2.319,-162.708,-0.961,-28.185
7274,0.0259,-0.3237,-0.9878,10.071,5.92,2.441,-162.383,-1.126,-28.312
7284,0.0259,-0.3237,-0.9878,10.071,5.92,2.441,-162.285,-1.187,-28.356
7294,0.0361,-0.3159,-1.0083,10.071,5.92,2.441,-162.18,-1.252,-28.394
7322,0.0356,-0.3188,-1.0142,12.146,7.08,2.625,-161.933,-93.862,123.635
7334,0.0562,-0.3203,-1.0312,15.32,8.667,2.93,-161.642,-1.538,-28.597
7354,0.0601,-0.3281,-1.042,18.25,9.521,3.723,-161.318,-1.719,-28.724
7384,0.064,-0.3413,-1.0317,21.179,10.742,4.028,-160.692,-2.027,-28.943
7404,0.0654,-0.3564,-1.0239,24.536,12.207,4.395,-160.197,-2.274,-29.114
7423,0.0625,-0.3657,-0.9907,27.1,18.616,2.441,-159.659,-2.609,-29.29
7444,0.0625,-0.3657,-0.9907,27.1,18.616,2.441,-159.071,-2.999,-29.443
7454,0.0381,-0.3604,-0.9434,27.1,18.616,2.441,-158.862,-3.175,-29.509
7463,0.0283,-0.3496,-0.9312,19.836,17.517,-2.136,-158.67,-3.329,-29.553
7493,0.0112,-0.3481,-0.894,12.695,7.507,-3.052,-158.192,-3.604,-29.586
7503,-0.0171,-0.3506,-0.8428,13.733,5.249,-3.174,-158.049,-3.615,-29.575
7514,-0.0361,-0.356,-0.8169,13.733,5.249,-3.174,-157.912,-3.598,-29.559
7533,-0.0376,-0.3667,-0.7974,8.484,-0.183,-3.723,-157.648,-3.505,-29.498
7554,-0.0547,-0.3682,-0.771,4.761,-1.709,-4.333,-157.56,-3.351,-29.394
7573,-0.0278,-0.3711,-0.8115,-19.958,-12.085,-6.104,-157.824,-3.098,-29.213
7583,0.0078,-0.3525,-0.8696,-28.503,-15.869,-6.348,-158.11,-2.95,-29.092
7593,0.0078,-0.3525,-0.8696,-35.645,-18.494,-6.592,-158.494,-2.807,-28.96
7613,0.0078,-0.3525,-0.8696,-38.33,-19.348,-7.08,-159.368,-2.532,-28.691
7643,0.126,-0.3101,-1.165,-19.287,-12.451,-4.761,-160.334,-2.274,-28.378
7653,0.126,-0.3101,-1.165,-12.024,-10.376,-4.272,-160.483,-2.219,-28.301
7663,0.084,-0.3784,-1.1011,-12.024,-10.376,-4.272,-160.554,-2.164,-28.24
7683,0.0391,-0.415,-0.9829,-4.883,-8.728,-0.793,-160.598,-2.021,-28.152
7703,0.0142,-0.416,-0.9321,-6.348,-9.46,0.244,-160.648,-1.802,-28.103
7712,-0.0146,-0.3945,-0.874,-6.348,-9.46,0.244,-160.708,-1.664,-28.092
7722,-0.0229,-0.376,-0.8618,-15.015,-11.475,4.456,-160.818,-1.511,-28.098
7733,-0.0229,-0.376,-0.8618,-16.846,-10.742,4.639,-160.95,-1.368,-28.109
7762,-0.0205,-0.3398,-0.8818,-18.555,-12.024,5.188,-161.455,-0.945,-28.13
7792,0.0601,-0.2339,-1.064,-19.043,-11.414,-0.427,-162.175,-0.654,-28.07
7802,0.062,-0.2236,-1.0903,-16.907,-9.705,-3.662,-162.405,-0.599,-28.01
7813,0.062,-0.2236,-1.0903,-14.16,-7.751,-7.08,-162.609,-0.577,-27.916
7832,0.0674,-0.2329,-1.1001,-6.836,-3.723,-13.794,-162.883,-0.61,-27.658
7842,0.0591,-0.2871,-1.0708,-4.15,-1.16,-15.93,-162.944,-0.67,-27.499
7853,0.0591,-0.2871,-1.0708,-2.625,-0.427,-16.541,-162.977,-0.736,-27.339
7872,0.0591,-0.2871,-1.0708,-1.709,2.075,-14.587,-162.971,-0.895,-27.059
7892,0.0469,-0.3979,-1.0005,-0.061,4.028,-10.315,-162.9,-1.066,-26.856
7912,0.0449,-0.4028,-0.9902,0.916,5.432,-4.395,-162.79,-1.225,-26.774
7922,0.0425,-0.395,-0.9873,0.916,5.432,-4.395,-162.729,-1.291,-26.779
7942,0.0322,-0.3652,-0.9849,2.258,5.737,3.967,-162.614,-1.395,-26.867
7952,0.0244,-0.3438,-0.9854,2.625,5.432,5.798,-162.57,-1.434,-26.938
7962,0.0244,-0.3438,-0.9854,2.686,5.188,6.897,-162.537,-1.456,-27.021
7982,0.0132,-0.2656,-0.9995,4.089,4.272,7.019,-162.504,-1.489,-27.186
8011,0.0093,-0.2466,-0.9937,4.761,2.075,1.648,-162.46,-1.505,-27.318
8021,0.0132,-0.2529,-0.9893,4.761,2.075,1.648,-162.455,-1.516,-27.312
8032,0.0132,-0.2529,-0.9893,4.761,2.075,1.648,-162.455,-1.522,-27.285
8051,0.019,-0.2749,-0.9858,0.916,0.0,-5.92,-162.466,-1.549,-27.18
8061,0.0317,-0.3018,-0.9883,0.916,0.0,-5.92,-162.466,-1.571,-27.125
8072,0.0317,-0.3018,-0.9883,0.916,0.0,-5.92,-162.444,-1.593,-27.07
8091,0.0342,-0.3501,-0.9785,0.916,0.0,-5.92,-162.361,-1.642,-26.988
8101,0.0317,-0.3574,-0.9702,2.197,1.343,-2.563,-162.312,-1.664,-26.966
8112,0.0317,-0.3574,-0.9702,1.282,1.587,-1.221,-162.268,-1.681,-26.96
8121,0.0317,-0.3574,-0.9702,1.282,1.587,-1.221,-162.241,-1.692,-26.96
8131,0.0317,-0.3574,-0.9702,-2.747,1.038,1.465,-162.241,-1.692,-26.982
8152,0.0234,-0.3525,-0.9512,-5.615,0.366,4.089,-162.296,-1.67,-27.048
8171,0.0376,-0.2988,-0.9976,-7.202,-0.122,6.348,-162.438,-1.637,-27.164
8181,0.0376,-0.2988,-0.9976,-6.042,0.122,6.348,-162.521,-1.626,-27.224
8201,0.0801,-0.2036,-1.1611,-1.099,2.136,5.859,-162.697,-1.653,-27.345
8221,0.1069,-0.1738,-1.2441,4.578,4.822,4.7,-162.697,-1.818,-27.46
8230,0.0972,-0.2085,-1.2148,24.597,11.353,1.831,-162.526,-1.945,-27.515
8261,-0.0112,-0.4014,-0.9199,37.048,8.667,0.854,-161.444,-2.23,-27.625
8291,-0.0928,-0.4771,-0.6606,12.695,-1.16,2.991,-160.664,-1.972,-27.686
8310,-0.0996,-0.4771,-0.6333,-27.771,-12.573,1.221,-160.774,-1.588,-27.647
8331,-0.0518,-0.3813,-0.7446,-47.424,-16.479,1.709,-161.565,-1.208,-27.57
8340,-0.0518,-0.3813,-0.7446,-42.969,-15.564,2.563,-162.048,-1.071,-27.548
8360,0.1216,-0.1519,-1.2178,-33.142,-14.343,3.723,-162.779,-0.884,-27.543
8380,0.1284,-0.1431,-1.2773,4.028,-5.737,0.793,-163.021,-0.829,-27.537
8400,0.0938,-0.2207,-1.2417,13.672,-2.869,-3.54,-162.894,-0.829,-27.466
8420,0.0234,-0.3281,-1.0312,8.972,-0.977,-5.676,-162.697,-0.857,-27.356
8430,0.0234,-0.3281,-1.0312,5.615,-1.282,-5.371,-162.62,-0.846,-27.301
8440,0.0234,-0.3281,-1.0312,2.136,-0.977,-4.456,-162.559,-0.835,-27.257
8470,-0.0264,-0.3799,-0.8647,-5.92,-8.118,5.554,-162.504,-0.593,-27.257
8500,-0.0005,-0.3574,-0.9375,-10.925,-18.25,16.113,-162.636,-0.038,-27.477
8550,0.0166,-0.2554,-1.0684,-2.93,-15.93,14.16,-163.07,1.0,-28.01
8569,-0.0112,-0.2529,-1.0942,-2.93,-15.93,14.16,-163.147,1.313,-28.147
8630,-0.0913,-0.3438,-0.9712,6.042,-6.531,-0.61,-162.801,1.906,-28.213
8649,-0.0913,-0.3438,-0.9712,-10.315,-10.559,-0.916,-162.883,2.175,-28.136
8659,-0.1274,-0.314,-0.9072,-10.315,-10.559,-0.916,-162.999,2.346,-28.081
8679,-0.1279,-0.2969,-0.9014,-23.193,-16.968,-2.502,-163.4,2.741,-27.944
8689,-0.1167,-0.2637,-0.9175,-24.048,-20.508,-2.563,-163.636,2.972,-27.861
8699,-0.0996,-0.2432,-0.9531,-23.499,-21.851,-2.38,-163.889,3.203,-27.773
8729,-0.0552,-0.2393,-1.0312,-23.499,-21.851,-2.38,-164.509,3.856,-27.471
8749,-0.0234,-0.2422,-1.061,-17.456,-20.813,-7.507,-164.888,4.18,-27.224
8759,-0.0234,-0.2422,-1.061,-17.273,-20.508,-8.484,-165.064,4.329,-27.087
8769,-0.0234,-0.2422,-1.061,-16.418,-19.287,-9.155,-165.234,4.46,-26.949
8799,-0.0508,-0.2671,-0.998,-15.381,-15.808,-9.399,-165.663,4.807,-26.543
8809,-0.0508,-0.2671,-0.998,-14.343,-14.465,-8.911,-165.789,4.905,-26.422
8858,-0.02,-0.2583,-1.0356,-6.165,-8.057,-7.996,-166.113,5.087,-25.939
8868,-0.02,-0.2583,-1.0356,-7.568,-4.883,-5.615,-166.19,5.081,-25.873
8879,-0.02,-0.2583,-1.0356,-7.08,-3.357,-4.944,-166.267,5.065,-25.818
8908,-0.0337,-0.2368,-1.0532,-7.08,-3.357,-4.944,-166.393,4.971,-25.686
8919,-0.0347,-0.2397,-1.0518,-1.16,2.014,-3.723,-166.41,4.911,-25.653
8928,-0.0347,-0.2397,-1.0518,-1.16,2.014,-3.723,-166.421,4.839,-25.631
8948,-0.062,-0.2817,-0.9775,1.648,3.845,-1.709,-166.36,4.713,-25.604
8968,-0.0869,-0.2881,-0.9414,1.16,2.563,0.244,-166.284,4.691,-25.637
9008,-0.0874,-0.2705,-0.9424,-6.348,-1.648,4.211,-166.355,4.774,-25.801
9018,-0.083,-0.2563,-0.9868,-6.653,-1.892,4.089,-166.415,4.801,-25.834
9028,-0.083,-0.2563,-0.9868,-6.348,-1.892,4.211,-166.481,4.823,-25.873
9037,-0.083,-0.2563,-0.9868,-6.348,-1.892,4.211,-166.542,4.845,-25.911
9068,-0.0796,-0.2354,-1.0859,-4.456,-1.343,4.944,-166.707,4.894,-26.043
9098,-0.0615,-0.2085,-1.1416,-4.761,-0.732,4.272,-166.893,4.856,-26.142
9117,-0.0625,-0.2134,-1.1411,2.38,3.845,1.587,-166.921,4.768,-26.186
9127,-0.0757,-0.2256,-1.0937,5.859,5.005,1.465,-166.877,4.713,-26.213
9138,-0.0757,-0.2256,-1.0937,9.46,4.944,1.648,-166.789,4.669,-26.241
9167,-0.1074,-0.2744,-0.9395,12.634,5.493,2.991,-166.371,4.57,-26.351
9178,-0.1074,-0.2744,-0.9395,13.184,6.47,2.808,-166.212,4.532,-26.395
9227,-0.0747,-0.2407,-0.9575,0.488,4.089,1.404,-165.844,4.318,-26.576
9247,-0.0767,-0.2222,-0.9746,0.488,4.089,1.404,-165.91,4.246,-26.587
9267,-0.0781,-0.2129,-0.9844,-5.066,1.709,-3.235,-166.031,4.197,-26.548
9277,-0.084,-0.2056,-0.9922,-6.104,0.488,-3.784,-166.113,4.186,-26.51
9287,-0.0854,-0.2046,-1.0,-6.714,-0.244,-4.456,-166.196,4.186,-26.466
9296,-0.0854,-0.2046,-1.0,-6.714,-0.244,-4.456,-166.284,4.186,-26.417
9336,-0.0864,-0.2056,-1.0303,-7.141,-2.93,-6.653,-166.646,4.241,-26.158
9357,-0.0801,-0.2144,-1.0508,-7.08,-3.357,-6.897,-166.8,4.279,-26.01
9386,-0.0811,-0.2256,-1.0532,-2.441,-4.089,-5.493,-166.926,4.356,-25.807
9397,-0.0811,-0.2256,-1.0532,-1.038,-3.662,-5.249,-166.937,4.373,-25.746
9437,-0.0635,-0.2651,-1.0439,3.357,-1.892,-1.282,-166.844,4.406,-25.604
9477,-0.0591,-0.2803,-1.0166,4.761,-0.488,4.089,-166.586,4.406,-25.67
9486,-0.0591,-0.2803,-1.0166,3.906,-0.122,5.127,-166.531,4.406,-25.719
9496,-0.0586,-0.2695,-1.0098,3.174,0.305,5.798,-166.492,4.406,-25.779
9506,-0.0586,-0.2695,-1.0098,3.174,0.305,5.798,-166.454,4.395,-25.84
9536,-0.0635,-0.2427,-1.0073,5.432,2.991,5.188,-166.322,4.334,-26.01
9555,-0.0674,-0.2388,-1.0005,5.432,2.991,5.188,-166.24,4.274,-26.12
9595,-0.0679,-0.2192,-0.9756,14.648,19.165,-1.343,-166.036,3.911,-26.268
9616,-0.0894,-0.2187,-0.9727,14.648,19.165,-1.343,-166.262,3.911,-26.296
9635,-0.0908,-0.2144,-0.9751,-5.676,5.676,-3.296,-166.388,3.829,-26.268
9646,-0.0835,-0.2153,-0.9941,-12.085,5.554,-3.479,-166.52,3.774,-26.246
9656,-0.0835,-0.2153,-0.9941,-11.536,5.432,-4.333,-166.646,3.719,-26.219
9675,-0.0659,-0.2183,-1.022,-14.893,3.174,-4.578,-166.915,3.609,-26.142
9725,-0.0669,-0.2417,-1.0391,-1.099,-2.686,-8.179,-167.19,3.598,-25.779
9745,-0.0718,-0.2476,-1.0327,0.61,-5.066,-6.47,-167.162,3.675,-25.626
9755,-0.0669,-0.2612,-1.0229,3.235,-5.798,-5.859,-167.113,3.719,-25.554
9765,-0.0669,-0.2612,-1.0229,3.784,-7.019,-4.761,-167.053,3.779,-25.494
9785,-0.0703,-0.2671,-1.0166,7.019,-4.395,-2.808,-166.893,3.862,-25.4
9795,-0.0688,-0.2637,-1.0059,7.019,-4.395,-2.808,-166.745,3.807,-25.389
9816,-0.0771,-0.2588,-1.0039,11.414,3.967,2.93,-166.531,3.647,-25.461
9835,-0.0532,-0.2568,-1.019,10.071,11.169,2.441,-166.339,3.477,-25.571
9854,-0.0483,-0.2539,-1.02,0.671,0.0,5.859,-166.295,3.439,-25.692
9865,-0.0483,-0.2539,-1.02,-5.249,-3.052,6.531,-166.349,3.472,-25.752
9875,-0.0483,-0.2539,-1.02,-5.249,-3.052,6.531,-166.432,3.505,-25.807
9894,-0.0449,-0.2295,-1.0254,-2.136,-2.747,4.822,-166.509,3.565,-25.895
9905,-0.0527,-0.2295,-1.0195,-2.136,-2.686,4.456,-166.542,3.593,-25.933
9915,-0.0527,-0.2295,-1.0195,-0.427,-0.671,3.601,-166.553,3.604,-25.966
9955,-0.0547,-0.2534,-0.9971,4.395,5.493,0.183,-166.41,3.505,-26.038
9964,-0.0547,-0.2534,-0.9971,4.517,5.005,0.183,-166.355,3.455,-26.054
9984,-0.0527,-0.2627,-1.0,4.517,5.005,0.183,-166.311,3.362,-26.082
10004,-0.0522,-0.2651,-1.0015,4.517,5.005,0.183,-166.333,3.307,-26.109
10014,-0.0532,-0.2671,-1.0029,-0.977,0.549,0.793,-166.328,3.301,-26.115
10024,-0.0532,-0.2671,-1.0029,-2.136,-0.671,0.916,-166.339,3.307,-26.125
10034,-0.0522,-0.2656,-1.0083,-2.136,-0.671,0.916,-166.377,3.323,-26.125
10074,-0.0596,-0.251,-1.0293,-5.981,-3.174,1.709,-166.602,3.406,-26.158
10114,-0.0542,-0.2485,-1.0371,-0.366,1.343,2.441,-166.641,3.362,-26.224
10134,-0.0542,-0.2485,-1.0371,5.005,0.671,3.357,-166.591,3.356,-26.296
10164,-0.061,-0.2334,-1.02,-4.395,-11.23,5.676,-166.553,3.593,-26.378
10174,-0.0645,-0.2207,-1.0166,-4.395,-11.23,5.676,-166.635,3.73,-26.411
10223,-0.0908,-0.1963,-1.0063,6.348,8.85,5.371,-166.921,4.087,-26.669
10233,-0.0908,-0.1963,-1.0063,8.423,15.686,4.822,-166.86,3.955,-26.752
10244,-0.0874,-0.2051,-0.9824,8.423,15.686,4.822,-166.767,3.796,-26.834
10263,-0.0874,-0.2124,-0.9834,12.329,16.479,4.089,-166.619,3.582,-26.977
10273,-0.0762,-0.2144,-0.9912,-2.869,1.892,3.357,-166.663,3.576,-27.01
10284,-0.0762,-0.2144,-0.9912,-11.414,-4.272,2.502,-166.789,3.636,-27.026
10303,-0.0913,-0.1831,-0.9922,-18.372,-7.874,1.282,-167.195,3.829,-27.021
10323,-0.1055,-0.1699,-0.9932,-6.836,-3.418,-4.883,-167.459,3.939,-26.938
10333,-0.1055,-0.1699,-0.9932,-6.836,-3.418,-4.883,-167.547,3.95,-26.878
10343,-0.1055,-0.1699,-0.9932,-6.104,-1.587,-6.714,-167.613,3.966,-26.807
10353,-0.1094,-0.2148,-0.9824,-6.104,-1.587,-6.714,-167.662,3.999,-26.719
10373,-0.1045,-0.248,-0.9702,-2.991,-5.188,-8.606,-167.651,4.087,-26.526
10423,-0.0225,-0.1562,-1.2031,7.874,-8.24,5.249,-167.778,4.658,-26.444
10433,-0.0225,-0.1562,-1.2031,22.888,-1.343,0.916,-167.585,4.636,-26.45
10473,-0.1084,-0.2944,-1.0127,36.926,7.874,-12.573,-166.168,4.29,-26.125
10522,-0.1221,-0.272,-0.9092,7.996,-3.113,-6.592,-165.262,4.449,-25.73
10532,-0.0972,-0.2808,-0.9409,5.737,-2.93,-5.676,-165.185,4.471,-25.67
10543,-0.0771,-0.2729,-0.9644,5.737,-2.93,-5.676,-165.146,4.482,-25.615
10583,-0.0269,-0.248,-1.0537,-7.874,-1.465,-7.568,-165.311,4.455,-25.351
10632,-0.0435,-0.2397,-1.0596,-14.526,-2.014,-7.69,-166.086,4.362,-24.955
10652,-0.0757,-0.2617,-1.0015,-10.498,-9.277,-3.357,-166.24,4.51,-24.879
10672,-0.0781,-0.2764,-0.9565,-5.31,-4.639,3.296,-166.289,4.631,-24.901
10732,-0.0664,-0.2334,-1.0391,-8.972,0.244,7.202,-166.663,4.735,-25.274
10751,-0.0664,-0.2334,-1.0391,-5.615,1.282,5.371,-166.822,4.713,-25.395
10762,-0.0752,-0.2217,-1.0522,-5.615,1.282,5.371,-166.893,4.702,-25.439
10781,-0.0815,-0.2285,-1.042,-2.136,3.357,0.183,-166.959,4.647,-25.472
10791,-0.0815,-0.2285,-1.042,-1.709,3.967,-1.526,-166.976,4.603,-25.466
10802,-0.0815,-0.2285,-1.042,-0.977,3.845,-2.991,-166.987,4.559,-25.444
10812,-0.0815,-0.2285,-1.042,-0.977,3.845,-2.991,-166.981,4.51,-25.417
10882,-0.0679,-0.2568,-1.064,13.55,3.479,-0.671,-166.322,4.18,-25.263
10891,-0.0547,-0.2393,-1.0898,14.465,3.418,0.122,-166.196,4.131,-25.274
10911,-0.0698,-0.2666,-1.0298,14.465,3.418,0.122,-165.894,4.092,-25.302
10931,-0.1191,-0.2832,-0.959,14.771,-8.301,3.723,-165.542,4.318,-25.334
10941,-0.1592,-0.293,-0.8379,10.864,-5.798,2.991,-165.383,4.438,-25.351
10951,-0.1631,-0.2573,-0.8413,10.864,-5.798,2.991,-165.311,4.548,-25.345
10991,-0.0679,-0.1875,-1.0215,5.859,1.831,-7.08,-165.372,4.537,-25.159
11031,0.001,-0.2026,-1.1938,20.996,5.92,0.183,-164.905,4.219,-25.065
11040,0.001,-0.2026,-1.1938,25.391,10.681,0.61,-164.707,4.059,-25.098
11080,-0.0469,-0.3911,-1.0488,5.31,0.0,0.549,-163.839,3.691,-25.148
11101,-0.1084,-0.4141,-0.873,-17.151,-4.395,3.906,-163.894,3.862,-25.186
11120,-0.1704,-0.3804,-0.7192,-19.226,-6.836,6.47,-164.053,4.169,-25.263
11130,-0.1416,-0.3433,-0.769,-17.273,-5.981,6.592,-164.147,4.296,-25.312
11160,0.0273,-0.187,-1.1367,-14.771,-3.052,5.737,-164.504,4.224,-25.444
11170,0.0493,-0.165,-1.2256,-14.771,-3.052,5.737,-164.553,4.087,-25.477
11190,0.0356,-0.168,-1.269,11.841,6.226,-1.099,-164.509,3.856,-25.505
11200,0.0356,-0.168,-1.269,11.841,6.226,-1.099,-164.46,3.768,-25.488
11210,0.0356,-0.168,-1.269,10.193,3.296,-3.662,-164.405,3.708,-25.461
11230,-0.0693,-0.2407,-1.1021,10.193,3.296,-3.662,-164.169,3.631,-25.384
11240,-0.0977,-0.293,-0.9829,19.104,3.052,-6.47,-163.971,3.604,-25.329
11250,-0.0977,-0.293,-0.9829,21.851,2.93,-6.409,-163.707,3.593,-25.274
11270,-0.1323,-0.3647,-0.8726,21.851,2.93,-6.409,-163.213,3.697,-25.159
11280,-0.1323,-0.3647,-0.8726,21.851,2.93,-6.409,-163.01,3.746,-25.109
11311,-0.1099,-0.3589,-0.8994,-1.16,-13.428,0.183,-162.883,4.059,-25.005
11339,-0.0181,-0.2637,-1.1021,-22.644,-23.193,1.16,-163.433,4.62,-24.84
11349,0.0249,-0.2144,-1.1733,3.174,-18.188,-1.038,-163.455,4.73,-24.78
11360,0.0249,-0.2144,-1.1733,11.902,-23.071,-3.113,-163.405,4.878,-24.681
11400,-0.083,-0.2676,-1.0728,-30.457,-92.529,-7.69,-164.328,7.438,-23.599
11409,-0.083,-0.2676,-1.0728,-30.457,-92.529,-7.69,-164.559,8.3,-23.269
11429,-0.1299,-0.2539,-1.0459,-23.56,-78.735,-7.019,-164.965,9.591,-22.747
11449,-0.1685,-0.2676,-1.0181,-23.56,-78.735,-7.019,-165.24,10.239,-22.412
11459,-0.1904,-0.2593,-0.9805,-12.817,-32.837,-8.118,-165.339,10.536,-22.247
11469,-0.1904,-0.2593,-0.9805,-9.827,-27.771,-9.888,-165.405,10.778,-22.077
11489,-0.2002,-0.2476,-0.9331,-6.287,-21.484,-13.123,-165.454,11.212,-21.714
11499,-0.208,-0.2583,-0.8867,-4.272,-14.221,-15.198,-165.443,11.321,-21.528
11509,-0.208,-0.2583,-0.8867,-2.258,-10.986,-16.602,-165.399,11.404,-21.335
11529,-0.2349,-0.2993,-0.7681,1.648,-9.644,-17.334,-165.174,11.607,-20.94
11549,-0.2495,-0.3579,-0.6514,-3.174,-4.15,-17.944,-164.987,11.635,-20.577
11569,-0.2852,-0.3813,-0.5571,-3.601,13.123,-15.015,-164.608,11.58,-20.314
11579,-0.2642,-0.356,-0.5815,-3.601,13.123,-15.015,-164.487,11.36,-20.275
11589,-0.2642,-0.356,-0.5815,0.305,42.297,-8.606,-164.383,10.992,-20.308
11609,-0.166,-0.2095,-0.8711,-1.221,56.091,-7.324,-164.344,10.063,-20.44
11619,-0.166,-0.2095,-0.8711,-1.953,71.106,-8.85,-164.46,9.322,-20.55
11628,-0.0845,-0.1011,-1.1265,-1.953,71.106,-8.85,-164.575,8.558,-20.649
11638,-0.0537,-0.0679,-1.2339,6.714,66.345,-11.902,-164.641,7.833,-20.709
11648,-0.042,-0.0703,-1.3037,6.714,66.345,-11.902,-164.581,7.18,-20.726
11659,-0.042,-0.0703,-1.3037,25.94,50.842,-17.273,-164.427,6.592,-20.693
11688,-0.1138,-0.3237,-1.0811,26.428,21.057,-17.09,-163.669,5.515,-20.402
11699,-0.1396,-0.375,-0.9741,26.489,14.709,-13.489,-163.35,5.356,-20.314
11748,-0.1333,-0.3823,-0.7886,14.404,12.39,-8.789,-162.367,4.927,-20.121
11758,-0.1333,-0.3823,-0.7886,-25.757,11.353,3.845,-162.581,4.867,-20.193
11768,-0.0718,-0.312,-0.9678,-25.757,11.353,3.845,-162.955,4.675,-20.336
11778,-0.0449,-0.2949,-1.1045,-25.757,11.353,3.845,-163.389,4.367,-20.533
11788,0.0239,-0.2397,-1.207,-17.517,43.64,15.076,-163.636,3.939,-20.803
11808,0.0605,-0.1968,-1.3896,-17.517,43.64,15.076,-163.625,3.576,-21.286
11817,0.0605,-0.1968,-1.3896,30.701,-1.953,20.02,-163.433,3.576,-21.473
11828,0.0605,-0.1968,-1.3896,35.645,-22.766,21.301,-163.174,3.79,-21.61
11857,-0.0864,-0.29,-1.3149,35.645,-69.275,19.043,-162.208,5.62,-21.703
11878,-0.2119,-0.4028,-0.9194,30.396,-66.772,8.118,-161.345,7.191,-21.478
11948,-0.001,-0.1929,-1.2495,-39.185,32.471,-6.958,-160.779,8.333,-21.237
11967,0.0103,-0.1025,-1.4546,-36.804,18.86,-7.08,-161.768,7.723,-21.264
11977,-0.0532,-0.0713,-1.5435,-36.804,18.86,-7.08,-161.977,7.63,-21.215
11987,-0.0532,-0.0713,-1.5435,-9.155,-6.226,-7.935,-162.054,7.663,-21.116
12007,-0.0532,-0.0713,-1.5435,-9.155,-6.226,-7.935,-162.026,8.053,-20.885
12027,-0.2695,-0.4175,-0.6138,0.183,-26.733,-2.258,-162.054,8.525,-20.682
12077,-0.0552,-0.2661,-0.978,-31.921,11.23,-4.822,-163.328,8.41,-20.462
12097,-0.0083,-0.1519,-1.3335,-15.137,6.531,-1.526,-163.74,8.229,-20.479
12116,-0.0698,-0.1919,-1.3311,-3.967,-11.719,-0.793,-163.845,8.361,-20.418
12127,-0.0698,-0.1919,-1.3311,-1.77,-15.015,-2.38,-163.85,8.498,-20.352
12137,-0.124,-0.2466,-1.0732,-2.747,-12.817,-5.554,-163.867,8.608,-20.264
12207,-0.2422,-0.5283,-0.5269,12.451,-16.541,0.732,-163.614,9.47,-19.528
12226,-0.2593,-0.5513,-0.4199,8.362,-9.399,5.371,-163.564,9.575,-19.649
12236,-0.1343,-0.3804,-0.7554,8.362,-9.399,5.371,-163.713,9.393,-19.808
12247,-0.1343,-0.3804,-0.7554,-20.752,36.011,9.338,-163.954,9.075,-20.001
12296,-0.147,0.0103,-1.4927,22.461,1.16,-2.686,-173.397,8.509,-20.297
12307,-0.2534,-0.2793,-0.8955,22.461,1.16,-2.686,-173.002,8.619,-20.171
12316,-0.2769,-0.3931,-0.6353,22.461,1.16,-2.686,-172.683,8.745,-20.023
12326,-0.2769,-0.3931,-0.6353,17.883,-12.146,-12.939,-172.48,8.849,-19.88
12356,-0.1372,-0.4282,-0.6299,-3.601,4.639,-8.484,-172.54,8.646,-19.644
12366,-0.0122,-0.3013,-1.022,-3.601,4.639,-8.484,-172.7,8.333,-19.644
12376,0.0674,-0.2021,-1.3452,-16.174,35.767,-1.526,-172.87,7.976,-19.677
12386,0.0513,-0.1172,-1.561,-9.521,26.855,0.183,-172.969,7.707,-19.709
12396,0.0513,-0.1172,-1.561,-2.075,11.658,-0.61,-172.991,7.592,-19.72
12426,-0.2061,-0.312,-1.0176,12.39,-13.184,-5.066,-172.634,7.778,-19.561
12436,-0.2046,-0.3408,-0.8564,9.216,-11.23,-4.15,-172.535,7.888,-19.506
12485,-0.0938,-0.2349,-0.9995,-1.953,7.996,0.977,-172.397,7.784,-19.479
12495,-0.0889,-0.21,-1.0918,-0.916,5.676,1.16,-172.408,7.734,-19.501
12506,-0.0889,-0.21,-1.0918,1.587,1.343,0.183,-172.392,7.718,-19.501
12535,-0.1035,-0.2173,-1.146,4.395,-2.014,-4.333,-172.216,7.734,-19.413
12546,-0.1152,-0.2314,-1.0942,4.822,-2.38,-5.31,-172.161,7.751,-19.358
12555,-0.1152,-0.2314,-1.0942,4.822,-2.38,-5.31,-172.101,7.789,-19.292
12565,-0.1152,-0.2314,-1.0942,4.822,-2.38,-5.31,-172.04,7.844,-19.221
12585,-0.1509,-0.356,-0.8071,2.014,-11.719,-4.822,-171.947,8.026,-19.078
12595,-0.1509,-0.356,-0.8071,2.014,-11.719,-4.822,-171.953,8.141,-19.034
12615,-0.1885,-0.4453,-0.585,2.014,-11.719,-4.822,-172.024,8.284,-19.023
12635,-0.1665,-0.4282,-0.6152,2.014,-11.719,-4.822,-172.238,8.196,-19.144
12655,-0.0493,-0.2896,-0.9976,-18.188,19.775,8.118,-172.612,7.855,-19.352
12695,-0.0903,-0.1763,-1.3354,14.16,-5.676,5.737,-172.722,7.767,-19.698
12744,-0.207,-0.3691,-0.7241,4.822,-8.057,6.531,-172.024,8.383,-19.896
12754,-0.207,-0.3691,-0.7241,-0.183,-3.113,6.165,-172.035,8.421,-19.951
12765,-0.1782,-0.3315,-0.7759,-0.183,-3.113,6.165,-172.073,8.41,-20.006
12784,-0.1431,-0.2935,-0.8745,-9.521,6.836,3.235,-172.249,8.3,-20.094
12805,-0.1055,-0.2354,-1.0488,-8.362,6.958,1.587,-172.441,8.163,-20.154
12845,-0.1255,-0.2959,-1.0063,2.869,1.038,1.709,-172.469,8.058,-20.215
12884,-0.103,-0.2959,-1.0107,0.0,6.042,5.493,-172.441,7.921,-20.402
12914,-0.1172,-0.2598,-1.0552,0.977,3.418,7.751,-172.222,7.773,-20.638
12934,-0.1235,-0.2671,-1.0366,0.977,3.418,7.751,-171.98,7.74,-20.775
12974,-0.1406,-0.271,-0.9453,2.258,1.648,1.465,-171.541,7.729,-20.891
12994,-0.1323,-0.271,-0.9658,2.258,1.648,1.465,-171.37,7.696,-20.945
13024,-0.1323,-0.293,-0.9785,-0.366,2.93,1.587,-171.112,7.614,-21.006
13034,-0.1323,-0.293,-0.9785,-2.93,1.892,2.747,-171.074,7.603,-21.039
13064,-0.1309,-0.271,-1.0122,-2.93,1.892,2.747,-171.008,7.537,-21.16
13083,-0.1309,-0.2583,-1.0269,-3.113,2.441,2.808,-170.991,7.487,-21.231
13093,-0.124,-0.2363,-1.0801,-2.38,2.38,1.892,-170.986,7.46,-21.253
13104,-0.124,-0.2363,-1.0801,-2.38,2.38,1.892,-170.958,7.432,-21.264
13133,-0.1226,-0.2705,-1.0942,4.7,-3.784,-1.099,-170.744,7.46,-21.237
13144,-0.125,-0.2856,-1.0674,6.47,-4.944,-1.282,-170.623,7.498,-21.215
13173,-0.1465,-0.3237,-0.9512,9.033,-6.897,0.0,-170.118,7.696,-21.16
13183,-0.1533,-0.334,-0.9189,9.033,-6.897,0.0,-169.931,7.773,-21.154
13233,-0.1455,-0.3242,-0.9043,2.38,1.16,-0.671,-169.217,7.932,-21.16
13243,-0.1455,-0.3242,-0.9043,2.38,1.16,-0.671,-169.113,7.899,-21.16
13253,-0.1265,-0.311,-0.9697,2.38,1.16,-0.671,-169.036,7.861,-21.154
13273,-0.1089,-0.2993,-1.022,1.099,7.202,-1.343,-168.926,7.685,-21.154
13293,-0.0806,-0.2754,-1.1274,5.188,5.493,-1.648,-168.788,7.487,-21.149
13303,-0.0845,-0.2783,-1.1167,8.057,3.418,-1.099,-168.679,7.416,-21.143
13333,-0.1245,-0.2979,-0.978,12.695,-1.282,1.526,-168.201,7.394,-21.165
13342,-0.1245,-0.2979,-0.978,12.207,-0.977,1.343,-168.014,7.41,-21.176
13352,-0.1367,-0.3091,-0.8926,9.949,-0.427,0.793,-167.849,7.427,-21.182
13382,-0.1333,-0.3096,-0.8647,3.296,3.601,-0.793,-167.481,7.388,-21.187
13392,-0.1333,-0.3096,-0.8647,3.296,3.601,-0.793,-167.388,7.339,-21.187
13403,-0.1152,-0.312,-0.9175,3.296,3.601,-0.793,-167.327,7.284,-21.193
13432,-0.0957,-0.3037,-1.0161,-1.831,6.165,1.648,-167.234,7.064,-21.264
13443,-0.0957,-0.3037,-1.0161,-1.77,5.432,2.258,-167.228,6.993,-21.297
13482,-0.1025,-0.334,-1.0552,3.54,-0.061,6.348,-167.02,6.844,-21.495
13502,-0.1025,-0.334,-1.0552,3.906,-3.418,9.766,-166.844,6.916,-21.654
13512,-0.124,-0.356,-0.9932,3.906,-3.418,9.766,-166.756,6.993,-21.758
13532,-0.127,-0.3555,-0.9849,3.662,-7.446,17.09,-166.591,7.196,-22.039
13542,-0.127,-0.3555,-0.9849,5.31,-7.874,19.47,-166.503,7.317,-22.209
13552,-0.127,-0.3555,-0.9849,5.31,-7.874,19.47,-166.41,7.443,-22.396
13582,-0.1406,-0.2998,-1.021,5.31,-7.874,19.47,-166.069,7.729,-22.95
13592,-0.1416,-0.2837,-1.0205,10.681,-2.808,17.822,-165.97,7.795,-23.121
13601,-0.1411,-0.272,-1.0205,10.376,-1.831,15.747,-165.877,7.85,-23.269
13622,-0.144,-0.249,-1.0039,10.254,-1.465,13.733,-165.707,7.943,-23.511
13641,-0.1528,-0.2388,-0.9741,10.254,-1.465,13.733,-165.537,8.036,-23.654
13651,-0.1582,-0.2397,-0.958,9.705,-1.648,3.357,-165.449,8.069,-23.681
13662,-0.1582,-0.2397,-0.958,8.972,-1.099,0.122,-165.361,8.091,-23.681
13681,-0.1636,-0.2563,-0.9194,8.972,-1.099,0.122,-165.212,8.108,-23.582
13691,-0.1626,-0.2695,-0.9048,8.972,-1.099,0.122,-165.157,8.091,-23.483
13702,-0.1626,-0.2695,-0.9048,-1.282,2.441,-14.221,-165.119,8.047,-23.351
13751,-0.1323,-0.3999,-0.8584,-12.573,3.601,-17.334,-165.097,7.685,-22.56
13791,-0.0703,-0.3716,-1.0977,-7.263,2.136,3.906,-165.311,7.443,-22.489
13811,-0.0776,-0.3262,-1.1968,5.005,0.61,7.385,-165.284,7.394,-22.621
13841,-0.1704,-0.3467,-0.9971,10.071,-5.92,12.695,-164.921,7.581,-22.912
13851,-0.1855,-0.335,-0.9238,7.69,-7.202,13.245,-164.811,7.718,-23.027
13860,-0.1855,-0.335,-0.9238,7.69,-7.202,13.245,-164.718,7.866,-23.132
13900,-0.1948,-0.2964,-0.8081,-1.587,-0.366,5.371,-164.553,8.311,-23.417
13921,-0.1421,-0.2769,-0.9453,-1.587,-0.366,5.371,-164.63,8.289,-23.478
13940,-0.1187,-0.2578,-1.0659,-8.728,4.639,-2.075,-164.811,8.157,-23.478
13970,-0.1138,-0.2612,-1.127,-7.141,2.258,-4.333,-165.053,7.993,-23.373
13990,-0.1255,-0.2861,-1.0986,1.099,-1.709,-4.7,-165.031,7.96,-23.275
14001,-0.1343,-0.3276,-1.0366,3.235,-2.441,-3.784,-164.971,7.965,-23.231
14010,-0.1343,-0.3276,-1.0366,3.235,-2.441,-3.784,-164.883,7.976,-23.192
14060,-0.1523,-0.3682,-0.9434,4.15,-1.038,1.16,-164.344,8.086,-23.143
14070,-0.1489,-0.3491,-0.936,4.15,-1.038,1.16,-164.257,8.102,-23.154
14090,-0.1479,-0.3281,-0.9541,3.54,0.305,1.77,-164.119,8.119,-23.192
14100,-0.1406,-0.3198,-0.9697,3.357,0.977,1.648,-164.064,8.108,-23.209
14110,-0.1406,-0.3198,-0.9697,3.418,1.099,1.648,-164.015,8.102,-23.231
14130,-0.1372,-0.3076,-0.9932,3.418,1.099,1.648,-163.916,8.08,-23.253
14140,-0.1357,-0.3145,-0.9941,5.005,0.488,0.549,-163.85,8.075,-23.264
14159,-0.1401,-0.3208,-0.9839,5.371,-0.122,0.427,-163.707,8.075,-23.269
14199,-0.145,-0.3271,-0.9585,1.038,1.099,-0.61,-163.471,8.047,-23.269
14220,-0.1484,-0.3125,-0.959,1.038,1.099,-0.61,-163.455,8.031,-23.253
14239,-0.165,-0.2969,-0.9546,-3.052,1.099,-2.197,-163.488,8.026,-23.225
14249,-0.1729,-0.2949,-0.9502,-3.662,1.465,-2.808,-163.51,8.02,-23.198
14260,-0.1729,-0.2949,-0.9502,-4.822,1.587,-3.418,-163.548,8.02,-23.17
14300,-0.1709,-0.314,-0.9248,-9.277,4.517,-8.728,-163.795,7.916,-22.945
14309,-0.1709,-0.314,-0.9248,-9.277,4.517,-8.728,-163.85,7.866,-22.868
14319,-0.1709,-0.314,-0.9248,-11.23,2.563,-8.362,-163.916,7.811,-22.797
14329,-0.1138,-0.3267,-1.0063,-11.23,2.563,-8.362,-164.004,7.778,-22.736
14349,-0.0942,-0.3213,-1.0522,-11.23,2.563,-8.362,-164.152,7.712,-22.665
14369,-0.0781,-0.3047,-1.1406,-0.854,-2.502,-2.075,-164.218,7.663,-22.615
14399,-0.1152,-0.3838,-0.9731,6.531,-6.592,-0.61,-163.987,7.734,-22.527
14409,-0.1396,-0.4146,-0.8711,5.127,-8.179,0.977,-163.839,7.817,-22.516
14418,-0.1396,-0.4146,-0.8711,5.127,-8.179,0.977,-163.724,7.938,-22.522
14439,-0.1533,-0.3765,-0.7451,-5.554,-6.958,4.761,-163.669,8.108,-22.582
14458,-0.146,-0.3428,-0.7803,-14.038,1.282,3.906,-163.861,8.058,-22.676
14469,-0.0791,-0.2729,-0.9761,-12.817,10.681,2.38,-163.998,7.927,-22.725
14479,-0.0791,-0.2729,-0.9761,-9.827,11.841,2.197,-164.136,7.773,-22.78
14559,-0.1401,-0.3228,-0.998,13.916,-0.488,2.258,-164.02,7.245,-22.989
14588,-0.1714,-0.3638,-0.8716,15.747,1.221,3.601,-163.427,7.306,-23.104
14608,-0.1758,-0.3677,-0.853,10.315,4.578,3.662,-163.076,7.311,-23.203
14628,-0.1768,-0.3633,-0.856,10.315,4.578,3.662,-162.85,7.295,-23.302
14658,-0.1396,-0.3262,-0.9536,0.244,6.836,4.15,-162.735,7.174,-23.478
14668,-0.1396,-0.3262,-0.9536,-0.061,6.042,4.272,-162.74,7.136,-23.538
14757,-0.1338,-0.3027,-1.0098,2.258,-2.563,0.366,-162.812,7.015,-23.719
14778,-0.1343,-0.3232,-0.9771,2.014,-3.113,0.244,-162.757,7.086,-23.708
14808,-0.123,-0.3413,-0.9697,1.099,-2.502,1.404,-162.669,7.163,-23.708
14818,-0.123,-0.3413,-0.9697,1.099,-2.441,2.136,-162.636,7.191,-23.719
14887,-0.1196,-0.3218,-0.9639,1.77,-2.625,4.456,-162.471,7.383,-23.928
14907,-0.1196,-0.3198,-0.9624,2.869,-1.038,3.357,-162.405,7.41,-23.989
14917,-0.1104,-0.3276,-0.9761,3.296,-0.671,3.174,-162.367,7.416,-24.016
14927,-0.1104,-0.3276,-0.9761,3.906,-0.61,3.357,-162.323,7.41,-24.044
14957,-0.1011,-0.314,-1.0166,5.249,-2.441,5.737,-162.191,7.438,-24.17
14967,-0.1104,-0.3018,-1.0073,5.676,-3.052,6.409,-162.153,7.471,-24.225
14976,-0.1104,-0.3018,-1.0073,5.676,-3.052,6.409,-162.098,7.52,-24.28
14997,-0.1626,-0.3203,-0.9253,8.85,-3.418,7.568,-161.927,7.652,-24.401
15016,-0.1729,-0.3281,-0.8945,5.554,-1.77,5.981,-161.763,7.795,-24.51
15027,-0.1729,-0.3281,-0.8945,1.282,-1.099,4.944,-161.735,7.855,-24.554
15037,-0.1797,-0.3042,-0.8965,1.282,-1.099,4.944,-161.763,7.894,-24.587
15056,-0.1611,-0.2856,-0.98,-7.019,1.831,-0.122,-161.927,7.899,-24.615
15067,-0.144,-0.2793,-1.0283,-6.958,1.892,-1.709,-162.021,7.872,-24.604
15086,-0.1338,-0.2817,-1.0679,-5.981,1.465,-3.174,-162.164,7.806,-24.538
15096,-0.1338,-0.2817,-1.0679,-0.977,0.244,-6.287,-162.186,7.773,-24.478
15126,-0.167,-0.3936,-0.9849,0.488,-3.479,-7.874,-162.054,7.839,-24.23
15136,-0.209,-0.4058,-0.8701,-7.629,-5.493,-5.737,-162.054,7.916,-24.159
15146,-0.2109,-0.3931,-0.8442,-7.629,-5.493,-5.737,-162.092,7.987,-24.088
15166,-0.2114,-0.3687,-0.8525,-16.907,1.343,-9.094,-162.307,8.026,-23.934
15186,-0.1689,-0.3071,-0.9556,-14.465,7.69,-13.794,-162.609,7.844,-23.73
15206,-0.1011,-0.2549,-1.1372,-5.005,7.507,-16.602,-162.806,7.553,-23.467
15236,-0.0889,-0.2529,-1.1577,5.859,1.221,-17.273,-162.806,7.207,-23.0
15246,-0.0815,-0.2637,-1.0898,5.859,1.221,-17.273,-162.746,7.13,-22.841
15256,-0.083,-0.2759,-1.0508,5.859,1.221,-17.273,-162.675,7.064,-22.687
15266,-0.0811,-0.2979,-1.0088,8.972,-0.854,-13.672,-162.576,7.004,-22.555
15276,-0.0811,-0.2979,-1.0088,9.216,-0.732,-11.475,-162.46,6.949,-22.44
15286,-0.0811,-0.2979,-1.0088,8.972,-0.61,-8.789,-162.334,6.905,-22.357
15296,-0.0811,-0.2979,-1.0088,8.972,-0.61,-8.789,-162.202,6.872,-22.302
15315,-0.0811,-0.2979,-1.0088,8.972,-0.61,-8.789,-161.966,6.833,-22.313
15326,-0.0938,-0.397,-0.9131,4.761,2.441,6.165,-161.873,6.812,-22.379
15336,-0.0938,-0.397,-0.9131,4.272,3.113,9.644,-161.796,6.801,-22.478
15376,-0.1313,-0.3291,-0.9341,-1.709,2.747,12.878,-161.719,6.855,-23.022
15385,-0.1313,-0.3291,-0.9341,-1.709,2.747,12.878,-161.768,6.894,-23.132
15406,-0.1655,-0.313,-0.9395,-3.662,0.854,8.301,-161.845,6.976,-23.264
15425,-0.168,-0.3271,-0.9531,-3.113,-0.488,0.122,-161.895,7.048,-23.286
15445,-0.1577,-0.3628,-0.9761,-2.136,-0.061,-1.526,-161.878,7.064,-23.247
15475,-0.1353,-0.3779,-0.9951,-0.793,1.465,-1.953,-161.812,7.031,-23.176
15485,-0.1353,-0.3779,-0.9951,-2.93,0.671,-0.793,-161.812,7.026,-23.17
15505,-0.1294,-0.3687,-1.0098,0.488,-0.488,1.465,-161.768,7.026,-23.192
15535,-0.1294,-0.3442,-1.0225,1.892,0.122,2.93,-161.724,7.037,-23.275
15555,-0.1147,-0.3359,-1.0391,1.892,0.122,2.93,-161.636,7.064,-23.318
15575,-0.1079,-0.3364,-1.0371,6.958,-4.15,4.211,-161.521,7.125,-23.362
15595,-0.1035,-0.3433,-1.0078,12.024,-5.859,6.104,-161.307,7.234,-23.434
15625,-0.1064,-0.3599,-0.9321,12.573,-2.747,7.874,-160.884,7.366,-23.615
15635,-0.1143,-0.3599,-0.9277,12.573,-2.747,7.874,-160.774,7.416,-23.687
15644,-0.1143,-0.3599,-0.9277,8.789,-2.075,10.071,-160.681,7.46,-23.774
15675,-0.1104,-0.3403,-0.9663,11.597,0.183,13.55,-160.428,7.564,-24.12
15694,-0.1104,-0.3403,-0.9663,12.817,-0.427,14.954,-160.208,7.657,-24.417
15705,-0.1323,-0.3379,-0.9575,12.817,-0.427,14.954,-160.076,7.707,-24.576
15724,-0.1646,-0.3569,-0.8911,15.625,-0.549,15.625,-159.791,7.839,-24.851
15734,-0.1738,-0.356,-0.8643,11.414,1.343,11.292,-159.67,7.894,-24.961
15744,-0.1738,-0.356,-0.8643,7.324,2.625,9.46,-159.593,7.932,-25.06
15754,-0.1787,-0.3403,-0.8574,7.324,2.625,9.46,-159.565,7.949,-25.148
15804,-0.0854,-0.2324,-1.1978,-7.874,8.972,2.747,-160.109,7.531,-25.455
15814,-0.0854,-0.2324,-1.1978,4.517,11.902,-1.648,-160.159,7.377,-25.477
15824,-0.0977,-0.2573,-1.2021,4.517,11.902,-1.648,-160.093,7.251,-25.483
15844,-0.0977,-0.2573,-1.2021,4.517,11.902,-1.648,-159.576,7.158,-25.488
15854,-0.1758,-0.4268,-0.9468,4.517,11.902,-1.648,-159.208,7.202,-25.505
15884,-0.2505,-0.5049,-0.6343,5.798,-8.606,7.202,-158.329,7.668,-25.598
15894,-0.2822,-0.5044,-0.5859,5.798,-8.606,7.202,-158.225,7.894,-25.626
15943,-0.0957,-0.248,-1.0312,-48.828,21.423,-9.338,-160.214,7.454,-25.609
15953,-0.0132,-0.1606,-1.3193,-48.828,21.423,-9.338,-160.708,7.147,-25.571
15964,-0.0142,-0.1855,-1.3594,-48.828,21.423,-9.338,-161.027,6.877,-25.499
15983,-0.0488,-0.2378,-1.3174,-48.828,21.423,-9.338,-161.164,6.691,-25.28
16004,-0.1123,-0.3608,-1.0923,-48.828,21.423,-9.338,-160.917,6.817,-25.01
16033,-0.1685,-0.4541,-0.7363,-3.113,-11.23,-10.864,-160.648,7.108,-24.593
16044,-0.1685,-0.4541,-0.7363,-15.259,-3.296,-9.766,-160.675,7.141,-24.489
16083,-0.0859,-0.3252,-0.9971,-9.216,6.714,-1.221,-161.06,6.971,-24.379
16093,-0.0747,-0.3091,-1.0562,-6.409,7.996,-1.465,-161.153,6.861,-24.39
16103,-0.0742,-0.291,-1.1006,-4.639,8.118,-3.418,-161.241,6.746,-24.384
16113,-0.0742,-0.291,-1.1006,-3.601,8.423,-5.737,-161.318,6.614,-24.357
16133,-0.0684,-0.2793,-1.1182,-1.343,6.165,-5.432,-161.444,6.383,-24.285
16143,-0.0762,-0.2983,-1.0811,1.77,4.211,-3.967,-161.455,6.306,-24.263
16153,-0.0762,-0.2983,-1.0811,5.676,2.991,-2.93,-161.417,6.246,-24.241
16162,-0.0815,-0.3369,-1.022,5.676,2.991,-2.93,-161.323,6.202,-24.23
16183,-0.0957,-0.3574,-0.9697,10.62,0.427,1.16,-161.093,6.169,-24.247
16193,-0.1021,-0.3599,-0.9546,10.498,0.549,2.625,-160.972,6.163,-24.274
16202,-0.1021,-0.3599,-0.9546,10.498,0.549,2.625,-160.845,6.169,-24.313
16242,-0.106,-0.3799,-0.9312,10.498,3.479,7.385,-160.313,6.158,-24.571
16263,-0.0947,-0.3643,-0.9521,8.85,3.723,8.24,-160.131,6.13,-24.758
16282,-0.0918,-0.3584,-0.958,7.935,4.7,8.484,-159.994,6.07,-24.95
16303,-0.0894,-0.3535,-0.9526,6.104,4.456,8.118,-159.879,6.015,-25.137
16343,-0.1216,-0.3481,-0.9185,2.014,4.089,5.127,-159.703,5.988,-25.439
16392,-0.1138,-0.3345,-0.9771,-1.831,6.653,1.587,-159.829,5.795,-25.67
16402,-0.1138,-0.3345,-0.9771,-1.831,6.653,1.587,-159.868,5.746,-25.703
16412,-0.1182,-0.3408,-0.9932,-1.831,6.653,1.587,-159.901,5.696,-25.73
16432,-0.1201,-0.3433,-1.001,-2.808,5.188,1.77,-159.988,5.62,-25.796
16442,-0.1196,-0.3403,-1.0044,-1.77,4.15,2.808,-160.027,5.603,-25.84
16452,-0.1196,-0.3403,-1.0044,-0.793,2.747,4.272,-160.049,5.598,-25.889
16511,-0.1411,-0.3232,-0.9883,0.732,-2.808,7.935,-160.164,5.867,-26.279
16541,-0.1465,-0.3237,-0.9756,-0.671,-5.615,7.935,-160.23,6.147,-26.455
16562,-0.1465,-0.3237,-0.9756,-0.916,-5.981,7.874,-160.28,6.35,-26.554
16581,-0.1357,-0.3276,-0.9775,-3.174,-6.836,5.981,-160.362,6.548,-26.625
16591,-0.1284,-0.3311,-0.9849,-4.333,-6.958,5.493,-160.422,6.636,-26.653
16602,-0.1284,-0.3311,-0.9849,-5.737,-8.118,5.554,-160.488,6.735,-26.68
16651,-0.1235,-0.3232,-1.0107,-5.615,-7.08,1.587,-160.862,7.158,-26.68
16671,-0.1118,-0.3389,-1.0034,-4.944,-6.836,-1.404,-160.961,7.245,-26.598
16691,-0.1138,-0.3491,-0.9854,-1.404,-7.141,-4.578,-160.983,7.333,-26.472
16741,-0.103,-0.3721,-0.9497,2.808,-3.784,-4.578,-160.774,7.449,-26.125
16751,-0.103,-0.3721,-0.9497,3.418,-2.197,-3.662,-160.714,7.438,-26.082
16760,-0.103,-0.3721,-0.9497,3.418,-2.197,-3.662,-160.648,7.427,-26.054
16800,-0.1089,-0.3726,-0.9014,2.319,-2.075,4.639,-160.411,7.471,-26.098
16821,-0.1299,-0.3481,-0.9102,0.305,-1.221,6.104,-160.411,7.526,-26.219
16840,-0.127,-0.3315,-0.9263,-6.104,2.441,6.836,-160.543,7.531,-26.367
16861,-0.1216,-0.3052,-0.9707,-7.996,3.296,5.554,-160.757,7.493,-26.499
16890,-0.1318,-0.3081,-0.981,-8.362,1.404,3.601,-161.082,7.454,-26.647
16901,-0.1421,-0.3159,-0.9692,-9.338,1.465,2.747,-161.186,7.454,-26.675
16941,-0.1411,-0.3335,-0.9727,-15.564,3.052,-2.38,-161.658,7.388,-26.68
16950,-0.1294,-0.3203,-1.0015,-17.334,3.723,-2.991,-161.834,7.339,-26.664
16970,-0.1182,-0.2891,-1.0542,-17.334,3.723,-2.991,-162.18,7.229,-26.614
17000,-0.1196,-0.3037,-1.0693,-0.732,1.709,-3.479,-162.394,7.092,-26.526
17010,-0.1196,-0.3037,-1.0693,2.625,0.854,-3.357,-162.378,7.07,-26.494
17040,-0.1357,-0.3442,-1.0,5.066,-0.366,-1.77,-162.197,7.042,-26.422
17050,-0.1357,-0.3442,-1.0,5.127,-0.305,-0.854,-162.131,7.048,-26.417
17059,-0.1357,-0.3442,-1.0,5.31,-0.244,0.244,-162.059,7.059,-26.417
17099,-0.1431,-0.3315,-0.9512,4.333,0.305,3.296,-161.829,7.125,-26.51
17120,-0.1382,-0.3081,-0.9648,3.967,0.0,3.418,-161.763,7.163,-26.57
17139,-0.1367,-0.311,-0.9634,2.625,-0.977,1.465,-161.719,7.196,-26.598
17149,-0.1362,-0.3188,-0.9434,0.854,-1.16,0.916,-161.708,7.218,-26.603
17160,-0.1362,-0.3188,-0.9434,-1.282,-1.404,0.488,-161.697,7.245,-26.603
17189,-0.1396,-0.3501,-0.9141,-17.151,0.061,-1.587,-161.938,7.289,-26.57
17249,-0.1484,-0.3408,-0.9087,-36.133,-5.31,-3.906,-163.449,7.289,-26.268
17269,-0.1338,-0.2856,-0.9604,-38.452,1.038,-1.038,-164.273,7.289,-26.23
17278,-0.1338,-0.2856,-0.9604,-38.452,1.038,-1.038,-164.652,7.202,-26.241
17290,-0.1338,-0.2856,-0.9604,-15.198,10.376,-1.099,-164.888,7.059,-26.263
17358,-0.1382,-0.3403,-0.9536,21.667,-0.549,-1.953,-163.729,6.779,-26.202
17379,-0.1528,-0.3428,-0.8936,21.667,-0.549,-1.953,-163.477,6.812,-26.175
17398,-0.1333,-0.3091,-0.9258,3.662,0.183,0.183,-163.356,6.806,-26.202
17408,-0.127,-0.3018,-0.9438,5.249,3.845,2.319,-163.295,6.784,-26.235
17419,-0.127,-0.3018,-0.9438,6.165,3.357,2.93,-163.246,6.762,-26.274
17438,-0.1191,-0.2803,-0.9932,6.165,3.357,2.93,-163.125,6.691,-26.351
17448,-0.1187,-0.2749,-1.0254,7.69,3.723,1.709,-163.07,6.658,-26.378
17468,-0.1162,-0.2744,-1.0347,8.057,2.441,-0.061,-162.96,6.597,-26.4
17508,-0.1211,-0.2881,-1.0166,9.644,0.977,-2.38,-162.702,6.515,-26.356
17528,-0.1255,-0.311,-0.9937,9.644,0.977,-2.38,-162.471,6.498,-26.312
17548,-0.127,-0.3271,-0.9707,14.16,0.61,-2.319,-162.18,6.487,-26.268
17568,-0.1313,-0.3369,-0.9614,12.695,0.244,-2.197,-161.884,6.487,-26.23
17588,-0.1304,-0.3423,-0.9536,9.705,-0.061,-0.732,-161.636,6.493,-26.202
17598,-0.1274,-0.3369,-0.9604,9.338,-0.793,0.061,-161.537,6.509,-26.202
17608,-0.1279,-0.3311,-0.9639,9.338,-0.793,0.061,-161.45,6.52,-26.213
17657,-0.1177,-0.3252,-0.9888,12.146,0.183,0.793,-160.955,6.52,-26.268
17678,-0.1211,-0.334,-0.9771,12.39,-0.061,0.732,-160.719,6.531,-26.285
17708,-0.1152,-0.3398,-0.981,10.925,0.061,-0.671,-160.406,6.542,-26.274
17718,-0.1152,-0.3398,-0.981,11.536,-0.061,-1.16,-160.285,6.537,-26.263
17737,-0.127,-0.375,-0.937,11.536,-0.061,-1.16,-160.038,6.553,-26.224
17758,-0.1367,-0.394,-0.8936,4.211,-1.648,-1.892,-159.846,6.592,-26.186
17807,-0.1582,-0.439,-0.7822,-21.057,-4.333,2.197,-159.944,6.85,-26.12
17827,-0.1357,-0.3828,-0.8501,-37.048,0.793,3.601,-160.571,6.894,-26.18
17867,-0.0386,-0.1772,-1.2783,-21.423,5.981,-2.014,-162.224,6.537,-26.274
17876,-0.0386,-0.1772,-1.2783,-21.423,5.981,-2.014,-162.416,6.438,-26.252
17897,-0.0854,-0.2593,-1.1382,-21.423,5.981,-2.014,-162.4,6.356,-26.136
17916,-0.0854,-0.2593,-1.1382,-21.423,5.981,-2.014,-161.982,6.432,-26.01
17927,-0.168,-0.4053,-0.8359,16.052,-4.944,-4.822,-161.741,6.498,-25.95
17937,-0.1807,-0.4277,-0.7866,16.052,-4.944,-4.822,-161.521,6.575,-25.9
17956,-0.1641,-0.4004,-0.8042,-1.282,0.977,0.793,-161.307,6.669,-25.889
17967,-0.1309,-0.3618,-0.8569,-4.883,4.395,3.662,-161.318,6.652,-25.939
17977,-0.1309,-0.3618,-0.8569,-5.066,6.104,5.798,-161.367,6.614,-26.01
17996,-0.0942,-0.2666,-1.0298,0.122,6.348,7.568,-161.472,6.515,-26.191
18026,-0.0957,-0.269,-1.0571,9.46,4.578,2.991,-161.422,6.356,-26.389
18036,-0.1021,-0.293,-1.0566,9.644,3.296,1.465,-161.356,6.323,-26.411
18086,-0.123,-0.3257,-0.9785,3.235,-0.305,-4.211,-161.18,6.235,-26.29
18106,-0.1289,-0.3506,-0.9468,4.944,-0.244,-3.723,-161.054,6.235,-26.213
18126,-0.1289,-0.3506,-0.9468,3.967,0.244,-1.587,-160.928,6.235,-26.169
18137,-0.1245,-0.356,-0.9468,3.967,0.244,-1.587,-160.884,6.235,-26.169
18156,-0.1147,-0.3462,-0.9741,3.113,1.099,0.977,-160.812,6.224,-26.186
18175,-0.1138,-0.3423,-0.98,3.662,0.977,1.404,-160.735,6.213,-26.219
18215,-0.1094,-0.3281,-1.002,9.155,0.732,0.61,-160.521,6.174,-26.274
18236,-0.1113,-0.3423,-0.9839,9.155,0.732,0.61,-160.345,6.163,-26.285
18255,-0.1113,-0.3423,-0.979,9.094,0.488,-0.244,-160.175,6.152,-26.285
18266,-0.1113,-0.3438,-0.9746,9.338,0.366,-0.305,-160.087,6.147,-26.285
18276,-0.1113,-0.3438,-0.9746,9.399,0.61,-0.427,-159.999,6.141,-26.279
18316,-0.1089,-0.3579,-0.9722,12.024,1.465,-0.916,-159.576,6.081,-26.268
18325,-0.1089,-0.3579,-0.9722,12.024,1.465,-0.916,-159.45,6.064,-26.268
18345,-0.1084,-0.3755,-0.957,12.451,1.038,-0.061,-159.197,6.048,-26.279
18365,-0.1074,-0.376,-0.9609,10.071,0.916,1.221,-158.983,6.037,-26.307
18385,-0.1074,-0.376,-0.9609,9.399,1.221,0.916,-158.796,6.015,-26.334
18415,-0.1152,-0.3896,-0.9365,8.24,0.305,-0.305,-158.516,5.993,-26.34
18425,-0.125,-0.4048,-0.9038,8.24,0.305,-0.305,-158.417,6.01,-26.329
18495,-0.1064,-0.3433,-0.9209,-56.702,-3.174,-1.038,-159.598,6.493,-26.175
18525,0.0068,-0.0708,-1.356,-50.598,10.62,-0.732,-161.884,6.075,-26.235
18535,0.0068,-0.0708,-1.356,-27.222,9.583,-0.183,-162.301,5.916,-26.263
18554,-0.0405,-0.2153,-1.29,18.005,-1.343,-2.93,-162.35,5.762,-26.235
18565,-0.0732,-0.3135,-1.1523,28.809,-6.592,-4.761,-162.081,5.79,-26.169
18575,-0.1147,-0.3765,-1.0142,28.137,-10.864,-5.554,-161.768,5.878,-26.082
18624,-0.2051,-0.4546,-0.71,-38.879,-7.324,-10.803,-161.537,6.581,-25.444
18634,-0.2051,-0.4546,-0.71,-46.021,-2.625,-9.216,-161.927,6.603,-25.351
18644,-0.1338,-0.2729,-0.8975,-46.021,-2.625,-9.216,-162.367,6.597,-25.291
18664,-0.0757,-0.1729,-1.0718,-24.048,9.216,2.563,-163.125,6.432,-25.34
18694,-0.0684,-0.2061,-1.1304,3.662,7.446,5.615,-163.284,6.18,-25.554
18714,-0.0913,-0.2935,-1.0601,9.949,2.258,-0.366,-163.109,6.086,-25.593
18773,-0.1216,-0.3027,-0.9492,-1.404,0.061,-2.625,-163.12,6.064,-25.34
18785,-0.1226,-0.3071,-0.957,-0.305,0.61,-0.854,-163.114,6.064,-25.334
18824,-0.1182,-0.2949,-0.9932,0.427,1.709,0.854,-163.098,6.031,-25.384
18834,-0.1182,-0.2949,-0.9932,-0.488,1.343,0.366,-163.109,6.026,-25.389
18874,-0.1177,-0.2803,-0.9976,-3.052,0.122,-2.258,-163.24,5.993,-25.351
18883,-0.1172,-0.2813,-0.9956,-3.418,-0.183,-2.319,-163.284,5.993,-25.329
18904,-0.1191,-0.2881,-0.9873,-3.296,-0.488,-2.441,-163.35,5.999,-25.274
18923,-0.1157,-0.293,-0.9839,-2.747,-0.916,-2.014,-163.4,6.015,-25.23
18943,-0.1182,-0.3018,-0.9751,-1.526,-0.61,-2.686,-163.416,6.026,-25.175
18973,-0.103,-0.2847,-1.0103,-2.319,0.061,-1.465,-163.499,6.01,-25.126
18993,-0.0942,-0.2754,-1.0312,-0.549,0.488,-1.282,-163.553,5.977,-25.104
19013,-0.0864,-0.2739,-1.0479,0.549,-0.061,-1.526,-163.559,5.949,-25.065
19033,-0.0928,-0.2861,-1.0225,2.93,-1.953,-2.93,-163.499,5.955,-25.01
19053,-0.1216,-0.3237,-0.9453,2.258,-2.869,-3.174,-163.422,6.01,-24.939
19083,-0.1167,-0.3076,-0.9473,-3.54,-0.793,-0.488,-163.444,6.07,-24.895
19093,-0.1167,-0.3076,-0.9473,-3.967,0.061,-0.061,-163.477,6.064,-24.895
19142,-0.0859,-0.2505,-1.0464,-4.578,1.953,-1.038,-163.762,5.988,-24.901
19152,-0.0776,-0.2319,-1.0737,-3.418,2.38,-2.075,-163.834,5.938,-24.89
19163,-0.0776,-0.2319,-1.0737,-1.953,3.479,-3.784,-163.894,5.872,-24.862
19203,-0.0933,-0.2817,-1.0332,5.981,-0.854,-5.31,-163.812,5.702,-24.648
19232,-0.1401,-0.3579,-0.8799,1.038,-0.122,-2.197,-163.542,5.762,-24.543
19242,-0.1221,-0.3472,-0.8887,-2.563,1.282,-1.099,-163.515,5.762,-24.538
19252,-0.1221,-0.3472,-0.8887,-2.563,1.282,-1.099,-163.548,5.74,-24.549
19272,-0.0874,-0.2886,-0.9834,-7.019,3.296,1.404,-163.702,5.663,-24.604
19292,-0.0596,-0.2388,-1.0884,-2.686,3.052,3.357,-163.856,5.576,-24.681
19302,-0.0557,-0.2271,-1.1172,0.61,2.502,3.357,-163.9,5.532,-24.719
19312,-0.0596,-0.2305,-1.1118,4.333,1.648,2.502,-163.905,5.499,-24.747
19332,-0.0596,-0.2305,-1.1118,4.333,1.648,2.502,-163.768,5.493,-24.747
19342,-0.1177,-0.3013,-0.9888,8.911,-1.892,-2.258,-163.669,5.515,-24.719
19352,-0.1177,-0.3013,-0.9888,6.531,-1.465,-3.052,-163.575,5.537,-24.686
19361,-0.1177,-0.3013,-0.9888,6.531,-1.465,-3.052,-163.499,5.559,-24.648
19401,-0.1089,-0.3105,-0.936,-0.061,2.258,1.099,-163.389,5.543,-24.67
19422,-0.0776,-0.2793,-1.0151,2.258,3.54,2.808,-163.394,5.46,-24.747
19431,-0.0791,-0.2666,-1.0552,2.258,3.54,2.808,-163.389,5.433,-24.78
19441,-0.0791,-0.2666,-1.0552,2.258,3.54,2.808,-163.367,5.411,-24.802
19451,-0.0859,-0.2646,-1.0464,6.226,1.221,0.854,-163.328,5.389,-24.813
19462,-0.0859,-0.2646,-1.0464,7.019,0.549,-0.305,-163.279,5.378,-24.813
19481,-0.0981,-0.2847,-1.0166,7.019,0.549,-0.305,-163.147,5.372,-24.785
19491,-0.105,-0.3032,-0.9805,6.592,0.183,-1.465,-163.081,5.372,-24.769
19551,-0.1416,-0.3862,-0.8242,0.793,-0.671,1.038,-162.702,5.559,-24.807
19571,-0.0908,-0.2734,-0.9648,0.793,-0.671,1.038,-163.015,5.576,-24.917
19620,-0.0269,-0.1685,-1.2246,5.92,0.0,1.221,-163.74,5.301,-25.148
19631,-0.0532,-0.2114,-1.1743,11.597,-1.648,-1.099,-163.685,5.284,-25.137
19641,-0.0796,-0.2524,-1.1089,11.597,-1.648,-1.099,-163.564,5.295,-25.093
19660,-0.104,-0.2954,-1.0352,16.357,-4.883,-4.944,-163.224,5.378,-24.955
19681,-0.1489,-0.3779,-0.854,11.414,-4.944,-6.653,-162.905,5.493,-24.807
19700,-0.1514,-0.3931,-0.8145,-0.366,-2.686,-2.869,-162.686,5.62,-24.714
19721,-0.1523,-0.3921,-0.792,-7.141,0.61,2.258,-162.631,5.702,-24.73
19770,-0.0352,-0.2197,-1.1421,-3.662,4.761,4.456,-163.24,5.449,-25.049
19790,-0.0781,-0.2495,-1.1045,1.77,2.136,2.258,-163.262,5.4,-25.071
19810,-0.1025,-0.2744,-1.0391,5.981,-2.747,-2.319,-163.141,5.449,-25.021
19830,-0.1211,-0.3174,-0.9302,4.456,-2.197,-2.869,-163.026,5.499,-24.961
19850,-0.1045,-0.3203,-0.9297,0.977,1.282,-0.671,-162.966,5.488,-24.944
19870,-0.0796,-0.3057,-0.9912,0.854,2.136,1.099,-162.955,5.427,-24.972
19879,-0.0757,-0.2983,-1.0376,0.854,2.136,1.099,-162.949,5.405,-24.988
19890,-0.0757,-0.2983,-1.0376,2.136,0.427,1.587,-162.949,5.394,-25.005
19930,-0.1069,-0.3169,-0.9653,6.897,0.549,0.488,-162.757,5.4,-25.049
19959,-0.1406,-0.3545,-0.8765,0.183,0.549,0.366,-162.504,5.488,-25.049
19980,-0.1455,-0.3779,-0.8306,-11.108,1.77,0.854,-162.543,5.526,-25.071
19999,-0.123,-0.3271,-0.8789,-20.752,4.028,2.319,-162.894,5.499,-25.126
20029,-0.0718,-0.2124,-1.0566,-18.677,4.456,2.38,-163.597,5.345,-25.23
