elapsed_ms,acc_x_g,acc_y_g,acc_z_g,gyro_x_dps,gyro_y_dps,gyro_z_dps,angle_x_deg,angle_y_deg,angle_z_deg
0,-0.2124,-0.5547,-0.7744,-12.146,4.395,1.892,-137.362,14.903,-62.325
10,-0.1948,-0.5771,-0.8965,-4.578,15.015,-1.282,-137.433,14.782,-62.419
20,-0.186,-0.6074,-0.9702,4.089,19.531,-2.38,-137.422,14.623,-62.54
50,-0.2627,-0.6851,-0.9214,21.667,11.23,0.549,-136.983,14.271,-62.864
90,-0.2383,-0.6401,-0.6494,17.639,-2.258,3.967,-136.296,14.348,-62.963
100,-0.2593,-0.6631,-0.5962,9.521,-3.906,2.075,-136.159,14.409,-62.952
130,-0.3076,-0.686,-0.5181,-1.526,-8.728,0.183,-135.917,14.76,-62.776
170,-0.3345,-0.6934,-0.5449,-27.466,-4.7,1.953,-136.368,15.348,-62.534
189,-0.3286,-0.6982,-0.5513,-29.175,1.892,1.282,-136.862,15.359,-62.617
199,-0.2021,-0.6133,-0.7612,-32.776,16.602,-0.061,-137.263,15.2,-62.732
209,-0.1382,-0.5542,-0.9551,-30.64,26.55,-2.258,-137.736,14.908,-62.902
219,-0.1382,-0.5542,-0.9551,-30.64,26.55,-2.258,-138.208,14.491,-63.111
239,-0.1147,-0.519,-1.3154,12.878,40.161,-11.658,-138.664,13.535,-63.506
259,-0.1826,-0.5854,-1.2485,33.142,13.428,-8.484,-138.356,12.997,-63.644
269,-0.2363,-0.687,-0.915,30.64,-1.343,-5.798,-138.093,12.953,-63.589
279,-0.2363,-0.687,-0.915,24.414,-12.634,-3.052,-137.802,13.052,-63.479
289,-0.2363,-0.687,-0.915,24.414,-12.634,-3.052,-137.505,13.233,-63.336
310,-0.2998,-0.7041,-0.3545,-1.282,-21.667,0.244,-136.994,13.689,-63.034
319,-0.2998,-0.7041,-0.3545,-12.451,-18.921,0.977,-136.879,13.898,-62.908
328,-0.2715,-0.6533,-0.396,-12.451,-18.921,0.977,-136.934,14.073,-62.814
349,-0.2715,-0.6533,-0.396,-34.607,-2.441,0.244,-137.593,14.178,-62.737
359,-0.1743,-0.5278,-0.9253,-29.114,6.042,-0.732,-138.021,14.079,-62.77
368,-0.1743,-0.5278,-0.9253,-29.114,6.042,-0.732,-138.384,13.881,-62.858
389,-0.0962,-0.5142,-1.4648,13.489,24.719,-4.639,-138.538,13.398,-63.111
398,-0.0737,-0.522,-1.5571,13.489,24.719,-4.639,-138.208,13.162,-63.232
418,-0.0977,-0.5518,-1.521,78.613,12.817,-9.766,-136.851,12.783,-63.331
429,-0.2344,-0.6274,-1.0361,85.632,-4.15,-10.132,-135.972,12.744,-63.226
458,-0.4746,-0.6128,-0.124,42.664,-57.19,-8.606,-133.934,13.508,-62.106
478,-0.5166,-0.6108,0.0713,11.23,-48.401,-9.338,-133.347,14.101,-61.183
488,-0.4487,-0.6182,0.1255,-1.831,-35.889,-6.47,-133.292,14.304,-60.87
498,-0.3315,-0.6001,-0.0469,-11.353,-22.949,-0.671,-133.358,14.453,-60.694
538,-0.1577,-0.7017,-1.1572,17.029,31.189,6.104,-133.665,14.551,-61.216
568,-0.1216,-0.8364,-1.3013,58.655,64.697,-19.653,-132.55,13.107,-62.249
587,-0.0742,-0.8467,-1.1777,58.655,64.697,-19.653,-131.484,12.25,-62.584
598,-0.1221,-0.8994,-0.7163,30.457,-9.338,-13.977,-131.144,12.206,-62.419
608,-0.1665,-0.9019,-0.5063,8.057,-39.795,-11.475,-130.985,12.382,-62.034
637,-0.3125,-0.7534,-0.1172,-34.485,-60.425,-11.841,-131.589,13.26,-60.491
667,-0.2603,-0.6938,-0.3843,-24.048,-9.888,3.845,-132.446,13.793,-59.886
677,-0.2603,-0.6938,-0.3843,-22.827,5.615,3.296,-132.687,13.777,-59.952
717,-0.0767,-0.7056,-1.3218,8.789,33.081,-5.127,-133.22,12.931,-60.76
737,-0.0786,-0.7212,-1.3628,22.705,29.114,-4.822,-132.704,12.519,-61.089
747,-0.1665,-0.7407,-1.106,22.705,29.114,-4.822,-132.281,12.437,-61.166
757,-0.2339,-0.7358,-0.873,46.082,-3.479,0.671,-131.819,12.464,-61.144
777,-0.2925,-0.7144,-0.623,29.236,-33.203,0.244,-131.039,12.827,-60.749
807,-0.4863,-0.6201,0.022,-1.892,-37.17,1.343,-130.616,13.623,-59.832
817,-0.4863,-0.6201,0.022,-11.292,-27.283,0.977,-130.677,13.804,-59.623
827,-0.4458,-0.6494,0.0117,-25.94,-19.165,1.16,-130.908,13.942,-59.48
857,-0.2544,-0.6465,-0.5933,-55.176,2.808,5.31,-132.336,14.183,-59.414
867,-0.1753,-0.6338,-0.8799,-52.979,15.808,4.639,-132.902,14.106,-59.562
886,-0.0156,-0.6382,-1.4336,-52.979,15.808,4.639,-133.55,13.425,-60.331
897,0.0122,-0.7007,-1.5601,25.635,85.693,-5.92,-133.434,12.794,-60.93
907,-0.0186,-0.7783,-1.5479,56.641,98.083,-10.132,-133.011,12.047,-61.589
936,-0.0684,-0.8501,-0.9189,35.461,-10.01,-0.671,-131.457,11.041,-62.369
956,-0.1523,-0.8379,-0.6846,16.052,-48.706,4.395,-131.078,11.854,-61.584
976,-0.334,-0.7295,-0.1465,-5.31,-50.598,5.798,-130.985,12.678,-60.804
996,-0.3579,-0.7031,-0.0791,-10.559,-30.701,6.714,-131.061,13.239,-60.342
1006,-0.3477,-0.7065,-0.1069,-16.907,-21.606,5.981,-131.199,13.425,-60.216
1016,-0.3135,-0.709,-0.2295,-28.015,-13.306,4.883,-131.462,13.546,-60.145
1036,-0.2007,-0.6582,-0.7017,-42.725,5.981,3.54,-132.297,13.596,-60.205
1046,-0.1167,-0.6343,-0.9976,-35.828,18.616,3.296,-132.698,13.497,-60.37
1086,-0.0967,-0.6982,-1.4277,-19.043,31.738,4.028,-132.231,12.349,-61.919
1105,-0.147,-0.7915,-1.1362,61.279,22.522,5.676,-131.056,11.948,-62.529
1116,-0.2368,-0.7798,-0.6338,42.114,-8.667,6.409,-130.633,12.052,-62.501
1126,-0.3086,-0.7754,-0.4048,42.114,-8.667,6.409,-130.364,12.316,-62.281
1156,-0.4399,-0.667,-0.0195,-17.822,-43.213,5.798,-130.391,13.359,-61.282
1166,-0.4287,-0.6387,-0.0229,-23.743,-31.189,6.409,-130.583,13.607,-61.078
1185,-0.3745,-0.6064,-0.1367,-34.973,-4.456,4.883,-131.21,13.837,-60.974
1196,-0.2046,-0.5688,-0.6299,-34.973,-4.456,4.883,-131.627,13.821,-61.062
1215,-0.1421,-0.5684,-0.9165,-35.95,18.86,1.953,-132.292,13.469,-61.474
1235,-0.1128,-0.6709,-1.2871,22.461,51.941,-4.639,-132.226,12.75,-62.155
1255,-0.1255,-0.7651,-1.3291,59.448,44.556,-1.099,-131.353,12.063,-62.864
1275,-0.1763,-0.8198,-0.8018,59.021,6.653,7.996,-130.188,11.926,-63.199
1295,-0.2192,-0.8164,-0.5854,59.021,6.653,7.996,-129.342,12.365,-62.985
1345,-0.3198,-0.6914,-0.1475,-25.818,-13.245,3.357,-129.452,13.524,-61.941
1355,-0.2593,-0.6533,-0.417,-28.503,-4.089,4.333,-129.732,13.579,-61.941
1365,-0.2593,-0.6533,-0.417,-28.503,-4.089,4.333,-130.023,13.585,-62.018
1375,-0.1509,-0.6597,-0.8579,-18.982,16.541,5.798,-130.254,13.524,-62.188
1385,-0.1401,-0.6968,-1.0249,-5.249,25.94,6.775,-130.364,13.409,-62.435
1415,-0.1421,-0.8506,-1.1499,46.753,43.457,2.869,-129.661,12.717,-63.468
1425,-0.1802,-0.8589,-1.0151,52.002,37.903,2.136,-129.21,12.491,-63.781
1455,-0.3027,-0.7617,-0.4438,13.062,-30.273,8.301,-128.32,12.711,-63.77
1465,-0.3384,-0.7437,-0.2969,-0.366,-42.725,8.301,-128.26,13.041,-63.479
1495,-0.3633,-0.6792,-0.1748,-19.104,-34.912,4.883,-128.639,13.788,-62.765
1524,-0.1641,-0.6401,-0.7354,-20.02,12.512,1.953,-129.359,13.832,-62.842
1534,-0.1387,-0.6792,-0.9224,-12.146,22.583,1.038,-129.523,13.694,-63.029
1564,-0.1206,-0.8145,-1.2002,24.841,35.889,-4.639,-129.353,12.969,-63.781
1604,-0.2202,-0.8271,-0.7788,30.334,-12.451,3.052,-127.93,12.695,-64.138
1614,-0.2993,-0.772,-0.4111,17.761,-27.893,2.869,-127.705,12.892,-63.929
1634,-0.2993,-0.772,-0.4111,-4.944,-39.856,1.282,-127.557,13.392,-63.325
1644,-0.4028,-0.6948,-0.0933,-15.442,-35.828,0.305,-127.645,13.612,-63.034
1664,-0.3965,-0.6733,-0.0928,-31.799,-19.287,-1.404,-128.112,13.887,-62.639
1674,-0.2788,-0.6489,-0.3477,-38.879,-9.46,-1.404,-128.48,13.936,-62.551
1684,-0.2012,-0.6631,-0.5703,-41.382,0.305,-0.977,-128.892,13.925,-62.545
1703,-0.144,-0.6763,-0.8145,-24.963,23.254,-1.709,-129.573,13.7,-62.792
1714,-0.0835,-0.7593,-1.1748,-5.737,37.476,-2.686,-129.699,13.442,-63.073
1724,-0.0996,-0.7998,-1.2461,14.587,47.668,-3.235,-129.633,13.112,-63.43
1733,-0.0996,-0.7998,-1.2461,14.587,47.668,-3.235,-129.391,12.744,-63.809
1743,-0.0996,-0.7998,-1.2461,14.587,47.668,-3.235,-129.177,12.36,-64.122
1754,-0.1333,-0.8462,-0.9639,37.415,19.043,-1.709,-128.93,12.162,-64.265
1764,-0.168,-0.8345,-0.772,25.146,-10.071,1.709,-128.705,12.2,-64.193
1773,-0.168,-0.8345,-0.772,25.146,-10.071,1.709,-128.496,12.442,-63.951
1794,-0.3428,-0.7217,-0.2886,-2.197,-45.471,3.54,-128.062,13.228,-63.265
1804,-0.3428,-0.7217,-0.2886,-6.409,-37.903,3.174,-127.848,13.623,-62.979
1813,-0.3428,-0.7217,-0.2886,-6.409,-27.283,3.54,-127.623,13.975,-62.781
1823,-0.3716,-0.6777,-0.1826,-7.019,-17.151,4.517,-127.441,14.249,-62.666
1834,-0.3716,-0.6777,-0.1826,-7.019,-17.151,4.517,-127.365,14.442,-62.622
1844,-0.3018,-0.7046,-0.373,-21.912,-1.892,3.418,-127.491,14.546,-62.628
1853,-0.3018,-0.7046,-0.373,-32.227,4.517,2.136,-127.831,14.54,-62.682
1863,-0.2139,-0.6875,-0.731,-34.546,9.827,-1.221,-128.282,14.447,-62.754
1873,-0.1851,-0.6865,-0.9116,-32.898,17.151,-6.165,-128.776,14.238,-62.853
1893,-0.1274,-0.6885,-1.1807,-11.658,33.325,-12.268,-129.611,13.541,-63.177
1903,-0.1274,-0.6885,-1.1807,8.362,39.612,-13.55,-129.792,13.096,-63.402
1913,-0.0962,-0.7378,-1.1802,30.151,41.443,-14.587,-129.727,12.629,-63.633
1923,-0.0962,-0.7378,-1.1802,41.931,31.738,-13.245,-129.479,12.25,-63.798
1943,-0.2246,-0.8047,-0.6162,23.56,-20.325,-5.859,-128.881,12.167,-63.605
1953,-0.3047,-0.7778,-0.4243,9.216,-43.396,-4.272,-128.606,12.475,-63.232
1963,-0.3047,-0.7778,-0.4243,9.216,-43.396,-4.272,-128.331,12.87,-62.798
1973,-0.3047,-0.7778,-0.4243,-7.263,-45.654,-2.93,-128.035,13.271,-62.413
1983,-0.4194,-0.7378,-0.0645,-11.047,-34.119,-0.854,-127.749,13.64,-62.133
2023,-0.1851,-0.6846,-0.543,-41.565,4.456,-0.671,-128.057,14.172,-61.837
2032,-0.1353,-0.6812,-0.7881,-41.565,4.456,-0.671,-128.584,14.024,-61.946
2042,-0.0923,-0.686,-1.0176,-41.565,4.456,-0.671,-129.089,13.771,-62.155
2053,-0.0923,-0.686,-1.0176,-11.292,39.978,-0.549,-129.474,13.403,-62.474
2072,-0.0679,-0.7466,-1.2793,32.166,57.617,-2.441,-129.633,12.48,-63.303
2082,-0.0679,-0.7466,-1.2793,32.166,57.617,-2.441,-129.408,12.057,-63.71
2093,-0.124,-0.8286,-1.0103,46.631,31.189,2.625,-129.117,11.816,-63.973
2112,-0.1582,-0.8281,-0.8262,26.794,-25.024,12.146,-128.529,12.063,-63.913
2133,-0.3276,-0.7432,-0.3311,12.268,-42.114,11.78,-127.908,12.925,-63.419
2152,-0.3428,-0.7061,-0.2437,-3.54,-26.733,4.456,-127.403,13.64,-62.99
2172,-0.2905,-0.667,-0.3096,-16.418,-10.437,-0.305,-127.31,14.024,-62.77
2202,-0.1753,-0.7173,-0.7769,-24.414,8.057,-0.061,-128.128,13.947,-62.803
2212,-0.1548,-0.7388,-0.9238,-18.799,12.634,0.488,-128.474,13.804,-62.908
2242,-0.1548,-0.8018,-1.0747,8.118,16.846,-2.808,-129.056,13.228,-63.287
2272,-0.1562,-0.8408,-0.7554,15.503,-8.179,0.732,-128.76,12.936,-63.364
2282,-0.2031,-0.814,-0.5957,5.066,-26.855,5.066,-128.644,13.129,-63.182
2302,-0.3091,-0.7529,-0.3442,-14.221,-52.673,12.451,-128.458,13.98,-62.534
2312,-0.3091,-0.7529,-0.3442,-18.311,-48.523,11.963,-128.381,14.458,-62.221
2322,-0.3228,-0.7241,-0.2778,-19.531,-36.987,10.559,-128.342,14.854,-61.99
2331,-0.3228,-0.7241,-0.2778,-19.531,-36.987,10.559,-128.364,15.145,-61.848
2352,-0.2832,-0.6968,-0.438,-27.222,-1.648,4.333,-128.815,15.37,-61.815
2371,-0.2334,-0.6577,-0.7417,-25.024,10.193,0.0,-129.633,15.216,-61.952
2381,-0.2148,-0.6499,-0.9873,-25.024,10.193,0.0,-130.001,15.079,-62.056
2392,-0.2285,-0.6606,-1.0283,-4.761,16.602,-0.549,-130.254,14.925,-62.183
2421,-0.2773,-0.6763,-0.8408,20.569,9.216,-1.465,-130.259,14.573,-62.49
2432,-0.2886,-0.6763,-0.7197,18.799,-1.282,-1.953,-130.128,14.584,-62.468
2451,-0.3174,-0.6792,-0.5889,18.799,-1.282,-1.953,-129.787,14.925,-62.117
2461,-0.3589,-0.6875,-0.3794,0.305,-30.273,-4.456,-129.606,15.183,-61.848
2471,-0.3667,-0.6938,-0.3198,-7.202,-30.273,-5.432,-129.457,15.436,-61.573
2481,-0.3667,-0.6938,-0.3198,-7.202,-30.273,-5.432,-129.391,15.661,-61.326
2491,-0.3447,-0.6978,-0.3257,-23.804,-20.63,-5.005,-129.43,15.837,-61.128
2501,-0.312,-0.6987,-0.418,-29.297,-15.259,-4.517,-129.595,15.952,-60.974
2531,-0.1357,-0.6963,-0.9897,-17.029,19.409,-4.822,-130.594,15.573,-61.024
2541,-0.1055,-0.7139,-1.1367,0.244,33.569,-5.737,-130.825,15.2,-61.249
2571,-0.1123,-0.7495,-1.1948,40.649,32.471,-2.808,-130.616,13.997,-62.117
2590,-0.1646,-0.8145,-0.9248,40.161,3.601,0.916,-129.935,14.079,-61.985
2611,-0.2827,-0.7983,-0.5317,30.334,-38.574,5.066,-129.056,14.738,-61.447
2630,-0.3657,-0.7246,-0.2422,23.132,-29.114,3.113,-128.101,15.326,-61.089
2640,-0.3657,-0.7246,-0.2422,7.446,-13.672,2.319,-127.716,15.568,-60.991
2651,-0.3872,-0.7031,-0.1304,-6.47,-10.254,2.136,-127.485,15.776,-60.919
2670,-0.3755,-0.7163,-0.1978,-38.025,-7.507,1.709,-127.722,16.095,-60.809
2680,-0.3755,-0.7163,-0.1978,-46.143,-1.892,0.61,-128.177,16.139,-60.793
2691,-0.2441,-0.6865,-0.7607,-43.274,11.414,-1.221,-128.727,16.029,-60.881
2710,-0.1777,-0.7007,-1.0903,-13.0,39.307,-1.404,-129.622,15.452,-61.392
2720,-0.1729,-0.6978,-1.1724,5.127,48.218,-1.831,-129.869,15.051,-61.765
2740,-0.126,-0.7085,-1.1831,22.949,35.461,-2.38,-129.985,14.26,-62.419
2760,-0.1772,-0.749,-0.8521,12.878,-26.184,1.526,-129.853,14.282,-62.243
2780,-0.2324,-0.7441,-0.6914,10.437,-42.725,3.418,-129.485,14.875,-61.617
2830,-0.3369,-0.7246,-0.3335,-16.296,-11.78,0.916,-128.491,16.024,-60.853
2840,-0.3228,-0.7246,-0.4165,-25.574,-12.39,0.061,-128.628,16.15,-60.754
2860,-0.3228,-0.7246,-0.4165,-34.363,-5.798,-1.16,-129.276,16.249,-60.601
2870,-0.2314,-0.7168,-0.8193,-28.687,3.54,-0.854,-129.661,16.177,-60.623
2889,-0.2104,-0.7041,-0.9258,-6.714,21.545,1.77,-130.259,15.848,-60.919
2910,-0.2217,-0.7412,-0.9102,5.615,19.897,4.456,-130.534,15.513,-61.337
2939,-0.2515,-0.7554,-0.6431,-2.441,-23.56,9.827,-130.583,16.046,-61.024
2950,-0.271,-0.7378,-0.5688,-6.348,-48.157,15.076,-130.54,16.474,-60.743
2979,-0.311,-0.7236,-0.5078,-4.15,-36.926,14.16,-130.32,17.617,-60.15
2990,-0.3481,-0.6963,-0.4546,-13.367,-21.118,8.972,-130.347,17.875,-60.04
3019,-0.3096,-0.6475,-0.6953,-30.518,-9.033,0.977,-131.127,18.237,-59.821
3039,-0.2729,-0.6377,-0.9175,-17.944,0.0,-0.061,-131.803,18.171,-59.777
3049,-0.2954,-0.6255,-0.9634,-4.944,3.54,1.526,-132.017,18.122,-59.815
3059,-0.3042,-0.6416,-0.9561,7.019,8.179,-0.122,-132.111,18.034,-59.881
3079,-0.3101,-0.7075,-0.8027,15.564,-1.465,-0.916,-131.995,17.924,-59.903
3089,-0.3223,-0.7129,-0.688,12.39,-12.268,0.366,-131.863,18.012,-59.81
3099,-0.334,-0.7383,-0.5649,6.714,-20.447,-0.061,-131.704,18.16,-59.65
3129,-0.3335,-0.6792,-0.4668,-15.32,-17.578,-2.197,-131.627,18.66,-59.09
3148,-0.3335,-0.6792,-0.4668,-15.32,-17.578,-2.197,-131.863,18.803,-58.925
3169,-0.334,-0.6982,-0.7627,-5.798,-3.052,2.197,-132.1,18.885,-58.892
3188,-0.3281,-0.7041,-0.7827,-4.333,0.427,-0.122,-132.264,18.831,-58.903
3198,-0.3364,-0.7178,-0.7437,-2.869,1.587,-2.625,-132.325,18.792,-58.892
3209,-0.2969,-0.689,-0.7446,-3.967,-1.404,-0.793,-132.413,18.77,-58.876
3218,-0.3125,-0.6938,-0.7144,-3.967,-1.404,-0.793,-132.451,18.814,-58.848
3238,-0.3311,-0.6973,-0.6406,-0.916,-13.184,3.357,-132.457,19.023,-58.716
3249,-0.3457,-0.7173,-0.5845,-5.371,-16.602,2.747,-132.446,19.171,-58.607
3258,-0.3457,-0.7173,-0.5845,-5.371,-16.602,2.747,-132.495,19.336,-58.469
3268,-0.3569,-0.6377,-0.5322,-19.409,-18.738,2.258,-132.616,19.517,-58.343
3278,-0.3628,-0.6245,-0.5522,-19.531,-15.076,3.113,-132.764,19.682,-58.244
3299,-0.3232,-0.6392,-0.6426,-19.531,-15.076,3.113,-133.099,19.764,-58.2
3308,-0.3232,-0.6392,-0.6426,-9.155,2.502,5.31,-133.27,19.759,-58.26
3318,-0.3325,-0.6934,-0.8159,-3.845,8.423,5.066,-133.407,19.709,-58.359
3338,-0.3535,-0.6802,-0.7612,-3.845,8.423,5.066,-133.561,19.589,-58.563
3348,-0.3535,-0.6802,-0.7612,-1.831,5.005,-0.916,-133.627,19.545,-58.59
3367,-0.3218,-0.6504,-0.7119,-7.324,-2.197,-3.479,-133.868,19.534,-58.464
3378,-0.3218,-0.6504,-0.7119,-7.324,-2.197,-3.479,-134.011,19.55,-58.359
3388,-0.3037,-0.6235,-0.7695,-5.066,-9.583,-1.343,-134.105,19.583,-58.277
3407,-0.3271,-0.6509,-0.7568,2.441,-6.104,-1.038,-134.116,19.655,-58.162
3418,-0.3271,-0.6509,-0.7568,2.747,-5.188,-1.648,-134.061,19.704,-58.107
3428,-0.4082,-0.6909,-0.5767,2.563,-5.127,-1.831,-133.978,19.77,-58.057
3458,-0.4023,-0.6699,-0.5332,-3.174,-1.282,-0.793,-133.874,19.918,-57.958
3468,-0.2944,-0.6123,-0.7104,-5.249,1.465,-0.854,-133.984,19.874,-57.964
3477,-0.2944,-0.6123,-0.7104,-5.249,1.465,-0.854,-134.083,19.814,-57.986
3487,-0.3394,-0.6494,-0.7832,0.732,3.784,-0.977,-134.143,19.77,-58.008
3498,-0.3403,-0.6597,-0.7891,3.418,4.211,-0.977,-134.176,19.715,-58.03
3508,-0.3604,-0.6826,-0.7397,5.981,3.296,-0.916,-134.154,19.687,-58.046
3517,-0.3604,-0.6826,-0.7397,5.554,-0.244,-0.671,-134.094,19.709,-58.041
3527,-0.3794,-0.6821,-0.6211,1.587,-2.991,-1.038,-134.05,19.748,-58.013
3537,-0.3511,-0.6753,-0.5962,-3.174,-4.028,-1.953,-134.044,19.775,-57.964
3567,-0.2529,-0.6245,-0.811,-7.874,-1.648,-0.854,-134.324,19.693,-57.92
3577,-0.2783,-0.6304,-0.874,3.113,5.798,1.404,-134.412,19.611,-57.975
3607,-0.3403,-0.707,-0.8306,20.996,10.01,0.61,-134.022,19.396,-58.189
3617,-0.4258,-0.7607,-0.5498,19.531,0.366,0.244,-133.748,19.446,-58.195
3637,-0.3594,-0.6846,-0.4458,-2.014,-7.996,-1.16,-133.44,19.616,-58.079
3647,-0.3252,-0.6523,-0.4883,-8.85,-7.69,-1.404,-133.434,19.682,-58.013
3666,-0.3013,-0.6416,-0.6377,-11.597,-0.61,0.671,-133.638,19.698,-57.969
3677,-0.3267,-0.6543,-0.7031,-10.193,3.784,1.709,-133.786,19.671,-58.013
3687,-0.3369,-0.6567,-0.7671,-6.531,7.996,1.953,-133.934,19.622,-58.085
3706,-0.3394,-0.6758,-0.8057,-6.531,7.996,1.953,-134.127,19.462,-58.282
3736,-0.2905,-0.6484,-0.8916,8.728,2.808,-0.305,-134.308,19.215,-58.436
3757,-0.2817,-0.6343,-0.9023,8.728,2.808,-0.305,-134.132,19.116,-58.436
3776,-0.3257,-0.6777,-0.7808,32.959,-2.014,0.122,-133.478,19.177,-58.387
3786,-0.3257,-0.6777,-0.7808,28.198,-8.423,-0.305,-133.072,19.286,-58.315
3797,-0.4302,-0.7397,-0.311,17.578,-12.512,0.061,-132.665,19.457,-58.222
3806,-0.4302,-0.7397,-0.311,17.578,-12.512,0.061,-132.319,19.682,-58.096
3816,-0.4438,-0.7363,-0.1494,-13.0,-17.151,0.061,-132.094,19.907,-57.964
3826,-0.4185,-0.7222,-0.1743,-28.992,-14.221,-0.122,-132.061,20.094,-57.849
3836,-0.374,-0.666,-0.2988,-42.786,-8.85,0.732,-132.281,20.231,-57.783
3846,-0.374,-0.666,-0.2988,-42.786,-8.85,0.732,-132.726,20.27,-57.788
3866,-0.2373,-0.5957,-1.0156,-30.64,23.376,2.747,-133.808,19.957,-58.085
3886,-0.2314,-0.5952,-1.2241,9.399,41.931,1.709,-134.44,19.259,-58.7
3896,-0.2788,-0.6592,-1.2695,25.94,41.077,-0.244,-134.467,18.891,-59.008
3906,-0.291,-0.6982,-1.1509,31.555,26.611,-1.526,-134.357,18.633,-59.2
3926,-0.2949,-0.7158,-0.9819,31.555,26.611,-1.526,-133.918,18.666,-59.062
3936,-0.3535,-0.71,-0.5938,20.386,-29.846,-0.061,-133.605,18.891,-58.837
3946,-0.375,-0.6997,-0.4189,18.005,-29.968,0.183,-133.226,19.155,-58.607
3976,-0.4077,-0.666,-0.2109,-2.502,-14.832,2.258,-132.182,19.907,-58.167
3986,-0.4106,-0.6606,-0.2222,-14.709,-11.292,2.319,-132.067,20.105,-58.096
3995,-0.4106,-0.6606,-0.2222,-14.709,-11.292,2.319,-132.204,20.253,-58.041
4005,-0.4106,-0.6606,-0.2222,-37.903,-4.028,0.61,-132.578,20.297,-58.013
4016,-0.3018,-0.6079,-0.8291,-36.377,3.784,0.305,-133.061,20.237,-58.041
4045,-0.3281,-0.667,-1.1724,9.338,33.264,-2.197,-133.962,19.479,-58.596
4065,-0.3174,-0.6753,-1.1138,24.841,26.672,-4.395,-133.907,18.864,-59.019
4075,-0.2842,-0.6929,-0.873,22.217,2.991,-3.296,-133.764,18.776,-59.019
4085,-0.2842,-0.6929,-0.873,16.785,-20.264,-2.319,-133.566,18.885,-58.843
4096,-0.3394,-0.6997,-0.5801,12.756,-32.288,-1.77,-133.319,19.105,-58.585
4125,-0.375,-0.687,-0.2949,4.883,-16.296,-1.709,-132.451,19.72,-57.986
4145,-0.3799,-0.6943,-0.2832,4.883,-16.296,-1.709,-132.144,19.973,-57.859
4155,-0.3799,-0.6943,-0.2832,-20.813,-4.395,1.465,-132.226,20.05,-57.838
4165,-0.355,-0.6924,-0.562,-28.381,-1.892,2.075,-132.473,20.094,-57.838
4195,-0.3066,-0.6431,-1.0063,-15.381,21.973,0.977,-133.566,19.77,-58.167
4205,-0.3037,-0.6235,-1.0815,-3.113,28.259,-0.366,-133.835,19.512,-58.387
4214,-0.3037,-0.6235,-1.0815,-3.113,28.259,-0.366,-133.989,19.221,-58.607
4235,-0.2793,-0.6392,-0.9458,20.508,13.428,-1.709,-133.989,18.809,-58.881
4254,-0.3047,-0.666,-0.8066,21.362,-4.272,-0.305,-133.605,18.951,-58.705
4275,-0.3955,-0.6704,-0.4048,10.803,-24.902,0.244,-133.044,19.413,-58.326
4295,-0.3931,-0.6763,-0.3389,2.075,-14.282,-0.122,-132.517,19.797,-58.052
4304,-0.3931,-0.6763,-0.3389,-6.165,-9.644,0.305,-132.391,19.918,-57.98
4315,-0.3584,-0.6963,-0.4204,-14.343,-5.432,0.671,-132.407,20.001,-57.942
4344,-0.3047,-0.667,-0.7002,-19.043,7.08,1.77,-133.066,19.808,-58.162
4364,-0.2832,-0.6548,-0.96,0.61,26.428,1.221,-133.336,19.286,-58.645
4384,-0.2783,-0.7017,-1.0273,38.574,30.945,2.38,-133.088,18.726,-59.189
4414,-0.2827,-0.7148,-0.7495,36.377,-12.268,7.996,-132.303,18.644,-59.403
4424,-0.3286,-0.6938,-0.6362,35.217,-22.339,8.911,-131.924,18.864,-59.293
4444,-0.3965,-0.6963,-0.3892,35.217,-22.339,8.911,-130.995,19.396,-59.041
4454,-0.417,-0.6963,-0.3018,24.536,-20.386,6.287,-130.54,19.671,-58.925
4464,-0.4297,-0.7007,-0.2451,11.414,-16.724,4.7,-130.182,19.918,-58.821
4494,-0.4199,-0.7153,-0.2695,-18.616,-7.385,1.831,-130.117,20.352,-58.683
4513,-0.3706,-0.7012,-0.502,-37.842,13.916,0.305,-130.908,20.264,-58.837
4534,-0.2725,-0.6563,-0.9854,-19.287,34.607,0.305,-131.841,19.759,-59.321
4553,-0.2686,-0.6631,-1.0786,-19.287,34.607,0.305,-132.374,19.116,-59.908
4563,-0.2646,-0.6797,-1.0459,9.277,20.935,-0.427,-132.484,18.902,-60.073
4574,-0.2686,-0.689,-0.9731,8.911,2.014,-0.366,-132.523,18.825,-60.084
4583,-0.2686,-0.689,-0.9731,8.911,2.014,-0.366,-132.501,18.858,-59.985
4603,-0.3389,-0.6719,-0.6323,15.137,-17.09,-1.099,-132.193,19.061,-59.7
4633,-0.3906,-0.6738,-0.3726,13.428,-9.155,-1.221,-131.353,19.451,-59.403
4643,-0.3887,-0.6777,-0.3652,3.174,-7.507,-0.793,-131.166,19.567,-59.337
4663,-0.3892,-0.6768,-0.3979,-17.578,-3.113,-1.831,-131.215,19.737,-59.249
4673,-0.3823,-0.6616,-0.5518,-23.743,1.404,-3.662,-131.435,19.742,-59.238
4683,-0.3677,-0.6528,-0.6553,-24.902,7.385,-4.944,-131.726,19.677,-59.26
4703,-0.3462,-0.6519,-0.7588,-14.221,22.522,-6.531,-132.325,19.297,-59.469
4713,-0.2827,-0.6699,-0.9136,-5.188,27.466,-6.714,-132.545,19.012,-59.639
4732,-0.2622,-0.6885,-0.9463,6.165,22.095,-4.883,-132.786,18.463,-59.947
4753,-0.252,-0.7085,-0.8584,7.446,-1.221,-1.404,-132.819,18.248,-59.991
4783,-0.269,-0.7246,-0.7075,15.869,-10.559,-0.061,-132.402,18.358,-59.733
4823,-0.3447,-0.7222,-0.4067,-8.118,-3.296,2.38,-131.693,18.759,-59.601
4862,-0.3521,-0.6812,-0.6782,-21.79,13.733,-2.441,-132.457,18.759,-59.749
4882,-0.3218,-0.6982,-0.7573,-16.663,25.452,-2.563,-133.028,18.364,-60.068
4892,-0.2925,-0.6704,-0.8765,-11.78,26.001,-1.221,-133.303,18.144,-60.26
4912,-0.2739,-0.6621,-0.9097,-11.78,26.001,-1.221,-133.693,17.858,-60.524
4932,-0.2568,-0.6709,-0.9233,6.104,-3.052,3.174,-133.813,17.814,-60.568
4942,-0.291,-0.6812,-0.8105,6.104,-3.052,3.174,-133.759,17.842,-60.546
4952,-0.291,-0.6812,-0.8105,6.104,-3.052,3.174,-133.66,17.864,-60.529
4972,-0.311,-0.6909,-0.6499,13.428,-3.906,0.916,-133.352,17.974,-60.469
4992,-0.3594,-0.6802,-0.4951,5.615,-8.728,5.188,-132.995,18.265,-60.397
5012,-0.3633,-0.6958,-0.4648,1.892,-8.301,7.629,-132.808,18.605,-60.408
5021,-0.3354,-0.6802,-0.5508,1.892,-8.301,7.629,-132.891,18.704,-60.458
5042,-0.3081,-0.6509,-0.686,-16.174,5.859,6.958,-133.391,18.605,-60.694
5061,-0.2588,-0.6333,-0.9326,6.836,25.94,1.16,-133.759,18.193,-61.078
5082,-0.2666,-0.6904,-0.9839,22.522,16.113,-0.183,-133.72,17.803,-61.386
5122,-0.3848,-0.6885,-0.4395,12.512,-17.395,0.427,-132.764,18.056,-61.139
5141,-0.3833,-0.6582,-0.3242,-0.244,-20.325,5.92,-132.314,18.583,-60.892
5151,-0.3691,-0.6636,-0.3516,-9.949,-17.212,6.042,-132.237,18.82,-60.798
5162,-0.3501,-0.668,-0.4141,-19.958,-12.024,4.639,-132.314,18.984,-60.738
5181,-0.3501,-0.668,-0.4141,-31.982,-0.122,0.549,-132.907,19.083,-60.705
5191,-0.2695,-0.6367,-0.875,-27.344,10.254,-2.075,-133.314,18.946,-60.771
5211,-0.2427,-0.6431,-1.0352,-0.427,29.236,-6.531,-133.868,18.358,-61.073
5231,-0.2593,-0.7251,-1.0381,23.499,21.423,-4.761,-133.841,17.781,-61.381
5251,-0.2637,-0.7476,-0.7676,23.499,21.423,-4.761,-133.445,17.688,-61.304
5261,-0.2637,-0.7476,-0.7676,20.142,-22.034,-0.549,-133.16,17.825,-61.133
5271,-0.3042,-0.7339,-0.4863,18.677,-22.705,0.366,-132.825,17.996,-60.958
5292,-0.3262,-0.7559,-0.3237,10.986,-10.559,2.747,-132.149,18.27,-60.771
5301,-0.3262,-0.7559,-0.3237,10.986,-10.559,2.747,-131.918,18.386,-60.776
5341,-0.3564,-0.6753,-0.5986,-21.057,10.559,16.846,-132.358,18.831,-61.293
5360,-0.3564,-0.6753,-0.5986,-21.057,10.559,16.846,-133.006,18.754,-61.798
5370,-0.2817,-0.5957,-1.0122,-10.254,28.015,9.033,-133.363,18.578,-62.078
5381,-0.2817,-0.5972,-1.0591,-2.441,29.541,4.517,-133.643,18.358,-62.336
5400,-0.3032,-0.6118,-1.0391,-2.441,29.541,4.517,-133.852,18.056,-62.6
5410,-0.3174,-0.645,-0.8618,11.047,-2.075,-1.221,-133.83,18.045,-62.578
5421,-0.3262,-0.6406,-0.7446,9.277,-12.024,-1.465,-133.759,18.122,-62.474
5430,-0.3262,-0.6406,-0.7446,9.277,-12.024,-1.465,-133.671,18.254,-62.325
5450,-0.3916,-0.6235,-0.4292,-5.066,-17.029,-3.601,-133.489,18.6,-62.012
5470,-0.3901,-0.6406,-0.4038,-16.724,-13.611,1.282,-133.456,18.951,-61.782
5490,-0.3496,-0.6846,-0.5371,-28.809,-5.737,4.089,-133.797,19.193,-61.716
5510,-0.2939,-0.6743,-0.7925,-28.564,8.972,2.014,-134.478,19.127,-61.831
5520,-0.2744,-0.6641,-0.9136,-20.691,16.846,0.488,-134.819,18.957,-61.957
5530,-0.2539,-0.6606,-1.0117,-10.681,22.705,-1.587,-135.093,18.715,-62.117
5539,-0.2539,-0.6606,-1.0117,0.0,22.522,-3.113,-135.275,18.457,-62.265
5560,-0.2515,-0.6504,-1.0034,13.306,5.066,-3.418,-135.346,18.127,-62.364
5579,-0.2705,-0.6641,-0.9033,13.306,5.066,-3.418,-135.038,18.133,-62.205
5600,-0.3447,-0.6782,-0.5425,23.56,-12.939,-2.258,-134.434,18.331,-61.979
5619,-0.3667,-0.686,-0.4497,13.672,-9.583,-0.854,-133.786,18.578,-61.798
5629,-0.3813,-0.6929,-0.3711,4.272,-8.545,0.366,-133.566,18.715,-61.738
5640,-0.3872,-0.686,-0.3931,-7.141,-7.141,0.732,-133.484,18.842,-61.688
5659,-0.3726,-0.6602,-0.5215,-25.635,-2.136,-0.61,-133.742,19.006,-61.628
5669,-0.3491,-0.6465,-0.6323,-28.625,2.441,-1.16,-134.033,19.001,-61.639
5680,-0.3135,-0.6328,-0.7715,-28.381,8.789,-2.197,-134.396,18.913,-61.688
5689,-0.3135,-0.6328,-0.7715,-28.381,8.789,-2.197,-134.775,18.726,-61.776
5699,-0.3135,-0.6328,-0.7715,-28.381,8.789,-2.197,-135.104,18.49,-61.886
5709,-0.2505,-0.6216,-1.0615,-5.737,17.578,-4.456,-135.341,18.265,-61.985
5729,-0.2754,-0.6538,-0.9785,-5.737,17.578,-4.456,-135.456,18.018,-62.007
5739,-0.2876,-0.6646,-0.8818,12.39,-7.751,-3.174,-135.379,18.018,-61.924
5749,-0.2988,-0.6714,-0.7725,13.977,-13.0,-2.869,-135.242,18.073,-61.809
5758,-0.3193,-0.6792,-0.6563,13.977,-13.0,-2.869,-135.044,18.155,-61.672
5769,-0.3193,-0.6792,-0.6563,13.977,-13.0,-2.869,-134.819,18.237,-61.523
5779,-0.333,-0.7251,-0.5015,3.723,-13.489,-7.568,-134.632,18.303,-61.37
5798,-0.333,-0.7251,-0.5015,-9.338,-13.794,-9.949,-134.599,18.38,-60.98
5838,-0.4102,-0.5591,-0.5396,-31.372,-9.827,-1.038,-135.895,18.765,-60.216
5859,-0.2881,-0.6509,-0.8237,-4.578,6.104,13.489,-136.247,18.847,-60.403
5889,-0.2485,-0.6626,-0.9893,-4.578,6.104,13.489,-136.494,18.402,-61.117
5908,-0.2485,-0.6626,-0.9893,-4.578,6.104,13.489,-136.412,18.051,-61.364
5928,-0.2891,-0.6597,-0.8223,11.841,-8.667,-4.089,-136.187,18.023,-61.243
5948,-0.3359,-0.6758,-0.5894,7.507,-11.963,-5.554,-135.873,18.155,-60.991
5958,-0.3442,-0.6675,-0.5439,3.662,-9.827,-6.165,-135.736,18.221,-60.87
5968,-0.3506,-0.6655,-0.5186,-1.343,-7.996,-5.31,-135.643,18.281,-60.771
5998,-0.3525,-0.6128,-0.6167,-20.081,-4.211,-2.686,-135.895,18.446,-60.562
6008,-0.3477,-0.6055,-0.6865,-18.86,-2.136,-0.244,-136.104,18.484,-60.546
6038,-0.3086,-0.6372,-0.8232,-9.949,2.808,0.549,-136.61,18.391,-60.617
6058,-0.2739,-0.6445,-0.9023,-1.343,5.432,-0.244,-136.835,18.221,-60.694
6068,-0.2559,-0.6431,-0.9136,-1.343,5.432,-0.244,-136.895,18.155,-60.705
6078,-0.2617,-0.6445,-0.9072,6.104,-1.526,-1.465,-136.906,18.105,-60.683
6097,-0.2798,-0.6323,-0.8608,11.414,-5.92,-6.165,-136.763,18.078,-60.535
6108,-0.377,-0.6694,-0.6104,12.146,-7.813,-7.446,-136.56,18.127,-60.419
6118,-0.4253,-0.6792,-0.4614,5.554,-11.047,-5.249,-136.346,18.265,-60.304
6148,-0.4229,-0.6748,-0.2822,-35.034,-22.095,11.169,-136.214,19.111,-60.007
6167,-0.3594,-0.623,-0.3901,-40.527,-17.09,13.733,-136.89,19.556,-60.035
6188,-0.2578,-0.5488,-0.9707,-33.447,12.39,10.376,-137.939,19.506,-60.315
6197,-0.2725,-0.5591,-1.1084,-33.447,12.39,10.376,-138.384,19.308,-60.507
6207,-0.2925,-0.5674,-1.1636,-11.23,26.855,-0.61,-138.708,19.045,-60.694
6217,-0.3057,-0.5742,-1.1421,-2.197,25.391,-4.761,-138.922,18.765,-60.831
6227,-0.3057,-0.5869,-1.0659,2.136,14.954,-7.507,-139.037,18.561,-60.875
6247,-0.3193,-0.5781,-0.958,2.136,14.954,-7.507,-139.092,18.589,-60.661
6257,-0.3208,-0.584,-0.7466,10.01,-21.484,0.0,-138.972,18.748,-60.513
6267,-0.3335,-0.6064,-0.647,17.029,-19.104,3.296,-138.746,18.935,-60.408
6277,-0.3335,-0.6064,-0.647,17.029,-19.104,3.296,-138.466,19.094,-60.37
6288,-0.3271,-0.6401,-0.541,23.437,-5.615,8.301,-138.159,19.21,-60.397
6297,-0.3271,-0.6401,-0.541,20.874,-0.977,8.667,-137.878,19.292,-60.458
6317,-0.3232,-0.6768,-0.5542,3.784,1.831,5.249,-137.598,19.374,-60.579
6327,-0.3242,-0.6875,-0.6807,3.784,1.831,5.249,-137.631,19.358,-60.612
6337,-0.3218,-0.6826,-0.7607,-11.292,3.418,-2.136,-137.752,19.303,-60.617
6357,-0.3076,-0.6831,-0.8252,-17.517,5.31,-7.935,-138.126,19.072,-60.584
6367,-0.332,-0.6216,-0.8574,-17.517,5.31,-7.935,-138.362,18.968,-60.546
6377,-0.3447,-0.5645,-0.8359,-16.357,0.916,-7.019,-138.582,18.913,-60.496
6396,-0.3613,-0.5244,-0.8042,-16.357,0.916,-7.019,-138.713,19.023,-60.436
6407,-0.3613,-0.5244,-0.8042,-16.357,0.916,-7.019,-138.576,19.127,-60.463
6426,-0.335,-0.6108,-0.6904,21.851,-3.174,10.986,-138.17,19.303,-60.623
6436,-0.3291,-0.6382,-0.6499,21.851,-3.174,10.986,-137.977,19.33,-60.727
6447,-0.3286,-0.6523,-0.6514,15.137,7.446,6.836,-137.834,19.325,-60.837
6466,-0.335,-0.6543,-0.6709,4.15,8.789,1.282,-137.714,19.237,-61.007
6476,-0.3457,-0.6665,-0.6948,4.15,8.789,1.282,-137.736,19.171,-61.04
6487,-0.3447,-0.6646,-0.6919,-11.475,4.272,-5.676,-137.829,19.111,-61.024
6506,-0.3555,-0.6626,-0.6582,-28.381,-6.104,-10.132,-138.192,19.067,-60.837
6516,-0.3491,-0.6445,-0.6558,-35.156,-10.803,-10.986,-138.461,19.089,-60.677
6556,-0.3452,-0.5664,-0.7617,-30.518,-7.629,-1.526,-139.85,19.292,-60.167
6566,-0.3452,-0.5664,-0.7617,-20.02,-2.747,2.075,-140.103,19.308,-60.167
6576,-0.2891,-0.5703,-0.9072,-20.02,-2.747,2.075,-140.301,19.27,-60.238
6586,-0.271,-0.5679,-0.9619,0.61,10.803,6.653,-140.427,19.171,-60.364
6596,-0.2744,-0.5796,-0.9863,11.719,17.09,5.981,-140.455,19.023,-60.529
6626,-0.3286,-0.6372,-0.814,16.602,8.484,-3.174,-140.12,18.594,-60.831
6636,-0.3281,-0.6182,-0.7437,8.667,-1.282,-4.822,-140.015,18.572,-60.782
6666,-0.3296,-0.6128,-0.6323,-12.573,-15.381,-6.836,-139.905,18.798,-60.353
6676,-0.3403,-0.5542,-0.6577,-18.372,-12.512,-5.005,-140.048,18.885,-60.233
6685,-0.3403,-0.5542,-0.6577,-18.372,-12.512,-5.005,-140.213,18.99,-60.161
6706,-0.3516,-0.5859,-0.77,6.714,-0.366,5.371,-140.257,19.116,-60.2
6725,-0.3428,-0.6304,-0.7817,6.958,6.775,1.526,-140.147,19.067,-60.315
6735,-0.3325,-0.6196,-0.7783,2.014,8.911,-2.136,-140.153,18.979,-60.359
6746,-0.3315,-0.6079,-0.7808,-1.526,9.216,-5.432,-140.191,18.869,-60.381
6775,-0.2896,-0.5991,-0.8047,-15.442,-4.822,-9.766,-140.477,18.627,-60.178
6795,-0.3594,-0.5356,-0.7632,-16.479,-11.719,-9.216,-140.806,18.671,-59.875
6815,-0.3711,-0.6265,-0.6685,4.822,-9.949,2.136,-140.757,18.907,-59.722
6835,-0.3579,-0.6626,-0.6221,4.822,-9.949,2.136,-140.46,19.111,-59.788
6845,-0.3335,-0.6157,-0.6445,5.737,3.845,10.071,-140.394,19.16,-59.897
6855,-0.2827,-0.5898,-0.7441,5.005,10.254,9.216,-140.405,19.116,-60.04
6885,-0.2695,-0.6143,-0.9902,8.789,19.409,-1.404,-140.526,18.578,-60.485
6925,-0.3691,-0.5742,-0.7119,-7.141,-16.052,-12.634,-140.482,18.347,-60.134
6944,-0.3711,-0.5308,-0.6147,-1.587,-17.212,-3.784,-140.466,18.666,-59.782
6955,-0.3608,-0.5762,-0.5913,4.883,-12.634,1.587,-140.35,18.825,-59.711
6965,-0.354,-0.5713,-0.5967,6.226,-7.019,6.714,-140.246,18.962,-59.716
6984,-0.3496,-0.5737,-0.6157,7.935,3.845,9.583,-140.098,19.122,-59.897
6994,-0.3325,-0.6499,-0.7178,5.859,7.08,7.263,-140.054,19.111,-60.002
7005,-0.314,-0.6582,-0.7749,-0.366,9.888,3.662,-140.081,19.039,-60.101
7024,-0.3008,-0.6255,-0.875,-13.367,9.583,-7.69,-140.367,18.776,-60.161
7034,-0.2695,-0.6016,-0.9224,-20.386,4.761,-12.878,-140.609,18.605,-60.09
7054,-0.2749,-0.5625,-0.9424,-26.917,-3.052,-15.686,-141.196,18.441,-59.738
7064,-0.3403,-0.5322,-0.8687,-17.883,-16.602,-13.306,-141.378,18.49,-59.518
7074,-0.3594,-0.5449,-0.8018,-5.798,-18.555,-7.568,-141.422,18.605,-59.332
7104,-0.3569,-0.6289,-0.5913,19.409,-7.507,7.08,-140.823,19.039,-59.183
7114,-0.3408,-0.6357,-0.5757,17.822,-2.136,7.751,-140.576,19.127,-59.233
7144,-0.2969,-0.6509,-0.6553,10.071,7.385,5.737,-140.208,19.028,-59.507
7174,-0.2954,-0.6602,-0.7856,-7.202,11.902,-4.15,-140.504,18.633,-59.628
7184,-0.333,-0.5825,-0.8633,-17.639,1.099,-8.728,-140.713,18.561,-59.562
7203,-0.3516,-0.5293,-0.8555,-17.639,1.099,-8.728,-141.064,18.644,-59.381
7224,-0.3467,-0.5723,-0.748,13.245,-7.263,5.676,-140.933,18.842,-59.326
7254,-0.3242,-0.606,-0.6855,18.677,1.099,7.263,-140.422,18.99,-59.507
7264,-0.3164,-0.6255,-0.6968,13.794,6.287,4.089,-140.284,18.962,-59.584
7284,-0.3213,-0.6484,-0.75,4.883,6.287,0.183,-140.142,18.864,-59.694
7293,-0.3159,-0.6392,-0.7754,-1.709,4.272,-2.38,-140.164,18.803,-59.705
7313,-0.3164,-0.644,-0.7852,-1.709,4.272,-2.38,-140.356,18.732,-59.579
7323,-0.3276,-0.6025,-0.793,-19.348,-9.766,-8.545,-140.526,18.748,-59.447
7333,-0.3379,-0.5742,-0.7817,-20.935,-13.0,-8.118,-140.718,18.803,-59.293
7353,-0.3564,-0.5444,-0.7583,-9.46,-13.0,-1.892,-140.977,19.017,-59.041
7363,-0.3564,-0.5444,-0.7583,-9.46,-13.0,-1.892,-140.949,19.122,-59.013
7383,-0.334,-0.6055,-0.708,12.024,-3.052,6.897,-140.685,19.21,-59.128
7403,-0.3174,-0.6162,-0.7617,12.634,11.597,4.333,-140.488,19.1,-59.348
7422,-0.3169,-0.6211,-0.7808,13.367,12.695,2.441,-140.317,18.902,-59.568
7433,-0.3003,-0.6563,-0.8057,13.367,12.695,2.441,-140.24,18.809,-59.645
7443,-0.3062,-0.6616,-0.7939,5.615,4.272,-0.488,-140.191,18.748,-59.672
7473,-0.3218,-0.6045,-0.7544,-7.263,-6.592,-3.723,-140.306,18.765,-59.513
7483,-0.3257,-0.5889,-0.7549,-7.141,-6.958,-3.723,-140.372,18.798,-59.436
7513,-0.3491,-0.5674,-0.7563,2.319,0.122,-1.282,-140.477,18.836,-59.326
7523,-0.3564,-0.584,-0.7334,7.141,2.747,0.549,-140.422,18.842,-59.348
7542,-0.3638,-0.6211,-0.7012,7.813,4.211,0.977,-140.224,18.836,-59.425
7553,-0.3311,-0.605,-0.6948,2.686,3.967,0.916,-140.197,18.82,-59.458
7572,-0.3252,-0.5923,-0.7266,-0.61,2.319,0.244,-140.251,18.776,-59.502
7582,-0.2979,-0.5933,-0.8271,-0.549,1.77,-0.427,-140.301,18.737,-59.513
7592,-0.3018,-0.6099,-0.8477,0.061,1.404,-1.404,-140.339,18.688,-59.507
7622,-0.3037,-0.7056,-0.7686,-8.667,-3.723,-10.681,-140.372,18.523,-59.326
7632,-0.3159,-0.6855,-0.7183,-24.475,-8.789,-17.456,-140.515,18.474,-59.128
7642,-0.3159,-0.6855,-0.7183,-24.475,-8.789,-17.456,-140.79,18.435,-58.826
7662,-0.3945,-0.4395,-0.6187,-48.706,-21.362,-27.893,-141.581,18.545,-58.085
7682,-0.4141,-0.5127,-0.6968,-48.706,-21.362,-27.893,-142.256,19.122,-57.695
7692,-0.3594,-0.5625,-0.7124,0.122,-14.099,14.282,-142.256,19.341,-57.722
7702,-0.3354,-0.5942,-0.7598,14.038,-4.7,17.395,-142.158,19.484,-57.838
7722,-0.3062,-0.5981,-0.8486,14.038,-4.7,17.395,-141.91,19.462,-58.26
7732,-0.3022,-0.5898,-0.8892,26.367,23.926,12.695,-141.779,19.314,-58.519
7751,-0.2813,-0.626,-0.9126,32.715,30.212,8.545,-141.383,18.842,-59.035
7761,-0.2813,-0.6436,-0.8843,32.715,30.212,8.545,-141.185,18.655,-59.211
7772,-0.2813,-0.6436,-0.8843,32.715,30.212,8.545,-141.026,18.561,-59.271
7791,-0.3125,-0.6465,-0.7783,2.93,-13.611,-2.808,-140.823,18.66,-59.106
7831,-0.355,-0.5967,-0.6182,-6.287,-8.85,-1.77,-140.68,19.094,-58.651
7841,-0.355,-0.5967,-0.6182,-3.662,-5.981,1.77,-140.674,19.193,-58.623
7861,-0.3652,-0.6001,-0.6553,-1.404,-2.808,4.089,-140.685,19.325,-58.689
7881,-0.354,-0.5679,-0.7617,-1.221,6.042,6.409,-140.828,19.27,-58.903
7891,-0.3135,-0.5693,-0.8945,5.066,14.282,3.967,-140.883,19.155,-59.03
7901,-0.3135,-0.5693,-0.8945,6.714,14.404,2.136,-140.922,19.028,-59.145
7921,-0.3301,-0.584,-0.8555,1.953,2.991,-2.808,-140.977,18.875,-59.205
7941,-0.334,-0.5864,-0.7993,-2.808,-12.268,-4.944,-140.971,18.957,-59.013
7951,-0.3369,-0.6128,-0.6934,-6.042,-15.259,-5.981,-140.96,19.05,-58.865
7961,-0.3477,-0.5903,-0.6606,-9.827,-15.198,-5.859,-140.982,19.155,-58.716
7991,-0.333,-0.6055,-0.6729,-4.028,-4.089,-1.404,-141.015,19.303,-58.475
8001,-0.3325,-0.6201,-0.7378,-4.639,-0.61,0.366,-141.053,19.308,-58.469
8010,-0.3325,-0.6201,-0.7378,-4.639,-0.61,0.366,-141.125,19.308,-58.502
8031,-0.3311,-0.6089,-0.8306,0.366,6.348,1.77,-141.213,19.232,-58.612
8050,-0.2896,-0.6372,-0.8682,-10.132,2.258,-3.723,-141.405,19.061,-58.634
8071,-0.3267,-0.519,-0.876,-23.499,-7.263,-11.597,-141.888,18.957,-58.403
8090,-0.3853,-0.5225,-0.7554,-5.615,-15.747,-3.845,-142.136,19.149,-58.112
8100,-0.3843,-0.5791,-0.6797,5.432,-15.32,1.709,-142.026,19.325,-58.024
8111,-0.377,-0.6338,-0.604,9.949,-12.756,6.775,-141.839,19.501,-57.997
8140,-0.3462,-0.6748,-0.5527,-6.165,-0.427,8.728,-141.465,19.874,-58.134
8160,-0.3276,-0.6367,-0.6152,-18.311,5.432,9.338,-141.779,19.913,-58.343
8180,-0.2998,-0.5234,-0.9565,-7.629,9.827,9.033,-142.256,19.808,-58.612
8189,-0.312,-0.5283,-1.0127,-7.629,9.827,9.033,-142.383,19.737,-58.749
8200,-0.312,-0.5283,-1.0127,-7.629,9.827,9.033,-142.383,19.655,-58.859
8210,-0.3291,-0.6079,-0.9697,16.541,4.822,2.319,-142.289,19.6,-58.909
8220,-0.3447,-0.6025,-0.8926,14.404,-0.427,-1.221,-142.18,19.572,-58.898
8229,-0.3447,-0.6025,-0.8926,14.404,-0.427,-1.221,-142.064,19.583,-58.832
8250,-0.3638,-0.5762,-0.7056,4.944,-11.414,-5.615,-141.823,19.737,-58.596
8269,-0.3833,-0.5581,-0.5757,7.935,-8.728,2.625,-141.487,20.012,-58.469
8281,-0.3755,-0.6084,-0.5571,6.531,-5.432,6.042,-141.339,20.132,-58.486
8290,-0.3711,-0.6113,-0.5737,1.953,-0.793,8.545,-141.257,20.231,-58.552
8320,-0.3301,-0.5674,-0.8325,-6.836,11.23,6.104,-141.498,20.22,-58.898
8330,-0.3125,-0.5396,-0.938,-5.249,14.221,3.723,-141.68,20.094,-59.024
8339,-0.3125,-0.5396,-0.938,0.122,15.32,1.221,-141.817,19.929,-59.134
8349,-0.3086,-0.5591,-1.0142,0.122,15.32,1.221,-141.883,19.77,-59.211
8359,-0.3345,-0.5811,-0.9619,9.155,6.531,-2.808,-141.866,19.671,-59.227
8370,-0.3501,-0.5879,-0.8799,10.437,-0.793,-3.662,-141.795,19.644,-59.194
8399,-0.3716,-0.6167,-0.6104,9.827,-11.414,-1.77,-141.312,19.88,-58.942
8429,-0.3701,-0.6147,-0.5293,-9.155,-5.31,0.244,-140.982,20.193,-58.76
8439,-0.3623,-0.6035,-0.5815,-14.832,-1.465,1.465,-141.059,20.242,-58.766
8469,-0.3604,-0.4883,-0.8833,-14.099,11.414,6.104,-141.757,20.209,-59.008
8488,-0.354,-0.4736,-0.9678,-6.042,15.198,7.385,-142.147,20.012,-59.343
8499,-0.354,-0.4736,-0.9678,-6.042,15.198,7.385,-142.185,19.913,-59.502
8509,-0.3506,-0.5278,-0.9556,20.935,11.108,7.202,-142.114,19.847,-59.639
8528,-0.3496,-0.5654,-0.8721,23.804,4.883,6.897,-141.746,19.88,-59.771
8549,-0.3496,-0.6768,-0.6138,13.794,-9.033,4.333,-141.251,20.067,-59.755
8579,-0.3472,-0.6802,-0.5757,-3.662,-8.24,2.686,-141.021,20.33,-59.667
8589,-0.335,-0.5972,-0.6675,-11.108,-1.892,2.441,-141.103,20.363,-59.672
8598,-0.335,-0.5972,-0.6675,-11.108,-1.892,2.441,-141.191,20.358,-59.722
8619,-0.332,-0.5928,-0.8032,2.686,8.118,5.981,-141.174,20.237,-59.98
8638,-0.3281,-0.6431,-0.8965,23.804,18.555,7.446,-140.922,20.001,-60.353
8648,-0.3354,-0.6294,-0.8716,23.804,18.555,7.446,-140.795,19.874,-60.513
8658,-0.3394,-0.6011,-0.8301,16.479,12.451,3.052,-140.702,19.781,-60.623
8688,-0.3369,-0.5659,-0.7466,5.249,-5.737,-0.977,-140.537,19.775,-60.606
8698,-0.3369,-0.5659,-0.7466,4.211,-6.531,-2.197,-140.488,19.814,-60.546
8728,-0.3672,-0.624,-0.6758,1.648,-2.441,-7.08,-140.295,19.852,-60.326
8738,-0.3955,-0.6338,-0.6416,-1.038,-2.075,-6.714,-140.229,19.863,-60.255
8748,-0.3955,-0.6338,-0.6416,-5.31,-2.075,-5.92,-140.202,19.891,-60.194
8768,-0.3799,-0.6187,-0.6338,-15.564,-0.793,-6.531,-140.317,19.902,-60.073
8798,-0.3184,-0.5674,-0.7866,-16.846,5.859,-3.906,-140.9,19.748,-59.996
8808,-0.2993,-0.5933,-0.8491,-10.315,8.179,-1.282,-141.059,19.644,-60.046
8817,-0.2993,-0.5933,-0.8491,-4.944,10.01,0.427,-141.191,19.512,-60.112
8838,-0.27,-0.5981,-1.0068,6.714,11.719,0.488,-141.328,19.21,-60.282
8857,-0.2817,-0.5977,-1.0132,6.714,11.719,0.488,-141.202,18.946,-60.392
8878,-0.2939,-0.6113,-0.9395,27.771,0.244,-0.732,-140.784,18.825,-60.408
8907,-0.3721,-0.6328,-0.5679,29.114,-11.169,1.831,-139.752,19.1,-60.271
8918,-0.3945,-0.623,-0.4937,24.475,-12.329,2.808,-139.378,19.281,-60.205
8937,-0.4238,-0.6123,-0.4331,24.475,-12.329,2.808,-138.779,19.655,-60.128
8947,-0.4331,-0.5972,-0.4458,2.014,-4.211,4.028,-138.642,19.819,-60.134
8987,-0.4106,-0.5371,-0.6807,-21.301,6.531,2.014,-139.246,20.045,-60.342
8997,-0.3765,-0.5669,-0.7388,-22.278,16.357,-3.113,-139.532,19.918,-60.43
9007,-0.3765,-0.5669,-0.7388,-18.921,20.874,-5.188,-139.785,19.726,-60.529
9017,-0.3765,-0.5669,-0.7388,-18.555,21.118,-4.883,-140.043,19.506,-60.634
9027,-0.3765,-0.5669,-0.7388,-16.907,17.7,-2.625,-140.301,19.308,-60.738
9057,-0.2319,-0.5713,-1.0454,-5.981,8.85,-1.038,-141.004,18.82,-60.936
9067,-0.2461,-0.5845,-1.0498,1.831,5.981,-2.197,-141.092,18.688,-60.958
9076,-0.2461,-0.5845,-1.0498,9.277,2.563,-3.845,-141.081,18.578,-60.941
9086,-0.2461,-0.5845,-1.0498,15.259,-0.61,-3.906,-140.982,18.506,-60.908
9097,-0.2461,-0.5845,-1.0498,19.897,-3.54,-2.93,-140.795,18.484,-60.859
9116,-0.3198,-0.6479,-0.748,21.79,-7.446,-1.526,-140.24,18.644,-60.716
9126,-0.3853,-0.6553,-0.5269,16.174,-15.808,2.197,-139.938,18.836,-60.628
9137,-0.4023,-0.6479,-0.459,9.033,-17.456,4.272,-139.675,19.078,-60.546
9156,-0.4121,-0.6294,-0.4238,-9.094,-12.695,4.517,-139.406,19.534,-60.425
9177,-0.3984,-0.5938,-0.5215,-23.437,-3.357,1.404,-139.581,19.814,-60.375
9206,-0.293,-0.5137,-0.9355,-17.212,23.315,2.014,-140.515,19.512,-60.694
9226,-0.2773,-0.5015,-1.0493,14.893,37.598,3.296,-140.856,18.891,-61.21
9246,-0.2539,-0.6201,-1.084,38.513,27.039,1.343,-140.532,18.292,-61.661
9266,-0.2661,-0.6743,-0.9087,27.588,3.357,-1.221,-140.021,18.029,-61.782
9286,-0.3267,-0.644,-0.6904,7.751,-19.592,-3.357,-139.691,18.199,-61.534
9295,-0.3506,-0.6489,-0.6001,7.751,-19.592,-3.357,-139.526,18.397,-61.342
9316,-0.3857,-0.6514,-0.4639,-2.686,-22.644,-0.793,-139.191,18.864,-60.985
9326,-0.3887,-0.6484,-0.4316,-5.493,-18.494,0.854,-139.048,19.083,-60.864
9356,-0.3872,-0.6606,-0.4448,-5.493,-18.494,0.854,-139.087,19.567,-60.688
9375,-0.3486,-0.6069,-0.6377,-5.493,-18.494,0.854,-139.697,19.572,-60.771
9386,-0.2769,-0.5625,-0.9595,-18.494,16.602,2.686,-140.021,19.407,-60.908
9396,-0.2583,-0.5562,-1.084,-6.47,26.855,2.136,-140.279,19.144,-61.106
9415,-0.2651,-0.5586,-1.1572,19.897,39.429,-1.221,-140.449,18.424,-61.611
9425,-0.2651,-0.5586,-1.1572,26.978,32.776,-2.93,-140.367,18.089,-61.809
9436,-0.2632,-0.5952,-1.0098,26.917,15.808,-3.662,-140.219,17.891,-61.886
9465,-0.3374,-0.6367,-0.6362,5.493,-30.212,-1.221,-139.741,18.281,-61.447
9485,-0.3721,-0.6377,-0.5273,-1.587,-26.245,0.0,-139.373,18.847,-61.051
9505,-0.4028,-0.6221,-0.4233,-8.118,-12.634,0.366,-139.131,19.286,-60.837
9525,-0.377,-0.6289,-0.5503,-20.996,-5.005,0.122,-139.246,19.501,-60.749
9535,-0.3599,-0.6099,-0.6587,-26.672,-1.16,0.854,-139.488,19.539,-60.749
9545,-0.3296,-0.5859,-0.792,-27.161,4.761,1.465,-139.812,19.501,-60.793
9554,-0.2954,-0.563,-0.9287,-27.161,4.761,1.465,-140.142,19.38,-60.892
9565,-0.2954,-0.563,-0.9287,-27.161,4.761,1.465,-140.4,19.177,-61.04
9575,-0.2671,-0.5557,-1.1069,5.249,27.832,1.282,-140.543,18.902,-61.238
9594,-0.2754,-0.5645,-1.1099,28.748,32.654,-2.014,-140.433,18.265,-61.661
9615,-0.2646,-0.603,-0.8813,28.748,32.654,-2.014,-140.059,17.93,-61.787
9634,-0.2827,-0.6201,-0.7871,10.071,-25.269,0.366,-139.708,18.204,-61.512
9645,-0.3447,-0.6143,-0.6074,6.409,-27.771,1.648,-139.537,18.463,-61.337
9655,-0.3613,-0.6211,-0.5522,5.066,-23.804,1.831,-139.362,18.704,-61.194
9674,-0.3911,-0.6274,-0.5015,5.066,-23.804,1.831,-139.032,19.089,-60.996
9685,-0.3975,-0.6299,-0.5103,5.066,-23.804,1.831,-138.939,19.232,-60.93
9695,-0.3989,-0.6216,-0.542,-10.681,-7.874,-0.61,-138.95,19.352,-60.87
9714,-0.3989,-0.6216,-0.542,-20.691,-3.723,-1.648,-139.224,19.506,-60.776
9724,-0.3989,-0.6216,-0.542,-20.813,3.052,-2.197,-139.449,19.484,-60.776
9744,-0.3374,-0.5854,-0.8062,-20.813,3.052,-2.197,-139.889,19.188,-60.941
9754,-0.293,-0.5649,-0.937,-1.221,26.489,-3.052,-140.037,18.929,-61.095
9764,-0.269,-0.5771,-0.9824,7.813,30.64,-3.052,-140.114,18.616,-61.276
9794,-0.251,-0.6172,-0.9287,12.146,3.845,-1.648,-140.037,18.018,-61.567
9814,-0.2646,-0.626,-0.8696,12.146,3.845,-1.648,-139.878,18.149,-61.375
9834,-0.3369,-0.6494,-0.6631,7.08,-19.165,0.0,-139.603,18.468,-61.106
9853,-0.356,-0.6538,-0.6011,4.761,-12.939,0.366,-139.268,18.77,-60.914
9864,-0.3813,-0.6455,-0.5298,1.343,-10.864,0.916,-139.131,18.913,-60.842
9874,-0.3789,-0.6411,-0.5327,1.343,-10.864,0.916,-139.059,19.045,-60.787
9893,-0.3716,-0.6328,-0.5498,-15.93,-5.676,0.122,-139.153,19.243,-60.699
9904,-0.3643,-0.6055,-0.6411,-17.09,-0.732,-0.183,-139.296,19.276,-60.694
9914,-0.3438,-0.584,-0.7168,-16.602,6.592,0.305,-139.493,19.243,-60.738
9923,-0.3438,-0.584,-0.7168,-11.719,14.282,1.282,-139.691,19.133,-60.848
9944,-0.2954,-0.5732,-0.9473,0.671,24.78,2.747,-140.01,18.748,-61.199
9963,-0.2769,-0.5713,-0.9927,9.033,18.982,1.892,-140.175,18.347,-61.534
9973,-0.2778,-0.584,-0.9722,10.01,8.728,0.916,-140.186,18.243,-61.6
9984,-0.2817,-0.5952,-0.9209,9.033,-1.77,-0.122,-140.158,18.215,-61.584
10013,-0.3262,-0.6147,-0.7036,7.996,-15.137,0.183,-139.889,18.479,-61.32
10023,-0.3496,-0.6274,-0.6274,7.935,-15.381,0.366,-139.73,18.627,-61.221
10033,-0.3496,-0.6274,-0.6274,5.798,-15.564,0.183,-139.554,18.798,-61.117
10053,-0.3931,-0.6587,-0.4946,-9.46,-15.625,-0.854,-139.301,19.182,-60.892
10073,-0.4106,-0.668,-0.4434,-18.86,-13.916,-2.258,-139.411,19.484,-60.677
10083,-0.4106,-0.668,-0.4434,-35.339,-5.737,-2.563,-139.68,19.55,-60.617
10123,-0.2515,-0.5156,-1.2163,-11.414,28.503,3.479,-140.993,18.737,-61.265
10142,-0.2637,-0.5518,-1.2671,24.536,44.128,1.709,-140.85,17.952,-61.842
10152,-0.2637,-0.5518,-1.2671,24.536,44.128,1.709,-140.587,17.721,-62.007
10163,-0.2783,-0.6582,-0.9141,35.828,1.465,1.892,-140.273,17.682,-62.029
10182,-0.3115,-0.688,-0.6997,11.169,-31.433,-0.427,-139.642,18.111,-61.705
10203,-0.3789,-0.6465,-0.3188,-10.62,-31.555,-2.319,-139.186,18.765,-61.21
10222,-0.3125,-0.5664,-0.4482,-19.47,-13.428,-1.038,-139.153,19.149,-60.936
10232,-0.3018,-0.5649,-0.5825,-20.386,-4.272,-0.671,-139.307,19.188,-60.897
10243,-0.3018,-0.5649,-0.5825,-20.752,2.136,-0.061,-139.548,19.171,-60.914
10312,-0.3076,-0.5728,-0.8555,23.071,11.475,-1.404,-140.098,18.254,-61.54
10342,-0.3442,-0.6304,-0.5303,4.7,-18.372,-0.671,-139.51,18.501,-61.342
10352,-0.3618,-0.644,-0.4771,-4.944,-22.888,0.061,-139.378,18.732,-61.183
10361,-0.3618,-0.644,-0.4771,-4.944,-22.888,0.061,-139.318,18.973,-61.04
10382,-0.3276,-0.6016,-0.6167,-19.47,-17.822,1.099,-139.543,19.265,-60.859
10392,-0.2876,-0.5703,-0.7881,-23.376,-1.953,0.854,-139.818,19.259,-60.853
10401,-0.2617,-0.5542,-0.9614,-18.066,6.042,0.671,-140.114,19.16,-60.897
10412,-0.2666,-0.5728,-1.0649,-8.484,12.695,-0.977,-140.339,18.99,-60.98
10422,-0.3018,-0.5913,-1.0977,2.808,15.991,-2.38,-140.455,18.798,-61.068
10451,-0.2661,-0.5581,-0.9834,24.963,13.306,-4.456,-140.257,18.237,-61.298
10481,-0.188,-0.5435,-1.0059,23.682,-5.493,-11.719,-139.779,17.831,-61.122
10491,-0.188,-0.5435,-1.0059,25.879,-16.113,-14.16,-139.482,17.858,-60.897
10511,-0.4414,-0.6846,-0.6177,29.663,-34.424,-10.62,-138.422,18.38,-60.298
10521,-0.5483,-0.7324,-0.1099,22.522,-41.87,-5.249,-137.697,18.836,-59.963
10531,-0.543,-0.7251,0.0332,7.935,-41.382,-0.427,-137.021,19.319,-59.667
10561,-0.2378,-0.522,-0.4858,-57.312,-9.766,6.409,-137.164,20.11,-59.277
10601,-0.3091,-0.5166,-1.4761,20.569,56.152,-3.906,-138.917,18.858,-60.194
10631,-0.3359,-0.7314,-0.9175,20.569,56.152,-3.906,-137.62,17.65,-60.892
10641,-0.3511,-0.7271,-0.6792,23.437,-31.189,-4.089,-137.307,17.853,-60.639
10650,-0.3511,-0.7271,-0.6792,23.437,-31.189,-4.089,-137.071,18.221,-60.26
10671,-0.333,-0.6553,-0.3115,8.057,-47.363,0.793,-136.725,18.831,-59.711
10681,-0.3354,-0.6455,-0.2886,6.348,-20.386,4.944,-136.626,19.012,-59.601
10690,-0.3354,-0.6455,-0.2886,1.282,-10.071,4.272,-136.599,19.116,-59.557
10700,-0.3955,-0.6548,-0.3003,-10.437,-3.296,3.601,-136.703,19.166,-59.562
10711,-0.3867,-0.627,-0.4277,-24.841,0.183,3.967,-136.961,19.193,-59.595
10730,-0.2974,-0.5767,-0.8706,-24.841,0.183,3.967,-137.686,19.166,-59.766
10740,-0.2974,-0.5767,-0.8706,-24.841,0.183,3.967,-137.972,19.072,-59.941
10771,-0.3252,-0.6099,-1.1655,39.612,38.086,4.883,-137.708,18.463,-60.782
10780,-0.3252,-0.6099,-1.1655,50.354,37.415,4.028,-137.302,18.215,-61.078
10800,-0.2842,-0.6519,-0.855,49.866,25.879,4.822,-136.494,18.073,-61.37
10820,-0.313,-0.6743,-0.5283,14.648,-26.672,5.066,-136.016,18.463,-61.139
10840,-0.3335,-0.6646,-0.479,2.197,-19.592,3.418,-135.829,18.842,-60.864
10850,-0.3672,-0.6655,-0.4521,0.0,-12.878,3.113,-135.807,18.957,-60.793
10860,-0.3745,-0.6709,-0.478,-3.662,-7.507,3.296,-135.835,19.034,-60.76
10890,-0.3677,-0.6626,-0.623,-17.822,-4.211,5.005,-136.346,19.221,-60.787
10909,-0.3184,-0.6045,-0.8652,-19.653,2.563,5.249,-136.697,19.199,-60.947
10919,-0.2803,-0.5762,-1.04,2.991,16.479,2.93,-136.714,19.094,-61.089
10930,-0.2866,-0.5864,-1.0391,16.418,20.874,2.197,-136.61,18.957,-61.26
10940,-0.3018,-0.6021,-0.9775,16.418,20.874,2.197,-136.406,18.814,-61.425
10949,-0.3018,-0.6021,-0.9775,29.175,15.686,1.038,-136.154,18.71,-61.551
10970,-0.3374,-0.6597,-0.645,20.081,-11.658,2.38,-135.681,18.803,-61.507
10989,-0.3252,-0.6699,-0.5601,20.081,-11.658,2.38,-135.379,19.133,-61.26
10999,-0.3252,-0.6699,-0.5601,20.081,-11.658,2.38,-135.291,19.27,-61.155
11010,-0.3232,-0.6641,-0.6245,2.258,-11.292,1.221,-135.242,19.358,-61.084
11019,-0.3232,-0.6641,-0.6245,2.258,-11.292,1.221,-135.225,19.402,-61.024
11039,-0.4087,-0.6475,-0.646,-0.244,-2.502,-1.648,-135.214,19.429,-60.952
11059,-0.418,-0.667,-0.6226,2.075,1.587,0.122,-135.176,19.418,-60.952
11069,-0.3574,-0.6694,-0.6255,2.075,1.587,0.122,-135.198,19.385,-60.996
11079,-0.3354,-0.6519,-0.6489,-3.723,7.751,1.77,-135.258,19.341,-61.068
11109,-0.2617,-0.6084,-0.8706,-3.723,8.362,2.991,-135.599,19.166,-61.337
11119,-0.2979,-0.6206,-0.8823,0.183,5.31,1.587,-135.703,19.1,-61.392
11139,-0.3286,-0.6411,-0.8618,7.446,-2.991,-1.221,-135.703,19.072,-61.364
11149,-0.3701,-0.6685,-0.7285,9.155,-5.981,-0.366,-135.615,19.127,-61.315
11159,-0.3706,-0.6733,-0.646,9.827,-6.714,0.122,-135.483,19.204,-61.271
11168,-0.3706,-0.6733,-0.646,9.827,-6.714,0.122,-135.335,19.281,-61.221
11189,-0.3608,-0.6528,-0.5166,3.723,-5.493,0.183,-135.165,19.435,-61.161
11199,-0.335,-0.6382,-0.5527,-9.277,-0.183,0.183,-135.214,19.457,-61.161
11208,-0.335,-0.6382,-0.5527,-9.277,-0.183,0.183,-135.357,19.462,-61.177
11229,-0.3052,-0.6001,-0.8267,-14.526,4.883,0.244,-135.818,19.38,-61.238
11248,-0.2959,-0.6069,-0.9897,-0.366,7.141,1.343,-136.192,19.199,-61.353
11258,-0.3228,-0.6294,-0.9819,8.789,5.798,1.709,-136.23,19.133,-61.408
11269,-0.3228,-0.6294,-0.9819,8.789,5.798,1.709,-136.176,19.083,-61.441
11298,-0.3511,-0.6758,-0.6479,22.705,-6.226,0.0,-135.577,19.138,-61.381
11309,-0.3662,-0.6768,-0.5498,22.705,-6.226,0.0,-135.297,19.232,-61.315
11318,-0.3662,-0.6768,-0.5498,12.756,-9.155,0.122,-135.049,19.352,-61.249
11338,-0.3896,-0.6567,-0.4238,-4.333,-5.798,-0.61,-134.769,19.583,-61.139
11368,-0.3779,-0.6582,-0.5156,-25.085,2.441,0.0,-135.148,19.715,-61.128
11378,-0.3452,-0.6401,-0.7104,-27.039,5.066,-0.061,-135.456,19.677,-61.166
11387,-0.3203,-0.6294,-0.8145,-27.039,5.066,-0.061,-135.791,19.594,-61.227
11398,-0.2979,-0.6206,-0.9048,-18.188,10.071,0.366,-136.093,19.484,-61.304
11408,-0.293,-0.6206,-0.9556,-9.277,11.169,0.488,-136.318,19.358,-61.386
11427,-0.2964,-0.6323,-0.9521,3.052,5.615,0.305,-136.56,19.155,-61.507
11438,-0.2979,-0.6348,-0.915,8.301,1.526,-0.427,-136.566,19.1,-61.512
11448,-0.3022,-0.6401,-0.8608,11.963,-0.916,-1.404,-136.511,19.061,-61.496
11467,-0.3115,-0.6494,-0.793,11.963,-0.916,-1.404,-136.219,19.039,-61.425
11478,-0.3535,-0.6631,-0.6187,16.357,-4.272,-2.319,-136.011,19.078,-61.375
11488,-0.3838,-0.6509,-0.5278,12.39,-5.554,-2.075,-135.797,19.16,-61.32
11517,-0.4297,-0.625,-0.4375,-13.55,-9.033,-2.014,-135.549,19.578,-61.095
11528,-0.3945,-0.5942,-0.5649,-23.804,-7.751,-3.54,-135.736,19.671,-61.013
11537,-0.3945,-0.5942,-0.5649,-31.25,-5.554,-5.493,-136.06,19.698,-60.93
11557,-0.3374,-0.5771,-0.8691,-29.297,2.502,-9.033,-136.824,19.567,-60.804
11577,-0.3125,-0.6309,-0.8901,-16.357,9.949,-12.329,-137.357,19.221,-60.749
11587,-0.3037,-0.6494,-0.8467,-16.357,9.949,-12.329,-137.51,19.034,-60.716
11597,-0.2959,-0.6714,-0.7852,-10.986,4.578,-13.184,-137.615,18.88,-60.645
11627,-0.3101,-0.6836,-0.7114,-20.752,-15.259,-5.981,-137.889,18.891,-60.233
11646,-0.3335,-0.6777,-0.6025,-23.132,-18.188,-2.502,-138.148,19.16,-59.958
11657,-0.3335,-0.6777,-0.6025,-23.132,-18.188,-2.502,-138.312,19.281,-59.854
11667,-0.3286,-0.6509,-0.6641,-24.658,-11.414,1.587,-138.51,19.38,-59.788
11686,-0.3218,-0.6343,-0.7051,-19.836,-1.038,2.319,-138.933,19.44,-59.771
11707,-0.3267,-0.6455,-0.7905,-9.277,9.033,3.845,-139.257,19.347,-59.919
11726,-0.3481,-0.6543,-0.7827,-5.066,14.709,5.981,-139.46,19.215,-60.2
11737,-0.375,-0.6401,-0.7563,-7.019,14.282,5.859,-139.581,19.16,-60.342
11747,-0.3818,-0.6211,-0.752,-11.23,11.841,5.066,-139.741,19.122,-60.463
11767,-0.3799,-0.5874,-0.7451,-21.057,2.93,0.244,-140.175,19.122,-60.562
11777,-0.3711,-0.5908,-0.7559,-24.536,-1.587,-1.892,-140.427,19.138,-60.535
11787,-0.3638,-0.6035,-0.7578,-26.306,-5.31,-3.052,-140.674,19.177,-60.474
11796,-0.3638,-0.6035,-0.7578,-26.306,-5.31,-3.052,-140.933,19.226,-60.397
11816,-0.3618,-0.562,-0.8174,-28.32,-7.751,-3.418,-141.504,19.319,-60.233
11836,-0.4063,-0.498,-0.8164,-21.362,-7.629,-3.906,-142.048,19.457,-60.073
11846,-0.4121,-0.5024,-0.7905,-18.494,-6.897,-6.104,-142.251,19.517,-59.98
11856,-0.4126,-0.5342,-0.7349,-17.639,-6.958,-9.705,-142.405,19.561,-59.854
11886,-0.3428,-0.6255,-0.6567,-28.931,-1.404,-20.203,-142.817,19.44,-59.326
11896,-0.291,-0.6128,-0.7251,-32.654,1.343,-19.958,-143.053,19.286,-59.167
11926,-0.1665,-0.5313,-0.9731,-20.752,-0.61,-10.132,-143.921,18.732,-58.837
11956,-0.2026,-0.563,-0.9517,-4.089,-0.671,-8.118,-144.234,18.331,-58.601
11996,-0.2417,-0.5659,-0.9189,-17.883,3.418,-19.409,-144.783,17.628,-58.101
12015,-0.2568,-0.5732,-0.9082,-17.883,3.418,-19.409,-145.058,17.281,-57.859
12025,-0.3486,-0.6265,-0.7661,-9.033,6.775,-13.428,-145.085,17.172,-57.788
12036,-0.397,-0.6519,-0.6611,-6.653,5.127,-8.362,-145.042,17.139,-57.744
12055,-0.4609,-0.6372,-0.4883,-9.277,3.296,-2.808,-144.959,17.303,-57.766
12065,-0.4609,-0.6372,-0.4883,-9.277,3.296,-2.808,-145.069,17.419,-57.816
12076,-0.4395,-0.5054,-0.5068,-36.682,8.545,0.977,-145.349,17.496,-57.876
12105,-0.2515,-0.1865,-0.9814,-51.025,18.921,-5.554,-147.25,17.144,-58.079
12125,-0.1807,-0.1909,-1.1938,-38.147,13.428,-13.916,-148.557,16.595,-58.052
12135,-0.1611,-0.2837,-1.2266,-28.137,10.315,-19.592,-148.986,16.315,-57.931
12145,-0.1333,-0.4097,-1.2124,-19.47,8.179,-23.193,-149.255,16.024,-57.772
12165,-0.1802,-0.6201,-1.0615,-6.592,2.258,-21.667,-149.409,15.568,-57.404
12185,-0.2471,-0.6611,-0.8877,5.981,6.531,-11.292,-149.205,15.266,-57.195
12205,-0.3076,-0.6821,-0.7759,14.465,8.545,-0.732,-148.716,15.145,-57.233
12215,-0.417,-0.603,-0.5732,11.597,3.296,5.798,-148.469,15.26,-57.305
12225,-0.4624,-0.5498,-0.5054,6.104,-3.784,10.498,-148.266,15.513,-57.376
12274,-0.3169,-0.5425,-0.6221,-0.61,-57.739,40.344,-148.052,18.111,-57.431
12295,-0.3164,-0.6328,-0.7788,13.245,-50.11,47.058,-147.733,19.528,-57.667
12324,-0.2944,-0.6079,-1.0137,-11.292,-13.794,17.212,-148.211,20.099,-57.92
12335,-0.2969,-0.4063,-1.1621,-29.419,-2.075,7.874,-148.651,20.094,-57.98
12344,-0.3413,-0.3276,-1.1665,-29.419,-2.075,7.874,-149.063,20.127,-58.019
12354,-0.3848,-0.291,-1.1396,-15.564,-11.23,5.554,-149.381,20.231,-58.008
12364,-0.4141,-0.2798,-1.0781,-5.249,-15.381,3.967,-149.579,20.38,-57.958
12384,-0.4438,-0.2842,-0.981,2.38,-12.634,-2.319,-149.749,20.731,-57.805
12404,-0.5029,-0.3281,-0.6636,-10.193,-5.066,-16.846,-149.859,20.934,-57.491
12424,-0.4946,-0.3467,-0.5903,-25.33,-1.953,-24.231,-150.298,20.94,-56.986
12434,-0.4204,-0.4189,-0.5503,-25.33,-1.953,-24.231,-150.721,20.863,-56.706
12444,-0.353,-0.4668,-0.5757,-71.655,-2.441,-30.884,-151.227,20.781,-56.404
12453,-0.3213,-0.5127,-0.6191,-71.655,-2.441,-30.884,-151.787,20.737,-56.113
12464,-0.3027,-0.5425,-0.6948,-81.848,-10.62,-22.522,-152.408,20.709,-55.849
12474,-0.2725,-0.5552,-0.7842,-81.482,-9.399,-18.677,-153.056,20.654,-55.624
12493,-0.2725,-0.5552,-0.7842,-79.59,-2.014,-14.038,-154.517,20.308,-55.437
12504,-0.2046,-0.395,-1.1958,-79.59,-2.014,-14.038,-155.259,20.05,-55.459
12523,-0.2178,-0.3242,-1.2764,-32.715,23.804,-4.578,-156.363,19.396,-55.585
12544,-0.2949,-0.2656,-1.2026,-3.906,17.334,-10.742,-156.802,18.842,-55.58
12583,-0.335,-0.5024,-0.6362,-9.583,14.465,-20.508,-156.533,18.16,-55.058
12603,-0.3037,-0.5508,-0.5933,-16.968,18.066,-16.418,-156.55,17.748,-54.954
12623,-0.2661,-0.3989,-0.8965,-31.921,23.499,-3.052,-157.187,17.21,-55.179
12653,-0.2632,-0.252,-1.1411,-16.418,45.288,2.197,-158.412,15.919,-55.772
12663,-0.2788,-0.2002,-1.2031,-13.123,32.654,2.258,-158.703,15.595,-55.92
12673,-0.2788,-0.2002,-1.2031,-13.123,32.654,2.258,-158.917,15.32,-56.041
12683,-0.2759,-0.2769,-1.1162,-13.123,32.654,2.258,-159.088,15.101,-56.146
12693,-0.2842,-0.3359,-1.0332,-13.123,32.654,2.258,-159.225,14.941,-56.228
12703,-0.292,-0.3472,-0.9995,-12.695,15.625,1.587,-159.384,14.81,-56.299
12733,-0.2422,-0.3477,-0.8735,-22.583,21.973,-3.54,-160.038,14.227,-56.47
12752,-0.2261,-0.356,-0.8076,-22.583,21.973,-3.54,-160.395,13.997,-56.569
12764,-0.2373,-0.3955,-0.7251,-27.649,12.512,0.488,-160.587,13.903,-56.613
12773,-0.2373,-0.3955,-0.7251,-36.926,17.517,-2.014,-160.862,13.749,-56.656
12803,-0.1567,-0.2778,-0.938,-57.129,28.259,-2.991,-162.438,12.909,-56.871
12822,-0.165,-0.2407,-1.1235,-56.213,27.405,4.15,-163.603,12.371,-57.118
12843,-0.144,-0.2329,-1.3169,-28.748,22.827,8.179,-164.421,11.876,-57.387
12862,-0.1768,-0.2314,-1.2798,-14.587,21.851,8.24,-164.954,11.393,-57.678
12872,-0.1768,-0.2314,-1.2798,-4.578,18.555,7.263,-165.053,11.217,-57.799
12892,-0.2217,-0.2578,-1.0796,0.488,13.428,4.639,-165.114,11.008,-57.975
12912,-0.2422,-0.1763,-0.9067,-3.418,18.25,5.432,-165.256,10.75,-58.167
12942,-0.2485,-0.0747,-0.8525,-12.451,23.804,-4.272,-165.762,10.327,-58.315
12952,-0.2202,-0.0874,-0.8677,-17.761,23.315,-7.935,-166.02,10.124,-58.293
12972,-0.1807,-0.1045,-0.9243,-35.156,15.747,-14.954,-166.707,9.706,-58.118
12982,-0.0757,-0.1743,-1.1123,-43.091,11.292,-16.541,-167.151,9.503,-57.98
12992,-0.0439,-0.1885,-1.2012,-46.204,10.376,-17.517,-167.624,9.289,-57.827
13022,-0.0049,-0.2036,-1.1851,-28.381,13.489,-18.127,-168.739,8.564,-57.365
13032,0.0254,-0.2061,-1.0786,-18.188,15.32,-17.09,-168.898,8.284,-57.228
13041,0.0352,-0.1958,-0.9419,-18.188,15.32,-17.09,-168.981,8.031,-57.123
13062,0.0029,-0.0908,-0.7505,-14.16,28.992,-0.854,-169.31,7.405,-57.145
13081,-0.0376,0.0083,-0.7749,-29.663,38.635,2.625,179.385,6.636,-57.321
13091,-0.0376,0.0083,-0.7749,-37.17,46.753,3.235,178.995,6.13,-57.349
13102,-0.0317,0.0605,-1.0937,-39.246,54.565,1.526,178.583,5.548,-57.354
13111,-0.0381,0.0625,-1.2856,-39.246,54.565,1.526,178.242,4.949,-57.332
13131,-0.0796,0.0562,-1.5278,-13.489,43.945,-3.906,177.847,3.961,-57.244
13151,-0.1196,0.0303,-1.4858,15.503,22.766,-9.827,-179.154,3.428,-57.057
13161,-0.1841,-0.062,-1.2017,25.757,16.113,-11.78,-178.89,3.263,-56.942
13171,-0.1733,-0.0786,-1.0425,31.433,12.207,-12.939,-178.566,3.142,-56.816
13191,-0.1255,-0.0591,-0.8286,31.433,12.207,-12.939,-177.863,2.791,-56.508
13201,-0.0879,-0.0493,-0.7686,25.452,17.212,-18.433,-177.599,2.615,-56.327
13220,-0.0508,-0.0576,-0.731,18.188,14.648,-18.738,-177.292,2.335,-55.975
13241,-0.0278,-0.0952,-0.6191,-5.615,13.184,-15.564,-177.308,2.076,-55.668
13261,0.041,-0.1841,-0.6836,-16.052,15.93,-12.512,-177.698,1.719,-55.481
13271,0.041,-0.1841,-0.6836,-30.762,20.081,-3.967,-178.006,1.516,-55.448
13281,0.0928,-0.2192,-0.9692,-32.166,15.991,-0.488,-178.325,1.357,-55.448
13300,0.1133,-0.186,-1.3667,-23.865,22.339,7.141,-178.868,0.945,-55.563
13310,0.0879,-0.1685,-1.4897,-11.353,13.916,12.146,-178.984,0.807,-55.684
13321,0.0381,-0.168,-1.5054,5.127,5.615,17.273,-178.934,0.753,-55.86
13350,-0.0894,-0.2017,-1.271,31.128,-16.418,25.269,-178.171,1.049,-56.558
13370,-0.1123,-0.1982,-1.1772,26.611,-23.315,22.827,-177.61,1.494,-57.014
13390,-0.1235,-0.2334,-1.0298,15.991,-30.457,23.621,-177.248,2.104,-57.448
13410,-0.1313,-0.2612,-0.9751,15.991,-30.457,23.621,-177.067,2.686,-57.92
13420,-0.1357,-0.2671,-0.958,6.592,-24.658,26.489,-177.012,2.944,-58.173
13430,-0.1562,-0.27,-0.9233,7.019,-23.132,26.367,-176.951,3.186,-58.425
13450,-0.1631,-0.2646,-0.876,7.019,-23.132,26.367,-176.885,3.582,-58.914
13460,-0.165,-0.27,-0.8154,0.793,-15.076,24.719,-176.891,3.746,-59.15
13470,-0.1694,-0.2744,-0.769,-4.639,-8.423,26.55,-176.957,3.845,-59.414
13500,-0.1846,-0.2881,-0.7637,-4.639,-8.423,26.55,-177.44,4.224,-60.298
13510,-0.2031,-0.2988,-0.8057,-13.855,-24.109,31.189,-177.599,4.477,-60.601
13540,-0.2207,-0.269,-0.9946,-3.784,-27.588,29.297,-177.852,5.383,-61.501
13570,-0.1777,-0.1943,-1.2769,-3.784,-27.588,29.297,-177.852,6.042,-62.133
13580,-0.1489,-0.1816,-1.376,13.733,-15.747,13.428,-177.731,6.207,-62.26
13589,-0.1489,-0.1816,-1.376,13.733,-15.747,13.428,-177.501,6.372,-62.369
13610,-0.0962,-0.1621,-1.5171,34.546,-21.057,10.498,-176.721,6.85,-62.556
13629,-0.0669,-0.1934,-1.4453,70.801,-26.428,11.658,-175.452,7.377,-62.748
13649,-0.104,-0.2622,-1.1958,88.806,-29.968,11.23,-173.776,7.976,-62.924
13669,-0.1094,-0.2939,-1.0366,92.407,-25.696,12.451,-171.953,8.553,-63.1
13679,-0.165,-0.2891,-0.7446,86.609,-21.423,12.939,-171.101,8.784,-63.199
13689,-0.1665,-0.2549,-0.6572,76.172,-16.663,11.414,-170.354,8.965,-63.287
13719,-0.1567,-0.1616,-0.6191,32.959,2.869,-3.784,-168.915,9.08,-63.336
13739,-0.1431,-0.1597,-0.6343,19.043,9.766,-11.292,-168.624,8.778,-63.094
13759,-0.1431,-0.1597,-0.6343,19.043,9.766,-11.292,-168.788,8.394,-62.655
13778,0.0117,-0.2344,-1.0215,-30.151,26.367,-24.536,-169.277,7.85,-62.232
13789,0.0469,-0.2764,-1.1318,-28.259,35.767,-20.508,-169.541,7.46,-62.095
13829,0.019,-0.3774,-1.2778,6.165,23.682,13.916,-169.948,6.323,-62.276
13839,-0.0142,-0.4126,-1.2339,22.827,19.958,24.353,-169.75,6.169,-62.556
13848,-0.0142,-0.4126,-1.2339,22.827,19.958,24.353,-169.426,6.081,-62.908
13869,-0.165,-0.4282,-1.0146,49.561,9.644,37.659,-168.382,5.993,-63.715
13888,-0.2104,-0.4175,-0.9326,66.04,12.573,38.635,-167.108,5.894,-64.501
13909,-0.291,-0.397,-0.7695,66.04,12.573,38.635,-165.905,5.696,-65.27
13928,-0.3423,-0.3628,-0.6572,51.941,19.226,35.4,-165.053,5.521,-66.05
13938,-0.3989,-0.3823,-0.5986,51.941,19.226,35.4,-164.811,5.455,-66.412
13948,-0.4019,-0.4155,-0.6045,16.357,18.25,30.396,-164.68,5.361,-66.758
13968,-0.3857,-0.4492,-0.6274,-11.841,15.198,22.034,-164.828,5.169,-67.313
13978,-0.3271,-0.4536,-0.7305,-11.841,15.198,22.034,-165.097,5.131,-67.527
13988,-0.2842,-0.4336,-0.8076,-28.931,15.442,20.813,-165.41,5.037,-67.769
14018,-0.186,-0.3262,-1.0752,-28.931,19.043,25.879,-166.371,4.752,-68.615
14038,-0.1528,-0.3306,-1.1411,-16.479,14.404,27.283,-166.833,4.581,-69.208
14048,-0.1528,-0.3306,-1.1411,-16.479,14.404,27.283,-166.959,4.515,-69.505
14058,-0.1211,-0.3271,-1.2256,-2.502,16.602,24.963,-167.009,4.411,-69.785
14088,-0.1333,-0.3716,-1.1309,4.333,16.052,20.63,-166.871,4.131,-70.499
14098,-0.1387,-0.3721,-1.1064,19.592,30.396,19.348,-166.696,3.878,-70.757
14128,-0.0308,-0.4131,-1.0352,28.992,30.762,11.78,-165.663,3.005,-71.4
14138,-0.0347,-0.4146,-1.0112,30.579,26.123,9.766,-165.289,2.769,-71.559
14168,-0.0469,-0.4102,-0.9185,30.579,26.123,9.766,-164.064,2.324,-71.944
14187,-0.0635,-0.4043,-0.8843,27.161,2.991,9.399,-163.339,2.318,-72.153
14197,-0.1011,-0.3853,-0.8437,24.475,-0.854,9.399,-163.026,2.39,-72.241
14208,-0.1191,-0.3794,-0.8203,21.79,-4.15,8.667,-162.735,2.505,-72.312
14237,-0.1782,-0.4248,-0.7725,12.268,-9.399,3.479,-161.96,3.005,-72.383
14247,-0.1899,-0.4409,-0.7646,5.737,-7.813,2.197,-161.785,3.181,-72.378
14258,-0.1899,-0.4409,-0.7646,-3.052,-5.432,1.099,-161.691,3.323,-72.372
14277,-0.1899,-0.4409,-0.7646,-16.907,-0.671,-0.916,-161.752,3.483,-72.35
14287,-0.1392,-0.4702,-0.9297,-22.156,1.099,-1.16,-161.884,3.51,-72.345
14297,-0.1392,-0.4702,-0.9297,-22.156,1.099,-1.16,-162.054,3.505,-72.339
14307,-0.1392,-0.4702,-0.9297,-21.973,3.479,-0.977,-162.219,3.466,-72.339
14317,-0.0293,-0.458,-1.1704,-16.846,5.005,0.061,-162.35,3.4,-72.356
14337,-0.0156,-0.4478,-1.2168,2.136,5.005,5.249,-162.378,3.274,-72.46
14347,-0.0337,-0.4248,-1.2075,13.611,4.639,6.958,-162.23,3.235,-72.543
14357,-0.0635,-0.4229,-1.1572,24.17,4.028,7.751,-161.971,3.219,-72.631
14387,-0.1665,-0.4155,-0.8921,24.17,4.028,7.751,-160.801,3.34,-72.784
14416,-0.2705,-0.4204,-0.6665,37.903,-4.15,-0.122,-159.406,4.021,-72.68
14427,-0.3242,-0.4277,-0.5391,16.785,-12.817,-1.831,-159.06,4.345,-72.62
14446,-0.2847,-0.4146,-0.5781,1.404,-10.193,-2.686,-158.961,4.686,-72.504
14467,0.0015,-0.3579,-0.9854,-30.334,16.785,-8.972,-159.516,4.329,-72.438
14477,0.0371,-0.3506,-1.0898,-30.334,16.785,-8.972,-159.785,4.087,-72.444
14486,0.0488,-0.3428,-1.1558,-13.855,16.479,-0.61,-159.961,3.867,-72.499
14496,0.0479,-0.3643,-1.2061,-1.77,18.188,6.287,-160.021,3.658,-72.62
14507,0.0674,-0.4058,-1.231,10.132,18.372,14.648,-159.95,3.472,-72.817
14536,0.0674,-0.4058,-1.231,10.132,18.372,14.648,-159.362,3.318,-73.521
14556,-0.042,-0.4185,-1.0532,11.841,-1.221,6.287,-159.049,3.373,-73.691
14566,-0.1138,-0.4014,-0.9146,4.944,-5.005,1.709,-158.972,3.455,-73.685
14576,-0.1514,-0.3833,-0.8442,-2.808,-7.568,-2.258,-158.967,3.576,-73.641
14596,-0.1821,-0.3633,-0.7651,-15.076,-12.939,-0.916,-159.11,3.933,-73.515
14606,-0.1831,-0.3447,-0.7769,-17.883,-13.367,2.869,-159.258,4.147,-73.493
14616,-0.1421,-0.356,-0.8296,-18.494,-10.62,5.432,-159.417,4.312,-73.51
14625,-0.1421,-0.356,-0.8296,-16.602,-9.644,8.362,-159.56,4.46,-73.553
14646,-0.0903,-0.3726,-0.9932,-16.602,-9.644,8.362,-159.829,4.675,-73.691
14656,-0.0581,-0.3618,-1.1304,-4.517,-10.132,7.568,-159.901,4.774,-73.729
14675,-0.0884,-0.3979,-1.1431,5.798,-15.076,-6.958,-159.846,4.999,-73.575
14686,-0.1099,-0.4326,-1.0918,9.033,-16.052,-13.672,-159.725,5.103,-73.389
14705,-0.1587,-0.4556,-1.0093,4.272,-19.897,-20.203,-159.467,5.405,-72.905
14726,-0.2627,-0.46,-0.7559,0.549,-27.405,-17.883,-159.214,5.905,-72.361
14766,-0.2446,-0.418,-0.7607,-22.949,-23.254,-12.878,-159.044,7.405,-71.439
14775,-0.2446,-0.418,-0.7607,-22.949,-23.254,-12.878,-159.285,7.438,-71.246
14785,-0.0098,-0.3696,-1.1113,-28.625,-3.845,-18.188,-159.565,7.339,-71.06
14795,0.0566,-0.3481,-1.2803,-22.705,-2.869,-17.761,-159.824,7.207,-70.884
14815,0.042,-0.3486,-1.3633,-22.705,-2.869,-17.761,-159.988,7.015,-70.604
14825,-0.0103,-0.377,-1.2935,16.235,-10.376,-6.531,-159.851,7.026,-70.505
14835,-0.0796,-0.4072,-1.1743,26.794,-15.198,-3.235,-159.587,7.119,-70.422
14865,-0.2354,-0.4604,-0.7852,33.142,-20.325,-4.089,-158.379,7.751,-70.12
14875,-0.2559,-0.4697,-0.7002,28.625,-18.555,-4.761,-157.956,7.998,-70.005
14895,-0.2593,-0.5098,-0.6147,16.296,-10.315,-5.249,-157.203,8.388,-69.807
14924,-0.1514,-0.5625,-0.7251,-0.488,11.719,-0.061,-156.698,8.278,-69.785
14945,-0.0186,-0.4902,-1.0518,8.972,19.531,12.451,-156.55,7.899,-70.109
14964,-0.0049,-0.4102,-1.2012,8.972,19.531,12.451,-156.242,7.504,-70.576
14974,-0.0454,-0.3657,-1.1987,8.972,19.531,12.451,-156.0,7.35,-70.801
14985,-0.1021,-0.3315,-1.1431,43.396,14.709,13.794,-155.671,7.245,-70.988
14994,-0.1021,-0.3315,-1.1431,43.396,14.709,13.794,-155.297,7.229,-71.12
15014,-0.2593,-0.2852,-0.875,37.72,-6.409,3.418,-154.633,7.449,-71.202
15025,-0.293,-0.3022,-0.792,26.489,-14.343,-0.244,-154.407,7.69,-71.136
15054,-0.3374,-0.3545,-0.6563,-16.052,-22.644,-10.803,-154.33,8.663,-70.659
15074,-0.3208,-0.4463,-0.6147,-35.278,-16.052,-17.09,-154.693,9.157,-70.214
15094,-0.2339,-0.4902,-0.7651,-43.213,-3.845,-19.409,-155.275,9.272,-69.796
15124,-0.127,-0.458,-0.9966,-36.56,5.127,-18.555,-156.379,8.877,-69.313
15134,-0.0425,-0.4321,-1.1729,-28.32,4.333,-16.846,-156.671,8.701,-69.175
15143,-0.0425,-0.4321,-1.1729,-17.639,1.038,-14.221,-156.863,8.569,-69.049
15164,-0.0854,-0.4678,-1.125,0.549,-7.996,-8.972,-156.923,8.487,-68.813
15183,-0.1182,-0.4873,-1.0552,5.859,-14.771,-4.883,-156.731,8.646,-68.599
15204,-0.186,-0.5039,-0.835,3.845,-16.052,-1.16,-156.478,8.954,-68.428
15223,-0.1938,-0.4912,-0.7939,3.845,-16.052,-1.16,-156.275,9.261,-68.351
15244,-0.1626,-0.4541,-0.8062,-3.357,-4.272,1.526,-156.187,9.421,-68.335
15254,-0.1367,-0.439,-0.8521,-5.981,-1.587,0.366,-156.215,9.426,-68.335
15274,-0.0786,-0.3936,-0.9712,-8.423,1.465,-1.404,-156.39,9.316,-68.318
15293,-0.0654,-0.3804,-1.0049,-3.967,-0.305,-1.526,-156.555,9.179,-68.297
15313,-0.0645,-0.3726,-1.0498,2.075,-1.282,-4.028,-156.616,9.058,-68.225
15343,-0.0781,-0.4146,-1.0474,2.075,-1.282,-4.028,-156.467,8.822,-68.016
15363,-0.0981,-0.4326,-1.0225,7.324,2.38,-14.282,-156.264,8.619,-67.797
15383,-0.1768,-0.4878,-0.8911,-5.554,0.488,-23.132,-156.165,8.443,-67.429
15423,-0.3071,-0.4067,-0.6851,-43.091,-7.69,-41.565,-156.879,8.35,-65.945
15433,-0.2881,-0.3799,-0.6934,-41.992,-6.47,-33.936,-157.192,8.394,-65.605
15442,-0.2881,-0.3799,-0.6934,-32.104,-4.822,-22.339,-157.423,8.443,-65.374
15453,-0.2129,-0.4087,-0.7949,-32.104,-4.822,-22.339,-157.538,8.476,-65.259
15463,-0.145,-0.4453,-0.8911,-5.249,-0.488,-2.258,-157.549,8.47,-65.237
15482,-0.0166,-0.4751,-1.1255,-5.249,-0.488,-2.258,-157.445,8.355,-65.374
15493,-0.0166,-0.4751,-1.1255,7.935,3.418,7.263,-157.39,8.267,-65.457
15502,0.0,-0.4341,-1.2456,8.24,1.892,3.662,-157.352,8.179,-65.5
15512,0.0,-0.4341,-1.2456,8.24,1.892,3.662,-157.308,8.124,-65.495
15533,-0.1372,-0.3574,-1.0747,17.944,-6.287,-3.174,-157.094,8.146,-65.407
15552,-0.1958,-0.3511,-0.9546,17.944,-6.287,-3.174,-156.627,8.377,-65.27
15562,-0.1958,-0.3511,-0.9546,23.743,-8.606,-3.967,-156.357,8.536,-65.198
15573,-0.293,-0.3872,-0.6699,17.7,-6.836,-5.493,-156.11,8.701,-65.121
15592,-0.2891,-0.4292,-0.6353,-1.953,-2.869,-8.24,-155.792,8.91,-64.94
15602,-0.21,-0.4849,-0.6865,-13.184,-1.892,-6.531,-155.797,8.954,-64.874
15622,-0.1621,-0.4668,-0.7769,-21.545,-1.282,-4.15,-156.16,8.921,-64.803
15642,-0.0078,-0.3813,-1.1621,-22.705,-1.587,1.831,-156.714,8.789,-64.808
15662,-0.0103,-0.355,-1.2178,-7.202,-7.263,3.235,-157.094,8.773,-64.825
15672,-0.0103,-0.355,-1.2178,2.258,-8.423,2.136,-157.132,8.811,-64.814
15682,-0.126,-0.3784,-1.146,11.23,-8.362,1.587,-157.066,8.86,-64.797
15712,-0.2407,-0.4507,-0.9004,24.17,-6.592,1.648,-156.396,9.124,-64.759
15722,-0.2705,-0.457,-0.8296,22.095,-5.737,1.709,-156.121,9.25,-64.753
15741,-0.2964,-0.46,-0.7256,6.775,-2.991,0.366,-155.742,9.503,-64.737
15762,-0.2983,-0.4556,-0.6938,-15.869,-4.456,-2.136,-155.748,9.767,-64.682
15792,-0.1665,-0.4004,-0.9111,-41.443,3.418,-8.789,-156.671,9.811,-64.501
15811,-0.1089,-0.3813,-1.0254,-39.368,3.845,-9.521,-157.538,9.553,-64.352
15821,-0.0425,-0.3418,-1.1763,-32.471,1.343,-7.751,-157.906,9.437,-64.287
15851,-0.0654,-0.3521,-1.1709,-0.916,-6.958,-6.897,-158.401,9.283,-64.061
15861,-0.0654,-0.3521,-1.1709,5.005,-7.751,-9.155,-158.351,9.272,-63.946
15881,-0.1108,-0.4326,-1.0288,2.93,-8.728,-15.076,-158.154,9.278,-63.627
15891,-0.1782,-0.5083,-0.853,2.93,-8.728,-15.076,-158.066,9.3,-63.413
15901,-0.2217,-0.5,-0.7573,-14.832,-9.155,-22.522,-158.06,9.344,-63.171
15911,-0.2725,-0.4521,-0.688,-25.391,-8.423,-23.315,-158.154,9.426,-62.919
15941,-0.2827,-0.3442,-0.6646,-10.986,-2.808,-0.244,-158.522,9.816,-62.573
15971,-0.1245,-0.3931,-0.9272,7.324,2.38,16.174,-158.329,9.954,-63.012
16011,-0.0269,-0.3145,-1.2344,-5.737,7.324,-3.54,-158.582,9.355,-63.386
16030,-0.0703,-0.2871,-1.2202,-5.737,7.324,-3.54,-158.763,9.179,-63.237
16051,-0.1685,-0.3345,-1.0396,13.55,-5.615,-8.85,-158.621,9.174,-63.029
16070,-0.1963,-0.3711,-0.9556,13.55,-5.615,-8.85,-158.214,9.283,-62.858
16080,-0.2324,-0.4268,-0.8296,18.799,-4.578,-4.639,-157.961,9.36,-62.798
16091,-0.2373,-0.4609,-0.7803,16.541,-3.54,-3.479,-157.709,9.432,-62.748
16120,-0.2373,-0.5034,-0.7432,-6.104,-1.343,-3.479,-157.253,9.602,-62.639
16131,-0.2163,-0.5142,-0.7671,-17.639,-1.892,-4.944,-157.308,9.635,-62.589
16140,-0.2163,-0.5142,-0.7671,-17.639,-1.892,-4.944,-157.5,9.657,-62.512
16160,-0.1489,-0.3823,-0.9551,-47.241,-1.343,-9.521,-158.286,9.619,-62.32
16180,-0.082,-0.2617,-1.1304,-36.987,3.357,-4.639,-159.236,9.437,-62.221
16200,-0.0591,-0.2231,-1.2041,-3.784,1.526,3.906,-159.686,9.272,-62.276
16220,-0.1318,-0.2925,-1.0908,12.634,0.854,4.272,-159.478,9.207,-62.336
16230,-0.1675,-0.3281,-1.0005,24.841,-0.854,-1.038,-159.252,9.212,-62.325
16250,-0.2305,-0.3813,-0.8228,15.076,-4.089,-6.47,-158.829,9.311,-62.205
16270,-0.2222,-0.3843,-0.79,0.0,-4.639,-9.46,-158.615,9.443,-61.996
16289,-0.187,-0.3804,-0.8208,0.0,-4.639,-9.46,-158.67,9.443,-61.798
16310,-0.0918,-0.3931,-0.9722,-7.568,1.343,-5.554,-158.78,9.322,-61.672
16329,-0.0874,-0.3989,-1.001,-5.249,3.357,-4.578,-158.873,9.141,-61.611
16339,-0.1172,-0.3862,-1.022,-5.005,3.174,-4.578,-158.923,9.069,-61.578
16350,-0.1069,-0.3516,-1.0522,-5.859,3.784,-4.395,-159.005,8.981,-61.551
16359,-0.1069,-0.3516,-1.0522,-6.409,5.859,-5.249,-159.12,8.855,-61.523
16369,-0.1069,-0.3516,-1.0522,-4.639,10.559,-8.484,-159.263,8.641,-61.479
16379,0.062,-0.2085,-1.4072,-1.465,18.982,-14.587,-159.39,8.3,-61.408
16419,-0.0659,-0.4126,-1.0332,42.236,27.283,-30.884,-158.582,6.427,-60.749
16439,-0.3442,-0.5293,-0.4941,46.204,10.498,-23.01,-157.275,6.207,-60.397
16459,-0.458,-0.6226,-0.2144,15.137,-12.756,-6.531,-155.885,6.779,-60.123
16479,-0.2979,-0.5063,-0.457,-6.714,-19.714,3.601,-155.627,7.608,-60.112
16489,-0.2979,-0.5063,-0.457,-52.856,-13.367,18.005,-156.116,7.861,-60.222
16508,-0.0811,-0.2705,-0.9492,-51.697,7.324,13.184,-157.462,7.844,-60.518
16519,-0.0811,-0.2705,-0.9492,-51.697,7.324,13.184,-158.022,7.652,-60.672
16529,-0.0029,-0.1079,-1.3052,-21.79,16.418,8.728,-158.428,7.454,-60.82
16559,-0.1562,-0.3013,-1.0576,-21.79,16.418,8.728,-158.494,6.993,-60.963
16569,-0.1816,-0.3696,-0.9565,11.78,-0.732,-7.996,-158.373,6.998,-60.886
16599,-0.1743,-0.4526,-0.8706,-6.47,-20.447,-13.123,-158.329,7.493,-60.331
16609,-0.1426,-0.4648,-0.8926,-16.907,-23.56,-10.193,-158.417,7.679,-60.15
16638,-0.1367,-0.4478,-0.937,-8.057,-14.282,4.883,-158.604,8.146,-59.919
16658,-0.1426,-0.4194,-0.9482,2.991,-1.343,13.123,-158.599,8.295,-60.106
16678,-0.0908,-0.3433,-1.0703,5.676,7.446,8.972,-158.582,8.19,-60.348
16708,-0.0684,-0.2866,-1.1172,2.136,-0.61,-0.61,-158.725,8.009,-60.469
16718,-0.0859,-0.2314,-1.1133,3.906,-3.723,-3.54,-158.774,7.993,-60.425
16768,-0.1289,-0.2725,-0.9453,40.771,8.423,8.301,-157.83,7.861,-60.463
16778,-0.1548,-0.4199,-0.8799,40.771,8.423,8.301,-157.39,7.828,-60.612
16788,-0.1841,-0.5176,-0.8062,39.49,9.766,13.794,-156.918,7.817,-60.782
16807,-0.2222,-0.5532,-0.7568,28.381,5.31,16.663,-156.275,8.031,-61.155
16828,-0.248,-0.4961,-0.6992,-4.517,-8.606,32.959,-156.088,8.542,-61.666
16858,-0.1357,-0.3945,-0.9282,-8.789,-10.315,34.79,-156.44,9.261,-62.452
16877,-0.0952,-0.3706,-1.02,-20.081,-5.188,17.944,-156.978,9.432,-62.798
16898,-0.0547,-0.3232,-1.1816,-13.794,-0.671,5.493,-157.495,9.393,-62.952
16917,-0.1113,-0.3657,-1.1201,-6.836,-7.263,-4.395,-157.687,9.415,-62.864
16967,-0.2139,-0.4463,-0.8164,-20.63,-8.667,-8.667,-158.121,9.921,-62.314
16977,-0.1978,-0.4409,-0.8291,-24.048,-2.441,-5.92,-158.286,9.937,-62.249
17007,-0.125,-0.4077,-0.9048,-34.973,-0.732,0.549,-159.0,9.954,-62.199
17017,-0.064,-0.3809,-1.021,-40.039,1.526,0.916,-159.406,9.877,-62.21
17037,-0.0005,-0.252,-1.2085,-40.039,1.526,0.916,-160.367,9.641,-62.292
17047,-0.0449,-0.1973,-1.2275,-28.87,4.395,5.554,-160.768,9.542,-62.358
17067,-0.1455,-0.1787,-1.1504,2.747,6.104,6.531,-161.115,9.415,-62.529
17077,-0.1455,-0.1787,-1.1504,2.747,6.104,6.531,-161.043,9.344,-62.589
17087,-0.1797,-0.2881,-1.0034,17.395,5.493,1.404,-160.906,9.3,-62.622
17106,-0.2085,-0.3271,-0.9058,8.545,0.305,-2.747,-160.675,9.322,-62.6
17117,-0.2012,-0.332,-0.8984,3.052,1.526,-5.615,-160.631,9.311,-62.551
17127,-0.2007,-0.3325,-0.8911,-0.183,2.38,-6.348,-160.609,9.294,-62.496
17136,-0.2007,-0.3325,-0.8911,-0.183,2.38,-6.348,-160.609,9.289,-62.457
17146,-0.2007,-0.3325,-0.8911,1.831,3.296,-2.38,-160.598,9.261,-62.446
17157,-0.1626,-0.3301,-0.9463,1.831,3.296,-2.38,-160.554,9.229,-62.463
17176,-0.1724,-0.3398,-0.9463,6.287,0.549,3.723,-160.455,9.223,-62.534
17186,-0.1724,-0.3398,-0.9463,6.287,0.549,3.723,-160.439,9.196,-62.562
17197,-0.1509,-0.3022,-1.0527,5.066,3.357,0.122,-160.422,9.152,-62.573
17206,-0.1509,-0.3022,-1.0527,5.066,3.357,0.122,-160.428,9.091,-62.567
17226,-0.1372,-0.2925,-1.083,8.423,-3.296,-7.385,-160.351,9.031,-62.441
17237,-0.1694,-0.2886,-1.0723,12.39,-9.583,-9.216,-160.258,9.086,-62.32
17247,-0.1978,-0.3008,-1.02,12.39,-9.583,-9.216,-160.093,9.179,-62.177
17266,-0.2505,-0.3657,-0.8931,25.208,-12.573,-10.742,-159.565,9.426,-61.88
17286,-0.2637,-0.394,-0.8301,23.56,-14.832,-7.874,-159.0,9.822,-61.639
17306,-0.2046,-0.3838,-0.8745,4.333,-18.188,0.61,-158.73,10.256,-61.479
17336,-0.0835,-0.3379,-1.0869,-0.183,-10.315,10.681,-158.835,10.519,-61.567
17346,-0.0903,-0.3398,-1.1025,7.08,-10.559,13.0,-158.824,10.602,-61.65
17366,-0.1548,-0.353,-1.0366,12.695,-12.573,14.832,-158.621,10.86,-61.831
17376,-0.1753,-0.3701,-0.9917,17.7,-10.315,10.742,-158.467,10.981,-61.897
17386,-0.1919,-0.374,-0.9438,12.878,-9.46,7.935,-158.346,11.091,-61.935
17395,-0.2114,-0.3711,-0.8882,6.836,-8.362,4.211,-158.269,11.201,-61.941
17416,-0.2266,-0.3501,-0.8247,-5.493,-4.272,-2.991,-158.302,11.354,-61.87
17435,-0.2178,-0.3696,-0.8257,-7.813,-1.892,-3.906,-158.423,11.387,-61.798
17456,-0.1626,-0.3882,-0.9219,-12.329,1.465,-2.625,-158.626,11.299,-61.765
17475,-0.1812,-0.3887,-0.9243,-17.395,1.221,-5.676,-158.912,11.245,-61.683
17485,-0.1772,-0.3687,-0.9453,-17.395,1.221,-5.676,-159.104,11.19,-61.611
17505,-0.1636,-0.354,-0.9546,-23.254,0.488,-6.287,-159.554,11.124,-61.523
17525,-0.1909,-0.3726,-0.936,-19.165,-2.991,0.183,-159.895,11.184,-61.54
17545,-0.21,-0.3774,-0.9092,-19.165,-2.991,0.183,-160.137,11.36,-61.705
17565,-0.2559,-0.3447,-0.8472,-12.451,-5.371,14.709,-160.362,11.667,-61.974
17595,-0.0649,-0.2046,-1.2622,-14.709,3.174,15.442,-161.087,11.607,-62.43
17635,-0.2603,-0.2856,-1.0679,2.869,-8.85,0.122,-161.521,11.684,-62.567
17645,-0.3101,-0.3252,-0.9243,0.122,-9.521,-3.418,-161.499,11.821,-62.507
17654,-0.3408,-0.3667,-0.7915,0.122,-9.521,-3.418,-161.455,11.981,-62.424
17675,-0.3574,-0.3813,-0.7251,-12.329,-1.282,-7.202,-161.444,12.206,-62.265
17694,-0.2593,-0.3623,-0.812,-11.047,7.751,-2.136,-161.603,12.112,-62.232
17704,-0.1582,-0.3159,-1.02,-6.531,10.376,1.038,-161.691,11.981,-62.276
17724,-0.1411,-0.2803,-1.0825,-1.404,10.132,5.005,-161.752,11.739,-62.457
17784,-0.2217,-0.2964,-0.9575,-7.69,-2.197,-7.813,-161.603,11.552,-62.49
17804,-0.2124,-0.2793,-0.9438,-10.315,-2.319,-8.789,-161.785,11.563,-62.314
17814,-0.2461,-0.2988,-0.8872,-4.089,-1.404,-5.615,-161.812,11.591,-62.254
17824,-0.2461,-0.2988,-0.8872,1.038,0.183,-2.686,-161.768,11.618,-62.232
17844,-0.2568,-0.3457,-0.8301,4.15,0.732,0.244,-161.625,11.667,-62.265
17854,-0.1865,-0.3369,-0.918,0.549,6.226,1.465,-161.609,11.602,-62.298
17864,-0.1538,-0.3032,-1.0024,-4.7,7.996,0.183,-161.675,11.497,-62.325
17873,-0.1538,-0.3032,-1.0024,-4.7,7.996,0.183,-161.812,11.36,-62.353
17884,-0.1538,-0.3032,-1.0024,-4.7,7.996,0.183,-161.949,11.212,-62.375
17894,-0.0962,-0.2104,-1.2417,-1.465,6.653,-2.258,-162.048,11.074,-62.369
17913,-0.0962,-0.2104,-1.2417,6.165,1.343,-5.676,-162.059,10.898,-62.298
17924,-0.2051,-0.2915,-1.0308,6.958,-2.075,-6.287,-161.999,10.898,-62.227
17934,-0.2432,-0.3047,-0.9263,8.057,-3.967,-6.592,-161.906,10.948,-62.15
17953,-0.2563,-0.3047,-0.8809,10.376,-0.488,-6.226,-161.669,11.019,-62.018
17974,-0.1851,-0.3076,-0.9878,9.399,5.676,-7.446,-161.461,10.898,-61.908
17993,-0.1836,-0.3037,-0.9995,9.399,5.676,-7.446,-161.312,10.756,-61.782
18003,-0.252,-0.3296,-0.8896,9.583,0.916,-6.287,-161.191,10.767,-61.727
18014,-0.2793,-0.356,-0.813,13.123,-0.549,-3.54,-161.01,10.827,-61.688
18033,-0.2944,-0.4458,-0.6987,13.123,-0.549,-3.54,-160.499,10.997,-61.655
18043,-0.2861,-0.4424,-0.7065,6.348,-1.16,-0.305,-160.307,11.085,-61.65
18063,-0.1333,-0.3574,-0.9795,-2.563,2.075,-0.61,-160.356,10.975,-61.655
18073,-0.0708,-0.2808,-1.1421,-12.085,10.681,-1.16,-160.538,10.794,-61.683
18083,-0.0278,-0.2075,-1.2646,-7.08,11.597,1.404,-160.719,10.596,-61.732
18093,-0.0259,-0.1626,-1.3311,-7.08,11.597,1.404,-160.796,10.415,-61.798
18113,-0.1313,-0.2622,-1.1646,23.926,7.813,3.601,-160.356,10.223,-61.919
18123,-0.2158,-0.353,-0.9644,49.5,-1.77,6.958,-159.873,10.278,-61.979
18143,-0.2939,-0.4282,-0.7798,49.5,-1.77,6.958,-158.752,10.64,-62.067
18153,-0.3384,-0.501,-0.5571,27.283,-6.104,4.456,-158.28,10.849,-62.084
18163,-0.3286,-0.5127,-0.5332,10.742,-5.432,2.502,-157.95,11.041,-62.089
18193,-0.1675,-0.4224,-0.8101,-27.588,4.639,-2.197,-158.132,11.146,-62.056
18212,-0.1675,-0.3901,-0.8555,-30.64,5.493,0.0,-158.676,11.074,-62.122
18223,-0.2051,-0.3662,-0.8657,-25.269,2.075,6.165,-158.923,11.091,-62.188
18233,-0.1338,-0.3335,-0.9907,-24.17,4.456,7.019,-159.203,11.036,-62.271
18243,-0.0425,-0.2974,-1.1738,-25.391,11.536,5.554,-159.538,10.854,-62.364
18263,0.0396,-0.1758,-1.4634,-23.56,13.184,5.005,-160.313,10.377,-62.562
18282,-0.0049,-0.1426,-1.4746,4.272,6.409,5.188,-160.692,10.085,-62.715
18302,-0.0049,-0.1426,-1.4746,4.272,6.409,5.188,-160.334,10.063,-62.825
18342,-0.3076,-0.4458,-0.6396,11.475,-0.305,2.686,-159.044,10.552,-62.93
18353,-0.29,-0.4438,-0.666,1.282,2.319,2.258,-158.906,10.635,-62.957
18362,-0.29,-0.4438,-0.666,-9.399,5.188,1.465,-158.945,10.635,-62.99
18372,-0.1597,-0.3433,-0.9126,-17.883,8.179,0.366,-159.131,10.547,-63.023
18412,-0.1006,-0.2549,-1.1797,3.296,5.31,-0.061,-159.895,10.102,-63.122
18442,-0.1187,-0.2876,-1.1519,13.306,0.549,0.244,-159.681,9.987,-63.149
18452,-0.1963,-0.3511,-0.9683,13.977,1.221,0.183,-159.549,9.987,-63.155
18471,-0.2148,-0.3633,-0.9155,11.23,3.052,0.427,-159.274,9.992,-63.182
18482,-0.2026,-0.3774,-0.8809,8.057,3.418,0.854,-159.175,9.981,-63.199
18492,-0.1982,-0.3696,-0.8867,4.761,3.174,1.16,-159.115,9.976,-63.226
18511,-0.1689,-0.3457,-0.9575,4.761,3.174,1.16,-159.088,9.948,-63.281
18522,-0.1655,-0.3394,-0.9722,2.38,1.587,3.723,-159.088,9.937,-63.32
18532,-0.1821,-0.3364,-0.9727,3.601,0.488,4.822,-159.077,9.954,-63.369
18541,-0.1821,-0.3364,-0.9727,4.883,0.671,5.249,-159.06,9.965,-63.424
18562,-0.187,-0.3242,-0.9697,5.676,1.465,3.906,-159.016,9.981,-63.512
18581,-0.1802,-0.3081,-0.9819,4.7,2.136,0.427,-159.005,9.943,-63.556
18591,-0.168,-0.3047,-1.0029,2.747,0.671,-1.465,-159.016,9.926,-63.545
18602,-0.1748,-0.3086,-0.9976,2.014,-0.61,-2.747,-159.027,9.915,-63.517
18631,-0.1938,-0.3584,-0.9302,1.648,-2.93,-4.333,-158.983,9.937,-63.369
18641,-0.1953,-0.3716,-0.9111,0.549,-2.808,-3.967,-158.961,9.965,-63.325
18661,-0.1841,-0.3833,-0.9146,-2.686,-1.343,-3.723,-158.945,9.981,-63.237
18671,-0.1855,-0.3799,-0.9185,-3.723,-0.488,-2.991,-158.967,9.981,-63.21
18681,-0.1787,-0.3809,-0.9331,-3.479,0.671,-2.197,-158.983,9.97,-63.188
18691,-0.1787,-0.3809,-0.9331,-2.991,1.343,-1.709,-159.005,9.937,-63.177
18711,-0.1226,-0.3462,-1.0566,-3.967,2.197,-1.465,-159.115,9.833,-63.166
18731,-0.1089,-0.3237,-1.0908,0.122,1.16,-1.16,-159.241,9.706,-63.149
18751,-0.1572,-0.355,-1.022,8.85,-1.831,0.061,-159.159,9.673,-63.138
18770,-0.2153,-0.3877,-0.8716,11.047,-3.418,1.892,-158.912,9.789,-63.144
18781,-0.2378,-0.3999,-0.8071,11.047,-3.418,1.892,-158.752,9.877,-63.16
18791,-0.249,-0.4033,-0.771,8.179,-1.587,3.418,-158.615,9.965,-63.188
18821,-0.1802,-0.3384,-0.8936,-5.798,3.906,2.014,-158.593,10.031,-63.287
18840,-0.1353,-0.3159,-0.9937,-4.456,4.944,2.258,-158.813,9.882,-63.364
18850,-0.0879,-0.2866,-1.144,-0.854,3.845,2.197,-158.901,9.794,-63.397
18861,-0.0942,-0.291,-1.1528,2.869,2.075,1.953,-158.945,9.728,-63.424
18880,-0.1421,-0.3271,-1.0728,2.869,2.075,1.953,-158.901,9.695,-63.435
18890,-0.167,-0.3394,-1.0093,8.423,-3.052,-0.061,-158.84,9.717,-63.424
18901,-0.1929,-0.3506,-0.9434,8.362,-2.808,-0.549,-158.763,9.75,-63.408
18930,-0.2271,-0.373,-0.8457,6.592,-0.671,-1.16,-158.45,9.893,-63.369
18970,-0.1704,-0.396,-0.9116,-5.92,0.854,0.427,-158.362,9.965,-63.353
18990,-0.1543,-0.3726,-0.9756,-5.92,0.854,0.427,-158.566,9.91,-63.397
19000,-0.1162,-0.3071,-1.1089,-6.287,2.197,2.93,-158.698,9.855,-63.435
19040,-0.1362,-0.2983,-1.1113,10.925,-1.221,-2.625,-158.829,9.635,-63.435
19050,-0.1772,-0.3408,-1.0181,15.686,-2.197,-3.54,-158.692,9.641,-63.397
19069,-0.2598,-0.4272,-0.7974,15.686,-2.197,-3.54,-158.269,9.789,-63.303
19080,-0.2832,-0.4497,-0.7168,10.986,-3.662,-3.54,-158.049,9.893,-63.254
19099,-0.2969,-0.4668,-0.6641,10.986,-3.662,-3.54,-157.72,10.124,-63.188
19120,-0.2754,-0.4805,-0.6592,-8.057,-0.366,-0.488,-157.714,10.256,-63.193
19139,-0.1431,-0.3604,-0.9365,-22.217,5.249,2.441,-158.132,10.179,-63.27
19149,-0.124,-0.3228,-1.0293,-20.386,5.249,2.502,-158.384,10.102,-63.314
19160,-0.0898,-0.29,-1.126,-17.761,5.066,1.892,-158.637,10.009,-63.347
19179,-0.0405,-0.251,-1.2739,-9.583,4.7,0.977,-159.06,9.767,-63.408
19189,-0.0391,-0.2437,-1.3062,-3.601,3.601,0.427,-159.203,9.657,-63.424
19209,-0.0532,-0.2461,-1.2915,10.742,-1.465,0.366,-159.247,9.525,-63.43
19219,-0.1289,-0.2969,-1.1416,17.395,-3.479,0.549,-159.137,9.531,-63.424
19229,-0.1748,-0.3369,-1.0293,21.606,-5.005,0.549,-158.95,9.575,-63.408
19249,-0.2124,-0.3701,-0.9204,21.484,-4.944,0.122,-158.456,9.745,-63.375
19259,-0.251,-0.4136,-0.7764,18.982,-3.479,-0.183,-158.203,9.838,-63.364
19269,-0.2607,-0.4302,-0.731,15.259,-2.197,-0.244,-157.961,9.926,-63.353
19289,-0.2578,-0.4438,-0.7114,4.517,-0.366,-0.061,-157.621,10.085,-63.342
19299,-0.2505,-0.436,-0.7256,4.517,-0.366,-0.061,-157.555,10.146,-63.342
19309,-0.2354,-0.4224,-0.7603,-7.202,1.282,-0.122,-157.56,10.184,-63.347
19318,-0.2354,-0.4224,-0.7603,-7.202,1.282,-0.122,-157.632,10.201,-63.358
19339,-0.1187,-0.3564,-1.0283,-13.306,4.883,-0.061,-157.928,10.085,-63.397
19368,-0.0601,-0.3047,-1.1978,0.0,4.089,0.366,-158.34,9.75,-63.457
19398,-0.1685,-0.3628,-1.0044,7.141,0.61,1.038,-158.121,9.706,-63.484
19408,-0.2026,-0.3799,-0.9092,15.625,-2.136,1.099,-157.956,9.75,-63.49
19419,-0.2231,-0.3901,-0.8193,13.245,-1.404,0.427,-157.791,9.805,-63.484
19448,-0.2095,-0.4194,-0.7783,-0.793,-1.221,1.77,-157.473,9.981,-63.501
19468,-0.188,-0.4097,-0.8433,-6.165,-2.441,3.479,-157.615,10.074,-63.567
19478,-0.188,-0.4097,-0.8433,-10.254,-3.967,8.911,-157.764,10.14,-63.633
19488,-0.1875,-0.3096,-0.9785,-5.127,-4.395,10.315,-157.874,10.217,-63.715
19518,-0.1821,-0.3789,-0.9932,2.014,-1.648,5.31,-157.885,10.393,-63.891
19528,-0.1587,-0.376,-1.0215,-3.479,1.343,1.892,-157.945,10.366,-63.913
19558,-0.1299,-0.3335,-1.0898,-0.671,2.258,-0.61,-158.225,10.173,-63.918
19568,-0.1392,-0.3442,-1.0962,5.066,1.221,0.854,-158.22,10.135,-63.929
19577,-0.1392,-0.3442,-1.0962,5.066,1.221,0.854,-158.165,10.113,-63.951
19588,-0.1392,-0.3442,-1.0962,10.559,-1.526,2.563,-158.077,10.129,-63.968
19598,-0.2119,-0.3799,-0.9443,10.986,-2.38,2.625,-157.972,10.179,-63.984
19628,-0.2383,-0.3965,-0.8452,7.202,-2.319,3.784,-157.626,10.393,-64.05
19638,-0.2095,-0.3818,-0.8735,4.639,-0.732,3.235,-157.577,10.432,-64.078
19667,-0.1899,-0.3638,-0.9351,2.075,-0.061,-0.977,-157.527,10.437,-64.105
19687,-0.1772,-0.3691,-0.9487,1.221,0.366,-3.174,-157.522,10.382,-64.039
19707,-0.1606,-0.394,-0.9736,-0.61,0.366,-4.761,-157.527,10.311,-63.951
19727,-0.123,-0.3906,-1.0142,-1.709,1.526,-4.7,-157.588,10.162,-63.869
19747,-0.1226,-0.3618,-1.0884,3.662,1.099,-2.258,-157.621,10.047,-63.825
19777,-0.1997,-0.3833,-0.9307,14.954,-2.686,2.502,-157.341,10.047,-63.831
19797,-0.2227,-0.4072,-0.8613,16.479,-2.747,3.052,-156.962,10.184,-63.864
19817,-0.2549,-0.4214,-0.7598,4.089,-0.244,1.343,-156.703,10.344,-63.891
19836,-0.2266,-0.3833,-0.8003,-2.197,1.343,0.183,-156.736,10.399,-63.907
19847,-0.1914,-0.3599,-0.8682,-11.292,4.15,-0.366,-156.857,10.371,-63.918
19857,-0.1489,-0.3462,-0.9629,-10.925,5.493,-0.061,-157.006,10.3,-63.94
19867,-0.1006,-0.3408,-1.0576,-10.925,5.493,-0.061,-157.148,10.195,-63.968
19887,-0.0723,-0.3228,-1.1646,-1.892,3.601,1.16,-157.374,9.987,-64.023
19897,-0.0835,-0.3311,-1.1709,3.906,1.709,1.282,-157.407,9.915,-64.039
19906,-0.0835,-0.3311,-1.1709,3.906,1.709,1.282,-157.374,9.877,-64.056
19916,-0.1357,-0.3613,-1.0747,14.832,-2.014,2.563,-157.269,9.877,-64.072
19927,-0.1357,-0.3613,-1.0747,14.832,-2.014,2.563,-157.104,9.91,-64.089
19946,-0.2095,-0.4077,-0.8926,14.832,-2.014,2.563,-156.703,10.058,-64.105
19966,-0.2529,-0.4297,-0.7529,11.292,-4.028,2.197,-156.396,10.294,-64.111
19986,-0.2681,-0.4375,-0.7017,-0.183,-3.601,1.343,-156.297,10.486,-64.105
20006,-0.2104,-0.4106,-0.8203,-15.686,2.136,0.732,-156.495,10.541,-64.127
