elapsed_ms,acc_x_g,acc_y_g,acc_z_g,gyro_x_dps,gyro_y_dps,gyro_z_dps,angle_x_deg,angle_y_deg,angle_z_deg
0,-0.0005,-0.3438,-1.0049,13.489,7.568,-5.493,-166.201,-0.115,-31.492
11,-0.0005,-0.3438,-1.0049,20.02,10.437,-13.855,-165.877,-0.264,-31.382
21,0.0229,-0.2646,-0.979,26.062,-0.122,-16.846,-165.608,-0.313,-31.218
40,-0.0313,-0.4111,-1.0552,20.02,0.61,-30.884,-165.24,-0.374,-30.646
51,-0.0313,-0.4111,-1.0552,20.752,-0.854,-29.602,-164.96,-0.434,-30.355
70,-0.0356,-0.396,-1.0684,10.132,-8.911,-17.517,-164.669,-0.324,-29.91
90,-0.0293,-0.438,-1.0435,13.184,-8.484,-6.287,-164.268,-0.203,-29.691
100,-0.0278,-0.4302,-1.0249,13.184,-8.484,-6.287,-164.048,-0.132,-29.641
110,-0.0225,-0.4019,-1.0078,13.184,-8.484,-6.287,-163.768,-0.082,-29.608
120,-0.0264,-0.3911,-1.0059,26.001,-4.517,-3.723,-163.46,-0.038,-29.559
151,-0.0386,-0.3267,-0.9795,39.612,-7.324,-8.545,-162.35,0.154,-29.317
160,-0.0386,-0.3267,-0.9795,42.114,-4.883,-11.353,-161.927,0.176,-29.191
180,0.0229,-0.313,-0.9248,42.114,-4.883,-11.353,-161.125,0.104,-28.85
190,0.0195,-0.3018,-0.9263,33.813,-6.592,-23.987,-160.801,0.077,-28.603
200,0.019,-0.3047,-0.9199,28.381,-11.414,-25.085,-160.527,0.088,-28.328
219,-0.0093,-0.313,-0.8853,21.729,-13.245,-22.522,-160.06,0.187,-27.806
230,-0.0259,-0.3223,-0.8862,21.729,-13.245,-22.522,-159.906,0.209,-27.526
240,-0.0229,-0.3345,-0.8882,10.315,-4.578,-30.518,-159.796,0.159,-27.224
259,0.0103,-0.3335,-0.8911,-1.953,1.099,-36.743,-159.769,-0.099,-26.559
270,0.0303,-0.3613,-0.9307,-5.493,2.93,-36.255,-159.813,-0.269,-26.23
280,0.0435,-0.3774,-0.9419,-8.118,3.174,-32.898,-159.879,-0.428,-25.933
299,0.0464,-0.3931,-0.9604,-9.155,1.892,-25.452,-160.016,-0.687,-25.439
310,0.042,-0.396,-0.9702,-11.108,1.404,-24.353,-160.109,-0.797,-25.214
329,0.0376,-0.3755,-0.9697,-13.733,-0.427,-23.499,-160.367,-0.956,-24.78
339,0.0435,-0.3647,-0.9487,-13.0,-2.38,-19.836,-160.483,-1.011,-24.587
350,0.0444,-0.3613,-0.9326,-10.498,-2.991,-17.7,-160.571,-1.06,-24.412
369,0.0522,-0.356,-0.8779,-10.071,-1.282,-14.526,-160.724,-1.165,-24.109
379,0.0522,-0.356,-0.8779,-11.78,-2.38,-13.306,-160.818,-1.198,-23.978
409,0.0405,-0.3013,-0.8223,-19.104,-0.793,-15.747,-161.334,-1.39,-23.522
419,0.0366,-0.3013,-0.8359,-24.658,7.874,-20.935,-161.57,-1.538,-23.346
439,0.0664,-0.3018,-0.8511,-24.658,7.874,-20.935,-162.131,-2.032,-22.934
449,0.0811,-0.2959,-0.8799,-24.658,7.874,-20.935,-162.488,-2.362,-22.709
459,0.1104,-0.311,-0.9395,-39.795,30.029,-32.104,-162.883,-2.785,-22.489
489,0.2056,-0.3706,-1.2842,-46.326,40.955,-28.87,-164.235,-4.296,-22.022
499,0.2153,-0.373,-1.353,-41.931,33.508,-17.212,-164.658,-4.708,-21.945
508,0.2153,-0.373,-1.353,-41.931,33.508,-17.212,-164.987,-5.015,-21.907
518,0.2153,-0.373,-1.353,-22.522,11.963,-4.944,-165.212,-5.164,-21.89
529,0.1479,-0.332,-1.2632,-10.193,2.502,-1.648,-165.317,-5.208,-21.885
548,0.1216,-0.3213,-1.166,14.587,-5.127,1.465,-165.103,-5.136,-21.879
558,0.1216,-0.3213,-1.166,19.836,-6.714,3.113,-164.872,-5.059,-21.89
569,0.0718,-0.3271,-0.9316,19.47,-5.798,3.723,-164.636,-4.982,-21.912
598,0.0771,-0.3105,-0.9009,3.906,4.883,5.493,-164.196,-4.982,-22.061
609,0.0771,-0.3105,-0.9009,-0.488,6.714,6.409,-164.169,-5.026,-22.137
628,0.0771,-0.3105,-0.9009,-1.282,8.24,6.653,-164.18,-5.136,-22.313
638,0.0825,-0.2666,-0.9502,-1.282,8.24,6.653,-164.169,-5.186,-22.39
658,0.0815,-0.2705,-0.958,3.113,4.822,2.93,-164.108,-5.257,-22.495
668,0.0684,-0.27,-0.9614,3.113,4.822,2.93,-164.081,-5.273,-22.516
678,0.0674,-0.272,-0.9551,2.625,2.625,-0.305,-164.059,-5.284,-22.522
698,0.0776,-0.272,-0.9658,1.526,2.869,-2.502,-164.02,-5.334,-22.495
708,0.0835,-0.2798,-0.9771,-0.549,2.991,-3.052,-164.026,-5.361,-22.478
718,0.0845,-0.2852,-0.9844,-3.174,2.563,-3.723,-164.059,-5.389,-22.445
748,0.0869,-0.2979,-1.001,-2.258,0.671,-6.165,-164.163,-5.455,-22.302
758,0.0942,-0.3052,-1.0029,-1.404,0.305,-6.47,-164.169,-5.471,-22.242
778,0.0942,-0.3052,-1.0029,0.427,-1.526,-5.615,-164.141,-5.488,-22.121
788,0.0923,-0.314,-0.9751,0.549,-2.808,-5.615,-164.125,-5.471,-22.061
807,0.0908,-0.3115,-0.9614,-0.122,-2.686,-5.92,-164.086,-5.449,-21.934
817,0.1016,-0.3022,-0.9414,-2.014,-2.258,-5.737,-164.092,-5.449,-21.874
828,0.105,-0.2915,-0.9463,-3.418,-0.488,-6.165,-164.119,-5.466,-21.813
857,0.1177,-0.2944,-0.9897,-5.92,1.831,-6.287,-164.262,-5.576,-21.638
868,0.1196,-0.293,-1.0117,-7.08,2.93,-6.531,-164.333,-5.63,-21.583
887,0.1196,-0.293,-1.0117,-8.667,3.967,-7.019,-164.498,-5.762,-21.467
897,0.1357,-0.3091,-1.062,-9.033,4.333,-7.141,-164.586,-5.834,-21.407
917,0.1328,-0.3101,-1.0659,-9.033,4.333,-7.141,-164.751,-5.916,-21.292
927,0.1328,-0.3101,-1.0659,-7.324,-1.648,-5.005,-164.817,-5.922,-21.242
937,0.1279,-0.3184,-1.0566,-5.432,-3.235,-3.601,-164.861,-5.905,-21.198
957,0.1211,-0.3315,-1.0391,-1.404,-4.517,-1.221,-164.866,-5.845,-21.138
967,0.1221,-0.3379,-1.0278,0.488,-4.761,-0.305,-164.833,-5.806,-21.127
977,0.1201,-0.3398,-1.0195,1.709,-5.859,1.343,-164.784,-5.751,-21.121
997,0.1104,-0.3403,-1.0122,3.479,-4.944,3.845,-164.658,-5.63,-21.16
1007,0.105,-0.3442,-1.0156,3.479,-4.944,3.845,-164.586,-5.598,-21.187
1017,0.1089,-0.3491,-1.0259,2.441,0.244,2.319,-164.526,-5.598,-21.209
1037,0.1206,-0.3545,-1.0386,2.441,0.244,2.319,-164.399,-5.663,-21.281
1047,0.1157,-0.355,-1.0151,2.319,-0.305,5.493,-164.333,-5.652,-21.33
1077,0.0781,-0.3003,-0.8799,0.732,-12.207,12.329,-164.163,-5.345,-21.555
1087,0.0708,-0.2974,-0.8667,-2.075,-7.385,11.475,-164.147,-5.235,-21.643
1106,0.0806,-0.3169,-0.8672,-18.127,7.141,4.517,-164.284,-5.306,-21.786
1116,0.084,-0.3184,-0.915,-18.127,7.141,4.517,-164.57,-5.4,-21.852
1127,0.0898,-0.2988,-1.0166,-41.809,20.935,1.282,-164.971,-5.592,-21.923
1136,0.0898,-0.2988,-1.0166,-49.316,27.161,-0.671,-165.465,-5.85,-21.984
1156,0.1704,-0.2749,-1.4102,-39.612,33.936,-2.136,-166.388,-6.515,-22.11
1186,0.1704,-0.2681,-1.459,18.799,-3.357,6.775,-166.58,-6.817,-22.297
1196,0.0532,-0.2476,-1.0469,38.818,-17.517,8.362,-166.19,-6.592,-22.335
1216,0.0352,-0.3174,-0.77,38.818,-17.517,8.362,-165.053,-6.218,-22.352
1226,0.0352,-0.3174,-0.77,35.583,-3.784,2.991,-164.597,-6.125,-22.368
1236,0.0464,-0.3096,-0.7158,13.672,8.789,1.587,-164.377,-6.18,-22.412
1256,0.0464,-0.3096,-0.7158,-15.076,25.452,-0.793,-164.515,-6.625,-22.527
1266,0.1455,-0.2471,-0.938,-13.977,22.522,-1.77,-164.652,-6.861,-22.571
1275,0.1655,-0.2319,-0.9321,-13.977,22.522,-1.77,-164.707,-7.048,-22.577
1285,0.1655,-0.2319,-0.9321,13.428,4.883,-4.272,-164.586,-7.119,-22.549
1296,0.1055,-0.2656,-0.8442,30.212,-1.282,-5.798,-164.273,-7.119,-22.489
1306,0.1128,-0.3218,-0.8013,30.212,-1.282,-5.798,-163.834,-7.169,-22.401
1325,0.0815,-0.3662,-0.9131,22.644,18.066,-12.085,-163.152,-7.41,-22.247
1336,0.21,-0.4219,-1.123,22.644,18.066,-12.085,-163.054,-7.712,-22.22
1346,0.1973,-0.3628,-1.2007,-7.874,17.029,-2.991,-163.13,-7.894,-22.242
1355,0.1973,-0.3628,-1.2007,-5.432,11.902,0.61,-163.202,-8.026,-22.28
1365,0.1968,-0.2695,-1.1426,-5.432,11.902,0.61,-163.152,-8.047,-22.297
1376,0.1577,-0.2705,-1.0762,24.597,-8.423,0.854,-162.938,-7.965,-22.28
1395,0.1572,-0.291,-0.9756,45.166,-13.245,-1.648,-162.081,-7.773,-22.181
1405,0.0942,-0.3018,-0.7251,41.382,-15.93,-0.427,-161.631,-7.614,-22.132
1415,0.0903,-0.3022,-0.6543,31.006,-8.667,-2.014,-161.268,-7.531,-22.083
1435,0.105,-0.3145,-0.7471,-2.197,9.216,-6.653,-161.038,-7.685,-22.006
1445,0.1572,-0.3589,-0.9595,-2.197,9.216,-6.653,-161.191,-7.965,-21.978
1455,0.2285,-0.373,-1.2217,-27.893,35.339,-16.052,-161.494,-8.372,-21.94
1465,0.2285,-0.373,-1.2217,-27.893,35.339,-16.052,-161.801,-8.734,-21.918
1475,0.2285,-0.373,-1.2217,-27.893,35.339,-16.052,-161.982,-8.998,-21.918
1485,0.252,-0.3457,-1.5083,3.723,3.296,-0.61,-161.944,-9.031,-21.923
1505,0.1948,-0.3213,-1.29,3.723,3.296,-0.61,-160.994,-8.492,-21.868
1515,0.0322,-0.2959,-0.624,81.543,-48.645,9.644,-160.192,-7.998,-21.802
1524,0.0322,-0.2959,-0.624,81.543,-48.645,9.644,-159.379,-7.581,-21.725
1545,0.0117,-0.3447,-0.2969,81.543,-48.645,9.644,-158.428,-7.278,-21.671
1555,0.0117,-0.3447,-0.2969,-8.545,23.56,-4.639,-158.511,-7.515,-21.714
1584,0.2412,-0.4673,-1.0068,-44.678,55.176,-13.611,-160.373,-9.108,-22.072
1595,0.2412,-0.4673,-1.0068,-47.607,19.165,11.719,-160.823,-9.25,-22.253
1614,0.229,-0.1626,-1.4878,-47.607,19.165,11.719,-160.345,-8.806,-22.341
1624,0.0762,-0.2524,-0.9121,82.581,-42.847,3.967,-159.532,-8.388,-22.236
1635,0.0439,-0.3262,-0.646,82.581,-42.847,3.967,-158.637,-7.971,-22.083
1645,0.0439,-0.3262,-0.646,91.919,-44.067,0.488,-157.742,-7.559,-21.923
1654,0.0352,-0.3779,-0.4683,91.919,-44.067,0.488,-156.973,-7.224,-21.78
1664,0.0527,-0.3848,-0.3906,47.119,-24.597,0.366,-156.511,-6.998,-21.687
1675,0.0571,-0.3887,-0.5059,10.132,-9.46,0.244,-156.418,-6.91,-21.654
1684,0.0571,-0.3887,-0.5059,10.132,-9.46,0.244,-156.649,-7.048,-21.665
1694,0.0571,-0.3887,-0.5059,-48.218,29.968,-7.813,-157.121,-7.35,-21.714
1704,0.293,-0.3931,-1.2979,-60.059,31.921,-4.761,-157.714,-7.663,-21.797
1734,0.208,-0.2827,-1.2476,4.944,-15.808,3.235,-158.434,-7.646,-21.912
1744,0.1606,-0.3184,-0.9839,32.349,-28.992,1.77,-158.121,-7.372,-21.819
1764,0.0635,-0.3779,-0.6152,32.349,-28.992,1.77,-157.258,-6.691,-21.588
1774,0.0894,-0.436,-0.6025,26.672,-16.968,-3.784,-157.0,-6.548,-21.484
1784,0.1211,-0.4697,-0.7271,0.305,-2.991,-5.249,-157.006,-6.537,-21.423
1814,0.1772,-0.4761,-0.8779,-43.274,13.855,-2.258,-158.077,-6.938,-21.456
1824,0.2383,-0.3838,-1.2778,-33.325,12.39,-2.563,-158.406,-7.059,-21.478
1833,0.2383,-0.3838,-1.2778,-13.733,0.549,0.061,-158.544,-7.064,-21.478
1844,0.2383,-0.3838,-1.2778,-13.733,0.549,0.061,-158.428,-6.954,-21.451
1854,0.1113,-0.3438,-0.9351,-13.733,0.549,0.061,-158.066,-6.762,-21.39
1873,0.0635,-0.3647,-0.7671,50.354,-25.696,1.465,-157.066,-6.301,-21.22
1883,0.0635,-0.3647,-0.7671,41.992,-15.32,-1.404,-156.654,-6.163,-21.149
1894,0.0845,-0.4307,-0.6548,23.621,-3.601,-3.418,-156.423,-6.147,-21.099
1903,0.1182,-0.4517,-0.8345,23.621,-3.601,-3.418,-156.401,-6.246,-21.088
1923,0.2422,-0.4741,-1.1899,-26.672,21.912,-5.066,-156.824,-6.674,-21.143
1934,0.2334,-0.4307,-1.2607,-25.452,11.23,1.343,-157.077,-6.773,-21.204
1943,0.2334,-0.4307,-1.2607,-25.452,11.23,1.343,-157.176,-6.735,-21.264
1953,0.1475,-0.3633,-1.1777,-25.452,11.23,1.343,-157.055,-6.597,-21.308
1963,0.1475,-0.3633,-1.1777,-25.452,11.23,1.343,-156.72,-6.416,-21.33
1974,0.1001,-0.4043,-0.957,47.485,-19.104,9.094,-156.242,-6.207,-21.335
1983,0.1001,-0.4043,-0.957,47.485,-19.104,9.094,-155.726,-5.966,-21.346
1993,0.0439,-0.3979,-0.748,47.668,-19.897,10.193,-155.248,-5.74,-21.357
2003,0.0518,-0.394,-0.6816,38.147,-13.611,7.629,-154.869,-5.587,-21.368
2023,0.0552,-0.3521,-0.6387,38.147,-13.611,7.629,-154.429,-5.416,-21.39
2033,0.0825,-0.353,-0.6978,9.277,1.343,-0.244,-154.336,-5.427,-21.39
2043,0.1211,-0.4038,-0.8472,2.38,8.911,-5.005,-154.314,-5.532,-21.385
2063,0.1699,-0.4624,-1.021,-17.09,15.015,-9.094,-154.556,-5.883,-21.357
2073,0.1963,-0.478,-1.2583,-21.484,9.216,-5.737,-154.775,-5.988,-21.346
2083,0.1807,-0.458,-1.2476,-20.447,1.221,-1.953,-154.979,-6.01,-21.33
2092,0.1392,-0.3975,-1.1436,-20.447,1.221,-1.953,-155.171,-5.927,-21.302
2103,0.085,-0.3438,-0.9951,-0.732,-18.25,2.991,-155.242,-5.735,-21.253
2113,0.085,-0.3438,-0.9951,14.526,-20.874,1.16,-155.138,-5.521,-21.176
2123,0.04,-0.3608,-0.7051,24.17,-21.179,-1.77,-154.885,-5.312,-21.072
2144,0.062,-0.4419,-0.6191,15.015,-12.695,-5.249,-154.347,-5.037,-20.852
2153,0.062,-0.4419,-0.6191,-0.793,-5.432,-5.371,-154.259,-5.021,-20.781
2172,0.1196,-0.5088,-0.7344,-35.339,2.991,-2.075,-154.616,-5.147,-20.731
2222,0.1323,-0.4927,-0.9438,-108.826,26.489,12.39,-157.703,-5.213,-21.385
2242,0.2935,-0.4775,-1.4976,-129.028,42.419,13.55,-160.219,-5.944,-21.912
2252,0.3564,-0.1562,-2.1938,-101.807,12.634,26.611,-161.208,-5.977,-22.203
2262,0.2202,-0.0269,-2.0444,-45.227,-18.005,32.776,-161.636,-5.696,-22.456
2282,-0.0176,-0.1602,-1.1792,-45.227,-18.005,32.776,-160.356,-4.675,-22.577
2292,-0.0684,-0.3135,-0.7471,126.77,-60.73,12.329,-159.093,-4.059,-22.489
2302,-0.1099,-0.4131,-0.3955,120.422,-58.411,13.367,-157.896,-3.466,-22.407
2332,-0.1143,-0.3198,-0.0972,-9.583,-6.531,3.967,-156.835,-2.571,-22.374
2342,-0.0142,-0.3198,-0.4023,-39.001,20.508,-6.531,-157.22,-2.785,-22.396
2351,-0.0142,-0.3198,-0.4023,-39.001,20.508,-6.531,-157.78,-3.268,-22.44
2362,-0.0142,-0.3198,-0.4023,-62.683,55.176,-16.602,-158.401,-3.845,-22.495
2372,0.2847,-0.3354,-1.4995,-54.321,46.692,-10.437,-158.939,-4.318,-22.566
2391,0.1948,-0.3169,-1.6675,-6.592,15.015,-3.296,-159.324,-4.741,-22.665
2402,0.1577,-0.3481,-1.5298,-6.592,15.015,-3.296,-159.175,-4.807,-22.604
2412,0.082,-0.3862,-1.2886,31.311,-10.01,-9.583,-158.873,-4.746,-22.478
2431,0.0156,-0.4321,-0.8022,31.311,-10.01,-9.583,-158.044,-4.444,-22.187
2442,0.0015,-0.436,-0.645,37.354,-18.921,-5.066,-157.681,-4.285,-22.066
2452,-0.0034,-0.4263,-0.5635,23.621,-13.794,-3.235,-157.451,-4.169,-21.984
2461,-0.0034,-0.4263,-0.5635,23.621,-13.794,-3.235,-157.379,-4.136,-21.94
2471,-0.0034,-0.4263,-0.5635,-6.165,3.052,-3.113,-157.44,-4.175,-21.923
2481,0.1021,-0.3994,-0.8052,-15.869,14.771,-5.249,-157.599,-4.334,-21.929
2492,0.1646,-0.3789,-1.02,-23.56,22.949,-7.202,-157.835,-4.576,-21.951
2501,0.1646,-0.3789,-1.02,-23.56,22.949,-7.202,-158.11,-4.801,-21.984
2511,0.2144,-0.3003,-1.373,-23.254,17.761,-1.831,-158.34,-4.971,-22.033
2521,0.1904,-0.2686,-1.3877,-8.545,10.742,-0.366,-158.423,-5.076,-22.072
2541,0.1118,-0.3008,-1.1709,33.936,-3.357,-3.052,-157.95,-5.07,-22.028
2551,0.0767,-0.3291,-1.0063,45.471,-6.531,-6.104,-157.505,-5.032,-21.945
2561,0.0498,-0.353,-0.855,45.288,-7.996,-7.263,-157.061,-4.988,-21.852
2571,0.0498,-0.353,-0.855,45.288,-7.996,-7.263,-156.709,-4.966,-21.753
2591,-0.002,-0.3408,-0.563,6.714,-4.333,-6.226,-156.44,-4.933,-21.583
2601,-0.0195,-0.3267,-0.5293,-5.005,0.0,-5.859,-156.495,-4.955,-21.533
2611,-0.0195,-0.3267,-0.5293,-13.245,6.653,-7.69,-156.632,-5.048,-21.489
2621,-0.0161,-0.3003,-0.6865,-13.245,6.653,-7.69,-156.852,-5.24,-21.44
2631,0.0015,-0.2813,-0.7754,-28.748,25.391,-17.578,-157.143,-5.543,-21.379
2641,0.0078,-0.2466,-0.793,-28.748,25.391,-17.578,-157.484,-5.927,-21.292
2661,0.1025,-0.3008,-0.9097,-32.654,36.56,-25.33,-158.104,-6.784,-21.116
2671,0.1895,-0.3647,-1.1655,-25.513,37.292,-23.682,-158.373,-7.218,-21.033
2690,0.3003,-0.4224,-1.4653,-25.696,30.334,-18.982,-158.901,-8.015,-20.885
2701,0.3613,-0.3799,-1.7603,-19.653,10.376,-9.705,-159.104,-8.146,-20.83
2720,0.2827,-0.3335,-1.6616,-19.653,10.376,-9.705,-158.945,-7.767,-20.704
2730,0.1387,-0.3481,-1.1499,45.715,-36.743,4.639,-158.5,-7.41,-20.616
2741,0.1387,-0.3481,-1.1499,61.829,-41.199,4.211,-157.896,-7.009,-20.5
2760,0.0635,-0.4023,-0.6479,61.829,-41.199,4.211,-156.731,-6.317,-20.253
2770,0.0483,-0.418,-0.377,33.264,-26.062,1.404,-156.412,-6.075,-20.165
2780,0.0591,-0.4058,-0.3174,10.803,-15.747,0.732,-156.308,-5.927,-20.11
2800,0.0674,-0.395,-0.3755,-9.888,-5.493,-1.831,-156.703,-5.988,-20.039
2810,0.2026,-0.3896,-0.6958,-9.888,-5.493,-1.831,-157.154,-6.229,-20.017
2820,0.2319,-0.3433,-0.7852,-54.626,22.522,-12.085,-157.698,-6.482,-19.995
2840,0.2109,-0.2896,-0.9253,-51.636,12.939,-1.404,-158.78,-6.795,-20.028
2850,0.2109,-0.2896,-0.9253,-44.8,15.137,0.061,-159.225,-6.938,-20.083
2870,0.3022,-0.3462,-1.3335,-44.8,15.137,0.061,-159.873,-7.278,-20.187
2880,0.3022,-0.3462,-1.3335,-44.8,15.137,0.061,-160.054,-7.278,-20.22
2890,0.3252,-0.332,-1.6968,-4.333,-15.747,8.057,-160.098,-7.103,-20.248
2910,0.2412,-0.3115,-1.5356,-4.333,-15.747,8.057,-159.659,-6.207,-20.226
2920,0.0327,-0.3003,-0.9512,47.119,-55.237,14.526,-159.197,-5.641,-20.165
2930,-0.0063,-0.3228,-0.6909,52.551,-48.401,8.972,-158.681,-5.158,-20.078
2949,-0.0239,-0.3564,-0.4214,52.551,-48.401,8.972,-157.928,-4.515,-19.907
2960,-0.0151,-0.3613,-0.3999,8.179,-9.766,0.732,-157.852,-4.422,-19.88
2970,0.0313,-0.373,-0.4531,-11.963,8.179,-2.319,-157.972,-4.504,-19.891
2989,0.1772,-0.3911,-0.8882,-35.645,27.527,-2.563,-158.582,-4.977,-20.012
3000,0.2461,-0.4082,-1.1636,-38.025,27.954,1.404,-158.95,-5.235,-20.127
3019,0.27,-0.3926,-1.4126,-33.508,18.982,7.813,-159.511,-5.356,-20.424
3040,0.0967,-0.3647,-1.4263,13.123,-24.963,25.391,-159.439,-4.828,-20.737
3059,0.0034,-0.3765,-1.0879,13.123,-24.963,25.391,-158.604,-4.164,-20.918
3079,0.0112,-0.3936,-0.8613,47.485,-12.451,4.944,-157.615,-3.818,-20.934
3109,0.0059,-0.3945,-0.7695,30.273,11.902,-0.732,-156.539,-3.889,-21.011
3119,0.0029,-0.395,-0.7368,26.062,17.761,-3.54,-156.275,-4.065,-21.05
3140,0.0059,-0.3662,-0.6699,12.817,27.466,-14.099,-155.945,-4.625,-21.044
3149,0.0059,-0.3662,-0.6699,3.723,32.715,-19.287,-155.912,-5.004,-21.0
3169,0.0938,-0.3911,-0.7744,-5.737,35.522,-22.705,-156.121,-5.806,-20.869
3189,0.2251,-0.4092,-1.2607,-11.78,17.395,-14.221,-156.407,-6.345,-20.737
3219,0.1802,-0.3887,-1.333,17.517,-6.104,-4.517,-156.242,-6.443,-20.555
3248,0.1499,-0.3828,-1.2192,28.32,-10.803,-3.296,-155.325,-6.114,-20.325
3259,0.1074,-0.3633,-0.8013,22.644,-17.7,-0.488,-155.105,-5.955,-20.248
3278,0.0845,-0.3403,-0.7109,1.831,-18.127,0.366,-154.962,-5.62,-20.099
3288,0.0703,-0.3125,-0.6025,-14.404,-15.015,-1.404,-155.116,-5.493,-20.023
3299,0.0728,-0.2925,-0.6118,-26.611,-6.042,-6.287,-155.385,-5.466,-19.94
3328,0.1499,-0.2876,-0.7358,-51.208,6.836,-10.193,-156.846,-5.768,-19.742
3339,0.1621,-0.2998,-0.8037,-52.917,14.099,-10.376,-157.379,-5.938,-19.704
3368,0.1621,-0.2998,-0.8037,-46.387,18.799,-6.287,-158.835,-6.586,-19.666
3379,0.2354,-0.3521,-1.2378,-40.833,18.005,-3.906,-159.241,-6.768,-19.698
3388,0.2354,-0.3521,-1.2378,-33.691,15.198,-1.77,-159.571,-6.916,-19.731
3398,0.2354,-0.3521,-1.2378,-25.269,8.972,0.488,-159.824,-6.998,-19.77
3408,0.1909,-0.3555,-1.2471,-15.442,2.808,3.052,-159.972,-7.015,-19.808
3428,0.1616,-0.3545,-1.1748,0.61,-3.357,3.906,-160.027,-6.943,-19.869
3438,0.1616,-0.3545,-1.1748,6.165,-5.981,4.395,-159.961,-6.872,-19.891
3448,0.0811,-0.3608,-0.8477,10.132,-8.545,5.859,-159.857,-6.773,-19.918
3478,0.0708,-0.3638,-0.668,0.305,6.592,6.287,-159.67,-6.718,-20.099
3488,0.0781,-0.3633,-0.6714,-7.324,11.108,5.859,-159.73,-6.801,-20.193
3508,0.0781,-0.3633,-0.6714,-16.174,15.259,4.883,-160.104,-7.108,-20.396
3518,0.1646,-0.353,-0.9731,-25.574,26.978,1.526,-160.345,-7.355,-20.5
3528,0.2007,-0.3535,-1.1572,-25.879,27.893,1.587,-160.615,-7.63,-20.61
3537,0.2007,-0.3535,-1.1572,-25.879,27.893,1.587,-160.873,-7.861,-20.72
3558,0.2041,-0.3286,-1.4546,-2.502,8.423,8.179,-161.131,-8.086,-20.94
3577,0.1646,-0.3242,-1.4097,28.076,-7.69,10.254,-160.818,-7.899,-21.105
3598,0.0713,-0.3633,-0.9971,43.091,-15.259,8.484,-160.016,-7.504,-21.182
3617,0.043,-0.3735,-0.7344,42.542,-16.785,8.057,-159.131,-7.064,-21.215
3627,0.043,-0.3735,-0.7344,28.381,-11.475,4.456,-158.752,-6.91,-21.215
3667,0.0786,-0.3516,-0.5981,-21.851,10.925,-2.869,-158.511,-6.888,-21.226
3687,0.1802,-0.3525,-0.9106,-29.175,18.982,-5.371,-159.148,-7.388,-21.27
3697,0.1802,-0.3525,-0.9106,-29.175,18.982,-5.371,-159.478,-7.652,-21.292
3707,0.2852,-0.333,-1.4258,-15.869,13.611,-2.93,-159.708,-7.822,-21.313
3717,0.2344,-0.3247,-1.4092,-15.869,13.611,-2.93,-159.785,-7.85,-21.324
3737,0.2344,-0.3247,-1.4092,27.771,-14.404,2.808,-159.45,-7.614,-21.297
3747,0.0938,-0.3413,-0.9556,33.752,-17.7,3.601,-159.131,-7.41,-21.264
3767,0.0708,-0.3398,-0.6968,33.752,-17.7,3.601,-158.489,-7.064,-21.193
3777,0.0659,-0.3296,-0.625,16.235,-11.353,1.526,-158.269,-6.938,-21.165
3787,0.0728,-0.3267,-0.6084,5.737,-5.554,-0.244,-158.148,-6.877,-21.143
3807,0.0728,-0.3267,-0.6084,-13.55,9.827,-5.493,-158.275,-7.037,-21.105
3817,0.1807,-0.332,-0.9233,-20.874,16.541,-6.653,-158.5,-7.251,-21.105
3827,0.2163,-0.3257,-1.0654,-23.682,18.494,-5.981,-158.774,-7.476,-21.116
3836,0.2163,-0.3257,-1.0654,-23.682,18.494,-5.981,-159.049,-7.679,-21.132
3846,0.2227,-0.3062,-1.2583,-23.682,18.494,-5.981,-159.291,-7.828,-21.132
3857,0.2241,-0.3115,-1.2827,-8.911,8.301,-4.944,-159.456,-7.943,-21.116
3897,0.1216,-0.3433,-0.9849,18.738,-10.437,-2.197,-159.263,-7.778,-20.929
3916,0.0879,-0.3647,-0.7222,18.738,-10.437,-2.197,-158.796,-7.548,-20.841
3926,0.0796,-0.3623,-0.6255,14.038,-7.446,-0.305,-158.571,-7.471,-20.808
3937,0.0913,-0.3594,-0.5752,6.226,-3.113,-0.305,-158.406,-7.443,-20.792
3956,0.1084,-0.3589,-0.5884,-10.986,9.338,-2.258,-158.384,-7.603,-20.808
3966,0.1987,-0.3618,-0.9194,-18.616,17.151,-4.883,-158.571,-7.817,-20.83
3977,0.2568,-0.3555,-1.1411,-23.254,22.766,-6.592,-158.835,-8.097,-20.852
3996,0.2905,-0.3022,-1.5542,-15.747,22.156,-6.775,-159.296,-8.597,-20.891
4006,0.2974,-0.2881,-1.6445,0.244,19.47,-8.606,-159.296,-8.811,-20.88
4015,0.2974,-0.2881,-1.6445,0.244,19.47,-8.606,-159.071,-8.948,-20.836
4036,0.1929,-0.2891,-1.3584,67.078,-17.517,-2.625,-157.945,-8.751,-20.671
4046,0.0635,-0.3452,-0.8662,75.195,-19.653,-3.662,-157.214,-8.586,-20.566
4055,0.0635,-0.3452,-0.8662,75.195,-19.653,-3.662,-156.555,-8.427,-20.44
4066,0.0635,-0.3452,-0.8662,48.706,-16.663,-6.653,-156.088,-8.3,-20.308
4076,0.041,-0.3745,-0.4487,25.146,-12.39,-8.179,-155.858,-8.223,-20.182
4095,0.0464,-0.3579,-0.3765,3.906,-7.996,-10.132,-155.995,-8.201,-19.935
4106,0.0464,-0.3579,-0.3765,3.906,-7.996,-10.132,-156.281,-8.278,-19.825
4116,0.1079,-0.3428,-0.501,-38.147,11.23,-14.893,-156.676,-8.443,-19.731
4125,0.1519,-0.3369,-0.6558,-38.147,11.23,-14.893,-157.148,-8.685,-19.655
4136,0.2051,-0.3408,-0.8267,-50.659,25.146,-17.639,-157.665,-8.987,-19.594
4145,0.2051,-0.3408,-0.8267,-49.622,28.137,-17.212,-158.165,-9.311,-19.539
4165,0.2803,-0.3462,-1.2041,-36.011,26.062,-14.404,-158.983,-9.932,-19.457
4185,0.2803,-0.3462,-1.2041,-15.808,9.277,-7.996,-159.423,-10.272,-19.374
4205,0.2788,-0.3604,-1.4595,6.409,-14.099,0.183,-159.428,-10.118,-19.281
4225,0.1362,-0.3833,-1.0132,24.963,-25.146,3.54,-159.022,-9.662,-19.171
4255,0.0859,-0.377,-0.6318,17.151,-17.273,3.662,-158.373,-9.009,-19.045
4265,0.0869,-0.3735,-0.5801,10.193,-12.085,3.235,-158.275,-8.888,-19.028
4285,0.0928,-0.3706,-0.5708,-8.179,1.465,0.244,-158.335,-8.833,-19.039
4295,0.0928,-0.3706,-0.5708,-18.066,10.376,-3.357,-158.516,-8.943,-19.045
4314,0.2158,-0.3735,-0.9194,-25.94,18.616,-7.019,-159.082,-9.393,-19.05
4354,0.3237,-0.3652,-1.5908,-8.179,0.854,-2.197,-160.021,-10.091,-19.039
4365,0.2563,-0.3149,-1.3853,-8.179,0.854,-2.197,-159.868,-9.954,-19.023
4375,0.1685,-0.2881,-1.1343,41.016,-24.17,6.47,-159.461,-9.701,-19.001
4384,0.1685,-0.2881,-1.1343,41.016,-24.17,6.47,-158.862,-9.448,-18.973
4405,0.0483,-0.3506,-0.4956,63.965,-19.348,4.639,-157.56,-9.014,-18.907
4415,0.0532,-0.376,-0.396,47.852,-11.719,2.686,-157.088,-8.893,-18.891
4434,0.0532,-0.376,-0.396,1.099,-1.404,-0.183,-156.835,-8.828,-18.869
4444,0.0532,-0.376,-0.396,-15.686,5.31,-1.587,-156.989,-8.882,-18.875
4464,0.1367,-0.2979,-0.5806,-34.119,24.17,-6.287,-157.588,-9.278,-18.929
4474,0.1875,-0.2822,-0.771,-34.119,24.17,-6.287,-157.972,-9.624,-18.973
4484,0.2432,-0.2832,-0.9712,-40.588,40.405,-12.39,-158.373,-10.042,-19.012
4504,0.312,-0.2856,-1.3472,-34.546,39.246,-14.954,-159.104,-10.904,-19.034
4514,0.312,-0.2856,-1.3472,-27.954,35.522,-15.625,-159.39,-11.288,-19.017
4524,0.3491,-0.3052,-1.5342,-21.423,25.818,-15.198,-159.615,-11.585,-18.962
4544,0.2637,-0.3037,-1.3867,-6.47,-4.15,-7.446,-159.868,-11.711,-18.798
4554,0.2085,-0.3071,-1.2227,4.761,-13.733,-4.578,-159.84,-11.596,-18.704
4564,0.1665,-0.3149,-1.0381,12.573,-19.775,-3.967,-159.736,-11.426,-18.6
4574,0.1665,-0.3149,-1.0381,15.015,-23.071,-3.784,-159.609,-11.223,-18.479
4584,0.1665,-0.3149,-1.0381,11.597,-21.24,-3.845,-159.511,-11.036,-18.369
4594,0.0889,-0.3335,-0.6274,5.249,-14.648,-5.066,-159.478,-10.92,-18.27
4613,0.0952,-0.3457,-0.5742,-2.441,-8.606,-6.531,-159.659,-10.849,-18.089
4634,0.124,-0.3726,-0.5869,-33.997,7.629,-10.132,-160.258,-10.986,-17.941
4643,0.124,-0.3726,-0.5869,-33.997,7.629,-10.132,-160.686,-11.168,-17.891
4653,0.124,-0.3726,-0.5869,-33.997,7.629,-10.132,-161.158,-11.354,-17.875
4664,0.249,-0.3618,-0.8794,-47.913,13.916,-2.441,-161.631,-11.497,-17.897
4693,0.3745,-0.3105,-1.3804,-46.997,22.217,-0.122,-163.021,-12.014,-18.078
4704,0.3882,-0.2686,-1.5117,-45.105,16.785,2.014,-163.455,-12.167,-18.149
4723,0.3271,-0.1943,-1.4683,-14.343,-5.249,7.751,-163.905,-12.156,-18.281
4733,0.2759,-0.2061,-1.3223,7.69,-16.907,9.46,-163.817,-11.97,-18.325
4743,0.2275,-0.2334,-1.1382,26.855,-26.123,10.742,-163.542,-11.689,-18.353
4763,0.1821,-0.2593,-0.9487,26.855,-26.123,10.742,-162.834,-10.97,-18.375
4773,0.1143,-0.2891,-0.6465,29.48,-29.602,9.277,-162.537,-10.657,-18.38
4783,0.1147,-0.3022,-0.5649,15.625,-20.813,6.348,-162.383,-10.443,-18.375
4803,0.1191,-0.3022,-0.5273,-13.855,-4.944,2.991,-162.51,-10.25,-18.391
4813,0.1465,-0.2817,-0.6426,-13.855,-4.944,2.991,-162.762,-10.3,-18.419
4833,0.1948,-0.271,-0.8184,-32.959,18.494,-2.747,-163.438,-10.772,-18.479
4843,0.3203,-0.2583,-1.2598,-33.447,32.471,-5.554,-163.762,-11.102,-18.523
4853,0.3423,-0.2412,-1.4282,-28.87,26.917,-3.784,-164.048,-11.371,-18.561
4873,0.3447,-0.2163,-1.5278,-6.104,4.028,1.16,-164.284,-11.58,-18.622
4883,0.3447,-0.2163,-1.5278,-6.104,4.028,1.16,-164.202,-11.481,-18.622
4893,0.2051,-0.2324,-1.2905,22.217,-18.799,4.028,-163.982,-11.288,-18.611
4902,0.2051,-0.2324,-1.2905,22.217,-18.799,4.028,-163.658,-11.025,-18.583
4912,0.2051,-0.2324,-1.2905,22.217,-18.799,4.028,-163.29,-10.728,-18.534
4923,0.0986,-0.3013,-0.7856,22.217,-18.799,4.028,-162.916,-10.443,-18.484
4952,0.0908,-0.3242,-0.6533,12.146,-7.69,2.93,-162.246,-9.959,-18.419
4963,0.0996,-0.3467,-0.5249,12.146,-7.69,2.93,-162.241,-9.981,-18.446
4982,0.1719,-0.3394,-0.8389,-20.264,26.672,-0.793,-162.537,-10.355,-18.572
4992,0.1719,-0.3394,-0.8389,-20.264,26.672,-0.793,-162.768,-10.745,-18.671
5003,0.3428,-0.3486,-1.3618,-25.513,44.006,-0.977,-162.999,-11.168,-18.798
5022,0.3911,-0.3315,-1.5166,-25.513,44.006,-0.977,-163.191,-11.662,-19.067
5032,0.29,-0.2661,-1.4312,-25.513,44.006,-0.977,-163.043,-11.596,-19.21
5052,0.2241,-0.2593,-1.2451,29.663,-13.916,18.555,-162.274,-11.162,-19.468
5062,0.2241,-0.2593,-1.2451,29.663,-13.916,18.555,-161.818,-10.854,-19.55
5072,0.2241,-0.2593,-1.2451,29.663,-13.916,18.555,-161.411,-10.591,-19.605
5082,0.0908,-0.2383,-0.5239,28.748,-13.245,7.385,-161.12,-10.443,-19.633
5092,0.0908,-0.2383,-0.5239,28.748,-13.245,7.385,-160.988,-10.437,-19.638
5112,0.3052,-0.3184,-1.0093,-21.973,32.41,-16.418,-161.274,-10.975,-19.567
5133,0.4063,-0.2969,-1.3823,-40.344,26.062,-16.479,-162.059,-11.678,-19.418
5142,0.4063,-0.2969,-1.3823,-32.288,6.104,-7.935,-162.394,-11.761,-19.358
5152,0.2339,-0.1938,-1.1514,-13.184,-10.62,-1.648,-162.537,-11.667,-19.308
5161,0.2339,-0.1938,-1.1514,-13.184,-10.62,-1.648,-162.411,-11.503,-19.254
5172,0.2339,-0.1938,-1.1514,-13.184,-10.62,-1.648,-162.087,-11.365,-19.193
5182,0.1289,-0.3345,-0.6699,39.551,-5.005,-5.31,-161.708,-11.332,-19.127
5211,0.1519,-0.3779,-0.6655,33.386,4.578,-9.033,-161.191,-11.821,-18.946
5222,0.2759,-0.3623,-0.9136,33.386,4.578,-9.033,-161.257,-12.068,-18.913
5251,0.3154,-0.292,-1.1948,6.287,15.564,-6.409,-161.296,-12.645,-18.88
5262,0.3091,-0.292,-1.2349,16.479,12.695,-4.822,-161.131,-12.783,-18.875
5271,0.3091,-0.292,-1.2349,16.479,12.695,-4.822,-160.862,-12.881,-18.869
5281,0.2349,-0.3247,-1.0566,16.479,12.695,-4.822,-160.51,-12.887,-18.858
5291,0.1636,-0.3286,-0.8706,39.001,-9.033,3.235,-160.12,-12.794,-18.858
5311,0.1167,-0.3247,-0.7354,28.809,-8.667,6.958,-159.45,-12.541,-18.913
5321,0.1167,-0.3247,-0.7354,16.052,-1.953,5.798,-159.28,-12.502,-18.962
5331,0.1167,-0.3247,-0.7354,16.052,-1.953,5.798,-159.252,-12.596,-19.017
5342,0.2861,-0.3164,-1.0454,-10.315,20.874,-4.395,-159.351,-12.805,-19.05
5351,0.3169,-0.2905,-1.1851,-17.212,18.738,-4.517,-159.516,-12.997,-19.072
5361,0.2979,-0.251,-1.2031,-13.794,9.399,-0.366,-159.648,-13.085,-19.105
5371,0.2358,-0.2187,-1.1206,-0.366,-1.892,2.93,-159.648,-13.057,-19.127
5391,0.1958,-0.2358,-1.0259,25.33,-7.996,2.38,-159.241,-12.881,-19.127
5411,0.229,-0.3701,-0.9858,19.165,-2.869,-2.563,-158.807,-12.816,-19.067
5420,0.2388,-0.3809,-0.9961,19.165,-2.869,-2.563,-158.73,-12.805,-19.028
5431,0.2329,-0.4014,-0.9453,-0.366,-3.54,-2.747,-158.741,-12.783,-18.99
5441,0.2329,-0.4014,-0.9453,-0.366,-3.54,-2.747,-158.818,-12.695,-18.957
5451,0.1816,-0.3442,-0.7964,-12.756,-11.108,3.052,-158.95,-12.585,-18.946
5460,0.1816,-0.3442,-0.7964,-12.756,-11.108,3.052,-159.115,-12.508,-18.946
5471,0.1816,-0.3442,-0.7964,-22.217,-3.723,1.831,-159.335,-12.464,-18.946
5481,0.2085,-0.3296,-0.9326,-22.217,-3.723,1.831,-159.609,-12.469,-18.962
5500,0.2773,-0.2959,-1.0933,-33.325,11.536,-5.127,-160.274,-12.7,-18.962
5510,0.2593,-0.2417,-1.1011,-25.452,6.226,-3.357,-160.532,-12.772,-18.951
5521,0.2646,-0.2612,-1.0342,-10.01,3.54,-2.747,-160.686,-12.821,-18.94
5540,0.2231,-0.2876,-0.9233,-10.01,3.54,-2.747,-160.483,-12.684,-18.918
5550,0.2231,-0.2876,-0.9233,15.137,-5.188,2.625,-160.296,-12.634,-18.924
5561,0.2275,-0.3623,-0.9307,4.822,-2.747,1.099,-160.236,-12.607,-18.924
5580,0.2549,-0.3486,-1.0249,-8.606,5.737,-2.197,-160.411,-12.695,-18.929
5590,0.2549,-0.3486,-1.0249,-7.446,7.996,-4.395,-160.538,-12.794,-18.913
5601,0.3306,-0.333,-1.2031,-1.77,5.92,-5.676,-160.604,-12.892,-18.88
5620,0.252,-0.3101,-1.0283,-1.77,5.92,-5.676,-160.318,-12.546,-18.842
5650,0.019,-0.334,-0.3374,-1.77,5.92,-5.676,-159.428,-11.525,-18.99
5660,0.1362,-0.418,-0.6152,-1.77,4.7,4.395,-159.434,-11.552,-19.045
5670,0.3179,-0.4429,-0.9844,-31.86,37.17,-13.367,-159.747,-11.948,-19.05
5690,0.46,-0.3887,-1.3652,-66.711,32.471,-11.597,-161.016,-12.777,-19.034
5700,0.4209,-0.1689,-1.5576,-47.607,7.935,-1.709,-161.488,-12.859,-19.045
5719,0.2881,-0.1191,-1.3892,44.25,-26.062,10.254,-161.098,-12.409,-19.072
5740,0.0767,-0.3779,-0.6714,80.017,-30.64,9.827,-159.538,-11.75,-19.067
5759,0.1157,-0.4819,-0.6157,15.198,-3.723,-2.625,-158.829,-11.558,-19.006
5770,0.1738,-0.4546,-0.6914,-25.024,0.671,-3.906,-159.088,-11.58,-18.973
5780,0.1792,-0.3296,-0.7915,-49.561,4.883,-3.845,-159.587,-11.64,-18.957
5799,0.1792,-0.3296,-0.7915,-49.561,4.883,-3.845,-160.576,-11.992,-18.929
5809,0.1792,-0.3296,-0.7915,-49.561,4.883,-3.845,-160.779,-12.206,-18.913
5829,0.3193,-0.291,-1.2075,2.441,9.033,-5.371,-160.565,-12.261,-18.891
5839,0.3193,-0.291,-1.2075,30.579,-11.658,6.836,-160.252,-12.129,-18.918
5849,0.1504,-0.3687,-0.7998,34.058,-11.719,7.019,-159.906,-11.992,-18.946
5869,0.2104,-0.4233,-0.854,5.676,4.089,0.183,-159.604,-11.975,-18.973
5889,0.2915,-0.3423,-1.0894,-25.452,14.648,-3.235,-159.988,-12.211,-19.023
5909,0.3047,-0.3081,-1.1401,-10.437,3.967,0.916,-160.318,-12.376,-19.056
5919,0.229,-0.2744,-1.0083,9.094,-1.709,3.601,-160.225,-12.349,-19.089
5929,0.1973,-0.3003,-0.9141,24.902,-5.371,5.432,-159.966,-12.283,-19.122
5949,0.1973,-0.3672,-0.9473,25.635,-0.732,4.395,-159.39,-12.189,-19.204
5959,0.1973,-0.3672,-0.9473,12.939,7.141,-0.244,-159.258,-12.255,-19.226
5969,0.3174,-0.3877,-1.3042,0.244,14.526,-6.714,-159.258,-12.415,-19.215
5978,0.3516,-0.375,-1.3857,-7.202,15.381,-11.475,-159.34,-12.601,-19.16
5989,0.3193,-0.3228,-1.2979,-7.202,15.381,-11.475,-159.395,-12.673,-19.083
5999,0.2124,-0.2432,-1.0674,10.01,-14.282,-1.16,-159.307,-12.541,-19.023
6018,0.0386,-0.2661,-0.5137,10.01,-14.282,-1.16,-158.566,-11.931,-18.94
6029,-0.0107,-0.3027,-0.2729,46.57,-35.339,12.268,-158.104,-11.558,-18.924
6039,-0.0269,-0.3589,-0.1655,35.95,-27.344,10.742,-157.742,-11.261,-18.924
6058,0.0327,-0.4204,-0.3081,-16.785,24.109,-9.521,-157.769,-11.437,-18.935
6069,0.0327,-0.4204,-0.3081,-16.785,24.109,-9.521,-158.269,-11.931,-18.913
6079,0.4331,-0.376,-1.3203,-68.298,46.509,-19.775,-158.95,-12.437,-18.902
6088,0.4331,-0.376,-1.3203,-64.941,34.424,-12.268,-159.598,-12.799,-18.913
6098,0.4004,-0.187,-1.5454,-39.673,14.587,-3.418,-159.994,-12.947,-18.935
6108,0.3213,-0.1914,-1.4321,-2.014,-3.052,1.465,-160.01,-12.914,-18.935
6129,0.1953,-0.3472,-1.0381,-2.014,-3.052,1.465,-159.104,-12.53,-18.875
6138,0.145,-0.4155,-0.811,62.012,-24.902,5.981,-158.494,-12.277,-18.842
6148,0.0938,-0.4302,-0.6709,50.964,-23.376,6.592,-157.989,-12.036,-18.82
6178,0.2705,-0.4063,-0.9077,50.964,-23.376,6.592,-157.846,-12.068,-18.803
6188,0.3047,-0.3423,-0.9639,-24.78,7.874,-2.38,-158.093,-12.151,-18.814
6198,0.2808,-0.2808,-0.9404,-24.78,7.874,-2.38,-158.291,-12.162,-18.825
6218,0.2144,-0.2803,-0.6895,5.31,-7.202,4.761,-158.313,-12.03,-18.858
6228,0.168,-0.3223,-0.5059,10.62,-12.39,6.226,-158.203,-11.887,-18.869
6238,0.168,-0.3223,-0.5059,7.813,-15.076,7.324,-158.121,-11.722,-18.885
6248,0.168,-0.3223,-0.5059,-3.662,-11.902,8.057,-158.154,-11.58,-18.913
6258,0.168,-0.3223,-0.5059,-3.662,-11.902,8.057,-158.401,-11.618,-18.962
6277,0.3027,-0.458,-0.7944,-53.894,36.377,-9.583,-159.703,-12.612,-19.05
6288,0.606,-0.3921,-1.7856,-85.815,62.805,-17.273,-160.549,-13.26,-19.105
6298,0.6201,-0.2744,-2.0581,-67.81,43.823,-6.47,-161.208,-13.694,-19.193
6328,0.208,-0.2905,-1.4243,76.233,-35.156,18.372,-160.433,-13.293,-19.446
6338,0.0596,-0.3589,-0.9639,110.962,-49.866,23.437,-159.307,-12.75,-19.501
6347,0.0596,-0.3589,-0.9639,110.962,-49.866,23.437,-158.137,-12.233,-19.545
6357,-0.0181,-0.4517,-0.2842,89.478,-35.522,17.944,-157.236,-11.838,-19.578
6368,-0.0181,-0.4517,-0.2842,89.478,-35.522,17.944,-156.742,-11.591,-19.627
6387,0.0503,-0.3486,-0.165,7.69,-6.287,11.292,-156.89,-11.552,-19.797
6397,0.2344,-0.2715,-0.7456,-48.218,29.968,-6.409,-157.357,-11.854,-19.858
6407,0.335,-0.2402,-1.0693,-59.692,43.335,-16.907,-157.956,-12.316,-19.869
6427,0.3516,-0.1494,-1.3813,-59.692,43.335,-16.907,-159.022,-13.035,-19.775
6437,0.3091,-0.1665,-1.3818,-25.879,10.742,-14.771,-159.302,-13.189,-19.671
6457,0.2964,-0.2388,-1.3184,-25.879,10.742,-14.771,-159.384,-13.211,-19.286
6467,0.2153,-0.3779,-1.0562,13.916,-22.156,-14.954,-159.296,-13.057,-19.061
6477,0.1895,-0.4165,-0.9136,14.16,-24.231,-10.071,-159.197,-12.865,-18.875
6497,0.168,-0.4199,-0.7266,0.0,-17.761,-3.113,-159.17,-12.541,-18.638
6507,0.168,-0.4199,-0.7266,-7.446,-11.902,2.563,-159.247,-12.42,-18.616
6517,0.1777,-0.3896,-0.6274,-11.658,-6.897,7.751,-159.357,-12.327,-18.666
6557,0.2739,-0.3691,-0.9741,-25.208,13.55,15.625,-160.126,-12.409,-19.33
6566,0.2739,-0.3691,-0.9741,-25.208,13.55,15.625,-160.45,-12.535,-19.495
6587,0.2651,-0.2397,-1.2695,-24.231,5.737,9.705,-160.977,-12.656,-19.742
6616,0.209,-0.2778,-1.1323,13.611,-9.888,8.606,-160.873,-12.469,-19.957
6627,0.209,-0.2778,-1.1323,21.484,-12.756,9.705,-160.648,-12.321,-20.012
6656,0.1758,-0.3369,-0.8257,19.409,-12.939,7.446,-159.961,-11.86,-20.105
6667,0.188,-0.3384,-0.8027,13.367,-9.277,5.432,-159.824,-11.755,-20.121
6686,0.2187,-0.3052,-0.875,0.671,-2.014,1.526,-159.747,-11.656,-20.143
6696,0.2485,-0.3076,-0.938,-4.272,3.54,-2.93,-159.791,-11.7,-20.132
6707,0.2573,-0.3018,-1.0381,-6.592,4.761,-6.165,-159.868,-11.766,-20.089
6716,0.2573,-0.3018,-1.0381,-7.019,6.531,-7.813,-159.95,-11.854,-20.034
6726,0.3101,-0.3398,-1.269,-7.019,6.531,-7.813,-160.01,-11.953,-19.968
6736,0.2954,-0.3447,-1.3257,-1.953,2.563,-8.301,-160.043,-12.003,-19.896
6756,0.2886,-0.3574,-1.3081,15.381,-5.554,-4.211,-159.868,-11.986,-19.781
6766,0.2886,-0.3574,-1.3081,26.306,-13.306,0.061,-159.615,-11.86,-19.731
6776,0.167,-0.3735,-0.8301,36.011,-15.747,4.15,-159.258,-11.7,-19.72
6796,0.145,-0.3833,-0.6719,36.011,-15.747,4.15,-158.533,-11.404,-19.759
6806,0.1543,-0.3623,-0.562,20.935,-5.554,7.996,-158.313,-11.321,-19.814
6836,0.2256,-0.3052,-0.7456,-25.269,12.817,-0.793,-158.632,-11.552,-19.973
6846,0.229,-0.2695,-0.8784,-29.419,12.451,-2.075,-158.923,-11.678,-20.001
6875,0.2715,-0.2617,-1.0088,-22.4,17.212,-9.155,-159.576,-12.167,-19.94
6886,0.2822,-0.3081,-1.2275,-4.517,4.395,-5.92,-159.692,-12.233,-19.902
6905,0.2666,-0.3345,-1.2222,9.033,-4.7,-3.235,-159.675,-12.206,-19.808
6915,0.229,-0.3765,-1.1143,14.832,-7.629,-1.526,-159.554,-12.129,-19.764
6926,0.207,-0.3926,-0.9912,18.738,-11.597,0.793,-159.362,-12.008,-19.731
6945,0.1709,-0.3984,-0.8608,18.738,-11.597,0.793,-158.807,-11.602,-19.742
6955,0.1372,-0.4106,-0.6621,18.677,-15.564,11.902,-158.505,-11.398,-19.797
6966,0.1304,-0.4019,-0.6313,11.719,-11.292,13.123,-158.264,-11.234,-19.88
6985,0.1411,-0.3828,-0.6772,-9.094,6.836,8.972,-158.192,-11.179,-20.094
6995,0.2427,-0.3555,-0.9971,-9.094,6.836,8.972,-158.373,-11.321,-20.198
7015,0.2852,-0.3389,-1.1553,-17.578,10.925,2.808,-158.857,-11.596,-20.352
7025,0.2529,-0.2842,-1.2422,-6.042,1.038,5.432,-158.989,-11.585,-20.407
7035,0.2173,-0.2949,-1.1943,8.179,-5.188,6.714,-158.972,-11.497,-20.457
7055,0.2031,-0.3198,-1.1313,24.902,-7.507,4.395,-158.615,-11.294,-20.495
7075,0.2036,-0.4004,-1.0483,18.982,-7.507,4.089,-158.198,-11.102,-20.517
7095,0.2026,-0.3945,-1.0186,18.982,-7.507,4.089,-157.961,-10.893,-20.55
7105,0.1504,-0.3296,-0.877,8.667,-13.306,7.202,-157.885,-10.728,-20.566
7125,0.1284,-0.313,-0.7212,9.216,-13.672,5.493,-157.714,-10.393,-20.577
7145,0.1226,-0.3511,-0.6348,5.188,-10.742,3.479,-157.478,-10.129,-20.561
7164,0.1431,-0.3652,-0.6563,5.188,-10.742,3.479,-157.478,-10.124,-20.55
7185,0.2686,-0.3789,-1.0269,-23.56,11.963,-4.578,-157.896,-10.404,-20.555
7204,0.2983,-0.3599,-1.1538,-20.508,5.676,-1.16,-158.445,-10.635,-20.577
7214,0.2827,-0.3467,-1.2549,-10.986,-1.221,0.427,-158.615,-10.64,-20.577
7225,0.2456,-0.3501,-1.2139,-0.732,-8.179,2.38,-158.676,-10.558,-20.566
7244,0.2456,-0.3501,-1.2139,16.724,-15.808,6.104,-158.461,-10.239,-20.561
7254,0.2456,-0.3501,-1.2139,16.724,-15.808,6.104,-158.247,-10.047,-20.566
7265,0.1279,-0.3872,-0.7813,18.799,-14.099,7.08,-158.011,-9.871,-20.583
7274,0.1323,-0.394,-0.7373,13.245,-9.583,6.348,-157.813,-9.756,-20.605
7294,0.1479,-0.3828,-0.7437,-4.211,-1.343,4.395,-157.681,-9.662,-20.671
7314,0.1968,-0.3633,-0.8965,-17.212,7.385,1.404,-157.934,-9.772,-20.753
7334,0.2358,-0.3516,-1.0908,-20.264,11.414,-1.465,-158.39,-10.014,-20.819
7354,0.2202,-0.3218,-1.1333,-11.536,3.906,0.244,-158.785,-10.14,-20.858
7364,0.2202,-0.3218,-1.1333,-2.319,-1.221,0.427,-158.857,-10.124,-20.858
7394,0.1675,-0.3389,-1.0137,6.958,-3.601,-0.122,-158.681,-9.981,-20.819
7404,0.1748,-0.3716,-0.9302,3.601,-1.587,-0.793,-158.643,-9.965,-20.808
7423,0.1836,-0.3706,-0.9365,2.441,0.244,-0.732,-158.599,-9.981,-20.792
7444,0.1631,-0.3682,-0.8911,5.31,-0.61,1.038,-158.489,-9.97,-20.797
7454,0.167,-0.3706,-0.897,5.31,-0.61,1.038,-158.423,-9.97,-20.814
7463,0.1914,-0.3828,-0.9458,5.31,-0.61,1.038,-158.384,-10.003,-20.836
7473,0.2153,-0.3911,-1.0532,-0.61,5.92,0.061,-158.401,-10.063,-20.858
7503,0.2432,-0.3979,-1.1772,-10.071,5.127,-0.061,-158.763,-10.305,-20.912
7513,0.231,-0.3218,-1.2559,-1.709,-2.625,2.747,-158.846,-10.272,-20.929
7523,0.1797,-0.2778,-1.1265,-1.709,-2.625,2.747,-158.774,-10.146,-20.94
7533,0.1362,-0.2783,-0.9731,-1.709,-2.625,2.747,-158.505,-9.981,-20.934
7553,0.1064,-0.3643,-0.6997,44.495,-15.259,3.113,-157.582,-9.63,-20.885
7583,0.0874,-0.3721,-0.5122,3.723,-7.08,2.686,-156.649,-9.223,-20.852
7593,0.1118,-0.3667,-0.5298,-9.338,0.183,0.183,-156.627,-9.229,-20.852
7603,0.1118,-0.3667,-0.5298,-9.338,0.183,0.183,-156.709,-9.338,-20.863
7613,0.1118,-0.3667,-0.5298,-23.376,15.137,-4.639,-156.896,-9.531,-20.885
7642,0.2173,-0.3672,-0.8496,-36.621,20.813,-5.981,-157.956,-10.272,-20.956
7663,0.2764,-0.3364,-1.3057,-26.367,10.864,-5.371,-158.687,-10.596,-20.956
7682,0.2217,-0.3413,-1.2715,-5.249,-3.723,-1.404,-159.038,-10.591,-20.901
7703,0.166,-0.3599,-1.0928,13.672,-9.827,0.671,-158.939,-10.382,-20.847
7722,0.1499,-0.3721,-0.9956,20.63,-9.827,2.075,-158.549,-10.135,-20.803
7733,0.1499,-0.3721,-0.9956,20.63,-9.827,2.075,-158.335,-10.036,-20.797
7743,0.1455,-0.3896,-0.8315,14.587,-5.31,1.953,-158.159,-9.97,-20.797
7752,0.1455,-0.3896,-0.8315,14.587,-5.31,1.953,-158.033,-9.937,-20.792
7762,0.1455,-0.3896,-0.8315,2.991,-1.343,0.549,-157.989,-9.921,-20.792
7772,0.1733,-0.3657,-0.8672,-3.174,0.671,0.488,-158.011,-9.932,-20.803
7792,0.207,-0.3545,-0.9683,-6.47,4.272,0.061,-158.176,-10.052,-20.836
7812,0.2256,-0.3652,-1.0464,-7.813,6.409,1.099,-158.384,-10.19,-20.896
7832,0.2241,-0.3413,-1.0571,-0.244,3.052,2.075,-158.494,-10.283,-20.967
7842,0.2168,-0.3384,-1.0371,6.836,1.16,2.441,-158.456,-10.294,-20.995
7862,0.2163,-0.353,-0.9976,17.517,-1.465,3.113,-158.17,-10.283,-21.044
7872,0.2163,-0.353,-0.9976,19.897,-3.052,3.54,-157.956,-10.25,-21.066
7882,0.1831,-0.3975,-0.8467,19.897,-3.052,3.54,-157.731,-10.212,-21.094
7902,0.1758,-0.4102,-0.7969,9.094,-1.526,5.981,-157.363,-10.146,-21.182
7912,0.167,-0.4116,-0.7534,1.16,-0.122,6.653,-157.28,-10.124,-21.242
7922,0.1631,-0.4009,-0.7563,-6.897,0.671,7.629,-157.286,-10.107,-21.319
7931,0.1719,-0.3892,-0.7803,-6.897,0.671,7.629,-157.368,-10.118,-21.401
7941,0.1719,-0.3892,-0.7803,-18.738,5.798,5.432,-157.522,-10.162,-21.473
7952,0.1948,-0.3691,-0.9033,-21.118,7.629,3.113,-157.72,-10.228,-21.533
7962,0.2119,-0.3657,-0.9746,-20.142,8.362,2.075,-157.928,-10.311,-21.583
7971,0.2119,-0.3657,-0.9746,-16.602,8.667,0.916,-158.115,-10.399,-21.627
7981,0.2119,-0.3657,-0.9746,-12.451,7.507,-0.122,-158.275,-10.475,-21.654
7992,0.2314,-0.3652,-1.1597,-12.451,7.507,-0.122,-158.379,-10.525,-21.676
8021,0.1948,-0.3906,-1.0962,16.724,-4.333,1.587,-158.22,-10.448,-21.693
8032,0.1753,-0.4058,-1.0225,22.156,-8.362,2.258,-158.005,-10.344,-21.682
8051,0.1489,-0.4087,-0.9458,24.048,-12.451,3.418,-157.495,-10.036,-21.654
8061,0.1143,-0.4106,-0.8013,19.043,-13.55,3.662,-157.264,-9.866,-21.638
8071,0.0996,-0.3955,-0.7612,11.658,-11.902,2.93,-157.104,-9.717,-21.616
8101,0.1162,-0.3398,-0.7588,-16.052,2.319,-3.052,-157.236,-9.586,-21.572
8111,0.1367,-0.3325,-0.8188,-20.752,5.615,-5.31,-157.451,-9.646,-21.544
8122,0.1733,-0.3423,-0.8979,-22.644,8.789,-7.751,-157.698,-9.761,-21.506
8131,0.1733,-0.3423,-0.8979,-22.644,8.789,-7.751,-157.972,-9.893,-21.451
8141,0.2266,-0.3403,-1.1001,-22.034,8.728,-10.559,-158.247,-10.025,-21.385
8161,0.2573,-0.3584,-1.2275,-16.602,7.141,-10.62,-158.626,-10.223,-21.242
8171,0.2573,-0.3584,-1.2275,1.587,-1.648,-6.348,-158.67,-10.234,-21.176
8181,0.231,-0.3784,-1.1973,8.606,-7.324,-3.723,-158.632,-10.184,-21.11
8201,0.209,-0.4014,-1.0845,12.695,-12.756,0.488,-158.439,-9.981,-21.011
8211,0.1841,-0.3931,-1.0127,10.254,-15.625,3.113,-158.346,-9.822,-20.984
8230,0.1694,-0.3906,-0.9395,8.057,-15.442,4.333,-158.203,-9.498,-20.945
8240,0.1226,-0.3672,-0.8013,8.057,-15.442,4.333,-158.214,-9.355,-20.918
8251,0.1182,-0.356,-0.7446,-13.489,-7.996,0.549,-158.313,-9.267,-20.896
8270,0.1182,-0.3496,-0.7256,-27.771,-3.113,-2.38,-158.983,-9.283,-20.814
8291,0.1611,-0.2373,-0.8252,-70.374,12.512,-12.756,-160.351,-9.569,-20.676
8310,0.1611,-0.2373,-0.8252,-70.374,12.512,-12.756,-161.79,-10.08,-20.468
8320,0.2202,-0.2183,-1.04,-45.105,19.958,-19.897,-162.323,-10.344,-20.336
8350,0.2524,-0.3091,-1.1758,-30.151,18.555,-19.104,-163.081,-10.964,-20.017
8360,0.2524,-0.3091,-1.1758,-7.263,7.813,-8.301,-163.185,-11.069,-19.957
8371,0.2646,-0.3271,-1.2158,-3.845,3.357,-4.822,-163.246,-11.124,-19.918
8380,0.2646,-0.3271,-1.2158,2.197,1.099,-1.831,-163.246,-11.146,-19.907
8390,0.2705,-0.3213,-1.23,12.146,1.099,0.549,-163.147,-11.162,-19.913
8400,0.2773,-0.3247,-1.2222,25.94,0.183,3.845,-162.9,-11.168,-19.951
8420,0.2681,-0.3311,-1.189,25.94,0.183,3.845,-161.988,-11.003,-20.116
8430,0.1997,-0.3301,-0.9971,58.899,-12.756,15.198,-161.384,-10.833,-20.226
8440,0.1538,-0.3301,-0.8701,60.547,-16.174,15.747,-160.746,-10.618,-20.325
8460,0.1011,-0.3403,-0.6367,60.547,-16.174,15.747,-159.505,-10.212,-20.473
8470,0.0835,-0.3457,-0.5386,38.025,-11.963,9.033,-159.0,-10.042,-20.517
8500,0.063,-0.3306,-0.4829,-17.334,8.606,-4.089,-158.648,-9.998,-20.55
8510,0.188,-0.3188,-0.7095,-31.494,16.541,-7.141,-158.934,-10.212,-20.544
8520,0.2627,-0.3354,-0.9146,-38.025,23.315,-8.545,-159.318,-10.503,-20.55
8550,0.3789,-0.3184,-1.4067,-24.902,14.404,-1.221,-160.466,-11.272,-20.638
8559,0.3789,-0.3184,-1.4067,-24.902,14.404,-1.221,-160.642,-11.327,-20.676
8569,0.3789,-0.3184,-1.4067,5.432,-3.052,4.211,-160.653,-11.294,-20.704
8579,0.2617,-0.3096,-1.2729,5.432,-3.052,4.211,-160.51,-11.201,-20.726
8590,0.2207,-0.3262,-1.1514,29.846,-12.878,5.005,-160.252,-11.058,-20.731
8609,0.1538,-0.3403,-0.9102,29.846,-12.878,5.005,-159.587,-10.728,-20.715
8639,0.1172,-0.3462,-0.7388,29.846,-12.878,5.005,-158.703,-10.366,-20.676
8659,0.1016,-0.3354,-0.6431,4.395,2.197,-0.854,-158.417,-10.311,-20.676
8679,0.1191,-0.3442,-0.6514,-13.733,10.437,-6.348,-158.489,-10.492,-20.649
8689,0.1621,-0.3486,-0.772,-13.733,10.437,-6.348,-158.687,-10.651,-20.621
8699,0.2002,-0.3594,-0.874,-28.442,15.93,-9.766,-158.967,-10.844,-20.588
8719,0.2002,-0.3594,-0.874,-28.442,15.93,-9.766,-159.631,-11.25,-20.533
8729,0.2651,-0.3623,-1.1416,-28.748,14.526,-6.165,-159.944,-11.415,-20.528
8748,0.2695,-0.353,-1.1909,-24.109,13.0,-4.395,-160.439,-11.678,-20.544
8769,0.2466,-0.3438,-1.1162,-9.094,5.493,1.709,-160.708,-11.81,-20.599
8788,0.2031,-0.3276,-0.9897,-2.869,3.418,5.432,-160.785,-11.832,-20.715
8809,0.1821,-0.3071,-0.875,-3.906,4.517,5.432,-160.823,-11.86,-20.847
8828,0.1807,-0.2813,-0.8301,-9.277,5.432,1.648,-160.961,-11.931,-20.94
8838,0.1807,-0.2813,-0.8301,-12.085,6.836,-0.977,-161.071,-12.003,-20.951
8868,0.1997,-0.2959,-0.8662,-19.836,5.371,-7.568,-161.653,-12.233,-20.852
8878,0.2529,-0.313,-1.0547,-21.606,3.723,-8.423,-161.9,-12.305,-20.781
8908,0.271,-0.29,-1.2007,-12.634,-5.859,-7.385,-162.576,-12.316,-20.528
8918,0.2495,-0.2886,-1.1816,-5.493,-10.193,-5.798,-162.686,-12.228,-20.44
8948,0.1592,-0.2915,-0.9102,-5.493,-10.193,-5.798,-162.554,-11.876,-20.22
8967,0.1382,-0.2915,-0.8242,11.902,-9.399,-4.639,-162.328,-11.689,-20.078
8978,0.1382,-0.2915,-0.8242,-1.953,-4.944,-4.211,-162.312,-11.635,-20.023
8988,0.1382,-0.2915,-0.8242,-11.475,-0.183,-5.554,-162.394,-11.646,-19.968
9007,0.1787,-0.2861,-0.7852,-11.475,-0.183,-5.554,-162.839,-11.854,-19.852
9018,0.2754,-0.2832,-1.0552,-11.475,-0.183,-5.554,-163.125,-12.063,-19.797
9028,0.3311,-0.2808,-1.2012,-21.545,19.287,-11.719,-163.389,-12.31,-19.737
9047,0.3618,-0.2827,-1.3081,-5.859,10.132,-9.216,-163.707,-12.667,-19.616
9058,0.3516,-0.2656,-1.3911,4.15,1.892,-7.263,-163.74,-12.722,-19.55
9068,0.3218,-0.2808,-1.3188,16.541,-3.967,-5.676,-163.63,-12.706,-19.484
9077,0.3218,-0.2808,-1.3188,27.832,-10.803,-3.601,-163.394,-12.607,-19.418
9108,0.1416,-0.3447,-0.731,40.527,-16.357,0.671,-162.125,-12.085,-19.265
9118,0.125,-0.3516,-0.6187,32.41,-12.878,0.0,-161.697,-11.942,-19.221
9127,0.125,-0.3516,-0.6187,20.142,-7.446,-1.282,-161.367,-11.854,-19.188
9137,0.1128,-0.3379,-0.5239,7.202,0.977,-3.601,-161.164,-11.86,-19.155
9157,0.1973,-0.3237,-0.7036,-16.663,16.846,-6.348,-161.208,-12.167,-19.127
9167,0.1973,-0.3237,-0.7036,-23.437,23.682,-6.897,-161.428,-12.453,-19.138
9177,0.3345,-0.3071,-1.0962,-26.245,26.001,-6.531,-161.713,-12.755,-19.16
9197,0.3833,-0.29,-1.2915,-14.771,19.653,-5.859,-162.208,-13.277,-19.182
9207,0.3774,-0.2715,-1.4326,-3.052,8.85,-3.601,-162.307,-13.381,-19.177
9227,0.2808,-0.2881,-1.2417,24.353,-9.277,2.319,-162.07,-13.271,-19.16
9247,0.1685,-0.2969,-0.9043,33.325,-15.808,4.517,-161.384,-12.865,-19.149
9267,0.1172,-0.3145,-0.6616,39.246,-18.188,5.737,-160.582,-12.453,-19.144
9287,0.1606,-0.3105,-0.623,8.118,-1.77,4.211,-160.142,-12.332,-19.193
9317,0.2515,-0.2554,-0.9321,-18.799,-0.61,7.874,-160.466,-12.327,-19.391
9336,0.2617,-0.2344,-1.043,-21.24,-1.282,6.775,-161.01,-12.294,-19.484
9346,0.2617,-0.2344,-1.043,-17.09,-2.502,1.099,-161.252,-12.277,-19.484
9357,0.2495,-0.2339,-1.0942,-11.841,-6.042,-0.244,-161.444,-12.228,-19.462
9397,0.1821,-0.2949,-0.8701,-5.859,-9.766,-3.418,-161.785,-11.86,-19.237
9416,0.1919,-0.3301,-0.8052,-16.052,-2.319,-5.371,-161.999,-11.805,-19.111
9436,0.228,-0.3525,-0.9053,-23.071,4.089,-4.211,-162.361,-11.915,-19.039
9466,0.2754,-0.3306,-1.125,-20.569,3.967,1.831,-163.021,-12.14,-19.067
9476,0.2725,-0.3169,-1.1514,-15.442,2.502,3.174,-163.185,-12.162,-19.105
9486,0.2725,-0.3169,-1.1514,-15.442,2.502,3.174,-163.279,-12.167,-19.138
9496,0.2725,-0.3169,-1.1514,-4.272,-2.625,4.211,-163.328,-12.123,-19.171
9506,0.2168,-0.2861,-1.0542,-4.272,-2.625,4.211,-163.339,-12.068,-19.21
9536,0.3213,-0.3135,-1.332,1.221,13.123,-1.221,-163.334,-12.206,-19.303
9546,0.3779,-0.2793,-1.5415,-4.333,15.869,-2.136,-163.372,-12.365,-19.325
9566,0.3779,-0.2793,-1.5415,7.874,-5.066,4.517,-163.317,-12.464,-19.374
9576,0.1938,-0.1963,-1.0142,27.893,-34.058,17.7,-163.026,-12.085,-19.451
9595,0.0522,-0.1875,-0.603,49.866,-46.936,26.123,-161.955,-10.981,-19.682
9605,-0.1157,-0.2319,0.0117,34.607,-48.401,26.489,-161.587,-10.437,-19.786
9635,-0.1211,-0.2715,0.1382,34.607,-48.401,26.489,-162.18,-10.102,-19.891
9645,0.3555,-0.4263,-0.8638,-68.542,43.03,-13.245,-162.867,-10.552,-19.902
9656,0.4731,-0.3638,-1.3081,-83.74,43.335,-10.498,-163.696,-10.997,-19.929
9675,0.439,-0.1792,-1.7554,-62.378,15.076,5.188,-165.125,-11.426,-20.083
9685,0.3452,-0.165,-1.7461,-62.378,15.076,5.188,-165.421,-11.376,-20.165
9705,0.1924,-0.2524,-1.3853,25.879,-27.344,11.475,-165.136,-10.909,-20.259
9715,0.1021,-0.2852,-1.1357,38.513,-36.194,14.038,-164.745,-10.525,-20.303
9725,0.0635,-0.3066,-0.9253,40.466,-35.522,13.672,-164.333,-10.146,-20.341
9745,0.0571,-0.3184,-0.6875,32.898,-28.809,10.681,-163.795,-9.608,-20.385
9755,0.0825,-0.3101,-0.6724,8.179,-15.503,6.287,-163.713,-9.437,-20.402
9765,0.1094,-0.2925,-0.6826,-1.587,-10.559,5.676,-163.724,-9.322,-20.429
9795,0.2139,-0.2549,-0.9653,-11.78,-0.549,4.028,-164.042,-9.278,-20.522
9805,0.229,-0.2544,-1.0747,-14.099,5.981,-0.061,-164.18,-9.333,-20.533
9814,0.229,-0.2544,-1.0747,-14.099,5.981,-0.061,-164.295,-9.388,-20.555
9835,0.2334,-0.2852,-1.3003,0.366,1.099,-0.488,-164.339,-9.465,-20.561
9865,0.1729,-0.2798,-1.106,19.409,-10.254,1.831,-163.943,-9.267,-20.539
9875,0.1226,-0.2646,-0.9648,24.109,-15.198,3.418,-163.702,-9.113,-20.533
9894,0.0869,-0.2759,-0.6914,24.109,-15.198,3.418,-163.13,-8.817,-20.5
9904,0.0562,-0.2798,-0.5674,21.606,-13.123,1.709,-162.922,-8.685,-20.479
9915,0.041,-0.2866,-0.4814,9.949,-9.277,-1.038,-162.828,-8.602,-20.44
9934,0.0576,-0.292,-0.478,-15.015,13.367,-9.827,-163.015,-8.773,-20.336
9944,0.2632,-0.3682,-0.8721,-15.015,13.367,-9.827,-163.328,-9.042,-20.286
9955,0.3696,-0.3848,-1.2075,-46.509,25.208,-9.888,-163.795,-9.311,-20.264
9974,0.4648,-0.2866,-1.7632,-51.697,0.061,7.813,-164.855,-9.459,-20.363
9984,0.3813,-0.2061,-1.7915,-28.015,-23.682,20.203,-165.114,-9.179,-20.495
10014,0.2412,-0.1592,-1.6079,60.486,-51.331,33.081,-163.4,-7.52,-21.033
10024,0.0322,-0.3193,-0.7261,92.224,-46.326,31.189,-162.455,-6.982,-21.204
10044,0.0127,-0.3066,-0.4248,42.847,-30.823,28.748,-161.252,-6.136,-21.555
10054,0.0068,-0.2466,-0.3618,12.939,-20.813,24.719,-161.109,-5.861,-21.72
10064,0.0103,-0.2041,-0.3604,-9.644,-7.874,17.151,-161.191,-5.729,-21.857
10084,0.0103,-0.2041,-0.3604,-27.832,26.184,-1.587,-161.669,-6.042,-22.028
10094,0.1597,-0.2251,-0.8062,-27.832,26.184,-1.587,-162.01,-6.471,-22.083
10114,0.2563,-0.2397,-1.2407,-41.809,51.453,-13.55,-162.817,-7.542,-22.148
10124,0.2563,-0.2397,-1.2407,-37.964,42.786,-10.925,-163.191,-7.987,-22.17
10134,0.2754,-0.2622,-1.5747,-27.649,29.724,-6.958,-163.466,-8.289,-22.192
10143,0.2754,-0.2622,-1.5747,-27.649,29.724,-6.958,-163.614,-8.416,-22.203
10164,0.2754,-0.2622,-1.5747,2.625,-1.16,1.465,-163.367,-8.306,-22.231
10174,0.0835,-0.3335,-1.1196,35.461,-17.029,6.714,-163.01,-8.119,-22.242
10193,0.0835,-0.3335,-1.1196,39.062,-17.7,7.935,-162.197,-7.718,-22.286
10203,0.0835,-0.3335,-1.1196,29.724,-13.611,7.446,-161.9,-7.564,-22.313
10233,0.0781,-0.3032,-0.6064,-10.742,7.324,-0.977,-161.785,-7.548,-22.368
10243,0.1226,-0.3135,-0.7515,-22.156,14.343,-4.456,-162.01,-7.701,-22.368
10263,0.1895,-0.3345,-0.9746,-35.461,22.156,-10.01,-162.675,-8.163,-22.324
10273,0.1895,-0.3345,-0.9746,-32.043,17.639,-7.141,-162.999,-8.35,-22.308
10283,0.2573,-0.3135,-1.4326,-18.311,9.521,-2.686,-163.18,-8.448,-22.308
10293,0.2573,-0.3135,-1.4326,-18.311,9.521,-2.686,-163.152,-8.47,-22.319
10303,0.2573,-0.3135,-1.4326,22.461,-3.845,2.808,-162.927,-8.427,-22.335
10313,0.2573,-0.3135,-1.4326,34.546,-7.385,5.005,-162.576,-8.339,-22.363
10323,0.1445,-0.3691,-1.126,40.527,-6.836,4.7,-162.169,-8.262,-22.385
10332,0.1445,-0.3691,-1.126,40.527,-6.836,4.7,-161.746,-8.185,-22.407
10343,0.1445,-0.3691,-1.126,41.382,-3.479,2.991,-161.334,-8.141,-22.423
10353,0.1606,-0.3857,-1.022,37.537,-1.953,0.977,-160.955,-8.119,-22.429
10372,0.1909,-0.4106,-0.9287,26.367,-1.831,3.479,-160.384,-8.075,-22.456
10383,0.1719,-0.3828,-0.7969,22.095,-6.348,11.108,-160.153,-7.976,-22.538
10393,0.1509,-0.3452,-0.6265,17.09,-8.606,19.47,-159.961,-7.828,-22.692
10412,0.0566,-0.2441,-0.3115,17.09,-8.606,19.47,-159.84,-7.46,-23.143
10433,0.0732,-0.2422,-0.394,-30.518,8.545,21.606,-160.263,-7.344,-23.621
10442,0.0732,-0.2422,-0.394,-30.518,8.545,21.606,-160.637,-7.52,-23.846
10452,0.0732,-0.2422,-0.394,-30.518,8.545,21.606,-161.071,-7.811,-24.06
10463,0.2856,-0.3027,-1.3164,-42.114,41.321,9.949,-161.461,-8.168,-24.291
10482,0.2954,-0.2568,-1.4888,-7.202,27.649,12.207,-161.752,-8.723,-24.73
10502,0.187,-0.3018,-1.3267,26.733,6.653,11.108,-161.312,-8.91,-25.027
10522,0.1001,-0.3418,-0.8994,35.767,-4.944,13.794,-160.549,-8.696,-25.252
10532,0.0708,-0.334,-0.7417,26.733,-9.094,13.855,-160.269,-8.564,-25.356
10542,0.0669,-0.3291,-0.6538,9.705,-5.981,12.817,-160.153,-8.465,-25.455
10562,0.0859,-0.3286,-0.6304,-14.526,5.31,9.033,-160.323,-8.448,-25.664
10572,0.0859,-0.3286,-0.6304,-17.578,11.414,7.08,-160.483,-8.531,-25.768
10582,0.1719,-0.3115,-0.8848,-18.738,17.883,4.883,-160.659,-8.685,-25.878
10592,0.1719,-0.3115,-0.8848,-18.738,17.883,4.883,-160.834,-8.882,-25.977
10602,0.1719,-0.3115,-0.8848,-18.738,17.883,4.883,-160.999,-9.097,-26.076
10631,0.2021,-0.3115,-1.2227,-0.732,8.118,4.639,-161.18,-9.437,-26.312
10652,0.1445,-0.3228,-1.0249,9.521,-0.427,5.737,-161.021,-9.432,-26.422
10662,0.1367,-0.3228,-0.9419,9.521,-0.427,5.737,-160.884,-9.41,-26.477
10682,0.1367,-0.3228,-0.9419,7.141,0.854,4.822,-160.686,-9.382,-26.576
10692,0.1353,-0.3242,-0.8437,1.709,4.578,2.808,-160.664,-9.415,-26.62
10701,0.1353,-0.3242,-0.8437,1.709,4.578,2.808,-160.697,-9.476,-26.647
10711,0.1406,-0.3203,-0.9014,-8.423,7.324,-0.305,-160.779,-9.547,-26.669
10722,0.1577,-0.3228,-0.9697,-9.46,8.606,-1.648,-160.873,-9.63,-26.686
10732,0.1802,-0.3335,-1.0649,-10.193,9.094,-3.174,-160.977,-9.728,-26.686
10762,0.2148,-0.3525,-1.1992,2.502,2.075,0.061,-161.082,-9.915,-26.686
10781,0.2129,-0.3579,-1.1875,10.132,-0.549,1.404,-160.818,-9.86,-26.702
10801,0.1304,-0.3442,-0.8887,27.466,-9.277,3.845,-160.318,-9.684,-26.713
10831,0.0967,-0.3296,-0.6274,9.949,-3.296,1.221,-159.725,-9.465,-26.713
10841,0.1069,-0.3115,-0.6172,-4.639,1.221,-0.549,-159.774,-9.476,-26.713
10861,0.1655,-0.3208,-0.7886,-26.367,10.01,-6.348,-160.219,-9.651,-26.68
10871,0.2158,-0.3379,-0.9429,-31.433,14.221,-8.606,-160.538,-9.816,-26.647
10881,0.2437,-0.3472,-1.0923,-33.02,15.747,-8.484,-160.873,-9.992,-26.62
10891,0.2437,-0.3472,-1.0923,-33.02,15.747,-8.484,-161.18,-10.14,-26.592
10901,0.2563,-0.3433,-1.3359,-21.179,11.23,-5.737,-161.395,-10.267,-26.576
10911,0.2466,-0.3477,-1.3872,-21.179,11.23,-5.737,-161.499,-10.355,-26.559
10931,0.2466,-0.3477,-1.3872,-21.179,11.23,-5.737,-161.318,-10.371,-26.526
10941,0.1538,-0.3618,-1.1533,29.602,-3.784,-0.122,-161.027,-10.338,-26.516
10951,0.1299,-0.3608,-1.0073,41.199,-4.761,0.061,-160.615,-10.294,-26.499
10970,0.1152,-0.3677,-0.8022,42.786,-0.549,-4.883,-159.747,-10.272,-26.428
10981,0.1152,-0.3677,-0.8022,36.316,1.953,-8.85,-159.401,-10.322,-26.351
10991,0.1392,-0.3652,-0.728,27.344,4.272,-11.292,-159.088,-10.393,-26.257
11010,0.1714,-0.3516,-0.7559,10.925,7.08,-13.733,-158.741,-10.629,-26.054
11021,0.1772,-0.3545,-0.7915,5.493,7.996,-15.015,-158.681,-10.767,-25.939
11050,0.1914,-0.3579,-0.8301,-3.113,12.39,-16.663,-158.708,-11.31,-25.598
11080,0.2637,-0.3857,-1.0659,-6.775,13.55,-15.076,-159.011,-11.92,-25.285
11100,0.272,-0.3867,-1.2705,-6.775,13.55,-15.076,-159.049,-12.228,-25.164
11130,0.2114,-0.3916,-1.0918,31.555,10.01,0.061,-158.417,-12.502,-25.181
11140,0.2075,-0.4146,-0.9956,30.457,7.629,2.93,-158.093,-12.546,-25.236
11150,0.2075,-0.4146,-0.9956,30.457,7.629,2.93,-157.808,-12.563,-25.318
11160,0.2173,-0.418,-0.8452,14.893,5.676,9.827,-157.593,-12.585,-25.433
11170,0.2173,-0.418,-0.8452,3.54,3.723,13.123,-157.489,-12.574,-25.576
11180,0.1938,-0.3379,-0.7305,3.54,3.723,13.123,-157.5,-12.535,-25.735
11190,0.1836,-0.2813,-0.6714,3.54,3.723,13.123,-157.61,-12.491,-25.933
11210,0.1514,-0.1719,-0.5835,-25.269,0.854,24.292,-158.055,-12.365,-26.389
11230,0.1514,-0.1719,-0.5835,-31.433,11.292,15.381,-158.736,-12.398,-26.807
11240,0.1587,-0.1279,-0.647,-34.546,23.132,3.479,-159.153,-12.612,-26.927
11250,0.2163,-0.1602,-0.7461,-36.255,37.292,-9.888,-159.593,-13.024,-26.966
11269,0.334,-0.2251,-0.9624,-33.203,46.448,-24.17,-160.45,-14.15,-26.867
11290,0.3662,-0.3345,-1.1846,-23.743,26.611,-23.865,-161.115,-14.969,-26.625
11299,0.3857,-0.415,-1.2915,-23.743,26.611,-23.865,-161.411,-15.216,-26.455
11320,0.3853,-0.5,-1.3813,-24.353,0.793,-14.587,-161.993,-15.419,-26.153
11339,0.3047,-0.4868,-1.2686,8.24,-9.827,-3.174,-162.015,-15.255,-25.988
11349,0.3047,-0.4868,-1.2686,29.48,-9.46,0.488,-161.686,-15.139,-25.961
11360,0.251,-0.4702,-1.0259,42.664,-9.338,4.15,-161.197,-15.013,-25.972
11389,0.1704,-0.4243,-0.6763,52.246,-2.563,10.071,-159.258,-14.694,-26.175
11399,0.1504,-0.3682,-0.6323,41.504,-0.305,10.071,-158.73,-14.628,-26.268
11419,0.1504,-0.3682,-0.6323,0.244,7.263,5.92,-158.434,-14.645,-26.45
11429,0.1855,-0.1665,-0.7266,-18.066,8.118,2.563,-158.681,-14.705,-26.505
11449,0.2227,-0.1313,-0.8394,-18.066,8.118,2.563,-159.505,-14.985,-26.461
11469,0.3428,-0.2495,-1.188,-22.888,7.996,-20.569,-160.263,-15.315,-26.169
11489,0.3594,-0.3779,-1.2593,-3.235,-1.831,-18.982,-160.637,-15.463,-25.779
11499,0.335,-0.4321,-1.2295,-3.235,-1.831,-18.982,-160.582,-15.447,-25.609
11509,0.3081,-0.4697,-1.1636,22.827,-8.24,-11.353,-160.367,-15.392,-25.466
11529,0.3081,-0.4697,-1.1636,22.827,-8.24,-11.353,-159.582,-15.194,-25.318
11539,0.3081,-0.4697,-1.1636,22.827,-8.24,-11.353,-159.104,-15.068,-25.318
11549,0.2114,-0.417,-0.7715,36.316,-7.996,8.606,-158.659,-14.952,-25.373
11558,0.2114,-0.417,-0.7715,29.175,-5.005,11.963,-158.297,-14.859,-25.472
11568,0.2114,-0.417,-0.7715,19.958,-2.808,13.672,-158.06,-14.788,-25.593
11579,0.2329,-0.2686,-0.7656,19.958,-2.808,13.672,-157.95,-14.749,-25.714
11598,0.249,-0.2529,-0.8188,-5.798,1.16,7.019,-158.066,-14.727,-25.889
11609,0.2954,-0.2803,-0.978,-8.301,3.174,2.441,-158.198,-14.76,-25.922
11619,0.2954,-0.2803,-0.978,-8.362,2.747,-1.587,-158.335,-14.804,-25.917
11638,0.3501,-0.3931,-1.1548,-0.549,0.793,-3.662,-158.483,-14.865,-25.856
11648,0.3516,-0.4224,-1.1416,8.545,-0.366,-1.587,-158.417,-14.875,-25.84
11659,0.3203,-0.4282,-1.0806,18.799,-3.54,2.441,-158.225,-14.843,-25.845
11668,0.3203,-0.4282,-1.0806,18.799,-3.54,2.441,-157.945,-14.755,-25.884
11678,0.2539,-0.4033,-0.8774,29.907,-8.606,9.888,-157.61,-14.639,-25.95
11688,0.2187,-0.375,-0.7754,27.466,-11.292,11.597,-157.286,-14.491,-26.016
11708,0.1904,-0.3413,-0.6821,-0.671,-14.771,10.315,-157.033,-14.134,-26.109
11728,0.165,-0.2759,-0.5649,-29.968,-8.423,2.075,-157.429,-13.909,-26.109
11748,0.2124,-0.2979,-0.6812,-38.147,12.512,-9.766,-158.17,-14.139,-26.032
11758,0.3716,-0.3877,-1.1274,-38.147,12.512,-9.766,-158.604,-14.387,-25.983
11768,0.4219,-0.3945,-1.3066,-35.034,17.822,-11.536,-159.005,-14.623,-25.939
11788,0.3726,-0.3984,-1.4199,-5.127,2.502,-1.831,-159.39,-14.782,-25.906
11798,0.3447,-0.4297,-1.3838,14.404,-3.54,1.526,-159.28,-14.733,-25.911
11828,0.2925,-0.4365,-1.0996,64.27,-9.521,7.935,-157.819,-14.425,-25.988
11838,0.2349,-0.4106,-0.9263,71.716,-12.634,9.949,-157.077,-14.26,-26.038
11867,0.1479,-0.3701,-0.5571,36.133,-15.32,12.024,-155.231,-13.651,-26.186
11878,0.1362,-0.3306,-0.5083,13.123,-14.587,11.047,-155.006,-13.464,-26.23
11897,0.1411,-0.292,-0.4951,-26.978,-7.202,3.906,-155.286,-13.26,-26.257
11907,0.1411,-0.292,-0.4951,-37.292,-1.221,-1.587,-155.676,-13.271,-26.241
11947,0.3779,-0.416,-1.2319,-32.532,18.555,-15.259,-157.192,-14.101,-26.005
11958,0.395,-0.4507,-1.3379,-3.967,16.357,-7.141,-157.275,-14.293,-25.999
11967,0.395,-0.4507,-1.3379,9.46,9.644,-0.854,-157.203,-14.392,-26.032
11987,0.3174,-0.5352,-1.3228,25.513,-6.531,8.606,-156.78,-14.26,-26.131
12017,0.2051,-0.4658,-0.9512,39.612,-18.372,13.977,-155.583,-13.612,-26.307
12027,0.2051,-0.4658,-0.9512,35.4,-20.386,13.977,-155.187,-13.343,-26.356
12036,0.2051,-0.4658,-0.9512,35.4,-20.386,13.977,-154.863,-13.079,-26.389
12047,0.2051,-0.4658,-0.9512,18.677,-20.02,13.367,-154.638,-12.838,-26.428
12057,0.1938,-0.374,-0.7607,18.677,-20.02,13.367,-154.506,-12.618,-26.461
12076,0.2109,-0.3438,-0.8521,6.165,-14.465,7.385,-154.413,-12.283,-26.488
12097,0.2104,-0.3711,-0.8833,11.414,-13.062,2.93,-154.303,-12.014,-26.439
12107,0.2104,-0.3711,-0.8833,11.414,-13.062,2.93,-154.149,-11.92,-26.4
12116,0.2104,-0.3711,-0.8833,11.414,-13.062,2.93,-153.918,-11.86,-26.345
12137,0.2358,-0.5166,-0.8594,28.992,-4.517,-3.052,-153.303,-11.821,-26.246
12156,0.2383,-0.542,-0.8726,28.992,-4.517,-3.052,-152.65,-11.794,-26.208
12166,0.2344,-0.5308,-0.8643,25.696,-4.395,1.953,-152.353,-11.755,-26.202
12186,0.2192,-0.5225,-0.855,20.203,-6.775,5.127,-151.902,-11.563,-26.252
12196,0.207,-0.5,-0.8447,20.203,-6.775,5.127,-151.727,-11.431,-26.307
12226,0.2041,-0.4761,-0.8931,7.935,-13.062,14.404,-151.397,-10.92,-26.505
12246,0.2065,-0.4551,-0.9858,8.362,-12.573,13.855,-151.287,-10.574,-26.631
12266,0.207,-0.4429,-1.0205,8.362,-12.573,13.855,-151.1,-10.267,-26.735
12276,0.2148,-0.4478,-1.0459,21.118,-10.01,8.667,-150.941,-10.14,-26.763
12286,0.2285,-0.4561,-1.0659,29.419,-9.583,6.714,-150.705,-10.036,-26.774
12306,0.2285,-0.4561,-1.0659,29.419,-9.583,6.714,-149.985,-9.822,-26.768
12316,0.2339,-0.4795,-1.0625,29.419,-9.583,6.714,-149.529,-9.69,-26.768
12346,0.2192,-0.4902,-1.0205,45.044,-19.592,16.052,-148.151,-9.091,-26.856
12356,0.1895,-0.5327,-0.8555,45.044,-19.592,16.052,-147.755,-8.833,-26.884
12375,0.1782,-0.5459,-0.7939,30.945,-22.766,21.912,-147.019,-8.262,-26.993
12386,0.1465,-0.5498,-0.6831,30.945,-22.766,21.912,-146.673,-7.96,-27.065
12396,0.1445,-0.5562,-0.6484,22.339,-21.484,24.17,-146.365,-7.668,-27.153
12415,0.1401,-0.5527,-0.626,22.339,-21.484,24.17,-145.948,-7.185,-27.345
12426,0.1401,-0.5527,-0.626,22.339,-21.484,24.17,-145.811,-7.009,-27.449
12445,0.1113,-0.5239,-0.5537,0.977,-5.127,16.479,-145.607,-6.828,-27.675
12455,0.1133,-0.522,-0.5571,-3.784,4.333,12.939,-145.541,-6.806,-27.806
12485,0.0825,-0.4814,-0.5737,-8.301,15.625,12.939,-145.519,-6.855,-28.339
12495,0.0825,-0.4814,-0.5737,-8.423,19.287,11.719,-145.547,-6.927,-28.548
12505,0.0586,-0.4512,-0.6177,-8.545,22.766,9.583,-145.591,-7.037,-28.757
12525,0.1133,-0.4893,-0.7998,-11.841,32.593,0.671,-145.789,-7.465,-29.152
12545,0.1514,-0.4917,-1.0029,-10.681,39.917,-9.155,-146.113,-8.185,-29.471
12565,0.1504,-0.4917,-1.0742,-2.747,38.94,-13.184,-146.371,-8.954,-29.707
12575,0.1719,-0.5234,-1.1343,3.845,33.997,-11.414,-146.409,-9.283,-29.8
12585,0.1582,-0.542,-1.1187,2.991,21.667,-5.127,-146.442,-9.47,-29.877
12595,0.1582,-0.542,-1.1187,-5.371,7.935,1.648,-146.541,-9.492,-29.938
12606,0.1211,-0.5796,-1.0332,-12.817,-1.77,6.714,-146.706,-9.404,-29.987
12615,0.1211,-0.5796,-1.0332,-17.517,-13.367,10.071,-146.898,-9.196,-29.998
12634,0.0469,-0.5332,-0.8291,-17.517,-13.367,10.071,-147.415,-8.564,-29.916
12645,0.0332,-0.5024,-0.7759,-36.499,-27.344,10.132,-147.783,-8.218,-29.855
12655,0.0249,-0.457,-0.7222,-42.297,-25.085,8.789,-148.211,-7.894,-29.795
12664,0.0308,-0.4272,-0.6982,-42.297,-25.085,8.789,-148.667,-7.63,-29.724
12674,0.0508,-0.4185,-0.6865,-48.462,-17.761,1.892,-149.156,-7.427,-29.647
12685,0.0801,-0.4282,-0.729,-54.077,-13.855,-0.183,-149.705,-7.289,-29.575
12695,0.123,-0.4556,-0.8032,-54.199,-8.423,-3.601,-150.26,-7.24,-29.498
12714,0.123,-0.4556,-0.8032,-60.059,0.366,-5.371,-151.507,-7.35,-29.394
12725,0.123,-0.4556,-0.8032,-53.894,0.0,-5.066,-152.084,-7.421,-29.35
12744,0.123,-0.4556,-0.8032,-53.894,0.0,-5.066,-152.831,-7.471,-29.279
12764,0.2354,-0.5664,-1.2417,23.071,-11.414,4.578,-152.677,-7.322,-29.246
12784,0.2061,-0.5532,-1.1274,57.556,-8.972,6.348,-151.672,-7.125,-29.262
12834,0.0742,-0.4258,-0.6704,37.72,-4.456,1.038,-148.837,-6.823,-29.29
12864,0.0693,-0.4204,-0.6626,2.747,-6.104,-4.15,-148.414,-6.63,-29.147
12874,0.0796,-0.4546,-0.7612,-7.141,-4.7,-7.629,-148.502,-6.619,-29.059
12894,0.1104,-0.4868,-0.8345,-19.592,-4.028,-12.329,-148.903,-6.669,-28.823
12904,0.1294,-0.5205,-0.9951,-20.325,-3.784,-13.184,-149.156,-6.707,-28.691
12914,0.1416,-0.5317,-1.0527,-15.808,-3.174,-13.672,-149.365,-6.751,-28.553
12933,0.1421,-0.5391,-1.0942,7.996,-4.578,-11.536,-149.464,-6.795,-28.295
12944,0.1274,-0.5542,-1.1001,7.996,-4.578,-11.536,-149.288,-6.79,-28.191
12954,0.1128,-0.5718,-1.0703,36.194,-5.92,-6.409,-148.964,-6.757,-28.109
12984,0.0552,-0.5762,-0.9653,55.176,-8.179,-2.502,-147.497,-6.52,-27.9
12994,0.0366,-0.5518,-0.9341,54.443,-9.094,-2.869,-146.986,-6.416,-27.828
13003,0.0366,-0.5518,-0.9341,54.443,-9.094,-2.869,-146.519,-6.295,-27.729
13013,0.0146,-0.5229,-0.9053,46.753,-13.611,-6.531,-146.107,-6.163,-27.598
13024,0.0088,-0.5244,-0.9028,41.626,-16.846,-8.179,-145.75,-6.01,-27.438
13034,0.0142,-0.5308,-0.8979,35.583,-20.386,-9.46,-145.453,-5.845,-27.241
13043,0.0142,-0.5308,-0.8979,29.968,-23.132,-10.559,-145.206,-5.663,-27.021
13053,-0.0039,-0.5596,-0.8887,22.217,-27.1,-10.864,-145.036,-5.444,-26.779
13063,-0.0264,-0.5576,-0.8926,5.249,-35.095,-9.46,-145.042,-5.147,-26.499
13083,-0.0298,-0.5396,-0.8892,-29.053,-47.18,-9.705,-145.574,-4.411,-25.834
13093,-0.0273,-0.5225,-0.8853,-29.053,-47.18,-9.705,-146.036,-3.994,-25.466
13103,-0.0313,-0.4917,-0.8657,-29.053,-47.18,-9.705,-146.541,-3.576,-25.082
13123,-0.0298,-0.4722,-0.8184,-28.687,-51.025,-13.977,-147.338,-2.791,-24.296
13133,-0.0137,-0.4917,-0.7915,-11.536,-49.194,-13.733,-147.475,-2.417,-23.917
13143,0.0146,-0.5376,-0.772,5.859,-48.096,-13.245,-147.409,-2.071,-23.544
13163,0.0317,-0.6353,-0.7822,29.297,-56.946,-11.292,-146.832,-1.269,-22.753
13173,-0.019,-0.6494,-0.8198,39.429,-58.777,-11.963,-146.398,-0.824,-22.335
13193,0.0142,-0.6245,-0.8159,76.66,-10.01,-29.175,-144.976,-0.769,-21.676
13203,0.0142,-0.6245,-0.8159,77.82,-9.766,-31.189,-144.179,-0.884,-21.368
13213,0.0791,-0.6611,-0.7778,75.195,-10.315,-30.334,-143.394,-1.011,-21.061
13243,0.0986,-0.7319,-0.7769,48.645,-23.804,-20.386,-141.493,-1.11,-20.11
13253,0.1133,-0.7437,-0.7715,41.748,-25.391,-16.785,-141.031,-1.066,-19.819
13262,0.1133,-0.7437,-0.7715,41.748,-25.391,-16.785,-140.636,-0.961,-19.528
13272,0.1133,-0.7437,-0.7715,32.532,-32.471,-8.972,-140.279,-0.818,-19.254
13283,0.1245,-0.7407,-0.8091,33.997,-28.992,-5.92,-139.916,-0.692,-19.023
13293,0.1299,-0.7285,-0.8164,35.828,-27.954,-2.502,-139.548,-0.56,-18.825
13312,0.1299,-0.7285,-0.8164,43.823,-27.161,6.226,-138.746,-0.214,-18.523
13323,0.1304,-0.7192,-0.7983,49.5,-26.489,9.705,-138.246,-0.022,-18.424
13342,0.1211,-0.6997,-0.7832,49.5,-26.489,9.705,-137.252,0.505,-18.292
13363,0.0684,-0.6333,-0.6304,49.377,-26.917,22.827,-136.203,1.088,-18.248
13392,-0.0054,-0.5732,-0.3931,33.386,-25.513,25.879,-134.791,2.06,-18.243
13402,-0.0073,-0.5703,-0.3506,26.062,-22.4,27.283,-134.401,2.395,-18.276
13412,-0.0073,-0.5703,-0.3506,26.062,-22.4,27.283,-134.044,2.686,-18.331
13432,0.0103,-0.6152,-0.4321,26.062,-22.4,27.283,-133.577,3.005,-18.495
13452,0.1406,-0.7036,-0.8242,12.268,16.724,4.883,-133.363,2.477,-18.864
13472,0.2417,-0.7847,-0.9966,49.133,63.232,-24.292,-132.781,1.126,-19.429
13492,0.2065,-0.7798,-0.9722,72.388,66.345,-25.574,-131.292,-0.319,-20.099
13502,0.0537,-0.7119,-0.6079,114.929,62.256,-19.348,-130.144,-0.901,-20.44
13512,-0.0068,-0.7183,-0.4521,105.469,41.748,-3.662,-129.012,-1.181,-20.737
13521,-0.0068,-0.7183,-0.4521,105.469,41.748,-3.662,-128.194,-1.165,-21.0
13531,-0.0894,-0.7104,-0.2773,16.724,6.47,27.954,-127.853,-0.906,-21.22
13542,-0.0894,-0.7104,-0.2773,16.724,6.47,27.954,-127.903,-0.588,-21.423
13552,-0.0986,-0.645,-0.2661,-47.485,-0.732,25.269,-128.216,-0.297,-21.577
13571,-0.0986,-0.645,-0.2661,-63.11,14.893,9.46,-129.37,-0.121,-21.885
13582,0.0425,-0.6558,-0.7261,-58.289,27.283,2.441,-130.034,-0.297,-22.11
13602,0.1035,-0.6831,-0.9312,-21.301,47.791,-6.47,-130.946,-1.005,-22.709
13611,0.1035,-0.6831,-0.9312,8.118,52.856,-7.813,-130.985,-1.439,-23.055
13622,0.0977,-0.7241,-0.938,42.053,58.716,-10.315,-130.677,-1.934,-23.434
13641,0.0977,-0.7241,-0.938,92.896,57.495,-11.108,-129.023,-2.895,-24.175
13651,0.0977,-0.7241,-0.938,92.896,57.495,-11.108,-128.287,-3.153,-24.521
13681,0.0234,-0.8394,-1.1006,47.058,-17.578,30.579,-127.139,-2.439,-24.999
13691,-0.1001,-0.9116,-0.6157,47.058,-17.578,30.579,-126.782,-2.032,-24.977
13711,-0.0903,-0.8979,-0.3672,-18.982,-32.532,23.437,-126.667,-1.143,-24.752
13751,0.0332,-0.7837,-0.5342,-24.109,14.282,8.24,-127.496,-0.494,-24.922
13761,0.0522,-0.7534,-0.6509,-18.677,19.653,4.272,-127.711,-0.604,-25.104
13771,0.1045,-0.7393,-0.7412,-6.287,24.109,0.549,-127.848,-0.797,-25.302
13791,0.1045,-0.7393,-0.7412,7.996,9.338,5.737,-127.941,-0.972,-25.565
13801,0.1045,-0.7393,-0.7412,7.996,9.338,5.737,-127.853,-0.972,-25.631
13811,-0.0132,-0.7036,-0.624,19.653,1.16,3.174,-127.694,-0.939,-25.659
13841,-0.0757,-0.7856,-0.3901,-2.136,-2.258,-2.625,-127.227,-0.802,-25.609
13860,-0.0562,-0.8296,-0.3916,-2.136,-2.258,-2.625,-127.392,-0.802,-25.582
13870,-0.0283,-0.8496,-0.4229,-43.396,5.005,-3.113,-127.711,-0.829,-25.604
13881,-0.0298,-0.8501,-0.4829,-63.049,2.075,1.892,-128.254,-0.802,-25.631
13910,0.0083,-0.7856,-0.7046,-86.426,7.446,7.446,-130.732,-0.725,-25.895
13921,0.0112,-0.7466,-0.7686,-75.623,6.592,6.531,-131.528,-0.714,-25.988
13930,0.0112,-0.7466,-0.7686,-66.406,6.287,6.653,-132.248,-0.709,-26.076
13940,-0.0205,-0.709,-0.8369,-58.96,1.465,7.874,-132.907,-0.643,-26.142
13950,-0.0205,-0.709,-0.8369,-58.96,1.465,7.874,-133.434,-0.582,-26.197
13961,-0.0205,-0.709,-0.8369,-58.96,1.465,7.874,-133.819,-0.527,-26.246
13970,-0.0205,-0.709,-0.8369,-58.96,1.465,7.874,-134.088,-0.489,-26.301
13990,-0.0435,-0.7734,-0.79,-20.386,-4.578,3.784,-134.528,-0.368,-26.329
14010,-0.0278,-0.7588,-0.7935,-20.02,-10.864,6.775,-134.945,-0.099,-26.268
14030,-0.001,-0.7764,-0.791,-7.202,-11.536,11.292,-135.17,0.203,-26.246
14050,0.0195,-0.7793,-0.7764,-0.427,-13.672,18.25,-135.209,0.588,-26.301
14060,0.0283,-0.7729,-0.7759,-0.427,-13.672,18.25,-135.225,0.835,-26.362
14070,0.0366,-0.77,-0.7646,-4.883,-16.541,29.114,-135.269,1.126,-26.455
14079,0.0366,-0.77,-0.7646,-4.883,-16.541,29.114,-135.385,1.439,-26.576
14119,0.084,-0.6948,-0.7495,-4.883,-16.541,29.114,-136.357,2.417,-27.054
14129,0.064,-0.6523,-0.7612,-33.813,-12.207,10.742,-136.719,2.516,-27.043
14140,0.0508,-0.6157,-0.7515,-31.921,-13.489,8.057,-137.076,2.615,-27.01
14159,0.0098,-0.5913,-0.7158,-29.785,-10.376,5.981,-137.714,2.807,-26.938
14168,0.0098,-0.5913,-0.7158,-29.785,-10.376,5.981,-138.038,2.867,-26.938
14180,-0.0142,-0.6274,-0.7144,-32.166,-5.859,6.104,-138.362,2.933,-26.944
14209,-0.0181,-0.6841,-0.7783,-39.429,-4.517,9.277,-139.51,3.137,-27.081
14239,-0.0508,-0.6445,-0.812,-56.458,-0.854,9.155,-141.163,3.263,-27.416
14249,-0.0571,-0.6147,-0.8262,-47.302,-4.944,4.761,-141.658,3.334,-27.422
14269,-0.0669,-0.6045,-0.8066,-39.062,-3.54,0.977,-142.515,3.444,-27.383
14279,-0.061,-0.5967,-0.7896,-36.194,-3.235,0.732,-142.877,3.477,-27.372
14289,-0.064,-0.5742,-0.791,-39.856,-4.211,0.549,-143.284,3.516,-27.35
14309,-0.0752,-0.499,-0.812,-41.321,-3.113,0.244,-144.141,3.593,-27.318
14319,-0.0752,-0.499,-0.812,-40.466,-0.183,-3.479,-144.608,3.582,-27.29
14338,-0.0522,-0.4624,-0.8833,-25.208,6.165,-9.705,-145.179,3.235,-27.191
14359,0.0605,-0.6914,-1.02,-6.409,17.7,-24.475,-145.388,2.637,-26.982
14378,0.0742,-0.8545,-1.0479,3.845,-1.77,-13.245,-145.377,2.219,-26.763
14399,0.0547,-0.9009,-1.0142,11.78,-2.075,9.277,-145.042,2.219,-26.774
14418,-0.0166,-0.8032,-0.9033,10.376,-3.967,34.058,-144.822,2.499,-27.23
14428,-0.0576,-0.7183,-0.8437,15.076,-17.151,41.931,-144.635,2.878,-27.471
14439,-0.1001,-0.6147,-0.7856,16.541,-16.785,44.983,-144.454,3.301,-27.74
14458,-0.1182,-0.4365,-0.7163,3.235,0.916,38.879,-144.393,3.895,-28.389
14468,-0.1182,-0.4365,-0.7163,3.235,0.916,38.879,-144.481,4.103,-28.663
14479,-0.1182,-0.4365,-0.7163,-0.244,0.732,25.33,-144.619,4.29,-28.878
14488,-0.1182,-0.4365,-0.7163,0.549,7.324,18.372,-144.772,4.367,-29.07
14508,-0.0781,-0.3149,-0.7813,-29.785,4.211,0.549,-145.552,4.449,-29.18
14528,-0.0552,-0.3823,-0.8149,-29.785,4.211,0.549,-146.338,4.373,-28.878
14538,-0.0552,-0.3823,-0.8149,-42.053,-16.174,-20.935,-146.739,4.389,-28.608
14548,-0.0562,-0.6157,-0.8916,-26.672,4.028,-21.606,-146.981,4.224,-28.449
14568,-0.0288,-0.7231,-0.9731,-37.72,-26.306,-10.62,-147.31,4.153,-28.092
14578,-0.0693,-0.7192,-0.9883,-96.252,-67.139,0.793,-148.206,4.708,-27.735
14588,-0.145,-0.6958,-0.9985,-149.902,-67.2,10.071,-149.634,5.345,-27.466
14598,-0.0845,-0.6455,-1.0566,-149.902,-67.2,10.071,-151.188,5.944,-27.301
14618,-0.1602,-0.5229,-0.999,-36.56,8.606,31.311,-152.628,6.625,-27.642
14637,-0.2192,-0.4248,-0.9492,-36.56,8.606,31.311,-152.413,7.185,-28.152
14648,-0.2173,-0.3755,-0.9189,10.498,-1.343,30.518,-152.397,7.388,-28.422
14658,-0.2095,-0.3672,-0.9009,10.376,8.911,28.137,-152.386,7.487,-28.713
14688,-0.2085,-0.3423,-0.8809,11.353,0.427,20.569,-152.32,7.866,-29.279
14698,-0.1948,-0.3555,-0.8643,5.737,-3.235,8.972,-152.325,7.971,-29.344
14707,-0.1948,-0.3555,-0.8643,8.301,5.432,3.967,-152.298,7.987,-29.405
14717,-0.1543,-0.4004,-0.876,12.817,8.972,-0.183,-152.205,7.921,-29.443
14727,-0.1543,-0.4004,-0.876,16.968,1.404,-1.343,-152.051,7.932,-29.438
14747,-0.1646,-0.4614,-0.8667,12.512,10.132,-4.822,-151.771,7.784,-29.443
14767,-0.166,-0.4692,-0.8574,20.63,11.658,-6.287,-151.403,7.515,-29.465
14787,-0.1641,-0.4629,-0.8926,20.63,11.658,-6.287,-151.057,7.328,-29.421
14807,-0.1543,-0.4663,-0.9663,-22.949,-6.226,-7.507,-151.342,7.256,-29.284
14837,-0.1392,-0.4634,-1.0156,-50.598,-8.789,-7.446,-152.809,7.432,-28.932
14847,-0.1382,-0.4531,-1.1011,-43.701,-22.766,-5.493,-153.27,7.603,-28.779
14857,-0.1382,-0.4531,-1.1011,-43.701,-22.766,-5.493,-153.682,7.806,-28.614
14877,-0.1094,-0.4873,-1.1401,-32.227,-26.123,-3.601,-154.352,8.201,-28.306
14896,-0.1094,-0.4873,-1.1401,-28.992,-34.363,-1.465,-154.88,8.839,-27.96
14917,-0.1201,-0.542,-1.061,-27.527,-57.861,8.85,-155.336,9.805,-27.614
14936,-0.1621,-0.5366,-0.9512,-27.832,-71.106,16.968,-155.764,11.107,-27.318
14947,-0.188,-0.541,-0.8657,-27.832,-71.106,16.968,-155.901,11.871,-27.186
14957,-0.207,-0.5479,-0.7852,-21.667,-78.003,22.461,-155.984,12.667,-27.07
14987,-0.2676,-0.5142,-0.5439,-28.198,-67.932,27.771,-156.127,15.057,-26.895
14997,-0.2993,-0.4644,-0.4673,-33.02,-64.758,27.649,-156.242,15.848,-26.884
15027,-0.3135,-0.4106,-0.4175,-58.228,-21.301,9.949,-157.17,17.584,-26.878
15037,-0.2974,-0.4019,-0.6113,-58.105,19.104,1.465,-157.665,17.457,-26.971
15046,-0.2974,-0.4019,-0.6113,-58.105,19.104,1.465,-158.275,16.908,-27.142
15056,-0.1201,-0.394,-1.126,-58.105,19.104,1.465,-158.989,16.155,-27.361
15066,-0.1201,-0.394,-1.126,-68.298,73.181,0.305,-159.791,15.342,-27.636
15076,-0.1201,-0.394,-1.126,-64.514,59.631,8.85,-160.582,14.683,-27.938
15116,-0.1479,-0.2344,-1.3232,10.315,-3.479,17.029,-162.026,13.986,-28.784
15126,-0.1938,-0.3389,-1.0376,10.315,-3.479,17.029,-161.79,14.117,-28.916
15136,-0.2227,-0.3794,-0.8643,32.898,-22.949,17.273,-161.433,14.376,-29.009
15146,-0.2632,-0.3843,-0.6816,27.954,-34.912,17.578,-161.06,14.804,-29.064
15156,-0.2632,-0.3843,-0.6816,27.954,-34.912,17.578,-160.752,15.381,-29.119
15176,-0.394,-0.248,-0.2847,-5.981,-38.696,22.705,-160.703,16.666,-29.344
15186,-0.3599,-0.1865,-0.3052,-47.852,0.061,22.034,-161.241,16.738,-29.564
15195,-0.3599,-0.1865,-0.3052,-47.852,0.061,22.034,-161.878,16.54,-29.861
15206,-0.3599,-0.1865,-0.3052,-64.026,45.532,19.043,-162.614,16.166,-30.196
15216,-0.272,-0.2104,-0.5996,-73.486,48.218,19.348,-163.444,15.765,-30.536
15225,-0.272,-0.2104,-0.5996,-74.036,53.162,21.545,-164.284,15.315,-30.91
15235,-0.1538,-0.125,-1.2041,-67.017,70.129,24.902,-165.075,14.705,-31.355
15246,-0.0786,-0.0347,-1.4893,-59.753,80.688,29.358,-165.8,14.002,-31.866
15286,-0.2354,0.1162,-1.5571,-23.682,-7.263,21.362,176.259,12.728,-33.234
15305,-0.3496,-0.1143,-1.1768,-23.682,-7.263,21.362,-174.452,13.425,-33.503
15315,-0.3667,-0.2085,-0.9712,-23.682,-7.263,21.362,-174.205,13.925,-33.547
15326,-0.3799,-0.2705,-0.7959,27.771,-48.584,12.573,-173.947,14.42,-33.624
15345,-0.3955,-0.3179,-0.6011,27.771,-48.584,12.573,-173.628,15.183,-33.909
15355,-0.3945,-0.2944,-0.5645,27.771,-48.584,12.573,-173.617,15.337,-34.091
15365,-0.3711,-0.2798,-0.5977,27.771,-48.584,12.573,-173.771,15.304,-34.255
15395,-0.2666,-0.2119,-1.0205,-34.363,36.377,7.813,-174.705,14.54,-34.64
15425,-0.2256,-0.103,-1.3882,-34.363,36.377,7.813,-175.671,13.678,-35.041
15435,-0.27,-0.0806,-1.3765,-10.986,6.287,12.024,-175.809,13.623,-35.173
15444,-0.27,-0.0806,-1.3765,-10.986,6.287,12.024,-175.886,13.667,-35.266
15455,-0.3188,-0.1123,-1.25,5.249,-7.935,7.69,-175.853,13.755,-35.338
15465,-0.3252,-0.1235,-1.1523,5.249,-7.935,7.69,-175.71,13.843,-35.403
15505,-0.3306,-0.0674,-0.8374,5.676,-14.16,-1.526,-175.199,14.431,-35.491
15524,-0.3208,-0.0601,-0.8008,-2.991,0.366,-11.23,-175.172,14.474,-35.305
15545,-0.2661,-0.1372,-0.7354,-6.226,11.169,-19.104,-175.204,14.277,-34.964
15564,-0.2231,-0.2563,-0.7617,-7.996,15.747,-23.987,-175.226,13.975,-34.514
15574,-0.1836,-0.3286,-0.8135,-9.521,25.757,-23.071,-175.27,13.7,-34.299
15595,-0.1201,-0.4263,-1.0137,-13.611,31.25,-19.653,-175.474,13.019,-34.008
15614,-0.1201,-0.4263,-1.0137,-13.611,31.25,-19.653,-175.6,12.426,-34.052
15625,-0.0942,-0.3423,-1.2544,0.854,26.428,13.428,-175.622,12.173,-34.211
15644,-0.1284,-0.2178,-1.2148,10.01,22.095,24.048,-175.573,11.717,-34.7
15654,-0.1562,-0.1699,-1.1621,16.846,13.977,25.696,-175.457,11.596,-34.969
15674,-0.1714,-0.1143,-1.0947,16.846,13.977,25.696,-174.968,11.656,-35.447
15684,-0.2275,-0.041,-0.9307,16.846,13.977,25.696,-174.705,11.783,-35.601
15694,-0.2437,-0.02,-0.8501,24.353,-10.437,8.667,-174.474,11.898,-35.678
15714,-0.2549,0.0127,-0.7158,4.395,-0.977,-10.559,-179.973,11.975,-35.563
15724,-0.2358,-0.0059,-0.686,-8.301,1.831,-20.02,-179.506,11.959,-35.354
15734,-0.2358,-0.0059,-0.686,-13.428,3.174,-27.71,-179.583,11.926,-35.074
15743,-0.2358,-0.0059,-0.686,-13.428,3.174,-27.71,-179.621,11.843,-34.722
15764,-0.1421,-0.3179,-0.9243,-12.634,30.151,-39.001,-179.709,11.354,-33.931
15783,-0.0938,-0.4097,-1.168,-16.968,38.574,-33.691,179.984,10.646,-33.327
15793,-0.1084,-0.3862,-1.2549,-25.696,13.428,-16.602,179.758,10.453,-33.157
15804,-0.1113,-0.3394,-1.2778,-19.775,13.428,-8.545,179.731,10.261,-33.069
15823,-0.1763,-0.2324,-1.1431,-19.775,13.428,-8.545,179.473,10.063,-33.102
15833,-0.207,-0.1934,-1.0361,-15.259,-5.127,10.498,179.412,10.124,-33.212
15844,-0.2046,-0.186,-0.9556,-3.723,-7.629,12.634,179.473,10.217,-33.338
15873,-0.2202,-0.145,-0.9331,10.925,-4.944,12.878,179.984,10.426,-33.706
15893,-0.1963,-0.1309,-1.0332,-3.235,15.869,2.258,179.918,10.025,-33.668
15913,-0.1118,-0.0317,-1.4365,-31.189,15.381,-19.409,179.451,9.553,-33.322
15924,-0.1313,-0.0156,-1.5264,-26.672,9.46,-21.606,179.231,9.415,-33.102
15943,-0.1313,-0.0156,-1.5264,2.197,-3.784,-25.085,179.286,9.311,-32.607
15953,-0.1948,-0.1733,-1.229,13.184,-16.541,-26.184,179.55,9.476,-32.344
15973,-0.2036,-0.3198,-0.8608,13.184,-16.541,-26.184,-179.626,9.91,-31.8
15983,-0.2036,-0.3198,-0.8608,7.507,-19.165,-23.743,-179.286,10.14,-31.558
15993,-0.167,-0.3516,-0.7197,-5.066,-7.202,-20.63,-179.044,10.228,-31.349
16023,-0.0991,-0.2222,-0.9336,-35.278,10.925,-8.118,-179.319,10.047,-30.965
16042,-0.0938,-0.1455,-1.0498,-36.682,6.409,-0.671,-179.951,9.783,-30.921
16063,-0.1152,-0.0752,-1.1841,-14.587,-4.333,-0.427,179.714,9.712,-30.916
16103,-0.2109,-0.1157,-0.958,-10.742,-22.034,-5.432,179.731,10.464,-30.817
16132,-0.1934,-0.1631,-0.9351,-21.362,-11.23,-1.526,179.533,10.931,-30.696
16143,-0.2124,-0.1855,-0.7891,-24.048,-13.489,3.418,179.423,11.102,-30.734
16162,-0.2622,-0.2124,-0.6909,-15.076,-11.963,9.827,179.423,11.475,-30.916
16172,-0.2075,-0.1699,-0.8896,-16.846,1.465,9.399,179.352,11.475,-31.009
16192,-0.1182,-0.1123,-1.1572,-36.865,26.611,6.287,179.703,10.838,-31.146
16202,-0.1182,-0.1123,-1.1572,-36.865,26.611,6.287,179.209,10.646,-31.201
16222,-0.0928,0.1968,-1.6602,-43.945,8.179,3.967,178.44,10.695,-31.256
16242,-0.2515,-0.0552,-0.978,10.559,-40.955,-3.235,-176.77,11.42,-31.234
16252,-0.2734,-0.2012,-0.708,23.132,-42.419,-3.54,-176.523,11.843,-31.174
16272,-0.2651,-0.2935,-0.4683,23.132,-42.419,-3.54,-176.133,12.382,-31.146
16282,-0.228,-0.2451,-0.5952,-0.916,2.136,4.761,-176.149,12.365,-31.196
16291,-0.1714,-0.1309,-0.8774,-0.916,2.136,4.761,-176.309,12.134,-31.273
16301,-0.1714,-0.1309,-0.8774,-19.592,39.673,5.249,-176.523,11.739,-31.349
16312,-0.0557,0.1079,-1.4111,-19.592,39.673,5.249,175.622,11.387,-31.421
16322,-0.0957,0.1504,-1.4443,-8.24,16.357,2.563,175.54,11.223,-31.432
16331,-0.0957,0.1504,-1.4443,-8.24,16.357,2.563,175.627,11.25,-31.421
16352,-0.2646,-0.1694,-0.8008,31.25,-25.452,-4.7,-176.517,11.667,-31.322
16362,-0.2646,-0.1694,-0.8008,29.175,-23.56,-2.258,-176.221,11.904,-31.284
16381,-0.229,-0.1787,-0.7676,6.287,10.376,3.113,-175.963,11.893,-31.333
16391,-0.147,-0.0957,-1.0513,-7.019,31.006,1.953,-176.045,11.585,-31.371
16421,-0.105,0.0137,-1.2822,-19.775,2.869,-3.906,178.967,10.997,-31.371
16431,-0.2231,0.0347,-1.1567,-8.911,-13.733,-8.423,178.896,11.135,-31.289
16451,-0.2607,-0.0811,-0.9712,13.245,-20.508,-10.925,-175.067,11.58,-31.053
16461,-0.2231,-0.2026,-0.9165,11.963,-10.498,-9.46,-174.93,11.678,-30.948
16481,-0.1685,-0.1587,-1.1494,-0.244,9.094,-9.888,-175.051,11.354,-30.756
16501,-0.1675,-0.0078,-1.1841,-33.325,-19.043,-10.071,-175.655,11.409,-30.52
16541,-0.2827,-0.2256,-0.7671,27.222,-10.376,-9.46,-175.056,12.925,-30.037
16550,-0.2417,-0.1401,-0.9409,27.222,-10.376,-9.46,-174.902,12.733,-29.899
16560,-0.2417,-0.1401,-0.9409,27.222,-10.376,-9.46,-174.963,12.382,-29.696
16571,-0.2417,-0.1401,-0.9409,27.222,-10.376,-9.46,175.825,11.97,-29.443
16591,-0.1763,0.1538,-1.3389,11.353,15.564,-38.147,176.039,11.602,-28.685
16611,-0.1899,-0.2017,-0.9346,38.879,1.16,-42.053,-178.165,11.481,-27.817
16621,-0.2148,-0.3682,-0.6714,34.302,-7.629,-37.292,-177.748,11.547,-27.438
16640,-0.2129,-0.4736,-0.4438,34.302,-7.629,-37.292,-177.209,11.656,-26.944
16651,-0.2129,-0.4736,-0.4438,6.958,14.954,-12.817,-177.116,11.503,-26.818
16670,0.0313,-0.043,-1.3804,-3.235,43.091,-10.193,-177.259,10.525,-26.697
16691,-0.0737,0.2266,-1.5977,-6.226,22.827,-4.517,174.111,9.888,-26.62
16730,-0.231,-0.2505,-0.6782,22.095,-9.521,-10.315,-176.743,10.25,-26.131
16760,-0.1221,-0.1616,-0.9561,-6.165,13.977,-1.282,-176.715,10.003,-26.01
16770,-0.1182,-0.0903,-1.0688,-5.066,10.559,1.465,-176.77,9.899,-26.032
16800,-0.1777,-0.1455,-0.981,13.123,-3.479,1.16,-176.55,9.882,-26.093
16820,-0.2012,-0.1924,-0.8804,6.958,-1.709,1.099,-176.364,9.943,-26.109
16830,-0.2158,-0.1909,-0.8345,1.099,6.348,-0.671,-176.353,9.877,-26.109
16840,-0.1743,-0.1562,-0.9629,-4.517,17.395,-2.869,-176.396,9.701,-26.093
16859,-0.1196,-0.1001,-1.1436,-19.653,19.348,-5.188,-176.71,9.272,-26.021
16870,-0.1196,-0.1001,-1.1436,-21.606,8.606,-6.592,178.451,9.185,-25.961
16889,-0.1323,0.0176,-1.3223,-9.827,-7.202,-13.916,-177.616,9.267,-25.719
16910,-0.207,-0.228,-0.8677,-4.822,-19.104,-14.343,-177.682,9.597,-25.4
16929,-0.2031,-0.2461,-0.8091,-2.014,-3.052,-9.949,-177.698,9.756,-25.175
16950,-0.1167,-0.04,-1.2202,3.357,22.095,-11.414,-177.632,9.421,-24.972
16979,-0.1504,-0.0146,-1.1582,3.357,22.095,-11.414,-179.275,8.976,-24.56
16990,-0.1602,-0.1333,-0.9985,68.665,1.038,-14.954,-178.561,8.965,-24.406
16999,-0.1753,-0.2617,-0.8364,68.665,1.038,-14.954,-177.803,8.981,-24.263
17019,-0.1479,-0.3901,-0.7168,44.25,1.953,-7.629,-176.682,8.981,-24.077
17029,-0.1367,-0.3872,-0.75,18.677,5.371,-4.761,-176.49,8.921,-24.033
17049,-0.0894,-0.2588,-0.9878,18.677,5.371,-4.761,-176.808,8.723,-24.033
17059,-0.0552,-0.1699,-1.1353,-33.142,14.16,2.258,-177.144,8.58,-24.066
17079,-0.0381,-0.1133,-1.25,-22.827,5.432,4.639,-177.698,8.405,-24.153
17090,-0.0635,-0.0898,-1.2559,-12.207,-4.272,6.287,-177.83,8.448,-24.214
17099,-0.0635,-0.0898,-1.2559,-0.366,-11.536,7.69,-177.847,8.569,-24.291
17129,-0.1553,-0.2427,-0.8726,9.46,-17.578,11.841,-177.616,9.163,-24.582
17139,-0.1489,-0.2363,-0.9009,4.761,-7.69,10.376,-177.583,9.245,-24.681
17148,-0.1489,-0.2363,-0.9009,4.761,-7.69,10.376,-177.632,9.245,-24.769
17169,-0.1074,-0.104,-1.085,-3.723,5.066,6.897,-177.764,9.157,-24.917
17188,-0.1265,-0.1128,-1.0806,12.634,-1.648,6.47,-177.616,9.163,-25.049
17209,-0.1606,-0.2104,-0.9365,12.024,-5.493,5.31,-177.358,9.261,-25.159
17228,-0.1646,-0.2119,-0.9204,2.258,2.075,3.845,-177.089,9.278,-25.247
17249,-0.1494,-0.1699,-1.0239,0.427,8.484,2.38,-176.957,9.124,-25.302
17278,-0.1626,-0.1709,-0.9561,16.968,8.057,2.197,-176.468,8.828,-25.389
17289,-0.1714,-0.1938,-0.8936,24.963,8.667,1.465,-176.138,8.762,-25.406
17318,-0.1807,-0.2222,-0.8252,24.963,8.667,1.465,-175.023,8.624,-25.329
17338,-0.1567,-0.1733,-0.8389,8.545,27.832,-17.09,-174.617,8.229,-25.082
17358,-0.043,-0.1353,-1.208,11.963,37.048,-20.874,-174.331,7.405,-24.736
17378,-0.002,-0.1514,-1.3931,16.663,35.278,-20.508,-173.919,6.597,-24.395
17388,0.0127,-0.2856,-1.4585,16.663,35.278,-20.508,-173.683,6.367,-24.236
17398,-0.0249,-0.354,-1.333,14.709,0.854,-12.573,-173.441,6.295,-24.109
17418,-0.0654,-0.4028,-1.1694,13.062,-9.949,0.427,-172.886,6.422,-24.038
17428,-0.1104,-0.4316,-0.9038,11.414,-8.118,5.676,-172.595,6.509,-24.082
17438,-0.1221,-0.3999,-0.8369,9.216,-4.089,10.498,-172.332,6.57,-24.181
17447,-0.1157,-0.3433,-0.8252,9.216,-4.089,10.498,-172.134,6.575,-24.324
17457,-0.1064,-0.2651,-0.8809,9.216,-4.089,10.498,-172.018,6.52,-24.489
17468,-0.0977,-0.1772,-0.9585,1.892,12.024,14.526,-171.996,6.416,-24.648
17487,-0.1055,-0.1069,-1.0166,6.958,9.644,11.597,-171.985,6.235,-24.933
17508,-0.146,-0.0542,-1.0317,10.376,6.897,7.263,-171.898,6.158,-25.098
17537,-0.1484,-0.1226,-0.9731,10.376,6.897,7.263,-171.705,6.092,-24.999
17548,-0.1201,-0.1494,-1.0078,1.648,6.409,-14.099,-171.672,6.015,-24.868
17577,-0.0796,-0.2212,-1.0659,-3.662,1.892,-19.348,-171.568,5.729,-24.324
17588,-0.0796,-0.2212,-1.0659,-4.883,-1.526,-18.127,-171.519,5.696,-24.142
17617,-0.0522,-0.3491,-0.9663,-10.742,-0.061,-11.597,-171.403,5.647,-23.725
17627,-0.0635,-0.3237,-0.9756,-13.794,1.526,-9.888,-171.431,5.598,-23.626
17637,-0.0591,-0.2671,-1.0112,-16.418,3.174,-7.874,-171.524,5.532,-23.555
17657,-0.0483,-0.1851,-1.1143,-11.414,6.775,-5.981,-171.738,5.328,-23.445
17677,-0.0459,-0.1714,-1.1445,-2.258,3.54,-2.747,-171.815,5.175,-23.39
17687,-0.0498,-0.1973,-1.1099,0.427,0.732,-1.77,-171.793,5.136,-23.373
17697,-0.061,-0.21,-1.0767,0.366,-3.174,-0.122,-171.76,5.147,-23.368
17706,-0.061,-0.21,-1.0767,0.366,-3.174,-0.122,-171.744,5.169,-23.373
17727,-0.0591,-0.1748,-1.1289,-2.625,-1.343,1.221,-171.843,5.114,-23.39
17746,-0.0195,-0.1499,-1.2607,-21.362,-9.766,-2.93,-172.189,5.114,-23.329
17767,-0.1421,-0.1982,-0.8921,-20.386,-30.701,0.305,-172.573,5.625,-23.253
17796,-0.1748,-0.3667,-0.4854,16.052,-17.212,3.967,-171.832,6.542,-23.225
17807,-0.1787,-0.3784,-0.4346,16.052,-17.212,3.967,-171.326,6.768,-23.28
17817,-0.1689,-0.3638,-0.5088,16.602,1.526,9.338,-170.903,6.855,-23.379
17826,-0.1689,-0.3638,-0.5088,16.602,1.526,9.338,-170.678,6.669,-23.489
17847,0.0229,-0.1191,-1.3003,-12.146,37.17,2.319,-170.832,5.834,-23.676
17876,-0.0508,-0.0396,-1.4385,-6.287,0.549,-4.944,-171.458,5.273,-23.698
17896,-0.0732,-0.1274,-1.3247,3.601,-15.503,-8.362,-171.403,5.46,-23.5
17916,-0.1304,-0.3232,-0.9165,-1.709,-19.409,-5.92,-171.211,5.861,-23.307
17936,-0.1235,-0.3428,-0.8701,-1.709,-19.409,-5.92,-171.063,6.13,-23.214
17946,-0.1045,-0.3198,-0.8643,-10.986,-7.019,0.366,-171.057,6.202,-23.203
17956,-0.0986,-0.2896,-0.8931,-13.123,-4.517,2.197,-171.101,6.251,-23.22
17986,-0.1035,-0.1963,-1.0,-2.014,0.61,6.836,-171.2,6.306,-23.384
18005,-0.0801,-0.1792,-1.0898,6.104,8.362,4.883,-171.118,6.13,-23.522
18026,-0.0776,-0.1201,-1.2334,3.54,1.892,1.648,-171.096,6.015,-23.577
18055,-0.083,-0.0952,-1.2539,14.832,-2.258,-5.615,-170.925,5.96,-23.478
18066,-0.0884,-0.1187,-1.2202,19.836,-4.395,-7.385,-170.755,5.971,-23.395
18095,-0.1299,-0.2783,-0.9033,27.039,-11.841,-8.545,-169.865,6.273,-23.088
18106,-0.1406,-0.3081,-0.8022,20.264,-17.639,-7.263,-169.547,6.465,-22.983
18115,-0.1406,-0.3081,-0.8022,20.264,-17.639,-7.263,-169.272,6.641,-22.89
18135,-0.1548,-0.3389,-0.6455,-4.395,-8.179,-7.019,-168.915,6.938,-22.709
18155,-0.1528,-0.3345,-0.5972,-7.813,-1.16,-7.263,-168.734,6.938,-22.582
18165,-0.0845,-0.3042,-0.7876,-7.813,-1.16,-7.263,-168.734,6.762,-22.566
18175,-0.0322,-0.2656,-0.96,-10.681,23.865,-3.113,-168.794,6.476,-22.582
18205,0.021,-0.1587,-1.3545,0.488,20.203,2.686,-169.058,5.576,-22.747
18215,-0.0132,-0.1631,-1.3667,5.92,9.399,4.028,-169.047,5.438,-22.802
18224,-0.0132,-0.1631,-1.3667,5.92,9.399,4.028,-168.986,5.411,-22.852
18245,-0.0884,-0.2236,-1.1582,9.583,-5.676,4.639,-168.854,5.543,-22.912
18255,-0.1035,-0.228,-1.0815,9.583,-5.676,4.639,-168.816,5.663,-22.934
18264,-0.1133,-0.2324,-1.0195,1.404,-12.024,3.662,-168.788,5.795,-22.945
18275,-0.1133,-0.2324,-1.0195,1.831,-11.414,3.052,-168.745,5.922,-22.95
18285,-0.1328,-0.2441,-0.9175,2.991,-10.681,2.93,-168.679,6.053,-22.961
18304,-0.1357,-0.2549,-0.8809,5.005,-4.578,2.686,-168.475,6.235,-22.989
18315,-0.1396,-0.2886,-0.8003,3.601,-2.869,2.93,-168.36,6.301,-23.011
18325,-0.146,-0.2939,-0.7764,1.465,-0.916,3.357,-168.256,6.35,-23.044
18355,-0.0986,-0.2397,-0.9697,-7.141,15.198,1.709,-168.234,6.136,-23.17
18374,-0.0659,-0.2041,-1.1099,-8.301,20.508,1.404,-168.47,5.658,-23.28
18394,-0.0229,-0.127,-1.3286,-8.301,20.508,1.404,-168.717,5.328,-23.329
18414,-0.062,-0.1221,-1.3174,8.118,-8.972,-0.061,-168.712,5.394,-23.318
18434,-0.127,-0.2603,-0.999,8.911,-17.334,-2.625,-168.486,5.696,-23.214
18454,-0.1465,-0.2949,-0.8789,-0.061,-17.761,-2.808,-168.25,6.114,-23.082
18464,-0.1465,-0.2949,-0.8789,-4.15,-14.954,-2.319,-168.157,6.306,-23.033
18474,-0.1626,-0.3345,-0.6738,-8.179,-11.414,-1.343,-168.085,6.471,-22.994
18494,-0.1514,-0.3179,-0.6797,-11.78,0.854,-0.244,-168.025,6.63,-22.978
18504,-0.1191,-0.2871,-0.7715,-12.39,8.728,0.183,-168.063,6.559,-22.994
18523,-0.0796,-0.2397,-0.9189,-12.146,15.93,0.793,-168.311,6.152,-23.088
18544,-0.0103,-0.1216,-1.2607,-2.93,19.47,-1.099,-168.563,5.63,-23.159
18563,-0.0234,-0.1108,-1.3774,6.348,-0.61,-3.235,-168.596,5.455,-23.126
18574,-0.0723,-0.1875,-1.2271,7.813,-7.813,-4.822,-168.541,5.499,-23.066
18584,-0.0723,-0.1875,-1.2271,5.676,-13.428,-5.92,-168.475,5.609,-22.978
18614,-0.1309,-0.2905,-0.8437,-4.639,-12.451,-4.578,-168.354,6.042,-22.731
18624,-0.1284,-0.2925,-0.8052,-4.089,-7.935,-2.808,-168.305,6.141,-22.687
18654,-0.0791,-0.228,-0.9478,5.127,13.977,-1.16,-168.102,5.988,-22.692
18673,-0.0527,-0.2002,-1.0454,11.23,20.935,-3.906,-167.937,5.51,-22.714
18683,-0.0527,-0.2002,-1.0454,11.23,20.935,-3.906,-167.844,5.257,-22.709
18693,-0.0103,-0.1748,-1.2822,14.526,16.235,-5.005,-167.745,5.037,-22.698
18723,-0.0571,-0.2563,-1.1641,22.095,-5.31,-1.526,-167.201,4.867,-22.615
18733,-0.0713,-0.2944,-1.0679,22.4,-10.071,0.244,-166.954,4.955,-22.599
18753,-0.0908,-0.3203,-0.9683,22.4,-10.071,0.244,-166.459,5.251,-22.582
18763,-0.1152,-0.3511,-0.8228,13.55,-11.963,4.15,-166.229,5.394,-22.599
18773,-0.1138,-0.3633,-0.7734,10.254,-7.751,4.7,-166.014,5.504,-22.626
18803,-0.1104,-0.3384,-0.7524,1.892,5.493,7.202,-165.564,5.614,-22.819
18833,-0.0386,-0.2031,-1.063,-0.244,16.602,7.08,-165.564,5.153,-23.148
18843,-0.0205,-0.1626,-1.1885,0.977,20.752,5.615,-165.63,4.927,-23.253
18873,-0.041,-0.1528,-1.2744,4.517,1.587,0.916,-165.778,4.521,-23.412
18883,-0.0669,-0.1792,-1.2119,5.432,-5.554,-0.977,-165.784,4.559,-23.39
18913,-0.126,-0.2583,-0.9507,-1.709,-13.611,-4.822,-165.778,4.922,-23.176
18923,-0.1382,-0.2842,-0.8765,-4.089,-12.512,-4.944,-165.778,5.065,-23.099
18953,-0.1445,-0.3242,-0.7383,-11.108,-3.906,-4.517,-165.778,5.378,-22.901
18972,-0.1387,-0.3213,-0.7388,-11.902,1.221,-4.211,-165.85,5.35,-22.841
18982,-0.083,-0.2764,-0.8979,-11.902,1.221,-4.211,-165.927,5.219,-22.841
18992,-0.0527,-0.2495,-1.0303,-7.813,17.395,-3.357,-166.009,5.021,-22.852
19022,-0.0024,-0.1982,-1.3042,-1.526,12.39,-3.174,-166.251,4.384,-22.868
19042,-0.0234,-0.1968,-1.3003,0.488,4.028,-1.953,-166.306,4.307,-22.841
19062,-0.0903,-0.2671,-1.0801,3.479,-12.573,-0.61,-166.245,4.493,-22.78
19083,-0.123,-0.2974,-0.9048,-1.16,-14.709,-0.244,-166.168,4.823,-22.703
19092,-0.123,-0.2974,-0.9048,-1.587,-11.597,-0.061,-166.124,4.966,-22.676
19102,-0.1279,-0.3032,-0.8105,-2.197,-8.179,0.0,-166.075,5.081,-22.654
19121,-0.1309,-0.3047,-0.79,-2.014,-0.427,1.099,-165.981,5.197,-22.659
19132,-0.0947,-0.2847,-0.8589,-2.563,4.272,1.465,-165.97,5.169,-22.681
19142,-0.0688,-0.2632,-0.9419,-3.296,8.484,1.404,-165.987,5.076,-22.714
19151,-0.0688,-0.2632,-0.9419,-3.296,8.484,1.404,-166.053,4.96,-22.753
19172,-0.0317,-0.1895,-1.147,-1.526,10.681,-1.343,-166.212,4.675,-22.797
19182,-0.0156,-0.1431,-1.2808,0.305,7.935,-3.174,-166.284,4.554,-22.786
19191,-0.0156,-0.1431,-1.2808,2.93,4.211,-4.333,-166.328,4.466,-22.753
19201,-0.0293,-0.1572,-1.2881,2.93,4.211,-4.333,-166.328,4.417,-22.703
19212,-0.0356,-0.187,-1.248,8.911,-4.517,-6.104,-166.284,4.422,-22.632
19241,-0.0522,-0.2339,-1.1655,7.324,-18.25,-3.479,-165.965,4.774,-22.385
19252,-0.1104,-0.332,-0.8691,4.15,-19.104,-1.892,-165.85,4.971,-22.319
19271,-0.123,-0.3481,-0.7979,-0.793,-13.367,0.427,-165.624,5.323,-22.242
19281,-0.1333,-0.3726,-0.7046,-3.54,-9.766,1.77,-165.526,5.466,-22.236
19291,-0.1348,-0.3647,-0.6865,-6.836,-5.92,2.808,-165.46,5.57,-22.247
19311,-0.1094,-0.3003,-0.7886,-13.489,5.432,3.296,-165.537,5.603,-22.324
19321,-0.0835,-0.2554,-0.8804,-13.489,5.432,3.296,-165.663,5.493,-22.379
19341,-0.0684,-0.2012,-1.0015,-12.573,14.954,1.709,-165.97,5.125,-22.484
19351,-0.0146,-0.1484,-1.2227,-4.272,20.081,-0.488,-166.086,4.889,-22.527
19361,-0.0112,-0.144,-1.2764,-1.953,15.564,-1.221,-166.185,4.691,-22.555
19391,-0.0464,-0.1689,-1.2373,0.488,-5.859,-3.601,-166.355,4.57,-22.473
19410,-0.082,-0.2261,-1.1016,0.793,-9.644,-3.845,-166.36,4.757,-22.346
19431,-0.1113,-0.2964,-0.8887,-4.272,-11.414,-2.258,-166.339,5.004,-22.236
19450,-0.1196,-0.2998,-0.8437,-6.409,-6.958,0.0,-166.339,5.224,-22.187
19471,-0.1138,-0.2881,-0.8242,-3.296,1.221,1.343,-166.3,5.29,-22.203
19490,-0.0615,-0.2539,-0.9731,-4.272,10.62,-0.244,-166.333,5.12,-22.247
19500,-0.0405,-0.2139,-1.0801,-5.859,11.902,-0.488,-166.421,4.971,-22.275
19511,-0.0195,-0.1807,-1.1812,-5.066,12.024,-0.122,-166.52,4.818,-22.302
19520,-0.0146,-0.1665,-1.2378,-5.066,12.024,-0.122,-166.597,4.68,-22.324
19560,-0.0703,-0.23,-1.1431,9.399,-5.676,-0.244,-166.426,4.724,-22.297
19580,-0.1094,-0.2925,-0.9238,9.399,-5.676,-0.244,-166.333,4.927,-22.231
19600,-0.1094,-0.2925,-0.9238,-4.211,-6.042,-0.366,-166.289,5.114,-22.187
19610,-0.1191,-0.3047,-0.8125,-3.784,-2.869,-0.061,-166.256,5.169,-22.181
19620,-0.1099,-0.3022,-0.8193,-3.784,0.732,0.427,-166.229,5.186,-22.187
19640,-0.1011,-0.2896,-0.8555,-5.798,7.935,1.465,-166.267,5.081,-22.242
19650,-0.0542,-0.2559,-0.9956,-5.798,7.935,1.465,-166.328,4.96,-22.28
19660,-0.0449,-0.2349,-1.0615,-7.08,10.376,2.136,-166.41,4.839,-22.33
19669,-0.0449,-0.2349,-1.0615,-7.324,8.667,2.625,-166.514,4.735,-22.374
19690,-0.0391,-0.1812,-1.1831,-6.348,6.653,3.113,-166.729,4.598,-22.462
19709,-0.0586,-0.1958,-1.1494,-3.113,-3.052,2.747,-166.882,4.598,-22.511
19719,-0.0586,-0.1958,-1.1494,-1.709,-6.897,3.174,-166.921,4.658,-22.527
19730,-0.0825,-0.2339,-1.0415,-0.916,-10.376,3.723,-166.937,4.763,-22.538
19749,-0.0967,-0.2495,-0.9634,-4.456,-11.841,4.333,-166.981,5.032,-22.566
19759,-0.1006,-0.2427,-0.9453,-7.202,-10.193,4.456,-167.042,5.147,-22.588
19799,-0.0776,-0.1948,-1.0205,-5.432,0.671,2.38,-167.338,5.251,-22.687
19810,-0.0645,-0.2134,-1.0469,0.854,3.54,3.296,-167.344,5.208,-22.731
19839,-0.0776,-0.2456,-1.0503,-0.916,-0.854,5.127,-167.349,5.18,-22.868
19859,-0.0771,-0.2466,-1.0479,0.916,0.244,5.92,-167.338,5.186,-22.978
19869,-0.0786,-0.2563,-1.0391,1.343,0.122,5.371,-167.316,5.186,-23.033
19899,-0.0732,-0.2461,-1.0278,-0.244,-0.732,5.127,-167.3,5.191,-23.181
19909,-0.0996,-0.2285,-0.9839,-0.183,-1.221,4.456,-167.3,5.219,-23.225
19949,-0.0942,-0.2231,-0.959,1.587,4.517,1.953,-167.234,5.202,-23.335
19968,-0.0854,-0.2158,-0.9961,0.793,6.287,1.221,-167.239,5.076,-23.39
19989,-0.0596,-0.1982,-1.1113,1.892,4.578,1.221,-167.261,4.933,-23.434
20019,-0.0864,-0.1802,-1.1025,6.714,-1.587,0.305,-167.234,4.911,-23.456
