elapsed_ms,acc_x_g,acc_y_g,acc_z_g,gyro_x_dps,gyro_y_dps,gyro_z_dps,angle_x_deg,angle_y_deg,angle_z_deg
0,-0.3389,-0.5244,-0.8208,-2.502,-0.122,-1.038,-147.728,19.1,-65.704
10,-0.334,-0.5259,-0.8262,-2.625,-0.366,-1.099,-147.744,19.094,-65.693
19,-0.334,-0.5259,-0.8262,-2.625,-0.366,-1.099,-147.766,19.089,-65.682
40,-0.3325,-0.5239,-0.8301,-1.343,-0.61,-0.854,-147.794,19.083,-65.66
50,-0.332,-0.5298,-0.8291,-0.916,-0.793,-0.61,-147.794,19.083,-65.649
59,-0.3359,-0.5313,-0.8271,-0.854,-0.793,-0.366,-147.799,19.083,-65.643
80,-0.3359,-0.5254,-0.8164,-0.488,-0.305,0.0,-147.799,19.089,-65.638
99,-0.3379,-0.5239,-0.8149,0.122,0.0,0.183,-147.777,19.094,-65.643
109,-0.3394,-0.5239,-0.814,1.099,0.305,0.671,-147.766,19.1,-65.649
119,-0.3403,-0.5215,-0.8145,0.916,0.183,0.793,-147.755,19.105,-65.66
149,-0.3403,-0.5181,-0.8135,-0.122,0.122,0.366,-147.755,19.116,-65.671
169,-0.3418,-0.5181,-0.8228,-0.427,0.183,0.122,-147.766,19.122,-65.676
189,-0.3423,-0.5215,-0.8281,0.0,0.427,0.183,-147.772,19.116,-65.682
209,-0.3423,-0.5205,-0.8262,0.488,0.122,0.061,-147.761,19.116,-65.687
229,-0.3413,-0.52,-0.8169,0.854,-0.122,0.183,-147.744,19.127,-65.693
249,-0.3413,-0.52,-0.814,0.854,-0.122,0.183,-147.717,19.133,-65.693
259,-0.3413,-0.52,-0.814,1.221,0.244,0.244,-147.7,19.138,-65.698
278,-0.3438,-0.5215,-0.8125,1.282,0.488,0.183,-147.667,19.133,-65.709
318,-0.3418,-0.5229,-0.814,-0.061,0.549,-0.122,-147.629,19.122,-65.726
339,-0.3423,-0.519,-0.8223,-0.305,0.427,-0.183,-147.634,19.116,-65.731
358,-0.3433,-0.519,-0.8247,0.122,0.427,0.061,-147.64,19.116,-65.737
368,-0.3442,-0.5146,-0.8257,0.427,0.427,0.122,-147.645,19.116,-65.737
379,-0.3418,-0.5181,-0.8267,1.282,0.732,-0.061,-147.634,19.111,-65.742
398,-0.3408,-0.519,-0.8237,0.549,0.122,-0.183,-147.618,19.105,-65.742
408,-0.3408,-0.519,-0.8237,0.061,-0.244,-0.305,-147.618,19.111,-65.737
448,-0.3438,-0.5229,-0.812,0.0,-0.061,-0.488,-147.607,19.133,-65.709
468,-0.3438,-0.5229,-0.812,0.0,-0.061,-0.488,-147.59,19.133,-65.704
478,-0.3408,-0.5249,-0.8066,-0.244,0.122,-0.61,-147.585,19.133,-65.698
488,-0.3398,-0.5269,-0.8086,-0.61,0.061,-0.61,-147.585,19.133,-65.693
518,-0.3408,-0.5244,-0.8135,-1.282,0.122,-0.366,-147.601,19.133,-65.682
558,-0.3364,-0.5244,-0.8232,-0.977,0.427,-0.305,-147.64,19.111,-65.682
577,-0.3364,-0.5225,-0.8262,-0.793,0.0,-0.122,-147.656,19.105,-65.676
598,-0.3418,-0.5215,-0.8208,-0.427,-0.122,-0.122,-147.667,19.111,-65.676
617,-0.3398,-0.5215,-0.8228,-0.122,-0.061,-0.244,-147.667,19.111,-65.671
627,-0.3418,-0.522,-0.8169,0.0,0.061,-0.305,-147.662,19.111,-65.665
638,-0.3408,-0.5239,-0.814,0.061,0.183,-0.305,-147.656,19.111,-65.665
667,-0.3428,-0.5186,-0.8145,0.305,0.244,0.061,-147.645,19.116,-65.671
687,-0.3408,-0.5205,-0.8105,-0.061,0.549,-0.366,-147.634,19.116,-65.671
707,-0.3447,-0.5229,-0.812,-0.854,0.366,-0.488,-147.64,19.111,-65.665
727,-0.3442,-0.522,-0.811,-0.916,0.244,-0.427,-147.651,19.111,-65.665
737,-0.3403,-0.5205,-0.8149,-0.916,0.183,-0.427,-147.656,19.111,-65.66
747,-0.3408,-0.522,-0.8149,-1.038,0.122,-0.427,-147.662,19.111,-65.66
777,-0.3423,-0.52,-0.8193,-1.709,0.244,-0.61,-147.706,19.105,-65.643
817,-0.3369,-0.5225,-0.8291,-1.282,0.427,-0.671,-147.766,19.078,-65.638
836,-0.3364,-0.5239,-0.8296,-0.977,-0.366,-0.488,-147.783,19.072,-65.621
847,-0.3374,-0.5249,-0.8228,-0.549,-0.366,-0.366,-147.783,19.072,-65.616
857,-0.3374,-0.5244,-0.8208,0.061,-0.244,-0.183,-147.777,19.072,-65.616
866,-0.3374,-0.5244,-0.8208,0.061,-0.244,-0.183,-147.761,19.078,-65.616
886,-0.3384,-0.5278,-0.812,0.916,0.122,0.549,-147.733,19.083,-65.621
926,-0.3364,-0.5239,-0.8188,2.441,0.61,1.892,-147.656,19.1,-65.682
946,-0.3354,-0.5234,-0.8242,3.662,0.0,2.136,-147.607,19.116,-65.72
956,-0.3315,-0.5186,-0.835,3.662,-0.916,2.502,-147.579,19.133,-65.737
966,-0.3315,-0.5186,-0.835,4.578,-2.441,3.052,-147.552,19.16,-65.753
986,-0.3315,-0.5186,-0.835,4.578,-2.441,3.052,-147.448,19.297,-65.792
996,-0.3237,-0.5098,-0.8794,4.578,-2.441,3.052,-147.31,19.435,-65.83
1015,-0.3359,-0.5117,-0.791,43.03,-21.79,24.17,-146.689,19.957,-65.989
1036,-0.4365,-0.6572,-0.5698,81.177,-26.245,22.888,-145.025,20.709,-66.121
1066,-0.439,-0.665,-0.2983,23.987,-16.846,-4.761,-142.493,21.621,-65.896
1076,-0.4302,-0.5737,-0.4097,-22.156,4.089,-28.076,-142.465,21.517,-65.682
1095,-0.2461,-0.292,-0.917,-80.444,49.011,-51.331,-143.921,20.253,-65.352
1106,-0.2461,-0.292,-0.917,-67.688,60.486,-35.828,-144.838,19.468,-65.424
1125,-0.3911,-0.3228,-1.1709,-31.738,57.983,-12.817,-145.591,18.495,-65.995
1135,-0.3911,-0.3228,-1.1709,56.274,43.03,9.766,-145.25,18.21,-66.335
1146,-0.4268,-0.6895,-1.0093,80.383,39.429,10.559,-144.558,17.957,-66.665
1165,-0.3853,-0.792,-0.8838,40.222,4.272,9.583,-143.427,17.869,-67.011
1175,-0.2959,-0.6167,-0.7773,40.222,4.272,9.583,-143.3,17.891,-67.017
1185,-0.2734,-0.5361,-0.8101,-6.104,-3.296,-3.723,-143.377,17.875,-66.967
1195,-0.2734,-0.5361,-0.8101,-6.104,-3.296,-3.723,-143.503,17.809,-66.89
1215,-0.2852,-0.5669,-0.8418,-0.244,-10.559,-3.296,-143.575,17.809,-66.725
1255,-0.3706,-0.6719,-0.5308,5.249,-23.865,6.47,-142.916,18.721,-66.346
1275,-0.3301,-0.6309,-0.606,-2.563,-7.751,8.301,-143.004,18.847,-66.456
1285,-0.2402,-0.5132,-0.9033,-12.939,16.296,4.761,-143.251,18.688,-66.599
1304,-0.2305,-0.502,-1.0381,-7.629,22.278,3.113,-143.608,18.265,-66.907
1325,-0.3335,-0.6689,-0.9937,11.536,-4.211,5.92,-143.503,18.215,-67.022
1365,-0.3599,-0.5625,-0.5684,0.366,-9.888,4.517,-143.08,18.913,-66.885
1384,-0.3335,-0.522,-0.5762,2.869,9.705,1.587,-143.004,18.913,-66.984
1394,-0.271,-0.5063,-0.7637,3.662,17.578,-0.061,-143.037,18.748,-67.094
1405,-0.2637,-0.5332,-0.8457,3.296,21.423,-2.014,-143.086,18.528,-67.214
1424,-0.2637,-0.5332,-0.8457,5.798,18.433,-1.465,-143.119,18.248,-67.396
1434,-0.3618,-0.6489,-0.9224,10.681,3.113,3.296,-143.047,18.237,-67.445
1445,-0.3618,-0.6489,-0.9224,10.193,-4.578,3.601,-142.91,18.325,-67.445
1494,-0.311,-0.4624,-0.6338,-3.174,12.573,4.578,-142.745,18.853,-67.544
1504,-0.2632,-0.4766,-0.8955,2.197,18.86,3.54,-142.866,18.682,-67.692
1514,-0.2632,-0.4766,-0.8955,6.409,16.541,3.54,-142.938,18.528,-67.83
1544,-0.395,-0.6699,-0.8447,9.583,-5.676,-0.305,-142.74,18.468,-67.896
1554,-0.3999,-0.6938,-0.6973,6.409,-12.024,-0.732,-142.575,18.6,-67.813
1563,-0.3999,-0.6938,-0.6973,0.916,-16.602,-0.427,-142.421,18.787,-67.703
1603,-0.2661,-0.4775,-0.7734,-3.54,16.663,-0.916,-142.531,18.918,-67.692
1614,-0.2456,-0.5063,-0.9492,-1.648,19.653,-2.197,-142.679,18.688,-67.797
1653,-0.4346,-0.7212,-0.7832,6.409,-13.733,-2.625,-142.679,18.419,-67.747
1664,-0.4346,-0.7212,-0.7832,6.165,-19.775,-0.549,-142.454,18.638,-67.615
1673,-0.4346,-0.7212,-0.7832,6.165,-19.775,-0.549,-142.245,18.869,-67.516
1723,-0.2524,-0.5264,-1.0278,0.244,21.179,-2.808,-142.553,18.364,-67.83
1733,-0.2983,-0.5889,-1.0649,5.066,15.381,-2.441,-142.608,18.182,-67.906
1753,-0.4023,-0.707,-0.8862,12.512,-4.456,1.526,-142.421,18.171,-67.923
1763,-0.4053,-0.7095,-0.7295,11.23,-10.986,2.502,-142.229,18.309,-67.874
1773,-0.3818,-0.7065,-0.5786,7.813,-13.489,2.197,-141.998,18.468,-67.808
1793,-0.3545,-0.5645,-0.4658,0.977,-13.855,1.648,-141.74,18.803,-67.676
1813,-0.2563,-0.4355,-0.7212,-6.653,13.184,0.793,-141.96,18.737,-67.775
1833,-0.2534,-0.5635,-0.9927,3.479,19.897,2.319,-142.218,18.309,-68.077
1843,-0.2534,-0.5635,-0.9927,6.226,9.583,3.54,-142.273,18.215,-68.17
1862,-0.4019,-0.6909,-0.9116,7.324,1.953,2.808,-142.191,18.254,-68.187
1873,-0.4248,-0.6919,-0.7593,7.568,-13.306,1.221,-142.048,18.408,-68.11
1883,-0.4248,-0.6919,-0.7593,4.944,-16.235,0.488,-141.861,18.589,-68.011
1892,-0.4248,-0.6919,-0.7593,0.0,-15.808,0.183,-141.68,18.792,-67.906
1923,-0.2319,-0.4424,-0.729,-5.92,13.306,0.427,-141.768,18.88,-67.934
1932,-0.2319,-0.4424,-0.729,-1.465,20.569,0.977,-141.954,18.655,-68.077
1942,-0.2344,-0.522,-1.1099,4.639,19.287,1.343,-142.081,18.43,-68.214
1952,-0.2344,-0.522,-1.1099,9.46,11.902,0.61,-142.097,18.292,-68.297
1972,-0.4375,-0.7212,-0.8672,7.69,-13.306,0.122,-141.888,18.424,-68.203
1982,-0.3994,-0.6812,-0.7168,3.906,-17.09,-0.916,-141.757,18.589,-68.088
1992,-0.3994,-0.6812,-0.7168,1.221,-16.174,-2.319,-141.636,18.737,-67.961
2022,-0.2852,-0.4941,-0.6558,-7.629,1.831,-5.554,-141.658,18.885,-67.72
2062,-0.3877,-0.665,-0.7788,0.854,6.653,-2.747,-141.812,18.572,-67.775
2083,-0.4438,-0.7227,-0.6533,-1.404,-9.949,-0.366,-141.559,18.825,-67.648
2092,-0.4438,-0.7227,-0.6533,-4.944,-6.47,0.732,-141.493,18.918,-67.61
2102,-0.4438,-0.7227,-0.6533,-7.813,0.366,0.977,-141.504,18.935,-67.621
2111,-0.4438,-0.7227,-0.6533,-7.813,0.366,0.977,-141.68,18.875,-67.67
2121,-0.4438,-0.7227,-0.6533,-7.813,0.366,0.977,-141.921,18.688,-67.78
2132,-0.1958,-0.481,-1.1099,-7.813,0.366,0.977,-142.13,18.452,-67.912
2151,-0.2295,-0.5386,-1.1821,-7.813,0.366,0.977,-142.136,18.155,-68.099
2161,-0.2295,-0.5386,-1.1821,19.226,-6.836,2.136,-141.927,18.221,-68.071
2172,-0.415,-0.7485,-0.689,19.226,-6.836,2.136,-141.658,18.402,-67.978
2191,-0.4199,-0.7061,-0.4941,0.916,-20.081,1.526,-141.136,18.918,-67.731
2201,-0.3784,-0.5791,-0.3491,-3.235,-10.559,1.282,-140.949,19.111,-67.67
2212,-0.3784,-0.5791,-0.3491,-4.7,3.54,1.343,-140.905,19.155,-67.709
2231,-0.2451,-0.5024,-0.8096,-2.502,25.146,2.869,-141.169,18.809,-68.033
2241,-0.249,-0.5127,-1.0264,-0.549,23.987,3.723,-141.356,18.578,-68.22
2261,-0.3208,-0.6104,-1.1802,7.629,15.198,1.221,-141.586,18.215,-68.489
2301,-0.3984,-0.6582,-0.5146,12.512,-19.47,-0.122,-140.867,18.638,-68.225
2311,-0.4058,-0.6401,-0.3457,7.324,-18.982,0.366,-140.532,18.891,-68.104
2321,-0.3877,-0.5898,-0.2925,0.305,-14.038,0.366,-140.257,19.116,-68.011
2341,-0.2881,-0.502,-0.5234,-14.465,10.925,-2.563,-140.279,19.133,-68.044
2351,-0.2524,-0.4873,-0.7549,-15.991,18.616,-2.136,-140.543,18.946,-68.154
2370,-0.2817,-0.5581,-1.1274,-3.845,14.038,0.977,-140.999,18.572,-68.379
2391,-0.292,-0.5825,-1.2417,11.841,4.761,0.427,-141.147,18.353,-68.478
2431,-0.3179,-0.667,-0.8818,30.151,-20.203,-1.526,-140.142,18.556,-68.159
2471,-0.3931,-0.6455,-0.2197,0.977,-7.385,-1.587,-138.56,19.265,-67.659
2480,-0.3931,-0.6455,-0.2197,0.977,-7.385,-1.587,-138.334,19.369,-67.659
2500,-0.3447,-0.6055,-0.5581,-8.423,8.728,1.831,-138.378,19.319,-67.879
2530,-0.2681,-0.6172,-1.1235,-5.615,24.536,0.732,-139.153,18.638,-68.439
2570,-0.3042,-0.6367,-0.9263,3.235,-4.761,-2.747,-139.499,18.243,-68.538
2580,-0.3042,-0.6367,-0.9263,1.648,-9.216,-4.639,-139.455,18.276,-68.439
2589,-0.3042,-0.6367,-0.9263,1.648,-9.216,-4.639,-139.384,18.369,-68.291
2629,-0.3555,-0.6138,-0.3672,-18.738,-0.732,-2.258,-139.054,18.869,-67.901
2640,-0.3076,-0.5977,-0.5327,-18.738,-0.732,-2.258,-139.252,18.825,-67.923
2650,-0.3076,-0.5977,-0.5327,-36.011,11.23,-5.676,-139.625,18.688,-67.956
2699,-0.2935,-0.4927,-1.2695,-32.166,-1.648,-10.376,-142.108,17.974,-67.626
2709,-0.2988,-0.542,-1.1489,8.179,-3.174,-4.7,-142.136,17.924,-67.566
2719,-0.3042,-0.6001,-0.9756,8.179,-3.174,-4.7,-141.96,17.913,-67.5
2730,-0.3154,-0.6543,-0.7603,25.818,-9.033,-3.357,-141.652,17.963,-67.418
2739,-0.3477,-0.6904,-0.5327,25.818,-9.033,-3.357,-141.262,18.067,-67.291
2749,-0.3745,-0.6631,-0.3765,11.23,-14.832,-6.226,-140.889,18.226,-67.137
2759,-0.3887,-0.6216,-0.2817,11.23,-14.832,-6.226,-140.57,18.391,-67.022
2789,-0.312,-0.5278,-0.5811,-3.967,9.155,4.089,-140.334,18.594,-67.077
2799,-0.3184,-0.5444,-0.75,-0.61,11.963,6.653,-140.422,18.55,-67.214
2829,-0.3418,-0.606,-1.0293,4.15,8.179,3.54,-140.707,18.375,-67.566
2839,-0.3418,-0.606,-1.0293,2.93,3.113,0.671,-140.773,18.331,-67.593
2848,-0.3418,-0.606,-1.0293,2.93,3.113,0.671,-140.817,18.314,-67.566
2899,-0.3228,-0.5967,-0.626,5.676,-8.972,-0.427,-140.587,18.572,-67.176
2909,-0.3306,-0.6328,-0.5654,4.639,-5.554,0.0,-140.444,18.644,-67.137
2939,-0.3213,-0.6108,-0.6416,-9.888,5.371,-0.854,-140.339,18.721,-67.137
2949,-0.3135,-0.624,-0.7173,-10.559,10.498,-1.831,-140.449,18.627,-67.192
2968,-0.3135,-0.624,-0.7173,-10.559,10.498,-1.831,-140.795,18.375,-67.363
2979,-0.2603,-0.5747,-1.0161,-10.559,10.498,-1.831,-140.927,18.215,-67.489
2998,-0.2681,-0.5889,-1.0464,-10.559,10.498,-1.831,-141.015,17.985,-67.709
3008,-0.2871,-0.6206,-0.9707,16.541,4.944,4.15,-140.938,17.935,-67.775
3018,-0.3149,-0.644,-0.8521,16.541,4.944,4.15,-140.79,17.952,-67.802
3038,-0.3354,-0.6489,-0.7183,16.541,4.944,4.15,-140.372,18.16,-67.775
3048,-0.3662,-0.6597,-0.4604,8.301,-7.935,2.93,-140.125,18.303,-67.747
3058,-0.3662,-0.6597,-0.4604,1.648,-7.568,2.93,-139.905,18.468,-67.72
3068,-0.3872,-0.6343,-0.3535,1.648,-7.568,2.93,-139.746,18.611,-67.714
3088,-0.3662,-0.5908,-0.4146,-12.207,1.282,2.625,-139.916,18.677,-67.83
3118,-0.2529,-0.5049,-1.2041,-1.709,22.034,3.967,-140.79,18.094,-68.335
3128,-0.2603,-0.5493,-1.2812,7.446,16.724,3.906,-140.916,17.913,-68.478
3137,-0.2603,-0.5493,-1.2812,7.446,16.724,3.906,-140.949,17.798,-68.56
3147,-0.3008,-0.6182,-1.1626,18.188,0.977,1.404,-140.883,17.748,-68.582
3158,-0.3145,-0.6377,-0.9951,19.836,-7.019,-0.427,-140.735,17.77,-68.533
3168,-0.3257,-0.6445,-0.8091,18.555,-13.977,-2.38,-140.526,17.864,-68.417
3187,-0.3467,-0.647,-0.4741,8.179,-17.09,-5.554,-140.004,18.133,-68.11
3198,-0.3467,-0.647,-0.4741,1.709,-15.198,-5.493,-139.746,18.303,-67.961
3208,-0.3857,-0.6196,-0.291,-2.93,-10.254,-4.517,-139.493,18.463,-67.857
3217,-0.3857,-0.6196,-0.291,-2.93,-10.254,-4.517,-139.268,18.578,-67.813
3257,-0.3315,-0.5908,-0.5845,-9.766,3.418,-0.732,-139.713,18.474,-68.198
3267,-0.2358,-0.4858,-1.0742,-18.799,26.978,5.188,-140.131,18.232,-68.423
3278,-0.2041,-0.498,-1.2861,-6.042,27.344,6.042,-140.449,17.963,-68.654
3297,-0.2041,-0.498,-1.2861,-6.042,27.344,6.042,-140.449,17.633,-69.055
3307,-0.2173,-0.624,-1.3496,31.006,9.949,7.568,-140.18,17.606,-69.181
3327,-0.2285,-0.6455,-1.2041,31.006,9.949,7.568,-139.433,17.726,-69.241
3337,-0.2603,-0.668,-0.8081,36.377,-11.597,2.625,-139.054,17.831,-69.186
3347,-0.2603,-0.668,-0.8081,29.419,-17.273,-1.343,-138.719,17.957,-69.055
3367,-0.376,-0.6182,-0.3408,29.419,-17.273,-1.343,-138.329,18.149,-68.676
3377,-0.4131,-0.6064,-0.2646,29.419,-17.273,-1.343,-138.252,18.171,-68.527
3396,-0.4404,-0.6206,-0.2104,0.732,-4.944,-7.568,-138.23,18.133,-68.401
3417,-0.4482,-0.6792,-0.2451,-16.907,9.521,0.732,-138.516,18.023,-68.489
3436,-0.3755,-0.5996,-0.5342,-16.907,9.521,0.732,-139.136,17.842,-68.769
3446,-0.2656,-0.4771,-0.9785,-23.071,23.376,5.676,-139.427,17.704,-68.978
3457,-0.2656,-0.4771,-0.9785,-10.803,27.1,5.676,-139.609,17.534,-69.208
3466,-0.2656,-0.4771,-0.9785,-10.803,27.1,5.676,-139.664,17.391,-69.428
3497,-0.2397,-0.6484,-1.1367,19.287,-0.366,4.089,-139.285,17.331,-69.725
3516,-0.2734,-0.6548,-0.8433,12.451,-14.343,-3.052,-138.944,17.485,-69.549
3526,-0.2993,-0.6582,-0.6841,6.897,-19.287,-6.592,-138.818,17.584,-69.362
3537,-0.3438,-0.6436,-0.54,-1.404,-22.766,-9.155,-138.763,17.693,-69.137
3566,-0.4136,-0.6377,-0.2876,-7.935,-15.747,-8.972,-138.823,17.875,-68.621
3586,-0.3965,-0.647,-0.3257,-12.573,6.714,0.427,-139.037,17.825,-68.648
3596,-0.3301,-0.5693,-0.6211,-17.273,14.648,1.892,-139.246,17.726,-68.763
3606,-0.3301,-0.5693,-0.6211,-17.883,20.142,3.54,-139.477,17.595,-68.928
3626,-0.272,-0.5283,-1.104,-4.395,20.508,4.333,-139.757,17.32,-69.291
3636,-0.2749,-0.5718,-1.1553,-4.395,20.508,4.333,-139.763,17.238,-69.417
3655,-0.27,-0.6182,-1.0874,4.028,-1.831,-2.441,-139.669,17.188,-69.439
3666,-0.2822,-0.6289,-0.9629,-1.953,-12.39,-6.226,-139.653,17.243,-69.302
3676,-0.293,-0.6387,-0.8179,-1.953,-12.39,-6.226,-139.669,17.336,-69.088
3695,-0.3208,-0.6357,-0.6787,-18.616,-30.029,-14.099,-139.812,17.589,-68.489
3706,-0.3687,-0.6099,-0.4673,-18.616,-30.029,-14.099,-139.922,17.721,-68.198
3716,-0.3687,-0.6099,-0.4673,-17.517,-21.057,-10.742,-140.026,17.814,-67.967
3745,-0.2754,-0.5923,-0.6318,-15.991,4.517,-3.784,-140.405,17.776,-67.769
3765,-0.2471,-0.561,-0.8125,-17.212,13.062,-4.944,-140.779,17.551,-67.841
3775,-0.2471,-0.561,-0.8125,-17.212,13.062,-4.944,-140.922,17.397,-67.89
3785,-0.2471,-0.561,-0.8125,-17.212,13.062,-4.944,-141.004,17.298,-67.906
3796,-0.2563,-0.6426,-1.1611,-3.784,-0.854,-4.089,-141.13,17.216,-67.868
3805,-0.2563,-0.6426,-1.1611,-0.061,-7.202,-3.418,-141.191,17.205,-67.791
3815,-0.2886,-0.6489,-0.9629,3.296,-10.864,-3.235,-141.18,17.232,-67.692
3825,-0.2886,-0.6489,-0.9629,4.15,-14.282,-4.15,-141.114,17.298,-67.566
3836,-0.3042,-0.6309,-0.7065,1.526,-16.052,-5.005,-141.026,17.397,-67.418
3845,-0.3208,-0.6201,-0.5894,-1.16,-16.113,-5.31,-140.922,17.518,-67.269
3855,-0.3208,-0.6201,-0.5894,-3.54,-15.259,-4.456,-140.806,17.661,-67.132
3865,-0.3311,-0.6079,-0.4678,-7.263,-11.78,-3.357,-140.713,17.787,-67.028
3885,-0.3286,-0.6226,-0.457,-15.625,-2.502,-2.258,-140.674,17.93,-66.923
3895,-0.3193,-0.6187,-0.5679,-19.409,2.38,-1.77,-140.79,17.93,-66.923
3905,-0.3193,-0.6187,-0.5679,-21.301,6.714,-0.916,-140.993,17.88,-66.962
3935,-0.2632,-0.5415,-1.1021,-14.282,13.062,2.808,-141.768,17.512,-67.269
3954,-0.2705,-0.5537,-1.1592,13.245,5.859,7.019,-141.894,17.358,-67.489
3965,-0.2705,-0.5537,-1.1592,13.245,5.859,7.019,-141.812,17.353,-67.555
3975,-0.2705,-0.5537,-1.1592,13.245,5.859,7.019,-141.691,17.419,-67.588
3994,-0.332,-0.6113,-0.665,13.245,5.859,7.019,-141.312,17.661,-67.571
4005,-0.3496,-0.6045,-0.5625,12.451,-11.292,4.333,-141.092,17.831,-67.527
4015,-0.3589,-0.5962,-0.4873,8.423,-10.01,2.991,-140.878,17.996,-67.489
4034,-0.3706,-0.5942,-0.438,-0.122,1.16,2.014,-140.548,18.221,-67.495
4044,-0.3643,-0.6226,-0.4683,-3.54,6.714,2.319,-140.466,18.254,-67.56
4055,-0.3462,-0.6108,-0.5601,-7.019,10.62,3.357,-140.488,18.237,-67.659
4064,-0.3462,-0.6108,-0.5601,-7.019,10.62,3.357,-140.647,18.166,-67.797
4075,-0.3462,-0.6108,-0.5601,-9.949,19.897,6.165,-140.911,18.029,-67.978
4084,-0.3462,-0.6108,-0.5601,-2.563,23.987,6.287,-141.147,17.831,-68.192
4114,-0.2534,-0.5806,-1.2212,23.437,11.963,5.676,-141.251,17.298,-68.714
4124,-0.2534,-0.5806,-1.2212,24.841,2.136,4.211,-141.13,17.249,-68.758
4154,-0.3105,-0.6392,-0.7021,24.841,2.136,4.211,-140.691,17.435,-68.417
4164,-0.3267,-0.6587,-0.5552,-8.789,-25.024,-14.587,-140.587,17.567,-68.132
4184,-0.3857,-0.6348,-0.3647,-43.823,-26.855,-26.672,-140.685,17.853,-67.379
4194,-0.3857,-0.6348,-0.3647,-54.626,-22.034,-28.198,-140.889,17.974,-67.0
4204,-0.4146,-0.5645,-0.3584,-58.35,-15.015,-26.062,-141.185,18.067,-66.687
4224,-0.3701,-0.5078,-0.603,-41.748,5.31,-12.268,-141.927,18.051,-66.418
4264,-0.2603,-0.4775,-1.0239,12.878,20.02,6.104,-142.795,17.287,-67.066
4314,-0.3081,-0.6226,-0.748,-8.545,-27.893,-15.747,-142.652,17.188,-66.445
4323,-0.3081,-0.6226,-0.748,-8.545,-27.893,-15.747,-142.603,17.375,-66.127
4354,-0.3989,-0.6216,-0.292,-2.014,-12.329,-4.7,-141.932,17.985,-65.517
4363,-0.3989,-0.6216,-0.292,-0.977,-3.479,1.343,-141.669,18.127,-65.506
4383,-0.3511,-0.6357,-0.377,-8.301,12.146,8.24,-141.537,18.188,-65.737
4413,-0.2461,-0.4673,-1.1289,-8.301,12.146,8.24,-142.366,17.792,-66.368
4423,-0.2461,-0.4673,-1.1289,-3.235,23.743,6.897,-142.625,17.567,-66.577
4433,-0.2461,-0.4673,-1.1289,4.333,18.494,4.639,-142.795,17.364,-66.736
4443,-0.2261,-0.5317,-1.2988,4.333,18.494,4.639,-142.861,17.221,-66.813
4453,-0.2417,-0.5493,-1.2061,15.259,-1.038,0.793,-142.839,17.166,-66.813
4473,-0.2764,-0.5884,-0.8799,15.259,-1.038,0.793,-142.581,17.26,-66.627
4483,-0.2764,-0.5884,-0.8799,14.221,-18.127,-5.554,-142.361,17.375,-66.467
4493,-0.333,-0.5967,-0.582,9.644,-19.775,-6.775,-142.13,17.529,-66.286
4512,-0.377,-0.6021,-0.3989,4.883,-17.029,-6.836,-141.658,17.847,-66.0
4533,-0.3779,-0.6504,-0.3848,-0.366,1.892,-0.61,-141.229,18.034,-65.951
4542,-0.3677,-0.6738,-0.4307,-0.366,1.892,-0.61,-141.108,18.062,-66.0
4563,-0.3242,-0.5884,-0.6665,-13.184,8.179,2.93,-141.339,18.034,-66.182
4573,-0.2847,-0.5054,-0.8638,-21.973,12.573,5.066,-141.68,17.946,-66.302
4582,-0.2847,-0.5054,-0.8638,-17.944,16.541,5.615,-142.075,17.787,-66.456
4592,-0.188,-0.4092,-1.2847,-7.568,19.897,5.005,-142.405,17.562,-66.627
4603,-0.1724,-0.4399,-1.4053,5.676,17.7,2.93,-142.592,17.331,-66.764
4612,-0.1724,-0.4399,-1.4053,5.676,17.7,2.93,-142.443,17.265,-66.824
4622,-0.1924,-0.5249,-1.4023,24.475,-1.526,-2.075,-142.191,17.265,-66.797
4632,-0.2104,-0.5649,-1.2773,24.475,-1.526,-2.075,-141.877,17.314,-66.682
4652,-0.2256,-0.5845,-1.1177,25.696,-19.348,-13.855,-141.218,17.452,-66.253
4672,-0.3569,-0.5752,-0.5376,31.372,-14.404,-13.855,-140.499,17.529,-65.797
4692,-0.395,-0.6191,-0.3613,31.372,-14.404,-13.855,-139.708,17.518,-65.572
4702,-0.4253,-0.7246,-0.1387,31.128,-1.587,-1.709,-139.389,17.518,-65.55
4742,-0.4214,-0.7163,-0.2559,-16.724,2.319,4.028,-139.719,17.545,-65.715
4761,-0.3784,-0.6343,-0.4243,-40.894,9.521,5.249,-140.663,17.457,-65.956
4782,-0.2466,-0.4443,-1.0566,-40.527,10.62,10.071,-141.608,17.397,-66.259
4811,-0.1895,-0.3823,-1.3989,-3.967,11.841,4.456,-142.267,17.249,-66.676
4831,-0.2021,-0.4766,-1.4443,14.648,-0.244,-1.892,-142.059,17.194,-66.709
4851,-0.2759,-0.6016,-0.9756,13.0,-15.93,-7.385,-141.691,17.314,-66.451
4862,-0.3125,-0.6113,-0.7646,8.606,-21.118,-10.681,-141.542,17.413,-66.231
4891,-0.4072,-0.5981,-0.3101,-1.77,-18.066,-9.766,-141.312,17.699,-65.528
4902,-0.3994,-0.6211,-0.2622,-2.319,-9.888,-6.226,-141.301,17.737,-65.407
4911,-0.3994,-0.6211,-0.2622,-4.028,-1.038,-2.563,-141.334,17.732,-65.38
4931,-0.3325,-0.6563,-0.4575,-4.028,-1.038,-2.563,-141.707,17.672,-65.479
4961,-0.2109,-0.4614,-1.1343,-29.175,19.531,2.563,-142.784,17.369,-65.841
4971,-0.1929,-0.4424,-1.3101,-16.418,20.447,2.136,-142.993,17.221,-65.984
4980,-0.1929,-0.4424,-1.3101,-1.831,16.907,1.587,-143.047,17.095,-66.105
4991,-0.2178,-0.5425,-1.3696,-1.831,16.907,1.587,-142.954,17.029,-66.176
5001,-0.2432,-0.5884,-1.2627,18.188,-1.648,1.16,-142.773,17.051,-66.171
5020,-0.2617,-0.6104,-1.0874,18.188,-1.648,1.16,-142.366,17.265,-66.0
5041,-0.3467,-0.6162,-0.5269,6.348,-21.912,-4.272,-142.081,17.562,-65.665
5060,-0.3657,-0.6001,-0.4014,-1.831,-10.193,-3.418,-142.015,17.726,-65.418
5072,-0.3599,-0.6167,-0.3271,-2.747,-1.709,-0.671,-142.037,17.737,-65.402
5081,-0.3599,-0.6167,-0.3271,-4.517,5.249,2.075,-142.097,17.71,-65.451
5130,-0.2661,-0.4653,-1.0464,-16.174,19.104,2.441,-143.553,17.144,-66.083
5161,-0.2559,-0.52,-1.2554,10.01,0.488,-0.549,-144.009,16.699,-66.253
5170,-0.2695,-0.5439,-1.1187,14.038,-7.568,-0.916,-143.954,16.71,-66.204
5180,-0.2695,-0.5439,-1.1187,15.198,-12.634,-2.197,-143.822,16.776,-66.105
5190,-0.2954,-0.6011,-0.7656,13.123,-16.052,-3.723,-143.635,16.88,-65.973
5210,-0.3193,-0.5996,-0.6191,2.502,-15.686,-5.676,-143.234,17.183,-65.676
5230,-0.374,-0.6016,-0.3931,-2.808,-12.024,-5.615,-142.894,17.463,-65.473
5260,-0.3521,-0.6348,-0.5503,-16.785,9.949,0.793,-142.844,17.545,-65.539
5270,-0.3286,-0.603,-0.6792,-21.118,10.803,3.174,-143.037,17.501,-65.632
5300,-0.2456,-0.4658,-1.1196,-21.118,10.803,3.174,-144.025,17.265,-65.984
5330,-0.2466,-0.4893,-1.1821,5.249,0.732,2.93,-144.542,17.029,-66.193
5340,-0.2466,-0.4893,-1.1821,9.277,-3.906,1.099,-144.558,17.012,-66.176
5359,-0.2671,-0.5142,-1.0005,9.277,-3.906,1.099,-144.36,17.067,-66.061
5370,-0.3081,-0.5693,-0.7466,16.663,-9.399,-2.563,-144.157,17.139,-65.984
5380,-0.3286,-0.5908,-0.6431,15.442,-9.216,-2.625,-143.915,17.232,-65.901
5409,-0.3633,-0.6021,-0.5029,4.578,-1.953,-0.61,-143.245,17.518,-65.775
5429,-0.3555,-0.6079,-0.5732,-3.662,4.272,0.732,-143.064,17.595,-65.819
5449,-0.3491,-0.5762,-0.7002,-8.85,5.31,0.916,-143.223,17.606,-65.901
5469,-0.3398,-0.543,-0.7715,-17.456,5.066,0.305,-143.657,17.556,-65.973
5519,-0.2695,-0.499,-1.0156,-6.47,-5.737,-2.747,-144.679,17.347,-65.891
5559,-0.2974,-0.5825,-0.8027,3.723,-9.644,-4.578,-144.706,17.474,-65.539
5578,-0.3091,-0.6104,-0.7275,2.991,-8.789,-3.845,-144.454,17.595,-65.352
5589,-0.3091,-0.6104,-0.7275,0.183,-7.385,-2.869,-144.338,17.666,-65.286
5599,-0.3228,-0.6123,-0.6016,-2.93,-4.089,-2.38,-144.256,17.715,-65.237
5618,-0.3066,-0.5928,-0.6587,-7.935,3.479,-1.343,-144.234,17.704,-65.231
5629,-0.293,-0.5762,-0.73,-9.155,6.592,-0.122,-144.311,17.65,-65.27
5639,-0.2866,-0.5513,-0.8188,-8.606,8.789,1.587,-144.437,17.573,-65.336
5669,-0.2729,-0.4844,-1.0552,3.113,11.292,4.761,-144.838,17.287,-65.643
5679,-0.269,-0.5,-1.0728,3.113,11.292,4.761,-144.888,17.183,-65.737
5698,-0.2832,-0.5562,-0.9634,3.113,11.292,4.761,-144.811,17.067,-65.825
5708,-0.313,-0.5825,-0.853,3.113,11.292,4.761,-144.728,17.1,-65.786
5738,-0.3584,-0.5605,-0.5918,-8.057,-12.573,-7.507,-144.668,17.391,-65.391
5748,-0.3599,-0.5264,-0.5762,-19.958,-9.888,-10.071,-144.75,17.49,-65.248
5788,-0.2817,-0.5259,-0.8735,-12.451,9.521,-3.723,-145.228,17.347,-65.138
5798,-0.2817,-0.5259,-0.8735,-15.686,10.01,-5.615,-145.448,17.205,-65.149
5808,-0.2739,-0.502,-1.0229,-17.578,7.935,-7.629,-145.701,17.056,-65.132
5818,-0.2808,-0.5024,-1.0249,-15.93,4.761,-8.362,-145.931,16.941,-65.089
5838,-0.2881,-0.5371,-0.9541,-5.92,-3.784,-7.263,-146.157,16.831,-64.935
5848,-0.2817,-0.5459,-0.8921,-3.662,-5.615,-7.019,-146.19,16.82,-64.841
5858,-0.2817,-0.5459,-0.8921,-4.272,-6.531,-6.897,-146.212,16.826,-64.742
5907,-0.3081,-0.5503,-0.6943,-6.958,-3.906,-5.859,-146.223,16.957,-64.336
5928,-0.2949,-0.5586,-0.7656,-5.005,1.953,0.732,-146.25,16.957,-64.341
5957,-0.2705,-0.5024,-0.9741,-2.075,3.906,2.93,-146.508,16.831,-64.479
5968,-0.2705,-0.5024,-0.9741,1.038,3.113,2.991,-146.591,16.787,-64.523
5977,-0.2705,-0.5024,-0.9741,1.038,3.113,2.991,-146.64,16.743,-64.556
5997,-0.292,-0.5068,-0.9487,8.606,-4.333,0.977,-146.607,16.754,-64.55
6007,-0.3081,-0.5298,-0.8696,10.62,-6.348,0.0,-146.508,16.809,-64.512
6037,-0.3291,-0.5781,-0.6465,6.042,-5.92,-1.221,-146.074,17.04,-64.369
6047,-0.3447,-0.5845,-0.5996,2.502,-4.7,-0.671,-145.937,17.128,-64.336
6057,-0.3447,-0.5845,-0.5996,-1.038,-1.892,0.244,-145.833,17.205,-64.33
6077,-0.3193,-0.5801,-0.6348,-7.385,5.493,1.587,-145.778,17.238,-64.396
6097,-0.2822,-0.5068,-0.8369,-7.385,5.493,1.587,-146.036,17.144,-64.545
6107,-0.2646,-0.4575,-0.9712,-8.972,9.705,5.249,-146.245,17.062,-64.649
6126,-0.2485,-0.4336,-1.0859,5.554,10.559,5.249,-146.525,16.837,-64.869
6137,-0.2485,-0.4336,-1.0859,5.554,10.559,5.249,-146.558,16.727,-64.94
6147,-0.2476,-0.4883,-1.1748,5.554,10.559,5.249,-146.525,16.65,-64.968
6166,-0.2612,-0.5122,-1.1001,5.554,10.559,5.249,-146.299,16.628,-64.891
6187,-0.3154,-0.5884,-0.6982,15.564,-10.742,-5.615,-145.86,16.76,-64.688
6216,-0.3696,-0.6021,-0.4375,2.258,-4.639,-4.456,-145.107,17.089,-64.391
6227,-0.3691,-0.6152,-0.4297,0.305,0.732,-1.709,-144.899,17.166,-64.38
6267,-0.3174,-0.5605,-0.7124,-19.714,11.23,6.531,-144.943,17.15,-64.72
6276,-0.3174,-0.5605,-0.7124,-21.057,13.062,6.897,-145.239,17.073,-64.858
6286,-0.248,-0.4492,-1.0298,-21.057,13.062,6.897,-145.569,16.946,-64.995
6296,-0.2168,-0.4019,-1.1885,-11.108,13.855,6.287,-145.876,16.798,-65.132
6316,-0.2031,-0.4067,-1.2827,-11.108,13.855,6.287,-146.212,16.512,-65.336
6326,-0.2266,-0.4487,-1.2808,-11.108,13.855,6.287,-146.245,16.436,-65.363
6336,-0.2266,-0.4487,-1.2808,17.395,-2.991,0.366,-146.19,16.403,-65.347
6345,-0.2266,-0.4487,-1.2808,17.395,-2.991,0.366,-146.058,16.414,-65.297
6366,-0.2705,-0.5376,-0.9199,22.217,-12.817,-4.517,-145.569,16.551,-65.094
6385,-0.3237,-0.5972,-0.6177,19.348,-13.245,-5.554,-144.899,16.809,-64.852
6425,-0.376,-0.6621,-0.3691,-6.042,5.371,1.343,-143.806,17.183,-64.764
6436,-0.3589,-0.6626,-0.4771,-6.042,5.371,1.343,-143.789,17.216,-64.841
6446,-0.3589,-0.6626,-0.4771,-21.606,7.202,6.348,-143.937,17.243,-64.94
6455,-0.3086,-0.5347,-0.7515,-21.606,7.202,6.348,-144.229,17.216,-65.056
6475,-0.2725,-0.4912,-0.9141,-25.574,13.489,5.92,-144.998,16.968,-65.325
6495,-0.207,-0.3892,-1.3052,-25.574,13.489,5.92,-145.701,16.622,-65.539
6515,-0.23,-0.4424,-1.2676,7.935,3.479,-0.244,-145.981,16.375,-65.621
6535,-0.2695,-0.5195,-1.0205,17.517,-9.277,-2.808,-145.816,16.375,-65.511
6555,-0.3154,-0.5801,-0.6943,15.503,-14.404,-5.676,-145.382,16.562,-65.264
6566,-0.3154,-0.5801,-0.6943,12.146,-13.977,-6.104,-145.096,16.705,-65.127
6575,-0.3154,-0.5801,-0.6943,12.146,-13.977,-6.104,-144.805,16.848,-65.017
6585,-0.3677,-0.6279,-0.4014,4.272,-6.653,-3.662,-144.52,16.974,-64.946
6595,-0.3618,-0.6367,-0.3965,-0.183,-1.953,-0.977,-144.289,17.067,-64.924
6625,-0.3408,-0.6133,-0.5371,-12.573,5.493,3.052,-144.366,17.144,-65.094
6655,-0.2739,-0.4287,-0.9312,-1.648,23.315,4.211,-145.36,16.606,-65.544
6665,-0.2075,-0.3438,-1.4263,13.733,23.499,2.441,-145.481,16.342,-65.709
6695,-0.2256,-0.4277,-1.395,35.583,-7.69,-3.662,-144.86,16.024,-65.753
6705,-0.2256,-0.4277,-1.395,26.55,-17.761,-8.179,-144.536,16.117,-65.577
6724,-0.3066,-0.6431,-0.6372,-1.16,-28.625,-17.761,-143.965,16.463,-64.99
6735,-0.3066,-0.6431,-0.6372,-13.733,-29.541,-19.531,-143.734,16.694,-64.644
6774,-0.3374,-0.6714,-0.3896,-23.254,0.793,-2.502,-143.234,17.254,-63.99
6804,-0.2134,-0.4824,-1.0342,-23.315,18.921,6.958,-144.102,16.946,-64.358
6864,-0.2031,-0.5142,-1.2832,15.442,-14.099,-1.831,-144.893,16.155,-64.792
6924,-0.3584,-0.6343,-0.3398,6.836,1.709,4.944,-143.311,17.21,-64.155
6954,-0.3179,-0.5566,-0.6699,-16.052,12.329,9.888,-143.24,17.298,-64.556
6964,-0.2856,-0.4717,-0.876,-18.188,16.418,9.888,-143.558,17.216,-64.742
6973,-0.2856,-0.4717,-0.876,-18.188,16.418,9.888,-143.899,17.062,-64.946
6983,-0.2329,-0.4268,-1.2236,-18.188,16.418,9.888,-144.163,16.88,-65.149
6994,-0.2305,-0.4473,-1.3013,-18.188,16.418,9.888,-144.333,16.727,-65.319
7013,-0.2505,-0.4995,-1.2051,14.221,0.488,4.7,-144.41,16.589,-65.479
7023,-0.2651,-0.5039,-1.0728,13.245,-7.874,2.075,-144.371,16.622,-65.446
7034,-0.2783,-0.5166,-0.9248,12.329,-13.306,-0.671,-144.289,16.705,-65.363
7053,-0.2949,-0.5425,-0.7739,9.46,-17.273,-4.211,-143.954,16.979,-65.094
7073,-0.3623,-0.5898,-0.46,4.028,-10.925,-2.014,-143.514,17.32,-64.885
7103,-0.3403,-0.6328,-0.5483,-5.005,4.333,3.479,-143.097,17.545,-64.935
7143,-0.2334,-0.4248,-1.1509,-4.517,14.954,6.409,-143.948,17.243,-65.402
7173,-0.2358,-0.5063,-1.2036,18.311,1.038,3.601,-144.086,16.924,-65.671
7183,-0.2358,-0.5063,-1.2036,18.555,-5.554,1.709,-144.003,16.924,-65.649
7192,-0.2358,-0.5063,-1.2036,18.555,-5.554,1.709,-143.877,16.968,-65.577
7203,-0.2866,-0.5576,-0.8296,18.555,-5.554,1.709,-143.69,17.051,-65.473
7213,-0.3086,-0.5923,-0.6943,16.174,-14.771,-4.395,-143.448,17.161,-65.347
7223,-0.334,-0.6084,-0.583,11.353,-14.587,-5.859,-143.201,17.287,-65.204
7253,-0.3862,-0.6343,-0.4087,-1.77,-3.052,-2.93,-142.542,17.633,-64.94
7272,-0.3774,-0.6519,-0.4268,-3.723,2.563,-0.183,-142.322,17.715,-65.017
7282,-0.3481,-0.6377,-0.5537,-3.723,2.563,-0.183,-142.372,17.732,-65.11
7293,-0.3301,-0.5845,-0.6709,-18.982,9.155,6.714,-142.559,17.726,-65.22
7322,-0.2485,-0.478,-1.0562,-19.897,13.245,6.897,-143.503,17.463,-65.638
7333,-0.2324,-0.4565,-1.1416,-12.085,10.925,7.996,-143.811,17.358,-65.775
7342,-0.2324,-0.4565,-1.1416,-12.085,10.925,7.996,-144.053,17.26,-65.891
7362,-0.2319,-0.4883,-1.165,1.465,4.211,7.141,-144.283,17.161,-66.022
7382,-0.2432,-0.501,-1.0879,13.672,-10.437,3.235,-144.223,17.249,-65.989
7402,-0.3101,-0.5464,-0.7822,17.029,-12.451,0.122,-143.921,17.452,-65.852
7422,-0.3286,-0.5708,-0.688,14.099,-8.789,-0.916,-143.465,17.672,-65.715
7442,-0.3789,-0.6084,-0.5098,8.667,-3.601,1.16,-142.998,17.902,-65.66
7462,-0.3779,-0.6147,-0.5078,-1.465,4.578,1.648,-142.734,18.023,-65.72
7472,-0.3618,-0.603,-0.5845,-8.362,7.568,0.732,-142.745,18.023,-65.775
7482,-0.3481,-0.5767,-0.6606,-14.099,9.399,0.183,-142.866,17.985,-65.836
7502,-0.2881,-0.5015,-0.876,-16.602,12.207,1.282,-143.339,17.803,-66.0
7512,-0.2534,-0.4712,-1.0039,-12.878,12.756,2.38,-143.613,17.666,-66.099
7531,-0.2275,-0.4634,-1.1206,-6.531,11.108,3.174,-144.075,17.386,-66.292
7541,-0.2144,-0.4707,-1.188,0.488,8.057,2.991,-144.234,17.26,-66.363
7552,-0.2241,-0.4863,-1.207,6.165,3.296,1.953,-144.322,17.172,-66.401
7562,-0.2397,-0.5034,-1.1733,10.742,-2.319,0.916,-144.338,17.133,-66.396
7581,-0.2661,-0.5366,-0.9951,17.09,-9.521,-1.953,-144.179,17.155,-66.275
7592,-0.2827,-0.5688,-0.8613,19.165,-11.719,-2.808,-143.981,17.216,-66.182
7632,-0.3945,-0.6426,-0.3916,5.371,-8.179,-4.089,-142.833,17.721,-65.753
7641,-0.3945,-0.6426,-0.3916,-0.488,-4.822,-2.563,-142.575,17.858,-65.698
7661,-0.3936,-0.6514,-0.3887,-15.32,3.784,0.0,-142.339,18.029,-65.709
7681,-0.3281,-0.5317,-0.6704,-15.32,3.784,0.0,-142.756,18.018,-65.88
7701,-0.2393,-0.4165,-1.0869,-22.4,19.714,4.761,-143.591,17.693,-66.187
7731,-0.208,-0.4214,-1.3467,-22.4,19.714,4.761,-144.399,17.117,-66.533
7741,-0.229,-0.4653,-1.3164,9.888,0.854,-0.122,-144.465,17.029,-66.539
7771,-0.2622,-0.5454,-1.0298,18.127,-17.456,-6.104,-144.064,17.128,-66.209
7790,-0.3218,-0.6206,-0.6328,14.099,-21.423,-7.996,-143.487,17.496,-65.792
7811,-0.4087,-0.6201,-0.2837,-3.052,-12.268,-6.531,-142.888,17.919,-65.468
7820,-0.4087,-0.6201,-0.2837,-3.052,-12.268,-6.531,-142.652,18.056,-65.413
7830,-0.3911,-0.6553,-0.3359,-11.902,2.258,0.0,-142.515,18.133,-65.429
7851,-0.3364,-0.5669,-0.6401,-26.855,8.972,5.188,-142.817,18.171,-65.588
7880,-0.2227,-0.4106,-1.2583,-18.799,17.822,5.859,-144.102,17.737,-66.05
7900,-0.207,-0.4458,-1.4028,-0.305,6.897,2.502,-144.624,17.413,-66.237
7910,-0.207,-0.4458,-1.4028,7.507,-2.258,1.099,-144.712,17.347,-66.231
7920,-0.2295,-0.498,-1.231,13.916,-9.949,0.122,-144.69,17.353,-66.176
7940,-0.2656,-0.5796,-0.8789,13.916,-9.949,0.122,-144.338,17.518,-65.923
7960,-0.3208,-0.6235,-0.5576,17.517,-18.921,-3.113,-143.707,17.825,-65.621
7980,-0.3423,-0.6357,-0.4468,12.451,-7.141,-0.366,-142.976,18.116,-65.473
8000,-0.3672,-0.6772,-0.4033,5.127,6.653,3.54,-142.41,18.243,-65.561
8030,-0.3374,-0.5884,-0.6821,-9.155,13.0,5.371,-142.449,18.171,-65.94
8049,-0.3022,-0.5176,-0.8403,-17.578,15.808,6.775,-143.058,17.924,-66.275
8070,-0.2246,-0.4199,-1.2441,-2.014,16.724,7.019,-143.624,17.573,-66.621
8100,-0.2524,-0.4536,-1.1816,13.428,4.822,4.578,-143.8,17.314,-66.83
8159,-0.3911,-0.6328,-0.4648,20.02,-12.756,-6.836,-142.037,17.908,-66.22
8179,-0.4536,-0.6602,-0.2681,-9.277,-6.104,-7.019,-141.422,18.237,-65.995
8219,-0.3438,-0.5317,-0.6626,-43.579,8.118,-1.16,-142.163,18.452,-65.923
8249,-0.27,-0.4971,-1.0181,-40.344,5.737,1.648,-143.624,18.281,-66.066
8279,-0.1836,-0.3486,-1.377,-27.832,-2.075,-1.77,-145.245,17.963,-66.05
8289,-0.1885,-0.3472,-1.416,-13.977,-2.869,-2.319,-145.58,17.869,-66.011
8319,-0.2256,-0.5127,-1.1641,22.949,-9.827,-3.113,-145.585,17.721,-65.819
8329,-0.2471,-0.5498,-1.0073,27.1,-12.024,-3.54,-145.344,17.743,-65.715
8338,-0.271,-0.5825,-0.834,27.1,-12.024,-3.54,-145.02,17.809,-65.605
8348,-0.3057,-0.6069,-0.6763,27.466,-15.198,-3.479,-144.641,17.919,-65.484
8359,-0.3311,-0.6318,-0.5381,24.658,-13.55,-3.296,-144.223,18.051,-65.374
8369,-0.3574,-0.6553,-0.4248,20.081,-9.277,-2.93,-143.784,18.171,-65.292
8409,-0.3955,-0.6548,-0.3906,-14.526,8.606,-0.793,-142.778,18.452,-65.297
8418,-0.375,-0.6001,-0.5195,-22.644,11.658,0.0,-142.91,18.43,-65.374
8468,-0.2222,-0.3696,-1.3877,-6.531,12.268,-5.92,-144.778,17.474,-65.803
8488,-0.2451,-0.416,-1.3599,3.662,4.822,-7.446,-144.926,17.238,-65.676
8508,-0.3066,-0.5547,-0.8789,3.662,4.822,-7.446,-144.679,17.292,-65.358
8518,-0.3389,-0.5811,-0.6748,9.399,-19.043,-10.193,-144.47,17.424,-65.154
8548,-0.3936,-0.6294,-0.2881,-3.479,-17.09,-11.536,-143.712,17.941,-64.578
8567,-0.3765,-0.6216,-0.2974,-24.048,0.549,-1.709,-143.635,18.122,-64.479
8588,-0.269,-0.4434,-0.8657,-26.062,14.099,4.089,-144.272,17.979,-64.666
8607,-0.2251,-0.397,-1.3223,-26.062,14.099,4.089,-145.047,17.584,-64.951
8618,-0.2168,-0.4072,-1.46,-5.31,13.794,1.16,-145.322,17.38,-65.045
8647,-0.2109,-0.4199,-1.5044,21.973,-16.235,-3.906,-144.888,17.468,-64.913
8658,-0.2124,-0.5171,-1.1816,27.71,-27.832,-6.47,-144.547,17.655,-64.688
8677,-0.3242,-0.5889,-0.6938,27.71,-27.832,-6.47,-143.8,18.226,-64.012
8687,-0.3242,-0.5889,-0.6938,22.522,-38.147,-9.583,-143.476,18.479,-63.693
8707,-0.3984,-0.6826,-0.1489,19.531,-27.344,-6.104,-143.004,18.765,-63.353
8717,-0.3979,-0.7261,-0.0933,10.864,-5.432,0.854,-142.888,18.814,-63.325
8727,-0.3945,-0.7329,-0.126,0.854,0.793,5.554,-142.894,18.842,-63.375
8747,-0.376,-0.689,-0.2471,-11.597,6.958,9.644,-143.35,18.814,-63.688
8757,-0.376,-0.689,-0.2471,-11.597,6.958,9.644,-143.74,18.748,-63.924
8767,-0.2451,-0.3491,-1.1279,-29.602,24.109,12.451,-144.119,18.627,-64.182
8776,-0.2451,-0.3491,-1.1279,-19.653,25.085,8.484,-144.388,18.474,-64.413
8797,-0.3086,-0.396,-1.5229,4.333,4.15,0.977,-144.47,18.325,-64.589
8837,-0.3647,-0.5503,-0.6509,12.329,-20.935,-9.766,-143.762,18.693,-63.984
8856,-0.3711,-0.5503,-0.4761,6.226,-12.817,-8.545,-143.492,18.842,-63.633
8867,-0.3711,-0.5503,-0.4761,3.357,-5.615,-7.08,-143.427,18.842,-63.539
8877,-0.3486,-0.6309,-0.3257,-2.014,-0.061,-4.7,-143.438,18.814,-63.495
8906,-0.3364,-0.5869,-0.6357,-25.94,7.813,2.93,-144.036,18.688,-63.605
8917,-0.3037,-0.5239,-0.855,-26.855,12.329,4.211,-144.338,18.616,-63.721
8926,-0.2622,-0.439,-1.0996,-26.855,12.329,4.211,-144.63,18.512,-63.853
8936,-0.228,-0.3853,-1.311,-26.855,12.329,4.211,-144.849,18.402,-63.984
8946,-0.2212,-0.3853,-1.4204,-7.385,13.184,2.136,-144.954,18.309,-64.083
8966,-0.2627,-0.4258,-1.3574,-7.385,13.184,2.136,-144.767,18.276,-64.089
8976,-0.2725,-0.4814,-1.1948,22.949,-8.057,-2.808,-144.514,18.325,-64.017
8986,-0.2896,-0.5396,-0.9902,27.649,-13.0,-3.723,-144.207,18.408,-63.902
9016,-0.3662,-0.6328,-0.4165,20.142,-14.648,-3.845,-143.344,18.71,-63.495
9026,-0.3789,-0.6411,-0.3169,15.503,-9.094,-1.709,-143.163,18.776,-63.424
9096,-0.2749,-0.4629,-1.124,-16.968,11.475,9.766,-144.02,18.539,-64.243
9126,-0.2749,-0.4346,-1.2954,-16.968,11.475,9.766,-144.338,18.528,-64.418
9166,-0.333,-0.4487,-1.04,-0.366,-15.686,-9.216,-144.179,18.781,-63.842
9176,-0.3823,-0.5366,-0.562,10.559,-9.216,-6.287,-144.036,18.82,-63.726
9185,-0.3823,-0.5366,-0.562,10.559,-9.216,-6.287,-143.91,18.842,-63.655
9205,-0.376,-0.5942,-0.4331,-3.174,0.854,-1.404,-143.877,18.831,-63.616
9225,-0.3745,-0.5996,-0.4766,-15.686,7.751,-0.183,-144.157,18.721,-63.682
9235,-0.3745,-0.5996,-0.4766,-15.686,7.751,-0.183,-144.388,18.649,-63.754
9245,-0.3237,-0.5376,-0.7988,-24.414,10.559,2.563,-144.662,18.578,-63.842
9275,-0.2568,-0.4443,-1.1416,-18.555,8.667,2.014,-145.41,18.391,-64.083
9305,-0.2646,-0.4507,-1.1279,-1.831,-0.061,-1.526,-145.915,18.193,-64.127
9315,-0.2715,-0.4775,-1.0547,3.113,-2.441,-2.441,-145.97,18.149,-64.094
9355,-0.3394,-0.5537,-0.7148,7.324,-4.883,-1.892,-145.574,18.298,-63.875
9374,-0.3608,-0.6035,-0.5508,1.892,0.427,1.221,-145.223,18.43,-63.869
9385,-0.3608,-0.6035,-0.5508,1.892,0.427,1.221,-145.113,18.468,-63.913
9395,-0.3525,-0.5962,-0.5615,-6.836,6.165,2.319,-145.08,18.479,-63.968
9414,-0.3457,-0.5674,-0.6343,-12.146,7.385,2.625,-145.322,18.435,-64.122
9444,-0.2725,-0.4419,-1.0117,-14.221,11.78,5.371,-146.135,18.122,-64.457
9465,-0.2661,-0.4189,-1.2168,1.831,5.188,2.502,-146.492,17.913,-64.594
9484,-0.2778,-0.4331,-1.1763,11.475,-1.343,-2.38,-146.541,17.803,-64.578
9494,-0.293,-0.4932,-0.9663,13.916,-4.089,-4.944,-146.448,17.781,-64.512
9504,-0.293,-0.4932,-0.9663,14.16,-6.653,-7.446,-146.283,17.798,-64.407
9524,-0.3384,-0.5605,-0.6748,7.629,-6.47,-10.071,-145.849,17.908,-64.155
9544,-0.3799,-0.5664,-0.479,1.77,3.357,-8.911,-145.443,17.974,-64.001
9555,-0.3799,-0.5664,-0.479,-2.136,8.484,-9.277,-145.311,17.935,-63.968
9574,-0.3545,-0.5415,-0.6479,-15.381,12.939,-11.841,-145.377,17.721,-63.924
9594,-0.3286,-0.4893,-0.7666,-20.081,13.184,-10.864,-145.887,17.408,-63.913
9604,-0.3286,-0.4893,-0.7666,-20.081,13.184,-10.864,-146.195,17.254,-63.94
9644,-0.2773,-0.4814,-1.1177,9.644,-3.906,1.709,-146.865,17.029,-64.072
9654,-0.2905,-0.5176,-0.9966,12.268,-8.667,-0.488,-146.783,17.073,-64.017
9684,-0.3208,-0.5601,-0.6279,6.775,-9.705,-3.601,-146.327,17.353,-63.748
9694,-0.3228,-0.5708,-0.5542,3.723,-6.592,-3.296,-146.151,17.435,-63.682
9703,-0.3228,-0.5708,-0.5542,3.723,-6.592,-3.296,-146.008,17.518,-63.638
9724,-0.3276,-0.6206,-0.5518,-7.874,-3.967,1.099,-145.92,17.699,-63.649
9743,-0.3267,-0.5918,-0.6465,-20.02,-0.366,9.46,-146.223,17.864,-63.781
9753,-0.3267,-0.5918,-0.6465,-20.02,-0.366,9.46,-146.508,17.891,-63.88
9764,-0.2739,-0.4434,-1.0518,-16.907,2.808,10.925,-146.816,17.886,-63.99
9783,-0.2603,-0.3818,-1.2158,-2.686,2.686,9.399,-147.305,17.831,-64.204
9793,-0.2603,-0.3818,-1.2158,-2.686,2.686,9.399,-147.431,17.77,-64.265
9803,-0.2686,-0.4302,-1.1699,8.911,1.038,2.441,-147.475,17.721,-64.292
9823,-0.3071,-0.5166,-0.9126,8.911,1.038,2.441,-147.299,17.715,-64.265
9833,-0.333,-0.5352,-0.772,14.893,-5.127,-1.465,-147.118,17.77,-64.221
9853,-0.3364,-0.5352,-0.5908,9.033,-2.441,-1.892,-146.739,17.908,-64.144
9873,-0.335,-0.5581,-0.5713,3.357,3.967,-0.488,-146.431,17.963,-64.155
9893,-0.332,-0.5728,-0.6089,-6.287,5.493,2.991,-146.393,17.957,-64.259
9913,-0.3115,-0.4639,-0.9292,-9.766,8.24,3.479,-146.717,17.869,-64.407
9922,-0.3115,-0.4639,-0.9292,-9.766,8.24,3.479,-146.942,17.787,-64.479
9943,-0.2739,-0.3765,-1.2104,3.113,2.075,0.61,-147.266,17.633,-64.539
9962,-0.2891,-0.4336,-1.1211,3.113,2.075,0.61,-147.211,17.545,-64.517
9983,-0.2861,-0.5225,-0.895,26.062,-5.371,-3.845,-146.772,17.529,-64.413
10002,-0.2983,-0.561,-0.7686,26.062,-5.371,-3.845,-146.179,17.606,-64.226
10023,-0.3608,-0.6338,-0.4619,7.69,-4.7,-5.859,-145.569,17.743,-64.05
10042,-0.3638,-0.6396,-0.4292,-3.967,1.465,-1.099,-145.151,17.869,-64.001
10063,-0.3467,-0.6089,-0.5547,-16.235,7.141,2.808,-145.129,17.897,-64.111
10072,-0.3467,-0.6089,-0.5547,-16.235,7.141,2.808,-145.316,17.886,-64.193
10082,-0.3213,-0.519,-0.7729,-24.414,8.728,5.066,-145.591,17.858,-64.292
10092,-0.3081,-0.4883,-0.8857,-24.414,8.728,5.066,-145.92,17.803,-64.391
10112,-0.2554,-0.394,-1.1396,-18.005,8.545,4.761,-146.618,17.617,-64.589
10122,-0.2285,-0.3555,-1.2441,-11.23,7.629,4.578,-146.931,17.501,-64.671
10132,-0.2251,-0.354,-1.2954,-1.404,7.263,4.15,-147.145,17.38,-64.748
10162,-0.2661,-0.438,-1.1431,19.531,1.648,2.686,-147.052,17.188,-64.858
10192,-0.3247,-0.563,-0.7031,31.25,-4.395,-2.441,-146.096,17.243,-64.775
10202,-0.3247,-0.563,-0.7031,25.024,-5.676,-3.601,-145.717,17.325,-64.709
10212,-0.3662,-0.5967,-0.4775,17.151,-4.7,-4.089,-145.355,17.419,-64.649
10221,-0.3662,-0.5967,-0.4775,8.911,-2.258,-4.333,-145.047,17.518,-64.6
10242,-0.3945,-0.5972,-0.4355,-6.958,2.808,-3.357,-144.695,17.666,-64.55
10261,-0.3813,-0.5952,-0.4888,-19.287,5.554,0.244,-144.783,17.726,-64.6
10271,-0.3374,-0.5508,-0.6982,-23.437,5.798,1.709,-145.003,17.715,-64.649
10282,-0.2944,-0.519,-0.8486,-26.184,6.165,1.831,-145.311,17.666,-64.704
10291,-0.2944,-0.519,-0.8486,-26.184,6.165,1.831,-145.679,17.6,-64.748
10311,-0.2153,-0.4375,-1.2261,-15.381,2.38,1.892,-146.343,17.43,-64.814
10331,-0.2119,-0.438,-1.27,1.77,-1.099,1.892,-146.684,17.281,-64.852
10351,-0.2456,-0.4746,-1.0996,12.878,-6.104,-0.61,-146.678,17.243,-64.797
10371,-0.2896,-0.5239,-0.835,12.878,-6.104,-0.61,-146.349,17.281,-64.682
10391,-0.3345,-0.5718,-0.5913,20.63,-5.005,-1.038,-145.756,17.419,-64.594
10411,-0.3813,-0.5967,-0.4624,20.63,-5.005,-1.038,-145.184,17.622,-64.55
10421,-0.3965,-0.5898,-0.4595,-0.549,0.305,-1.16,-145.014,17.721,-64.539
10431,-0.4014,-0.5801,-0.4917,-9.521,1.892,-1.343,-144.959,17.798,-64.539
10440,-0.4014,-0.5801,-0.4917,-17.578,2.258,-1.404,-145.031,17.864,-64.539
10461,-0.3281,-0.46,-0.7949,-26.855,2.319,-0.793,-145.536,17.908,-64.545
10480,-0.2524,-0.3779,-1.1509,-21.362,3.235,0.122,-146.294,17.759,-64.583
10491,-0.2373,-0.375,-1.2729,-13.489,1.587,-0.427,-146.602,17.666,-64.589
10501,-0.2446,-0.3989,-1.3135,-5.188,-0.61,-1.77,-146.81,17.589,-64.572
10510,-0.2446,-0.3989,-1.3135,-5.188,-0.61,-1.77,-146.904,17.534,-64.512
10531,-0.2734,-0.5186,-1.0181,13.733,-10.559,-7.019,-146.783,17.523,-64.297
10541,-0.2769,-0.5566,-0.8545,15.686,-10.925,-7.568,-146.591,17.545,-64.171
10570,-0.3076,-0.6104,-0.5757,9.583,-7.385,-4.578,-145.739,17.748,-63.842
10590,-0.3257,-0.6328,-0.459,1.709,1.709,-0.366,-145.267,17.842,-63.809
10600,-0.3262,-0.6382,-0.5137,1.709,1.709,-0.366,-145.151,17.842,-63.858
10610,-0.3262,-0.6338,-0.582,-9.216,7.263,3.357,-145.14,17.831,-63.929
10630,-0.3086,-0.541,-0.8101,-16.968,9.155,6.653,-145.453,17.776,-64.133
10640,-0.2803,-0.4907,-0.9492,-16.968,9.155,6.653,-145.728,17.704,-64.259
10660,-0.2588,-0.4575,-1.0698,-12.939,10.559,7.385,-146.261,17.507,-64.501
10680,-0.2549,-0.4126,-1.2012,2.625,3.662,4.822,-146.607,17.353,-64.66
10699,-0.2739,-0.4263,-1.1357,12.451,-1.831,2.014,-146.646,17.32,-64.693
10710,-0.3042,-0.4746,-0.9351,14.709,-2.136,0.61,-146.558,17.331,-64.688
10720,-0.3042,-0.4746,-0.9351,14.709,-2.319,-0.183,-146.431,17.358,-64.671
10739,-0.332,-0.5264,-0.7168,12.756,-1.282,-1.709,-146.058,17.452,-64.633
10760,-0.3647,-0.5732,-0.5503,5.493,0.61,-0.916,-145.668,17.578,-64.605
10779,-0.3589,-0.5723,-0.563,-2.808,5.127,1.404,-145.508,17.639,-64.671
10790,-0.3354,-0.563,-0.6733,-6.226,6.042,2.441,-145.536,17.633,-64.726
10800,-0.3271,-0.5337,-0.7622,-9.766,5.371,3.845,-145.646,17.633,-64.792
10809,-0.3062,-0.4995,-0.8647,-11.353,5.493,4.639,-145.822,17.606,-64.863
10819,-0.3062,-0.4995,-0.8647,-11.353,5.493,4.639,-146.025,17.551,-64.935
10830,-0.2607,-0.4551,-1.0601,-6.897,5.31,3.174,-146.217,17.474,-64.995
10849,-0.2617,-0.4585,-1.1235,-0.122,-0.366,1.465,-146.497,17.364,-65.045
10859,-0.2729,-0.4629,-1.0898,3.723,-4.639,0.366,-146.558,17.358,-65.023
10869,-0.2764,-0.4736,-1.0371,6.592,-8.118,-0.793,-146.569,17.386,-64.968
10889,-0.269,-0.4951,-0.9609,5.493,-12.024,-2.563,-146.475,17.501,-64.797
10899,-0.3135,-0.5518,-0.7578,5.615,-10.193,-3.357,-146.371,17.578,-64.709
10909,-0.3423,-0.5732,-0.6621,4.639,-8.85,-3.174,-146.228,17.672,-64.633
10929,-0.3633,-0.6011,-0.5347,2.258,-1.16,-0.549,-145.882,17.825,-64.567
10939,-0.3584,-0.6006,-0.5254,2.258,-1.16,-0.549,-145.745,17.88,-64.589
10959,-0.3477,-0.5942,-0.5513,2.258,-1.16,-0.549,-145.684,17.908,-64.688
10969,-0.3369,-0.5527,-0.6777,2.258,-1.16,-0.549,-145.8,17.897,-64.759
10979,-0.3174,-0.5127,-0.7886,-16.846,7.629,4.089,-146.003,17.864,-64.841
10998,-0.2778,-0.4312,-1.0405,-13.611,7.568,4.517,-146.53,17.732,-65.012
11009,-0.2603,-0.4067,-1.1465,-13.611,7.568,4.517,-146.777,17.644,-65.078
11038,-0.269,-0.4263,-1.1885,11.047,-2.258,0.366,-147.096,17.463,-65.127
11068,-0.2656,-0.4795,-1.0518,24.841,-6.775,-2.502,-146.673,17.441,-64.984
11078,-0.2739,-0.5361,-0.8711,27.1,-8.24,-2.38,-146.398,17.474,-64.913
11089,-0.2739,-0.5615,-0.7876,27.1,-8.24,-2.38,-146.085,17.512,-64.858
11108,-0.3091,-0.6011,-0.6333,28.625,-1.953,0.549,-145.355,17.589,-64.814
11118,-0.3364,-0.6211,-0.5605,25.696,-0.732,1.831,-144.97,17.65,-64.825
11129,-0.3677,-0.6357,-0.5,20.142,0.427,2.319,-144.613,17.726,-64.852
11138,-0.397,-0.6343,-0.4565,20.142,0.427,2.319,-144.316,17.82,-64.874
11148,-0.4219,-0.6123,-0.4512,1.526,2.441,1.526,-144.13,17.919,-64.902
11158,-0.4189,-0.5889,-0.4609,-9.338,3.235,1.221,-144.069,18.018,-64.935
11168,-0.4199,-0.563,-0.5005,-17.761,5.371,0.488,-144.135,18.083,-64.973
11198,-0.3521,-0.4609,-0.7788,-30.09,8.118,2.197,-144.992,18.127,-65.132
11218,-0.3325,-0.4399,-0.8799,-29.297,7.629,2.441,-145.778,18.029,-65.253
11228,-0.2827,-0.4199,-1.064,-23.315,4.883,0.793,-146.146,17.952,-65.286
11238,-0.2539,-0.4224,-1.1333,-19.226,2.38,0.244,-146.475,17.869,-65.303
11268,-0.2246,-0.4829,-1.165,-2.075,-4.639,-2.441,-147.063,17.688,-65.22
11278,-0.2314,-0.5132,-1.1079,2.869,-6.836,-2.869,-147.096,17.661,-65.154
11287,-0.2383,-0.5273,-1.0249,6.348,-9.033,-2.808,-147.063,17.661,-65.083
11308,-0.2529,-0.5605,-0.8481,13.855,-6.958,-1.465,-146.816,17.677,-64.957
11318,-0.2744,-0.5767,-0.7554,16.052,-5.798,0.671,-146.607,17.715,-64.929
11327,-0.2744,-0.5767,-0.7554,16.052,-5.798,0.671,-146.354,17.776,-64.929
11337,-0.2744,-0.5767,-0.7554,14.282,-2.991,4.028,-146.102,17.864,-64.946
11348,-0.3677,-0.6021,-0.5308,9.521,-2.014,5.432,-145.871,17.979,-64.979
11367,-0.3979,-0.5884,-0.5176,-2.625,-0.366,8.606,-145.602,18.254,-65.11
11377,-0.4019,-0.5625,-0.5449,-10.681,0.854,8.24,-145.618,18.38,-65.187
11388,-0.3916,-0.5181,-0.6187,-17.761,3.113,7.141,-145.761,18.468,-65.27
11417,-0.2974,-0.3955,-1.0117,-21.79,9.705,2.747,-146.717,18.353,-65.511
11437,-0.27,-0.3677,-1.2163,-17.578,10.071,1.221,-147.349,18.089,-65.621
11457,-0.2808,-0.4229,-1.2187,2.441,2.136,-4.822,-147.645,17.858,-65.599
11466,-0.3008,-0.4683,-1.1187,2.441,2.136,-4.822,-147.656,17.825,-65.517
11477,-0.3008,-0.4683,-1.1187,7.507,-10.437,-7.874,-147.59,17.858,-65.385
11487,-0.334,-0.54,-0.832,6.348,-14.954,-8.606,-147.475,17.941,-65.226
11497,-0.3442,-0.5708,-0.6841,2.014,-18.982,-8.545,-147.327,18.089,-65.045
11527,-0.3569,-0.5913,-0.561,-7.874,-9.827,-3.967,-146.854,18.561,-64.616
11547,-0.3193,-0.5669,-0.5698,-12.146,3.418,1.221,-146.794,18.638,-64.627
11567,-0.3193,-0.5669,-0.5698,-14.832,8.179,2.441,-147.145,18.484,-64.786
11586,-0.2856,-0.4077,-1.0986,-12.39,13.794,1.038,-147.678,18.193,-64.973
11596,-0.2813,-0.3926,-1.1992,-8.85,10.864,0.305,-147.925,18.045,-65.039
11607,-0.2896,-0.4097,-1.2285,-2.502,6.104,-0.305,-148.096,17.941,-65.067
11616,-0.2896,-0.4097,-1.2285,-2.502,6.104,-0.305,-148.173,17.897,-65.056
11626,-0.2896,-0.4097,-1.2285,-2.502,6.104,-0.305,-148.189,17.924,-65.001
11636,-0.3286,-0.4604,-0.9961,8.728,-10.742,-3.479,-148.145,17.985,-64.907
11647,-0.3315,-0.498,-0.8555,10.071,-12.207,-5.005,-148.024,18.067,-64.797
11656,-0.3315,-0.498,-0.8555,7.813,-14.709,-5.737,-147.854,18.188,-64.66
11676,-0.3696,-0.5781,-0.5249,-5.127,-16.174,-5.432,-147.53,18.528,-64.38
11696,-0.3755,-0.5605,-0.4883,-16.663,-10.376,-1.892,-147.442,18.864,-64.188
11716,-0.355,-0.4956,-0.6294,-19.958,-2.686,0.671,-147.629,19.067,-64.138
11746,-0.2964,-0.4048,-0.9272,-19.836,5.737,-1.953,-148.508,18.864,-64.199
11765,-0.2578,-0.4004,-1.2715,-5.92,4.211,-3.784,-148.986,18.594,-64.199
11786,-0.2744,-0.478,-1.2021,7.263,-8.179,-5.066,-149.073,18.49,-64.056
11805,-0.291,-0.5542,-0.939,13.245,-15.32,-5.676,-148.804,18.589,-63.803
11816,-0.291,-0.5542,-0.939,11.78,-16.846,-5.859,-148.59,18.682,-63.655
11826,-0.3218,-0.6006,-0.6606,8.179,-17.456,-4.639,-148.354,18.82,-63.517
11845,-0.3325,-0.5972,-0.5693,8.179,-17.456,-4.639,-147.909,19.116,-63.331
11856,-0.3433,-0.5796,-0.4888,0.671,-6.958,2.075,-147.717,19.237,-63.309
11866,-0.3428,-0.5723,-0.5088,-2.075,-0.793,4.578,-147.585,19.314,-63.347
11895,-0.3301,-0.4731,-0.7842,-2.075,-0.793,4.578,-147.854,19.303,-63.649
11915,-0.3022,-0.3721,-1.1006,-13.672,12.939,5.737,-148.442,19.078,-63.907
11925,-0.2954,-0.3516,-1.2202,-8.85,11.78,4.272,-148.716,18.94,-64.012
11935,-0.3042,-0.3486,-1.2783,-1.953,8.362,2.319,-148.92,18.82,-64.078
11965,-0.3267,-0.4106,-1.1191,16.418,-7.141,-4.272,-148.964,18.715,-63.979
11975,-0.3325,-0.4487,-0.9839,18.982,-11.658,-5.493,-148.804,18.77,-63.864
11995,-0.3452,-0.4858,-0.8311,17.944,-15.137,-7.141,-148.299,18.995,-63.583
12005,-0.3452,-0.4858,-0.8311,14.771,-13.611,-7.385,-147.986,19.127,-63.441
12015,-0.3784,-0.5752,-0.4844,10.132,-10.376,-6.958,-147.667,19.254,-63.32
12064,-0.3608,-0.6084,-0.5098,-16.602,8.423,2.197,-147.057,19.446,-63.281
12075,-0.3291,-0.5605,-0.71,-19.043,10.681,4.578,-147.222,19.385,-63.38
12085,-0.3105,-0.5273,-0.8267,-19.043,13.0,6.47,-147.458,19.297,-63.512
12115,-0.2744,-0.4355,-1.1162,-13.062,11.475,6.409,-148.282,18.924,-63.924
12134,-0.2686,-0.4063,-1.1733,-4.761,7.019,5.493,-148.744,18.704,-64.116
12155,-0.2827,-0.4004,-1.1504,-4.761,7.019,5.493,-148.947,18.616,-64.215
12164,-0.29,-0.416,-1.0937,-4.761,7.019,5.493,-148.931,18.616,-64.226
12174,-0.3008,-0.4302,-1.0269,-4.761,7.019,5.493,-148.859,18.644,-64.226
12195,-0.3384,-0.4653,-0.8647,21.057,-8.545,3.662,-148.546,18.803,-64.199
12214,-0.355,-0.4722,-0.7905,21.057,-8.545,3.662,-148.079,18.99,-64.182
12224,-0.3628,-0.4946,-0.6841,20.752,-2.197,1.343,-147.832,19.056,-64.182
12234,-0.3809,-0.5112,-0.6436,16.418,-1.099,0.488,-147.607,19.127,-64.182
12254,-0.417,-0.5205,-0.5947,5.554,-0.61,-1.221,-147.272,19.292,-64.16
12264,-0.417,-0.5205,-0.5947,-0.427,0.61,-2.502,-147.189,19.363,-64.138
12274,-0.4121,-0.5098,-0.6152,-6.226,2.869,-3.784,-147.178,19.396,-64.122
12284,-0.4121,-0.5098,-0.6152,-6.226,2.869,-3.784,-147.228,19.391,-64.111
12304,-0.3633,-0.5039,-0.7539,-16.235,5.188,-3.784,-147.475,19.325,-64.094
12324,-0.3052,-0.4653,-0.8926,-17.029,7.568,-2.747,-147.892,19.155,-64.122
12334,-0.291,-0.4604,-0.96,-14.954,7.202,-2.441,-148.107,19.039,-64.138
12344,-0.2856,-0.46,-1.0117,-11.047,5.615,-2.136,-148.299,18.935,-64.149
12353,-0.2773,-0.4707,-1.0435,-6.531,4.639,-1.892,-148.436,18.836,-64.16
12374,-0.272,-0.4946,-1.04,0.183,0.793,-1.221,-148.59,18.677,-64.16
12393,-0.2686,-0.5015,-0.9937,4.944,-0.671,-0.977,-148.607,18.567,-64.133
12403,-0.2749,-0.4951,-0.9687,7.507,-1.465,0.0,-148.574,18.539,-64.127
12414,-0.2744,-0.4814,-0.9595,10.681,-1.038,1.099,-148.519,18.512,-64.127
12443,-0.3042,-0.4761,-0.9214,19.104,-1.831,1.953,-148.184,18.457,-64.171
12454,-0.3213,-0.4917,-0.8701,19.653,-3.235,1.099,-148.008,18.484,-64.16
12483,-0.3784,-0.543,-0.7056,12.146,-5.737,-2.075,-147.343,18.732,-64.045
12503,-0.4263,-0.5669,-0.5156,6.409,-5.066,-3.052,-146.915,18.99,-63.94
12513,-0.436,-0.5615,-0.4277,-7.874,-0.061,-3.357,-146.788,19.1,-63.907
12523,-0.4199,-0.563,-0.436,-13.855,4.517,-3.113,-146.733,19.16,-63.907
12544,-0.3545,-0.5024,-0.6084,-24.719,12.024,-0.732,-146.992,19.122,-64.001
12553,-0.3545,-0.5024,-0.6084,-27.283,16.113,0.427,-147.321,18.99,-64.094
12563,-0.2891,-0.4224,-0.9448,-26.672,16.968,1.77,-147.706,18.825,-64.21
12572,-0.2661,-0.3896,-1.1177,-21.729,15.015,2.136,-148.085,18.649,-64.314
12612,-0.2329,-0.3545,-1.3657,10.803,1.404,-3.174,-148.859,17.996,-64.468
12623,-0.2446,-0.4385,-1.293,18.555,-5.371,-3.601,-148.782,17.946,-64.407
12633,-0.2529,-0.479,-1.1582,24.658,-10.498,-3.784,-148.601,17.946,-64.314
12652,-0.2705,-0.519,-0.9932,28.015,-15.015,-4.883,-147.986,18.089,-64.072
12662,-0.3228,-0.5894,-0.6387,25.635,-16.907,-4.7,-147.585,18.232,-63.935
12673,-0.3579,-0.6167,-0.478,21.423,-17.883,-3.296,-147.134,18.424,-63.803
12702,-0.4175,-0.6743,-0.2471,21.423,-17.883,-3.296,-145.778,18.973,-63.649
12713,-0.4067,-0.6831,-0.2349,-12.451,2.808,2.197,-145.547,19.067,-63.688
12722,-0.4067,-0.6831,-0.2349,-12.451,2.808,2.197,-145.558,19.111,-63.77
12732,-0.3315,-0.522,-0.5581,-32.41,15.747,6.348,-145.838,19.061,-63.918
12742,-0.2886,-0.4199,-0.8184,-33.813,23.376,8.301,-146.31,18.896,-64.133
12772,-0.2256,-0.2632,-1.521,-13.062,23.621,4.211,-147.552,18.193,-64.748
12802,-0.2661,-0.3389,-1.5615,26.001,-2.441,-1.343,-147.189,18.001,-64.885
12812,-0.2695,-0.4736,-1.2749,33.813,-9.094,-2.563,-146.827,18.067,-64.814
12831,-0.2871,-0.5415,-1.0601,29.175,-20.752,-10.315,-146.074,18.281,-64.462
12842,-0.3101,-0.5488,-0.6655,29.175,-20.752,-10.315,-145.761,18.369,-64.215
12852,-0.3579,-0.604,-0.4512,18.738,-20.386,-15.93,-145.492,18.446,-63.957
12861,-0.394,-0.6245,-0.292,18.738,-20.386,-15.93,-145.283,18.517,-63.721
12882,-0.4224,-0.6572,-0.1216,7.08,-3.357,-2.502,-145.047,18.561,-63.528
12901,-0.3892,-0.6343,-0.1689,3.052,2.808,5.066,-145.102,18.539,-63.732
12922,-0.2515,-0.4253,-0.9077,-15.808,20.508,12.817,-145.497,18.38,-64.166
12951,-0.2505,-0.3755,-1.5381,1.343,11.597,3.418,-145.849,18.062,-64.693
12971,-0.2847,-0.4048,-1.5122,1.343,11.597,3.418,-145.64,18.089,-64.589
12981,-0.3223,-0.502,-1.1372,13.733,-16.479,-7.69,-145.453,18.182,-64.424
12991,-0.332,-0.5308,-0.9048,13.733,-16.479,-7.69,-145.25,18.309,-64.199
13001,-0.3496,-0.5366,-0.6929,11.353,-25.085,-11.047,-145.058,18.452,-63.951
13011,-0.3496,-0.5366,-0.6929,11.353,-25.085,-11.047,-144.893,18.6,-63.743
13031,-0.3682,-0.6118,-0.2983,10.071,-12.695,0.305,-144.619,18.836,-63.523
13051,-0.3857,-0.6763,-0.2783,-5.005,-4.7,8.362,-144.63,19.017,-63.556
13061,-0.3745,-0.6475,-0.3721,-5.005,-4.7,8.362,-144.822,19.072,-63.644
13071,-0.3486,-0.5688,-0.5674,-23.865,5.859,11.047,-145.102,19.089,-63.776
13101,-0.2393,-0.4121,-1.1162,-23.865,5.859,11.047,-145.904,18.875,-64.336
13120,-0.2295,-0.374,-1.4897,4.028,3.723,4.028,-145.975,18.792,-64.517
13141,-0.311,-0.4849,-1.2261,17.944,-14.465,7.446,-145.679,19.034,-64.517
13151,-0.3369,-0.4995,-0.9976,22.4,-19.226,6.958,-145.437,19.237,-64.462
13160,-0.3369,-0.4995,-0.9976,22.4,-19.226,6.958,-145.184,19.435,-64.374
13181,-0.3955,-0.5605,-0.4346,19.348,-13.611,2.38,-144.734,19.742,-64.226
13210,-0.3809,-0.6611,-0.3008,7.446,4.883,4.883,-144.338,19.803,-64.319
13221,-0.3867,-0.6606,-0.3306,-4.333,7.08,7.385,-144.421,19.786,-64.424
13250,-0.3628,-0.5654,-0.606,-24.597,15.808,11.475,-145.201,19.655,-64.94
13270,-0.2705,-0.3701,-1.2437,-20.142,14.282,9.338,-145.767,19.523,-65.303
13280,-0.2705,-0.3701,-1.2437,-20.142,14.282,9.338,-145.92,19.473,-65.413
13320,-0.3091,-0.4248,-1.2246,23.376,-11.597,-6.226,-145.349,19.6,-65.209
13330,-0.3213,-0.5186,-0.8848,24.719,-13.855,-7.935,-145.052,19.671,-65.056
13360,-0.3354,-0.5576,-0.7163,14.343,-8.972,-10.62,-144.327,19.786,-64.561
13370,-0.3892,-0.6138,-0.3979,9.46,-4.7,-8.606,-144.201,19.775,-64.457
13400,-0.4009,-0.6455,-0.4385,-12.634,5.615,-2.502,-144.311,19.627,-64.396
13419,-0.3945,-0.6221,-0.5225,-20.081,7.507,-1.404,-144.794,19.479,-64.484
13440,-0.3052,-0.4629,-0.9551,-26.306,14.587,0.854,-145.388,19.265,-64.66
13449,-0.3052,-0.4629,-0.9551,-26.306,14.587,0.854,-145.64,19.155,-64.753
13469,-0.2603,-0.3867,-1.2676,-10.193,7.629,-0.366,-145.953,19.001,-64.869
13489,-0.2852,-0.4292,-1.2036,3.174,-2.441,-3.906,-145.937,18.962,-64.819
13499,-0.2852,-0.4292,-1.2036,8.911,-6.47,-4.944,-145.822,18.99,-64.737
13509,-0.2915,-0.4893,-1.0059,12.39,-9.766,-5.432,-145.662,19.039,-64.633
13520,-0.3047,-0.5215,-0.8784,14.099,-12.329,-5.188,-145.486,19.111,-64.512
13529,-0.332,-0.5435,-0.751,13.916,-13.794,-4.761,-145.305,19.199,-64.385
13540,-0.3608,-0.5576,-0.6318,12.634,-13.916,-3.479,-145.14,19.292,-64.276
13549,-0.3608,-0.5576,-0.6318,11.292,-11.475,-2.136,-144.998,19.374,-64.188
13569,-0.4175,-0.6162,-0.4106,6.348,-2.93,0.0,-144.811,19.446,-64.116
13579,-0.4155,-0.6338,-0.4063,0.488,0.793,1.038,-144.811,19.446,-64.127
13589,-0.4097,-0.6348,-0.4277,-7.141,3.845,1.465,-144.893,19.418,-64.166
13598,-0.4097,-0.6348,-0.4277,-7.141,3.845,1.465,-145.069,19.385,-64.221
13629,-0.2983,-0.4526,-0.9839,-22.522,9.277,4.883,-145.964,19.166,-64.495
13638,-0.2983,-0.4526,-0.9839,-19.592,6.104,4.944,-146.332,19.083,-64.578
13659,-0.27,-0.3735,-1.2998,-7.324,-0.549,2.563,-146.915,18.946,-64.649
13678,-0.3169,-0.4507,-1.1621,6.897,-12.939,-1.221,-147.074,18.99,-64.534
13699,-0.3169,-0.4507,-1.1621,12.146,-18.372,-4.883,-146.843,19.221,-64.254
13718,-0.3818,-0.5845,-0.5518,11.719,-14.16,-3.967,-146.332,19.528,-63.995
13728,-0.3916,-0.6118,-0.4399,8.118,-10.193,-3.235,-146.014,19.677,-63.907
13768,-0.3892,-0.6382,-0.376,-18.25,4.028,1.892,-145.767,19.918,-63.984
13779,-0.3267,-0.4609,-0.7822,-25.085,14.771,6.348,-146.102,19.83,-64.127
13788,-0.3267,-0.4609,-0.7822,-25.085,14.771,6.348,-146.475,19.682,-64.303
13808,-0.2915,-0.3755,-1.2676,-13.123,15.381,4.822,-147.184,19.336,-64.611
13838,-0.3047,-0.3721,-1.2925,1.526,1.465,1.038,-147.678,19.089,-64.677
13848,-0.3042,-0.4355,-1.1587,19.592,-7.263,-2.502,-147.579,19.089,-64.611
13868,-0.3232,-0.5024,-0.9834,19.592,-7.263,-2.502,-147.101,19.232,-64.407
13878,-0.3462,-0.5684,-0.6401,21.118,-13.55,-3.052,-146.772,19.358,-64.303
13888,-0.3677,-0.6074,-0.4854,19.592,-11.658,-1.404,-146.371,19.506,-64.226
13897,-0.3677,-0.6074,-0.4854,19.592,-11.658,-1.404,-145.959,19.655,-64.177
13918,-0.376,-0.6362,-0.3848,9.949,-4.089,2.014,-145.338,19.858,-64.204
13937,-0.377,-0.6299,-0.4468,9.949,-4.089,2.014,-145.261,19.902,-64.374
13958,-0.3223,-0.4712,-0.8936,-16.296,14.771,6.165,-145.717,19.742,-64.638
13967,-0.3223,-0.4712,-0.8936,-16.296,14.771,6.165,-146.014,19.605,-64.792
13988,-0.3003,-0.3975,-1.2466,-3.967,8.667,4.7,-146.514,19.352,-65.012
14007,-0.3105,-0.3999,-1.2495,7.935,-0.427,1.404,-146.733,19.232,-65.072
14017,-0.3105,-0.3999,-1.2495,13.062,-4.333,0.183,-146.711,19.226,-65.05
14027,-0.312,-0.4731,-0.9883,16.052,-6.958,-1.038,-146.613,19.248,-65.001
14038,-0.312,-0.4731,-0.9883,16.052,-6.958,-1.038,-146.453,19.297,-64.935
14047,-0.312,-0.4731,-0.9883,16.052,-6.958,-1.038,-146.239,19.369,-64.863
14057,-0.3438,-0.5532,-0.646,16.052,-8.545,-1.953,-145.992,19.451,-64.797
14067,-0.3667,-0.5693,-0.5732,12.573,-6.836,-1.709,-145.739,19.55,-64.737
14097,-0.4053,-0.583,-0.5283,-0.183,2.319,-0.244,-145.195,19.77,-64.715
14117,-0.4058,-0.5757,-0.5723,-11.78,6.104,-1.343,-145.217,19.792,-64.759
14137,-0.3853,-0.5127,-0.7231,-15.503,7.874,0.244,-145.607,19.715,-64.847
14147,-0.3145,-0.4043,-1.0049,-15.503,7.874,0.244,-145.887,19.611,-64.896
14156,-0.2915,-0.3584,-1.146,-10.681,5.371,0.122,-146.168,19.512,-64.929
14167,-0.3008,-0.3394,-1.231,-4.578,0.549,-1.038,-146.398,19.435,-64.924
14177,-0.3159,-0.3442,-1.2666,2.991,-3.967,-3.479,-146.536,19.391,-64.869
14186,-0.3159,-0.3442,-1.2666,2.991,-3.967,-3.479,-146.563,19.363,-64.775
14207,-0.3228,-0.4873,-1.042,2.991,-3.967,-3.479,-146.266,19.374,-64.495
14217,-0.3325,-0.5425,-0.8862,25.513,-15.076,-9.766,-145.981,19.429,-64.319
14226,-0.3325,-0.5425,-0.8862,25.513,-15.076,-9.766,-145.635,19.506,-64.138
14247,-0.3604,-0.6201,-0.5728,15.991,-11.047,-10.498,-144.822,19.682,-63.798
14257,-0.3833,-0.6846,-0.3633,10.071,-7.507,-9.216,-144.415,19.759,-63.671
14266,-0.3906,-0.7012,-0.3125,2.38,-4.028,-7.019,-144.058,19.825,-63.589
14276,-0.3906,-0.7012,-0.3125,-6.958,-0.061,-4.639,-143.817,19.869,-63.545
14287,-0.3823,-0.7002,-0.3477,-15.869,4.028,-2.075,-143.701,19.885,-63.556
14316,-0.313,-0.5586,-0.731,-26.428,16.296,8.362,-144.207,19.742,-63.902
14326,-0.292,-0.4961,-0.9028,-24.048,18.86,10.864,-144.586,19.616,-64.111
14336,-0.292,-0.4961,-0.9028,-24.048,18.86,10.864,-144.981,19.462,-64.33
14356,-0.2471,-0.3584,-1.3584,-6.836,16.296,7.202,-145.668,19.094,-64.688
14386,-0.2861,-0.3784,-1.3105,11.963,-2.686,-1.099,-146.102,18.765,-64.808
14396,-0.3042,-0.416,-1.1724,18.555,-7.446,-3.296,-146.036,18.754,-64.737
14416,-0.3193,-0.4683,-1.0054,25.269,-13.611,-6.714,-145.591,18.875,-64.484
14426,-0.3564,-0.5415,-0.6484,25.269,-13.611,-6.714,-145.25,18.973,-64.33
14436,-0.375,-0.5669,-0.5142,21.545,-10.254,-8.972,-144.86,19.078,-64.193
14455,-0.416,-0.6323,-0.3301,21.545,-10.254,-8.972,-144.025,19.27,-63.995
14466,-0.4326,-0.668,-0.2935,5.371,-1.343,-5.432,-143.652,19.363,-63.94
14476,-0.4307,-0.6846,-0.3062,-3.784,1.343,-3.418,-143.388,19.44,-63.918
14506,-0.376,-0.5806,-0.5679,-29.663,8.911,3.601,-143.547,19.545,-64.067
14525,-0.3379,-0.52,-0.7314,-29.663,8.911,3.601,-144.322,19.38,-64.341
14536,-0.3062,-0.478,-0.8945,-29.053,14.893,6.348,-144.728,19.27,-64.49
14546,-0.3062,-0.478,-0.8945,-26.489,14.587,5.981,-145.157,19.138,-64.627
14555,-0.3062,-0.478,-0.8945,-26.489,14.587,5.981,-145.58,19.012,-64.742
14565,-0.2661,-0.3662,-1.2471,-19.653,7.69,3.662,-145.975,18.896,-64.819
14575,-0.2578,-0.3506,-1.3057,-12.085,5.859,1.648,-146.305,18.776,-64.869
14595,-0.2676,-0.3643,-1.3091,5.005,-1.587,-2.075,-146.624,18.611,-64.852
14605,-0.3018,-0.4297,-1.1626,11.902,-5.615,-3.052,-146.618,18.594,-64.792
14615,-0.3081,-0.4668,-1.0366,16.479,-8.118,-4.089,-146.519,18.605,-64.709
14635,-0.3325,-0.5337,-0.7671,19.165,-9.949,-4.639,-146.096,18.721,-64.506
14655,-0.3584,-0.5879,-0.5596,17.212,-7.874,-3.845,-145.486,18.907,-64.33
14675,-0.3862,-0.6128,-0.4712,17.212,-7.874,-3.845,-144.921,19.078,-64.248
14685,-0.3911,-0.6206,-0.4819,2.563,1.587,-0.732,-144.723,19.133,-64.254
14695,-0.3911,-0.6206,-0.4819,-3.662,3.723,0.61,-144.624,19.171,-64.281
14725,-0.376,-0.5781,-0.644,-18.25,6.592,2.93,-144.921,19.182,-64.446
14735,-0.3247,-0.5015,-0.8398,-18.982,7.935,3.174,-145.173,19.127,-64.523
14744,-0.3247,-0.5015,-0.8398,-17.578,8.911,2.869,-145.459,19.045,-64.6
14755,-0.291,-0.4536,-1.022,-14.954,7.996,2.563,-145.734,18.946,-64.671
14765,-0.2886,-0.4414,-1.0742,-11.292,6.287,2.38,-145.986,18.858,-64.726
14794,-0.2876,-0.4595,-1.061,0.305,0.244,-0.793,-146.437,18.655,-64.786
14834,-0.3174,-0.5049,-0.8638,11.169,-4.517,-2.625,-146.349,18.633,-64.616
14845,-0.3271,-0.5259,-0.8008,12.756,-4.272,-2.258,-146.212,18.655,-64.567
14854,-0.3271,-0.5259,-0.8008,12.756,-4.272,-2.258,-146.047,18.693,-64.534
14874,-0.3579,-0.5703,-0.6606,9.949,-0.732,-1.465,-145.701,18.765,-64.49
14894,-0.3657,-0.5728,-0.6392,2.38,1.709,-1.343,-145.459,18.825,-64.479
14914,-0.374,-0.5449,-0.6587,-5.676,3.845,-1.953,-145.415,18.847,-64.484
14944,-0.3579,-0.501,-0.7622,-13.184,6.042,-1.587,-145.717,18.798,-64.534
14954,-0.3398,-0.4849,-0.8228,-14.282,6.958,-1.282,-145.909,18.737,-64.567
14963,-0.3398,-0.4849,-0.8228,-14.282,6.958,-1.282,-146.118,18.66,-64.605
14974,-0.2988,-0.4648,-0.9658,-12.39,7.019,-0.061,-146.338,18.572,-64.644
14984,-0.2783,-0.4502,-1.0391,-10.498,6.104,-0.305,-146.552,18.474,-64.677
15003,-0.2583,-0.4336,-1.1128,-3.052,2.136,-2.441,-146.915,18.265,-64.682
15014,-0.2603,-0.4165,-1.1729,4.456,-0.549,-3.54,-146.997,18.182,-64.649
15024,-0.2749,-0.4404,-1.1411,13.184,-2.563,-3.967,-146.97,18.127,-64.6
15043,-0.2964,-0.5376,-0.9502,21.606,-3.906,-3.784,-146.585,18.094,-64.479
15054,-0.3145,-0.5898,-0.8027,25.574,-7.568,-3.967,-146.277,18.127,-64.402
15064,-0.3394,-0.6182,-0.6597,20.691,-9.338,-4.7,-145.948,18.204,-64.303
15073,-0.3394,-0.6182,-0.6597,20.691,-9.338,-4.7,-145.613,18.303,-64.204
15093,-0.4302,-0.6953,-0.2881,-6.287,-8.789,-6.348,-144.97,18.583,-63.99
15113,-0.4395,-0.6963,-0.2305,-6.287,-8.789,-6.348,-144.673,18.858,-63.858
15123,-0.4395,-0.6963,-0.2305,-36.621,2.563,1.892,-144.833,18.962,-63.891
15133,-0.3325,-0.4756,-0.585,-36.682,12.146,6.714,-145.195,18.951,-64.023
15163,-0.2646,-0.333,-1.29,-16.174,23.315,10.071,-146.552,18.435,-64.693
15183,-0.2563,-0.3125,-1.4248,-5.676,16.602,0.916,-147.222,17.99,-64.979
15193,-0.2617,-0.373,-1.4453,0.793,8.301,-4.272,-147.398,17.82,-64.984
15203,-0.2681,-0.3809,-1.3696,5.554,-2.136,-7.874,-147.491,17.721,-64.902
15222,-0.2515,-0.4644,-1.0723,5.554,-2.136,-7.874,-147.415,17.611,-64.616
15243,-0.3262,-0.6377,-0.6133,14.648,-18.555,-12.451,-146.827,17.754,-64.215
15273,-0.3867,-0.7822,-0.1904,-23.804,-18.066,-10.315,-145.684,18.248,-63.561
15283,-0.415,-0.7168,-0.0884,-35.339,-13.977,-4.639,-145.508,18.452,-63.441
15313,-0.2432,-0.2939,-1.0029,-22.156,30.09,13.794,-146.618,18.358,-63.907
15332,-0.2412,-0.3623,-1.4351,-22.156,30.09,13.794,-147.206,17.732,-64.545
15342,-0.2412,-0.3623,-1.4351,-22.156,30.09,13.794,-147.167,17.584,-64.731
15382,-0.3496,-0.498,-0.8105,6.836,-16.052,-5.127,-146.893,17.77,-64.49
15402,-0.3501,-0.5254,-0.6338,5.127,-13.062,-4.333,-146.689,17.963,-64.243
15422,-0.314,-0.5371,-0.4668,-1.038,-1.648,0.977,-146.662,18.04,-64.177
15442,-0.3096,-0.5488,-0.5298,-1.038,-1.648,0.977,-146.827,17.974,-64.308
15492,-0.2559,-0.4033,-1.312,11.475,9.155,4.456,-147.068,17.628,-64.896
15511,-0.27,-0.4199,-1.2715,11.475,9.155,4.456,-146.728,17.666,-64.896
15521,-0.27,-0.4199,-1.2715,18.616,-10.559,-1.831,-146.519,17.743,-64.819
15551,-0.3203,-0.5601,-0.6772,7.69,-15.32,-3.906,-146.052,18.056,-64.446
15572,-0.3848,-0.6108,-0.4111,1.648,-6.653,0.183,-145.953,18.193,-64.319
15591,-0.3813,-0.6226,-0.4106,-7.446,4.639,5.127,-146.074,18.21,-64.413
15601,-0.3472,-0.5776,-0.5635,-13.428,8.667,6.897,-146.245,18.177,-64.523
15612,-0.3086,-0.5127,-0.728,-17.151,12.512,8.423,-146.464,18.116,-64.671
15621,-0.3086,-0.5127,-0.728,-17.151,12.512,8.423,-146.684,18.04,-64.847
15631,-0.2627,-0.3975,-1.0928,-12.085,16.052,10.193,-146.86,17.963,-65.028
15641,-0.2485,-0.3618,-1.248,-4.517,14.404,9.766,-146.959,17.897,-65.198
15661,-0.2485,-0.3618,-1.248,11.047,6.348,5.005,-146.876,17.82,-65.413
15671,-0.2632,-0.4023,-1.3149,15.015,-1.221,1.892,-146.728,17.836,-65.424
15681,-0.271,-0.4321,-1.207,17.761,-7.507,-0.916,-146.536,17.897,-65.374
15701,-0.271,-0.4321,-1.207,17.761,-7.507,-0.916,-146.041,18.073,-65.154
15711,-0.3159,-0.5405,-0.7422,23.315,-14.038,-3.845,-145.772,18.166,-65.039
15721,-0.3276,-0.5654,-0.6104,22.888,-11.902,-2.869,-145.514,18.248,-64.946
15730,-0.3276,-0.5654,-0.6104,22.888,-11.902,-2.869,-145.278,18.309,-64.885
15751,-0.3789,-0.6274,-0.4243,19.165,-3.784,1.16,-144.943,18.364,-64.907
15770,-0.3862,-0.6353,-0.4375,0.0,7.751,5.188,-144.915,18.32,-65.067
15781,-0.3862,-0.6353,-0.4375,0.0,7.751,5.188,-145.02,18.27,-65.176
15791,-0.3677,-0.563,-0.6558,-12.573,10.437,7.202,-145.184,18.226,-65.303
15810,-0.3369,-0.5078,-0.7842,-12.573,10.437,7.202,-145.574,18.116,-65.605
15820,-0.2837,-0.4434,-1.0293,-12.573,10.437,7.202,-145.739,18.051,-65.764
15831,-0.269,-0.4219,-1.1157,-7.813,11.963,8.484,-145.86,17.996,-65.907
15850,-0.2539,-0.3848,-1.2153,-7.813,11.963,8.484,-146.266,17.831,-66.11
15860,-0.2554,-0.3882,-1.2051,5.066,2.136,3.723,-146.387,17.77,-66.154
15871,-0.2729,-0.4126,-1.1567,5.066,2.136,3.723,-146.42,17.743,-66.165
15880,-0.2729,-0.4126,-1.1567,5.066,2.136,3.723,-146.371,17.754,-66.132
15890,-0.3013,-0.4688,-0.9678,5.066,2.136,3.723,-146.239,17.787,-66.083
15911,-0.3149,-0.4951,-0.8452,20.02,-9.705,-2.38,-145.8,17.946,-65.934
15920,-0.3149,-0.4951,-0.8452,20.02,-9.705,-2.38,-145.486,18.073,-65.852
15940,-0.3857,-0.6489,-0.4561,-3.052,-8.057,-4.15,-144.899,18.353,-65.682
15980,-0.373,-0.5459,-0.5146,-50.11,9.827,-0.916,-145.3,18.616,-65.599
16000,-0.3286,-0.4731,-0.8081,-50.11,9.827,-0.916,-146.338,18.435,-65.912
16010,-0.3042,-0.4312,-0.96,-37.415,19.775,9.766,-146.865,18.303,-66.11
16020,-0.2598,-0.3608,-1.127,-34.973,19.836,8.728,-147.426,18.127,-66.302
16030,-0.2197,-0.2769,-1.2974,-34.973,19.836,8.728,-148.013,17.919,-66.462
16040,-0.2197,-0.2769,-1.2974,-27.893,15.259,3.235,-148.557,17.704,-66.577
16050,-0.2144,-0.2085,-1.5059,-15.747,9.338,0.549,-148.964,17.529,-66.632
16080,-0.2832,-0.4009,-1.2271,21.729,-10.803,-4.761,-149.106,17.375,-66.478
16090,-0.2959,-0.4731,-1.0034,25.269,-17.029,-5.737,-148.87,17.463,-66.335
16109,-0.3203,-0.5376,-0.7764,20.386,-23.437,-8.85,-148.129,17.831,-65.94
16130,-0.3765,-0.644,-0.3223,5.737,-13.611,-7.385,-147.283,18.204,-65.61
16159,-0.3667,-0.6289,-0.4023,-9.277,-0.916,-2.075,-146.646,18.474,-65.539
16170,-0.3418,-0.5664,-0.5586,-20.325,9.033,4.333,-146.755,18.468,-65.627
16199,-0.2466,-0.3286,-1.2344,-15.198,18.127,8.972,-147.832,18.083,-66.127
16209,-0.2466,-0.3286,-1.2344,-15.198,18.127,8.972,-148.145,17.913,-66.27
16229,-0.2729,-0.3237,-1.4116,4.578,0.61,-1.038,-148.508,17.704,-66.33
16259,-0.2822,-0.3389,-1.3081,16.052,-12.39,-5.737,-148.315,17.809,-65.984
16269,-0.3281,-0.4951,-0.7832,16.052,-12.39,-5.737,-148.046,17.968,-65.792
16309,-0.3853,-0.6221,-0.3613,1.099,-7.935,-4.211,-146.563,18.699,-65.209
16328,-0.3789,-0.6401,-0.3965,-8.24,-2.319,-2.197,-146.261,18.858,-65.187
16339,-0.3535,-0.562,-0.5576,-8.24,-2.319,-2.197,-146.415,18.858,-65.248
16349,-0.3115,-0.4517,-0.7876,-28.748,13.672,4.028,-146.777,18.765,-65.363
16379,-0.2417,-0.3071,-1.394,-8.484,14.465,5.005,-147.931,18.221,-65.814
16398,-0.2842,-0.3608,-1.3765,5.127,-0.488,-1.465,-148.266,18.012,-65.852
16419,-0.3145,-0.457,-1.0571,12.695,-14.404,-5.676,-148.195,18.078,-65.643
16438,-0.3218,-0.4961,-0.8691,12.939,-18.127,-7.08,-147.832,18.336,-65.303
16448,-0.3354,-0.5313,-0.5854,10.376,-16.785,-6.836,-147.579,18.484,-65.149
16458,-0.3447,-0.5601,-0.5015,9.705,-11.963,-5.493,-147.294,18.616,-65.034
16478,-0.3428,-0.5605,-0.4849,3.906,-1.404,-0.977,-146.838,18.77,-64.946
16488,-0.3374,-0.5625,-0.5942,-1.221,2.991,1.343,-146.761,18.792,-64.979
16498,-0.3384,-0.5308,-0.709,-6.226,5.737,2.502,-146.805,18.781,-65.034
16548,-0.3052,-0.3462,-1.1514,4.456,6.348,0.916,-147.673,18.419,-65.352
16558,-0.2954,-0.3496,-1.1895,4.456,6.348,0.916,-147.728,18.336,-65.363
16568,-0.3008,-0.3755,-1.1426,15.991,-1.77,-2.686,-147.7,18.298,-65.33
16587,-0.3086,-0.4365,-1.0234,19.409,-6.042,-4.761,-147.365,18.353,-65.121
16598,-0.3462,-0.5742,-0.6938,19.409,-6.042,-4.761,-147.112,18.446,-64.924
16608,-0.3457,-0.6567,-0.5103,2.136,-17.639,-16.357,-146.821,18.545,-64.682
16638,-0.4019,-0.8105,-0.1567,-48.889,-20.935,-20.386,-146.157,18.968,-63.759
16657,-0.3984,-0.7046,-0.1362,-48.889,-20.935,-20.386,-146.64,19.089,-63.517
16678,-0.3066,-0.4126,-0.7573,-50.537,25.269,8.057,-147.728,18.825,-63.847
16707,-0.1289,-0.0503,-1.9209,-3.418,45.166,16.357,-148.931,17.968,-64.962
16727,-0.1382,-0.1025,-2.082,12.573,9.46,4.639,-148.832,17.672,-65.347
16737,-0.314,-0.2476,-1.7212,15.381,-14.771,-2.991,-148.645,17.781,-65.237
16747,-0.3364,-0.3359,-1.3354,20.813,-26.672,-11.108,-148.359,17.952,-64.99
16757,-0.3545,-0.4521,-0.9146,24.17,-32.837,-17.517,-148.013,18.138,-64.655
16777,-0.3545,-0.4521,-0.9146,24.841,-33.203,-19.836,-147.299,18.441,-63.984
16787,-0.3379,-0.5762,-0.2114,24.536,-14.465,-13.977,-146.992,18.49,-63.776
16817,-0.3467,-0.6484,-0.3545,10.376,13.367,0.916,-146.541,18.254,-63.809
16827,-0.3789,-0.6465,-0.4478,-1.526,12.634,3.845,-146.585,18.171,-63.918
16847,-0.3765,-0.4976,-0.7705,-1.526,12.634,3.845,-147.025,17.974,-64.254
16857,-0.3267,-0.3823,-1.0059,-1.526,12.634,3.845,-147.299,17.836,-64.457
16886,-0.293,-0.2666,-1.3345,-9.949,7.385,-3.54,-147.827,17.507,-64.737
16916,-0.3398,-0.3633,-1.0903,1.343,-10.681,-13.977,-147.783,17.468,-64.336
16926,-0.3315,-0.4922,-0.7544,1.343,-10.681,-13.977,-147.7,17.518,-64.166
16937,-0.293,-0.5239,-0.6665,3.54,-10.742,-7.507,-147.623,17.567,-64.034
16956,-0.2842,-0.5752,-0.5977,-2.991,-7.324,0.122,-147.607,17.682,-63.918
16966,-0.2778,-0.5313,-0.6362,-2.991,-7.324,0.122,-147.678,17.721,-63.918
16986,-0.2598,-0.459,-0.7627,-5.188,14.587,3.845,-147.865,17.6,-64.089
17006,-0.2187,-0.4272,-1.229,6.531,23.804,-0.977,-147.876,17.21,-64.358
17027,-0.2715,-0.4883,-1.1929,7.324,1.526,-2.808,-147.739,17.051,-64.396
17036,-0.2715,-0.4883,-1.1929,9.46,-7.69,-2.808,-147.623,17.1,-64.325
17046,-0.3018,-0.5273,-0.8945,11.292,-13.184,-2.075,-147.48,17.199,-64.237
17076,-0.3208,-0.5815,-0.5439,8.667,-6.897,-1.404,-147.09,17.419,-64.034
17116,-0.3013,-0.4131,-0.7686,-6.409,13.672,8.545,-147.305,17.287,-64.308
17146,-0.3057,-0.3218,-1.229,1.221,18.555,10.498,-147.431,17.012,-64.863
17165,-0.3247,-0.3423,-1.2812,14.709,3.601,1.953,-147.217,16.935,-65.012
17185,-0.3228,-0.4268,-1.0483,19.958,-9.705,-4.028,-146.805,17.018,-64.891
17196,-0.3242,-0.4712,-0.8887,19.287,-15.137,-6.348,-146.574,17.111,-64.748
17205,-0.3242,-0.4712,-0.8887,19.287,-15.137,-6.348,-146.36,17.205,-64.594
17225,-0.3369,-0.5898,-0.4536,5.737,-14.587,-5.981,-146.096,17.386,-64.303
17265,-0.333,-0.5811,-0.4438,-14.404,12.024,3.662,-145.712,17.606,-64.358
17285,-0.2617,-0.4595,-0.9087,-20.203,19.226,5.188,-146.255,17.342,-64.655
17295,-0.2534,-0.4268,-1.0767,-18.066,19.531,5.371,-146.602,17.161,-64.814
17305,-0.252,-0.3911,-1.21,-12.756,16.418,6.042,-146.926,17.001,-64.962
17325,-0.252,-0.3911,-1.21,1.77,8.85,4.395,-147.371,16.732,-65.176
17335,-0.2285,-0.3535,-1.3413,8.301,3.662,2.808,-147.48,16.644,-65.22
17365,-0.2329,-0.3765,-1.2734,19.836,-15.564,-2.747,-147.277,16.705,-65.039
17375,-0.27,-0.4775,-0.8828,19.043,-18.494,-4.028,-147.09,16.82,-64.896
17385,-0.2896,-0.5215,-0.7422,18.433,-18.616,-4.578,-146.849,16.957,-64.753
17394,-0.2896,-0.5215,-0.7422,18.433,-18.616,-4.578,-146.569,17.106,-64.616
17415,-0.354,-0.6016,-0.4746,8.179,-10.01,-2.38,-145.997,17.402,-64.429
17434,-0.375,-0.6147,-0.438,0.916,2.136,2.625,-145.541,17.611,-64.435
17445,-0.3647,-0.6147,-0.4731,-3.723,7.202,5.188,-145.426,17.661,-64.523
17455,-0.3579,-0.5737,-0.5566,-9.46,9.949,6.897,-145.437,17.682,-64.644
17484,-0.2505,-0.3765,-1.0449,-15.076,17.334,7.69,-146.234,17.402,-65.121
17514,-0.228,-0.3179,-1.3926,-0.427,6.592,3.235,-147.107,16.946,-65.462
17554,-0.2837,-0.4419,-1.0088,20.874,-16.174,-2.93,-147.057,17.029,-65.22
17564,-0.3076,-0.4849,-0.8325,22.217,-18.311,-3.662,-146.827,17.166,-65.083
17594,-0.3691,-0.5952,-0.4131,11.353,-14.16,-6.653,-145.794,17.693,-64.649
17604,-0.3901,-0.6069,-0.3496,3.54,-9.399,-6.165,-145.47,17.853,-64.539
17624,-0.4082,-0.6221,-0.3564,-10.315,1.892,-1.831,-145.069,18.078,-64.473
17634,-0.4082,-0.6221,-0.3564,-10.315,1.892,-1.831,-145.052,18.111,-64.528
17653,-0.3457,-0.5415,-0.6069,-23.193,17.212,6.287,-145.569,17.968,-64.786
17664,-0.2417,-0.3872,-1.0498,-21.301,20.447,6.47,-145.975,17.776,-64.968
17674,-0.2158,-0.3525,-1.2422,-21.301,20.447,6.47,-146.36,17.562,-65.121
17683,-0.2148,-0.3291,-1.3818,-21.301,20.447,6.47,-146.695,17.375,-65.226
17693,-0.2148,-0.3291,-1.3818,-3.54,7.446,0.427,-146.942,17.232,-65.27
17704,-0.25,-0.3745,-1.3784,1.831,-1.282,-2.441,-147.09,17.155,-65.242
17723,-0.2764,-0.4092,-1.2563,9.644,-16.418,-5.615,-147.112,17.243,-65.001
17744,-0.313,-0.5083,-0.8843,8.606,-20.569,-7.935,-146.794,17.523,-64.644
17754,-0.3452,-0.5693,-0.5498,5.737,-19.47,-7.324,-146.558,17.704,-64.462
17763,-0.3452,-0.5693,-0.5498,2.808,-15.869,-5.493,-146.299,17.88,-64.325
17783,-0.3213,-0.5811,-0.457,-0.183,1.587,0.916,-145.893,18.056,-64.276
17803,-0.3037,-0.5186,-0.6963,-10.193,11.902,4.272,-145.948,17.974,-64.462
17813,-0.3037,-0.4526,-0.8711,-14.771,13.55,4.272,-146.195,17.88,-64.578
17833,-0.2939,-0.3833,-1.0488,-14.526,13.855,3.784,-146.821,17.6,-64.792
17843,-0.2617,-0.3296,-1.3096,-3.784,10.315,0.0,-147.068,17.446,-64.847
17853,-0.2744,-0.3525,-1.3232,2.502,3.479,-2.014,-147.222,17.347,-64.852
17883,-0.2788,-0.4644,-1.0054,14.954,-14.16,-5.31,-147.14,17.38,-64.572
17913,-0.293,-0.5518,-0.7134,6.287,-21.667,-6.775,-146.536,17.781,-64.067
17923,-0.3184,-0.5767,-0.5513,0.061,-18.311,-7.507,-146.354,17.93,-63.891
17933,-0.3511,-0.5869,-0.5039,-5.371,-13.916,-7.629,-146.206,18.067,-63.743
17963,-0.3857,-0.6201,-0.5083,-11.841,2.563,1.465,-145.937,18.364,-63.622
17982,-0.3462,-0.5425,-0.6333,-14.16,7.446,5.737,-146.25,18.325,-63.869
17992,-0.2798,-0.3682,-0.9976,-10.742,15.076,10.925,-146.552,18.226,-64.056
18003,-0.249,-0.3145,-1.1724,-3.906,16.968,10.437,-146.832,18.078,-64.243
18023,-0.2554,-0.3384,-1.3452,8.362,9.399,4.7,-147.167,17.787,-64.506
18032,-0.2749,-0.377,-1.3057,9.155,0.732,0.122,-147.25,17.721,-64.512
18043,-0.3101,-0.415,-1.1826,8.179,-8.606,-3.967,-147.277,17.732,-64.429
18062,-0.3291,-0.4458,-1.0215,8.179,-8.606,-3.967,-147.096,17.908,-64.116
18072,-0.3438,-0.5547,-0.6675,12.451,-16.602,-7.507,-146.854,18.04,-63.957
18083,-0.3618,-0.5864,-0.5288,11.658,-15.381,-5.127,-146.547,18.204,-63.825
18092,-0.3618,-0.5864,-0.5288,11.658,-15.381,-5.127,-146.228,18.353,-63.748
18112,-0.3389,-0.6035,-0.4375,0.183,4.456,1.709,-145.745,18.479,-63.776
18132,-0.3208,-0.5649,-0.5449,-7.385,9.949,3.235,-145.887,18.375,-63.99
18161,-0.2803,-0.3765,-1.0854,-3.479,15.32,4.211,-146.673,17.924,-64.407
18182,-0.2896,-0.4048,-1.271,7.385,3.906,-0.183,-146.937,17.704,-64.506
18201,-0.2944,-0.436,-1.1914,12.878,-9.888,-2.625,-146.893,17.715,-64.391
18222,-0.311,-0.5264,-0.7881,14.282,-13.367,-4.761,-146.591,17.864,-64.166
18241,-0.3203,-0.5542,-0.6641,9.521,-9.949,-4.272,-146.135,18.062,-63.957
18251,-0.3203,-0.5542,-0.6641,5.615,-5.615,-3.418,-145.926,18.133,-63.896
18262,-0.3374,-0.5737,-0.5181,2.319,-1.404,-1.648,-145.756,18.193,-63.875
18281,-0.3486,-0.5757,-0.5425,-3.601,7.69,2.502,-145.629,18.21,-63.962
18291,-0.3267,-0.5283,-0.7334,-6.042,10.498,4.883,-145.712,18.166,-64.067
18302,-0.3281,-0.4971,-0.8428,-6.714,11.23,6.165,-145.849,18.111,-64.188
18331,-0.2813,-0.3945,-1.1304,-2.563,7.202,3.479,-146.431,17.869,-64.479
18351,-0.2842,-0.3921,-1.1489,3.296,-2.136,-0.61,-146.684,17.781,-64.49
18371,-0.3159,-0.4429,-0.9507,8.179,-8.362,-4.15,-146.7,17.831,-64.347
18391,-0.3301,-0.4814,-0.8447,9.705,-10.193,-5.005,-146.47,17.979,-64.144
18401,-0.3481,-0.5562,-0.6465,8.728,-9.827,-4.517,-146.283,18.078,-64.05
18411,-0.3638,-0.5884,-0.5693,6.042,-8.606,-3.54,-146.074,18.188,-63.968
18441,-0.3452,-0.6191,-0.5146,-9.094,3.357,-1.404,-145.679,18.347,-63.902
18451,-0.3301,-0.5957,-0.5806,-14.587,6.775,-0.244,-145.723,18.325,-63.94
18460,-0.3301,-0.5957,-0.5806,-14.587,6.775,-0.244,-145.882,18.259,-64.017
18481,-0.2798,-0.4229,-1.0054,-13.855,16.235,7.202,-146.42,18.023,-64.297
18511,-0.2402,-0.3149,-1.377,13.367,11.902,6.47,-147.036,17.545,-64.764
18530,-0.2427,-0.3413,-1.376,22.888,7.507,4.456,-146.887,17.353,-64.885
18540,-0.2734,-0.4502,-1.1357,36.133,-4.15,0.671,-146.64,17.342,-64.863
18550,-0.2988,-0.501,-0.9536,37.903,-10.254,-0.854,-146.305,17.408,-64.797
18570,-0.3149,-0.542,-0.772,36.255,-14.343,-1.709,-145.453,17.672,-64.6
18590,-0.3608,-0.5981,-0.4404,25.513,-8.667,-0.916,-144.525,17.974,-64.457
18610,-0.3657,-0.6104,-0.4058,15.503,-1.831,-0.793,-143.729,18.199,-64.402
18630,-0.3657,-0.6392,-0.4829,0.244,3.235,-4.883,-143.262,18.254,-64.358
18650,-0.3521,-0.6221,-0.5718,-18.555,7.996,-8.545,-143.383,18.116,-64.303
18660,-0.3159,-0.5322,-0.7954,-18.555,7.996,-8.545,-143.652,17.968,-64.303
18670,-0.3022,-0.5063,-0.9004,-24.841,15.747,-9.583,-143.976,17.77,-64.319
18679,-0.3022,-0.5063,-0.9004,-20.691,17.151,-8.606,-144.283,17.545,-64.352
18700,-0.2363,-0.4766,-1.1162,-6.836,13.123,-1.343,-144.756,17.161,-64.468
18719,-0.2124,-0.4644,-1.1616,-6.836,13.123,-1.343,-145.014,16.864,-64.66
18730,-0.1968,-0.4585,-1.1973,12.695,6.653,5.92,-145.052,16.76,-64.748
18740,-0.1968,-0.4585,-1.1973,18.127,2.93,5.554,-145.014,16.699,-64.814
18749,-0.1968,-0.4585,-1.1973,18.127,2.93,5.554,-144.915,16.683,-64.852
18759,-0.248,-0.5303,-1.0024,23.193,-4.883,5.31,-144.761,16.71,-64.863
18770,-0.2651,-0.5405,-0.9082,23.193,-4.883,5.31,-144.575,16.771,-64.874
18780,-0.2837,-0.54,-0.8159,21.79,-7.935,6.104,-144.382,16.864,-64.88
18810,-0.3511,-0.5396,-0.6294,21.057,-5.859,4.944,-143.69,17.199,-64.907
18829,-0.3872,-0.5771,-0.5728,14.893,2.747,4.211,-143.234,17.358,-65.012
18839,-0.3872,-0.5771,-0.5728,14.893,2.747,4.211,-143.064,17.446,-65.061
18849,-0.3945,-0.585,-0.564,2.319,3.113,2.686,-142.96,17.523,-65.099
18869,-0.3765,-0.5674,-0.6177,-10.62,4.822,0.793,-143.004,17.611,-65.176
18879,-0.3511,-0.5532,-0.6743,-14.465,6.47,0.427,-143.135,17.606,-65.22
18889,-0.3203,-0.5371,-0.7515,-16.724,8.423,0.793,-143.333,17.562,-65.281
18919,-0.23,-0.502,-1.0303,-12.329,9.583,2.502,-144.097,17.232,-65.517
18959,-0.248,-0.5088,-1.0898,5.127,-4.211,1.099,-144.646,16.968,-65.632
18999,-0.3101,-0.5161,-0.7822,6.287,-13.977,-4.761,-144.443,17.21,-65.281
19019,-0.3428,-0.5083,-0.7031,7.568,-8.24,-5.615,-144.207,17.424,-65.061
19029,-0.3428,-0.5083,-0.7031,10.254,-4.15,-4.211,-144.014,17.523,-65.001
19039,-0.4063,-0.562,-0.5313,10.376,-1.16,-2.869,-143.8,17.617,-64.968
19048,-0.4063,-0.562,-0.5313,10.376,-1.16,-2.869,-143.619,17.704,-64.957
19069,-0.3965,-0.5645,-0.5562,-10.803,3.235,-3.357,-143.547,17.814,-64.94
19088,-0.3286,-0.5342,-0.7363,-18.25,7.08,-3.235,-143.839,17.759,-64.957
19098,-0.2764,-0.5142,-0.877,-18.25,7.08,-3.235,-144.102,17.65,-64.99
19109,-0.2456,-0.4824,-1.0078,-17.578,8.789,-0.854,-144.393,17.523,-65.039
19138,-0.2168,-0.5,-1.1709,2.258,1.953,-2.319,-144.937,17.166,-65.099
19158,-0.2256,-0.5303,-1.106,5.127,-7.996,-5.798,-144.943,17.078,-64.946
19168,-0.2256,-0.5303,-1.106,3.296,-11.23,-7.629,-144.899,17.089,-64.814
19178,-0.27,-0.6143,-0.8359,0.122,-12.39,-9.399,-144.838,17.111,-64.66
19198,-0.2769,-0.6372,-0.748,0.122,-12.39,-9.399,-144.712,17.161,-64.33
19218,-0.3516,-0.6548,-0.4365,-17.151,-9.277,-5.127,-144.575,17.342,-64.083
19238,-0.3701,-0.6479,-0.3677,-25.635,-2.808,1.526,-144.531,17.606,-64.034
19248,-0.3506,-0.5693,-0.4536,-30.396,3.54,2.869,-144.684,17.677,-64.078
19258,-0.3188,-0.5229,-0.5923,-33.813,10.376,2.93,-144.987,17.65,-64.166
19288,-0.252,-0.3584,-1.1909,-38.025,13.489,-3.418,-146.464,17.199,-64.407
19317,-0.2852,-0.334,-1.3955,-11.902,0.793,-9.399,-147.783,16.71,-64.308
19328,-0.3135,-0.4102,-1.2588,0.427,-6.409,-9.705,-147.881,16.677,-64.188
19347,-0.3091,-0.5381,-0.8516,9.827,-15.686,-8.911,-147.695,16.798,-63.88
19357,-0.313,-0.5732,-0.6636,8.057,-17.944,-7.751,-147.48,16.935,-63.71
19368,-0.3179,-0.5952,-0.5132,4.944,-16.541,-5.554,-147.222,17.095,-63.567
19397,-0.2573,-0.5591,-0.5439,-6.958,6.042,1.343,-146.755,17.232,-63.506
19408,-0.248,-0.5063,-0.7017,-10.559,11.963,3.174,-146.865,17.139,-63.605
19417,-0.248,-0.5063,-0.7017,-10.559,11.963,3.174,-147.057,17.001,-63.732
19427,-0.2759,-0.459,-1.0083,-9.094,18.372,4.15,-147.272,16.837,-63.875
19437,-0.2861,-0.4517,-1.1089,-3.601,18.066,4.456,-147.453,16.677,-64.017
19457,-0.2959,-0.4595,-1.1577,-3.601,18.066,4.456,-147.651,16.469,-64.232
19477,-0.2871,-0.4556,-1.0278,9.521,-1.16,1.892,-147.678,16.425,-64.292
19497,-0.2803,-0.4595,-0.853,9.521,-1.16,1.892,-147.568,16.501,-64.226
19507,-0.2905,-0.4971,-0.7651,9.827,-5.615,-2.38,-147.453,16.545,-64.171
19517,-0.3115,-0.5239,-0.6855,9.827,-5.615,-2.38,-147.31,16.617,-64.116
19547,-0.3481,-0.5874,-0.5669,-0.366,-0.61,1.648,-146.882,16.864,-64.078
19566,-0.3394,-0.5776,-0.5933,-0.366,-0.61,1.648,-146.876,16.919,-64.182
19587,-0.2539,-0.4346,-0.9634,-9.827,14.038,4.211,-147.244,16.732,-64.396
19616,-0.2437,-0.3887,-1.2734,-2.93,12.634,3.052,-147.838,16.304,-64.666
19636,-0.2637,-0.4072,-1.2461,12.268,-5.005,-1.953,-147.881,16.243,-64.622
19656,-0.2637,-0.4072,-1.2461,15.381,-14.526,-4.7,-147.59,16.403,-64.413
19676,-0.3281,-0.5859,-0.5493,11.658,-13.367,-5.188,-147.057,16.677,-64.16
19696,-0.3501,-0.6157,-0.4082,0.732,-7.568,-2.93,-146.497,16.957,-63.984
19726,-0.3193,-0.5806,-0.5737,-12.573,6.958,5.615,-146.245,17.122,-64.1
19736,-0.2891,-0.5127,-0.7393,-15.32,12.207,7.568,-146.426,17.073,-64.237
19745,-0.2891,-0.5127,-0.7393,-15.32,12.207,7.568,-146.7,16.952,-64.413
19766,-0.2124,-0.3867,-1.2739,-3.967,19.836,6.836,-147.244,16.573,-64.775
19785,-0.2046,-0.3921,-1.3687,4.761,5.798,1.282,-147.557,16.271,-64.935
19796,-0.2358,-0.4072,-1.3232,8.301,-2.075,-1.099,-147.623,16.216,-64.913
19806,-0.2427,-0.4272,-1.2109,12.756,-8.545,-3.174,-147.607,16.216,-64.836
19825,-0.2598,-0.5,-0.9111,18.616,-18.127,-6.836,-147.305,16.359,-64.556
19836,-0.2788,-0.5303,-0.7563,18.616,-18.127,-6.836,-147.063,16.479,-64.374
19846,-0.3105,-0.5532,-0.6177,14.954,-17.822,-8.118,-146.777,16.622,-64.204
19886,-0.3701,-0.6636,-0.3965,5.127,1.343,1.465,-145.437,17.128,-63.984
19895,-0.3701,-0.6636,-0.3965,5.127,1.343,1.465,-145.256,17.172,-64.039
19915,-0.3379,-0.5825,-0.6099,-17.212,10.132,5.737,-145.338,17.199,-64.226
19945,-0.2388,-0.4204,-1.0581,-13.123,18.494,10.193,-146.168,16.875,-64.759
19965,-0.2227,-0.3848,-1.1855,-7.751,17.212,10.193,-146.695,16.578,-65.105
19975,-0.2065,-0.3711,-1.3145,4.15,9.827,6.165,-146.86,16.447,-65.215
19985,-0.2065,-0.3711,-1.3145,4.15,9.827,6.165,-146.948,16.37,-65.253
20005,-0.2578,-0.4497,-1.1094,13.306,-8.606,-3.54,-146.937,16.353,-65.143
