elapsed_ms,acc_x_g,acc_y_g,acc_z_g,gyro_x_dps,gyro_y_dps,gyro_z_dps,angle_x_deg,angle_y_deg,angle_z_deg
0,-0.1792,-0.6343,-0.793,-4.822,0.977,-6.042,-143.52,10.981,-62.65
21,-0.1792,-0.6343,-0.793,-4.822,0.977,-6.042,-143.52,10.816,-62.595
40,-0.1768,-0.6411,-0.832,-4.822,0.977,-6.042,-143.394,10.695,-62.578
50,-0.1665,-0.6309,-0.8311,10.681,-0.122,-1.953,-143.278,10.668,-62.562
60,-0.1665,-0.6309,-0.8311,13.367,-3.052,-0.183,-143.135,10.673,-62.54
80,-0.1929,-0.6255,-0.8105,13.184,-5.676,-0.061,-142.844,10.767,-62.474
110,-0.207,-0.6597,-0.7998,11.78,-3.479,2.38,-142.515,10.838,-62.402
120,-0.2114,-0.6797,-0.791,18.005,-6.287,6.287,-142.306,10.931,-62.413
130,-0.1782,-0.6055,-0.7832,18.005,-6.287,6.287,-142.108,11.014,-62.386
150,-0.1938,-0.625,-0.7798,18.005,-6.287,6.287,-141.674,11.179,-62.281
160,-0.1963,-0.6323,-0.7705,18.127,-10.437,2.686,-141.476,11.277,-62.238
170,-0.2256,-0.6538,-0.769,22.522,-11.536,3.845,-141.229,11.404,-62.194
200,-0.2666,-0.6289,-0.7754,2.197,-0.244,-0.793,-140.68,11.7,-62.111
210,-0.2266,-0.6021,-0.7837,-15.869,9.216,0.732,-140.867,11.646,-62.177
219,-0.2266,-0.6021,-0.7837,-15.869,9.216,0.732,-141.152,11.536,-62.287
240,-0.2266,-0.6021,-0.7837,-34.485,18.433,-0.061,-141.888,11.277,-62.529
259,-0.2251,-0.6309,-0.79,-34.18,16.296,0.549,-142.559,11.096,-62.71
280,-0.2095,-0.5996,-0.8027,-20.63,6.042,-2.258,-143.02,10.992,-62.776
299,-0.2144,-0.6157,-0.8076,-15.991,5.493,-2.93,-143.35,10.871,-62.798
309,-0.1929,-0.5776,-0.8242,-15.747,5.981,-2.747,-143.52,10.811,-62.809
320,-0.1929,-0.5776,-0.8242,-13.184,4.395,-2.258,-143.652,10.756,-62.82
329,-0.1929,-0.5776,-0.8242,-13.184,4.395,-2.258,-143.745,10.717,-62.825
369,-0.1875,-0.5874,-0.8047,5.493,2.38,-3.418,-143.685,10.602,-62.803
389,-0.1543,-0.6602,-0.7798,1.343,4.028,-5.493,-143.569,10.486,-62.759
419,-0.1553,-0.6255,-0.79,-10.254,2.441,-2.014,-143.745,10.388,-62.748
429,-0.1714,-0.6055,-0.7988,-12.024,0.244,-1.709,-143.855,10.371,-62.737
528,-0.1968,-0.5957,-0.813,1.404,2.563,4.761,-144.179,10.366,-63.16
539,-0.1924,-0.6025,-0.813,0.732,2.502,3.906,-144.174,10.371,-63.21
549,-0.189,-0.5938,-0.8096,0.732,2.502,3.906,-144.185,10.366,-63.248
558,-0.189,-0.5938,-0.8096,-1.038,3.235,2.319,-144.19,10.36,-63.287
568,-0.1865,-0.603,-0.8062,-0.671,3.479,2.625,-144.19,10.349,-63.331
579,-0.1953,-0.5923,-0.8091,-0.366,3.357,3.601,-144.201,10.349,-63.38
608,-0.1934,-0.5903,-0.8232,1.038,2.686,5.31,-144.201,10.382,-63.55
619,-0.1968,-0.5947,-0.8262,1.038,2.686,5.31,-144.196,10.382,-63.6
628,-0.1968,-0.5947,-0.8262,0.916,3.113,4.578,-144.207,10.399,-63.66
638,-0.1968,-0.5947,-0.8262,0.916,3.113,4.578,-144.212,10.399,-63.704
648,-0.1992,-0.5527,-0.8325,0.671,2.502,3.601,-144.234,10.41,-63.754
678,-0.2065,-0.5625,-0.8335,1.343,-0.61,1.16,-144.267,10.47,-63.798
688,-0.2065,-0.5625,-0.8335,1.465,-0.671,0.122,-144.261,10.486,-63.798
708,-0.2095,-0.5796,-0.8047,-0.793,-1.648,-1.282,-144.267,10.525,-63.765
728,-0.2095,-0.5835,-0.7993,-3.54,-1.77,-2.991,-144.305,10.552,-63.699
748,-0.2095,-0.5835,-0.7993,-5.066,-2.441,-4.028,-144.377,10.563,-63.611
758,-0.1934,-0.5864,-0.8159,-5.066,-2.441,-4.028,-144.421,10.558,-63.556
777,-0.1938,-0.584,-0.8188,-5.188,-3.296,-4.211,-144.503,10.563,-63.441
788,-0.1938,-0.584,-0.8188,-4.578,-3.174,-3.418,-144.542,10.569,-63.397
798,-0.1899,-0.584,-0.8306,-3.601,-2.869,-2.808,-144.575,10.58,-63.353
817,-0.186,-0.5806,-0.8335,-1.343,-1.465,-2.625,-144.613,10.574,-63.292
827,-0.1899,-0.5796,-0.8359,-0.549,-1.038,-2.869,-144.619,10.563,-63.265
838,-0.1899,-0.5747,-0.8354,-0.183,-1.099,-2.93,-144.624,10.558,-63.232
878,-0.1616,-0.6597,-0.8027,-3.845,-1.404,-2.93,-144.608,10.475,-63.089
887,-0.1616,-0.6597,-0.8027,-5.188,-2.869,-2.136,-144.613,10.475,-63.056
907,-0.1582,-0.605,-0.8584,-6.348,-2.258,-2.747,-144.701,10.453,-62.957
927,-0.147,-0.5825,-0.8726,-6.653,-7.446,0.122,-144.866,10.486,-62.869
937,-0.1245,-0.5449,-0.8643,-0.916,-11.169,1.953,-144.893,10.558,-62.82
947,-0.1191,-0.5801,-0.8291,8.728,-18.372,5.432,-144.794,10.695,-62.759
977,-0.231,-0.6445,-0.7544,8.728,-18.372,5.432,-144.146,12.019,-62.353
987,-0.2925,-0.6572,-0.7104,-5.859,-61.584,16.968,-144.091,12.656,-62.128
996,-0.373,-0.4956,-0.7573,-5.859,-61.584,16.968,-144.316,13.26,-61.875
1007,-0.373,-0.4956,-0.7573,-45.105,-37.537,0.61,-144.827,13.722,-61.655
1057,-0.1885,-0.6519,-0.9292,44.861,48.889,-16.052,-145.574,12.156,-61.913
1076,-0.2905,-0.7798,-0.7734,-2.563,16.479,-18.982,-145.031,11.646,-61.908
1097,-0.3701,-0.7739,-0.5103,-60.974,-22.766,-25.757,-145.547,11.777,-61.342
1106,-0.3701,-0.7739,-0.5103,-60.974,-22.766,-25.757,-146.146,11.882,-60.996
1126,0.0171,-0.478,-1.2583,4.333,-1.587,-0.549,-146.629,11.755,-60.793
1137,-0.0015,-0.6235,-1.2402,36.499,11.536,5.554,-146.36,11.574,-60.903
1146,-0.0015,-0.6235,-1.2402,56.58,20.142,8.606,-145.816,11.387,-61.089
1166,-0.2583,-0.811,-0.7256,41.992,13.062,7.568,-144.728,11.234,-61.419
1186,-0.2861,-0.6997,-0.6621,23.132,2.563,3.967,-144.311,11.42,-61.43
1196,-0.2026,-0.5244,-0.6895,3.052,-14.893,5.005,-144.256,11.591,-61.381
1206,-0.2026,-0.5244,-0.6895,9.827,-16.296,8.057,-144.19,11.777,-61.353
1226,-0.2246,-0.5845,-0.7549,36.865,-5.981,20.63,-143.668,12.14,-61.523
1236,-0.2759,-0.6318,-0.7378,45.532,-1.282,26.245,-143.218,12.343,-61.732
1246,-0.2759,-0.6318,-0.7378,46.631,3.357,27.832,-142.723,12.519,-61.979
1286,-0.3115,-0.6406,-0.5508,-31.311,-22.339,31.128,-141.877,13.777,-62.726
1295,-0.3115,-0.6406,-0.5508,-31.311,-22.339,31.128,-142.399,13.997,-62.869
1306,-0.0625,-0.3574,-1.0928,-31.311,-22.339,31.128,-142.927,13.931,-63.105
1316,0.0415,-0.2554,-1.4033,-3.113,27.283,16.785,-143.3,13.661,-63.413
1346,-0.1079,-0.5034,-1.3145,47.424,24.658,-2.686,-142.712,12.695,-64.149
1356,-0.1079,-0.5034,-1.3145,27.344,1.526,-10.681,-142.278,12.728,-64.067
1386,-0.5249,-0.7241,-0.0527,-59.082,-64.819,-10.986,-141.833,14.343,-62.748
1396,-0.3418,-0.5132,-0.3599,-59.387,-48.523,-6.042,-142.163,14.826,-62.386
1405,-0.082,-0.4238,-0.7251,-59.387,-48.523,-6.042,-142.636,14.782,-62.298
1415,0.0864,-0.4087,-1.0996,-59.387,-48.523,-6.042,-142.943,14.376,-62.441
1425,0.1567,-0.4136,-1.3989,15.381,42.48,-0.793,-143.058,13.832,-62.699
1445,-0.0845,-0.645,-1.2886,15.381,42.48,-0.793,-142.405,12.865,-63.325
1455,-0.2515,-0.77,-0.9697,15.381,42.48,-0.793,-142.053,12.426,-63.512
1475,-0.3696,-0.8545,-0.6631,12.329,6.042,-16.846,-142.081,12.535,-63.012
1495,-0.3418,-0.6509,-0.5415,-38.818,-62.5,-0.183,-142.712,13.535,-62.122
1516,-0.1235,-0.5039,-0.8975,-38.818,-62.5,-0.183,-143.009,13.986,-62.007
1535,-0.166,-0.522,-1.0078,29.602,30.518,11.963,-142.679,13.771,-62.501
1565,-0.4287,-0.7134,-0.4609,5.981,13.428,-4.639,-142.119,13.046,-63.078
1575,-0.4395,-0.6621,-0.4097,-23.987,-21.606,-4.272,-142.322,13.189,-62.908
1584,-0.4395,-0.6621,-0.4097,-23.987,-21.606,-4.272,-142.696,13.508,-62.639
1594,-0.1875,-0.4199,-0.8184,-41.077,-33.691,1.892,-143.058,13.788,-62.446
1605,-0.0718,-0.4048,-1.0713,-20.935,-13.245,6.165,-143.262,13.931,-62.413
1624,-0.0615,-0.4561,-1.3423,-20.935,-13.245,6.165,-143.042,13.837,-62.699
1634,-0.1641,-0.6284,-1.186,40.955,29.907,0.244,-142.674,13.601,-62.886
1645,-0.3257,-0.7583,-0.9023,40.955,29.907,0.244,-142.3,13.354,-62.99
1674,-0.4331,-0.7114,-0.3501,-15.503,-26.733,-15.503,-142.493,13.7,-62.199
1685,-0.4331,-0.7114,-0.3501,-42.175,-49.988,-4.272,-142.833,14.068,-61.853
1714,-0.0488,-0.4023,-1.0815,14.16,22.705,11.108,-143.141,14.222,-62.001
1734,-0.1079,-0.4883,-1.0581,36.56,37.048,-0.366,-142.57,13.694,-62.512
1754,-0.438,-0.7393,-0.4136,-6.775,6.226,-17.334,-142.432,13.255,-62.512
1774,-0.2856,-0.5229,-0.6094,-35.278,-22.949,-20.081,-143.141,13.491,-61.87
1784,-0.2856,-0.5229,-0.6094,-38.635,-21.545,-7.324,-143.481,13.623,-61.677
1803,-0.0806,-0.4331,-1.145,10.681,21.24,8.85,-143.586,13.535,-61.886
1814,-0.0562,-0.5396,-1.3716,10.681,21.24,8.85,-143.311,13.293,-62.183
1824,-0.1987,-0.6665,-1.1733,46.265,41.748,5.981,-142.921,12.991,-62.49
1843,-0.3389,-0.7686,-0.8682,44.373,35.889,0.183,-142.278,12.601,-62.743
1883,-0.1299,-0.4824,-0.7485,-17.822,-22.278,7.507,-142.773,13.887,-61.842
1893,-0.0679,-0.4121,-0.9551,-1.892,1.587,11.841,-142.817,13.947,-61.946
1913,-0.0903,-0.4512,-1.0088,29.297,30.09,8.667,-142.471,13.672,-62.441
1923,-0.0903,-0.4512,-1.0088,25.208,31.189,3.845,-142.273,13.447,-62.666
1944,-0.3691,-0.7656,-0.4873,-2.38,6.836,-2.808,-141.899,13.321,-62.847
1963,-0.3745,-0.7495,-0.4614,-39.856,-28.748,1.282,-142.147,13.859,-62.551
1973,-0.2212,-0.4888,-0.8027,-39.856,-28.748,1.282,-142.603,14.046,-62.463
1993,-0.1333,-0.4399,-1.0107,-2.563,18.311,10.742,-143.229,13.859,-62.743
2033,-0.2764,-0.6494,-0.8545,11.78,25.635,-3.601,-143.058,12.843,-63.6
2043,-0.2222,-0.6055,-0.8579,1.343,7.202,-3.967,-143.064,12.755,-63.611
2053,-0.2114,-0.6172,-0.832,-4.456,-7.996,-1.709,-143.102,12.794,-63.55
2083,-0.1758,-0.5229,-0.8726,-4.456,-7.996,-1.709,-143.102,13.239,-63.441
2113,-0.3149,-0.6338,-0.6846,15.93,-8.24,10.01,-142.63,13.53,-63.528
2123,-0.3486,-0.6187,-0.6387,15.93,-8.24,10.01,-142.46,13.7,-63.484
2142,-0.3462,-0.6543,-0.5439,0.732,-13.245,0.549,-142.196,14.15,-63.281
2163,-0.1558,-0.4893,-0.8437,-20.203,-8.911,1.953,-142.603,14.403,-63.127
2192,-0.1411,-0.5449,-1.2007,22.461,20.63,1.587,-143.02,13.881,-63.402
2203,-0.2563,-0.6318,-1.0767,34.851,16.846,1.343,-142.773,13.733,-63.517
2222,-0.4141,-0.8379,-0.5508,34.851,16.846,1.343,-141.872,13.76,-63.523
2232,-0.4541,-0.8711,-0.3179,10.986,-22.339,-3.052,-141.405,14.041,-63.353
2252,-0.4453,-0.7339,-0.1104,-10.925,-37.781,0.244,-140.828,15.002,-62.875
2272,-0.0537,-0.3379,-0.811,-40.588,0.854,13.672,-141.702,15.315,-62.891
2302,-0.1001,-0.4414,-1.417,33.508,49.866,6.104,-142.438,14.117,-63.918
2312,-0.1001,-0.4414,-1.417,37.415,44.617,-3.052,-142.245,13.733,-64.177
2332,-0.3975,-0.7534,-0.832,-2.38,-21.484,-16.479,-141.746,13.733,-63.935
2342,-0.4907,-0.7891,-0.4043,-2.38,-21.484,-16.479,-141.652,14.233,-63.484
2352,-0.3975,-0.6714,-0.4595,-32.898,-56.091,-5.493,-141.707,14.749,-63.078
2361,-0.3975,-0.6714,-0.4595,-32.898,-56.091,-5.493,-141.894,15.035,-62.897
2382,-0.1333,-0.6211,-0.9106,9.033,13.977,15.259,-142.048,14.958,-63.166
2401,-0.2207,-0.6582,-0.8359,11.292,26.917,10.376,-141.817,14.733,-63.693
2412,-0.2207,-0.6582,-0.8359,11.292,26.917,10.376,-141.74,14.694,-63.869
2422,-0.3423,-0.5669,-0.5703,-22.278,4.883,5.127,-141.91,14.777,-63.94
2441,-0.1689,-0.4429,-0.9277,-24.536,-4.15,15.747,-142.707,14.963,-64.089
2452,-0.1689,-0.4429,-0.9277,-24.536,-4.15,15.747,-142.927,14.969,-64.281
2481,-0.3916,-0.4897,-0.9634,28.259,18.005,7.263,-142.861,14.782,-64.973
2512,-0.3916,-0.7061,-0.4736,6.104,-4.822,-11.841,-142.344,15.079,-64.611
2531,-0.3916,-0.7061,-0.4736,-35.645,-22.156,-5.737,-142.949,15.315,-64.138
2541,-0.061,-0.5181,-1.0728,-35.645,-22.156,-5.737,-143.174,15.287,-64.094
2551,-0.061,-0.5181,-1.0728,-35.645,-22.156,-5.737,-143.13,15.227,-64.166
2561,-0.1973,-0.6904,-0.9937,27.161,2.319,11.719,-142.91,15.222,-64.281
2571,-0.312,-0.7261,-0.7964,25.635,1.038,8.789,-142.625,15.276,-64.358
2601,-0.3906,-0.6284,-0.4121,-24.963,-25.024,-3.479,-142.059,15.903,-64.045
2620,-0.2388,-0.438,-0.6108,-38.696,-16.418,-3.235,-142.855,15.919,-63.896
2631,-0.2388,-0.438,-0.6108,-38.696,-16.418,-3.235,-143.146,15.716,-63.984
2641,-0.104,-0.4502,-1.1455,-38.696,-16.418,-3.235,-143.306,15.507,-64.127
2681,-0.4087,-0.7241,-0.6494,9.949,6.958,-2.014,-142.987,15.282,-64.347
2711,-0.2573,-0.5537,-0.793,-16.724,-18.311,-0.916,-143.207,15.771,-64.023
2751,-0.3433,-0.6377,-0.6416,9.705,13.062,-1.77,-142.998,15.425,-64.287
2790,-0.2559,-0.5156,-0.6865,-36.316,-4.272,6.226,-143.174,15.886,-64.21
2800,-0.1567,-0.457,-0.9541,-36.316,-4.272,6.226,-143.569,15.804,-64.352
2820,-0.1494,-0.4971,-1.1738,-36.316,-4.272,6.226,-143.948,15.37,-64.88
2830,-0.2222,-0.5073,-1.1489,18.188,28.564,9.399,-143.954,15.139,-65.132
2840,-0.2222,-0.5073,-1.1489,18.188,28.564,9.399,-143.91,14.936,-65.33
2860,-0.2861,-0.5757,-0.8735,6.409,0.854,-0.183,-143.778,14.799,-65.446
2870,-0.2798,-0.5674,-0.8364,-3.479,-11.963,-0.061,-143.817,14.897,-65.369
2880,-0.2798,-0.5674,-0.8364,-3.479,-11.963,-0.061,-143.899,15.051,-65.27
2900,-0.2876,-0.5723,-0.75,4.761,-12.634,2.991,-143.866,15.337,-65.132
2919,-0.313,-0.5981,-0.6099,6.104,-3.235,2.319,-143.613,15.546,-65.105
2930,-0.313,-0.5981,-0.6099,2.258,-1.16,1.526,-143.525,15.617,-65.11
2940,-0.2607,-0.5542,-0.6914,-4.7,1.892,0.488,-143.553,15.612,-65.127
2949,-0.2607,-0.5542,-0.6914,-4.7,1.892,0.488,-143.613,15.562,-65.143
2970,-0.2402,-0.5332,-0.9121,-9.399,1.221,-0.427,-143.888,15.502,-65.165
2989,-0.2329,-0.5308,-0.9653,0.671,2.014,2.747,-144.13,15.408,-65.237
2999,-0.2241,-0.5249,-1.0366,0.671,2.014,2.747,-144.163,15.337,-65.27
3010,-0.2241,-0.5249,-1.0366,0.671,2.014,2.747,-144.113,15.293,-65.275
3029,-0.3188,-0.5874,-0.8916,13.489,-0.732,-3.54,-143.822,15.304,-65.22
3050,-0.3457,-0.6514,-0.5786,6.836,-9.338,0.671,-143.377,15.524,-65.121
3079,-0.2383,-0.5073,-0.7061,-2.502,-2.747,7.08,-143.245,15.815,-65.149
3099,-0.2114,-0.4814,-0.7915,-4.883,4.639,2.563,-143.492,15.76,-65.264
3119,-0.2798,-0.4805,-0.8721,-4.822,5.798,-4.272,-143.723,15.65,-65.292
3129,-0.3403,-0.6177,-0.8306,-4.517,2.38,-6.531,-143.751,15.617,-65.248
3139,-0.3403,-0.6177,-0.8306,-7.751,-1.465,-6.836,-143.795,15.617,-65.182
3149,-0.3228,-0.6499,-0.8154,-9.216,-1.587,-5.859,-143.849,15.612,-65.127
3159,-0.311,-0.665,-0.8115,-5.005,-0.305,-3.052,-143.86,15.606,-65.099
3189,-0.1895,-0.6206,-0.9116,10.803,11.047,6.775,-143.723,15.37,-65.325
3199,-0.1777,-0.5864,-0.9404,15.747,13.428,7.996,-143.646,15.249,-65.473
3208,-0.1777,-0.5864,-0.9404,15.747,13.428,7.996,-143.536,15.134,-65.616
3229,-0.252,-0.5884,-0.7925,20.264,-0.427,6.897,-143.201,15.123,-65.77
3269,-0.2935,-0.5327,-0.6353,-5.432,-10.437,6.226,-142.8,15.727,-65.715
3298,-0.2529,-0.5259,-0.8618,2.747,10.986,4.272,-143.146,15.584,-65.978
3309,-0.2783,-0.5293,-0.8555,2.747,10.986,4.272,-143.201,15.496,-66.077
3338,-0.3442,-0.5649,-0.7642,-4.822,0.061,-0.916,-143.289,15.518,-66.171
3349,-0.3442,-0.5649,-0.7642,-6.897,-0.793,-1.282,-143.339,15.562,-66.154
3378,-0.2646,-0.5444,-0.855,-3.54,8.24,1.526,-143.624,15.496,-66.242
3398,-0.2612,-0.5254,-0.8984,1.404,9.094,3.296,-143.756,15.331,-66.407
3408,-0.252,-0.54,-0.9307,6.958,7.08,0.793,-143.762,15.26,-66.456
3418,-0.3208,-0.5698,-0.8599,6.958,-0.488,-1.16,-143.718,15.276,-66.445
3448,-0.3379,-0.5688,-0.6885,-8.911,-14.282,-6.042,-143.635,15.606,-66.127
3458,-0.2759,-0.5034,-0.769,-13.855,-10.681,-6.042,-143.773,15.667,-66.006
3467,-0.2759,-0.5034,-0.769,-12.695,-3.601,-4.272,-143.998,15.617,-65.951
3488,-0.1704,-0.4697,-1.1104,11.108,9.888,-2.319,-144.207,15.309,-65.995
3508,-0.3325,-0.6768,-0.8496,27.466,3.052,-5.371,-143.745,15.15,-66.0
3528,-0.4131,-0.7593,-0.479,7.813,-15.015,-9.399,-143.058,15.37,-65.726
3547,-0.4102,-0.7314,-0.3872,-6.226,-20.569,-7.08,-142.773,15.815,-65.413
3557,-0.2163,-0.541,-0.6304,-15.686,-7.202,5.493,-142.894,15.892,-65.413
3568,-0.1401,-0.5171,-0.8081,-6.897,6.287,10.864,-143.042,15.831,-65.539
3597,-0.1982,-0.5864,-1.0254,13.489,23.56,11.902,-143.135,15.244,-66.187
3608,-0.2974,-0.623,-0.9072,15.32,15.198,-2.258,-143.026,15.112,-66.264
3637,-0.4058,-0.6479,-0.5693,-19.165,-23.376,-9.583,-142.844,15.414,-65.803
3667,-0.1362,-0.4893,-0.9463,0.732,0.244,10.254,-143.179,15.749,-65.687
3677,-0.1362,-0.4893,-0.9463,14.221,10.864,10.498,-143.185,15.628,-65.841
3697,-0.2744,-0.5571,-0.9224,23.499,13.733,-0.366,-142.938,15.37,-66.072
3707,-0.3628,-0.6177,-0.7661,18.127,4.211,-5.981,-142.734,15.348,-66.044
3717,-0.3901,-0.6577,-0.6528,6.531,-11.414,-9.155,-142.553,15.458,-65.901
3726,-0.3901,-0.6577,-0.6528,-8.362,-23.437,-10.803,-142.438,15.661,-65.66
3737,-0.3989,-0.6812,-0.5034,-8.362,-23.437,-10.803,-142.41,15.919,-65.391
3747,-0.353,-0.5957,-0.5542,-29.846,-26.489,-9.399,-142.542,16.144,-65.143
3757,-0.2842,-0.5469,-0.645,-32.532,-16.785,-6.897,-142.795,16.26,-64.979
3766,-0.2842,-0.5469,-0.645,-25.757,-6.775,-3.723,-143.069,16.265,-64.907
3777,-0.146,-0.4551,-0.9678,-17.09,3.174,-1.038,-143.361,16.15,-64.918
3787,-0.1226,-0.4653,-1.0815,-5.493,11.719,-1.465,-143.564,15.947,-64.979
3796,-0.188,-0.5215,-1.0688,-5.493,11.719,-1.465,-143.613,15.749,-65.034
3817,-0.293,-0.666,-0.8535,-5.493,11.719,-1.465,-143.328,15.491,-65.012
3827,-0.3394,-0.7148,-0.7231,15.381,-6.348,-7.996,-143.069,15.524,-64.907
3856,-0.3052,-0.6318,-0.6416,15.381,-6.348,-7.996,-142.586,15.908,-64.594
3876,-0.2832,-0.6045,-0.6685,0.427,-5.31,3.967,-142.482,16.046,-64.633
3886,-0.2588,-0.5542,-0.7432,3.479,2.625,4.7,-142.465,16.046,-64.688
3896,-0.2588,-0.5542,-0.7432,0.61,4.272,2.808,-142.504,16.018,-64.737
3926,-0.1929,-0.5376,-1.0801,2.93,5.371,-0.61,-142.85,15.798,-64.83
3936,-0.2119,-0.5728,-1.1011,12.756,5.188,0.244,-142.828,15.699,-64.863
3966,-0.3232,-0.6904,-0.7524,37.537,-2.808,4.456,-141.965,15.65,-64.962
3985,-0.3228,-0.6938,-0.6333,33.569,-9.644,5.981,-141.158,15.991,-64.896
4025,-0.3301,-0.5835,-0.4854,-35.156,-19.226,5.798,-141.163,17.001,-64.501
4036,-0.2197,-0.4863,-0.7788,-34.302,-13.794,6.409,-141.559,17.111,-64.462
4046,-0.2021,-0.4653,-0.9248,-24.597,-6.165,5.981,-141.921,17.133,-64.473
4055,-0.2021,-0.4653,-0.9248,-9.827,2.014,5.127,-142.158,17.095,-64.528
4076,-0.3306,-0.5757,-0.9355,10.925,14.404,-0.793,-142.213,16.897,-64.688
4086,-0.3701,-0.6406,-0.8218,12.695,17.517,-4.883,-142.103,16.76,-64.759
4116,-0.3511,-0.6479,-0.6953,-4.578,1.831,-4.456,-141.905,16.573,-64.759
4126,-0.3159,-0.624,-0.7261,-5.92,-3.174,-0.244,-141.932,16.611,-64.737
4155,-0.2979,-0.5039,-0.8477,-3.479,3.235,3.906,-142.207,16.611,-64.863
4165,-0.2979,-0.5039,-0.8477,-3.479,3.235,3.906,-142.251,16.606,-64.918
4175,-0.3242,-0.5386,-0.7778,7.202,3.296,1.099,-142.218,16.611,-64.946
4185,-0.376,-0.6064,-0.6938,7.019,-1.099,-0.244,-142.114,16.672,-64.94
4195,-0.3638,-0.6079,-0.6729,0.916,-3.723,0.061,-142.059,16.754,-64.918
4215,-0.3276,-0.6133,-0.7061,-6.287,-1.221,2.197,-142.092,16.859,-64.918
4225,-0.2876,-0.5703,-0.7935,-7.08,2.258,2.93,-142.196,16.859,-64.957
4245,-0.2466,-0.5391,-0.8809,-1.526,9.399,1.099,-142.449,16.683,-65.099
4255,-0.2935,-0.5293,-0.917,3.052,7.996,-1.343,-142.504,16.6,-65.138
4284,-0.3555,-0.6475,-0.6416,-0.244,-6.897,-5.737,-142.284,16.6,-65.001
4295,-0.3306,-0.6553,-0.5947,-8.423,-10.498,-4.944,-142.235,16.688,-64.891
4305,-0.3306,-0.6553,-0.5947,-15.869,-12.207,-2.502,-142.256,16.809,-64.797
4314,-0.3032,-0.6025,-0.6177,-15.869,-12.207,-2.502,-142.383,16.913,-64.72
4335,-0.2358,-0.5581,-0.7944,-23.56,0.732,-0.61,-142.866,16.897,-64.688
4354,-0.2261,-0.5342,-0.8882,-20.081,5.432,-1.282,-143.361,16.622,-64.759
4364,-0.1948,-0.5366,-1.0366,-4.944,16.235,-3.967,-143.52,16.397,-64.83
4375,-0.2163,-0.5664,-1.0469,4.639,16.113,-3.784,-143.575,16.183,-64.896
4404,-0.2744,-0.6582,-0.9126,14.893,-2.014,-2.075,-143.168,15.936,-64.94
4415,-0.3545,-0.6685,-0.6958,7.324,-10.376,-1.404,-143.004,16.051,-64.863
4434,-0.356,-0.6455,-0.6187,-6.042,-15.686,-1.282,-142.828,16.403,-64.655
4444,-0.3423,-0.5747,-0.5879,-9.705,-12.207,-0.061,-142.828,16.562,-64.578
4454,-0.3154,-0.5654,-0.6123,-9.705,-12.207,-0.061,-142.877,16.655,-64.55
4484,-0.2412,-0.5435,-0.8174,-11.047,9.277,4.028,-143.284,16.578,-64.715
4505,-0.2373,-0.5186,-0.9785,-7.751,12.024,4.272,-143.63,16.348,-64.951
4514,-0.2412,-0.5078,-1.0498,0.793,15.137,4.395,-143.762,16.205,-65.083
4524,-0.2559,-0.5103,-1.0771,9.46,14.648,2.747,-143.806,16.068,-65.193
4544,-0.2837,-0.5576,-1.0483,26.123,10.132,-0.305,-143.52,15.853,-65.341
4564,-0.3496,-0.6289,-0.7178,21.973,-0.916,-1.953,-142.993,15.875,-65.347
4573,-0.3496,-0.6289,-0.7178,21.973,-0.916,-1.953,-142.734,15.98,-65.281
4594,-0.3638,-0.6079,-0.5303,-3.967,-13.123,-1.709,-142.427,16.32,-65.089
4613,-0.3389,-0.562,-0.5015,-13.611,-12.39,-1.282,-142.553,16.628,-64.924
4623,-0.2754,-0.5146,-0.6406,-27.405,-7.385,-1.404,-142.795,16.699,-64.863
4634,-0.2334,-0.5146,-0.7744,-29.236,-2.319,-2.075,-143.113,16.677,-64.83
4653,-0.1665,-0.5474,-1.0366,-16.907,12.207,-3.052,-143.718,16.359,-64.891
4674,-0.2095,-0.6128,-1.0942,5.798,19.348,-4.15,-143.921,15.864,-65.05
4683,-0.2095,-0.6128,-1.0942,5.798,19.348,-4.15,-143.844,15.661,-65.121
4703,-0.3037,-0.6587,-0.8433,13.306,3.723,-2.991,-143.564,15.491,-65.16
4743,-0.2866,-0.5811,-0.5889,-3.052,-8.301,1.892,-143.102,15.864,-64.979
4763,-0.2998,-0.5405,-0.5728,-8.118,-5.493,2.197,-143.218,16.068,-64.962
4773,-0.2998,-0.5405,-0.5728,-20.081,-0.244,1.038,-143.438,16.139,-64.973
4783,-0.3315,-0.4277,-0.7158,-20.081,-0.244,1.038,-143.74,16.177,-64.968
4792,-0.3086,-0.4199,-0.8237,-20.081,-0.244,1.038,-144.097,16.155,-64.951
4813,-0.2734,-0.4458,-0.937,-19.226,3.723,-7.568,-144.712,15.974,-64.874
4832,-0.2383,-0.6401,-1.0601,-0.793,6.592,-7.202,-144.91,15.71,-64.808
4843,-0.2383,-0.6401,-1.0601,9.644,9.521,-4.456,-144.822,15.562,-64.83
4853,-0.2573,-0.7227,-0.9497,17.822,10.437,-0.244,-144.641,15.447,-64.891
4872,-0.2505,-0.7231,-0.7637,17.822,10.437,-0.244,-144.119,15.315,-65.067
4882,-0.2505,-0.7231,-0.7637,19.287,-0.244,7.629,-143.833,15.364,-65.127
4893,-0.2891,-0.6543,-0.5742,9.766,-6.287,8.179,-143.619,15.491,-65.16
4922,-0.2856,-0.458,-0.6118,-14.526,-3.296,4.395,-143.668,15.886,-65.182
4933,-0.2856,-0.458,-0.6118,-16.418,1.831,3.052,-143.915,15.914,-65.22
4952,-0.27,-0.3809,-0.9536,-9.46,12.39,0.0,-144.448,15.754,-65.352
4962,-0.2695,-0.4268,-1.0239,-2.869,15.015,-2.014,-144.624,15.601,-65.429
4982,-0.2686,-0.5791,-1.0435,-2.869,15.015,-2.014,-144.662,15.276,-65.49
4992,-0.2661,-0.6479,-0.9995,11.963,7.874,-6.714,-144.569,15.145,-65.479
5002,-0.2661,-0.6479,-0.9995,12.268,4.211,-6.042,-144.437,15.057,-65.451
5032,-0.2773,-0.6475,-0.7319,12.268,-4.272,0.549,-143.943,15.068,-65.374
5042,-0.2773,-0.6475,-0.7319,9.888,-6.592,2.258,-143.762,15.145,-65.352
5051,-0.2773,-0.6475,-0.7319,9.888,-6.592,2.258,-143.608,15.244,-65.33
5082,-0.2588,-0.5771,-0.6436,-16.418,-4.761,2.563,-143.613,15.513,-65.281
5091,-0.2588,-0.5771,-0.6436,-16.418,-4.761,2.563,-143.817,15.546,-65.281
5102,-0.251,-0.5112,-0.8198,-22.339,0.061,1.099,-144.08,15.54,-65.286
5112,-0.251,-0.5112,-0.8198,-18.555,2.136,2.197,-144.344,15.518,-65.319
5131,-0.2715,-0.5278,-0.9756,-3.113,4.883,4.211,-144.668,15.463,-65.44
5142,-0.2847,-0.542,-0.9712,2.93,5.188,3.845,-144.717,15.43,-65.5
5171,-0.2896,-0.5781,-0.8799,6.775,4.822,2.563,-144.591,15.331,-65.583
5182,-0.2988,-0.5923,-0.8198,9.705,0.671,-2.319,-144.487,15.32,-65.566
5241,-0.3071,-0.5688,-0.5928,0.61,-10.193,3.418,-144.014,15.952,-65.407
5261,-0.2173,-0.5059,-0.8379,-12.146,4.639,2.808,-144.355,15.952,-65.479
5291,-0.2148,-0.5381,-1.0225,3.479,17.151,-0.671,-144.701,15.485,-65.748
5301,-0.2432,-0.561,-1.0508,10.132,17.883,-2.441,-144.695,15.287,-65.83
5321,-0.3071,-0.6177,-0.8794,10.132,17.883,-2.441,-144.465,15.095,-65.912
5331,-0.3306,-0.6382,-0.7607,10.864,-3.357,-1.282,-144.305,15.15,-65.88
5341,-0.3403,-0.6353,-0.6675,4.517,-11.658,-0.244,-144.163,15.293,-65.808
5350,-0.3169,-0.6074,-0.624,-2.075,-14.832,0.916,-144.075,15.463,-65.726
5371,-0.2329,-0.5029,-0.729,-7.385,-6.836,2.502,-144.146,15.661,-65.643
5401,-0.1914,-0.4482,-1.0493,4.456,10.01,-1.648,-144.509,15.381,-65.759
5430,-0.2261,-0.4951,-1.063,10.498,10.437,-4.517,-144.25,15.106,-65.715
5441,-0.2261,-0.4951,-1.063,17.395,-6.104,-5.615,-144.014,15.156,-65.632
5460,-0.3643,-0.6885,-0.6577,13.611,-9.644,-4.883,-143.492,15.408,-65.424
5481,-0.3618,-0.6406,-0.4624,-3.662,-8.484,-0.122,-143.13,15.727,-65.286
5501,-0.2954,-0.5684,-0.5547,-10.01,-6.47,2.197,-143.152,15.963,-65.27
5510,-0.2954,-0.5684,-0.5547,-20.447,0.427,1.892,-143.333,15.969,-65.286
5520,-0.209,-0.5117,-0.8115,-23.315,3.479,1.221,-143.619,15.908,-65.319
5550,-0.1772,-0.5371,-1.145,-0.916,18.616,-3.601,-144.327,15.326,-65.522
5560,-0.2271,-0.5918,-1.1133,9.094,18.005,-4.456,-144.333,15.101,-65.594
5600,-0.3159,-0.6611,-0.6895,6.165,-12.329,-0.793,-143.811,14.98,-65.522
5610,-0.3159,-0.6611,-0.6895,0.549,-17.395,1.404,-143.69,15.167,-65.429
5620,-0.3159,-0.6611,-0.6895,-2.502,-16.418,3.418,-143.608,15.353,-65.358
5630,-0.2715,-0.5679,-0.6182,-3.784,-12.085,5.554,-143.58,15.507,-65.33
5649,-0.2583,-0.541,-0.6836,-4.333,-0.854,6.775,-143.619,15.667,-65.402
5660,-0.2759,-0.5483,-0.7129,-6.104,2.625,5.737,-143.679,15.694,-65.462
5670,-0.2915,-0.5488,-0.7617,-8.606,4.517,4.028,-143.789,15.699,-65.522
5679,-0.2915,-0.5488,-0.7617,-8.606,4.517,4.028,-143.981,15.65,-65.583
5719,-0.2471,-0.563,-1.0239,6.348,8.057,-1.343,-144.41,15.271,-65.748
5740,-0.2593,-0.6064,-0.9121,6.348,8.057,-1.343,-144.223,15.09,-65.836
5750,-0.2632,-0.6113,-0.8354,6.348,8.057,-1.343,-144.053,15.051,-65.869
5759,-0.2695,-0.6074,-0.7642,6.348,8.057,-1.343,-143.877,15.073,-65.874
5809,-0.2876,-0.5757,-0.6851,-4.089,-5.981,1.77,-143.476,15.595,-65.726
5819,-0.2837,-0.5806,-0.7192,-5.554,-1.892,1.282,-143.509,15.634,-65.726
5829,-0.2837,-0.5806,-0.7192,-5.554,-1.892,1.282,-143.564,15.639,-65.748
5849,-0.2749,-0.5815,-0.8521,-2.38,4.883,4.456,-143.707,15.606,-65.858
5859,-0.2881,-0.5889,-0.8862,1.892,5.005,6.348,-143.734,15.595,-65.945
5869,-0.2764,-0.5767,-0.9219,6.409,5.798,8.179,-143.74,15.584,-66.05
5879,-0.2759,-0.5776,-0.9106,11.23,7.08,9.399,-143.701,15.573,-66.171
5889,-0.3057,-0.5767,-0.8691,15.381,6.836,9.277,-143.608,15.579,-66.292
5919,-0.3486,-0.6006,-0.6396,9.888,-2.38,4.15,-143.163,15.738,-66.473
5929,-0.3428,-0.5801,-0.5747,-0.549,-7.141,3.357,-143.075,15.886,-66.456
5948,-0.3496,-0.5518,-0.5435,-21.24,-8.85,0.0,-143.19,16.194,-66.357
5959,-0.3496,-0.5518,-0.5435,-30.029,-6.042,-1.282,-143.399,16.298,-66.313
5978,-0.3291,-0.5859,-0.6401,-36.987,-2.014,-4.089,-144.097,16.282,-66.226
5988,-0.2378,-0.5386,-0.875,-36.987,-2.014,-4.089,-144.591,16.139,-66.22
5999,-0.2378,-0.5386,-0.875,-36.987,-2.014,-4.089,-145.118,15.93,-66.253
6028,-0.2173,-0.5005,-1.1763,10.742,16.968,1.526,-145.816,15.315,-66.561
6048,-0.2466,-0.5625,-1.0957,18.799,11.902,1.404,-145.569,15.139,-66.671
6058,-0.2881,-0.626,-0.8657,15.991,-4.883,-0.732,-145.388,15.178,-66.632
6068,-0.3008,-0.625,-0.752,11.78,-12.207,-0.732,-145.201,15.287,-66.555
6079,-0.3003,-0.6157,-0.6636,7.446,-15.381,-0.122,-145.02,15.447,-66.462
6088,-0.3003,-0.6157,-0.6636,7.446,-15.381,-0.122,-144.877,15.595,-66.379
6108,-0.291,-0.5806,-0.5845,7.446,-15.381,-0.122,-144.75,15.826,-66.286
6118,-0.2559,-0.5083,-0.6606,7.446,-15.381,-0.122,-144.805,15.87,-66.286
6128,-0.2559,-0.5083,-0.6606,-7.507,1.099,2.197,-144.893,15.87,-66.308
6138,-0.2471,-0.5068,-0.8193,-6.775,3.052,1.16,-145.003,15.837,-66.341
6148,-0.2217,-0.5059,-0.9233,-7.507,4.456,-0.671,-145.146,15.76,-66.357
6178,-0.3091,-0.6001,-0.9404,-4.333,0.854,-4.211,-145.377,15.623,-66.281
6188,-0.3027,-0.6128,-0.8979,-1.526,-5.188,-3.235,-145.382,15.65,-66.22
6237,-0.2944,-0.5679,-0.7563,7.813,-10.986,5.92,-144.921,16.216,-66.061
6258,-0.2764,-0.5093,-0.7803,5.737,-4.211,6.042,-144.849,16.403,-66.11
6277,-0.2769,-0.4941,-0.8096,-2.502,-2.014,0.916,-144.954,16.463,-66.116
6287,-0.2769,-0.4941,-0.8096,-2.563,-0.977,-1.282,-145.031,16.463,-66.099
6298,-0.3159,-0.5098,-0.8521,-2.563,-0.977,-1.282,-145.074,16.474,-66.061
6317,-0.2915,-0.5493,-0.8433,-2.441,-1.16,-4.578,-145.135,16.447,-65.973
6327,-0.291,-0.584,-0.8169,-2.869,-1.526,-5.188,-145.14,16.43,-65.918
6338,-0.2974,-0.6123,-0.7778,-4.089,-2.625,-5.737,-145.129,16.419,-65.858
6347,-0.2974,-0.6123,-0.7778,-4.089,-2.625,-5.737,-145.14,16.425,-65.792
6367,-0.29,-0.6196,-0.7163,-10.62,-3.479,-3.174,-145.206,16.458,-65.682
6387,-0.2427,-0.5669,-0.7983,-6.348,1.953,0.427,-145.382,16.381,-65.676
6397,-0.23,-0.5581,-0.916,-0.183,5.493,1.16,-145.426,16.298,-65.72
6407,-0.2285,-0.5747,-0.9487,5.737,8.423,1.526,-145.421,16.194,-65.786
6437,-0.2554,-0.6177,-0.9097,13.733,9.827,2.747,-145.124,15.919,-66.022
6447,-0.27,-0.6157,-0.8354,13.428,4.639,4.822,-144.998,15.897,-66.088
6477,-0.2778,-0.5762,-0.7832,13.428,4.639,4.822,-144.673,16.035,-66.275
6497,-0.3096,-0.562,-0.7437,11.963,-1.831,8.911,-144.465,16.205,-66.407
6507,-0.3096,-0.562,-0.7437,11.597,-1.221,7.996,-144.344,16.293,-66.467
6517,-0.3394,-0.5586,-0.6831,8.423,-1.709,7.141,-144.24,16.397,-66.517
6536,-0.3613,-0.5552,-0.6523,-3.784,-3.113,4.578,-144.163,16.639,-66.572
6557,-0.3477,-0.4849,-0.7158,-14.893,-0.793,3.845,-144.415,16.837,-66.616
6576,-0.2744,-0.46,-0.9106,-10.315,7.996,3.113,-144.844,16.776,-66.742
6586,-0.2656,-0.4561,-0.9976,-3.54,11.047,2.93,-145.014,16.672,-66.83
6606,-0.2661,-0.4888,-1.0615,11.78,14.465,0.427,-145.124,16.375,-67.022
6616,-0.2773,-0.5317,-1.022,11.78,14.465,0.427,-145.042,16.249,-67.077
6626,-0.2969,-0.5762,-0.9595,18.616,4.7,-3.113,-144.899,16.183,-67.077
6637,-0.3081,-0.5918,-0.8774,15.808,-2.502,-4.211,-144.739,16.177,-67.028
6646,-0.3081,-0.5918,-0.8774,12.146,-8.118,-4.272,-144.564,16.238,-66.94
6656,-0.3379,-0.6255,-0.6763,8.362,-12.329,-3.54,-144.377,16.359,-66.835
6666,-0.3276,-0.6289,-0.6147,3.601,-13.55,-2.808,-144.212,16.49,-66.731
6686,-0.3008,-0.6094,-0.5815,-5.859,-9.827,-0.366,-144.02,16.716,-66.577
6696,-0.2891,-0.5908,-0.6133,-9.338,-7.08,1.099,-144.025,16.804,-66.544
6706,-0.2827,-0.5757,-0.6577,-11.719,-4.883,2.075,-144.086,16.864,-66.533
6736,-0.2588,-0.5542,-0.8989,-12.878,4.272,2.441,-144.553,16.837,-66.61
6755,-0.2559,-0.5469,-1.0093,0.671,11.23,1.831,-144.778,16.628,-66.758
6766,-0.2656,-0.5498,-1.0146,8.545,13.611,1.77,-144.789,16.49,-66.857
6776,-0.2788,-0.5522,-0.9897,14.709,13.306,1.77,-144.734,16.37,-66.951
6795,-0.2891,-0.5508,-0.9473,14.709,13.306,1.77,-144.492,16.254,-67.061
6806,-0.3086,-0.5444,-0.834,17.151,-2.441,0.977,-144.349,16.287,-67.055
6816,-0.3091,-0.5396,-0.7832,14.771,-7.324,0.671,-144.201,16.37,-67.017
6835,-0.3179,-0.5342,-0.7393,14.771,-7.324,0.671,-143.937,16.589,-66.89
6856,-0.314,-0.5542,-0.7026,3.357,-5.859,-4.028,-143.762,16.716,-66.753
6865,-0.314,-0.5542,-0.7026,0.427,-3.662,-5.371,-143.718,16.738,-66.682
6885,-0.3169,-0.584,-0.7368,-5.31,0.671,-7.69,-143.712,16.705,-66.555
6905,-0.3174,-0.5874,-0.7461,-7.813,3.54,-9.094,-143.817,16.529,-66.456
6915,-0.3174,-0.5874,-0.7461,-9.216,11.719,-12.756,-143.871,16.375,-66.418
6925,-0.293,-0.6182,-0.7607,-7.69,14.832,-12.817,-143.915,16.183,-66.401
6945,-0.2539,-0.6377,-0.7954,-0.793,14.343,-6.348,-143.921,15.815,-66.445
6955,-0.2539,-0.6377,-0.7954,1.709,11.23,-1.16,-143.91,15.688,-66.506
6975,-0.2539,-0.6377,-0.7954,4.883,5.615,6.531,-143.91,15.54,-66.676
6985,-0.2539,-0.6377,-0.7954,4.883,5.615,6.531,-143.888,15.513,-66.764
6995,-0.2539,-0.6377,-0.7954,4.883,5.615,6.531,-143.795,15.524,-66.835
7014,-0.2949,-0.6245,-0.7861,14.16,-3.052,2.747,-143.388,15.645,-66.879
7025,-0.2949,-0.6245,-0.7861,6.348,-8.606,2.014,-143.119,15.809,-66.841
7035,-0.4438,-0.7363,-0.3389,-6.531,-14.954,1.77,-142.877,16.068,-66.764
7054,-0.4297,-0.583,-0.2666,-45.471,-19.165,5.615,-142.943,16.754,-66.588
7065,-0.395,-0.4888,-0.3472,-61.34,-12.085,9.094,-143.377,17.073,-66.588
7075,-0.395,-0.4888,-0.3472,-61.34,-12.085,9.094,-143.806,17.386,-66.588
7094,-0.228,-0.3047,-0.8145,-61.34,-12.085,9.094,-145.294,17.611,-66.775
7105,-0.1421,-0.2368,-1.1631,-53.101,21.484,12.878,-146.124,17.402,-67.011
7124,-0.0825,-0.2285,-1.4644,-53.101,21.484,12.878,-146.964,16.556,-67.632
7134,-0.165,-0.3486,-1.6392,19.165,52.979,-6.226,-146.843,16.078,-67.879
7154,-0.2144,-0.4604,-1.5332,44.617,33.447,-14.648,-146.074,15.249,-68.115
7174,-0.2954,-0.6602,-0.9087,24.414,-17.7,-15.625,-145.371,15.145,-67.797
7184,-0.3105,-0.6758,-0.728,11.902,-37.109,-14.282,-145.162,15.37,-67.456
7194,-0.3105,-0.6758,-0.728,2.93,-44.312,-11.841,-145.036,15.667,-67.094
7214,-0.3218,-0.6338,-0.4111,-3.54,-33.264,-7.813,-144.937,16.177,-66.5
7234,-0.3164,-0.6211,-0.3721,-5.249,-23.865,-5.676,-144.992,16.441,-66.198
7244,-0.3164,-0.6211,-0.3721,-16.174,-7.69,-1.343,-145.14,16.496,-66.138
7254,-0.2754,-0.6055,-0.4521,-22.827,-2.869,-1.404,-145.36,16.512,-66.11
7274,-0.2637,-0.5962,-0.5488,-36.377,5.31,-2.258,-146.03,16.441,-66.116
7284,-0.2637,-0.5962,-0.5488,-37.476,9.644,-2.93,-146.415,16.342,-66.149
7303,-0.1685,-0.5581,-1.0771,-35.645,11.597,-2.197,-147.096,16.117,-66.27
7313,-0.1689,-0.5513,-1.1548,-18.433,15.93,1.465,-147.305,15.991,-66.374
7324,-0.1885,-0.561,-1.1831,-5.615,17.883,3.418,-147.398,15.859,-66.5
7353,-0.2373,-0.5679,-1.0537,25.757,20.386,7.935,-147.008,15.452,-67.017
7364,-0.2456,-0.5415,-0.9771,28.625,16.235,8.85,-146.772,15.364,-67.187
7383,-0.2549,-0.5127,-0.9023,23.621,-4.333,9.033,-146.299,15.441,-67.363
7393,-0.3013,-0.4717,-0.7715,17.639,-13.672,7.935,-146.118,15.595,-67.352
7404,-0.3013,-0.4717,-0.7715,11.536,-18.005,5.737,-145.986,15.782,-67.297
7433,-0.335,-0.4443,-0.7178,11.536,-18.005,5.737,-145.728,16.21,-67.143
7444,-0.3452,-0.4634,-0.7646,8.423,-6.836,4.211,-145.646,16.287,-67.143
7453,-0.3452,-0.4634,-0.7646,8.423,-6.836,4.211,-145.552,16.337,-67.159
7463,-0.3262,-0.521,-0.8281,9.888,-0.916,4.333,-145.459,16.37,-67.192
7473,-0.3208,-0.5391,-0.833,9.46,-0.916,4.333,-145.377,16.403,-67.225
7494,-0.3242,-0.5703,-0.7837,8.606,-3.357,3.967,-145.217,16.523,-67.22
7503,-0.333,-0.5894,-0.7314,3.296,-9.583,0.244,-145.168,16.6,-67.165
7513,-0.3389,-0.5996,-0.6626,-3.296,-11.719,-1.831,-145.173,16.688,-67.077
7533,-0.3433,-0.6001,-0.5752,-19.653,-12.268,-2.747,-145.426,16.859,-66.879
7543,-0.3433,-0.6001,-0.5752,-26.184,-9.46,-1.099,-145.668,16.93,-66.813
7562,-0.2266,-0.5039,-0.7754,-28.625,-3.174,0.488,-146.217,16.919,-66.846
7573,-0.2266,-0.5039,-0.7754,-28.625,-3.174,0.488,-146.442,16.793,-66.951
7583,-0.1499,-0.4116,-1.1206,-8.667,25.269,1.77,-146.58,16.595,-67.11
7612,-0.1938,-0.5649,-1.2886,39.062,31.616,-2.258,-145.997,15.754,-67.665
7623,-0.2241,-0.6392,-1.1753,43.701,21.484,-2.869,-145.591,15.562,-67.764
7642,-0.2817,-0.7036,-0.8052,28.748,-12.207,-1.526,-144.833,15.584,-67.692
7652,-0.2817,-0.7036,-0.8052,15.198,-28.442,-0.183,-144.492,15.842,-67.522
7663,-0.3477,-0.7178,-0.458,1.221,-39.246,0.671,-144.201,16.221,-67.291
7682,-0.3569,-0.6743,-0.3838,-22.217,-36.926,4.395,-143.97,17.078,-66.857
7692,-0.3066,-0.5317,-0.4336,-26.611,-24.658,5.798,-144.058,17.375,-66.753
7703,-0.2866,-0.4731,-0.5381,-27.588,-12.512,7.324,-144.272,17.562,-66.736
7722,-0.2671,-0.4482,-0.8022,-18.127,5.676,7.751,-144.805,17.622,-66.896
7732,-0.2754,-0.4526,-0.9131,-13.977,12.329,5.127,-145.069,17.529,-67.011
7752,-0.2852,-0.4839,-0.9731,-6.348,15.747,-2.441,-145.432,17.205,-67.192
7772,-0.3022,-0.5571,-0.9927,-9.583,2.747,-5.005,-145.706,17.001,-67.192
7782,-0.3071,-0.5625,-0.9756,-12.329,-5.005,-5.493,-145.849,16.996,-67.115
7802,-0.2769,-0.5127,-0.9468,-10.559,-9.827,-4.578,-146.151,17.051,-66.912
7812,-0.291,-0.502,-0.9155,-2.502,-7.019,-4.089,-146.206,17.073,-66.835
7832,-0.2773,-0.5005,-0.8521,11.597,3.418,-1.465,-146.118,17.012,-66.808
7842,-0.2954,-0.5342,-0.7959,16.907,5.981,-0.977,-145.959,16.957,-66.835
7852,-0.314,-0.5605,-0.7305,17.517,5.249,-0.732,-145.756,16.93,-66.857
7882,-0.3223,-0.5918,-0.6284,-4.639,-5.31,-0.305,-145.388,17.045,-66.819
7901,-0.2773,-0.5742,-0.6899,-18.86,-5.92,1.404,-145.552,17.183,-66.764
7911,-0.2612,-0.5503,-0.7695,-22.278,-2.686,1.465,-145.761,17.194,-66.758
7922,-0.2544,-0.5425,-0.8418,-21.423,1.587,1.587,-145.992,17.161,-66.786
7951,-0.2437,-0.5122,-0.9922,-21.423,1.587,1.587,-146.574,16.88,-66.984
7962,-0.2534,-0.5132,-1.0063,-0.549,9.216,2.563,-146.662,16.776,-67.055
7971,-0.2534,-0.5132,-1.0063,4.822,7.935,2.502,-146.689,16.694,-67.126
7991,-0.2769,-0.5298,-0.9604,9.399,6.348,2.441,-146.558,16.578,-67.236
8002,-0.2876,-0.5522,-0.8779,19.287,5.432,3.052,-146.393,16.54,-67.291
8011,-0.2876,-0.5522,-0.8779,19.287,5.432,3.052,-146.19,16.512,-67.363
8031,-0.2993,-0.5596,-0.7656,24.475,5.249,6.226,-145.723,16.523,-67.549
8051,-0.3096,-0.5596,-0.7368,24.475,5.249,6.226,-145.278,16.633,-67.775
8061,-0.3208,-0.5586,-0.7095,17.334,1.16,12.695,-145.107,16.721,-67.89
8071,-0.3208,-0.5586,-0.7095,17.334,1.16,12.695,-144.976,16.831,-68.005
8101,-0.3042,-0.5259,-0.7764,3.784,4.333,10.864,-144.877,17.04,-68.357
8111,-0.2949,-0.5225,-0.8169,2.93,6.653,9.216,-144.904,17.04,-68.478
8141,-0.272,-0.5205,-0.9165,4.822,10.071,5.676,-145.031,16.864,-68.818
8160,-0.2651,-0.522,-0.936,9.46,9.216,4.211,-145.042,16.699,-69.011
8171,-0.2695,-0.5303,-0.9365,12.146,7.385,3.662,-144.992,16.633,-69.088
8181,-0.2715,-0.5327,-0.9253,14.954,5.92,3.113,-144.915,16.584,-69.148
8200,-0.2554,-0.5171,-0.9253,14.954,5.92,3.113,-144.668,16.479,-69.252
8210,-0.2383,-0.5005,-0.9502,25.513,4.822,3.113,-144.509,16.419,-69.307
8221,-0.2192,-0.4761,-1.002,32.104,5.798,3.296,-144.311,16.342,-69.373
8230,-0.2192,-0.4761,-1.002,40.527,8.057,3.174,-144.036,16.232,-69.45
8250,-0.313,-0.6685,-0.8027,57.495,1.221,0.549,-143.004,16.139,-69.521
8261,-0.3857,-0.7378,-0.6147,52.979,-9.521,-0.549,-142.333,16.265,-69.461
8290,-0.4614,-0.7402,-0.2798,-16.357,-36.194,-5.432,-140.927,17.281,-68.791
8310,-0.4453,-0.6055,-0.207,-64.331,-24.902,-5.615,-141.372,17.968,-68.302
8330,-0.1997,-0.3555,-0.8618,-66.833,1.831,0.732,-142.905,18.023,-68.225
8360,-0.1685,-0.4453,-1.2705,-9.094,30.396,-9.705,-144.432,17.089,-68.538
8370,-0.2769,-0.5449,-1.2896,8.972,30.64,-14.954,-144.487,16.699,-68.599
8400,-0.3042,-0.6226,-0.9077,3.662,-13.428,-23.01,-144.108,16.111,-68.154
8419,-0.2969,-0.6084,-0.8091,-5.432,-30.64,-21.606,-143.998,16.452,-67.39
8440,-0.3081,-0.561,-0.5698,-6.165,-31.433,-13.062,-143.822,16.897,-66.731
8459,-0.3354,-0.5908,-0.4785,-7.019,-26.794,-7.08,-143.448,17.397,-66.242
8480,-0.3354,-0.5908,-0.4785,-27.771,-22.095,-0.854,-143.366,17.93,-65.912
8499,-0.3052,-0.5381,-0.688,-52.612,-9.766,-1.953,-144.13,18.193,-65.726
8510,-0.2666,-0.498,-0.8813,-53.955,-2.869,-4.028,-144.712,18.155,-65.676
8529,-0.2349,-0.4634,-1.0532,-35.828,11.047,-6.226,-145.794,17.82,-65.671
8549,-0.2603,-0.5142,-1.2163,-35.828,11.047,-6.226,-146.228,17.243,-65.715
8569,-0.312,-0.5913,-1.0063,-35.828,11.047,-6.226,-145.997,16.76,-65.687
8579,-0.2817,-0.5898,-0.9014,-35.828,11.047,-6.226,-145.838,16.633,-65.638
8589,-0.2559,-0.5869,-0.8281,11.047,-5.371,-7.69,-145.69,16.611,-65.539
8599,-0.229,-0.5742,-0.79,11.047,-5.371,-7.69,-145.547,16.661,-65.407
8619,-0.2012,-0.5874,-0.7661,6.592,-14.16,-3.54,-145.283,16.776,-65.16
8629,-0.2061,-0.5962,-0.7671,5.676,-9.766,-3.906,-145.173,16.787,-65.067
8639,-0.2061,-0.5962,-0.7671,5.676,-9.766,-3.906,-145.069,16.765,-64.984
8659,-0.2476,-0.6152,-0.7583,0.61,-3.601,-8.423,-144.943,16.672,-64.759
8678,-0.3047,-0.6777,-0.6987,-28.87,-17.09,-19.592,-145.063,16.716,-64.287
8699,-0.4038,-0.501,-0.6377,-39.001,-21.973,-19.226,-145.591,17.018,-63.682
8718,-0.3823,-0.4502,-0.6733,-32.288,-14.648,4.211,-146.239,17.38,-63.435
8729,-0.3438,-0.4185,-0.8071,-15.381,-4.333,15.686,-146.492,17.54,-63.545
8739,-0.2944,-0.4263,-0.8809,5.737,7.751,20.569,-146.58,17.578,-63.77
8769,-0.27,-0.5225,-1.0093,26.123,27.527,20.691,-146.338,17.128,-64.737
8779,-0.2759,-0.5596,-0.9819,32.837,36.804,5.798,-146.129,16.826,-65.001
8788,-0.2759,-0.5596,-0.9819,32.837,36.804,5.798,-145.937,16.534,-65.176
8798,-0.29,-0.5562,-0.8848,32.837,36.804,5.798,-145.827,16.337,-65.242
8809,-0.29,-0.5562,-0.8848,3.601,2.319,-5.92,-145.783,16.282,-65.204
8819,-0.2964,-0.5674,-0.7612,-3.784,-12.207,-5.371,-145.767,16.359,-65.083
8828,-0.2964,-0.5674,-0.7612,-3.784,-12.207,-5.371,-145.767,16.523,-64.935
8838,-0.3271,-0.5469,-0.6724,-12.207,-18.127,-2.014,-145.805,16.699,-64.814
8848,-0.3325,-0.5444,-0.6479,-12.207,-18.127,-2.014,-145.854,16.853,-64.731
8868,-0.3257,-0.5405,-0.6553,-12.329,-7.141,0.732,-146.008,17.001,-64.709
8878,-0.2788,-0.5303,-0.7534,-13.916,3.174,3.418,-146.146,16.99,-64.753
8888,-0.2788,-0.5303,-0.7534,-14.709,5.127,4.456,-146.327,16.957,-64.825
8898,-0.2788,-0.5303,-0.7534,-15.137,5.432,5.005,-146.547,16.908,-64.902
8938,-0.2573,-0.4902,-1.0547,7.263,6.165,0.122,-147.063,16.611,-65.099
8948,-0.2832,-0.5127,-1.0107,7.263,6.165,0.122,-146.997,16.518,-65.127
8958,-0.2866,-0.521,-0.96,17.578,6.592,-2.93,-146.876,16.43,-65.138
8977,-0.2915,-0.5176,-0.8999,19.287,4.089,-4.028,-146.519,16.353,-65.094
8989,-0.3071,-0.521,-0.7622,18.127,-5.249,-2.93,-146.316,16.397,-65.039
9017,-0.3247,-0.5332,-0.665,15.015,-9.705,-1.099,-145.822,16.815,-64.863
9028,-0.3286,-0.5552,-0.6406,1.465,-10.132,3.967,-145.734,16.968,-64.841
9038,-0.3281,-0.5625,-0.6509,-2.625,-6.775,4.333,-145.695,17.084,-64.836
9047,-0.3281,-0.5625,-0.6509,-2.625,-6.775,4.333,-145.701,17.166,-64.852
9087,-0.3237,-0.5283,-0.7773,-14.16,8.972,5.798,-146.223,17.188,-65.138
9108,-0.3237,-0.5283,-0.7773,-11.719,10.681,5.737,-146.629,17.04,-65.363
9137,-0.2573,-0.5283,-0.9517,-4.944,3.845,2.686,-147.041,16.831,-65.577
9167,-0.2358,-0.5684,-0.9238,1.282,1.038,-0.488,-147.151,16.699,-65.61
9177,-0.2358,-0.5684,-0.9238,3.174,2.136,-2.319,-147.129,16.606,-65.599
9197,-0.1782,-0.5889,-0.9678,2.075,5.371,-10.01,-147.09,16.293,-65.517
9217,-0.2266,-0.5415,-0.9683,1.526,5.859,-15.137,-147.025,15.897,-65.264
9237,-0.2485,-0.5728,-0.8716,24.17,-1.587,-27.588,-146.371,15.732,-64.726
9257,-0.2485,-0.5728,-0.8716,-20.874,-34.18,4.578,-146.25,16.315,-64.325
9287,-0.4692,-0.4736,-0.4233,-38.452,-37.72,25.391,-146.942,18.199,-64.199
9297,-0.4692,-0.4736,-0.4233,-35.217,-28.076,24.231,-147.217,18.743,-64.248
9316,-0.3989,-0.3467,-0.6733,-36.926,-2.197,18.494,-148.024,19.325,-64.506
9337,-0.3906,-0.2988,-0.9272,-45.959,16.479,7.202,-149.244,19.303,-64.836
9346,-0.3906,-0.2988,-0.9272,-45.959,16.479,7.202,-149.865,19.1,-64.951
9367,-0.3696,-0.3086,-1.1646,-27.771,30.823,-13.55,-150.837,18.452,-65.072
9386,-0.3325,-0.3628,-1.1489,-27.771,30.823,-13.55,-151.331,17.842,-64.984
9396,-0.3003,-0.4097,-1.0933,-2.136,13.367,-17.273,-151.403,17.611,-64.896
9407,-0.271,-0.4727,-0.9976,3.296,7.69,-15.259,-151.375,17.435,-64.792
9436,-0.2607,-0.6113,-0.7046,1.648,-9.583,-6.775,-150.914,17.347,-64.44
9446,-0.2607,-0.6113,-0.7046,-3.906,-11.902,-3.113,-150.782,17.43,-64.352
9456,-0.2607,-0.6113,-0.7046,-10.742,-12.268,0.244,-150.754,17.534,-64.292
9506,-0.2241,-0.4736,-1.0303,10.559,17.883,4.089,-151.106,17.238,-64.556
9516,-0.2246,-0.4771,-1.0977,17.273,21.667,3.479,-151.035,17.001,-64.698
9525,-0.2246,-0.4771,-1.0977,17.273,21.667,3.479,-150.908,16.749,-64.841
9536,-0.2583,-0.481,-1.1245,17.273,21.667,3.479,-150.738,16.496,-64.973
9565,-0.2866,-0.52,-0.9102,34.729,15.442,1.953,-149.897,16.078,-65.259
9586,-0.3013,-0.5313,-0.7959,29.663,-6.348,5.493,-149.178,16.238,-65.319
9645,-0.2856,-0.48,-0.7007,12.695,-10.193,3.845,-148.711,16.853,-65.369
9655,-0.2344,-0.4131,-1.0093,-6.042,9.399,7.08,-148.892,16.765,-65.484
9715,-0.2397,-0.5435,-1.1592,41.626,14.954,7.69,-147.772,15.875,-66.418
9725,-0.2397,-0.5435,-1.1592,43.884,2.747,7.751,-147.338,15.881,-66.506
9735,-0.2397,-0.5435,-1.1592,37.598,-4.395,7.507,-146.915,15.963,-66.544
9745,-0.2856,-0.5972,-0.6274,27.466,-10.01,6.409,-146.536,16.1,-66.544
9755,-0.2856,-0.5972,-0.6274,14.587,-13.489,5.371,-146.25,16.282,-66.511
9765,-0.2856,-0.5972,-0.6274,1.221,-14.771,4.822,-146.085,16.479,-66.467
9775,-0.3149,-0.5776,-0.5205,1.221,-14.771,4.822,-146.036,16.666,-66.429
9795,-0.3291,-0.5737,-0.5479,-28.381,-7.019,2.258,-146.283,16.963,-66.374
9805,-0.3501,-0.543,-0.6519,-33.875,-3.296,1.831,-146.558,17.056,-66.368
9815,-0.3501,-0.543,-0.6519,-35.461,0.854,2.502,-146.893,17.106,-66.396
9845,-0.2651,-0.5078,-0.9722,-23.499,9.155,7.385,-147.755,16.979,-66.753
9864,-0.2305,-0.4854,-1.0586,1.77,18.555,15.198,-148.107,16.721,-67.209
9874,-0.2119,-0.459,-1.1685,1.77,18.555,15.198,-148.178,16.562,-67.44
9885,-0.2119,-0.459,-1.1685,16.235,18.555,12.268,-148.184,16.403,-67.654
9904,-0.2813,-0.4517,-1.0215,16.235,18.555,12.268,-147.98,16.216,-67.961
9914,-0.2813,-0.4517,-1.0215,16.235,18.555,12.268,-147.794,16.232,-68.049
9925,-0.3257,-0.4722,-0.8022,16.235,18.555,12.268,-147.596,16.342,-68.077
9944,-0.3765,-0.4775,-0.6299,5.371,-16.174,2.625,-147.299,16.765,-67.989
9954,-0.3887,-0.4653,-0.5938,-3.601,-16.846,-0.183,-147.255,17.007,-67.89
9965,-0.3887,-0.4653,-0.5938,-11.414,-14.404,-2.38,-147.283,17.221,-67.786
9985,-0.3887,-0.4653,-0.5938,-20.447,-5.554,-4.272,-147.568,17.457,-67.632
10005,-0.2935,-0.4292,-0.9253,-20.203,2.93,-5.005,-148.079,17.397,-67.555
10024,-0.2598,-0.4448,-1.1221,-5.92,7.629,-4.089,-148.475,17.144,-67.549
10034,-0.2598,-0.4448,-1.1221,4.761,8.057,-3.601,-148.524,17.001,-67.56
10114,-0.2881,-0.606,-0.6387,25.757,-9.46,-7.507,-146.206,16.386,-67.231
10123,-0.2881,-0.606,-0.6387,25.757,-9.46,-7.507,-145.849,16.523,-67.104
10163,-0.4063,-0.6045,-0.4131,-20.203,-12.268,2.808,-145.19,17.501,-66.753
10174,-0.3931,-0.5615,-0.4854,-28.015,-7.202,2.197,-145.316,17.677,-66.731
10184,-0.3931,-0.5615,-0.4854,-33.386,-1.77,2.319,-145.574,17.77,-66.742
10193,-0.3198,-0.4961,-0.7114,-33.386,-1.77,2.319,-145.942,17.781,-66.786
10203,-0.2827,-0.4653,-0.8608,-35.095,9.216,3.418,-146.371,17.71,-66.874
10233,-0.2539,-0.4375,-1.106,-31.372,15.625,2.38,-147.728,17.21,-67.187
10243,-0.2539,-0.4375,-1.106,-25.269,15.381,-2.014,-148.118,17.018,-67.253
10253,-0.2817,-0.4243,-1.2183,-25.269,15.381,-2.014,-148.447,16.831,-67.286
10273,-0.2681,-0.4224,-1.1934,-25.269,15.381,-2.014,-148.766,16.485,-67.28
10283,-0.2393,-0.4336,-1.0605,13.184,6.348,-5.493,-148.722,16.353,-67.264
10293,-0.2393,-0.4336,-1.0605,23.193,3.418,-3.357,-148.541,16.271,-67.253
10313,-0.269,-0.5625,-0.7632,23.193,3.418,-3.357,-147.887,16.293,-67.236
10323,-0.2861,-0.5952,-0.6685,28.381,-8.545,3.662,-147.502,16.397,-67.22
10333,-0.2861,-0.5952,-0.6685,21.057,-11.719,5.005,-147.156,16.556,-67.198
10373,-0.3203,-0.5347,-0.625,-15.808,-9.094,3.174,-146.783,17.221,-67.077
10382,-0.3203,-0.5347,-0.625,-19.043,-6.287,3.235,-146.942,17.314,-67.066
10433,-0.2603,-0.4521,-1.1309,-2.747,12.39,0.244,-147.86,16.908,-67.33
10443,-0.2769,-0.4668,-1.1255,11.475,13.794,-2.869,-147.86,16.738,-67.379
10452,-0.2769,-0.4668,-1.1255,18.005,12.024,-3.54,-147.777,16.584,-67.418
10483,-0.2856,-0.5327,-0.856,29.785,1.465,-1.526,-147.074,16.359,-67.445
10492,-0.2856,-0.5327,-0.856,29.785,1.465,-1.526,-146.75,16.381,-67.418
10532,-0.3398,-0.6089,-0.519,-1.709,-8.545,-1.404,-145.745,16.831,-67.192
10542,-0.3398,-0.6089,-0.519,-10.132,-6.592,-1.099,-145.673,16.93,-67.143
10552,-0.3213,-0.5991,-0.5483,-10.132,-6.592,-1.099,-145.712,17.018,-67.11
10592,-0.2192,-0.4575,-1.0249,-21.729,10.376,5.676,-146.766,16.924,-67.335
10612,-0.2192,-0.4194,-1.2227,-21.729,10.376,5.676,-147.288,16.551,-67.588
10622,-0.2354,-0.4297,-1.2456,-21.729,10.376,5.676,-147.371,16.342,-67.687
10641,-0.2539,-0.4507,-1.2207,26.611,11.169,-2.502,-147.178,16.013,-67.802
10681,-0.3286,-0.5728,-0.7158,32.349,-1.526,-3.113,-145.904,16.21,-67.582
10692,-0.3774,-0.5996,-0.4653,7.507,-20.996,-2.441,-145.607,16.469,-67.434
10702,-0.3774,-0.5996,-0.4653,-5.859,-22.766,-2.258,-145.415,16.76,-67.28
10751,-0.2988,-0.5117,-0.6118,-39.49,-1.587,-0.671,-146.36,17.331,-66.989
10761,-0.2461,-0.4424,-0.939,-39.49,-1.587,-0.671,-146.816,17.194,-67.083
10772,-0.2461,-0.4424,-0.939,-27.405,19.531,1.953,-147.255,16.979,-67.214
10791,-0.1831,-0.3823,-1.3799,-2.502,27.649,-2.93,-147.849,16.348,-67.478
10841,-0.3047,-0.6694,-0.7832,47.424,10.437,-9.277,-146.486,15.216,-67.56
10851,-0.3423,-0.686,-0.5752,33.203,-12.756,-9.216,-145.953,15.331,-67.412
10861,-0.3423,-0.686,-0.5752,33.203,-12.756,-9.216,-145.497,15.568,-67.214
10891,-0.3066,-0.5498,-0.3491,-29.114,-20.996,-2.38,-145.02,16.414,-66.671
10901,-0.2539,-0.4634,-0.4917,-33.508,-11.963,0.305,-145.245,16.556,-66.599
10911,-0.2129,-0.4072,-0.6729,-32.41,-0.854,2.502,-145.607,16.562,-66.616
10921,-0.2129,-0.4072,-0.6729,-28.809,8.972,1.892,-146.025,16.452,-66.687
10981,-0.2593,-0.4565,-1.3037,20.752,3.357,-10.986,-146.788,15.123,-66.813
11001,-0.3267,-0.6113,-0.8022,17.7,-11.169,-9.827,-146.31,15.178,-66.544
11010,-0.332,-0.6123,-0.6465,12.512,-14.038,-8.484,-146.047,15.304,-66.39
11020,-0.332,-0.6123,-0.6465,4.822,-16.052,-7.751,-145.816,15.469,-66.231
11031,-0.3203,-0.5815,-0.4517,4.822,-16.052,-7.751,-145.618,15.634,-66.083
11050,-0.2671,-0.5122,-0.4946,-17.517,-11.414,0.732,-145.552,15.936,-65.907
11080,-0.228,-0.4521,-0.7344,-24.048,-1.953,8.545,-146.338,16.068,-66.077
11100,-0.2144,-0.4854,-1.1504,-14.404,9.766,7.019,-146.827,15.809,-66.297
11120,-0.2476,-0.5317,-1.1802,2.319,13.55,-6.592,-146.997,15.447,-66.379
11130,-0.2476,-0.5317,-1.1802,2.319,13.55,-6.592,-147.014,15.293,-66.352
11140,-0.2925,-0.5752,-0.9839,2.319,13.55,-6.592,-146.981,15.194,-66.308
11160,-0.3008,-0.6064,-0.7109,8.667,-3.845,-2.563,-146.711,15.2,-66.215
11170,-0.3242,-0.646,-0.5615,5.92,-8.057,0.549,-146.486,15.326,-66.171
11180,-0.3481,-0.6953,-0.4165,5.92,-8.057,0.549,-146.234,15.518,-66.132
11210,-0.2476,-0.4429,-0.5562,-38.025,-3.357,11.292,-146.503,16.111,-66.193
11229,-0.1958,-0.334,-0.9805,-38.025,-3.357,11.292,-147.398,16.013,-66.528
11239,-0.1958,-0.334,-0.9805,-14.771,18.616,11.658,-147.777,15.853,-66.731
11250,-0.1958,-0.334,-0.9805,-6.226,22.4,7.751,-148.074,15.639,-66.923
11269,-0.3013,-0.4131,-1.3477,-6.226,22.4,7.751,-148.354,15.222,-67.126
11279,-0.3145,-0.4346,-1.2495,10.986,7.446,-5.493,-148.365,15.112,-67.121
11290,-0.3291,-0.48,-1.0771,10.986,7.446,-5.493,-148.288,15.09,-67.05
11309,-0.3457,-0.5181,-0.8892,9.583,-18.127,-6.226,-147.947,15.37,-66.775
11319,-0.3882,-0.5645,-0.5293,4.028,-22.766,-5.005,-147.717,15.65,-66.61
11330,-0.3882,-0.5645,-0.5293,-3.418,-24.414,-5.249,-147.453,15.958,-66.429
11349,-0.3086,-0.5986,-0.3755,-30.212,-20.264,-5.371,-147.255,16.463,-66.077
11379,-0.1655,-0.4907,-0.75,-36.804,0.488,0.183,-148.332,16.43,-65.918
11399,-0.1655,-0.4907,-0.75,-36.804,0.488,0.183,-148.991,16.188,-65.984
11429,-0.2964,-0.4204,-1.2378,-36.804,0.488,0.183,-149.271,15.892,-65.896
11448,-0.3008,-0.4702,-1.0869,10.498,0.977,-11.353,-149.09,15.727,-65.687
11469,-0.2827,-0.541,-0.834,17.273,2.686,-7.08,-148.722,15.595,-65.544
11479,-0.2827,-0.541,-0.834,17.273,2.686,-7.08,-148.491,15.601,-65.533
11488,-0.2827,-0.541,-0.834,17.273,2.686,-7.08,-148.266,15.677,-65.55
11528,-0.2544,-0.3926,-0.751,-3.113,-24.048,11.169,-148.145,16.589,-65.451
11538,-0.2354,-0.3823,-0.7998,-4.7,-23.56,10.254,-148.244,16.826,-65.413
11549,-0.2354,-0.3823,-0.7998,-5.31,-20.081,7.324,-148.359,16.996,-65.369
11568,-0.2227,-0.4189,-0.978,-4.395,-14.771,4.456,-148.563,17.133,-65.303
11589,-0.2549,-0.4902,-1.0151,8.606,-1.16,0.488,-148.568,17.095,-65.286
11618,-0.3135,-0.5908,-0.9204,14.709,-4.211,-5.676,-148.129,17.029,-65.165
11629,-0.3062,-0.563,-0.9014,10.925,-7.202,-7.629,-147.991,17.04,-65.056
11638,-0.3062,-0.563,-0.9014,10.925,-7.202,-7.629,-147.881,17.056,-64.924
11658,-0.333,-0.5313,-0.812,10.925,-7.202,-7.629,-147.585,17.139,-64.55
11678,-0.3394,-0.5254,-0.7686,5.676,-18.738,-10.864,-147.272,17.38,-64.138
11688,-0.3667,-0.5469,-0.668,5.676,-18.738,-10.864,-147.129,17.551,-63.94
11698,-0.3667,-0.5469,-0.668,-3.54,-19.348,-7.202,-147.03,17.737,-63.77
11718,-0.3745,-0.5596,-0.5825,-13.855,-14.282,-1.404,-146.981,18.111,-63.539
11728,-0.3745,-0.5596,-0.5825,-16.296,-8.545,1.526,-147.074,18.237,-63.501
11747,-0.2466,-0.3984,-0.8672,-14.587,-1.343,4.456,-147.442,18.221,-63.627
11758,-0.2261,-0.3979,-0.9849,-14.587,-1.343,4.456,-147.607,18.078,-63.759
11768,-0.2427,-0.3965,-1.0684,-14.587,-1.343,4.456,-147.722,17.902,-63.885
11808,-0.335,-0.5376,-0.9893,-14.587,-1.343,4.456,-147.612,17.342,-64.045
11827,-0.3535,-0.5732,-0.8945,10.01,-5.859,-4.089,-147.31,17.391,-63.918
11838,-0.3438,-0.5986,-0.7227,7.324,-7.324,-2.93,-147.151,17.463,-63.853
11848,-0.3438,-0.5986,-0.7227,5.737,-7.507,-0.854,-146.981,17.556,-63.803
11897,-0.2686,-0.5244,-0.6938,-3.235,0.854,4.639,-146.728,17.726,-63.94
11927,-0.2476,-0.4595,-1.0112,-3.235,0.854,4.639,-147.129,17.468,-64.144
11947,-0.2954,-0.4888,-1.0444,7.019,10.193,0.732,-147.239,17.243,-64.281
11957,-0.3203,-0.5151,-1.0063,7.019,10.193,0.732,-147.206,17.155,-64.33
11978,-0.3657,-0.5952,-0.834,7.019,10.193,0.732,-146.964,17.1,-64.396
11987,-0.3657,-0.5952,-0.834,8.24,-1.953,1.343,-146.827,17.172,-64.396
12006,-0.3862,-0.5654,-0.6597,-2.014,-7.996,3.662,-146.656,17.468,-64.369
12046,-0.293,-0.4688,-0.6768,-9.583,-1.465,5.249,-146.887,17.798,-64.473
12057,-0.2256,-0.3975,-0.9004,-9.827,6.836,4.028,-147.101,17.715,-64.55
12067,-0.2256,-0.3975,-0.9004,-5.676,9.277,3.235,-147.294,17.6,-64.633
12107,-0.2886,-0.4453,-1.0908,8.911,3.174,-3.906,-147.524,17.221,-64.753
12156,-0.3613,-0.5864,-0.7085,-0.366,-8.911,-5.737,-146.948,17.391,-64.341
12176,-0.3389,-0.5605,-0.5371,-6.592,-9.644,-4.456,-146.821,17.633,-64.182
12196,-0.3223,-0.5522,-0.5396,-13.794,-6.653,0.61,-146.893,17.798,-64.155
12216,-0.2334,-0.4688,-0.8149,-18.494,7.507,3.54,-147.272,17.704,-64.276
12266,-0.27,-0.4468,-1.2324,11.169,13.489,-3.174,-148.178,16.754,-64.688
12276,-0.27,-0.4468,-1.2324,11.169,13.489,-3.174,-148.101,16.628,-64.693
12296,-0.3564,-0.582,-0.9087,19.043,-5.066,-6.287,-147.717,16.595,-64.578
12305,-0.3564,-0.582,-0.9087,13.184,-12.634,-6.653,-147.497,16.705,-64.446
12326,-0.3867,-0.5811,-0.5425,5.676,-19.287,-5.798,-147.112,17.166,-64.116
12345,-0.3774,-0.5605,-0.4873,-12.39,-19.104,-1.831,-146.909,17.677,-63.836
12356,-0.3403,-0.5366,-0.4683,-14.832,-13.794,-0.244,-146.876,17.869,-63.754
12366,-0.3403,-0.5366,-0.4683,-17.639,-7.69,1.404,-146.92,17.99,-63.721
12396,-0.2329,-0.4517,-0.8545,-20.752,5.981,3.174,-147.568,17.853,-63.891
12415,-0.2363,-0.4302,-0.9844,-18.372,15.137,1.77,-148.162,17.468,-64.1
12425,-0.248,-0.416,-1.1782,-7.507,19.47,-0.977,-148.387,17.238,-64.199
12436,-0.248,-0.416,-1.1782,0.366,18.86,-2.747,-148.524,17.007,-64.276
12455,-0.3022,-0.5254,-1.1558,13.855,14.099,-4.883,-148.508,16.622,-64.363
12465,-0.3022,-0.5254,-1.1558,18.311,10.864,-4.883,-148.365,16.485,-64.38
12475,-0.3022,-0.5254,-1.1558,18.311,10.864,-4.883,-148.167,16.408,-64.374
12545,-0.2832,-0.4751,-0.6357,3.601,-13.306,0.061,-147.327,17.271,-64.006
12565,-0.2637,-0.4595,-0.7007,-11.23,-6.042,2.991,-147.59,17.342,-64.012
12575,-0.2383,-0.4341,-0.8867,-12.695,2.258,1.404,-147.788,17.292,-64.034
12585,-0.2383,-0.4341,-0.8867,-10.62,5.371,0.122,-147.986,17.205,-64.067
12594,-0.2383,-0.4341,-0.8867,-10.62,5.371,0.122,-148.156,17.084,-64.094
12634,-0.27,-0.4541,-1.1367,4.272,8.118,-4.272,-148.195,16.545,-64.116
12665,-0.3345,-0.5967,-0.8154,20.081,-2.319,-6.409,-147.458,16.392,-63.995
12674,-0.3442,-0.6113,-0.707,12.024,-8.911,-7.751,-147.228,16.463,-63.88
12684,-0.3442,-0.6113,-0.707,0.549,-16.541,-8.362,-147.057,16.617,-63.715
12695,-0.3608,-0.5713,-0.5479,0.549,-16.541,-8.362,-146.986,16.842,-63.517
12714,-0.2915,-0.4863,-0.6045,-25.452,-22.644,-5.981,-147.162,17.281,-63.127
12724,-0.2388,-0.4385,-0.7178,-27.588,-17.639,-5.493,-147.409,17.386,-62.979
12764,-0.3789,-0.5176,-0.8247,-29.114,-6.165,-13.062,-148.491,17.435,-62.408
12774,-0.4116,-0.5225,-0.7676,-29.541,-11.292,-11.658,-148.711,17.534,-62.243
12824,-0.2607,-0.4521,-0.873,-15.381,-7.507,-0.427,-148.98,17.633,-62.446
12834,-0.207,-0.4541,-1.0195,23.56,21.301,10.193,-148.876,17.435,-62.655
12844,-0.23,-0.4614,-1.0439,24.231,23.071,6.409,-148.766,17.21,-62.836
12864,-0.2993,-0.5039,-0.9663,24.231,23.071,6.409,-148.568,16.848,-63.045
12874,-0.3066,-0.4902,-0.9453,9.094,6.104,-2.075,-148.524,16.776,-63.062
12884,-0.3066,-0.4902,-0.9453,6.226,-2.563,-0.916,-148.513,16.776,-63.034
12914,-0.2041,-0.353,-1.1431,14.221,-5.676,0.061,-148.398,16.71,-62.941
12933,-0.2617,-0.4487,-1.0698,36.621,-5.615,-12.756,-147.717,16.622,-62.737
12954,-0.4048,-0.7451,-0.5239,24.109,-17.273,-20.081,-146.92,16.919,-62.045
12983,-0.4551,-0.6514,-0.2163,-60.974,-60.486,-18.005,-146.602,18.32,-60.441
12994,-0.4551,-0.6514,-0.2163,-58.472,-48.584,-5.554,-146.86,18.831,-60.112
13023,-0.1704,-0.3145,-1.0151,-21.24,-6.47,15.747,-147.81,19.116,-60.348
13043,-0.1875,-0.3311,-1.1714,12.268,29.358,5.066,-148.052,18.583,-60.82
13053,-0.3057,-0.4102,-1.2568,14.038,32.654,-3.967,-148.101,18.232,-60.969
13083,-0.3643,-0.522,-1.1304,20.02,33.325,-14.343,-147.777,17.183,-61.139
13093,-0.3643,-0.522,-1.1304,20.02,33.325,-14.343,-147.546,17.001,-61.111
13103,-0.3228,-0.6255,-0.7959,20.02,33.325,-14.343,-147.321,16.952,-61.035
13133,-0.3013,-0.5762,-0.6055,-4.028,-15.32,-0.183,-146.898,17.281,-60.738
13143,-0.3057,-0.5366,-0.5894,-7.874,-13.489,0.916,-146.86,17.435,-60.672
13152,-0.3057,-0.5366,-0.5894,-7.874,-13.489,0.916,-146.876,17.556,-60.623
13163,-0.2983,-0.4878,-0.6387,-11.963,-5.92,1.404,-146.942,17.644,-60.601
13202,-0.269,-0.4409,-0.9814,-11.23,4.15,2.258,-147.711,17.6,-60.694
13213,-0.269,-0.4409,-0.9814,-6.47,5.432,1.221,-147.87,17.523,-60.732
13253,-0.2881,-0.519,-1.0571,10.254,3.784,0.0,-148.008,17.205,-60.831
13262,-0.2881,-0.519,-1.0571,14.648,2.563,0.305,-147.909,17.155,-60.853
13282,-0.2979,-0.5415,-0.8828,16.357,-1.343,-0.549,-147.612,17.128,-60.848
13312,-0.3174,-0.5518,-0.668,-0.916,-16.357,-5.493,-147.206,17.38,-60.557
13342,-0.3555,-0.5093,-0.5815,-0.916,-16.357,-5.493,-147.36,17.99,-59.969
13362,-0.3657,-0.501,-0.5928,-29.663,-18.982,-7.324,-147.717,18.342,-59.672
13392,-0.3154,-0.4507,-0.8706,-12.329,3.113,7.385,-148.332,18.523,-59.727
13402,-0.3154,-0.4507,-0.8706,-4.761,7.813,9.338,-148.491,18.479,-59.854
13411,-0.2896,-0.4321,-1.0566,2.075,13.062,9.521,-148.612,18.38,-60.007
13432,-0.2974,-0.4482,-1.1177,8.789,16.785,7.813,-148.672,18.056,-60.315
13451,-0.3071,-0.4619,-1.0508,20.996,17.517,-2.441,-148.502,17.672,-60.496
13462,-0.3071,-0.4619,-1.0508,23.193,13.062,-3.967,-148.332,17.529,-60.529
13491,-0.3247,-0.5576,-0.7646,18.188,-3.784,-3.357,-147.645,17.6,-60.386
13502,-0.3447,-0.5928,-0.5972,4.822,-14.404,-2.136,-147.442,17.754,-60.287
13512,-0.3447,-0.5928,-0.5972,-2.625,-14.648,-1.099,-147.299,17.924,-60.194
13552,-0.2939,-0.4751,-0.7456,-15.93,0.305,7.568,-147.53,18.347,-60.211
13561,-0.2939,-0.4751,-0.7456,-15.93,0.305,7.568,-147.744,18.336,-60.304
13581,-0.2881,-0.4346,-0.9575,-5.798,10.864,6.714,-148.151,18.182,-60.54
13621,-0.3013,-0.4326,-1.1265,12.573,8.057,-1.77,-148.348,17.743,-60.826
13641,-0.3354,-0.4917,-0.98,12.573,8.057,-1.77,-148.101,17.611,-60.831
13651,-0.3345,-0.5313,-0.7905,17.334,0.977,-2.441,-147.909,17.606,-60.815
13661,-0.3335,-0.5527,-0.7046,14.648,-3.113,-1.892,-147.689,17.65,-60.782
13691,-0.3169,-0.5493,-0.6084,2.197,-8.789,-0.183,-147.288,17.952,-60.639
13710,-0.3105,-0.5308,-0.6304,2.197,-8.789,-0.183,-147.376,18.116,-60.606
13721,-0.3105,-0.5308,-0.6304,-14.587,-2.014,3.296,-147.53,18.16,-60.628
13731,-0.3105,-0.5308,-0.6304,-14.587,-2.014,3.296,-147.722,18.166,-60.672
13750,-0.3306,-0.3921,-0.9268,-14.587,-2.014,3.296,-147.991,18.105,-60.903
13761,-0.3115,-0.4541,-1.0342,24.475,15.93,11.658,-147.892,18.007,-61.095
13780,-0.291,-0.5205,-1.0532,24.475,15.93,11.658,-147.437,17.732,-61.479
13820,-0.3223,-0.5547,-0.8369,-2.747,-3.601,-9.949,-147.036,17.391,-61.49
13840,-0.3467,-0.52,-0.6875,-9.277,-11.353,-9.033,-147.057,17.639,-61.21
13860,-0.3389,-0.4961,-0.6494,-2.014,-8.789,2.258,-147.019,17.908,-61.095
13870,-0.313,-0.5186,-0.7153,-0.427,-4.028,3.784,-146.997,17.974,-61.106
13880,-0.313,-0.5186,-0.7153,-1.282,0.977,3.357,-147.008,17.99,-61.139
13900,-0.3066,-0.5098,-0.8804,-8.484,4.883,-1.709,-147.178,17.897,-61.183
13950,-0.3018,-0.4795,-0.9956,3.052,-1.16,-3.967,-147.733,17.617,-61.018
13980,-0.2944,-0.5566,-0.8213,8.179,0.183,-5.615,-147.491,17.474,-60.875
13990,-0.2944,-0.5566,-0.8213,5.676,-0.549,-6.226,-147.371,17.457,-60.815
14060,-0.292,-0.4609,-0.9302,-6.653,1.099,5.066,-147.497,17.732,-60.754
14079,-0.3125,-0.4795,-1.0107,7.08,9.399,3.54,-147.601,17.589,-60.925
14089,-0.3125,-0.4795,-1.0107,7.08,9.399,3.54,-147.59,17.507,-60.991
14100,-0.3208,-0.4985,-0.979,7.08,9.399,3.54,-147.557,17.441,-61.024
14119,-0.3301,-0.5088,-0.9307,10.01,3.845,-1.465,-147.415,17.38,-61.018
14129,-0.3105,-0.5259,-0.8232,9.338,-0.671,-2.625,-147.316,17.375,-60.996
14139,-0.3105,-0.5259,-0.8232,7.629,-2.38,-3.052,-147.2,17.38,-60.952
14179,-0.3198,-0.5503,-0.6631,-13.855,-7.08,-2.747,-147.041,17.578,-60.71
14189,-0.3203,-0.5391,-0.689,-16.907,-6.409,-1.282,-147.145,17.65,-60.667
14199,-0.3135,-0.5176,-0.7461,-18.433,-5.127,0.122,-147.299,17.71,-60.634
14209,-0.2954,-0.5054,-0.813,-18.433,-5.127,0.122,-147.475,17.726,-60.639
14258,-0.2773,-0.4766,-1.0381,2.441,9.399,3.906,-148.041,17.375,-60.969
14279,-0.3032,-0.5059,-0.9541,16.235,8.179,2.747,-147.892,17.216,-61.122
14289,-0.3022,-0.522,-0.894,17.395,5.493,2.38,-147.75,17.172,-61.177
14319,-0.3364,-0.5762,-0.6504,13.184,-2.441,1.709,-147.233,17.32,-61.177
14338,-0.3418,-0.5737,-0.6021,-1.648,-9.033,1.587,-147.09,17.606,-61.117
14348,-0.3506,-0.5454,-0.5835,-1.648,-9.033,1.587,-147.112,17.754,-61.117
14359,-0.3506,-0.5454,-0.5835,-14.587,-3.723,6.897,-147.211,17.869,-61.155
14368,-0.3125,-0.4819,-0.7358,-14.587,-3.723,6.897,-147.393,17.93,-61.238
14378,-0.3013,-0.4458,-0.8545,-14.526,4.578,9.583,-147.618,17.935,-61.348
14408,-0.2778,-0.4019,-1.0752,2.563,13.977,5.493,-148.189,17.633,-61.743
14428,-0.312,-0.4443,-1.1333,2.563,13.977,5.493,-148.211,17.369,-61.913
14458,-0.3369,-0.5317,-0.853,21.362,-1.831,-3.601,-147.689,17.238,-61.897
14498,-0.334,-0.5767,-0.561,0.366,-14.099,-1.77,-146.821,17.721,-61.523
14508,-0.3335,-0.5684,-0.5518,-5.615,-12.451,-0.488,-146.728,17.875,-61.447
14517,-0.3335,-0.5684,-0.5518,-5.615,-12.451,-0.488,-146.717,18.007,-61.397
14578,-0.3252,-0.3979,-1.0464,-20.508,4.517,-0.549,-148.151,18.105,-61.392
14597,-0.3271,-0.4106,-1.0825,-20.508,4.517,-0.549,-148.436,17.847,-61.408
14607,-0.3301,-0.4712,-1.0454,4.883,10.681,-7.385,-148.458,17.704,-61.403
14618,-0.3301,-0.4712,-1.0454,8.85,10.01,-8.179,-148.409,17.556,-61.386
14658,-0.2686,-0.5952,-0.7397,4.028,-5.31,-4.517,-147.914,17.32,-61.177
14667,-0.2686,-0.5952,-0.7397,1.038,-7.263,-2.136,-147.805,17.353,-61.117
14687,-0.2681,-0.5898,-0.6934,-1.16,-7.263,0.061,-147.662,17.446,-61.057
14707,-0.2686,-0.5752,-0.7158,-7.69,-1.587,3.54,-147.7,17.496,-61.084
14717,-0.2749,-0.5254,-0.8154,-8.606,-0.244,3.906,-147.794,17.501,-61.117
14727,-0.2749,-0.5254,-0.8154,-7.996,0.549,4.211,-147.909,17.501,-61.161
14757,-0.3193,-0.4502,-0.9883,0.977,3.418,3.296,-148.228,17.457,-61.304
14767,-0.3369,-0.4512,-0.9868,5.005,3.296,2.625,-148.266,17.441,-61.348
14776,-0.3369,-0.4512,-0.9868,5.005,3.296,2.625,-148.299,17.424,-61.386
14816,-0.3281,-0.4751,-0.8716,13.489,2.075,-1.16,-148.074,17.347,-61.458
14837,-0.3047,-0.4932,-0.8105,12.878,-0.122,-1.526,-147.854,17.364,-61.408
14866,-0.3218,-0.5918,-0.6943,1.343,-11.047,-3.052,-147.486,17.567,-61.188
14877,-0.3306,-0.604,-0.6626,-4.395,-12.451,-2.869,-147.404,17.682,-61.095
14946,-0.2886,-0.4575,-0.9697,-0.732,6.897,8.24,-147.799,17.869,-61.304
14956,-0.2886,-0.4575,-0.9697,-0.732,6.897,8.24,-147.821,17.765,-61.436
14976,-0.3276,-0.4893,-0.9692,13.245,9.949,2.441,-147.739,17.584,-61.622
14986,-0.3276,-0.4893,-0.9692,11.169,6.592,0.305,-147.678,17.54,-61.661
15056,-0.3315,-0.5146,-0.7363,-1.892,-4.333,-0.916,-147.376,17.831,-61.501
15075,-0.3403,-0.5352,-0.7422,-1.892,-4.333,-0.916,-147.448,17.946,-61.403
15086,-0.3281,-0.5205,-0.7773,-12.878,-4.517,-2.197,-147.552,17.99,-61.359
15096,-0.3052,-0.5034,-0.8364,-12.878,-4.517,-2.197,-147.684,17.99,-61.331
15115,-0.2705,-0.4697,-0.9858,-5.249,4.456,-0.488,-147.947,17.864,-61.348
15145,-0.293,-0.5088,-1.0142,7.568,9.338,-2.014,-147.936,17.523,-61.441
15176,-0.313,-0.5361,-0.791,11.23,-0.61,-1.892,-147.563,17.402,-61.436
15185,-0.313,-0.5361,-0.791,8.789,-3.357,-1.648,-147.431,17.435,-61.403
15205,-0.3213,-0.5625,-0.686,6.042,-5.31,-1.16,-147.195,17.573,-61.331
15235,-0.3159,-0.5239,-0.7432,-3.967,-2.625,2.441,-147.134,17.754,-61.309
15245,-0.3159,-0.5239,-0.7432,-5.371,-0.793,2.686,-147.2,17.781,-61.326
15265,-0.2983,-0.4341,-0.9648,-3.296,2.869,2.319,-147.442,17.748,-61.392
15305,-0.333,-0.5288,-0.9673,25.269,7.996,-1.16,-147.228,17.419,-61.567
15334,-0.3457,-0.5806,-0.7739,13.55,-3.113,-5.188,-146.497,17.38,-61.49
15355,-0.3457,-0.5806,-0.7739,-3.174,-12.756,-4.089,-146.146,17.628,-61.287
15374,-0.355,-0.5977,-0.5049,-17.029,-11.536,-1.038,-146.052,17.941,-61.106
15385,-0.3306,-0.5737,-0.5439,-22.461,-8.85,1.282,-146.135,18.067,-61.068
15395,-0.3306,-0.5737,-0.5439,-26.245,-4.333,3.784,-146.338,18.149,-61.073
15425,-0.2583,-0.4336,-1.0498,-26.245,-4.333,3.784,-147.217,17.93,-61.353
15454,-0.2783,-0.436,-1.2446,13.428,19.775,-0.061,-147.651,17.309,-61.743
15465,-0.2783,-0.436,-1.2446,13.428,19.775,-0.061,-147.568,17.111,-61.809
15484,-0.2783,-0.436,-1.2446,23.926,10.315,-4.7,-147.167,16.935,-61.782
15494,-0.3252,-0.583,-0.7842,15.991,-8.667,-6.226,-146.937,16.99,-61.677
15504,-0.3252,-0.583,-0.7842,9.521,-16.968,-6.042,-146.711,17.133,-61.529
15574,-0.2944,-0.4829,-0.7681,-19.592,-5.432,3.723,-146.607,18.276,-60.925
15594,-0.2847,-0.4009,-1.0669,-12.146,12.024,4.761,-147.184,18.1,-61.111
15644,-0.3242,-0.5205,-1.0503,39.49,22.034,-1.648,-146.893,17.045,-61.787
15654,-0.3311,-0.5742,-0.8872,40.527,16.235,-2.502,-146.514,16.897,-61.859
15663,-0.3311,-0.5742,-0.8872,34.119,4.333,-3.967,-146.085,16.875,-61.848
15673,-0.3584,-0.6851,-0.5386,34.119,4.333,-3.967,-145.69,16.99,-61.743
15703,-0.376,-0.708,-0.3223,-34.851,-30.396,-2.991,-145.162,17.842,-61.133
15713,-0.3242,-0.5103,-0.417,-42.297,-23.499,0.549,-145.382,18.122,-61.002
15724,-0.3242,-0.5103,-0.417,-38.635,-12.695,5.127,-145.739,18.292,-60.969
15773,-0.2324,-0.4316,-1.2612,13.733,30.09,3.906,-146.667,17.331,-61.793
15783,-0.2974,-0.5415,-1.2339,13.733,30.09,3.906,-146.618,17.045,-61.897
15793,-0.3164,-0.5605,-1.1543,13.733,30.09,3.906,-146.525,16.826,-61.941
15813,-0.3208,-0.5923,-1.0376,19.47,9.46,-7.751,-146.135,16.65,-61.875
15833,-0.3208,-0.5923,-1.0376,11.658,-15.564,-1.526,-145.646,16.87,-61.683
15863,-0.3252,-0.5806,-0.4814,-7.263,-18.677,1.953,-145.135,17.518,-61.353
15873,-0.3267,-0.5552,-0.4912,-12.878,-14.282,2.93,-145.107,17.71,-61.293
15882,-0.3267,-0.5552,-0.4912,-12.878,-14.282,2.93,-145.184,17.864,-61.265
15922,-0.2803,-0.4414,-1.0142,-16.235,10.498,2.991,-146.239,17.836,-61.458
15932,-0.29,-0.4585,-1.0884,-10.376,12.451,1.404,-146.481,17.699,-61.54
15943,-0.29,-0.4585,-1.0884,-4.028,12.756,-0.366,-146.646,17.556,-61.611
15952,-0.29,-0.4585,-1.0884,1.892,12.573,-2.014,-146.728,17.413,-61.666
15972,-0.3208,-0.5356,-0.9922,11.108,10.01,-3.906,-146.689,17.155,-61.727
15983,-0.3208,-0.5356,-0.9922,14.343,7.69,-3.174,-146.58,17.067,-61.743
16002,-0.293,-0.5518,-0.7603,12.939,0.0,-1.221,-146.277,17.012,-61.743
16023,-0.2817,-0.54,-0.6885,3.662,-7.69,0.427,-146.063,17.128,-61.672
16032,-0.2817,-0.54,-0.6885,0.61,-8.118,0.488,-145.997,17.21,-61.628
16052,-0.2891,-0.543,-0.6914,-5.31,-4.639,0.0,-145.981,17.325,-61.562
16072,-0.3047,-0.5537,-0.7905,-7.751,-0.366,-0.488,-146.085,17.353,-61.54
16082,-0.3081,-0.5532,-0.8306,-8.179,1.16,-0.305,-146.168,17.336,-61.54
16092,-0.3081,-0.5532,-0.8306,-7.141,3.54,0.061,-146.261,17.309,-61.562
16141,-0.3223,-0.4775,-0.8994,5.92,8.118,3.418,-146.486,17.073,-61.87
16152,-0.3223,-0.4775,-0.8994,13.977,10.315,3.906,-146.42,17.029,-61.963
16162,-0.3354,-0.4775,-0.8198,13.977,10.315,3.906,-146.327,16.985,-62.045
16181,-0.3408,-0.4883,-0.791,11.658,6.836,0.977,-146.135,16.935,-62.166
16192,-0.3296,-0.5068,-0.7656,7.446,4.456,-0.671,-146.069,16.919,-62.188
16202,-0.3296,-0.5068,-0.7656,3.235,2.197,-1.892,-146.036,16.919,-62.183
16231,-0.2979,-0.5254,-0.8027,-0.977,0.854,-2.808,-146.052,16.875,-62.122
16251,-0.2935,-0.5352,-0.8164,4.395,2.686,-0.427,-146.014,16.826,-62.128
16291,-0.2549,-0.5947,-0.8618,10.925,6.104,2.563,-145.64,16.551,-62.369
16301,-0.2549,-0.5947,-0.8618,11.414,9.644,1.343,-145.541,16.447,-62.441
16321,-0.2451,-0.5942,-0.8555,8.423,8.484,0.244,-145.426,16.26,-62.518
16351,-0.2759,-0.564,-0.8198,1.709,1.831,-0.244,-145.377,16.117,-62.545
16361,-0.2759,-0.564,-0.8198,1.709,1.831,-0.244,-145.355,16.111,-62.562
16391,-0.29,-0.5435,-0.8105,2.991,0.549,3.113,-145.289,16.15,-62.666
16400,-0.29,-0.5435,-0.8105,1.892,-0.305,1.953,-145.289,16.166,-62.677
16421,-0.291,-0.5205,-0.8247,0.183,-1.526,0.854,-145.333,16.216,-62.661
16440,-0.3076,-0.5176,-0.8315,0.854,-2.991,-0.366,-145.371,16.287,-62.622
16451,-0.3193,-0.522,-0.8247,2.441,-3.357,0.244,-145.366,16.337,-62.6
16461,-0.3193,-0.522,-0.8247,4.272,-3.357,0.854,-145.338,16.381,-62.589
16470,-0.3193,-0.522,-0.8247,6.287,-2.563,1.404,-145.294,16.425,-62.584
16501,-0.3159,-0.5615,-0.7847,7.996,2.93,2.686,-145.069,16.474,-62.666
16510,-0.3159,-0.5615,-0.7847,7.141,3.357,3.54,-145.003,16.479,-62.715
16530,-0.2988,-0.5552,-0.7949,7.141,3.357,3.54,-144.926,16.507,-62.825
16550,-0.2886,-0.542,-0.8081,5.371,4.089,4.761,-144.899,16.507,-62.946
16560,-0.2817,-0.5464,-0.8369,7.568,6.165,3.784,-144.86,16.469,-63.018
16570,-0.2817,-0.5464,-0.8369,9.766,7.874,3.113,-144.805,16.414,-63.089
16600,-0.2627,-0.5693,-0.8364,9.766,7.874,3.113,-144.525,16.221,-63.309
16660,-0.2944,-0.5889,-0.7798,6.042,-1.282,5.249,-143.954,16.359,-63.589
16670,-0.2944,-0.5889,-0.7798,4.639,-1.282,4.761,-143.91,16.408,-63.622
16680,-0.2944,-0.5889,-0.7798,4.639,-1.282,4.761,-143.882,16.452,-63.649
16699,-0.3022,-0.5596,-0.7813,4.639,-1.282,4.761,-143.849,16.507,-63.704
16710,-0.3042,-0.5605,-0.7876,2.258,1.099,2.563,-143.839,16.523,-63.732
16720,-0.3042,-0.5605,-0.7876,1.831,1.709,2.38,-143.839,16.534,-63.765
16729,-0.3042,-0.5605,-0.7876,1.831,1.709,2.38,-143.849,16.534,-63.798
16769,-0.2949,-0.5654,-0.8203,1.16,2.075,0.977,-143.893,16.518,-63.902
16779,-0.2949,-0.5654,-0.8203,1.16,2.075,0.977,-143.899,16.501,-63.924
16790,-0.2808,-0.5742,-0.8198,1.16,2.075,0.977,-143.893,16.474,-63.946
16809,-0.2827,-0.583,-0.811,3.845,0.427,1.831,-143.844,16.463,-63.984
16819,-0.2847,-0.5825,-0.8086,3.479,-0.671,2.075,-143.822,16.474,-64.001
16830,-0.2847,-0.5825,-0.8086,2.808,-1.587,2.441,-143.795,16.501,-64.012
16869,-0.2944,-0.5776,-0.7876,4.944,0.183,3.235,-143.668,16.611,-64.089
16879,-0.2944,-0.5776,-0.7876,5.31,1.221,2.93,-143.624,16.622,-64.116
16899,-0.3047,-0.5674,-0.79,5.31,1.221,2.93,-143.547,16.655,-64.199
16919,-0.313,-0.5649,-0.7915,6.104,0.183,4.028,-143.47,16.716,-64.276
16929,-0.3179,-0.5645,-0.7905,5.737,-0.916,4.211,-143.432,16.76,-64.303
16939,-0.3179,-0.5645,-0.7905,5.188,-1.404,4.211,-143.399,16.809,-64.33
16960,-0.3174,-0.5586,-0.7886,5.188,-1.404,4.211,-143.344,16.902,-64.369
17009,-0.3188,-0.5586,-0.7715,0.793,-0.854,0.122,-143.295,17.051,-64.391
17028,-0.3208,-0.5591,-0.77,-2.258,-0.793,-2.014,-143.333,17.078,-64.347
17049,-0.3208,-0.5591,-0.77,-2.93,-0.488,-2.747,-143.394,17.067,-64.297
17078,-0.2983,-0.5742,-0.8203,-1.16,0.427,-2.808,-143.465,17.001,-64.232
17089,-0.2949,-0.5771,-0.8184,-0.183,0.183,-2.93,-143.476,16.974,-64.204
17098,-0.2949,-0.5771,-0.8184,0.488,-0.488,-2.808,-143.47,16.957,-64.177
17138,-0.2813,-0.5962,-0.8008,2.93,-2.319,-0.366,-143.361,16.946,-64.072
17158,-0.2822,-0.5962,-0.8076,3.906,-2.258,0.854,-143.273,16.974,-64.061
17188,-0.291,-0.6348,-0.7554,6.592,-3.967,1.343,-143.031,17.029,-64.045
17238,-0.3853,-0.6206,-0.5303,-23.865,-11.414,-1.953,-142.707,17.748,-63.765
17258,-0.2759,-0.4136,-0.8052,-34.302,-6.775,-2.014,-143.481,17.803,-63.704
17268,-0.2275,-0.3179,-1.0205,-28.259,14.404,-0.977,-143.976,17.628,-63.787
17297,-0.2285,-0.4082,-1.2393,26.367,33.447,-9.949,-144.382,16.54,-64.204
17317,-0.332,-0.6563,-0.978,33.936,22.949,-10.376,-143.877,16.122,-64.226
17337,-0.3477,-0.6611,-0.6982,-4.15,-23.437,-16.113,-143.575,16.243,-63.803
17357,-0.3604,-0.6328,-0.5938,-19.775,-35.889,-18.005,-143.619,16.765,-63.023
17397,-0.292,-0.5464,-0.5576,-7.385,-34.424,16.296,-143.86,18.067,-62.095
17407,-0.291,-0.5498,-0.7134,2.502,-30.09,26.062,-143.833,18.457,-62.128
17417,-0.3013,-0.5522,-0.8052,2.502,-30.09,26.062,-143.822,18.798,-62.232
17437,-0.3101,-0.5981,-0.9438,2.502,-30.09,26.062,-143.833,19.133,-62.468
17457,-0.3032,-0.5698,-1.0234,-1.526,5.615,-0.793,-143.981,19.028,-62.562
17466,-0.3032,-0.5698,-1.0234,1.099,9.827,-6.958,-144.036,18.869,-62.562
17506,-0.3179,-0.6006,-0.8325,16.663,9.766,-5.432,-143.569,18.325,-62.584
17517,-0.3179,-0.6006,-0.8325,14.526,-1.038,-0.549,-143.388,18.342,-62.573
17527,-0.3447,-0.5869,-0.6587,14.526,-1.038,-0.549,-143.229,18.419,-62.534
17546,-0.3564,-0.5771,-0.6235,-0.916,-8.057,-0.916,-143.026,18.633,-62.424
17557,-0.3716,-0.5693,-0.5889,-6.165,-8.179,-1.282,-142.998,18.748,-62.364
17567,-0.3716,-0.5693,-0.5889,-10.742,-8.118,-1.343,-143.031,18.858,-62.303
17586,-0.3545,-0.5366,-0.647,-16.724,-4.944,0.122,-143.295,19.006,-62.221
17596,-0.3203,-0.5371,-0.7891,-15.564,-2.625,1.282,-143.47,19.034,-62.216
17607,-0.3203,-0.5371,-0.7891,-12.756,-0.061,2.441,-143.652,19.023,-62.232
17647,-0.3213,-0.5771,-0.9717,13.367,11.78,0.122,-143.888,18.666,-62.49
17676,-0.3267,-0.6157,-0.7593,18.555,5.371,-0.977,-143.388,18.397,-62.633
17706,-0.3438,-0.603,-0.582,1.099,-8.728,2.319,-142.916,18.627,-62.567
17716,-0.3438,-0.603,-0.582,-4.822,-7.751,2.258,-142.861,18.737,-62.534
17756,-0.314,-0.5254,-0.8213,-13.55,3.113,5.432,-143.311,18.891,-62.639
17765,-0.314,-0.5254,-0.8213,-13.55,3.113,5.432,-143.514,18.858,-62.715
17786,-0.334,-0.5034,-1.02,-0.793,4.761,3.113,-143.811,18.776,-62.842
17805,-0.3379,-0.5073,-1.0381,13.672,6.409,-2.747,-143.833,18.616,-62.891
17826,-0.3462,-0.5342,-0.9785,22.949,4.761,-5.676,-143.514,18.457,-62.88
17875,-0.396,-0.6421,-0.4531,-12.451,-21.179,-9.155,-142.685,19.039,-62.095
17895,-0.3491,-0.5898,-0.4512,-46.753,-17.09,-6.165,-143.047,19.396,-61.721
17935,-0.2886,-0.5483,-0.7803,-30.212,11.23,8.728,-144.651,19.462,-61.864
17945,-0.2886,-0.5483,-0.7803,-30.212,11.23,8.728,-145.031,19.292,-62.062
17956,-0.2886,-0.5483,-0.7803,-10.864,26.184,7.141,-145.333,19.045,-62.281
17965,-0.2886,-0.5483,-0.7803,1.465,32.043,2.93,-145.53,18.732,-62.501
17985,-0.3008,-0.4917,-1.1807,1.465,32.043,2.93,-145.596,18.078,-62.82
18005,-0.3281,-0.5684,-0.9692,17.822,0.671,-6.531,-145.344,17.825,-62.809
18015,-0.3369,-0.6055,-0.8218,13.306,-12.085,-6.042,-145.157,17.891,-62.682
18025,-0.3369,-0.6055,-0.8218,9.399,-20.325,-5.188,-144.932,18.062,-62.518
18035,-0.3369,-0.6055,-0.8218,2.38,-23.682,-4.028,-144.728,18.298,-62.336
18045,-0.3789,-0.5923,-0.4858,2.38,-23.682,-4.028,-144.569,18.539,-62.177
18064,-0.376,-0.5732,-0.4551,-12.329,-15.686,1.343,-144.404,18.995,-61.963
18075,-0.3428,-0.561,-0.4951,-16.113,-11.353,3.357,-144.421,19.166,-61.919
18085,-0.3428,-0.561,-0.4951,-21.79,-7.996,4.883,-144.558,19.286,-61.913
18104,-0.2969,-0.4897,-0.8315,-26.184,-0.122,4.395,-145.129,19.352,-61.968
18125,-0.311,-0.4702,-1.0547,-17.456,8.057,1.465,-145.783,19.21,-62.084
18134,-0.311,-0.4702,-1.0547,-7.324,11.78,-0.977,-145.981,19.067,-62.144
18155,-0.3467,-0.5093,-1.0977,11.414,18.311,-4.028,-146.08,18.693,-62.281
18174,-0.3403,-0.5273,-1.0347,23.865,17.151,-4.028,-145.805,18.298,-62.424
18184,-0.3403,-0.5273,-1.0347,23.865,17.151,-4.028,-145.585,18.199,-62.452
18194,-0.3203,-0.5938,-0.7188,16.724,-1.709,-2.258,-145.36,18.21,-62.419
18224,-0.3394,-0.5723,-0.5522,-0.122,-16.968,0.305,-144.948,18.699,-62.155
18234,-0.3242,-0.5562,-0.5708,-10.376,-13.672,2.563,-144.937,18.858,-62.095
18244,-0.3242,-0.5562,-0.5708,-10.376,-13.672,2.563,-144.998,18.968,-62.062
18274,-0.2979,-0.5015,-0.9087,-14.343,-4.211,2.075,-145.475,18.951,-62.1
18284,-0.2979,-0.5015,-0.9087,-7.69,5.676,0.732,-145.646,18.875,-62.139
18294,-0.3086,-0.5088,-1.0439,-2.38,5.676,0.488,-145.767,18.787,-62.177
18304,-0.3218,-0.5239,-1.0532,-2.38,5.676,0.488,-145.811,18.715,-62.21
18324,-0.3403,-0.5615,-0.9741,-2.38,5.676,0.488,-145.635,18.605,-62.265
18334,-0.3384,-0.5718,-0.8975,23.743,5.249,0.61,-145.432,18.556,-62.303
18344,-0.3389,-0.5791,-0.8062,25.085,4.883,1.404,-145.184,18.528,-62.342
18353,-0.3389,-0.5791,-0.8062,25.085,4.883,1.404,-144.921,18.539,-62.38
18393,-0.3516,-0.561,-0.5674,-2.991,-7.324,4.883,-144.3,18.973,-62.38
18403,-0.3477,-0.5571,-0.5933,-9.094,-5.676,5.31,-144.316,19.094,-62.391
18414,-0.3477,-0.5571,-0.5933,-9.094,-5.676,5.31,-144.415,19.182,-62.419
18433,-0.3403,-0.5176,-0.8022,-18.188,1.038,5.249,-144.811,19.27,-62.507
18443,-0.3364,-0.5034,-0.8877,-16.418,3.601,4.822,-145.052,19.254,-62.567
18454,-0.3364,-0.5034,-0.8877,-16.418,3.601,4.822,-145.283,19.21,-62.639
18463,-0.3364,-0.5034,-0.8877,-6.897,9.033,2.686,-145.475,19.116,-62.715
18494,-0.334,-0.4912,-1.0171,15.198,12.451,-2.869,-145.585,18.71,-62.908
18503,-0.334,-0.4912,-1.0171,15.198,12.451,-2.869,-145.47,18.589,-62.935
18513,-0.334,-0.5293,-0.8696,19.531,4.822,-4.028,-145.305,18.523,-62.93
18523,-0.3389,-0.5474,-0.7891,19.531,4.822,-4.028,-145.118,18.523,-62.886
18553,-0.3574,-0.582,-0.6001,4.578,-11.108,-1.77,-144.564,18.809,-62.644
18563,-0.3574,-0.582,-0.6001,-1.038,-10.62,-0.977,-144.454,18.935,-62.573
18572,-0.3521,-0.5776,-0.585,-1.038,-10.62,-0.977,-144.404,19.045,-62.512
18603,-0.3413,-0.5718,-0.7075,-16.968,-2.075,0.0,-144.602,19.221,-62.43
18652,-0.3154,-0.5215,-0.9536,-0.793,13.245,0.854,-145.47,18.896,-62.633
18673,-0.3062,-0.5347,-0.9541,-0.793,13.245,0.854,-145.486,18.567,-62.82
18682,-0.3062,-0.5347,-0.9541,11.414,13.367,-0.305,-145.443,18.43,-62.897
18702,-0.2998,-0.5371,-0.8481,11.169,0.977,0.671,-145.294,18.325,-62.957
18722,-0.3066,-0.5313,-0.8193,11.169,0.977,0.671,-145.107,18.413,-62.913
18762,-0.3623,-0.5762,-0.6763,-1.282,-6.042,-2.014,-144.695,18.721,-62.726
18782,-0.3623,-0.5762,-0.6763,-6.47,-6.287,-1.709,-144.717,18.891,-62.622
18793,-0.3584,-0.5601,-0.6743,-6.47,-6.287,-1.709,-144.8,18.979,-62.589
18802,-0.3584,-0.5601,-0.6743,-16.357,-4.822,1.465,-144.937,19.039,-62.567
18812,-0.3203,-0.5347,-0.7886,-15.991,-2.197,3.113,-145.113,19.072,-62.584
18822,-0.3203,-0.5347,-0.7886,-12.756,1.77,4.272,-145.294,19.061,-62.633
18831,-0.3203,-0.5347,-0.7886,-12.756,1.77,4.272,-145.459,18.995,-62.715
18852,-0.2993,-0.501,-1.0166,-12.756,1.77,4.272,-145.618,18.726,-62.941
18871,-0.3086,-0.5283,-0.9873,-12.756,1.77,4.272,-145.492,18.402,-63.138
18892,-0.313,-0.5454,-0.8862,-12.756,1.77,4.272,-145.212,18.259,-63.199
18922,-0.3501,-0.5747,-0.6851,11.841,-9.094,-0.916,-144.646,18.435,-63.056
18932,-0.3501,-0.5747,-0.6851,7.69,-10.132,-0.61,-144.481,18.556,-62.99
18952,-0.3638,-0.5732,-0.5957,7.69,-10.132,-0.61,-144.267,18.809,-62.875
18961,-0.3638,-0.5732,-0.5957,-6.226,-7.813,0.977,-144.234,18.924,-62.836
19012,-0.3154,-0.543,-0.8403,-11.719,3.174,3.784,-144.915,19.078,-62.864
19021,-0.2969,-0.5195,-0.9795,-4.028,7.507,3.357,-145.052,18.995,-62.941
19041,-0.2935,-0.521,-1.043,12.024,15.381,1.16,-145.124,18.699,-63.138
19051,-0.2935,-0.521,-1.043,19.043,15.808,-0.122,-145.036,18.528,-63.232
19071,-0.3076,-0.5488,-0.9209,24.597,6.714,-0.977,-144.701,18.298,-63.331
19081,-0.3076,-0.5488,-0.9209,24.292,-0.427,-0.549,-144.476,18.292,-63.325
19111,-0.3721,-0.5815,-0.6113,13.794,-11.475,-0.977,-143.745,18.594,-63.138
19130,-0.3828,-0.5874,-0.5542,1.831,-10.376,-1.282,-143.372,18.896,-62.979
19151,-0.3828,-0.5874,-0.5542,-12.695,-6.836,0.671,-143.3,19.155,-62.886
19160,-0.3716,-0.5835,-0.5791,-12.695,-6.836,0.671,-143.394,19.265,-62.858
19170,-0.3716,-0.5835,-0.5791,-24.17,-5.005,2.686,-143.58,19.352,-62.853
19181,-0.3394,-0.5518,-0.7456,-28.076,-2.93,3.906,-143.866,19.407,-62.864
19191,-0.3394,-0.5518,-0.7456,-27.283,0.732,4.578,-144.19,19.413,-62.908
19221,-0.2983,-0.4834,-1.085,-27.283,0.732,4.578,-144.91,19.023,-63.215
19250,-0.3018,-0.5181,-1.02,17.883,14.709,-5.188,-144.871,18.353,-63.484
19260,-0.3062,-0.543,-0.9355,17.883,14.709,-5.188,-144.739,18.254,-63.468
19290,-0.3608,-0.6035,-0.626,9.216,-15.076,-5.005,-144.146,18.484,-63.133
19300,-0.3608,-0.6035,-0.626,3.601,-15.198,-4.639,-143.948,18.638,-63.001
19310,-0.3608,-0.6035,-0.626,3.601,-15.198,-4.639,-143.8,18.787,-62.88
19340,-0.3423,-0.5903,-0.5713,-23.56,-8.972,-0.916,-143.828,19.138,-62.617
19350,-0.3423,-0.5903,-0.5713,-23.56,-8.972,-0.916,-144.064,19.21,-62.584
19370,-0.3018,-0.5078,-0.8184,-24.78,-0.854,4.761,-144.783,19.221,-62.617
19410,-0.3262,-0.624,-1.2529,66.284,24.597,-1.343,-144.586,18.402,-63.127
19429,-0.4014,-0.8208,-0.709,66.284,24.597,-1.343,-143.179,18.138,-63.155
19459,-0.4253,-0.6548,-0.1611,31.982,-17.944,-11.597,-141.844,19.056,-62.243
19499,-0.3037,-0.4399,-0.4321,-34.485,-13.611,13.916,-142.504,20.248,-62.012
19509,-0.2612,-0.4077,-0.8599,-34.485,-13.611,13.916,-142.899,20.204,-62.216
19529,-0.2813,-0.4346,-1.0332,-10.315,27.283,1.282,-143.569,19.764,-62.611
19549,-0.3828,-0.4956,-1.2666,-7.141,30.029,-6.348,-144.031,19.111,-62.809
19559,-0.3945,-0.5195,-1.23,6.531,21.301,-15.076,-144.102,18.825,-62.814
19569,-0.3945,-0.5195,-1.23,14.587,13.611,-14.648,-144.042,18.605,-62.776
19609,-0.3633,-0.6587,-0.4971,24.414,-4.15,-9.094,-142.877,18.71,-62.287
19619,-0.3633,-0.6665,-0.3794,5.188,-24.353,-3.54,-142.537,18.946,-62.106
19629,-0.3623,-0.6597,-0.3198,5.188,-24.353,-3.54,-142.289,19.204,-61.924
19649,-0.3452,-0.6323,-0.3276,-33.936,-16.785,-1.343,-142.328,19.605,-61.65
19659,-0.2837,-0.502,-0.5698,-40.833,-10.315,-0.122,-142.668,19.693,-61.584
19669,-0.2446,-0.4302,-0.7969,-39.551,-3.784,1.953,-143.146,19.687,-61.573
19678,-0.2271,-0.4077,-1.0156,-39.551,-3.784,1.953,-143.602,19.589,-61.622
19699,-0.2979,-0.5137,-1.2114,-39.551,-3.784,1.953,-144.091,19.21,-61.809
19718,-0.3638,-0.6147,-1.1309,13.794,14.893,-5.798,-144.064,18.814,-61.919
19739,-0.3481,-0.6274,-0.9121,13.794,14.893,-5.798,-143.729,18.545,-61.952
19768,-0.3486,-0.6348,-0.5249,12.634,-10.437,1.16,-142.861,18.71,-61.848
19779,-0.3486,-0.6348,-0.5249,2.808,-14.038,3.174,-142.657,18.891,-61.787
19788,-0.3486,-0.6348,-0.5249,-4.883,-13.306,4.944,-142.548,19.078,-61.743
19848,-0.3457,-0.4951,-1.0566,-15.686,4.639,5.92,-143.608,19.177,-62.056
19868,-0.377,-0.5166,-1.0791,5.493,7.874,-3.052,-143.784,18.984,-62.128
19878,-0.377,-0.5542,-1.0098,5.493,7.874,-3.052,-143.745,18.896,-62.139
19888,-0.3716,-0.5674,-0.9243,5.493,7.874,-3.052,-143.624,18.82,-62.144
19928,-0.3438,-0.5957,-0.5317,4.272,-8.606,-1.282,-142.817,18.924,-61.996
19937,-0.3438,-0.5957,-0.5317,-3.906,-11.292,0.488,-142.707,19.067,-61.93
19949,-0.3438,-0.5957,-0.5317,-11.963,-11.23,2.136,-142.723,19.204,-61.875
19958,-0.3438,-0.5957,-0.5317,-11.963,-11.23,2.136,-142.883,19.286,-61.853
19968,-0.2793,-0.4619,-0.8013,-18.921,-2.808,2.747,-143.141,19.297,-61.859
19977,-0.2529,-0.3892,-1.001,-15.015,3.662,1.343,-143.459,19.215,-61.891
19988,-0.2344,-0.3647,-1.1938,-3.906,13.062,-1.221,-143.712,19.023,-61.963
19998,-0.2661,-0.4482,-1.2817,12.817,21.484,-5.432,-143.784,18.737,-62.051
20007,-0.2661,-0.4482,-1.2817,12.817,21.484,-5.432,-143.619,18.441,-62.117
