elapsed_ms,acc_x_g,acc_y_g,acc_z_g,gyro_x_dps,gyro_y_dps,gyro_z_dps,angle_x_deg,angle_y_deg,angle_z_deg
0,-0.1846,-0.3477,-0.9888,-22.095,-11.169,-2.441,-161.153,9.789,-13.969
11,-0.1807,-0.3374,-0.9897,-21.545,-10.803,-2.197,-161.356,9.882,-13.914
40,-0.168,-0.3188,-1.0029,-23.071,-8.057,-4.15,-161.999,10.085,-13.727
51,-0.1655,-0.3154,-1.0068,-22.705,-8.362,-3.723,-162.219,10.14,-13.667
80,-0.166,-0.3052,-1.002,-17.761,-11.963,-0.061,-162.795,10.399,-13.546
100,-0.165,-0.3022,-0.9985,-18.066,-16.296,-0.732,-163.141,10.657,-13.442
120,-0.1792,-0.2852,-0.9839,-16.479,-16.235,1.648,-163.477,10.964,-13.365
140,-0.1831,-0.2813,-0.9795,-15.564,-13.55,0.916,-163.79,11.228,-13.31
150,-0.1943,-0.2734,-0.9766,-15.686,-11.841,0.244,-163.943,11.338,-13.277
160,-0.1948,-0.2666,-0.9766,-16.052,-10.437,-0.244,-164.103,11.431,-13.244
180,-0.2012,-0.2583,-0.9814,-15.93,-9.583,-0.61,-164.421,11.607,-13.178
190,-0.1909,-0.2515,-0.9834,-15.869,-9.216,-0.183,-164.586,11.689,-13.151
209,-0.186,-0.251,-0.9902,-12.817,-8.484,1.16,-164.872,11.827,-13.118
219,-0.1802,-0.2544,-0.9902,-10.681,-8.057,1.587,-164.987,11.893,-13.112
230,-0.1919,-0.2632,-0.9912,-7.874,-7.69,1.404,-165.064,11.953,-13.107
249,-0.1987,-0.2646,-0.9888,-5.188,-6.042,0.305,-165.163,12.068,-13.085
259,-0.2017,-0.2788,-0.9902,-6.042,-4.211,-0.427,-165.212,12.101,-13.068
270,-0.2007,-0.2783,-0.9922,-8.484,-3.052,-0.488,-165.284,12.118,-13.057
299,-0.1904,-0.2637,-0.9971,-10.681,0.305,1.526,-165.586,12.101,-13.074
319,-0.187,-0.249,-1.0098,-7.813,-0.61,3.174,-165.773,12.079,-13.129
329,-0.1899,-0.2437,-1.0176,-6.47,-1.77,3.601,-165.855,12.09,-13.156
339,-0.189,-0.2427,-1.0176,-4.761,-2.136,4.15,-165.916,12.101,-13.195
359,-0.1831,-0.2549,-1.0308,-4.761,-2.136,4.15,-165.932,12.107,-13.326
369,-0.1826,-0.2627,-1.041,-4.761,-2.136,4.15,-165.883,12.129,-13.42
409,-0.2031,-0.2773,-1.1099,17.273,3.54,9.705,-165.41,12.14,-13.876
428,-0.2109,-0.2646,-1.1426,17.273,3.54,9.705,-165.086,11.975,-14.062
449,-0.2061,-0.2642,-1.1177,24.109,2.197,2.747,-164.669,11.876,-14.167
468,-0.2222,-0.2524,-1.0811,24.109,2.197,2.747,-164.268,11.937,-14.101
479,-0.2114,-0.2334,-0.9004,26.123,-4.578,-7.629,-164.004,11.97,-14.013
489,-0.1812,-0.2593,-0.8003,33.997,0.0,-14.282,-163.619,11.931,-13.87
508,-0.1533,-0.2754,-0.6772,33.997,0.0,-14.282,-162.57,11.662,-13.497
518,-0.0962,-0.3022,-0.4873,33.997,0.0,-14.282,-162.026,11.299,-13.321
558,-0.1665,-0.2266,-1.1216,30.579,47.852,-27.649,-161.45,8.366,-13.195
588,-0.1777,-0.1479,-1.6367,-27.161,64.026,-22.522,-162.587,5.867,-13.277
608,-0.1973,-0.2178,-1.5371,10.254,3.296,-18.066,-162.576,5.422,-13.008
618,-0.1973,-0.2178,-1.5371,10.254,3.296,-18.066,-162.285,5.526,-12.832
628,-0.1973,-0.2178,-1.5371,32.41,-24.719,-5.859,-161.949,5.74,-12.7
647,0.0166,-0.563,-0.5215,5.188,-7.446,15.564,-161.669,6.064,-12.81
658,0.0166,-0.563,-0.5215,5.188,-7.446,15.564,-161.878,6.026,-13.057
668,0.0166,-0.563,-0.5215,-30.823,41.077,23.56,-162.219,5.707,-13.409
698,-0.2251,-0.0107,-1.5615,-30.823,41.077,23.56,-163.328,4.12,-14.546
708,-0.2573,0.021,-1.7007,-21.79,50.537,7.08,179.291,3.653,-14.76
717,-0.2573,0.021,-1.7007,-21.79,50.537,7.08,-179.863,3.356,-14.722
727,-0.2573,0.021,-1.7007,-21.79,50.537,7.08,-179.758,3.301,-14.579
738,-0.1782,-0.2407,-1.1582,23.376,-9.094,-22.766,-179.511,3.389,-14.348
748,-0.0601,-0.3999,-0.8188,33.63,-11.78,-26.855,-179.16,3.505,-14.079
757,0.0234,-0.5283,-0.5474,33.142,-7.568,-23.376,-178.813,3.582,-13.843
778,0.1665,-0.6094,-0.1768,-1.221,-3.723,-5.859,-178.572,3.702,-13.634
797,0.1123,-0.4771,-0.2622,-29.846,33.936,10.437,-179.083,3.252,-13.782
807,0.0288,-0.3398,-0.6982,-35.461,66.345,10.803,-179.445,2.587,-13.903
817,0.0112,-0.2056,-1.2617,-32.227,100.159,4.456,-179.769,1.588,-13.958
837,-0.0527,-0.0405,-2.0049,-22.339,90.271,-7.751,179.72,-0.434,-13.843
847,-0.1167,-0.0396,-2.0532,-3.662,56.58,-10.193,179.681,-1.0,-13.738
867,-0.0664,-0.2871,-1.4985,-3.662,56.58,-10.193,-179.747,-1.126,-13.436
877,-0.0415,-0.4043,-1.0845,45.654,-38.635,-11.169,-179.291,-0.742,-13.321
887,-0.0415,-0.4043,-1.0845,44.556,-40.588,-5.005,-178.846,-0.335,-13.266
907,0.0815,-0.541,-0.3789,4.028,-27.893,8.423,-178.55,0.33,-13.354
917,0.0815,-0.541,-0.3789,4.028,-27.893,8.423,-178.621,0.379,-13.491
927,0.0508,-0.3779,-0.2109,-17.761,11.108,18.188,-178.797,0.269,-13.678
937,0.0376,-0.2739,-0.6035,-21.606,42.603,15.015,-179.017,-0.148,-13.837
947,0.0376,-0.2739,-0.6035,-18.005,76.477,6.287,-179.198,-0.912,-13.909
957,0.0122,-0.0317,-1.6538,-20.996,84.778,-0.977,-179.407,-1.758,-13.914
966,0.0122,-0.0317,-1.6538,-24.048,70.679,-6.958,179.703,-2.466,-13.848
976,0.0122,-0.0317,-1.6538,-24.048,70.679,-6.958,-179.874,-2.829,-13.749
997,-0.0356,-0.2813,-1.1704,19.104,-39.49,-12.939,-179.665,-2.373,-13.497
1016,0.0391,-0.4751,-0.4956,28.259,-46.021,-5.554,-179.083,-1.379,-13.332
1026,0.0923,-0.5195,-0.3076,9.216,-33.02,-1.587,-178.995,-1.049,-13.31
1037,0.1362,-0.5313,-0.1968,9.216,-33.02,-1.587,-179.083,-0.901,-13.337
1066,0.0776,-0.272,-0.9785,-41.321,47.424,13.428,-179.896,-1.67,-13.694
1077,0.0522,-0.105,-1.4126,-52.429,60.425,14.893,179.588,-2.274,-13.848
1096,0.0171,0.0815,-1.8604,-46.814,46.936,9.766,179.258,-3.345,-14.073
1106,0.0288,0.0469,-1.73,-26.367,19.104,5.188,179.0,-3.538,-14.123
1115,0.0459,-0.0903,-1.418,-26.367,19.104,5.188,-176.353,-3.367,-14.15
1126,0.0752,-0.2295,-1.0034,-26.367,19.104,5.188,-176.226,-2.933,-14.167
1136,0.0752,-0.2295,-1.0034,23.254,-49.011,7.568,-175.99,-2.439,-14.211
1146,0.1196,-0.46,-0.3477,23.254,-49.011,7.568,-175.787,-2.032,-14.299
1166,0.187,-0.5,-0.2441,6.592,-13.55,15.503,-175.792,-1.989,-14.667
1176,0.1528,-0.397,-0.5996,-15.503,35.522,28.076,-175.935,-2.318,-14.974
1186,0.1309,-0.3066,-1.0381,-25.024,56.519,30.212,-176.171,-2.862,-15.315
1195,0.1309,-0.3066,-1.0381,-34.485,61.951,30.334,-176.501,-3.461,-15.661
1206,0.043,-0.0786,-1.7515,-34.485,61.951,30.334,-176.896,-3.972,-15.985
1216,-0.0161,-0.0156,-1.7886,-38.94,28.32,24.841,-177.264,-4.241,-16.249
1256,-0.0039,-0.4546,-0.6572,35.156,-32.715,8.057,-176.638,-3.483,-16.633
1275,0.063,-0.5171,-0.374,11.963,-5.92,14.771,-176.226,-3.181,-16.875
1285,0.0425,-0.4385,-0.4912,11.963,-5.92,14.771,-176.248,-3.312,-17.067
1296,0.0649,-0.3545,-0.7573,-9.888,38.513,16.418,-176.336,-3.686,-17.254
1305,0.0649,-0.3545,-0.7573,-9.888,38.513,16.418,-176.473,-4.191,-17.413
1315,0.0693,-0.147,-1.5327,-9.888,38.513,16.418,-176.66,-4.724,-17.529
1325,0.0498,-0.0752,-1.6997,-9.888,38.513,16.418,-176.847,-5.125,-17.589
1336,-0.0063,-0.0352,-1.6523,-8.362,15.503,1.892,-176.929,-5.279,-17.617
1345,-0.0063,-0.0352,-1.6523,10.193,-5.554,-2.686,-176.83,-5.224,-17.589
1355,0.0166,-0.2456,-1.1162,10.193,-5.554,-2.686,-176.539,-5.015,-17.529
1365,0.0322,-0.3628,-0.8125,38.33,-33.325,-2.197,-176.16,-4.686,-17.485
1385,0.0776,-0.4692,-0.4365,25.085,-18.311,6.653,-175.551,-4.197,-17.54
1395,0.0825,-0.4458,-0.4097,7.446,-5.31,10.681,-175.468,-4.136,-17.644
1405,0.0488,-0.3623,-0.5791,-4.639,10.498,12.634,-175.501,-4.23,-17.776
1425,0.0488,-0.3623,-0.5791,-15.869,41.138,5.615,-175.765,-4.927,-17.99
1435,0.0488,-0.3623,-0.5791,-15.869,41.138,5.615,-175.902,-5.295,-18.04
1454,0.0435,-0.0435,-1.6167,1.892,3.418,-2.014,-175.974,-5.57,-18.045
1475,0.0088,-0.2471,-1.1064,29.419,-33.264,-6.775,-175.523,-5.07,-17.891
1494,0.0112,-0.3418,-0.8599,24.78,-36.255,-6.653,-174.968,-4.318,-17.688
1505,0.0547,-0.4448,-0.5273,11.536,-28.381,-4.211,-174.858,-4.037,-17.622
1545,0.0552,-0.2349,-0.981,-20.02,26.672,-2.625,-175.424,-4.186,-17.611
1564,0.0776,-0.105,-1.4785,-22.095,33.264,-7.629,-175.875,-4.878,-17.534
1574,0.0776,-0.105,-1.4785,-15.442,19.348,-9.338,-176.034,-5.081,-17.452
1604,0.0625,-0.2891,-1.1094,-1.221,3.601,-11.719,-175.759,-4.746,-17.034
1614,0.0742,-0.3623,-0.8726,22.827,-34.18,-10.437,-175.54,-4.411,-16.902
1624,0.0742,-0.3623,-0.8726,17.7,-31.982,-6.409,-175.369,-4.098,-16.815
1654,0.1025,-0.4058,-0.4751,-5.981,-4.944,5.31,-175.342,-3.642,-16.837
1664,0.0923,-0.3696,-0.5879,-6.836,9.338,6.897,-175.402,-3.73,-16.913
1684,0.0923,-0.3696,-0.5879,-10.132,44.434,4.395,-175.589,-4.444,-17.078
1694,0.0977,-0.1377,-1.48,-14.893,47.424,2.563,-175.732,-4.911,-17.139
1724,0.0605,-0.1436,-1.2959,12.573,-7.263,-5.981,-175.831,-5.295,-17.089
1734,0.0601,-0.2656,-1.0,26.306,-26.367,-6.775,-175.578,-5.037,-17.001
1753,0.0518,-0.3926,-0.627,22.827,-25.452,-4.089,-175.062,-4.438,-16.864
1764,0.0728,-0.3696,-0.6421,8.118,-7.751,-2.686,-174.985,-4.362,-16.831
1774,0.0361,-0.2642,-0.8052,-11.78,7.813,-1.343,-175.106,-4.438,-16.826
1804,0.0762,-0.0703,-1.3354,-15.442,20.569,-13.855,-175.737,-5.229,-16.611
1844,0.1006,-0.4141,-0.9419,27.466,-16.907,-7.874,-175.1,-4.883,-16.084
1863,0.1147,-0.4224,-1.0371,8.667,-1.465,-0.793,-174.831,-4.752,-16.024
1873,0.1284,-0.3687,-1.1143,-2.197,4.578,2.38,-174.847,-4.796,-16.051
1883,0.126,-0.3247,-1.1147,-7.751,-0.366,5.859,-174.919,-4.785,-16.106
1893,0.106,-0.3071,-1.0923,-7.751,-0.366,5.859,-174.946,-4.68,-16.194
1903,0.106,-0.3071,-1.0923,5.981,-16.113,12.085,-174.88,-4.504,-16.304
1913,0.1357,-0.396,-0.7754,5.981,-16.113,12.085,-174.749,-4.23,-16.441
1934,0.0269,-0.3901,-0.582,14.038,-23.437,24.17,-174.43,-3.609,-16.848
1943,0.0269,-0.3901,-0.582,14.038,-23.437,24.17,-174.342,-3.664,-17.045
1953,0.0303,-0.2729,-0.8672,-3.54,22.278,14.221,-174.37,-3.873,-17.21
1973,0.1113,-0.1914,-1.2866,-15.381,48.279,1.77,-174.65,-4.73,-17.391
1993,0.0342,-0.249,-1.1094,-5.615,5.859,5.737,-174.831,-5.076,-17.507
2023,0.0859,-0.4644,-0.6299,7.202,5.798,5.188,-174.727,-5.202,-17.71
2033,0.1221,-0.498,-0.4805,-16.174,13.428,12.634,-174.88,-5.323,-17.853
2052,0.1221,-0.498,-0.4805,-30.212,29.846,23.987,-175.413,-5.751,-18.314
2063,0.1177,-0.2739,-1.0864,-29.114,53.589,23.621,-175.677,-6.268,-18.594
2082,0.1577,-0.1313,-1.564,-20.325,64.636,18.311,-176.111,-7.592,-19.083
2092,0.1577,-0.1313,-1.564,-11.23,43.091,14.893,178.132,-8.009,-19.265
2103,0.1133,0.0708,-2.1772,5.981,8.606,12.207,178.209,-8.097,-19.385
2122,0.0049,-0.1738,-1.3301,5.981,8.606,12.207,-178.61,-7.169,-19.66
2132,-0.0166,-0.3296,-0.8589,60.547,-75.256,15.381,-177.984,-6.411,-19.797
2143,0.041,-0.4551,-0.5176,54.993,-65.918,13.184,-177.424,-5.746,-19.907
2162,0.0977,-0.4438,-0.25,10.437,-34.668,16.113,-176.946,-4.889,-20.16
2212,0.0669,-0.0679,-1.2715,-16.052,20.508,-4.517,-177.968,-5.268,-20.506
2242,0.1099,-0.2339,-1.3018,14.648,-0.854,-15.686,-177.858,-5.51,-20.11
2252,0.0918,-0.312,-1.1357,20.02,-13.672,-12.756,-177.671,-5.378,-19.973
2282,0.0923,-0.438,-0.7451,17.334,-21.118,-1.099,-177.05,-4.752,-19.803
2292,0.0771,-0.4258,-0.6396,10.193,-20.386,2.625,-176.946,-4.543,-19.819
2311,0.0771,-0.4258,-0.6396,4.395,-15.93,5.676,-176.885,-4.257,-19.946
2351,0.0425,-0.3428,-0.084,-10.376,24.17,8.972,-177.16,-4.417,-20.38
2362,0.0835,-0.2417,-0.5313,-14.221,49.5,3.174,-177.297,-4.905,-20.435
2391,0.3154,0.0947,-2.5088,-48.401,87.585,-20.752,177.836,-7.789,-20.116
2411,0.1445,0.0659,-2.5508,-20.996,-9.766,-18.494,177.1,-8.02,-19.72
2431,0.126,-0.1294,-2.1538,31.738,-73.975,-15.32,-176.27,-6.833,-19.352
2451,0.126,-0.1294,-2.1538,31.738,-73.975,-15.32,-175.342,-5.125,-19.133
2471,0.147,-0.6821,-0.0674,21.667,-52.368,21.851,-174.694,-3.884,-19.347
2480,0.1187,-0.5928,-0.0137,21.667,-52.368,21.851,-174.683,-3.483,-19.622
2491,0.0537,-0.4248,-0.1567,-14.526,-15.32,36.133,-174.803,-3.301,-19.968
2501,0.0684,-0.2578,-0.5225,-14.526,-15.32,36.133,-174.99,-3.428,-20.325
2531,0.0923,-0.1357,-0.9214,-18.372,39.307,27.222,-175.468,-4.653,-21.022
2541,0.0161,-0.0215,-1.4375,-9.399,22.217,4.822,-175.556,-4.867,-21.088
2560,0.0117,-0.1807,-1.3848,4.028,7.263,-7.324,-175.529,-5.076,-21.006
2581,0.0366,-0.334,-1.2114,5.737,-5.127,-9.888,-175.43,-5.037,-20.814
2600,0.0269,-0.4326,-0.9712,9.46,-15.93,-2.502,-175.276,-4.774,-20.687
2621,-0.0029,-0.46,-0.7139,11.658,-17.883,7.69,-175.023,-4.411,-20.77
2630,-0.0205,-0.4326,-0.6499,11.658,-17.883,7.69,-174.946,-4.257,-20.858
2650,-0.0347,-0.3247,-0.6611,-2.747,-0.671,9.033,-174.935,-4.153,-21.05
2661,-0.0049,-0.2974,-0.7842,-4.028,7.996,4.944,-174.974,-4.23,-21.105
2680,-0.0049,-0.2974,-0.7842,-2.319,19.165,-0.488,-175.023,-4.576,-21.143
2690,0.0918,-0.2119,-1.4404,-1.221,20.63,-1.404,-175.034,-4.785,-21.149
2700,0.0947,-0.1958,-1.5049,-1.221,20.63,-1.404,-175.034,-4.905,-21.132
2710,0.0396,-0.2187,-1.4106,-1.221,20.63,-1.404,-174.996,-4.845,-21.11
2730,0.0044,-0.332,-1.042,19.531,-26.428,-0.916,-174.677,-4.378,-21.05
2770,-0.0107,-0.3467,-0.5444,-2.625,-13.245,3.845,-174.424,-3.395,-21.061
2790,-0.0142,-0.3037,-0.6318,-13.306,3.601,2.991,-174.628,-3.367,-21.127
2800,-0.0181,-0.3008,-0.6294,-13.306,3.601,2.991,-174.88,-3.444,-21.143
2819,-0.0366,-0.3008,-0.5737,-39.856,9.766,-0.977,-175.798,-3.691,-21.121
2830,-0.0103,-0.2998,-0.6035,-39.856,9.766,-0.977,-176.391,-3.906,-21.094
2840,0.0439,-0.1934,-0.8633,-62.561,33.569,-4.639,-177.023,-4.241,-21.066
2849,0.125,-0.0605,-1.2607,-62.561,33.569,-4.639,-177.583,-4.757,-21.033
2870,0.125,-0.0605,-1.2607,-38.94,60.303,-10.132,178.165,-5.922,-20.786
2880,0.125,-0.0605,-1.2607,15.259,43.091,-19.653,178.297,-6.35,-20.577
2889,0.125,-0.0605,-1.2607,15.259,43.091,-19.653,-176.171,-6.454,-20.358
2899,0.125,-0.0605,-1.2607,15.259,43.091,-19.653,-175.803,-6.213,-20.16
2910,0.125,-0.0605,-1.2607,37.903,-47.241,-13.245,-175.441,-5.751,-19.995
2930,0.0254,-0.5796,-0.4272,12.268,-45.837,-2.747,-175.067,-4.774,-19.792
2939,0.0254,-0.5796,-0.4272,12.268,-45.837,-2.747,-175.056,-4.471,-19.814
2949,0.0254,-0.5796,-0.4272,12.268,-45.837,-2.747,-175.117,-4.334,-19.907
2960,0.0015,-0.3188,-0.3833,-8.606,6.958,11.536,-175.193,-4.395,-20.028
2969,0.0015,-0.3188,-0.3833,-6.531,30.518,7.996,-175.248,-4.691,-20.132
2979,0.0938,-0.1514,-0.9453,-4.883,45.349,2.38,-175.292,-5.142,-20.198
2989,0.0938,-0.0913,-1.2207,-3.723,46.387,-1.648,-175.325,-5.603,-20.22
2999,0.0938,-0.0913,-1.2207,-3.723,46.387,-1.648,-175.342,-6.026,-20.204
3019,0.0938,-0.0913,-1.2207,0.854,14.282,-11.292,-175.336,-6.509,-20.045
3039,0.0869,-0.1509,-1.6626,6.226,-23.987,-11.108,-175.292,-6.224,-19.792
3049,0.0034,-0.3599,-1.1719,6.226,-23.987,-11.108,-175.182,-5.839,-19.666
3059,-0.0195,-0.4243,-0.9321,16.785,-44.189,-5.859,-175.023,-5.405,-19.572
3078,-0.0068,-0.4663,-0.7485,10.742,-36.926,2.502,-174.754,-4.636,-19.506
3089,-0.0405,-0.3887,-0.5518,10.742,-36.926,2.502,-174.732,-4.323,-19.539
3099,-0.0405,-0.3369,-0.5527,-4.211,-19.531,6.836,-174.771,-4.12,-19.589
3118,-0.0239,-0.21,-0.7373,-10.193,-9.216,4.761,-174.996,-4.032,-19.644
3129,0.0093,-0.1489,-0.9312,-12.634,9.949,-3.906,-175.128,-4.131,-19.611
3139,0.063,-0.1221,-1.1309,-10.742,14.526,-9.766,-175.237,-4.285,-19.528
3158,0.1182,-0.1094,-1.4863,-2.319,4.944,-14.526,-175.347,-4.477,-19.265
3169,0.1099,-0.1514,-1.5508,-0.61,-5.798,-15.625,-175.369,-4.433,-19.1
3188,0.082,-0.2046,-1.4766,-1.953,-32.654,-13.184,-175.435,-3.933,-18.776
3198,0.0259,-0.3125,-1.0933,-1.953,-32.654,-13.184,-175.435,-3.516,-18.627
3209,0.02,-0.3521,-0.9238,4.761,-44.617,-9.46,-175.397,-3.076,-18.495
3228,0.0308,-0.3745,-0.7485,6.836,-34.668,-5.249,-175.265,-2.335,-18.309
3248,0.0303,-0.3369,-0.7275,-5.066,-24.963,-3.235,-175.292,-1.785,-18.199
3268,0.0205,-0.2935,-0.7764,-21.545,-12.817,-5.615,-175.644,-1.483,-18.073
3278,0.0249,-0.2759,-0.8218,-28.137,-6.531,-7.629,-175.93,-1.423,-17.996
3288,0.0288,-0.2485,-0.8794,-34.241,-1.221,-10.681,-176.276,-1.417,-17.886
3308,0.0317,-0.1992,-0.999,-39.856,5.554,-17.822,-177.078,-1.511,-17.573
3318,0.0317,-0.1992,-0.999,-32.776,9.521,-21.484,-177.407,-1.615,-17.364
3338,0.0601,-0.1885,-1.166,1.953,17.151,-24.536,-177.589,-1.956,-16.886
3358,0.1064,-0.3062,-1.269,28.076,6.714,-16.541,-177.133,-2.181,-16.518
3377,0.0547,-0.4106,-1.1802,25.635,-3.784,-4.272,-176.583,-2.131,-16.364
3388,0.041,-0.2715,-1.3462,18.799,1.709,0.549,-176.396,-2.148,-16.375
3398,0.1152,-0.1694,-1.499,18.799,1.709,0.549,-176.248,-2.285,-16.397
3407,0.1152,-0.1694,-1.499,18.799,1.709,0.549,-176.089,-2.411,-16.408
3417,0.1152,-0.1694,-1.499,22.095,-6.592,3.479,-175.869,-2.34,-16.441
3438,0.042,-0.6465,-0.2295,24.17,-73.12,26.611,-175.314,-1.176,-16.743
3457,-0.0273,-0.4854,0.2134,-31.982,-47.424,54.687,-175.589,0.159,-17.617
3477,-0.0273,-0.4854,0.2134,-87.036,73.12,39.368,174.628,-0.692,-18.578
3487,0.2061,0.2881,-1.3267,-69.58,91.187,28.748,173.936,-1.626,-18.781
3497,0.2061,0.2881,-1.3267,-69.58,91.187,28.748,173.688,-2.444,-18.885
3508,0.1128,0.2563,-1.8496,12.939,46.814,7.141,173.815,-2.917,-18.902
3517,0.0264,0.0713,-1.7734,12.939,46.814,7.141,174.243,-3.098,-18.864
3527,0.0264,0.0713,-1.7734,58.899,5.066,-6.714,-174.238,-3.142,-18.792
3537,-0.0298,-0.3735,-1.2158,56.335,-9.766,-5.615,-173.677,-3.049,-18.726
3577,-0.0117,-0.4863,-0.7622,11.597,-1.953,10.986,-172.881,-2.681,-19.001
3587,-0.002,-0.4438,-0.8125,-13.367,4.456,18.799,-173.002,-2.697,-19.193
3597,-0.002,-0.4438,-0.8125,-13.367,4.456,18.799,-173.084,-2.763,-19.424
3617,-0.0229,-0.2759,-1.0444,8.057,17.883,26.855,-172.991,-2.983,-19.979
3637,-0.0415,-0.145,-1.25,8.057,17.883,26.855,-172.831,-3.235,-20.528
3647,-0.0415,-0.145,-1.25,8.057,17.883,26.855,-172.776,-3.301,-20.759
3676,-0.105,-0.1807,-1.0767,5.676,-2.991,17.395,-172.414,-2.802,-21.105
3687,-0.0732,-0.2334,-1.0312,5.676,-2.991,17.395,-172.2,-2.593,-21.132
3697,-0.0439,-0.2734,-1.0161,23.499,-16.235,2.502,-171.969,-2.433,-21.132
3706,-0.0439,-0.2734,-1.0161,23.437,-13.55,2.319,-171.733,-2.296,-21.138
3727,-0.0439,-0.2734,-1.0161,23.437,-13.55,2.319,-171.277,-2.0,-21.215
3737,0.0454,-0.3252,-1.1328,20.203,-21.301,11.292,-171.074,-1.774,-21.292
3767,-0.0669,-0.2563,-1.3354,34.363,-89.417,28.198,-170.244,0.258,-21.709
3786,-0.1436,-0.2554,-1.2939,71.899,-88.074,5.432,-168.997,2.131,-21.643
3796,-0.1738,-0.4736,-1.022,71.899,-88.074,5.432,-168.118,2.807,-21.374
3807,-0.1436,-0.5708,-0.8921,94.604,-53.772,-27.039,-167.151,3.279,-21.0
3836,-0.0737,-0.6221,-0.5371,73.853,-21.118,-36.194,-164.526,3.906,-19.753
3846,-0.0933,-0.5586,-0.4189,59.753,-10.925,-36.011,-163.905,3.917,-19.374
3856,-0.0933,-0.5586,-0.4189,59.753,-10.925,-36.011,-163.444,3.757,-19.05
3876,-0.1011,-0.3799,-0.2676,2.991,50.11,-40.649,-163.136,2.802,-18.528
3896,-0.04,-0.1582,-0.2944,-14.404,75.195,-46.631,-163.51,0.901,-18.078
3916,0.0737,-0.0068,-0.5591,-31.799,79.529,-42.847,-164.136,-1.005,-17.677
3926,0.0737,-0.0068,-0.5591,-31.799,79.529,-42.847,177.264,-1.901,-17.501
3936,0.0737,-0.0068,-0.5591,-19.043,92.407,-43.579,177.061,-2.802,-17.018
3986,0.2158,-0.4692,-1.8496,13.428,59.753,-32.776,-177.77,-6.432,-15.15
3996,0.1689,-0.6123,-1.6748,27.466,1.587,-1.831,-177.501,-6.449,-15.128
4005,0.1689,-0.6123,-1.6748,27.466,1.587,-1.831,-177.292,-6.251,-15.298
4015,0.1689,-0.6123,-1.6748,3.479,-31.372,36.56,-177.215,-5.922,-15.65
4026,0.0239,-0.687,-0.832,-13.428,-36.499,53.101,-177.297,-5.532,-16.166
4045,-0.0469,-0.4692,-0.4199,-40.344,-33.997,73.486,-177.852,-4.768,-17.534
4055,-0.1172,-0.3164,-0.3052,-47.546,-29.785,73.608,-178.27,-4.444,-18.259
4066,-0.1172,-0.3164,-0.3052,-46.509,-19.836,64.636,-178.687,-4.224,-18.902
4085,-0.1772,-0.1621,-0.2935,-26.672,8.667,30.823,-179.275,-4.224,-19.709
4095,-0.0347,-0.1533,-0.9072,-17.639,22.827,13.794,-179.44,-4.455,-19.847
4115,-0.0347,-0.1533,-0.9072,-14.893,27.161,1.282,-179.725,-4.938,-19.786
4135,0.0688,-0.3491,-1.8472,-14.893,27.161,1.282,-179.857,-4.911,-19.468
4145,0.0698,-0.4893,-1.7217,5.249,-22.583,-17.151,-179.819,-4.686,-19.297
4155,0.0698,-0.4893,-1.7217,8.301,-35.095,-12.573,-179.747,-4.334,-19.171
4175,0.1084,-0.7876,-1.1274,3.418,-43.823,6.165,-179.632,-3.477,-19.177
4195,0.1113,-0.7583,-0.9761,-19.531,-45.349,29.602,-179.868,-2.571,-19.655
4205,0.0464,-0.54,-0.7656,-19.531,-45.349,29.602,179.824,-2.131,-20.012
4235,-0.0459,-0.2622,-0.6138,-26.062,-18.188,20.386,178.802,-1.258,-20.852
4245,-0.0459,-0.2622,-0.6138,-26.062,-18.188,20.386,178.742,-1.219,-20.973
4275,-0.0186,-0.3818,-0.748,39.673,37.659,-5.432,179.626,-1.961,-20.923
4285,0.0088,-0.3667,-0.9507,37.292,44.556,-7.507,179.995,-2.406,-20.847
4294,0.0576,-0.3091,-1.1553,28.809,44.617,-7.751,-179.72,-2.856,-20.77
4304,0.042,-0.2539,-1.2744,28.809,44.617,-7.751,-179.539,-3.192,-20.715
4314,0.0005,-0.1787,-1.3291,8.545,19.409,-3.906,-179.456,-3.389,-20.676
4325,0.0005,-0.1787,-1.3291,8.545,19.409,-3.906,-179.418,-3.477,-20.627
4334,0.0005,-0.1787,-1.3291,8.545,19.409,-3.906,-179.39,-3.466,-20.566
4344,-0.063,-0.2173,-1.0293,5.249,-7.69,-6.653,-179.341,-3.389,-20.5
4354,-0.063,-0.2173,-1.0293,8.118,-11.108,-7.507,-179.264,-3.279,-20.424
4374,-0.0767,-0.3096,-0.7026,8.728,-10.132,-10.437,-179.127,-3.137,-20.165
4384,-0.105,-0.3496,-0.4663,1.282,6.775,-23.56,-179.127,-3.208,-19.929
4405,-0.0947,-0.3735,-0.4155,-19.348,36.804,-40.466,-179.44,-3.801,-19.204
4414,0.0391,-0.3706,-0.6675,-19.348,36.804,-40.466,-179.72,-4.307,-18.765
4433,0.1211,-0.3716,-0.9443,-24.414,56.702,-43.64,179.786,-5.438,-17.935
4454,0.1211,-0.3716,-0.9443,-24.414,56.702,-43.64,179.648,-6.284,-17.32
4464,0.1211,-0.3716,-0.9443,12.085,11.353,-15.869,179.753,-6.394,-17.155
4474,0.1758,-0.5073,-1.5254,22.156,-10.193,-2.991,179.967,-6.295,-17.128
4483,0.1758,-0.5073,-1.5254,22.156,-10.193,-2.991,-179.736,-6.015,-17.216
4494,0.043,-0.5601,-1.0244,32.532,-36.133,17.578,-179.396,-5.652,-17.391
4523,-0.02,-0.479,-0.6294,25.146,-31.128,26.428,-178.605,-4.735,-18.138
4534,-0.0791,-0.29,-0.415,8.362,-15.198,25.208,-178.5,-4.576,-18.391
4544,-0.1113,-0.2158,-0.3604,8.362,-15.198,25.208,-178.484,-4.526,-18.594
4563,-0.1069,-0.1558,-0.3853,-16.174,25.818,-1.282,-178.72,-4.878,-18.699
4574,0.0215,-0.1338,-0.8003,-20.874,42.053,-14.038,-178.94,-5.301,-18.567
4593,0.1084,-0.1519,-1.1191,-24.536,49.866,-23.499,-179.478,-6.279,-18.073
4603,0.1084,-0.1519,-1.1191,-24.536,49.866,-23.499,-179.72,-6.625,-17.82
4613,0.1084,-0.1519,-1.1191,-15.137,15.442,-19.836,-179.89,-6.779,-17.617
4624,0.144,-0.4048,-1.5068,-7.874,-0.671,-12.451,-179.984,-6.773,-17.49
4633,0.144,-0.4048,-1.5068,-3.662,-13.0,-5.798,179.973,-6.647,-17.435
4643,0.0913,-0.5288,-1.1958,-3.662,-13.0,-5.798,179.945,-6.422,-17.446
4673,0.0112,-0.5146,-0.6904,-3.418,-27.771,13.733,179.868,-5.62,-17.847
4693,-0.0522,-0.4033,-0.4902,-11.963,-14.038,19.714,179.703,-5.268,-18.243
4723,0.0078,-0.2495,-0.7119,-17.029,20.996,3.357,179.247,-5.51,-18.545
4763,0.1855,-0.3086,-1.6035,-9.521,21.057,-11.23,178.698,-6.746,-18.16
4782,0.1431,-0.3379,-1.5942,5.615,-7.141,-3.845,178.704,-6.724,-18.04
4803,0.0444,-0.498,-1.1255,10.986,-18.799,1.892,178.934,-6.284,-18.144
4833,-0.0112,-0.3872,-0.8643,-28.625,-26.917,16.907,178.621,-5.477,-18.6
4843,-0.0112,-0.3872,-0.8643,-39.246,-25.757,16.174,178.248,-5.219,-18.765
4852,-0.0112,-0.3872,-0.8643,-36.072,-24.17,12.39,177.896,-4.982,-18.896
4862,-0.0112,-0.3872,-0.8643,-19.409,-21.057,7.263,177.709,-4.774,-18.979
4873,-0.0112,-0.3872,-0.8643,-19.409,-21.057,7.263,177.72,-4.631,-19.001
4892,-0.0269,-0.3491,-0.6509,10.193,5.981,-7.568,177.957,-4.636,-18.891
4902,0.0684,-0.4058,-0.9082,-5.371,12.39,-8.423,177.896,-4.757,-18.803
4923,0.0928,-0.2651,-1.2529,-31.616,5.859,-1.953,177.352,-4.933,-18.721
4942,0.0752,-0.2251,-1.4419,-30.762,-6.042,-0.366,176.715,-4.878,-18.715
4982,-0.0371,-0.3652,-1.1865,-34.668,-47.119,11.23,175.529,-3.625,-19.056
4992,-0.0347,-0.3735,-1.1133,-42.847,-51.453,10.742,175.111,-3.12,-19.204
5012,-0.1187,-0.2695,-0.8423,-42.847,-51.453,10.742,173.958,-1.972,-19.385
5022,-0.166,-0.2505,-0.6548,-41.87,-53.894,-3.784,173.54,-1.428,-19.402
5032,-0.1479,-0.3184,-0.5054,-4.639,-39.551,-9.827,173.491,-1.027,-19.347
5041,-0.1479,-0.3184,-0.5054,25.391,-24.353,-13.977,173.743,-0.769,-19.237
5062,-0.0439,-0.5264,-0.4453,37.048,-6.226,-14.526,174.424,-0.791,-18.957
5092,0.082,-0.2563,-0.9404,-1.526,29.846,-4.089,174.628,-1.577,-18.704
5111,0.1055,0.0186,-1.478,-3.54,26.428,-7.69,179.297,-2.038,-18.484
5121,0.0693,0.043,-1.5352,12.329,9.827,-15.381,179.418,-2.131,-18.325
5161,-0.0063,-0.3936,-0.7778,40.955,-15.686,-15.991,-176.232,-1.73,-17.661
5172,-0.0063,-0.3936,-0.7778,33.691,-1.648,-12.573,-175.902,-1.725,-17.529
5191,0.0356,-0.3647,-0.9165,11.169,13.672,-9.338,-175.583,-1.945,-17.342
5201,0.0381,-0.229,-1.1235,8.911,16.113,-6.165,-175.496,-2.109,-17.292
5211,0.0493,-0.2085,-1.1499,14.282,17.7,-2.93,-175.353,-2.291,-17.276
5231,0.0215,-0.2983,-0.9678,14.282,17.7,-2.93,-174.798,-2.499,-17.331
5241,0.0098,-0.3843,-0.7939,35.278,1.892,5.798,-174.441,-2.516,-17.391
5251,0.0098,-0.3843,-0.7939,35.034,-0.366,7.69,-174.089,-2.505,-17.468
5271,-0.0327,-0.5063,-0.481,17.334,5.737,9.094,-173.622,-2.554,-17.644
5291,-0.0039,-0.3613,-0.7046,-7.568,22.949,12.939,-173.644,-2.878,-17.93
5311,0.0513,-0.2119,-1.0752,-22.888,28.198,11.658,-174.023,-3.433,-18.237
5321,0.0513,-0.2119,-1.0752,-25.94,22.278,9.277,-174.276,-3.647,-18.353
5330,0.0483,-0.1523,-1.2798,-25.94,22.278,9.277,-174.551,-3.785,-18.413
5351,0.0122,-0.2544,-1.2036,-29.907,-5.371,-3.784,-175.15,-3.779,-18.369
5361,-0.001,-0.3218,-1.1118,-29.907,-5.371,-3.784,-175.446,-3.647,-18.309
5380,-0.0054,-0.3916,-0.9609,-17.395,-14.648,-2.502,-175.88,-3.334,-18.21
5391,-0.0117,-0.4258,-0.8784,-7.446,-11.108,0.549,-175.952,-3.219,-18.21
5401,-0.0347,-0.4253,-0.8115,-0.183,-9.766,4.517,-175.952,-3.12,-18.248
5410,-0.0347,-0.4253,-0.8115,-0.183,-9.766,4.517,-175.908,-3.049,-18.314
5421,-0.0347,-0.4253,-0.8115,2.563,0.916,7.324,-175.88,-3.054,-18.391
5431,-0.0288,-0.3643,-0.7559,2.563,0.916,7.324,-175.93,-3.148,-18.446
5460,0.083,-0.1846,-1.1187,-20.386,32.593,-5.31,-176.468,-3.955,-18.446
5471,0.083,-0.1846,-1.1187,-16.174,33.142,-8.484,-176.638,-4.29,-18.38
5490,0.144,-0.1621,-1.3574,-16.174,33.142,-8.484,-176.77,-4.807,-18.177
5510,0.0996,-0.29,-1.3174,7.507,-3.113,-6.592,-176.693,-4.856,-18.023
5530,0.0303,-0.4087,-1.0791,10.864,-19.592,-3.601,-176.484,-4.543,-17.919
5540,0.0303,-0.4087,-1.0791,10.01,-21.118,-0.732,-176.386,-4.334,-17.897
5550,-0.0146,-0.4761,-0.813,8.85,-20.142,2.747,-176.292,-4.131,-17.913
5560,-0.0146,-0.4761,-0.813,8.85,-20.142,2.747,-176.237,-3.95,-17.952
5580,-0.0776,-0.4102,-0.5698,3.967,-10.62,7.08,-176.171,-3.801,-18.1
5600,-0.0479,-0.3164,-0.7227,-4.761,11.902,5.798,-176.232,-3.933,-18.248
5620,0.1147,-0.2187,-1.2651,-4.822,24.048,1.404,-176.259,-4.46,-18.281
5639,0.1987,-0.2148,-1.6265,-4.822,24.048,1.404,-176.171,-4.977,-18.232
5669,0.0918,-0.251,-1.4858,25.33,-15.259,0.122,-175.419,-4.598,-18.204
5679,-0.0083,-0.3447,-1.0288,25.33,-15.259,0.122,-175.034,-4.29,-18.204
5709,-0.0879,-0.3667,-0.6426,34.851,-33.813,2.747,-174.238,-3.378,-18.226
5730,-0.1245,-0.3418,-0.3984,3.845,-17.517,1.892,-174.282,-3.126,-18.193
5749,-0.0171,-0.2905,-0.6875,-20.142,19.104,-12.085,-174.65,-3.373,-18.023
5789,0.1636,-0.2261,-1.2778,-15.686,33.02,-15.32,-175.358,-4.642,-17.534
5799,0.1504,-0.271,-1.5239,-15.686,33.02,-15.32,-175.413,-4.658,-17.419
5829,0.0962,-0.3276,-1.3667,8.728,-21.606,-5.249,-175.204,-4.07,-17.216
5859,-0.0405,-0.3965,-0.6328,2.258,-14.038,8.057,-175.012,-3.477,-17.32
5869,-0.0405,-0.3965,-0.6328,-1.282,-5.432,7.507,-175.018,-3.417,-17.391
5899,-0.0308,-0.2285,-0.7939,-7.385,27.771,-3.662,-175.182,-3.933,-17.446
5909,-0.0308,-0.2285,-0.7939,-8.118,28.259,-6.531,-175.265,-4.224,-17.408
5928,-0.0308,-0.2285,-0.7939,-2.136,10.803,-14.16,-175.375,-4.559,-17.194
5939,0.0952,-0.2847,-1.3247,3.174,-0.732,-17.212,-175.358,-4.565,-17.018
5968,0.0596,-0.4458,-1.1021,5.249,-18.372,-11.169,-175.221,-4.136,-16.545
5989,0.0117,-0.4653,-0.7988,-0.183,-19.104,-5.92,-175.265,-3.779,-16.447
6018,-0.0034,-0.2778,-0.8105,-1.404,-1.953,4.761,-175.358,-3.516,-16.556
6028,-0.0034,-0.2778,-0.8105,0.366,4.028,1.526,-175.358,-3.554,-16.573
6048,-0.0034,-0.2778,-0.8105,4.028,15.32,-8.362,-175.303,-3.818,-16.479
6058,0.0957,-0.2451,-1.3003,4.028,15.32,-8.362,-175.292,-3.955,-16.37
6078,0.0967,-0.2778,-1.3394,4.395,-3.418,-11.169,-175.237,-3.988,-16.139
6088,0.0986,-0.3438,-1.3066,4.395,-3.418,-11.169,-175.182,-3.906,-16.029
6098,0.0981,-0.3726,-1.2759,4.395,-3.418,-11.169,-175.095,-3.785,-15.947
6118,0.084,-0.3823,-1.2661,23.987,-10.376,1.343,-174.699,-3.554,-15.914
6128,0.1045,-0.3828,-1.2334,32.837,-7.385,4.639,-174.364,-3.477,-15.958
6138,0.1045,-0.3828,-1.2334,37.292,-11.353,7.813,-173.99,-3.356,-16.024
6158,-0.0356,-0.3887,-0.7334,37.292,-28.32,14.893,-173.221,-2.834,-16.232
6168,-0.0742,-0.3965,-0.5381,37.292,-28.32,14.893,-172.87,-2.532,-16.359
6198,-0.1738,-0.4087,-0.1367,4.7,-8.85,4.761,-172.381,-1.989,-16.578
6208,-0.1689,-0.4136,-0.1543,-7.019,4.456,-0.671,-172.452,-2.032,-16.578
6227,-0.0894,-0.3765,-0.3662,-16.907,24.048,-4.517,-172.908,-2.719,-16.534
6238,0.1533,-0.1841,-1.2104,-16.907,24.048,-4.517,-173.298,-3.296,-16.469
6248,0.2236,-0.0986,-1.5635,-44.128,52.368,-16.724,-173.743,-3.834,-16.364
6267,0.1685,-0.0938,-1.7788,-27.1,11.902,-15.564,-174.446,-4.329,-16.084
6277,0.1138,-0.1948,-1.6572,-8.118,-6.958,-12.878,-174.54,-4.268,-15.952
6288,0.0752,-0.3252,-1.4175,8.85,-20.447,-9.277,-174.457,-4.076,-15.837
6307,-0.0171,-0.4941,-0.876,8.85,-20.447,-9.277,-174.056,-3.378,-15.732
6328,-0.0596,-0.5371,-0.5093,17.517,-29.663,9.094,-173.639,-2.719,-15.809
6337,-0.0596,-0.5371,-0.5093,8.301,-22.4,11.536,-173.557,-2.488,-15.897
6347,-0.0596,-0.5371,-0.5093,-1.526,-12.39,11.78,-173.568,-2.351,-16.002
6357,-0.0718,-0.3716,-0.5,-1.526,-12.39,11.78,-173.683,-2.351,-16.084
6387,0.1055,-0.1982,-1.1533,-20.203,33.997,-7.751,-174.298,-3.142,-16.078
6397,0.1045,-0.1929,-1.2656,-12.634,30.884,-9.644,-174.43,-3.455,-16.013
6406,0.1045,-0.1929,-1.2656,-12.634,30.884,-9.644,-174.479,-3.686,-15.93
6418,0.1045,-0.1929,-1.2656,5.249,15.686,-11.169,-174.43,-3.851,-15.837
6427,0.1045,-0.1929,-1.2656,5.249,15.686,-11.169,-174.326,-4.005,-15.727
6457,0.0327,-0.3755,-1.1743,4.395,-0.366,-11.78,-174.084,-4.246,-15.386
6477,-0.0132,-0.4917,-0.8696,1.465,-16.296,-7.141,-174.051,-4.021,-15.189
6486,-0.0132,-0.4917,-0.8696,-1.953,-20.02,-4.578,-174.073,-3.829,-15.123
6507,-0.0508,-0.481,-0.604,-6.592,-20.508,-1.404,-174.282,-3.455,-15.084
6537,0.1216,-0.2896,-1.1636,-7.629,26.306,0.488,-174.611,-3.895,-15.178
6547,0.1538,-0.2441,-1.3501,-1.282,28.076,-0.61,-174.622,-4.175,-15.2
6556,0.1538,-0.2441,-1.3501,-1.282,28.076,-0.61,-174.6,-4.367,-15.205
6566,0.1445,-0.1802,-1.5459,4.822,7.507,-2.197,-174.551,-4.444,-15.194
6576,0.1191,-0.2212,-1.5142,4.578,-6.165,-4.333,-174.512,-4.389,-15.145
6596,0.0562,-0.2769,-1.3345,-5.737,-24.353,-7.996,-174.781,-3.757,-14.881
6606,0.0562,-0.2769,-1.3345,-26.306,-48.462,-14.771,-175.056,-3.29,-14.694
6616,-0.1074,-0.4224,-0.709,-26.306,-48.462,-14.771,-175.298,-2.873,-14.485
6636,-0.0942,-0.4863,-0.5967,-6.409,-25.452,-13.794,-175.523,-2.307,-14.139
6646,-0.085,-0.5029,-0.5767,-6.409,-25.452,-13.794,-175.54,-2.164,-14.035
6656,-0.042,-0.395,-0.6919,-6.409,-25.452,-13.794,-175.54,-2.153,-13.997
6666,0.0244,-0.2881,-0.8706,-6.409,-25.452,-13.794,-175.518,-2.274,-13.986
6676,0.0894,-0.1763,-1.1006,-6.409,-25.452,-13.794,-175.446,-2.455,-13.991
6696,0.1064,-0.1401,-1.2061,18.921,3.113,1.343,-175.133,-2.631,-14.024
6705,0.0508,-0.2017,-1.1089,18.921,3.113,1.343,-174.908,-2.516,-14.019
6745,0.0508,-0.2988,-0.9932,3.845,-9.766,-3.052,-174.282,-1.994,-13.887
6766,0.042,-0.2944,-0.978,-2.502,-9.399,-2.869,-174.32,-1.829,-13.804
6785,0.0024,-0.3223,-0.8887,-0.488,-16.418,0.305,-174.342,-1.527,-13.766
6796,-0.0645,-0.4463,-0.6113,-2.747,-18.555,1.709,-174.37,-1.34,-13.766
6806,-0.0972,-0.4551,-0.5508,-10.437,-17.822,2.563,-174.474,-1.159,-13.777
6836,0.0386,-0.2993,-0.9922,-30.64,19.409,0.427,-175.237,-1.373,-13.815
6855,0.1187,-0.2339,-1.2588,-19.714,24.658,1.892,-175.693,-1.901,-13.892
6875,0.1113,-0.1738,-1.4785,-4.639,-1.404,-1.343,-175.88,-1.989,-13.892
6885,0.0479,-0.291,-1.2915,-4.639,-1.404,-1.343,-175.825,-1.884,-13.87
6895,0.0479,-0.291,-1.2915,10.681,-20.325,0.183,-175.721,-1.686,-13.854
6945,-0.0488,-0.4194,-0.7373,-0.793,1.77,3.235,-175.32,-1.148,-13.958
6975,0.0176,-0.2661,-0.9868,-10.864,15.564,-0.671,-175.633,-1.478,-14.008
6985,0.0244,-0.248,-1.0591,-10.864,15.564,-0.671,-175.71,-1.62,-13.997
7004,0.0518,-0.2856,-1.1865,-10.864,15.564,-0.671,-175.677,-1.879,-13.92
7015,0.0581,-0.3169,-1.2183,6.958,9.583,-6.226,-175.605,-1.978,-13.865
7025,0.0581,-0.3169,-1.2183,5.31,5.31,-5.066,-175.556,-2.038,-13.821
7044,0.0703,-0.354,-1.1533,2.869,-5.92,-1.709,-175.479,-2.01,-13.76
7065,-0.019,-0.3706,-0.8838,2.319,-15.686,1.099,-175.226,-1.626,-13.788
7084,-0.0605,-0.3857,-0.7246,9.094,-17.822,8.85,-174.556,-1.082,-13.914
7105,-0.1123,-0.3853,-0.5752,3.54,5.432,5.981,-173.908,-0.862,-14.057
7124,0.0137,-0.2715,-0.9072,-12.451,26.001,-1.404,-173.809,-1.236,-14.106
7154,0.105,-0.1724,-1.3496,-6.836,17.212,-4.089,-174.073,-1.983,-14.084
7174,0.105,-0.1724,-1.3496,6.653,-2.502,-5.31,-173.947,-2.049,-13.986
7194,0.042,-0.3057,-1.1885,9.521,-13.0,-4.944,-173.529,-1.846,-13.865
7214,-0.021,-0.3896,-0.9043,-0.671,-15.32,-0.671,-173.123,-1.472,-13.788
7224,-0.0503,-0.3882,-0.7075,-0.671,-15.32,-0.671,-172.969,-1.291,-13.788
7244,-0.0654,-0.377,-0.6611,-14.832,-2.319,2.38,-172.809,-1.06,-13.826
7254,-0.0176,-0.3159,-0.8096,-16.479,6.348,2.136,-172.826,-1.099,-13.854
7284,0.0811,-0.1978,-1.2739,-13.306,13.794,-0.305,-173.161,-1.56,-13.925
7303,0.0591,-0.2207,-1.3066,-2.38,-1.953,-1.648,-173.221,-1.648,-13.903
7314,0.0376,-0.2681,-1.2466,2.258,-9.766,-1.465,-173.145,-1.555,-13.881
7324,0.0215,-0.3169,-1.1616,2.258,-9.766,-1.465,-173.018,-1.401,-13.854
7354,-0.0317,-0.3813,-0.916,-5.554,-20.447,3.235,-172.645,-0.747,-13.832
7364,-0.0317,-0.3813,-0.916,-10.376,-18.372,3.235,-172.584,-0.527,-13.843
7383,-0.0752,-0.3408,-0.7744,-10.376,-18.372,3.235,-172.584,-0.159,-13.837
7404,-0.0498,-0.3228,-0.8013,-22.034,-2.563,-0.671,-172.705,0.016,-13.821
7414,-0.0498,-0.3228,-0.8013,-23.254,0.427,-1.16,-172.804,0.022,-13.81
7433,-0.0034,-0.2959,-0.9604,-26.55,1.831,-1.221,-173.216,-0.038,-13.782
7453,0.0947,-0.1377,-1.3472,-25.208,8.972,-6.714,-173.765,-0.275,-13.683
7483,0.0566,-0.1479,-1.3228,19.47,-12.634,-8.057,-173.666,-0.181,-13.442
7493,0.0215,-0.313,-1.0693,28.015,-18.555,-7.507,-173.293,-0.016,-13.343
7543,-0.0938,-0.3589,-0.5913,-8.118,-6.042,-0.427,-171.953,1.049,-13.03
7563,-0.0713,-0.3379,-0.6504,-10.071,2.808,1.221,-171.837,0.983,-13.112
7573,-0.0029,-0.2388,-0.9512,-15.32,15.076,9.705,-171.931,0.84,-13.228
7583,-0.0029,-0.2388,-0.9512,-17.7,18.921,11.719,-172.112,0.648,-13.37
7613,-0.0029,-0.2388,-0.9512,-5.676,9.216,-4.089,-172.59,0.121,-13.524
7623,0.0386,-0.1216,-1.4097,2.625,-0.488,-8.728,-172.59,0.093,-13.436
7642,-0.0229,-0.2827,-1.124,12.756,-19.348,-10.864,-172.304,0.374,-13.184
7653,-0.0601,-0.3608,-0.9546,16.113,-23.987,-10.071,-172.013,0.621,-13.052
7672,-0.082,-0.4277,-0.8052,13.489,-17.761,-5.798,-171.271,1.11,-12.859
7682,-0.082,-0.4277,-0.8052,4.639,-10.925,-3.906,-170.958,1.258,-12.805
7693,-0.0869,-0.4229,-0.645,-4.761,-4.089,-3.54,-170.761,1.346,-12.761
7712,-0.0493,-0.3135,-0.8262,-13.672,11.841,-4.395,-170.706,1.258,-12.7
7722,0.0015,-0.2646,-0.9937,-13.428,20.508,-5.249,-170.782,1.038,-12.684
7782,0.0229,-0.2139,-1.3042,1.587,4.822,-4.639,-170.81,0.275,-12.497
7802,-0.0264,-0.2964,-1.0015,13.367,-13.611,-2.38,-170.403,0.511,-12.398
7822,-0.0479,-0.3154,-0.8867,12.085,-12.085,-0.977,-169.931,0.824,-12.332
7832,-0.0688,-0.3496,-0.7251,11.719,-7.874,-0.427,-169.662,0.939,-12.31
7842,-0.0688,-0.3496,-0.7251,9.033,-3.418,1.099,-169.398,1.016,-12.316
7851,-0.0649,-0.3638,-0.6865,9.033,-3.418,1.099,-169.189,1.044,-12.343
7862,-0.0464,-0.3394,-0.7603,-2.686,8.728,2.747,-169.085,0.983,-12.387
7872,0.0034,-0.3027,-0.8906,-7.141,16.541,2.808,-169.08,0.818,-12.442
7891,0.0347,-0.2407,-1.0527,-9.338,20.508,2.563,-169.283,0.379,-12.568
7931,0.0479,-0.1421,-1.4019,19.775,-2.808,-1.282,-169.283,0.016,-12.59
7941,0.021,-0.1997,-1.3125,19.775,-2.808,-1.282,-169.041,0.115,-12.568
7952,-0.0044,-0.2554,-1.1763,28.687,-19.531,1.404,-168.745,0.313,-12.546
7971,-0.0381,-0.2964,-1.0103,24.902,-25.879,2.441,-168.069,0.862,-12.491
7981,-0.085,-0.3721,-0.6953,21.912,-23.376,2.625,-167.69,1.148,-12.469
8021,-0.1021,-0.4272,-0.4761,-7.996,2.38,-0.427,-166.415,1.791,-12.469
8032,-0.0728,-0.4023,-0.5674,-14.709,11.475,-1.587,-166.344,1.719,-12.48
8041,-0.0728,-0.4023,-0.5674,-18.616,22.339,-2.258,-166.399,1.489,-12.513
8061,-0.0728,-0.4023,-0.5674,-28.931,31.189,-2.93,-166.91,0.813,-12.596
8091,0.0684,-0.1162,-1.5483,-6.042,9.155,1.038,-167.58,0.187,-12.728
8110,0.0566,-0.1577,-1.4922,-6.042,9.155,1.038,-167.289,0.258,-12.722
8121,0.0566,-0.1577,-1.4922,24.963,-17.09,2.747,-167.042,0.428,-12.711
8131,-0.0425,-0.3276,-0.999,24.963,-17.09,2.747,-166.772,0.654,-12.7
8150,-0.0708,-0.3623,-0.8511,24.963,-17.09,2.747,-166.355,1.088,-12.662
8161,-0.0869,-0.3911,-0.6738,12.024,-15.259,2.991,-166.234,1.241,-12.656
8171,-0.0869,-0.3911,-0.6738,6.47,-9.521,2.991,-166.174,1.34,-12.662
8180,-0.0869,-0.3911,-0.6738,6.47,-9.521,2.991,-166.157,1.368,-12.678
8220,-0.0078,-0.271,-1.0127,-2.808,16.296,-4.028,-166.311,0.923,-12.733
8240,0.0498,-0.2495,-1.3018,-2.258,10.742,-6.714,-166.36,0.648,-12.667
8260,0.0293,-0.2471,-1.3135,-2.258,10.742,-6.714,-166.349,0.604,-12.546
8270,0.0293,-0.2471,-1.3135,6.958,-6.958,-6.531,-166.278,0.659,-12.464
8280,-0.0156,-0.3047,-1.1167,10.315,-14.221,-5.432,-166.174,0.78,-12.376
8320,-0.0737,-0.4033,-0.6821,8.911,-16.846,0.366,-165.74,1.461,-12.129
8350,-0.0688,-0.4502,-0.582,1.404,1.404,5.249,-165.58,1.664,-12.189
8369,-0.0322,-0.4019,-0.7158,-4.089,13.245,5.432,-165.729,1.324,-12.376
8380,-0.0322,-0.4019,-0.7158,-13.977,30.945,2.625,-165.872,1.033,-12.475
8390,0.0933,-0.1431,-1.3794,-14.343,25.94,1.892,-166.014,0.786,-12.557
8399,0.0933,-0.1431,-1.3794,-14.343,25.94,1.892,-166.113,0.626,-12.607
8410,0.064,-0.0977,-1.499,-0.732,6.409,-0.732,-166.124,0.56,-12.618
8420,0.0347,-0.1416,-1.4263,-0.732,6.409,-0.732,-166.042,0.61,-12.579
8460,-0.0825,-0.416,-0.7339,20.02,-27.588,-2.441,-165.295,1.456,-12.25
8479,-0.0869,-0.4551,-0.6221,4.578,-12.634,0.061,-165.125,1.763,-12.156
8500,-0.0908,-0.4595,-0.5215,-7.629,4.15,1.465,-165.223,1.78,-12.178
8519,0.0181,-0.3589,-0.9243,-14.099,27.771,2.502,-165.482,1.368,-12.332
8549,0.1006,-0.1919,-1.4316,-16.724,19.958,0.122,-166.047,0.566,-12.568
8569,0.0063,-0.1636,-1.4253,-16.724,19.958,0.122,-165.976,0.549,-12.552
8629,-0.0898,-0.4434,-0.6631,2.991,-9.155,0.061,-164.268,1.741,-12.294
8649,-0.0703,-0.3906,-0.6973,-4.089,2.197,-0.122,-164.026,1.813,-12.288
8679,0.0342,-0.3145,-1.1118,-6.042,18.433,0.61,-164.037,1.395,-12.409
8719,0.0234,-0.2368,-1.3081,8.423,-2.441,1.404,-164.273,0.906,-12.546
8759,-0.0942,-0.3706,-0.752,12.756,-19.897,3.54,-163.581,1.692,-12.48
8799,-0.0879,-0.3965,-0.5908,-8.911,3.723,-1.709,-162.911,2.153,-12.426
8828,0.0386,-0.2837,-1.0937,-23.193,23.926,-1.343,-163.334,1.566,-12.53
8848,0.0811,-0.2275,-1.3008,-17.456,20.447,-0.305,-163.894,1.022,-12.651
8858,0.0684,-0.1792,-1.4805,-17.456,20.447,-0.305,-164.07,0.895,-12.684
8868,0.0371,-0.2109,-1.4375,2.808,-0.732,0.854,-164.114,0.879,-12.689
8888,-0.0283,-0.3018,-1.1685,2.808,-0.732,0.854,-163.894,1.121,-12.651
8938,-0.0864,-0.4023,-0.6675,10.803,-9.827,4.761,-162.642,2.164,-12.59
8948,-0.0864,-0.3931,-0.665,8.118,-5.432,4.944,-162.433,2.274,-12.618
8957,-0.0864,-0.3931,-0.665,8.118,-5.432,4.944,-162.257,2.318,-12.662
8967,-0.0864,-0.3931,-0.665,8.972,9.338,1.282,-162.114,2.247,-12.7
8978,-0.0093,-0.3003,-0.9561,12.39,18.738,-0.61,-161.999,2.054,-12.755
9007,0.0918,-0.2583,-1.3721,28.687,15.137,6.042,-161.576,1.335,-13.008
9027,0.0801,-0.2769,-1.4033,48.34,-7.324,12.085,-160.845,1.357,-13.2
9037,0.0801,-0.2769,-1.4033,48.34,-7.324,12.085,-160.356,1.549,-13.271
9047,-0.0361,-0.3999,-1.1011,53.345,-23.01,12.817,-159.824,1.807,-13.315
9058,-0.0635,-0.4375,-0.9497,50.72,-23.926,12.146,-159.28,2.087,-13.348
9087,-0.0928,-0.4639,-0.6499,36.255,-20.569,11.475,-157.879,2.851,-13.447
9107,-0.0923,-0.4512,-0.6035,0.183,-3.967,5.615,-157.445,3.115,-13.53
9127,-0.064,-0.3867,-0.645,-20.508,11.292,-3.296,-157.555,3.027,-13.568
9147,-0.02,-0.3745,-0.7612,-26.855,18.738,-6.226,-158.077,2.532,-13.59
9167,0.0518,-0.354,-1.1567,-26.611,21.423,-10.986,-158.708,1.956,-13.557
9197,0.0518,-0.3745,-1.2974,-15.625,12.512,-9.521,-159.324,1.395,-13.431
9237,-0.0601,-0.3945,-0.9624,-5.615,-1.038,-3.967,-159.362,1.686,-13.354
9256,-0.0762,-0.4028,-0.8623,9.338,-8.911,6.287,-159.077,1.983,-13.398
9277,-0.0854,-0.3804,-0.7168,0.0,-1.77,4.15,-158.884,2.17,-13.464
9296,-0.0889,-0.3706,-0.71,-12.268,3.601,0.305,-158.961,2.219,-13.502
9306,-0.0864,-0.356,-0.7632,-14.893,7.568,-2.075,-159.071,2.181,-13.513
9317,-0.0684,-0.356,-0.8403,-17.029,11.169,-4.15,-159.219,2.082,-13.513
9346,-0.0156,-0.314,-1.1333,-20.935,9.827,-5.432,-159.901,1.67,-13.48
9366,-0.0122,-0.3037,-1.2217,-20.935,9.827,-5.432,-160.291,1.566,-13.436
9386,-0.0234,-0.3398,-1.2041,2.136,-10.681,-0.732,-160.395,1.697,-13.354
9407,-0.0337,-0.3721,-1.1357,7.568,-19.287,3.418,-160.296,2.021,-13.277
9416,-0.0337,-0.3721,-1.1357,9.46,-21.179,5.737,-160.208,2.236,-13.26
9426,-0.0337,-0.3965,-1.0347,11.169,-21.79,7.751,-160.082,2.461,-13.26
9456,-0.0405,-0.4458,-0.7749,10.559,-23.01,11.963,-159.609,3.197,-13.365
9466,-0.0493,-0.4336,-0.6934,-2.563,-20.447,15.076,-159.521,3.439,-13.431
9475,-0.0493,-0.4336,-0.6934,-2.563,-20.447,15.076,-159.532,3.675,-13.508
9486,-0.0913,-0.3687,-0.5806,-2.563,-20.447,15.076,-159.626,3.873,-13.579
9496,-0.0972,-0.3486,-0.562,-2.563,-20.447,15.076,-159.78,4.016,-13.64
9515,-0.0469,-0.3013,-0.769,-31.494,8.118,0.977,-160.307,3.999,-13.716
9536,0.0093,-0.2739,-0.9888,-26.611,23.01,-5.554,-160.994,3.483,-13.777
9566,0.103,-0.3301,-1.5244,0.549,10.681,-9.277,-161.345,2.785,-13.7
9585,0.0679,-0.3784,-1.4404,0.549,10.681,-9.277,-161.038,2.78,-13.557
9605,-0.0356,-0.5024,-0.9409,23.621,-11.841,2.319,-160.56,2.983,-13.491
9615,-0.0762,-0.5005,-0.7827,23.621,-11.841,2.319,-160.356,3.109,-13.519
9635,-0.0762,-0.5005,-0.7827,8.484,-2.625,13.062,-160.137,3.301,-13.7
9675,-0.0479,-0.2368,-0.9526,-17.822,20.02,8.667,-160.543,3.043,-14.31
9695,-0.0176,-0.2026,-1.1992,-21.362,20.935,4.944,-160.972,2.686,-14.507
9715,-0.0029,-0.25,-1.2598,-17.822,7.324,-2.197,-161.334,2.472,-14.551
9734,0.0132,-0.3555,-1.2593,-17.822,7.324,-2.197,-161.785,2.593,-14.529
9745,-0.0137,-0.3687,-1.1421,-22.339,-17.151,8.24,-162.01,2.785,-14.551
9755,-0.0288,-0.3721,-1.0718,-15.808,-20.874,14.16,-162.169,3.027,-14.623
9804,-0.1499,-0.3311,-0.7148,2.014,-15.564,28.259,-162.224,4.395,-15.529
9825,-0.1904,-0.2349,-0.6631,2.014,-15.564,28.259,-162.29,4.636,-15.93
9854,-0.0884,-0.2568,-0.8896,-13.794,14.282,-0.427,-162.642,4.406,-16.194
9865,-0.0884,-0.2568,-0.8896,-13.489,15.869,-3.418,-162.779,4.241,-16.205
9894,-0.0884,-0.2568,-0.8896,-7.935,6.531,-1.343,-162.988,4.12,-16.221
9914,-0.0884,-0.2568,-0.8896,28.992,-30.212,9.216,-162.603,4.686,-16.221
9934,-0.1123,-0.4165,-1.0791,58.472,-31.128,8.911,-161.543,5.339,-16.199
9954,-0.1597,-0.457,-0.8164,58.472,-28.748,9.644,-160.472,5.911,-16.216
9974,-0.2832,-0.3882,-0.3022,33.02,-19.409,9.399,-159.972,6.268,-16.26
10014,-0.1543,-0.3706,-0.5771,-24.841,40.405,-18.494,-160.356,5.46,-16.221
10023,-0.1543,-0.3706,-0.5771,-36.682,48.645,-22.339,-160.719,4.927,-16.172
10044,0.0684,-0.3188,-1.3774,-42.908,42.786,-15.747,-161.603,3.961,-16.122
10063,0.0996,-0.2861,-1.5981,-28.809,35.034,-9.644,-162.004,3.367,-16.172
10084,0.0811,-0.3081,-1.7407,24.536,-0.793,4.517,-161.664,3.268,-16.254
10113,-0.1152,-0.3794,-0.9385,40.588,-19.592,13.855,-160.505,3.922,-16.463
10124,-0.1152,-0.3794,-0.9385,41.138,-21.484,19.348,-160.098,4.191,-16.573
10143,-0.168,-0.3027,-0.5298,24.353,-13.245,17.822,-159.532,4.62,-16.82
10153,-0.1729,-0.2788,-0.5015,12.451,-7.507,13.916,-159.417,4.735,-16.924
10164,-0.1729,-0.2788,-0.5015,1.587,0.366,8.789,-159.412,4.763,-17.007
10173,-0.1729,-0.2788,-0.5015,-6.897,8.362,3.174,-159.483,4.697,-17.067
10183,-0.0947,-0.2588,-0.668,-6.897,8.362,3.174,-159.637,4.559,-17.1
10193,-0.0527,-0.2754,-0.7759,-20.203,18.616,-5.371,-159.84,4.367,-17.117
10213,-0.0142,-0.3047,-0.894,-20.203,18.616,-5.371,-160.318,3.933,-17.1
10223,-0.0142,-0.3047,-0.894,-20.752,19.714,-6.348,-160.521,3.724,-17.106
10233,0.0752,-0.3872,-1.2427,-20.752,19.714,-6.348,-160.686,3.549,-17.133
10273,0.0005,-0.3682,-1.2974,4.15,-3.479,9.766,-160.928,3.417,-17.391
10282,0.0005,-0.3682,-1.2974,4.15,-3.479,9.766,-160.801,3.516,-17.479
10303,-0.0908,-0.3892,-1.0107,4.15,-3.479,9.766,-160.389,3.774,-17.704
10322,-0.1484,-0.3955,-0.7075,21.24,-7.324,16.174,-160.038,3.994,-17.963
10343,-0.1733,-0.3555,-0.5107,7.141,0.122,13.123,-160.021,4.01,-18.193
10362,-0.1528,-0.3174,-0.5918,-28.015,19.47,-1.221,-160.472,3.713,-18.331
10403,0.0259,-0.2388,-1.5361,-26.245,12.512,-16.235,-161.823,2.812,-18.116
10412,0.0259,-0.2388,-1.5361,-19.287,1.343,-16.174,-162.004,2.747,-17.968
10423,-0.0239,-0.3799,-1.3784,-11.169,-7.69,-14.404,-162.109,2.774,-17.803
10432,-0.0239,-0.3799,-1.3784,-2.502,-15.381,-9.766,-162.131,2.895,-17.666
10452,-0.1016,-0.4937,-0.7837,5.31,-19.165,-3.723,-161.971,3.246,-17.529
10482,-0.104,-0.293,-0.7349,-5.859,-0.977,3.113,-161.949,3.521,-17.584
10492,-0.085,-0.2065,-0.8447,-9.705,4.089,-1.343,-162.048,3.477,-17.584
10501,-0.085,-0.2065,-0.8447,-9.705,4.089,-1.343,-162.131,3.4,-17.556
10532,-0.0352,-0.3267,-1.0425,7.019,7.935,-10.376,-162.048,3.082,-17.38
10541,-0.0352,-0.3267,-1.0425,6.348,6.409,-12.451,-161.982,2.983,-17.281
10572,-0.0454,-0.3657,-0.9653,-10.925,1.038,-10.437,-162.147,2.807,-16.979
10581,-0.043,-0.3491,-0.9912,-10.925,1.038,-10.437,-162.241,2.758,-16.886
10602,-0.0215,-0.3335,-1.0635,-8.24,2.197,-8.789,-162.361,2.659,-16.754
10621,0.0005,-0.3335,-1.1074,2.808,1.465,-1.16,-162.339,2.593,-16.721
10642,-0.0269,-0.3428,-1.0957,9.46,-3.235,4.822,-162.186,2.659,-16.771
10661,-0.0488,-0.3379,-1.042,7.813,-5.859,5.249,-162.01,2.796,-16.848
10691,-0.1069,-0.3081,-0.8247,1.953,-3.723,1.16,-161.906,2.983,-16.87
10711,-0.0801,-0.3354,-0.8154,-0.854,-0.916,0.0,-161.944,2.955,-16.864
10731,-0.0503,-0.3428,-0.8984,-7.263,7.019,-2.991,-162.065,2.807,-16.848
10751,0.0137,-0.2842,-1.2378,-3.845,8.667,-3.601,-162.164,2.62,-16.837
10771,-0.0107,-0.2603,-1.25,2.319,-0.977,-3.357,-162.158,2.565,-16.782
10781,-0.0337,-0.2686,-1.187,7.507,-5.31,-2.747,-162.081,2.604,-16.738
10800,-0.0479,-0.2856,-1.1011,12.207,-7.874,-2.319,-161.818,2.763,-16.639
10831,-0.1006,-0.3467,-0.7344,6.531,-9.155,-2.625,-161.51,3.032,-16.463
10861,-0.0732,-0.374,-0.6938,-3.662,-1.587,-3.479,-161.614,3.043,-16.348
10880,-0.043,-0.3838,-0.7656,-13.306,6.714,-4.456,-161.9,2.851,-16.326
10901,0.0317,-0.3896,-0.9937,-16.296,12.207,0.671,-162.235,2.609,-16.392
10920,0.0786,-0.3413,-1.353,-6.592,9.399,7.141,-162.477,2.329,-16.562
10931,0.0811,-0.3218,-1.3916,-0.61,6.836,9.46,-162.532,2.236,-16.672
10941,0.0811,-0.3218,-1.3916,4.822,1.587,10.864,-162.532,2.214,-16.782
10960,-0.0356,-0.3135,-1.1191,4.822,1.587,10.864,-162.345,2.401,-17.007
10970,-0.0669,-0.3091,-0.9985,4.822,1.587,10.864,-162.169,2.565,-17.122
10981,-0.0957,-0.3027,-0.8892,18.86,-10.559,15.503,-161.977,2.741,-17.238
10990,-0.0957,-0.3027,-0.8892,18.86,-10.559,15.503,-161.779,2.911,-17.342
11021,-0.1362,-0.2988,-0.6499,2.869,6.592,0.305,-161.373,3.186,-17.507
11030,-0.1177,-0.3081,-0.6841,-3.662,12.207,-5.432,-161.356,3.115,-17.496
11040,-0.1177,-0.3081,-0.6841,-3.662,12.207,-5.432,-161.395,2.928,-17.452
11070,0.085,-0.3687,-1.2798,-3.662,12.207,-5.432,-161.834,1.994,-17.26
11090,0.0737,-0.3774,-1.4214,4.395,10.864,-2.502,-161.927,1.577,-17.243
11120,-0.0049,-0.4116,-1.1758,28.137,-7.507,12.024,-161.257,1.62,-17.446
11139,-0.043,-0.3921,-1.0352,28.381,-11.169,15.625,-160.67,1.989,-17.693
11160,-0.1265,-0.2485,-0.729,24.597,-12.512,21.484,-160.225,2.455,-18.023
11190,-0.1689,-0.1431,-0.625,1.038,-0.122,6.775,-160.181,3.054,-18.358
11200,-0.1689,-0.1431,-0.625,-7.202,5.31,-2.686,-160.334,3.104,-18.353
11209,-0.1689,-0.1431,-0.625,-13.733,11.169,-12.207,-160.521,3.021,-18.27
11219,-0.0474,-0.2598,-0.7979,-18.677,15.991,-19.714,-160.714,2.807,-18.138
11230,0.0166,-0.3447,-0.9585,-23.437,17.09,-22.888,-160.933,2.538,-17.979
11240,0.0166,-0.3447,-0.9585,-28.259,15.869,-22.461,-161.197,2.258,-17.82
11280,0.0625,-0.5029,-1.3555,-2.991,-3.601,0.183,-161.829,1.675,-17.49
11289,0.0625,-0.5029,-1.3555,-2.991,-3.601,0.183,-161.735,1.752,-17.529
11329,-0.1328,-0.2827,-0.7046,21.057,-12.329,21.484,-160.878,2.549,-18.083
11349,-0.1714,-0.1904,-0.5703,21.057,-12.329,21.484,-160.664,2.911,-18.287
11379,-0.0522,-0.1963,-0.8164,-14.221,13.611,-12.512,-161.191,2.626,-18.078
11389,0.0049,-0.2187,-0.9893,-31.372,22.339,-26.978,-161.559,2.302,-17.897
11409,0.0996,-0.313,-1.291,-31.128,19.958,-30.273,-162.301,1.615,-17.446
11419,0.0996,-0.313,-1.291,-21.667,13.611,-26.001,-162.543,1.346,-17.243
11438,0.1055,-0.4287,-1.374,3.174,1.648,-12.329,-162.565,1.066,-16.963
11449,0.0767,-0.5249,-1.2324,11.108,-3.357,-4.089,-162.4,1.038,-16.913
11459,0.0508,-0.5347,-1.1221,11.108,-3.357,-4.089,-162.175,1.082,-16.935
11478,0.0327,-0.5127,-1.0269,16.724,-7.629,11.536,-161.669,1.269,-17.166
11489,-0.0186,-0.3984,-0.8687,16.724,-7.629,11.536,-161.455,1.406,-17.353
11499,-0.0186,-0.3984,-0.8687,15.503,-6.348,23.56,-161.274,1.56,-17.556
11529,-0.085,-0.207,-0.8179,11.047,0.305,17.7,-161.032,1.835,-18.051
11539,-0.0659,-0.1982,-0.8706,11.047,0.305,17.7,-161.06,1.807,-18.133
11548,-0.0659,-0.1982,-0.8706,-0.183,10.01,0.061,-161.125,1.719,-18.166
11568,-0.0659,-0.1982,-0.8706,-2.991,12.024,-8.179,-161.285,1.412,-18.116
11588,0.0693,-0.3477,-1.1743,-0.061,6.104,-7.629,-161.362,1.132,-18.012
11608,0.0918,-0.3726,-1.2114,8.667,2.991,-3.235,-161.252,0.923,-17.952
11628,0.0342,-0.4409,-0.9565,8.667,2.991,-3.235,-160.812,0.939,-17.996
11638,0.0342,-0.4409,-0.9565,30.64,-9.766,11.902,-160.345,1.088,-18.078
11648,-0.1221,-0.585,-0.4575,33.447,-10.071,15.442,-159.692,1.313,-18.188
11658,-0.1221,-0.585,-0.4575,33.447,-10.071,15.442,-158.983,1.516,-18.347
11697,-0.0303,-0.2891,-0.7632,9.46,7.874,18.616,-159.225,0.95,-19.243
11708,0.0308,-0.1162,-1.0806,-53.223,42.358,5.737,-159.901,0.555,-19.446
11718,0.0308,-0.1162,-1.0806,-48.462,38.818,4.15,179.956,0.176,-19.616
11727,0.0308,-0.1162,-1.0806,-48.462,38.818,4.15,179.67,-0.132,-19.633
11737,0.0308,-0.1162,-1.0806,-2.747,25.513,-2.991,-178.61,-0.39,-19.6
11748,0.0957,-0.1562,-1.6733,-2.747,25.513,-2.991,-178.462,-0.544,-19.534
11767,0.0645,-0.3296,-1.417,-2.747,25.513,-2.991,-178.039,-0.467,-19.358
11777,0.0645,-0.3296,-1.417,24.353,-17.822,-6.592,-177.797,-0.291,-19.286
11798,-0.0161,-0.4453,-0.9307,33.752,-21.912,0.122,-177.166,0.137,-19.237
11807,-0.0161,-0.4453,-0.9307,33.752,-21.912,0.122,-176.83,0.346,-19.259
11828,-0.0586,-0.4297,-0.7407,23.132,-14.648,4.456,-176.303,0.681,-19.336
11847,-0.0791,-0.3926,-0.6479,23.132,-14.648,4.456,-176.111,0.862,-19.33
11857,-0.0791,-0.3926,-0.6479,-4.578,-2.319,-6.348,-176.155,0.884,-19.265
11867,-0.0557,-0.3906,-0.6294,-12.512,2.747,-10.437,-176.281,0.851,-19.16
11877,-0.0557,-0.3906,-0.6294,-18.127,6.775,-12.634,-176.457,0.775,-19.039
11917,0.0508,-0.4673,-0.8633,-21.484,16.296,-4.089,-177.341,0.209,-18.721
11927,0.0508,-0.4673,-0.8633,-21.484,16.296,-4.089,-177.523,0.06,-18.732
11937,0.1035,-0.4048,-1.2915,-21.484,16.296,-4.089,-177.638,-0.044,-18.781
11957,0.0669,-0.3604,-1.2739,-21.484,16.296,-4.089,-177.572,-0.17,-18.995
11967,0.0347,-0.3521,-1.208,17.212,1.099,14.526,-177.402,-0.176,-19.144
11977,0.0347,-0.3521,-1.208,23.01,-1.831,15.808,-177.171,-0.148,-19.297
11986,-0.0215,-0.3311,-1.0312,23.01,-1.831,15.808,-176.924,-0.099,-19.462
11996,-0.0449,-0.3145,-0.9492,23.01,-1.831,15.808,-176.677,-0.038,-19.622
12026,-0.0645,-0.2788,-0.8481,19.836,-4.333,13.916,-176.094,0.11,-20.028
12047,-0.0713,-0.2295,-0.7749,10.742,-2.38,8.423,-175.941,0.154,-20.154
12066,-0.0352,-0.251,-0.8213,-7.141,2.869,-4.517,-176.034,0.115,-20.11
12076,-0.001,-0.2935,-0.8877,-7.141,2.869,-4.517,-176.133,0.06,-20.028
12087,0.0396,-0.3481,-0.9868,-7.141,2.869,-4.517,-176.254,0.0,-19.924
12096,0.0396,-0.3481,-0.9868,-12.207,5.249,-10.559,-176.375,-0.055,-19.825
12106,0.1196,-0.4478,-1.1934,-11.719,2.258,-8.423,-176.49,-0.082,-19.742
12116,0.1333,-0.4731,-1.2852,-8.789,-1.709,-5.127,-176.583,-0.066,-19.687
12127,0.1333,-0.4731,-1.2852,-2.502,-6.042,0.244,-176.605,-0.005,-19.687
12136,0.1616,-0.4302,-1.4658,6.653,-10.986,6.836,-176.539,0.104,-19.748
12146,0.1494,-0.3882,-1.5,18.494,-15.564,12.268,-176.353,0.264,-19.863
12156,0.1084,-0.3623,-1.4551,18.494,-15.564,12.268,-176.028,0.472,-20.006
12166,0.0493,-0.3618,-1.3247,46.448,-23.499,18.127,-175.567,0.72,-20.171
12176,0.0493,-0.3618,-1.3247,57.068,-26.794,19.165,-174.996,1.0,-20.341
12196,-0.1543,-0.3872,-0.5425,60.364,-29.541,18.494,-173.848,1.62,-20.627
12206,-0.209,-0.3755,-0.2803,42.603,-25.879,10.864,-173.425,1.89,-20.709
12226,-0.2964,-0.3428,0.0527,1.282,-11.169,-4.089,-173.172,2.197,-20.676
12236,-0.2964,-0.3428,0.0527,-20.63,1.648,-15.625,-173.375,2.164,-20.522
12306,0.1655,-0.2832,-1.6646,-84.595,38.574,-27.893,-178.006,-0.253,-19.012
12316,0.1514,-0.2832,-1.7393,-84.595,38.574,-27.893,-178.286,-0.445,-18.957
12325,0.1514,-0.2832,-1.7393,-3.845,10.498,-1.953,-178.325,-0.549,-18.94
12335,0.1069,-0.3774,-1.5435,9.827,0.244,1.709,-178.226,-0.549,-18.957
12346,0.1069,-0.3774,-1.5435,13.489,-9.155,5.554,-178.094,-0.456,-19.006
12365,-0.0225,-0.3018,-0.9185,13.489,-9.155,5.554,-177.852,-0.143,-19.237
12375,-0.0786,-0.2349,-0.7524,5.615,-20.081,14.526,-177.792,0.055,-19.374
12386,-0.0786,-0.2349,-0.7524,0.183,-18.555,11.108,-177.792,0.247,-19.479
12396,-0.1138,-0.1826,-0.584,-7.751,-16.357,4.7,-177.869,0.412,-19.517
12415,-0.0737,-0.2246,-0.6724,-7.751,-16.357,4.7,-178.281,0.599,-19.369
12435,-0.0068,-0.2866,-0.8218,-7.751,-16.357,4.7,-178.846,0.478,-18.951
12445,0.1338,-0.3906,-1.2246,-30.518,13.672,-24.902,-179.149,0.341,-18.704
12455,0.1826,-0.4316,-1.3779,-30.518,13.672,-24.902,-179.429,0.203,-18.484
12475,0.1899,-0.4604,-1.4502,-7.385,0.244,-8.24,-179.698,0.132,-18.237
12495,0.1899,-0.4604,-1.4502,15.137,-8.972,7.446,-179.489,0.275,-18.309
12515,0.0078,-0.4243,-0.8892,25.635,-12.695,20.691,-179.017,0.516,-18.666
12535,-0.0991,-0.2871,-0.5723,23.132,-7.507,24.536,-178.528,0.72,-19.144
12555,-0.1611,-0.1934,-0.3994,5.432,6.348,14.038,-178.319,0.676,-19.501
12565,-0.1699,-0.1646,-0.377,5.432,6.348,14.038,-178.401,0.538,-19.55
12584,-0.0366,-0.1665,-0.6553,-30.823,33.569,-15.442,-178.912,-0.033,-19.352
12605,0.1265,-0.2222,-1.1465,-47.058,37.72,-24.353,-179.786,-0.807,-18.902
12614,0.1265,-0.2222,-1.1465,-47.058,37.72,-24.353,179.747,-1.154,-18.66
12624,0.1265,-0.2222,-1.1465,-36.499,29.236,-19.958,179.379,-1.445,-18.463
12634,0.2061,-0.3638,-1.6201,-36.499,29.236,-19.958,179.16,-1.642,-18.342
12664,0.1846,-0.4204,-1.5996,18.677,-6.775,16.724,179.39,-1.686,-18.55
12674,0.0518,-0.4746,-1.1865,18.677,-6.775,16.724,179.637,-1.56,-18.809
12685,0.0518,-0.4746,-1.1865,25.757,-16.602,31.616,179.901,-1.395,-19.122
12694,-0.0391,-0.375,-0.9014,25.757,-16.602,31.616,-179.83,-1.225,-19.468
12704,-0.0713,-0.313,-0.8052,25.757,-16.602,31.616,-179.566,-1.082,-19.803
12714,-0.0713,-0.313,-0.8052,22.339,-10.376,30.701,-179.341,-0.972,-20.11
12734,-0.0854,-0.1694,-0.7412,10.254,-2.441,17.944,-179.055,-0.89,-20.539
12744,-0.0854,-0.1406,-0.7534,10.254,-2.441,17.944,-179.028,-0.884,-20.638
12763,-0.0728,-0.1313,-0.7788,10.254,-2.441,17.944,-179.193,-0.961,-20.572
12784,-0.0728,-0.1313,-0.7788,10.254,-2.441,17.944,-179.55,-1.115,-20.198
12803,0.061,-0.2925,-1.002,-19.592,8.667,-22.705,-179.956,-1.296,-19.737
12824,0.061,-0.2925,-1.002,-11.414,6.531,-12.512,179.758,-1.445,-19.418
12843,0.1445,-0.5396,-1.1836,2.075,3.906,5.249,179.731,-1.533,-19.435
12854,0.1338,-0.54,-1.1826,2.075,3.906,5.249,179.824,-1.555,-19.578
12864,0.1157,-0.5063,-1.1719,15.381,0.854,23.376,179.984,-1.566,-19.814
12873,0.1157,-0.5063,-1.1719,15.381,0.854,23.376,-179.802,-1.56,-20.116
12883,0.1157,-0.5063,-1.1719,24.414,-1.526,35.522,-179.55,-1.544,-20.473
12913,-0.0078,-0.2212,-0.8721,24.414,-1.526,35.522,-178.643,-1.527,-21.544
12923,-0.0464,-0.1777,-0.7666,24.414,-1.526,35.522,-178.347,-1.544,-21.846
12953,-0.1572,-0.0874,-0.5454,13.672,5.859,14.648,-177.951,-1.73,-22.264
12963,-0.1577,-0.0879,-0.5601,13.672,5.859,14.648,-178.077,-1.884,-22.181
12983,-0.0352,-0.1748,-0.8403,-33.63,26.062,-29.602,-178.687,-2.362,-21.693
12993,-0.0352,-0.1748,-0.8403,-33.63,26.062,-29.602,-179.083,-2.648,-21.357
13003,0.1025,-0.3237,-1.2217,-33.63,26.062,-29.602,-179.489,-2.922,-21.017
13023,0.1646,-0.4063,-1.3652,-33.63,26.062,-29.602,179.912,-3.356,-20.479
13033,0.1646,-0.4063,-1.3652,-33.63,26.062,-29.602,179.78,-3.444,-20.358
13043,0.1733,-0.5137,-1.438,-33.63,26.062,-29.602,179.764,-3.444,-20.347
13062,0.0908,-0.4707,-1.1934,17.273,-11.78,16.602,-179.962,-3.252,-20.605
13073,0.0493,-0.4268,-1.0381,17.273,-11.78,16.602,-179.725,-3.115,-20.819
13083,0.0493,-0.4268,-1.0381,23.926,-14.893,24.658,-179.473,-2.966,-21.066
13092,0.0493,-0.4268,-1.0381,23.926,-14.893,24.658,-179.236,-2.818,-21.319
13102,-0.062,-0.2461,-0.6641,23.926,-14.893,24.658,-179.044,-2.692,-21.55
13142,-0.0459,-0.1328,-0.7114,-9.705,3.418,-1.099,-179.214,-2.714,-21.693
13153,-0.0459,-0.1328,-0.7114,-22.827,11.719,-19.165,-179.451,-2.834,-21.506
13172,0.1133,-0.2261,-1.1328,-24.292,11.169,-25.696,-179.973,-3.082,-21.006
13193,0.1133,-0.2261,-1.1328,-10.62,2.808,-18.066,179.709,-3.186,-20.588
13212,0.1587,-0.4658,-1.2832,-10.62,2.808,-18.066,179.709,-3.109,-20.44
13232,0.0801,-0.4751,-1.0396,7.141,-9.155,9.155,179.846,-2.933,-20.561
13242,0.0801,-0.4751,-1.0396,7.141,-9.155,9.155,179.94,-2.851,-20.704
13252,0.0801,-0.4751,-1.0396,9.46,-7.446,17.456,-179.962,-2.774,-20.88
13262,0.0107,-0.3335,-0.8979,9.46,-7.446,17.456,-179.846,-2.719,-21.072
13272,-0.0063,-0.2866,-0.8931,10.864,-3.967,18.738,-179.725,-2.675,-21.259
13292,-0.0151,-0.2158,-0.9185,9.827,0.366,12.024,-179.511,-2.659,-21.544
13311,-0.0161,-0.1816,-0.9287,8.85,0.916,7.08,-179.341,-2.675,-21.627
13322,-0.0156,-0.1948,-0.916,6.958,2.258,-5.127,-179.275,-2.697,-21.577
13342,-0.0059,-0.2236,-0.8945,1.648,2.869,-14.709,-179.22,-2.758,-21.319
13351,-0.0059,-0.2236,-0.8945,1.648,2.869,-14.709,-179.242,-2.796,-21.143
13361,-0.0059,-0.2236,-0.8945,-3.113,5.92,-19.226,-179.286,-2.856,-20.956
13412,0.1904,-0.6567,-1.0713,-1.953,11.902,-13.123,-179.346,-3.411,-20.424
13441,0.2222,-0.6035,-1.2837,29.968,2.136,45.166,-178.66,-3.604,-21.341
13461,0.1719,-0.5142,-1.291,49.744,-6.531,62.073,-177.698,-3.466,-22.527
13471,0.1719,-0.5142,-1.291,57.617,-7.019,61.951,-177.083,-3.373,-23.148
13501,-0.1401,-0.0566,-0.6953,44.922,-11.292,48.279,-175.391,-2.95,-24.78
13551,-0.2354,0.165,-0.4771,-43.152,17.334,-47.119,174.529,-2.302,-24.489
13581,0.0439,-0.2358,-0.9624,-54.443,26.55,-67.078,-174.716,-3.087,-22.604
13591,0.2134,-0.4976,-1.3042,-54.443,26.55,-67.078,-175.067,-3.461,-22.0
13601,0.2705,-0.5801,-1.4429,-38.879,22.339,-51.575,-175.485,-3.724,-21.506
13610,0.2705,-0.5801,-1.4429,-38.879,22.339,-51.575,-175.792,-3.889,-21.154
13621,0.2705,-0.5801,-1.4429,-17.456,3.113,-19.348,-175.979,-3.933,-20.967
13631,0.2187,-0.5825,-1.4683,-17.456,3.113,-19.348,-176.034,-3.878,-20.918
13650,0.1572,-0.5376,-1.3291,-17.456,3.113,-19.348,-175.776,-3.554,-21.143
13660,0.0239,-0.4365,-0.9463,22.4,-21.118,23.987,-175.54,-3.323,-21.368
13671,0.0239,-0.4365,-0.9463,22.766,-21.79,27.344,-175.298,-3.087,-21.621
13711,-0.0957,-0.1597,-0.583,-15.808,-5.127,2.075,-175.237,-2.505,-22.225
13720,-0.0957,-0.1597,-0.583,-21.729,2.502,-8.789,-175.457,-2.538,-22.137
13730,0.0317,-0.1846,-0.918,-21.729,2.502,-8.789,-175.715,-2.659,-21.967
13740,0.0317,-0.1846,-0.918,-21.729,2.502,-8.789,-175.995,-2.834,-21.725
13760,0.2139,-0.314,-1.437,-16.479,10.742,-27.344,-176.429,-3.148,-21.182
13770,0.2139,-0.314,-1.437,-16.479,10.742,-27.344,-176.495,-3.175,-20.956
13780,0.2139,-0.314,-1.437,8.606,-6.409,-16.174,-176.418,-3.12,-20.786
13810,0.0869,-0.5181,-1.0122,28.015,-21.24,9.888,-175.693,-2.571,-20.803
13820,0.0869,-0.5181,-1.0122,27.649,-19.348,15.381,-175.413,-2.368,-20.94
13829,0.0869,-0.5181,-1.0122,24.78,-16.296,18.616,-175.155,-2.192,-21.11
13840,-0.0405,-0.353,-0.647,24.78,-16.296,18.616,-174.957,-2.049,-21.292
13859,-0.0405,-0.353,-0.647,24.78,-16.296,18.616,-174.798,-1.945,-21.533
13869,-0.0405,-0.353,-0.647,-4.028,5.554,1.099,-174.842,-2.0,-21.55
13880,-0.0405,-0.353,-0.647,-4.028,5.554,1.099,-174.924,-2.12,-21.489
13890,-0.0405,-0.353,-0.647,-4.028,5.554,1.099,-175.045,-2.307,-21.357
13949,0.1387,-0.4688,-1.228,-6.042,4.211,-14.465,-175.424,-2.812,-20.555
13979,0.0596,-0.4478,-0.9429,16.174,-13.428,12.024,-174.935,-2.411,-20.869
13999,-0.0366,-0.2832,-0.6865,13.245,-8.972,17.822,-174.705,-2.236,-21.187
14059,0.0156,-0.2104,-0.8716,-16.235,15.198,-19.531,-175.38,-2.796,-20.896
14099,0.1963,-0.3589,-1.4106,8.789,-1.221,-11.475,-175.556,-3.148,-20.209
14128,0.0815,-0.521,-0.9414,8.789,-1.221,-11.475,-174.639,-2.796,-20.248
14139,-0.0298,-0.4897,-0.5562,8.789,-1.221,-11.475,-174.161,-2.609,-20.347
14168,-0.0527,-0.3242,-0.5181,-18.005,15.259,3.235,-173.716,-2.527,-20.61
14179,0.0425,-0.1895,-0.9209,-18.982,25.879,-3.784,-173.848,-2.791,-20.605
14189,0.0425,-0.1895,-0.9209,-16.907,31.067,-8.85,-174.001,-3.126,-20.55
14208,0.1597,-0.207,-1.4512,-16.907,31.067,-8.85,-174.199,-3.669,-20.352
14229,0.1426,-0.2827,-1.4194,8.606,-1.831,-10.01,-173.963,-3.796,-20.132
14248,0.1426,-0.2827,-1.4194,9.46,-15.93,-1.038,-173.381,-3.554,-20.034
14278,0.0278,-0.4673,-0.728,-2.38,-9.277,10.376,-172.601,-3.098,-20.204
14288,0.0278,-0.4673,-0.728,-3.723,-2.441,10.437,-172.491,-3.049,-20.308
14298,0.0649,-0.2715,-0.9614,-3.723,-2.441,10.437,-172.458,-3.071,-20.391
14308,0.0649,-0.2715,-0.9614,-3.723,-2.441,10.437,-172.485,-3.082,-20.457
14318,0.0649,-0.2715,-0.9614,-5.066,-0.916,3.296,-172.507,-3.06,-20.49
14338,0.041,-0.231,-1.0225,3.479,-3.784,-5.005,-172.397,-2.988,-20.424
14358,0.043,-0.3364,-0.9409,3.662,-5.737,-9.827,-172.123,-2.878,-20.231
14389,0.0742,-0.4541,-0.9009,-0.061,-3.418,-11.108,-171.628,-2.862,-19.907
14398,0.0742,-0.4541,-0.9009,-2.075,-1.465,-5.493,-171.469,-2.873,-19.852
14408,0.0967,-0.4692,-0.9429,-2.075,-1.465,-5.493,-171.315,-2.9,-19.83
14427,0.0889,-0.4316,-0.9766,-2.319,1.221,5.371,-171.046,-2.95,-19.902
14438,0.0942,-0.4077,-1.0093,-0.305,2.747,7.813,-170.914,-2.983,-19.984
14448,0.0942,-0.4077,-1.0093,0.61,2.686,9.949,-170.793,-3.01,-20.083
14457,0.0942,-0.4077,-1.0093,0.61,2.686,9.949,-170.684,-3.01,-20.204
14467,0.0581,-0.293,-1.019,1.77,1.038,11.23,-170.59,-3.005,-20.314
14478,0.0605,-0.2559,-1.0527,1.77,1.038,11.23,-170.513,-3.016,-20.407
14497,0.0542,-0.2256,-1.0659,1.953,0.305,2.747,-170.431,-3.016,-20.5
14518,0.0542,-0.2256,-1.0659,6.714,-0.366,-4.822,-170.283,-3.01,-20.44
14537,0.0454,-0.2588,-1.0117,6.836,-3.357,-8.789,-170.035,-2.972,-20.275
14547,0.0464,-0.3374,-0.9341,6.836,-3.357,-8.789,-169.882,-2.95,-20.171
14558,0.0464,-0.3374,-0.9341,5.981,-2.93,-9.644,-169.706,-2.944,-20.067
14577,0.0771,-0.4658,-0.8945,5.981,-2.93,-9.644,-169.266,-2.988,-19.918
14587,0.0981,-0.5132,-0.9023,7.629,3.662,-3.662,-169.003,-3.06,-19.885
14607,0.1226,-0.5547,-0.9272,8.972,5.737,1.038,-168.409,-3.23,-19.995
14617,0.1226,-0.5547,-0.9272,11.597,5.432,15.076,-168.102,-3.29,-20.154
14647,0.1118,-0.4834,-1.0073,14.099,3.967,30.09,-167.267,-3.318,-20.951
14657,0.1118,-0.4834,-1.0073,14.099,3.967,30.09,-167.047,-3.279,-21.27
14667,0.1118,-0.4834,-1.0073,14.099,3.967,30.09,-166.877,-3.219,-21.566
14687,-0.0674,-0.0977,-0.7798,6.042,4.7,17.151,-166.767,-3.076,-21.995
14716,-0.083,-0.0396,-0.7139,6.042,4.7,17.151,-167.228,-3.087,-21.929
14726,-0.083,-0.0396,-0.7139,6.042,4.7,17.151,-167.503,-3.246,-21.698
14737,0.0581,-0.1943,-0.9771,6.042,4.7,17.151,-167.811,-3.505,-21.385
14756,0.1191,-0.271,-1.104,-31.311,18.616,-40.039,-168.387,-4.07,-20.676
14766,0.1191,-0.271,-1.104,-31.311,18.616,-40.039,-168.536,-4.334,-20.352
14777,0.2202,-0.541,-1.2896,-31.311,18.616,-40.039,-168.558,-4.537,-20.099
14796,0.2275,-0.603,-1.2759,1.77,0.061,-5.737,-168.3,-4.724,-19.88
14806,0.1821,-0.6206,-1.1489,5.249,-4.883,6.287,-168.08,-4.697,-19.929
14817,0.1821,-0.6206,-1.1489,8.301,-6.653,16.846,-167.816,-4.625,-20.083
14836,0.0815,-0.4458,-0.9497,8.301,-6.653,16.846,-167.311,-4.4,-20.583
14866,-0.0117,-0.1802,-0.8647,4.211,-5.798,26.367,-166.965,-3.928,-21.412
14876,-0.0293,-0.1274,-0.8599,2.38,-4.395,18.799,-166.976,-3.785,-21.583
14916,0.0259,-0.1826,-0.9385,-9.644,0.244,-19.47,-167.349,-3.62,-21.346
14956,0.1025,-0.3198,-1.0151,-7.996,0.0,-25.818,-167.585,-3.977,-20.281
14966,0.1025,-0.3198,-1.0151,-4.395,-0.488,-20.203,-167.514,-4.059,-20.083
14975,0.1025,-0.3198,-1.0151,0.0,-1.099,-12.024,-167.377,-4.125,-19.962
14986,0.1025,-0.3198,-1.0151,3.845,-2.808,-2.563,-167.184,-4.147,-19.929
15036,0.0933,-0.4033,-0.9619,16.785,-3.052,28.32,-165.822,-3.878,-20.918
15065,0.0435,-0.2744,-0.9365,16.968,-2.075,29.114,-165.119,-3.543,-21.819
15076,0.0313,-0.248,-0.9272,15.686,-1.709,25.696,-164.949,-3.45,-22.066
15085,0.0156,-0.2139,-0.9087,15.686,-1.709,25.696,-164.811,-3.351,-22.28
15095,-0.001,-0.1831,-0.8872,12.939,-1.709,18.86,-164.707,-3.252,-22.462
15105,-0.0181,-0.1641,-0.8677,12.939,-1.709,18.86,-164.641,-3.159,-22.577
15125,-0.0186,-0.1548,-0.8569,3.113,1.099,-3.174,-164.636,-3.082,-22.593
15135,-0.0083,-0.1729,-0.8491,3.113,1.099,-3.174,-164.702,-3.093,-22.5
15145,-0.0083,-0.1729,-0.8491,-7.996,3.418,-17.639,-164.811,-3.142,-22.335
15165,0.041,-0.2739,-0.8828,-17.578,4.395,-26.428,-165.108,-3.334,-21.879
15175,0.061,-0.3184,-0.9087,-17.578,4.395,-26.428,-165.306,-3.45,-21.616
15185,0.061,-0.3184,-0.9087,-25.696,4.7,-29.602,-165.509,-3.582,-21.341
15245,0.2305,-0.6313,-1.1948,-6.775,-2.808,13.733,-165.674,-4.34,-20.759
15265,0.145,-0.5259,-1.1387,-0.732,-8.057,34.058,-165.46,-4.114,-21.297
15274,0.145,-0.5259,-1.1387,3.113,-10.071,40.344,-165.322,-3.928,-21.66
15285,0.0664,-0.3784,-1.0386,4.272,-11.963,42.297,-165.201,-3.702,-22.044
15295,0.0298,-0.3169,-0.9873,4.272,-11.963,42.297,-165.103,-3.472,-22.401
15314,-0.02,-0.1787,-0.9019,6.531,-7.019,29.541,-164.993,-3.071,-22.989
15344,-0.0425,-0.0903,-0.8467,13.245,-1.831,7.813,-164.872,-2.692,-23.412
15364,-0.04,-0.1045,-0.832,10.132,-0.305,-0.549,-164.899,-2.615,-23.324
15394,0.0249,-0.2158,-0.876,-0.61,8.118,-21.362,-165.053,-2.851,-22.83
15404,0.0576,-0.2778,-0.9087,-0.61,8.118,-21.362,-165.026,-3.01,-22.637
15424,0.1113,-0.4312,-1.0,-0.61,8.118,-21.362,-164.839,-3.373,-22.242
15434,0.144,-0.5259,-1.0562,7.324,14.16,-20.813,-164.663,-3.598,-22.077
15444,0.144,-0.5259,-1.0562,11.292,16.785,-15.198,-164.421,-3.845,-21.978
15454,0.2017,-0.6587,-1.1323,11.292,16.785,-15.198,-164.136,-4.037,-21.94
15504,0.1313,-0.5361,-1.1094,10.437,-1.587,22.156,-162.817,-3.834,-22.95
15514,0.0845,-0.4404,-1.0527,10.437,-1.587,22.156,-162.559,-3.593,-23.34
15533,0.0425,-0.3467,-0.9902,25.452,-6.348,40.955,-162.021,-3.142,-24.104
15544,0.0024,-0.1968,-0.8696,25.452,-6.348,40.955,-161.834,-2.95,-24.428
15554,-0.0112,-0.1182,-0.8203,17.883,-3.906,28.564,-161.741,-2.791,-24.686
15563,-0.0112,-0.1182,-0.8203,17.883,-3.906,28.564,-161.741,-2.648,-24.857
15573,-0.0273,-0.0547,-0.7383,2.014,-0.549,7.507,-161.862,-2.571,-24.928
15594,-0.0254,-0.0703,-0.668,-20.325,-0.122,-15.686,-162.422,-2.527,-24.736
15603,-0.0117,-0.1157,-0.6538,-20.325,-0.122,-15.686,-162.806,-2.593,-24.494
15613,-0.0117,-0.1157,-0.6538,-39.734,6.714,-34.363,-163.218,-2.741,-24.186
15643,0.0908,-0.3667,-0.7969,-49.561,20.081,-40.283,-164.504,-3.604,-23.148
15653,0.186,-0.5542,-1.0869,-44.8,23.071,-36.133,-164.85,-3.972,-22.863
15663,0.186,-0.5542,-1.0869,-44.8,23.071,-36.133,-165.103,-4.34,-22.654
15683,0.186,-0.5542,-1.0869,-44.8,23.071,-36.133,-165.52,-4.796,-22.566
15703,0.2603,-0.5771,-1.5039,1.099,2.136,20.996,-165.547,-4.839,-22.89
15713,0.2603,-0.5771,-1.5039,5.981,-8.179,30.396,-165.465,-4.686,-23.165
15733,0.0537,-0.3608,-0.9941,10.803,-16.479,37.537,-165.168,-4.12,-23.84
15773,-0.1387,-0.1226,-0.4214,0.61,-16.846,30.273,-164.965,-3.076,-24.901
15792,-0.1235,-0.1465,-0.4395,-16.785,10.132,-4.944,-165.234,-3.148,-24.944
15803,-0.1235,-0.1465,-0.4395,-22.766,23.865,-16.052,-165.471,-3.422,-24.851
15813,0.0513,-0.2271,-0.7773,-29.419,32.715,-24.109,-165.773,-3.796,-24.703
15822,0.0513,-0.2271,-0.7773,-36.804,33.081,-28.137,-166.152,-4.186,-24.51
15832,0.0513,-0.2271,-0.7773,-36.804,33.081,-28.137,-166.575,-4.543,-24.302
15843,0.1602,-0.4063,-1.1357,-36.804,33.081,-28.137,-166.992,-4.861,-24.099
15862,0.1982,-0.4482,-1.2388,-32.715,22.034,-16.541,-167.717,-5.411,-23.824
15872,0.2402,-0.4731,-1.4121,-32.715,22.034,-16.541,-167.975,-5.609,-23.774
15883,0.2422,-0.4565,-1.4497,-16.357,13.184,-0.366,-168.135,-5.735,-23.796
15892,0.2422,-0.4565,-1.4497,-16.357,13.184,-0.366,-168.201,-5.779,-23.884
15902,0.2422,-0.4565,-1.4497,-16.357,13.184,-0.366,-168.173,-5.74,-24.027
15912,0.1338,-0.3467,-1.2759,-16.357,13.184,-0.366,-168.041,-5.625,-24.219
15932,0.0903,-0.3174,-1.1729,19.47,-11.963,24.292,-167.574,-5.262,-24.653
15952,0.0171,-0.2104,-0.9077,23.437,-15.503,24.719,-167.097,-4.861,-25.038
15972,-0.0039,-0.1528,-0.8394,16.418,-14.16,17.334,-166.794,-4.537,-25.269
15981,-0.0039,-0.1528,-0.8394,8.301,-10.01,6.592,-166.707,-4.427,-25.312
15992,-0.0039,-0.1528,-0.8394,4.883,-8.362,0.671,-166.657,-4.345,-25.296
16012,-0.0039,-0.1528,-0.8394,-2.075,-5.188,-11.963,-166.679,-4.268,-25.098
16032,0.0781,-0.2095,-0.9463,-9.644,-4.089,-21.057,-166.866,-4.274,-24.703
16072,0.1357,-0.4028,-1.0195,-9.949,-0.549,-24.048,-167.388,-4.433,-23.714
16081,0.1357,-0.4028,-1.0195,-7.874,-0.732,-19.653,-167.481,-4.466,-23.516
16102,0.1431,-0.4917,-1.0186,-5.249,-0.793,-13.733,-167.574,-4.499,-23.313
16121,0.1421,-0.5107,-1.0225,4.761,0.732,7.385,-167.509,-4.493,-23.39
16142,0.1387,-0.4976,-1.0415,12.024,0.671,20.508,-167.278,-4.433,-23.73
16161,0.0981,-0.3828,-1.0518,15.869,-1.526,28.748,-166.932,-4.296,-24.258
16191,0.0596,-0.2896,-1.0288,23.56,-3.967,31.311,-166.234,-3.988,-25.153
16201,0.0259,-0.1831,-0.9829,23.01,-5.432,28.564,-165.987,-3.867,-25.417
16211,0.0073,-0.125,-0.9614,23.01,-5.432,28.564,-165.778,-3.735,-25.626
16231,-0.0332,-0.0322,-0.9004,5.554,-13.733,8.728,-165.586,-3.439,-25.818
16241,-0.0552,-0.0024,-0.8735,-1.77,-16.479,-0.488,-165.608,-3.279,-25.774
16251,-0.0645,-0.0171,-0.8496,-8.362,-15.747,-11.414,-165.696,-3.159,-25.62
16271,-0.022,-0.1318,-0.8423,-14.709,-13.672,-21.545,-166.075,-3.065,-25.06
16291,0.0459,-0.3398,-0.9038,-23.193,-7.263,-37.72,-166.52,-3.131,-24.258
16311,0.0923,-0.4546,-0.9702,-17.822,2.075,-37.842,-166.701,-3.373,-23.483
16321,0.1787,-0.6216,-1.1528,-17.822,2.075,-37.842,-166.685,-3.532,-23.198
16331,0.1787,-0.6216,-1.1528,-5.554,4.211,-20.386,-166.608,-3.669,-23.011
16371,0.1206,-0.4468,-1.1162,4.272,-11.23,15.686,-166.086,-3.571,-23.143
16381,0.0649,-0.3608,-0.9785,4.272,-11.23,15.686,-165.959,-3.389,-23.28
16401,-0.0327,-0.1992,-0.7056,4.7,-15.015,17.761,-165.839,-2.944,-23.533
16430,-0.0625,-0.0571,-0.6504,-14.709,-3.052,1.526,-166.426,-2.587,-23.533
16441,-0.0625,-0.0571,-0.6504,-32.166,17.029,-20.752,-166.855,-2.769,-23.368
16460,-0.0625,-0.0571,-0.6504,-33.691,29.602,-36.377,-167.789,-3.477,-22.846
16490,0.2148,-0.3193,-1.3887,-18.982,20.813,-40.222,-168.525,-4.406,-21.819
16500,0.2148,-0.3193,-1.3887,-4.883,-3.845,-30.884,-168.525,-4.466,-21.506
16530,0.1484,-0.5503,-1.0371,-2.93,-16.235,-2.808,-168.129,-4.202,-21.05
16550,0.1484,-0.5503,-1.0371,-4.883,-12.39,5.249,-167.893,-3.988,-21.176
16590,0.0151,-0.0869,-0.8428,0.732,12.756,13.55,-167.849,-3.917,-21.874
16599,0.0151,-0.0869,-0.8428,1.404,18.311,7.019,-167.921,-4.065,-21.984
16610,0.0806,-0.0435,-1.0874,1.404,18.311,7.019,-168.014,-4.285,-22.022
16620,0.1152,-0.0703,-1.1865,1.404,18.311,7.019,-168.146,-4.526,-21.984
16639,0.1357,-0.1099,-1.2476,1.404,18.311,7.019,-168.453,-4.878,-21.709
16650,0.146,-0.2456,-1.2417,1.404,18.311,7.019,-168.541,-4.955,-21.522
16679,0.1484,-0.3901,-1.1641,1.587,-9.827,-6.287,-168.382,-4.878,-21.121
16689,0.1265,-0.4321,-1.0688,3.113,-10.925,0.244,-168.25,-4.785,-21.105
16700,0.1265,-0.4321,-1.0688,5.737,-10.62,6.775,-168.085,-4.68,-21.149
16719,0.0874,-0.3701,-0.9795,12.024,-9.338,18.494,-167.668,-4.438,-21.418
16729,0.0713,-0.3301,-0.9502,12.024,-9.338,18.494,-167.443,-4.307,-21.621
16759,0.0254,-0.2427,-0.8667,14.709,-3.723,21.545,-166.855,-3.922,-22.269
16799,0.0107,-0.187,-0.8359,2.136,5.005,6.409,-166.52,-3.752,-22.769
16809,0.0107,-0.187,-0.8359,0.183,7.874,1.648,-166.525,-3.801,-22.802
16819,0.0107,-0.187,-0.8359,0.183,7.874,1.648,-166.558,-3.9,-22.802
16829,0.0107,-0.187,-0.8359,-4.089,12.268,-6.165,-166.613,-4.032,-22.769
16849,0.1201,-0.2446,-1.082,-6.042,11.108,-9.155,-166.761,-4.329,-22.654
16869,0.1475,-0.2881,-1.1743,-6.042,11.108,-9.155,-166.855,-4.554,-22.516
16898,0.1348,-0.334,-1.1504,1.282,-7.08,2.136,-166.778,-4.526,-22.451
16909,0.1348,-0.334,-1.1504,4.272,-8.484,5.92,-166.679,-4.438,-22.489
16919,0.1055,-0.3794,-1.0513,4.272,-8.484,5.92,-166.536,-4.334,-22.566
16938,0.0874,-0.3687,-1.0015,8.911,-10.254,14.832,-166.19,-4.07,-22.846
16949,0.0786,-0.3501,-0.9844,8.911,-10.254,14.832,-166.014,-3.928,-23.038
16959,0.0786,-0.3501,-0.9844,11.169,-9.827,23.804,-165.844,-3.768,-23.242
16978,0.0405,-0.2764,-0.9233,11.169,-9.827,23.804,-165.591,-3.461,-23.621
17008,-0.0132,-0.1489,-0.8306,-4.395,-1.099,3.235,-165.679,-3.164,-23.884
17028,-0.002,-0.104,-0.8394,-4.395,-1.099,3.235,-166.036,-3.214,-23.714
17058,0.0957,-0.2461,-1.0107,-16.113,15.808,-32.288,-166.608,-3.79,-23.0
17068,0.1362,-0.311,-1.0898,-16.113,15.808,-32.288,-166.745,-4.054,-22.714
17088,0.1997,-0.4121,-1.2212,-6.348,12.695,-25.513,-166.86,-4.537,-22.231
17098,0.2114,-0.4507,-1.271,-1.16,8.057,-18.25,-166.822,-4.702,-22.072
17108,0.2158,-0.4644,-1.2886,3.54,3.601,-9.827,-166.729,-4.801,-21.984
17118,0.2158,-0.4644,-1.2886,3.54,3.601,-9.827,-166.591,-4.828,-21.967
17128,0.2158,-0.4644,-1.2886,10.193,-5.432,6.287,-166.432,-4.79,-22.017
17157,0.1196,-0.3716,-1.1343,16.052,-12.207,17.883,-165.806,-4.367,-22.44
17168,0.0498,-0.2598,-0.9673,19.165,-13.428,23.376,-165.591,-4.164,-22.637
17178,0.0498,-0.2598,-0.9673,19.47,-12.573,22.583,-165.399,-3.955,-22.824
17197,-0.0347,-0.1255,-0.7764,19.47,-12.573,22.583,-165.152,-3.565,-23.082
17218,-0.0342,-0.1226,-0.7368,5.249,-2.686,-3.54,-165.108,-3.351,-23.071
17227,-0.0342,-0.1226,-0.7368,-1.953,0.61,-11.963,-165.179,-3.34,-22.956
17237,0.0107,-0.1719,-0.7891,-8.606,4.272,-19.531,-165.3,-3.406,-22.78
17248,0.0454,-0.2134,-0.8457,-8.606,4.272,-19.531,-165.449,-3.532,-22.549
17258,0.0854,-0.2666,-0.9146,-14.709,9.827,-29.419,-165.597,-3.719,-22.291
17277,0.1548,-0.3809,-1.0552,-13.245,11.841,-30.334,-165.773,-4.164,-21.775
17287,0.1821,-0.4258,-1.1177,-13.245,11.841,-30.334,-165.811,-4.378,-21.566
17307,0.1963,-0.4595,-1.1577,-4.211,6.287,-9.827,-165.778,-4.68,-21.341
17317,0.1963,-0.4595,-1.1577,-4.211,6.287,-9.827,-165.718,-4.757,-21.33
17327,0.1963,-0.4595,-1.1577,1.648,0.916,6.226,-165.613,-4.785,-21.396
17347,0.1597,-0.4521,-1.1304,1.648,0.916,6.226,-165.317,-4.713,-21.703
17357,0.1597,-0.4521,-1.1304,11.536,-3.235,24.231,-165.13,-4.636,-21.934
17378,0.0752,-0.3086,-1.0137,13.245,-6.409,30.273,-164.773,-4.384,-22.467
17387,0.0752,-0.3086,-1.0137,14.343,-5.981,30.396,-164.608,-4.235,-22.747
17397,0.0752,-0.3086,-1.0137,14.343,-5.981,30.396,-164.443,-4.098,-23.011
17407,0.0405,-0.2422,-0.9736,14.343,-5.981,30.396,-164.268,-3.983,-23.253
17427,0.0303,-0.2266,-0.9619,14.343,-5.981,30.396,-163.927,-3.79,-23.676
17437,0.0303,-0.2266,-0.9619,16.724,-0.977,18.25,-163.779,-3.702,-23.846
17446,0.0303,-0.2266,-0.9619,16.724,-0.977,18.25,-163.669,-3.625,-23.989
17456,0.0303,-0.2266,-0.9619,12.329,-0.549,10.559,-163.581,-3.56,-24.088
17477,0.0068,-0.1978,-0.8882,7.019,0.244,1.099,-163.488,-3.477,-24.153
17486,0.0068,-0.1978,-0.8882,3.357,1.282,-4.028,-163.493,-3.472,-24.12
17496,0.0068,-0.1978,-0.8882,3.357,1.282,-4.028,-163.526,-3.499,-24.033
17517,0.041,-0.2681,-0.8872,-7.813,6.653,-19.47,-163.669,-3.68,-23.736
17526,0.0581,-0.3081,-0.9189,-7.813,6.653,-19.47,-163.768,-3.818,-23.549
17547,0.1318,-0.4063,-1.0459,-7.813,6.653,-19.47,-163.922,-4.186,-23.187
17566,0.1587,-0.4443,-1.1055,-3.479,6.531,-9.705,-163.927,-4.471,-22.983
17576,0.1899,-0.5156,-1.1895,2.136,4.028,-1.892,-163.834,-4.554,-22.972
17587,0.1899,-0.5156,-1.1895,6.47,0.427,6.165,-163.696,-4.581,-23.033
17606,0.1748,-0.5034,-1.1865,14.404,-5.859,21.79,-163.295,-4.449,-23.357
17626,0.0942,-0.3687,-1.0474,19.287,-8.85,30.457,-162.828,-4.147,-23.862
17646,0.0942,-0.3687,-1.0474,18.372,-9.216,31.311,-162.427,-3.768,-24.412
17656,0.0942,-0.3687,-1.0474,16.113,-9.949,29.175,-162.301,-3.56,-24.659
17676,-0.0298,-0.1162,-0.8506,16.113,-9.949,29.175,-162.235,-3.153,-25.01
17696,-0.0464,-0.0815,-0.8237,1.343,-5.798,-0.61,-162.4,-2.878,-25.054
17716,-0.0229,-0.1201,-0.8398,-11.353,-0.366,-21.973,-162.773,-2.845,-24.719
17745,0.0322,-0.2056,-0.8877,-24.475,5.249,-41.504,-163.586,-3.235,-23.698
17755,0.0322,-0.2056,-0.8877,-23.315,6.653,-41.565,-163.812,-3.45,-23.318
17785,0.1992,-0.5112,-1.1289,-17.395,5.981,-33.508,-164.163,-4.032,-22.423
17795,0.2168,-0.5503,-1.1597,-17.395,5.981,-33.508,-164.158,-4.153,-22.264
17806,0.2051,-0.5557,-1.1523,-17.395,5.981,-33.508,-164.081,-4.213,-22.203
17835,0.1465,-0.4717,-1.0977,-17.395,5.981,-33.508,-163.669,-4.065,-22.549
17846,0.1465,-0.4717,-1.0977,11.475,-7.568,27.283,-163.482,-3.933,-22.791
17865,0.1465,-0.4717,-1.0977,11.475,-7.568,27.283,-163.109,-3.615,-23.357
17895,-0.0107,-0.1743,-0.8833,15.259,-5.859,25.452,-162.68,-3.093,-24.142
17905,-0.0332,-0.1421,-0.8521,15.259,-5.859,25.452,-162.631,-2.944,-24.302
17935,-0.0337,-0.1226,-0.8271,-3.845,3.845,-11.658,-162.845,-2.796,-24.28
17945,-0.0337,-0.1226,-0.8271,-9.888,5.798,-20.813,-163.026,-2.873,-24.099
17955,0.0073,-0.1875,-0.8706,-14.832,7.141,-28.137,-163.229,-2.999,-23.846
17964,0.0073,-0.1875,-0.8706,-17.09,9.399,-33.508,-163.433,-3.181,-23.555
17975,0.084,-0.311,-0.9814,-17.212,11.841,-36.499,-163.614,-3.406,-23.236
17985,0.123,-0.3779,-1.0508,-16.113,13.062,-36.743,-163.757,-3.664,-22.923
17995,0.1699,-0.4517,-1.1235,-13.062,13.306,-33.691,-163.845,-3.928,-22.637
18015,0.2134,-0.5396,-1.2202,-4.883,5.859,-17.517,-163.867,-4.307,-22.253
18044,0.1602,-0.5317,-1.1348,10.925,-5.92,12.939,-163.427,-4.307,-22.33
18054,0.1289,-0.5005,-1.0723,14.771,-6.409,19.714,-163.185,-4.208,-22.5
18065,0.0991,-0.4443,-0.9956,14.771,-6.409,19.714,-162.938,-4.076,-22.72
18094,-0.0342,-0.2197,-0.7407,10.925,-7.202,30.151,-162.433,-3.483,-23.533
18105,-0.0537,-0.1597,-0.6885,8.179,-3.113,24.475,-162.383,-3.301,-23.758
18114,-0.0537,-0.1597,-0.6885,3.174,2.197,15.015,-162.416,-3.192,-23.906
18124,-0.0537,-0.1597,-0.6885,3.174,2.197,15.015,-162.548,-3.181,-23.967
18134,-0.0044,-0.0581,-0.8906,3.174,2.197,15.015,-162.784,-3.323,-23.95
18154,0.061,-0.041,-1.1343,-19.226,30.151,-31.799,-163.449,-4.01,-23.621
18174,0.2153,-0.1748,-1.5454,-10.925,15.869,-42.969,-163.784,-4.675,-22.939
18183,0.2153,-0.1748,-1.5454,-10.925,15.869,-42.969,-163.828,-4.785,-22.544
18204,0.2153,-0.1748,-1.5454,21.912,-18.127,-31.555,-163.542,-4.691,-21.802
18223,0.1147,-0.6133,-0.9258,22.4,-20.935,-25.635,-163.218,-4.427,-21.253
18244,0.0991,-0.5957,-0.7051,0.671,-12.634,-14.771,-163.378,-4.323,-20.945
18263,0.0151,-0.4438,-0.5591,-37.781,-10.254,-4.333,-164.059,-4.191,-20.775
18284,0.0151,-0.4438,-0.5591,-41.077,-8.972,-0.61,-164.855,-4.065,-20.759
18293,0.0151,-0.4438,-0.5591,-41.077,-8.972,-0.61,-165.163,-4.153,-20.803
18303,0.0698,-0.063,-0.937,-17.334,25.757,-2.991,-165.333,-4.406,-20.836
18333,0.2202,-0.0352,-1.3906,9.644,26.184,-18.433,-165.234,-5.471,-20.676
18353,0.1899,-0.271,-1.3335,10.62,12.39,-21.851,-165.092,-5.68,-20.259
18364,0.1313,-0.3608,-1.1367,10.62,12.39,-21.851,-165.097,-5.576,-19.995
18393,0.0898,-0.4302,-0.9478,-13.306,-22.827,-17.578,-165.542,-5.087,-19.33
18423,0.0488,-0.3638,-0.6987,-11.841,2.93,2.991,-166.075,-4.96,-19.221
18443,0.0835,-0.3135,-0.8208,1.953,16.663,9.827,-166.069,-5.191,-19.457
18463,0.2134,-0.1509,-1.3228,1.953,16.663,9.827,-165.888,-5.537,-19.737
18483,0.2109,-0.146,-1.3838,1.953,16.663,9.827,-165.624,-5.674,-19.863
18503,0.147,-0.2192,-1.2793,11.292,-13.184,-0.732,-165.388,-5.482,-19.819
18522,0.0894,-0.3159,-0.9971,3.906,-18.127,-2.441,-165.289,-5.153,-19.682
18533,0.0825,-0.3237,-0.9404,1.892,-18.25,-1.77,-165.278,-4.982,-19.622
18543,0.0825,-0.3237,-0.9404,2.014,-16.968,-0.793,-165.262,-4.818,-19.572
18552,0.0825,-0.3237,-0.9404,3.418,-14.526,0.0,-165.229,-4.68,-19.534
18562,0.0825,-0.3237,-0.9404,3.418,-14.526,0.0,-165.185,-4.559,-19.506
18592,0.0669,-0.3521,-0.8228,5.432,-6.958,1.16,-165.031,-4.351,-19.49
18613,0.0845,-0.3452,-0.8481,4.944,-0.854,2.502,-164.932,-4.356,-19.539
18632,0.1104,-0.3281,-0.9141,2.136,6.592,4.15,-164.877,-4.455,-19.638
18642,0.127,-0.3257,-0.9663,2.136,6.592,4.15,-164.839,-4.51,-19.72
18652,0.127,-0.3257,-0.9663,5.432,9.155,7.813,-164.773,-4.581,-19.819
18672,0.1523,-0.3179,-1.0718,8.484,8.728,10.315,-164.603,-4.73,-20.05
18682,0.1553,-0.2993,-1.147,9.888,7.813,10.925,-164.504,-4.801,-20.182
18692,0.1436,-0.2783,-1.1553,10.681,5.798,11.414,-164.405,-4.85,-20.303
18712,0.1436,-0.2783,-1.1553,8.789,-0.916,10.437,-164.246,-4.823,-20.517
18742,0.0151,-0.2231,-0.9072,4.272,-5.737,2.563,-164.141,-4.565,-20.643
18762,-0.0112,-0.2061,-0.7935,1.587,-5.066,-1.831,-164.185,-4.411,-20.539
18782,-0.0068,-0.2051,-0.7681,1.587,-5.066,-1.831,-164.394,-4.438,-20.264
18792,0.0366,-0.2544,-0.7915,-13.977,6.226,-21.973,-164.526,-4.537,-20.067
18802,0.0366,-0.2544,-0.7915,-13.977,6.226,-21.973,-164.658,-4.686,-19.863
18832,0.21,-0.4126,-1.1577,-5.371,14.771,-20.386,-164.877,-5.356,-19.308
18842,0.21,-0.4126,-1.1577,1.038,12.817,-14.709,-164.828,-5.565,-19.199
18851,0.21,-0.4126,-1.1577,1.038,12.817,-14.709,-164.718,-5.713,-19.144
18861,0.21,-0.4126,-1.1577,11.658,4.7,-2.136,-164.553,-5.801,-19.133
18872,0.2285,-0.4829,-1.2656,11.658,4.7,-2.136,-164.355,-5.828,-19.177
18891,0.2285,-0.4829,-1.2656,12.451,-9.46,17.822,-163.987,-5.663,-19.418
18912,0.1074,-0.3311,-1.0283,12.878,-13.0,23.376,-163.636,-5.268,-19.83
18931,0.0688,-0.2817,-0.9497,14.771,-16.296,28.564,-163.328,-4.768,-20.281
18941,0.0005,-0.186,-0.8159,11.108,-13.245,23.56,-163.24,-4.526,-20.468
18951,-0.02,-0.1465,-0.7759,7.324,-10.132,17.151,-163.218,-4.323,-20.599
18961,-0.02,-0.1465,-0.7759,7.324,-10.132,17.151,-163.251,-4.169,-20.665
18971,-0.019,-0.1304,-0.7437,0.366,-1.892,0.183,-163.312,-4.098,-20.665
19001,0.0356,-0.1938,-0.811,-2.686,1.953,-8.362,-163.652,-4.318,-20.259
19011,0.1274,-0.2935,-0.9624,-14.099,10.559,-25.94,-163.801,-4.521,-20.039
19021,0.1719,-0.3457,-1.0337,-14.099,10.559,-25.94,-163.932,-4.741,-19.819
19041,0.2002,-0.3892,-1.1094,-13.184,9.277,-23.01,-164.114,-5.103,-19.468
19061,0.2002,-0.3892,-1.1094,-0.977,1.77,-3.601,-164.059,-5.301,-19.341
19091,0.1631,-0.4585,-1.105,3.479,-2.441,11.169,-163.74,-5.24,-19.633
19101,0.1323,-0.4092,-1.0635,1.709,-5.676,20.874,-163.658,-5.142,-19.819
19110,0.1323,-0.4092,-1.0635,0.488,-6.775,23.01,-163.608,-5.015,-20.023
19120,0.1323,-0.4092,-1.0635,-0.244,-7.751,23.01,-163.597,-4.861,-20.22
19131,0.0288,-0.2192,-0.9473,-0.244,-7.751,23.01,-163.608,-4.702,-20.402
19150,0.0054,-0.1816,-0.9111,7.019,-3.174,12.695,-163.603,-4.438,-20.671
19171,-0.0039,-0.1704,-0.8784,12.573,1.953,1.221,-163.455,-4.345,-20.753
19190,0.0405,-0.249,-0.8857,12.573,1.953,1.221,-163.317,-4.4,-20.643
19200,0.0635,-0.2759,-0.9033,12.573,1.953,1.221,-163.295,-4.477,-20.533
19211,0.0635,-0.2759,-0.9033,1.038,6.409,-15.747,-163.279,-4.592,-20.402
19230,0.1245,-0.3408,-0.9668,1.038,6.409,-15.747,-163.246,-4.883,-20.116
19270,0.1987,-0.436,-1.0718,9.644,6.836,-2.625,-162.861,-5.46,-19.825
19280,0.2036,-0.46,-1.0859,9.644,6.836,-2.625,-162.686,-5.543,-19.874
19300,0.1943,-0.4487,-1.0757,13.916,2.869,13.367,-162.296,-5.609,-20.105
19310,0.1499,-0.3862,-1.0381,14.221,2.441,16.602,-162.114,-5.603,-20.275
19320,0.1499,-0.3862,-1.0381,14.343,2.441,18.555,-161.944,-5.581,-20.457
19329,0.0874,-0.2866,-0.9722,14.343,2.441,18.555,-161.807,-5.532,-20.643
19340,0.0874,-0.2866,-0.9722,14.343,2.441,18.555,-161.697,-5.466,-20.814
19350,0.0239,-0.1978,-0.8999,14.343,2.441,18.555,-161.631,-5.394,-20.934
19390,-0.0015,-0.1826,-0.8389,-4.333,2.258,-13.367,-161.829,-5.301,-20.83
19419,0.0674,-0.2983,-0.9082,-10.315,3.174,-22.339,-162.18,-5.548,-20.242
19430,0.0674,-0.2983,-0.9082,-11.963,3.906,-21.912,-162.29,-5.674,-20.045
19449,0.2031,-0.4512,-1.1406,-6.531,0.977,-12.756,-162.411,-5.872,-19.759
19459,0.2104,-0.4707,-1.1577,-1.953,-1.038,-5.981,-162.389,-5.916,-19.698
19470,0.2104,-0.4707,-1.1577,1.282,-4.211,0.244,-162.328,-5.911,-19.687
19479,0.2104,-0.4707,-1.1577,1.282,-4.211,0.244,-162.241,-5.845,-19.72
19489,0.2104,-0.4707,-1.1577,1.282,-4.211,0.244,-162.136,-5.735,-19.781
19519,0.0571,-0.3745,-0.854,0.244,-11.475,14.404,-161.867,-5.208,-20.067
19529,-0.0049,-0.2964,-0.708,-3.662,-9.644,12.146,-161.851,-5.021,-20.149
19539,-0.0132,-0.2734,-0.6885,-3.662,-9.644,12.146,-161.878,-4.889,-20.209
19559,0.0381,-0.2187,-0.7983,-14.282,5.92,-0.305,-162.147,-4.867,-20.264
19579,0.1343,-0.1943,-1.0381,-13.489,13.611,-8.057,-162.559,-5.164,-20.22
19599,0.1343,-0.1943,-1.0381,-13.489,13.611,-8.057,-162.916,-5.521,-20.061
19609,0.1758,-0.2817,-1.2231,-13.489,13.611,-8.057,-163.092,-5.663,-19.929
19628,0.1724,-0.314,-1.2085,-13.489,13.611,-8.057,-163.449,-5.834,-19.594
19649,0.1436,-0.373,-1.0376,-13.977,-3.479,-16.602,-163.685,-5.872,-19.281
19668,0.1313,-0.3853,-0.9712,-13.977,-3.479,-16.602,-163.768,-5.845,-19.089
19679,0.1104,-0.395,-0.8975,-7.629,-3.784,-2.808,-163.768,-5.823,-19.05
19689,0.1104,-0.395,-0.8975,-7.202,-2.014,0.488,-163.773,-5.806,-19.05
19708,0.1074,-0.3643,-0.8989,-7.202,1.526,4.333,-163.806,-5.812,-19.127
19748,0.1182,-0.3052,-0.9687,-2.014,4.028,4.333,-163.916,-5.938,-19.347
19778,0.1348,-0.3037,-1.041,1.831,3.052,3.235,-163.872,-6.048,-19.473
19798,0.1348,-0.3037,-1.041,2.014,2.502,3.357,-163.817,-6.086,-19.556
19818,0.1348,-0.3145,-1.0498,2.014,2.502,3.357,-163.729,-6.097,-19.66
19828,0.127,-0.314,-1.0298,4.578,-0.061,6.47,-163.674,-6.081,-19.72
19838,0.1216,-0.3149,-1.0166,5.249,-0.732,7.141,-163.603,-6.059,-19.786
19847,0.1216,-0.3149,-1.0166,5.249,-0.732,7.141,-163.526,-6.026,-19.863
19858,0.1216,-0.3149,-1.0166,7.08,-1.343,9.338,-163.444,-5.988,-19.951
19868,0.1035,-0.3027,-0.9873,7.08,-1.343,9.338,-163.345,-5.949,-20.039
19887,0.0977,-0.3013,-0.9761,9.216,-0.305,8.362,-163.141,-5.878,-20.204
19898,0.0947,-0.2959,-0.9756,8.911,-0.366,8.179,-163.048,-5.845,-20.281
19908,0.0947,-0.2959,-0.9756,8.911,-0.366,8.179,-162.96,-5.812,-20.358
19927,0.0864,-0.2866,-0.9673,8.911,-0.366,8.179,-162.828,-5.724,-20.479
19938,0.0859,-0.2852,-0.9604,4.7,-2.441,5.188,-162.784,-5.68,-20.517
19967,0.083,-0.2773,-0.9521,1.465,0.916,-1.465,-162.74,-5.614,-20.544
19988,0.1035,-0.2944,-0.9634,0.427,2.197,-4.822,-162.746,-5.68,-20.473
19997,0.1035,-0.2944,-0.9634,-0.122,1.77,-5.615,-162.751,-5.718,-20.429
20007,0.1035,-0.2944,-0.9634,-0.122,1.77,-5.615,-162.751,-5.762,-20.374
