elapsed_ms,acc_x_g,acc_y_g,acc_z_g,gyro_x_dps,gyro_y_dps,gyro_z_dps,angle_x_deg,angle_y_deg,angle_z_deg
0,-0.168,-0.5015,-0.874,2.625,1.16,-1.282,-149.821,9.498,-66.489
10,-0.1675,-0.5015,-0.8716,1.953,0.549,-1.282,-149.804,9.487,-66.478
21,-0.1733,-0.4985,-0.8652,1.404,0.488,-1.77,-149.788,9.476,-66.467
40,-0.1748,-0.5083,-0.8594,1.404,0.488,-1.77,-149.749,9.443,-66.44
50,-0.1748,-0.5083,-0.8594,1.404,1.526,-1.892,-149.727,9.432,-66.429
70,-0.1763,-0.5229,-0.855,0.549,0.854,-1.648,-149.705,9.421,-66.407
90,-0.1816,-0.5254,-0.8672,-0.366,0.854,-0.061,-149.7,9.426,-66.401
110,-0.1836,-0.5259,-0.8721,3.296,3.906,2.686,-149.656,9.404,-66.473
120,-0.1738,-0.5161,-0.8916,4.578,4.456,2.93,-149.623,9.382,-66.517
130,-0.167,-0.5137,-0.9004,4.639,4.211,2.563,-149.59,9.355,-66.561
150,-0.1631,-0.5156,-0.9126,4.15,1.953,1.77,-149.535,9.322,-66.621
160,-0.1646,-0.5137,-0.9141,4.333,0.732,1.77,-149.507,9.322,-66.643
170,-0.1655,-0.5107,-0.9131,4.883,-0.061,1.526,-149.469,9.327,-66.654
179,-0.1655,-0.5107,-0.9131,4.883,-0.061,1.526,-149.431,9.338,-66.665
190,-0.1738,-0.5093,-0.8989,5.493,-0.732,0.61,-149.387,9.349,-66.665
200,-0.1729,-0.5093,-0.8911,5.493,-0.732,0.61,-149.343,9.366,-66.665
219,-0.1802,-0.5098,-0.8784,5.249,-1.709,0.366,-149.249,9.41,-66.654
229,-0.1782,-0.5107,-0.8726,5.493,-1.282,-0.183,-149.2,9.426,-66.649
240,-0.1782,-0.5083,-0.8687,5.493,-0.61,-0.671,-149.145,9.432,-66.638
259,-0.1685,-0.5078,-0.8667,5.493,-0.61,-0.671,-149.063,9.426,-66.621
269,-0.165,-0.5088,-0.8672,3.174,-0.183,-0.488,-149.035,9.426,-66.616
280,-0.1636,-0.5098,-0.8647,2.014,-0.488,-0.061,-149.019,9.426,-66.61
309,-0.1631,-0.5054,-0.8613,-1.221,-0.122,0.183,-149.046,9.432,-66.61
329,-0.1646,-0.5005,-0.8657,-2.869,0.549,0.488,-149.112,9.426,-66.621
339,-0.1646,-0.5005,-0.8657,-4.028,0.732,0.427,-149.167,9.426,-66.627
349,-0.168,-0.4966,-0.8662,-4.7,0.732,0.183,-149.222,9.421,-66.632
369,-0.1694,-0.5063,-0.8677,-5.493,0.549,-1.404,-149.343,9.404,-66.621
379,-0.1694,-0.5112,-0.8706,-5.859,0.244,-2.197,-149.398,9.393,-66.605
389,-0.1699,-0.5171,-0.874,-6.165,-0.122,-2.625,-149.453,9.382,-66.583
419,-0.1753,-0.5239,-0.8784,-5.554,-0.793,-1.465,-149.612,9.371,-66.522
429,-0.1792,-0.5234,-0.8794,-4.578,-0.61,-1.648,-149.65,9.377,-66.506
438,-0.1792,-0.5234,-0.8794,-4.578,-0.61,-1.648,-149.672,9.371,-66.489
449,-0.1758,-0.5244,-0.8882,-4.578,-0.61,-1.648,-149.694,9.349,-66.473
459,-0.1758,-0.5244,-0.8882,-4.578,-0.61,-1.648,-149.7,9.311,-66.467
478,-0.1621,-0.5254,-0.9004,0.244,3.418,-2.075,-149.705,9.223,-66.462
489,-0.1587,-0.5239,-0.9023,1.038,3.479,-1.465,-149.694,9.185,-66.467
499,-0.1567,-0.5225,-0.8975,1.77,3.601,-0.854,-149.683,9.141,-66.478
528,-0.1533,-0.5225,-0.8848,3.967,3.601,-1.831,-149.59,9.02,-66.5
539,-0.1509,-0.5244,-0.8809,4.272,3.845,-2.258,-149.546,8.965,-66.5
548,-0.1509,-0.5244,-0.8809,4.272,3.845,-2.258,-149.496,8.915,-66.5
568,-0.1577,-0.5225,-0.8687,6.104,3.906,-2.197,-149.376,8.822,-66.506
588,-0.1611,-0.5195,-0.8623,6.409,4.15,-2.563,-149.238,8.734,-66.506
598,-0.1655,-0.52,-0.8569,5.737,4.089,-2.686,-149.178,8.696,-66.5
608,-0.1675,-0.5156,-0.855,5.127,3.845,-2.686,-149.123,8.657,-66.5
638,-0.167,-0.5146,-0.8652,2.93,3.235,-1.282,-149.019,8.569,-66.5
648,-0.1611,-0.5132,-0.8794,2.869,3.418,-0.732,-149.002,8.542,-66.511
678,-0.1587,-0.5122,-0.8906,2.869,3.357,0.0,-148.953,8.454,-66.561
697,-0.1606,-0.5093,-0.895,1.892,2.441,0.061,-148.936,8.421,-66.594
708,-0.1621,-0.5117,-0.8911,1.343,1.77,0.427,-148.936,8.41,-66.605
718,-0.166,-0.5151,-0.8877,1.038,0.977,0.671,-148.942,8.416,-66.616
748,-0.1753,-0.5259,-0.8838,0.366,-0.793,-0.366,-148.942,8.459,-66.616
758,-0.1753,-0.5259,-0.8838,0.122,-0.977,-1.038,-148.936,8.476,-66.599
788,-0.1841,-0.5444,-0.8833,1.404,-2.075,-2.563,-148.892,8.531,-66.522
807,-0.187,-0.5479,-0.8882,1.77,-3.479,-5.066,-148.837,8.569,-66.412
817,-0.1816,-0.5249,-0.9136,0.732,-3.723,-6.409,-148.832,8.58,-66.335
828,-0.1816,-0.5249,-0.9136,1.465,-4.028,-7.507,-148.826,8.58,-66.253
837,-0.1636,-0.5146,-0.9434,1.465,-4.028,-7.507,-148.799,8.58,-66.165
857,-0.1392,-0.5122,-0.9541,13.306,-4.944,-6.653,-148.618,8.575,-65.995
877,-0.1196,-0.5166,-0.9355,18.494,-7.202,-5.493,-148.288,8.58,-65.825
897,-0.1382,-0.5381,-0.873,16.541,-13.977,-4.028,-147.887,8.734,-65.621
917,-0.1855,-0.6064,-0.7622,2.686,-27.649,-10.559,-147.524,9.113,-65.226
937,-0.3354,-0.5322,-0.5601,-26.672,-47.058,-13.794,-147.541,9.921,-64.523
958,-0.2642,-0.3701,-0.7876,-57.068,-48.035,-6.287,-148.458,10.882,-63.836
967,-0.2642,-0.3701,-0.7876,-51.88,-29.785,-8.606,-149.024,11.091,-63.605
1007,-0.1704,-0.4941,-0.9805,6.714,0.244,-1.465,-149.689,11.052,-63.331
1026,-0.1704,-0.4941,-0.9805,-0.244,-2.136,-10.071,-149.414,11.102,-63.232
1047,-0.2002,-0.6548,-0.77,-43.518,-5.615,-26.184,-149.777,10.964,-62.781
1066,-0.1406,-0.5479,-0.9375,-43.518,-5.615,-26.184,-150.743,10.887,-62.155
1076,-0.0918,-0.4824,-1.0581,-50.354,-19.531,-23.132,-151.238,10.882,-61.853
1087,-0.0977,-0.437,-1.0884,-28.809,-19.104,-15.381,-151.545,10.909,-61.622
1116,-0.2104,-0.4946,-0.936,18.372,-10.193,-9.888,-151.199,11.151,-61.172
1127,-0.251,-0.5474,-0.8027,15.747,-6.409,-12.573,-150.963,11.179,-61.029
1136,-0.2305,-0.5391,-0.8115,15.747,-6.409,-12.573,-150.782,11.14,-60.875
1156,-0.1396,-0.5176,-0.9429,9.888,9.521,-22.4,-150.518,10.789,-60.568
1176,-0.0698,-0.5044,-1.0679,13.977,16.663,-26.062,-150.222,10.036,-60.293
1196,-0.1182,-0.5625,-1.0137,31.86,19.165,-24.658,-149.634,9.333,-60.062
1226,-0.1206,-0.5635,-0.8569,31.86,19.165,-24.658,-148.689,8.509,-59.672
1236,-0.1216,-0.582,-0.834,14.465,19.531,-25.33,-148.491,8.196,-59.557
1266,-0.0986,-0.499,-0.8809,11.536,27.405,-18.738,-148.261,7.24,-59.381
1285,-0.1299,-0.5073,-0.8428,23.926,29.968,-11.536,-147.827,6.625,-59.464
1295,-0.1299,-0.5073,-0.8428,23.926,29.968,-11.536,-147.552,6.367,-59.551
1306,-0.1641,-0.562,-0.7085,19.714,22.461,-2.197,-147.305,6.207,-59.65
1335,-0.064,-0.4429,-0.8794,19.714,22.461,-2.197,-147.036,5.982,-60.018
1346,-0.0503,-0.4204,-0.9331,10.681,9.949,9.338,-147.036,5.916,-60.15
1375,-0.0835,-0.416,-0.9224,8.606,6.531,7.263,-147.112,5.817,-60.43
1395,-0.1343,-0.4448,-0.8188,0.61,-15.32,7.446,-147.096,6.158,-60.43
1415,-0.1543,-0.4995,-0.7188,-10.437,-25.757,9.46,-147.184,6.79,-60.315
1435,-0.1128,-0.5322,-0.7769,-13.367,-21.423,8.24,-147.437,7.185,-60.244
1455,-0.0469,-0.5527,-0.9619,-13.916,-11.23,8.606,-147.733,7.317,-60.304
1485,-0.1987,-0.603,-0.7769,-1.282,-1.404,11.658,-147.772,7.57,-60.557
1504,-0.2378,-0.624,-0.7085,-6.287,-8.728,9.888,-147.684,7.932,-60.656
1515,-0.2378,-0.624,-0.7085,-11.23,-8.667,7.629,-147.717,8.091,-60.677
1525,-0.1709,-0.5889,-0.8115,-14.832,-5.676,4.089,-147.827,8.174,-60.677
1544,-0.1074,-0.5356,-0.9443,-17.09,0.244,0.549,-148.233,7.998,-60.71
1555,-0.1074,-0.5356,-0.9443,-17.09,0.244,0.549,-148.381,7.767,-60.76
1565,-0.0464,-0.5039,-1.1157,-17.09,0.244,0.549,-148.414,7.52,-60.837
1594,-0.2402,-0.6567,-0.7109,21.545,8.85,0.183,-147.717,7.207,-61.062
1605,-0.2402,-0.6567,-0.7109,10.62,-1.16,0.244,-147.448,7.333,-61.057
1624,-0.3042,-0.6255,-0.5371,-13.245,-14.343,-1.282,-147.321,7.756,-60.914
1634,-0.1587,-0.501,-0.7954,-20.935,-10.315,-3.601,-147.519,7.839,-60.831
1645,-0.061,-0.4536,-0.9683,-17.944,0.061,-5.066,-147.766,7.767,-60.787
1654,-0.061,-0.4536,-0.9683,-17.944,0.061,-5.066,-147.931,7.581,-60.798
1664,-0.061,-0.4536,-0.9683,7.69,17.029,-4.883,-147.975,7.322,-60.848
1674,-0.0034,-0.4976,-1.1494,18.677,22.705,-5.127,-147.887,7.037,-60.925
1694,-0.145,-0.5869,-0.894,24.414,18.127,-4.944,-147.448,6.608,-61.062
1704,-0.2021,-0.6069,-0.7534,19.287,9.583,-4.639,-147.195,6.553,-61.073
1714,-0.2256,-0.5991,-0.6768,11.414,-0.488,-2.93,-146.992,6.614,-61.046
1724,-0.2256,-0.5991,-0.6768,11.414,-0.488,-2.93,-146.876,6.735,-60.991
1744,-0.1431,-0.5625,-0.7593,-3.784,-6.653,-2.93,-146.887,6.833,-60.864
1754,-0.0591,-0.5527,-0.9194,-1.404,-2.686,-2.869,-146.915,6.801,-60.826
1763,-0.0591,-0.5527,-0.9194,-1.404,-2.686,-2.869,-146.909,6.757,-60.82
1784,-0.1416,-0.5903,-0.8311,11.902,3.845,2.075,-146.7,6.702,-60.881
1803,-0.1953,-0.6016,-0.7432,11.841,2.625,3.601,-146.382,6.839,-60.969
1824,-0.1406,-0.5356,-0.8174,-5.493,5.859,-0.671,-146.393,6.855,-61.029
1843,-0.041,-0.4644,-1.021,-4.822,12.451,-3.662,-146.662,6.575,-61.095
1854,-0.0034,-0.4741,-1.0742,3.845,15.93,-4.7,-146.728,6.356,-61.144
1864,-0.0391,-0.5215,-1.0249,12.817,15.564,-3.784,-146.667,6.163,-61.194
1873,-0.0391,-0.5215,-1.0249,16.113,10.193,-1.038,-146.536,6.07,-61.243
1893,-0.1582,-0.5776,-0.8115,14.038,3.784,0.549,-146.228,6.141,-61.265
1913,-0.2222,-0.6177,-0.6631,14.038,3.784,0.549,-146.135,6.438,-61.177
1923,-0.1519,-0.5498,-0.7651,-15.808,-9.094,-1.282,-146.266,6.531,-61.117
1933,-0.0781,-0.4766,-0.9268,-19.531,-5.31,-2.93,-146.519,6.537,-61.062
1954,0.0366,-0.4453,-1.1362,-5.066,9.644,-6.409,-146.959,6.229,-61.035
1963,0.0161,-0.4805,-1.1289,6.409,12.329,-6.165,-146.992,6.026,-61.051
1973,-0.0483,-0.5239,-1.0298,13.977,12.39,-4.639,-146.92,5.861,-61.078
2003,-0.2622,-0.6304,-0.583,0.916,-9.155,-3.052,-146.42,5.988,-60.991
2013,-0.2466,-0.6099,-0.5703,-9.521,-16.113,-2.136,-146.371,6.213,-60.886
2023,-0.2466,-0.6099,-0.5703,-17.7,-16.724,-2.563,-146.448,6.394,-60.771
2033,-0.1074,-0.543,-0.8125,-21.24,-12.512,-3.235,-146.646,6.482,-60.672
2043,-0.0322,-0.5063,-0.9658,-17.883,-5.798,-2.991,-146.871,6.465,-60.617
2062,-0.0122,-0.5239,-1.0791,1.892,5.005,-0.183,-147.09,6.284,-60.628
2073,-0.0703,-0.5654,-1.002,9.521,6.592,1.343,-147.036,6.207,-60.677
2083,-0.1523,-0.6079,-0.8652,11.353,2.93,2.991,-146.904,6.218,-60.716
2102,-0.2515,-0.6255,-0.6855,11.353,2.93,2.991,-146.646,6.542,-60.727
2113,-0.2515,-0.6255,-0.6855,-5.554,-8.179,4.395,-146.635,6.696,-60.716
2123,-0.1436,-0.5518,-0.8315,-10.376,-2.808,2.502,-146.739,6.746,-60.721
2132,-0.1436,-0.5518,-0.8315,-10.376,-2.808,2.502,-146.904,6.696,-60.743
2153,-0.0625,-0.4722,-1.022,-5.31,6.226,-0.854,-147.096,6.515,-60.793
2172,-0.0508,-0.4995,-1.0161,12.085,6.47,-2.686,-147.057,6.323,-60.826
2182,-0.0825,-0.5356,-0.9507,12.085,6.47,-2.686,-146.97,6.251,-60.82
2192,-0.0825,-0.5356,-0.9507,11.108,-1.099,-3.479,-146.843,6.251,-60.782
2212,-0.1802,-0.6079,-0.7505,2.686,-13.245,-1.587,-146.585,6.504,-60.634
2232,-0.1274,-0.5684,-0.77,-5.371,-10.803,-2.869,-146.552,6.751,-60.458
2252,-0.0488,-0.5327,-0.9214,-5.31,2.991,-6.836,-146.7,6.625,-60.353
2262,-0.0464,-0.5249,-0.9512,-0.549,7.935,-6.836,-146.75,6.482,-60.337
2272,-0.0542,-0.5317,-0.9512,6.47,10.864,-5.859,-146.722,6.323,-60.348
2282,-0.0542,-0.5317,-0.9512,12.512,12.207,-4.7,-146.624,6.169,-60.375
2302,-0.0962,-0.5996,-0.8643,16.296,12.207,-2.563,-146.31,5.911,-60.463
2332,-0.1211,-0.5874,-0.7915,9.277,6.348,-3.113,-145.904,5.663,-60.535
2342,-0.1279,-0.5796,-0.7686,7.08,3.174,-2.136,-145.805,5.647,-60.535
2372,-0.1367,-0.5796,-0.7329,4.211,-2.319,0.916,-145.569,5.773,-60.518
2391,-0.1284,-0.5815,-0.7471,-1.038,-2.808,3.357,-145.525,5.883,-60.535
2412,-0.0532,-0.5337,-0.9238,-1.587,-0.183,3.479,-145.613,5.85,-60.606
2431,-0.0044,-0.5249,-1.0078,5.066,12.634,1.221,-145.701,5.587,-60.749
2441,-0.0317,-0.5342,-0.9795,5.066,12.634,1.221,-145.668,5.444,-60.842
2452,-0.0317,-0.5342,-0.9795,5.066,12.634,1.221,-145.574,5.334,-60.936
2471,-0.1304,-0.5967,-0.7466,8.911,2.38,3.296,-145.316,5.317,-61.046
2481,-0.1304,-0.5967,-0.7466,8.911,2.38,3.296,-145.228,5.383,-61.051
2492,-0.1353,-0.5986,-0.7026,-4.089,-6.958,2.319,-145.212,5.482,-61.035
2501,-0.1353,-0.5986,-0.7026,-4.089,-6.958,2.319,-145.256,5.576,-61.002
2521,-0.0996,-0.5845,-0.792,-8.85,-5.615,1.343,-145.421,5.641,-60.985
2541,-0.0542,-0.5474,-0.9268,-5.798,5.127,0.916,-145.591,5.444,-61.084
2551,-0.0576,-0.5615,-0.959,-5.798,5.127,0.916,-145.624,5.295,-61.166
2561,-0.0801,-0.5649,-0.9292,4.761,14.282,1.465,-145.613,5.175,-61.26
2581,-0.1416,-0.5586,-0.8359,4.761,14.282,1.465,-145.541,5.076,-61.414
2591,-0.1567,-0.5503,-0.8032,2.136,3.54,1.587,-145.525,5.098,-61.447
2601,-0.1519,-0.542,-0.7871,-2.686,-0.793,0.854,-145.547,5.147,-61.447
2631,-0.1646,-0.5581,-0.7583,-12.695,-9.399,-1.831,-145.794,5.438,-61.298
2650,-0.1602,-0.5591,-0.7607,-18.066,-7.446,-1.709,-146.08,5.625,-61.177
2660,-0.1172,-0.5356,-0.8311,-18.982,-4.211,-2.502,-146.277,5.658,-61.133
2671,-0.0903,-0.5254,-0.8867,-18.799,-1.526,-2.625,-146.492,5.652,-61.1
2690,-0.0562,-0.5024,-0.978,-15.747,3.967,-6.592,-146.926,5.51,-61.046
2700,-0.0303,-0.4863,-1.0283,-15.747,3.967,-6.592,-147.145,5.361,-60.985
2711,-0.0117,-0.4878,-1.0547,-14.282,5.615,-15.198,-147.36,5.186,-60.886
2730,-0.0796,-0.5225,-0.9604,-12.878,-8.728,-17.212,-147.689,5.021,-60.54
2740,-0.0796,-0.5225,-0.9604,-13.062,-18.25,-15.503,-147.794,5.103,-60.315
2751,-0.1597,-0.5972,-0.7646,-15.32,-27.71,-13.062,-147.865,5.312,-60.051
2760,-0.168,-0.6064,-0.7227,-19.226,-33.936,-10.742,-147.953,5.587,-59.782
2770,-0.168,-0.6064,-0.7227,-23.926,-33.569,-9.521,-148.09,5.85,-59.524
2780,-0.0903,-0.5874,-0.8179,-26.611,-25.452,-10.803,-148.288,5.999,-59.293
2800,0.0078,-0.5449,-1.0366,-21.729,-2.38,-11.841,-148.782,5.9,-59.002
2820,-0.0596,-0.5366,-1.002,-3.235,5.493,-1.465,-149.024,5.691,-58.969
2850,-0.1621,-0.5894,-0.7856,-3.235,5.493,-1.465,-148.738,5.845,-59.134
2860,-0.1426,-0.541,-0.7729,-4.089,-4.272,4.395,-148.744,5.933,-59.15
2890,-0.0815,-0.4556,-0.9482,-9.766,1.404,-4.395,-149.106,5.905,-59.073
2900,-0.0347,-0.4429,-1.0181,-5.005,5.92,-6.042,-149.227,5.784,-59.052
2909,-0.0347,-0.4429,-1.0181,2.014,9.583,-6.592,-149.282,5.63,-59.046
2930,-0.1006,-0.5166,-0.9463,14.038,7.568,-0.549,-149.117,5.427,-59.095
2950,-0.1968,-0.5884,-0.7437,11.78,1.343,2.075,-148.771,5.482,-59.156
2959,-0.2344,-0.5942,-0.6611,11.78,1.343,2.075,-148.612,5.625,-59.161
2970,-0.2314,-0.5938,-0.6113,-2.563,-7.507,3.845,-148.508,5.806,-59.156
2999,0.0073,-0.4609,-1.0273,-14.709,7.202,-3.54,-148.898,5.823,-59.128
3019,0.0723,-0.4487,-1.1689,3.723,19.287,-3.601,-149.172,5.312,-59.233
3029,0.0723,-0.4487,-1.1689,3.723,19.287,-3.601,-149.112,5.043,-59.337
3059,-0.1289,-0.5977,-0.8325,36.621,14.343,4.883,-148.173,4.741,-59.656
3069,-0.1714,-0.6226,-0.7061,23.804,-7.568,6.348,-147.843,4.889,-59.667
3079,-0.2261,-0.626,-0.5942,23.804,-7.568,6.348,-147.563,5.18,-59.623
3109,-0.252,-0.5874,-0.5098,-6.897,-24.353,9.888,-147.057,6.361,-59.431
3149,0.0454,-0.4419,-1.1489,-7.568,22.156,1.343,-147.645,6.229,-59.667
3168,0.0698,-0.4517,-1.2324,15.442,35.156,0.854,-147.739,5.499,-60.029
3189,-0.02,-0.5005,-1.0845,27.405,28.87,2.563,-147.448,4.894,-60.408
3219,-0.0615,-0.54,-0.9658,21.118,3.906,3.601,-146.827,4.889,-60.557
3238,-0.1807,-0.5923,-0.668,5.249,-23.621,4.395,-146.58,5.548,-60.342
3258,-0.251,-0.5942,-0.5625,-5.371,-31.677,6.531,-146.442,6.323,-60.123
3278,-0.252,-0.5903,-0.5688,-15.686,-16.174,5.981,-146.492,6.905,-60.007
3298,-0.0742,-0.4785,-0.9312,-22.278,4.7,0.122,-146.97,6.943,-60.029
3318,0.0825,-0.4189,-1.2598,-10.132,28.687,-6.226,-147.546,6.339,-60.2
3328,0.0923,-0.4458,-1.3022,5.371,35.889,-7.202,-147.645,5.9,-60.331
3338,0.041,-0.478,-1.2397,20.203,36.499,-5.127,-147.574,5.488,-60.485
3358,-0.0718,-0.5718,-0.9546,20.203,36.499,-5.127,-147.156,4.922,-60.716
3368,-0.1279,-0.5894,-0.8057,15.869,5.066,-3.967,-146.964,4.883,-60.71
3388,-0.1772,-0.6084,-0.688,15.869,5.066,-3.967,-146.794,5.367,-60.414
3408,-0.2178,-0.5996,-0.6035,-23.071,-36.987,-1.16,-146.92,6.158,-59.974
3427,-0.1357,-0.5693,-0.7583,-21.545,-18.677,0.244,-147.206,6.63,-59.705
3438,-0.0791,-0.5459,-0.8721,-18.921,-7.202,0.916,-147.398,6.674,-59.678
3448,-0.0791,-0.5459,-0.8721,-18.921,-7.202,0.916,-147.596,6.608,-59.7
3457,-0.0791,-0.5459,-0.8721,-18.921,-7.202,0.916,-147.799,6.454,-59.771
3478,0.0039,-0.4692,-1.1333,5.432,19.592,-1.404,-147.975,6.01,-59.958
3488,-0.0659,-0.4956,-1.0361,10.559,17.395,-1.099,-147.942,5.828,-60.04
3497,-0.0659,-0.4956,-1.0361,11.658,14.771,-2.075,-147.865,5.685,-60.106
3518,-0.1382,-0.561,-0.772,6.653,2.502,-2.441,-147.662,5.592,-60.123
3547,-0.1035,-0.5605,-0.7856,-7.874,-15.137,-0.366,-147.59,5.9,-59.919
3557,-0.0835,-0.5503,-0.8511,-9.46,-13.733,-0.366,-147.667,5.999,-59.843
3587,-0.0908,-0.5283,-0.9238,-6.287,-6.836,0.916,-147.898,6.141,-59.755
3607,-0.0981,-0.5298,-0.9121,-2.075,-0.427,1.16,-147.964,6.119,-59.777
3627,-0.0757,-0.5283,-0.897,-4.395,7.568,-2.502,-148.063,5.966,-59.815
3647,-0.0439,-0.5142,-0.9419,-6.531,6.775,-4.883,-148.271,5.713,-59.821
3697,-0.1523,-0.5571,-0.7959,1.526,-0.854,-1.404,-148.189,5.85,-59.722
3707,-0.1743,-0.5776,-0.7461,1.831,-10.803,1.221,-148.107,5.993,-59.672
3716,-0.1743,-0.5776,-0.7461,1.831,-10.803,1.221,-148.052,6.147,-59.628
3726,-0.1743,-0.5776,-0.7461,-6.226,-9.033,0.793,-148.03,6.284,-59.584
3737,-0.1846,-0.5708,-0.7041,-9.888,-6.287,0.366,-148.057,6.394,-59.557
3756,-0.1504,-0.5498,-0.7539,-14.893,0.305,0.854,-148.293,6.443,-59.551
3766,-0.0371,-0.4707,-0.9893,-14.282,5.127,1.16,-148.497,6.361,-59.584
3777,0.0151,-0.4429,-1.124,-9.155,11.475,0.671,-148.694,6.196,-59.65
3806,-0.0146,-0.4663,-1.1567,7.202,15.076,0.977,-148.81,5.729,-59.897
3846,-0.2632,-0.5405,-0.6255,-6.653,-22.4,-0.305,-148.425,6.476,-59.716
3856,-0.2456,-0.5396,-0.6201,-14.16,-23.01,-1.648,-148.458,6.762,-59.584
3866,-0.2456,-0.5396,-0.6201,-18.677,-18.555,-2.686,-148.568,6.965,-59.464
3876,-0.123,-0.5288,-0.7939,-19.897,-10.01,-3.845,-148.727,7.037,-59.376
3886,-0.0615,-0.5166,-0.9194,-17.944,-0.061,-4.395,-148.925,6.976,-59.337
3895,-0.0249,-0.5073,-1.0132,-17.944,-0.061,-4.395,-149.106,6.823,-59.348
3906,-0.0112,-0.502,-1.0649,-6.409,15.259,-3.052,-149.233,6.614,-59.403
3916,-0.021,-0.5078,-1.0737,1.587,18.066,-1.099,-149.277,6.4,-59.485
3926,-0.041,-0.5181,-1.0347,8.484,18.066,1.16,-149.249,6.207,-59.59
3935,-0.041,-0.5181,-1.0347,8.484,18.066,1.16,-149.15,6.059,-59.689
3947,-0.0825,-0.5469,-0.9121,12.512,10.742,2.625,-149.035,5.966,-59.766
3956,-0.0894,-0.5522,-0.8755,9.094,4.7,2.319,-148.936,5.927,-59.81
3975,-0.0928,-0.5537,-0.8462,1.587,-6.104,2.625,-148.826,6.004,-59.815
3986,-0.1094,-0.5352,-0.834,-1.404,-8.972,3.113,-148.821,6.097,-59.799
3996,-0.1074,-0.5186,-0.8477,-2.38,-8.362,3.418,-148.843,6.191,-59.782
4025,-0.1089,-0.4946,-0.9077,4.395,1.343,4.578,-148.859,6.306,-59.854
4065,-0.1499,-0.5068,-0.8657,7.324,9.888,1.221,-148.623,6.136,-60.128
4085,-0.1499,-0.5068,-0.8657,2.625,7.08,-0.549,-148.557,6.031,-60.205
4105,-0.1206,-0.5361,-0.8374,-1.587,2.014,-0.183,-148.568,5.999,-60.238
4135,-0.1157,-0.5171,-0.8696,-10.01,-3.357,-0.366,-148.733,6.13,-60.189
4145,-0.0923,-0.4883,-0.9395,-10.376,-0.488,-1.77,-148.87,6.114,-60.172
4175,-0.0171,-0.4683,-1.0693,0.366,7.751,-4.578,-149.216,5.751,-60.167
4194,-0.0703,-0.4995,-0.9878,6.042,4.089,-4.639,-149.233,5.565,-60.139
4215,-0.1543,-0.5503,-0.7876,5.798,-7.751,-1.526,-149.057,5.663,-60.051
4224,-0.1997,-0.5845,-0.6812,5.798,-7.751,-1.526,-148.931,5.839,-59.98
4245,-0.1519,-0.542,-0.7266,-13.184,-14.526,-1.526,-148.942,6.213,-59.799
4255,-0.0942,-0.5332,-0.8286,-17.273,-7.385,-4.211,-149.09,6.246,-59.727
4285,-0.0273,-0.4854,-1.04,-1.465,10.193,-1.77,-149.529,5.905,-59.727
4304,-0.0728,-0.4805,-1.002,13.306,7.629,3.906,-149.387,5.779,-59.859
4324,-0.1772,-0.5342,-0.7534,13.306,7.629,3.906,-149.095,5.96,-59.941
4354,-0.0698,-0.4536,-0.937,-13.55,-3.723,-4.395,-149.37,6.081,-59.815
4364,-0.0493,-0.458,-0.981,-13.55,-3.723,-4.395,-149.524,6.021,-59.766
4394,-0.0713,-0.5259,-0.9521,8.301,4.089,-1.099,-149.573,5.823,-59.749
4404,-0.1304,-0.5581,-0.8647,9.216,1.709,-0.244,-149.458,5.823,-59.755
4414,-0.1304,-0.5581,-0.8647,4.944,-1.953,-0.244,-149.354,5.883,-59.744
4424,-0.1304,-0.5581,-0.8647,-1.465,-6.775,0.122,-149.26,6.01,-59.705
4434,-0.1304,-0.5581,-0.8647,-1.465,-6.775,0.122,-149.211,6.224,-59.661
4444,-0.2051,-0.5522,-0.6494,-16.357,-15.564,2.869,-149.271,6.443,-59.606
4453,-0.2051,-0.5522,-0.6494,-22.217,-10.864,1.16,-149.447,6.564,-59.557
4464,-0.0332,-0.4521,-0.9565,-23.315,-1.099,-0.671,-149.733,6.52,-59.546
4474,0.0728,-0.4243,-1.1538,-18.066,10.62,-1.709,-150.013,6.323,-59.584
4504,-0.0005,-0.4697,-1.1875,23.499,19.348,5.737,-150.073,5.603,-59.936
4514,-0.0762,-0.5205,-1.0469,31.372,14.648,8.118,-149.81,5.499,-60.079
4523,-0.0762,-0.5205,-1.0469,31.372,14.648,8.118,-149.496,5.521,-60.189
4544,-0.0762,-0.5205,-1.0469,24.597,-3.845,7.996,-148.92,5.933,-60.233
4573,-0.1904,-0.5278,-0.689,-13.123,-16.785,2.869,-148.766,6.801,-60.057
4584,-0.123,-0.4858,-0.8105,-16.541,-6.165,1.038,-148.925,6.866,-60.035
4603,-0.0449,-0.439,-1.0449,-8.118,12.695,-1.465,-149.271,6.63,-60.106
4613,-0.0449,-0.439,-1.0449,0.0,19.287,-1.953,-149.376,6.4,-60.189
4623,-0.021,-0.4565,-1.1187,8.301,22.461,-2.625,-149.387,6.141,-60.276
4633,-0.021,-0.4565,-1.1187,14.648,20.935,-1.892,-149.326,5.916,-60.37
4653,-0.1108,-0.5332,-0.918,18.433,12.573,-1.892,-149.024,5.62,-60.496
4673,-0.1372,-0.5586,-0.8247,8.667,-3.052,-0.549,-148.716,5.641,-60.485
4693,-0.1431,-0.584,-0.7485,0.854,-12.024,1.709,-148.535,5.883,-60.397
4723,-0.126,-0.5464,-0.8433,-4.456,-7.69,3.906,-148.546,6.229,-60.315
4733,-0.1172,-0.5107,-0.8906,-3.296,-5.066,4.883,-148.596,6.301,-60.331
4763,-0.04,-0.4575,-1.0503,2.93,4.517,3.235,-148.705,6.147,-60.48
4773,-0.04,-0.4575,-1.0503,11.78,11.963,0.427,-148.672,6.004,-60.546
4782,-0.04,-0.4575,-1.0503,15.198,11.963,-1.16,-148.59,5.872,-60.601
4792,-0.04,-0.4575,-1.0503,15.564,7.507,-1.953,-148.475,5.795,-60.623
4803,-0.1426,-0.5156,-0.8179,13.184,0.488,-2.625,-148.332,5.806,-60.606
4832,-0.2187,-0.5825,-0.6187,-5.615,-17.944,-1.404,-147.975,6.328,-60.337
4843,-0.1821,-0.584,-0.6553,-11.23,-16.602,-1.648,-147.98,6.515,-60.238
4852,-0.1821,-0.584,-0.6553,-11.23,-16.602,-1.648,-148.079,6.608,-60.161
4862,-0.0415,-0.5171,-0.9214,-15.259,-1.526,-1.892,-148.255,6.564,-60.139
4872,-0.0415,-0.5171,-0.9214,-10.437,8.911,-1.709,-148.436,6.394,-60.172
4912,-0.0586,-0.5229,-1.0293,34.668,16.541,3.784,-148.101,5.504,-60.606
4932,-0.1704,-0.5781,-0.7407,33.142,8.423,4.211,-147.475,5.548,-60.699
4952,-0.2085,-0.5957,-0.6362,1.77,-20.935,1.709,-147.057,6.031,-60.551
4972,-0.2788,-0.6133,-0.4985,-17.456,-24.597,2.319,-146.931,6.735,-60.315
4982,-0.2227,-0.5679,-0.6035,-24.475,-18.311,2.686,-147.057,6.982,-60.238
5012,0.0762,-0.4355,-1.2056,-27.283,-6.226,1.892,-147.92,6.669,-60.381
5022,0.0913,-0.4355,-1.2769,1.648,25.818,1.343,-148.052,6.356,-60.529
5041,0.0396,-0.4546,-1.2476,26.062,22.766,2.625,-147.876,5.834,-60.831
5052,-0.0786,-0.5171,-0.9946,28.992,16.052,1.953,-147.645,5.691,-60.936
5062,-0.1421,-0.5483,-0.8437,24.902,6.775,1.343,-147.393,5.669,-60.98
5091,-0.2163,-0.5771,-0.6274,-5.92,-19.226,-0.122,-147.008,6.18,-60.798
5102,-0.2148,-0.5791,-0.6323,-12.878,-21.484,-0.061,-147.025,6.438,-60.677
5121,-0.1323,-0.5439,-0.8008,-12.878,-21.484,-0.061,-147.283,6.768,-60.513
5131,-0.084,-0.5254,-0.9131,-16.296,-4.395,-0.183,-147.469,6.779,-60.485
5142,-0.043,-0.4868,-1.0376,-12.573,2.502,0.549,-147.667,6.713,-60.507
5151,-0.043,-0.4868,-1.0376,-12.573,2.502,0.549,-147.849,6.564,-60.568
5161,0.0361,-0.4111,-1.2568,-12.573,2.502,0.549,-147.958,6.334,-60.656
5171,0.0488,-0.4253,-1.2646,17.944,21.545,0.427,-147.931,6.075,-60.776
5201,-0.1719,-0.5879,-0.7915,41.931,8.85,4.578,-146.898,5.757,-61.122
5211,-0.1719,-0.5879,-0.7915,30.823,-0.488,1.77,-146.481,5.861,-61.133
5231,-0.2783,-0.6353,-0.4941,-5.371,-24.78,-3.906,-145.953,6.432,-60.875
5241,-0.3159,-0.6289,-0.4048,-22.217,-31.799,-5.676,-145.915,6.828,-60.65
5251,-0.2603,-0.5757,-0.5112,-35.095,-30.212,-6.897,-146.096,7.158,-60.425
5260,-0.2603,-0.5757,-0.5112,-35.095,-30.212,-6.897,-146.442,7.295,-60.249
5281,0.0488,-0.4634,-1.1289,-21.667,8.85,-4.211,-147.145,7.059,-60.183
5300,0.0903,-0.4995,-1.2534,-21.667,8.85,-4.211,-147.316,6.411,-60.452
5311,0.0425,-0.521,-1.188,28.137,29.846,3.784,-147.145,6.103,-60.645
5321,-0.0112,-0.5625,-1.0645,34.119,26.978,4.272,-146.882,5.845,-60.831
5351,-0.1875,-0.5981,-0.6655,11.108,-2.808,1.648,-146.118,5.757,-61.024
5380,-0.1782,-0.5215,-0.687,-22.278,-23.56,0.488,-146.245,6.498,-60.699
5390,-0.1226,-0.5103,-0.791,-20.996,-16.907,0.854,-146.448,6.652,-60.612
5410,-0.0918,-0.5137,-0.8726,-7.629,-3.784,3.052,-146.739,6.757,-60.584
5420,-0.0918,-0.5137,-0.8726,-4.883,1.953,1.892,-146.854,6.707,-60.606
5430,-0.0146,-0.4917,-1.0703,-1.831,7.69,-0.061,-146.964,6.581,-60.65
5460,0.0293,-0.4985,-1.1455,18.494,17.822,-3.052,-146.981,5.944,-60.831
5470,-0.0449,-0.5479,-1.0415,26.611,15.686,-1.892,-146.777,5.768,-60.897
5480,-0.0449,-0.5479,-1.0415,26.611,15.686,-1.892,-146.525,5.68,-60.941
5500,-0.0449,-0.5479,-1.0415,8.179,-14.404,-4.211,-146.036,5.9,-60.804
5510,-0.3013,-0.6655,-0.4663,-6.409,-28.992,-4.333,-145.871,6.257,-60.601
5519,-0.3013,-0.6655,-0.4663,-6.409,-28.992,-4.333,-145.767,6.735,-60.348
5540,-0.3271,-0.5879,-0.4302,-46.997,-35.4,-4.7,-146.025,7.696,-59.826
5559,-0.0449,-0.4458,-0.9292,-44.617,-0.488,-3.601,-147.003,7.806,-59.645
5570,0.0532,-0.4233,-1.1509,-29.846,15.137,-1.221,-147.431,7.57,-59.722
5589,0.1001,-0.4082,-1.2905,-11.658,25.818,0.671,-147.838,6.855,-60.046
5610,0.1001,-0.4082,-1.2905,23.682,31.006,-1.343,-147.706,6.108,-60.392
5620,-0.0254,-0.4966,-1.082,24.292,19.165,-0.977,-147.552,5.894,-60.485
5639,-0.0254,-0.4966,-1.082,17.212,-3.845,0.793,-147.184,5.878,-60.502
5650,-0.1543,-0.5884,-0.7495,8.24,-13.367,0.916,-147.041,6.026,-60.436
5669,-0.1787,-0.5913,-0.688,-12.878,-32.349,-0.977,-146.997,6.608,-60.123
5679,-0.208,-0.5786,-0.6611,-21.973,-35.217,-2.441,-147.107,6.954,-59.908
5689,-0.2046,-0.5522,-0.6934,-27.832,-32.043,-3.479,-147.299,7.262,-59.705
5719,-0.1421,-0.4868,-0.8862,-21.79,-8.667,-3.357,-148.041,7.701,-59.326
5729,-0.1113,-0.4893,-0.9517,-15.259,-1.953,-2.014,-148.233,7.69,-59.299
5749,-0.1113,-0.4893,-0.9517,-3.357,5.92,-0.549,-148.475,7.531,-59.332
5759,-0.0483,-0.4976,-1.0483,1.16,8.606,-0.305,-148.53,7.41,-59.376
5779,-0.0547,-0.5093,-1.0469,12.451,13.733,0.061,-148.475,7.103,-59.502
5789,-0.062,-0.5225,-1.0171,19.104,17.212,0.183,-148.337,6.916,-59.595
5799,-0.0781,-0.5425,-0.9692,23.254,19.47,0.122,-148.145,6.724,-59.7
5818,-0.1089,-0.5654,-0.874,20.569,6.775,0.854,-147.717,6.515,-59.832
5829,-0.1387,-0.5845,-0.8105,15.381,-5.798,2.136,-147.53,6.592,-59.821
5839,-0.1772,-0.5859,-0.7598,9.583,-17.212,4.028,-147.376,6.795,-59.76
5848,-0.1772,-0.5859,-0.7598,4.7,-23.682,5.31,-147.261,7.081,-59.678
5858,-0.1772,-0.5859,-0.7598,1.648,-24.231,5.432,-147.156,7.388,-59.59
5869,-0.2466,-0.5576,-0.6514,1.648,-24.231,5.432,-147.09,7.685,-59.518
5879,-0.248,-0.542,-0.6484,-6.897,-17.151,4.395,-147.079,7.938,-59.464
5888,-0.248,-0.542,-0.6484,-11.475,-11.597,2.258,-147.145,8.113,-59.414
5898,-0.189,-0.4956,-0.7593,-15.93,-5.31,0.488,-147.294,8.201,-59.392
5909,-0.1309,-0.4575,-0.8589,-17.212,2.441,-1.038,-147.513,8.168,-59.398
5928,-0.042,-0.4258,-1.0527,-7.324,16.724,-2.869,-147.914,7.822,-59.496
5949,0.0264,-0.4526,-1.1587,13.672,27.832,-2.747,-148.013,7.191,-59.722
5958,0.0264,-0.4526,-1.1587,13.672,27.832,-2.747,-147.87,6.861,-59.865
5978,-0.0479,-0.5601,-0.9834,30.151,23.071,-1.282,-147.376,6.317,-60.117
5998,-0.1328,-0.5762,-0.7891,13.794,-4.822,-0.977,-146.975,6.246,-60.134
6008,-0.1328,-0.5762,-0.7891,13.794,-4.822,-0.977,-146.799,6.295,-60.101
6018,-0.1792,-0.5737,-0.7139,2.808,-20.63,-0.366,-146.706,6.509,-59.985
6038,-0.2075,-0.5713,-0.6646,2.808,-20.63,-0.366,-146.695,7.18,-59.639
6048,-0.2344,-0.5635,-0.6309,-15.198,-28.931,1.343,-146.744,7.509,-59.491
6058,-0.2261,-0.5674,-0.6401,-15.991,-22.827,1.709,-146.805,7.778,-59.381
6067,-0.2261,-0.5674,-0.6401,-15.991,-22.827,1.709,-146.904,7.965,-59.31
6078,-0.1528,-0.5381,-0.7773,-18.127,-6.226,0.793,-147.063,8.031,-59.282
6088,-0.0845,-0.4946,-0.9209,-17.7,4.333,-0.854,-147.288,7.954,-59.299
6107,-0.0078,-0.4395,-1.0767,-2.686,26.123,-1.831,-147.722,7.41,-59.491
6117,0.1069,-0.3813,-1.3394,-2.686,26.123,-1.831,-147.777,6.987,-59.672
6128,0.1387,-0.3999,-1.3936,32.654,42.725,0.488,-147.645,6.509,-59.908
6157,-0.0513,-0.6362,-0.9604,59.57,22.339,3.784,-146.162,5.471,-60.562
6168,-0.1309,-0.6753,-0.7676,41.138,-2.686,1.038,-145.679,5.515,-60.551
6177,-0.1309,-0.6753,-0.7676,41.138,-2.686,1.038,-145.371,5.834,-60.37
6187,-0.2939,-0.6689,-0.4805,-5.859,-49.805,-3.845,-145.201,6.356,-60.051
6197,-0.3687,-0.6436,-0.376,-20.447,-57.068,-4.578,-145.113,6.993,-59.683
6208,-0.4116,-0.6157,-0.3262,-27.344,-54.199,-3.235,-145.069,7.652,-59.348
6217,-0.4116,-0.6157,-0.3262,-27.344,-54.199,-3.235,-145.063,8.245,-59.079
6237,-0.2578,-0.5752,-0.5498,-31.677,-17.7,2.075,-145.305,8.948,-58.815
6267,0.0234,-0.4375,-1.1587,-18.921,31.189,2.136,-146.332,8.432,-59.15
6277,0.0728,-0.4102,-1.2905,-4.333,41.077,0.488,-146.569,7.982,-59.387
6286,0.0728,-0.4102,-1.2905,-4.333,41.077,0.488,-146.662,7.465,-59.645
6297,0.0728,-0.4102,-1.2905,-4.333,41.077,0.488,-146.618,6.938,-59.897
6307,0.0669,-0.4658,-1.2612,30.396,40.405,-3.113,-146.47,6.487,-60.095
6326,0.0034,-0.5107,-1.1123,20.508,2.869,-3.174,-146.129,6.163,-60.178
6347,-0.2109,-0.5996,-0.6572,3.967,-17.761,-1.709,-145.811,6.454,-59.985
6366,-0.2441,-0.6074,-0.5801,-5.066,-26.001,0.183,-145.662,7.141,-59.672
6377,-0.2437,-0.6343,-0.562,-14.099,-33.142,2.991,-145.64,7.52,-59.507
6387,-0.2197,-0.6377,-0.6094,-18.616,-27.039,2.747,-145.69,7.817,-59.376
6396,-0.2197,-0.6377,-0.6094,-21.545,-17.7,2.441,-145.827,8.004,-59.293
6406,-0.1216,-0.5532,-0.8281,-22.034,-7.996,2.747,-146.047,8.075,-59.271
6416,-0.0591,-0.4976,-0.9736,-18.127,3.54,2.869,-146.299,8.009,-59.315
6427,0.0068,-0.4609,-1.1123,-10.315,14.587,2.197,-146.53,7.822,-59.42
6437,0.0337,-0.4575,-1.1846,0.488,21.606,0.916,-146.662,7.553,-59.546
6446,0.0337,-0.4575,-1.1846,10.071,22.217,0.427,-146.7,7.289,-59.672
6456,-0.0298,-0.4824,-1.1201,15.747,17.395,0.305,-146.656,7.086,-59.771
6486,-0.1787,-0.5562,-0.7852,10.132,-4.761,-4.211,-146.365,7.004,-59.738
6496,-0.2275,-0.5679,-0.6743,4.028,-8.057,-4.395,-146.25,7.119,-59.656
6526,-0.2285,-0.5981,-0.5806,-15.564,-18.311,-0.61,-146.08,7.729,-59.354
6536,-0.1221,-0.5347,-0.7559,-22.095,-13.306,-0.732,-146.277,7.833,-59.271
6546,-0.1221,-0.5347,-0.7559,-22.095,-13.306,-0.732,-146.624,7.723,-59.249
6566,0.1875,-0.394,-1.4971,-4.456,24.719,-8.484,-147.03,7.169,-59.343
6585,0.0205,-0.4741,-1.2881,33.63,19.958,-4.883,-146.569,6.702,-59.496
6596,-0.1157,-0.5249,-1.0049,43.091,3.418,-1.648,-146.14,6.663,-59.502
6606,-0.2271,-0.5957,-0.709,39.124,-15.32,-0.793,-145.734,6.784,-59.409
6615,-0.3408,-0.6475,-0.4683,39.124,-15.32,-0.793,-145.459,7.048,-59.227
6636,-0.3291,-0.6553,-0.3735,-5.432,-32.043,-2.502,-145.355,7.603,-58.804
6655,-0.1411,-0.6118,-0.6768,-17.7,-17.944,-4.456,-145.64,7.899,-58.497
6676,-0.0908,-0.5068,-0.9229,-7.507,-5.798,-1.526,-145.838,8.02,-58.354
6695,-0.145,-0.52,-0.9141,8.545,1.465,2.197,-145.75,8.026,-58.381
6705,-0.1802,-0.5415,-0.8491,9.583,-1.953,3.967,-145.657,8.064,-58.403
6716,-0.1953,-0.543,-0.8047,9.583,-1.953,3.967,-145.635,8.13,-58.403
6725,-0.1953,-0.543,-0.8047,9.583,-1.953,3.967,-145.706,8.196,-58.381
6745,-0.0625,-0.4824,-0.9785,-11.658,2.136,-0.488,-145.953,8.207,-58.365
6765,-0.0474,-0.4961,-1.0059,4.211,11.414,3.784,-145.981,8.075,-58.519
6785,-0.1138,-0.5254,-0.8774,11.169,-0.61,7.385,-145.783,8.091,-58.678
6805,-0.1694,-0.5581,-0.7793,-4.761,-20.02,5.554,-145.767,8.41,-58.601
6815,-0.1714,-0.5366,-0.7871,-13.916,-25.33,5.798,-145.893,8.652,-58.502
6825,-0.146,-0.5205,-0.8325,-19.958,-25.452,4.883,-146.08,8.893,-58.403
6845,-0.1055,-0.5,-0.9277,-21.851,-19.897,3.967,-146.492,9.289,-58.228
6855,-0.1138,-0.4893,-0.936,-21.851,-19.897,3.967,-146.667,9.454,-58.167
6874,-0.1426,-0.4941,-0.9048,-15.625,-15.137,3.906,-146.942,9.75,-58.074
6914,-0.1763,-0.5049,-0.833,-17.944,-20.874,6.653,-147.733,10.547,-57.821
6924,-0.1763,-0.5049,-0.833,-30.396,-18.066,1.892,-148.024,10.712,-57.739
6935,-0.1763,-0.5049,-0.833,-30.396,-18.066,1.892,-148.31,10.86,-57.662
6954,-0.1284,-0.458,-0.9946,-19.531,-14.587,2.625,-148.749,11.129,-57.541
6964,-0.1792,-0.4858,-0.9194,-12.634,-18.311,4.761,-148.865,11.31,-57.486
6975,-0.2187,-0.522,-0.8115,-8.24,-23.499,7.996,-148.936,11.558,-57.437
6994,-0.2817,-0.5933,-0.6196,-10.193,-34.241,13.367,-149.09,12.222,-57.31
7004,-0.2817,-0.5933,-0.6196,-16.785,-35.339,14.282,-149.244,12.601,-57.25
7024,-0.2842,-0.5493,-0.6377,-16.785,-35.339,14.282,-149.788,13.217,-57.184
7044,-0.1367,-0.3965,-1.0986,-28.198,-0.366,6.226,-150.419,13.409,-57.255
7084,-0.1597,-0.4404,-1.1978,16.235,17.578,1.709,-150.705,12.816,-57.662
7104,-0.1787,-0.481,-1.1367,28.381,11.292,-0.61,-150.309,12.508,-57.788
7114,-0.2397,-0.5508,-0.9199,28.381,11.292,-0.61,-150.024,12.453,-57.81
7124,-0.2632,-0.5547,-0.8135,22.644,-1.038,-1.587,-149.755,12.48,-57.794
7144,-0.2769,-0.5493,-0.7417,8.118,-16.113,-1.465,-149.337,12.777,-57.629
7164,-0.3184,-0.5376,-0.623,-4.578,-21.545,2.136,-149.139,13.315,-57.431
7183,-0.2798,-0.4722,-0.6699,-12.634,-11.108,3.906,-149.299,13.672,-57.338
7194,-0.1943,-0.3911,-0.8862,-12.634,-11.108,3.906,-149.518,13.705,-57.36
7204,-0.1333,-0.3613,-1.0186,-10.925,5.066,2.38,-149.749,13.607,-57.404
7213,-0.1333,-0.3613,-1.0186,-3.357,12.268,0.916,-149.925,13.42,-57.475
7234,-0.1387,-0.4067,-1.0933,15.991,17.639,-0.977,-149.963,12.98,-57.645
7253,-0.1899,-0.4561,-1.001,19.897,13.794,-1.526,-149.678,12.75,-57.722
7263,-0.2832,-0.5063,-0.7856,13.184,2.869,-4.456,-149.518,12.744,-57.695
7274,-0.3169,-0.5225,-0.7041,7.996,0.122,-5.554,-149.365,12.788,-57.645
7293,-0.3271,-0.5376,-0.6543,-2.38,0.671,-4.883,-149.145,12.898,-57.557
7303,-0.3081,-0.5522,-0.6348,-8.789,-1.404,-3.601,-149.117,12.964,-57.519
7314,-0.2563,-0.5273,-0.7002,-15.93,-4.333,-2.38,-149.205,13.019,-57.475
7323,-0.2563,-0.5273,-0.7002,-15.93,-4.333,-2.38,-149.381,13.052,-57.431
7343,-0.1509,-0.4238,-1.0039,-21.79,-2.991,-0.977,-149.886,12.98,-57.415
7363,-0.1348,-0.3931,-1.0864,-4.333,12.878,-0.305,-150.298,12.667,-57.519
7383,-0.1719,-0.4209,-1.0693,10.559,14.221,-1.648,-150.37,12.305,-57.651
7403,-0.2031,-0.4497,-0.999,10.559,14.221,-1.648,-150.211,12.068,-57.689
7413,-0.2397,-0.5059,-0.8379,8.728,7.141,-5.554,-150.106,11.997,-57.678
7423,-0.2612,-0.5215,-0.769,4.517,3.357,-5.432,-150.013,11.981,-57.645
7443,-0.2568,-0.5254,-0.7275,-8.057,-5.92,-4.761,-149.969,12.074,-57.519
7453,-0.2383,-0.5107,-0.7773,-13.123,-10.376,-3.174,-150.051,12.167,-57.437
7493,-0.1714,-0.4858,-1.0054,-8.728,0.305,-1.831,-150.601,12.173,-57.233
7512,-0.1797,-0.4795,-1.0122,1.038,6.348,0.305,-150.71,12.03,-57.277
7533,-0.1973,-0.4756,-0.9585,5.981,7.874,2.075,-150.688,11.887,-57.387
7552,-0.1885,-0.4766,-0.9512,5.981,7.874,2.075,-150.612,11.717,-57.48
7562,-0.1875,-0.4741,-0.9321,7.629,5.493,-0.061,-150.562,11.651,-57.508
7573,-0.1875,-0.4741,-0.9321,7.874,3.052,-0.122,-150.507,11.607,-57.524
7582,-0.1914,-0.5059,-0.8774,7.874,3.052,-0.122,-150.425,11.602,-57.519
7602,-0.2134,-0.519,-0.8359,5.676,-4.944,0.671,-150.282,11.739,-57.475
7622,-0.2236,-0.5,-0.7969,-2.991,-8.972,2.38,-150.293,11.948,-57.42
7642,-0.1548,-0.4346,-0.9927,-0.183,1.16,0.916,-150.419,11.931,-57.426
7662,-0.1543,-0.4321,-1.0532,-0.183,1.16,0.916,-150.441,11.7,-57.519
7672,-0.1816,-0.4668,-1.0117,17.883,12.695,0.549,-150.326,11.569,-57.59
7682,-0.2168,-0.4907,-0.9375,20.752,10.681,1.282,-150.156,11.481,-57.656
7702,-0.2544,-0.5195,-0.792,20.752,10.681,1.282,-149.821,11.437,-57.711
7712,-0.2744,-0.5215,-0.7368,5.859,-2.747,-0.549,-149.705,11.514,-57.695
7722,-0.2808,-0.5259,-0.707,0.061,-8.179,-0.61,-149.634,11.64,-57.645
7752,-0.189,-0.4692,-0.8555,-13.0,-9.216,-2.136,-149.826,11.964,-57.431
7771,-0.1636,-0.4517,-0.9399,-2.808,0.732,-0.244,-150.046,11.915,-57.398
7792,-0.1484,-0.4805,-1.0229,8.484,6.042,1.099,-150.046,11.733,-57.469
7811,-0.1841,-0.4951,-0.9619,8.484,6.042,1.099,-149.903,11.662,-57.546
7821,-0.2319,-0.4854,-0.8491,8.24,3.296,1.526,-149.826,11.656,-57.574
7832,-0.2349,-0.4824,-0.8086,6.104,2.808,1.404,-149.766,11.662,-57.601
7861,-0.2046,-0.4712,-0.8311,-2.686,-1.831,-0.183,-149.777,11.695,-57.607
7872,-0.1802,-0.4849,-0.8794,-3.235,-3.784,0.549,-149.815,11.711,-57.596
7901,-0.2246,-0.5195,-0.8335,-5.249,-4.211,0.305,-149.914,11.849,-57.541
7921,-0.2285,-0.4971,-0.8428,-7.874,-2.869,0.122,-150.084,11.865,-57.519
7932,-0.1982,-0.4727,-0.8999,-8.362,4.639,-2.136,-150.189,11.805,-57.524
7941,-0.1982,-0.4727,-0.8999,-6.165,7.324,-2.014,-150.298,11.717,-57.541
7961,-0.1621,-0.4795,-0.98,-6.165,7.324,-2.014,-150.403,11.415,-57.634
7971,-0.1885,-0.4897,-0.9492,4.517,10.498,-0.061,-150.392,11.31,-57.689
7981,-0.2007,-0.4937,-0.9141,4.883,7.324,-0.122,-150.359,11.245,-57.722
8011,-0.228,-0.4888,-0.8521,-0.366,-1.709,0.366,-150.381,11.31,-57.711
8030,-0.1973,-0.4634,-0.8848,-4.028,-7.385,0.793,-150.507,11.42,-57.651
8051,-0.1577,-0.4697,-0.9761,1.526,-2.38,1.648,-150.579,11.442,-57.634
8070,-0.1533,-0.4834,-0.9839,1.526,-2.38,1.648,-150.529,11.376,-57.678
8080,-0.1875,-0.5127,-0.9307,10.986,2.686,1.587,-150.43,11.343,-57.706
8091,-0.2314,-0.5215,-0.8555,10.071,0.427,2.014,-150.32,11.371,-57.728
8110,-0.2749,-0.52,-0.7197,1.16,-5.188,0.305,-150.145,11.536,-57.706
8120,-0.2886,-0.5117,-0.6851,-4.7,-8.362,-0.122,-150.112,11.678,-57.662
8131,-0.2617,-0.4883,-0.6982,-10.742,-8.545,-0.61,-150.156,11.805,-57.612
8160,-0.1455,-0.4517,-0.9365,-12.756,2.563,1.16,-150.546,11.854,-57.59
8180,-0.1099,-0.4404,-1.0586,-3.479,12.634,2.747,-150.848,11.558,-57.739
8190,-0.0903,-0.4365,-1.1978,-3.479,12.634,2.747,-150.919,11.354,-57.832
8200,-0.1108,-0.4517,-1.1855,10.742,16.846,1.282,-150.914,11.151,-57.925
8220,-0.1543,-0.4756,-1.1177,10.742,16.846,1.282,-150.677,10.909,-58.068
8230,-0.2529,-0.5083,-0.8726,17.456,1.099,0.061,-150.496,10.931,-58.074
8240,-0.2832,-0.5244,-0.7622,11.841,-10.132,-0.854,-150.32,11.074,-58.013
8260,-0.3052,-0.5225,-0.665,-4.944,-26.917,-1.465,-150.084,11.656,-57.75
8270,-0.3262,-0.5142,-0.5591,-11.841,-29.297,-0.916,-150.046,12.019,-57.596
8280,-0.3169,-0.5049,-0.5483,-18.066,-26.611,-0.427,-150.068,12.36,-57.453
8310,-0.1416,-0.4072,-0.8921,-24.902,3.418,-0.183,-150.705,12.629,-57.338
8329,-0.0625,-0.3477,-1.2163,-10.986,23.804,0.122,-151.287,12.129,-57.524
8340,-0.0586,-0.3809,-1.2881,4.456,29.602,0.732,-151.397,11.777,-57.673
8350,-0.0747,-0.4272,-1.2949,17.456,30.09,0.61,-151.359,11.431,-57.827
8380,-0.2319,-0.5278,-0.9668,23.865,10.071,0.671,-150.82,10.822,-58.123
8390,-0.2729,-0.5483,-0.8325,23.315,1.038,0.793,-150.551,10.865,-58.134
8419,-0.3091,-0.5845,-0.562,23.315,1.038,0.793,-149.755,11.525,-57.969
8430,-0.3091,-0.5752,-0.5229,-7.019,-25.146,0.61,-149.628,11.843,-57.843
8439,-0.3091,-0.5752,-0.5229,-7.019,-25.146,0.61,-149.639,12.156,-57.717
8459,-0.1519,-0.4307,-0.7998,-27.71,-9.338,0.977,-150.106,12.431,-57.574
8479,-0.0615,-0.4331,-1.1201,-8.789,11.414,7.568,-150.562,12.206,-57.744
8489,-0.0542,-0.4331,-1.2109,0.122,19.47,8.85,-150.699,11.986,-57.925
8499,-0.0869,-0.4277,-1.2407,7.629,23.071,8.972,-150.765,11.75,-58.118
8509,-0.0869,-0.4277,-1.2407,7.629,23.071,8.972,-150.754,11.525,-58.299
8529,-0.1895,-0.4668,-1.0977,7.629,23.071,8.972,-150.584,11.255,-58.513
8569,-0.314,-0.478,-0.6865,-4.089,-14.404,-7.935,-150.194,11.58,-58.206
8588,-0.3232,-0.4629,-0.6353,-10.437,-23.621,-7.019,-150.227,12.178,-57.832
8599,-0.3232,-0.4629,-0.6353,-18.005,-28.503,-2.502,-150.293,12.508,-57.667
8609,-0.2778,-0.479,-0.6509,-19.47,-23.865,0.0,-150.392,12.777,-57.546
8639,-0.1323,-0.4155,-0.9771,-18.921,-5.981,3.052,-150.969,12.925,-57.513
8658,-0.1143,-0.3882,-1.0972,-0.854,14.099,1.343,-151.293,12.596,-57.667
8668,-0.1235,-0.4277,-1.1655,-0.854,14.099,1.343,-151.331,12.387,-57.739
8679,-0.1445,-0.4609,-1.1338,11.414,13.733,-2.808,-151.293,12.2,-57.783
8698,-0.1733,-0.4927,-1.0742,11.414,13.733,-2.808,-151.084,11.975,-57.761
8708,-0.2388,-0.5293,-0.9009,12.695,1.587,-5.859,-150.936,11.942,-57.711
8718,-0.27,-0.5259,-0.814,11.841,0.671,-4.944,-150.771,11.948,-57.673
8738,-0.2788,-0.5093,-0.6919,11.292,1.099,-3.113,-150.43,12.047,-57.64
8748,-0.2759,-0.5171,-0.6616,7.629,-7.019,2.136,-150.266,12.178,-57.623
8758,-0.2646,-0.5244,-0.6558,3.052,-12.146,3.845,-150.139,12.354,-57.596
8788,-0.2017,-0.4526,-0.8105,-15.442,-7.568,0.793,-150.331,12.739,-57.48
8808,-0.1729,-0.4209,-0.9092,-15.442,-7.568,0.793,-150.732,12.612,-57.48
8828,-0.127,-0.4209,-1.1309,-3.052,12.207,-2.625,-151.04,12.266,-57.546
8847,-0.1792,-0.457,-1.0859,-3.052,12.207,-2.625,-151.117,11.959,-57.59
8858,-0.2031,-0.4824,-1.0337,6.47,7.629,-5.066,-151.089,11.849,-57.579
8868,-0.2358,-0.499,-0.9673,6.409,5.371,-6.104,-151.035,11.777,-57.552
8877,-0.2358,-0.499,-0.9673,6.409,5.371,-6.104,-150.969,11.733,-57.513
8887,-0.2773,-0.5024,-0.8154,6.409,5.371,-6.104,-150.892,11.722,-57.464
8898,-0.2783,-0.499,-0.7539,2.991,-1.77,-5.31,-150.804,11.766,-57.409
8908,-0.2783,-0.4976,-0.7183,0.061,-9.094,-3.174,-150.732,11.887,-57.338
8918,-0.2783,-0.4976,-0.7183,-2.502,-14.954,-0.793,-150.677,12.063,-57.255
8938,-0.2334,-0.5112,-0.7446,-10.071,-16.479,1.587,-150.683,12.426,-57.107
8957,-0.1841,-0.4653,-0.8623,-16.418,-8.179,2.563,-150.958,12.612,-57.041
8967,-0.1621,-0.4429,-0.937,-15.442,-2.502,2.319,-151.15,12.607,-57.047
8978,-0.1377,-0.4307,-1.0073,-11.475,2.869,1.526,-151.331,12.535,-57.074
9007,-0.1553,-0.4238,-1.0571,4.089,10.742,-0.793,-151.606,12.129,-57.211
9047,-0.252,-0.4775,-0.8765,13.794,8.911,-2.075,-151.232,11.75,-57.349
9067,-0.2524,-0.4902,-0.8066,7.751,-1.221,-1.587,-151.002,11.766,-57.332
9087,-0.249,-0.4863,-0.7773,-2.808,-13.306,-0.732,-150.919,12.014,-57.211
9107,-0.2461,-0.4829,-0.7808,-8.301,-13.916,-0.61,-150.985,12.31,-57.057
9117,-0.2256,-0.4941,-0.8037,-9.155,-10.681,-0.549,-151.035,12.409,-56.997
9136,-0.2139,-0.502,-0.8208,-8.362,-1.16,0.916,-151.161,12.464,-56.97
9157,-0.1699,-0.4873,-0.9365,-5.798,8.484,1.465,-151.32,12.316,-57.057
9176,-0.1255,-0.4609,-1.0532,0.427,15.686,1.221,-151.469,11.981,-57.217
9197,-0.145,-0.4536,-1.0811,11.841,19.226,2.991,-151.458,11.574,-57.442
9216,-0.1714,-0.4639,-1.042,20.386,14.648,4.089,-151.199,11.277,-57.678
9226,-0.2183,-0.4863,-0.9258,19.775,7.507,4.639,-151.029,11.239,-57.755
9237,-0.229,-0.4907,-0.8799,17.151,-1.282,5.493,-150.864,11.294,-57.799
9256,-0.2578,-0.4854,-0.8022,17.151,-1.282,5.493,-150.595,11.64,-57.777
9266,-0.2788,-0.4834,-0.77,6.592,-19.043,5.31,-150.491,11.887,-57.728
9277,-0.2949,-0.4771,-0.7441,3.174,-19.226,4.578,-150.419,12.14,-57.673
9286,-0.2959,-0.4722,-0.7334,3.174,-19.226,4.578,-150.381,12.36,-57.618
9296,-0.2886,-0.4736,-0.7349,3.174,-19.226,4.578,-150.375,12.513,-57.568
9306,-0.2808,-0.4648,-0.7539,-8.667,-6.348,-1.892,-150.43,12.607,-57.519
9316,-0.2607,-0.4521,-0.79,-12.634,-2.258,-3.357,-150.546,12.645,-57.475
9326,-0.2607,-0.4521,-0.79,-14.16,1.587,-4.211,-150.699,12.618,-57.448
9346,-0.1509,-0.4473,-0.9844,-9.521,10.437,-4.822,-151.013,12.365,-57.442
9366,-0.1128,-0.4507,-1.0542,-9.521,10.437,-4.822,-151.188,11.92,-57.53
9376,-0.1128,-0.4507,-1.0542,7.813,20.264,-2.136,-151.183,11.656,-57.612
9386,-0.105,-0.4819,-1.1001,14.648,22.4,-0.488,-151.111,11.393,-57.717
9395,-0.105,-0.4819,-1.1001,14.648,22.4,-0.488,-150.98,11.151,-57.838
9416,-0.1758,-0.5024,-0.9146,14.648,22.4,-0.488,-150.634,10.898,-58.008
9426,-0.1758,-0.5024,-0.9146,15.198,-5.371,3.601,-150.469,10.97,-58.013
9435,-0.1758,-0.5024,-0.9146,10.437,-17.273,3.906,-150.326,11.168,-57.964
9445,-0.2529,-0.5093,-0.7524,10.437,-17.273,3.906,-150.205,11.442,-57.876
9456,-0.2529,-0.5093,-0.7524,1.892,-25.574,3.54,-150.117,11.728,-57.777
9475,-0.27,-0.5078,-0.6992,-4.517,-18.494,1.038,-150.013,12.217,-57.596
9496,-0.2671,-0.4829,-0.7202,-11.902,-6.409,0.61,-150.101,12.486,-57.508
9515,-0.2187,-0.4546,-0.8228,-15.32,3.235,0.366,-150.386,12.508,-57.524
9525,-0.186,-0.4521,-0.8828,-15.32,3.235,0.366,-150.568,12.426,-57.568
9545,-0.1626,-0.4585,-0.9365,-12.207,11.658,1.343,-150.87,12.134,-57.728
9555,-0.1626,-0.4585,-0.9365,-3.357,17.212,2.441,-150.969,11.953,-57.838
9565,-0.1523,-0.4663,-1.0303,0.427,19.775,2.93,-151.04,11.755,-57.958
9585,-0.1636,-0.4629,-1.0376,7.385,21.179,3.723,-151.078,11.365,-58.233
9605,-0.2021,-0.4526,-0.9917,9.46,16.052,3.479,-151.024,11.063,-58.475
9615,-0.2095,-0.4546,-0.9658,9.46,16.052,3.479,-150.996,11.008,-58.541
9625,-0.2095,-0.4546,-0.9658,9.46,16.052,3.479,-150.98,11.063,-58.541
9635,-0.2236,-0.4722,-0.918,1.343,-13.855,2.319,-150.974,11.206,-58.497
9645,-0.2275,-0.478,-0.8945,-1.526,-20.02,1.709,-150.985,11.398,-58.409
9675,-0.2305,-0.4922,-0.8555,-2.625,-17.09,-1.465,-150.974,11.953,-58.107
9705,-0.2148,-0.4751,-0.8535,2.93,-2.38,-0.366,-150.919,12.145,-57.975
9715,-0.1953,-0.4795,-0.8716,4.333,1.709,-0.122,-150.881,12.118,-57.98
9734,-0.1934,-0.4795,-0.8755,5.127,6.531,0.488,-150.804,12.008,-58.041
9744,-0.1924,-0.479,-0.8667,5.737,8.301,0.671,-150.76,11.926,-58.09
9755,-0.1968,-0.4839,-0.8521,6.653,9.644,1.404,-150.705,11.843,-58.151
9774,-0.2026,-0.4888,-0.8384,6.653,9.644,1.404,-150.562,11.656,-58.304
9784,-0.2026,-0.4888,-0.8384,5.615,12.451,2.136,-150.502,11.558,-58.387
9824,-0.2095,-0.5332,-0.8193,-6.531,0.793,3.723,-150.568,11.53,-58.568
9844,-0.2026,-0.5249,-0.853,-6.531,0.793,3.723,-150.848,11.624,-58.607
9864,-0.1616,-0.4453,-0.9937,-11.597,3.235,3.601,-151.199,11.58,-58.683
9884,-0.1611,-0.4316,-1.0293,-11.597,3.235,3.601,-151.375,11.409,-58.843
9894,-0.1699,-0.4453,-1.0215,10.01,12.085,4.517,-151.342,11.299,-58.942
9904,-0.1792,-0.4595,-0.9961,14.465,13.062,4.089,-151.26,11.184,-59.046
9925,-0.2109,-0.4692,-0.9287,15.564,9.521,3.235,-151.029,11.025,-59.211
9934,-0.2109,-0.4692,-0.9287,14.343,5.737,2.502,-150.908,10.997,-59.266
9953,-0.2295,-0.4766,-0.8677,11.597,1.404,1.648,-150.716,11.074,-59.282
9974,-0.2295,-0.4766,-0.8677,3.418,-6.592,1.221,-150.688,11.294,-59.222
9993,-0.2559,-0.4419,-0.8257,-4.944,-8.606,-0.366,-150.787,11.519,-59.128
10004,-0.2559,-0.4419,-0.8257,-4.761,-6.042,-0.793,-150.848,11.58,-59.09
10014,-0.2119,-0.4556,-0.8862,-4.15,-2.808,-1.343,-150.903,11.607,-59.068
10033,-0.2007,-0.459,-0.8989,-2.808,2.38,-2.014,-151.002,11.547,-59.046
10044,-0.1851,-0.4717,-0.9126,-1.892,3.357,-2.014,-151.035,11.497,-59.046
10054,-0.188,-0.4771,-0.9116,-1.221,3.601,-1.892,-151.062,11.448,-59.046
10073,-0.1831,-0.4883,-0.9019,-0.427,4.272,-1.038,-151.089,11.338,-59.062
10083,-0.1821,-0.4946,-0.8965,0.122,3.967,-0.305,-151.089,11.288,-59.079
10103,-0.1812,-0.5029,-0.8906,0.793,2.869,0.183,-151.068,11.239,-59.106
10123,-0.1865,-0.5063,-0.8696,-0.305,-0.793,0.977,-151.057,11.261,-59.106
10143,-0.1899,-0.5049,-0.8701,-2.808,-4.578,0.305,-151.078,11.327,-59.073
10163,-0.1895,-0.5,-0.8955,-5.066,-5.798,-0.183,-151.15,11.409,-59.019
10183,-0.2119,-0.4575,-0.9014,-4.333,-6.226,0.61,-151.254,11.519,-58.964
10193,-0.2207,-0.4395,-0.8999,-0.305,-3.418,1.587,-151.282,11.563,-58.958
10203,-0.2212,-0.4399,-0.9019,3.845,-0.916,2.747,-151.276,11.596,-58.98
10233,-0.2173,-0.4771,-0.8857,9.888,2.686,4.639,-151.084,11.618,-59.123
10252,-0.2187,-0.4795,-0.8735,3.113,1.221,1.404,-150.996,11.624,-59.178
10263,-0.2187,-0.4795,-0.8735,-0.183,-0.305,0.671,-150.996,11.646,-59.183
10273,-0.2354,-0.4634,-0.8437,-2.625,-1.709,0.854,-151.029,11.689,-59.183
10292,-0.2349,-0.4683,-0.8574,-4.761,-1.953,1.587,-151.128,11.772,-59.183
10303,-0.2217,-0.4614,-0.8892,-4.517,-0.793,1.831,-151.194,11.794,-59.2
10313,-0.2227,-0.4634,-0.9019,-2.991,1.221,1.587,-151.243,11.794,-59.216
10332,-0.207,-0.4746,-0.9067,-0.305,6.348,0.061,-151.298,11.711,-59.277
10353,-0.2158,-0.5,-0.8706,1.465,6.531,-0.61,-151.276,11.58,-59.332
10382,-0.2471,-0.5229,-0.7827,-11.108,-1.709,-1.648,-151.282,11.624,-59.332
10422,-0.2705,-0.4502,-0.7402,-39.001,-7.141,-2.136,-152.292,12.057,-59.09
10442,-0.2705,-0.4502,-0.7402,-28.015,11.475,-5.249,-153.116,11.777,-59.073
10452,-0.0737,-0.3647,-1.2832,-15.991,17.151,-4.7,-153.391,11.519,-59.106
10472,-0.0781,-0.373,-1.3076,-2.075,20.752,-4.333,-153.495,10.97,-59.205
10492,-0.2363,-0.5195,-0.8765,15.93,0.732,-6.836,-153.122,10.794,-59.15
10502,-0.3032,-0.5532,-0.6929,6.775,-12.329,-6.409,-152.919,10.953,-59.035
10532,-0.3281,-0.5181,-0.5386,-39.124,-29.602,-7.996,-152.886,12.019,-58.475
10542,-0.2617,-0.4736,-0.6587,-50.415,-21.973,-12.817,-153.254,12.217,-58.255
10551,-0.1826,-0.418,-0.8057,-54.382,-12.695,-17.944,-153.743,12.239,-58.035
10562,-0.1167,-0.3994,-0.9517,-54.382,-12.695,-17.944,-154.226,12.107,-57.794
10572,-0.0649,-0.415,-1.0439,-43.701,3.296,-29.846,-154.644,11.86,-57.535
10591,-0.0547,-0.4551,-1.1045,-34.912,4.7,-33.508,-155.303,11.31,-56.97
10602,-0.0713,-0.4658,-1.0962,-41.199,3.418,-37.17,-155.665,11.047,-56.64
10621,-0.104,-0.4829,-1.0605,-41.199,3.418,-37.17,-156.857,10.673,-55.827
10631,-0.1553,-0.3623,-1.0044,-41.199,3.418,-37.17,-157.802,10.602,-55.327
10642,-0.1875,-0.2939,-0.9761,-109.436,-20.874,-50.72,-158.84,10.602,-54.767
10651,-0.1875,-0.2939,-0.9761,-109.436,-20.874,-50.72,-159.873,10.69,-54.196
10661,-0.1875,-0.2939,-0.9761,-91.797,-28.687,-43.335,-160.768,10.838,-53.685
10671,-0.2427,-0.1938,-0.9453,-69.092,-28.687,-33.142,-161.455,11.03,-53.267
10681,-0.2471,-0.2251,-0.9434,-43.64,-24.353,-21.301,-161.884,11.228,-52.982
10701,-0.2402,-0.272,-0.939,-5.127,-9.521,-3.54,-162.103,11.486,-52.762
10711,-0.2266,-0.3506,-0.938,-0.366,-1.038,1.099,-162.087,11.508,-52.767
10721,-0.2261,-0.3379,-0.9458,-2.686,6.287,3.479,-162.103,11.475,-52.822
10741,-0.2148,-0.2783,-0.9551,-2.686,6.287,3.479,-162.318,11.239,-52.976
10751,-0.21,-0.2554,-0.9766,-13.184,18.433,1.038,-162.493,11.074,-53.042
10771,-0.2051,-0.2339,-0.9961,-17.273,16.541,-4.639,-162.911,10.728,-53.086
10791,-0.1997,-0.2222,-1.0283,-16.785,7.019,-6.287,-163.339,10.503,-53.026
10831,-0.1558,-0.2925,-1.0483,-4.211,-9.888,-3.54,-163.751,10.569,-52.784
10850,-0.127,-0.2925,-1.0884,-4.211,-9.888,-3.54,-163.74,10.646,-52.745
10861,-0.1265,-0.3018,-1.0889,11.047,-2.014,3.235,-163.641,10.635,-52.767
10871,-0.1353,-0.3242,-1.0693,16.418,1.831,4.15,-163.482,10.591,-52.817
10880,-0.1353,-0.3242,-1.0693,16.418,1.831,4.15,-163.301,10.53,-52.872
10901,-0.188,-0.3315,-0.9834,13.916,6.104,2.075,-162.971,10.415,-52.96
10921,-0.2173,-0.3184,-0.9487,8.362,3.967,-0.366,-162.768,10.377,-52.987
10941,-0.2598,-0.2822,-0.8789,8.362,3.967,-0.366,-162.592,10.432,-53.004
10951,-0.2563,-0.2603,-0.8931,10.315,0.183,2.136,-162.504,10.486,-53.026
10970,-0.2158,-0.2329,-0.9497,10.986,1.343,4.883,-162.35,10.525,-53.141
10990,-0.1675,-0.209,-1.0435,17.395,7.385,5.066,-162.131,10.3,-53.306
11010,-0.1128,-0.2749,-1.1504,32.776,16.479,5.493,-161.686,9.91,-53.514
11050,-0.2842,-0.4541,-0.686,-2.38,-9.888,-4.15,-160.631,10.02,-53.575
11060,-0.3027,-0.457,-0.6045,-16.907,-16.418,-6.226,-160.598,10.267,-53.459
11070,-0.3027,-0.457,-0.6045,-16.907,-16.418,-6.226,-160.692,10.558,-53.339
11090,-0.1606,-0.3188,-0.7959,-28.381,-14.587,5.188,-161.136,10.959,-53.251
11109,-0.0645,-0.2905,-0.9697,-8.728,-7.507,24.475,-161.532,11.052,-53.575
11120,-0.0645,-0.2905,-0.9697,-8.728,-7.507,24.475,-161.664,11.124,-53.833
11139,-0.0479,-0.3032,-1.3037,0.0,-11.292,26.855,-161.862,11.316,-54.196
11160,-0.2769,-0.2651,-1.0718,-4.456,-3.723,2.014,-162.054,11.442,-54.25
11170,-0.356,-0.2588,-0.9229,3.052,0.488,1.16,-162.048,11.53,-54.267
11189,-0.2871,-0.3481,-0.8247,17.273,5.859,4.333,-161.702,11.613,-54.36
11200,-0.2358,-0.3652,-0.8545,13.611,7.324,5.92,-161.532,11.591,-54.443
11219,-0.1934,-0.3589,-0.915,0.854,14.404,-0.671,-161.45,11.343,-54.558
11259,-0.2729,-0.1787,-0.9883,-1.892,4.517,-6.958,-161.807,10.865,-54.437
11269,-0.2695,-0.1772,-0.9673,0.61,0.977,-6.958,-161.867,10.876,-54.377
11289,-0.2515,-0.2109,-0.9395,0.427,-2.808,-7.874,-161.895,10.942,-54.223
11309,-0.1758,-0.2964,-0.958,-7.385,-3.784,-7.568,-161.993,10.964,-54.042
11319,-0.1689,-0.313,-0.9766,-8.728,-4.944,-6.47,-162.065,10.975,-53.965
11329,-0.1567,-0.3208,-1.021,-8.728,-4.944,-6.47,-162.142,10.992,-53.893
11339,-0.144,-0.3047,-1.0503,-8.85,-6.287,-3.54,-162.241,11.003,-53.844
11349,-0.1636,-0.312,-1.0391,-7.507,-6.714,-3.113,-162.312,11.036,-53.789
11369,-0.1611,-0.2979,-1.0366,-6.287,-6.348,-5.981,-162.438,11.091,-53.646
11379,-0.1719,-0.3184,-1.0034,-5.249,-5.92,-6.592,-162.477,11.107,-53.564
11389,-0.1846,-0.3447,-0.9629,-4.7,-6.836,-6.409,-162.482,11.146,-53.481
11408,-0.1553,-0.3457,-0.9385,-6.226,-5.92,-4.944,-162.521,11.184,-53.333
11469,-0.2617,-0.3994,-0.7754,-2.563,1.587,7.324,-162.307,11.382,-53.41
11478,-0.2617,-0.3994,-0.7754,-2.563,1.587,7.324,-162.334,11.426,-53.509
11488,-0.2617,-0.3994,-0.7754,-7.385,8.118,10.254,-162.466,11.36,-53.635
11518,-0.1294,-0.2173,-1.2568,2.991,8.362,7.263,-162.757,10.92,-53.965
11528,-0.1294,-0.2173,-1.2568,2.991,8.362,7.263,-162.773,10.849,-54.042
11558,-0.312,-0.2964,-0.9971,8.545,3.052,5.554,-162.477,11.063,-54.261
11568,-0.3413,-0.3994,-0.7188,17.639,0.61,14.771,-162.213,11.217,-54.41
11578,-0.2871,-0.4692,-0.6465,15.381,2.136,20.691,-161.922,11.343,-54.613
11588,-0.2871,-0.4692,-0.6465,3.845,1.587,23.682,-161.724,11.453,-54.849
11598,-0.2871,-0.4692,-0.6465,3.845,1.587,23.682,-161.735,11.525,-55.036
11608,-0.2002,-0.3906,-0.7339,-32.837,5.737,10.681,-161.988,11.525,-55.162
11628,-0.1792,-0.2627,-0.8755,-41.138,22.034,3.235,-162.977,11.173,-55.349
11638,-0.04,-0.0825,-1.2632,-23.987,30.396,4.761,-163.378,10.805,-55.486
11648,0.0249,-0.0776,-1.4438,-2.319,32.532,8.179,-163.564,10.404,-55.662
11657,0.0249,-0.0776,-1.4438,13.367,28.381,10.437,-163.466,10.162,-55.844
11668,-0.0054,-0.1392,-1.478,22.278,20.02,9.766,-163.268,9.998,-55.997
11678,-0.0884,-0.188,-1.3687,26.428,7.813,7.874,-163.021,9.943,-56.096
11697,-0.2539,-0.2959,-1.0044,26.428,7.813,7.874,-162.543,10.074,-56.08
11708,-0.3296,-0.2935,-0.8521,13.672,-17.578,-6.775,-162.383,10.223,-55.964
11718,-0.3535,-0.2822,-0.75,5.981,-18.372,-9.949,-162.296,10.366,-55.811
11737,-0.3516,-0.3262,-0.6816,0.305,-15.869,-7.874,-162.219,10.624,-55.536
11747,-0.2944,-0.3975,-0.6719,-5.249,-14.648,-4.761,-162.257,10.745,-55.443
11758,-0.2373,-0.3599,-0.7466,-13.062,-11.047,-2.38,-162.372,10.844,-55.388
11777,-0.2373,-0.3599,-0.7466,-18.372,-0.488,-0.305,-162.735,10.898,-55.355
11787,-0.0239,-0.1831,-1.2075,-13.916,2.808,-0.183,-162.878,10.871,-55.36
11807,-0.0049,-0.1772,-1.3149,-0.244,-1.648,-0.366,-162.955,10.865,-55.355
11817,-0.0796,-0.2759,-1.2695,7.874,-5.249,-0.793,-162.872,10.915,-55.333
11827,-0.1602,-0.3516,-1.1177,14.771,-9.644,-0.427,-162.719,11.003,-55.3
11847,-0.2134,-0.3867,-0.9854,15.442,-9.399,0.977,-162.389,11.212,-55.25
11857,-0.2969,-0.4048,-0.7417,12.329,-6.775,1.282,-162.263,11.283,-55.245
11867,-0.2832,-0.3784,-0.7144,9.705,-2.38,2.136,-162.169,11.31,-55.256
11897,-0.1572,-0.335,-0.9268,5.859,6.348,4.028,-162.021,11.184,-55.437
11907,-0.1338,-0.2866,-1.0415,6.836,9.827,7.813,-161.971,11.118,-55.541
11918,-0.1431,-0.2715,-1.0898,11.169,12.939,7.507,-161.884,11.019,-55.657
11927,-0.1431,-0.2715,-1.0898,11.169,12.939,7.507,-161.746,10.909,-55.767
11937,-0.1431,-0.2715,-1.0898,16.846,12.329,5.493,-161.598,10.811,-55.854
11956,-0.209,-0.249,-0.9863,16.846,12.329,5.493,-161.318,10.64,-55.953
11967,-0.1553,-0.2656,-1.0,10.254,7.324,-0.916,-161.219,10.569,-55.97
11977,-0.1304,-0.2734,-1.0435,8.179,5.554,-0.977,-161.136,10.508,-55.981
12007,-0.2651,-0.3496,-0.9277,11.108,-1.587,3.784,-160.834,10.497,-56.036
12017,-0.3276,-0.3706,-0.8174,9.094,-4.456,4.7,-160.752,10.552,-56.069
12036,-0.3779,-0.3418,-0.6514,-6.47,-7.202,4.211,-160.801,10.717,-56.107
12046,-0.3638,-0.3359,-0.6196,-14.099,-5.31,2.747,-160.944,10.772,-56.118
12057,-0.3022,-0.3291,-0.6548,-21.912,-1.953,1.831,-161.164,10.8,-56.129
12066,-0.3022,-0.3291,-0.6548,-21.912,-1.953,1.831,-161.461,10.789,-56.151
12076,-0.1025,-0.2715,-0.98,-31.738,4.822,1.953,-161.785,10.745,-56.184
12086,-0.0244,-0.207,-1.2021,-29.236,8.179,3.418,-162.087,10.679,-56.245
12116,-0.0459,-0.1592,-1.5132,-5.188,10.132,6.775,-162.301,10.47,-56.508
12126,-0.0977,-0.189,-1.4448,17.944,3.235,3.784,-162.131,10.448,-56.552
12136,-0.0977,-0.189,-1.4448,17.944,3.235,3.784,-161.867,10.47,-56.563
12166,-0.3037,-0.3521,-0.8926,24.597,-14.099,-7.324,-160.856,10.915,-56.321
12176,-0.3306,-0.3701,-0.6572,17.151,-16.052,-8.423,-160.56,11.168,-56.184
12186,-0.3306,-0.3701,-0.6572,9.216,-16.357,-8.85,-160.313,11.42,-56.047
12196,-0.3081,-0.4092,-0.5771,0.488,-14.771,-8.545,-160.12,11.651,-55.915
12206,-0.29,-0.4067,-0.5845,-9.46,-11.169,-7.629,-160.043,11.832,-55.8
12226,-0.1992,-0.3452,-0.7363,-25.208,-1.709,-3.784,-160.285,11.964,-55.679
12236,-0.1304,-0.3071,-0.876,-28.625,4.578,-2.319,-160.571,11.876,-55.673
12255,-0.0796,-0.25,-1.0278,-28.625,4.578,-2.319,-161.263,11.525,-55.723
12266,-0.0796,-0.25,-1.0278,-28.625,4.578,-2.319,-161.565,11.321,-55.756
12276,-0.0762,-0.1812,-1.3003,-11.23,8.301,-0.732,-161.785,11.162,-55.772
12295,-0.1543,-0.2905,-1.2183,-11.23,8.301,-0.732,-161.933,11.03,-55.745
12306,-0.1895,-0.3389,-1.1392,3.723,-6.714,-2.808,-161.906,11.063,-55.695
12316,-0.2261,-0.3789,-1.0508,6.531,-9.521,-2.625,-161.812,11.151,-55.64
12325,-0.2495,-0.3965,-0.9756,6.531,-9.521,-2.625,-161.675,11.261,-55.591
12335,-0.2563,-0.3955,-0.9165,6.531,-9.521,-2.625,-161.505,11.371,-55.563
12345,-0.2588,-0.3882,-0.8628,6.531,-9.521,-2.625,-161.323,11.47,-55.558
12356,-0.2573,-0.373,-0.8315,10.925,-3.967,1.831,-161.164,11.552,-55.563
12385,-0.2256,-0.2944,-0.8242,1.587,2.991,3.113,-160.966,11.656,-55.651
12405,-0.2075,-0.2808,-0.855,-4.211,4.15,2.808,-161.071,11.602,-55.739
12425,-0.1099,-0.2109,-1.0605,-8.057,2.991,2.93,-161.367,11.459,-55.816
12455,-0.0938,-0.2227,-1.186,-0.916,0.977,3.052,-161.625,11.261,-55.915
12485,-0.2139,-0.2954,-1.0991,11.719,0.305,3.113,-161.246,11.272,-55.992
12495,-0.3032,-0.3574,-0.9004,18.921,-3.052,0.732,-161.027,11.365,-55.986
12505,-0.3232,-0.3677,-0.8213,14.099,-5.188,-1.038,-160.834,11.497,-55.959
12525,-0.3101,-0.3691,-0.7285,14.099,-5.188,-1.038,-160.571,11.788,-55.871
12535,-0.3101,-0.3691,-0.7285,-3.479,-5.676,-3.052,-160.51,11.92,-55.822
12554,-0.2778,-0.376,-0.7021,-9.766,-3.662,-3.296,-160.609,12.074,-55.75
12565,-0.2778,-0.376,-0.7021,-9.766,-3.662,-3.296,-160.79,12.068,-55.739
12575,-0.1602,-0.3218,-0.8618,-24.841,4.944,0.061,-161.027,12.003,-55.756
12594,-0.124,-0.3105,-0.9395,-23.315,6.592,5.737,-161.565,11.794,-55.882
12605,-0.0693,-0.2598,-1.1475,-21.24,7.507,7.202,-161.851,11.662,-55.975
12624,-0.04,-0.2158,-1.2725,-16.541,8.423,8.118,-162.328,11.354,-56.195
12634,-0.0586,-0.1753,-1.4126,-16.541,8.423,8.118,-162.444,11.234,-56.288
12644,-0.1084,-0.1846,-1.3926,10.925,3.235,5.859,-162.449,11.151,-56.36
12664,-0.1636,-0.2207,-1.3013,22.095,1.099,3.845,-162.048,11.129,-56.42
12674,-0.2935,-0.3291,-0.98,22.095,1.099,3.845,-161.664,11.195,-56.426
12684,-0.3311,-0.375,-0.8076,36.865,-3.54,-0.61,-161.23,11.316,-56.404
12695,-0.3511,-0.3906,-0.6743,29.602,-6.531,-1.587,-160.818,11.503,-56.371
12704,-0.3511,-0.3906,-0.6743,29.602,-6.531,-1.587,-160.483,11.728,-56.321
12724,-0.3262,-0.3545,-0.5713,-6.531,-5.981,-2.625,-160.203,12.129,-56.228
12744,-0.2886,-0.3301,-0.6274,-6.531,-5.981,-2.625,-160.499,12.277,-56.162
12754,-0.1475,-0.2358,-0.897,-29.297,3.723,-2.014,-160.84,12.206,-56.151
12773,-0.0952,-0.187,-1.0527,-29.297,3.723,-2.014,-161.598,11.909,-56.173
12784,-0.064,-0.1636,-1.2661,-29.297,3.723,-2.014,-161.895,11.739,-56.19
12794,-0.0854,-0.1895,-1.2964,-11.353,5.676,-0.977,-162.109,11.602,-56.201
12813,-0.1499,-0.2563,-1.2412,0.854,-1.953,-2.38,-162.285,11.481,-56.168
12824,-0.1807,-0.3057,-1.1724,5.249,-5.615,-3.723,-162.252,11.492,-56.113
12834,-0.2241,-0.3535,-1.0747,8.057,-8.667,-4.7,-162.153,11.558,-56.041
12853,-0.2681,-0.3901,-0.9658,8.789,-9.583,-5.31,-161.829,11.788,-55.876
12864,-0.2993,-0.4258,-0.7695,6.958,-8.423,-4.639,-161.636,11.926,-55.805
12874,-0.2974,-0.4253,-0.6943,3.662,-6.409,-3.174,-161.461,12.057,-55.75
12893,-0.2769,-0.4204,-0.6426,-9.277,1.038,0.916,-161.279,12.206,-55.745
12904,-0.2769,-0.4204,-0.6426,-9.277,1.038,0.916,-161.378,12.189,-55.778
12914,-0.1304,-0.3042,-0.813,-28.748,6.897,1.892,-161.647,12.09,-55.816
12923,-0.1304,-0.3042,-0.813,-36.926,7.324,1.404,-162.076,11.959,-55.854
12933,-0.0718,-0.1572,-1.1084,-40.955,6.592,-0.122,-162.587,11.81,-55.876
12943,-0.0762,-0.1021,-1.2197,-40.588,4.761,-1.953,-163.114,11.678,-55.871
12953,-0.0762,-0.1021,-1.2197,-40.588,4.761,-1.953,-163.57,11.58,-55.86
12973,-0.1606,-0.1655,-1.2603,-18.86,2.075,-0.488,-163.993,11.448,-55.887
13013,-0.2578,-0.3569,-0.9712,20.081,1.465,5.188,-163.372,11.453,-56.096
13023,-0.2822,-0.3545,-0.9253,16.418,-0.183,1.099,-163.169,11.497,-56.107
13053,-0.2739,-0.3208,-0.8633,7.507,-2.502,-0.732,-162.757,11.684,-56.063
13083,-0.229,-0.269,-0.8389,0.366,0.244,2.563,-162.647,11.827,-56.096
13093,-0.1948,-0.252,-0.8755,-2.441,1.587,3.662,-162.691,11.827,-56.14
13123,-0.1069,-0.1924,-1.1079,-7.141,4.272,3.296,-163.054,11.613,-56.288
13142,-0.1147,-0.1758,-1.1714,-3.845,0.61,-0.244,-163.334,11.47,-56.316
13152,-0.1509,-0.1777,-1.2295,-0.61,-1.465,-2.625,-163.416,11.431,-56.288
13163,-0.1694,-0.1875,-1.2217,3.601,-3.357,-4.883,-163.449,11.415,-56.228
13182,-0.1948,-0.21,-1.1831,14.526,-5.92,-7.324,-163.29,11.448,-56.063
13192,-0.2344,-0.293,-1.0483,19.165,-6.042,-7.751,-163.092,11.492,-55.97
13203,-0.2461,-0.3345,-0.9639,19.165,-6.042,-7.751,-162.845,11.552,-55.876
13222,-0.25,-0.3613,-0.8872,19.165,-6.042,-7.751,-162.328,11.695,-55.706
13232,-0.25,-0.3613,-0.8872,12.878,-6.714,-5.005,-162.12,11.777,-55.635
13242,-0.2339,-0.3447,-0.7891,8.789,-6.592,-3.784,-161.966,11.865,-55.58
13252,-0.2339,-0.3447,-0.7891,5.371,-5.798,-2.93,-161.851,11.937,-55.53
13272,-0.21,-0.3262,-0.8052,-1.77,-2.319,-1.404,-161.779,12.003,-55.481
13292,-0.1719,-0.3008,-0.8633,-6.226,1.038,-0.366,-161.873,11.964,-55.464
13302,-0.166,-0.2944,-0.9185,-6.226,1.038,-0.366,-161.944,11.92,-55.475
13312,-0.1836,-0.2939,-0.937,-6.348,2.686,1.038,-162.015,11.882,-55.497
13332,-0.2021,-0.29,-0.957,-6.836,2.625,2.869,-162.191,11.843,-55.563
13342,-0.2261,-0.2842,-0.9946,-5.981,1.77,3.174,-162.279,11.838,-55.596
13352,-0.229,-0.2822,-1.0156,-5.493,0.977,2.991,-162.361,11.843,-55.629
13372,-0.2251,-0.271,-1.0542,-2.686,-0.122,2.747,-162.499,11.854,-55.684
13382,-0.2202,-0.2695,-1.0601,-0.305,-0.793,2.747,-162.543,11.865,-55.706
13401,-0.2192,-0.27,-1.0571,2.441,-1.587,2.93,-162.543,11.92,-55.761
13422,-0.207,-0.2549,-1.0562,6.165,-5.615,4.883,-162.515,12.019,-55.822
13441,-0.1909,-0.2036,-1.084,6.165,-5.615,4.883,-162.499,12.195,-55.865
13451,-0.1909,-0.2036,-1.084,6.165,-5.615,4.883,-162.471,12.305,-55.898
13471,-0.2095,-0.1533,-1.0908,19.409,-10.62,6.958,-162.186,12.502,-55.959
13481,-0.2095,-0.1533,-1.0908,19.409,-10.62,6.958,-161.9,12.596,-55.959
13491,-0.2095,-0.1533,-1.0908,30.09,-5.92,-0.305,-161.537,12.733,-55.937
13502,-0.3882,-0.416,-0.605,20.996,-7.629,-3.235,-161.158,12.947,-55.882
13521,-0.4277,-0.4351,-0.4644,-15.198,-9.705,-8.606,-160.697,13.524,-55.679
13531,-0.3716,-0.3901,-0.4526,-15.198,-9.705,-8.606,-160.785,13.722,-55.541
13551,-0.1353,-0.208,-0.8818,-49.5,15.747,-14.343,-161.686,13.475,-55.322
13561,-0.0464,-0.1309,-1.167,-49.5,15.747,-14.343,-162.202,13.096,-55.283
13601,-0.0317,-0.1543,-1.6948,30.029,25.024,-4.578,-162.268,11.794,-55.437
13620,-0.0786,-0.2749,-1.5786,44.006,14.771,-5.188,-161.29,11.574,-55.404
13631,-0.0786,-0.2749,-1.5786,56.213,-2.075,-3.113,-160.719,11.585,-55.366
13641,-0.1958,-0.5581,-0.9062,54.382,-5.798,-1.648,-160.17,11.635,-55.333
13650,-0.2002,-0.5688,-0.7231,54.382,-5.798,-1.648,-159.697,11.684,-55.316
13660,-0.2002,-0.5688,-0.7231,54.382,-5.798,-1.648,-159.368,11.711,-55.322
13671,-0.2002,-0.5688,-0.7231,54.382,-5.798,-1.648,-159.192,11.717,-55.344
13681,-0.2729,-0.4429,-0.4917,5.92,1.16,3.418,-159.142,11.717,-55.382
13700,-0.2505,-0.3442,-0.6099,-1.404,2.563,4.639,-159.263,11.689,-55.514
13710,-0.2505,-0.3442,-0.6099,-1.404,2.563,4.639,-159.412,11.635,-55.607
13730,-0.1416,-0.2041,-0.9619,-19.104,13.428,4.7,-159.813,11.437,-55.805
13740,-0.1167,-0.166,-1.1045,-19.104,14.343,1.465,-160.016,11.31,-55.871
13750,-0.0967,-0.1699,-1.2168,-16.235,15.259,-1.648,-160.186,11.162,-55.909
13770,-0.144,-0.2275,-1.2939,-4.089,7.385,-3.906,-160.329,10.948,-55.909
13780,-0.1675,-0.2749,-1.2759,3.052,3.967,-5.615,-160.291,10.893,-55.871
13800,-0.2183,-0.3506,-1.1621,8.423,0.61,-6.897,-160.049,10.844,-55.728
13810,-0.2183,-0.3506,-1.1621,8.423,0.61,-6.897,-159.862,10.822,-55.64
13820,-0.2363,-0.4053,-1.0205,18.494,-1.221,-7.751,-159.664,10.805,-55.563
13830,-0.2363,-0.4136,-0.9609,18.616,-2.502,-6.226,-159.467,10.805,-55.492
13839,-0.2363,-0.4136,-0.9609,18.616,-2.502,-6.226,-159.285,10.822,-55.437
13860,-0.2363,-0.4063,-0.8643,10.925,-4.639,-1.282,-159.027,10.893,-55.366
13879,-0.1958,-0.3462,-0.8354,4.395,-3.784,-0.732,-158.895,10.959,-55.327
13890,-0.1958,-0.3462,-0.8354,1.282,-2.319,-1.953,-158.879,10.975,-55.3
13900,-0.1611,-0.3008,-0.8828,-0.671,-1.404,-3.052,-158.879,10.975,-55.261
13919,-0.1323,-0.2793,-0.9375,-2.136,1.587,-5.554,-158.895,10.931,-55.179
13930,-0.1284,-0.2803,-0.9521,-2.93,1.831,-6.287,-158.917,10.887,-55.124
13940,-0.1357,-0.2808,-0.9687,-4.089,0.977,-6.775,-158.945,10.854,-55.063
13949,-0.1357,-0.2808,-0.9687,-4.089,0.977,-6.775,-158.983,10.833,-54.992
13970,-0.1514,-0.2817,-0.9937,-5.127,-1.526,-7.385,-159.06,10.8,-54.844
13989,-0.1494,-0.2944,-1.0112,-1.465,-2.136,-5.798,-159.088,10.789,-54.712
14009,-0.1465,-0.3374,-1.0557,3.723,-1.16,-3.113,-159.027,10.789,-54.63
14029,-0.1528,-0.3594,-1.0518,7.935,-1.16,-1.099,-158.879,10.8,-54.591
14069,-0.1953,-0.3745,-0.9907,16.785,-2.991,0.061,-158.351,10.854,-54.553
14079,-0.2231,-0.4097,-0.9175,17.822,-4.639,0.854,-158.17,10.904,-54.542
14099,-0.2563,-0.4194,-0.8125,16.968,-6.104,2.014,-157.852,11.047,-54.542
14109,-0.2563,-0.4194,-0.8125,16.968,-6.104,2.014,-157.654,11.223,-54.564
14129,-0.3198,-0.4414,-0.624,4.089,-8.606,7.08,-157.297,11.646,-54.63
14149,-0.3311,-0.4424,-0.5791,4.089,-8.606,7.08,-157.225,12.008,-54.668
14159,-0.251,-0.354,-0.6816,-22.705,2.563,2.014,-157.412,12.052,-54.701
14178,-0.1768,-0.2832,-0.8286,-26.794,8.911,1.526,-158.093,11.761,-54.833
14189,-0.0186,-0.1738,-1.1924,-26.794,8.911,1.526,-158.395,11.42,-54.965
14199,0.0239,-0.1973,-1.3257,0.671,33.63,3.723,-158.549,10.997,-55.124
14229,-0.021,-0.3843,-1.3755,32.104,21.301,5.859,-158.121,9.932,-55.591
14239,-0.0693,-0.4175,-1.2896,29.846,12.695,4.333,-157.879,9.761,-55.684
14258,-0.1318,-0.4214,-1.1816,29.846,12.695,4.333,-157.462,9.695,-55.701
14269,-0.2217,-0.4331,-0.9634,16.785,-5.31,-3.601,-157.269,9.75,-55.646
14279,-0.2524,-0.4287,-0.874,10.559,-10.071,-5.554,-157.115,9.871,-55.558
14308,-0.3223,-0.3896,-0.6987,-1.465,-18.921,-2.808,-156.863,10.591,-55.217
14319,-0.3198,-0.3872,-0.6738,-1.038,-17.151,0.244,-156.791,10.865,-55.151
14348,-0.2891,-0.4023,-0.6689,-7.08,-3.418,3.784,-156.671,11.404,-55.151
14368,-0.1802,-0.335,-0.8486,-20.142,7.813,2.014,-157.022,11.365,-55.239
14378,-0.124,-0.2993,-0.9624,-22.095,12.268,1.282,-157.308,11.217,-55.3
14388,-0.0708,-0.2832,-1.0708,-20.447,14.771,0.977,-157.604,11.008,-55.366
14398,-0.0708,-0.2832,-1.0708,-20.447,14.771,0.977,-157.846,10.789,-55.443
14409,-0.0103,-0.3184,-1.1924,-20.447,14.771,0.977,-158.027,10.591,-55.519
14418,-0.0103,-0.3184,-1.1924,-20.447,14.771,0.977,-158.132,10.443,-55.591
14448,-0.0288,-0.4131,-1.1504,-3.723,-11.353,10.498,-158.225,10.508,-55.767
14458,-0.1802,-0.5366,-0.9463,-5.859,-12.756,11.047,-158.214,10.657,-55.822
14477,-0.2183,-0.5532,-0.8999,-10.437,-13.428,10.986,-158.28,11.025,-55.926
14488,-0.2661,-0.5142,-0.8647,-15.747,-14.893,13.306,-158.357,11.25,-55.992
14498,-0.2754,-0.4551,-0.8965,-14.16,-11.23,17.273,-158.467,11.459,-56.113
14517,-0.2271,-0.3433,-1.0356,-2.441,9.155,23.682,-158.692,11.574,-56.569
14528,-0.1968,-0.2847,-1.124,-2.441,9.155,23.682,-158.763,11.481,-56.882
14547,-0.1841,-0.1997,-1.2261,-2.441,9.155,23.682,-158.741,11.118,-57.552
14557,-0.1904,-0.1738,-1.2192,-2.441,9.155,23.682,-158.621,10.893,-57.838
14568,-0.2012,-0.1519,-1.1689,37.292,28.076,12.512,-158.434,10.668,-58.057
14597,-0.2529,-0.165,-0.9004,37.292,28.076,12.512,-157.72,10.223,-58.233
14627,-0.2808,-0.2363,-0.7637,11.169,-4.456,-18.921,-157.214,10.283,-57.788
14647,-0.2212,-0.3623,-0.7612,-1.282,-5.615,-22.156,-157.072,10.338,-57.338
14677,-0.1699,-0.4053,-0.8179,-10.193,-6.958,-13.184,-157.104,10.333,-56.783
14697,-0.1157,-0.3989,-0.8848,-10.803,-5.981,-10.498,-157.275,10.283,-56.563
14707,-0.0747,-0.376,-0.9458,-14.587,-7.568,-4.578,-157.418,10.272,-56.492
14717,-0.0659,-0.3594,-0.9619,-17.029,-10.193,-1.892,-157.593,10.294,-56.431
14736,-0.061,-0.3555,-0.9785,-19.226,-12.146,0.0,-157.994,10.371,-56.338
14747,-0.061,-0.3555,-0.9785,-19.531,-10.986,0.61,-158.209,10.41,-56.299
14757,-0.0806,-0.3643,-1.0249,-17.944,-8.728,1.892,-158.406,10.432,-56.288
14787,-0.1099,-0.4326,-1.0542,-13.977,-0.671,0.061,-158.851,10.371,-56.305
14797,-0.1387,-0.4463,-1.0356,-12.512,-3.235,-1.16,-158.95,10.36,-56.283
14806,-0.1387,-0.4463,-1.0356,-12.512,-3.235,-1.16,-159.016,10.404,-56.261
14827,-0.2065,-0.4233,-0.9717,-5.92,-5.737,4.272,-159.066,10.525,-56.365
14846,-0.188,-0.4028,-1.0562,6.836,10.376,14.282,-159.027,10.475,-56.673
14856,-0.188,-0.4028,-1.0562,6.836,10.376,14.282,-158.961,10.36,-56.871
14867,-0.146,-0.3301,-1.1572,19.592,20.691,13.367,-158.857,10.179,-57.068
14896,-0.1143,-0.2388,-1.1597,33.386,25.696,9.033,-158.225,9.47,-57.596
14906,-0.1719,-0.2251,-1.0474,33.386,25.696,9.033,-157.885,9.283,-57.695
14918,-0.1719,-0.2251,-1.0474,33.386,25.696,9.033,-157.522,9.157,-57.739
14936,-0.2349,-0.2778,-0.8154,33.386,25.696,9.033,-156.78,9.086,-57.673
14946,-0.2642,-0.3154,-0.75,36.072,-1.221,-11.292,-156.407,9.146,-57.563
14966,-0.2642,-0.3154,-0.75,36.072,-1.221,-11.292,-155.748,9.355,-57.255
14976,-0.2847,-0.4297,-0.6387,12.024,-6.287,-14.648,-155.506,9.459,-57.09
14996,-0.2476,-0.4551,-0.6582,0.916,-5.676,-12.756,-155.352,9.58,-56.838
15006,-0.2476,-0.4551,-0.6582,-15.198,-6.836,-5.493,-155.435,9.619,-56.755
15016,-0.1167,-0.4399,-0.8521,-18.127,-7.996,-1.099,-155.577,9.657,-56.711
15036,-0.0972,-0.4214,-0.9194,-18.738,-8.911,7.08,-155.984,9.767,-56.739
15046,-0.0747,-0.3867,-1.0298,-15.747,-8.972,8.545,-156.182,9.827,-56.783
15065,-0.0762,-0.3726,-1.063,-13.977,-8.362,9.033,-156.539,9.915,-56.882
15086,-0.0913,-0.3662,-1.0425,-13.977,-8.362,9.033,-156.747,9.937,-56.964
15105,-0.1089,-0.3916,-1.0049,-2.197,-0.488,2.563,-156.813,9.915,-57.014
15126,-0.1855,-0.4473,-0.9194,-7.935,1.648,0.183,-156.89,9.893,-57.036
15155,-0.2402,-0.4214,-0.9287,-12.024,-3.113,-3.723,-157.187,9.921,-56.953
15166,-0.2544,-0.4141,-0.9224,-10.62,-5.188,-1.709,-157.269,10.003,-56.915
15195,-0.2041,-0.3286,-0.9932,-9.46,-0.061,4.7,-157.604,10.124,-57.041
15225,-0.0762,-0.2046,-1.1118,3.479,12.878,7.996,-157.972,9.783,-57.404
15235,-0.0728,-0.207,-1.0952,6.531,9.949,6.775,-158.038,9.657,-57.502
15255,-0.083,-0.2168,-1.0503,6.531,9.949,6.775,-158.143,9.553,-57.557
15265,-0.1421,-0.2485,-0.9204,-0.183,-6.531,-3.967,-158.203,9.586,-57.497
15275,-0.1631,-0.2817,-0.8667,-1.709,-8.85,-9.399,-158.236,9.635,-57.376
15305,-0.209,-0.4521,-0.7549,-4.944,-9.888,-17.151,-158.11,9.838,-56.816
15324,-0.2139,-0.4941,-0.7515,-6.592,-6.287,-16.724,-157.95,9.877,-56.486
15345,-0.1631,-0.5156,-0.8252,-11.475,2.197,-4.089,-157.928,9.822,-56.365
15364,-0.125,-0.4468,-0.9473,-11.475,2.197,-4.089,-158.099,9.745,-56.481
15374,-0.1128,-0.4116,-1.001,-11.475,2.197,-4.089,-158.231,9.728,-56.585
15385,-0.1143,-0.3823,-1.0386,-12.329,-0.366,11.536,-158.384,9.734,-56.689
15405,-0.1211,-0.3105,-1.0913,-12.329,-0.183,10.986,-158.758,9.756,-56.898
15414,-0.1211,-0.3105,-1.0913,-12.329,-0.183,10.986,-158.95,9.728,-57.003
15425,-0.127,-0.272,-1.1099,-8.545,6.042,8.423,-159.126,9.673,-57.101
15434,-0.1367,-0.2886,-1.104,-4.822,8.423,7.08,-159.252,9.591,-57.2
15454,-0.1436,-0.3013,-1.0923,-2.014,9.277,5.798,-159.395,9.41,-57.365
15474,-0.1567,-0.333,-1.0542,0.854,9.094,2.808,-159.45,9.234,-57.469
15494,-0.1738,-0.3633,-0.9761,2.991,9.399,-0.122,-159.423,9.064,-57.541
15514,-0.1816,-0.3643,-0.9512,5.493,10.132,-1.526,-159.318,8.899,-57.59
15524,-0.2002,-0.3696,-0.9058,6.836,10.559,-1.648,-159.241,8.822,-57.612
15534,-0.2051,-0.3706,-0.8867,7.446,11.23,-1.038,-159.153,8.745,-57.645
15564,-0.1826,-0.3638,-0.9058,7.446,11.23,-1.038,-158.928,8.525,-57.783
15583,-0.1709,-0.3589,-0.9282,5.371,7.019,5.31,-158.851,8.432,-57.925
15604,-0.1416,-0.334,-0.9902,6.714,5.432,6.836,-158.763,8.399,-58.101
15614,-0.1416,-0.334,-0.9902,6.714,5.432,6.836,-158.681,8.427,-58.189
15623,-0.1367,-0.3423,-1.0083,6.714,5.432,6.836,-158.555,8.503,-58.282
15644,-0.1641,-0.3555,-0.9824,20.935,-9.521,13.184,-158.214,8.767,-58.458
15673,-0.1826,-0.375,-0.918,14.465,-8.24,9.766,-157.731,9.168,-58.661
15684,-0.1826,-0.3809,-0.9072,9.338,-6.714,8.24,-157.643,9.272,-58.711
15713,-0.1851,-0.3765,-0.8999,-0.122,-3.479,6.531,-157.643,9.498,-58.854
15733,-0.1816,-0.3716,-0.9111,-5.432,-2.625,6.042,-157.791,9.597,-58.942
15753,-0.1592,-0.3652,-0.9751,-9.46,0.0,0.305,-158.0,9.613,-58.975
15773,-0.1479,-0.3677,-0.9917,-9.46,0.0,0.305,-158.209,9.52,-58.881
15793,-0.147,-0.3706,-0.9907,-5.127,-1.16,-11.78,-158.324,9.415,-58.678
15802,-0.1548,-0.3711,-0.9956,-5.127,-1.16,-11.78,-158.335,9.371,-58.552
15813,-0.1499,-0.3652,-1.0005,-5.127,-1.16,-11.78,-158.324,9.333,-58.436
15823,-0.144,-0.3604,-1.0005,-5.127,-1.16,-11.78,-158.275,9.289,-58.332
15833,-0.144,-0.3604,-1.0005,9.766,-1.343,-9.338,-158.187,9.256,-58.239
15842,-0.144,-0.3604,-1.0005,9.766,-1.343,-9.338,-158.044,9.229,-58.162
15863,-0.1904,-0.3618,-0.9512,18.311,-0.122,-4.7,-157.692,9.212,-58.057
15882,-0.1919,-0.3716,-0.9458,16.418,0.183,-3.174,-157.418,9.207,-58.019
15893,-0.1919,-0.3716,-0.9458,16.418,0.183,-3.174,-157.357,9.168,-58.035
15903,-0.1919,-0.3716,-0.9458,16.418,0.183,-3.174,-157.308,9.097,-58.079
15933,-0.0981,-0.3247,-1.0024,20.691,17.578,3.601,-157.039,8.663,-58.343
15943,-0.1045,-0.3672,-0.9604,23.804,17.944,4.272,-156.835,8.487,-58.453
15962,-0.1274,-0.4058,-0.9058,23.804,17.944,4.272,-156.445,8.262,-58.672
15972,-0.1274,-0.3882,-0.9082,23.804,17.944,4.272,-156.346,8.201,-58.771
15992,-0.1167,-0.3555,-0.9268,5.127,7.813,5.798,-156.379,8.053,-58.925
16012,-0.0894,-0.3613,-1.0073,0.488,9.338,3.967,-156.456,7.85,-59.084
16032,-0.106,-0.4219,-0.981,13.245,-0.671,10.254,-156.204,7.855,-59.271
16052,-0.356,-0.6118,-0.6367,13.245,-0.671,10.254,-155.792,8.509,-59.277
16063,-0.4023,-0.604,-0.5566,-28.687,-37.964,0.122,-155.825,9.025,-59.123
16072,-0.4185,-0.5483,-0.5469,-28.687,-37.964,0.122,-156.149,9.564,-58.865
16092,-0.2832,-0.2358,-0.8672,-87.585,-23.132,-17.029,-157.747,10.217,-58.304
16101,-0.2832,-0.2358,-0.8672,-87.585,-23.132,-17.029,-158.555,10.234,-58.178
16112,-0.2832,-0.2358,-0.8672,-87.585,-23.132,-17.029,-159.044,10.124,-58.195
16122,-0.0439,-0.2715,-1.2964,7.019,15.32,11.169,-159.093,9.937,-58.359
16132,-0.0435,-0.4043,-1.3013,7.019,15.32,11.169,-158.736,9.723,-58.618
16141,-0.0435,-0.4927,-1.2466,62.073,25.33,21.118,-158.165,9.487,-58.914
16152,-0.0596,-0.5493,-1.145,60.059,25.879,14.648,-157.571,9.234,-59.15
16162,-0.0952,-0.5439,-1.0405,41.931,20.996,0.854,-157.121,8.998,-59.238
16181,-0.1357,-0.52,-0.936,-18.433,-1.77,-24.963,-157.0,8.756,-58.914
16192,-0.2217,-0.356,-0.8179,-18.433,-1.77,-24.963,-157.368,8.828,-58.59
16202,-0.2466,-0.2822,-0.7749,-49.377,-21.545,-24.048,-157.835,9.014,-58.282
16221,-0.2329,-0.2407,-0.8862,-49.377,-21.545,-24.048,-158.445,9.41,-57.964
16232,-0.2031,-0.2549,-0.9487,-49.377,-21.545,-24.048,-158.538,9.509,-57.991
16242,-0.1621,-0.2822,-1.019,12.817,5.371,9.277,-158.489,9.487,-58.101
16271,-0.0249,-0.3818,-1.1758,14.221,24.475,-1.404,-158.203,8.74,-58.442
16291,-0.0215,-0.3779,-1.167,7.874,13.062,-8.728,-158.082,8.251,-58.436
16301,-0.1372,-0.4189,-0.9941,7.874,13.062,-8.728,-158.022,8.179,-58.332
16311,-0.2139,-0.4253,-0.8662,-4.761,-10.742,-15.564,-158.005,8.267,-58.145
16331,-0.2793,-0.4238,-0.7271,-20.752,-27.893,-14.038,-158.093,8.871,-57.673
16351,-0.2729,-0.3013,-0.7017,-19.531,-23.254,-1.526,-158.379,9.58,-57.382
16381,0.0127,-0.2788,-1.2036,11.475,12.207,8.545,-158.643,9.553,-57.568
16402,0.0405,-0.4155,-1.2632,30.273,22.278,5.005,-158.258,8.97,-57.843
16411,0.0405,-0.4155,-1.2632,30.273,22.278,5.005,-157.967,8.723,-57.931
16421,-0.1069,-0.4785,-1.0425,23.56,15.564,-2.563,-157.714,8.542,-57.964
16451,-0.2715,-0.4116,-0.7783,0.244,-10.437,-6.958,-157.363,8.63,-57.733
16461,-0.293,-0.4194,-0.75,3.784,-14.038,-2.258,-157.247,8.849,-57.656
16491,-0.2095,-0.376,-0.8823,7.019,-2.747,5.798,-156.945,9.25,-57.673
16510,-0.1138,-0.3335,-1.0664,14.16,12.451,5.371,-156.83,9.108,-57.849
16520,-0.1138,-0.3335,-1.0664,14.16,12.451,5.371,-156.709,8.91,-57.953
16531,-0.0732,-0.3818,-1.1577,23.437,18.25,2.625,-156.544,8.701,-58.052
16550,-0.0806,-0.3945,-1.1597,23.437,18.25,2.625,-156.198,8.328,-58.162
16560,-0.1201,-0.376,-1.1045,20.02,9.094,-3.967,-156.05,8.207,-58.162
16570,-0.1519,-0.3872,-1.0415,19.836,1.404,-4.944,-155.88,8.168,-58.118
16590,-0.1924,-0.4009,-0.9653,19.836,1.404,-4.944,-155.511,8.405,-57.887
16610,-0.2935,-0.4224,-0.7339,0.244,-27.893,-12.207,-155.281,8.954,-57.469
16630,-0.3091,-0.4097,-0.6694,-14.709,-28.076,-15.808,-155.286,9.586,-56.948
16640,-0.2905,-0.3984,-0.6797,-20.02,-24.231,-15.747,-155.391,9.849,-56.7
16650,-0.2461,-0.3828,-0.7397,-22.705,-19.104,-14.465,-155.55,10.025,-56.486
16660,-0.2461,-0.3828,-0.7397,-21.24,-12.39,-12.634,-155.726,10.096,-56.316
16670,-0.2461,-0.3828,-0.7397,-16.174,-6.165,-9.338,-155.896,10.069,-56.206
16680,-0.061,-0.3706,-1.0337,-10.62,-0.977,-6.409,-156.033,9.987,-56.14
16700,0.0146,-0.3892,-1.1719,1.709,4.456,-2.502,-156.154,9.684,-56.107
16710,0.0293,-0.4043,-1.1909,6.592,3.845,-0.671,-156.143,9.542,-56.118
16720,0.019,-0.4116,-1.1665,8.545,-0.366,1.038,-156.105,9.443,-56.124
16729,-0.0156,-0.4126,-1.1152,8.545,-0.366,1.038,-156.05,9.426,-56.124
16750,-0.1045,-0.3955,-0.9668,8.545,-0.366,1.038,-155.896,9.564,-56.113
16760,-0.1582,-0.3906,-0.8716,11.353,-11.23,5.554,-155.786,9.684,-56.113
16769,-0.1582,-0.3906,-0.8716,10.498,-10.315,5.554,-155.66,9.838,-56.124
16790,-0.2808,-0.4014,-0.6323,10.498,-10.315,5.554,-155.418,10.212,-56.146
16800,-0.2964,-0.4092,-0.6099,-3.479,-5.615,4.15,-155.363,10.399,-56.162
16809,-0.2964,-0.4092,-0.6099,-3.479,-5.615,4.15,-155.38,10.552,-56.173
16830,-0.2285,-0.4087,-0.7505,-21.545,2.869,1.648,-155.654,10.673,-56.212
16859,-0.123,-0.3564,-1.0059,-18.921,11.902,2.502,-156.462,10.349,-56.393
16919,-0.1255,-0.4253,-1.1826,12.512,-1.404,-2.258,-156.797,9.481,-56.481
16929,-0.1836,-0.4189,-1.0762,17.761,-2.197,-0.977,-156.638,9.492,-56.459
16939,-0.2358,-0.4263,-0.957,23.804,-1.709,1.099,-156.396,9.542,-56.464
16959,-0.3286,-0.4546,-0.7202,24.597,-5.432,3.845,-155.77,9.833,-56.497
16969,-0.3286,-0.4546,-0.7202,17.517,-9.338,3.296,-155.462,10.085,-56.486
16979,-0.3931,-0.4673,-0.5396,6.836,-12.451,1.831,-155.226,10.393,-56.453
16999,-0.3823,-0.4575,-0.5132,-15.869,-9.644,-1.77,-155.121,10.915,-56.338
17009,-0.2451,-0.3911,-0.7061,-22.034,-3.906,-2.563,-155.286,10.997,-56.299
17028,-0.1318,-0.3193,-0.9097,-21.057,16.174,-1.343,-155.923,10.657,-56.36
17038,0.0576,-0.2051,-1.3359,-21.057,16.174,-1.343,-156.171,10.322,-56.459
17049,0.1201,-0.1943,-1.4956,10.132,27.71,1.648,-156.259,9.932,-56.585
17078,0.1704,-0.2944,-1.6045,59.57,17.639,1.038,-154.979,9.25,-56.942
17098,-0.0215,-0.5415,-1.272,61.951,0.854,-1.526,-153.836,9.316,-56.816
17108,-0.2803,-0.5127,-0.8242,61.951,0.854,-1.526,-153.441,9.443,-56.613
17118,-0.3403,-0.4878,-0.6445,29.114,-26.978,-13.123,-153.111,9.624,-56.376
17138,-0.4316,-0.5425,-0.438,28.259,-33.264,-7.874,-152.507,10.206,-55.981
17148,-0.4849,-0.6357,-0.2207,17.212,-30.579,4.211,-152.314,10.492,-55.871
17158,-0.4712,-0.6523,-0.1816,2.991,-24.475,7.69,-152.281,10.745,-55.827
17178,-0.3955,-0.5791,-0.3052,-13.489,-17.517,10.254,-152.677,11.074,-55.904
17188,-0.0747,-0.291,-0.9839,-13.489,-17.517,10.254,-152.979,11.102,-56.036
17207,0.0938,-0.1841,-1.3628,10.315,35.583,8.789,-153.116,10.701,-56.481
17218,0.0786,-0.293,-1.5156,34.668,39.917,5.798,-152.814,10.371,-56.717
17228,-0.0889,-0.4028,-1.2656,45.715,37.292,2.075,-152.391,10.052,-56.909
17268,-0.3257,-0.5464,-0.541,-31.189,-41.138,-13.123,-152.122,9.981,-56.437
17287,-0.3022,-0.4839,-0.5557,-44.373,-31.982,-7.202,-152.908,10.558,-55.92
17298,-0.1045,-0.4092,-0.9614,-34.79,-18.066,-3.662,-153.232,10.701,-55.8
17308,-0.0649,-0.4106,-1.0981,-19.897,-6.042,-1.709,-153.424,10.75,-55.756
17317,-0.0649,-0.4106,-1.0981,-19.897,-6.042,-1.709,-153.501,10.745,-55.756
17337,-0.1826,-0.4375,-1.0244,-1.221,6.592,-4.639,-153.539,10.624,-55.745
17357,-0.2217,-0.4517,-0.9468,0.977,5.981,-6.714,-153.512,10.453,-55.679
17367,-0.2217,-0.4517,-0.9468,0.977,5.981,-6.714,-153.49,10.355,-55.657
17377,-0.1484,-0.4531,-0.9668,4.272,6.348,-5.249,-153.446,10.278,-55.635
17398,-0.1113,-0.4595,-1.0068,8.972,1.953,-1.953,-153.281,10.206,-55.613
17407,-0.1113,-0.4595,-1.0068,10.254,-0.916,-1.221,-153.177,10.206,-55.596
17417,-0.1665,-0.4922,-0.939,9.277,-5.005,-0.427,-153.078,10.25,-55.574
17447,-0.2529,-0.5044,-0.8013,1.343,-8.667,-0.61,-152.919,10.47,-55.443
17457,-0.2383,-0.4326,-0.8203,-1.953,-4.883,-1.587,-152.93,10.503,-55.404
17487,-0.1201,-0.3989,-1.0073,3.723,5.798,-1.587,-152.902,10.404,-55.399
17506,-0.0859,-0.4004,-1.063,8.24,6.592,-3.479,-152.765,10.256,-55.41
17517,-0.1113,-0.4351,-1.0493,8.24,6.592,-3.479,-152.655,10.206,-55.399
17527,-0.1445,-0.4575,-0.9795,11.658,1.343,-2.991,-152.54,10.179,-55.377
17557,-0.2183,-0.4702,-0.791,2.136,-4.517,-4.456,-152.298,10.223,-55.223
17567,-0.2202,-0.4556,-0.7803,-1.77,-3.479,-5.432,-152.303,10.228,-55.157
17576,-0.2202,-0.4556,-0.7803,-1.77,-3.479,-5.432,-152.336,10.223,-55.102
17586,-0.1885,-0.4414,-0.8091,-4.456,0.854,-4.7,-152.375,10.19,-55.063
17597,-0.1885,-0.4414,-0.8091,-4.272,3.235,-4.456,-152.413,10.14,-55.042
17607,-0.1538,-0.46,-0.8623,-5.371,4.272,-4.089,-152.463,10.085,-55.025
17616,-0.1538,-0.46,-0.8623,-5.371,4.272,-4.089,-152.534,10.036,-55.003
17636,-0.146,-0.4565,-0.9038,-9.033,1.282,-3.113,-152.704,9.97,-54.959
17656,-0.1357,-0.4517,-0.9248,-9.033,1.282,-3.113,-152.869,9.937,-54.926
17666,-0.1255,-0.4507,-0.9546,-6.653,1.343,-1.221,-152.935,9.921,-54.921
17676,-0.125,-0.4497,-0.9653,-4.822,2.808,-0.549,-152.985,9.893,-54.932
17696,-0.126,-0.4712,-0.9673,-0.427,6.348,0.366,-153.023,9.794,-54.981
17706,-0.1309,-0.4795,-0.9556,1.038,7.263,1.099,-153.018,9.734,-55.025
17716,-0.1377,-0.4854,-0.9453,1.465,7.629,1.587,-153.012,9.651,-55.074
17736,-0.1489,-0.4766,-0.9263,1.465,7.629,1.587,-153.007,9.514,-55.201
17746,-0.1523,-0.4692,-0.9121,2.563,7.996,6.042,-152.996,9.459,-55.294
17756,-0.1577,-0.4614,-0.9067,3.845,8.972,7.935,-152.974,9.41,-55.404
17786,-0.1616,-0.4155,-0.9062,5.432,11.902,9.155,-152.924,9.207,-55.811
17796,-0.1587,-0.4063,-0.9092,5.066,14.343,7.996,-152.924,9.119,-55.948
17805,-0.1587,-0.4063,-0.9092,4.517,14.099,7.629,-152.935,9.025,-56.085
17816,-0.1606,-0.3999,-0.9116,3.418,12.878,7.324,-152.952,8.948,-56.206
17826,-0.168,-0.4004,-0.9048,1.831,10.803,6.775,-152.985,8.888,-56.321
17845,-0.168,-0.4014,-0.915,-0.427,7.019,5.676,-153.083,8.817,-56.497
17856,-0.1738,-0.4063,-0.9092,-1.648,5.493,4.822,-153.138,8.8,-56.569
17866,-0.1772,-0.4136,-0.9062,-3.235,4.395,3.235,-153.199,8.789,-56.618
17915,-0.1475,-0.4229,-0.9863,-8.362,-0.427,-1.953,-153.704,8.729,-56.591
17925,-0.1475,-0.4229,-0.9863,-8.362,-0.427,-1.953,-153.754,8.712,-56.569
17955,-0.1587,-0.4805,-0.9492,4.883,-0.977,1.282,-153.638,8.734,-56.569
17965,-0.2134,-0.5347,-0.8145,3.967,-2.93,2.441,-153.534,8.806,-56.58
17975,-0.2446,-0.5479,-0.7397,0.366,-5.005,3.601,-153.43,8.926,-56.585
17995,-0.2466,-0.5483,-0.6963,-13.855,-7.568,4.395,-153.413,9.212,-56.602
18005,-0.2466,-0.5483,-0.6963,-22.339,-5.066,3.723,-153.572,9.305,-56.613
18045,-0.124,-0.4111,-1.0225,-29.968,3.052,-1.099,-154.869,9.201,-56.667
18075,-0.0767,-0.2441,-1.1089,-14.526,4.089,4.028,-155.891,8.959,-56.755
18085,-0.0503,-0.2407,-1.1514,0.793,1.587,7.935,-156.022,8.91,-56.838
18115,-0.0815,-0.4155,-1.0493,31.799,4.089,8.179,-155.517,8.773,-57.145
18125,-0.1167,-0.4697,-0.9644,30.701,6.348,2.258,-155.204,8.701,-57.189
18134,-0.1587,-0.4932,-0.8779,30.701,6.348,2.258,-154.907,8.63,-57.195
18155,-0.2285,-0.4565,-0.7651,10.132,5.188,-4.517,-154.523,8.586,-57.156
18165,-0.2578,-0.4561,-0.7241,3.296,3.113,-4.028,-154.418,8.619,-57.134
18214,-0.1787,-0.3584,-0.9272,-19.897,-10.498,-2.197,-155.127,9.075,-56.898
18224,-0.1787,-0.3584,-0.9272,-19.409,-7.751,-3.54,-155.374,9.102,-56.832
18234,-0.1074,-0.353,-1.083,-15.869,-5.188,-5.066,-155.588,9.091,-56.761
18264,-0.0977,-0.4209,-1.0986,-4.578,-2.502,-8.24,-155.819,8.948,-56.508
18274,-0.1099,-0.4243,-1.085,1.587,-3.845,-9.033,-155.814,8.91,-56.409
18294,-0.1396,-0.4531,-1.0083,8.484,-3.235,-9.399,-155.676,8.855,-56.206
18304,-0.1704,-0.4805,-0.9399,11.108,-2.808,-9.155,-155.522,8.849,-56.107
18324,-0.1973,-0.4961,-0.8882,11.292,-2.502,-8.606,-155.187,8.877,-55.942
18334,-0.1973,-0.4961,-0.8882,7.263,-0.549,-6.714,-155.039,8.893,-55.876
18344,-0.2271,-0.4941,-0.7808,5.066,0.793,-5.798,-154.907,8.915,-55.827
18364,-0.2236,-0.4893,-0.7725,0.244,2.686,-3.052,-154.731,8.937,-55.778
18384,-0.1855,-0.4321,-0.8296,-6.897,2.625,-1.16,-154.759,8.932,-55.778
18414,-0.0776,-0.3574,-1.022,-8.423,2.93,0.305,-155.099,8.767,-55.816
18433,-0.062,-0.3672,-1.0625,-2.625,5.371,0.183,-155.237,8.569,-55.865
18454,-0.1001,-0.3853,-1.0415,4.883,3.784,-1.831,-155.259,8.405,-55.876
18473,-0.1191,-0.3911,-1.0098,6.775,2.563,-2.38,-155.187,8.306,-55.854
18483,-0.1489,-0.4053,-0.939,6.775,2.563,-2.38,-155.127,8.273,-55.844
18494,-0.1587,-0.4126,-0.9121,7.324,2.686,-1.953,-155.061,8.251,-55.838
18513,-0.1685,-0.4233,-0.8799,7.324,2.686,-1.953,-154.902,8.234,-55.865
18523,-0.1724,-0.4258,-0.873,7.813,2.014,2.625,-154.819,8.245,-55.898
18533,-0.1704,-0.4263,-0.8721,7.263,1.892,4.211,-154.742,8.262,-55.942
18563,-0.1538,-0.4009,-0.9023,3.479,2.686,5.066,-154.638,8.311,-56.124
18573,-0.1489,-0.3984,-0.9224,2.625,3.296,3.479,-154.638,8.295,-56.168
18583,-0.1489,-0.3984,-0.9224,2.441,3.906,2.441,-154.644,8.267,-56.212
18593,-0.1201,-0.4141,-0.9639,2.502,4.272,1.953,-154.644,8.218,-56.245
18603,-0.1001,-0.4272,-0.9814,2.93,3.845,1.465,-154.638,8.163,-56.277
18623,-0.0781,-0.459,-1.0029,4.517,2.563,0.183,-154.578,8.036,-56.31
18633,-0.0811,-0.457,-1.0059,4.517,2.563,0.183,-154.545,7.976,-56.321
18643,-0.085,-0.4512,-1.0073,5.859,2.197,0.305,-154.501,7.921,-56.332
18663,-0.0889,-0.4443,-1.0093,5.859,2.197,0.305,-154.319,7.833,-56.387
18673,-0.1201,-0.4453,-0.9683,16.296,3.662,2.625,-154.171,7.795,-56.426
18683,-0.1479,-0.4512,-0.9199,18.738,3.357,3.601,-153.99,7.784,-56.47
18692,-0.1479,-0.4512,-0.9199,18.738,3.357,3.601,-153.787,7.811,-56.519
18702,-0.2173,-0.4551,-0.8003,17.334,1.587,3.235,-153.589,7.866,-56.558
18713,-0.2173,-0.4551,-0.8003,17.334,1.587,3.235,-153.435,7.943,-56.58
18723,-0.2349,-0.4321,-0.7412,4.395,-1.343,0.366,-153.353,8.031,-56.574
18742,-0.2251,-0.4131,-0.7637,-9.583,-4.395,-3.418,-153.413,8.201,-56.492
18753,-0.2007,-0.396,-0.8062,-14.893,-4.456,-3.601,-153.556,8.273,-56.442
18772,-0.1133,-0.3745,-0.9556,-16.052,-2.014,-2.441,-153.957,8.289,-56.365
18782,-0.0781,-0.3809,-1.0322,-11.963,-0.977,-1.709,-154.127,8.245,-56.349
18793,-0.0518,-0.3911,-1.0884,-6.165,0.183,-0.793,-154.248,8.185,-56.338
18812,-0.041,-0.4419,-1.1045,3.784,0.916,-0.549,-154.308,8.042,-56.343
18822,-0.041,-0.4419,-1.1045,3.784,0.916,-0.549,-154.281,7.976,-56.321
18862,-0.1538,-0.4849,-0.8877,-2.136,-4.028,-4.761,-154.144,7.982,-56.091
18882,-0.209,-0.4756,-0.7773,-5.005,-3.662,-0.305,-154.122,8.146,-56.03
18893,-0.1997,-0.4463,-0.7949,-3.479,-1.953,2.258,-154.122,8.218,-56.041
18902,-0.1997,-0.4463,-0.7949,-2.441,0.61,3.235,-154.122,8.251,-56.074
18922,-0.1577,-0.4219,-0.8823,-9.216,1.709,1.16,-154.248,8.267,-56.118
18932,-0.1343,-0.3994,-0.9287,-12.512,1.343,-0.244,-154.396,8.245,-56.124
18942,-0.0933,-0.3716,-0.9976,-12.939,0.366,-1.404,-154.572,8.201,-56.113
18972,0.0913,-0.3101,-1.374,-2.38,4.333,-4.089,-155.105,7.85,-56.069
18991,0.0386,-0.4375,-1.3721,7.141,6.897,-6.775,-155.017,7.465,-55.981
19012,-0.2085,-0.5322,-0.8979,32.593,0.061,-7.019,-154.363,7.383,-55.854
19022,-0.3159,-0.5264,-0.6489,33.997,-2.625,-3.906,-153.886,7.52,-55.805
19031,-0.3159,-0.5264,-0.6489,31.25,-9.705,1.16,-153.342,7.822,-55.772
19041,-0.4214,-0.5649,-0.373,24.963,-17.7,7.996,-152.798,8.251,-55.767
19052,-0.4121,-0.5498,-0.3926,24.963,-17.7,7.996,-152.375,8.723,-55.794
19071,-0.2539,-0.4658,-0.6499,24.963,-17.7,7.996,-152.205,9.322,-55.953
19081,-0.2539,-0.4658,-0.6499,24.963,-17.7,7.996,-152.38,9.415,-56.052
19092,-0.1167,-0.3374,-0.9941,-14.526,5.432,8.423,-152.628,9.377,-56.151
19101,-0.1167,-0.3374,-0.9941,-14.526,5.432,8.423,-152.864,9.223,-56.266
19111,-0.0347,-0.2852,-1.2319,-0.549,19.409,1.953,-153.029,8.987,-56.371
19121,-0.0171,-0.313,-1.2705,8.484,22.4,-2.93,-153.083,8.69,-56.448
19151,-0.0269,-0.3555,-1.2559,15.625,20.508,-5.798,-152.814,8.026,-56.442
19161,-0.1011,-0.4956,-1.0127,13.611,-4.395,-10.254,-152.677,7.987,-56.327
19181,-0.1284,-0.522,-0.9263,8.179,-20.142,-6.653,-152.375,8.218,-56.025
19191,-0.21,-0.5713,-0.7368,7.019,-22.4,-2.93,-152.183,8.448,-55.893
19201,-0.252,-0.5781,-0.6641,4.761,-22.644,1.16,-151.99,8.729,-55.8
19231,-0.3003,-0.5581,-0.5811,-10.193,-8.667,5.432,-151.606,9.503,-55.734
19241,-0.2686,-0.52,-0.6353,-16.907,-3.418,4.395,-151.666,9.641,-55.756
19271,-0.085,-0.3564,-1.0073,-20.63,11.841,2.258,-152.457,9.47,-55.942
19290,-0.04,-0.3398,-1.1069,-7.019,15.259,-0.122,-152.897,9.047,-56.091
19300,-0.04,-0.3398,-1.1069,-7.019,15.259,-0.122,-153.023,8.833,-56.135
19311,-0.0103,-0.3994,-1.1655,-0.305,8.484,-4.333,-153.105,8.652,-56.135
19340,-0.0942,-0.4907,-0.9888,-0.671,-5.92,-6.104,-153.193,8.487,-55.926
19351,-0.1221,-0.5024,-0.9331,0.671,-4.761,-4.578,-153.166,8.487,-55.865
19380,-0.1631,-0.4897,-0.8569,4.211,0.916,-0.122,-152.946,8.481,-55.876
19400,-0.1816,-0.4775,-0.813,8.972,8.789,6.287,-152.726,8.454,-56.052
19410,-0.1816,-0.4775,-0.813,8.972,8.789,6.287,-152.655,8.443,-56.146
19420,-0.2109,-0.4395,-0.7959,1.404,7.019,4.639,-152.633,8.448,-56.223
19450,-0.2036,-0.4355,-0.8252,-10.925,2.319,-0.488,-152.825,8.481,-56.299
19460,-0.1787,-0.4292,-0.8657,-13.733,2.075,-1.343,-152.968,8.476,-56.299
19480,-0.1387,-0.418,-0.9316,-13.367,3.357,-1.526,-153.331,8.366,-56.294
19530,-0.04,-0.4302,-1.1846,8.179,5.005,0.427,-153.6,7.789,-56.404
19549,-0.1177,-0.4531,-1.0493,25.33,3.418,4.15,-153.237,7.696,-56.503
19560,-0.1177,-0.4531,-1.0493,27.771,3.418,4.822,-152.985,7.696,-56.558
19570,-0.189,-0.4644,-0.8823,27.405,3.174,5.005,-152.71,7.718,-56.618
19589,-0.2148,-0.4634,-0.8115,27.405,3.174,5.005,-152.227,7.883,-56.7
19599,-0.2148,-0.4634,-0.8115,14.099,-3.662,2.869,-152.029,8.02,-56.711
19610,-0.27,-0.4819,-0.6763,7.629,-6.348,1.343,-151.875,8.179,-56.689
19639,-0.2485,-0.481,-0.6797,-12.024,-6.104,-2.075,-151.798,8.635,-56.563
19650,-0.2148,-0.4692,-0.731,-17.029,-4.578,-3.174,-151.913,8.712,-56.514
19679,-0.0356,-0.4102,-1.0547,-20.081,1.831,-5.066,-152.611,8.564,-56.393
19699,-0.0015,-0.395,-1.1416,-15.686,2.808,-5.127,-153.023,8.289,-56.332
19709,0.0117,-0.4116,-1.2012,-15.686,2.808,-5.127,-153.127,8.163,-56.31
19719,-0.0234,-0.437,-1.1553,3.784,-0.244,-2.075,-153.149,8.086,-56.288
19739,-0.062,-0.4624,-1.0811,3.784,-0.244,-2.075,-152.996,8.058,-56.255
19749,-0.1533,-0.4976,-0.8979,12.817,-3.479,1.77,-152.847,8.097,-56.255
19759,-0.1982,-0.4946,-0.8071,12.329,-3.357,3.418,-152.682,8.179,-56.272
19768,-0.1982,-0.4946,-0.8071,12.329,-3.357,3.418,-152.512,8.289,-56.299
19779,-0.1982,-0.4946,-0.8071,12.329,-3.357,3.418,-152.358,8.416,-56.327
19789,-0.2656,-0.4902,-0.6699,12.329,-3.357,3.418,-152.26,8.542,-56.354
19799,-0.2563,-0.4771,-0.6846,-6.226,-0.916,2.563,-152.254,8.646,-56.371
19808,-0.2563,-0.4771,-0.6846,-14.038,0.0,0.732,-152.364,8.707,-56.382
19819,-0.1738,-0.417,-0.8345,-14.038,0.0,0.732,-152.556,8.712,-56.371
19829,-0.1221,-0.3882,-0.9497,-19.897,1.343,-2.441,-152.803,8.668,-56.354
19859,-0.0298,-0.3774,-1.1812,-8.728,3.296,-5.371,-153.457,8.35,-56.283
19869,-0.0308,-0.4092,-1.1807,-2.686,2.563,-5.92,-153.55,8.229,-56.239
19878,-0.0308,-0.4092,-1.1807,-2.686,2.563,-5.92,-153.578,8.157,-56.201
19889,-0.0962,-0.4492,-1.0679,5.798,-1.709,-2.991,-153.55,8.124,-56.168
19898,-0.0962,-0.4492,-1.0679,9.399,-1.404,-2.502,-153.468,8.108,-56.135
19909,-0.1426,-0.481,-0.9277,12.024,-0.671,-2.136,-153.336,8.102,-56.113
19928,-0.1426,-0.481,-0.9277,9.583,-1.404,0.305,-153.045,8.179,-56.096
19938,-0.2212,-0.4839,-0.7583,6.409,-1.343,0.671,-152.924,8.251,-56.096
19958,-0.2261,-0.4863,-0.7368,-1.099,-1.892,0.305,-152.776,8.399,-56.085
19968,-0.1963,-0.4717,-0.7666,-5.92,-2.258,0.793,-152.792,8.459,-56.085
19978,-0.1602,-0.4517,-0.8188,-10.376,-1.831,0.549,-152.88,8.492,-56.08
20008,-0.0254,-0.3633,-1.127,-12.573,0.854,0.671,-153.386,8.333,-56.107
