elapsed_ms,acc_x_g,acc_y_g,acc_z_g,gyro_x_dps,gyro_y_dps,gyro_z_dps,angle_x_deg,angle_y_deg,angle_z_deg
0,0.0718,-0.2524,-1.0171,-0.671,-0.732,-0.916,-166.102,-3.625,-16.677
20,0.0703,-0.2524,-1.0122,-0.122,-0.854,-0.732,-166.108,-3.62,-16.655
29,0.0703,-0.2534,-1.0137,-0.183,-0.793,-0.671,-166.108,-3.615,-16.65
50,0.0713,-0.2554,-1.0107,-0.366,-0.549,-0.488,-166.113,-3.609,-16.639
69,0.0703,-0.252,-1.0073,-0.366,-0.61,0.366,-166.119,-3.604,-16.639
79,0.0684,-0.2539,-1.0093,-0.183,-0.488,0.671,-166.119,-3.598,-16.644
90,0.0684,-0.2539,-1.0093,-0.244,-0.366,0.854,-166.119,-3.593,-16.65
139,0.0688,-0.2505,-1.019,-0.244,-0.122,0.244,-166.13,-3.587,-16.677
159,0.0698,-0.2549,-1.0146,-0.122,-0.549,0.732,-166.124,-3.576,-16.688
179,0.0718,-0.2554,-1.0195,0.916,-0.183,0.366,-166.102,-3.582,-16.694
189,0.0757,-0.2563,-1.0195,0.732,-0.305,0.732,-166.091,-3.582,-16.699
199,0.0757,-0.2563,-1.0195,0.732,-0.427,1.038,-166.086,-3.582,-16.705
229,0.0688,-0.2544,-1.0088,1.587,0.549,0.977,-166.042,-3.582,-16.738
248,0.0669,-0.2544,-1.0078,1.404,1.221,0.732,-166.009,-3.604,-16.76
259,0.0669,-0.2544,-1.0078,1.282,1.343,0.671,-165.992,-3.615,-16.771
288,0.0674,-0.2529,-1.0088,1.038,0.793,0.977,-165.97,-3.631,-16.804
309,0.0693,-0.2534,-1.0156,1.282,0.854,0.916,-165.938,-3.653,-16.826
339,0.0703,-0.2549,-1.019,1.648,1.77,0.61,-165.894,-3.702,-16.859
349,0.0703,-0.2549,-1.019,2.075,1.526,0.793,-165.872,-3.719,-16.87
368,0.0703,-0.2549,-1.019,1.953,0.977,1.16,-165.828,-3.735,-16.897
398,0.0674,-0.2554,-1.0112,1.587,0.549,1.648,-165.778,-3.741,-16.946
408,0.0664,-0.2554,-1.0068,1.587,0.549,1.648,-165.762,-3.741,-16.963
418,0.0679,-0.2578,-1.002,1.587,0.549,1.648,-165.745,-3.746,-16.985
448,0.0654,-0.2559,-1.0005,0.732,1.16,1.282,-165.707,-3.757,-17.034
458,0.0654,-0.2559,-1.0005,0.488,1.465,1.16,-165.701,-3.768,-17.051
478,0.0703,-0.2539,-1.0088,0.549,1.709,1.404,-165.696,-3.796,-17.084
518,0.0669,-0.2515,-1.0127,-0.244,0.916,1.648,-165.712,-3.812,-17.155
528,0.0688,-0.2515,-1.0078,-0.244,0.916,1.648,-165.718,-3.818,-17.166
547,0.0688,-0.2573,-1.0073,-0.427,0.854,0.427,-165.723,-3.829,-17.183
558,0.0698,-0.2603,-1.0049,-0.488,0.61,0.488,-165.729,-3.834,-17.188
568,0.0698,-0.2603,-1.0049,-0.61,0.488,0.549,-165.729,-3.84,-17.194
618,0.0737,-0.2588,-1.0142,-0.549,1.404,1.343,-165.745,-3.889,-17.254
627,0.0693,-0.2554,-1.0122,-0.549,1.404,1.343,-165.751,-3.9,-17.276
638,0.0679,-0.2529,-1.0151,-0.549,1.404,1.343,-165.762,-3.906,-17.292
657,0.064,-0.2549,-1.0142,-0.854,1.282,1.16,-165.778,-3.922,-17.32
667,0.064,-0.2529,-1.0142,-0.916,1.038,0.977,-165.789,-3.922,-17.331
677,0.064,-0.2529,-1.0142,-1.16,0.732,0.732,-165.8,-3.922,-17.342
717,0.0659,-0.252,-1.0146,-1.648,0.427,0.305,-165.866,-3.922,-17.364
737,0.0659,-0.252,-1.0146,-1.709,0.061,0.061,-165.905,-3.917,-17.369
767,0.0654,-0.2534,-1.0146,-2.502,-0.793,0.061,-165.97,-3.889,-17.364
777,0.062,-0.2549,-1.0142,-2.93,-1.099,0.183,-165.998,-3.873,-17.364
787,0.062,-0.2549,-1.0142,-2.93,-1.099,0.183,-166.025,-3.856,-17.364
817,0.0718,-0.2598,-1.0156,-2.808,-1.221,0.061,-166.097,-3.829,-17.353
827,0.0723,-0.2603,-1.0176,-2.38,-1.282,0.244,-166.119,-3.812,-17.353
836,0.0723,-0.2603,-1.0176,-2.38,-1.282,0.244,-166.135,-3.801,-17.353
846,0.0723,-0.2603,-1.0176,-1.831,-1.221,0.549,-166.146,-3.79,-17.353
876,0.0742,-0.2583,-1.0244,-0.61,-1.343,1.77,-166.168,-3.746,-17.38
886,0.0767,-0.2573,-1.0229,0.061,-1.404,2.197,-166.163,-3.73,-17.402
897,0.0767,-0.2573,-1.0229,1.038,-1.221,2.319,-166.146,-3.719,-17.419
907,0.0645,-0.272,-1.0317,1.038,-1.221,2.319,-166.113,-3.702,-17.452
926,0.0752,-0.2632,-1.0171,1.343,-0.488,6.165,-166.053,-3.686,-17.567
946,0.0752,-0.2451,-1.0181,0.305,-0.732,4.517,-166.031,-3.653,-17.633
956,0.0752,-0.2451,-1.0181,5.188,-0.549,2.319,-165.976,-3.642,-17.655
986,0.0659,-0.2573,-1.0127,4.089,-0.244,2.563,-165.811,-3.615,-17.732
1006,0.063,-0.2471,-1.0103,3.54,-0.122,2.319,-165.745,-3.604,-17.776
1036,0.0659,-0.2515,-1.0103,4.456,0.61,1.404,-165.635,-3.604,-17.825
1046,0.0659,-0.2515,-1.0103,3.845,0.549,1.221,-165.597,-3.604,-17.842
1066,0.0688,-0.2539,-1.0107,3.296,0.427,1.16,-165.531,-3.615,-17.864
1095,0.0679,-0.2529,-1.0059,1.831,0.061,0.0,-165.476,-3.62,-17.875
1145,0.063,-0.2612,-0.9995,-0.183,0.427,-0.122,-165.449,-3.615,-17.88
1156,0.063,-0.2612,-0.9995,-0.366,0.671,-0.244,-165.449,-3.625,-17.88
1175,0.063,-0.2612,-0.9995,-1.282,0.793,-0.61,-165.471,-3.642,-17.869
1196,0.0723,-0.2646,-1.0137,-1.221,0.916,-0.732,-165.493,-3.669,-17.864
1225,0.0674,-0.2622,-1.0142,-1.404,0.732,-0.671,-165.537,-3.686,-17.858
1245,0.0649,-0.2612,-1.0132,-1.404,0.427,-0.061,-165.564,-3.697,-17.858
1265,0.0654,-0.2607,-1.0132,-1.16,0.061,-0.122,-165.586,-3.697,-17.858
1305,0.061,-0.2583,-1.0088,-1.465,-0.61,0.305,-165.635,-3.658,-17.858
1325,0.061,-0.2583,-1.0088,-1.648,-0.793,0.305,-165.668,-3.636,-17.858
1335,0.0615,-0.2529,-1.0132,-1.648,-0.793,0.305,-165.69,-3.625,-17.864
1354,0.0615,-0.2534,-1.0127,-2.136,-1.099,0.427,-165.734,-3.598,-17.869
1375,0.0605,-0.2515,-1.0215,-2.075,-1.831,0.427,-165.784,-3.56,-17.869
1394,0.0635,-0.25,-1.0278,-2.197,-2.197,-0.366,-165.839,-3.516,-17.858
1415,0.0713,-0.2544,-1.0249,-2.441,-3.052,-0.61,-165.894,-3.472,-17.831
1434,0.0703,-0.2544,-1.0156,-2.38,-4.028,0.183,-165.943,-3.406,-17.809
1444,0.0684,-0.2544,-1.0078,-2.38,-4.028,0.183,-165.965,-3.373,-17.803
1464,0.0693,-0.2549,-1.0044,-1.343,-2.93,0.366,-165.987,-3.318,-17.798
1484,0.0752,-0.2607,-0.9976,-1.038,-1.953,0.549,-165.992,-3.29,-17.792
1504,0.0767,-0.2661,-0.998,-0.244,-0.854,1.587,-165.987,-3.285,-17.814
1514,0.0723,-0.2646,-1.0039,-0.244,-0.854,1.587,-165.976,-3.279,-17.831
1524,0.0791,-0.2661,-1.0059,5.127,5.371,2.197,-165.916,-3.34,-17.869
1544,0.0825,-0.2725,-1.0181,7.08,7.141,2.38,-165.734,-3.483,-17.952
1554,0.0859,-0.2759,-1.0298,7.08,7.141,2.38,-165.586,-3.499,-17.99
1573,0.0967,-0.2876,-1.0488,19.958,-6.226,5.127,-165.157,-3.329,-18.067
1584,0.0967,-0.2876,-1.0488,25.269,-17.212,14.771,-164.888,-3.159,-18.166
1594,0.1465,-0.3555,-1.2344,25.269,-17.212,14.771,-164.46,-2.884,-18.38
1624,0.0972,-0.4692,-1.2471,92.773,-34.546,59.631,-162.026,-1.555,-19.611
1634,0.0972,-0.4692,-1.2471,104.248,-29.053,62.866,-160.928,-1.104,-20.116
1653,-0.0122,-0.5366,-0.8799,104.248,-29.053,62.866,-158.406,-0.225,-21.198
1664,-0.0859,-0.4741,-0.6304,104.248,-29.053,62.866,-157.044,0.242,-21.714
1674,-0.1577,-0.438,-0.3408,104.248,-29.053,62.866,-155.638,0.764,-22.176
1683,-0.1577,-0.438,-0.3408,104.248,-29.053,62.866,-154.726,1.055,-22.516
1693,-0.1577,-0.438,-0.3408,56.946,-6.531,18.555,-154.16,1.192,-22.659
1753,0.1509,-0.0342,-1.3027,-50.659,94.604,-63.66,-156.105,-3.192,-21.632
1763,0.3486,-0.1587,-2.0825,-50.659,94.604,-63.66,-156.467,-4.246,-21.407
1773,0.3687,-0.2886,-2.0649,-50.659,94.604,-63.66,-156.693,-5.043,-21.094
1803,0.1934,-0.5278,-1.4087,16.479,-44.861,-17.212,-156.594,-4.999,-19.979
1813,0.1934,-0.5278,-1.4087,18.188,-48.767,-5.432,-156.434,-4.576,-19.737
1822,0.1934,-0.5278,-1.4087,18.188,-48.767,-5.432,-156.324,-4.241,-19.594
1843,0.02,-0.4604,-0.4736,-1.77,-2.502,8.179,-156.302,-4.005,-19.622
1862,0.0347,-0.3867,-0.5845,-2.93,10.315,11.169,-156.324,-4.213,-19.957
1872,0.0347,-0.3867,-0.5845,-1.038,28.259,8.423,-156.324,-4.438,-20.149
1883,0.1357,-0.2632,-1.1294,-1.038,28.259,8.423,-156.319,-4.658,-20.286
1902,0.1577,-0.2764,-1.2144,9.094,17.212,-8.667,-156.193,-5.059,-20.341
1912,0.1626,-0.4097,-1.1655,13.245,10.742,-11.23,-156.066,-5.202,-20.281
1923,0.1626,-0.4097,-1.1655,13.245,10.742,-11.23,-155.918,-5.284,-20.198
1952,0.1382,-0.5918,-0.769,7.019,0.916,-2.625,-155.61,-5.35,-20.05
1963,0.1104,-0.6016,-0.6724,3.601,3.845,0.183,-155.577,-5.383,-20.067
1982,0.1104,-0.6016,-0.6724,3.601,3.845,0.183,-155.544,-5.587,-20.259
2012,0.1226,-0.4365,-0.8696,9.949,52.979,2.38,-155.248,-6.669,-20.934
2022,0.1226,-0.4365,-0.8696,7.935,51.331,-0.061,-155.143,-7.136,-21.154
2032,0.1226,-0.4365,-0.8696,4.089,43.152,-0.61,-155.078,-7.531,-21.33
2041,0.1226,-0.4365,-0.8696,3.418,36.682,-2.258,-155.028,-7.872,-21.462
2052,0.1675,-0.2695,-1.3228,6.531,27.222,-1.709,-154.946,-8.124,-21.566
2072,0.1675,-0.2695,-1.3228,14.221,8.362,-1.709,-154.677,-8.377,-21.654
2092,0.1675,-0.2695,-1.3228,9.888,-1.465,-2.869,-154.462,-8.388,-21.599
2112,0.0684,-0.3887,-0.792,6.714,0.183,-3.601,-154.385,-8.498,-21.55
2121,0.1284,-0.3931,-0.9375,-3.357,16.296,-9.094,-154.418,-8.685,-21.539
2132,0.1284,-0.3931,-0.9375,-3.357,16.296,-9.094,-154.523,-8.888,-21.511
2142,0.1924,-0.3452,-1.2173,-3.357,16.296,-9.094,-154.666,-9.053,-21.451
2171,0.1289,-0.457,-0.9624,-5.981,-5.371,-12.329,-154.935,-9.058,-21.055
2182,0.1289,-0.457,-0.9624,-3.601,-19.775,-8.179,-154.995,-8.915,-20.896
2191,0.1289,-0.457,-0.9624,-5.371,-17.334,-6.47,-155.067,-8.784,-20.764
2201,0.0918,-0.4844,-0.7197,-5.371,-17.334,-6.47,-155.16,-8.723,-20.665
2222,0.1714,-0.4556,-0.9248,-16.968,7.813,-10.559,-155.468,-8.882,-20.528
2241,0.1714,-0.4556,-0.9248,-23.01,8.667,-11.536,-155.951,-9.113,-20.358
2251,0.1929,-0.333,-1.1118,-23.01,8.667,-11.536,-156.16,-9.168,-20.215
2271,0.1792,-0.3384,-1.0874,-6.348,-10.132,-17.151,-156.39,-9.168,-19.825
2281,0.1792,-0.3384,-1.0874,-6.348,-10.132,-17.151,-156.517,-9.075,-19.627
2291,0.1416,-0.4009,-0.9004,-6.348,-10.132,-17.151,-156.649,-8.943,-19.44
2311,0.1216,-0.3994,-0.8423,-19.287,-19.043,-10.559,-157.022,-8.635,-19.083
2321,0.1406,-0.377,-0.8569,-19.287,-19.043,-10.559,-157.253,-8.575,-18.924
2331,0.1406,-0.377,-0.8569,-23.865,-7.324,-13.672,-157.516,-8.558,-18.765
2351,0.1553,-0.3384,-0.9468,-23.804,0.732,-16.174,-158.11,-8.652,-18.468
2361,0.189,-0.3286,-1.0796,-22.766,2.014,-17.761,-158.406,-8.745,-18.309
2371,0.1987,-0.332,-1.1172,-21.179,1.465,-17.639,-158.692,-8.833,-18.149
2380,0.1987,-0.332,-1.1172,-19.531,-1.221,-16.602,-158.961,-8.888,-17.99
2391,0.1987,-0.332,-1.1172,-17.883,-5.92,-14.954,-159.186,-8.899,-17.825
2420,0.1343,-0.4019,-0.895,-10.925,-15.869,-5.676,-159.472,-8.531,-17.507
2431,0.1123,-0.4175,-0.7593,-4.639,-12.024,3.235,-159.434,-8.394,-17.496
2441,0.105,-0.417,-0.7354,-4.639,-12.024,3.235,-159.362,-8.295,-17.518
2471,0.1694,-0.3726,-0.96,0.854,10.315,7.263,-159.197,-8.372,-17.77
2481,0.1968,-0.3496,-1.0703,0.854,10.315,7.263,-159.203,-8.465,-17.875
2490,0.1968,-0.3496,-1.0703,0.854,10.315,7.263,-159.23,-8.525,-17.968
2500,0.1968,-0.3496,-1.0703,2.258,1.831,7.629,-159.247,-8.531,-18.045
2530,0.1816,-0.3545,-1.1577,7.263,-16.968,10.01,-159.159,-8.141,-18.177
2550,0.0962,-0.4072,-0.8789,7.263,-19.775,10.925,-158.961,-7.652,-18.248
2570,0.064,-0.3945,-0.7612,7.263,-19.775,10.925,-158.719,-7.207,-18.386
2580,0.0781,-0.3848,-0.7461,5.493,-6.287,12.512,-158.593,-7.086,-18.479
2590,0.0781,-0.3848,-0.7461,7.385,0.549,9.338,-158.456,-7.042,-18.572
2650,0.1685,-0.3203,-1.0894,0.122,12.939,-2.502,-158.406,-7.833,-18.929
2660,0.2002,-0.3379,-1.1602,0.122,12.939,-2.502,-158.434,-7.932,-18.951
2679,0.1875,-0.3564,-1.1108,10.376,7.324,-0.854,-158.313,-8.091,-18.99
2690,0.1636,-0.4038,-0.9546,11.841,5.676,-1.099,-158.181,-8.157,-19.001
2700,0.1636,-0.4038,-0.9546,12.512,1.77,-0.732,-158.016,-8.179,-19.001
2709,0.1636,-0.4038,-0.9546,11.719,-1.343,1.099,-157.846,-8.157,-19.006
2749,0.1055,-0.3652,-0.8223,7.324,7.69,-0.061,-157.357,-8.311,-19.105
2770,0.1309,-0.3296,-1.0396,7.324,7.69,-0.061,-157.467,-8.602,-19.182
2789,0.1494,-0.3149,-1.1475,-16.846,19.165,-5.798,-157.901,-8.976,-19.237
2809,0.1899,-0.3389,-1.2407,-20.203,11.169,-8.484,-158.428,-9.278,-19.188
2819,0.1807,-0.3643,-1.1436,-20.203,11.169,-8.484,-158.643,-9.322,-19.144
2839,0.1177,-0.394,-0.9272,0.305,-11.902,1.526,-158.747,-9.119,-19.072
2849,0.0933,-0.4111,-0.8301,8.789,-13.794,3.54,-158.61,-8.948,-19.05
2869,0.0933,-0.4111,-0.8301,12.878,-4.822,2.869,-158.203,-8.712,-19.056
2899,0.0889,-0.417,-0.7988,-2.991,17.029,-5.371,-158.049,-8.987,-19.133
2919,0.2158,-0.3213,-1.084,-2.991,17.029,-5.371,-158.181,-9.421,-19.133
2938,0.2393,-0.314,-1.147,1.099,11.719,-4.456,-158.324,-9.761,-19.138
2968,0.2515,-0.3081,-1.2285,3.479,-5.676,-4.089,-158.445,-9.789,-19.034
2978,0.2515,-0.3081,-1.2285,-3.296,-8.728,-6.348,-158.56,-9.745,-18.946
3008,0.2153,-0.3633,-1.0381,-16.846,-31.677,-1.038,-159.11,-9.207,-18.572
3018,0.2153,-0.3633,-1.0381,-10.803,-35.156,2.747,-159.164,-8.855,-18.474
3029,0.0781,-0.394,-0.5332,-10.803,-35.156,2.747,-158.994,-8.531,-18.413
3058,0.0586,-0.4644,-0.3677,25.085,-3.479,13.672,-157.484,-7.943,-18.616
3069,0.0586,-0.4644,-0.3677,20.935,10.376,10.925,-157.061,-7.993,-18.759
3088,0.0586,-0.4644,-0.3677,2.93,43.884,-2.869,-156.808,-8.734,-19.061
3108,0.3701,-0.2896,-1.4155,-17.639,44.617,-8.484,-157.242,-9.767,-19.286
3118,0.3701,-0.2896,-1.4155,-15.625,29.907,-4.211,-157.511,-10.091,-19.363
3128,0.314,-0.2515,-1.4497,-2.747,12.573,2.441,-157.654,-10.217,-19.435
3138,0.314,-0.2515,-1.4497,13.306,-1.648,8.179,-157.61,-10.179,-19.506
3168,0.127,-0.4199,-0.9297,13.306,-1.648,8.179,-156.742,-9.393,-19.737
3178,0.127,-0.4199,-0.9297,29.663,-23.987,20.447,-156.39,-9.064,-19.83
3198,0.0762,-0.4385,-0.7529,29.663,-23.987,20.447,-155.83,-8.52,-20.039
3248,0.0981,-0.3994,-0.8335,8.789,1.099,11.78,-155.099,-8.157,-20.577
3267,0.1309,-0.415,-0.8916,8.423,14.709,-1.038,-154.902,-8.405,-20.698
3288,0.1758,-0.4141,-1.0122,7.874,12.695,-1.648,-154.808,-8.679,-20.786
3307,0.2144,-0.4297,-1.1123,7.874,12.695,-1.648,-154.688,-8.828,-20.863
3328,0.2002,-0.4404,-1.1001,8.24,-6.653,6.897,-154.578,-8.723,-20.934
3347,0.1572,-0.4316,-1.0093,8.24,-11.047,8.545,-154.451,-8.421,-20.995
3377,0.1118,-0.4175,-0.8989,8.911,-12.268,7.935,-154.182,-7.877,-21.055
3397,0.0938,-0.4087,-0.8442,5.188,-6.104,4.272,-154.061,-7.657,-21.083
3417,0.0981,-0.3882,-0.8423,5.188,-6.104,4.272,-154.039,-7.559,-21.072
3427,0.0981,-0.3882,-0.8423,-0.488,-1.038,-3.052,-154.061,-7.548,-21.039
3437,0.1157,-0.3901,-0.8862,-2.625,0.977,-6.165,-154.116,-7.575,-20.989
3457,0.1157,-0.3901,-0.8862,-6.104,3.296,-9.46,-154.287,-7.729,-20.852
3486,0.1519,-0.4507,-0.9272,-2.686,-5.493,-3.601,-154.473,-7.762,-20.649
3507,0.1382,-0.4619,-0.8936,-0.488,-5.981,-1.343,-154.435,-7.674,-20.594
3526,0.1416,-0.4673,-0.8936,-0.488,-5.981,-1.343,-154.336,-7.674,-20.605
3536,0.1626,-0.4624,-0.9443,3.723,3.906,-0.183,-154.292,-7.718,-20.621
3547,0.1626,-0.4624,-0.9443,3.113,4.639,-0.183,-154.27,-7.773,-20.638
3566,0.1626,-0.4624,-0.9443,3.54,1.282,1.892,-154.248,-7.822,-20.682
3596,0.1431,-0.4224,-0.9824,6.958,-5.127,4.395,-154.127,-7.685,-20.748
3616,0.127,-0.4263,-0.9355,6.531,-6.226,4.395,-154.028,-7.515,-20.759
3636,0.104,-0.4229,-0.8716,2.38,-5.92,0.793,-153.979,-7.366,-20.731
3646,0.1016,-0.4248,-0.8574,1.77,-4.7,-0.244,-153.962,-7.311,-20.709
3656,0.104,-0.4277,-0.8394,1.709,-3.54,-0.549,-153.935,-7.273,-20.687
3666,0.104,-0.4277,-0.8394,1.709,-3.54,-0.549,-153.907,-7.251,-20.671
3676,0.104,-0.4277,-0.8394,1.831,-0.488,-0.793,-153.88,-7.251,-20.665
3726,0.1826,-0.4634,-1.0186,3.601,3.479,0.977,-153.688,-7.432,-20.786
3745,0.188,-0.4717,-1.0581,3.601,3.479,0.977,-153.589,-7.509,-20.918
3756,0.1792,-0.4746,-1.0498,4.7,3.235,7.08,-153.556,-7.52,-20.995
3766,0.1792,-0.4746,-1.0498,4.883,0.977,9.583,-153.517,-7.493,-21.088
3785,0.1792,-0.4746,-1.0498,2.258,-4.15,14.587,-153.468,-7.306,-21.302
3815,0.0879,-0.4385,-0.9526,-11.292,0.427,10.498,-153.66,-6.971,-21.654
3825,0.0352,-0.4282,-0.7598,-11.292,0.427,10.498,-153.765,-6.965,-21.709
3835,0.0132,-0.4146,-0.6499,-11.292,0.427,10.498,-153.853,-6.998,-21.731
3855,0.0234,-0.3848,-0.5732,-15.564,15.93,-7.324,-154.001,-7.196,-21.742
3865,0.0547,-0.3687,-0.6606,-15.564,15.93,-7.324,-154.122,-7.388,-21.753
3875,0.0547,-0.3687,-0.6606,-16.846,28.564,-14.099,-154.308,-7.701,-21.747
3895,0.3301,-0.3633,-1.2964,-16.846,28.564,-14.099,-154.995,-8.674,-21.599
3905,0.4014,-0.3906,-1.4375,-16.846,28.564,-14.099,-155.424,-9.108,-21.44
3915,0.3662,-0.4116,-1.4316,-16.846,28.564,-14.099,-155.836,-9.245,-21.248
3925,0.3662,-0.4116,-1.4316,-16.846,28.564,-14.099,-156.182,-9.053,-21.066
3935,0.3662,-0.4116,-1.4316,-13.611,-48.645,5.859,-156.335,-8.591,-20.923
3965,0.0073,-0.4746,-0.5542,27.344,-31.921,19.592,-155.506,-6.894,-20.891
3975,0.0503,-0.5034,-0.624,22.034,-8.972,11.108,-155.138,-6.735,-20.956
3985,0.0503,-0.5034,-0.624,5.554,9.155,1.282,-154.979,-6.823,-21.006
4004,0.1807,-0.4673,-0.9028,-20.386,15.503,-3.54,-155.308,-7.213,-21.083
4034,0.2168,-0.2759,-1.249,5.798,-2.441,0.305,-155.819,-7.399,-21.11
4044,0.2168,-0.2759,-1.249,5.798,-2.441,0.305,-155.726,-7.311,-21.088
4074,0.0957,-0.4414,-0.8442,5.798,-2.441,0.305,-154.962,-6.812,-20.995
4095,0.0957,-0.4414,-0.8442,1.892,-2.38,-4.761,-154.638,-6.674,-20.896
4144,0.231,-0.3784,-1.2085,-10.864,12.207,-10.254,-155.347,-7.443,-20.682
4154,0.231,-0.3784,-1.2085,5.005,-2.563,-2.441,-155.374,-7.443,-20.649
4184,0.105,-0.4741,-0.8789,15.808,-15.32,3.296,-154.979,-7.009,-20.544
4204,0.105,-0.4741,-0.8789,8.362,-18.311,6.897,-154.545,-6.559,-20.495
4224,0.0166,-0.4868,-0.542,0.305,-3.967,5.676,-154.177,-6.257,-20.539
4234,0.041,-0.4736,-0.5869,-1.526,6.714,3.235,-154.056,-6.268,-20.599
4244,0.041,-0.4736,-0.5869,-2.93,17.639,-0.366,-154.028,-6.416,-20.671
4264,0.228,-0.3906,-1.1733,-2.93,17.639,-0.366,-154.259,-7.081,-20.797
4314,0.1504,-0.416,-1.0562,9.766,-9.338,5.188,-154.633,-7.493,-20.863
4333,0.0977,-0.481,-0.8374,9.766,-9.338,5.188,-154.034,-6.828,-20.901
4354,0.0005,-0.5166,-0.499,8.301,-23.254,19.348,-153.32,-6.031,-21.022
4413,0.1162,-0.397,-0.7295,-15.686,40.283,-5.676,-153.402,-6.817,-21.769
4423,0.1162,-0.397,-0.7295,-15.808,43.579,-11.23,-153.688,-7.3,-21.863
4432,0.1162,-0.397,-0.7295,-16.174,39.124,-15.015,-153.847,-7.718,-21.901
4443,0.1162,-0.397,-0.7295,-15.015,23.682,-14.099,-154.001,-7.993,-21.879
4483,0.2036,-0.3579,-1.3525,-1.16,-15.198,-5.554,-154.006,-7.476,-21.418
4512,0.0347,-0.4883,-0.6665,-2.625,-17.273,-1.343,-153.957,-6.866,-21.099
4533,0.0347,-0.4883,-0.6665,-8.301,-10.681,-2.93,-154.166,-6.762,-20.967
4563,0.1455,-0.4121,-0.9165,-6.897,13.672,-7.751,-154.451,-7.053,-20.896
4573,0.1455,-0.4121,-0.9165,-5.737,17.578,-10.132,-154.506,-7.256,-20.88
4592,0.2856,-0.4067,-1.3018,-5.737,17.578,-10.132,-154.594,-7.701,-20.781
4622,0.1948,-0.458,-1.0986,6.287,-14.038,-3.174,-154.539,-7.701,-20.517
4642,0.1055,-0.4976,-0.7832,7.446,-19.775,0.488,-154.402,-7.317,-20.374
4672,0.0527,-0.4746,-0.5894,0.427,-3.601,2.258,-154.303,-6.954,-20.308
4682,0.0527,-0.4746,-0.5894,-2.808,5.249,0.977,-154.33,-6.998,-20.341
4702,0.0527,-0.4746,-0.5894,-4.456,13.184,0.0,-154.407,-7.3,-20.473
4731,0.2422,-0.3281,-1.2173,0.244,18.372,-3.845,-154.446,-7.954,-20.665
4742,0.2432,-0.3345,-1.3047,4.7,9.644,-2.563,-154.396,-8.053,-20.682
4752,0.2075,-0.3574,-1.2422,4.7,9.644,-2.563,-154.303,-8.053,-20.676
4771,0.1772,-0.3926,-1.1294,12.695,-12.939,1.953,-154.061,-7.855,-20.61
4782,0.1108,-0.4541,-0.8633,9.583,-16.418,2.869,-153.973,-7.69,-20.566
4792,0.1108,-0.4541,-0.8633,5.981,-17.578,4.272,-153.918,-7.515,-20.528
4811,0.0522,-0.4609,-0.6392,5.981,-17.578,4.272,-153.864,-7.213,-20.511
4841,0.0581,-0.4546,-0.6519,1.77,-1.16,5.981,-153.814,-7.114,-20.649
4851,0.0581,-0.4546,-0.6519,-3.418,13.733,-0.305,-153.842,-7.24,-20.709
4862,0.187,-0.3926,-1.0806,-3.418,13.733,-0.305,-153.896,-7.438,-20.759
4881,0.25,-0.3774,-1.25,-7.69,18.677,-9.521,-154.05,-7.883,-20.786
4891,0.2739,-0.3882,-1.3862,-5.249,6.714,-7.568,-154.111,-7.976,-20.748
4901,0.2739,-0.3882,-1.3862,0.183,-6.775,-3.784,-154.116,-7.932,-20.682
4921,0.189,-0.4312,-1.1982,0.183,-6.775,-3.784,-153.979,-7.575,-20.522
4931,0.1035,-0.4775,-0.8936,8.362,-26.184,2.441,-153.907,-7.328,-20.424
4941,0.0654,-0.4854,-0.75,5.005,-26.978,3.052,-153.869,-7.07,-20.336
4971,0.0142,-0.4414,-0.5439,-5.676,-10.681,0.061,-153.622,-6.416,-20.143
4981,0.0142,-0.4414,-0.5439,-6.897,-2.808,-1.404,-153.572,-6.356,-20.116
5001,0.0142,-0.4414,-0.5439,-6.226,12.39,-3.784,-153.578,-6.504,-20.138
5021,0.0142,-0.4414,-0.5439,-4.822,26.978,-9.46,-153.776,-7.064,-20.209
5031,0.0142,-0.4414,-0.5439,-4.944,28.625,-12.573,-153.94,-7.421,-20.226
5041,0.3188,-0.3438,-1.4043,-4.944,28.625,-12.573,-154.094,-7.729,-20.209
5051,0.3188,-0.3438,-1.4043,0.366,9.277,-9.155,-154.215,-7.894,-20.165
5070,0.2065,-0.4155,-1.1816,0.366,9.277,-9.155,-154.243,-7.767,-20.023
5081,0.1567,-0.4546,-0.9966,0.366,9.277,-9.155,-154.166,-7.564,-19.924
5091,0.1567,-0.4546,-0.9966,6.042,-27.466,1.892,-154.078,-7.295,-19.819
5101,0.1567,-0.4546,-0.9966,0.488,-26.062,2.686,-153.99,-7.02,-19.726
5110,0.0391,-0.4648,-0.5679,-4.883,-19.592,2.258,-153.913,-6.795,-19.66
5150,0.1025,-0.3999,-0.7402,-9.583,-2.625,1.526,-153.886,-6.735,-19.726
5161,0.1797,-0.373,-0.9619,-9.583,-2.625,1.526,-154.05,-7.004,-19.797
5180,0.2568,-0.3433,-1.2026,-13.977,26.123,-8.545,-154.534,-7.657,-19.907
5210,0.2246,-0.3916,-1.2661,-5.737,-0.671,-4.578,-155.039,-7.795,-19.781
5220,0.2246,-0.3916,-1.2661,-5.737,-0.671,-4.578,-155.045,-7.553,-19.687
5230,0.2246,-0.3916,-1.2661,-0.549,-36.56,5.615,-155.028,-7.191,-19.583
5240,0.0562,-0.4878,-0.6797,-5.249,-39.795,8.606,-154.984,-6.762,-19.495
5250,0.0562,-0.4878,-0.6797,-5.249,-39.795,8.606,-154.918,-6.339,-19.429
5260,0.0015,-0.4883,-0.48,-5.249,-39.795,8.606,-154.847,-5.977,-19.402
5290,0.0308,-0.437,-0.5527,-22.278,8.118,3.174,-155.05,-5.702,-19.506
5310,0.252,-0.2949,-1.2847,-20.447,17.09,-1.831,-155.638,-6.125,-19.633
5330,0.2544,-0.2661,-1.4922,-6.409,-6.836,1.526,-156.127,-6.213,-19.644
5369,0.1558,-0.3516,-1.2812,17.029,-41.504,10.742,-155.874,-4.801,-19.396
5390,0.0239,-0.4814,-0.7739,8.423,-38.086,9.277,-155.561,-3.944,-19.248
5420,-0.0146,-0.4321,-0.6128,-7.813,-21.24,6.897,-155.446,-3.175,-19.171
5439,0.0073,-0.3887,-0.6899,-15.381,-0.366,3.723,-155.577,-3.197,-19.265
5449,0.0522,-0.3799,-0.8013,-6.592,23.865,-1.465,-155.632,-3.417,-19.347
5460,0.0522,-0.3799,-0.8013,-3.723,32.532,-4.761,-155.693,-3.757,-19.44
5489,0.2349,-0.3325,-1.373,-3.54,31.86,-6.348,-156.028,-4.785,-19.644
5529,0.0859,-0.4224,-1.001,12.634,-11.536,0.549,-155.901,-4.631,-19.545
5549,0.0464,-0.439,-0.8555,5.737,-19.104,2.563,-155.66,-4.202,-19.429
5559,0.0122,-0.4409,-0.6563,1.892,-14.526,1.648,-155.55,-4.032,-19.385
5569,0.0122,-0.4409,-0.6563,-0.854,-8.545,0.671,-155.451,-3.911,-19.358
5618,0.1792,-0.3584,-1.0952,0.977,28.015,-8.667,-155.341,-4.697,-19.462
5629,0.2202,-0.3398,-1.2754,0.977,28.015,-8.667,-155.418,-5.015,-19.484
5639,0.2202,-0.3398,-1.2754,5.188,18.738,-8.606,-155.479,-5.262,-19.484
5658,0.1904,-0.3755,-1.3457,5.188,18.738,-8.606,-155.38,-5.455,-19.418
5668,0.1597,-0.4277,-1.2222,23.315,-7.874,-3.357,-155.209,-5.416,-19.358
5679,0.1597,-0.4277,-1.2222,21.118,-15.381,-1.709,-155.017,-5.29,-19.276
5698,0.0503,-0.4849,-0.7529,6.836,-22.217,2.625,-154.709,-4.867,-19.122
5708,0.0244,-0.4756,-0.6396,0.244,-19.836,3.967,-154.6,-4.642,-19.072
5728,0.0049,-0.4443,-0.5762,-5.676,-7.08,3.967,-154.468,-4.323,-19.056
5738,0.0049,-0.4443,-0.5762,-4.028,2.197,2.563,-154.424,-4.296,-19.089
5748,0.0459,-0.3647,-0.7002,-4.028,2.197,2.563,-154.413,-4.384,-19.138
5768,0.1118,-0.3413,-0.8687,3.601,20.935,-3.601,-154.49,-4.823,-19.259
5778,0.2158,-0.293,-1.2637,5.005,19.897,-5.066,-154.561,-5.07,-19.303
5818,0.2285,-0.3066,-1.3525,9.033,14.16,-5.676,-154.402,-5.323,-19.1
5848,0.0503,-0.5,-0.6577,0.488,-17.212,-4.7,-154.045,-4.872,-18.715
5877,0.041,-0.4824,-0.5586,-6.531,5.249,-2.686,-153.82,-4.79,-18.583
5888,0.041,-0.4824,-0.5586,-6.531,5.249,-2.686,-153.814,-4.96,-18.622
5917,0.2163,-0.3916,-1.166,-6.531,5.249,-2.686,-154.061,-5.784,-18.88
5957,0.1934,-0.3545,-1.3711,11.169,-4.028,2.014,-154.111,-5.839,-18.957
5987,0.0151,-0.4434,-0.6904,-1.343,-22.949,5.31,-153.94,-5.109,-18.809
6007,-0.0049,-0.4292,-0.5605,-4.822,-18.433,4.456,-153.847,-4.708,-18.748
6027,0.0161,-0.4321,-0.5923,-7.141,5.127,-0.854,-153.77,-4.636,-18.759
6037,0.061,-0.4224,-0.7046,-7.202,13.55,-2.808,-153.792,-4.768,-18.792
6047,0.061,-0.4224,-0.7046,-7.08,20.874,-4.7,-153.875,-4.993,-18.847
6067,0.2256,-0.356,-1.3013,-7.202,23.743,-6.958,-154.193,-5.565,-18.94
6077,0.2476,-0.3486,-1.4053,-7.202,23.743,-6.958,-154.358,-5.784,-18.957
6107,0.1338,-0.418,-1.1772,9.888,-15.869,0.977,-154.495,-5.68,-18.842
6117,0.0991,-0.4541,-0.9971,9.888,-15.869,0.977,-154.418,-5.471,-18.77
6147,0.0171,-0.4546,-0.6221,-4.7,-18.677,4.639,-154.204,-4.735,-18.6
6157,0.0171,-0.4546,-0.6221,-5.493,-10.986,3.784,-154.149,-4.587,-18.589
6176,0.0435,-0.4297,-0.6616,-4.15,3.54,2.991,-154.061,-4.521,-18.644
6197,0.1357,-0.3813,-0.9575,-4.272,15.076,0.427,-154.166,-4.763,-18.776
6216,0.1357,-0.3813,-0.9575,-4.272,15.076,0.427,-154.407,-5.12,-18.875
6227,0.1357,-0.3813,-0.9575,-0.549,7.446,-2.625,-154.517,-5.229,-18.88
6246,0.1821,-0.3599,-1.2959,6.653,-6.287,-2.38,-154.605,-5.246,-18.809
6256,0.1348,-0.4185,-1.1084,7.874,-13.123,-0.977,-154.583,-5.147,-18.743
6266,0.1348,-0.4185,-1.1084,6.104,-18.433,0.244,-154.55,-4.988,-18.666
6286,0.1221,-0.4517,-0.9858,-4.7,-20.874,-0.427,-154.622,-4.647,-18.484
6296,0.1279,-0.4526,-1.0312,-11.902,-22.217,-0.671,-154.764,-4.471,-18.386
6316,0.1289,-0.4443,-1.0547,-19.958,-25.391,-1.221,-155.281,-3.994,-18.122
6326,0.1289,-0.4443,-1.0547,-19.958,-25.391,-1.221,-155.561,-3.604,-17.968
6366,-0.0537,-0.3911,-0.4023,6.775,1.831,8.057,-155.726,-2.411,-17.809
6376,0.0811,-0.3813,-0.8008,15.93,27.222,2.686,-155.561,-2.648,-17.946
6406,0.2725,-0.2998,-1.7021,15.93,27.222,2.686,-155.281,-3.642,-18.243
6446,0.0249,-0.4883,-0.8677,33.02,-20.874,1.831,-154.325,-3.087,-18.029
6475,-0.0498,-0.5337,-0.3579,11.23,-18.982,9.094,-153.66,-2.247,-17.93
6486,-0.0776,-0.4785,-0.3306,-0.671,-10.742,8.606,-153.666,-2.115,-17.957
6495,-0.0776,-0.4785,-0.3306,-0.671,-10.742,8.606,-153.743,-2.12,-18.023
6505,-0.0776,-0.4785,-0.3306,-0.671,-10.742,8.606,-153.847,-2.291,-18.116
6535,0.1831,-0.3071,-1.2544,-11.475,26.123,-8.667,-154.199,-3.208,-18.342
6545,0.1704,-0.2837,-1.4395,-11.475,26.123,-8.667,-154.243,-3.395,-18.331
6555,0.1704,-0.2837,-1.4395,5.737,6.653,-9.033,-154.193,-3.494,-18.276
6575,0.0713,-0.4697,-0.9854,5.737,6.653,-9.033,-153.951,-3.428,-18.1
6585,0.0581,-0.5107,-0.8252,6.165,-12.451,-4.517,-153.896,-3.34,-18.007
6595,0.0581,-0.5107,-0.8252,-2.014,-12.817,-1.831,-153.918,-3.23,-17.935
6615,0.0581,-0.5107,-0.8252,-12.329,-5.371,1.953,-154.138,-3.076,-17.886
6665,0.1167,-0.395,-0.9897,-8.728,20.508,-1.465,-154.693,-3.686,-18.281
6695,0.0903,-0.394,-1.1626,10.559,-8.057,1.648,-154.605,-3.724,-18.303
6705,0.0903,-0.394,-1.1626,14.038,-12.512,2.93,-154.468,-3.598,-18.276
6724,0.0151,-0.4722,-0.7358,3.296,-15.625,4.517,-154.33,-3.29,-18.215
6734,0.0151,-0.4722,-0.7358,-3.052,-11.841,4.333,-154.363,-3.164,-18.204
6745,0.0298,-0.4272,-0.7363,-6.104,-5.188,2.686,-154.424,-3.104,-18.204
6794,0.0874,-0.3862,-1.0063,0.549,-1.831,1.587,-154.567,-3.115,-18.298
6804,0.0879,-0.3936,-1.0366,2.93,-2.258,0.244,-154.539,-3.098,-18.287
6814,0.1055,-0.3979,-1.082,2.93,-2.258,0.244,-154.523,-3.054,-18.259
6834,0.1167,-0.3882,-1.124,-9.155,-16.052,0.061,-154.644,-2.829,-18.149
6844,0.104,-0.377,-1.1318,-12.817,-19.714,-0.244,-154.775,-2.653,-18.062
6854,0.104,-0.377,-1.1318,-13.428,-21.912,-0.916,-154.913,-2.461,-17.957
6874,0.104,-0.377,-1.1318,-13.428,-21.912,-0.916,-155.193,-2.016,-17.737
6924,-0.0093,-0.4438,-0.5977,-8.606,2.014,4.028,-155.303,-1.143,-17.595
6964,0.2007,-0.3091,-1.4004,-12.817,10.071,-2.747,-156.226,-2.038,-17.792
6983,0.1035,-0.3438,-1.3276,3.845,-14.221,1.221,-156.473,-1.917,-17.726
7004,-0.0127,-0.4395,-0.9004,10.315,-23.743,4.333,-156.292,-1.362,-17.606
7033,-0.0566,-0.458,-0.5537,-5.92,-12.878,4.211,-155.934,-0.571,-17.49
7044,-0.0566,-0.458,-0.5537,-10.254,-3.418,2.808,-155.891,-0.472,-17.501
7063,-0.022,-0.4121,-0.6382,-11.414,17.151,-1.038,-156.033,-0.687,-17.6
7103,0.0898,-0.2813,-1.3286,3.052,4.883,-1.221,-156.605,-1.45,-17.77
7113,0.0898,-0.2813,-1.3286,10.803,-1.77,-1.282,-156.583,-1.461,-17.748
7133,0.0156,-0.4238,-0.96,12.268,-13.062,0.549,-156.363,-1.263,-17.666
7153,-0.0044,-0.4473,-0.7612,7.08,-14.465,0.916,-156.171,-0.989,-17.578
7183,0.0024,-0.4307,-0.7183,-6.409,3.601,1.648,-156.072,-0.879,-17.589
7202,0.0161,-0.4121,-0.7661,-8.545,8.24,1.892,-156.204,-1.066,-17.71
7213,0.0161,-0.4121,-0.7661,-10.193,13.916,2.197,-156.319,-1.203,-17.787
7223,0.0635,-0.3511,-1.0034,-10.193,13.916,2.197,-156.467,-1.346,-17.864
7242,0.1157,-0.3237,-1.2173,-9.277,15.076,-0.549,-156.819,-1.692,-17.99
7253,0.1035,-0.2896,-1.3057,-8.606,10.132,-0.793,-157.011,-1.818,-18.018
7272,0.1123,-0.2827,-1.3437,0.427,1.587,-2.136,-157.264,-1.961,-18.018
7282,0.0713,-0.334,-1.2124,0.427,1.587,-2.136,-157.291,-1.917,-17.99
7293,0.0273,-0.3677,-1.0586,8.484,-13.306,1.465,-157.242,-1.785,-17.952
7303,0.0273,-0.3677,-1.0586,10.193,-15.747,2.319,-157.121,-1.615,-17.908
7322,-0.0298,-0.4556,-0.6504,10.193,-15.747,2.319,-156.78,-1.247,-17.869
7343,-0.0391,-0.4409,-0.5688,-2.197,-4.883,5.371,-156.5,-0.983,-17.908
7352,-0.0391,-0.4409,-0.5688,-2.197,-4.883,5.371,-156.462,-0.967,-17.963
7372,0.0889,-0.3647,-0.9878,-8.667,13.367,2.441,-156.654,-1.307,-18.122
7432,0.0615,-0.3755,-1.1265,7.813,-9.766,5.127,-157.126,-1.719,-18.358
7452,0.0054,-0.4092,-0.9092,5.859,-13.611,5.92,-156.989,-1.423,-18.369
7461,0.0054,-0.4092,-0.9092,5.859,-13.611,5.92,-156.907,-1.285,-18.369
7472,-0.0122,-0.4131,-0.7803,1.953,-7.08,3.723,-156.841,-1.181,-18.375
7501,0.0229,-0.3599,-0.9058,-4.089,5.005,2.258,-156.868,-1.165,-18.479
7512,0.0229,-0.3599,-0.9058,-4.089,5.005,2.258,-156.945,-1.247,-18.517
7522,0.0229,-0.3599,-0.9058,-1.892,9.46,-0.488,-157.022,-1.357,-18.55
7541,0.0674,-0.3438,-1.1582,-1.892,9.46,-0.488,-157.159,-1.483,-18.578
7552,0.062,-0.3574,-1.124,2.869,-0.671,-0.061,-157.181,-1.489,-18.578
7562,0.062,-0.3574,-1.124,5.005,-4.089,1.465,-157.165,-1.461,-18.572
7581,0.022,-0.4063,-0.9604,6.287,-8.789,4.333,-157.072,-1.236,-18.583
7602,0.0044,-0.4209,-0.8569,1.16,-13.062,7.385,-156.978,-0.923,-18.605
7611,0.0044,-0.4209,-0.8569,1.16,-13.062,7.385,-156.934,-0.769,-18.649
7621,-0.0059,-0.415,-0.8062,0.427,-10.193,11.902,-156.89,-0.621,-18.715
7631,-0.0107,-0.395,-0.7783,0.427,-10.193,11.902,-156.835,-0.483,-18.814
7651,-0.0093,-0.3975,-0.7715,2.991,4.578,11.78,-156.698,-0.396,-19.056
7661,-0.0098,-0.3594,-0.8047,2.014,10.986,8.667,-156.671,-0.45,-19.182
7671,-0.0098,-0.3594,-0.8047,2.93,17.7,3.662,-156.643,-0.599,-19.286
7711,0.0967,-0.3501,-1.1904,-3.357,9.705,-11.475,-156.775,-1.401,-19.254
7721,0.0967,-0.3501,-1.1904,-3.357,9.705,-11.475,-156.918,-1.516,-19.171
7731,0.0977,-0.333,-1.2676,-3.357,9.705,-11.475,-157.039,-1.566,-19.078
7741,0.0732,-0.3418,-1.2109,-3.357,9.705,-11.475,-157.094,-1.549,-18.99
7760,0.0415,-0.3564,-1.1157,11.719,-11.719,-6.226,-156.978,-1.395,-18.798
7771,0.0049,-0.4297,-0.8892,14.709,-12.207,-5.066,-156.808,-1.291,-18.704
7781,-0.0029,-0.4648,-0.7964,14.709,-12.207,-5.066,-156.61,-1.176,-18.622
7811,-0.0298,-0.4155,-0.6655,-7.507,-4.15,-0.854,-156.363,-0.89,-18.484
7821,-0.0298,-0.4155,-0.6655,-11.963,2.502,-0.061,-156.445,-0.895,-18.495
7830,-0.0298,-0.4155,-0.6655,-11.963,2.502,-0.061,-156.594,-0.972,-18.539
7840,-0.0298,-0.4155,-0.6655,-11.963,2.502,-0.061,-156.78,-1.132,-18.616
7851,0.1123,-0.2871,-1.1865,-11.963,2.502,-0.061,-156.967,-1.351,-18.704
7870,0.1118,-0.2886,-1.3208,3.418,11.169,-1.831,-157.187,-1.681,-18.803
7880,0.0991,-0.3345,-1.2695,11.597,4.822,-2.197,-157.148,-1.758,-18.798
7891,0.0669,-0.3823,-1.1362,11.597,4.822,-2.197,-157.028,-1.763,-18.776
7910,0.0186,-0.4458,-0.8677,12.329,-9.827,-3.784,-156.698,-1.631,-18.655
7919,0.0186,-0.4458,-0.8677,6.592,-9.46,-3.723,-156.561,-1.544,-18.583
7930,0.0186,-0.4458,-0.8677,0.854,-6.348,-3.54,-156.462,-1.472,-18.523
7950,-0.002,-0.3892,-0.7148,-9.033,4.089,-4.211,-156.478,-1.478,-18.457
7980,0.0576,-0.3604,-0.9175,-9.277,11.658,-4.517,-156.698,-2.016,-18.517
7990,0.0576,-0.3604,-0.9175,-9.277,11.658,-4.517,-156.736,-2.208,-18.545
8000,0.0889,-0.3774,-1.1328,-9.277,11.658,-4.517,-156.753,-2.379,-18.567
8030,0.0762,-0.397,-1.0928,1.526,7.08,-5.432,-156.819,-2.769,-18.534
8040,0.0762,-0.397,-1.0928,2.136,3.784,-4.028,-156.824,-2.823,-18.512
8049,0.061,-0.4082,-1.0127,2.136,3.784,-4.028,-156.797,-2.862,-18.501
8059,0.061,-0.4082,-1.0127,4.333,2.93,-1.526,-156.764,-2.895,-18.501
8070,0.0527,-0.4048,-0.9663,3.296,1.892,-1.282,-156.736,-2.917,-18.495
8090,0.0532,-0.3882,-0.9585,-1.404,-0.427,-1.282,-156.753,-2.933,-18.474
8099,0.0532,-0.3882,-0.9585,-1.404,-0.427,-1.282,-156.802,-2.944,-18.457
8110,0.0493,-0.3677,-0.9697,-1.404,-0.427,-1.282,-156.857,-2.961,-18.435
8129,0.0615,-0.375,-0.9731,-1.343,2.441,-4.15,-156.901,-3.065,-18.375
8139,0.0654,-0.3809,-0.9712,3.235,5.005,-5.493,-156.89,-3.137,-18.342
8150,0.0654,-0.3809,-0.9712,3.601,4.395,-5.249,-156.868,-3.203,-18.314
8169,0.0762,-0.3979,-0.9609,3.601,1.892,-3.723,-156.819,-3.296,-18.259
8179,0.0796,-0.4048,-0.9541,3.906,0.854,-3.113,-156.78,-3.329,-18.232
8199,0.0737,-0.4063,-0.9575,4.089,0.793,-3.418,-156.709,-3.384,-18.171
8209,0.0723,-0.4258,-0.9185,2.075,-0.671,-1.953,-156.676,-3.395,-18.155
8239,0.0566,-0.4258,-0.8564,2.93,0.793,1.099,-156.522,-3.378,-18.16
8259,0.0562,-0.4121,-0.8433,2.93,0.793,1.099,-156.456,-3.461,-18.21
8289,0.0967,-0.374,-0.9478,-2.991,12.268,-2.136,-156.55,-3.763,-18.303
8299,0.0967,-0.374,-0.9478,-3.967,12.878,-2.686,-156.616,-3.911,-18.331
8319,0.0967,-0.374,-0.9478,-5.066,9.583,-2.258,-156.791,-4.147,-18.369
8339,0.0947,-0.3706,-1.0547,-5.493,4.883,-1.892,-156.978,-4.29,-18.386
8348,0.0947,-0.3706,-1.0547,-4.517,4.333,-3.601,-157.05,-4.351,-18.369
8359,0.0889,-0.3789,-1.022,-4.517,4.333,-3.601,-157.126,-4.389,-18.336
8369,0.0845,-0.3853,-0.9873,-4.517,4.333,-3.601,-157.203,-4.417,-18.298
8388,0.063,-0.4048,-0.8755,-3.845,-1.587,-2.808,-157.269,-4.417,-18.232
8398,0.0474,-0.4224,-0.8081,-2.136,-1.526,-2.136,-157.242,-4.4,-18.204
8409,0.0474,-0.4224,-0.8081,-3.418,-0.549,-1.953,-157.22,-4.384,-18.182
8428,0.0356,-0.4092,-0.7451,-10.559,7.751,-4.333,-157.291,-4.471,-18.16
8449,0.1079,-0.3389,-0.9668,-14.465,17.944,-8.484,-157.588,-4.828,-18.144
8458,0.1079,-0.3389,-0.9668,-13.184,20.142,-10.132,-157.786,-5.07,-18.127
8478,0.1626,-0.2847,-1.2368,-4.456,17.151,-8.667,-158.121,-5.521,-18.094
8498,0.1851,-0.3032,-1.3564,-4.456,17.151,-8.667,-158.198,-5.724,-18.023
8518,0.145,-0.3813,-1.1992,12.878,-12.756,-2.319,-158.011,-5.587,-17.897
8548,0.0215,-0.4468,-0.6753,0.671,-15.503,-2.258,-157.615,-5.076,-17.655
8558,0.0215,-0.4468,-0.6753,-4.639,-10.559,-2.808,-157.555,-4.944,-17.589
8567,0.0215,-0.4468,-0.6753,-4.639,-10.559,-2.808,-157.516,-4.894,-17.551
8578,0.0215,-0.4468,-0.6753,-8.667,5.615,-4.7,-157.522,-4.933,-17.529
8607,0.1143,-0.3545,-0.9375,-9.155,20.813,-8.179,-157.83,-5.598,-17.534
8618,0.2041,-0.3296,-1.2373,-9.155,20.813,-8.179,-157.95,-5.883,-17.545
8628,0.2041,-0.3296,-1.2373,-1.221,17.761,-6.409,-158.044,-6.097,-17.551
8637,0.2041,-0.3296,-1.2373,3.357,10.559,-4.7,-158.088,-6.235,-17.545
8647,0.2041,-0.3296,-1.2373,3.357,10.559,-4.7,-158.06,-6.312,-17.529
8658,0.1587,-0.395,-1.1572,12.695,-0.793,-3.54,-157.972,-6.328,-17.496
8687,0.1235,-0.4277,-1.0376,5.859,-9.521,0.0,-157.577,-6.097,-17.358
8708,0.0498,-0.4194,-0.6841,-0.61,-4.089,2.563,-157.385,-5.922,-17.353
8717,0.0498,-0.4194,-0.6841,-0.61,-4.089,2.563,-157.308,-5.9,-17.375
8727,0.0571,-0.4053,-0.6953,-0.61,-4.089,2.563,-157.231,-5.938,-17.408
8737,0.0713,-0.3921,-0.7476,-0.61,-4.089,2.563,-157.181,-6.031,-17.441
8747,0.1021,-0.3716,-0.8521,-0.61,-4.089,2.563,-157.192,-6.174,-17.479
8757,0.1021,-0.3716,-0.8521,-4.15,18.494,-3.601,-157.264,-6.378,-17.518
8767,0.1826,-0.3174,-1.124,-4.517,20.386,-5.31,-157.374,-6.608,-17.551
8777,0.2109,-0.3027,-1.2349,-2.502,18.738,-5.798,-157.489,-6.828,-17.567
8787,0.2187,-0.3115,-1.2778,-2.502,18.738,-5.798,-157.555,-6.993,-17.573
8797,0.2187,-0.3115,-1.2778,-2.502,18.738,-5.798,-157.582,-7.059,-17.562
8826,0.1411,-0.3853,-1.0801,8.911,-7.813,-1.16,-157.445,-6.861,-17.452
8837,0.0776,-0.3999,-0.853,3.845,-13.123,1.221,-157.385,-6.718,-17.408
8847,0.062,-0.4048,-0.7646,3.845,-13.123,1.221,-157.313,-6.581,-17.386
8866,0.0522,-0.4087,-0.7095,-2.563,-3.723,1.831,-157.192,-6.405,-17.38
8877,0.0586,-0.4033,-0.7031,-2.563,-3.723,1.831,-157.176,-6.383,-17.386
8887,0.0586,-0.4033,-0.7031,-8.423,4.944,-0.916,-157.214,-6.422,-17.397
8917,0.1865,-0.3115,-1.1616,-11.292,15.747,-5.493,-157.654,-6.927,-17.413
8936,0.23,-0.313,-1.3228,-4.822,14.343,-8.85,-157.983,-7.344,-17.369
8946,0.23,-0.313,-1.3228,1.282,5.127,-5.981,-158.038,-7.432,-17.331
8976,0.123,-0.4351,-0.9536,9.155,-13.733,2.258,-157.703,-7.125,-17.221
8986,0.123,-0.4351,-0.9536,2.136,-11.353,2.258,-157.566,-6.982,-17.199
8996,0.0601,-0.4468,-0.6548,2.136,-11.353,2.258,-157.5,-6.916,-17.188
9016,0.1045,-0.3901,-0.7974,-12.024,12.878,-2.563,-157.599,-7.064,-17.227
9026,0.1411,-0.3555,-0.9468,-11.841,18.799,-4.456,-157.731,-7.262,-17.254
9036,0.1411,-0.3555,-0.9468,-9.521,23.743,-5.92,-157.885,-7.526,-17.292
9046,0.1411,-0.3555,-0.9468,-9.521,23.743,-5.92,-158.016,-7.822,-17.325
9056,0.2578,-0.3013,-1.3193,-9.521,23.743,-5.92,-158.121,-8.069,-17.342
9066,0.2388,-0.314,-1.2949,-9.521,23.743,-5.92,-158.148,-8.201,-17.353
9076,0.2153,-0.3418,-1.1958,10.803,1.77,-0.305,-158.104,-8.234,-17.358
9087,0.1753,-0.4004,-1.0186,14.038,-6.958,1.953,-157.967,-8.174,-17.353
9096,0.1753,-0.4004,-1.0186,12.695,-12.817,4.028,-157.808,-8.031,-17.342
9106,0.1157,-0.4277,-0.7681,12.695,-12.817,4.028,-157.659,-7.905,-17.336
9125,0.1084,-0.4204,-0.6987,-3.784,-3.662,4.395,-157.533,-7.762,-17.375
9136,0.1367,-0.3564,-0.7852,-4.639,3.174,2.625,-157.555,-7.789,-17.408
9146,0.1367,-0.3564,-0.7852,-2.38,7.69,2.014,-157.571,-7.872,-17.457
9156,0.1582,-0.3467,-0.917,-2.38,7.69,2.014,-157.588,-7.943,-17.512
9176,0.1855,-0.3633,-1.0093,2.197,7.69,2.441,-157.582,-8.097,-17.628
9186,0.1855,-0.3633,-1.0093,1.648,4.944,3.235,-157.588,-8.146,-17.677
9205,0.1855,-0.3633,-1.0093,3.235,3.174,2.869,-157.582,-8.207,-17.759
9235,0.1504,-0.3687,-1.0049,4.089,-0.183,2.502,-157.516,-8.19,-17.831
9245,0.1504,-0.3687,-1.0049,4.089,-0.183,2.502,-157.495,-8.174,-17.836
9256,0.1338,-0.3711,-0.978,4.089,-0.183,2.502,-157.478,-8.13,-17.842
9275,0.1172,-0.3862,-0.9131,3.967,-4.944,1.587,-157.401,-8.009,-17.836
9285,0.1011,-0.397,-0.8677,3.54,-5.127,1.465,-157.352,-7.932,-17.825
9295,0.1011,-0.397,-0.8677,2.869,-4.272,1.587,-157.302,-7.866,-17.825
9325,0.1406,-0.3911,-0.9375,2.869,3.418,0.854,-157.198,-7.888,-17.875
9335,0.1406,-0.3911,-0.9375,3.845,4.639,0.793,-157.159,-7.938,-17.897
9345,0.1406,-0.3911,-0.9375,3.845,4.639,0.793,-157.121,-7.976,-17.924
9355,0.1714,-0.3984,-1.0142,4.333,2.625,1.709,-157.094,-8.004,-17.952
9385,0.1753,-0.396,-1.0479,2.258,-3.296,3.296,-157.055,-7.982,-18.007
9405,0.1538,-0.4063,-0.9985,3.174,-5.249,4.639,-156.989,-7.833,-18.056
9424,0.1538,-0.4175,-0.9814,3.174,-5.249,4.639,-156.857,-7.581,-18.127
9435,0.1431,-0.4141,-0.9502,4.944,-16.602,11.414,-156.802,-7.388,-18.171
9445,0.1431,-0.4141,-0.9502,3.723,-19.897,12.512,-156.753,-7.152,-18.204
9454,0.1431,-0.4141,-0.9502,3.723,-19.897,12.512,-156.72,-6.916,-18.232
9464,0.1431,-0.4141,-0.9502,3.723,-19.897,12.512,-156.698,-6.74,-18.237
9485,0.0938,-0.4307,-0.8447,-10.864,-10.742,2.197,-156.78,-6.493,-18.204
9494,0.0938,-0.4307,-0.8447,-18.555,-10.315,0.977,-156.929,-6.383,-18.177
9515,0.0757,-0.373,-0.8276,-24.231,-8.789,0.244,-157.396,-6.218,-18.116
9534,0.1089,-0.311,-0.9399,-17.151,5.249,-2.319,-157.863,-6.262,-18.105
9544,0.1421,-0.3052,-1.0273,-5.981,11.658,-3.845,-157.978,-6.394,-18.111
9555,0.1421,-0.3052,-1.0273,5.676,15.625,-4.639,-157.978,-6.575,-18.127
9594,0.1709,-0.4121,-1.1162,21.118,0.854,0.732,-157.396,-6.987,-18.215
9604,0.1709,-0.4121,-1.1162,21.118,0.854,0.732,-157.214,-6.943,-18.21
9614,0.1709,-0.4121,-1.1162,10.864,-9.338,2.441,-157.072,-6.839,-18.199
9644,0.0518,-0.4473,-0.6748,10.864,-9.338,2.441,-156.879,-6.389,-18.149
9664,0.0122,-0.3745,-0.5757,-16.479,-7.141,2.502,-157.0,-6.202,-18.155
9713,0.252,-0.2134,-1.3335,10.498,28.381,-7.629,-157.912,-7.663,-18.391
9723,0.2686,-0.2969,-1.4282,10.498,28.381,-7.629,-157.808,-7.861,-18.408
9734,0.2441,-0.3672,-1.3555,10.498,28.381,-7.629,-157.626,-7.932,-18.402
9753,0.1719,-0.4883,-1.0371,23.926,-5.859,-1.404,-157.247,-7.773,-18.298
9774,0.0938,-0.4854,-0.7637,4.028,-20.569,-0.916,-157.143,-7.372,-18.127
9803,0.0483,-0.3999,-0.6191,-21.24,-6.165,1.587,-157.39,-6.921,-18.023
9814,0.0483,-0.3999,-0.6191,-17.944,2.014,1.038,-157.489,-6.91,-18.04
9823,0.0483,-0.3999,-0.6191,-17.944,2.014,1.038,-157.588,-6.987,-18.083
9833,0.0483,-0.3999,-0.6191,-17.944,2.014,1.038,-157.692,-7.163,-18.138
9863,0.2256,-0.2974,-1.2051,-1.648,22.522,-8.362,-158.022,-7.954,-18.237
9873,0.2466,-0.3198,-1.2866,-1.648,22.522,-8.362,-158.088,-8.141,-18.215
9883,0.2134,-0.3403,-1.2349,-1.648,22.522,-8.362,-158.126,-8.201,-18.166
9903,0.1885,-0.3789,-1.1445,4.822,-10.01,-2.808,-158.071,-8.097,-18.051
9923,0.1206,-0.4199,-0.9204,-2.441,-11.414,-1.526,-158.022,-7.861,-17.924
9943,0.0649,-0.4204,-0.7085,-4.883,-6.104,-0.427,-157.961,-7.668,-17.853
9953,0.0649,-0.4204,-0.7085,-4.211,-0.732,0.549,-157.923,-7.635,-17.853
9972,0.0908,-0.396,-0.7524,-2.991,9.521,1.343,-157.912,-7.74,-17.935
9983,0.0908,-0.396,-0.7524,-2.197,14.404,-0.427,-157.956,-7.888,-17.985
9993,0.2051,-0.3218,-1.124,-2.197,14.404,-0.427,-158.022,-8.069,-18.018
10023,0.2295,-0.3281,-1.2715,3.967,5.981,-6.653,-158.198,-8.503,-17.985
10033,0.2295,-0.3281,-1.2715,5.615,-1.892,-5.31,-158.203,-8.514,-17.924
10062,0.1108,-0.4258,-0.8643,4.456,-16.663,0.366,-158.038,-8.119,-17.737
10073,0.1108,-0.4258,-0.8643,2.258,-17.029,1.648,-157.945,-7.927,-17.688
10083,0.0571,-0.4399,-0.6685,-0.305,-14.526,2.38,-157.835,-7.745,-17.655
10092,0.0571,-0.4399,-0.6685,-0.305,-14.526,2.38,-157.731,-7.614,-17.644
10122,0.0601,-0.397,-0.627,-0.305,-14.526,2.38,-157.665,-7.597,-17.748
10142,0.2231,-0.2964,-1.1001,-0.305,-14.526,2.38,-157.917,-8.053,-17.853
10152,0.2231,-0.2964,-1.1001,-0.305,-14.526,2.38,-158.082,-8.333,-17.886
10162,0.2231,-0.2964,-1.1001,-0.305,-14.526,2.38,-158.236,-8.564,-17.886
10182,0.2524,-0.3042,-1.3555,3.723,-3.235,-3.296,-158.417,-8.69,-17.825
10202,0.187,-0.3984,-1.1182,12.268,-20.447,1.892,-158.302,-8.394,-17.71
10222,0.0947,-0.4424,-0.8359,6.653,-29.358,5.371,-158.06,-7.806,-17.589
10231,0.0947,-0.4424,-0.8359,6.653,-29.358,5.371,-157.956,-7.515,-17.534
10242,0.0947,-0.4424,-0.8359,-2.563,-21.973,5.127,-157.879,-7.256,-17.501
10252,0.0527,-0.4258,-0.6509,-2.563,-21.973,5.127,-157.819,-7.042,-17.496
10271,0.0537,-0.4106,-0.6685,-6.714,-12.512,7.019,-157.769,-6.751,-17.54
10282,0.0659,-0.3892,-0.7261,-13.794,-2.563,3.296,-157.846,-6.696,-17.562
10292,0.0659,-0.3892,-0.7261,-18.677,3.662,0.122,-158.011,-6.729,-17.578
10301,0.1499,-0.3267,-0.9614,-18.677,3.662,0.122,-158.247,-6.833,-17.595
10322,0.21,-0.2988,-1.1733,-18.799,11.353,-2.136,-158.692,-7.103,-17.644
10341,0.229,-0.2993,-1.2441,-0.061,6.165,-2.197,-158.906,-7.317,-17.661
10351,0.229,-0.2993,-1.2441,2.625,0.61,-1.526,-158.939,-7.355,-17.65
10381,0.1772,-0.3721,-1.1016,2.991,-15.93,4.517,-158.917,-7.048,-17.595
10401,0.1055,-0.4116,-0.873,0.183,-16.541,7.996,-158.774,-6.652,-17.606
10431,0.103,-0.3706,-0.752,-20.142,-2.625,4.517,-158.939,-6.356,-17.682
10441,0.1143,-0.3208,-0.8237,-24.719,2.563,2.808,-159.175,-6.383,-17.715
10451,0.1143,-0.3208,-0.8237,-24.414,7.263,0.122,-159.461,-6.465,-17.743
10471,0.1875,-0.2358,-1.1187,-24.414,7.263,0.122,-159.944,-6.773,-17.787
10511,0.1519,-0.3569,-1.0464,-24.414,7.263,0.122,-160.076,-7.053,-17.77
10541,0.1021,-0.3726,-0.9062,-5.92,-3.357,-1.343,-160.164,-6.938,-17.682
10551,0.1021,-0.3726,-0.9062,-6.531,-0.488,-0.488,-160.203,-6.927,-17.672
10570,0.1016,-0.3442,-0.917,-5.493,5.005,0.671,-160.296,-6.96,-17.704
10591,0.126,-0.3501,-0.9756,0.366,9.216,0.183,-160.296,-7.119,-17.77
10610,0.126,-0.3501,-0.9756,-2.197,8.667,-1.16,-160.34,-7.3,-17.82
10621,0.1489,-0.3247,-1.064,-2.197,8.667,-1.16,-160.406,-7.361,-17.836
10640,0.1401,-0.3037,-1.083,-2.319,0.977,1.282,-160.543,-7.394,-17.869
10660,0.1406,-0.3071,-1.0796,-0.549,-1.953,1.953,-160.609,-7.289,-17.891
10671,0.104,-0.313,-0.9907,-0.549,-1.953,1.953,-160.62,-7.191,-17.897
10680,0.0918,-0.3242,-0.938,-0.549,-1.953,1.953,-160.604,-7.081,-17.902
10690,0.0767,-0.3389,-0.8862,2.197,-8.484,2.808,-160.571,-6.971,-17.897
10710,0.0674,-0.3496,-0.8408,2.197,-8.484,2.808,-160.505,-6.757,-17.897
10720,0.0674,-0.3496,-0.8408,-4.272,-5.554,2.747,-160.494,-6.674,-17.908
10740,0.0674,-0.3496,-0.8408,-6.836,-0.366,3.723,-160.571,-6.592,-17.957
10750,0.1401,-0.291,-1.0449,-7.08,2.686,3.357,-160.675,-6.614,-18.001
10760,0.2002,-0.2651,-1.2104,-5.92,4.517,2.686,-160.801,-6.674,-18.04
10770,0.2002,-0.2651,-1.2104,-1.038,1.221,4.211,-160.9,-6.707,-18.083
10789,0.2002,-0.2651,-1.2104,22.339,-23.132,15.686,-160.686,-6.378,-18.21
10800,0.2173,-0.2715,-1.4121,22.339,-23.132,15.686,-160.291,-5.878,-18.309
10819,0.1377,-0.3203,-1.2485,52.429,-61.279,34.729,-159.137,-4.395,-18.55
10829,-0.0044,-0.4341,-0.8457,60.852,-67.627,35.95,-158.522,-3.636,-18.644
10840,-0.0327,-0.4844,-0.6777,60.852,-67.627,35.95,-157.989,-2.977,-18.71
10859,-0.0552,-0.4512,-0.4956,25.269,-36.804,17.09,-157.335,-2.043,-18.759
10869,-0.042,-0.4341,-0.4692,14.526,-27.344,13.184,-157.187,-1.741,-18.776
10880,-0.042,-0.4341,-0.4692,10.071,-20.752,12.634,-157.088,-1.5,-18.814
10909,0.0156,-0.3677,-0.7358,4.7,4.517,7.08,-156.896,-1.241,-19.006
10929,0.0732,-0.3823,-0.8906,0.916,14.893,2.014,-156.896,-1.577,-19.144
10939,0.1323,-0.3716,-1.1528,-1.526,24.109,-5.859,-156.912,-1.818,-19.182
10969,0.1729,-0.4063,-1.3208,6.775,13.916,-5.493,-156.775,-2.455,-19.221
10989,0.1001,-0.4019,-1.2231,6.775,13.916,-5.493,-156.649,-2.483,-19.221
11009,0.0654,-0.4028,-1.1167,7.141,-12.39,4.761,-156.511,-2.263,-19.215
11029,-0.0073,-0.3833,-0.894,3.784,-12.634,4.395,-156.412,-1.983,-19.193
11049,-0.0518,-0.3428,-0.6973,-5.493,-6.409,-0.061,-156.473,-1.818,-19.149
11079,-0.0117,-0.3276,-0.7788,-19.409,1.77,-8.179,-157.055,-1.972,-18.951
11088,-0.0117,-0.3276,-0.7788,-19.409,1.77,-8.179,-157.368,-2.137,-18.842
11099,0.0786,-0.3418,-1.0088,-19.409,1.77,-8.179,-157.714,-2.357,-18.721
11118,0.1509,-0.374,-1.1357,-19.409,1.77,-8.179,-158.368,-2.851,-18.463
11128,0.1899,-0.436,-1.2681,-25.33,8.85,-17.09,-158.626,-2.994,-18.336
11139,0.1899,-0.436,-1.2681,-19.287,1.648,-12.512,-158.829,-3.054,-18.226
11158,0.1221,-0.4863,-1.106,-9.949,-7.324,-1.953,-159.077,-2.983,-18.094
11168,0.0825,-0.4756,-0.9941,-6.592,-8.789,2.869,-159.142,-2.895,-18.094
11179,0.0825,-0.4756,-0.9941,-4.089,-8.667,7.019,-159.181,-2.785,-18.127
11198,-0.0107,-0.3481,-0.7632,-3.662,-1.648,9.399,-159.252,-2.642,-18.276
11219,-0.0225,-0.269,-0.7563,-1.099,7.141,5.371,-159.285,-2.697,-18.43
11228,-0.0225,-0.269,-0.7563,0.916,11.23,3.235,-159.269,-2.791,-18.501
11238,0.0254,-0.27,-0.8477,0.916,11.23,3.235,-159.247,-2.939,-18.556
11248,0.0493,-0.2773,-0.9146,0.916,11.23,3.235,-159.247,-3.109,-18.567
11268,0.0757,-0.292,-0.9941,-5.249,19.47,-15.808,-159.335,-3.543,-18.452
11278,0.1514,-0.353,-1.1436,-6.775,18.982,-19.165,-159.412,-3.79,-18.336
11308,0.1846,-0.4224,-1.21,0.183,7.996,-15.259,-159.571,-4.449,-17.957
11328,0.1558,-0.4805,-1.1211,3.54,3.296,-10.803,-159.445,-4.603,-17.809
11348,0.1294,-0.481,-1.0591,9.399,-3.174,0.916,-159.181,-4.581,-17.776
11358,0.0703,-0.4761,-0.9077,8.789,-3.418,2.93,-159.022,-4.532,-17.792
11368,0.0703,-0.4761,-0.9077,5.371,-3.906,4.028,-158.89,-4.46,-17.814
11387,-0.021,-0.3696,-0.6968,5.371,-3.906,4.028,-158.89,-4.257,-17.825
11408,-0.0459,-0.312,-0.6567,-37.903,-0.183,-13.733,-159.417,-4.12,-17.633
11427,0.0205,-0.252,-0.8301,-47.363,6.897,-22.522,-160.4,-4.433,-17.232
11438,0.0205,-0.252,-0.8301,-47.363,6.897,-22.522,-160.862,-4.79,-17.029
11457,0.1958,-0.2446,-1.2891,-47.363,6.897,-22.522,-161.224,-5.658,-16.749
11478,0.2153,-0.3398,-1.377,34.302,22.034,-11.963,-160.796,-6.312,-16.639
11507,0.1221,-0.376,-1.0654,21.484,-6.287,-2.869,-159.983,-6.427,-16.523
11518,0.084,-0.3379,-0.9429,11.292,-12.207,-1.404,-159.879,-6.301,-16.469
11537,0.084,-0.3379,-0.9429,11.292,-12.207,-1.404,-159.933,-5.96,-16.348
11567,0.021,-0.1929,-0.7305,-4.761,-3.235,-6.958,-160.302,-5.647,-16.133
11587,0.0454,-0.2227,-0.7617,-6.287,2.869,-13.733,-160.472,-5.735,-15.919
11607,0.1245,-0.3022,-0.8896,-15.259,4.578,-16.418,-160.768,-5.971,-15.645
11617,0.2026,-0.3667,-1.063,-15.259,4.578,-16.418,-160.961,-6.103,-15.507
11627,0.2026,-0.3667,-1.063,-17.456,2.38,-12.207,-161.142,-6.213,-15.397
11647,0.2026,-0.3667,-1.063,-11.292,-3.845,-0.854,-161.4,-6.273,-15.309
11667,0.1675,-0.3877,-1.1016,-1.953,-8.85,10.193,-161.455,-6.13,-15.408
11687,0.1406,-0.3682,-1.0532,2.441,-10.071,14.099,-161.384,-5.872,-15.601
11697,0.0859,-0.3145,-0.9419,2.441,-10.071,14.099,-161.356,-5.718,-15.705
11726,0.0381,-0.2319,-0.8472,-5.066,-5.615,5.981,-161.483,-5.339,-15.897
11737,0.0366,-0.2187,-0.8521,-5.92,-2.197,0.854,-161.581,-5.29,-15.897
11756,0.0366,-0.2187,-0.8521,-4.639,6.348,-10.132,-161.79,-5.383,-15.782
11777,0.1514,-0.3081,-1.0728,0.061,10.62,-17.029,-161.895,-5.702,-15.546
11786,0.1514,-0.3081,-1.0728,0.061,10.62,-17.029,-161.889,-5.889,-15.408
11796,0.1514,-0.3081,-1.0728,4.333,9.155,-16.174,-161.845,-6.064,-15.282
11826,0.2485,-0.4751,-1.2368,12.695,-1.465,0.427,-161.51,-6.323,-15.128
11846,0.1729,-0.457,-1.0698,16.968,-4.15,6.592,-161.049,-6.218,-15.276
11866,0.0962,-0.3716,-0.876,19.653,-7.629,16.296,-160.554,-5.971,-15.557
11876,0.0581,-0.3281,-0.791,19.653,-7.629,16.296,-160.323,-5.828,-15.716
11886,0.0581,-0.3281,-0.791,16.846,-3.235,15.991,-160.115,-5.707,-15.859
11916,0.0005,-0.249,-0.6299,0.732,9.155,-1.404,-159.824,-5.63,-16.046
11956,0.1157,-0.2666,-0.9111,-15.869,24.17,-19.531,-160.389,-6.531,-15.771
11975,0.2217,-0.3145,-1.1978,-15.869,24.17,-19.531,-160.763,-7.136,-15.546
11996,0.2515,-0.3843,-1.334,-5.981,12.39,-14.221,-160.9,-7.432,-15.381
12015,0.2109,-0.4341,-1.2529,2.014,-7.385,2.136,-160.867,-7.372,-15.342
12025,0.1455,-0.4063,-1.0864,0.732,-11.902,6.653,-160.84,-7.234,-15.364
12036,0.1455,-0.4063,-1.0864,-2.747,-15.808,10.01,-160.856,-7.042,-15.408
12045,0.1455,-0.4063,-1.0864,-6.409,-17.517,11.78,-160.928,-6.806,-15.463
12055,0.1455,-0.4063,-1.0864,-8.545,-17.151,11.292,-161.049,-6.564,-15.513
12065,0.0117,-0.188,-0.8179,-8.545,-17.151,11.292,-161.191,-6.339,-15.546
12076,0.0117,-0.188,-0.8179,-8.545,-17.151,11.292,-161.318,-6.158,-15.551
12085,0.0117,-0.188,-0.8179,-4.272,-7.385,-0.916,-161.411,-6.037,-15.524
12105,0.085,-0.3301,-0.8643,-3.357,-2.502,-7.629,-161.488,-6.059,-15.32
12125,0.1367,-0.3999,-0.9287,-3.357,-2.502,-7.629,-161.554,-6.328,-15.057
12135,0.2295,-0.479,-1.0952,-3.357,-2.502,-7.629,-161.62,-6.471,-14.958
12145,0.2295,-0.479,-1.0952,-10.254,2.625,-7.08,-161.686,-6.564,-14.897
12175,0.166,-0.3882,-1.1182,5.066,-6.958,11.658,-161.631,-6.476,-15.018
12205,0.1235,-0.3452,-1.041,14.893,-6.226,15.137,-161.213,-6.086,-15.408
12234,0.0508,-0.2456,-0.7954,3.235,0.122,1.404,-161.01,-5.872,-15.568
12245,0.0508,-0.2456,-0.7954,3.235,0.122,1.404,-161.049,-5.894,-15.546
12255,0.0913,-0.2607,-0.8745,3.235,0.122,1.404,-161.12,-5.971,-15.496
12274,0.1226,-0.2817,-0.9312,-5.615,7.019,-10.254,-161.279,-6.196,-15.359
12285,0.166,-0.3174,-1.0732,-5.615,7.019,-10.254,-161.367,-6.312,-15.282
12295,0.166,-0.3174,-1.0732,-4.395,5.676,-9.644,-161.439,-6.422,-15.205
12324,0.188,-0.3643,-1.1357,1.526,-3.174,-1.831,-161.488,-6.542,-15.062
12335,0.1558,-0.3945,-1.0347,3.113,-6.592,2.197,-161.433,-6.493,-15.062
12354,0.1113,-0.3789,-0.9106,4.395,-8.301,6.287,-161.252,-6.295,-15.161
12364,0.0918,-0.3555,-0.854,4.395,-8.301,6.287,-161.158,-6.196,-15.249
12384,0.0713,-0.3301,-0.8223,0.183,-0.244,7.874,-161.065,-6.064,-15.414
12404,0.0796,-0.249,-0.8696,0.183,-0.244,7.874,-161.164,-6.136,-15.485
12424,0.0796,-0.249,-0.8696,-4.578,9.949,-5.859,-161.34,-6.361,-15.463
12444,0.1753,-0.2769,-1.1665,-5.554,6.592,-8.606,-161.559,-6.581,-15.359
12484,0.1772,-0.4155,-1.1401,7.324,-8.179,-2.38,-161.614,-6.685,-15.095
12504,0.1772,-0.4155,-1.1401,7.935,-14.771,6.47,-161.312,-6.405,-15.095
12533,0.0313,-0.394,-0.6045,-2.502,-8.85,11.719,-160.873,-5.883,-15.282
12554,0.0313,-0.394,-0.6045,-8.667,4.822,8.057,-160.807,-5.773,-15.463
12574,0.1011,-0.2666,-0.8311,-8.667,20.63,0.916,-161.054,-6.119,-15.628
12584,0.1011,-0.2666,-0.8311,-8.667,20.63,0.916,-161.213,-6.35,-15.677
12603,0.2061,-0.2031,-1.3252,0.122,9.033,-4.761,-161.444,-6.652,-15.683
12613,0.1821,-0.2754,-1.3218,0.122,9.033,-4.761,-161.477,-6.696,-15.639
12643,0.1279,-0.3813,-1.0737,4.883,-13.367,-0.854,-161.301,-6.432,-15.469
12663,0.0791,-0.4199,-0.7437,4.883,-13.367,-0.854,-161.087,-6.163,-15.441
12683,0.0522,-0.4302,-0.6045,-3.296,-6.226,9.766,-160.823,-5.922,-15.551
12693,0.0498,-0.416,-0.6006,-7.08,-2.014,12.024,-160.73,-5.845,-15.661
12703,0.0498,-0.416,-0.6006,-12.939,4.456,13.0,-160.735,-5.839,-15.798
12713,0.0498,-0.416,-0.6006,-12.939,4.456,13.0,-160.873,-5.916,-15.952
12723,0.0498,-0.416,-0.6006,-22.522,13.733,10.925,-161.104,-6.037,-16.1
12733,0.1558,-0.2373,-1.1118,-22.522,13.733,10.925,-161.395,-6.125,-16.238
12752,0.1753,-0.188,-1.2563,-18.311,7.507,7.507,-161.993,-6.257,-16.452
12763,0.1699,-0.1504,-1.4136,-12.39,5.432,4.272,-162.23,-6.301,-16.512
12773,0.1699,-0.1504,-1.4136,-4.395,2.991,1.465,-162.367,-6.334,-16.534
12782,0.1504,-0.2407,-1.2993,-4.395,2.991,1.465,-162.422,-6.301,-16.529
12792,0.1504,-0.2407,-1.2993,-4.395,2.991,1.465,-162.416,-6.213,-16.501
12803,0.105,-0.332,-1.0332,5.92,-12.39,1.038,-162.356,-6.086,-16.474
12813,0.105,-0.332,-1.0332,4.822,-14.099,1.465,-162.263,-5.927,-16.447
12832,0.0596,-0.3677,-0.8242,4.822,-14.099,1.465,-162.12,-5.652,-16.414
12853,0.0728,-0.3008,-0.8159,-6.897,-3.418,1.77,-162.158,-5.521,-16.419
12862,0.0728,-0.3008,-0.8159,-6.897,-3.418,1.77,-162.219,-5.526,-16.43
12872,0.0728,-0.3008,-0.8159,-5.676,3.174,-0.61,-162.29,-5.565,-16.436
12883,0.0728,-0.3008,-0.8159,-5.798,5.249,-3.296,-162.378,-5.636,-16.419
12902,0.144,-0.2817,-1.0747,-5.981,4.211,-6.592,-162.554,-5.806,-16.337
12922,0.1421,-0.3311,-1.0645,-5.981,4.211,-6.592,-162.647,-5.872,-16.238
12942,0.1543,-0.3354,-1.0747,-5.981,4.211,-6.592,-162.653,-5.933,-16.188
12952,0.1558,-0.3394,-1.0728,3.418,-2.014,0.549,-162.614,-5.933,-16.188
12962,0.1445,-0.3535,-1.0562,5.127,-3.906,2.38,-162.554,-5.9,-16.199
12982,0.1445,-0.3535,-1.0562,4.7,-6.409,5.981,-162.4,-5.773,-16.26
13012,0.084,-0.3384,-0.8843,6.165,-5.798,10.315,-162.158,-5.477,-16.458
13032,0.0977,-0.2778,-0.9595,7.019,1.648,5.92,-162.059,-5.444,-16.6
13062,0.083,-0.2837,-0.9785,8.728,1.221,1.465,-161.922,-5.488,-16.688
13072,0.083,-0.2837,-0.9785,9.644,0.366,1.099,-161.823,-5.471,-16.705
13121,0.1226,-0.3091,-1.0732,0.061,1.343,-2.258,-161.735,-5.625,-16.683
13131,0.1265,-0.3169,-1.0776,1.282,-0.427,-2.258,-161.741,-5.636,-16.661
13161,0.105,-0.3726,-0.9893,9.583,-3.235,1.892,-161.472,-5.565,-16.639
13182,0.1104,-0.3789,-0.937,5.981,-4.456,4.7,-161.246,-5.466,-16.699
13211,0.0303,-0.3027,-0.7603,-1.465,0.61,4.15,-161.098,-5.279,-16.804
13231,0.1133,-0.2251,-1.0278,-5.859,12.024,-1.709,-161.263,-5.449,-16.87
13251,0.1631,-0.2173,-1.2461,-7.69,13.916,-5.92,-161.587,-5.768,-16.809
13271,0.1514,-0.2334,-1.248,0.671,-0.671,-11.963,-161.774,-5.889,-16.606
13291,0.1104,-0.3745,-1.0293,4.211,-5.371,-11.536,-161.697,-5.828,-16.364
13311,0.1123,-0.4082,-0.9561,2.014,-9.094,-4.272,-161.537,-5.702,-16.194
13321,0.0981,-0.4019,-0.895,2.014,-9.094,-4.272,-161.477,-5.625,-16.161
13331,0.0981,-0.4019,-0.895,0.854,-5.005,2.258,-161.428,-5.581,-16.166
13390,0.0854,-0.3037,-0.9111,1.099,-0.244,0.977,-161.29,-5.361,-16.353
13441,0.1211,-0.3291,-1.0776,7.446,-1.77,-1.648,-161.224,-5.416,-16.271
13470,0.0845,-0.3838,-0.9092,17.7,-8.911,5.859,-160.686,-5.147,-16.287
13481,0.0845,-0.3838,-0.9092,18.982,-6.958,7.629,-160.444,-5.059,-16.337
13520,0.1001,-0.3398,-0.9658,14.709,2.625,6.287,-159.648,-4.955,-16.633
13530,0.1001,-0.3398,-0.9658,14.709,2.625,6.287,-159.56,-4.96,-16.688
13550,0.0674,-0.2803,-0.9292,10.986,3.113,3.418,-159.423,-5.01,-16.749
13580,0.0776,-0.3257,-0.8838,8.789,7.874,-6.226,-159.219,-5.273,-16.655
13590,0.0776,-0.3257,-0.8838,3.113,12.024,-10.925,-159.197,-5.433,-16.6
13610,0.1382,-0.3501,-0.9712,3.113,12.024,-10.925,-159.219,-5.801,-16.469
13630,0.1636,-0.3691,-1.1084,-1.526,6.775,-11.902,-159.302,-6.081,-16.298
13639,0.1636,-0.3691,-1.1084,-1.526,6.775,-11.902,-159.313,-6.163,-16.216
13650,0.1636,-0.3691,-1.1084,7.69,1.099,-6.653,-159.252,-6.207,-16.155
13679,0.1309,-0.439,-1.0469,14.587,-0.793,-2.869,-158.626,-6.191,-16.172
13700,0.1123,-0.4663,-0.9043,14.587,-0.793,-2.869,-158.093,-6.185,-16.32
13719,0.0859,-0.4326,-0.8228,14.587,-0.793,-2.869,-157.692,-6.136,-16.529
13729,0.0762,-0.3887,-0.8076,3.845,1.526,10.376,-157.604,-6.097,-16.633
13740,0.0776,-0.3384,-0.8203,-3.235,2.747,8.118,-157.632,-6.081,-16.721
13749,0.0776,-0.3384,-0.8203,-3.235,2.747,8.118,-157.742,-6.108,-16.776
13759,0.0776,-0.3384,-0.8203,-10.986,6.836,-1.465,-157.917,-6.169,-16.787
13769,0.1006,-0.2437,-0.9961,-10.986,6.836,-1.465,-158.115,-6.251,-16.754
13809,0.1641,-0.3901,-1.0762,-5.676,4.761,-11.902,-158.582,-6.575,-16.337
13829,0.1724,-0.4326,-1.0762,-6.958,-5.554,-18.372,-158.708,-6.663,-15.98
13839,0.1792,-0.4741,-1.063,-8.667,-7.813,-18.188,-158.791,-6.674,-15.776
13849,0.1792,-0.4741,-1.063,-8.423,-9.338,-15.808,-158.862,-6.663,-15.595
13889,0.0913,-0.3467,-0.9072,11.658,2.502,-1.892,-158.802,-6.592,-15.282
13909,0.0913,-0.3467,-0.9072,22.278,6.714,-0.854,-158.39,-6.669,-15.315
13919,0.0635,-0.3379,-0.8081,22.278,6.714,-0.854,-158.17,-6.713,-15.32
13938,0.062,-0.3384,-0.793,8.728,5.188,-5.249,-157.917,-6.795,-15.287
13959,0.062,-0.3384,-0.793,-1.465,5.493,-8.85,-157.928,-6.927,-15.172
13978,0.1304,-0.3477,-0.9434,-2.93,7.263,-10.01,-158.055,-7.147,-15.04
13988,0.1938,-0.3794,-1.1045,-2.93,7.263,-10.01,-158.104,-7.262,-14.985
13999,0.1938,-0.3794,-1.1045,1.16,4.333,-5.981,-158.126,-7.35,-14.941
14018,0.1938,-0.3794,-1.1045,5.981,-1.343,-1.404,-158.099,-7.41,-14.897
14039,0.166,-0.4155,-1.0864,11.963,-6.958,4.028,-157.917,-7.311,-14.908
14048,0.166,-0.4155,-1.0864,11.963,-6.958,4.028,-157.786,-7.202,-14.93
14068,0.1099,-0.4077,-0.937,10.742,-10.437,8.24,-157.511,-6.916,-15.002
14098,0.0483,-0.3677,-0.7417,1.343,-5.371,5.798,-157.247,-6.548,-15.106
14108,0.0483,-0.3677,-0.7417,-1.77,-3.052,4.211,-157.231,-6.476,-15.134
14148,0.147,-0.3706,-0.9561,-8.423,6.042,-3.113,-157.44,-6.603,-15.156
14157,0.147,-0.3706,-0.9561,-8.301,6.165,-3.174,-157.555,-6.696,-15.15
14168,0.147,-0.3706,-0.9561,-6.958,6.165,-3.296,-157.67,-6.79,-15.139
14197,0.2065,-0.4023,-1.2183,2.747,-3.967,0.244,-157.786,-6.888,-15.117
14218,0.1343,-0.417,-1.021,4.211,-7.629,1.221,-157.72,-6.724,-15.079
14248,0.0625,-0.4058,-0.7593,2.014,-9.766,3.174,-157.5,-6.345,-15.04
14258,0.0625,-0.4058,-0.7593,-0.793,-7.019,2.197,-157.445,-6.246,-15.035
14267,0.0625,-0.4058,-0.7593,-0.793,-7.019,2.197,-157.44,-6.18,-15.024
14277,0.0625,-0.4058,-0.7593,-7.996,0.244,-1.587,-157.484,-6.169,-15.013
14307,0.1377,-0.3296,-1.0,-9.46,10.803,-6.775,-157.928,-6.465,-14.952
14317,0.2168,-0.2764,-1.3696,-9.46,10.803,-6.775,-158.088,-6.647,-14.919
14327,0.2168,-0.2764,-1.3696,2.808,15.137,-11.536,-158.17,-6.861,-14.87
14337,0.2168,-0.2764,-1.3696,2.808,15.137,-11.536,-158.132,-7.009,-14.799
14347,0.1997,-0.3999,-1.3047,2.808,15.137,-11.536,-157.956,-7.015,-14.722
14357,0.1514,-0.4634,-1.1089,29.114,-13.916,-3.174,-157.67,-6.899,-14.639
14367,0.1514,-0.4634,-1.1089,29.114,-13.916,-3.174,-157.335,-6.724,-14.557
14387,0.0488,-0.5288,-0.5962,29.114,-13.916,-3.174,-156.813,-6.29,-14.398
14397,0.0347,-0.4976,-0.5244,-6.897,-17.09,0.366,-156.687,-6.097,-14.332
14407,0.0347,-0.4976,-0.5244,-14.343,-13.0,0.244,-156.638,-5.938,-14.282
14427,0.0347,-0.4976,-0.5244,-13.428,-0.244,0.61,-156.676,-5.768,-14.26
14456,0.1953,-0.3037,-1.1162,-0.549,21.301,-1.648,-156.868,-6.257,-14.431
14467,0.2324,-0.2949,-1.2808,2.258,21.912,-3.784,-156.94,-6.509,-14.485
14486,0.2437,-0.3154,-1.3628,5.676,18.311,-5.31,-156.978,-6.877,-14.496
14507,0.1616,-0.4238,-1.125,8.057,-8.24,-2.686,-156.896,-6.85,-14.392
14517,0.1616,-0.4238,-1.125,5.188,-12.573,-0.916,-156.841,-6.74,-14.337
14526,0.1616,-0.4238,-1.125,1.892,-14.465,0.305,-156.797,-6.603,-14.282
14536,0.0845,-0.4258,-0.8096,1.892,-14.465,0.305,-156.753,-6.465,-14.244
14567,0.0679,-0.4297,-0.7144,3.479,-3.662,6.226,-156.462,-6.174,-14.288
14576,0.0679,-0.4297,-0.7144,1.892,-0.732,6.836,-156.352,-6.125,-14.348
14586,0.0698,-0.4248,-0.7378,1.892,-0.732,6.836,-156.297,-6.103,-14.42
14606,0.0977,-0.3911,-0.8286,1.892,-0.732,6.836,-156.462,-6.273,-14.562
14626,0.2222,-0.2983,-1.2998,-7.263,16.968,-2.441,-156.819,-6.647,-14.667
14636,0.2222,-0.2983,-1.2998,-7.263,16.968,-2.441,-156.934,-6.784,-14.678
14646,0.2222,-0.2983,-1.2998,-7.263,16.968,-2.441,-156.995,-6.833,-14.661
14656,0.1812,-0.3853,-1.2729,-7.263,16.968,-2.441,-156.973,-6.79,-14.623
14666,0.1406,-0.4258,-1.1206,10.62,-13.916,0.183,-156.896,-6.663,-14.568
14676,0.1406,-0.4258,-1.1206,8.789,-18.982,1.343,-156.791,-6.471,-14.507
14686,0.0649,-0.4692,-0.7827,6.348,-19.958,1.953,-156.66,-6.257,-14.447
14715,0.0132,-0.4634,-0.5576,0.671,-9.277,5.188,-156.138,-5.674,-14.387
14726,0.0132,-0.4634,-0.5576,0.183,-1.77,5.005,-155.951,-5.587,-14.425
14736,0.0439,-0.4316,-0.5923,0.183,-1.77,5.005,-155.852,-5.609,-14.485
14755,0.1055,-0.3975,-0.772,-11.414,20.264,0.061,-156.044,-5.96,-14.645
14776,0.2251,-0.2998,-1.311,-5.31,18.494,-0.916,-156.39,-6.4,-14.788
14785,0.2227,-0.3096,-1.3696,1.709,12.207,-0.671,-156.478,-6.542,-14.832
14825,0.1465,-0.4111,-1.1431,11.536,-9.155,0.305,-156.281,-6.383,-14.755
14835,0.1465,-0.4111,-1.1431,6.592,-15.198,1.709,-156.193,-6.218,-14.705
14846,0.0737,-0.4424,-0.8315,6.592,-15.198,1.709,-156.116,-6.07,-14.672
14865,0.0581,-0.4312,-0.7505,1.16,-8.545,2.747,-155.973,-5.828,-14.634
14875,0.0537,-0.4268,-0.731,0.244,-5.737,3.113,-155.907,-5.74,-14.639
14885,0.0537,-0.4268,-0.731,0.244,-5.737,3.113,-155.858,-5.68,-14.656
14905,0.0894,-0.3965,-0.8247,-4.517,4.761,0.732,-155.874,-5.696,-14.7
14915,0.1226,-0.3828,-0.9424,-5.31,7.813,-0.427,-155.945,-5.779,-14.733
14935,0.1611,-0.3594,-1.0894,-4.822,10.559,-1.587,-156.149,-6.053,-14.788
14945,0.2017,-0.3481,-1.2959,1.648,10.132,-2.93,-156.215,-6.18,-14.799
14955,0.2021,-0.3555,-1.3281,1.648,10.132,-2.93,-156.231,-6.268,-14.793
14975,0.1899,-0.3765,-1.3091,1.648,10.132,-2.93,-156.028,-6.251,-14.738
14985,0.1406,-0.4268,-1.1528,22.888,-11.719,-0.305,-155.841,-6.147,-14.689
14995,0.1133,-0.4473,-1.0381,22.888,-11.719,-0.305,-155.621,-6.004,-14.628
15015,0.0479,-0.4561,-0.8066,14.954,-21.973,1.831,-155.204,-5.576,-14.485
15025,0.0327,-0.4536,-0.7114,11.292,-17.212,1.831,-155.017,-5.378,-14.425
15035,0.0327,-0.4536,-0.7114,8.789,-15.564,1.953,-154.83,-5.197,-14.381
15054,0.0054,-0.4624,-0.5205,8.789,-15.564,1.953,-154.424,-4.867,-14.304
15075,0.0239,-0.4624,-0.5161,-5.981,-0.366,-1.648,-154.144,-4.746,-14.266
15094,0.1079,-0.4155,-0.7495,-16.846,11.23,-4.456,-154.292,-4.949,-14.266
15105,0.1533,-0.3813,-0.938,-16.846,11.23,-4.456,-154.501,-5.158,-14.293
15124,0.2471,-0.3564,-1.2808,-14.832,22.705,-6.47,-154.902,-5.724,-14.37
15145,0.2578,-0.355,-1.3794,5.249,9.766,-3.174,-155.072,-6.092,-14.409
15164,0.2075,-0.4067,-1.3364,5.249,9.766,-3.174,-154.973,-6.048,-14.398
15174,0.2075,-0.4067,-1.3364,5.249,9.766,-3.174,-154.869,-5.927,-14.381
15204,0.0928,-0.4526,-0.9717,10.437,-16.052,5.066,-154.611,-5.367,-14.326
15224,0.0249,-0.4126,-0.6899,-2.075,-8.423,4.7,-154.528,-5.076,-14.326
15234,0.0269,-0.4102,-0.6772,-2.808,-4.639,4.395,-154.495,-4.988,-14.343
15244,0.0366,-0.4131,-0.6904,-3.601,-0.916,2.991,-154.479,-4.938,-14.365
15254,0.0581,-0.4185,-0.7314,-3.601,-0.916,2.991,-154.484,-4.949,-14.387
15284,0.1616,-0.3936,-1.0596,-11.23,12.146,-4.333,-154.819,-5.273,-14.425
15294,0.1616,-0.3936,-1.0596,-8.911,14.404,-4.944,-154.984,-5.46,-14.442
15314,0.1616,-0.3936,-1.0596,4.333,10.864,-3.845,-155.16,-5.784,-14.469
15334,0.1899,-0.4224,-1.2871,21.423,1.282,0.122,-154.962,-5.916,-14.485
15343,0.1899,-0.4224,-1.2871,24.902,-5.798,2.625,-154.759,-5.867,-14.485
15364,0.0825,-0.4878,-0.9331,23.682,-12.207,4.395,-154.336,-5.559,-14.447
15383,0.0469,-0.4858,-0.7925,5.615,-17.273,4.639,-154.017,-5.136,-14.381
15393,0.0469,-0.4858,-0.7925,1.16,-15.564,4.15,-153.864,-4.927,-14.348
15404,0.0469,-0.4858,-0.7925,-3.357,-13.367,3.906,-153.704,-4.724,-14.326
15423,-0.0103,-0.4644,-0.4678,-11.353,-0.854,1.709,-153.495,-4.493,-14.326
15433,0.0342,-0.4341,-0.583,-14.465,8.545,-0.671,-153.534,-4.554,-14.359
15453,0.0938,-0.4014,-0.7749,-15.381,18.066,-3.174,-153.869,-5.032,-14.485
15463,0.2285,-0.3403,-1.2231,-9.46,31.189,-6.592,-154.061,-5.389,-14.562
15473,0.2285,-0.3403,-1.2231,-0.854,29.602,-5.859,-154.177,-5.729,-14.639
15482,0.2515,-0.3643,-1.4155,-0.854,29.602,-5.859,-154.204,-5.966,-14.7
15493,0.2515,-0.3643,-1.4155,-0.854,29.602,-5.859,-154.144,-6.081,-14.727
15503,0.1924,-0.4297,-1.2905,-0.854,29.602,-5.859,-154.012,-6.103,-14.727
15513,0.1504,-0.4644,-1.1553,-0.854,29.602,-5.859,-153.853,-6.048,-14.711
15533,0.0747,-0.4775,-0.8755,-0.854,29.602,-5.859,-153.561,-5.768,-14.645
15543,0.0439,-0.4775,-0.7593,7.324,-15.015,4.028,-153.435,-5.587,-14.617
15553,0.0439,-0.4775,-0.7593,3.113,-12.695,3.967,-153.336,-5.416,-14.595
15563,0.0439,-0.4775,-0.7593,0.854,-7.69,3.784,-153.243,-5.29,-14.595
15573,0.0439,-0.4775,-0.7593,0.366,-3.296,4.517,-153.149,-5.202,-14.623
15593,0.0581,-0.4331,-0.7305,0.0,4.7,4.822,-153.029,-5.153,-14.733
15623,0.1763,-0.3979,-1.1011,-0.854,9.705,3.174,-153.166,-5.526,-14.936
15642,0.2012,-0.3877,-1.2109,5.676,9.094,-0.671,-153.281,-5.795,-15.018
15652,0.207,-0.4243,-1.2627,12.39,3.052,0.0,-153.243,-5.85,-15.035
15663,0.207,-0.4243,-1.2627,16.602,-4.517,1.282,-153.138,-5.823,-15.024
15692,0.0884,-0.5083,-0.8989,7.568,-17.151,2.93,-152.787,-5.433,-14.903
15722,0.0601,-0.5083,-0.8022,2.136,-17.639,3.296,-152.611,-4.861,-14.771
15752,-0.0103,-0.4624,-0.564,-9.033,-7.874,3.235,-152.529,-4.521,-14.766
15772,0.1353,-0.4194,-0.937,-6.47,11.047,0.488,-152.639,-4.801,-14.892
15802,0.2285,-0.4194,-1.3003,9.277,15.015,0.0,-152.759,-5.4,-15.123
15812,0.2285,-0.4194,-1.3003,10.986,5.676,1.404,-152.737,-5.477,-15.161
15832,0.2285,-0.4194,-1.3003,10.986,5.676,1.404,-152.71,-5.323,-15.145
15842,0.083,-0.458,-0.9751,0.427,-16.785,3.601,-152.732,-5.153,-15.101
15852,0.0488,-0.4536,-0.8672,-3.723,-18.188,2.747,-152.77,-4.955,-15.04
15872,0.0488,-0.4536,-0.8672,-3.723,-18.188,2.747,-152.847,-4.587,-14.925
15901,0.0508,-0.4595,-0.7134,-1.038,0.244,0.244,-152.781,-4.389,-14.875
15922,0.0508,-0.4595,-0.7134,-5.554,4.333,0.366,-152.809,-4.466,-14.914
15941,0.1187,-0.4341,-0.9438,-8.301,7.08,-1.526,-153.045,-4.636,-14.958
15951,0.1187,-0.4341,-0.9438,-8.301,7.08,-1.526,-153.16,-4.746,-14.969
15962,0.1631,-0.4277,-1.1357,-1.831,4.089,-2.014,-153.243,-4.823,-14.969
15981,0.1631,-0.4277,-1.1357,2.625,-4.395,1.221,-153.292,-4.796,-14.952
16031,0.0576,-0.4727,-0.8325,4.089,-5.676,3.418,-153.111,-4.504,-14.947
16051,0.0293,-0.478,-0.7188,2.136,-3.54,3.113,-152.941,-4.356,-14.963
16071,0.0259,-0.4712,-0.7017,-2.563,2.563,1.465,-152.869,-4.301,-15.007
16120,0.2046,-0.3809,-1.3267,1.282,10.498,-5.188,-153.309,-5.054,-15.068
16141,0.1323,-0.4561,-1.1636,17.151,-4.272,-1.038,-153.062,-4.955,-14.996
16160,0.0503,-0.5107,-0.8569,23.315,-15.869,2.258,-152.617,-4.598,-14.886
16181,0.0034,-0.5112,-0.6318,14.404,-19.47,3.113,-152.205,-4.169,-14.771
16211,-0.0117,-0.4844,-0.5259,-0.244,-3.845,2.625,-151.694,-3.719,-14.716
16221,0.0278,-0.4805,-0.5981,-1.648,4.456,1.038,-151.6,-3.741,-14.744
16240,0.0278,-0.4805,-0.5981,-1.648,4.456,1.038,-151.655,-4.032,-14.832
16270,0.1699,-0.4199,-1.1099,1.038,16.357,-4.028,-151.941,-4.669,-14.963
16290,0.1782,-0.4595,-1.1953,1.038,16.357,-4.028,-151.908,-4.922,-15.024
16320,0.0996,-0.4937,-1.0049,8.667,-6.714,2.441,-151.683,-4.823,-15.024
16330,0.0996,-0.4937,-1.0049,5.798,-8.301,3.052,-151.639,-4.735,-15.013
16350,0.0547,-0.4731,-0.8818,5.798,-8.301,3.052,-151.556,-4.515,-14.996
16360,0.0322,-0.4604,-0.792,4.395,-6.531,3.906,-151.496,-4.411,-14.996
16390,0.02,-0.4692,-0.7344,3.052,-1.404,2.197,-151.243,-4.191,-15.035
16419,0.0933,-0.4487,-0.9058,-4.761,9.338,-4.395,-151.403,-4.406,-15.062
16440,0.0933,-0.4487,-0.9058,2.136,5.554,-3.723,-151.551,-4.625,-15.057
16459,0.1704,-0.4663,-1.2065,2.136,5.554,-3.723,-151.496,-4.669,-15.018
16470,0.1411,-0.5122,-1.1343,14.282,-9.277,1.465,-151.403,-4.603,-14.985
16499,0.0718,-0.5352,-0.9282,9.46,-18.494,2.808,-151.018,-4.114,-14.821
16529,-0.0034,-0.5195,-0.6514,0.122,-13.977,1.77,-150.661,-3.527,-14.634
16539,-0.0298,-0.5015,-0.5317,-0.488,-9.644,1.648,-150.529,-3.378,-14.601
16549,-0.0244,-0.5,-0.5166,-0.488,-9.644,1.648,-150.392,-3.29,-14.59
16560,0.0054,-0.4927,-0.5659,-1.526,3.174,-1.16,-150.293,-3.29,-14.595
16569,0.0054,-0.4927,-0.5659,-4.272,9.949,-3.784,-150.271,-3.4,-14.612
16579,0.1021,-0.4727,-0.8301,-7.141,15.015,-5.493,-150.342,-3.582,-14.639
16589,0.1021,-0.4727,-0.8301,-8.362,19.348,-6.47,-150.469,-3.823,-14.678
16609,0.2275,-0.4336,-1.2856,-8.362,19.348,-6.47,-150.71,-4.34,-14.782
16639,0.2046,-0.479,-1.3184,17.517,-1.099,2.075,-150.557,-4.631,-14.865
16649,0.2046,-0.479,-1.3184,17.09,-6.836,3.784,-150.436,-4.57,-14.865
16659,0.1069,-0.5234,-1.0088,17.09,-6.836,3.784,-150.32,-4.466,-14.854
16679,0.0781,-0.5151,-0.9019,4.7,-11.963,4.15,-150.178,-4.202,-14.81
16699,0.042,-0.4561,-0.7803,1.526,-9.094,3.296,-150.145,-4.026,-14.788
16729,0.0259,-0.4619,-0.7021,2.686,0.977,1.77,-150.068,-3.928,-14.81
16739,0.0239,-0.4702,-0.6816,2.991,2.991,1.892,-149.991,-3.917,-14.843
16758,0.0239,-0.4702,-0.6816,-1.404,6.897,1.648,-149.886,-3.977,-14.925
16809,0.1646,-0.4731,-1.084,-7.996,9.46,2.197,-150.233,-4.537,-15.276
16828,0.1729,-0.479,-1.1367,2.319,7.324,3.601,-150.337,-4.73,-15.419
16838,0.1494,-0.4985,-1.1274,4.883,3.479,5.127,-150.337,-4.757,-15.48
16848,0.1494,-0.4985,-1.1274,7.69,-0.061,6.958,-150.304,-4.735,-15.54
16868,0.0845,-0.5249,-0.9497,7.69,-0.061,6.958,-150.134,-4.576,-15.656
16878,0.0596,-0.5186,-0.8784,8.118,-6.836,9.521,-150.046,-4.455,-15.699
16888,0.0449,-0.5195,-0.8203,6.531,-5.676,8.423,-149.952,-4.345,-15.749
16908,0.0449,-0.5195,-0.8203,0.305,-4.15,5.615,-149.837,-4.142,-15.809
16928,0.022,-0.4775,-0.7603,-4.456,0.244,2.136,-149.848,-4.037,-15.853
16938,0.022,-0.4775,-0.7603,-5.676,2.258,0.183,-149.892,-4.043,-15.864
16948,0.022,-0.4775,-0.7603,-5.676,2.258,0.183,-149.974,-4.076,-15.87
16958,0.0825,-0.4834,-0.8896,-5.676,2.258,0.183,-150.073,-4.12,-15.853
16988,0.1211,-0.4893,-1.0034,-8.85,-0.244,-3.357,-150.441,-4.23,-15.776
16998,0.1211,-0.4893,-1.0034,-7.996,-1.282,-3.479,-150.562,-4.263,-15.738
17017,0.1216,-0.5117,-1.0186,-7.385,-6.958,-2.014,-150.776,-4.235,-15.645
17047,0.0908,-0.5,-0.9482,-5.554,-7.385,-0.854,-150.985,-4.076,-15.513
17058,0.0908,-0.5,-0.9482,-2.014,-6.104,0.488,-151.002,-4.021,-15.491
17068,0.0908,-0.5,-0.9482,-2.014,-6.104,0.488,-151.002,-3.955,-15.469
17087,0.0464,-0.4917,-0.8047,-4.944,-4.456,0.244,-151.035,-3.845,-15.43
17108,0.0464,-0.4917,-0.8047,-6.165,-0.122,-1.77,-151.133,-3.812,-15.397
17137,0.1113,-0.4785,-0.9873,-5.249,3.723,-3.357,-151.337,-3.977,-15.359
17147,0.1211,-0.4819,-1.0283,-3.601,2.869,-2.441,-151.414,-4.032,-15.353
17167,0.1211,-0.4819,-1.0283,-1.221,-1.831,0.305,-151.518,-4.065,-15.342
17197,0.0859,-0.4883,-0.9683,2.441,-5.188,2.686,-151.529,-3.933,-15.326
17217,0.0532,-0.4849,-0.8545,1.953,-5.371,3.174,-151.485,-3.796,-15.331
17247,0.0508,-0.4614,-0.8232,-0.549,-2.197,3.845,-151.485,-3.609,-15.381
17257,0.0562,-0.4614,-0.8345,0.0,-1.038,3.845,-151.479,-3.582,-15.408
17277,0.0562,-0.4614,-0.8345,-1.038,0.122,2.869,-151.485,-3.554,-15.469
17297,0.0835,-0.4883,-0.9004,-5.798,0.122,0.061,-151.578,-3.565,-15.48
17327,0.106,-0.498,-0.9683,-14.404,-1.587,-1.648,-152.034,-3.598,-15.414
17346,0.0854,-0.4395,-0.9863,-30.273,-6.592,-2.258,-152.666,-3.543,-15.32
17356,0.0747,-0.4111,-0.9756,-27.344,-6.409,-0.793,-152.985,-3.494,-15.282
17367,0.0747,-0.4111,-0.9756,-18.066,-5.127,1.221,-153.204,-3.444,-15.271
17386,0.0684,-0.4561,-0.9272,-18.066,-5.127,1.221,-153.254,-3.389,-15.326
17407,0.0684,-0.4839,-0.9033,5.981,1.221,5.188,-153.089,-3.373,-15.425
17426,0.0684,-0.4839,-0.9033,0.305,2.869,3.662,-153.04,-3.389,-15.518
17456,0.082,-0.4497,-0.9712,-3.052,1.282,1.526,-153.116,-3.461,-15.612
17466,0.082,-0.4497,-0.9712,-3.052,1.282,1.526,-153.177,-3.466,-15.617
17476,0.0645,-0.4561,-0.9502,-3.052,1.282,1.526,-153.232,-3.466,-15.612
17496,0.0576,-0.4517,-0.918,-2.38,0.366,-1.526,-153.309,-3.472,-15.59
17506,0.0601,-0.4668,-0.9175,0.122,2.502,-3.113,-153.309,-3.505,-15.573
17516,0.0601,-0.4668,-0.9175,1.77,5.737,-5.371,-153.298,-3.582,-15.551
17536,0.0601,-0.4668,-0.9175,3.601,8.85,-6.592,-153.254,-3.79,-15.507
17565,0.0781,-0.4907,-0.9648,6.287,3.967,-0.916,-153.116,-3.983,-15.507
17576,0.0781,-0.4907,-0.9648,6.287,3.967,-0.916,-153.073,-3.977,-15.518
17586,0.0771,-0.5,-0.9312,6.287,3.967,-0.916,-153.051,-3.95,-15.529
17605,0.062,-0.5015,-0.8716,6.287,3.967,-0.916,-153.166,-3.829,-15.496
17615,0.0537,-0.4756,-0.8481,-21.24,-9.094,-0.854,-153.353,-3.746,-15.447
17626,0.0537,-0.4756,-0.8481,-26.733,-9.033,-1.709,-153.611,-3.658,-15.392
17645,0.0537,-0.4756,-0.8481,-17.273,-2.136,0.977,-154.111,-3.543,-15.348
17666,0.0752,-0.4058,-0.9409,16.235,8.179,4.456,-153.995,-3.625,-15.469
17675,0.0972,-0.4365,-0.9751,16.235,8.179,4.456,-153.781,-3.697,-15.562
17685,0.0972,-0.4365,-0.9751,23.987,9.155,7.751,-153.55,-3.763,-15.672
17695,0.1084,-0.4751,-1.001,23.987,9.155,7.751,-153.342,-3.812,-15.776
17715,0.1025,-0.4854,-1.0039,13.0,2.93,3.479,-153.029,-3.878,-15.903
17725,0.1025,-0.5093,-0.9814,3.418,-1.16,1.343,-152.99,-3.878,-15.908
17735,0.1025,-0.5093,-0.9814,-9.583,-5.798,-1.282,-153.078,-3.84,-15.87
17775,0.0259,-0.3628,-0.8911,-32.837,-12.573,-2.502,-154.385,-3.461,-15.513
17795,0.0259,-0.3628,-0.8911,-2.014,-2.258,2.136,-154.682,-3.323,-15.485
17805,0.0381,-0.3687,-0.9058,-2.014,-2.258,2.136,-154.556,-3.323,-15.54
17824,0.0742,-0.4551,-0.9292,29.541,7.69,6.531,-153.88,-3.444,-15.738
17835,0.0742,-0.4551,-0.9292,29.541,7.69,6.531,-153.457,-3.549,-15.842
17845,0.0742,-0.4551,-0.9292,29.541,7.69,6.531,-153.073,-3.647,-15.925
17864,0.1211,-0.5576,-0.9678,9.46,1.892,-1.16,-152.672,-3.779,-15.963
17875,0.1128,-0.5488,-0.9697,-7.08,-3.357,-2.747,-152.721,-3.779,-15.925
17885,0.1128,-0.5488,-0.9697,-19.348,-6.714,-3.357,-152.902,-3.752,-15.864
17904,0.1128,-0.5488,-0.9697,-19.348,-6.714,-3.357,-153.474,-3.598,-15.732
17925,0.0039,-0.3359,-0.8433,4.822,0.671,3.662,-153.688,-3.472,-15.738
17934,0.0039,-0.3359,-0.8433,30.334,7.996,6.897,-153.408,-3.483,-15.837
17944,0.0313,-0.4185,-0.8286,30.334,7.996,6.897,-152.891,-3.554,-15.98
17954,0.0596,-0.479,-0.8496,30.334,7.996,6.897,-152.26,-3.664,-16.15
17974,0.0894,-0.5317,-0.9033,46.387,17.639,5.554,-151.172,-3.928,-16.441
17984,0.0986,-0.5337,-0.939,34.668,15.503,2.014,-150.815,-4.065,-16.534
17994,0.0986,-0.5337,-0.939,24.475,12.939,-0.732,-150.573,-4.197,-16.595
18014,0.1274,-0.5605,-0.9985,24.475,12.939,-0.732,-150.375,-4.406,-16.6
18024,0.1182,-0.564,-0.9937,-9.277,-0.671,-5.981,-150.474,-4.444,-16.545
18034,0.1045,-0.5469,-0.9668,-21.301,-5.615,-6.226,-150.694,-4.438,-16.463
18043,0.1045,-0.5469,-0.9668,-21.301,-5.615,-6.226,-151.013,-4.378,-16.364
18055,0.1045,-0.5469,-0.9668,-35.95,-11.902,-5.188,-151.392,-4.285,-16.26
18064,0.1045,-0.5469,-0.9668,-35.95,-11.902,-5.188,-151.732,-4.191,-16.183
18083,0.0542,-0.4277,-0.8755,-35.95,-11.902,-5.188,-151.968,-4.103,-16.161
18104,0.0693,-0.4688,-0.8901,15.747,3.601,3.906,-151.683,-4.125,-16.254
18134,0.1079,-0.5269,-0.9453,1.404,2.258,-0.183,-151.43,-4.224,-16.342
18144,0.1074,-0.5176,-0.9546,-4.15,0.0,-1.404,-151.474,-4.246,-16.331
18163,0.0996,-0.5078,-0.9492,-13.184,-4.578,-2.38,-151.699,-4.224,-16.26
18193,0.0723,-0.4673,-0.915,-19.348,-7.751,-0.61,-152.314,-4.054,-16.111
18203,0.0566,-0.4438,-0.8872,-19.348,-7.751,-0.61,-152.468,-3.994,-16.084
18213,0.0566,-0.4438,-0.8872,-7.324,-3.357,0.854,-152.54,-3.955,-16.078
18243,0.0732,-0.478,-0.9072,-3.54,0.488,0.916,-152.595,-3.922,-16.106
18253,0.0771,-0.4736,-0.9282,-5.127,1.282,0.183,-152.644,-3.939,-16.117
18273,0.0771,-0.4736,-0.9282,-4.7,1.465,-0.854,-152.77,-3.977,-16.117
18293,0.0957,-0.4971,-0.9805,-5.005,-0.977,-0.61,-152.875,-3.999,-16.106
18303,0.0957,-0.4971,-0.9805,-5.005,-0.977,-0.61,-152.974,-3.972,-16.078
18313,0.0957,-0.4971,-0.9805,-15.747,-6.226,-1.038,-153.127,-3.922,-16.04
18323,0.0615,-0.4683,-0.9126,-15.747,-6.226,-1.038,-153.331,-3.867,-15.991
18353,0.0308,-0.3999,-0.8569,-13.306,-3.052,-3.296,-153.907,-3.719,-15.82
18363,0.0308,-0.3999,-0.8569,-3.784,0.854,-2.808,-153.957,-3.719,-15.798
18372,0.0308,-0.3999,-0.8569,-3.784,0.854,-2.808,-153.913,-3.763,-15.793
18382,0.0308,-0.3999,-0.8569,13.794,7.629,-3.174,-153.781,-3.84,-15.798
18412,0.1021,-0.4678,-0.9561,12.451,7.141,-6.287,-153.336,-4.158,-15.782
18422,0.1021,-0.4678,-0.9561,12.451,7.141,-6.287,-153.281,-4.263,-15.727
18433,0.1172,-0.4912,-1.0073,12.451,7.141,-6.287,-153.287,-4.356,-15.634
18452,0.0908,-0.4819,-0.9775,-7.813,-0.061,-15.015,-153.435,-4.51,-15.381
18462,0.082,-0.479,-0.9434,-7.813,-0.061,-15.015,-153.55,-4.554,-15.244
18473,0.082,-0.479,-0.9434,-13.0,-2.869,-12.329,-153.688,-4.581,-15.123
18492,0.082,-0.479,-0.9434,-8.545,-2.075,-5.92,-153.918,-4.576,-14.958
18512,0.083,-0.4434,-0.8994,6.287,2.441,-0.122,-153.869,-4.609,-14.947
18522,0.083,-0.4434,-0.8994,6.287,2.441,-0.122,-153.776,-4.642,-14.969
18532,0.083,-0.4434,-0.8994,6.104,1.709,1.404,-153.699,-4.664,-14.991
18542,0.1045,-0.4941,-0.9258,6.104,1.709,1.404,-153.66,-4.664,-15.002
18552,0.1045,-0.4941,-0.9258,-2.808,-1.953,0.549,-153.677,-4.653,-14.996
18562,0.1045,-0.4941,-0.9258,-6.775,-2.686,-0.732,-153.732,-4.631,-14.98
18582,0.0869,-0.4619,-0.918,-9.155,-2.319,-1.038,-153.929,-4.609,-14.947
18602,0.082,-0.4248,-0.9458,-11.353,-2.319,0.427,-154.188,-4.565,-14.93
18612,0.0723,-0.4287,-0.9316,-7.141,-1.099,0.183,-154.27,-4.548,-14.93
18622,0.062,-0.4478,-0.9004,-3.174,-0.977,0.732,-154.297,-4.526,-14.93
18642,0.062,-0.4478,-0.9004,-2.258,0.183,1.465,-154.287,-4.482,-14.958
18671,0.0898,-0.4565,-0.937,-5.066,2.747,1.648,-154.396,-4.537,-15.018
18692,0.106,-0.4541,-1.0005,-4.15,3.845,1.953,-154.501,-4.592,-15.095
18711,0.1221,-0.4282,-1.1006,-5.31,0.916,4.15,-154.671,-4.587,-15.183
18721,0.1313,-0.4214,-1.1167,-4.272,-0.549,2.869,-154.753,-4.587,-15.205
18732,0.1313,-0.4214,-1.1167,-1.648,-4.578,2.93,-154.814,-4.537,-15.216
18741,0.1313,-0.4214,-1.1167,-1.648,-4.578,2.93,-154.825,-4.444,-15.211
18751,0.1313,-0.4214,-1.1167,-1.648,-4.578,2.93,-154.748,-4.323,-15.2
18772,-0.0283,-0.4883,-0.6187,1.831,-13.306,3.418,-154.462,-3.961,-15.15
18781,-0.0283,-0.4883,-0.6187,-5.798,-11.536,3.052,-154.33,-3.768,-15.128
18801,-0.0103,-0.4316,-0.6045,-15.503,-9.521,2.197,-154.451,-3.532,-15.095
18821,0.0718,-0.394,-0.793,-15.503,-9.521,2.197,-155.116,-3.834,-15.101
18831,0.1909,-0.3457,-1.2051,-25.452,16.418,-7.019,-155.457,-4.059,-15.106
18841,0.2056,-0.3521,-1.3174,-15.686,13.611,-6.775,-155.709,-4.252,-15.101
18861,0.2056,-0.3521,-1.3174,2.319,0.732,-4.639,-155.891,-4.422,-15.029
18871,0.2056,-0.3521,-1.3174,6.042,-5.188,-1.892,-155.847,-4.395,-14.991
18881,0.1113,-0.5566,-1.1631,4.395,-10.986,1.038,-155.792,-4.301,-14.958
18901,0.1113,-0.5566,-1.1631,-2.747,-17.029,7.996,-155.748,-3.95,-14.941
18930,0.0337,-0.4922,-1.0127,-0.183,-19.104,13.489,-155.803,-3.197,-15.051
18951,-0.0747,-0.3838,-0.7656,-0.183,-19.104,13.489,-155.616,-2.527,-15.123
18970,-0.1484,-0.3765,-0.4766,-0.183,-19.104,13.489,-155.303,-1.725,-15.117
18980,-0.1216,-0.374,-0.5024,-5.432,-18.738,5.798,-155.237,-1.401,-15.095
18991,-0.1216,-0.374,-0.5024,-12.268,-12.451,-0.549,-155.237,-1.225,-15.035
19010,-0.0352,-0.5034,-0.4868,-19.775,-16.724,-5.554,-155.215,-0.95,-14.826
19031,0.1021,-0.501,-0.8296,-36.865,-1.953,-10.559,-155.638,-0.884,-14.595
19060,0.1523,-0.4355,-1.1367,-36.865,-1.953,-10.559,-157.225,-1.28,-14.321
19080,0.1538,-0.4248,-1.166,-49.927,0.244,-7.69,-158.214,-1.467,-14.205
19090,0.1484,-0.3657,-1.0698,-45.837,-7.751,-1.587,-158.698,-1.461,-14.161
19100,0.1484,-0.3657,-1.0698,-53.894,-22.034,1.953,-159.252,-1.302,-14.101
19109,0.0596,-0.2983,-0.8789,-53.894,-22.034,1.953,-159.873,-1.0,-14.019
19120,0.0249,-0.2578,-0.7754,-70.74,-37.598,3.113,-160.593,-0.648,-13.914
19130,-0.0205,-0.2241,-0.6602,-73.059,-37.231,2.136,-161.329,-0.269,-13.81
19140,-0.0205,-0.2241,-0.6602,-69.092,-31.25,-0.793,-162.032,0.077,-13.705
19189,0.1108,-0.0171,-1.3276,-60.608,-7.751,-6.836,-165.218,-0.851,-13.255
19219,0.1504,-0.0981,-1.686,-17.395,2.808,-26.978,-165.861,-1.62,-12.623
19250,0.0029,-0.354,-1.0234,-29.602,-24.719,-12.817,-166.646,-1.247,-11.981
19259,0.0029,-0.354,-1.0234,-34.18,-25.879,-8.789,-166.992,-1.011,-11.832
19269,-0.0186,-0.2158,-0.9082,-37.476,-19.043,-7.568,-167.366,-0.846,-11.717
19289,-0.0337,-0.1572,-0.8979,-38.574,-12.817,-10.62,-168.129,-0.681,-11.409
19299,-0.0459,-0.0669,-0.9932,-33.569,-5.127,-18.982,-168.47,-0.67,-11.217
19329,0.0015,-0.105,-1.1147,-6.836,11.719,-24.17,-168.926,-1.038,-10.596
19339,0.0015,-0.105,-1.1147,-6.836,11.719,-24.17,-168.942,-1.187,-10.388
19349,0.1436,-0.2417,-1.3071,-6.836,11.719,-24.17,-168.887,-1.291,-10.201
19369,0.1558,-0.2915,-1.2832,-3.113,-5.249,-13.55,-168.904,-1.307,-9.893
19389,0.1094,-0.3408,-1.0352,-5.493,-11.658,-7.324,-169.008,-1.082,-9.756
19408,0.0308,-0.2529,-0.8345,-1.648,-15.747,2.686,-169.085,-0.764,-9.772
19429,-0.0181,-0.104,-0.7754,-14.587,-5.859,2.319,-169.321,-0.588,-9.811
19448,-0.0181,-0.104,-0.7754,-20.935,7.629,-13.184,179.934,-0.692,-9.662
19469,0.0566,0.0024,-1.1831,-32.471,13.794,-34.485,179.335,-0.95,-9.075
19478,0.0566,0.0024,-1.1831,-35.583,9.338,-41.077,-177.358,-1.038,-8.663
19499,0.0923,-0.231,-1.3081,-35.583,9.338,-41.077,-178.077,-1.082,-7.872
19528,0.0835,-0.3071,-1.1699,-18.982,-15.564,-9.338,-178.835,-0.725,-7.273
19539,0.0581,-0.3062,-0.9658,-18.982,-15.564,-9.338,-178.967,-0.577,-7.267
19549,0.0557,-0.2764,-0.894,-18.982,-15.564,-9.338,-179.05,-0.467,-7.322
19558,0.0557,-0.2764,-0.894,-18.982,-15.564,-9.338,-179.132,-0.379,-7.399
19578,-0.0098,-0.0166,-0.8799,-10.437,0.977,4.395,-179.346,-0.324,-7.526
19598,0.0137,0.0054,-0.9932,0.0,12.329,-8.301,179.094,-0.527,-7.421
19608,0.0464,-0.0327,-1.0625,0.0,12.329,-8.301,-178.231,-0.67,-7.295
19628,0.0894,-0.1372,-1.1299,-3.906,9.705,-14.526,-178.281,-0.901,-7.015
19638,0.1138,-0.2095,-1.1323,-3.906,9.705,-14.526,-178.347,-0.972,-6.883
19648,0.1138,-0.2095,-1.1323,-8.667,2.93,-10.193,-178.434,-1.005,-6.784
19668,0.1328,-0.3247,-1.0918,-31.372,-6.165,0.305,-178.918,-0.928,-6.735
19688,0.0146,-0.0762,-0.9722,-59.021,-12.817,7.874,-179.984,-0.692,-6.85
19707,-0.0532,0.0947,-0.9468,-50.598,-9.46,11.414,174.084,-0.632,-7.086
19718,-0.0654,0.1611,-0.9995,-50.598,-9.46,11.414,174.309,-0.824,-7.169
19737,-0.0215,0.0547,-1.0435,73.059,28.992,9.155,-176.616,-1.373,-7.3
19747,0.0698,-0.1484,-1.0967,68.604,28.015,7.385,-175.891,-1.67,-7.394
19777,0.1016,-0.2451,-1.125,36.133,14.221,-1.709,-174.606,-2.186,-7.405
19787,0.1016,-0.2451,-1.125,36.133,14.221,-1.709,-174.512,-2.241,-7.372
19798,0.1016,-0.2451,-1.125,-8.423,-1.648,-2.38,-174.545,-2.247,-7.344
19827,0.0322,-0.1279,-0.9971,-19.531,-10.803,4.333,-174.996,-2.027,-7.394
19838,0.02,-0.1265,-0.9414,-18.738,-10.925,3.967,-175.155,-1.912,-7.427
19857,-0.0063,-0.1157,-0.8115,-18.127,-10.742,3.601,-175.441,-1.67,-7.476
19887,-0.0044,-0.041,-0.8418,-13.0,1.343,0.305,-175.814,-1.653,-7.482
19897,0.0298,-0.0186,-0.9844,-13.0,1.343,0.305,-175.99,-1.813,-7.421
19907,0.0298,-0.0186,-0.9844,-20.081,23.987,-13.0,178.973,-2.06,-7.311
19947,0.0811,0.0381,-1.5063,-14.465,-5.615,-19.104,-179.885,-2.582,-6.465
19967,0.1128,-0.4219,-0.9814,-14.465,-5.615,-19.104,-179.275,-2.318,-6.279
19987,0.1362,-0.479,-0.8413,25.757,-7.935,16.968,-178.182,-2.219,-6.504
19996,0.0894,-0.3389,-0.6895,25.757,-7.935,16.968,-177.715,-2.219,-6.757
20017,0.0298,-0.0381,-0.7681,20.447,2.93,30.212,-177.144,-2.34,-7.372
