elapsed_ms,acc_x_g,acc_y_g,acc_z_g,gyro_x_dps,gyro_y_dps,gyro_z_dps,angle_x_deg,angle_y_deg,angle_z_deg
0,-0.4214,-0.3281,-0.8306,24.658,7.385,16.174,-155.506,20.819,-83.886
20,-0.4272,-0.3516,-0.812,24.658,7.385,16.174,-155.099,20.956,-84.315
30,-0.4922,-0.3647,-0.8071,30.457,14.526,15.015,-154.88,20.973,-84.523
40,-0.4922,-0.3647,-0.8071,51.941,35.034,8.24,-154.413,20.737,-84.765
60,-0.4434,-0.4243,-0.7573,51.941,35.034,8.24,-154.072,20.457,-85.193
70,-0.4434,-0.4243,-0.7573,33.569,-5.798,-1.465,-153.71,20.583,-85.155
89,-0.4819,-0.499,-0.8271,18.982,5.31,-2.93,-153.71,20.561,-85.27
101,-0.4819,-0.499,-0.8271,-37.659,2.686,7.324,-154.078,20.632,-85.353
110,-0.4819,-0.499,-0.8271,-37.659,2.686,7.324,-154.451,20.869,-85.303
129,-0.4414,-0.5117,-0.8911,-79.041,-33.936,4.578,-155.588,21.528,-85.073
140,-0.4292,-0.4722,-0.9336,-75.745,-38.452,3.235,-156.264,21.896,-84.93
150,-0.4292,-0.4722,-0.9336,-60.12,-33.936,-0.61,-156.769,22.192,-84.781
169,-0.4302,-0.4312,-0.9541,-60.12,-33.936,-0.61,-157.654,22.489,-84.65
179,-0.4136,-0.4282,-0.9448,-16.296,3.845,0.366,-157.802,22.451,-84.666
199,-0.4102,-0.4209,-0.9453,2.441,6.897,0.916,-157.593,22.28,-84.754
239,-0.3945,-0.4717,-0.9634,28.87,9.277,-1.404,-157.017,22.159,-84.836
249,-0.4121,-0.4888,-0.9453,-33.813,-15.747,5.493,-157.302,22.313,-84.825
279,-0.4321,-0.3823,-0.8872,-75.317,-35.583,1.343,-159.082,23.275,-84.529
289,-0.4492,-0.3159,-0.8667,-77.332,-39.612,0.488,-159.796,23.665,-84.38
348,-0.4346,-0.2446,-0.8418,-77.393,-53.467,-2.014,-163.998,26.461,-83.249
359,-0.4346,-0.2446,-0.8418,-82.764,-61.279,-4.7,-164.702,27.054,-83.007
369,-0.4756,-0.2397,-0.7876,-82.764,-61.279,-4.7,-165.355,27.647,-82.755
418,-0.4927,-0.1982,-0.7969,-64.819,-45.105,-15.564,-167.932,30.344,-81.392
449,-0.5352,-0.2314,-0.8115,-73.73,-32.593,-21.301,-169.497,31.404,-80.453
478,-0.5493,-0.2085,-0.8164,-65.43,-20.02,-18.799,-170.975,32.003,-79.618
508,-0.5723,-0.1616,-0.8271,-54.26,-24.353,-19.47,-172.189,32.657,-78.832
518,-0.6172,-0.1553,-0.8486,-32.654,-8.545,-20.996,-172.348,32.745,-78.574
538,-0.6338,-0.1636,-0.8174,-32.654,-8.545,-20.996,-172.43,32.975,-78.047
568,-0.5791,-0.1436,-0.7729,-6.042,-8.606,-21.24,-172.161,33.25,-77.256
588,-0.5566,-0.127,-0.6992,3.479,14.099,-23.926,-171.843,33.096,-76.756
598,-0.5273,-0.1421,-0.7002,3.479,14.099,-23.926,-171.634,32.959,-76.492
618,-0.5557,-0.2476,-0.666,3.479,14.099,-23.926,-170.909,33.151,-75.619
628,-0.5557,-0.2476,-0.666,-5.249,-19.043,-48.401,-170.458,33.305,-75.015
658,-0.5972,-0.4819,-0.6719,-30.334,24.658,-52.979,-169.442,32.668,-73.235
677,-0.6128,-0.4888,-0.6758,-39.307,34.119,-49.133,-169.211,31.789,-72.312
717,-0.5879,-0.4453,-0.7417,-24.048,47.668,-31.982,-168.783,29.789,-71.18
727,-0.5879,-0.4453,-0.7417,-24.048,47.668,-31.982,-168.536,29.454,-70.977
738,-0.5654,-0.4468,-0.8076,-24.048,47.668,-31.982,-168.294,29.229,-70.757
757,-0.5146,-0.3896,-0.8467,-14.771,-7.507,-22.034,-167.992,29.152,-70.252
767,-0.4922,-0.3374,-0.8716,-19.287,-21.057,-19.653,-167.959,29.301,-69.977
777,-0.4751,-0.2974,-0.895,-15.076,-23.804,-16.907,-167.926,29.471,-69.736
787,-0.4751,-0.2974,-0.895,-15.076,-23.804,-16.907,-167.866,29.57,-69.538
817,-0.4585,-0.2661,-0.9517,-2.014,-0.854,-6.042,-167.712,29.476,-69.307
827,-0.4585,-0.2661,-0.9517,-0.793,-3.052,0.427,-167.69,29.465,-69.302
837,-0.4775,-0.2422,-0.9043,-1.953,-2.808,1.526,-167.69,29.476,-69.313
847,-0.4976,-0.2417,-0.877,-1.953,-2.808,1.526,-167.701,29.471,-69.318
867,-0.5166,-0.2554,-0.8545,-7.935,3.235,-2.258,-167.816,29.388,-69.263
887,-0.4956,-0.1904,-0.8853,-36.072,8.789,-4.517,-168.371,29.224,-69.197
896,-0.4956,-0.1904,-0.8853,-41.077,13.794,-3.052,-168.788,29.07,-69.192
906,-0.48,-0.1489,-0.9463,-38.269,18.86,-1.038,-169.206,28.861,-69.225
917,-0.4795,-0.1426,-0.9756,-38.269,18.86,-1.038,-169.574,28.636,-69.28
946,-0.479,-0.1616,-1.0078,-2.075,16.785,6.897,-170.096,28.043,-69.56
957,-0.479,-0.1616,-1.0078,1.953,14.099,8.057,-170.134,27.894,-69.675
976,-0.4834,-0.1826,-0.9712,-0.366,7.507,9.46,-170.217,27.708,-69.917
997,-0.4917,-0.1709,-0.9326,-8.179,2.747,8.301,-170.42,27.647,-70.126
1006,-0.4917,-0.1709,-0.9326,-8.179,2.747,8.301,-170.574,27.647,-70.203
1046,-0.5005,-0.084,-0.9229,-17.7,-2.136,-1.892,-171.321,27.729,-70.192
1066,-0.5005,-0.084,-0.9229,-12.634,-4.7,-3.601,-171.568,27.845,-70.098
1086,-0.5195,-0.0835,-0.9214,-12.634,-4.7,-3.601,-171.59,27.982,-70.032
1106,-0.5103,-0.1099,-0.9062,15.259,-10.864,-4.639,-171.321,28.191,-69.917
1155,-0.5063,-0.1509,-0.9204,7.874,-12.573,-8.606,-170.37,28.845,-69.291
1166,-0.5,-0.1836,-0.8989,5.615,-9.705,-7.568,-170.25,28.922,-69.186
1176,-0.4839,-0.2241,-0.8545,5.615,-9.705,-7.568,-170.096,28.993,-69.093
1195,-0.4883,-0.291,-0.7803,10.986,-14.526,-11.108,-169.503,29.251,-68.829
1216,-0.543,-0.3848,-0.604,10.376,-20.142,-16.479,-168.657,29.778,-68.384
1235,-0.5703,-0.0244,-0.7896,-0.61,26.672,-17.029,-168.519,29.685,-68.071
1256,-0.3877,-0.3218,-0.9849,8.423,80.994,-34.058,-168.278,28.043,-67.742
1265,-0.3877,-0.3218,-0.9849,8.423,80.994,-34.058,-167.904,27.334,-67.489
1315,-0.4507,0.1587,-1.0732,-39.612,15.076,5.493,171.101,27.252,-67.011
1325,-0.4917,0.2021,-1.1143,10.193,26.428,-4.944,171.238,26.966,-66.912
1355,-0.5269,-0.3887,-0.8584,63.66,4.089,-16.785,-174.908,26.818,-66.401
1365,-0.5269,-0.3887,-0.8584,33.752,-5.31,-5.981,-174.359,26.884,-66.33
1425,-0.4824,-0.2949,-0.9048,39.978,-5.005,6.653,-172.222,26.406,-66.599
1435,-0.5308,-0.3569,-0.7773,39.978,-5.005,6.653,-171.716,26.581,-66.643
1454,-0.5342,-0.3418,-0.6777,28.564,-12.695,0.977,-170.876,26.96,-66.599
1465,-0.4834,-0.3853,-0.6006,28.564,-12.695,0.977,-170.585,26.988,-66.572
1475,-0.4834,-0.3853,-0.6006,-1.038,7.019,-2.075,-170.398,26.971,-66.561
1484,-0.4834,-0.3853,-0.6006,-1.038,7.019,-2.075,-170.425,26.884,-66.632
1494,-0.4834,-0.3853,-0.6006,14.709,14.404,12.512,-170.381,26.724,-66.797
1504,-0.4775,-0.1143,-1.0693,14.709,14.404,12.512,-170.206,26.609,-66.973
1524,-0.5015,-0.1201,-1.1245,35.645,3.601,11.841,-169.579,26.598,-67.165
1564,-0.5752,-0.4492,-0.4722,-12.329,-27.039,-9.46,-168.596,27.878,-66.665
1574,-0.4556,-0.1836,-0.5962,-37.109,-1.77,-3.601,-168.887,27.971,-66.621
1584,-0.4556,-0.1836,-0.5962,-28.687,22.522,-0.427,-169.195,27.751,-66.665
1595,-0.3965,-0.084,-1.0259,-15.625,31.433,1.892,-169.448,27.383,-66.753
1614,-0.3882,-0.0737,-1.418,-15.625,31.433,1.892,-169.601,26.543,-66.967
1634,-0.4653,-0.2485,-1.3223,-15.625,31.433,1.892,-169.074,26.329,-66.841
1673,-0.4756,-0.5332,-0.418,-38.452,-5.31,-2.747,-168.3,27.279,-66.22
1684,-0.353,-0.1953,-0.6704,-38.452,-5.31,-2.747,-168.574,27.142,-66.313
1694,-0.3179,-0.0869,-0.9277,-8.789,30.334,10.376,-168.805,26.785,-66.495
1703,-0.3179,-0.0869,-0.9277,11.169,35.095,11.23,-168.86,26.367,-66.693
1743,-0.5034,-0.249,-1.2319,10.254,-5.432,-13.062,-168.195,25.615,-66.693
1774,-0.4902,-0.3882,-0.5586,-12.817,-13.306,-7.568,-167.635,26.246,-66.187
1783,-0.4902,-0.3882,-0.5586,-12.817,-13.306,-7.568,-167.591,26.373,-66.165
1793,-0.4902,-0.3882,-0.5586,-12.817,-13.306,-7.568,-167.602,26.34,-66.215
1804,-0.4902,-0.3882,-0.5586,-4.883,20.752,4.7,-167.673,26.158,-66.319
1893,-0.4106,-0.1597,-0.9854,-4.15,3.601,-8.972,-167.811,25.334,-66.171
1913,-0.4287,-0.3271,-0.895,-4.15,3.601,-8.972,-167.585,25.307,-65.945
1933,-0.4526,-0.4131,-0.7925,-0.977,-15.259,-7.813,-167.091,25.582,-65.704
1953,-0.4526,-0.4131,-0.7925,-4.578,-15.625,-5.92,-166.663,25.911,-65.555
2002,-0.3682,-0.1377,-1.2422,25.574,11.536,5.798,-166.635,25.076,-66.05
2042,-0.4648,-0.3936,-0.9634,28.687,-17.822,-2.38,-165.042,25.285,-65.891
2063,-0.4419,-0.4048,-0.5859,22.461,-16.541,2.014,-164.284,25.681,-65.923
2112,-0.4409,-0.2114,-0.915,22.461,-16.541,2.014,-163.603,25.4,-66.984
2122,-0.4658,-0.1738,-1.1309,18.555,13.245,12.634,-163.57,25.28,-67.159
2132,-0.4839,-0.2231,-1.1367,18.555,13.245,12.634,-163.504,25.23,-67.264
2152,-0.5083,-0.2695,-1.0713,4.7,-12.573,1.892,-163.361,25.422,-67.275
2162,-0.5083,-0.2695,-1.0713,-2.747,-16.235,0.061,-163.323,25.62,-67.22
2172,-0.5083,-0.2695,-1.0713,-2.747,-16.235,0.061,-163.345,25.818,-67.154
2192,-0.4697,-0.2837,-0.7036,-13.611,-5.31,-6.958,-163.427,26.06,-66.984
2202,-0.4551,-0.3193,-0.668,-13.611,-5.31,-6.958,-163.422,26.109,-66.89
2212,-0.4551,-0.3193,-0.668,-11.353,0.977,-6.409,-163.4,26.131,-66.824
2221,-0.4551,-0.3193,-0.668,-11.353,0.977,-6.409,-163.383,26.142,-66.797
2271,-0.4448,-0.1997,-1.1377,11.353,18.005,7.019,-163.718,25.521,-67.308
2282,-0.4448,-0.1997,-1.1377,16.785,16.724,2.136,-163.619,25.329,-67.379
2301,-0.4458,-0.3291,-1.0405,16.785,16.724,2.136,-163.18,25.115,-67.368
2311,-0.4561,-0.4087,-0.8105,10.925,-0.244,-4.7,-162.949,25.12,-67.313
2322,-0.4561,-0.4087,-0.8105,7.019,2.319,-4.883,-162.746,25.104,-67.269
2381,-0.4224,-0.23,-1.0605,10.193,17.456,4.395,-162.416,24.236,-67.736
2391,-0.4224,-0.23,-1.0605,10.925,11.23,1.465,-162.361,24.126,-67.791
2421,-0.4702,-0.3457,-0.8506,2.563,-1.953,-6.47,-162.136,24.099,-67.681
2431,-0.4702,-0.3457,-0.8506,-5.188,-5.493,-8.057,-162.098,24.164,-67.577
2471,-0.4097,-0.311,-0.8203,3.662,10.437,-1.343,-162.07,24.131,-67.418
2480,-0.4097,-0.311,-0.8203,3.662,10.437,-1.343,-161.988,24.022,-67.456
2491,-0.4097,-0.311,-0.8203,3.662,10.437,-1.343,-161.938,23.912,-67.495
2501,-0.3804,-0.3428,-1.0239,3.662,10.437,-1.343,-161.911,23.791,-67.527
2520,-0.3569,-0.2593,-1.1636,3.357,5.432,-0.854,-161.911,23.56,-67.538
2531,-0.373,-0.3252,-1.1113,10.986,2.991,-3.296,-161.812,23.461,-67.516
2541,-0.373,-0.3252,-1.1113,11.719,-5.92,-5.249,-161.636,23.478,-67.44
2581,-0.4604,-0.5029,-0.4312,-18.066,-14.465,-2.014,-160.692,24.285,-67.0
2591,-0.4072,-0.3306,-0.6069,-22.034,-1.16,3.906,-160.834,24.373,-67.039
2600,-0.4072,-0.3306,-0.6069,-14.954,18.311,10.132,-161.142,24.186,-67.209
2610,-0.3022,-0.1201,-1.1299,-14.954,18.311,10.132,-161.329,23.846,-67.456
2620,-0.3022,-0.1201,-1.1299,-14.954,18.311,10.132,-161.323,23.549,-67.692
2630,-0.3994,-0.2207,-1.3506,29.907,15.076,10.376,-161.18,23.368,-67.852
2640,-0.4546,-0.3516,-1.23,29.114,3.235,4.456,-160.944,23.318,-67.906
2650,-0.4546,-0.3516,-1.23,16.541,-11.475,-1.16,-160.73,23.428,-67.857
2660,-0.4937,-0.4487,-0.8115,16.541,-11.475,-1.16,-160.576,23.659,-67.714
2690,-0.439,-0.2803,-0.5469,-26.978,-13.55,-7.324,-160.686,24.489,-67.198
2700,-0.4023,-0.1836,-0.7021,-17.639,-0.183,-2.991,-160.895,24.527,-67.165
2710,-0.3687,-0.1479,-0.856,-5.432,11.292,1.77,-161.065,24.412,-67.225
2720,-0.3687,-0.1479,-0.856,8.057,15.564,3.479,-161.087,24.252,-67.319
2739,-0.4434,-0.3184,-0.9883,8.118,0.793,-0.732,-160.851,24.153,-67.374
2750,-0.4434,-0.3184,-0.9883,-4.639,-7.629,-4.333,-160.779,24.252,-67.302
2760,-0.4434,-0.3184,-0.9883,-16.724,-10.986,-6.653,-160.807,24.373,-67.192
2849,-0.4575,-0.5273,-0.6714,5.676,-6.042,-3.601,-160.708,24.269,-66.808
2859,-0.3936,-0.2793,-0.7603,-23.621,-3.052,-0.305,-160.928,24.313,-66.791
2889,-0.3809,-0.1123,-1.2476,-1.038,20.02,4.761,-161.455,23.687,-67.104
2909,-0.3809,-0.1123,-1.2476,29.663,-0.366,0.061,-160.906,23.538,-67.192
2929,-0.522,-0.5581,-0.499,-4.578,-21.973,-7.874,-160.247,24.022,-66.929
2939,-0.5098,-0.5059,-0.3735,-4.578,-21.973,-7.874,-160.071,24.351,-66.769
2949,-0.4502,-0.3022,-0.4824,-33.142,-12.024,-3.174,-160.241,24.593,-66.693
2969,-0.3071,-0.0449,-1.0098,-7.263,24.414,7.629,-160.972,24.247,-66.923
2979,-0.3071,-0.0449,-1.0098,13.062,24.292,9.888,-161.065,23.967,-67.11
2988,-0.3071,-0.0449,-1.0098,13.062,24.292,9.888,-160.999,23.769,-67.253
3009,-0.4966,-0.4341,-1.0791,13.977,-7.385,-6.592,-160.609,23.714,-67.192
3019,-0.4966,-0.4341,-1.0791,-5.005,-20.508,-12.695,-160.461,23.895,-66.989
3078,-0.3423,-0.2524,-1.0127,11.963,15.442,6.287,-161.032,24.274,-66.467
3089,-0.3423,-0.2524,-1.0127,15.32,13.062,5.859,-160.966,24.109,-66.572
3118,-0.4756,-0.4487,-0.9185,-7.507,-8.423,-6.348,-160.763,24.022,-66.489
3129,-0.4756,-0.4487,-0.9185,-14.832,-12.512,-6.531,-160.785,24.142,-66.379
3148,-0.4756,-0.4487,-0.9185,-10.742,-3.052,0.488,-161.043,24.28,-66.292
3158,-0.3657,-0.2363,-0.9019,-10.742,-3.052,0.488,-161.071,24.197,-66.346
3178,-0.3809,-0.2715,-0.9546,12.329,8.545,3.357,-160.933,24.027,-66.473
3198,-0.4395,-0.2651,-0.9678,10.193,3.174,3.418,-160.84,23.983,-66.539
3207,-0.4473,-0.2456,-0.9629,10.193,3.174,3.418,-160.796,23.978,-66.533
3238,-0.4517,-0.2656,-0.9014,12.634,-3.662,-8.972,-160.433,24.022,-66.335
3308,-0.4106,-0.2373,-0.8716,-7.507,6.409,1.709,-160.516,24.554,-65.665
3348,-0.4209,-0.293,-1.0996,12.756,-1.587,-3.967,-160.104,24.247,-65.72
3388,-0.3633,-0.3452,-0.9492,-23.437,-11.353,-11.963,-160.345,24.269,-65.143
3397,-0.3633,-0.3452,-0.9492,-23.437,-11.353,-11.963,-160.51,24.291,-64.995
3407,-0.3633,-0.3452,-0.9492,-16.968,-7.263,-10.254,-160.626,24.285,-64.863
3417,-0.3945,-0.3809,-0.9092,-16.968,-7.263,-10.254,-160.664,24.285,-64.737
3437,-0.4155,-0.4336,-0.8296,-16.968,-7.263,-10.254,-160.582,24.39,-64.473
3457,-0.4575,-0.5093,-0.6406,-25.635,-10.498,-6.104,-160.549,24.659,-64.243
3477,-0.4707,-0.3599,-0.6323,-15.259,4.15,9.216,-160.917,24.851,-64.33
3506,-0.4092,-0.0869,-1.0171,46.692,25.574,23.926,-160.845,24.373,-65.204
3527,-0.4092,-0.0869,-1.0171,52.979,11.78,14.404,-160.098,24.099,-65.693
3546,-0.4551,-0.3706,-1.0151,9.888,-10.925,-3.845,-159.604,24.214,-65.665
3567,-0.4771,-0.3862,-0.6963,-13.977,-17.517,-12.024,-159.73,24.565,-65.22
3587,-0.4902,-0.2231,-0.687,-13.977,-17.517,-12.024,-160.389,24.955,-64.764
3597,-0.4902,-0.2231,-0.687,-13.977,-17.517,-12.024,-160.653,25.043,-64.682
3607,-0.4575,-0.2319,-0.7847,1.526,5.188,0.427,-160.681,25.038,-64.704
3616,-0.4575,-0.2319,-0.7847,1.526,5.188,0.427,-160.554,24.988,-64.803
3656,-0.4121,-0.3501,-0.96,2.136,4.272,-1.343,-160.093,24.703,-65.11
3666,-0.4121,-0.3501,-0.96,2.136,4.272,-1.343,-160.164,24.631,-65.05
3676,-0.3921,-0.29,-1.042,2.136,4.272,-1.343,-160.307,24.571,-64.962
3686,-0.3921,-0.29,-1.042,-12.695,-1.526,-9.033,-160.439,24.505,-64.863
3706,-0.4053,-0.2993,-1.02,-0.549,-1.587,-7.141,-160.549,24.406,-64.693
3716,-0.4053,-0.2993,-1.02,7.263,-2.502,-7.019,-160.406,24.384,-64.611
3756,-0.395,-0.4248,-0.707,-10.925,-5.188,-1.892,-159.84,24.593,-64.325
3765,-0.3711,-0.335,-0.7607,-10.925,-5.188,-1.892,-159.912,24.593,-64.352
3786,-0.4014,-0.2939,-0.8887,-10.925,-5.188,-1.892,-159.95,24.478,-64.6
3826,-0.4365,-0.2354,-1.0747,15.32,5.249,9.094,-159.725,24.258,-65.226
3866,-0.4639,-0.2749,-0.9009,-3.296,-8.789,-7.874,-159.785,24.384,-65.067
3885,-0.4482,-0.2832,-0.8218,-0.122,-9.216,-11.108,-159.725,24.538,-64.775
3896,-0.4346,-0.3057,-0.7886,-0.122,-9.216,-11.108,-159.598,24.609,-64.627
3915,-0.4448,-0.3574,-0.7559,15.015,-10.986,-9.949,-159.082,24.807,-64.336
3935,-0.4482,-0.46,-0.686,8.789,-10.986,-7.69,-158.483,25.027,-64.072
3955,-0.4038,-0.3813,-0.8047,-2.869,1.465,-2.319,-158.329,25.06,-63.979
3965,-0.3779,-0.3579,-0.9038,-4.395,8.179,-1.343,-158.384,24.944,-63.995
3985,-0.3516,-0.292,-1.103,1.587,10.864,4.517,-158.582,24.62,-64.144
4025,-0.4297,-0.3569,-1.0205,6.042,-6.165,-0.671,-158.401,24.549,-64.254
4045,-0.4297,-0.3569,-1.0205,-1.343,-8.972,-4.333,-158.544,24.642,-64.05
4075,-0.4326,-0.3076,-0.8716,-10.681,-2.319,-12.024,-158.752,24.532,-63.66
4085,-0.4326,-0.3076,-0.8716,10.559,-8.545,-9.888,-158.478,24.631,-63.528
4094,-0.4326,-0.3076,-0.8716,10.559,-8.545,-9.888,-158.071,24.802,-63.413
4125,-0.4507,-0.2056,-0.7163,0.305,4.7,9.705,-157.764,25.23,-63.512
4134,-0.4067,-0.0986,-0.9258,0.305,4.7,9.705,-157.835,25.115,-63.699
4144,-0.3818,-0.0259,-1.1562,39.978,20.325,14.587,-157.747,24.917,-63.929
4155,-0.3818,-0.0259,-1.1562,63.293,18.494,16.785,-157.407,24.736,-64.177
4164,-0.3818,-0.0259,-1.1562,79.041,10.986,13.428,-156.797,24.637,-64.363
4174,-0.3818,-0.0259,-1.1562,79.041,10.986,13.428,-156.05,24.681,-64.402
4184,-0.5317,-0.6157,-0.7881,51.147,-19.043,-3.54,-155.352,24.868,-64.281
4195,-0.5317,-0.6157,-0.7881,14.771,-31.372,-12.146,-154.819,25.186,-64.017
4294,-0.4077,-0.6841,-1.1152,26.672,5.005,-2.197,-154.572,24.016,-64.012
4304,-0.4077,-0.6841,-1.1152,-12.695,-13.794,-13.0,-154.506,24.06,-63.82
4344,-0.4858,-0.3608,-0.5107,-40.527,-10.742,-11.78,-155.457,24.829,-62.573
4374,-0.291,-0.3462,-0.8208,24.475,22.034,17.517,-155.083,24.521,-63.347
4403,-0.3457,-0.3735,-1.1431,41.87,21.179,27.405,-154.429,23.967,-64.688
4414,-0.3457,-0.3735,-1.1431,27.1,11.902,17.944,-154.319,23.879,-64.918
4454,-0.5195,-0.3779,-0.772,-21.362,-16.479,-9.705,-154.693,24.214,-64.704
4463,-0.5195,-0.3779,-0.772,-22.949,-14.16,-10.315,-154.836,24.39,-64.534
4503,-0.395,-0.4058,-0.7461,-22.949,-14.16,-10.315,-154.693,24.538,-64.748
4513,-0.3901,-0.4351,-0.7949,20.447,13.733,14.648,-154.545,24.467,-64.957
4523,-0.3901,-0.4351,-0.7949,20.447,13.733,14.648,-154.479,24.39,-65.154
4553,-0.377,-0.3628,-1.063,4.272,7.629,6.348,-154.616,24.082,-65.572
4563,-0.3809,-0.3555,-1.0742,3.845,4.456,3.906,-154.671,24.005,-65.632
4584,-0.3809,-0.3555,-1.0742,8.728,-1.587,0.977,-154.594,23.956,-65.66
4633,-0.4678,-0.4692,-0.5542,-9.277,-7.019,-1.831,-154.061,24.428,-65.484
4663,-0.4297,-0.2661,-0.7993,-2.197,11.597,14.832,-154.567,24.565,-65.847
4682,-0.4385,-0.2412,-0.9219,15.564,13.428,20.081,-154.775,24.472,-66.357
4692,-0.4478,-0.2539,-1.0771,15.564,13.428,20.081,-154.803,24.423,-66.594
4702,-0.4644,-0.2852,-1.0864,15.564,13.428,20.081,-154.803,24.401,-66.764
4722,-0.4761,-0.3193,-1.0503,0.977,-3.784,-1.343,-154.858,24.434,-66.808
4742,-0.4644,-0.3867,-0.8032,0.977,-3.784,-1.343,-154.99,24.571,-66.517
4762,-0.4712,-0.394,-0.7139,-20.935,-12.451,-12.634,-155.121,24.835,-66.132
4782,-0.4712,-0.394,-0.7139,-14.038,-1.648,-5.676,-155.149,25.06,-65.934
4802,-0.4087,-0.3628,-0.6885,-11.78,9.583,2.319,-155.264,25.038,-66.006
4822,-0.3384,-0.2842,-1.0234,-7.019,19.043,5.92,-155.682,24.67,-66.275
4842,-0.3389,-0.3306,-1.2446,0.793,12.207,1.099,-155.978,24.219,-66.473
4852,-0.3618,-0.3408,-1.2812,0.793,12.207,1.099,-156.077,24.088,-66.44
4871,-0.3677,-0.374,-1.1763,0.793,12.207,1.099,-156.313,23.928,-66.116
4892,-0.4004,-0.4341,-0.9067,-21.606,-13.428,-24.292,-156.561,23.928,-65.44
4911,-0.4248,-0.4956,-0.7212,-33.081,-23.437,-26.611,-156.588,24.214,-64.671
4922,-0.4907,-0.5269,-0.4121,-27.649,-19.714,-17.09,-156.473,24.445,-64.413
4932,-0.4907,-0.5269,-0.4121,-15.747,-10.803,-4.395,-156.22,24.67,-64.319
5021,-0.4292,-0.3359,-1.3276,-0.61,-7.69,-8.484,-156.434,23.785,-66.292
5071,-0.4336,-0.438,-0.5386,4.089,-11.047,-0.183,-156.094,24.434,-65.418
5111,-0.3838,-0.3301,-0.7705,0.977,5.554,13.245,-155.682,24.681,-65.918
5141,-0.3667,-0.2764,-0.9565,5.615,15.747,10.986,-156.27,24.186,-66.517
5151,-0.394,-0.29,-1.2803,11.597,10.376,8.789,-156.319,24.049,-66.654
5181,-0.4219,-0.395,-1.0088,13.184,-8.057,0.427,-156.072,24.038,-66.703
5191,-0.4175,-0.4102,-0.875,11.841,-9.949,-0.671,-155.923,24.12,-66.654
5240,-0.4492,-0.395,-0.5845,11.536,8.057,6.592,-155.072,24.554,-66.742
5250,-0.4619,-0.4043,-0.6338,11.536,8.057,6.592,-154.979,24.56,-66.863
5261,-0.4692,-0.3872,-0.6987,11.536,8.057,6.592,-154.984,24.56,-66.995
5290,-0.4282,-0.2891,-0.9873,-5.676,13.306,6.836,-155.457,24.34,-67.379
5300,-0.4092,-0.2739,-1.063,-2.441,11.292,5.981,-155.627,24.225,-67.489
5310,-0.4092,-0.2739,-1.063,1.526,7.629,5.615,-155.753,24.131,-67.582
5360,-0.4399,-0.3892,-0.7979,5.066,-5.981,-0.488,-155.704,24.219,-67.604
5370,-0.4434,-0.3945,-0.7471,5.066,-5.981,-0.488,-155.621,24.296,-67.577
5390,-0.439,-0.3979,-0.7222,1.221,0.793,0.549,-155.5,24.379,-67.577
5400,-0.4287,-0.3867,-0.7607,1.038,3.723,1.648,-155.484,24.379,-67.61
5410,-0.4287,-0.3867,-0.7607,2.136,6.226,3.174,-155.473,24.34,-67.67
5420,-0.4092,-0.3823,-0.8574,2.136,6.226,3.174,-155.479,24.285,-67.753
5440,-0.4209,-0.3848,-0.8975,4.456,6.226,7.202,-155.495,24.197,-67.956
5450,-0.4282,-0.3774,-0.8989,4.272,4.333,6.287,-155.506,24.181,-68.038
5469,-0.4282,-0.3774,-0.8989,6.287,0.244,5.615,-155.533,24.164,-68.159
5480,-0.3843,-0.2949,-1.0215,6.287,0.244,5.615,-155.533,24.159,-68.203
5509,-0.3848,-0.2559,-1.1338,27.649,-13.916,-0.122,-155.171,24.313,-68.115
5520,-0.4961,-0.4756,-0.8789,27.649,-13.916,-0.122,-154.764,24.494,-68.0
5539,-0.5093,-0.5513,-0.5356,27.649,-13.916,-0.122,-153.809,25.01,-67.753
5549,-0.4941,-0.5425,-0.4219,8.728,-16.235,-2.197,-153.419,25.252,-67.648
5560,-0.4702,-0.4995,-0.3989,-7.141,-9.277,-3.784,-153.21,25.433,-67.566
5569,-0.4702,-0.4995,-0.3989,-21.973,-0.183,-3.418,-153.303,25.499,-67.533
5580,-0.4702,-0.4995,-0.3989,-28.442,9.338,-0.671,-153.666,25.417,-67.571
5589,-0.4702,-0.4995,-0.3989,-25.146,14.771,2.075,-154.105,25.23,-67.665
5609,-0.3408,-0.1289,-1.1528,-7.202,13.306,-1.343,-154.786,24.791,-67.819
5619,-0.416,-0.2559,-1.3086,-7.202,13.306,-1.343,-154.913,24.609,-67.769
5629,-0.416,-0.2559,-1.3086,0.916,-1.16,-13.794,-154.929,24.521,-67.626
5649,-0.5244,-0.4956,-0.8701,-7.69,-19.226,-19.226,-154.786,24.664,-67.126
5659,-0.5063,-0.4878,-0.6992,-14.526,-22.827,-19.287,-154.709,24.851,-66.824
5669,-0.5063,-0.4878,-0.6992,-16.846,-20.081,-17.395,-154.627,25.038,-66.561
5709,-0.3687,-0.3867,-0.7148,-2.319,6.531,-2.93,-154.517,25.131,-66.187
5718,-0.3672,-0.3857,-0.7983,-4.333,8.728,-1.587,-154.567,25.016,-66.215
5728,-0.3979,-0.4189,-0.8369,-7.935,8.484,-2.014,-154.644,24.911,-66.237
5739,-0.4414,-0.4443,-0.8618,-7.935,8.484,-2.014,-154.742,24.851,-66.231
5758,-0.4556,-0.4365,-0.895,-17.456,3.54,-1.953,-155.072,24.752,-66.22
5768,-0.4233,-0.373,-0.9863,-16.602,4.089,-0.732,-155.281,24.686,-66.231
5779,-0.4233,-0.373,-0.9863,-13.367,4.333,0.854,-155.495,24.604,-66.259
5808,-0.3809,-0.3208,-1.0176,4.15,2.563,-0.183,-155.797,24.351,-66.335
5878,-0.4473,-0.4189,-0.6875,-0.244,-4.639,-3.357,-155.33,24.571,-66.154
5918,-0.3994,-0.3433,-0.9395,3.235,9.277,13.916,-155.511,24.445,-66.72
5928,-0.395,-0.3164,-1.0151,5.005,9.155,13.916,-155.61,24.379,-66.901
5937,-0.395,-0.3164,-1.0151,7.69,7.751,13.184,-155.698,24.307,-67.066
5948,-0.3838,-0.2749,-1.1133,7.69,7.751,13.184,-155.753,24.241,-67.203
5977,-0.417,-0.335,-1.0273,11.414,-5.798,0.0,-155.588,24.236,-67.275
5988,-0.417,-0.335,-1.0273,9.338,-6.775,-1.892,-155.49,24.307,-67.225
5998,-0.4531,-0.3882,-0.7676,9.338,-6.775,-1.892,-155.363,24.379,-67.165
6017,-0.4614,-0.4141,-0.6602,3.113,-2.747,-2.563,-155.11,24.532,-67.072
6028,-0.4673,-0.415,-0.6489,0.305,-1.038,-0.732,-155.023,24.604,-67.061
6038,-0.4673,-0.415,-0.6489,-2.441,0.854,0.854,-154.99,24.664,-67.072
6048,-0.4604,-0.4023,-0.6934,-2.441,0.854,0.854,-154.995,24.692,-67.104
6087,-0.4287,-0.3394,-0.896,-9.705,8.362,1.343,-155.511,24.483,-67.297
6097,-0.4092,-0.2954,-1.0254,-9.705,8.362,1.343,-155.682,24.401,-67.324
6107,-0.4146,-0.3052,-1.0322,-9.705,8.362,1.343,-155.803,24.34,-67.324
6127,-0.4258,-0.3438,-0.9692,3.052,-1.892,-1.892,-155.869,24.302,-67.28
6137,-0.4238,-0.3784,-0.9077,5.249,-2.686,-1.709,-155.819,24.307,-67.253
6147,-0.4238,-0.3784,-0.9077,5.676,-3.54,-2.38,-155.726,24.335,-67.209
6177,-0.4512,-0.4214,-0.6675,-3.845,-2.563,-2.075,-155.484,24.527,-67.077
6217,-0.3882,-0.2837,-0.9692,-6.531,7.69,-0.488,-155.858,24.351,-67.154
6247,-0.3911,-0.2568,-1.2041,-6.287,5.859,-4.944,-156.341,23.934,-67.061
6257,-0.3911,-0.2568,-1.2041,5.188,-2.014,-10.925,-156.319,23.868,-66.94
6287,-0.436,-0.4819,-0.7305,-2.625,-16.724,-17.7,-155.847,24.022,-66.302
6297,-0.436,-0.4819,-0.7305,-10.437,-17.334,-17.761,-155.715,24.159,-66.044
6356,-0.418,-0.4824,-0.6216,-2.93,8.24,12.024,-155.605,24.346,-66.116
6366,-0.418,-0.4824,-0.6216,-2.502,13.55,14.587,-155.825,24.214,-66.324
6386,-0.418,-0.4824,-0.6216,2.93,8.728,4.395,-156.198,23.895,-66.572
6406,-0.3994,-0.2666,-1.2783,8.545,-8.057,-4.517,-156.215,23.835,-66.484
6416,-0.4595,-0.3887,-0.9824,8.545,-8.057,-4.517,-156.094,23.934,-66.352
6446,-0.4868,-0.4702,-0.4785,4.211,-13.489,-6.714,-155.363,24.505,-65.896
6456,-0.4868,-0.4702,-0.4785,4.211,-13.489,-6.714,-155.034,24.692,-65.83
6466,-0.4868,-0.4702,-0.4785,-0.916,-0.732,0.305,-154.726,24.835,-65.83
6476,-0.4604,-0.4683,-0.4199,-0.916,-0.732,0.305,-154.605,24.922,-65.901
6495,-0.4067,-0.3823,-0.6069,-15.198,18.738,13.611,-155.061,24.747,-66.281
6556,-0.4541,-0.3467,-1.0835,1.038,-18.738,-13.428,-156.105,24.23,-66.445
6576,-0.4541,-0.3467,-1.0835,1.648,-22.217,-15.32,-155.803,24.565,-65.934
6586,-0.4541,-0.3467,-1.0835,1.648,-22.217,-15.32,-155.577,24.752,-65.731
6605,-0.4321,-0.4702,-0.4961,3.723,-2.747,-4.883,-155.023,24.955,-65.539
6626,-0.4321,-0.4702,-0.4961,3.723,-2.747,-4.883,-154.797,24.955,-65.566
6645,-0.4346,-0.3545,-0.8296,-17.578,11.78,2.686,-155.143,24.829,-65.704
6655,-0.4351,-0.2954,-0.9712,-17.212,13.55,2.441,-155.429,24.703,-65.792
6675,-0.4312,-0.252,-1.0884,-14.343,11.963,1.953,-155.962,24.439,-65.923
6695,-0.4155,-0.2666,-1.1562,-14.343,11.963,1.953,-156.215,24.263,-65.918
6715,-0.4048,-0.2866,-1.0913,4.272,-5.432,-7.996,-156.215,24.208,-65.742
6735,-0.4082,-0.4292,-0.7852,4.395,-7.263,-9.46,-155.989,24.252,-65.484
6765,-0.4092,-0.4585,-0.666,-2.808,-2.747,-3.601,-155.621,24.384,-65.226
6775,-0.4092,-0.4585,-0.666,-2.869,0.916,-0.305,-155.566,24.395,-65.226
6794,-0.4136,-0.4165,-0.8096,-2.502,5.981,4.639,-155.577,24.34,-65.347
6815,-0.4106,-0.3809,-0.9214,-2.136,6.348,6.531,-155.709,24.241,-65.533
6845,-0.3857,-0.2871,-1.0425,-1.831,4.15,5.859,-156.044,24.088,-65.753
6864,-0.394,-0.2944,-1.0308,5.127,-1.038,1.892,-156.138,24.044,-65.808
6885,-0.4204,-0.3306,-0.9351,6.775,-3.235,0.61,-156.061,24.104,-65.797
6914,-0.4575,-0.397,-0.7021,-0.916,0.183,-1.648,-155.858,24.252,-65.748
6925,-0.4575,-0.3843,-0.7051,-4.517,1.709,-1.648,-155.852,24.285,-65.742
6954,-0.4414,-0.335,-0.833,-9.338,6.226,-1.587,-156.121,24.214,-65.775
6974,-0.4263,-0.3115,-0.8989,-10.071,7.141,-0.122,-156.445,24.066,-65.841
6984,-0.4028,-0.251,-1.041,-5.92,5.981,-0.549,-156.61,23.978,-65.858
6994,-0.3901,-0.248,-1.083,-3.174,5.005,-2.93,-156.742,23.873,-65.852
7003,-0.3901,-0.248,-1.083,-3.174,5.005,-2.93,-156.835,23.774,-65.803
7024,-0.3975,-0.3276,-1.0449,2.625,-0.732,-8.118,-156.819,23.654,-65.599
7043,-0.4063,-0.374,-0.9673,7.813,-9.705,-9.766,-156.55,23.698,-65.319
7083,-0.4609,-0.498,-0.6299,-4.333,-6.775,0.488,-155.781,24.362,-64.929
7093,-0.4658,-0.4351,-0.5215,-4.333,-6.775,0.488,-155.671,24.461,-64.973
7104,-0.4658,-0.4351,-0.5215,-3.113,9.766,5.371,-155.621,24.461,-65.072
7133,-0.4053,-0.3896,-0.7305,-5.371,17.7,8.911,-156.149,23.983,-65.539
7153,-0.3091,-0.2217,-1.3218,-5.371,17.7,8.911,-156.484,23.654,-65.786
7163,-0.3604,-0.2378,-1.4028,11.23,-3.845,4.7,-156.528,23.61,-65.819
7173,-0.4043,-0.3062,-1.2827,11.23,-3.845,4.7,-156.462,23.659,-65.753
7193,-0.4277,-0.376,-1.0889,8.24,-25.696,-11.108,-156.11,23.994,-65.374
7203,-0.4277,-0.376,-1.0889,2.258,-26.184,-13.733,-155.863,24.247,-65.121
7213,-0.48,-0.4707,-0.4717,2.258,-26.184,-13.733,-155.588,24.516,-64.896
7233,-0.4814,-0.4653,-0.3599,-5.066,-5.066,-3.784,-154.995,24.95,-64.682
7243,-0.4814,-0.4663,-0.3584,-6.897,3.418,0.732,-154.797,25.065,-64.709
7273,-0.439,-0.333,-0.6768,-11.23,10.376,5.859,-155.363,24.857,-65.198
7283,-0.4048,-0.1821,-1.1392,-11.23,10.376,5.859,-155.77,24.615,-65.402
7313,-0.4175,-0.2119,-1.3682,-4.028,3.845,-7.629,-156.599,24.005,-65.511
7323,-0.4175,-0.2119,-1.3682,-0.793,-6.409,-12.329,-156.66,23.956,-65.358
7353,-0.396,-0.459,-0.7441,1.831,-16.663,-15.686,-156.281,24.126,-64.682
7363,-0.396,-0.459,-0.7441,1.099,-14.832,-12.268,-156.039,24.247,-64.495
7412,-0.4028,-0.5059,-0.5762,-5.676,7.935,6.287,-155.347,24.379,-64.638
7422,-0.3735,-0.3062,-0.9253,-5.676,7.935,6.287,-155.616,24.241,-64.819
7432,-0.3735,-0.3062,-0.9253,-8.728,17.761,11.169,-155.912,24.066,-65.012
7462,-0.376,-0.1514,-1.4043,8.179,12.817,8.057,-156.357,23.582,-65.407
7472,-0.3813,-0.1919,-1.3486,25.33,-0.061,1.587,-156.264,23.511,-65.424
7532,-0.4536,-0.5303,-0.4634,18.433,-13.367,-4.089,-153.94,24.263,-64.737
7542,-0.4639,-0.5386,-0.4253,18.433,-13.367,-4.089,-153.534,24.423,-64.693
7561,-0.4736,-0.5562,-0.4214,18.433,-13.367,-4.089,-152.93,24.62,-64.764
7582,-0.4697,-0.542,-0.5146,-3.723,7.507,7.629,-152.71,24.708,-64.99
7641,-0.3818,-0.1865,-1.249,-11.169,7.568,7.874,-154.451,24.236,-65.956
7652,-0.3818,-0.1865,-1.249,-2.075,2.441,5.554,-154.66,24.175,-66.028
7681,-0.4331,-0.3545,-0.9248,10.681,-7.263,-2.625,-154.633,24.214,-65.951
7692,-0.4331,-0.3545,-0.9248,8.789,-8.118,-3.418,-154.523,24.285,-65.88
7731,-0.4575,-0.4639,-0.5811,-1.831,0.183,1.343,-153.968,24.631,-65.72
7741,-0.4575,-0.4639,-0.5811,-3.357,3.54,4.517,-153.918,24.681,-65.781
7761,-0.4209,-0.3525,-0.8022,-5.737,6.775,6.836,-154.116,24.648,-66.011
7821,-0.3486,-0.189,-1.3145,28.87,-2.075,1.282,-154.611,23.95,-66.599
7841,-0.439,-0.4097,-0.9395,35.461,-16.174,-4.883,-153.957,24.099,-66.418
7850,-0.439,-0.4097,-0.9395,35.461,-16.174,-4.883,-153.528,24.28,-66.242
7871,-0.4966,-0.5342,-0.4053,19.043,-20.325,-10.742,-152.672,24.725,-65.83
7890,-0.5073,-0.5552,-0.2783,-13.0,-7.324,-8.728,-152.04,25.109,-65.528
7900,-0.4985,-0.5537,-0.3047,-19.226,-0.244,-4.7,-151.875,25.219,-65.479
7911,-0.4985,-0.5537,-0.3047,-24.353,6.409,0.916,-151.913,25.269,-65.522
7940,-0.3506,-0.2158,-1.1802,-24.353,6.409,0.916,-153.111,24.829,-66.094
7950,-0.3506,-0.2158,-1.1802,-24.353,6.409,0.916,-153.512,24.604,-66.27
7970,-0.3984,-0.2065,-1.4351,0.549,3.54,-5.554,-153.957,24.247,-66.313
7980,-0.3984,-0.2065,-1.4351,2.869,-7.385,-12.146,-154.017,24.197,-66.16
8000,-0.4375,-0.3179,-1.1118,1.648,-20.569,-21.851,-153.864,24.318,-65.594
8010,-0.4375,-0.3179,-1.1118,-1.465,-22.766,-23.01,-153.666,24.478,-65.259
8020,-0.4375,-0.3179,-1.1118,-3.967,-20.508,-20.752,-153.397,24.659,-64.951
8060,-0.4092,-0.5107,-0.4731,-23.682,5.737,0.366,-152.622,25.016,-64.561
8070,-0.3745,-0.4072,-0.707,-29.602,12.756,5.371,-152.935,24.922,-64.677
8080,-0.3745,-0.4072,-0.707,-30.64,16.785,9.277,-153.424,24.763,-64.852
8090,-0.3745,-0.4072,-0.707,-24.658,18.188,10.315,-153.918,24.56,-65.045
8130,-0.4419,-0.2783,-1.3018,2.014,-11.169,-5.371,-154.726,24.236,-65.078
8199,-0.4038,-0.4155,-0.6826,-2.197,0.061,1.77,-154.017,24.708,-64.677
8219,-0.4199,-0.3867,-0.7705,-6.042,7.813,7.08,-154.243,24.653,-64.874
8239,-0.4502,-0.3315,-0.939,-5.554,6.348,6.897,-154.589,24.576,-65.083
8269,-0.4351,-0.2871,-0.9829,0.916,-0.061,2.258,-154.984,24.521,-65.231
8279,-0.4307,-0.2998,-0.9385,2.014,-2.319,1.16,-155.034,24.538,-65.231
8288,-0.4307,-0.2998,-0.9385,2.869,-3.296,0.671,-155.056,24.565,-65.22
8328,-0.4297,-0.3818,-0.79,2.136,-2.93,1.892,-154.951,24.752,-65.204
8339,-0.4297,-0.3818,-0.79,1.282,-2.014,2.625,-154.924,24.791,-65.22
8349,-0.4297,-0.3818,-0.79,0.488,-1.16,2.808,-154.907,24.824,-65.242
8368,-0.4248,-0.4126,-0.8208,-0.244,1.953,2.93,-154.902,24.835,-65.308
8379,-0.4248,-0.3999,-0.8418,-0.488,2.747,4.089,-154.924,24.824,-65.363
8389,-0.4155,-0.3809,-0.8755,1.038,4.578,5.92,-154.962,24.796,-65.446
8398,-0.4155,-0.3809,-0.8755,1.038,4.578,5.92,-155.006,24.747,-65.555
8419,-0.3945,-0.3364,-0.9668,8.362,8.118,10.254,-155.028,24.62,-65.852
8438,-0.3872,-0.3735,-0.9697,15.564,8.179,11.536,-154.929,24.505,-66.138
8448,-0.3979,-0.396,-0.9478,13.367,2.686,9.705,-154.869,24.489,-66.248
8458,-0.4058,-0.4048,-0.9097,13.367,2.686,9.705,-154.819,24.5,-66.335
8488,-0.4258,-0.3809,-0.8296,8.484,0.549,8.179,-154.742,24.609,-66.555
8548,-0.5044,-0.5303,-0.5195,10.986,2.991,11.841,-154.105,25.153,-67.341
8558,-0.4727,-0.3818,-0.5762,10.986,2.991,11.841,-154.314,25.236,-67.549
8577,-0.4727,-0.3818,-0.5762,-13.733,23.682,20.508,-155.034,25.054,-68.143
8598,-0.3486,-0.0986,-1.1611,0.244,24.719,20.142,179.467,24.565,-68.785
8627,-0.4385,-0.1646,-1.4858,29.053,-1.099,-1.404,-178.819,24.208,-69.033
8638,-0.4385,-0.1646,-1.4858,26.855,-16.296,-10.437,-178.5,24.368,-68.917
8657,-0.5098,-0.4243,-0.6768,7.568,-30.823,-24.048,-178.044,24.922,-68.439
8667,-0.5234,-0.4507,-0.4463,7.568,-30.823,-24.048,-177.957,25.23,-68.132
8678,-0.5234,-0.4507,-0.4463,-10.742,-26.245,-25.879,-177.935,25.483,-67.835
8727,-0.3872,-0.4443,-0.5103,-24.536,12.085,2.136,-178.786,25.334,-67.505
8737,-0.3247,-0.2412,-1.0869,-27.649,22.888,8.057,-179.105,25.104,-67.599
8756,-0.3594,-0.1826,-1.4531,-16.846,12.573,3.113,-179.555,24.774,-67.714
8787,-0.4219,-0.3276,-1.2236,-2.258,-14.282,-12.39,-179.61,24.944,-67.445
8807,-0.3906,-0.4004,-0.8823,-2.258,-14.282,-12.39,-179.467,25.291,-67.121
8817,-0.3906,-0.4004,-0.8823,-2.258,-14.282,-12.39,-179.379,25.45,-66.973
8836,-0.3916,-0.4692,-0.6357,3.906,-10.437,-5.798,-179.225,25.697,-66.791
8876,-0.4219,-0.4683,-0.5581,-4.639,7.629,9.46,-179.346,25.653,-66.995
8887,-0.4404,-0.332,-0.8442,-5.432,11.353,10.986,-179.451,25.538,-67.121
8897,-0.4404,-0.332,-0.8442,-4.578,13.55,11.047,-179.55,25.406,-67.242
8906,-0.4404,-0.332,-0.8442,-2.93,12.085,9.827,-179.626,25.285,-67.352
8946,-0.4536,-0.248,-1.0854,4.883,-6.714,-3.54,-179.544,25.28,-67.434
8966,-0.4478,-0.3369,-0.7954,4.883,-6.714,-3.54,-179.407,25.472,-67.302
8986,-0.4507,-0.3638,-0.7217,0.244,-6.47,-5.554,-179.324,25.62,-67.17
8996,-0.4507,-0.4082,-0.6479,-2.258,-3.601,-4.272,-179.33,25.659,-67.121
9006,-0.4497,-0.4194,-0.6519,-2.258,-3.601,-4.272,-179.357,25.659,-67.094
9036,-0.436,-0.4072,-0.7393,-9.521,7.813,3.601,-179.626,25.488,-67.143
9055,-0.4097,-0.3262,-0.9312,-9.399,8.667,5.554,-179.846,25.312,-67.28
9076,-0.3833,-0.2563,-1.1138,0.977,6.042,3.296,-179.912,25.17,-67.379
9095,-0.3779,-0.2563,-1.1592,0.977,6.042,3.296,-179.797,25.164,-67.357
9106,-0.3779,-0.2563,-1.1592,0.977,6.042,3.296,-179.681,25.225,-67.302
9116,-0.3779,-0.2563,-1.1592,11.414,-9.705,-6.897,-179.533,25.323,-67.225
9135,-0.4614,-0.4058,-0.7344,12.573,-12.573,-9.033,-178.698,25.598,-67.033
9146,-0.4614,-0.4058,-0.7344,8.789,-10.803,-8.85,-178.22,25.763,-66.929
9156,-0.4614,-0.4058,-0.7344,2.991,-7.568,-7.751,-177.753,25.922,-66.841
9175,-0.4956,-0.4932,-0.4771,-10.559,0.977,-2.38,-176.973,26.147,-66.753
9196,-0.4653,-0.4248,-0.5918,-16.113,10.864,7.202,-176.605,26.153,-66.868
9225,-0.3818,-0.2861,-0.9399,-12.39,18.982,13.855,-176.792,25.527,-67.335
9245,-0.3623,-0.1895,-1.2441,-4.883,9.766,6.47,-176.913,25.093,-67.538
9255,-0.3843,-0.1826,-1.3315,-2.014,3.174,1.892,-176.891,24.972,-67.566
9265,-0.3921,-0.209,-1.27,0.977,-3.906,-2.625,-176.808,24.928,-67.533
9285,-0.4087,-0.3032,-1.0137,3.357,-10.559,-6.653,-176.418,25.071,-67.335
9295,-0.4165,-0.3477,-0.8716,3.357,-10.559,-6.653,-176.144,25.225,-67.198
9305,-0.4165,-0.3477,-0.8716,2.197,-17.761,-11.841,-175.825,25.411,-67.055
9345,-0.4521,-0.3945,-0.6431,-0.916,-0.427,-2.808,-174.556,25.922,-66.709
9365,-0.4541,-0.3774,-0.7759,-0.916,-0.427,-2.808,-174.172,25.9,-66.709
9375,-0.4575,-0.3638,-0.8408,-0.916,-0.427,-2.808,-174.056,25.862,-66.72
9394,-0.4546,-0.3467,-0.8921,-8.057,3.845,-0.427,-173.941,25.752,-66.725
9405,-0.4194,-0.2871,-0.9956,-5.493,3.601,-0.183,-173.892,25.681,-66.725
9415,-0.4053,-0.2583,-1.0386,-0.793,3.052,0.244,-173.826,25.598,-66.731
9434,-0.3662,-0.1743,-1.1606,10.62,3.296,-0.549,-173.6,25.4,-66.736
9445,-0.3467,-0.1885,-1.1846,10.62,3.296,-0.549,-173.392,25.258,-66.72
9455,-0.3779,-0.314,-1.103,22.827,1.526,-6.165,-173.046,25.164,-66.654
9474,-0.4883,-0.6509,-0.6152,7.568,-18.616,-13.733,-172.057,25.417,-66.346
9485,-0.5522,-0.8442,-0.2568,7.568,-18.616,-13.733,-171.42,25.708,-66.127
9524,-0.4727,-0.5234,-0.04,-58.655,21.667,23.987,-170.744,26.51,-66.187
9544,-0.2661,-0.0264,-1.1382,-58.655,21.667,23.987,-171.76,25.73,-67.154
9564,-0.2192,0.1113,-1.6045,-1.221,37.537,28.931,175.891,24.961,-67.923
9574,-0.2192,0.1113,-1.6045,-1.221,37.537,28.931,175.869,24.736,-68.077
9584,-0.4189,0.1064,-2.0005,-1.221,37.537,28.931,175.963,24.752,-68.066
9594,-0.5479,-0.1152,-1.6118,10.071,-24.414,-16.052,-175.908,25.005,-67.912
9643,-0.4897,-0.4604,-0.2031,7.751,-8.911,-21.301,-174.858,26.34,-66.187
9693,-0.3579,-0.1948,-1.1392,-17.517,22.522,7.141,-175.622,25.521,-66.231
9713,-0.4312,-0.2031,-1.2866,-9.766,6.775,2.319,-175.886,25.307,-66.341
9744,-0.4409,-0.3047,-1.1025,2.625,-6.409,-9.399,-175.869,25.411,-66.132
9763,-0.3711,-0.4092,-0.8369,8.911,-5.92,-8.789,-175.616,25.516,-65.918
9793,-0.3594,-0.4238,-0.6494,4.517,0.427,1.892,-175.413,25.593,-65.847
9813,-0.3672,-0.394,-0.6982,4.761,7.446,9.46,-175.397,25.488,-66.017
9853,-0.4595,-0.2104,-1.1377,17.334,5.554,6.714,-175.15,25.208,-66.511
9862,-0.4805,-0.2744,-1.0723,17.334,5.554,6.714,-174.979,25.208,-66.528
9902,-0.4819,-0.3403,-0.7197,2.93,-8.118,-6.836,-174.578,25.483,-66.275
9913,-0.4819,-0.3403,-0.7197,-2.991,-5.859,-6.042,-174.573,25.538,-66.204
9923,-0.4604,-0.4736,-0.4292,-2.991,-5.859,-6.042,-174.677,25.571,-66.154
9942,-0.4502,-0.4282,-0.4561,-2.991,-5.859,-6.042,-175.166,25.488,-66.193
9952,-0.4194,-0.3413,-0.709,-26.55,13.306,5.859,-175.463,25.362,-66.27
9963,-0.4194,-0.3413,-0.709,-25.94,15.381,7.935,-175.765,25.214,-66.374
9972,-0.4233,-0.2993,-0.9751,-25.94,15.381,7.935,-176.089,25.082,-66.484
9992,-0.4233,-0.2993,-0.9751,-22.095,13.0,10.498,-176.693,24.824,-66.736
10012,-0.3379,-0.0298,-1.4585,-22.095,13.0,10.498,-176.836,24.675,-66.885
10032,-0.3379,-0.0298,-1.4585,13.367,-1.343,-0.61,-176.479,24.763,-66.824
10052,-0.4048,-0.3096,-1.0747,13.367,-1.343,-0.61,-175.952,25.049,-66.621
10063,-0.4053,-0.4312,-0.686,20.996,-14.465,-8.24,-175.699,25.186,-66.517
10072,-0.4053,-0.4312,-0.686,17.944,-10.498,-6.348,-175.485,25.285,-66.44
10082,-0.4341,-0.4727,-0.481,17.944,-10.498,-6.348,-175.342,25.351,-66.401
10102,-0.4341,-0.4727,-0.481,3.296,4.456,4.822,-175.259,25.318,-66.473
10112,-0.4746,-0.4014,-0.5522,-0.977,9.827,7.446,-175.309,25.23,-66.561
10132,-0.4746,-0.4014,-0.5522,-4.456,14.832,10.254,-175.518,24.922,-66.841
10142,-0.415,-0.1567,-1.0771,-4.456,14.832,10.254,-175.616,24.752,-66.989
10172,-0.4185,-0.1313,-1.3008,7.813,3.479,2.441,-175.567,24.461,-67.225
10182,-0.4185,-0.1313,-1.3008,10.315,-2.319,-2.197,-175.452,24.483,-67.198
10201,-0.4287,-0.3389,-0.9004,10.315,-2.319,-2.197,-175.139,24.659,-67.0
10212,-0.4209,-0.4229,-0.7305,10.315,-2.319,-2.197,-175.012,24.78,-66.863
10222,-0.4209,-0.4229,-0.7305,1.465,-13.062,-10.62,-174.946,24.901,-66.736
10262,-0.4009,-0.4014,-0.5977,-31.128,5.066,-1.831,-175.611,25.005,-66.506
10271,-0.4009,-0.4014,-0.5977,-35.889,9.827,-0.122,-175.974,24.906,-66.511
10281,-0.4233,-0.2729,-0.8682,-35.889,9.827,-0.122,-176.353,24.791,-66.528
10291,-0.4233,-0.2729,-0.8682,-35.706,12.939,0.305,-176.715,24.659,-66.539
10331,-0.4009,-0.1343,-1.3345,-5.31,-3.113,-3.479,-177.512,24.445,-66.456
10341,-0.4009,-0.1343,-1.3345,3.357,-9.46,-5.737,-177.451,24.538,-66.39
10371,-0.4048,-0.3813,-0.7188,5.92,-15.625,-9.155,-177.122,24.994,-66.099
10401,-0.4258,-0.3965,-0.5742,-1.465,-5.798,-4.395,-177.105,25.17,-65.951
10420,-0.4238,-0.3218,-0.7568,-3.174,9.46,7.935,-177.237,25.032,-66.094
10431,-0.4175,-0.2505,-0.915,-0.916,11.536,10.437,-177.297,24.922,-66.215
10450,-0.4116,-0.1831,-1.0713,3.418,9.216,9.583,-177.358,24.725,-66.456
10490,-0.4277,-0.1963,-1.1265,12.939,-10.193,-3.418,-176.957,24.868,-66.495
10511,-0.4214,-0.3398,-0.7769,10.681,-10.559,-5.249,-176.468,25.098,-66.368
10521,-0.4214,-0.3398,-0.7769,7.996,-8.972,-3.967,-176.105,25.214,-66.319
10570,-0.4438,-0.4141,-0.6021,-6.531,10.62,7.263,-174.864,25.296,-66.528
10580,-0.3726,-0.2637,-0.939,-6.531,10.62,7.263,-174.88,25.131,-66.643
10590,-0.3564,-0.1885,-1.1255,-6.531,10.62,7.263,-174.935,24.939,-66.764
10600,-0.3564,-0.1885,-1.1255,0.427,9.583,9.094,-174.974,24.752,-66.874
10610,-0.3564,-0.1885,-1.1255,0.427,9.583,9.094,-174.957,24.609,-66.951
10640,-0.4331,-0.168,-1.2402,16.785,-8.667,-3.174,-174.348,24.675,-66.835
10670,-0.4946,-0.4463,-0.4653,7.874,-17.822,-13.672,-173.139,25.362,-66.363
10680,-0.5005,-0.4639,-0.3613,-5.432,-10.986,-9.46,-172.694,25.609,-66.242
10690,-0.5005,-0.4639,-0.3613,-8.484,-1.831,-4.578,-172.299,25.768,-66.187
10700,-0.4492,-0.4189,-0.4482,-8.484,-1.831,-4.578,-172.051,25.785,-66.231
10740,-0.3955,-0.1299,-1.2915,2.625,17.151,11.475,-172.172,24.933,-66.962
10749,-0.3955,-0.1299,-1.2915,0.183,9.399,2.38,-172.227,24.752,-67.0
10759,-0.3955,-0.1299,-1.2915,0.183,9.399,2.38,-172.26,24.626,-66.945
10770,-0.3682,-0.0874,-1.3677,0.183,9.399,2.38,-172.216,24.549,-66.813
10789,-0.3789,-0.3496,-1.0186,0.183,9.399,2.38,-171.628,24.554,-66.473
10810,-0.4019,-0.5571,-0.6069,0.183,9.399,2.38,-170.546,24.818,-66.204
10829,-0.4111,-0.5625,-0.4712,-1.404,-13.428,1.526,-169.596,25.225,-66.127
10839,-0.48,-0.5068,-0.3965,-5.981,-8.179,5.981,-169.261,25.433,-66.176
10850,-0.48,-0.5068,-0.3965,-6.897,-0.671,12.329,-169.058,25.576,-66.308
10879,-0.3564,-0.0918,-1.1777,-6.897,-0.671,12.329,-169.349,25.181,-66.973
10899,-0.3647,-0.0361,-1.3784,5.127,12.939,4.944,-169.574,24.692,-67.225
10909,-0.4478,-0.1538,-1.3501,5.127,12.939,4.944,-169.514,24.604,-67.209
10919,-0.4478,-0.1538,-1.3501,9.399,-9.949,-8.362,-169.36,24.664,-67.099
10939,-0.4531,-0.415,-0.7246,3.662,-17.578,-14.832,-168.821,24.983,-66.731
10949,-0.4531,-0.415,-0.7246,-1.343,-18.127,-15.076,-168.442,25.203,-66.528
10959,-0.4531,-0.415,-0.7246,-6.775,-14.038,-12.085,-168.052,25.395,-66.363
10989,-0.3638,-0.292,-0.7671,-12.451,16.907,5.981,-167.789,25.34,-66.418
11008,-0.4063,-0.2095,-1.1499,-0.977,17.334,12.024,-167.997,24.906,-66.742
11018,-0.415,-0.1729,-1.2612,-0.977,17.334,12.024,-168.063,24.73,-66.89
11029,-0.4165,-0.1831,-1.2715,-0.977,17.334,12.024,-168.074,24.598,-66.973
11078,-0.4121,-0.3394,-0.7603,8.545,-12.695,-9.094,-167.3,24.835,-66.594
11088,-0.4141,-0.3662,-0.6851,8.545,-12.695,-9.094,-167.058,24.922,-66.484
11098,-0.4336,-0.4028,-0.6353,3.174,-4.456,-6.836,-166.8,24.999,-66.396
11109,-0.4336,-0.4028,-0.6353,1.526,-0.366,-4.211,-166.553,25.049,-66.352
11158,-0.4004,-0.2041,-1.0557,-3.479,7.629,8.484,-166.415,24.857,-66.693
11168,-0.4038,-0.1582,-1.1714,-1.282,5.066,5.92,-166.514,24.758,-66.769
11178,-0.4038,-0.1582,-1.1714,0.427,1.587,1.709,-166.591,24.686,-66.791
11218,-0.3779,-0.2593,-1.0571,11.475,-14.221,-11.902,-166.278,24.714,-66.363
11227,-0.3779,-0.2593,-1.0571,12.695,-17.456,-13.672,-166.025,24.813,-66.171
11238,-0.4009,-0.374,-0.8003,13.184,-18.555,-14.771,-165.696,24.95,-65.962
11288,-0.4907,-0.5,-0.5166,9.949,-2.808,-1.587,-163.79,25.543,-65.555
11307,-0.4937,-0.4927,-0.5439,-4.517,10.437,7.202,-163.46,25.554,-65.731
11317,-0.4307,-0.3623,-0.7549,-8.972,13.672,9.338,-163.515,25.466,-65.874
11328,-0.4307,-0.3623,-0.7549,-10.193,15.259,10.254,-163.68,25.323,-66.033
11377,-0.418,-0.1699,-1.2222,6.836,-1.892,-3.906,-164.235,24.697,-66.368
11387,-0.418,-0.2627,-1.0415,7.874,-6.042,-7.202,-164.13,24.703,-66.27
11397,-0.4165,-0.3267,-0.9229,7.874,-6.042,-7.202,-163.96,24.741,-66.143
11417,-0.4077,-0.3975,-0.8062,1.465,-10.132,-12.634,-163.482,24.862,-65.83
11437,-0.4004,-0.4956,-0.6499,-16.174,-10.01,-12.634,-163.141,25.005,-65.495
11457,-0.437,-0.3706,-0.7192,-30.396,-5.432,-8.24,-163.306,25.148,-65.242
11467,-0.437,-0.3706,-0.7192,-25.269,1.16,-2.991,-163.542,25.148,-65.215
11486,-0.4414,-0.2041,-1.0342,7.019,12.085,6.958,-163.74,24.955,-65.385
11507,-0.4224,-0.2651,-1.0806,7.019,12.085,6.958,-163.488,24.714,-65.671
11526,-0.415,-0.2886,-1.0469,22.888,6.531,7.568,-163.174,24.604,-65.808
11547,-0.4287,-0.2939,-0.8804,10.498,-2.502,-1.221,-162.955,24.648,-65.726
11566,-0.4287,-0.2939,-0.8804,5.066,-6.287,-5.249,-162.664,24.785,-65.572
11577,-0.4521,-0.4272,-0.7061,1.282,-5.737,-4.761,-162.482,24.862,-65.506
11587,-0.4521,-0.4272,-0.7061,-3.601,-5.493,-2.747,-162.328,24.95,-65.457
11636,-0.4233,-0.3457,-0.8057,-16.113,9.033,3.845,-162.625,24.988,-65.594
11646,-0.3887,-0.1982,-1.0605,-11.414,13.062,3.357,-162.839,24.824,-65.671
11656,-0.3887,-0.1982,-1.0605,-4.517,14.343,1.77,-163.01,24.626,-65.737
11666,-0.3887,-0.1982,-1.0605,-4.517,14.343,1.77,-163.081,24.445,-65.77
11696,-0.4131,-0.2246,-1.1631,11.597,-2.686,-7.08,-162.74,24.258,-65.621
11726,-0.4468,-0.3896,-0.6611,-0.305,-4.15,-7.324,-162.202,24.434,-65.308
11746,-0.4507,-0.3921,-0.6499,-2.93,3.479,-2.93,-161.977,24.494,-65.231
11756,-0.4233,-0.3779,-0.7227,-2.93,3.479,-2.93,-161.917,24.461,-65.259
11766,-0.4263,-0.3643,-0.7842,-2.93,3.479,-2.93,-161.889,24.417,-65.325
11785,-0.3892,-0.2681,-0.9893,-1.648,9.827,7.69,-162.021,24.236,-65.528
11806,-0.3667,-0.1968,-1.168,5.676,6.287,6.592,-162.18,24.022,-65.731
11815,-0.3667,-0.1968,-1.168,5.676,6.287,6.592,-162.197,23.928,-65.775
11895,-0.4429,-0.4858,-0.5464,-4.822,-13.245,-16.357,-160.51,24.412,-64.473
11916,-0.4712,-0.4756,-0.4692,-16.724,0.0,0.427,-160.356,24.659,-64.374
11935,-0.457,-0.3159,-0.6636,-5.615,13.062,14.709,-160.653,24.648,-64.693
11955,-0.4229,-0.1567,-1.1714,10.315,17.029,18.738,-160.944,24.39,-65.204
11965,-0.4229,-0.1567,-1.1714,10.315,17.029,18.738,-160.994,24.225,-65.413
11985,-0.3735,-0.2041,-1.291,10.315,17.029,18.738,-160.79,23.945,-65.583
12005,-0.3677,-0.3989,-0.9995,10.315,17.029,18.738,-160.263,23.906,-65.341
12025,-0.3848,-0.5444,-0.6587,8.728,-18.494,-16.846,-159.697,24.126,-64.814
12095,-0.416,-0.2139,-0.9956,-17.7,11.902,11.414,-159.922,24.478,-64.418
12114,-0.3901,-0.1831,-1.2378,-17.7,11.902,11.414,-159.933,24.082,-65.099
12124,-0.3711,-0.2212,-1.2788,-17.7,11.902,11.414,-159.796,23.895,-65.363
12135,-0.3711,-0.2212,-1.2788,29.053,8.789,10.315,-159.653,23.769,-65.5
12154,-0.3984,-0.2979,-1.0591,29.053,8.789,10.315,-159.483,23.752,-65.352
12164,-0.4185,-0.3242,-0.9243,-3.296,-16.846,-17.883,-159.428,23.84,-65.105
12175,-0.4185,-0.3242,-0.9243,-11.169,-19.043,-22.705,-159.39,23.972,-64.797
12215,-0.502,-0.4507,-0.502,-6.897,-4.028,-7.019,-158.956,24.604,-63.957
12244,-0.502,-0.4507,-0.502,-4.15,11.292,8.728,-159.115,24.576,-64.166
12274,-0.3921,-0.2241,-1.2925,-4.15,11.292,8.728,-159.022,23.994,-64.753
12284,-0.3921,-0.2241,-1.2925,49.927,9.827,8.728,-158.615,23.873,-64.88
12324,-0.3813,-0.459,-0.6167,-9.827,-11.902,-11.475,-157.379,24.12,-64.539
12333,-0.3813,-0.459,-0.6167,-9.827,-11.902,-11.475,-157.368,24.148,-64.413
12373,-0.4146,-0.4082,-0.8618,-5.981,3.54,-5.432,-157.0,23.851,-64.759
12383,-0.4146,-0.4082,-0.8618,27.039,12.817,16.602,-156.775,23.802,-64.979
12394,-0.4219,-0.4453,-0.8389,27.039,12.817,16.602,-156.555,23.769,-65.198
12413,-0.3818,-0.3447,-0.9033,27.039,12.817,16.602,-156.346,23.665,-65.577
12423,-0.373,-0.2944,-0.9712,13.733,11.292,10.376,-156.341,23.566,-65.731
12443,-0.3833,-0.2759,-1.0654,13.733,11.292,10.376,-156.275,23.368,-65.984
12493,-0.4141,-0.3584,-0.9316,25.513,-3.845,-0.183,-155.039,23.335,-66.209
12503,-0.4429,-0.5562,-0.6123,25.513,-3.845,-0.183,-154.704,23.423,-66.165
12523,-0.4385,-0.5571,-0.5498,-7.141,-3.235,-1.404,-154.33,23.61,-66.088
12533,-0.4282,-0.4858,-0.5845,-11.719,1.038,1.099,-154.314,23.659,-66.105
12543,-0.4282,-0.4858,-0.5845,-11.78,6.165,4.333,-154.385,23.654,-66.176
12553,-0.3789,-0.3682,-0.8335,-8.362,11.536,7.324,-154.539,23.571,-66.302
12573,-0.3457,-0.2861,-1.1245,-8.362,11.536,7.324,-154.819,23.253,-66.682
12592,-0.3506,-0.2695,-1.2075,-8.362,11.536,7.324,-154.825,22.983,-67.017
12603,-0.3506,-0.2695,-1.2075,-8.362,11.536,7.324,-154.715,22.923,-67.094
12613,-0.3896,-0.354,-1.082,-8.362,11.536,7.324,-154.572,22.917,-67.094
12632,-0.4131,-0.3965,-0.854,18.677,-7.446,-2.93,-154.21,23.022,-66.918
12643,-0.4297,-0.3979,-0.769,18.677,-7.446,-2.93,-153.995,23.11,-66.78
12653,-0.4297,-0.3979,-0.769,12.878,-8.24,-9.888,-153.787,23.192,-66.643
12672,-0.4453,-0.395,-0.6919,12.878,-8.24,-9.888,-153.424,23.302,-66.44
12693,-0.4629,-0.4805,-0.6841,3.967,-1.465,-4.517,-153.133,23.406,-66.324
12712,-0.4199,-0.5356,-0.6812,-5.432,-0.977,-4.333,-152.935,23.461,-66.231
12722,-0.4009,-0.5288,-0.707,-5.432,-0.977,-4.333,-152.935,23.467,-66.193
12742,-0.3813,-0.4976,-0.7471,-17.517,-0.061,-0.793,-153.166,23.445,-66.16
12752,-0.3555,-0.3838,-0.9102,-17.517,-0.061,-0.793,-153.375,23.39,-66.171
12762,-0.3555,-0.3838,-0.9102,-12.573,4.639,1.587,-153.611,23.302,-66.209
12772,-0.3555,-0.3838,-0.9102,-12.573,4.639,1.587,-153.792,23.187,-66.264
12792,-0.3677,-0.3325,-1.1431,13.489,1.831,1.038,-153.853,23.016,-66.33
12802,-0.3848,-0.3901,-1.0654,18.738,-1.221,-0.977,-153.721,22.983,-66.313
12812,-0.3848,-0.3901,-1.0654,20.935,-3.662,-3.235,-153.517,22.978,-66.264
12842,-0.4453,-0.5063,-0.5864,18.921,-4.089,-7.08,-152.628,23.11,-66.006
12851,-0.4453,-0.5063,-0.5864,8.545,-1.221,-8.728,-152.331,23.159,-65.912
12872,-0.4575,-0.5264,-0.499,-7.874,2.991,-3.479,-152.007,23.275,-65.836
12891,-0.417,-0.4409,-0.6899,-17.578,7.08,3.174,-152.172,23.297,-65.923
12902,-0.3838,-0.3853,-0.8521,-18.677,8.057,6.348,-152.43,23.242,-66.028
12912,-0.3545,-0.3325,-1.0195,-16.174,7.69,7.629,-152.732,23.159,-66.138
12921,-0.3545,-0.3325,-1.0195,-16.174,7.69,7.629,-153.001,23.071,-66.242
12931,-0.3491,-0.2822,-1.2295,-16.174,7.69,7.629,-153.177,23.022,-66.319
12942,-0.3784,-0.314,-1.2173,-16.174,7.69,7.629,-153.221,23.005,-66.363
12952,-0.3931,-0.3599,-1.1382,16.052,-5.615,1.953,-153.149,23.016,-66.352
12961,-0.3931,-0.3599,-1.1382,16.052,-5.615,1.953,-153.007,23.055,-66.292
12971,-0.4131,-0.4321,-0.8774,13.977,-10.803,-6.653,-152.831,23.115,-66.171
12981,-0.4194,-0.4536,-0.7471,13.977,-10.803,-6.653,-152.644,23.192,-66.017
13001,-0.4346,-0.4668,-0.6318,-2.869,-7.202,-12.268,-152.281,23.368,-65.693
13011,-0.4565,-0.5278,-0.4927,-2.869,-7.202,-12.268,-152.122,23.445,-65.583
13021,-0.4565,-0.5278,-0.4927,-12.817,0.0,-5.859,-152.012,23.505,-65.522
13041,-0.4199,-0.502,-0.6367,-19.226,5.981,6.042,-152.117,23.56,-65.627
13071,-0.3647,-0.3467,-0.9912,-17.944,9.094,13.428,-153.045,23.373,-66.127
13091,-0.3296,-0.231,-1.354,0.854,7.568,4.333,-153.528,23.099,-66.341
13100,-0.3296,-0.231,-1.354,9.705,3.601,-0.305,-153.594,22.972,-66.357
13121,-0.3369,-0.3379,-1.1528,20.569,1.892,-3.845,-153.298,22.742,-66.264
13131,-0.3369,-0.3379,-1.1528,38.269,-0.793,-8.667,-152.924,22.67,-66.176
13150,-0.4121,-0.5347,-0.6367,39.49,-3.418,-9.338,-151.88,22.67,-65.967
13161,-0.4385,-0.5742,-0.4985,39.49,-3.418,-9.338,-151.298,22.714,-65.874
13171,-0.457,-0.5977,-0.4004,25.146,0.427,-7.813,-150.749,22.775,-65.803
13220,-0.4512,-0.5796,-0.4634,-18.921,12.207,14.16,-149.897,22.967,-66.154
13230,-0.3755,-0.4292,-0.8125,-18.921,12.207,14.16,-150.222,22.956,-66.418
13241,-0.3594,-0.3594,-0.9868,-18.921,12.207,14.16,-150.59,22.928,-66.714
13260,-0.3315,-0.2646,-1.2524,-18.921,12.207,14.16,-151.26,22.786,-67.225
13270,-0.3218,-0.2813,-1.2905,-18.921,12.207,14.16,-151.479,22.665,-67.363
13300,-0.3481,-0.3931,-1.0869,10.071,-4.272,-12.878,-151.534,22.357,-67.148
13320,-0.3691,-0.438,-0.8413,17.029,-5.981,-15.808,-151.166,22.269,-66.791
13330,-0.3691,-0.438,-0.8413,17.029,-5.981,-15.808,-150.859,22.264,-66.643
13350,-0.4297,-0.5122,-0.5728,25.574,-0.977,-10.315,-150.095,22.286,-66.489
13370,-0.438,-0.5454,-0.5459,14.587,8.545,-2.014,-149.447,22.275,-66.506
13380,-0.4424,-0.5439,-0.5708,14.587,8.545,-2.014,-149.288,22.258,-66.566
13390,-0.4424,-0.5439,-0.5708,-4.7,11.902,0.488,-149.266,22.225,-66.638
13410,-0.4111,-0.4419,-0.7881,-22.522,8.85,1.831,-149.656,22.132,-66.769
13420,-0.3872,-0.3921,-0.8916,-24.414,7.019,3.479,-149.991,22.088,-66.841
13430,-0.3652,-0.3506,-0.9893,-22.827,5.615,4.089,-150.348,22.028,-66.907
13439,-0.3652,-0.3506,-0.9893,-22.827,5.615,4.089,-150.672,21.962,-66.956
13479,-0.356,-0.3862,-1.0239,0.854,-4.517,-6.653,-151.293,21.769,-66.813
13489,-0.3579,-0.4146,-0.9536,3.845,-5.676,-8.423,-151.265,21.747,-66.703
13500,-0.3638,-0.4502,-0.8667,3.845,-5.676,-8.423,-151.177,21.747,-66.583
13529,-0.4004,-0.4985,-0.6655,3.845,-5.676,-8.423,-150.853,21.846,-66.209
13540,-0.4004,-0.4985,-0.6655,-4.456,-3.967,-8.728,-150.76,21.89,-66.105
13589,-0.3979,-0.5005,-0.7285,-12.817,5.493,2.197,-150.936,21.896,-66.138
13599,-0.3608,-0.4204,-0.9058,-19.043,3.296,6.287,-151.194,21.874,-66.215
13609,-0.3423,-0.3652,-1.0063,-19.043,3.296,6.287,-151.496,21.852,-66.281
13629,-0.3237,-0.3213,-1.0952,-15.564,1.343,5.005,-152.018,21.736,-66.368
13639,-0.3257,-0.3252,-1.1499,-1.221,-0.916,-0.244,-152.15,21.682,-66.363
13649,-0.3257,-0.3252,-1.1499,4.944,-3.662,-3.723,-152.194,21.638,-66.308
13669,-0.356,-0.377,-0.9751,13.245,-8.362,-7.507,-152.051,21.632,-66.105
13679,-0.356,-0.377,-0.9751,13.245,-8.362,-7.507,-151.859,21.671,-65.978
13689,-0.3906,-0.4604,-0.7437,20.203,-10.864,-7.629,-151.578,21.758,-65.852
13719,-0.4619,-0.5801,-0.4541,19.531,-11.414,-7.568,-150.474,22.192,-65.495
13738,-0.4849,-0.5977,-0.46,-7.385,-9.46,2.747,-150.013,22.588,-65.402
13759,-0.4209,-0.4409,-0.7422,-20.264,-7.385,5.127,-150.403,22.868,-65.429
13788,-0.3403,-0.2314,-1.2559,-35.278,-1.77,2.563,-151.842,22.813,-65.462
13808,-0.354,-0.2437,-1.2954,-5.615,-5.188,-7.446,-152.314,22.698,-65.325
13839,-0.3862,-0.4775,-0.8062,-0.916,-11.536,-21.301,-152.177,22.648,-64.693
13848,-0.3862,-0.4775,-0.8062,-4.578,-9.949,-25.635,-152.023,22.637,-64.396
13868,-0.4106,-0.5156,-0.5713,-8.545,-8.728,-24.536,-151.754,22.648,-63.902
13888,-0.4219,-0.562,-0.5732,-3.845,2.686,-6.104,-151.469,22.659,-63.732
13898,-0.4175,-0.5703,-0.606,-6.409,4.272,0.793,-151.392,22.67,-63.759
13908,-0.4175,-0.5703,-0.606,-12.756,4.456,6.592,-151.479,22.676,-63.847
13938,-0.332,-0.2905,-1.1484,-18.188,4.517,11.169,-152.353,22.582,-64.21
13957,-0.3164,-0.2598,-1.2515,-18.188,4.517,11.169,-152.759,22.429,-64.297
13978,-0.3462,-0.3574,-1.1416,11.475,-3.601,-1.526,-152.65,22.346,-64.182
13997,-0.3633,-0.4238,-0.9922,24.048,-11.719,-8.667,-152.106,22.418,-63.918
14008,-0.4004,-0.5249,-0.6914,24.048,-11.719,-8.667,-151.721,22.5,-63.781
14018,-0.4004,-0.5249,-0.6914,23.315,-8.423,-7.141,-151.293,22.582,-63.671
14037,-0.4302,-0.5723,-0.5068,16.479,-2.991,1.953,-150.496,22.813,-63.611
14058,-0.4893,-0.5083,-0.479,4.822,4.517,8.484,-150.029,23.077,-63.781
14107,-0.3613,-0.3994,-1.002,-16.724,1.465,5.92,-150.974,22.994,-64.276
14117,-0.3345,-0.3496,-1.2021,-11.536,-1.221,4.822,-151.232,22.945,-64.314
14147,-0.3364,-0.3257,-1.208,1.282,-5.981,0.977,-151.545,22.874,-64.248
14157,-0.3643,-0.3813,-1.0293,12.512,-8.057,-5.737,-151.469,22.868,-64.149
14167,-0.3643,-0.3813,-1.0293,13.184,-7.874,-8.911,-151.331,22.879,-64.023
14187,-0.4175,-0.4546,-0.689,13.184,-7.874,-8.911,-150.952,22.945,-63.759
14207,-0.4658,-0.4751,-0.5664,7.568,-1.526,-5.188,-150.524,23.077,-63.605
14256,-0.4727,-0.4292,-0.6865,-19.104,6.042,1.648,-150.65,23.324,-63.831
14267,-0.4028,-0.3818,-0.9009,-22.156,4.272,0.488,-150.941,23.28,-63.858
14277,-0.4028,-0.3818,-0.9009,-21.362,2.38,-1.038,-151.249,23.214,-63.858
14296,-0.3154,-0.3623,-1.1509,-10.376,2.625,-4.944,-151.727,22.983,-63.809
14326,-0.29,-0.4258,-1.1313,9.338,2.075,-9.766,-151.771,22.527,-63.6
14357,-0.3784,-0.5757,-0.6885,17.395,0.427,-7.08,-151.035,22.297,-63.369
14366,-0.4102,-0.5869,-0.5742,13.306,0.977,-6.042,-150.716,22.302,-63.32
14386,-0.4629,-0.5581,-0.4736,13.306,0.977,-6.042,-150.26,22.396,-63.243
14406,-0.4712,-0.5,-0.5068,-18.188,3.296,2.563,-150.381,22.566,-63.281
14416,-0.4614,-0.3315,-0.7461,-17.822,5.554,8.728,-150.656,22.632,-63.397
14426,-0.4614,-0.3315,-0.7461,-11.658,7.629,15.015,-150.969,22.665,-63.578
14456,-0.417,-0.2778,-1.125,5.676,7.446,18.86,-151.523,22.665,-64.177
14506,-0.3521,-0.4683,-0.8262,2.625,-12.085,-7.385,-151.348,22.621,-63.891
14515,-0.3521,-0.4683,-0.8262,6.348,-14.648,-3.479,-151.188,22.725,-63.781
14526,-0.394,-0.5381,-0.6973,9.46,-15.808,1.953,-150.985,22.885,-63.715
14546,-0.394,-0.5381,-0.6973,7.996,-8.972,6.653,-150.551,23.198,-63.715
14555,-0.394,-0.5381,-0.6973,7.996,-8.972,6.653,-150.403,23.318,-63.765
14566,-0.394,-0.5381,-0.6973,1.953,-4.089,11.414,-150.337,23.423,-63.847
14576,-0.394,-0.5381,-0.6973,0.732,-1.343,12.939,-150.364,23.483,-63.962
14625,-0.3945,-0.3359,-1.1338,14.648,-2.319,9.705,-150.721,23.533,-64.49
14645,-0.4282,-0.394,-0.9854,18.555,-3.601,5.31,-150.535,23.582,-64.501
14665,-0.4331,-0.4688,-0.7378,16.602,-4.944,-4.7,-150.183,23.643,-64.319
14675,-0.4385,-0.4951,-0.6406,16.602,-4.944,-4.7,-149.996,23.703,-64.193
14685,-0.4385,-0.4951,-0.6406,0.488,-5.981,-8.545,-149.832,23.78,-64.083
14755,-0.356,-0.3057,-1.0811,-29.053,6.47,11.414,-150.705,24.033,-64.506
14775,-0.3584,-0.2769,-1.2183,-5.371,3.784,8.728,-151.348,23.895,-64.753
14785,-0.3818,-0.3066,-1.2637,3.784,0.61,2.991,-151.474,23.829,-64.786
14795,-0.3818,-0.3066,-1.2637,8.972,-3.723,-2.808,-151.49,23.785,-64.737
14814,-0.4102,-0.4141,-0.8857,8.972,-3.723,-2.808,-151.287,23.818,-64.462
14825,-0.4224,-0.459,-0.7275,8.972,-3.723,-2.808,-151.084,23.873,-64.287
14835,-0.4409,-0.498,-0.5967,7.813,-9.094,-13.123,-150.826,23.945,-64.116
14844,-0.4409,-0.498,-0.5967,2.93,-7.629,-11.353,-150.573,24.038,-63.968
14884,-0.4668,-0.5171,-0.5332,-9.277,2.808,1.099,-150.287,24.318,-63.929
14905,-0.4058,-0.3496,-0.959,-9.277,2.808,1.099,-150.892,24.263,-64.111
14944,-0.3784,-0.2847,-1.1885,1.77,-4.639,-4.028,-151.771,23.994,-64.166
14994,-0.4028,-0.5146,-0.7324,8.789,-10.681,-10.254,-150.974,24.142,-63.452
15004,-0.4355,-0.5493,-0.5552,3.723,-8.484,-9.399,-150.727,24.225,-63.32
15014,-0.4497,-0.5513,-0.5161,3.723,-8.484,-9.399,-150.513,24.291,-63.221
15034,-0.4653,-0.5264,-0.5537,-3.418,4.028,0.916,-150.266,24.401,-63.215
15054,-0.4468,-0.4937,-0.6411,-6.653,10.62,8.85,-150.397,24.362,-63.452
15084,-0.3838,-0.2915,-1.1416,-6.165,9.521,11.719,-151.089,24.153,-63.913
15103,-0.3828,-0.2915,-1.188,2.93,-1.953,-0.244,-151.375,24.038,-63.968
15124,-0.4087,-0.3892,-0.9878,2.93,-1.953,-0.244,-151.337,24.044,-63.759
15143,-0.415,-0.4336,-0.8633,9.644,-10.193,-10.559,-151.007,24.137,-63.457
15153,-0.415,-0.4336,-0.8633,8.057,-8.606,-9.827,-150.787,24.197,-63.314
15164,-0.415,-0.4336,-0.8633,5.615,-5.981,-7.751,-150.579,24.269,-63.21
15173,-0.4507,-0.5244,-0.5562,5.615,-5.981,-7.751,-150.381,24.329,-63.149
15193,-0.4497,-0.5449,-0.562,-1.831,3.662,0.427,-150.09,24.401,-63.155
15204,-0.4385,-0.5322,-0.6157,-6.714,5.859,2.808,-150.073,24.406,-63.215
15263,-0.3721,-0.2998,-1.229,6.897,2.625,1.587,-151.177,23.928,-63.814
15273,-0.3716,-0.3335,-1.1685,6.897,2.625,1.587,-151.161,23.851,-63.792
15293,-0.4043,-0.4404,-0.9028,6.897,2.625,1.587,-150.804,23.818,-63.622
15303,-0.4282,-0.4873,-0.7466,6.897,2.625,1.587,-150.507,23.851,-63.495
15313,-0.4282,-0.4873,-0.7466,16.846,-6.531,-9.888,-150.178,23.917,-63.369
15353,-0.5098,-0.6006,-0.3374,-15.93,-0.183,-0.793,-149.013,24.329,-63.105
15362,-0.5098,-0.6006,-0.3374,-15.93,-0.183,-0.793,-149.117,24.439,-63.16
15383,-0.3931,-0.333,-0.8765,-31.555,7.568,9.399,-149.925,24.417,-63.484
15452,-0.3896,-0.4219,-0.9531,3.418,-3.906,-3.662,-151.243,23.945,-63.677
15463,-0.3896,-0.4219,-0.9531,7.507,-11.353,-13.733,-151.073,23.967,-63.484
15472,-0.3896,-0.4219,-0.9531,7.813,-9.521,-12.573,-150.842,24.0,-63.314
15512,-0.4268,-0.5742,-0.5117,-1.648,2.991,1.709,-149.974,24.175,-63.138
15532,-0.4463,-0.4888,-0.6934,-1.648,2.991,1.709,-150.068,24.214,-63.292
15572,-0.3901,-0.2627,-1.1611,-0.549,6.836,5.859,-151.073,23.956,-63.726
15581,-0.3901,-0.2627,-1.1611,6.409,3.906,2.38,-151.172,23.879,-63.77
15621,-0.4063,-0.4229,-0.8765,3.418,-8.057,-9.705,-150.98,23.862,-63.419
15642,-0.4268,-0.5415,-0.5933,0.854,-8.118,-10.01,-150.677,23.967,-63.16
15661,-0.438,-0.5479,-0.5532,0.854,-8.118,-10.01,-150.557,24.104,-63.056
15672,-0.4185,-0.4814,-0.6377,-10.315,2.441,2.808,-150.595,24.131,-63.094
15711,-0.3843,-0.3076,-1.147,4.517,8.728,8.484,-151.243,23.906,-63.572
15762,-0.4263,-0.501,-0.8022,16.663,-6.592,-8.728,-150.793,23.626,-63.512
15771,-0.438,-0.564,-0.6494,10.376,-8.179,-10.925,-150.513,23.681,-63.364
15791,-0.4409,-0.5728,-0.4644,1.221,-8.423,-10.986,-150.084,23.846,-63.083
15821,-0.4487,-0.4702,-0.6104,-10.925,5.066,6.836,-150.062,24.088,-63.105
15831,-0.4487,-0.4702,-0.6104,-8.789,9.338,10.925,-150.222,24.077,-63.259
15861,-0.3936,-0.2739,-1.1763,-5.127,9.888,12.695,-150.941,23.879,-63.754
15880,-0.4014,-0.3052,-1.1904,2.075,-2.563,-2.625,-151.183,23.769,-63.77
15891,-0.4014,-0.3052,-1.1904,1.404,-6.714,-7.385,-151.232,23.763,-63.66
15901,-0.416,-0.3916,-0.9287,1.404,-6.714,-7.385,-151.205,23.774,-63.517
15920,-0.4136,-0.4854,-0.6846,1.404,-6.714,-7.385,-150.952,23.851,-63.188
15931,-0.4292,-0.5474,-0.584,1.404,-6.714,-7.385,-150.749,23.917,-63.045
15941,-0.4292,-0.5474,-0.584,-4.272,-8.057,-7.69,-150.562,24.011,-62.924
15990,-0.3911,-0.3369,-0.9922,-11.902,7.935,8.85,-150.919,24.093,-63.21
16000,-0.377,-0.2954,-1.1362,-0.61,11.169,10.559,-151.133,23.983,-63.369
16010,-0.377,-0.2954,-1.1362,5.981,8.789,7.996,-151.276,23.873,-63.495
16030,-0.4063,-0.356,-1.1108,7.935,-2.808,-2.747,-151.353,23.758,-63.501
16050,-0.4194,-0.3882,-0.9756,4.7,-9.644,-9.949,-151.221,23.818,-63.248
16090,-0.4395,-0.479,-0.5498,-10.376,-0.732,-2.502,-150.754,24.175,-62.792
16100,-0.4395,-0.479,-0.5498,-10.376,-0.732,-2.502,-150.776,24.175,-62.836
16140,-0.3989,-0.4063,-1.0322,7.507,7.324,7.507,-151.111,23.939,-63.353
16150,-0.3931,-0.4233,-1.0322,7.507,7.324,7.507,-151.144,23.884,-63.402
16160,-0.3911,-0.4014,-1.0029,7.507,7.324,7.507,-151.216,23.857,-63.391
16169,-0.3965,-0.3901,-0.9487,7.507,7.324,7.507,-151.304,23.851,-63.336
16179,-0.3994,-0.3916,-0.9033,-3.174,-4.7,-5.249,-151.359,23.846,-63.265
16190,-0.4004,-0.3999,-0.8638,-0.549,-4.15,-5.493,-151.37,23.846,-63.188
16200,-0.4004,-0.3999,-0.8638,2.136,-2.563,-4.883,-151.337,23.846,-63.127
16240,-0.4326,-0.5063,-0.6748,-2.747,-0.244,-0.427,-150.985,23.95,-63.023
16249,-0.4326,-0.5063,-0.6748,-6.592,0.122,1.099,-150.996,23.983,-63.034
16270,-0.4087,-0.3794,-0.873,-9.399,0.732,2.441,-151.26,23.994,-63.105
16289,-0.3862,-0.3081,-1.0728,-1.892,3.052,3.296,-151.622,23.895,-63.21
16299,-0.3877,-0.3149,-1.1177,3.174,0.977,1.282,-151.721,23.835,-63.226
16309,-0.3877,-0.3149,-1.1177,7.69,-1.77,-1.404,-151.76,23.796,-63.204
16329,-0.4185,-0.4009,-0.9517,11.719,-7.507,-6.531,-151.622,23.796,-63.04
16339,-0.4185,-0.4009,-0.9517,11.719,-7.507,-6.531,-151.452,23.835,-62.908
16359,-0.4312,-0.5142,-0.6973,8.362,-9.705,-10.803,-150.996,23.983,-62.589
16379,-0.4658,-0.5503,-0.4712,-4.028,-7.568,-9.888,-150.639,24.164,-62.386
16399,-0.4585,-0.5576,-0.4805,-7.141,6.714,5.493,-150.469,24.252,-62.485
16409,-0.4175,-0.4976,-0.6631,-10.01,9.399,10.01,-150.551,24.247,-62.633
16419,-0.4175,-0.4976,-0.6631,-13.123,11.047,12.878,-150.787,24.197,-62.814
16449,-0.3809,-0.2593,-1.2373,-9.949,8.85,12.085,-151.672,23.961,-63.281
16468,-0.375,-0.2627,-1.2715,4.456,-2.686,-1.282,-151.946,23.829,-63.303
16489,-0.4116,-0.3984,-0.9634,4.456,-2.686,-1.282,-151.864,23.851,-63.04
16508,-0.4248,-0.4404,-0.8071,2.197,-12.695,-14.648,-151.556,24.0,-62.628
16518,-0.4248,-0.4404,-0.8071,1.465,-9.644,-13.062,-151.353,24.088,-62.452
16529,-0.4248,-0.4404,-0.8071,1.465,-9.644,-13.062,-151.133,24.164,-62.331
16539,-0.4502,-0.5415,-0.5137,1.038,-1.709,-5.127,-150.925,24.225,-62.271
16558,-0.4487,-0.5439,-0.5859,-4.883,3.845,3.845,-150.699,24.302,-62.336
16569,-0.436,-0.5059,-0.6763,-10.315,5.005,5.981,-150.76,24.318,-62.419
16578,-0.436,-0.5059,-0.6763,-10.315,5.005,5.981,-150.947,24.307,-62.518
16638,-0.418,-0.3511,-1.0146,0.671,-2.502,-2.014,-152.051,24.016,-62.688
16658,-0.416,-0.4287,-0.8394,-5.737,-10.803,-13.0,-152.056,24.066,-62.369
16668,-0.415,-0.458,-0.7744,-13.123,-12.878,-16.052,-152.067,24.109,-62.15
16678,-0.415,-0.458,-0.7744,-22.583,-15.015,-18.25,-152.139,24.17,-61.897
16718,-0.4883,-0.4116,-0.687,-35.583,-13.0,-14.404,-152.985,24.587,-60.831
16748,-0.4204,-0.4692,-0.7495,-9.216,-0.122,0.61,-153.171,24.714,-60.815
16767,-0.4053,-0.4346,-0.7944,-1.282,7.446,10.498,-153.298,24.648,-61.078
16777,-0.3652,-0.3921,-0.9497,-4.822,6.409,9.827,-153.441,24.582,-61.21
16788,-0.3652,-0.3921,-0.9497,-9.766,3.723,7.507,-153.649,24.532,-61.298
16828,-0.4219,-0.3267,-0.9946,3.296,-1.404,-3.418,-154.226,24.379,-61.282
16857,-0.4331,-0.4258,-0.7549,8.24,-3.235,-3.784,-153.94,24.434,-61.139
16877,-0.4399,-0.4521,-0.6919,5.432,0.366,-0.916,-153.638,24.505,-61.1
16887,-0.4248,-0.4785,-0.6572,2.808,2.075,0.671,-153.517,24.516,-61.117
16897,-0.4248,-0.4785,-0.6572,-1.099,3.296,2.686,-153.468,24.527,-61.161
16986,-0.4331,-0.3213,-0.999,2.686,-4.395,-6.287,-154.369,24.335,-61.414
17007,-0.4258,-0.4326,-0.7524,3.174,-4.944,-6.958,-154.193,24.379,-61.232
17056,-0.416,-0.4478,-0.769,-0.427,3.357,2.686,-153.924,24.395,-61.249
17096,-0.4023,-0.3247,-0.9941,2.625,4.822,3.113,-154.149,24.252,-61.545
17116,-0.4023,-0.3247,-0.9941,2.625,-0.244,-2.136,-154.276,24.175,-61.54
17146,-0.439,-0.3799,-0.8818,11.963,-2.869,-5.249,-154.138,24.131,-61.381
17156,-0.4424,-0.4341,-0.7842,11.963,-3.845,-5.676,-153.957,24.164,-61.309
17166,-0.4424,-0.4341,-0.7842,11.963,-3.845,-5.676,-153.743,24.214,-61.227
17205,-0.4507,-0.5474,-0.5376,-1.282,-2.258,-5.005,-153.193,24.434,-61.095
17226,-0.3896,-0.334,-0.9053,-1.282,-2.258,-5.005,-153.6,24.39,-61.326
17235,-0.3896,-0.334,-0.9053,-8.789,9.399,11.414,-153.891,24.302,-61.485
17266,-0.4058,-0.2485,-1.228,11.597,2.014,-1.526,-154.297,24.0,-61.694
17285,-0.4292,-0.3691,-0.9531,12.146,-4.395,-7.446,-154.127,23.978,-61.436
17315,-0.4434,-0.4663,-0.6665,-0.549,-8.972,-13.428,-153.55,24.186,-60.842
17325,-0.4497,-0.5205,-0.541,-1.465,-5.371,-8.972,-153.342,24.263,-60.732
17336,-0.437,-0.5454,-0.542,-1.465,-5.371,-8.972,-153.155,24.307,-60.688
17355,-0.4189,-0.5322,-0.6338,-7.874,3.296,3.906,-152.99,24.346,-60.76
17365,-0.415,-0.4702,-0.7329,-13.367,3.723,5.676,-153.094,24.351,-60.831
17375,-0.415,-0.4702,-0.7329,-16.907,4.272,6.653,-153.32,24.335,-60.919
17395,-0.4019,-0.3066,-0.9956,-12.024,5.859,6.348,-153.907,24.208,-61.106
17405,-0.3984,-0.2275,-1.1865,-12.024,5.859,6.348,-154.138,24.12,-61.172
17425,-0.4058,-0.2466,-1.1895,6.226,-1.587,-3.113,-154.308,24.005,-61.15
17435,-0.4058,-0.2466,-1.1895,8.789,-5.005,-5.981,-154.265,24.0,-61.068
17445,-0.4277,-0.3901,-0.8716,8.789,-5.005,-5.981,-154.133,24.022,-60.952
17465,-0.4395,-0.4395,-0.7397,6.714,-6.714,-8.911,-153.71,24.142,-60.705
17475,-0.4395,-0.4395,-0.7397,2.38,-4.883,-7.141,-153.495,24.214,-60.612
17485,-0.4395,-0.4395,-0.7397,-2.686,-2.563,-4.028,-153.336,24.269,-60.557
17525,-0.4019,-0.3916,-0.8652,-12.39,5.798,9.094,-153.561,24.329,-60.804
17535,-0.3906,-0.3223,-1.0063,-10.986,6.226,10.437,-153.809,24.28,-60.936
17544,-0.3906,-0.3223,-1.0063,-7.324,5.676,9.949,-154.067,24.214,-61.062
17555,-0.3906,-0.3223,-1.0063,-0.427,4.517,7.263,-154.248,24.137,-61.155
17584,-0.4023,-0.3091,-1.0547,14.038,-4.211,-2.869,-154.297,24.027,-61.139
17595,-0.4023,-0.3091,-1.0547,16.846,-5.31,-5.31,-154.144,24.033,-61.057
17624,-0.4453,-0.5186,-0.6001,13.489,-2.686,-6.104,-153.325,24.17,-60.804
17635,-0.4453,-0.5186,-0.6001,8.972,0.061,-4.272,-153.04,24.203,-60.76
17684,-0.4517,-0.4673,-0.6914,-11.23,7.69,9.583,-152.985,24.329,-61.194
17704,-0.4517,-0.4673,-0.6914,-11.23,7.69,9.583,-153.589,24.236,-61.501
17713,-0.4517,-0.4673,-0.6914,-11.23,7.69,9.583,-153.891,24.175,-61.611
17744,-0.418,-0.2559,-1.1011,3.418,-2.869,-4.272,-154.352,24.038,-61.611
17784,-0.4321,-0.4653,-0.7144,11.963,-4.822,-7.507,-153.798,24.104,-61.221
17793,-0.4321,-0.4653,-0.7144,11.963,-4.822,-7.507,-153.578,24.142,-61.144
17804,-0.4258,-0.5049,-0.6338,5.859,-1.709,-3.723,-153.38,24.175,-61.1
17814,-0.4297,-0.5068,-0.6406,5.859,-1.709,-3.723,-153.232,24.208,-61.089
17833,-0.4321,-0.4761,-0.7163,-3.479,3.418,4.272,-153.138,24.247,-61.172
17854,-0.4321,-0.4761,-0.7163,-6.958,5.371,6.836,-153.314,24.23,-61.348
17903,-0.4111,-0.3188,-1.0146,-0.61,3.967,2.319,-153.957,23.994,-61.65
17934,-0.4146,-0.374,-0.8794,4.883,-1.709,-2.563,-153.929,23.967,-61.562
17943,-0.4141,-0.4009,-0.8437,7.935,-1.953,-2.563,-153.842,23.972,-61.529
17963,-0.4165,-0.4336,-0.7969,7.996,-1.648,-1.953,-153.633,23.994,-61.485
17993,-0.4263,-0.46,-0.77,5.615,1.709,1.77,-153.331,24.027,-61.523
18003,-0.4263,-0.46,-0.77,3.784,2.502,2.808,-153.276,24.027,-61.562
18063,-0.4263,-0.4023,-0.8481,-1.038,4.639,3.845,-153.435,23.994,-61.908
18073,-0.4063,-0.3735,-0.8921,-1.038,4.639,3.845,-153.534,23.961,-61.968
18092,-0.3765,-0.3164,-1.0347,-0.854,3.906,4.211,-153.787,23.846,-62.095
18113,-0.3813,-0.2583,-1.1265,12.207,2.869,2.441,-153.913,23.714,-62.183
18122,-0.3813,-0.2583,-1.1265,12.207,2.869,2.441,-153.82,23.637,-62.205
18132,-0.4131,-0.3594,-1.0205,28.625,0.732,-1.343,-153.6,23.599,-62.194
18142,-0.4336,-0.4282,-0.8911,30.762,-1.892,-3.601,-153.287,23.599,-62.15
18162,-0.4443,-0.4868,-0.7402,27.405,-3.235,-6.226,-152.54,23.687,-61.979
18172,-0.4756,-0.5444,-0.4932,12.878,-2.502,-7.507,-152.172,23.769,-61.897
18182,-0.4878,-0.5674,-0.4224,12.878,-2.502,-7.507,-151.848,23.857,-61.831
18202,-0.4912,-0.5737,-0.3999,-11.841,2.075,2.075,-151.485,24.055,-61.837
18212,-0.4688,-0.5308,-0.5063,-19.165,3.723,6.47,-151.529,24.137,-61.919
18222,-0.4688,-0.5308,-0.5063,-24.963,6.531,10.315,-151.771,24.164,-62.051
18271,-0.3818,-0.2075,-1.2871,-6.104,0.488,0.671,-153.699,23.84,-62.633
18282,-0.3916,-0.2568,-1.2222,0.305,-3.235,-4.639,-153.814,23.785,-62.573
18292,-0.394,-0.3047,-1.1128,0.305,-3.235,-4.639,-153.836,23.758,-62.452
18311,-0.3931,-0.3481,-0.9844,9.888,-8.606,-12.146,-153.611,23.769,-62.133
18322,-0.3931,-0.3481,-0.9844,11.536,-7.568,-11.169,-153.38,23.796,-61.985
18332,-0.3931,-0.3481,-0.9844,11.047,-5.798,-9.155,-153.094,23.84,-61.87
18341,-0.4331,-0.5679,-0.5615,11.047,-5.798,-9.155,-152.798,23.89,-61.787
18362,-0.4478,-0.5713,-0.5259,-3.54,1.038,0.122,-152.375,23.994,-61.76
18372,-0.4492,-0.5381,-0.5684,-10.132,3.174,2.808,-152.336,24.038,-61.804
18381,-0.4492,-0.5381,-0.5684,-15.625,5.249,4.883,-152.446,24.055,-61.875
18421,-0.3799,-0.2129,-1.2114,-9.888,5.615,6.042,-153.666,23.796,-62.314
18431,-0.3896,-0.2144,-1.2339,-2.441,2.258,2.014,-153.864,23.719,-62.347
18441,-0.3896,-0.2144,-1.2339,3.967,-1.587,-2.625,-153.962,23.67,-62.309
18451,-0.415,-0.292,-1.084,3.967,-1.587,-2.625,-153.94,23.648,-62.227
18461,-0.4204,-0.3545,-0.9536,3.967,-1.587,-2.625,-153.825,23.654,-62.095
18471,-0.4253,-0.4038,-0.8188,3.967,-1.587,-2.625,-153.638,23.687,-61.946
18481,-0.4253,-0.4038,-0.8188,11.719,-7.08,-11.292,-153.408,23.736,-61.798
18501,-0.4473,-0.5269,-0.5645,6.897,-3.418,-7.751,-152.875,23.851,-61.584
18532,-0.4478,-0.5537,-0.5732,-11.108,1.099,1.282,-152.452,24.005,-61.529
18551,-0.4233,-0.4492,-0.7456,-11.108,1.099,1.282,-152.737,24.077,-61.655
18591,-0.3672,-0.2319,-1.1997,-9.46,4.028,5.859,-153.984,23.862,-62.073
18610,-0.3672,-0.2319,-1.1997,4.456,-0.244,-1.282,-154.27,23.703,-62.095
18621,-0.3877,-0.2661,-1.1377,4.456,-0.244,-1.282,-154.276,23.659,-62.04
18661,-0.4463,-0.4688,-0.6748,20.264,-6.836,-8.728,-153.402,23.769,-61.606
18680,-0.4526,-0.5059,-0.5884,10.437,-1.953,-5.188,-152.765,23.906,-61.458
18690,-0.4668,-0.5464,-0.5205,4.089,0.244,-3.296,-152.523,23.972,-61.425
18701,-0.4668,-0.5464,-0.5205,-3.113,2.502,-1.221,-152.375,24.011,-61.425
18740,-0.3906,-0.3418,-0.9253,-20.142,6.287,8.972,-152.985,24.027,-61.727
18750,-0.3906,-0.3418,-0.9253,-17.517,5.981,9.338,-153.336,23.972,-61.848
18760,-0.3906,-0.3418,-0.9253,-17.517,5.981,9.338,-153.649,23.895,-61.941
18770,-0.3906,-0.3418,-0.9253,-5.31,3.113,2.38,-153.875,23.813,-61.979
18790,-0.4058,-0.2847,-1.1162,-5.31,3.113,2.38,-154.056,23.719,-61.88
18810,-0.4058,-0.2847,-1.1162,10.498,-6.653,-10.254,-153.907,23.698,-61.639
18830,-0.4194,-0.4595,-0.7266,13.489,-5.92,-9.033,-153.474,23.752,-61.386
18840,-0.4214,-0.4985,-0.6616,12.451,-3.906,-7.08,-153.21,23.791,-61.298
18850,-0.4307,-0.5273,-0.6143,12.451,-3.906,-7.08,-152.952,23.829,-61.243
18890,-0.4312,-0.4561,-0.7241,-10.559,4.089,3.784,-152.639,23.989,-61.309
18899,-0.4067,-0.3921,-0.8428,-10.559,4.089,3.784,-152.814,23.95,-61.392
18920,-0.4067,-0.3921,-0.8428,-8.85,6.592,5.249,-153.314,23.791,-61.562
18960,-0.374,-0.2246,-1.2285,20.874,-1.953,-5.066,-153.528,23.456,-61.573
18979,-0.4277,-0.4497,-0.7837,20.874,-1.953,-5.066,-152.985,23.472,-61.353
19049,-0.4258,-0.4658,-0.6763,-21.423,6.836,7.507,-151.606,23.835,-61.177
19059,-0.4028,-0.376,-0.8599,-21.973,8.789,11.047,-151.93,23.802,-61.331
19069,-0.4028,-0.376,-0.8599,-20.203,9.583,12.024,-152.325,23.736,-61.496
19099,-0.377,-0.1826,-1.2798,-20.203,9.583,12.024,-153.292,23.439,-61.754
19118,-0.3955,-0.228,-1.2158,11.414,-4.7,-8.972,-153.358,23.335,-61.595
19139,-0.4077,-0.4272,-0.811,14.587,-6.836,-11.78,-153.001,23.34,-61.282
19158,-0.4209,-0.522,-0.6099,12.573,-5.127,-10.315,-152.419,23.417,-61.002
19168,-0.4277,-0.5586,-0.5513,9.46,-3.418,-6.592,-152.117,23.467,-60.919
19179,-0.4277,-0.5586,-0.5513,4.883,-0.732,-3.052,-151.864,23.516,-60.886
19198,-0.4355,-0.5786,-0.5503,-8.057,2.075,3.479,-151.639,23.604,-60.941
19208,-0.4419,-0.5122,-0.6543,-8.057,2.075,3.479,-151.705,23.654,-61.018
19219,-0.4238,-0.4487,-0.7563,-16.479,4.578,8.972,-151.891,23.676,-61.128
19228,-0.4238,-0.4487,-0.7563,-16.479,4.578,8.972,-152.15,23.665,-61.26
19248,-0.3862,-0.2964,-1.0562,-15.869,5.493,11.292,-152.748,23.61,-61.512
19258,-0.3813,-0.2725,-1.1182,-15.869,5.493,11.292,-153.018,23.56,-61.595
19268,-0.3799,-0.2676,-1.1367,-5.676,1.526,3.418,-153.226,23.505,-61.639
19278,-0.3833,-0.271,-1.124,-0.732,-0.61,0.916,-153.369,23.461,-61.644
19288,-0.3833,-0.271,-1.124,4.7,-2.38,-1.404,-153.419,23.439,-61.617
19308,-0.4072,-0.3765,-0.9072,4.7,-2.38,-1.404,-153.281,23.434,-61.501
19318,-0.4141,-0.416,-0.8252,12.756,-4.272,-5.31,-153.122,23.456,-61.425
19377,-0.439,-0.4854,-0.6646,-2.502,2.991,1.709,-152.358,23.665,-61.282
19398,-0.4326,-0.4346,-0.7915,-6.165,3.174,2.869,-152.496,23.692,-61.381
19417,-0.4077,-0.3682,-0.8945,-9.399,4.578,4.639,-152.809,23.659,-61.512
19428,-0.3989,-0.3374,-0.9551,-8.362,4.7,4.028,-152.996,23.615,-61.573
19438,-0.3853,-0.3062,-1.0142,-7.08,4.15,2.808,-153.188,23.555,-61.622
19447,-0.3853,-0.3062,-1.0142,-7.08,4.15,2.808,-153.358,23.483,-61.644
19468,-0.3672,-0.2798,-1.1309,-7.08,4.15,2.808,-153.583,23.34,-61.595
19487,-0.3521,-0.2783,-1.1465,4.517,-2.93,-6.836,-153.633,23.203,-61.386
19507,-0.394,-0.375,-0.9751,7.935,-7.996,-15.137,-153.452,23.132,-60.947
19537,-0.4683,-0.521,-0.5459,7.446,-10.681,-26.611,-152.644,23.203,-60.051
19547,-0.4683,-0.521,-0.5459,4.517,-5.127,-21.484,-152.26,23.264,-59.815
19567,-0.4897,-0.6133,-0.3472,-2.441,0.488,-6.653,-151.556,23.412,-59.595
19587,-0.4629,-0.6118,-0.4395,-14.832,5.798,6.958,-151.26,23.544,-59.722
19617,-0.3901,-0.3843,-0.8999,-14.832,5.798,6.958,-152.194,23.621,-60.359
19636,-0.3818,-0.3066,-1.0635,-27.588,6.775,16.479,-153.221,23.549,-60.793
19647,-0.3418,-0.1714,-1.3052,-27.588,6.775,16.479,-153.688,23.456,-60.919
19666,-0.3354,-0.1333,-1.354,-4.211,0.061,-1.221,-154.292,23.258,-60.969
19706,-0.3799,-0.3413,-0.9824,19.958,-6.287,-10.254,-153.831,23.148,-60.513
19746,-0.4517,-0.5493,-0.5313,5.981,-1.831,-5.066,-152.419,23.384,-60.101
19767,-0.4517,-0.5493,-0.5313,-2.258,-0.122,-2.136,-152.155,23.516,-60.09
19786,-0.4258,-0.4526,-0.7334,-22.095,2.869,6.287,-152.424,23.599,-60.216
19796,-0.3965,-0.374,-0.8726,-24.963,3.357,8.179,-152.754,23.599,-60.309
19816,-0.3794,-0.2305,-1.1191,-21.179,1.648,7.935,-153.539,23.544,-60.496
19826,-0.3794,-0.2305,-1.1191,-21.179,1.648,7.935,-153.875,23.494,-60.551
19836,-0.3745,-0.2036,-1.2104,-21.179,1.648,7.935,-154.111,23.439,-60.551
19856,-0.3774,-0.2861,-1.1226,5.615,-4.883,-7.935,-154.248,23.346,-60.397
19876,-0.3623,-0.3726,-0.957,9.705,-5.981,-10.376,-154.045,23.269,-60.134
19896,-0.3921,-0.4858,-0.7661,18.372,-2.93,-10.132,-153.539,23.22,-59.892
19906,-0.4048,-0.5356,-0.6909,18.372,-2.93,-10.132,-153.21,23.203,-59.81
19916,-0.4048,-0.5356,-0.6909,17.029,1.648,-5.188,-152.864,23.198,-59.766
19965,-0.4478,-0.4956,-0.6265,-6.714,6.042,8.24,-152.309,23.346,-60.128
19986,-0.3867,-0.2842,-1.02,-6.714,6.042,8.24,-152.798,23.258,-60.518
20005,-0.3804,-0.2124,-1.1963,-6.714,6.042,8.24,-153.259,23.115,-60.842
