elapsed_ms,acc_x_g,acc_y_g,acc_z_g,gyro_x_dps,gyro_y_dps,gyro_z_dps,angle_x_deg,angle_y_deg,angle_z_deg
0,-0.0313,-0.1582,-1.0327,-1.221,-0.488,-0.61,-171.227,1.807,2.39
9,-0.0313,-0.1582,-1.0327,-1.343,-0.366,-0.732,-171.244,1.807,2.395
18,-0.0283,-0.1602,-1.0376,-1.343,-0.366,-0.732,-171.255,1.807,2.401
49,-0.0288,-0.1621,-1.0386,-1.77,-0.793,-0.854,-171.304,1.824,2.428
68,-0.0303,-0.1631,-1.0352,-1.587,-0.671,-1.16,-171.326,1.829,2.455
89,-0.0273,-0.1675,-1.0361,-1.526,-0.732,-1.343,-171.348,1.829,2.483
98,-0.0273,-0.1675,-1.0361,-0.427,-0.549,-1.221,-171.343,1.829,2.494
108,-0.0244,-0.167,-1.0366,-0.183,-0.427,-0.977,-171.337,1.824,2.505
119,-0.022,-0.1689,-1.042,-0.183,-0.427,-0.977,-171.337,1.818,2.516
158,-0.0195,-0.1709,-1.0454,0.793,0.916,0.427,-171.304,1.752,2.521
178,-0.0254,-0.1714,-1.0356,1.221,0.793,1.221,-171.266,1.73,2.499
218,-0.0273,-0.1646,-1.0356,1.892,2.014,1.404,-171.189,1.664,2.428
228,-0.0288,-0.1636,-1.0361,1.892,2.014,1.404,-171.167,1.642,2.411
248,-0.0298,-0.1641,-1.0376,2.258,1.709,1.648,-171.118,1.615,2.368
258,-0.0317,-0.1597,-1.0396,2.136,1.892,1.282,-171.101,1.599,2.351
268,-0.0317,-0.1597,-1.0396,2.319,2.075,0.854,-171.074,1.582,2.34
308,-0.0303,-0.165,-1.0288,1.404,1.465,0.549,-170.997,1.516,2.307
357,-0.0332,-0.1606,-1.0298,1.038,1.526,0.488,-170.975,1.467,2.274
367,-0.0283,-0.1626,-1.0347,1.038,1.526,0.488,-170.964,1.456,2.269
378,-0.0293,-0.1675,-1.0376,1.038,1.526,0.488,-170.947,1.445,2.263
418,-0.0288,-0.1655,-1.0356,0.0,0.427,0.366,-170.931,1.417,2.236
457,-0.0259,-0.1694,-1.0298,-0.122,-0.183,0.549,-170.925,1.423,2.219
477,-0.0254,-0.1694,-1.0269,-0.122,-0.183,0.549,-170.92,1.423,2.208
487,-0.0254,-0.1724,-1.0293,-0.122,-0.183,0.549,-170.909,1.423,2.203
497,-0.0229,-0.1729,-1.0288,0.61,0.122,0.671,-170.898,1.423,2.197
517,-0.0264,-0.1729,-1.0303,0.061,-0.122,0.916,-170.887,1.423,2.181
527,-0.0264,-0.1729,-1.0303,-0.549,-0.427,0.916,-170.892,1.434,2.17
547,-0.0273,-0.167,-1.0308,-0.549,-0.427,0.977,-170.903,1.445,2.153
567,-0.0293,-0.165,-1.0327,-0.488,-0.61,0.671,-170.914,1.461,2.142
616,-0.0249,-0.1694,-1.0361,-1.526,-1.099,0.244,-170.958,1.489,2.131
626,-0.0259,-0.1665,-1.0347,-1.892,-1.221,0.122,-170.975,1.5,2.131
637,-0.0259,-0.1665,-1.0347,-1.892,-1.221,0.122,-170.997,1.511,2.137
677,-0.0254,-0.1709,-1.0317,-1.221,-0.671,0.0,-171.035,1.533,2.142
726,-0.0259,-0.1689,-1.0386,-0.61,0.244,0.793,-171.057,1.533,2.115
736,-0.022,-0.1714,-1.0376,-0.732,0.244,0.488,-171.057,1.533,2.109
746,-0.0205,-0.1694,-1.0396,-0.732,0.244,0.488,-171.063,1.522,2.104
786,-0.0234,-0.167,-1.0342,0.122,-0.366,0.488,-171.063,1.522,2.098
856,-0.0229,-0.1621,-1.0303,-0.366,0.427,0.671,-171.052,1.516,2.043
896,-0.0239,-0.1631,-1.0415,-0.793,0.061,0.732,-171.079,1.505,2.01
965,-0.0132,-0.1948,-1.0415,0.793,-0.061,2.197,-171.013,1.483,1.917
985,-0.0088,-0.2061,-1.0435,3.479,-0.732,5.432,-170.909,1.483,1.824
996,-0.0015,-0.2246,-1.0444,5.188,-1.77,7.141,-170.832,1.5,1.758
1005,-0.0015,-0.2246,-1.0444,7.813,-3.662,9.888,-170.717,1.533,1.664
1025,0.0215,-0.2754,-1.0244,7.813,-3.662,9.888,-170.299,1.785,1.357
1045,-0.0269,-0.2944,-0.9746,29.236,-22.766,39.978,-169.656,2.329,0.731
1054,-0.0269,-0.2944,-0.9746,29.236,-22.766,39.978,-169.31,2.604,0.335
1065,-0.0195,-0.2485,-0.9048,32.043,-17.7,42.908,-168.964,2.84,-0.049
1075,-0.042,-0.2104,-0.9009,32.043,-17.7,42.908,-168.607,3.027,-0.396
1105,-0.1367,-0.1929,-0.855,37.964,-7.568,24.353,-167.399,3.532,-1.176
1115,-0.1367,-0.1929,-0.855,22.949,0.916,18.127,-167.223,3.625,-1.357
1155,-0.022,0.0269,-1.3696,11.23,42.297,4.456,178.237,2.461,-1.901
1164,-0.022,0.0269,-1.3696,11.23,42.297,4.456,-179.033,2.109,-1.895
1195,-0.0347,-0.2524,-1.168,45.593,-8.667,-0.916,-177.248,1.978,-1.846
1244,-0.0044,-0.249,-0.9687,-25.452,8.606,9.766,-176.523,2.406,-2.005
1254,-0.0044,-0.1719,-1.1187,-19.714,10.437,10.193,-176.666,2.291,-2.109
1264,-0.0044,-0.1719,-1.1187,-9.155,8.301,6.958,-176.726,2.192,-2.186
1284,-0.0464,-0.2339,-1.1216,16.541,-3.479,1.587,-176.358,2.164,-2.23
1294,-0.0542,-0.3003,-1.0264,17.517,-8.85,1.221,-176.061,2.258,-2.236
1304,-0.0542,-0.3003,-1.0264,12.451,-7.69,0.305,-175.792,2.351,-2.236
1333,0.0,-0.2876,-0.9966,-14.954,5.859,-6.409,-175.655,2.307,-2.12
1353,0.0259,-0.2661,-1.0703,-7.69,-12.39,-0.916,-175.66,2.351,-2.049
1364,-0.0757,-0.2402,-0.9644,-2.014,-29.602,4.15,-175.589,2.664,-2.071
1374,-0.0757,-0.2402,-0.9644,-2.014,-36.499,4.211,-175.512,3.104,-2.082
1393,-0.1895,-0.2217,-0.7788,-7.324,-0.183,-11.475,-175.364,3.532,-1.928
1404,-0.1191,-0.2793,-0.7729,-16.357,23.437,-20.935,-175.364,3.329,-1.736
1414,-0.1191,-0.2793,-0.7729,-16.357,23.437,-20.935,-175.441,2.856,-1.522
1444,0.0591,-0.1753,-1.4639,-2.258,41.687,-12.207,-175.38,1.505,-1.208
1463,0.0454,-0.2412,-1.4033,15.198,2.869,-3.113,-174.941,1.241,-1.132
1483,-0.0464,-0.3311,-0.9023,8.728,-7.263,0.0,-174.578,1.417,-1.143
1494,-0.0703,-0.3042,-0.8198,8.728,-7.263,0.0,-174.474,1.571,-1.187
1523,-0.0488,-0.1533,-0.9995,-9.949,-2.197,5.005,-174.512,1.741,-1.351
1533,-0.0488,-0.1533,-0.9995,-9.949,-2.197,5.005,-174.606,1.774,-1.395
1543,-0.0508,-0.0942,-1.1201,-2.502,0.305,1.526,-174.639,1.78,-1.412
1573,-0.0464,-0.1934,-1.0542,4.578,-0.488,-8.911,-174.364,1.818,-1.241
1613,0.0396,-0.3208,-1.1377,-5.798,-1.221,-5.432,-174.133,1.763,-0.989
1623,0.0195,-0.2964,-1.1187,-12.634,-6.47,-0.061,-174.172,1.802,-0.983
1633,-0.0142,-0.292,-1.0327,-12.634,-6.47,-0.061,-174.177,1.868,-0.989
1663,-0.0605,-0.2319,-0.8228,-3.479,4.456,0.549,-174.051,1.89,-1.0
1673,-0.0459,-0.1982,-0.8232,2.014,10.742,0.488,-173.958,1.796,-1.011
1703,0.0313,-0.1699,-1.0884,11.841,17.883,-0.183,-173.309,1.115,-1.033
1722,0.041,-0.1846,-1.1655,11.841,17.883,-0.183,-172.804,0.626,-0.972
1732,0.0522,-0.2515,-1.1548,20.508,15.991,-7.019,-172.551,0.428,-0.917
1743,0.0356,-0.3379,-1.0454,20.508,15.991,-7.019,-172.238,0.28,-0.862
1762,0.0283,-0.4043,-0.9341,20.508,15.991,-7.019,-171.519,0.126,-0.835
1783,0.0107,-0.4341,-0.8052,20.508,15.991,-7.019,-170.991,0.044,-1.011
1802,-0.0059,-0.2046,-1.043,2.625,11.23,14.587,-170.848,-0.11,-1.318
1832,0.0151,-0.0972,-1.2812,15.198,11.475,8.606,-170.64,-0.461,-1.714
1842,-0.0356,-0.1455,-1.1558,16.052,2.808,6.287,-170.502,-0.456,-1.78
1852,-0.0356,-0.1455,-1.1558,15.869,-5.005,4.395,-170.305,-0.363,-1.813
1872,-0.0825,-0.2891,-0.7852,4.822,-9.888,1.526,-169.948,-0.022,-1.829
1882,-0.0679,-0.2832,-0.7896,-3.174,-4.639,-1.526,-169.882,0.06,-1.802
1892,-0.0708,-0.2593,-0.8232,-3.174,-4.639,-1.526,-169.926,0.115,-1.763
1922,-0.0249,-0.2256,-0.9321,-3.845,6.042,-7.629,-170.118,0.0,-1.599
1931,-0.0249,-0.2256,-0.9321,2.075,6.042,-8.606,-170.09,-0.082,-1.522
1951,0.02,-0.2388,-1.1904,5.493,-1.465,-8.118,-169.958,-0.154,-1.357
1962,0.0161,-0.2651,-1.1597,5.493,-1.465,-8.118,-169.882,-0.126,-1.28
1981,0.0181,-0.2939,-1.1255,3.113,-6.653,-6.897,-169.744,-0.011,-1.126
2002,0.0229,-0.3394,-1.0688,-2.502,-9.46,-3.418,-169.7,0.137,-1.044
2021,0.0127,-0.2734,-1.0903,-17.09,-15.198,3.601,-169.898,0.385,-1.044
2031,-0.0029,-0.2393,-1.0703,-15.381,-16.724,5.859,-170.024,0.555,-1.071
2042,-0.0186,-0.2266,-1.0308,-8.728,-17.395,7.08,-170.085,0.742,-1.11
2091,-0.0396,-0.2544,-0.8691,-1.709,-8.118,9.155,-169.722,1.577,-1.456
2111,-0.0225,-0.2104,-0.9653,-9.277,-6.531,4.333,-169.86,1.714,-1.538
2141,-0.0181,-0.2773,-0.957,1.038,-2.38,-0.488,-169.849,1.807,-1.538
2151,-0.0181,-0.2773,-0.957,3.235,-2.686,0.671,-169.722,1.824,-1.538
2160,-0.0088,-0.3496,-0.9033,3.235,-2.686,0.671,-169.585,1.835,-1.555
2171,0.0039,-0.3462,-0.9492,3.235,-2.686,0.671,-169.481,1.813,-1.582
2181,0.0176,-0.3228,-1.021,-1.587,3.662,2.869,-169.426,1.752,-1.615
2200,0.0117,-0.2441,-1.1548,-0.305,7.69,2.075,-169.398,1.582,-1.692
2211,0.0117,-0.2441,-1.1548,3.418,9.399,0.977,-169.365,1.472,-1.714
2221,0.0239,-0.2349,-1.2085,3.418,9.399,0.977,-169.283,1.357,-1.736
2240,-0.0273,-0.3247,-0.998,12.695,-1.953,3.296,-168.926,1.324,-1.791
2250,-0.0273,-0.3247,-0.998,8.85,-5.737,4.578,-168.728,1.401,-1.824
2261,-0.0273,-0.3247,-0.998,8.85,-5.737,4.578,-168.552,1.505,-1.868
2290,-0.0391,-0.2642,-0.8726,-6.775,9.094,5.249,-168.387,1.544,-2.06
2301,-0.0112,-0.2021,-1.0098,-7.751,13.245,3.723,-168.47,1.412,-2.12
2310,-0.0112,-0.2021,-1.0098,-7.751,13.245,3.723,-168.552,1.258,-2.17
2320,-0.0112,-0.2021,-1.0098,1.038,13.245,0.671,-168.58,1.115,-2.203
2350,-0.0234,-0.252,-1.0698,7.629,-0.366,-1.038,-168.371,0.961,-2.214
2370,-0.0498,-0.3062,-0.9082,4.822,-2.991,-1.282,-168.19,1.049,-2.175
2390,-0.0522,-0.314,-0.8662,1.16,2.441,0.977,-168.014,1.077,-2.186
2410,0.0054,-0.2842,-1.0312,1.16,2.441,0.977,-167.915,0.901,-2.236
2419,0.0054,-0.2842,-1.0312,1.16,2.441,0.977,-167.921,0.807,-2.269
2450,-0.0156,-0.2759,-1.0571,7.935,0.366,3.174,-167.761,0.676,-2.362
2459,-0.0156,-0.2759,-1.0571,7.935,0.366,3.174,-167.624,0.698,-2.395
2480,-0.0469,-0.3193,-0.8975,8.24,-1.709,4.028,-167.377,0.786,-2.472
2499,-0.0479,-0.3022,-0.8794,-1.282,4.15,4.395,-167.272,0.807,-2.571
2520,-0.0225,-0.2725,-0.9375,0.732,10.803,3.418,-167.228,0.637,-2.686
2530,-0.0005,-0.2402,-1.0444,0.732,10.803,3.418,-167.212,0.549,-2.741
2539,-0.0005,-0.2402,-1.0444,1.221,8.057,3.418,-167.212,0.467,-2.791
2560,-0.002,-0.2187,-1.1406,3.784,5.005,1.587,-167.19,0.341,-2.856
2629,-0.0244,-0.3179,-0.8989,6.592,2.075,-1.831,-166.597,0.181,-2.807
2649,-0.0195,-0.3276,-0.853,-2.93,7.813,-3.418,-166.454,0.06,-2.78
2669,-0.0195,-0.3276,-0.853,-5.798,10.742,-2.991,-166.448,-0.159,-2.763
2689,0.0391,-0.2881,-1.0166,-3.601,9.216,-1.343,-166.476,-0.385,-2.78
2699,0.043,-0.2803,-1.0513,-3.601,9.216,-1.343,-166.492,-0.472,-2.785
2718,0.0352,-0.2764,-1.0747,-3.662,5.188,-0.549,-166.542,-0.615,-2.796
2758,0.0112,-0.2715,-1.0273,-4.089,4.028,0.305,-166.652,-0.797,-2.829
2769,0.0142,-0.2749,-1.0273,-3.54,5.371,0.061,-166.668,-0.846,-2.845
2779,0.0234,-0.2822,-1.0283,-3.54,5.371,0.061,-166.69,-0.912,-2.856
2809,0.0361,-0.3062,-0.9707,-17.395,1.526,1.221,-166.954,-1.077,-2.889
2828,0.0137,-0.2822,-0.938,-22.522,-2.563,2.686,-167.36,-0.983,-2.933
2868,0.0142,-0.1938,-1.0527,-3.174,9.277,0.122,-167.904,-1.132,-3.049
2878,0.0381,-0.2114,-1.1377,0.366,7.446,-0.244,-167.915,-1.208,-3.06
2888,0.0381,-0.2114,-1.1377,1.709,3.845,0.122,-167.91,-1.247,-3.071
2899,0.0137,-0.2441,-1.0708,1.709,3.845,0.122,-167.871,-1.258,-3.082
2908,0.0078,-0.2749,-1.0073,4.089,0.916,0.671,-167.8,-1.258,-3.087
2918,0.0005,-0.2935,-0.9595,4.089,0.916,0.671,-167.712,-1.247,-3.098
2927,0.0,-0.2988,-0.9404,4.089,0.916,0.671,-167.618,-1.241,-3.115
2958,0.0327,-0.2637,-1.0366,4.089,0.916,0.671,-167.377,-1.346,-3.23
2978,0.0503,-0.2485,-1.1313,12.756,7.874,3.052,-167.151,-1.505,-3.323
2998,0.0547,-0.2515,-1.1499,14.954,4.395,2.319,-166.866,-1.626,-3.395
3017,0.0269,-0.3188,-1.0171,12.512,-0.916,2.563,-166.542,-1.631,-3.444
3028,0.0117,-0.335,-0.9395,8.911,-3.601,3.418,-166.393,-1.577,-3.472
3038,0.0117,-0.335,-0.9395,4.761,-3.601,3.906,-166.273,-1.522,-3.499
3057,0.0015,-0.3027,-0.8623,-0.488,0.916,4.7,-166.135,-1.461,-3.587
3068,0.0156,-0.2847,-0.9058,0.122,4.883,5.066,-166.097,-1.489,-3.647
3087,0.0303,-0.2637,-0.9668,2.686,8.606,4.944,-166.047,-1.631,-3.785
3108,0.0547,-0.2231,-1.1436,2.686,8.606,4.944,-166.009,-1.791,-3.884
3118,0.0518,-0.2271,-1.1548,2.686,8.606,4.944,-165.981,-1.846,-3.906
3127,0.0425,-0.2358,-1.1367,5.249,2.625,-0.305,-165.954,-1.873,-3.911
3137,0.0317,-0.2539,-1.0991,4.7,0.061,-0.977,-165.916,-1.873,-3.9
3147,0.0317,-0.2539,-1.0991,3.723,-2.014,-1.16,-165.877,-1.851,-3.884
3167,0.0166,-0.2725,-1.0117,2.502,-4.7,-0.916,-165.795,-1.752,-3.845
3176,0.0,-0.2959,-0.9165,2.747,-4.883,-0.488,-165.729,-1.692,-3.829
3187,0.0,-0.2959,-0.9165,2.441,-4.15,-0.061,-165.657,-1.631,-3.818
3207,-0.0063,-0.3086,-0.8535,2.441,-4.15,-0.061,-165.509,-1.577,-3.818
3217,0.0005,-0.3042,-0.8652,0.793,4.15,0.305,-165.454,-1.599,-3.834
3247,0.0601,-0.2637,-1.0444,0.61,8.972,-1.099,-165.394,-1.879,-3.884
3257,0.0601,-0.2637,-1.0444,0.244,7.324,-1.709,-165.41,-1.972,-3.884
3277,0.0659,-0.2441,-1.1558,0.244,7.324,-1.709,-165.46,-2.076,-3.867
3297,0.0488,-0.2725,-1.0884,1.038,-1.892,-1.587,-165.465,-2.082,-3.829
3316,0.022,-0.3076,-0.9692,-1.465,-4.822,-1.221,-165.432,-2.0,-3.779
3327,0.0161,-0.3223,-0.9111,-1.465,-4.822,-1.221,-165.421,-1.945,-3.763
3337,0.0044,-0.3242,-0.873,-5.92,-4.395,-0.061,-165.421,-1.884,-3.752
3356,0.0044,-0.3242,-0.873,-12.146,2.075,-1.282,-165.553,-1.862,-3.735
3396,0.0693,-0.187,-1.1553,-27.283,10.925,-9.644,-166.602,-2.307,-3.51
3407,0.0728,-0.1772,-1.1655,-27.161,9.216,-14.893,-166.926,-2.444,-3.389
3426,0.0728,-0.1772,-1.1655,-11.047,0.977,-12.085,-167.305,-2.565,-3.148
3447,0.043,-0.2876,-0.9507,4.517,0.244,-10.132,-167.239,-2.604,-2.944
3466,0.043,-0.2876,-0.9507,4.456,0.854,-7.08,-166.976,-2.653,-2.791
3486,0.043,-0.2876,-0.9507,1.16,4.089,-2.625,-166.805,-2.736,-2.73
3496,0.043,-0.2876,-0.9507,1.709,6.47,-1.404,-166.756,-2.812,-2.73
3506,0.084,-0.2563,-1.0356,3.418,7.263,-0.488,-166.718,-2.9,-2.747
3516,0.084,-0.2563,-1.0356,5.554,6.348,0.488,-166.674,-2.977,-2.763
3525,0.084,-0.2563,-1.0356,7.813,5.005,1.099,-166.613,-3.032,-2.785
3536,0.084,-0.2563,-1.0356,9.583,2.808,1.465,-166.536,-3.065,-2.807
3556,0.0503,-0.2705,-1.0176,9.827,-2.441,2.686,-166.328,-3.027,-2.845
3565,0.0503,-0.2705,-1.0176,9.216,-2.808,3.174,-166.201,-2.983,-2.867
3576,0.0503,-0.2705,-1.0176,7.385,-2.625,3.723,-166.08,-2.939,-2.9
3605,0.0308,-0.2959,-0.9014,-2.563,5.127,2.502,-165.932,-2.944,-3.01
3615,0.0425,-0.2607,-0.9619,-2.563,5.127,2.502,-165.965,-2.994,-3.049
3626,0.0425,-0.2607,-0.9619,-4.211,7.019,2.808,-166.014,-3.054,-3.093
3635,0.0425,-0.2607,-0.9619,-4.211,7.019,2.808,-166.069,-3.12,-3.131
3645,0.0425,-0.2607,-0.9619,1.648,4.883,2.197,-166.097,-3.175,-3.164
3675,0.0703,-0.2109,-1.1685,10.254,-12.817,2.258,-165.965,-2.961,-3.181
3685,0.0342,-0.2554,-1.084,9.949,-15.564,1.831,-165.872,-2.796,-3.159
3695,0.0229,-0.2734,-1.0327,9.949,-15.564,1.831,-165.789,-2.62,-3.131
3706,0.0098,-0.2856,-0.9741,6.47,-14.954,0.0,-165.701,-2.461,-3.093
3725,-0.0029,-0.3047,-0.8843,6.47,-14.954,0.0,-165.537,-2.208,-3.016
3735,-0.0024,-0.3198,-0.8501,6.47,-14.954,0.0,-165.438,-2.148,-2.977
3755,0.0181,-0.3193,-0.8657,1.709,3.235,-2.563,-165.267,-2.153,-2.939
3765,0.0273,-0.3101,-0.8901,-0.488,6.104,-2.869,-165.229,-2.219,-2.928
3775,0.0273,-0.3101,-0.8901,-2.625,8.545,-3.235,-165.229,-2.302,-2.917
3795,0.0273,-0.3101,-0.8901,-0.916,13.733,-4.395,-165.289,-2.604,-2.9
3805,0.1016,-0.251,-1.1675,-0.916,13.733,-4.395,-165.3,-2.741,-2.895
3824,0.0972,-0.2573,-1.1885,3.967,2.014,-1.526,-165.284,-2.867,-2.884
3835,0.082,-0.2676,-1.1509,4.7,-1.953,-1.343,-165.256,-2.867,-2.867
3845,0.082,-0.2676,-1.1509,4.822,-4.944,-0.671,-165.212,-2.829,-2.851
3885,0.022,-0.3242,-0.8853,-3.784,-4.944,0.854,-165.042,-2.543,-2.791
3934,0.062,-0.2358,-1.0332,-1.709,5.615,2.502,-165.141,-2.598,-2.911
3944,0.062,-0.2358,-1.0332,-1.709,5.615,2.502,-165.174,-2.67,-2.944
3965,0.0962,-0.2134,-1.2334,1.526,5.066,1.038,-165.234,-2.769,-2.983
3994,0.0552,-0.2817,-1.0962,3.601,-6.531,-1.892,-165.212,-2.692,-2.922
4024,0.0024,-0.3296,-0.8354,-2.075,-7.446,-1.77,-165.086,-2.411,-2.802
4034,0.0024,-0.3296,-0.8354,-3.235,-4.456,-1.526,-165.037,-2.34,-2.774
4094,0.0986,-0.1934,-1.1494,-5.493,17.7,-4.333,-165.157,-2.906,-2.834
4104,0.0986,-0.1934,-1.1494,-5.066,16.357,-5.371,-165.267,-3.098,-2.823
4123,0.0986,-0.1934,-1.1494,-2.502,6.409,-5.92,-165.46,-3.334,-2.758
4163,0.0269,-0.2813,-0.9355,-5.493,-5.859,-7.751,-165.619,-3.263,-2.461
4184,0.019,-0.2905,-0.8389,-10.01,-4.578,-7.141,-165.723,-3.159,-2.291
4213,0.0513,-0.2822,-0.8848,-10.01,-4.578,-7.141,-165.85,-3.181,-2.131
4233,0.1021,-0.2656,-1.0645,-2.258,8.301,-3.784,-165.894,-3.378,-2.087
4263,0.1313,-0.251,-1.2104,-1.465,6.775,-2.686,-165.992,-3.647,-2.054
4273,0.1313,-0.251,-1.2104,1.038,-0.366,-1.099,-165.992,-3.658,-2.043
4293,0.0723,-0.3145,-1.0376,1.282,-7.324,1.343,-165.921,-3.554,-2.032
4313,0.0723,-0.3145,-1.0376,-1.953,-7.629,3.54,-165.855,-3.367,-2.049
4323,0.0337,-0.3022,-0.8945,-1.953,-7.629,3.54,-165.833,-3.29,-2.082
4343,0.0366,-0.2822,-0.9023,-0.793,1.038,4.639,-165.811,-3.241,-2.164
4353,0.0532,-0.252,-0.9683,1.648,3.723,4.517,-165.789,-3.263,-2.219
4363,0.063,-0.2368,-1.0142,3.479,5.31,4.028,-165.762,-3.307,-2.269
4382,0.0796,-0.207,-1.1064,3.784,4.822,1.953,-165.74,-3.4,-2.346
4412,0.0752,-0.208,-1.1328,3.296,-1.343,-2.197,-165.745,-3.444,-2.329
4433,0.0513,-0.2485,-1.0327,3.052,-3.174,-3.784,-165.734,-3.373,-2.225
4452,0.0273,-0.2881,-0.9194,-0.183,-6.714,-5.31,-165.69,-3.246,-2.093
4462,0.021,-0.2979,-0.8745,-1.953,-6.042,-5.249,-165.668,-3.181,-2.027
4473,0.0181,-0.3018,-0.8418,-1.953,-6.042,-5.249,-165.652,-3.131,-1.967
4483,0.0225,-0.3081,-0.8247,-4.333,-0.854,-4.456,-165.635,-3.12,-1.923
4492,0.0361,-0.3042,-0.8437,-4.211,2.197,-4.211,-165.624,-3.142,-1.89
4502,0.0625,-0.2915,-0.895,-3.235,4.883,-3.418,-165.624,-3.203,-1.868
4512,0.0625,-0.2915,-0.895,-1.953,6.409,-2.991,-165.63,-3.29,-1.851
4532,0.0625,-0.2915,-0.895,-2.136,6.897,-3.906,-165.729,-3.494,-1.802
4542,0.1235,-0.2031,-1.2202,-2.136,6.897,-3.906,-165.784,-3.587,-1.758
4562,0.1157,-0.208,-1.2368,3.662,0.305,-5.249,-165.833,-3.68,-1.664
4572,0.0869,-0.2432,-1.1641,5.005,-3.357,-4.333,-165.811,-3.664,-1.609
4582,0.0869,-0.2432,-1.1641,4.456,-6.958,-3.174,-165.773,-3.604,-1.566
4602,0.0308,-0.2925,-0.937,2.075,-9.583,-2.197,-165.723,-3.389,-1.478
4612,0.019,-0.2964,-0.8813,-2.563,-9.949,-0.916,-165.707,-3.274,-1.445
4622,0.019,-0.2964,-0.8813,-3.906,-7.935,0.305,-165.696,-3.175,-1.428
4642,0.0151,-0.2803,-0.835,-3.174,-0.732,1.831,-165.685,-3.071,-1.445
4671,0.0776,-0.25,-0.9927,0.183,8.301,0.671,-165.646,-3.241,-1.533
4681,0.0776,-0.25,-0.9927,0.183,8.301,0.671,-165.663,-3.34,-1.549
4692,0.0776,-0.25,-0.9927,-0.183,7.08,-1.099,-165.696,-3.428,-1.555
4721,0.0889,-0.2422,-1.1372,1.038,0.305,-1.709,-165.756,-3.554,-1.522
4732,0.0771,-0.2539,-1.0986,0.671,-2.38,-0.671,-165.762,-3.538,-1.511
4751,0.0527,-0.2813,-0.9937,-1.16,-5.188,0.549,-165.762,-3.439,-1.494
4761,0.0527,-0.2813,-0.9937,-1.953,-5.371,1.099,-165.751,-3.373,-1.494
4772,0.0337,-0.2944,-0.9077,-2.258,-4.578,1.526,-165.74,-3.312,-1.494
4791,0.0337,-0.2944,-0.9077,-1.587,-0.61,2.258,-165.696,-3.246,-1.527
4831,0.0806,-0.2168,-1.0806,-0.732,7.202,-1.526,-165.751,-3.466,-1.593
4841,0.0806,-0.2168,-1.0806,-0.671,7.202,-3.296,-165.8,-3.554,-1.577
4930,0.0317,-0.2798,-0.874,-5.371,0.61,-4.395,-165.976,-3.532,-1.033
4951,0.0903,-0.2715,-1.0,-5.371,0.61,-4.395,-165.987,-3.664,-1.005
5000,0.1099,-0.249,-1.1577,1.038,0.549,0.366,-166.009,-3.911,-1.027
5010,0.1099,-0.249,-1.1577,0.244,-3.723,0.183,-166.009,-3.873,-1.022
5040,0.062,-0.2666,-1.0073,-2.93,-5.005,1.77,-166.058,-3.702,-1.016
5060,0.0444,-0.2515,-0.9473,-2.319,-4.578,2.502,-166.064,-3.593,-1.049
5080,0.042,-0.2578,-0.9272,1.648,-1.099,2.869,-166.003,-3.527,-1.104
5100,0.0464,-0.2549,-0.9336,0.0,2.869,0.549,-165.97,-3.543,-1.137
5120,0.0659,-0.2373,-1.0049,-1.404,6.042,-2.563,-166.025,-3.658,-1.126
5149,0.0903,-0.2197,-1.1118,0.244,4.944,-4.395,-166.091,-3.856,-1.038
5160,0.0864,-0.2515,-1.0762,1.709,0.671,-3.906,-166.086,-3.878,-1.0
5170,0.0742,-0.2686,-1.0371,1.709,0.671,-3.906,-166.064,-3.867,-0.967
5180,0.0674,-0.2788,-1.0005,1.77,-3.235,-2.075,-166.031,-3.84,-0.939
5189,0.0674,-0.2788,-1.0005,1.77,-3.235,-2.075,-165.987,-3.807,-0.923
5210,0.0605,-0.2725,-0.9561,1.892,-3.052,0.61,-165.905,-3.752,-0.928
5240,0.0791,-0.2407,-1.0371,3.174,1.953,1.587,-165.817,-3.801,-0.983
5269,0.0791,-0.2402,-1.0459,4.333,-2.747,-0.488,-165.74,-3.785,-0.972
5299,0.0674,-0.2515,-0.998,6.897,-8.301,0.916,-165.564,-3.593,-0.928
5319,0.0562,-0.2583,-0.9932,7.019,-7.69,0.977,-165.427,-3.45,-0.912
5329,0.0674,-0.2598,-1.0024,7.019,-7.69,0.977,-165.366,-3.433,-0.901
5339,0.0688,-0.2681,-1.0142,7.019,-7.69,0.977,-165.311,-3.422,-0.895
5349,0.0737,-0.2715,-1.0171,5.127,-1.16,0.671,-165.256,-3.417,-0.901
5359,0.0737,-0.2715,-1.0171,5.127,-1.16,0.671,-165.196,-3.411,-0.906
5379,0.0605,-0.29,-0.978,5.127,-1.16,0.671,-165.053,-3.384,-0.923
5389,0.0557,-0.2861,-0.9683,3.967,-0.916,1.16,-164.998,-3.367,-0.934
5399,0.0557,-0.2861,-0.9683,2.563,-0.122,0.854,-164.965,-3.367,-0.939
5408,0.0557,-0.2861,-0.9683,1.953,1.343,0.488,-164.938,-3.378,-0.95
5429,0.0728,-0.2554,-1.0479,1.953,1.343,0.488,-164.894,-3.433,-0.972
5459,0.082,-0.2583,-1.106,9.338,1.038,1.892,-164.724,-3.532,-1.027
5469,0.082,-0.2583,-1.106,9.583,-0.671,1.953,-164.647,-3.527,-1.044
5488,0.0654,-0.2813,-1.0449,9.277,-1.77,1.343,-164.487,-3.472,-1.055
5499,0.0498,-0.3008,-0.9888,7.263,-6.104,1.465,-164.405,-3.4,-1.049
5509,0.0498,-0.3008,-0.9888,4.7,-7.996,1.953,-164.333,-3.307,-1.049
5518,0.0498,-0.3008,-0.9888,4.7,-7.996,1.953,-164.268,-3.208,-1.049
5528,0.0498,-0.3008,-0.9888,1.831,-5.615,2.136,-164.196,-3.126,-1.055
5568,0.0806,-0.2769,-0.981,0.366,1.282,0.977,-164.059,-3.23,-1.104
5578,0.0806,-0.2769,-0.981,0.732,10.742,-1.343,-164.075,-3.356,-1.121
5618,0.1084,-0.25,-1.2349,13.611,1.587,-0.854,-163.943,-3.686,-1.154
5628,0.1084,-0.25,-1.2349,13.611,1.587,-0.854,-163.828,-3.669,-1.143
5648,0.0483,-0.3408,-0.9565,4.089,-11.78,0.488,-163.641,-3.472,-1.093
5668,0.0327,-0.3452,-0.8667,-1.343,-12.268,0.0,-163.586,-3.214,-1.027
5678,0.0327,-0.3452,-0.8667,-7.996,-9.216,0.244,-163.581,-3.098,-1.0
5707,0.0171,-0.3203,-0.7461,-6.47,5.615,1.404,-163.619,-3.038,-1.044
5737,0.1011,-0.2446,-1.0522,-4.272,10.254,0.916,-163.795,-3.422,-1.154
5747,0.1011,-0.2446,-1.0522,-0.122,10.559,-0.793,-163.861,-3.554,-1.176
5777,0.1147,-0.2485,-1.2402,3.357,-3.418,-0.305,-163.911,-3.653,-1.165
5787,0.0693,-0.3125,-1.0659,2.38,-7.507,0.671,-163.889,-3.576,-1.148
5817,0.0283,-0.3423,-0.8818,-4.028,-10.132,3.296,-163.817,-3.208,-1.132
5838,0.0142,-0.3052,-0.7954,-3.784,-6.592,4.15,-163.762,-3.054,-1.187
5857,0.0347,-0.3032,-0.8408,-3.784,-6.592,4.15,-163.691,-3.115,-1.258
5867,0.0459,-0.3071,-0.8608,-0.732,9.094,-0.366,-163.663,-3.197,-1.28
5877,0.0459,-0.3071,-0.8608,-1.831,10.132,-2.38,-163.658,-3.307,-1.285
5887,0.0459,-0.3071,-0.8608,-1.831,10.132,-2.38,-163.674,-3.406,-1.28
5907,0.0942,-0.2271,-1.1216,-1.953,9.888,-4.456,-163.768,-3.669,-1.241
5927,0.1191,-0.2134,-1.2402,8.057,14.526,-9.827,-163.795,-4.032,-1.159
5937,0.1475,-0.2236,-1.3984,8.057,14.526,-9.827,-163.751,-4.202,-1.082
5947,0.1475,-0.2236,-1.3984,14.832,6.897,-12.512,-163.663,-4.318,-0.978
5967,0.0693,-0.3516,-1.1074,12.939,-9.277,-10.498,-163.433,-4.274,-0.731
5987,0.0425,-0.3877,-0.9507,4.944,-16.235,-4.15,-163.152,-3.972,-0.533
6046,0.0972,-0.1943,-1.0234,-8.362,10.193,-7.507,-163.279,-3.906,-0.253
6057,0.0972,-0.1943,-1.0234,-1.648,16.296,-12.085,-163.378,-4.12,-0.181
6076,0.1465,-0.1934,-1.2324,6.897,9.216,-13.123,-163.422,-4.466,-0.005
6097,0.125,-0.2773,-1.1685,5.127,-5.371,-13.55,-163.356,-4.532,0.264
6116,0.0869,-0.3477,-0.9741,5.127,-5.371,-13.55,-163.257,-4.389,0.544
6137,0.0591,-0.3525,-0.8433,-3.54,-6.592,-5.554,-163.196,-4.257,0.725
6146,0.0591,-0.3525,-0.8433,-2.991,-1.831,-2.991,-163.191,-4.252,0.758
6156,0.0591,-0.3525,-0.8433,-1.465,1.587,-0.244,-163.174,-4.274,0.753
6186,0.1187,-0.269,-1.1177,-1.465,1.587,-0.244,-163.147,-4.378,0.61
6206,0.1177,-0.2529,-1.1685,7.324,2.808,4.395,-163.114,-4.444,0.505
6226,0.1177,-0.2529,-1.1685,11.902,-2.747,4.578,-162.955,-4.406,0.423
6236,0.0742,-0.3208,-1.0273,11.292,-7.141,5.859,-162.834,-4.318,0.39
6246,0.0742,-0.3208,-1.0273,8.728,-9.583,7.08,-162.724,-4.197,0.352
6266,0.0742,-0.3208,-1.0273,8.728,-9.583,7.08,-162.543,-3.928,0.242
6286,0.0415,-0.3101,-0.832,3.662,-2.93,9.766,-162.4,-3.746,0.082
6295,0.0415,-0.3101,-0.832,3.723,0.549,8.057,-162.356,-3.724,0.0
6306,0.0815,-0.2827,-0.9717,3.723,0.549,8.057,-162.334,-3.763,-0.055
6316,0.0815,-0.2827,-0.9717,3.113,7.385,2.747,-162.328,-3.84,-0.104
6345,0.0815,-0.2827,-0.9717,6.653,0.61,1.648,-162.323,-3.988,-0.187
6365,0.1089,-0.2871,-1.1665,7.568,-3.784,1.77,-162.246,-3.9,-0.192
6385,0.0723,-0.314,-1.0264,3.54,-8.911,1.404,-162.186,-3.741,-0.165
6396,0.0566,-0.3296,-0.9565,3.54,-8.911,1.404,-162.142,-3.636,-0.154
6405,0.0566,-0.3296,-0.9565,3.54,-8.911,1.404,-162.081,-3.527,-0.154
6415,0.0566,-0.3296,-0.9565,3.54,-8.911,1.404,-162.015,-3.417,-0.154
6445,0.0273,-0.335,-0.813,-3.906,-1.892,2.441,-161.938,-3.219,-0.192
6455,0.0273,-0.335,-0.813,-3.906,-1.892,2.441,-161.966,-3.208,-0.22
6465,0.0454,-0.3154,-0.874,-3.906,-1.892,2.441,-162.01,-3.219,-0.258
6485,0.0684,-0.2959,-0.9814,-7.568,3.235,4.7,-162.153,-3.263,-0.363
6495,0.0801,-0.2817,-1.0498,-7.507,3.235,3.662,-162.252,-3.29,-0.406
6505,0.0889,-0.2769,-1.1157,-5.92,3.662,1.709,-162.345,-3.329,-0.434
6514,0.0889,-0.2769,-1.1157,-5.92,3.662,1.709,-162.411,-3.378,-0.45
6525,0.0962,-0.2949,-1.1875,0.977,1.648,-0.549,-162.438,-3.406,-0.45
6535,0.0864,-0.3062,-1.1865,0.977,1.648,-0.549,-162.433,-3.406,-0.439
6554,0.0801,-0.3198,-1.1611,5.615,-3.113,-0.854,-162.345,-3.334,-0.396
6565,0.0801,-0.3198,-1.1611,7.141,-7.202,-0.122,-162.268,-3.263,-0.374
6594,0.0239,-0.3599,-0.9185,2.869,-7.629,0.671,-162.026,-2.955,-0.313
6605,0.0239,-0.3599,-0.9185,0.854,-5.249,0.732,-161.982,-2.884,-0.308
6615,0.0137,-0.3218,-0.833,0.854,-5.249,0.732,-161.949,-2.845,-0.302
6634,0.0464,-0.3086,-0.9067,0.854,-5.249,0.732,-161.911,-2.878,-0.308
6644,0.0693,-0.3027,-0.9756,1.038,5.31,-1.404,-161.906,-2.944,-0.308
6655,0.0693,-0.3027,-0.9756,0.977,5.127,-1.587,-161.922,-3.016,-0.308
6664,0.0977,-0.2837,-1.1011,1.404,3.418,-0.916,-161.944,-3.071,-0.313
6674,0.0996,-0.2773,-1.1436,1.404,3.418,-0.916,-161.96,-3.104,-0.308
6684,0.0996,-0.2813,-1.1587,1.404,3.418,-0.916,-161.955,-3.126,-0.302
6704,0.0928,-0.2939,-1.1499,7.935,-4.028,-0.61,-161.873,-3.098,-0.275
6714,0.0928,-0.2939,-1.1499,8.24,-6.042,-0.427,-161.807,-3.049,-0.247
6724,0.0591,-0.332,-1.0044,8.24,-6.042,-0.427,-161.735,-2.983,-0.225
6744,0.0396,-0.3384,-0.9126,5.676,-7.874,0.183,-161.603,-2.823,-0.181
6754,0.0352,-0.3315,-0.8882,3.113,-6.775,1.221,-161.554,-2.747,-0.176
6764,0.0352,-0.3315,-0.8882,2.441,-5.432,1.526,-161.51,-2.681,-0.17
6824,0.0728,-0.3013,-1.0156,-8.118,-1.892,-1.343,-161.719,-2.565,-0.126
6834,0.0762,-0.2998,-1.0483,-8.118,-1.892,-1.343,-161.818,-2.549,-0.104
6853,0.0796,-0.3032,-1.0654,-4.517,-8.484,-0.61,-161.971,-2.45,-0.044
6864,0.0796,-0.3032,-1.0654,-2.075,-10.925,-0.183,-162.004,-2.357,-0.011
6874,0.0796,-0.3032,-1.0654,-2.075,-10.925,-0.183,-162.01,-2.252,0.016
6884,0.0469,-0.3374,-0.9917,-2.075,-10.925,-0.183,-161.982,-2.148,0.038
6893,0.04,-0.3384,-0.9644,-2.075,-10.925,-0.183,-161.96,-2.06,0.055
6914,0.0342,-0.3423,-0.9302,-1.831,-3.845,0.854,-161.944,-1.956,0.066
6923,0.0342,-0.3423,-0.9302,-1.831,-3.845,0.854,-161.966,-1.928,0.066
6933,0.0342,-0.3423,-0.9302,-5.737,-0.61,1.282,-162.01,-1.917,0.055
6954,0.0396,-0.3101,-0.9912,-7.69,0.183,1.587,-162.153,-1.923,0.027
6963,0.0396,-0.3101,-0.9912,-7.08,-0.305,2.441,-162.235,-1.917,0.005
6974,0.0464,-0.2998,-1.0327,-5.188,-0.793,2.991,-162.301,-1.906,-0.016
6983,0.0464,-0.2998,-1.0327,-3.357,-1.526,3.174,-162.35,-1.89,-0.044
7003,0.0488,-0.3013,-1.0806,-0.549,-3.479,3.235,-162.411,-1.829,-0.088
7013,0.0381,-0.2954,-1.0771,-0.549,-5.188,3.296,-162.438,-1.774,-0.104
7023,0.0381,-0.2954,-1.0771,-0.854,-5.676,2.747,-162.471,-1.708,-0.11
7043,0.0381,-0.2954,-1.0771,1.526,-4.089,1.587,-162.471,-1.609,-0.121
7063,0.0107,-0.3213,-0.9858,2.502,-4.333,1.648,-162.411,-1.5,-0.126
7072,0.0107,-0.3213,-0.9858,2.502,-4.333,1.648,-162.367,-1.445,-0.126
7083,0.0107,-0.3213,-0.9858,3.662,-2.38,1.526,-162.307,-1.395,-0.137
7112,0.0249,-0.3359,-0.9224,0.671,3.052,1.465,-162.136,-1.423,-0.198
7123,0.0298,-0.3154,-0.9678,0.671,3.052,1.465,-162.169,-1.439,-0.214
7133,0.0298,-0.3154,-0.9678,-5.493,3.174,-0.183,-162.235,-1.483,-0.22
7152,0.0459,-0.2891,-1.0933,-3.723,1.282,-1.038,-162.378,-1.549,-0.214
7182,0.0386,-0.2881,-1.1284,1.16,-1.404,-1.343,-162.46,-1.571,-0.176
7192,0.0347,-0.2861,-1.1255,0.793,-1.77,-1.282,-162.488,-1.56,-0.159
7203,0.0347,-0.2861,-1.1255,0.793,-1.77,-1.282,-162.504,-1.549,-0.137
7222,0.0273,-0.3042,-1.0879,2.625,-3.784,-2.563,-162.477,-1.489,-0.071
7232,0.0273,-0.3042,-1.0879,0.0,-6.592,-3.54,-162.46,-1.434,-0.016
7242,-0.0034,-0.3823,-0.9199,0.0,-6.592,-3.54,-162.499,-1.296,0.06
7272,-0.0083,-0.3857,-0.7769,-41.016,-8.85,-6.47,-163.081,-0.994,0.324
7282,-0.021,-0.3452,-0.7754,-45.349,-8.85,-6.165,-163.466,-0.906,0.406
7302,-0.0088,-0.2598,-0.8604,-39.612,0.183,-5.432,-164.273,-0.846,0.533
7312,0.0103,-0.2158,-0.9497,-39.612,0.183,-5.432,-164.559,-0.906,0.555
7352,0.085,-0.1987,-1.2153,28.748,12.756,0.671,-164.312,-1.516,0.423
7371,0.085,-0.1987,-1.2153,27.954,3.54,0.671,-163.784,-1.67,0.374
7392,0.063,-0.3018,-1.1348,13.184,-5.92,0.305,-163.46,-1.615,0.39
7411,0.0098,-0.293,-0.936,13.184,-5.92,0.305,-163.361,-1.439,0.428
7432,-0.0044,-0.2969,-0.8511,2.869,-6.287,-0.427,-163.257,-1.285,0.472
7441,-0.0044,-0.2969,-0.8511,2.869,-6.287,-0.427,-163.207,-1.225,0.494
7451,-0.0078,-0.2988,-0.8125,0.244,-3.235,-0.793,-163.174,-1.181,0.511
7472,-0.0059,-0.2969,-0.8169,-3.296,1.16,-0.977,-163.169,-1.154,0.527
7491,0.0425,-0.2915,-0.9419,-4.822,5.92,-1.77,-163.24,-1.274,0.527
7502,0.0425,-0.2915,-0.9419,-5.066,7.263,-1.831,-163.295,-1.368,0.527
7511,0.0425,-0.2915,-0.9419,-5.066,7.263,-1.831,-163.361,-1.467,0.516
7521,0.0425,-0.2915,-0.9419,-3.601,8.423,-1.099,-163.422,-1.571,0.505
7551,0.0698,-0.2896,-1.0937,7.629,12.939,0.366,-163.389,-1.945,0.412
7561,0.0698,-0.2896,-1.0937,11.292,13.306,0.427,-163.279,-2.087,0.368
7571,0.0659,-0.3389,-1.0508,11.292,13.306,0.427,-163.147,-2.192,0.324
7591,0.0503,-0.3311,-1.0151,5.554,4.089,3.296,-162.971,-2.274,0.236
7601,0.0254,-0.3208,-0.9458,2.625,4.578,3.174,-162.927,-2.302,0.192
7611,0.0254,-0.3208,-0.9458,0.183,5.676,2.747,-162.905,-2.335,0.148
7651,0.0405,-0.2822,-0.9658,-3.418,11.108,1.099,-162.938,-2.626,-0.022
7671,0.0776,-0.2759,-1.0625,-3.967,12.634,0.671,-163.043,-2.878,-0.104
7681,0.0845,-0.2715,-1.104,-3.967,12.634,0.671,-163.087,-2.977,-0.126
7700,0.0811,-0.2891,-1.1191,1.465,3.418,0.427,-163.12,-3.082,-0.159
7710,0.0698,-0.2939,-1.1055,2.136,1.343,1.099,-163.12,-3.098,-0.17
7721,0.0605,-0.3037,-1.0742,2.136,1.343,1.099,-163.098,-3.093,-0.192
7740,0.0518,-0.3286,-0.9995,5.493,0.427,2.747,-162.988,-3.087,-0.242
7750,0.0425,-0.3394,-0.957,5.676,-0.549,2.991,-162.9,-3.065,-0.269
7761,0.0425,-0.3394,-0.957,5.005,-0.793,3.296,-162.817,-3.043,-0.302
7801,0.0439,-0.3477,-0.8945,1.953,2.991,4.272,-162.51,-3.005,-0.467
7820,0.0439,-0.3477,-0.8945,1.953,2.991,4.272,-162.488,-3.098,-0.571
7830,0.0835,-0.2969,-1.0366,1.953,2.991,4.272,-162.51,-3.181,-0.626
7850,0.1001,-0.2671,-1.1357,1.953,2.991,4.272,-162.565,-3.323,-0.714
7870,0.0933,-0.2725,-1.1553,6.531,0.0,2.625,-162.537,-3.362,-0.775
7890,0.0933,-0.2725,-1.1553,7.935,-6.836,2.38,-162.455,-3.257,-0.791
7900,0.0557,-0.2969,-1.0552,7.935,-6.836,2.38,-162.389,-3.164,-0.786
7910,0.0381,-0.3047,-1.0049,7.813,-10.071,2.014,-162.323,-3.054,-0.775
7919,0.0381,-0.3047,-1.0049,7.813,-10.071,2.014,-162.241,-2.944,-0.758
7930,0.0381,-0.3047,-1.0049,7.813,-10.071,2.014,-162.147,-2.845,-0.747
7949,0.0381,-0.3047,-1.0049,7.813,-10.071,2.014,-161.966,-2.681,-0.714
7959,0.0381,-0.3047,-1.0049,2.991,-3.296,0.244,-161.895,-2.631,-0.709
7971,0.0181,-0.3496,-0.8242,-0.122,-1.77,0.061,-161.845,-2.598,-0.703
7980,0.0181,-0.3496,-0.8242,-3.723,0.0,-0.122,-161.84,-2.593,-0.703
8009,0.062,-0.3159,-0.9565,-9.949,5.127,0.061,-162.037,-2.703,-0.736
8020,0.062,-0.3159,-0.9565,-9.277,7.08,-0.061,-162.147,-2.785,-0.758
8029,0.062,-0.3159,-0.9565,-6.836,9.46,-0.244,-162.257,-2.895,-0.786
8049,0.1182,-0.2227,-1.2847,-2.625,10.62,-0.488,-162.383,-3.148,-0.835
8069,0.1323,-0.2285,-1.312,-2.625,10.62,-0.488,-162.158,-3.373,-0.868
8089,0.0649,-0.4204,-1.0093,28.442,-1.77,0.183,-161.581,-3.268,-0.851
8109,-0.0083,-0.459,-0.7168,2.808,-17.822,3.113,-161.142,-2.878,-0.802
8119,-0.0244,-0.4443,-0.644,-13.0,-15.625,2.136,-161.115,-2.681,-0.769
8129,-0.0244,-0.4443,-0.644,-25.818,-9.277,0.61,-161.252,-2.549,-0.747
8159,0.0811,-0.2056,-1.0391,-25.818,-9.277,0.61,-162.136,-2.862,-0.747
8178,0.1187,-0.2114,-1.1562,1.587,16.846,-3.906,-162.328,-3.318,-0.78
8199,0.0669,-0.3047,-1.0864,4.395,7.568,-2.136,-162.334,-3.406,-0.769
8218,0.0313,-0.313,-0.9395,-6.47,-4.15,-0.671,-162.433,-3.301,-0.731
8229,0.0186,-0.2959,-0.9043,-5.493,-1.404,0.0,-162.477,-3.268,-0.725
8239,0.0186,-0.2959,-0.9043,1.16,4.272,1.404,-162.471,-3.285,-0.753
8269,0.0854,-0.2993,-0.9976,39.124,22.705,5.798,-161.73,-3.741,-1.044
8279,0.1099,-0.3398,-1.0435,44.922,25.208,6.714,-161.279,-3.977,-1.187
8288,0.1099,-0.3398,-1.0435,44.922,25.208,6.714,-160.829,-4.208,-1.329
8298,0.1099,-0.3398,-1.0435,44.922,25.208,6.714,-160.494,-4.4,-1.45
8328,0.1079,-0.3726,-1.085,44.922,25.208,6.714,-160.444,-4.526,-1.555
8338,0.1079,-0.3726,-1.085,-15.869,-5.432,-1.038,-160.615,-4.471,-1.527
8348,0.0645,-0.3394,-0.9766,-15.869,-5.432,-1.038,-160.796,-4.395,-1.483
8378,0.0327,-0.3281,-0.875,-5.188,-6.287,0.854,-161.093,-4.109,-1.395
8388,0.0327,-0.3281,-0.875,0.061,-3.479,1.038,-161.076,-4.054,-1.395
8408,0.0327,-0.3281,-0.875,2.869,3.784,-1.343,-161.032,-4.103,-1.395
8428,0.0845,-0.311,-1.0337,-0.671,-0.61,-2.869,-161.071,-4.153,-1.351
8437,0.0845,-0.311,-1.0337,0.0,-1.16,-3.357,-161.098,-4.158,-1.318
8458,0.0752,-0.3408,-0.9785,2.747,-1.282,-3.357,-161.032,-4.142,-1.247
8468,0.0752,-0.3408,-0.9785,5.615,-4.395,-2.136,-160.966,-4.103,-1.214
8488,0.0732,-0.3633,-0.9131,2.686,-2.747,-1.953,-160.845,-4.065,-1.154
8498,0.0732,-0.3633,-0.9131,0.732,-2.502,-1.587,-160.818,-4.043,-1.132
8517,0.0732,-0.3633,-0.9131,1.038,1.282,-0.061,-160.741,-4.059,-1.121
8547,0.1021,-0.333,-1.0078,2.747,8.606,2.136,-160.703,-4.224,-1.23
8557,0.1377,-0.2998,-1.1465,4.456,8.362,2.075,-160.703,-4.323,-1.274
8568,0.1377,-0.2998,-1.1465,7.629,5.859,2.258,-160.675,-4.389,-1.318
8577,0.1377,-0.2998,-1.1465,7.629,5.859,2.258,-160.62,-4.427,-1.351
8587,0.1377,-0.2998,-1.1465,14.038,1.465,2.869,-160.538,-4.444,-1.384
8607,0.1138,-0.2808,-1.1792,19.714,-1.038,2.686,-160.274,-4.433,-1.434
8617,0.0923,-0.3491,-1.0796,19.714,-1.038,2.686,-160.093,-4.389,-1.445
8627,0.0776,-0.3677,-1.0156,19.714,-1.038,2.686,-159.933,-4.307,-1.434
8667,-0.0396,-0.4009,-0.623,-11.719,-10.559,2.258,-159.807,-3.68,-1.335
8677,-0.0483,-0.4033,-0.5581,-11.719,-10.559,2.258,-159.736,-3.543,-1.346
8697,-0.0156,-0.4287,-0.5498,-1.892,7.813,5.798,-159.434,-3.477,-1.467
8707,0.0308,-0.4063,-0.6743,-3.662,15.32,5.554,-159.357,-3.587,-1.577
8717,0.0308,-0.4063,-0.6743,-7.751,25.818,3.479,-159.39,-3.845,-1.697
8736,0.2363,-0.2813,-1.2881,-7.751,25.818,3.479,-159.791,-4.592,-1.945
8747,0.2407,-0.2563,-1.4136,-7.751,25.818,3.479,-160.054,-4.922,-2.032
8766,0.2207,-0.252,-1.4639,-3.296,10.681,1.16,-160.4,-5.301,-2.148
8776,0.1748,-0.2808,-1.3848,6.836,-3.052,3.54,-160.417,-5.279,-2.17
8806,0.1025,-0.3525,-1.1304,12.878,-19.043,7.324,-160.06,-4.79,-2.203
8827,0.0044,-0.3921,-0.7778,9.888,-19.043,7.324,-159.785,-4.34,-2.219
8856,-0.021,-0.3848,-0.6382,-0.183,-7.385,5.188,-159.45,-3.801,-2.263
8867,-0.021,-0.3848,-0.6382,-0.61,-2.38,5.005,-159.346,-3.708,-2.302
8886,-0.021,-0.3848,-0.6382,-4.578,10.803,2.686,-159.296,-3.796,-2.422
8906,0.1416,-0.3013,-1.0918,-10.071,18.066,-1.831,-159.538,-4.147,-2.527
8916,0.1416,-0.3013,-1.0918,-10.01,19.531,-4.272,-159.714,-4.384,-2.554
8926,0.2065,-0.2651,-1.3086,-7.446,16.846,-5.493,-159.879,-4.603,-2.56
8936,0.2065,-0.2651,-1.3086,-1.404,9.949,-4.517,-159.977,-4.746,-2.549
8956,0.1787,-0.2939,-1.3145,8.118,-6.531,-1.77,-159.988,-4.763,-2.488
8976,0.1221,-0.356,-1.147,6.287,-15.503,-0.366,-159.873,-4.521,-2.384
8985,0.0586,-0.3838,-0.9375,6.287,-15.503,-0.366,-159.829,-4.351,-2.324
9035,0.0146,-0.3828,-0.7661,-0.183,-3.845,1.465,-159.549,-3.702,-2.17
9065,0.0186,-0.3906,-0.7222,-5.31,6.287,2.014,-159.401,-3.697,-2.263
9075,0.0786,-0.3555,-0.8872,-8.118,10.803,0.549,-159.467,-3.807,-2.307
9086,0.0786,-0.3555,-0.8872,-9.949,14.282,-0.854,-159.587,-3.966,-2.351
9105,0.0786,-0.3555,-0.8872,-7.935,15.32,-2.258,-159.906,-4.329,-2.417
9135,0.1401,-0.2861,-1.2583,8.972,1.099,-0.427,-160.071,-4.631,-2.45
9175,0.0308,-0.3809,-0.8794,10.193,-10.803,2.136,-159.587,-4.257,-2.406
9195,0.0068,-0.3979,-0.7495,6.775,-9.399,2.014,-159.351,-4.026,-2.384
9215,0.0039,-0.4038,-0.7158,-0.122,-0.244,1.77,-159.153,-3.906,-2.406
9235,0.0156,-0.4116,-0.7056,-4.639,5.859,1.892,-159.055,-3.928,-2.472
9244,0.0156,-0.4116,-0.7056,-4.639,5.859,1.892,-159.11,-4.026,-2.516
9255,0.0156,-0.4116,-0.7056,-10.559,14.282,-0.671,-159.23,-4.186,-2.56
9265,0.1641,-0.2964,-1.1631,-10.559,14.282,-0.671,-159.412,-4.373,-2.604
9284,0.1938,-0.2632,-1.3281,-3.54,10.925,-0.305,-159.714,-4.691,-2.686
9295,0.1743,-0.2715,-1.3208,3.967,4.272,1.282,-159.758,-4.752,-2.708
9305,0.1743,-0.2715,-1.3208,11.902,-2.197,2.93,-159.708,-4.741,-2.73
9324,0.0913,-0.3701,-1.0566,18.86,-10.254,4.7,-159.401,-4.559,-2.752
9335,0.062,-0.3916,-0.9478,16.296,-12.817,5.127,-159.219,-4.411,-2.758
9345,0.062,-0.3916,-0.9478,11.292,-13.489,5.066,-159.066,-4.246,-2.758
9374,0.0039,-0.3999,-0.7056,0.366,-4.7,3.479,-158.747,-3.867,-2.774
9385,0.0068,-0.3999,-0.7046,-0.854,-1.099,3.174,-158.67,-3.812,-2.802
9404,0.0068,-0.3999,-0.7046,-0.854,-1.099,3.174,-158.659,-3.851,-2.873
9414,0.0879,-0.3433,-0.9307,-0.854,-1.099,3.174,-158.763,-3.955,-2.906
9434,0.1255,-0.3174,-1.0571,-9.827,14.343,-2.808,-159.088,-4.29,-2.961
9444,0.1826,-0.2603,-1.2949,-5.92,13.855,-3.662,-159.241,-4.466,-2.977
9465,0.2017,-0.2354,-1.4399,8.301,8.545,-4.089,-159.379,-4.735,-2.966
9474,0.1963,-0.2627,-1.4175,19.165,4.761,-2.93,-159.291,-4.823,-2.955
9484,0.167,-0.3022,-1.3525,19.165,4.761,-2.93,-159.077,-4.823,-2.944
9494,0.1357,-0.3662,-1.2041,38.574,-8.606,2.197,-158.736,-4.746,-2.933
9514,0.0269,-0.4966,-0.8257,38.574,-8.606,2.197,-157.835,-4.301,-2.884
9543,-0.0859,-0.5205,-0.3892,-3.052,-19.409,4.944,-156.758,-3.362,-2.774
9564,-0.0981,-0.4751,-0.3501,-12.939,-12.634,5.005,-156.544,-2.911,-2.796
9583,-0.0313,-0.3442,-0.5786,-4.7,23.743,2.747,-156.709,-3.137,-2.988
9604,0.2158,-0.2397,-1.3037,21.79,39.368,0.488,-156.638,-3.906,-3.301
9613,0.2158,-0.2397,-1.3037,21.79,39.368,0.488,-156.385,-4.29,-3.45
9634,0.209,-0.3955,-1.3706,21.79,39.368,0.488,-155.495,-4.73,-3.68
9653,0.168,-0.4531,-1.2397,44.617,-6.897,6.958,-154.545,-4.68,-3.796
9673,0.04,-0.4902,-0.8223,30.396,-14.343,6.409,-154.012,-4.318,-3.757
9693,0.019,-0.4785,-0.7417,-7.263,-14.893,1.465,-153.924,-3.944,-3.658
9713,-0.0005,-0.4351,-0.6865,-14.343,-11.963,0.488,-154.138,-3.691,-3.571
9753,0.1157,-0.3599,-1.0347,-17.273,5.31,-6.165,-155.006,-3.812,-3.45
9763,0.1157,-0.3599,-1.0347,-17.273,5.31,-6.165,-155.209,-3.906,-3.411
9773,0.1157,-0.3599,-1.0347,-17.273,5.31,-6.165,-155.358,-3.988,-3.373
9783,0.1396,-0.3872,-1.1216,-17.273,5.31,-6.165,-155.446,-4.043,-3.323
9802,0.105,-0.4282,-1.0352,1.953,-6.714,-3.479,-155.49,-4.01,-3.203
9813,0.105,-0.4282,-1.0352,1.282,-7.629,-2.869,-155.484,-3.961,-3.148
9823,0.105,-0.4282,-1.0352,-1.404,-9.216,-2.197,-155.479,-3.889,-3.087
9842,0.0493,-0.457,-0.853,-5.859,-9.949,-0.427,-155.5,-3.686,-2.983
9853,0.0234,-0.4648,-0.7354,-6.104,-8.728,0.793,-155.484,-3.582,-2.955
9863,0.0234,-0.4648,-0.7354,-6.287,-8.728,3.174,-155.446,-3.455,-2.95
9882,0.0234,-0.4648,-0.7354,-7.202,-1.77,4.944,-155.347,-3.268,-3.005
9912,0.0674,-0.4473,-0.8008,-7.202,-1.77,4.944,-155.759,-3.433,-3.186
9922,0.0674,-0.4473,-0.8008,-7.202,-1.77,4.944,-156.127,-3.647,-3.268
9933,0.0674,-0.4473,-0.8008,-29.297,17.822,0.183,-156.539,-3.856,-3.34
9942,0.0674,-0.4473,-0.8008,-22.644,13.855,0.305,-156.764,-3.983,-3.4
9952,0.0674,-0.4473,-0.8008,-7.08,5.493,1.404,-156.83,-4.026,-3.433
9962,0.0674,-0.4473,-0.8008,-7.08,5.493,1.404,-156.753,-3.955,-3.444
9982,0.1387,-0.3057,-1.3701,-7.08,5.493,1.404,-156.231,-3.527,-3.422
9992,0.0254,-0.4116,-0.9736,36.682,-29.48,12.878,-155.863,-3.203,-3.422
10002,-0.0132,-0.4458,-0.8066,36.682,-29.48,12.878,-155.484,-2.862,-3.439
10032,-0.0483,-0.4844,-0.5508,14.465,-24.109,15.503,-154.775,-1.912,-3.516
10042,-0.0483,-0.4844,-0.5508,5.554,-22.522,16.846,-154.715,-1.631,-3.576
10051,-0.0483,-0.4844,-0.5508,5.554,-22.522,16.846,-154.726,-1.39,-3.669
10062,-0.0239,-0.4614,-0.5957,5.554,-22.522,16.846,-154.748,-1.17,-3.812
10091,0.0049,-0.4063,-0.7876,-11.169,-1.099,15.259,-155.067,-0.983,-4.191
10101,0.1011,-0.3955,-1.0488,-11.169,-1.099,15.259,-155.253,-1.148,-4.235
10112,0.1362,-0.3843,-1.1772,-11.169,-1.099,15.259,-155.446,-1.357,-4.263
10131,0.1719,-0.3589,-1.2715,-7.629,13.855,-5.554,-155.66,-1.73,-4.29
10141,0.1719,-0.3589,-1.2715,0.244,7.202,-3.113,-155.654,-1.813,-4.296
10152,0.1719,-0.3589,-1.2715,10.925,-3.052,0.793,-155.544,-1.78,-4.29
10171,0.0532,-0.4131,-1.103,10.925,-3.052,0.793,-155.116,-1.522,-4.29
10181,0.0205,-0.4365,-0.9893,26.123,-16.113,9.155,-154.852,-1.34,-4.307
10192,0.0205,-0.4365,-0.9893,23.499,-17.273,10.803,-154.616,-1.137,-4.329
10211,-0.0435,-0.4604,-0.7271,23.499,-17.273,10.803,-154.308,-0.791,-4.4
10241,-0.0542,-0.4487,-0.6675,-6.775,2.136,2.563,-154.341,-0.626,-4.499
10251,-0.0249,-0.4219,-0.7456,-6.775,2.136,2.563,-154.468,-0.681,-4.532
10261,0.0107,-0.4023,-0.8501,-6.775,2.136,2.563,-154.655,-0.775,-4.565
10291,0.1113,-0.3423,-1.2109,-16.602,11.658,-5.127,-155.253,-1.176,-4.603
10301,0.1123,-0.3457,-1.251,-8.057,5.554,-3.052,-155.33,-1.236,-4.598
10310,0.1123,-0.3457,-1.251,-8.057,5.554,-3.052,-155.297,-1.203,-4.598
10321,0.1123,-0.3457,-1.251,-8.057,5.554,-3.052,-155.149,-1.066,-4.609
10361,-0.0234,-0.4512,-0.8926,18.677,-17.822,10.315,-154.215,-0.126,-4.708
10390,-0.0391,-0.4263,-0.7637,-2.38,-7.446,4.456,-154.083,0.236,-4.741
10400,-0.0283,-0.4219,-0.7852,-7.568,-3.723,2.075,-154.16,0.28,-4.746
10411,-0.0039,-0.4189,-0.8369,-7.568,-3.723,2.075,-154.276,0.275,-4.741
10430,0.0332,-0.3936,-0.9687,-15.076,4.517,-4.7,-154.567,0.181,-4.702
10440,0.0527,-0.3882,-1.0371,-14.038,6.775,-6.836,-154.704,0.093,-4.669
10451,0.0527,-0.3882,-1.0371,-12.756,7.507,-8.301,-154.83,-0.005,-4.625
10461,0.0527,-0.3882,-1.0371,-9.766,7.385,-8.789,-154.99,-0.148,-4.581
10470,0.085,-0.3921,-1.146,-4.639,4.211,-7.08,-155.099,-0.258,-4.532
10480,0.0649,-0.3994,-1.1279,0.305,-1.465,-4.578,-155.149,-0.291,-4.488
10500,0.0503,-0.4185,-1.0908,9.705,-6.47,-0.671,-155.05,-0.236,-4.411
10510,0.0073,-0.4492,-0.9424,9.705,-6.47,-0.671,-154.946,-0.165,-4.384
10540,-0.0317,-0.4795,-0.7407,4.456,-1.221,0.671,-154.567,-0.005,-4.351
10550,-0.0317,-0.4795,-0.7407,0.183,1.221,0.427,-154.479,0.005,-4.362
10569,-0.0283,-0.4531,-0.7002,-9.949,6.531,-1.404,-154.462,-0.044,-4.389
10580,-0.0107,-0.4297,-0.7783,-14.771,9.827,-2.136,-154.572,-0.137,-4.411
10590,0.0337,-0.4023,-0.9165,-18.066,15.32,-3.967,-154.77,-0.308,-4.438
10600,0.0337,-0.4023,-0.9165,-20.386,19.226,-6.348,-155.028,-0.538,-4.466
10620,0.0337,-0.4023,-0.9165,-15.259,14.648,-5.432,-155.572,-0.972,-4.488
10630,0.1074,-0.3257,-1.3296,-15.259,14.648,-5.432,-155.753,-1.093,-4.493
10660,0.0391,-0.395,-1.1528,16.296,-9.277,1.038,-155.676,-1.027,-4.444
10670,0.0107,-0.4092,-1.04,16.296,-9.277,1.038,-155.533,-0.906,-4.406
10689,-0.0278,-0.4331,-0.8364,13.55,-12.146,1.221,-155.22,-0.626,-4.323
10699,-0.0405,-0.4434,-0.7568,10.315,-14.282,1.404,-155.061,-0.461,-4.279
10710,-0.0405,-0.4434,-0.7568,5.981,-12.756,1.465,-154.929,-0.302,-4.235
10729,-0.0547,-0.4531,-0.6558,5.981,-12.756,1.465,-154.682,-0.082,-4.208
10739,-0.0386,-0.4556,-0.6597,-2.502,1.953,0.549,-154.616,-0.071,-4.219
10750,-0.0386,-0.4556,-0.6597,-5.127,4.7,-0.244,-154.589,-0.093,-4.241
10769,0.0015,-0.4482,-0.7749,-12.207,11.108,-2.686,-154.748,-0.297,-4.285
10799,0.0942,-0.3828,-1.1123,-18.25,12.268,-3.662,-155.473,-0.818,-4.34
10809,0.0942,-0.3828,-1.1123,-18.25,12.268,-3.662,-155.693,-0.928,-4.356
10819,0.0942,-0.3828,-1.1123,-18.25,12.268,-3.662,-155.836,-0.972,-4.367
10849,0.0225,-0.3887,-1.0439,2.93,-9.949,5.432,-155.934,-0.786,-4.395
10859,0.0225,-0.3887,-1.0439,3.479,-10.681,5.981,-155.923,-0.659,-4.406
10879,-0.0244,-0.396,-0.8545,3.479,-10.681,5.981,-155.847,-0.401,-4.438
10929,-0.0132,-0.4258,-0.792,-1.709,-0.61,1.892,-155.632,-0.115,-4.532
10948,0.0029,-0.4126,-0.8521,-9.827,2.991,-0.061,-155.852,-0.22,-4.554
10969,0.0576,-0.3984,-1.0454,-13.855,9.155,-4.089,-156.204,-0.467,-4.559
10988,0.0576,-0.3984,-1.0454,-7.019,4.517,-3.418,-156.5,-0.681,-4.537
11009,0.0479,-0.4048,-1.1172,4.211,-2.869,-1.038,-156.566,-0.709,-4.493
11018,0.0479,-0.4048,-1.1172,4.211,-2.869,-1.038,-156.5,-0.67,-4.477
11028,0.0479,-0.4048,-1.1172,9.949,-6.104,1.465,-156.407,-0.61,-4.466
11058,-0.0195,-0.4331,-0.8521,7.751,-2.808,2.258,-156.05,-0.423,-4.471
11068,-0.0264,-0.4438,-0.769,7.751,-2.808,2.258,-155.929,-0.379,-4.493
11078,-0.0283,-0.439,-0.7554,7.751,-2.808,2.258,-155.83,-0.346,-4.526
11108,0.019,-0.3911,-0.9087,-3.235,6.287,0.916,-155.869,-0.483,-4.625
11118,0.042,-0.3706,-0.999,-9.827,9.766,-1.465,-156.0,-0.593,-4.647
11128,0.042,-0.3706,-0.999,-9.827,9.766,-1.465,-156.16,-0.72,-4.669
11138,0.042,-0.3706,-0.999,-9.827,9.766,-1.465,-156.313,-0.835,-4.675
11148,0.0693,-0.3418,-1.1655,-9.827,9.766,-1.465,-156.44,-0.928,-4.664
11167,0.0591,-0.3516,-1.1489,3.662,-1.282,-3.052,-156.528,-1.0,-4.609
11178,0.0234,-0.3843,-1.0376,6.897,-3.784,-2.258,-156.489,-0.972,-4.57
11188,0.0093,-0.4004,-0.9687,6.897,-3.784,-2.258,-156.418,-0.928,-4.537
11218,-0.0239,-0.4194,-0.8169,2.563,-5.249,-0.549,-156.209,-0.714,-4.438
11228,-0.0239,-0.4194,-0.8169,0.244,-3.052,-0.488,-156.171,-0.67,-4.422
11237,-0.0239,-0.4194,-0.8169,0.244,-3.052,-0.488,-156.149,-0.648,-4.411
11247,-0.001,-0.4097,-0.8447,-3.784,1.404,-1.038,-156.165,-0.659,-4.406
11277,0.0586,-0.3682,-1.0767,-6.348,3.662,-1.953,-156.489,-0.84,-4.378
11287,0.0586,-0.3682,-1.0767,-9.155,5.066,-4.883,-156.649,-0.934,-4.356
11298,0.0586,-0.3682,-1.0767,-6.592,5.432,-6.592,-156.797,-1.044,-4.318
11307,0.0586,-0.3682,-1.0767,-6.592,5.432,-6.592,-156.912,-1.154,-4.263
11317,0.0586,-0.3682,-1.0767,2.93,1.77,-7.935,-156.973,-1.236,-4.197
11327,0.0864,-0.3506,-1.2642,8.85,-4.517,-6.042,-156.962,-1.241,-4.125
11337,0.041,-0.3774,-1.1436,16.663,-11.353,-3.357,-156.846,-1.159,-4.048
11357,-0.0327,-0.4478,-0.8408,25.818,-19.836,1.282,-156.319,-0.791,-3.911
11387,-0.085,-0.4883,-0.5723,9.705,-9.583,1.16,-155.303,-0.214,-3.796
11407,-0.0913,-0.4785,-0.4248,1.892,-5.432,0.183,-154.885,0.0,-3.763
11416,-0.0913,-0.4785,-0.4248,-14.954,5.859,-3.052,-154.874,-0.011,-3.757
11427,0.0034,-0.417,-0.6895,-22.949,13.611,-5.249,-155.039,-0.154,-3.768
11437,0.0767,-0.3823,-0.9243,-28.931,20.691,-7.08,-155.352,-0.412,-3.79
11447,0.0767,-0.3823,-0.9243,-33.447,22.644,-7.874,-155.764,-0.709,-3.812
11457,0.1582,-0.3081,-1.3247,-33.447,22.644,-7.874,-156.198,-0.983,-3.823
11477,0.1582,-0.3081,-1.3247,-33.447,22.644,-7.874,-156.852,-1.379,-3.79
11496,0.0933,-0.3359,-1.3433,-33.447,22.644,-7.874,-156.951,-1.434,-3.697
11517,0.0132,-0.4087,-1.0405,19.531,-12.939,-0.244,-156.605,-1.154,-3.593
11536,-0.0449,-0.4434,-0.7881,19.531,-12.939,-0.244,-156.121,-0.736,-3.521
11546,-0.0605,-0.4478,-0.71,14.771,-14.893,5.066,-155.891,-0.533,-3.51
11557,-0.0605,-0.4478,-0.71,10.071,-11.169,4.761,-155.693,-0.363,-3.505
11576,-0.0591,-0.4458,-0.6313,-1.16,-3.906,3.662,-155.44,-0.126,-3.532
11586,-0.0464,-0.4419,-0.6475,-5.92,-0.061,2.991,-155.402,-0.082,-3.56
11597,-0.0288,-0.4268,-0.7129,-9.46,3.052,2.563,-155.429,-0.077,-3.593
11616,-0.0288,-0.4268,-0.7129,-14.771,11.169,-1.831,-155.698,-0.286,-3.658
11626,0.0903,-0.373,-1.1021,-14.771,11.169,-1.831,-155.934,-0.45,-3.675
11646,0.1113,-0.3535,-1.2036,-14.771,11.169,-1.831,-156.407,-0.742,-3.675
11656,0.0957,-0.3462,-1.2598,-7.568,2.258,-2.869,-156.566,-0.807,-3.658
11666,0.0957,-0.3462,-1.2598,0.427,-1.953,-1.892,-156.632,-0.818,-3.631
11696,0.0181,-0.4189,-1.0054,11.597,-10.01,2.38,-156.418,-0.626,-3.565
11706,0.0181,-0.4189,-1.0054,10.62,-10.986,3.54,-156.308,-0.511,-3.554
11715,0.0181,-0.4189,-1.0054,10.193,-10.315,4.211,-156.187,-0.39,-3.549
11726,-0.0146,-0.4253,-0.8613,10.193,-10.315,4.211,-156.066,-0.28,-3.56
11755,-0.0176,-0.4141,-0.8467,5.859,-0.793,4.028,-155.781,-0.088,-3.642
11775,-0.0059,-0.4102,-0.8677,1.587,2.014,2.563,-155.715,-0.088,-3.708
11795,0.02,-0.3955,-0.9336,0.427,3.174,2.747,-155.726,-0.132,-3.779
11805,0.0229,-0.397,-0.9497,0.793,2.991,3.357,-155.737,-0.154,-3.818
11816,0.0229,-0.397,-0.9497,1.282,1.953,4.211,-155.742,-0.17,-3.867
11835,0.0298,-0.4063,-0.9741,1.282,1.953,4.211,-155.704,-0.176,-3.966
11856,0.022,-0.417,-0.9761,4.089,1.099,4.028,-155.654,-0.17,-4.048
11875,0.022,-0.417,-0.9761,3.235,1.587,2.747,-155.605,-0.198,-4.12
11885,0.0244,-0.4014,-0.9966,3.235,1.587,2.747,-155.616,-0.225,-4.142
11905,0.0229,-0.3887,-1.0034,1.099,1.587,0.305,-155.665,-0.269,-4.169
11925,0.0161,-0.3789,-0.9941,3.418,1.221,-0.488,-155.649,-0.302,-4.169
11965,-0.0112,-0.4082,-0.8774,3.723,-0.854,-2.075,-155.5,-0.302,-4.12
11985,-0.0088,-0.4272,-0.8403,0.183,0.61,-3.906,-155.435,-0.313,-4.054
12014,0.002,-0.4316,-0.8403,-6.836,2.502,-4.395,-155.55,-0.434,-3.972
12084,0.0869,-0.3882,-1.1807,-1.892,5.676,-1.343,-156.171,-1.137,-3.988
12094,0.0869,-0.3882,-1.1807,8.667,-0.122,0.183,-156.132,-1.154,-3.988
12115,0.0107,-0.4292,-0.9565,14.038,-6.104,2.563,-155.885,-1.066,-3.988
12124,0.0107,-0.4292,-0.9565,11.963,-7.751,3.662,-155.726,-0.956,-3.988
12144,-0.0625,-0.4321,-0.6699,7.629,-8.362,3.845,-155.484,-0.698,-3.988
12164,-0.0459,-0.4297,-0.6367,-7.935,1.465,-0.549,-155.391,-0.599,-3.988
12174,-0.0264,-0.416,-0.7056,-14.587,4.517,-2.014,-155.479,-0.621,-3.988
12184,-0.0264,-0.416,-0.7056,-20.203,9.521,-3.601,-155.665,-0.725,-3.999
12204,-0.0264,-0.416,-0.7056,-23.987,13.794,-5.737,-156.27,-1.11,-3.994
12214,0.1221,-0.3208,-1.2622,-23.987,13.794,-5.737,-156.572,-1.335,-3.977
12233,0.1367,-0.3301,-1.3354,-4.456,7.996,-8.118,-156.934,-1.686,-3.906
12254,0.0752,-0.3975,-1.2041,-4.456,7.996,-8.118,-156.918,-1.725,-3.785
12273,0.0483,-0.4282,-1.0869,15.32,-12.695,-0.183,-156.616,-1.533,-3.669
12284,-0.0156,-0.4512,-0.8418,13.977,-13.367,1.953,-156.434,-1.379,-3.636
12294,-0.0156,-0.4512,-0.8418,11.841,-11.292,3.113,-156.237,-1.23,-3.62
12303,-0.0156,-0.4512,-0.8418,11.841,-11.292,3.113,-156.05,-1.093,-3.615
12313,-0.0513,-0.4565,-0.6353,4.761,-6.042,3.357,-155.885,-0.978,-3.62
12334,-0.0435,-0.4443,-0.6279,-5.432,1.343,1.221,-155.704,-0.862,-3.653
12353,0.0142,-0.3916,-0.792,-19.165,8.911,-1.099,-155.923,-0.967,-3.697
12363,0.0493,-0.3564,-0.9204,-19.165,8.911,-1.099,-156.193,-1.104,-3.724
12383,0.106,-0.3066,-1.1685,-25.269,13.367,-6.653,-156.857,-1.467,-3.724
12403,0.126,-0.3066,-1.2954,-15.747,7.08,-8.057,-157.412,-1.769,-3.653
12413,0.126,-0.3066,-1.2954,-15.747,7.08,-8.057,-157.593,-1.857,-3.587
12423,0.0967,-0.3667,-1.2334,-4.456,-2.93,-7.568,-157.698,-1.884,-3.505
12433,0.0693,-0.4063,-1.1338,-1.587,-8.179,-6.531,-157.742,-1.846,-3.411
12443,0.04,-0.4336,-1.0171,-1.343,-11.047,-5.127,-157.747,-1.769,-3.323
12454,0.0112,-0.459,-0.8911,-4.333,-12.451,-4.028,-157.747,-1.653,-3.241
12463,0.0112,-0.459,-0.8911,-4.333,-12.451,-4.028,-157.753,-1.533,-3.17
12473,-0.0195,-0.4634,-0.73,-4.333,-12.451,-4.028,-157.802,-1.423,-3.12
12493,-0.0122,-0.4502,-0.7119,-4.333,-12.451,-4.028,-158.104,-1.329,-3.082
12503,0.0117,-0.4146,-0.7793,-36.194,0.977,-0.061,-158.406,-1.329,-3.082
12513,0.0273,-0.3857,-0.8408,-36.194,0.977,-0.061,-158.807,-1.357,-3.093
12532,0.0488,-0.3354,-0.9575,-50.293,2.197,0.549,-159.791,-1.428,-3.12
12543,0.0576,-0.3247,-1.0024,-50.903,0.977,1.77,-160.318,-1.445,-3.137
12553,0.0576,-0.3247,-1.0024,-51.636,-0.671,2.625,-160.867,-1.45,-3.159
12562,0.0576,-0.3247,-1.0024,-51.758,-1.038,2.441,-161.428,-1.445,-3.181
12572,0.0576,-0.3247,-1.0024,-50.049,-1.099,2.075,-161.988,-1.456,-3.197
12583,0.0732,-0.2202,-1.1904,-50.049,-1.099,2.075,-162.515,-1.45,-3.208
12612,0.0508,-0.2119,-1.187,-22.461,-7.08,0.122,-163.647,-1.329,-3.186
12623,0.0508,-0.2119,-1.187,-15.503,-9.338,-0.122,-163.85,-1.247,-3.159
12652,-0.0181,-0.2749,-0.9404,-7.019,-12.207,-1.221,-164.152,-0.868,-3.054
12663,-0.0181,-0.2749,-0.9404,-8.972,-10.681,-2.441,-164.213,-0.747,-2.999
12712,-0.0293,-0.2236,-0.8564,3.174,11.23,-0.916,-164.608,-0.736,-2.862
12722,-0.0176,-0.123,-0.9287,28.442,19.043,2.014,-164.405,-0.89,-2.933
12732,-0.0176,-0.123,-0.9287,28.442,19.043,2.014,-163.839,-1.143,-3.049
12752,0.0679,-0.2764,-1.0659,28.442,19.043,2.014,-161.949,-1.714,-3.329
12762,0.124,-0.4702,-1.1348,88.196,19.714,4.456,-161.032,-1.923,-3.428
12772,0.124,-0.4702,-1.1348,57.373,8.606,1.282,-160.417,-2.038,-3.472
12792,0.0908,-0.4375,-1.1162,-12.329,-7.996,-3.113,-160.313,-2.0,-3.389
12831,0.0508,-0.3745,-1.0254,-37.17,-16.602,-4.333,-161.73,-1.483,-2.988
12861,-0.0073,-0.3174,-0.8267,-21.606,-6.775,0.549,-162.471,-1.148,-2.873
12871,-0.0073,-0.3174,-0.8267,-17.822,-3.601,2.075,-162.603,-1.104,-2.884
12882,0.0176,-0.3252,-0.8735,-17.822,-3.601,2.075,-162.751,-1.077,-2.911
12911,0.0381,-0.2783,-1.0112,-25.879,1.465,6.165,-163.471,-1.077,-3.082
12922,0.043,-0.251,-1.061,-25.757,1.465,6.165,-163.757,-1.082,-3.142
12941,0.0508,-0.248,-1.0913,-21.606,1.404,4.333,-164.284,-1.115,-3.241
12951,0.0508,-0.248,-1.0913,-20.02,0.0,3.052,-164.542,-1.126,-3.274
12981,0.04,-0.2065,-1.1812,-11.169,-7.385,1.16,-165.136,-1.027,-3.285
12991,0.04,-0.2065,-1.1812,-8.179,-10.559,0.854,-165.245,-0.928,-3.263
13000,0.04,-0.2065,-1.1812,-8.179,-10.559,0.854,-165.306,-0.786,-3.241
13011,-0.0239,-0.2896,-0.9307,-4.822,-14.648,1.892,-165.328,-0.621,-3.219
13021,-0.0361,-0.3105,-0.8437,-4.578,-13.184,2.93,-165.317,-0.456,-3.214
13031,-0.0361,-0.3105,-0.8437,-5.371,-9.949,3.174,-165.289,-0.319,-3.219
13051,-0.0278,-0.3057,-0.7964,-9.766,2.197,3.052,-165.311,-0.22,-3.274
13080,0.0698,-0.1646,-1.1777,-7.69,15.442,1.221,-165.712,-0.621,-3.433
13091,0.0864,-0.1436,-1.2793,-2.014,13.55,-0.061,-165.811,-0.786,-3.466
13101,0.0864,-0.1436,-1.2793,4.272,8.85,-0.671,-165.844,-0.901,-3.483
13130,0.0264,-0.2422,-1.1655,10.681,-7.08,-0.977,-165.674,-0.857,-3.439
13141,0.0264,-0.2422,-1.1655,8.789,-8.24,-1.404,-165.591,-0.786,-3.4
13160,-0.0137,-0.3042,-0.9189,8.789,-8.24,-1.404,-165.427,-0.582,-3.334
13170,-0.0225,-0.3076,-0.855,3.113,-9.46,0.305,-165.344,-0.472,-3.312
13181,-0.0225,-0.3076,-0.855,1.953,-7.263,1.099,-165.256,-0.374,-3.307
13190,-0.0225,-0.3076,-0.855,1.953,-7.263,1.099,-165.174,-0.297,-3.312
13200,-0.0337,-0.3105,-0.7729,-2.197,-2.502,3.418,-165.125,-0.236,-3.34
13230,0.0215,-0.2417,-0.9478,-5.737,5.005,3.723,-165.207,-0.335,-3.483
13240,0.0396,-0.2153,-1.0498,-4.517,10.498,2.258,-165.284,-0.445,-3.532
13250,0.0396,-0.2153,-1.0498,-2.502,10.559,1.343,-165.361,-0.566,-3.571
13339,-0.0342,-0.3652,-0.8086,-6.348,-7.08,-1.526,-165.064,-0.423,-3.389
13350,-0.0557,-0.4126,-0.6123,-12.756,-4.822,-0.183,-164.998,-0.33,-3.378
13379,0.0112,-0.3008,-0.7139,-27.405,5.615,2.136,-165.372,-0.401,-3.488
13390,0.0352,-0.2466,-0.8228,-29.419,15.991,6.165,-165.641,-0.56,-3.587
13400,0.0542,-0.1782,-0.9795,-25.696,16.052,8.484,-165.932,-0.714,-3.708
13409,0.0542,-0.1782,-0.9795,-25.696,16.052,8.484,-166.201,-0.923,-3.851
13419,0.0542,-0.1782,-0.9795,-25.696,16.052,8.484,-166.421,-1.165,-3.983
13429,0.1338,-0.0581,-1.4687,-25.696,16.052,8.484,-166.613,-1.362,-4.076
13459,0.0684,-0.1255,-1.4077,-5.432,-5.066,-1.587,-167.08,-1.516,-4.103
13469,0.0684,-0.1255,-1.4077,-6.653,-12.512,-2.563,-167.195,-1.401,-4.048
13509,-0.0459,-0.2656,-0.8701,-11.475,-15.442,-0.488,-167.525,-0.571,-3.823
13529,-0.0376,-0.2612,-0.8105,-6.958,-4.761,-0.366,-167.569,-0.363,-3.785
13539,-0.0205,-0.2432,-0.8604,-6.287,-0.732,-0.427,-167.596,-0.341,-3.779
13548,-0.0205,-0.2432,-0.8604,-6.409,3.235,-1.099,-167.651,-0.368,-3.774
13559,-0.0205,-0.2432,-0.8604,-6.409,3.235,-1.099,-167.712,-0.445,-3.768
13579,0.0464,-0.1914,-1.1216,-4.883,6.165,-1.953,-167.833,-0.588,-3.757
13598,0.062,-0.1733,-1.2163,-0.366,0.916,-2.38,-167.932,-0.676,-3.719
13609,0.0703,-0.1665,-1.2524,0.854,-1.526,-2.747,-167.964,-0.692,-3.691
13619,0.0703,-0.1665,-1.2524,3.662,-5.432,-2.625,-167.975,-0.681,-3.653
13638,0.042,-0.1807,-1.2256,11.963,-23.499,1.465,-167.86,-0.368,-3.582
13649,0.021,-0.2168,-1.1567,15.747,-29.358,3.479,-167.723,-0.082,-3.554
13659,0.021,-0.2168,-1.1567,16.418,-32.288,5.127,-167.542,0.236,-3.532
13678,-0.0605,-0.2954,-0.8384,16.418,-32.288,5.127,-167.239,0.923,-3.477
13699,-0.082,-0.2896,-0.7153,-0.061,-18.066,2.258,-167.042,1.434,-3.433
13708,-0.0742,-0.2773,-0.7168,1.16,-8.789,0.793,-166.948,1.56,-3.422
13728,-0.041,-0.2603,-0.7813,5.188,7.08,-1.465,-166.778,1.478,-3.422
13748,0.0361,-0.1494,-1.1406,5.188,7.08,-1.465,-166.778,1.274,-3.433
13758,0.0332,-0.1182,-1.2324,3.723,3.418,-1.404,-166.816,1.214,-3.428
13808,-0.0132,-0.1978,-1.1514,-4.761,-6.897,-9.399,-166.904,1.296,-3.027
13818,-0.0132,-0.1978,-1.1514,-7.507,-4.028,-10.742,-166.959,1.329,-2.917
13858,-0.02,-0.2275,-0.9448,-7.935,1.648,-8.911,-167.234,1.208,-2.505
13868,-0.0156,-0.2319,-0.9585,-5.859,2.197,-6.897,-167.283,1.17,-2.444
13878,-0.0156,-0.2319,-0.9585,-3.479,1.77,-4.211,-167.3,1.143,-2.406
13887,-0.0156,-0.2319,-0.9585,-3.479,1.77,-4.211,-167.3,1.126,-2.395
13897,-0.0288,-0.25,-0.9478,-1.16,3.052,-0.732,-167.289,1.099,-2.395
13908,-0.0317,-0.2598,-0.9268,-1.892,5.981,-1.282,-167.278,1.044,-2.395
13918,-0.0317,-0.2598,-0.9268,-4.272,9.338,-1.831,-167.289,0.956,-2.395
13948,-0.002,-0.2598,-0.9312,-4.272,9.338,-1.831,-167.476,0.637,-2.439
13967,0.0127,-0.1362,-1.125,-4.272,9.338,-1.831,-167.756,0.56,-2.51
14017,-0.0166,-0.2168,-1.0542,2.014,-4.211,-2.747,-168.113,0.505,-2.488
14047,-0.0171,-0.269,-0.917,-1.892,-2.197,-1.16,-168.025,0.615,-2.411
14077,-0.0142,-0.2461,-0.9453,-4.211,4.456,0.549,-168.063,0.571,-2.428
14097,-0.0049,-0.2095,-1.0151,-4.211,4.456,0.549,-168.135,0.456,-2.466
14117,0.0171,-0.1724,-1.1069,1.099,8.728,-0.244,-168.19,0.269,-2.499
14127,0.0181,-0.1646,-1.1416,3.784,7.507,-0.793,-168.19,0.187,-2.505
14137,0.0181,-0.1646,-1.1416,5.31,5.859,-1.831,-168.173,0.115,-2.499
14157,0.0112,-0.1875,-1.1313,5.31,5.859,-1.831,-168.146,0.022,-2.439
14176,0.0112,-0.1875,-1.1313,0.916,-0.488,-5.737,-168.157,-0.005,-2.329
14196,0.0112,-0.1875,-1.1313,0.61,-2.075,-5.493,-168.162,-0.005,-2.208
14226,0.0,-0.2051,-1.0146,2.319,-3.113,-3.967,-168.135,0.071,-2.065
14236,0.0,-0.2051,-1.0146,3.967,-2.38,-3.967,-168.091,0.088,-2.021
14266,-0.0161,-0.2456,-0.9033,4.517,1.282,-4.028,-167.844,0.104,-1.901
14276,-0.0303,-0.2671,-0.8184,1.282,2.563,-3.601,-167.772,0.093,-1.868
14287,-0.0303,-0.2671,-0.8184,-2.625,4.944,-3.235,-167.734,0.06,-1.851
14306,-0.0034,-0.2461,-0.8311,-7.202,10.864,-2.686,-167.756,-0.121,-1.835
14336,0.019,-0.2036,-0.9395,-9.705,11.414,0.61,-168.025,-0.478,-1.923
14346,0.019,-0.2036,-0.9395,-9.705,11.414,0.61,-168.151,-0.577,-1.983
14356,0.019,-0.2036,-0.9395,-16.296,5.493,6.226,-168.305,-0.632,-2.054
14376,0.0352,-0.1992,-1.019,-25.085,-5.493,11.78,-168.755,-0.566,-2.247
14386,0.0313,-0.1719,-1.0366,-27.466,-8.423,13.428,-169.041,-0.467,-2.362
14416,0.0156,-0.0859,-1.0952,-26.489,-9.399,13.611,-169.931,-0.137,-2.697
14436,-0.002,-0.043,-1.0972,-4.272,-10.437,8.667,-170.255,0.082,-2.856
14446,0.0005,-0.0659,-1.0937,8.179,-11.536,7.019,-170.239,0.209,-2.906
14456,0.0005,-0.0659,-1.0937,18.86,-13.123,5.92,-170.09,0.335,-2.939
14466,0.0142,-0.1646,-1.0894,18.86,-13.123,5.92,-169.876,0.494,-2.961
14485,0.0078,-0.2114,-1.082,21.545,-23.987,3.662,-169.497,1.022,-2.911
14495,0.0078,-0.2114,-1.082,6.531,-30.579,-2.136,-169.42,1.307,-2.834
14506,0.0078,-0.2114,-1.082,-3.906,-25.818,-5.737,-169.453,1.538,-2.73
14525,-0.0269,-0.1724,-1.1304,-3.906,-25.818,-5.737,-169.75,1.824,-2.461
14546,-0.0337,-0.1533,-1.1079,-9.216,-2.197,-18.921,-170.002,1.824,-2.109
14565,-0.0405,-0.1704,-1.0493,-2.93,-0.183,-20.02,-170.112,1.78,-1.703
14575,-0.0371,-0.189,-1.0122,-2.93,-0.183,-20.02,-170.079,1.741,-1.533
14605,-0.0283,-0.2344,-0.9375,-2.93,-0.183,-20.02,-169.876,1.62,-1.093
14615,-0.0283,-0.2344,-0.9375,-1.343,0.61,-12.268,-169.838,1.593,-0.972
14645,0.001,-0.2344,-0.938,-6.958,10.376,-5.798,-169.909,1.296,-0.786
14655,0.0132,-0.1948,-1.0176,-11.353,9.094,-5.981,-170.013,1.181,-0.742
14704,0.0396,-0.1279,-1.2339,-4.395,12.878,-12.939,-170.513,0.461,-0.385
14715,0.0386,-0.1562,-1.2212,0.732,10.376,-13.672,-170.524,0.313,-0.264
14725,0.0283,-0.1777,-1.1729,0.732,10.376,-13.672,-170.48,0.209,-0.143
14744,0.0039,-0.2231,-1.0298,13.428,5.615,-10.071,-170.222,0.055,0.044
14755,0.0039,-0.2231,-1.0298,13.428,5.615,-10.071,-170.024,-0.033,0.126
14765,0.0039,-0.2231,-1.0298,15.564,9.399,-8.911,-169.827,-0.137,0.198
14775,-0.0127,-0.2515,-0.8794,15.564,9.399,-8.911,-169.629,-0.253,0.258
14784,-0.0107,-0.2412,-0.8525,15.564,9.399,-8.911,-169.448,-0.39,0.302
14814,-0.0068,-0.2261,-0.8447,4.639,20.203,-5.615,-169.096,-0.945,0.379
14824,-0.0068,-0.2261,-0.8447,4.639,20.203,-5.615,-169.069,-1.143,0.374
14834,0.0308,-0.1875,-1.0181,4.639,20.203,-5.615,-169.091,-1.351,0.357
14854,0.0527,-0.1138,-1.2354,-10.62,22.461,-2.197,-169.349,-1.791,0.313
14874,0.0679,-0.0967,-1.313,-10.925,22.888,-6.165,-169.711,-2.296,0.324
14894,0.0679,-0.0967,-1.313,-5.554,11.353,-9.888,-169.997,-2.626,0.456
14914,0.0347,-0.1021,-1.2061,4.517,-1.892,-6.226,-170.079,-2.664,0.599
14934,-0.0005,-0.1519,-1.0044,4.517,-1.892,-6.226,-169.871,-2.461,0.676
14974,-0.0322,-0.2065,-0.8062,12.146,-9.155,0.732,-169.019,-1.818,0.747
14984,-0.0254,-0.2734,-0.6528,12.146,-9.155,0.732,-168.838,-1.697,0.764
15003,-0.0234,-0.2886,-0.6396,-6.775,-4.822,-2.93,-168.64,-1.533,0.824
15014,0.0039,-0.293,-0.6821,-13.245,-2.38,-4.395,-168.657,-1.505,0.873
15024,0.0039,-0.293,-0.6821,-18.005,1.099,-4.7,-168.755,-1.533,0.917
15033,0.0039,-0.293,-0.6821,-18.005,1.099,-4.7,-168.926,-1.631,0.95
15043,0.0039,-0.293,-0.6821,-21.545,14.954,-5.31,-169.14,-1.824,0.972
15073,0.1792,-0.1514,-1.3618,-12.939,33.691,-5.615,-169.651,-2.878,0.972
15083,0.1792,-0.1577,-1.3989,-0.366,18.555,-4.395,-169.695,-3.109,0.983
15093,0.1572,-0.1748,-1.3838,-0.366,18.555,-4.395,-169.623,-3.214,0.983
15113,0.1094,-0.2075,-1.2695,10.742,-3.479,4.456,-169.426,-3.208,0.928
15133,0.0889,-0.2124,-1.189,7.385,-5.249,7.813,-169.261,-3.109,0.802
15143,0.0889,-0.2124,-1.189,7.385,-5.249,7.813,-169.173,-3.016,0.731
15153,0.0889,-0.2124,-1.189,7.385,-5.249,7.813,-169.08,-2.906,0.654
15183,0.0083,-0.1709,-0.9019,3.601,-4.028,9.277,-168.953,-2.681,0.412
15193,0.0083,-0.1709,-0.9019,5.188,3.052,6.165,-168.898,-2.67,0.346
15203,0.0083,-0.1748,-0.8408,5.188,3.052,6.165,-168.794,-2.692,0.297
15223,0.019,-0.1953,-0.8291,12.451,5.371,2.686,-168.536,-2.747,0.231
15243,0.02,-0.1885,-0.8276,-7.446,5.249,-2.808,-168.569,-2.823,0.247
15262,0.02,-0.1885,-0.8276,-15.198,9.827,-6.958,-168.86,-3.021,0.33
15292,0.0981,-0.1567,-1.0972,-16.663,16.602,-13.0,-169.415,-3.56,0.56
15302,0.0981,-0.1567,-1.0972,-16.663,16.602,-13.0,-169.623,-3.801,0.665
15332,0.1577,-0.1548,-1.3159,-1.221,2.441,-7.446,-169.942,-4.241,0.928
15342,0.1577,-0.1548,-1.3159,5.798,-3.174,-3.479,-169.871,-4.224,0.967
15372,0.0439,-0.3081,-0.9033,1.282,-12.207,8.545,-169.464,-3.851,0.884
15382,0.0439,-0.3081,-0.9033,-2.197,-11.78,11.658,-169.332,-3.675,0.791
15392,0.0439,-0.3081,-0.9033,-6.47,-8.301,13.367,-169.277,-3.516,0.676
15412,0.0015,-0.2422,-0.7397,-17.761,13.062,9.827,-169.464,-3.56,0.428
15452,0.1289,0.0288,-1.3491,-21.973,27.466,-1.099,178.319,-4.537,0.269
15462,0.1255,0.0039,-1.3599,-21.973,27.466,-1.099,178.281,-4.73,0.346
15471,0.1118,-0.0469,-1.3018,-21.973,27.466,-1.099,-177.935,-4.796,0.417
15482,0.0913,-0.1201,-1.1978,-21.973,27.466,-1.099,-177.808,-4.752,0.494
15502,0.0781,-0.187,-1.0796,7.202,-13.184,-6.653,-177.468,-4.51,0.637
15522,0.0366,-0.2759,-0.8389,7.202,-13.184,-6.653,-177.133,-4.252,0.769
15542,0.0435,-0.2637,-0.835,-9.399,0.549,-2.014,-176.995,-4.197,0.835
15561,0.0928,-0.1494,-1.0,-14.16,7.935,0.366,-177.127,-4.345,0.829
15572,0.1099,-0.1147,-1.0781,-14.16,7.935,0.366,-177.182,-4.444,0.807
15591,0.123,-0.0918,-1.1519,3.052,5.371,1.77,-177.138,-4.603,0.764
15601,0.123,-0.0918,-1.1519,3.052,5.371,1.77,-177.061,-4.636,0.747
15612,0.123,-0.0918,-1.1519,5.127,-3.845,1.404,-176.984,-4.609,0.736
15631,0.1025,-0.1572,-1.1167,4.639,-8.362,0.183,-176.808,-4.466,0.731
15652,0.0659,-0.1948,-1.0156,4.761,-9.949,0.0,-176.572,-4.263,0.742
15661,0.0659,-0.1948,-1.0156,4.761,-9.949,0.0,-176.462,-4.158,0.747
15671,0.0537,-0.2031,-0.9463,0.183,-8.301,0.122,-176.375,-4.065,0.753
15701,0.0552,-0.1997,-0.9248,0.244,0.671,-1.221,-176.144,-3.983,0.78
15711,0.0552,-0.1997,-0.9248,0.244,0.671,-1.221,-176.045,-3.999,0.786
15721,0.0674,-0.2129,-0.9287,0.244,0.671,-1.221,-175.941,-4.021,0.78
15761,0.1206,-0.1172,-1.1382,2.441,9.827,1.038,-175.781,-4.373,0.692
15781,0.1206,-0.1172,-1.1382,2.441,9.827,1.038,-175.627,-4.504,0.676
15821,0.0889,-0.1533,-1.1191,10.62,-9.827,-1.831,-175.161,-4.279,0.764
15831,0.0771,-0.1616,-1.0718,10.62,-9.827,-1.831,-175.018,-4.158,0.786
15850,0.0615,-0.1685,-1.0244,13.306,-11.841,-0.732,-174.677,-3.9,0.829
15860,0.0386,-0.1973,-0.9165,14.771,-9.766,-0.488,-174.463,-3.785,0.84
15871,0.0386,-0.1973,-0.9165,15.808,-7.141,0.061,-174.221,-3.702,0.846
15890,0.0342,-0.2471,-0.8096,12.39,-5.92,2.563,-173.743,-3.554,0.818
15911,0.0313,-0.2554,-0.7803,5.737,-1.648,2.686,-173.348,-3.461,0.769
15960,0.105,-0.2466,-0.9297,5.737,-1.648,2.686,-172.963,-3.867,0.571
15970,0.1514,-0.1914,-1.1372,5.737,-1.648,2.686,-173.035,-4.01,0.511
15980,0.1514,-0.1914,-1.1372,5.737,-1.648,2.686,-173.128,-4.131,0.45
16000,0.1758,-0.1475,-1.3062,-10.62,4.7,5.005,-173.342,-4.307,0.33
16020,0.1631,-0.1245,-1.3555,-13.428,-5.371,4.639,-173.617,-4.285,0.247
16040,0.1631,-0.1245,-1.3555,-11.78,-10.132,4.517,-173.809,-4.054,0.181
16060,0.0396,-0.1592,-1.0068,1.587,-11.841,5.066,-173.754,-3.779,0.104
16080,0.0107,-0.1689,-0.8984,-2.136,-14.771,3.784,-173.694,-3.389,0.06
16090,-0.0059,-0.1709,-0.8569,-2.136,-14.771,3.784,-173.622,-3.235,0.033
16109,-0.021,-0.1753,-0.8198,0.854,-0.732,1.404,-173.48,-3.076,0.0
16120,-0.0156,-0.1826,-0.7852,1.892,0.732,0.61,-173.392,-3.038,0.0
16130,0.001,-0.1953,-0.7954,1.892,0.732,0.61,-173.309,-3.054,0.0
16149,0.0488,-0.2036,-0.8745,1.892,0.732,0.61,-173.194,-3.186,0.022
16170,0.0996,-0.1646,-1.0479,-9.766,11.597,-4.395,-173.293,-3.444,0.071
16179,0.0996,-0.1646,-1.0479,-9.827,13.733,-5.249,-173.386,-3.62,0.11
16189,0.1514,-0.1367,-1.2344,-5.554,14.832,-5.798,-173.447,-3.801,0.148
16219,0.1538,-0.145,-1.3105,6.47,1.404,-1.953,-173.375,-4.098,0.236
16229,0.1182,-0.1738,-1.2402,8.606,-3.418,-0.244,-173.276,-4.076,0.242
16239,0.1182,-0.1738,-1.2402,8.606,-3.418,-0.244,-173.145,-4.016,0.236
16279,0.0376,-0.2275,-0.938,12.085,-8.728,6.897,-172.414,-3.582,0.066
16299,0.001,-0.2295,-0.791,8.911,-4.333,6.775,-172.046,-3.384,-0.055
16309,-0.0078,-0.2217,-0.772,6.104,-1.465,4.639,-171.903,-3.323,-0.099
16319,-0.0078,-0.2217,-0.772,1.892,1.709,1.77,-171.81,-3.301,-0.121
16328,-0.0078,-0.2217,-0.772,1.892,1.709,1.77,-171.766,-3.334,-0.121
16339,0.0454,-0.1777,-0.9033,1.892,1.709,1.77,-171.799,-3.422,-0.104
16349,0.0825,-0.1333,-1.021,1.892,1.709,1.77,-171.909,-3.56,-0.066
16368,0.1196,-0.0923,-1.1553,-11.475,13.794,-8.606,-172.227,-3.906,0.093
16389,0.1641,-0.0527,-1.355,2.686,10.559,-16.174,-172.37,-4.235,0.368
16408,0.1543,-0.1128,-1.3335,2.686,10.559,-16.174,-172.145,-4.406,0.703
16429,0.0952,-0.27,-1.0449,17.151,-7.507,-14.709,-171.705,-4.378,1.033
16439,0.0713,-0.3057,-0.9395,14.404,-10.315,-11.78,-171.475,-4.29,1.165
16448,0.0713,-0.3057,-0.9395,14.404,-10.315,-11.78,-171.238,-4.202,1.258
16469,0.0234,-0.3379,-0.6987,2.93,-7.874,0.427,-170.815,-4.021,1.313
16478,0.0234,-0.3379,-0.6987,2.93,-7.874,0.427,-170.645,-3.972,1.28
16488,0.0234,-0.3379,-0.6987,-1.343,0.916,6.836,-170.486,-3.939,1.208
16498,0.0259,-0.2671,-0.7109,-1.343,0.916,6.836,-170.42,-3.983,1.11
16508,0.0713,-0.187,-0.8716,-1.343,0.916,6.836,-170.464,-4.125,1.0
16518,0.1167,-0.0835,-1.0967,-9.338,24.048,7.385,-170.601,-4.367,0.884
16558,0.2026,0.1387,-1.5781,10.437,33.997,-5.615,178.061,-5.614,0.983
16568,0.1973,0.0654,-1.6494,10.437,33.997,-5.615,178.467,-5.724,1.099
16577,0.1387,-0.0327,-1.4751,10.437,33.997,-5.615,-178.726,-5.702,1.214
16608,0.0156,-0.333,-0.7803,10.437,33.997,-5.615,-176.973,-5.246,1.588
16627,-0.0396,-0.4253,-0.4458,35.706,-23.987,-13.062,-176.479,-4.801,1.884
16648,-0.0562,-0.4424,-0.356,-15.991,-11.902,-15.869,-176.688,-4.499,2.214
16667,-0.0083,-0.4658,-0.3398,-23.437,0.244,-10.193,-177.155,-4.455,2.461
16678,0.0371,-0.415,-0.4814,-21.484,9.094,-5.737,-177.374,-4.548,2.51
16688,0.1152,-0.3442,-0.7129,-19.409,20.386,-2.563,-177.567,-4.757,2.527
16697,0.1152,-0.3442,-0.7129,-18.127,31.494,-1.526,-177.748,-5.07,2.532
16707,0.1152,-0.3442,-0.7129,-18.127,31.494,-1.526,-177.913,-5.455,2.532
16718,0.1152,-0.3442,-0.7129,-18.127,31.494,-1.526,-178.022,-5.85,2.516
16737,0.3433,-0.1313,-1.6113,-0.061,16.602,6.653,-178.055,-6.334,2.401
16757,0.2007,-0.1709,-1.4556,7.568,-7.568,9.216,-177.924,-6.284,2.225
16777,0.2007,-0.1709,-1.4556,7.568,-7.568,9.216,-177.781,-5.845,2.027
16797,0.0488,-0.2554,-0.8926,-10.742,-35.217,8.728,-177.891,-5.186,1.851
16817,-0.0493,-0.2832,-0.6084,-20.874,-29.053,3.113,-178.259,-4.581,1.785
16837,-0.0449,-0.2012,-0.6475,-28.748,-1.831,-5.249,-178.83,-4.389,1.846
16847,0.0234,-0.1621,-0.7969,-20.813,18.066,-10.803,-179.044,-4.57,1.956
16867,0.1846,-0.1411,-1.1836,-20.813,18.066,-10.803,-179.154,-5.323,2.258
16887,0.2563,-0.1494,-1.3501,-20.813,18.066,-10.803,-179.105,-6.037,2.604
16907,0.2563,-0.1494,-1.3501,-7.996,-2.808,-10.498,-179.236,-6.125,2.845
16916,0.2563,-0.1494,-1.3501,-6.897,-10.193,-8.606,-179.313,-6.026,2.933
16926,0.2563,-0.1494,-1.3501,-6.897,-10.193,-8.606,-179.368,-5.883,3.01
16947,0.0576,-0.2915,-0.8672,-2.38,-15.93,-1.831,-179.429,-5.554,3.082
16956,0.0576,-0.2915,-0.8672,-2.38,-15.93,-1.831,-179.462,-5.438,3.082
16966,0.0347,-0.2896,-0.7271,-3.296,-4.761,0.854,-179.489,-5.389,3.071
16987,0.041,-0.2764,-0.7095,-4.822,3.174,1.648,-179.572,-5.422,3.038
16996,0.0625,-0.25,-0.7593,-4.822,3.174,1.648,-179.648,-5.482,3.027
17017,0.0947,-0.2065,-0.8711,-12.024,8.484,-0.244,-179.934,-5.68,3.054
17036,0.2251,-0.0684,-1.3389,-14.893,12.451,-5.981,179.731,-5.944,3.159
17066,0.208,-0.0693,-1.4263,1.892,-7.568,-3.723,179.583,-5.905,3.301
17076,0.208,-0.0693,-1.4263,1.892,-7.568,-3.723,179.637,-5.779,3.318
17096,0.0776,-0.2676,-0.9404,2.686,-20.935,-0.549,179.725,-5.389,3.334
17106,0.0776,-0.2676,-0.9404,2.686,-20.935,-0.549,179.687,-5.164,3.329
17116,0.0776,-0.2676,-0.9404,-9.033,-19.775,0.366,179.599,-4.966,3.323
17186,0.0889,-0.1846,-0.8213,-20.935,14.343,-11.414,178.583,-5.12,3.642
17236,0.125,-0.1021,-1.228,-23.193,-12.878,-20.264,177.308,-4.944,4.598
17246,0.0898,-0.1602,-1.0811,-11.536,-16.724,-17.639,177.286,-4.768,4.768
17265,0.0898,-0.1602,-1.0811,-11.536,-16.724,-17.639,177.506,-4.482,5.032
17295,0.0459,-0.2134,-0.8008,-4.883,-7.629,-9.216,177.737,-4.351,5.262
17305,0.0757,-0.1162,-0.9258,-15.015,6.775,-6.409,177.676,-4.417,5.334
17316,0.0757,-0.1162,-0.9258,-15.015,6.775,-6.409,177.589,-4.532,5.411
17326,0.1123,-0.0527,-1.1045,-15.015,6.775,-6.409,177.495,-4.669,5.493
17335,0.1123,-0.0527,-1.1045,-12.695,15.869,-6.958,177.413,-4.839,5.57
17355,0.126,-0.0659,-1.2012,-7.813,24.292,0.244,177.347,-5.29,5.63
17365,0.126,-0.0659,-1.2012,-3.418,29.663,5.615,177.407,-5.62,5.587
17375,0.126,-0.0659,-1.2012,-1.648,30.273,9.033,177.506,-5.966,5.51
17415,0.1904,-0.1392,-1.144,-10.071,20.203,10.986,177.578,-6.927,5.076
17425,0.167,-0.1333,-1.0894,-10.071,20.203,10.986,177.627,-7.092,4.944
17435,0.167,-0.1333,-1.0894,-0.671,11.597,15.503,177.742,-7.213,4.796
17445,0.106,-0.1592,-0.917,-0.671,11.597,15.503,177.94,-7.3,4.625
17465,0.0835,-0.1748,-0.8423,12.268,1.709,20.874,178.506,-7.344,4.219
17524,0.1709,0.0078,-1.0937,-13.855,9.46,0.549,179.588,-7.361,3.84
17564,0.2505,-0.0166,-1.4199,8.85,-0.916,-2.686,-179.33,-7.718,3.9
17575,0.2236,-0.0908,-1.3359,8.85,-0.916,-2.686,-179.187,-7.663,3.933
17594,0.1523,-0.1982,-1.0918,5.432,-17.761,-4.15,-178.89,-7.366,4.021
17604,0.1523,-0.1982,-1.0918,1.099,-19.47,-1.77,-178.759,-7.169,4.043
17615,0.1523,-0.1982,-1.0918,-2.136,-19.348,2.686,-178.643,-6.96,4.021
17634,0.0771,-0.2505,-0.8242,-0.305,-15.015,17.639,-178.319,-6.597,3.752
17644,0.0723,-0.2471,-0.751,3.601,-11.841,22.4,-178.094,-6.46,3.532
17655,0.0723,-0.2471,-0.751,3.357,-7.751,22.217,-177.874,-6.367,3.312
17674,0.0952,-0.2178,-0.7871,-4.578,1.404,15.015,-177.66,-6.356,2.966
17704,0.1743,-0.0693,-1.0996,-4.822,13.245,4.944,-177.803,-6.713,2.73
17714,0.2241,0.0103,-1.313,-4.822,13.245,4.944,179.55,-6.883,2.681
17724,0.2241,0.0103,-1.313,10.01,12.146,3.784,-179.621,-7.031,2.642
17744,0.2095,-0.0415,-1.3267,15.32,6.531,3.54,-179.247,-7.136,2.576
17754,0.1699,-0.125,-1.1914,15.137,-4.028,1.953,-179.044,-7.108,2.56
17764,0.1699,-0.125,-1.1914,10.681,-7.324,0.0,-178.868,-7.037,2.56
17794,0.0923,-0.1797,-0.939,10.681,-7.324,0.0,-178.528,-6.685,2.609
17823,0.0537,-0.1782,-0.813,6.897,2.197,1.404,-178.055,-6.504,2.587
17853,0.0767,-0.209,-0.7876,3.601,11.047,2.441,-177.49,-6.74,2.505
17863,0.1377,-0.1597,-0.9365,-1.465,13.306,1.465,-177.429,-6.883,2.488
17874,0.1768,-0.1191,-1.0449,-1.465,13.306,1.465,-177.451,-7.059,2.477
17893,0.2334,-0.0415,-1.2769,-7.324,11.963,-1.282,-177.599,-7.383,2.483
17914,0.2432,-0.0234,-1.3462,-0.366,0.61,-0.61,-177.671,-7.509,2.499
17934,0.1733,-0.0869,-1.248,-0.366,0.61,-0.61,-177.561,-7.383,2.516
17954,0.1221,-0.1641,-1.0684,10.437,-13.245,-0.122,-177.27,-7.13,2.532
17973,0.1221,-0.1641,-1.0684,7.751,-12.939,-0.305,-176.918,-6.833,2.549
17983,0.0605,-0.2187,-0.8521,7.751,-12.939,-0.305,-176.754,-6.68,2.549
18013,0.0459,-0.2275,-0.7969,-2.502,-8.789,4.15,-176.314,-6.246,2.466
18023,0.0229,-0.2285,-0.7153,-2.502,-8.789,4.15,-176.237,-6.13,2.433
18043,0.082,-0.1553,-0.856,-16.174,-0.427,1.343,-176.342,-6.053,2.395
18093,0.2427,-0.0186,-1.4048,-15.503,6.47,-1.526,-179.242,-6.465,2.521
18103,0.2192,-0.0596,-1.3647,4.944,-3.357,-6.775,-179.182,-6.46,2.593
18112,0.2192,-0.0596,-1.3647,7.019,-7.629,-8.545,-179.077,-6.405,2.675
18122,0.1582,-0.1738,-1.1621,7.202,-10.498,-9.583,-178.945,-6.317,2.774
18133,0.1353,-0.2017,-1.0581,7.202,-10.498,-9.583,-178.808,-6.213,2.873
18152,0.0996,-0.2241,-0.9019,0.732,-9.338,-5.737,-178.561,-6.015,3.01
18162,0.0884,-0.2197,-0.8584,1.343,-7.08,-2.808,-178.418,-5.944,3.043
18173,0.0884,-0.2197,-0.8584,3.052,-3.784,-0.061,-178.264,-5.905,3.043
18192,0.0884,-0.2197,-0.8584,5.798,2.991,2.258,-177.924,-5.944,3.005
18222,0.124,-0.1611,-0.9448,0.122,5.005,2.136,-177.682,-6.13,2.933
18232,0.124,-0.1611,-0.9448,-2.808,7.263,1.831,-177.693,-6.224,2.911
18242,0.1719,-0.0586,-1.1455,-2.808,7.263,1.831,-177.682,-6.334,2.895
18262,0.1797,-0.0527,-1.2148,6.104,4.7,1.221,-177.578,-6.493,2.867
18282,0.1797,-0.0527,-1.2148,7.629,2.075,0.916,-177.391,-6.542,2.851
18342,0.0845,-0.3047,-0.8677,13.062,-13.855,4.395,-176.155,-5.938,2.692
18371,0.043,-0.2793,-0.7739,-7.69,-6.287,4.578,-175.858,-5.68,2.56
18382,0.043,-0.2793,-0.7739,-3.418,6.836,6.958,-175.77,-5.713,2.483
18392,0.043,-0.2793,-0.7739,3.479,12.207,8.85,-175.644,-5.812,2.384
18411,0.0972,-0.1479,-0.938,3.479,12.207,8.85,-175.369,-6.136,2.153
18432,0.167,-0.0615,-1.1709,9.033,14.954,5.615,-175.215,-6.476,1.994
18451,0.167,-0.0615,-1.1709,13.0,9.338,0.0,-175.067,-6.718,1.945
18472,0.1592,-0.0957,-1.2466,15.381,0.427,-5.005,-174.798,-6.79,2.016
18481,0.1592,-0.0957,-1.2466,15.381,0.427,-5.005,-174.661,-6.762,2.082
18491,0.124,-0.1753,-1.082,9.644,-7.813,-6.47,-174.534,-6.691,2.159
18501,0.1069,-0.2021,-1.0049,9.644,-7.813,-6.47,-174.419,-6.581,2.225
18521,0.0776,-0.2266,-0.8877,1.587,-12.756,-2.625,-174.221,-6.306,2.324
18531,0.0776,-0.2266,-0.8877,1.099,-11.108,-0.61,-174.117,-6.18,2.34
18541,0.0737,-0.2397,-0.834,1.099,-11.108,-0.61,-174.012,-6.081,2.346
18561,0.0806,-0.2324,-0.832,-0.61,-2.808,2.869,-173.815,-5.977,2.307
18601,0.1416,-0.1328,-1.0244,-4.211,4.944,4.883,-173.727,-6.053,2.104
18630,0.1812,-0.0781,-1.1841,1.831,4.883,1.343,-173.804,-6.295,2.016
18651,0.1719,-0.1074,-1.2163,1.831,4.883,1.343,-173.732,-6.328,2.005
18670,0.1558,-0.1338,-1.1689,6.287,-5.615,-0.549,-173.595,-6.213,2.038
18681,0.1099,-0.1914,-1.0269,5.737,-8.606,-1.099,-173.496,-6.125,2.06
18691,0.1099,-0.1914,-1.0269,4.7,-8.728,-0.366,-173.392,-6.031,2.071
18710,0.063,-0.2319,-0.8599,4.7,-8.728,-0.366,-173.183,-5.839,2.065
18731,0.0557,-0.2358,-0.8276,-1.221,-3.113,2.747,-173.002,-5.707,2.027
18750,0.0557,-0.2358,-0.8276,-6.775,1.465,2.441,-172.908,-5.674,1.972
18780,0.1084,-0.1929,-0.9351,-12.939,5.493,2.747,-173.079,-5.823,1.868
18800,0.1221,-0.1855,-0.9829,-14.832,7.69,4.089,-173.298,-5.993,1.769
18820,0.1626,-0.1567,-1.1123,-15.381,5.615,4.15,-173.578,-6.158,1.675
18830,0.1895,-0.0864,-1.2559,-14.526,4.211,3.601,-173.743,-6.218,1.631
18840,0.1924,-0.063,-1.3037,-11.108,2.869,2.991,-173.886,-6.268,1.599
18860,0.1924,-0.063,-1.3037,-1.465,-2.686,1.587,-174.023,-6.268,1.56
18880,0.1221,-0.123,-1.1719,-1.465,-2.686,1.587,-173.952,-6.147,1.566
18910,0.0698,-0.1929,-0.9526,7.996,-8.789,-0.305,-173.622,-5.856,1.604
18950,0.0493,-0.2026,-0.8564,-1.831,-1.953,-1.526,-173.353,-5.559,1.675
18969,0.0493,-0.2026,-0.8564,-3.357,2.991,-1.831,-173.282,-5.581,1.708
18990,0.1133,-0.2031,-0.9487,-6.104,5.249,-1.16,-173.276,-5.691,1.725
18999,0.1133,-0.2031,-0.9487,-6.104,5.249,-1.16,-173.298,-5.762,1.719
19039,0.1768,-0.1641,-1.1396,-1.282,5.737,4.639,-173.337,-6.119,1.582
19059,0.1743,-0.1382,-1.1943,-1.282,5.737,4.639,-173.282,-6.191,1.417
19079,0.1592,-0.1411,-1.1733,-1.282,5.737,4.639,-173.112,-6.125,1.214
19099,0.1147,-0.1582,-1.0835,11.841,-8.179,12.085,-172.826,-5.938,0.994
19119,0.0581,-0.1836,-0.9336,9.46,-7.751,10.62,-172.535,-5.707,0.791
19139,0.0483,-0.1836,-0.8848,4.639,-2.136,6.775,-172.321,-5.57,0.648
19149,0.0483,-0.1836,-0.8848,1.892,0.427,5.188,-172.26,-5.543,0.593
19159,0.0586,-0.1694,-0.8892,1.892,0.427,5.188,-172.233,-5.548,0.56
19169,0.0669,-0.1597,-0.9136,1.892,0.427,5.188,-172.244,-5.576,0.544
19188,0.1128,-0.125,-1.0254,-6.287,7.385,-2.502,-172.359,-5.713,0.555
19199,0.1128,-0.125,-1.0254,-6.287,7.385,-2.502,-172.447,-5.812,0.588
19209,0.1128,-0.125,-1.0254,-6.592,7.935,-5.859,-172.551,-5.916,0.637
19228,0.1655,-0.0889,-1.2031,-2.563,3.967,-8.118,-172.7,-6.075,0.775
19249,0.1567,-0.1216,-1.1909,1.587,-2.93,-7.69,-172.711,-6.097,0.939
19268,0.1274,-0.187,-1.0845,1.587,-6.348,-5.737,-172.617,-6.004,1.077
19289,0.1274,-0.187,-1.0845,-2.869,-5.432,-4.089,-172.507,-5.9,1.181
19308,0.1274,-0.187,-1.0845,-8.972,-3.723,-2.197,-172.513,-5.801,1.252
19319,0.085,-0.1934,-0.9058,-8.972,-3.723,-2.197,-172.584,-5.784,1.263
19338,0.1128,-0.1382,-1.0029,-12.024,1.526,-0.61,-172.766,-5.845,1.263
19348,0.1128,-0.1382,-1.0029,-6.104,4.395,0.427,-172.831,-5.894,1.252
19358,0.1362,-0.106,-1.0991,-6.104,4.395,0.427,-172.875,-5.949,1.241
19378,0.1445,-0.1055,-1.1323,0.671,1.892,1.038,-172.903,-6.031,1.214
19398,0.1343,-0.1123,-1.1338,-0.305,-3.113,-0.793,-172.93,-5.999,1.219
19418,0.1343,-0.1123,-1.1338,1.16,-2.136,-4.578,-172.919,-5.96,1.302
19448,0.1064,-0.1772,-1.0254,1.404,-5.188,-4.944,-172.809,-5.861,1.472
19458,0.1064,-0.1772,-1.0254,0.916,-6.165,-5.188,-172.771,-5.812,1.533
19468,0.0986,-0.1992,-0.9561,0.916,-6.165,-5.188,-172.727,-5.746,1.599
19508,0.1074,-0.2236,-0.9473,-6.714,-19.409,-4.333,-172.628,-5.246,1.868
19527,0.0957,-0.2046,-0.981,-16.235,-27.344,-1.953,-172.804,-4.763,1.989
19548,0.0747,-0.1841,-0.9751,-25.391,-24.902,0.916,-173.216,-4.23,2.043
19557,0.0747,-0.1841,-0.9751,-25.391,-24.902,0.916,-173.441,-4.01,2.043
19567,0.0747,-0.1841,-0.9751,-25.391,-24.902,0.916,-173.644,-3.834,2.0
19588,0.0811,-0.0469,-1.1055,0.122,3.052,9.888,-173.804,-3.779,1.818
19607,0.1143,-0.0239,-1.2476,0.122,3.052,9.888,-173.694,-3.939,1.659
19618,0.1157,-0.0356,-1.2666,0.122,3.052,9.888,-173.611,-4.005,1.62
19637,0.1069,-0.0557,-1.25,9.705,-3.296,-2.686,-173.463,-4.005,1.642
19657,0.0708,-0.1123,-1.1372,5.005,-10.01,-6.531,-173.348,-3.834,1.78
19697,0.0186,-0.1968,-0.8623,-5.554,-5.615,-7.202,-173.249,-3.45,2.12
19707,0.0186,-0.1968,-0.8623,-5.554,-5.615,-7.202,-173.249,-3.411,2.181
19717,0.0186,-0.1968,-0.8623,-4.883,0.854,-4.395,-173.243,-3.417,2.225
19747,0.0708,-0.1953,-0.936,-5.676,5.066,-1.526,-173.238,-3.576,2.285
19757,0.0708,-0.1953,-0.936,-6.47,5.066,-0.549,-173.276,-3.647,2.285
19767,0.1123,-0.1455,-1.0781,-6.47,5.066,-0.549,-173.331,-3.713,2.274
19786,0.1196,-0.1284,-1.1235,-3.113,1.526,1.953,-173.425,-3.801,2.236
19797,0.1196,-0.1284,-1.1235,-0.732,0.488,2.441,-173.441,-3.829,2.214
19807,0.1196,-0.1284,-1.1235,1.099,-1.465,2.502,-173.447,-3.834,2.192
19847,0.0991,-0.1094,-1.1572,2.38,-10.071,0.854,-173.386,-3.56,2.159
19866,0.0586,-0.1284,-1.0322,2.38,-10.071,0.854,-173.375,-3.345,2.186
19896,0.0254,-0.1211,-0.9346,-1.343,-6.47,-0.366,-173.375,-3.109,2.219
19906,0.0361,-0.1348,-0.9331,3.479,-0.671,0.122,-173.326,-3.093,2.219
19917,0.0454,-0.1455,-0.9443,3.479,-0.671,0.122,-173.265,-3.104,2.214
19927,0.0454,-0.1455,-0.9443,1.953,2.258,-0.122,-173.227,-3.126,2.214
19936,0.0601,-0.1479,-0.9687,-0.793,3.784,-1.099,-173.216,-3.17,2.219
19956,0.0669,-0.1479,-0.9849,-4.578,5.676,-2.441,-173.26,-3.296,2.252
19976,0.0781,-0.1479,-1.0117,-4.395,5.188,-1.648,-173.315,-3.428,2.28
19996,0.084,-0.165,-1.0103,-4.272,3.479,-0.305,-173.353,-3.532,2.285
20006,0.084,-0.165,-1.0103,-4.272,3.479,-0.305,-173.375,-3.571,2.274
