elapsed_ms,acc_x_g,acc_y_g,acc_z_g,gyro_x_dps,gyro_y_dps,gyro_z_dps,angle_x_deg,angle_y_deg,angle_z_deg
0,0.7075,0.2573,-0.6704,-0.183,0.183,-0.305,158.758,-44.604,-55.058
10,0.7109,0.2583,-0.6714,-0.122,0.183,-0.244,158.752,-44.604,-55.058
20,0.7129,0.2612,-0.6719,-0.061,0.244,-0.061,158.752,-44.610,-55.058
30,0.7134,0.2598,-0.6724,0.244,0.366,0.061,158.758,-44.615,-55.058
40,0.7139,0.2607,-0.6733,0.488,0.366,0.183,158.763,-44.621,-55.058
50,0.7109,0.2588,-0.6748,0.671,0.305,0.183,158.769,-44.621,-55.058
60,0.7090,0.2588,-0.6724,0.610,0.061,0.061,158.780,-44.621,-55.058
70,0.7080,0.2578,-0.6714,0.305,-0.183,-0.061,158.785,-44.621,-55.058
80,0.7090,0.2588,-0.6699,-0.122,-0.305,-0.183,158.785,-44.615,-55.058
90,0.7095,0.2578,-0.6680,-0.549,-0.305,-0.244,158.780,-44.615,-55.058
100,0.7090,0.2578,-0.6685,-0.671,-0.122,-0.244,158.769,-44.610,-55.058
110,0.7080,0.2573,-0.6699,-0.549,0.061,-0.183,158.763,-44.610,-55.058
120,0.7061,0.2568,-0.6719,-0.305,0.305,-0.061,158.763,-44.615,-55.058
130,0.7061,0.2593,-0.6719,-0.061,0.427,0.061,158.763,-44.615,-55.058
140,0.7065,0.2598,-0.6733,0.244,0.488,0.244,158.769,-44.621,-55.058
150,0.7080,0.2598,-0.6772,0.366,0.427,0.305,158.774,-44.621,-55.058
160,0.7090,0.2607,-0.6777,0.305,0.366,0.366,158.785,-44.621,-55.058
170,0.7119,0.2627,-0.6777,0.183,0.183,0.305,158.785,-44.626,-55.058
180,0.7119,0.2627,-0.6763,0.000,-0.122,0.244,158.791,-44.621,-55.058
190,0.7129,0.2646,-0.6753,-0.183,-0.305,0.061,158.785,-44.621,-55.058
200,0.7139,0.2642,-0.6729,-0.305,-0.427,-0.061,158.785,-44.615,-55.058
210,0.7134,0.2642,-0.6719,-0.366,-0.427,-0.183,158.774,-44.610,-55.058
220,0.7139,0.2612,-0.6685,-0.427,-0.488,-0.305,158.769,-44.610,-55.058
230,0.7119,0.2607,-0.6655,-0.488,-0.488,-0.488,158.763,-44.604,-55.058
240,0.7114,0.2598,-0.6680,-0.488,-0.427,-0.549,158.752,-44.599,-55.058
250,0.7104,0.2578,-0.6670,-0.427,-0.366,-0.488,158.747,-44.599,-55.058
260,0.7090,0.2554,-0.6660,-0.244,-0.183,-0.366,158.741,-44.599,-55.058
270,0.7080,0.2544,-0.6685,-0.061,0.000,-0.183,158.747,-44.599,-55.058
280,0.7065,0.2563,-0.6670,0.244,0.122,0.000,158.752,-44.599,-55.058
290,0.7056,0.2559,-0.6704,0.366,0.183,0.183,158.758,-44.599,-55.058
300,0.7065,0.2568,-0.6729,0.427,0.244,0.366,158.769,-44.604,-55.058
310,0.7075,0.2583,-0.6743,0.366,0.183,0.427,158.780,-44.604,-55.058
320,0.7090,0.2603,-0.6758,0.244,0.122,0.488,158.785,-44.604,-55.058
331,0.7100,0.2603,-0.6758,0.305,0.061,0.427,158.796,-44.604,-55.058
340,0.7104,0.2603,-0.6763,0.366,0.122,0.427,158.802,-44.604,-55.058
350,0.7114,0.2617,-0.6753,0.305,0.061,0.305,158.807,-44.604,-55.058
360,0.7129,0.2612,-0.6743,0.183,-0.122,0.183,158.813,-44.604,-55.058
370,0.7090,0.2632,-0.6753,-0.061,-0.427,0.000,158.813,-44.599,-55.058
380,0.7075,0.2612,-0.6753,-0.183,-0.549,-0.061,158.813,-44.594,-55.058
390,0.7046,0.2598,-0.6714,-0.305,-0.610,-0.183,158.813,-44.583,-55.058
400,0.7065,0.2607,-0.6704,-0.427,-0.488,-0.183,158.807,-44.577,-55.058
410,0.7051,0.2583,-0.6680,-0.366,-0.488,-0.183,158.802,-44.572,-55.058
420,0.7061,0.2603,-0.6675,-0.244,-0.427,-0.183,158.796,-44.566,-55.058
430,0.7061,0.2588,-0.6660,-0.061,-0.366,-0.061,158.796,-44.566,-55.058
440,0.7061,0.2622,-0.6694,0.122,-0.183,0.000,158.796,-44.566,-55.058
450,0.7065,0.2603,-0.6685,0.305,0.183,0.061,158.802,-44.566,-55.058
460,0.7080,0.2607,-0.6694,0.427,0.427,0.122,158.802,-44.572,-55.058
470,0.7070,0.2603,-0.6724,0.488,0.732,0.061,158.807,-44.577,-55.058
480,0.7070,0.2578,-0.6748,0.366,0.916,-0.183,158.807,-44.583,-55.058
490,0.7080,0.2559,-0.6753,0.000,0.854,-0.366,158.807,-44.588,-55.058
500,0.7095,0.2563,-0.6763,-0.427,0.610,-0.427,158.802,-44.588,-55.058
510,0.7095,0.2593,-0.6768,-0.671,0.305,-0.427,158.791,-44.588,-55.058
520,0.7114,0.2598,-0.6772,-0.732,0.000,-0.305,158.785,-44.588,-55.058
530,0.7114,0.2583,-0.6763,-0.427,-0.244,-0.061,158.780,-44.583,-55.058
540,0.7104,0.2573,-0.6748,0.061,-0.305,0.061,158.785,-44.583,-55.058
550,0.7109,0.2588,-0.6753,0.488,-0.244,0.305,158.796,-44.577,-55.058
560,0.7090,0.2578,-0.6758,0.610,-0.122,0.305,158.813,-44.577,-55.058
570,0.7085,0.2593,-0.6763,0.366,-0.122,0.183,158.818,-44.577,-55.058
580,0.7090,0.2583,-0.6753,-0.061,-0.122,0.061,158.824,-44.572,-55.058
590,0.7104,0.2583,-0.6733,-0.488,-0.244,-0.122,158.818,-44.572,-55.058
600,0.7090,0.2607,-0.6729,-0.854,-0.488,-0.183,158.813,-44.566,-55.058
610,0.7100,0.2627,-0.6709,-0.916,-0.610,-0.183,158.802,-44.561,-55.058
620,0.7095,0.2622,-0.6689,-0.671,-0.610,-0.122,158.791,-44.555,-55.058
630,0.7075,0.2607,-0.6660,-0.366,-0.549,0.061,158.791,-44.550,-55.058
640,0.7090,0.2603,-0.6670,-0.061,-0.366,0.122,158.791,-44.550,-55.058
650,0.7065,0.2607,-0.6650,0.122,-0.122,0.183,158.791,-44.550,-55.058
660,0.7070,0.2603,-0.6685,0.122,0.244,0.122,158.791,-44.555,-55.058
670,0.7080,0.2598,-0.6699,0.000,0.427,0.061,158.791,-44.561,-55.058
680,0.7124,0.2583,-0.6748,-0.183,0.610,0.000,158.791,-44.566,-55.058
690,0.7100,0.2593,-0.6724,-0.305,0.671,0.000,158.785,-44.572,-55.058
700,0.7100,0.2612,-0.6733,-0.244,0.610,0.000,158.780,-44.577,-55.058
710,0.7114,0.2603,-0.6748,-0.183,0.488,-0.061,158.780,-44.577,-55.058
721,0.7104,0.2588,-0.6743,0.061,0.183,0.000,158.780,-44.583,-55.058
730,0.7100,0.2598,-0.6733,0.183,0.000,0.000,158.785,-44.583,-55.058
740,0.7095,0.2603,-0.6719,0.305,-0.122,0.000,158.785,-44.577,-55.058
750,0.7100,0.2598,-0.6733,0.366,-0.122,-0.061,158.791,-44.577,-55.058
760,0.7109,0.2588,-0.6714,0.244,-0.061,-0.061,158.796,-44.577,-55.058
770,0.7090,0.2578,-0.6729,0.244,0.061,-0.061,158.802,-44.577,-55.058
780,0.7095,0.2578,-0.6733,0.183,0.061,-0.061,158.802,-44.577,-55.058
790,0.7104,0.2598,-0.6733,0.122,0.061,0.000,158.807,-44.577,-55.058
800,0.7095,0.2593,-0.6724,0.122,0.061,0.061,158.807,-44.577,-55.058
810,0.7109,0.2593,-0.6724,0.122,0.061,0.122,158.813,-44.583,-55.058
820,0.7090,0.2593,-0.6729,0.183,0.000,0.122,158.813,-44.577,-55.058
831,0.7085,0.2588,-0.6733,0.244,0.000,0.122,158.818,-44.577,-55.058
840,0.7061,0.2598,-0.6694,0.244,0.000,0.061,158.824,-44.577,-55.058
850,0.7046,0.2568,-0.6709,0.122,0.000,-0.061,158.824,-44.577,-55.058
860,0.7056,0.2583,-0.6709,-0.061,0.061,-0.122,158.824,-44.577,-55.058
870,0.7051,0.2578,-0.6704,-0.244,0.183,-0.244,158.818,-44.577,-55.058
880,0.7090,0.2588,-0.6694,-0.305,0.305,-0.244,158.813,-44.577,-55.058
890,0.7095,0.2598,-0.6729,-0.183,0.427,-0.122,158.813,-44.583,-55.058
900,0.7114,0.2583,-0.6729,0.000,0.610,0.000,158.813,-44.588,-55.058
910,0.7134,0.2593,-0.6753,0.244,0.610,0.061,158.813,-44.594,-55.058
920,0.7129,0.2588,-0.6782,0.488,0.488,0.061,158.818,-44.599,-55.058
930,0.7129,0.2568,-0.6792,0.488,0.244,0.000,158.829,-44.599,-55.058
940,0.7119,0.2568,-0.6777,0.183,-0.183,-0.061,158.835,-44.599,-55.058
950,0.7104,0.2544,-0.6758,-0.122,-0.488,-0.183,158.840,-44.594,-55.058
960,0.7085,0.2559,-0.6743,-0.488,-0.732,-0.244,158.840,-44.583,-55.058
970,0.7085,0.2578,-0.6729,-0.732,-0.854,-0.244,158.835,-44.572,-55.058
980,0.7075,0.2578,-0.6724,-0.732,-0.793,-0.122,158.829,-44.566,-55.058
990,0.7056,0.2563,-0.6733,-0.427,-0.610,0.000,158.829,-44.555,-55.058
1000,0.7061,0.2573,-0.6714,-0.122,-0.305,0.183,158.835,-44.555,-55.058
1010,0.7051,0.2583,-0.6714,0.122,-0.061,0.305,158.840,-44.555,-55.058
1020,0.7036,0.2607,-0.6724,0.305,0.183,0.366,158.846,-44.555,-55.058
1030,0.7075,0.2603,-0.6753,0.305,0.305,0.366,158.851,-44.555,-55.058
1040,0.7100,0.2607,-0.6772,0.244,0.305,0.305,158.857,-44.561,-55.058
1050,0.7109,0.2622,-0.6748,0.183,0.244,0.244,158.857,-44.561,-55.058
1060,0.7124,0.2637,-0.6758,0.000,0.061,0.183,158.857,-44.561,-55.058
1070,0.7134,0.2617,-0.6753,-0.122,-0.183,0.000,158.857,-44.561,-55.058
1080,0.7134,0.2646,-0.6758,-0.244,-0.366,-0.183,158.851,-44.555,-55.058
1090,0.7119,0.2632,-0.6738,-0.305,-0.549,-0.244,158.846,-44.550,-55.058
1100,0.7119,0.2612,-0.6714,-0.427,-0.549,-0.366,158.840,-44.544,-55.058
1110,0.7114,0.2583,-0.6714,-0.488,-0.549,-0.488,158.835,-44.539,-55.058
1120,0.7095,0.2568,-0.6709,-0.488,-0.488,-0.549,158.829,-44.533,-55.058
1130,0.7109,0.2539,-0.6694,-0.427,-0.427,-0.488,158.824,-44.533,-55.058
1140,0.7075,0.2549,-0.6680,-0.366,-0.366,-0.305,158.824,-44.528,-55.058
1150,0.7051,0.2520,-0.6689,-0.061,-0.305,-0.061,158.829,-44.528,-55.058
1160,0.7051,0.2544,-0.6685,0.183,-0.183,0.183,158.835,-44.528,-55.058
1170,0.7051,0.2559,-0.6689,0.488,-0.183,0.427,158.846,-44.528,-55.058
1180,0.7061,0.2554,-0.6694,0.671,-0.061,0.549,158.862,-44.528,-55.058
1190,0.7065,0.2559,-0.6733,0.854,0.061,0.610,158.879,-44.528,-55.058
1200,0.7085,0.2598,-0.6753,0.793,0.244,0.610,158.890,-44.533,-55.058
1210,0.7100,0.2598,-0.6777,0.732,0.366,0.488,158.906,-44.539,-55.058
1220,0.7100,0.2607,-0.6768,0.488,0.366,0.366,158.912,-44.539,-55.058
1230,0.7100,0.2607,-0.6763,0.183,0.122,0.244,158.912,-44.539,-55.058
1240,0.7085,0.2607,-0.6748,-0.122,-0.183,0.061,158.912,-44.539,-55.058
1250,0.7080,0.2622,-0.6689,-0.244,-0.610,0.000,158.912,-44.533,-55.058
1260,0.7056,0.2612,-0.6699,-0.305,-0.854,0.000,158.906,-44.528,-55.058
1270,0.7036,0.2622,-0.6694,-0.122,-0.916,0.000,158.906,-44.517,-55.058
1280,0.7051,0.2603,-0.6685,0.122,-0.732,0.000,158.912,-44.511,-55.058
1290,0.7056,0.2583,-0.6694,0.305,-0.366,-0.061,158.912,-44.506,-55.058
1300,0.7051,0.2559,-0.6694,0.366,0.000,-0.061,158.917,-44.506,-55.058
1310,0.7051,0.2578,-0.6719,0.305,0.244,-0.122,158.917,-44.506,-55.058
1320,0.7046,0.2568,-0.6729,0.183,0.488,-0.183,158.917,-44.511,-55.058
1331,0.7065,0.2559,-0.6748,0.122,0.549,-0.244,158.923,-44.511,-55.058
1340,0.7075,0.2554,-0.6743,0.061,0.549,-0.244,158.917,-44.517,-55.058
1350,0.7085,0.2554,-0.6768,0.122,0.488,-0.244,158.923,-44.517,-55.058
1360,0.7095,0.2554,-0.6772,0.061,0.427,-0.183,158.923,-44.522,-55.058
1370,0.7075,0.2549,-0.6763,-0.061,0.305,-0.183,158.923,-44.522,-55.058
1380,0.7080,0.2563,-0.6758,-0.122,0.183,-0.183,158.923,-44.522,-55.058
1390,0.7100,0.2549,-0.6753,-0.183,0.000,-0.061,158.923,-44.522,-55.058
1400,0.7080,0.2583,-0.6772,-0.244,-0.183,-0.061,158.923,-44.517,-55.058
1410,0.7090,0.2563,-0.6772,-0.122,-0.183,0.000,158.928,-44.517,-55.058
1420,0.7080,0.2573,-0.6758,0.000,-0.183,0.061,158.928,-44.511,-55.058
1430,0.7085,0.2568,-0.6743,0.061,-0.183,0.183,158.934,-44.511,-55.058
1440,0.7070,0.2578,-0.6714,0.061,-0.244,0.122,158.939,-44.511,-55.058
1450,0.7056,0.2593,-0.6709,-0.061,-0.305,0.122,158.939,-44.506,-55.058
1460,0.7075,0.2612,-0.6709,-0.183,-0.305,0.061,158.939,-44.506,-55.058
1470,0.7065,0.2642,-0.6689,-0.244,-0.366,0.000,158.934,-44.500,-55.058
1480,0.7061,0.2637,-0.6699,-0.244,-0.366,-0.061,158.928,-44.495,-55.058
1490,0.7070,0.2627,-0.6699,-0.122,-0.305,-0.061,158.923,-44.495,-55.058
1500,0.7080,0.2632,-0.6694,0.061,-0.183,-0.183,158.917,-44.489,-55.058
1510,0.7085,0.2593,-0.6680,0.183,0.000,-0.244,158.917,-44.495,-55.058
1520,0.7075,0.2583,-0.6665,0.061,0.183,-0.305,158.912,-44.495,-55.058
1530,0.7070,0.2568,-0.6689,0.000,0.366,-0.427,158.906,-44.500,-55.058
1540,0.7080,0.2559,-0.6709,-0.244,0.427,-0.427,158.901,-44.500,-55.058
1550,0.7095,0.2554,-0.6748,-0.366,0.488,-0.427,158.895,-44.506,-55.058
1560,0.7085,0.2549,-0.6753,-0.366,0.427,-0.427,158.890,-44.506,-55.058
1570,0.7095,0.2549,-0.6768,-0.244,0.366,-0.305,158.890,-44.511,-55.058
1580,0.7080,0.2549,-0.6792,0.000,0.244,-0.061,158.895,-44.511,-55.058
1590,0.7085,0.2559,-0.6768,0.244,0.183,0.122,158.901,-44.511,-55.058
1600,0.7085,0.2559,-0.6753,0.427,0.122,0.244,158.912,-44.511,-55.058
1610,0.7080,0.2559,-0.6763,0.610,0.122,0.366,158.923,-44.517,-55.058
1620,0.7104,0.2583,-0.6797,0.671,0.000,0.427,158.934,-44.517,-55.058
1630,0.7070,0.2607,-0.6768,0.549,-0.061,0.427,158.945,-44.511,-55.058
1640,0.7085,0.2603,-0.6733,0.427,-0.183,0.305,158.950,-44.511,-55.058
1650,0.7070,0.2622,-0.6714,0.305,-0.183,0.183,158.956,-44.511,-55.058
1660,0.7075,0.2642,-0.6689,0.061,-0.305,0.061,158.950,-44.506,-55.058
1670,0.7085,0.2637,-0.6724,-0.122,-0.366,0.061,158.950,-44.506,-55.058
1680,0.7080,0.2632,-0.6699,-0.122,-0.427,0.000,158.945,-44.500,-55.058
1690,0.7065,0.2607,-0.6670,-0.061,-0.366,-0.122,158.939,-44.500,-55.058
1700,0.7065,0.2607,-0.6685,-0.061,-0.244,-0.122,158.939,-44.495,-55.058
1710,0.7061,0.2598,-0.6704,0.000,0.000,-0.122,158.934,-44.495,-55.058
1720,0.7051,0.2568,-0.6689,0.000,0.366,-0.244,158.934,-44.500,-55.058
1730,0.7065,0.2559,-0.6704,0.061,0.671,-0.244,158.928,-44.506,-55.058
1740,0.7051,0.2559,-0.6733,0.183,0.854,-0.244,158.928,-44.511,-55.058
1750,0.7070,0.2549,-0.6748,0.244,0.916,-0.244,158.928,-44.517,-55.058
1760,0.7065,0.2549,-0.6758,0.244,0.854,-0.183,158.934,-44.522,-55.058
1770,0.7085,0.2554,-0.6782,0.183,0.610,-0.244,158.934,-44.528,-55.058
1780,0.7085,0.2554,-0.6772,0.061,0.366,-0.183,158.934,-44.528,-55.058
1790,0.7090,0.2568,-0.6787,0.000,0.122,-0.122,158.939,-44.528,-55.058
1800,0.7100,0.2568,-0.6758,0.061,-0.122,0.000,158.939,-44.528,-55.058
1810,0.7114,0.2583,-0.6763,0.244,-0.305,0.061,158.945,-44.522,-55.058
1820,0.7124,0.2578,-0.6743,0.427,-0.366,0.122,158.956,-44.522,-55.058
1831,0.7129,0.2578,-0.6763,0.366,-0.488,0.122,158.961,-44.517,-55.058
1840,0.7114,0.2544,-0.6748,0.244,-0.610,0.122,158.972,-44.511,-55.058
1850,0.7095,0.2549,-0.6733,-0.061,-0.610,0.122,158.978,-44.511,-55.058
1860,0.7090,0.2549,-0.6729,-0.305,-0.610,0.122,158.983,-44.506,-55.058
1870,0.7090,0.2583,-0.6724,-0.488,-0.610,0.122,158.978,-44.500,-55.058
1880,0.7075,0.2588,-0.6729,-0.549,-0.610,0.122,158.978,-44.495,-55.058
1890,0.7051,0.2593,-0.6704,-0.427,-0.488,0.122,158.972,-44.489,-55.058
1900,0.7036,0.2598,-0.6704,-0.305,-0.366,0.244,158.972,-44.484,-55.058
1910,0.7056,0.2612,-0.6709,-0.122,-0.183,0.305,158.972,-44.484,-55.058
1920,0.7061,0.2612,-0.6709,0.061,0.000,0.366,158.972,-44.484,-55.058
1930,0.7061,0.2588,-0.6714,0.122,0.305,0.244,158.978,-44.489,-55.058
1940,0.7061,0.2603,-0.6763,0.061,0.549,0.122,158.978,-44.495,-55.058
1950,0.7070,0.2607,-0.6782,0.000,0.671,0.000,158.972,-44.495,-55.058
1960,0.7090,0.2593,-0.6782,-0.183,0.671,-0.122,158.967,-44.500,-55.058
1970,0.7119,0.2603,-0.6787,-0.244,0.427,-0.244,158.961,-44.500,-55.058
1980,0.7119,0.2588,-0.6812,-0.366,0.122,-0.305,158.961,-44.500,-55.058
1990,0.7124,0.2568,-0.6802,-0.488,-0.183,-0.366,158.956,-44.495,-55.058
2000,0.7119,0.2559,-0.6763,-0.427,-0.488,-0.305,158.950,-44.495,-55.058
2010,0.7109,0.2573,-0.6729,-0.366,-0.732,-0.244,158.950,-44.484,-55.058
2020,0.7090,0.2549,-0.6714,-0.183,-0.732,-0.122,158.950,-44.478,-55.058
2030,0.7080,0.2554,-0.6675,0.000,-0.610,-0.061,158.956,-44.478,-55.058
2040,0.7065,0.2549,-0.6724,0.122,-0.488,0.000,158.961,-44.473,-55.058
2050,0.7056,0.2568,-0.6709,0.183,-0.427,0.061,158.967,-44.467,-55.058
2060,0.7061,0.2573,-0.6704,0.122,-0.366,0.183,158.972,-44.467,-55.058
2070,0.7070,0.2593,-0.6714,0.183,-0.183,0.244,158.972,-44.467,-55.058
2080,0.7061,0.2598,-0.6699,0.305,-0.061,0.305,158.978,-44.467,-55.058
2090,0.7051,0.2622,-0.6699,0.366,0.183,0.366,158.983,-44.473,-55.058
2100,0.7065,0.2622,-0.6694,0.366,0.305,0.366,158.983,-44.473,-55.058
2110,0.7056,0.2617,-0.6704,0.305,0.427,0.183,158.983,-44.478,-55.058
2120,0.7065,0.2603,-0.6709,0.183,0.549,0.061,158.983,-44.484,-55.058
2130,0.7080,0.2598,-0.6729,0.000,0.732,-0.061,158.978,-44.489,-55.058
2140,0.7061,0.2588,-0.6748,-0.244,0.793,-0.122,158.972,-44.495,-55.058
2150,0.7080,0.2573,-0.6763,-0.305,0.732,-0.183,158.967,-44.500,-55.058
2160,0.7085,0.2593,-0.6753,-0.183,0.610,-0.183,158.961,-44.506,-55.058
2170,0.7075,0.2573,-0.6777,0.000,0.549,-0.122,158.961,-44.506,-55.058
2180,0.7085,0.2578,-0.6777,0.122,0.366,-0.061,158.961,-44.511,-55.058
2190,0.7090,0.2573,-0.6782,0.183,0.183,-0.122,158.967,-44.511,-55.058
2200,0.7061,0.2573,-0.6772,0.244,0.000,-0.122,158.967,-44.506,-55.058
2210,0.7075,0.2578,-0.6763,0.244,-0.122,-0.122,158.972,-44.506,-55.058
2220,0.7061,0.2563,-0.6733,0.183,0.000,-0.183,158.972,-44.500,-55.058
2230,0.7065,0.2559,-0.6748,0.061,0.122,-0.305,158.972,-44.500,-55.058
2240,0.7090,0.2549,-0.6729,-0.122,0.244,-0.366,158.972,-44.506,-55.058
2250,0.7090,0.2554,-0.6748,-0.244,0.305,-0.366,158.967,-44.506,-55.058
2260,0.7095,0.2563,-0.6743,-0.305,0.305,-0.305,158.961,-44.506,-55.058
2270,0.7095,0.2568,-0.6733,-0.244,0.305,-0.183,158.961,-44.511,-55.058
2280,0.7065,0.2549,-0.6753,-0.122,0.305,-0.061,158.961,-44.511,-55.058
2290,0.7065,0.2554,-0.6758,0.122,0.427,0.061,158.961,-44.511,-55.058
2300,0.7061,0.2554,-0.6743,0.244,0.488,0.122,158.967,-44.517,-55.058
2310,0.7061,0.2559,-0.6768,0.183,0.549,0.122,158.972,-44.522,-55.058
2320,0.7075,0.2549,-0.6802,0.000,0.610,0.122,158.978,-44.522,-55.058
2331,0.7109,0.2563,-0.6768,-0.305,0.549,0.061,158.972,-44.528,-55.058
2340,0.7090,0.2593,-0.6768,-0.549,0.183,0.061,158.967,-44.528,-55.058
2350,0.7090,0.2603,-0.6763,-0.610,-0.122,0.061,158.967,-44.528,-55.058
2360,0.7100,0.2607,-0.6748,-0.549,-0.427,0.000,158.961,-44.522,-55.058
2370,0.7109,0.2588,-0.6753,-0.366,-0.610,0.000,158.961,-44.517,-55.058
2380,0.7090,0.2588,-0.6733,-0.305,-0.671,-0.061,158.956,-44.511,-55.058
2390,0.7075,0.2598,-0.6689,-0.305,-0.610,-0.061,158.956,-44.506,-55.058
2400,0.7075,0.2607,-0.6675,-0.366,-0.427,-0.183,158.945,-44.506,-55.058
2410,0.7075,0.2583,-0.6689,-0.427,-0.244,-0.244,158.939,-44.500,-55.058
2420,0.7100,0.2583,-0.6694,-0.427,0.061,-0.305,158.934,-44.500,-55.058
2430,0.7085,0.2583,-0.6694,-0.366,0.305,-0.366,158.923,-44.506,-55.058
2440,0.7075,0.2568,-0.6709,-0.244,0.488,-0.305,158.917,-44.511,-55.058
2450,0.7065,0.2573,-0.6719,-0.183,0.671,-0.244,158.912,-44.517,-55.058
2460,0.7061,0.2573,-0.6724,-0.183,0.671,-0.244,158.912,-44.522,-55.058
2470,0.7090,0.2568,-0.6738,-0.183,0.610,-0.183,158.906,-44.522,-55.058
2480,0.7080,0.2559,-0.6738,-0.122,0.488,-0.122,158.906,-44.528,-55.058
2490,0.7075,0.2578,-0.6738,-0.061,0.488,0.000,158.906,-44.533,-55.058
2500,0.7085,0.2578,-0.6748,0.061,0.427,0.122,158.906,-44.533,-55.058
2510,0.7085,0.2573,-0.6743,0.183,0.305,0.183,158.912,-44.539,-55.058
2520,0.7090,0.2578,-0.6743,0.244,0.305,0.183,158.917,-44.539,-55.058
2530,0.7095,0.2583,-0.6748,0.244,0.244,0.122,158.917,-44.544,-55.058
2540,0.7109,0.2603,-0.6787,0.122,0.183,0.122,158.923,-44.544,-55.058
2550,0.7090,0.2607,-0.6768,0.000,0.061,0.061,158.923,-44.544,-55.058
2560,0.7080,0.2612,-0.6758,-0.183,-0.122,-0.061,158.917,-44.539,-55.058
2570,0.7065,0.2612,-0.6729,-0.366,-0.244,-0.122,158.917,-44.533,-55.058
2580,0.7080,0.2598,-0.6685,-0.427,-0.366,-0.183,158.906,-44.533,-55.058
2590,0.7085,0.2588,-0.6689,-0.427,-0.427,-0.183,158.901,-44.528,-55.058
2600,0.7065,0.2583,-0.6680,-0.305,-0.305,-0.183,158.901,-44.528,-55.058
2610,0.7070,0.2573,-0.6665,-0.305,-0.122,-0.183,158.895,-44.528,-55.058
2620,0.7080,0.2578,-0.6665,-0.244,0.183,-0.122,158.890,-44.528,-55.058
2630,0.7080,0.2588,-0.6685,-0.183,0.366,-0.061,158.884,-44.533,-55.058
2640,0.7085,0.2588,-0.6694,-0.122,0.610,-0.061,158.884,-44.539,-55.058
2650,0.7080,0.2598,-0.6709,0.000,0.732,-0.122,158.879,-44.550,-55.058
2660,0.7056,0.2588,-0.6738,-0.061,0.732,-0.183,158.873,-44.550,-55.058
2670,0.7051,0.2568,-0.6748,-0.183,0.610,-0.244,158.873,-44.555,-55.058
2680,0.7090,0.2583,-0.6733,-0.305,0.427,-0.366,158.862,-44.555,-55.058
2690,0.7085,0.2593,-0.6729,-0.366,0.305,-0.244,158.857,-44.561,-55.058
2700,0.7090,0.2612,-0.6724,-0.244,0.244,-0.061,158.851,-44.561,-55.058
2710,0.7119,0.2617,-0.6733,0.122,0.366,0.061,158.851,-44.561,-55.058
2722,0.7114,0.2598,-0.6763,0.549,0.549,0.244,158.862,-44.566,-55.058
2730,0.7095,0.2598,-0.6797,0.793,0.549,0.183,158.868,-44.572,-55.058
2740,0.7104,0.2549,-0.6812,0.549,0.427,0.061,158.879,-44.572,-55.058
2750,0.7100,0.2563,-0.6772,0.061,0.122,-0.183,158.884,-44.572,-55.058
2760,0.7109,0.2554,-0.6763,-0.610,-0.244,-0.305,158.879,-44.566,-55.058
2770,0.7095,0.2563,-0.6743,-1.099,-0.549,-0.305,158.868,-44.561,-55.058
2780,0.7085,0.2559,-0.6729,-1.221,-0.671,-0.183,158.862,-44.555,-55.058
2790,0.7090,0.2573,-0.6719,-1.038,-0.671,0.000,158.857,-44.550,-55.058
2800,0.7051,0.2573,-0.6704,-0.610,-0.549,0.244,158.857,-44.544,-55.058
2810,0.7070,0.2588,-0.6689,-0.122,-0.305,0.488,158.857,-44.544,-55.058
2820,0.7056,0.2593,-0.6694,0.183,0.000,0.610,158.868,-44.544,-55.058
2830,0.7061,0.2612,-0.6719,0.244,0.244,0.610,158.873,-44.550,-55.058
2840,0.7100,0.2607,-0.6753,0.183,0.488,0.549,158.879,-44.555,-55.058
2850,0.7119,0.2642,-0.6763,0.061,0.610,0.427,158.879,-44.561,-55.058
2860,0.7129,0.2632,-0.6787,-0.183,0.610,0.244,158.873,-44.566,-55.058
2870,0.7129,0.2637,-0.6802,-0.427,0.366,0.061,158.868,-44.566,-55.058
2880,0.7129,0.2642,-0.6777,-0.671,-0.061,-0.061,158.862,-44.566,-55.058
2890,0.7129,0.2622,-0.6772,-0.854,-0.488,-0.122,158.851,-44.561,-55.058
2900,0.7109,0.2598,-0.6733,-0.793,-0.854,-0.244,158.846,-44.550,-55.058
2910,0.7109,0.2603,-0.6719,-0.854,-1.099,-0.305,158.840,-44.539,-55.058
2920,0.7104,0.2588,-0.6694,-0.732,-1.160,-0.244,158.835,-44.533,-55.058
2930,0.7100,0.2573,-0.6675,-0.488,-1.038,-0.183,158.829,-44.522,-55.058
2940,0.7090,0.2539,-0.6670,-0.305,-0.732,-0.122,158.835,-44.517,-55.058
2950,0.7056,0.2549,-0.6646,-0.244,-0.366,0.000,158.835,-44.517,-55.058
2960,0.7041,0.2568,-0.6680,-0.183,0.061,0.122,158.835,-44.517,-55.058
2970,0.7041,0.2563,-0.6689,-0.183,0.305,0.244,158.835,-44.522,-55.058
2980,0.7031,0.2563,-0.6670,0.000,0.488,0.427,158.840,-44.528,-55.058
2990,0.7065,0.2568,-0.6714,0.122,0.427,0.488,158.846,-44.533,-55.058
3000,0.7065,0.2593,-0.6729,0.305,0.305,0.610,158.851,-44.539,-55.058
3010,0.7070,0.2612,-0.6758,0.305,0.183,0.610,158.862,-44.539,-55.058
3020,0.7104,0.2632,-0.6753,0.305,0.122,0.549,158.868,-44.544,-55.058
3030,0.7109,0.2637,-0.6753,0.305,0.183,0.488,158.873,-44.544,-55.058
3040,0.7104,0.2627,-0.6782,0.244,0.122,0.305,158.879,-44.544,-55.058
3050,0.7090,0.2637,-0.6763,0.061,-0.061,0.061,158.879,-44.544,-55.058
3060,0.7100,0.2627,-0.6743,-0.183,-0.244,-0.183,158.873,-44.539,-55.058
3070,0.7090,0.2612,-0.6724,-0.427,-0.427,-0.427,158.862,-44.533,-55.058
3080,0.7085,0.2612,-0.6709,-0.671,-0.549,-0.549,158.851,-44.528,-55.058
3090,0.7090,0.2593,-0.6729,-0.793,-0.549,-0.610,158.840,-44.517,-55.058
3100,0.7075,0.2578,-0.6704,-0.671,-0.427,-0.549,158.835,-44.511,-55.058
3110,0.7090,0.2583,-0.6699,-0.427,-0.244,-0.366,158.829,-44.511,-55.058
3120,0.7100,0.2559,-0.6699,0.061,0.061,-0.122,158.829,-44.511,-55.058
3130,0.7100,0.2563,-0.6743,0.427,0.305,0.061,158.835,-44.517,-55.058
3140,0.7095,0.2549,-0.6743,0.732,0.549,0.122,158.846,-44.522,-55.058
3150,0.7085,0.2559,-0.6748,0.671,0.549,0.061,158.857,-44.528,-55.058
3160,0.7080,0.2563,-0.6768,0.305,0.427,-0.061,158.862,-44.528,-55.058
3170,0.7065,0.2573,-0.6787,-0.244,0.183,-0.183,158.862,-44.528,-55.058
3180,0.7070,0.2573,-0.6743,-0.793,-0.244,-0.183,158.857,-44.522,-55.058
3190,0.7090,0.2593,-0.6724,-0.977,-0.610,-0.122,158.846,-44.517,-55.058
3200,0.7109,0.2603,-0.6699,-0.793,-0.732,0.122,158.840,-44.511,-55.058
3210,0.7095,0.2617,-0.6714,-0.305,-0.549,0.427,158.846,-44.511,-55.058
3220,0.7070,0.2627,-0.6694,0.427,-0.183,0.671,158.851,-44.511,-55.058
3230,0.7080,0.2622,-0.6709,0.916,0.305,0.732,158.862,-44.517,-55.058
3240,0.7051,0.2632,-0.6729,0.916,0.671,0.549,158.873,-44.522,-55.058
3250,0.7056,0.2612,-0.6753,0.488,0.671,0.305,158.879,-44.528,-55.058
3260,0.7061,0.2617,-0.6758,-0.183,0.366,0.000,158.873,-44.528,-55.058
3270,0.7070,0.2632,-0.6724,-0.854,0.000,-0.244,158.862,-44.528,-55.058
3280,0.7061,0.2627,-0.6694,-1.160,-0.427,-0.244,158.846,-44.522,-55.058
3290,0.7095,0.2632,-0.6685,-1.038,-0.549,-0.122,158.835,-44.517,-55.058
3300,0.7104,0.2632,-0.6675,-0.549,-0.366,0.061,158.829,-44.517,-55.058
3310,0.7090,0.2607,-0.6685,0.122,0.061,0.183,158.829,-44.517,-55.058
3320,0.7095,0.2583,-0.6675,0.549,0.488,0.244,158.835,-44.528,-55.058
3330,0.7085,0.2583,-0.6719,0.671,0.854,0.183,158.840,-44.533,-55.058
3339,0.7100,0.2559,-0.6719,0.366,0.977,0.000,158.846,-44.544,-55.058
3350,0.7104,0.2544,-0.6748,-0.122,0.916,-0.183,158.840,-44.555,-55.058
3360,0.7119,0.2559,-0.6758,-0.549,0.671,-0.305,158.835,-44.561,-55.058
3370,0.7114,0.2573,-0.6724,-0.793,0.244,-0.305,158.829,-44.561,-55.058
3380,0.7119,0.2573,-0.6738,-0.732,0.000,-0.122,158.824,-44.561,-55.058
3390,0.7129,0.2588,-0.6748,-0.244,-0.244,0.122,158.824,-44.561,-55.058
3400,0.7134,0.2583,-0.6748,0.244,-0.244,0.305,158.829,-44.561,-55.058
3410,0.7090,0.2568,-0.6758,0.549,-0.122,0.305,158.846,-44.561,-55.058
3420,0.7090,0.2573,-0.6782,0.427,-0.122,0.305,158.857,-44.555,-55.058
3430,0.7090,0.2578,-0.6753,0.122,-0.183,0.183,158.862,-44.555,-55.058
3440,0.7085,0.2598,-0.6719,-0.305,-0.366,0.122,158.862,-44.550,-55.058
3450,0.7095,0.2627,-0.6724,-0.671,-0.427,0.061,158.851,-44.550,-55.058
3460,0.7085,0.2661,-0.6704,-0.610,-0.488,0.122,158.846,-44.544,-55.058
3470,0.7085,0.2676,-0.6719,-0.305,-0.488,0.183,158.840,-44.539,-55.058
3480,0.7095,0.2661,-0.6738,0.244,-0.366,0.244,158.840,-44.533,-55.058
3490,0.7075,0.2661,-0.6724,0.549,-0.244,0.244,158.846,-44.533,-55.058
3500,0.7046,0.2622,-0.6738,0.610,-0.122,0.061,158.851,-44.528,-55.058
3510,0.7046,0.2617,-0.6724,0.305,-0.183,-0.244,158.851,-44.522,-55.058
3520,0.7065,0.2622,-0.6719,-0.244,-0.366,-0.610,158.846,-44.517,-55.058
3530,0.7090,0.2603,-0.6680,-0.671,-0.488,-0.793,158.829,-44.511,-55.058
3540,0.7109,0.2593,-0.6660,-0.854,-0.549,-0.732,158.818,-44.506,-55.058
3550,0.7114,0.2607,-0.6660,-0.610,-0.488,-0.549,158.807,-44.506,-55.058
3560,0.7109,0.2598,-0.6680,-0.061,-0.305,-0.305,158.802,-44.500,-55.058
3570,0.7109,0.2573,-0.6689,0.549,-0.061,-0.122,158.807,-44.506,-55.058
3579,0.7090,0.2568,-0.6719,1.099,0.244,0.000,158.818,-44.506,-55.058
3590,0.7104,0.2549,-0.6729,1.099,0.427,0.061,158.835,-44.511,-55.058
3600,0.7080,0.2539,-0.6763,0.793,0.549,-0.122,158.846,-44.517,-55.058
3610,0.7095,0.2529,-0.6812,0.183,0.488,-0.366,158.851,-44.517,-55.058
3620,0.7124,0.2539,-0.6821,-0.427,0.183,-0.366,158.851,-44.517,-55.058
3630,0.7109,0.2544,-0.6772,-0.732,-0.244,-0.183,158.846,-44.517,-55.058
3640,0.7085,0.2568,-0.6792,-0.610,-0.610,0.061,158.846,-44.506,-55.058
3650,0.7061,0.2578,-0.6797,-0.122,-0.793,0.305,158.857,-44.500,-55.058
3659,0.7041,0.2593,-0.6777,0.427,-0.916,0.610,158.873,-44.489,-55.058
3669,0.7031,0.2578,-0.6802,0.793,-0.854,0.671,158.890,-44.478,-55.058
3680,0.7021,0.2573,-0.6768,0.732,-0.671,0.610,158.912,-44.473,-55.058
3689,0.7046,0.2598,-0.6812,0.244,-0.549,0.488,158.923,-44.462,-55.058
3700,0.7061,0.2627,-0.6772,-0.244,-0.488,0.305,158.923,-44.456,-55.058
3709,0.7070,0.2651,-0.6738,-0.610,-0.610,0.122,158.917,-44.451,-55.058
3720,0.7065,0.2642,-0.6714,-0.732,-0.916,0.061,158.906,-44.440,-55.058
3729,0.7095,0.2651,-0.6699,-0.671,-1.282,0.000,158.901,-44.429,-55.058
3739,0.7085,0.2651,-0.6689,-0.549,-1.465,0.000,158.895,-44.418,-55.058
3749,0.7090,0.2607,-0.6680,-0.488,-1.465,0.000,158.890,-44.407,-55.058
3759,0.7056,0.2593,-0.6655,-0.427,-1.160,0.000,158.890,-44.401,-55.058
3770,0.7046,0.2603,-0.6631,-0.427,-0.732,-0.122,158.884,-44.396,-55.058
3780,0.7036,0.2612,-0.6621,-0.305,-0.122,-0.244,158.873,-44.396,-55.058
3790,0.7046,0.2573,-0.6655,-0.244,0.488,-0.244,158.868,-44.401,-55.058
3799,0.7051,0.2583,-0.6694,0.000,0.916,-0.183,158.862,-44.412,-55.058
3810,0.7070,0.2573,-0.6685,0.122,1.221,-0.122,158.862,-44.423,-55.058
3819,0.7065,0.2559,-0.6719,0.183,1.221,-0.061,158.862,-44.434,-55.058
3830,0.7065,0.2568,-0.6758,0.244,0.916,0.183,158.862,-44.445,-55.058
3839,0.7061,0.2563,-0.6758,0.305,0.549,0.427,158.873,-44.451,-55.058
3849,0.7061,0.2578,-0.6772,0.488,0.244,0.549,158.884,-44.451,-55.058
3859,0.7085,0.2598,-0.6777,0.732,0.000,0.610,158.901,-44.451,-55.058
3869,0.7075,0.2627,-0.6802,0.916,0.061,0.549,158.912,-44.451,-55.058
3879,0.7095,0.2607,-0.6782,0.977,0.122,0.427,158.928,-44.456,-55.058
3889,0.7080,0.2593,-0.6748,0.671,0.122,0.305,158.934,-44.456,-55.058
3899,0.7085,0.2593,-0.6777,0.183,0.000,0.183,158.939,-44.456,-55.058
3910,0.7065,0.2598,-0.6763,-0.244,-0.183,0.122,158.939,-44.451,-55.058
3920,0.7051,0.2607,-0.6733,-0.366,-0.427,0.122,158.939,-44.451,-55.058
3930,0.7075,0.2612,-0.6743,-0.305,-0.610,0.122,158.939,-44.440,-55.058
3939,0.7075,0.2598,-0.6709,0.061,-0.732,0.183,158.939,-44.440,-55.058
3950,0.7041,0.2583,-0.6699,0.305,-0.671,0.183,158.950,-44.434,-55.058
3959,0.7036,0.2568,-0.6685,0.366,-0.488,0.244,158.956,-44.429,-55.058
3970,0.7026,0.2578,-0.6689,0.244,-0.122,0.122,158.961,-44.429,-55.058
3979,0.7036,0.2578,-0.6685,0.000,0.244,0.000,158.956,-44.429,-55.058
3990,0.7051,0.2563,-0.6694,-0.244,0.549,-0.061,158.956,-44.434,-55.058
4000,0.7061,0.2588,-0.6699,-0.366,0.793,-0.061,158.945,-44.445,-55.058
4009,0.7075,0.2583,-0.6699,-0.183,0.854,0.000,158.939,-44.456,-55.058
4019,0.7085,0.2612,-0.6748,0.000,0.793,0.122,158.939,-44.462,-55.058
4029,0.7095,0.2593,-0.6782,0.244,0.732,0.244,158.945,-44.467,-55.058
4039,0.7104,0.2588,-0.6777,0.427,0.671,0.244,158.950,-44.473,-55.058
4049,0.7100,0.2573,-0.6792,0.488,0.549,0.244,158.956,-44.478,-55.058
4059,0.7104,0.2588,-0.6812,0.366,0.305,0.183,158.961,-44.478,-55.058
4070,0.7104,0.2588,-0.6812,0.244,0.061,0.061,158.967,-44.478,-55.058
4080,0.7095,0.2573,-0.6758,0.061,-0.244,-0.061,158.972,-44.478,-55.058
4089,0.7085,0.2573,-0.6782,-0.122,-0.427,-0.122,158.972,-44.473,-55.058
4099,0.7075,0.2573,-0.6729,-0.183,-0.610,-0.122,158.972,-44.467,-55.058
4109,0.7056,0.2583,-0.6738,-0.061,-0.610,0.000,158.972,-44.456,-55.058
4119,0.7065,0.2583,-0.6743,0.061,-0.488,0.122,158.978,-44.456,-55.058
4129,0.7061,0.2593,-0.6694,0.244,-0.366,0.122,158.983,-44.451,-55.058
4139,0.7075,0.2598,-0.6694,0.305,-0.305,0.122,158.983,-44.451,-55.058
4149,0.7085,0.2583,-0.6714,0.305,-0.244,0.122,158.989,-44.451,-55.058
4159,0.7085,0.2578,-0.6719,0.183,-0.183,0.000,158.994,-44.451,-55.058
4169,0.7085,0.2559,-0.6738,0.000,-0.061,-0.061,158.994,-44.451,-55.058
4179,0.7100,0.2578,-0.6729,-0.366,0.122,-0.122,158.989,-44.451,-55.058
4189,0.7085,0.2568,-0.6738,-0.549,0.244,-0.122,158.983,-44.456,-55.058
4199,0.7075,0.2583,-0.6724,-0.610,0.305,-0.061,158.978,-44.456,-55.058
4209,0.7065,0.2573,-0.6733,-0.610,0.244,-0.061,158.967,-44.456,-55.058
4219,0.7061,0.2588,-0.6738,-0.305,0.000,0.000,158.967,-44.456,-55.058
4229,0.7065,0.2598,-0.6753,0.000,-0.061,0.061,158.967,-44.456,-55.058
4239,0.7085,0.2603,-0.6758,0.305,-0.122,0.183,158.972,-44.456,-55.058
4249,0.7085,0.2583,-0.6758,0.366,-0.183,0.183,158.978,-44.456,-55.058
4259,0.7095,0.2588,-0.6753,0.244,-0.183,0.122,158.983,-44.451,-55.058
4269,0.7100,0.2603,-0.6758,0.061,-0.183,0.122,158.983,-44.451,-55.058
4279,0.7085,0.2607,-0.6768,-0.061,-0.183,0.000,158.983,-44.451,-55.058
4289,0.7095,0.2627,-0.6753,-0.122,-0.366,-0.061,158.983,-44.445,-55.058
4299,0.7075,0.2607,-0.6709,-0.061,-0.488,-0.122,158.978,-44.440,-55.058
4309,0.7065,0.2578,-0.6724,0.000,-0.610,-0.122,158.983,-44.434,-55.058
4319,0.7056,0.2563,-0.6729,0.122,-0.671,-0.122,158.983,-44.429,-55.058
4330,0.7051,0.2563,-0.6719,0.061,-0.671,-0.183,158.989,-44.423,-55.058
4339,0.7046,0.2578,-0.6709,-0.061,-0.549,-0.244,158.989,-44.418,-55.058
4349,0.7031,0.2554,-0.6689,-0.061,-0.244,-0.305,158.983,-44.412,-55.058
4359,0.7041,0.2554,-0.6689,-0.183,0.000,-0.244,158.983,-44.412,-55.058
4369,0.7031,0.2573,-0.6694,-0.183,0.305,-0.244,158.978,-44.418,-55.058
4379,0.7041,0.2583,-0.6709,-0.122,0.427,-0.183,158.972,-44.418,-55.058
4389,0.7056,0.2578,-0.6714,0.061,0.549,-0.122,158.972,-44.423,-55.058
4399,0.7070,0.2593,-0.6743,0.244,0.732,0.061,158.972,-44.429,-55.058
4409,0.7104,0.2598,-0.6782,0.488,0.854,0.122,158.972,-44.440,-55.058
4419,0.7144,0.2578,-0.6821,0.610,0.916,0.122,158.983,-44.445,-55.058
4429,0.7144,0.2563,-0.6826,0.488,0.732,0.061,158.989,-44.456,-55.058
4439,0.7134,0.2559,-0.6841,0.122,0.305,-0.061,158.994,-44.456,-55.058
4449,0.7114,0.2563,-0.6836,-0.427,-0.183,-0.183,158.994,-44.451,-55.058
4459,0.7070,0.2568,-0.6821,-0.854,-0.732,-0.244,158.989,-44.440,-55.058
4469,0.7075,0.2554,-0.6777,-1.099,-1.099,-0.244,158.983,-44.429,-55.058
4479,0.7061,0.2544,-0.6748,-1.099,-1.282,-0.122,158.978,-44.418,-55.058
4489,0.7056,0.2554,-0.6729,-0.732,-1.160,0.061,158.978,-44.407,-55.058
4499,0.7046,0.2554,-0.6729,-0.244,-1.038,0.244,158.983,-44.396,-55.058
4509,0.7026,0.2563,-0.6714,0.122,-0.671,0.427,158.994,-44.390,-55.058
4519,0.7021,0.2559,-0.6724,0.366,-0.366,0.549,159.005,-44.390,-55.058
4529,0.7046,0.2588,-0.6733,0.488,-0.061,0.549,159.016,-44.390,-55.058
4539,0.7041,0.2598,-0.6733,0.305,0.122,0.488,159.022,-44.390,-55.058
4549,0.7075,0.2607,-0.6743,0.061,0.183,0.305,159.022,-44.396,-55.058
4559,0.7100,0.2612,-0.6733,-0.244,0.122,0.183,159.016,-44.401,-55.058
4569,0.7085,0.2637,-0.6743,-0.488,0.000,0.122,159.011,-44.401,-55.058
4579,0.7109,0.2627,-0.6758,-0.610,-0.305,0.122,159.005,-44.396,-55.058
4589,0.7100,0.2622,-0.6729,-0.488,-0.427,0.122,159.000,-44.396,-55.058
4599,0.7090,0.2617,-0.6729,-0.183,-0.427,0.061,158.994,-44.390,-55.058
4609,0.7100,0.2607,-0.6704,0.000,-0.427,-0.061,158.994,-44.390,-55.058
4619,0.7070,0.2598,-0.6699,-0.061,-0.183,-0.122,158.989,-44.390,-55.058
4629,0.7085,0.2578,-0.6724,-0.183,0.000,-0.183,158.989,-44.390,-55.058
4639,0.7070,0.2563,-0.6733,-0.366,0.183,-0.244,158.983,-44.390,-55.058
4649,0.7061,0.2568,-0.6719,-0.427,0.305,-0.244,158.978,-44.396,-55.058
4659,0.7056,0.2573,-0.6738,-0.366,0.305,-0.122,158.972,-44.396,-55.058
4669,0.7080,0.2554,-0.6743,-0.122,0.183,0.122,158.972,-44.401,-55.058
4679,0.7090,0.2573,-0.6748,0.366,0.122,0.427,158.983,-44.407,-55.058
4689,0.7061,0.2583,-0.6724,0.793,0.061,0.610,158.994,-44.407,-55.058
4699,0.7046,0.2559,-0.6748,0.854,0.061,0.610,159.011,-44.407,-55.058
4709,0.7051,0.2573,-0.6782,0.610,0.122,0.488,159.022,-44.412,-55.058
4723,0.7046,0.2593,-0.6782,0.244,0.061,0.366,159.033,-44.407,-55.058
4729,0.7056,0.2607,-0.6768,-0.183,0.061,0.183,159.027,-44.407,-55.058
4739,0.7075,0.2588,-0.6777,-0.427,0.000,0.061,159.027,-44.407,-55.058
4749,0.7085,0.2593,-0.6807,-0.366,-0.183,0.000,159.022,-44.401,-55.058
4759,0.7080,0.2612,-0.6787,-0.244,-0.305,0.061,159.022,-44.401,-55.058
4769,0.7070,0.2607,-0.6763,0.061,-0.366,0.122,159.022,-44.396,-55.058
4779,0.7046,0.2603,-0.6738,0.122,-0.427,0.122,159.027,-44.390,-55.058
4789,0.7061,0.2593,-0.6748,0.061,-0.427,0.061,159.027,-44.385,-55.058
4799,0.7080,0.2568,-0.6768,-0.061,-0.427,-0.061,159.033,-44.385,-55.058
4809,0.7075,0.2578,-0.6738,-0.183,-0.366,-0.122,159.027,-44.379,-55.058
4819,0.7080,0.2568,-0.6729,-0.244,-0.366,-0.183,159.027,-44.379,-55.058
4830,0.7090,0.2583,-0.6729,-0.305,-0.305,-0.122,159.022,-44.374,-55.058
4839,0.7085,0.2603,-0.6733,-0.183,-0.183,-0.183,159.022,-44.374,-55.058
4849,0.7080,0.2573,-0.6729,-0.183,-0.122,-0.305,159.016,-44.374,-55.058
4859,0.7075,0.2559,-0.6738,-0.244,-0.183,-0.427,159.011,-44.368,-55.058
4869,0.7051,0.2554,-0.6733,-0.366,-0.183,-0.427,159.005,-44.368,-55.058
4879,0.7051,0.2563,-0.6758,-0.366,-0.183,-0.366,159.005,-44.363,-55.058
4889,0.7080,0.2549,-0.6733,-0.366,-0.183,-0.244,159.000,-44.363,-55.058
4899,0.7075,0.2554,-0.6748,-0.183,-0.183,-0.061,159.000,-44.363,-55.058
4909,0.7056,0.2563,-0.6748,0.122,-0.122,0.122,159.005,-44.363,-55.058
4919,0.7041,0.2573,-0.6768,0.366,-0.061,0.244,159.016,-44.363,-55.058
4929,0.7041,0.2598,-0.6768,0.427,0.122,0.305,159.022,-44.363,-55.058
4939,0.7046,0.2603,-0.6743,0.244,0.122,0.244,159.022,-44.363,-55.058
4949,0.7036,0.2617,-0.6753,0.000,0.000,0.183,159.022,-44.363,-55.058
4959,0.7031,0.2632,-0.6729,-0.122,-0.122,0.061,159.022,-44.357,-55.058
4969,0.7061,0.2627,-0.6729,-0.183,-0.244,-0.122,159.016,-44.357,-55.058
4979,0.7056,0.2622,-0.6719,-0.122,-0.244,-0.244,159.005,-44.352,-55.058
4989,0.7065,0.2617,-0.6709,-0.061,-0.183,-0.305,159.000,-44.352,-55.058
4999,0.7051,0.2617,-0.6714,0.000,-0.061,-0.427,158.994,-44.352,-55.058
5009,0.7065,0.2593,-0.6729,0.000,0.000,-0.427,158.989,-44.346,-55.058
5019,0.7075,0.2593,-0.6733,-0.183,0.244,-0.488,158.983,-44.352,-55.058
5029,0.7056,0.2583,-0.6729,-0.305,0.305,-0.549,158.972,-44.352,-55.058
5039,0.7056,0.2573,-0.6748,-0.366,0.305,-0.610,158.967,-44.352,-55.058
5049,0.7051,0.2554,-0.6738,-0.305,0.244,-0.549,158.961,-44.352,-55.058
5059,0.7065,0.2549,-0.6729,-0.244,0.244,-0.488,158.956,-44.357,-55.058
5069,0.7080,0.2539,-0.6724,-0.061,0.244,-0.305,158.956,-44.357,-55.058
5079,0.7080,0.2544,-0.6748,0.183,0.366,-0.122,158.956,-44.363,-55.058
5089,0.7070,0.2568,-0.6758,0.366,0.427,0.000,158.961,-44.368,-55.058
5099,0.7080,0.2559,-0.6743,0.427,0.549,0.122,158.967,-44.374,-55.058
5109,0.7085,0.2573,-0.6772,0.488,0.549,0.122,158.972,-44.379,-55.058
5119,0.7075,0.2607,-0.6802,0.427,0.549,0.122,158.978,-44.385,-55.058
5129,0.7075,0.2583,-0.6816,0.244,0.427,0.000,158.983,-44.385,-55.058
5139,0.7085,0.2593,-0.6777,0.061,0.122,-0.061,158.983,-44.385,-55.058
5149,0.7080,0.2583,-0.6768,-0.122,-0.061,-0.122,158.983,-44.385,-55.058
5159,0.7065,0.2583,-0.6772,-0.305,-0.305,-0.122,158.978,-44.379,-55.058
5169,0.7070,0.2588,-0.6709,-0.366,-0.488,-0.061,158.978,-44.374,-55.058
5179,0.7046,0.2617,-0.6719,-0.305,-0.427,-0.061,158.972,-44.374,-55.058
5189,0.7046,0.2607,-0.6714,-0.061,-0.305,-0.061,158.967,-44.368,-55.058
5199,0.7056,0.2593,-0.6719,0.122,0.000,-0.061,158.967,-44.368,-55.058
5209,0.7065,0.2573,-0.6714,0.305,0.305,-0.122,158.972,-44.374,-55.058
5219,0.7061,0.2578,-0.6748,0.183,0.549,-0.183,158.972,-44.379,-55.058
5229,0.7051,0.2578,-0.6748,0.061,0.671,-0.244,158.967,-44.379,-55.058
5239,0.7036,0.2563,-0.6753,-0.122,0.671,-0.366,158.961,-44.385,-55.058
5249,0.7065,0.2559,-0.6772,-0.305,0.549,-0.488,158.956,-44.390,-55.058
5259,0.7051,0.2559,-0.6763,-0.366,0.244,-0.549,158.950,-44.385,-55.058
5269,0.7065,0.2573,-0.6763,-0.366,0.000,-0.427,158.945,-44.385,-55.058
5279,0.7085,0.2578,-0.6768,-0.305,-0.122,-0.366,158.939,-44.385,-55.058
5289,0.7104,0.2578,-0.6758,-0.061,-0.061,-0.183,158.939,-44.385,-55.058
5299,0.7109,0.2563,-0.6787,0.244,0.000,-0.061,158.945,-44.385,-55.058
5309,0.7075,0.2539,-0.6777,0.244,0.122,-0.122,158.950,-44.385,-55.058
5319,0.7056,0.2539,-0.6758,0.061,0.061,-0.061,158.956,-44.385,-55.058
5330,0.7031,0.2554,-0.6748,-0.244,-0.183,-0.061,158.956,-44.379,-55.058
5339,0.7056,0.2549,-0.6714,-0.610,-0.488,-0.061,158.956,-44.379,-55.058
5349,0.7051,0.2578,-0.6704,-0.854,-0.610,-0.061,158.950,-44.374,-55.058
5359,0.7026,0.2583,-0.6699,-0.854,-0.549,-0.061,158.939,-44.368,-55.058
5369,0.7046,0.2612,-0.6699,-0.549,-0.305,0.122,158.934,-44.363,-55.058
5379,0.7061,0.2612,-0.6694,-0.122,0.061,0.244,158.934,-44.368,-55.058
5389,0.7070,0.2593,-0.6753,0.305,0.488,0.305,158.939,-44.374,-55.058
5399,0.7070,0.2603,-0.6782,0.488,0.793,0.305,158.945,-44.379,-55.058
5409,0.7075,0.2612,-0.6802,0.488,0.977,0.122,158.945,-44.390,-55.058
5419,0.7085,0.2612,-0.6802,0.244,0.854,-0.122,158.945,-44.396,-55.058
5429,0.7085,0.2607,-0.6816,-0.244,0.610,-0.305,158.939,-44.396,-55.058
5439,0.7104,0.2603,-0.6816,-0.610,0.305,-0.488,158.928,-44.396,-55.058
5449,0.7119,0.2603,-0.6787,-0.854,-0.122,-0.549,158.917,-44.390,-55.058
5459,0.7109,0.2607,-0.6758,-0.916,-0.549,-0.549,158.906,-44.385,-55.058
5469,0.7085,0.2593,-0.6729,-0.793,-0.854,-0.549,158.895,-44.379,-55.058
5479,0.7080,0.2573,-0.6724,-0.610,-0.977,-0.427,158.890,-44.368,-55.058
5489,0.7061,0.2573,-0.6699,-0.427,-0.916,-0.366,158.890,-44.363,-55.058
5499,0.7051,0.2554,-0.6665,-0.244,-0.732,-0.305,158.884,-44.357,-55.058
5509,0.7041,0.2563,-0.6660,-0.061,-0.366,-0.244,158.884,-44.352,-55.058
5519,0.7046,0.2563,-0.6660,0.061,0.122,-0.122,158.884,-44.357,-55.058
5529,0.7041,0.2554,-0.6665,0.183,0.610,-0.061,158.884,-44.368,-55.058
5539,0.7041,0.2559,-0.6699,0.183,0.916,0.061,158.884,-44.374,-55.058
5549,0.7061,0.2549,-0.6753,0.244,1.099,0.183,158.890,-44.385,-55.058
5559,0.7061,0.2583,-0.6772,0.305,1.038,0.305,158.895,-44.396,-55.058
5569,0.7056,0.2578,-0.6777,0.244,0.793,0.366,158.901,-44.401,-55.058
5579,0.7070,0.2583,-0.6797,0.244,0.427,0.488,158.912,-44.407,-55.058
5589,0.7075,0.2607,-0.6802,0.244,0.183,0.488,158.917,-44.407,-55.058
5599,0.7075,0.2603,-0.6802,0.183,-0.122,0.366,158.923,-44.407,-55.058
5609,0.7075,0.2617,-0.6772,0.061,-0.244,0.244,158.928,-44.401,-55.058
5619,0.7041,0.2632,-0.6738,-0.061,-0.366,0.122,158.928,-44.396,-55.058
5629,0.7026,0.2627,-0.6704,-0.183,-0.488,-0.061,158.923,-44.390,-55.058
5639,0.7036,0.2642,-0.6709,-0.244,-0.366,-0.122,158.917,-44.390,-55.058
5649,0.7051,0.2627,-0.6699,-0.122,-0.122,-0.183,158.912,-44.385,-55.058
5659,0.7046,0.2603,-0.6714,0.061,0.244,-0.244,158.906,-44.390,-55.058
5669,0.7065,0.2588,-0.6704,0.244,0.549,-0.366,158.906,-44.390,-55.058
5679,0.7080,0.2549,-0.6733,0.244,0.732,-0.488,158.901,-44.401,-55.058
5689,0.7075,0.2539,-0.6763,0.122,0.793,-0.488,158.901,-44.407,-55.058
5699,0.7080,0.2549,-0.6777,-0.061,0.671,-0.427,158.901,-44.407,-55.058
5709,0.7065,0.2544,-0.6758,-0.183,0.488,-0.366,158.895,-44.412,-55.058
5719,0.7056,0.2524,-0.6772,-0.122,0.427,-0.305,158.901,-44.412,-55.058
5729,0.7065,0.2520,-0.6768,0.061,0.488,-0.183,158.901,-44.418,-55.058
5739,0.7075,0.2539,-0.6772,0.122,0.610,-0.061,158.906,-44.423,-55.058
5749,0.7080,0.2534,-0.6777,0.061,0.610,0.061,158.912,-44.429,-55.058
5759,0.7085,0.2549,-0.6797,0.122,0.671,0.122,158.917,-44.434,-55.058
5769,0.7080,0.2563,-0.6797,0.061,0.610,0.122,158.923,-44.440,-55.058
5779,0.7104,0.2588,-0.6777,0.000,0.549,0.061,158.923,-44.445,-55.058
5789,0.7090,0.2603,-0.6792,-0.122,0.305,0.061,158.923,-44.445,-55.058
5799,0.7095,0.2612,-0.6772,-0.183,0.061,0.061,158.917,-44.445,-55.058
5809,0.7104,0.2603,-0.6748,-0.244,-0.122,0.122,158.917,-44.445,-55.058
5819,0.7095,0.2617,-0.6768,-0.244,-0.244,0.061,158.917,-44.440,-55.058
5830,0.7075,0.2622,-0.6729,-0.305,-0.244,0.000,158.912,-44.440,-55.058
5839,0.7080,0.2612,-0.6719,-0.244,-0.366,0.000,158.912,-44.434,-55.058
5849,0.7090,0.2607,-0.6709,-0.305,-0.305,-0.122,158.906,-44.434,-55.058
5859,0.7090,0.2603,-0.6714,-0.305,-0.183,-0.122,158.901,-44.434,-55.058
5869,0.7085,0.2622,-0.6724,-0.183,0.000,-0.183,158.895,-44.434,-55.058
5879,0.7085,0.2593,-0.6753,-0.122,0.122,-0.244,158.890,-44.434,-55.058
5889,0.7090,0.2588,-0.6743,-0.122,0.244,-0.244,158.890,-44.434,-55.058
5899,0.7080,0.2593,-0.6748,-0.244,0.183,-0.366,158.884,-44.434,-55.058
5909,0.7090,0.2573,-0.6748,-0.427,0.061,-0.366,158.879,-44.434,-55.058
5919,0.7075,0.2583,-0.6743,-0.549,-0.122,-0.305,158.873,-44.434,-55.058
5929,0.7061,0.2573,-0.6724,-0.488,-0.244,-0.305,158.868,-44.429,-55.058
5939,0.7056,0.2568,-0.6709,-0.305,-0.244,-0.183,158.862,-44.429,-55.058
5949,0.7046,0.2554,-0.6704,0.000,-0.183,0.000,158.868,-44.429,-55.058
5959,0.7061,0.2568,-0.6675,0.244,-0.061,0.122,158.873,-44.429,-55.058
5969,0.7065,0.2598,-0.6724,0.488,0.122,0.183,158.879,-44.429,-55.058
5979,0.7070,0.2593,-0.6724,0.549,0.305,0.244,158.884,-44.434,-55.058
5989,0.7085,0.2607,-0.6738,0.549,0.427,0.183,158.890,-44.440,-55.058
5999,0.7100,0.2593,-0.6743,0.427,0.427,0.122,158.895,-44.445,-55.058
6009,0.7109,0.2593,-0.6782,0.244,0.366,0.000,158.901,-44.445,-55.058
6019,0.7095,0.2617,-0.6782,0.061,0.244,-0.061,158.895,-44.445,-55.058
6029,0.7104,0.2632,-0.6782,0.000,0.061,-0.122,158.895,-44.445,-55.058
6039,0.7114,0.2612,-0.6753,0.061,-0.061,-0.122,158.895,-44.445,-55.058
6049,0.7100,0.2598,-0.6738,0.183,-0.061,-0.183,158.895,-44.445,-55.058
6059,0.7080,0.2578,-0.6763,0.244,-0.183,-0.183,158.901,-44.445,-55.058
6069,0.7061,0.2559,-0.6768,0.183,-0.244,-0.244,158.901,-44.440,-55.058
6079,0.7036,0.2573,-0.6758,0.000,-0.305,-0.366,158.901,-44.434,-55.058
6089,0.7056,0.2563,-0.6738,-0.244,-0.366,-0.366,158.901,-44.429,-55.058
6099,0.7085,0.2568,-0.6729,-0.305,-0.427,-0.305,158.901,-44.423,-55.058
6109,0.7080,0.2559,-0.6699,-0.244,-0.366,-0.244,158.895,-44.423,-55.058
6119,0.7085,0.2573,-0.6685,0.000,-0.183,-0.061,158.901,-44.423,-55.058
6129,0.7100,0.2578,-0.6733,0.244,-0.061,0.000,158.901,-44.423,-55.058
6139,0.7090,0.2578,-0.6729,0.488,0.000,0.183,158.912,-44.423,-55.058
6149,0.7104,0.2563,-0.6743,0.549,0.122,0.122,158.917,-44.429,-55.058
6159,0.7095,0.2568,-0.6748,0.305,0.061,0.061,158.923,-44.429,-55.058
6169,0.7085,0.2568,-0.6738,-0.061,0.000,0.061,158.928,-44.429,-55.058
6179,0.7070,0.2573,-0.6733,-0.366,-0.061,-0.061,158.923,-44.429,-55.058
6189,0.7051,0.2598,-0.6724,-0.549,-0.061,-0.061,158.917,-44.429,-55.058
6199,0.7046,0.2598,-0.6709,-0.366,-0.061,0.000,158.912,-44.429,-55.058
6209,0.7046,0.2612,-0.6743,-0.061,-0.061,0.122,158.912,-44.423,-55.058
6219,0.7046,0.2598,-0.6777,0.305,0.061,0.183,158.917,-44.423,-55.058
6229,0.7070,0.2603,-0.6787,0.549,0.183,0.122,158.928,-44.423,-55.058
6239,0.7056,0.2607,-0.6768,0.610,0.183,0.061,158.934,-44.423,-55.058
6249,0.7065,0.2593,-0.6768,0.427,0.122,-0.061,158.934,-44.423,-55.058
6259,0.7100,0.2603,-0.6802,0.061,0.061,-0.244,158.934,-44.423,-55.058
6269,0.7134,0.2598,-0.6782,-0.244,-0.122,-0.366,158.934,-44.423,-55.058
6279,0.7129,0.2617,-0.6758,-0.366,-0.305,-0.427,158.923,-44.418,-55.058
6289,0.7139,0.2617,-0.6758,-0.366,-0.488,-0.427,158.917,-44.412,-55.058
6299,0.7129,0.2593,-0.6733,-0.183,-0.610,-0.427,158.912,-44.407,-55.058
6309,0.7109,0.2578,-0.6719,-0.061,-0.671,-0.427,158.912,-44.401,-55.058
6319,0.7100,0.2554,-0.6689,-0.122,-0.671,-0.427,158.912,-44.401,-55.058
6330,0.7075,0.2549,-0.6694,-0.244,-0.549,-0.366,158.912,-44.396,-55.058
6339,0.7075,0.2544,-0.6694,-0.366,-0.549,-0.244,158.912,-44.390,-55.058
6349,0.7061,0.2554,-0.6675,-0.366,-0.427,-0.061,158.906,-44.390,-55.058
6359,0.7061,0.2563,-0.6714,-0.122,-0.244,0.122,158.912,-44.390,-55.058
6369,0.7061,0.2593,-0.6714,0.244,-0.061,0.305,158.917,-44.390,-55.058
6379,0.7046,0.2578,-0.6714,0.427,-0.061,0.427,158.923,-44.390,-55.058
6389,0.7061,0.2598,-0.6738,0.549,-0.061,0.488,158.934,-44.396,-55.058
6399,0.7080,0.2612,-0.6763,0.366,-0.183,0.427,158.945,-44.390,-55.058
6409,0.7070,0.2617,-0.6763,0.061,-0.305,0.366,158.945,-44.390,-55.058
6419,0.7090,0.2637,-0.6748,-0.122,-0.366,0.244,158.945,-44.385,-55.058
6429,0.7095,0.2617,-0.6733,-0.061,-0.366,0.183,158.945,-44.385,-55.058
6439,0.7124,0.2622,-0.6743,0.122,-0.244,0.122,158.950,-44.385,-55.058
6449,0.7090,0.2617,-0.6743,0.244,-0.244,0.061,158.950,-44.385,-55.058
6459,0.7075,0.2603,-0.6699,0.244,-0.305,0.000,158.950,-44.385,-55.058
6469,0.7061,0.2598,-0.6724,0.183,-0.427,-0.061,158.956,-44.379,-55.058
6479,0.7021,0.2573,-0.6738,0.061,-0.366,-0.122,158.956,-44.374,-55.058
6489,0.7036,0.2568,-0.6699,0.000,-0.244,-0.122,158.956,-44.374,-55.058
6499,0.7046,0.2573,-0.6704,0.061,-0.061,-0.122,158.956,-44.374,-55.058
6509,0.7046,0.2559,-0.6699,0.122,0.244,-0.122,158.956,-44.374,-55.058
6519,0.7061,0.2554,-0.6724,0.183,0.366,-0.122,158.961,-44.379,-55.058
6529,0.7065,0.2559,-0.6738,0.305,0.488,0.000,158.961,-44.385,-55.058
6539,0.7075,0.2568,-0.6753,0.427,0.549,0.122,158.967,-44.390,-55.058
6549,0.7065,0.2568,-0.6768,0.549,0.488,0.122,158.978,-44.396,-55.058
6559,0.7075,0.2573,-0.6777,0.549,0.488,0.061,158.983,-44.396,-55.058
6569,0.7085,0.2563,-0.6787,0.427,0.305,0.000,158.989,-44.401,-55.058
6579,0.7090,0.2554,-0.6772,0.244,0.183,-0.061,158.994,-44.401,-55.058
6589,0.7095,0.2554,-0.6792,-0.061,0.000,-0.122,158.994,-44.401,-55.058
6599,0.7090,0.2573,-0.6802,-0.366,-0.305,-0.122,158.994,-44.396,-55.058
6609,0.7065,0.2573,-0.6792,-0.427,-0.488,-0.061,158.994,-44.390,-55.058
6619,0.7061,0.2578,-0.6768,-0.427,-0.610,0.000,158.994,-44.385,-55.058
6629,0.7056,0.2593,-0.6768,-0.183,-0.671,0.061,158.994,-44.374,-55.058
6639,0.7046,0.2583,-0.6733,0.000,-0.671,0.122,159.000,-44.368,-55.058
6649,0.7036,0.2593,-0.6753,0.183,-0.549,0.183,159.005,-44.363,-55.058
6659,0.7036,0.2583,-0.6738,0.244,-0.427,0.183,159.011,-44.363,-55.058
6669,0.7046,0.2593,-0.6729,0.122,-0.244,0.122,159.011,-44.357,-55.058
6679,0.7056,0.2593,-0.6743,-0.122,-0.061,0.061,159.011,-44.357,-55.058
6689,0.7065,0.2598,-0.6704,-0.305,-0.061,0.000,159.005,-44.357,-55.058
6699,0.7080,0.2598,-0.6694,-0.427,-0.122,-0.061,159.000,-44.357,-55.058
6709,0.7100,0.2632,-0.6724,-0.366,-0.244,-0.061,158.994,-44.357,-55.058
6724,0.7085,0.2627,-0.6738,-0.244,-0.305,-0.061,158.989,-44.357,-55.058
6729,0.7095,0.2617,-0.6709,0.061,-0.366,-0.061,158.983,-44.357,-55.058
6739,0.7100,0.2588,-0.6748,0.244,-0.244,-0.122,158.989,-44.352,-55.058
6749,0.7070,0.2573,-0.6748,0.244,-0.061,-0.183,158.989,-44.352,-55.058
6759,0.7056,0.2554,-0.6719,0.122,0.244,-0.244,158.989,-44.357,-55.058
6769,0.7065,0.2568,-0.6729,-0.061,0.427,-0.427,158.983,-44.357,-55.058
6779,0.7100,0.2549,-0.6729,-0.244,0.488,-0.366,158.983,-44.363,-55.058
6789,0.7095,0.2534,-0.6733,-0.244,0.427,-0.305,158.978,-44.368,-55.058
6799,0.7080,0.2563,-0.6758,-0.122,0.244,-0.183,158.978,-44.374,-55.058
6809,0.7075,0.2563,-0.6753,0.183,0.000,0.000,158.983,-44.374,-55.058
6819,0.7080,0.2563,-0.6777,0.488,-0.122,0.183,158.989,-44.374,-55.058
6830,0.7070,0.2573,-0.6743,0.671,-0.244,0.244,159.000,-44.374,-55.058
6839,0.7070,0.2573,-0.6743,0.549,-0.244,0.305,159.011,-44.368,-55.058
6849,0.7065,0.2588,-0.6724,0.305,-0.305,0.305,159.016,-44.368,-55.058
6859,0.7075,0.2612,-0.6733,0.000,-0.305,0.244,159.022,-44.368,-55.058
6869,0.7065,0.2612,-0.6719,-0.122,-0.183,0.183,159.016,-44.368,-55.058
6879,0.7070,0.2627,-0.6714,-0.183,-0.122,0.183,159.016,-44.368,-55.058
6889,0.7051,0.2637,-0.6733,-0.061,0.000,0.183,159.011,-44.368,-55.058
6899,0.7070,0.2632,-0.6738,0.122,0.183,0.122,159.011,-44.368,-55.058
6909,0.7070,0.2622,-0.6738,0.366,0.244,0.061,159.011,-44.374,-55.058
6919,0.7041,0.2603,-0.6748,0.366,0.366,-0.061,159.011,-44.374,-55.058
6929,0.7051,0.2583,-0.6719,0.183,0.305,-0.244,159.011,-44.379,-55.058
6939,0.7026,0.2573,-0.6743,-0.122,0.244,-0.427,159.005,-44.374,-55.058
6949,0.7056,0.2563,-0.6714,-0.305,0.183,-0.549,158.994,-44.379,-55.058
6959,0.7070,0.2563,-0.6748,-0.366,0.183,-0.488,158.989,-44.379,-55.058
6969,0.7070,0.2588,-0.6743,-0.244,0.305,-0.305,158.983,-44.379,-55.058
6979,0.7085,0.2559,-0.6753,0.122,0.427,-0.122,158.983,-44.385,-55.058
6989,0.7100,0.2554,-0.6777,0.488,0.610,0.061,158.994,-44.390,-55.058
6999,0.7104,0.2549,-0.6797,0.793,0.610,0.122,159.005,-44.396,-55.058
7009,0.7095,0.2539,-0.6797,0.732,0.427,0.122,159.016,-44.401,-55.058
7019,0.7100,0.2544,-0.6782,0.427,0.122,0.122,159.022,-44.401,-55.058
7029,0.7085,0.2554,-0.6777,0.000,-0.244,0.061,159.027,-44.401,-55.058
7039,0.7085,0.2544,-0.6763,-0.427,-0.610,0.061,159.033,-44.396,-55.058
7049,0.7080,0.2559,-0.6777,-0.671,-0.793,0.122,159.033,-44.390,-55.058
7059,0.7065,0.2573,-0.6748,-0.610,-0.854,0.305,159.033,-44.379,-55.058
7069,0.7036,0.2593,-0.6733,-0.366,-0.793,0.488,159.033,-44.374,-55.058
7079,0.7036,0.2583,-0.6763,0.000,-0.549,0.610,159.044,-44.368,-55.058
7089,0.7051,0.2612,-0.6743,0.305,-0.244,0.610,159.049,-44.368,-55.058
7099,0.7051,0.2622,-0.6743,0.488,0.000,0.549,159.055,-44.368,-55.058
7109,0.7065,0.2607,-0.6782,0.366,0.244,0.366,159.060,-44.374,-55.058
7119,0.7061,0.2612,-0.6748,0.000,0.305,0.183,159.060,-44.374,-55.058
7129,0.7065,0.2637,-0.6768,-0.427,0.183,0.061,159.049,-44.374,-55.058
7139,0.7090,0.2642,-0.6763,-0.610,0.000,-0.122,159.038,-44.374,-55.058
7149,0.7095,0.2656,-0.6748,-0.671,-0.244,-0.244,159.027,-44.368,-55.058
7159,0.7109,0.2642,-0.6738,-0.366,-0.305,-0.244,159.016,-44.368,-55.058
7169,0.7100,0.2593,-0.6743,-0.061,-0.305,-0.305,159.016,-44.368,-55.058
7179,0.7104,0.2563,-0.6753,0.061,-0.244,-0.366,159.016,-44.363,-55.058
7189,0.7095,0.2529,-0.6743,0.000,-0.122,-0.488,159.016,-44.363,-55.058
7199,0.7075,0.2524,-0.6763,-0.183,0.061,-0.488,159.016,-44.363,-55.058
7209,0.7075,0.2524,-0.6758,-0.427,0.061,-0.366,159.011,-44.363,-55.058
7219,0.7070,0.2539,-0.6743,-0.488,-0.122,-0.244,159.011,-44.363,-55.058
7229,0.7051,0.2534,-0.6733,-0.244,-0.305,-0.061,159.011,-44.357,-55.058
7239,0.7065,0.2539,-0.6753,0.183,-0.427,0.244,159.022,-44.357,-55.058
7249,0.7056,0.2544,-0.6753,0.610,-0.488,0.549,159.038,-44.357,-55.058
7259,0.7065,0.2539,-0.6753,0.793,-0.427,0.732,159.055,-44.352,-55.058
7269,0.7065,0.2563,-0.6758,0.854,-0.305,0.793,159.071,-44.352,-55.058
7279,0.7056,0.2583,-0.6748,0.671,-0.183,0.732,159.088,-44.357,-55.058
7289,0.7065,0.2593,-0.6758,0.427,-0.061,0.549,159.099,-44.357,-55.058
7299,0.7080,0.2607,-0.6772,0.122,0.000,0.366,159.099,-44.357,-55.058
7309,0.7075,0.2617,-0.6777,-0.183,-0.244,0.183,159.099,-44.352,-55.058
7319,0.7075,0.2627,-0.6743,-0.427,-0.488,0.122,159.093,-44.352,-55.058
7330,0.7065,0.2622,-0.6738,-0.549,-0.793,0.000,159.088,-44.341,-55.058
7339,0.7041,0.2607,-0.6699,-0.488,-0.854,-0.061,159.082,-44.335,-55.058
7349,0.7056,0.2598,-0.6660,-0.305,-0.732,-0.061,159.077,-44.330,-55.058
7359,0.7046,0.2603,-0.6680,0.000,-0.366,0.000,159.071,-44.330,-55.058
7369,0.7041,0.2607,-0.6709,0.244,0.122,0.000,159.071,-44.330,-55.058
7379,0.7061,0.2598,-0.6724,0.427,0.549,-0.122,159.071,-44.335,-55.058
7389,0.7041,0.2559,-0.6738,0.427,0.916,-0.244,159.071,-44.346,-55.058
7399,0.7085,0.2539,-0.6738,0.183,1.038,-0.366,159.071,-44.357,-55.058
7409,0.7080,0.2534,-0.6772,-0.122,0.977,-0.427,159.066,-44.363,-55.058
7419,0.7100,0.2539,-0.6792,-0.244,0.732,-0.488,159.060,-44.368,-55.058
7429,0.7090,0.2539,-0.6787,-0.244,0.427,-0.488,159.055,-44.368,-55.058
7439,0.7085,0.2529,-0.6807,-0.061,0.061,-0.427,159.055,-44.368,-55.058
7449,0.7085,0.2529,-0.6821,0.183,-0.183,-0.244,159.060,-44.363,-55.058
7459,0.7070,0.2520,-0.6816,0.305,-0.305,-0.122,159.071,-44.363,-55.058
7469,0.7070,0.2510,-0.6831,0.305,-0.366,0.061,159.082,-44.357,-55.058
7479,0.7065,0.2529,-0.6792,0.122,-0.427,0.061,159.093,-44.352,-55.058
7489,0.7056,0.2549,-0.6768,-0.061,-0.610,0.061,159.099,-44.346,-55.058
7499,0.7056,0.2563,-0.6758,-0.244,-0.610,0.122,159.099,-44.341,-55.058
7509,0.7061,0.2573,-0.6753,-0.244,-0.549,0.244,159.099,-44.335,-55.058
7519,0.7075,0.2588,-0.6763,-0.122,-0.427,0.244,159.104,-44.335,-55.058
7529,0.7056,0.2612,-0.6753,0.061,-0.427,0.244,159.104,-44.330,-55.058
7539,0.7056,0.2603,-0.6743,0.061,-0.366,0.183,159.104,-44.324,-55.058
7549,0.7065,0.2622,-0.6738,-0.061,-0.427,0.000,159.104,-44.324,-55.058
7559,0.7061,0.2627,-0.6738,-0.366,-0.427,-0.122,159.099,-44.319,-55.058
7569,0.7061,0.2637,-0.6733,-0.610,-0.488,-0.244,159.082,-44.313,-55.058
7579,0.7070,0.2637,-0.6724,-0.793,-0.366,-0.366,159.071,-44.308,-55.058
7589,0.7056,0.2632,-0.6719,-0.732,-0.183,-0.427,159.055,-44.308,-55.058
7599,0.7061,0.2598,-0.6753,-0.549,-0.122,-0.366,159.044,-44.302,-55.058
7609,0.7065,0.2593,-0.6724,-0.244,0.061,-0.305,159.038,-44.308,-55.058
7619,0.7061,0.2563,-0.6719,0.000,0.244,-0.305,159.038,-44.308,-55.058
7629,0.7065,0.2573,-0.6758,0.061,0.366,-0.305,159.033,-44.313,-55.058
7639,0.7051,0.2534,-0.6777,0.061,0.366,-0.305,159.033,-44.313,-55.058
7649,0.7061,0.2524,-0.6787,-0.061,0.305,-0.305,159.038,-44.313,-55.058
7659,0.7080,0.2549,-0.6768,-0.183,0.183,-0.305,159.033,-44.313,-55.058
7669,0.7075,0.2563,-0.6763,-0.122,0.000,-0.183,159.033,-44.313,-55.058
7679,0.7070,0.2563,-0.6748,0.000,-0.183,-0.061,159.033,-44.313,-55.058
7689,0.7056,0.2554,-0.6758,0.244,-0.183,0.061,159.044,-44.313,-55.058
7699,0.7056,0.2563,-0.6753,0.427,-0.183,0.183,159.049,-44.313,-55.058
7709,0.7061,0.2573,-0.6738,0.549,-0.122,0.244,159.060,-44.313,-55.058
7719,0.7051,0.2593,-0.6743,0.549,-0.061,0.244,159.066,-44.313,-55.058
7729,0.7046,0.2593,-0.6743,0.427,-0.061,0.244,159.071,-44.313,-55.058
7739,0.7080,0.2603,-0.6724,0.305,0.061,0.122,159.071,-44.319,-55.058
7749,0.7080,0.2603,-0.6738,0.122,0.183,0.061,159.071,-44.319,-55.058
7759,0.7075,0.2598,-0.6743,0.061,0.244,0.000,159.071,-44.324,-55.058
7769,0.7061,0.2603,-0.6758,0.000,0.305,-0.061,159.066,-44.324,-55.058
7779,0.7061,0.2583,-0.6768,-0.061,0.366,-0.183,159.066,-44.324,-55.058
7789,0.7051,0.2554,-0.6763,-0.122,0.366,-0.244,159.060,-44.330,-55.058
7799,0.7061,0.2563,-0.6787,-0.244,0.305,-0.427,159.055,-44.330,-55.058
7809,0.7061,0.2544,-0.6768,-0.366,0.183,-0.427,159.049,-44.330,-55.058
7819,0.7041,0.2544,-0.6768,-0.488,0.122,-0.366,159.049,-44.330,-55.058
7830,0.7056,0.2544,-0.6787,-0.366,0.122,-0.366,159.044,-44.330,-55.058
7839,0.7075,0.2539,-0.6787,-0.244,0.122,-0.244,159.044,-44.330,-55.058
7849,0.7070,0.2554,-0.6763,-0.061,0.122,-0.183,159.044,-44.330,-55.058
7859,0.7070,0.2559,-0.6753,0.061,0.061,-0.061,159.044,-44.330,-55.058
7869,0.7075,0.2563,-0.6753,0.122,0.061,0.061,159.049,-44.330,-55.058
7879,0.7114,0.2573,-0.6802,0.244,-0.061,0.122,159.055,-44.330,-55.058
7889,0.7109,0.2568,-0.6802,0.305,0.000,0.122,159.060,-44.335,-55.058
7899,0.7109,0.2573,-0.6763,0.183,-0.183,0.061,159.066,-44.335,-55.058
7909,0.7104,0.2583,-0.6782,0.061,-0.305,-0.061,159.066,-44.330,-55.058
7919,0.7075,0.2583,-0.6763,-0.122,-0.488,-0.122,159.066,-44.324,-55.058
7929,0.7065,0.2578,-0.6768,-0.305,-0.610,-0.183,159.066,-44.319,-55.058
7939,0.7046,0.2559,-0.6709,-0.488,-0.549,-0.183,159.060,-44.313,-55.058
7949,0.7021,0.2549,-0.6709,-0.610,-0.488,-0.244,159.055,-44.313,-55.058
7959,0.7012,0.2524,-0.6724,-0.793,-0.366,-0.305,159.049,-44.308,-55.058
7969,0.7026,0.2549,-0.6714,-0.793,-0.183,-0.244,159.044,-44.302,-55.058
7979,0.7031,0.2563,-0.6714,-0.610,-0.061,-0.122,159.033,-44.302,-55.058
7989,0.7036,0.2573,-0.6724,-0.305,0.183,0.000,159.033,-44.308,-55.058
7999,0.7031,0.2583,-0.6748,0.061,0.549,0.122,159.033,-44.313,-55.058
8009,0.7065,0.2603,-0.6792,0.366,0.854,0.122,159.033,-44.319,-55.058
8019,0.7080,0.2612,-0.6802,0.549,0.977,0.122,159.038,-44.324,-55.058
8029,0.7075,0.2612,-0.6826,0.427,1.099,0.061,159.038,-44.335,-55.058
8039,0.7104,0.2612,-0.6860,0.061,0.977,-0.183,159.033,-44.341,-55.058
8049,0.7124,0.2617,-0.6865,-0.305,0.610,-0.305,159.027,-44.341,-55.058
8059,0.7124,0.2617,-0.6860,-0.671,0.061,-0.549,159.016,-44.341,-55.058
8069,0.7134,0.2598,-0.6836,-0.854,-0.549,-0.671,159.005,-44.330,-55.058
8079,0.7124,0.2583,-0.6807,-0.977,-1.038,-0.671,158.994,-44.319,-55.058
8089,0.7114,0.2549,-0.6753,-0.977,-1.404,-0.671,158.989,-44.308,-55.058
8099,0.7070,0.2549,-0.6729,-0.854,-1.587,-0.549,158.983,-44.291,-55.058
8109,0.7046,0.2529,-0.6694,-0.671,-1.465,-0.366,158.983,-44.280,-55.058
8119,0.7017,0.2539,-0.6685,-0.427,-1.221,-0.244,158.983,-44.269,-55.058
8129,0.7002,0.2529,-0.6660,-0.183,-0.916,-0.061,158.983,-44.264,-55.058
8139,0.6992,0.2549,-0.6689,-0.061,-0.427,0.061,158.989,-44.264,-55.058
8149,0.7007,0.2563,-0.6694,0.061,0.000,0.183,158.989,-44.264,-55.058
8159,0.7012,0.2583,-0.6699,0.183,0.244,0.305,158.994,-44.269,-55.058
8169,0.7026,0.2603,-0.6709,0.244,0.427,0.366,158.994,-44.275,-55.058
8179,0.7036,0.2603,-0.6709,0.305,0.549,0.244,158.994,-44.280,-55.058
8189,0.7041,0.2607,-0.6743,0.305,0.610,0.244,159.000,-44.286,-55.058
8199,0.7070,0.2622,-0.6763,0.183,0.610,0.122,158.994,-44.291,-55.058
8209,0.7051,0.2598,-0.6787,0.000,0.610,0.000,158.994,-44.297,-55.058
8219,0.7056,0.2612,-0.6768,-0.122,0.549,-0.122,158.989,-44.302,-55.058
8229,0.7041,0.2607,-0.6782,-0.244,0.488,-0.305,158.983,-44.302,-55.058
8239,0.7046,0.2612,-0.6787,-0.244,0.366,-0.488,158.972,-44.302,-55.058
8249,0.7056,0.2583,-0.6777,-0.244,0.366,-0.549,158.967,-44.302,-55.058
8259,0.7056,0.2593,-0.6782,-0.183,0.244,-0.549,158.961,-44.302,-55.058
8269,0.7056,0.2549,-0.6787,-0.122,0.183,-0.549,158.961,-44.302,-55.058
8279,0.7065,0.2544,-0.6748,-0.061,0.061,-0.549,158.956,-44.302,-55.058
8289,0.7031,0.2534,-0.6782,0.000,0.000,-0.549,158.956,-44.297,-55.058
8299,0.7036,0.2539,-0.6768,0.000,0.000,-0.366,158.961,-44.297,-55.058
8309,0.7031,0.2549,-0.6738,0.061,0.000,-0.305,158.961,-44.297,-55.058
8319,0.7051,0.2524,-0.6753,0.061,0.122,-0.183,158.961,-44.297,-55.058
8330,0.7051,0.2534,-0.6782,0.122,0.305,-0.122,158.967,-44.297,-55.058
8339,0.7051,0.2529,-0.6772,0.183,0.427,0.061,158.972,-44.302,-55.058
8349,0.7036,0.2520,-0.6758,0.122,0.549,0.061,158.978,-44.308,-55.058
8359,0.7065,0.2534,-0.6768,-0.122,0.549,0.122,158.983,-44.313,-55.058
8369,0.7061,0.2578,-0.6763,-0.366,0.366,0.122,158.983,-44.319,-55.058
8379,0.7051,0.2583,-0.6758,-0.427,0.244,0.244,158.978,-44.319,-55.058
8389,0.7065,0.2598,-0.6743,-0.305,0.061,0.366,158.978,-44.324,-55.058
8399,0.7075,0.2612,-0.6743,-0.122,0.000,0.427,158.978,-44.324,-55.058
8409,0.7065,0.2612,-0.6753,0.061,0.122,0.488,158.983,-44.330,-55.058
8419,0.7061,0.2617,-0.6758,0.183,0.244,0.366,158.983,-44.330,-55.058
8429,0.7046,0.2612,-0.6743,0.122,0.427,0.244,158.983,-44.335,-55.058
8439,0.7065,0.2607,-0.6763,-0.183,0.610,0.000,158.983,-44.341,-55.058
8449,0.7075,0.2598,-0.6787,-0.427,0.610,-0.122,158.972,-44.346,-55.058
8459,0.7075,0.2603,-0.6748,-0.610,0.427,-0.244,158.961,-44.346,-55.058
8469,0.7080,0.2603,-0.6724,-0.610,0.183,-0.305,158.956,-44.346,-55.058
8479,0.7070,0.2603,-0.6719,-0.427,-0.061,-0.244,158.945,-44.346,-55.058
8489,0.7080,0.2593,-0.6719,-0.122,-0.183,-0.183,158.945,-44.346,-55.058
8499,0.7070,0.2559,-0.6724,0.183,-0.061,-0.061,158.945,-44.352,-55.058
8509,0.7061,0.2563,-0.6753,0.305,0.244,0.000,158.950,-44.352,-55.058
8519,0.7051,0.2563,-0.6768,0.305,0.610,0.000,158.956,-44.357,-55.058
8529,0.7075,0.2544,-0.6753,0.244,0.916,0.000,158.961,-44.368,-55.058
8539,0.7070,0.2554,-0.6748,0.061,1.038,0.000,158.961,-44.374,-55.058
8549,0.7080,0.2583,-0.6753,0.000,0.977,0.061,158.956,-44.385,-55.058
8559,0.7095,0.2588,-0.6772,0.000,0.854,0.122,158.956,-44.396,-55.058
8569,0.7075,0.2598,-0.6772,0.122,0.549,0.244,158.956,-44.401,-55.058
8579,0.7080,0.2598,-0.6777,0.305,0.366,0.366,158.967,-44.401,-55.058
8589,0.7085,0.2612,-0.6748,0.488,0.183,0.366,158.972,-44.407,-55.058
8599,0.7070,0.2622,-0.6753,0.671,0.183,0.427,158.978,-44.407,-55.058
8609,0.7056,0.2612,-0.6748,0.671,0.305,0.305,158.983,-44.412,-55.058
8619,0.7080,0.2598,-0.6768,0.488,0.305,0.183,158.989,-44.412,-55.058
8629,0.7109,0.2603,-0.6772,0.183,0.305,0.061,158.994,-44.418,-55.058
8639,0.7114,0.2593,-0.6777,-0.061,0.305,-0.061,158.989,-44.418,-55.058
8649,0.7085,0.2588,-0.6753,-0.183,0.244,-0.122,158.989,-44.423,-55.058
8659,0.7090,0.2588,-0.6772,-0.183,0.061,-0.244,158.983,-44.418,-55.058
8669,0.7085,0.2563,-0.6763,-0.122,-0.122,-0.244,158.983,-44.418,-55.058
8679,0.7090,0.2559,-0.6753,-0.122,-0.244,-0.244,158.983,-44.418,-55.058
8689,0.7065,0.2563,-0.6738,-0.061,-0.305,-0.183,158.983,-44.412,-55.058
8699,0.7046,0.2554,-0.6719,0.000,-0.244,-0.244,158.983,-44.407,-55.058
8709,0.7036,0.2539,-0.6724,-0.061,-0.183,-0.244,158.983,-44.407,-55.058
8719,0.7046,0.2539,-0.6714,-0.122,0.000,-0.183,158.983,-44.407,-55.058
8729,0.7056,0.2539,-0.6714,-0.061,0.183,-0.061,158.989,-44.412,-55.058
8739,0.7056,0.2573,-0.6709,0.061,0.366,0.061,158.989,-44.412,-55.058
8749,0.7090,0.2598,-0.6719,0.305,0.488,0.244,158.989,-44.423,-55.058
8759,0.7104,0.2603,-0.6738,0.549,0.671,0.366,158.994,-44.429,-55.058
8769,0.7104,0.2617,-0.6782,0.793,0.732,0.549,159.005,-44.440,-55.058
8779,0.7109,0.2607,-0.6787,0.977,0.610,0.427,159.016,-44.445,-55.058
8789,0.7090,0.2588,-0.6782,0.854,0.427,0.244,159.027,-44.445,-55.058
8799,0.7075,0.2573,-0.6802,0.305,0.122,-0.061,159.033,-44.445,-55.058
8809,0.7100,0.2568,-0.6797,-0.366,-0.244,-0.305,159.027,-44.440,-55.058
8819,0.7100,0.2578,-0.6772,-0.916,-0.549,-0.427,159.016,-44.434,-55.058
8830,0.7080,0.2583,-0.6758,-1.099,-0.671,-0.427,159.005,-44.429,-55.058
8839,0.7056,0.2593,-0.6748,-0.916,-0.671,-0.305,158.994,-44.418,-55.058
8849,0.7036,0.2573,-0.6758,-0.427,-0.610,-0.122,158.994,-44.412,-55.058
8859,0.7046,0.2559,-0.6733,0.061,-0.488,0.122,159.000,-44.407,-55.058
8869,0.7031,0.2544,-0.6787,0.427,-0.305,0.244,159.011,-44.401,-55.058
8879,0.7046,0.2559,-0.6763,0.488,-0.183,0.305,159.022,-44.401,-55.058
8889,0.7061,0.2578,-0.6733,0.305,-0.122,0.244,159.027,-44.401,-55.058
8899,0.7085,0.2583,-0.6733,0.061,-0.061,0.183,159.033,-44.401,-55.058
8909,0.7100,0.2627,-0.6738,-0.122,0.000,0.183,159.027,-44.401,-55.058
8919,0.7090,0.2651,-0.6719,-0.183,0.000,0.122,159.022,-44.401,-55.058
8929,0.7095,0.2637,-0.6729,-0.183,-0.061,0.000,159.016,-44.401,-55.058
8939,0.7119,0.2637,-0.6748,-0.122,-0.183,-0.122,159.011,-44.401,-55.058
8949,0.7104,0.2607,-0.6738,-0.122,-0.305,-0.183,159.005,-44.401,-55.058
8959,0.7100,0.2588,-0.6719,-0.183,-0.366,-0.244,159.005,-44.396,-55.058
8969,0.7061,0.2568,-0.6714,-0.183,-0.305,-0.305,159.000,-44.396,-55.058
8979,0.7061,0.2563,-0.6714,-0.244,-0.183,-0.305,158.994,-44.396,-55.058
8989,0.7061,0.2563,-0.6689,-0.244,-0.061,-0.244,158.994,-44.396,-55.058
8999,0.7056,0.2559,-0.6729,0.000,0.061,-0.122,158.994,-44.396,-55.058
9009,0.7061,0.2554,-0.6738,0.183,0.183,0.061,159.000,-44.396,-55.058
9019,0.7056,0.2554,-0.6753,0.427,0.244,0.244,159.005,-44.401,-55.058
9029,0.7046,0.2563,-0.6768,0.610,0.244,0.366,159.016,-44.401,-55.058
9039,0.7061,0.2568,-0.6768,0.671,0.000,0.427,159.027,-44.401,-55.058
9049,0.7061,0.2588,-0.6768,0.671,-0.061,0.488,159.044,-44.401,-55.058
9059,0.7085,0.2583,-0.6753,0.610,0.000,0.427,159.049,-44.401,-55.058
9069,0.7085,0.2588,-0.6748,0.488,-0.061,0.366,159.060,-44.407,-55.058
9079,0.7090,0.2603,-0.6743,0.244,-0.183,0.244,159.060,-44.407,-55.058
9089,0.7070,0.2593,-0.6743,0.000,-0.366,0.061,159.066,-44.401,-55.058
9099,0.7056,0.2578,-0.6748,-0.244,-0.488,0.061,159.066,-44.396,-55.058
9109,0.7031,0.2593,-0.6729,-0.305,-0.488,0.122,159.060,-44.390,-55.058
9119,0.7031,0.2598,-0.6689,-0.183,-0.244,0.183,159.060,-44.390,-55.058
9129,0.7012,0.2593,-0.6699,0.000,0.000,0.183,159.060,-44.390,-55.058
9139,0.7007,0.2598,-0.6714,0.244,0.305,0.122,159.060,-44.390,-55.058
9149,0.7031,0.2603,-0.6719,0.427,0.549,0.122,159.060,-44.396,-55.058
9159,0.7046,0.2583,-0.6729,0.427,0.671,0.061,159.060,-44.401,-55.058
9169,0.7080,0.2578,-0.6748,0.427,0.793,0.000,159.066,-44.412,-55.058
9179,0.7075,0.2559,-0.6758,0.305,0.916,-0.122,159.066,-44.418,-55.058
9189,0.7061,0.2568,-0.6777,0.122,0.916,-0.183,159.066,-44.423,-55.058
9199,0.7085,0.2563,-0.6787,0.000,0.793,-0.183,159.060,-44.429,-55.058
9209,0.7095,0.2559,-0.6782,0.000,0.549,-0.244,159.060,-44.434,-55.058
9219,0.7090,0.2534,-0.6792,0.000,0.244,-0.244,159.060,-44.434,-55.058
9229,0.7061,0.2563,-0.6763,0.000,0.000,-0.244,159.060,-44.434,-55.058
9239,0.7080,0.2563,-0.6772,0.000,-0.183,-0.122,159.060,-44.429,-55.058
9249,0.7070,0.2544,-0.6763,0.061,-0.244,0.000,159.066,-44.429,-55.058
9259,0.7056,0.2549,-0.6758,0.061,-0.305,0.061,159.071,-44.423,-55.058
9269,0.7056,0.2554,-0.6753,0.061,-0.305,0.183,159.077,-44.423,-55.058
9279,0.7036,0.2588,-0.6768,0.122,-0.305,0.244,159.082,-44.418,-55.058
9289,0.7070,0.2578,-0.6768,0.183,-0.122,0.366,159.088,-44.418,-55.058
9299,0.7085,0.2603,-0.6753,0.366,0.061,0.427,159.093,-44.418,-55.058
9309,0.7080,0.2607,-0.6738,0.427,0.183,0.366,159.099,-44.423,-55.058
9319,0.7065,0.2622,-0.6714,0.366,0.183,0.244,159.099,-44.423,-55.058
9330,0.7075,0.2607,-0.6753,0.305,0.244,0.061,159.099,-44.423,-55.058
9339,0.7104,0.2612,-0.6743,0.061,0.183,-0.122,159.093,-44.429,-55.058
9349,0.7104,0.2593,-0.6758,-0.244,0.122,-0.305,159.088,-44.429,-55.058
9359,0.7090,0.2607,-0.6733,-0.488,-0.061,-0.427,159.077,-44.429,-55.058
9369,0.7080,0.2598,-0.6743,-0.610,-0.122,-0.427,159.066,-44.423,-55.058
9379,0.7065,0.2588,-0.6753,-0.366,0.000,-0.305,159.060,-44.423,-55.058
9389,0.7065,0.2559,-0.6748,-0.061,0.061,-0.122,159.060,-44.423,-55.058
9399,0.7065,0.2549,-0.6738,0.244,0.183,0.000,159.066,-44.423,-55.058
9409,0.7085,0.2544,-0.6738,0.427,0.366,0.061,159.071,-44.429,-55.058
9419,0.7061,0.2534,-0.6743,0.488,0.488,0.122,159.077,-44.434,-55.058
9429,0.7065,0.2563,-0.6753,0.427,0.488,0.183,159.082,-44.440,-55.058
9439,0.7065,0.2563,-0.6782,0.366,0.427,0.244,159.088,-44.440,-55.058
9449,0.7075,0.2578,-0.6777,0.366,0.366,0.244,159.093,-44.445,-55.058
9459,0.7075,0.2573,-0.6777,0.488,0.244,0.305,159.104,-44.445,-55.058
9469,0.7056,0.2573,-0.6777,0.488,0.000,0.305,159.109,-44.445,-55.058
9479,0.7090,0.2593,-0.6763,0.427,-0.122,0.305,159.120,-44.445,-55.058
9489,0.7090,0.2588,-0.6738,0.366,-0.183,0.244,159.120,-44.445,-55.058
9499,0.7090,0.2603,-0.6733,0.183,-0.122,0.122,159.126,-44.445,-55.058
9509,0.7075,0.2593,-0.6738,0.061,-0.061,0.061,159.126,-44.445,-55.058
9519,0.7061,0.2593,-0.6743,0.000,0.061,-0.061,159.120,-44.445,-55.058
9529,0.7080,0.2583,-0.6743,0.000,0.183,-0.061,159.120,-44.445,-55.058
9539,0.7056,0.2593,-0.6738,0.061,0.183,-0.061,159.115,-44.445,-55.058
9549,0.7080,0.2598,-0.6724,0.122,0.305,-0.061,159.115,-44.445,-55.058
9559,0.7021,0.2583,-0.6719,0.244,0.305,0.000,159.115,-44.451,-55.058
9569,0.7021,0.2578,-0.6738,0.305,0.305,0.000,159.115,-44.451,-55.058
9579,0.7056,0.2549,-0.6729,0.244,0.305,-0.061,159.115,-44.451,-55.058
9589,0.7056,0.2563,-0.6724,0.122,0.305,-0.061,159.115,-44.456,-55.058
9599,0.7075,0.2583,-0.6748,-0.061,0.366,0.000,159.115,-44.456,-55.058
9609,0.7104,0.2578,-0.6743,0.000,0.427,0.122,159.115,-44.462,-55.058
9619,0.7109,0.2583,-0.6772,0.244,0.610,0.183,159.115,-44.467,-55.058
9629,0.7109,0.2573,-0.6797,0.610,0.488,0.244,159.126,-44.473,-55.058
9639,0.7100,0.2563,-0.6782,0.793,0.366,0.244,159.137,-44.478,-55.058
9649,0.7104,0.2549,-0.6782,0.671,0.183,0.183,159.142,-44.478,-55.058
9659,0.7109,0.2568,-0.6787,0.305,-0.122,0.122,159.148,-44.478,-55.058
9669,0.7100,0.2578,-0.6772,-0.122,-0.305,0.000,159.148,-44.473,-55.058
9679,0.7100,0.2568,-0.6758,-0.427,-0.366,-0.061,159.148,-44.473,-55.058
9689,0.7075,0.2549,-0.6782,-0.610,-0.305,-0.061,159.142,-44.467,-55.058
9699,0.7046,0.2549,-0.6743,-0.549,-0.305,0.000,159.142,-44.462,-55.058
9709,0.7046,0.2554,-0.6753,-0.244,-0.305,0.183,159.142,-44.462,-55.058
9719,0.7056,0.2573,-0.6738,0.183,-0.244,0.366,159.148,-44.456,-55.058
9729,0.7036,0.2573,-0.6748,0.488,-0.122,0.549,159.159,-44.456,-55.058
9739,0.7061,0.2578,-0.6768,0.671,0.000,0.549,159.170,-44.456,-55.058
9749,0.7075,0.2583,-0.6777,0.671,0.183,0.488,159.181,-44.456,-55.058
9759,0.7070,0.2603,-0.6753,0.427,0.305,0.305,159.181,-44.462,-55.058
9769,0.7095,0.2607,-0.6772,0.061,0.305,0.183,159.181,-44.462,-55.058
9779,0.7124,0.2598,-0.6772,-0.183,0.244,-0.061,159.175,-44.467,-55.058
9789,0.7129,0.2612,-0.6782,-0.427,0.061,-0.122,159.170,-44.467,-55.058
9799,0.7114,0.2622,-0.6777,-0.488,-0.122,-0.183,159.159,-44.462,-55.058
9809,0.7114,0.2612,-0.6753,-0.366,-0.305,-0.183,159.153,-44.462,-55.058
9819,0.7109,0.2583,-0.6724,-0.244,-0.549,-0.244,159.148,-44.456,-55.058
9830,0.7100,0.2578,-0.6714,-0.122,-0.732,-0.305,159.148,-44.451,-55.058
9839,0.7061,0.2568,-0.6694,0.000,-0.671,-0.366,159.142,-44.445,-55.058
9849,0.7051,0.2554,-0.6689,0.000,-0.488,-0.305,159.142,-44.440,-55.058
9859,0.7051,0.2539,-0.6709,-0.122,-0.244,-0.305,159.137,-44.440,-55.058
9869,0.7046,0.2524,-0.6719,-0.061,0.122,-0.244,159.137,-44.440,-55.058
9879,0.7056,0.2539,-0.6743,0.000,0.366,-0.122,159.137,-44.440,-55.058
9889,0.7065,0.2544,-0.6729,0.244,0.427,0.122,159.142,-44.445,-55.058
9899,0.7075,0.2554,-0.6733,0.549,0.366,0.366,159.153,-44.451,-55.058
9909,0.7085,0.2573,-0.6758,0.732,0.244,0.488,159.159,-44.456,-55.058
9919,0.7065,0.2563,-0.6787,0.854,0.183,0.427,159.175,-44.456,-55.058
9929,0.7080,0.2549,-0.6792,0.732,0.061,0.366,159.186,-44.456,-55.058
9939,0.7085,0.2529,-0.6782,0.366,-0.061,0.244,159.197,-44.456,-55.058
9949,0.7070,0.2549,-0.6768,-0.122,-0.183,0.183,159.197,-44.456,-55.058
9959,0.7061,0.2559,-0.6738,-0.427,-0.366,0.122,159.197,-44.451,-55.058
9969,0.7065,0.2588,-0.6738,-0.427,-0.305,0.183,159.192,-44.445,-55.058
9979,0.7056,0.2617,-0.6738,-0.183,-0.244,0.244,159.192,-44.445,-55.058
9989,0.7041,0.2603,-0.6753,0.244,-0.122,0.366,159.197,-44.445,-55.058
9999,0.7031,0.2588,-0.6772,0.610,-0.061,0.305,159.203,-44.440,-55.058
10009,0.7046,0.2573,-0.6753,0.610,0.000,0.183,159.208,-44.440,-55.058
10019,0.7061,0.2559,-0.6758,0.305,0.000,0.061,159.214,-44.440,-55.058
10029,0.7085,0.2578,-0.6787,-0.061,-0.061,-0.061,159.214,-44.434,-55.058
10039,0.7061,0.2593,-0.6753,-0.366,-0.122,-0.183,159.208,-44.434,-55.058
10049,0.7031,0.2588,-0.6729,-0.366,-0.122,-0.183,159.197,-44.429,-55.058
10059,0.7075,0.2593,-0.6753,-0.183,0.000,-0.061,159.192,-44.429,-55.058
10069,0.7075,0.2563,-0.6729,0.122,0.122,0.000,159.192,-44.434,-55.058
10079,0.7065,0.2563,-0.6748,0.366,0.305,0.061,159.197,-44.434,-55.058
10089,0.7075,0.2529,-0.6768,0.427,0.427,0.061,159.203,-44.440,-55.058
10099,0.7056,0.2534,-0.6743,0.305,0.427,0.000,159.208,-44.440,-55.058
10109,0.7065,0.2563,-0.6753,0.122,0.366,-0.061,159.208,-44.445,-55.058
10119,0.7085,0.2554,-0.6743,-0.061,0.305,-0.061,159.203,-44.445,-55.058
10129,0.7085,0.2573,-0.6753,-0.061,0.000,0.000,159.203,-44.445,-55.058
10139,0.7095,0.2573,-0.6748,0.000,-0.122,0.122,159.203,-44.445,-55.058
10149,0.7085,0.2573,-0.6758,0.183,-0.183,0.244,159.208,-44.445,-55.058
10159,0.7095,0.2588,-0.6768,0.366,-0.183,0.366,159.214,-44.445,-55.058
10169,0.7085,0.2593,-0.6763,0.549,0.000,0.366,159.219,-44.445,-55.058
10179,0.7075,0.2568,-0.6758,0.610,0.122,0.244,159.230,-44.451,-55.058
10189,0.7075,0.2578,-0.6743,0.305,0.122,0.000,159.230,-44.451,-55.058
10199,0.7056,0.2578,-0.6738,-0.061,0.000,-0.183,159.225,-44.445,-55.058
10209,0.7085,0.2588,-0.6748,-0.427,-0.244,-0.183,159.219,-44.445,-55.058
10219,0.7095,0.2573,-0.6719,-0.549,-0.366,-0.122,159.214,-44.440,-55.058
10229,0.7075,0.2573,-0.6709,-0.427,-0.427,-0.061,159.208,-44.440,-55.058
10239,0.7070,0.2578,-0.6699,-0.061,-0.366,0.061,159.203,-44.440,-55.058
10249,0.7061,0.2588,-0.6709,0.305,-0.244,0.122,159.208,-44.434,-55.058
10259,0.7070,0.2583,-0.6743,0.488,0.000,0.122,159.214,-44.434,-55.058
10269,0.7070,0.2563,-0.6738,0.488,0.244,0.061,159.214,-44.440,-55.058
10279,0.7075,0.2559,-0.6729,0.244,0.366,-0.061,159.214,-44.445,-55.058
10289,0.7080,0.2539,-0.6763,-0.061,0.427,-0.183,159.214,-44.445,-55.058
10299,0.7085,0.2578,-0.6763,-0.366,0.366,-0.244,159.208,-44.451,-55.058
10309,0.7061,0.2563,-0.6758,-0.488,0.122,-0.183,159.197,-44.445,-55.058
10319,0.7080,0.2593,-0.6719,-0.305,-0.061,-0.061,159.192,-44.445,-55.058
10330,0.7065,0.2583,-0.6729,0.122,-0.122,0.122,159.192,-44.445,-55.058
10339,0.7056,0.2563,-0.6748,0.427,-0.061,0.244,159.203,-44.445,-55.058
10349,0.7065,0.2554,-0.6743,0.671,0.061,0.305,159.208,-44.445,-55.058
10359,0.7046,0.2554,-0.6782,0.732,0.244,0.244,159.219,-44.445,-55.058
10369,0.7065,0.2568,-0.6763,0.488,0.366,0.183,159.225,-44.451,-55.058
10379,0.7061,0.2563,-0.6782,0.244,0.366,0.122,159.230,-44.451,-55.058
10389,0.7085,0.2578,-0.6753,0.000,0.366,0.122,159.225,-44.456,-55.058
10399,0.7104,0.2607,-0.6768,0.000,0.183,0.061,159.225,-44.456,-55.058
10409,0.7090,0.2583,-0.6719,0.061,0.061,0.061,159.225,-44.462,-55.058
10419,0.7075,0.2583,-0.6748,0.122,-0.061,0.122,159.225,-44.462,-55.058
10429,0.7085,0.2573,-0.6748,0.244,-0.061,0.122,159.225,-44.462,-55.058
10439,0.7075,0.2573,-0.6748,0.244,-0.061,0.061,159.230,-44.456,-55.058
10449,0.7075,0.2554,-0.6748,0.183,0.061,-0.061,159.230,-44.456,-55.058
10459,0.7065,0.2568,-0.6743,0.000,0.122,-0.183,159.225,-44.456,-55.058
10469,0.7070,0.2554,-0.6748,-0.183,0.122,-0.305,159.219,-44.456,-55.058
10479,0.7065,0.2534,-0.6729,-0.427,0.122,-0.427,159.214,-44.456,-55.058
10489,0.7026,0.2539,-0.6733,-0.549,0.061,-0.366,159.208,-44.456,-55.058
10499,0.7041,0.2554,-0.6699,-0.427,0.122,-0.183,159.197,-44.456,-55.058
10509,0.7051,0.2559,-0.6738,-0.183,0.244,0.061,159.197,-44.462,-55.058
10519,0.7061,0.2559,-0.6748,0.244,0.366,0.305,159.203,-44.462,-55.058
10529,0.7065,0.2559,-0.6763,0.732,0.549,0.366,159.214,-44.467,-55.058
10539,0.7070,0.2568,-0.6763,0.854,0.610,0.305,159.219,-44.473,-55.058
10549,0.7075,0.2573,-0.6772,0.610,0.488,0.183,159.225,-44.478,-55.058
10559,0.7095,0.2559,-0.6777,0.183,0.183,0.000,159.230,-44.478,-55.058
10569,0.7065,0.2573,-0.6768,-0.427,-0.122,-0.183,159.225,-44.478,-55.058
10579,0.7075,0.2578,-0.6748,-0.854,-0.366,-0.244,159.214,-44.473,-55.058
10589,0.7056,0.2588,-0.6724,-0.854,-0.427,-0.244,159.197,-44.467,-55.058
10599,0.7080,0.2573,-0.6743,-0.610,-0.244,-0.122,159.192,-44.462,-55.058
10609,0.7085,0.2563,-0.6729,-0.183,0.061,0.000,159.192,-44.462,-55.058
10619,0.7085,0.2563,-0.6748,0.183,0.427,0.000,159.192,-44.467,-55.058
10629,0.7065,0.2554,-0.6763,0.366,0.610,0.000,159.192,-44.473,-55.058
10639,0.7065,0.2563,-0.6797,0.305,0.732,0.000,159.197,-44.478,-55.058
10649,0.7070,0.2573,-0.6802,0.122,0.732,-0.061,159.192,-44.478,-55.058
10659,0.7104,0.2607,-0.6831,-0.061,0.366,-0.122,159.192,-44.478,-55.058
10669,0.7134,0.2598,-0.6816,-0.183,0.122,-0.122,159.186,-44.478,-55.058
10679,0.7144,0.2598,-0.6812,-0.244,-0.122,-0.122,159.181,-44.478,-55.058
10689,0.7139,0.2578,-0.6772,-0.244,-0.366,-0.061,159.181,-44.478,-55.058
10699,0.7148,0.2603,-0.6777,-0.244,-0.488,-0.122,159.175,-44.473,-55.058
10709,0.7134,0.2573,-0.6738,-0.366,-0.732,-0.122,159.175,-44.467,-55.058
10719,0.7104,0.2578,-0.6724,-0.488,-0.793,-0.244,159.170,-44.462,-55.058
10729,0.7070,0.2583,-0.6704,-0.549,-0.854,-0.305,159.159,-44.451,-55.058
10739,0.7070,0.2539,-0.6680,-0.549,-0.671,-0.305,159.153,-44.445,-55.058
10749,0.7065,0.2554,-0.6660,-0.488,-0.488,-0.244,159.148,-44.445,-55.058
10759,0.7065,0.2554,-0.6665,-0.427,-0.305,-0.122,159.142,-44.445,-55.058
10769,0.7056,0.2549,-0.6680,-0.244,-0.061,0.061,159.142,-44.445,-55.058
10779,0.7026,0.2549,-0.6660,0.000,0.305,0.244,159.142,-44.451,-55.058
10789,0.7031,0.2563,-0.6733,0.244,0.549,0.366,159.142,-44.456,-55.058
10799,0.7046,0.2578,-0.6772,0.549,0.671,0.488,159.153,-44.462,-55.058
10809,0.7036,0.2593,-0.6758,0.732,0.732,0.488,159.159,-44.467,-55.058
10819,0.7065,0.2593,-0.6797,0.671,0.610,0.427,159.170,-44.473,-55.058
10830,0.7075,0.2607,-0.6787,0.610,0.366,0.305,159.175,-44.473,-55.058
10839,0.7109,0.2603,-0.6807,0.427,0.122,0.122,159.175,-44.473,-55.058
10849,0.7075,0.2598,-0.6807,0.122,-0.122,-0.061,159.181,-44.467,-55.058
10859,0.7061,0.2607,-0.6763,-0.183,-0.366,-0.244,159.175,-44.462,-55.058
10869,0.7061,0.2573,-0.6733,-0.366,-0.610,-0.305,159.170,-44.456,-55.058
10879,0.7051,0.2559,-0.6748,-0.366,-0.671,-0.305,159.164,-44.445,-55.058
10889,0.7061,0.2568,-0.6738,-0.183,-0.549,-0.305,159.159,-44.440,-55.058
10899,0.7056,0.2559,-0.6753,0.000,-0.366,-0.366,159.159,-44.434,-55.058
10909,0.7046,0.2539,-0.6729,0.183,-0.061,-0.366,159.159,-44.434,-55.058
10919,0.7041,0.2534,-0.6714,0.183,0.122,-0.305,159.159,-44.434,-55.058
10929,0.7051,0.2534,-0.6719,0.122,0.183,-0.122,159.159,-44.434,-55.058
10939,0.7056,0.2544,-0.6724,0.000,0.305,-0.061,159.159,-44.440,-55.058
10949,0.7056,0.2529,-0.6758,0.000,0.366,0.000,159.164,-44.440,-55.058
10959,0.7051,0.2539,-0.6768,0.000,0.427,0.122,159.164,-44.445,-55.058
10969,0.7056,0.2534,-0.6772,0.061,0.488,0.183,159.170,-44.451,-55.058
10979,0.7065,0.2539,-0.6792,0.061,0.488,0.183,159.175,-44.451,-55.058
10989,0.7065,0.2554,-0.6792,0.000,0.427,0.244,159.175,-44.456,-55.058
10999,0.7046,0.2549,-0.6816,-0.183,0.305,0.183,159.175,-44.456,-55.058
11009,0.7056,0.2563,-0.6807,-0.366,0.183,0.122,159.175,-44.451,-55.058
11019,0.7070,0.2568,-0.6787,-0.610,-0.061,0.061,159.170,-44.451,-55.058
11029,0.7095,0.2593,-0.6768,-0.671,-0.305,0.122,159.164,-44.445,-55.058
11039,0.7080,0.2588,-0.6743,-0.671,-0.427,0.183,159.159,-44.445,-55.058
11049,0.7056,0.2593,-0.6709,-0.427,-0.244,0.122,159.153,-44.445,-55.058
11059,0.7046,0.2578,-0.6709,-0.305,-0.061,0.122,159.153,-44.445,-55.058
11069,0.7065,0.2603,-0.6709,-0.427,0.183,0.000,159.142,-44.445,-55.058
11079,0.7080,0.2598,-0.6694,-0.549,0.366,-0.061,159.131,-44.451,-55.058
11089,0.7070,0.2593,-0.6714,-0.549,0.488,-0.122,159.120,-44.456,-55.058
11099,0.7075,0.2588,-0.6694,-0.488,0.549,-0.122,159.109,-44.462,-55.058
11109,0.7065,0.2593,-0.6689,-0.305,0.610,-0.122,159.104,-44.467,-55.058
11119,0.7065,0.2603,-0.6733,-0.183,0.549,-0.122,159.093,-44.473,-55.058
11129,0.7070,0.2583,-0.6714,-0.122,0.610,-0.122,159.088,-44.478,-55.058
11139,0.7070,0.2588,-0.6738,-0.122,0.671,-0.061,159.082,-44.484,-55.058
11149,0.7075,0.2593,-0.6743,-0.061,0.793,0.000,159.082,-44.489,-55.058
11159,0.7095,0.2578,-0.6753,0.000,0.916,0.000,159.077,-44.495,-55.058
11169,0.7104,0.2578,-0.6777,0.122,1.038,0.000,159.077,-44.506,-55.058
11179,0.7095,0.2559,-0.6816,0.122,1.038,0.000,159.077,-44.511,-55.058
11189,0.7095,0.2578,-0.6802,0.122,0.793,0.000,159.077,-44.517,-55.058
11199,0.7080,0.2573,-0.6797,0.000,0.488,0.000,159.077,-44.522,-55.058
11209,0.7090,0.2568,-0.6768,-0.183,0.061,0.000,159.077,-44.517,-55.058
11219,0.7090,0.2573,-0.6753,-0.244,-0.366,0.061,159.077,-44.517,-55.058
11229,0.7095,0.2603,-0.6738,-0.244,-0.610,0.122,159.077,-44.511,-55.058
11239,0.7100,0.2603,-0.6743,-0.122,-0.732,0.183,159.077,-44.506,-55.058
11249,0.7100,0.2578,-0.6714,0.122,-0.671,0.244,159.082,-44.500,-55.058
11259,0.7085,0.2598,-0.6694,0.244,-0.427,0.244,159.082,-44.500,-55.058
11269,0.7085,0.2588,-0.6709,0.183,-0.122,0.183,159.088,-44.500,-55.058
11279,0.7070,0.2598,-0.6719,0.061,0.122,0.061,159.088,-44.500,-55.058
11289,0.7100,0.2603,-0.6729,-0.061,0.305,-0.061,159.082,-44.506,-55.058
11299,0.7095,0.2568,-0.6738,-0.183,0.366,-0.122,159.077,-44.506,-55.058
11309,0.7075,0.2563,-0.6748,-0.244,0.244,-0.122,159.071,-44.506,-55.058
11319,0.7075,0.2578,-0.6714,-0.244,0.000,-0.122,159.071,-44.506,-55.058
11330,0.7021,0.2578,-0.6685,-0.305,-0.183,-0.122,159.066,-44.506,-55.058
11339,0.7065,0.2573,-0.6680,-0.122,-0.305,0.000,159.060,-44.506,-55.058
11349,0.7070,0.2583,-0.6689,0.061,-0.183,0.061,159.060,-44.500,-55.058
11359,0.7070,0.2593,-0.6694,0.366,0.122,0.183,159.066,-44.506,-55.058
11369,0.7080,0.2588,-0.6719,0.671,0.488,0.305,159.071,-44.511,-55.058
11379,0.7104,0.2588,-0.6743,0.977,0.793,0.305,159.082,-44.522,-55.058
11389,0.7114,0.2578,-0.6729,1.038,0.854,0.122,159.088,-44.528,-55.058
11399,0.7104,0.2563,-0.6797,0.732,0.549,0.000,159.099,-44.533,-55.058
11409,0.7090,0.2549,-0.6782,0.183,0.122,-0.183,159.099,-44.533,-55.058
11419,0.7100,0.2583,-0.6768,-0.305,-0.366,-0.305,159.093,-44.528,-55.058
11429,0.7080,0.2563,-0.6748,-0.549,-0.610,-0.305,159.088,-44.517,-55.058
11439,0.7061,0.2573,-0.6704,-0.427,-0.671,-0.183,159.088,-44.511,-55.058
11449,0.7065,0.2578,-0.6714,-0.122,-0.488,-0.061,159.082,-44.506,-55.058
11459,0.7031,0.2588,-0.6743,0.305,-0.244,0.061,159.088,-44.500,-55.058
11469,0.7051,0.2559,-0.6748,0.610,0.061,0.183,159.099,-44.500,-55.058
11479,0.7056,0.2573,-0.6777,0.610,0.244,0.183,159.104,-44.500,-55.058
11489,0.7065,0.2568,-0.6797,0.488,0.366,0.122,159.109,-44.506,-55.058
11499,0.7080,0.2583,-0.6812,0.183,0.305,0.122,159.115,-44.506,-55.058
11509,0.7090,0.2607,-0.6797,-0.061,0.122,0.061,159.115,-44.500,-55.058
11519,0.7100,0.2612,-0.6816,-0.183,-0.183,0.061,159.109,-44.500,-55.058
11529,0.7104,0.2617,-0.6768,-0.183,-0.488,0.122,159.109,-44.495,-55.058
11539,0.7139,0.2607,-0.6743,-0.122,-0.671,0.061,159.109,-44.489,-55.058
11549,0.7144,0.2617,-0.6719,0.000,-0.793,0.000,159.109,-44.484,-55.058
11559,0.7124,0.2588,-0.6729,0.000,-0.732,-0.122,159.109,-44.478,-55.058
11569,0.7104,0.2588,-0.6699,-0.122,-0.732,-0.244,159.104,-44.473,-55.058
11579,0.7104,0.2549,-0.6719,-0.305,-0.549,-0.427,159.099,-44.467,-55.058
11589,0.7070,0.2549,-0.6680,-0.488,-0.427,-0.427,159.093,-44.467,-55.058
11599,0.7070,0.2539,-0.6685,-0.549,-0.305,-0.427,159.088,-44.462,-55.058
11609,0.7065,0.2539,-0.6675,-0.427,-0.244,-0.244,159.082,-44.462,-55.058
11619,0.7051,0.2549,-0.6665,-0.122,-0.183,0.000,159.082,-44.462,-55.058
11629,0.7046,0.2568,-0.6680,0.244,0.000,0.366,159.088,-44.467,-55.058
11639,0.7046,0.2559,-0.6694,0.671,0.183,0.610,159.099,-44.467,-55.058
11649,0.7051,0.2583,-0.6729,0.916,0.305,0.671,159.109,-44.473,-55.058
11659,0.7056,0.2603,-0.6738,1.038,0.366,0.610,159.120,-44.478,-55.058
11669,0.7085,0.2593,-0.6777,0.916,0.244,0.427,159.131,-44.478,-55.058
11679,0.7056,0.2588,-0.6772,0.549,0.183,0.244,159.142,-44.484,-55.058
11689,0.7095,0.2612,-0.6738,0.183,0.000,0.183,159.142,-44.484,-55.058
11699,0.7104,0.2593,-0.6733,-0.061,-0.244,0.122,159.142,-44.478,-55.058
11709,0.7080,0.2593,-0.6733,-0.122,-0.427,0.000,159.137,-44.478,-55.058
11719,0.7061,0.2598,-0.6733,0.000,-0.610,0.000,159.137,-44.473,-55.058
11729,0.7051,0.2593,-0.6704,0.122,-0.610,0.000,159.137,-44.462,-55.058
11739,0.7046,0.2588,-0.6709,0.305,-0.488,0.061,159.142,-44.462,-55.058
11749,0.7041,0.2607,-0.6685,0.427,-0.183,0.061,159.142,-44.456,-55.058
11759,0.7051,0.2593,-0.6694,0.610,0.122,0.061,159.142,-44.462,-55.058
11769,0.7065,0.2563,-0.6709,0.671,0.488,-0.061,159.148,-44.467,-55.058
11779,0.7070,0.2568,-0.6733,0.488,0.610,-0.183,159.148,-44.473,-55.058
11789,0.7104,0.2559,-0.6743,0.244,0.671,-0.244,159.148,-44.478,-55.058
11799,0.7109,0.2554,-0.6738,0.061,0.549,-0.244,159.148,-44.484,-55.058
11809,0.7104,0.2573,-0.6782,0.061,0.366,-0.183,159.142,-44.484,-55.058
11819,0.7100,0.2554,-0.6768,0.061,0.183,-0.122,159.142,-44.484,-55.058
11830,0.7100,0.2573,-0.6797,0.244,0.061,0.000,159.148,-44.484,-55.058
11839,0.7080,0.2549,-0.6787,0.427,0.000,0.183,159.159,-44.484,-55.058
11849,0.7080,0.2544,-0.6792,0.427,0.000,0.244,159.164,-44.484,-55.058
11859,0.7080,0.2544,-0.6782,0.366,-0.122,0.122,159.175,-44.484,-55.058
11869,0.7085,0.2563,-0.6782,0.183,-0.183,0.122,159.181,-44.478,-55.058
11879,0.7080,0.2568,-0.6758,-0.061,-0.244,0.061,159.181,-44.478,-55.058
11889,0.7085,0.2573,-0.6733,-0.183,-0.427,0.061,159.181,-44.473,-55.058
11899,0.7100,0.2578,-0.6729,-0.244,-0.671,0.061,159.175,-44.467,-55.058
11909,0.7104,0.2603,-0.6714,-0.122,-0.854,0.122,159.175,-44.462,-55.058
11919,0.7095,0.2598,-0.6694,0.061,-0.916,0.061,159.175,-44.456,-55.058
11929,0.7085,0.2593,-0.6714,0.244,-0.916,0.061,159.181,-44.451,-55.058
11939,0.7075,0.2612,-0.6685,0.244,-0.671,0.061,159.181,-44.445,-55.058
11949,0.7065,0.2607,-0.6689,0.122,-0.427,-0.061,159.175,-44.440,-55.058
11959,0.7070,0.2593,-0.6665,-0.122,-0.244,-0.244,159.170,-44.440,-55.058
11969,0.7051,0.2598,-0.6694,-0.244,-0.122,-0.366,159.164,-44.440,-55.058
11979,0.7080,0.2603,-0.6694,-0.305,0.000,-0.427,159.153,-44.440,-55.058
11989,0.7080,0.2598,-0.6714,-0.244,0.122,-0.366,159.142,-44.440,-55.058
11999,0.7095,0.2578,-0.6724,-0.122,0.183,-0.305,159.137,-44.440,-55.058
12009,0.7090,0.2578,-0.6738,0.061,0.183,-0.183,159.131,-44.445,-55.058
12019,0.7085,0.2568,-0.6753,0.305,0.244,-0.061,159.137,-44.445,-55.058
12029,0.7080,0.2554,-0.6748,0.427,0.305,0.000,159.142,-44.451,-55.058
12039,0.7070,0.2554,-0.6758,0.427,0.305,0.000,159.142,-44.451,-55.058
12049,0.7061,0.2559,-0.6772,0.427,0.305,-0.061,159.148,-44.451,-55.058
12059,0.7070,0.2563,-0.6763,0.244,0.183,-0.061,159.153,-44.451,-55.058
12069,0.7085,0.2573,-0.6777,0.183,-0.061,-0.061,159.153,-44.451,-55.058
12079,0.7095,0.2583,-0.6763,0.061,-0.305,-0.061,159.153,-44.445,-55.058
12089,0.7095,0.2559,-0.6748,0.061,-0.488,0.061,159.159,-44.445,-55.058
12099,0.7090,0.2573,-0.6719,0.244,-0.549,0.122,159.159,-44.440,-55.058
12109,0.7104,0.2583,-0.6733,0.366,-0.488,0.305,159.170,-44.440,-55.058
12119,0.7075,0.2593,-0.6724,0.488,-0.366,0.305,159.175,-44.434,-55.058
12129,0.7085,0.2607,-0.6709,0.549,-0.244,0.305,159.181,-44.434,-55.058
12139,0.7061,0.2607,-0.6733,0.488,-0.061,0.305,159.181,-44.434,-55.058
12149,0.7065,0.2593,-0.6729,0.427,0.061,0.183,159.186,-44.440,-55.058
12159,0.7070,0.2617,-0.6709,0.305,0.061,0.061,159.186,-44.440,-55.058
12169,0.7051,0.2588,-0.6699,0.122,-0.061,-0.183,159.181,-44.440,-55.058
12179,0.7041,0.2568,-0.6704,-0.122,-0.122,-0.305,159.175,-44.434,-55.058
12189,0.7080,0.2563,-0.6685,-0.305,-0.122,-0.305,159.170,-44.434,-55.058
12199,0.7075,0.2593,-0.6685,-0.305,-0.061,-0.244,159.159,-44.434,-55.058
12209,0.7100,0.2583,-0.6714,-0.061,0.183,-0.122,159.159,-44.440,-55.058
12219,0.7100,0.2578,-0.6719,0.427,0.488,0.061,159.159,-44.445,-55.058
12229,0.7114,0.2563,-0.6748,0.854,0.732,0.183,159.164,-44.456,-55.058
12239,0.7090,0.2524,-0.6743,1.038,0.793,0.183,159.181,-44.467,-55.058
12249,0.7095,0.2539,-0.6768,0.854,0.671,0.122,159.186,-44.473,-55.058
12259,0.7104,0.2534,-0.6772,0.427,0.366,-0.061,159.192,-44.473,-55.058
12269,0.7090,0.2544,-0.6763,-0.061,-0.061,-0.061,159.192,-44.473,-55.058
12279,0.7075,0.2554,-0.6772,-0.366,-0.427,-0.061,159.192,-44.467,-55.058
12289,0.7090,0.2554,-0.6768,-0.427,-0.732,0.000,159.192,-44.462,-55.058
12299,0.7075,0.2563,-0.6758,-0.244,-0.793,0.183,159.197,-44.456,-55.058
12309,0.7070,0.2568,-0.6738,0.122,-0.732,0.427,159.203,-44.451,-55.058
12319,0.7061,0.2583,-0.6743,0.488,-0.549,0.549,159.214,-44.445,-55.058
12330,0.7070,0.2588,-0.6753,0.732,-0.305,0.610,159.225,-44.445,-55.058
12339,0.7080,0.2593,-0.6763,0.671,0.000,0.488,159.236,-44.445,-55.058
12349,0.7080,0.2622,-0.6792,0.427,0.183,0.427,159.236,-44.445,-55.058
12359,0.7100,0.2612,-0.6777,0.122,0.183,0.305,159.236,-44.445,-55.058
12369,0.7104,0.2627,-0.6777,-0.122,-0.061,0.122,159.236,-44.445,-55.058
12379,0.7129,0.2642,-0.6758,-0.366,-0.366,-0.061,159.225,-44.445,-55.058
12389,0.7139,0.2598,-0.6729,-0.549,-0.793,-0.244,159.214,-44.440,-55.058
12399,0.7129,0.2593,-0.6699,-0.671,-1.038,-0.305,159.208,-44.429,-55.058
12409,0.7119,0.2588,-0.6670,-0.671,-1.160,-0.366,159.197,-44.423,-55.058
12419,0.7100,0.2573,-0.6655,-0.610,-1.038,-0.305,159.186,-44.418,-55.058
12429,0.7090,0.2549,-0.6641,-0.366,-0.732,-0.305,159.181,-44.412,-55.058
12439,0.7065,0.2524,-0.6650,-0.061,-0.183,-0.244,159.181,-44.412,-55.058
12449,0.7070,0.2529,-0.6670,0.244,0.305,-0.183,159.181,-44.418,-55.058
12459,0.7056,0.2520,-0.6704,0.366,0.671,-0.061,159.181,-44.429,-55.058
12469,0.7046,0.2520,-0.6699,0.305,0.854,0.061,159.186,-44.440,-55.058
12479,0.7051,0.2529,-0.6729,0.061,0.854,0.183,159.186,-44.445,-55.058
12489,0.7065,0.2568,-0.6763,0.122,0.610,0.366,159.192,-44.451,-55.058
12499,0.7061,0.2568,-0.6758,0.305,0.366,0.549,159.197,-44.456,-55.058
12509,0.7100,0.2607,-0.6787,0.610,0.061,0.732,159.208,-44.456,-55.058
12519,0.7104,0.2607,-0.6802,0.916,-0.122,0.732,159.219,-44.456,-55.058
12529,0.7095,0.2593,-0.6768,1.099,-0.183,0.549,159.236,-44.456,-55.058
12539,0.7095,0.2598,-0.6753,0.916,-0.061,0.305,159.247,-44.456,-55.058
12549,0.7070,0.2573,-0.6753,0.488,-0.061,0.000,159.247,-44.456,-55.058
12559,0.7075,0.2583,-0.6753,-0.122,-0.183,-0.244,159.247,-44.456,-55.058
12569,0.7056,0.2573,-0.6724,-0.610,-0.427,-0.366,159.236,-44.451,-55.058
12579,0.7061,0.2568,-0.6719,-0.793,-0.610,-0.366,159.225,-44.440,-55.058
12589,0.7036,0.2573,-0.6709,-0.549,-0.610,-0.183,159.219,-44.434,-55.058
12599,0.7041,0.2588,-0.6694,-0.061,-0.549,0.061,159.214,-44.429,-55.058
12609,0.7046,0.2578,-0.6675,0.427,-0.366,0.183,159.219,-44.429,-55.058
12619,0.7051,0.2573,-0.6694,0.793,-0.061,0.183,159.225,-44.429,-55.058
12629,0.7070,0.2549,-0.6709,0.793,0.244,0.122,159.236,-44.434,-55.058
12639,0.7090,0.2534,-0.6733,0.488,0.610,0.122,159.241,-44.440,-55.058
12649,0.7095,0.2534,-0.6753,0.000,0.793,0.000,159.236,-44.451,-55.058
12659,0.7095,0.2529,-0.6787,-0.305,0.793,-0.061,159.236,-44.456,-55.058
12669,0.7095,0.2549,-0.6768,-0.427,0.671,-0.122,159.230,-44.462,-55.058
12679,0.7090,0.2554,-0.6782,-0.366,0.427,-0.061,159.225,-44.467,-55.058
12689,0.7080,0.2578,-0.6777,-0.183,0.183,0.000,159.219,-44.467,-55.058
12699,0.7100,0.2563,-0.6772,0.061,-0.061,0.122,159.225,-44.467,-55.058
12709,0.7104,0.2544,-0.6777,0.244,-0.244,0.305,159.230,-44.467,-55.058
12719,0.7095,0.2559,-0.6748,0.366,-0.244,0.305,159.241,-44.462,-55.058
12729,0.7095,0.2554,-0.6758,0.366,-0.244,0.244,159.247,-44.462,-55.058
12739,0.7100,0.2568,-0.6772,0.244,-0.244,0.183,159.252,-44.462,-55.058
12749,0.7109,0.2563,-0.6753,0.000,-0.305,0.183,159.252,-44.462,-55.058
12759,0.7070,0.2578,-0.6743,-0.183,-0.305,0.122,159.252,-44.456,-55.058
12769,0.7080,0.2588,-0.6758,-0.305,-0.427,0.061,159.247,-44.451,-55.058
12779,0.7070,0.2578,-0.6733,-0.244,-0.488,0.061,159.247,-44.445,-55.058
12789,0.7075,0.2603,-0.6729,-0.183,-0.610,0.000,159.241,-44.440,-55.058
12799,0.7075,0.2583,-0.6694,-0.061,-0.671,0.122,159.241,-44.440,-55.058
12809,0.7070,0.2568,-0.6699,0.000,-0.549,0.122,159.241,-44.434,-55.058
12819,0.7061,0.2568,-0.6724,0.061,-0.366,0.061,159.247,-44.434,-55.058
12830,0.7051,0.2573,-0.6689,0.061,0.000,0.061,159.241,-44.434,-55.058
12839,0.7065,0.2559,-0.6719,0.000,0.305,-0.061,159.241,-44.434,-55.058
12849,0.7065,0.2554,-0.6709,-0.061,0.488,-0.122,159.236,-44.440,-55.058
12859,0.7075,0.2559,-0.6724,-0.305,0.549,-0.122,159.230,-44.445,-55.058
12869,0.7075,0.2607,-0.6733,-0.366,0.488,-0.122,159.219,-44.451,-55.058
12879,0.7100,0.2578,-0.6743,-0.305,0.366,-0.122,159.214,-44.456,-55.058
12889,0.7080,0.2578,-0.6753,-0.122,0.244,0.000,159.208,-44.456,-55.058
12899,0.7070,0.2583,-0.6763,0.122,0.183,0.122,159.208,-44.456,-55.058
12909,0.7075,0.2559,-0.6777,0.427,0.305,0.183,159.214,-44.462,-55.058
12919,0.7080,0.2573,-0.6768,0.610,0.366,0.183,159.219,-44.462,-55.058
12929,0.7095,0.2563,-0.6772,0.610,0.427,0.061,159.225,-44.467,-55.058
12939,0.7100,0.2554,-0.6787,0.366,0.366,0.000,159.230,-44.473,-55.058
12949,0.7109,0.2573,-0.6768,0.122,0.122,-0.061,159.230,-44.473,-55.058
12959,0.7124,0.2563,-0.6763,-0.122,-0.061,-0.061,159.230,-44.473,-55.058
12969,0.7095,0.2563,-0.6729,-0.122,-0.366,-0.061,159.225,-44.467,-55.058
12979,0.7090,0.2583,-0.6733,-0.061,-0.488,-0.061,159.225,-44.467,-55.058
12989,0.7090,0.2568,-0.6719,0.061,-0.610,0.000,159.225,-44.462,-55.058
12999,0.7075,0.2568,-0.6738,0.183,-0.549,0.061,159.230,-44.456,-55.058
13009,0.7061,0.2568,-0.6714,0.305,-0.488,0.122,159.236,-44.451,-55.058
13019,0.7051,0.2554,-0.6704,0.305,-0.366,0.000,159.236,-44.451,-55.058
13029,0.7056,0.2549,-0.6685,0.122,-0.183,-0.061,159.236,-44.451,-55.058
13039,0.7051,0.2554,-0.6680,-0.122,-0.122,-0.122,159.236,-44.451,-55.058
13049,0.7075,0.2563,-0.6680,-0.244,0.061,0.000,159.230,-44.451,-55.058
13059,0.7080,0.2583,-0.6689,-0.183,0.244,0.122,159.225,-44.456,-55.058
13069,0.7104,0.2583,-0.6704,0.122,0.427,0.244,159.225,-44.462,-55.058
13079,0.7095,0.2598,-0.6729,0.488,0.610,0.244,159.225,-44.473,-55.058
13089,0.7104,0.2583,-0.6772,0.610,0.671,0.183,159.230,-44.478,-55.058
13099,0.7114,0.2568,-0.6777,0.610,0.610,0.122,159.236,-44.484,-55.058
13109,0.7104,0.2544,-0.6758,0.244,0.366,-0.061,159.236,-44.489,-55.058
13119,0.7080,0.2559,-0.6763,-0.183,0.061,-0.244,159.230,-44.489,-55.058
13129,0.7104,0.2554,-0.6748,-0.610,-0.244,-0.366,159.225,-44.484,-55.058
13139,0.7095,0.2568,-0.6763,-0.854,-0.427,-0.427,159.214,-44.478,-55.058
13149,0.7085,0.2549,-0.6772,-0.732,-0.549,-0.244,159.208,-44.473,-55.058
13159,0.7080,0.2554,-0.6763,-0.427,-0.549,-0.061,159.203,-44.467,-55.058
13169,0.7061,0.2563,-0.6704,0.000,-0.366,0.122,159.208,-44.462,-55.058
13179,0.7070,0.2568,-0.6729,0.427,-0.122,0.305,159.214,-44.462,-55.058
13189,0.7051,0.2583,-0.6772,0.732,0.061,0.427,159.225,-44.462,-55.058
13199,0.7056,0.2568,-0.6768,0.732,0.244,0.366,159.230,-44.467,-55.058
13209,0.7080,0.2573,-0.6777,0.488,0.305,0.305,159.241,-44.467,-55.058
13219,0.7114,0.2593,-0.6812,0.183,0.305,0.122,159.241,-44.467,-55.058
13229,0.7090,0.2607,-0.6816,-0.122,0.244,-0.061,159.236,-44.467,-55.058
13239,0.7104,0.2588,-0.6797,-0.488,0.061,-0.244,159.225,-44.467,-55.058
13249,0.7109,0.2598,-0.6782,-0.671,-0.244,-0.305,159.219,-44.462,-55.058
13259,0.7119,0.2593,-0.6733,-0.793,-0.610,-0.427,159.203,-44.456,-55.058
13269,0.7100,0.2588,-0.6709,-0.732,-0.854,-0.427,159.192,-44.451,-55.058
13279,0.7075,0.2568,-0.6675,-0.610,-0.916,-0.427,159.186,-44.440,-55.058
13289,0.7061,0.2534,-0.6665,-0.488,-0.793,-0.366,159.181,-44.434,-55.058
13299,0.7046,0.2510,-0.6655,-0.366,-0.610,-0.305,159.175,-44.434,-55.058
13309,0.7056,0.2520,-0.6685,-0.305,-0.244,-0.244,159.175,-44.434,-55.058
13319,0.7070,0.2549,-0.6680,-0.183,0.000,-0.183,159.170,-44.434,-55.058
13330,0.7051,0.2563,-0.6670,-0.061,0.305,0.061,159.164,-44.440,-55.058
13339,0.7051,0.2563,-0.6680,0.122,0.610,0.244,159.164,-44.445,-55.058
13349,0.7046,0.2568,-0.6729,0.305,0.610,0.244,159.170,-44.451,-55.058
13359,0.7051,0.2588,-0.6733,0.427,0.610,0.305,159.170,-44.456,-55.058
13369,0.7070,0.2612,-0.6738,0.427,0.671,0.244,159.170,-44.467,-55.058
13379,0.7080,0.2573,-0.6743,0.427,0.610,0.183,159.175,-44.473,-55.058
13389,0.7095,0.2568,-0.6763,0.183,0.427,0.000,159.175,-44.473,-55.058
13399,0.7100,0.2563,-0.6792,0.000,0.244,-0.122,159.175,-44.478,-55.058
13409,0.7085,0.2559,-0.6782,-0.183,0.000,-0.183,159.175,-44.473,-55.058
13419,0.7100,0.2554,-0.6772,-0.244,-0.122,-0.183,159.170,-44.473,-55.058
13429,0.7085,0.2568,-0.6758,-0.244,-0.183,-0.183,159.170,-44.467,-55.058
13439,0.7075,0.2559,-0.6738,-0.122,-0.183,-0.122,159.164,-44.467,-55.058
13449,0.7065,0.2563,-0.6729,0.000,-0.183,-0.122,159.164,-44.467,-55.058
13459,0.7085,0.2568,-0.6738,0.061,-0.183,-0.122,159.164,-44.462,-55.058
13469,0.7080,0.2549,-0.6719,0.122,-0.061,-0.122,159.164,-44.462,-55.058
13479,0.7075,0.2559,-0.6724,0.000,0.061,-0.183,159.164,-44.462,-55.058
13489,0.7080,0.2544,-0.6724,-0.122,0.122,-0.244,159.164,-44.467,-55.058
13499,0.7065,0.2534,-0.6724,-0.244,0.122,-0.244,159.159,-44.467,-55.058
13509,0.7080,0.2563,-0.6763,-0.305,0.061,-0.183,159.153,-44.467,-55.058
13519,0.7080,0.2573,-0.6748,-0.244,0.000,-0.061,159.153,-44.467,-55.058
13529,0.7070,0.2549,-0.6753,-0.122,0.000,0.000,159.153,-44.467,-55.058
13539,0.7070,0.2549,-0.6748,-0.122,0.000,-0.061,159.153,-44.462,-55.058
13549,0.7065,0.2544,-0.6748,-0.183,0.000,-0.061,159.153,-44.462,-55.058
13559,0.7065,0.2539,-0.6753,-0.305,0.061,-0.061,159.148,-44.462,-55.058
13569,0.7075,0.2559,-0.6743,-0.488,0.061,-0.061,159.142,-44.462,-55.058
13579,0.7095,0.2583,-0.6733,-0.549,0.061,0.000,159.137,-44.467,-55.058
13589,0.7114,0.2588,-0.6743,-0.488,-0.061,0.000,159.131,-44.467,-55.058
13599,0.7100,0.2588,-0.6753,-0.305,-0.122,0.000,159.126,-44.467,-55.058
13609,0.7085,0.2593,-0.6738,0.000,-0.122,-0.061,159.126,-44.462,-55.058
13619,0.7075,0.2588,-0.6738,0.061,-0.122,-0.061,159.126,-44.462,-55.058
13629,0.7075,0.2578,-0.6753,0.000,0.061,-0.122,159.126,-44.462,-55.058
13639,0.7080,0.2568,-0.6753,-0.122,0.122,-0.183,159.120,-44.462,-55.058
13649,0.7090,0.2568,-0.6782,-0.305,0.122,-0.244,159.115,-44.462,-55.058
13659,0.7090,0.2583,-0.6763,-0.366,0.000,-0.244,159.109,-44.462,-55.058
13669,0.7061,0.2588,-0.6733,-0.305,-0.061,-0.244,159.104,-44.456,-55.058
13679,0.7061,0.2588,-0.6714,-0.244,-0.183,-0.183,159.099,-44.456,-55.058
13689,0.7065,0.2578,-0.6709,-0.122,-0.122,-0.183,159.093,-44.456,-55.058
13699,0.7061,0.2583,-0.6699,-0.061,0.000,-0.122,159.093,-44.456,-55.058
13709,0.7075,0.2583,-0.6729,-0.061,0.183,-0.061,159.088,-44.456,-55.058
13719,0.7085,0.2593,-0.6748,-0.061,0.366,-0.061,159.088,-44.456,-55.058
13729,0.7075,0.2598,-0.6743,-0.122,0.488,-0.122,159.082,-44.462,-55.058
13739,0.7065,0.2598,-0.6748,-0.183,0.488,-0.183,159.071,-44.467,-55.058
13749,0.7090,0.2578,-0.6738,-0.244,0.427,-0.244,159.066,-44.467,-55.058
13759,0.7104,0.2588,-0.6748,-0.244,0.244,-0.183,159.060,-44.473,-55.058
13769,0.7104,0.2603,-0.6714,-0.061,0.183,-0.122,159.055,-44.473,-55.058
13779,0.7104,0.2588,-0.6738,0.122,0.244,-0.061,159.055,-44.478,-55.058
13789,0.7109,0.2583,-0.6729,0.244,0.305,0.000,159.055,-44.478,-55.058
13799,0.7114,0.2573,-0.6743,0.305,0.427,-0.061,159.060,-44.484,-55.058
13809,0.7085,0.2563,-0.6777,0.244,0.488,-0.122,159.060,-44.489,-55.058
13819,0.7085,0.2559,-0.6782,0.000,0.366,-0.183,159.060,-44.489,-55.058
13830,0.7100,0.2559,-0.6763,-0.244,0.122,-0.122,159.060,-44.489,-55.058
13839,0.7080,0.2583,-0.6743,-0.305,-0.305,-0.061,159.055,-44.489,-55.058
13849,0.7046,0.2593,-0.6709,-0.183,-0.549,0.061,159.055,-44.484,-55.058
13859,0.7041,0.2593,-0.6685,0.061,-0.671,0.122,159.055,-44.473,-55.058
13869,0.7056,0.2607,-0.6665,0.366,-0.610,0.122,159.060,-44.473,-55.058
13879,0.7065,0.2598,-0.6675,0.549,-0.305,0.122,159.060,-44.473,-55.058
13889,0.7075,0.2617,-0.6689,0.549,0.183,0.183,159.066,-44.473,-55.058
13899,0.7075,0.2612,-0.6694,0.427,0.610,0.122,159.066,-44.478,-55.058
13909,0.7090,0.2593,-0.6733,0.305,0.854,0.061,159.066,-44.489,-55.058
13919,0.7104,0.2598,-0.6743,0.244,0.854,0.000,159.060,-44.500,-55.058
13929,0.7095,0.2612,-0.6738,0.183,0.671,-0.122,159.055,-44.506,-55.058
13939,0.7114,0.2598,-0.6733,0.061,0.366,-0.183,159.055,-44.506,-55.058
13949,0.7104,0.2573,-0.6733,-0.061,0.183,-0.183,159.049,-44.511,-55.058
13959,0.7090,0.2563,-0.6753,-0.183,0.122,-0.244,159.049,-44.511,-55.058
13969,0.7080,0.2563,-0.6758,-0.305,0.183,-0.122,159.044,-44.511,-55.058
13979,0.7065,0.2549,-0.6782,-0.244,0.305,0.000,159.044,-44.511,-55.058
13989,0.7056,0.2554,-0.6777,-0.122,0.427,0.122,159.044,-44.511,-55.058
13999,0.7056,0.2573,-0.6807,0.183,0.427,0.244,159.049,-44.511,-55.058
14009,0.7061,0.2578,-0.6802,0.427,0.366,0.427,159.060,-44.517,-55.058
14019,0.7090,0.2607,-0.6816,0.671,0.183,0.549,159.071,-44.517,-55.058
14029,0.7119,0.2603,-0.6812,0.732,0.061,0.488,159.082,-44.517,-55.058
14039,0.7124,0.2588,-0.6792,0.671,-0.183,0.366,159.093,-44.511,-55.058
14049,0.7114,0.2583,-0.6782,0.305,-0.427,0.122,159.099,-44.511,-55.058
14059,0.7124,0.2583,-0.6758,-0.122,-0.671,-0.183,159.099,-44.500,-55.058
14069,0.7139,0.2607,-0.6743,-0.549,-0.793,-0.305,159.093,-44.495,-55.058
14079,0.7109,0.2622,-0.6709,-0.793,-0.916,-0.305,159.082,-44.489,-55.058
14089,0.7100,0.2603,-0.6704,-0.671,-0.977,-0.305,159.071,-44.478,-55.058
14099,0.7095,0.2578,-0.6665,-0.427,-0.916,-0.366,159.066,-44.473,-55.058
14109,0.7090,0.2554,-0.6660,-0.183,-0.671,-0.366,159.060,-44.467,-55.058
14119,0.7070,0.2529,-0.6665,0.000,-0.366,-0.305,159.060,-44.467,-55.058
14129,0.7046,0.2510,-0.6665,-0.061,-0.061,-0.183,159.060,-44.467,-55.058
14139,0.7021,0.2544,-0.6660,-0.183,0.244,-0.061,159.060,-44.473,-55.058
14149,0.7051,0.2544,-0.6694,-0.183,0.488,0.000,159.055,-44.478,-55.058
14159,0.7075,0.2588,-0.6714,-0.061,0.549,0.122,159.055,-44.484,-55.058
14169,0.7061,0.2583,-0.6729,0.244,0.549,0.305,159.055,-44.489,-55.058
14179,0.7080,0.2578,-0.6733,0.610,0.427,0.488,159.066,-44.495,-55.058
14189,0.7104,0.2588,-0.6763,0.793,0.305,0.610,159.077,-44.500,-55.058
14199,0.7104,0.2598,-0.6797,0.977,0.244,0.549,159.093,-44.500,-55.058
14209,0.7100,0.2598,-0.6802,0.854,0.183,0.305,159.104,-44.500,-55.058
14219,0.7104,0.2598,-0.6797,0.427,0.000,0.000,159.104,-44.500,-55.058
14229,0.7095,0.2583,-0.6772,-0.122,-0.305,-0.244,159.104,-44.495,-55.058
14239,0.7065,0.2598,-0.6738,-0.549,-0.671,-0.366,159.093,-44.489,-55.058
14249,0.7080,0.2612,-0.6733,-0.732,-0.916,-0.305,159.088,-44.478,-55.058
14259,0.7061,0.2617,-0.6694,-0.488,-0.854,-0.183,159.077,-44.467,-55.058
14269,0.7065,0.2593,-0.6689,0.000,-0.671,-0.061,159.077,-44.462,-55.058
14279,0.7036,0.2583,-0.6670,0.549,-0.427,0.122,159.082,-44.462,-55.058
14289,0.7051,0.2583,-0.6689,0.916,-0.122,0.122,159.093,-44.462,-55.058
14299,0.7056,0.2568,-0.6709,1.038,0.122,0.061,159.099,-44.462,-55.058
14309,0.7056,0.2563,-0.6743,0.732,0.427,-0.061,159.109,-44.467,-55.058
14319,0.7070,0.2563,-0.6768,0.366,0.549,-0.244,159.109,-44.467,-55.058
14330,0.7085,0.2578,-0.6763,-0.122,0.549,-0.366,159.104,-44.473,-55.058
14339,0.7085,0.2573,-0.6758,-0.427,0.366,-0.366,159.093,-44.473,-55.058
14349,0.7080,0.2559,-0.6763,-0.427,0.183,-0.305,159.088,-44.473,-55.058
14359,0.7075,0.2573,-0.6763,-0.183,0.000,-0.244,159.082,-44.473,-55.058
14369,0.7065,0.2544,-0.6787,0.061,-0.061,-0.122,159.088,-44.467,-55.058
14379,0.7070,0.2544,-0.6768,0.183,-0.122,-0.122,159.093,-44.467,-55.058
14389,0.7070,0.2524,-0.6777,0.122,-0.183,-0.061,159.099,-44.462,-55.058
14399,0.7070,0.2544,-0.6758,-0.061,-0.122,0.061,159.099,-44.462,-55.058
14409,0.7090,0.2573,-0.6729,-0.122,-0.183,0.122,159.099,-44.462,-55.058
14419,0.7095,0.2588,-0.6748,-0.122,-0.305,0.183,159.104,-44.456,-55.058
14429,0.7090,0.2598,-0.6738,0.000,-0.244,0.183,159.104,-44.456,-55.058
14439,0.7061,0.2583,-0.6753,0.122,-0.244,0.183,159.104,-44.456,-55.058
14449,0.7070,0.2583,-0.6763,0.122,-0.244,0.122,159.109,-44.451,-55.058
14459,0.7065,0.2588,-0.6733,0.122,-0.183,0.061,159.109,-44.451,-55.058
14469,0.7075,0.2583,-0.6709,-0.061,-0.122,0.000,159.109,-44.451,-55.058
14479,0.7075,0.2598,-0.6704,-0.183,-0.122,-0.183,159.104,-44.451,-55.058
14489,0.7075,0.2603,-0.6699,-0.305,-0.183,-0.244,159.093,-44.445,-55.058
14499,0.7085,0.2593,-0.6675,-0.244,-0.244,-0.244,159.088,-44.445,-55.058
14509,0.7070,0.2603,-0.6689,-0.122,-0.183,-0.183,159.082,-44.445,-55.058
14519,0.7095,0.2598,-0.6689,0.000,-0.061,-0.183,159.077,-44.445,-55.058
14529,0.7090,0.2588,-0.6694,0.122,0.122,-0.122,159.077,-44.451,-55.058
14539,0.7090,0.2568,-0.6704,0.183,0.305,-0.061,159.077,-44.456,-55.058
14549,0.7100,0.2554,-0.6724,0.183,0.549,-0.061,159.077,-44.462,-55.058
14559,0.7090,0.2563,-0.6753,0.183,0.610,-0.061,159.077,-44.467,-55.058
14569,0.7085,0.2568,-0.6772,0.183,0.549,-0.061,159.077,-44.473,-55.058
14579,0.7075,0.2568,-0.6768,0.183,0.427,0.000,159.077,-44.473,-55.058
14589,0.7100,0.2563,-0.6772,0.183,0.183,0.000,159.082,-44.473,-55.058
14599,0.7090,0.2593,-0.6777,0.183,0.000,0.122,159.082,-44.473,-55.058
14609,0.7090,0.2573,-0.6772,0.244,-0.122,0.122,159.088,-44.473,-55.058
14619,0.7124,0.2578,-0.6782,0.305,-0.122,0.183,159.093,-44.473,-55.058
14629,0.7109,0.2583,-0.6758,0.427,-0.122,0.183,159.099,-44.473,-55.058
14639,0.7075,0.2568,-0.6753,0.427,-0.122,0.183,159.109,-44.473,-55.058
14649,0.7036,0.2588,-0.6733,0.366,-0.183,0.122,159.109,-44.467,-55.058
14659,0.7021,0.2583,-0.6729,0.183,-0.244,0.061,159.115,-44.462,-55.058
14669,0.7070,0.2588,-0.6729,0.000,-0.366,-0.061,159.115,-44.462,-55.058
14679,0.7080,0.2603,-0.6733,-0.061,-0.366,-0.061,159.109,-44.456,-55.058
14689,0.7100,0.2603,-0.6714,0.122,-0.183,0.061,159.109,-44.456,-55.058
14699,0.7114,0.2593,-0.6699,0.305,0.061,0.183,159.109,-44.462,-55.058
14709,0.7109,0.2588,-0.6729,0.549,0.305,0.183,159.115,-44.467,-55.058
14719,0.7119,0.2578,-0.6733,0.671,0.366,0.122,159.120,-44.473,-55.058
14729,0.7124,0.2554,-0.6753,0.549,0.427,0.000,159.126,-44.478,-55.058
14739,0.7109,0.2544,-0.6748,0.183,0.305,-0.183,159.131,-44.478,-55.058
14749,0.7085,0.2524,-0.6753,-0.183,0.000,-0.305,159.126,-44.478,-55.058
14759,0.7070,0.2529,-0.6743,-0.610,-0.244,-0.366,159.120,-44.478,-55.058
14769,0.7075,0.2529,-0.6719,-0.732,-0.305,-0.305,159.115,-44.473,-55.058
14779,0.7075,0.2559,-0.6709,-0.549,-0.305,-0.122,159.109,-44.473,-55.058
14789,0.7070,0.2549,-0.6733,-0.183,-0.061,0.122,159.109,-44.473,-55.058
14799,0.7080,0.2568,-0.6743,0.122,0.122,0.366,159.115,-44.473,-55.058
14809,0.7075,0.2563,-0.6772,0.488,0.244,0.549,159.126,-44.478,-55.058
14819,0.7085,0.2603,-0.6782,0.732,0.244,0.610,159.137,-44.478,-55.058
14830,0.7104,0.2612,-0.6797,0.793,0.183,0.610,159.148,-44.484,-55.058
14839,0.7114,0.2617,-0.6782,0.610,0.061,0.427,159.153,-44.484,-55.058
14849,0.7109,0.2632,-0.6802,0.305,-0.122,0.244,159.159,-44.478,-55.058
14859,0.7119,0.2607,-0.6782,-0.061,-0.427,0.000,159.159,-44.478,-55.058
14869,0.7129,0.2642,-0.6743,-0.427,-0.610,-0.183,159.148,-44.473,-55.058
14879,0.7119,0.2622,-0.6714,-0.732,-0.854,-0.366,159.137,-44.462,-55.058
14889,0.7114,0.2593,-0.6694,-0.793,-1.038,-0.427,159.126,-44.456,-55.058
14899,0.7104,0.2588,-0.6675,-0.732,-1.160,-0.488,159.115,-44.445,-55.058
14909,0.7075,0.2588,-0.6660,-0.488,-1.099,-0.427,159.104,-44.434,-55.058
14919,0.7085,0.2568,-0.6636,-0.244,-0.854,-0.305,159.099,-44.434,-55.058
14929,0.7070,0.2559,-0.6665,0.061,-0.427,-0.183,159.099,-44.429,-55.058
14939,0.7061,0.2539,-0.6689,0.305,0.061,-0.061,159.104,-44.434,-55.058
14949,0.7061,0.2520,-0.6685,0.366,0.549,0.061,159.109,-44.440,-55.058
14959,0.7061,0.2520,-0.6719,0.305,0.793,0.061,159.109,-44.451,-55.058
14969,0.7065,0.2549,-0.6748,0.122,0.793,0.122,159.115,-44.456,-55.058
14979,0.7085,0.2573,-0.6777,0.000,0.610,0.244,159.115,-44.462,-55.058
14989,0.7085,0.2568,-0.6772,0.000,0.183,0.427,159.120,-44.467,-55.058
14999,0.7124,0.2612,-0.6768,0.244,-0.183,0.549,159.126,-44.467,-55.058
15009,0.7129,0.2607,-0.6777,0.549,-0.305,0.610,159.137,-44.467,-55.058
15019,0.7109,0.2578,-0.6738,0.854,-0.244,0.549,159.148,-44.467,-55.058
15029,0.7085,0.2563,-0.6758,0.793,-0.183,0.366,159.159,-44.467,-55.058
15039,0.7065,0.2563,-0.6772,0.366,-0.244,0.061,159.164,-44.462,-55.058
15049,0.7051,0.2593,-0.6738,-0.183,-0.305,-0.061,159.164,-44.456,-55.058
15059,0.7061,0.2603,-0.6724,-0.488,-0.488,-0.122,159.153,-44.451,-55.058
15069,0.7065,0.2598,-0.6699,-0.488,-0.549,-0.122,159.148,-44.445,-55.058
15079,0.7061,0.2603,-0.6685,-0.183,-0.488,-0.061,159.142,-44.445,-55.058
15089,0.7065,0.2588,-0.6660,0.366,-0.366,0.061,159.148,-44.445,-55.058
15099,0.7070,0.2583,-0.6704,0.732,-0.183,0.122,159.153,-44.440,-55.058
15109,0.7070,0.2588,-0.6729,0.854,0.122,0.122,159.159,-44.445,-55.058
15119,0.7061,0.2539,-0.6748,0.610,0.427,0.000,159.164,-44.445,-55.058
15129,0.7065,0.2554,-0.6709,0.183,0.610,-0.122,159.164,-44.456,-55.058
15139,0.7051,0.2554,-0.6733,-0.122,0.732,-0.244,159.159,-44.462,-55.058
15149,0.7070,0.2573,-0.6758,-0.305,0.610,-0.244,159.153,-44.462,-55.058
15159,0.7085,0.2559,-0.6753,-0.244,0.427,-0.122,159.148,-44.467,-55.058
15169,0.7095,0.2559,-0.6753,0.000,0.244,0.000,159.148,-44.467,-55.058
15179,0.7100,0.2559,-0.6753,0.244,0.122,0.122,159.153,-44.473,-55.058
15189,0.7085,0.2549,-0.6787,0.366,0.061,0.183,159.159,-44.473,-55.058
15199,0.7070,0.2534,-0.6797,0.305,0.000,0.183,159.170,-44.473,-55.058
15209,0.7090,0.2549,-0.6777,0.122,-0.061,0.183,159.175,-44.467,-55.058
15219,0.7090,0.2539,-0.6772,-0.122,-0.122,0.122,159.175,-44.467,-55.058
15229,0.7090,0.2563,-0.6753,-0.366,-0.244,0.122,159.175,-44.467,-55.058
15239,0.7080,0.2573,-0.6733,-0.427,-0.427,0.122,159.175,-44.462,-55.058
15249,0.7090,0.2578,-0.6724,-0.305,-0.549,0.183,159.170,-44.462,-55.058
15259,0.7095,0.2568,-0.6719,-0.061,-0.610,0.244,159.175,-44.456,-55.058
15269,0.7085,0.2593,-0.6704,0.122,-0.610,0.244,159.175,-44.456,-55.058
15279,0.7061,0.2593,-0.6680,0.122,-0.549,0.122,159.175,-44.451,-55.058
15289,0.7075,0.2607,-0.6694,0.061,-0.366,0.000,159.175,-44.445,-55.058
15299,0.7075,0.2588,-0.6714,-0.122,-0.183,-0.122,159.170,-44.445,-55.058
15309,0.7090,0.2588,-0.6699,-0.305,0.061,-0.122,159.164,-44.451,-55.058
15319,0.7080,0.2593,-0.6699,-0.305,0.244,-0.122,159.153,-44.451,-55.058
15330,0.7100,0.2603,-0.6704,-0.183,0.366,-0.061,159.148,-44.456,-55.058
15339,0.7109,0.2588,-0.6714,0.061,0.610,-0.061,159.142,-44.467,-55.058
15349,0.7095,0.2554,-0.6709,0.183,0.610,-0.122,159.142,-44.473,-55.058
15359,0.7085,0.2539,-0.6733,0.061,0.610,-0.122,159.142,-44.478,-55.058
15369,0.7085,0.2534,-0.6743,0.000,0.549,-0.061,159.142,-44.484,-55.058
15379,0.7090,0.2559,-0.6758,-0.122,0.366,-0.061,159.137,-44.484,-55.058
15389,0.7100,0.2563,-0.6772,-0.061,0.183,0.000,159.137,-44.489,-55.058
15399,0.7114,0.2559,-0.6758,0.183,0.122,0.061,159.142,-44.489,-55.058
15409,0.7114,0.2544,-0.6763,0.366,0.000,0.183,159.148,-44.489,-55.058
15419,0.7104,0.2534,-0.6758,0.427,-0.061,0.305,159.159,-44.495,-55.058
15429,0.7124,0.2573,-0.6748,0.488,-0.122,0.366,159.170,-44.495,-55.058
15439,0.7129,0.2563,-0.6748,0.427,-0.122,0.366,159.175,-44.495,-55.058
15449,0.7095,0.2568,-0.6748,0.366,-0.061,0.244,159.181,-44.495,-55.058
15459,0.7080,0.2583,-0.6758,0.183,-0.122,0.122,159.186,-44.495,-55.058
15469,0.7090,0.2593,-0.6724,0.061,-0.183,0.000,159.181,-44.495,-55.058
15479,0.7090,0.2598,-0.6704,-0.061,-0.366,0.000,159.181,-44.489,-55.058
15489,0.7080,0.2593,-0.6689,-0.122,-0.427,0.000,159.175,-44.489,-55.058
15499,0.7070,0.2583,-0.6714,-0.122,-0.305,0.000,159.175,-44.484,-55.058
15509,0.7061,0.2583,-0.6689,0.000,-0.122,-0.061,159.170,-44.484,-55.058
15519,0.7080,0.2563,-0.6704,0.061,0.000,-0.061,159.170,-44.489,-55.058
15529,0.7075,0.2559,-0.6719,0.183,0.183,-0.061,159.170,-44.489,-55.058
15539,0.7070,0.2568,-0.6714,0.061,0.366,-0.061,159.170,-44.495,-55.058
15549,0.7095,0.2578,-0.6719,0.122,0.488,-0.061,159.164,-44.500,-55.058
15559,0.7109,0.2568,-0.6758,0.122,0.427,-0.061,159.164,-44.500,-55.058
15569,0.7119,0.2573,-0.6763,0.244,0.366,0.000,159.164,-44.506,-55.058
15579,0.7104,0.2554,-0.6777,0.366,0.244,0.061,159.170,-44.506,-55.058
15589,0.7129,0.2559,-0.6787,0.305,0.000,0.061,159.175,-44.511,-55.058
15599,0.7100,0.2539,-0.6792,0.122,-0.244,0.061,159.181,-44.506,-55.058
15609,0.7080,0.2539,-0.6758,0.000,-0.366,-0.061,159.186,-44.500,-55.058
15619,0.7085,0.2549,-0.6724,-0.305,-0.366,0.000,159.186,-44.500,-55.058
15629,0.7075,0.2554,-0.6738,-0.488,-0.366,0.061,159.181,-44.495,-55.058
15639,0.7070,0.2573,-0.6724,-0.427,-0.366,0.122,159.181,-44.495,-55.058
15649,0.7061,0.2593,-0.6714,-0.305,-0.305,0.244,159.175,-44.489,-55.058
15659,0.7065,0.2568,-0.6748,0.061,-0.366,0.366,159.181,-44.489,-55.058
15669,0.7085,0.2593,-0.6743,0.427,-0.305,0.427,159.186,-44.484,-55.058
15679,0.7095,0.2603,-0.6748,0.610,-0.122,0.488,159.197,-44.484,-55.058
15689,0.7090,0.2622,-0.6753,0.610,0.000,0.427,159.203,-44.489,-55.058
15699,0.7104,0.2607,-0.6782,0.427,0.183,0.305,159.208,-44.489,-55.058
15709,0.7095,0.2588,-0.6787,0.183,0.366,0.061,159.208,-44.489,-55.058
15719,0.7095,0.2578,-0.6758,-0.244,0.305,-0.183,159.203,-44.495,-55.058
15729,0.7104,0.2598,-0.6763,-0.610,0.122,-0.366,159.186,-44.489,-55.058
15739,0.7095,0.2583,-0.6753,-0.854,-0.244,-0.488,159.175,-44.489,-55.058
15749,0.7119,0.2563,-0.6709,-0.916,-0.549,-0.427,159.164,-44.484,-55.058
15759,0.7104,0.2544,-0.6689,-0.671,-0.732,-0.305,159.159,-44.478,-55.058
15769,0.7075,0.2563,-0.6665,-0.244,-0.793,-0.183,159.153,-44.473,-55.058
15779,0.7075,0.2554,-0.6675,0.122,-0.671,0.000,159.153,-44.467,-55.058
15789,0.7065,0.2563,-0.6699,0.427,-0.366,0.122,159.159,-44.467,-55.058
15799,0.7065,0.2539,-0.6704,0.488,0.061,0.183,159.170,-44.473,-55.058
15809,0.7075,0.2524,-0.6719,0.366,0.366,0.061,159.175,-44.473,-55.058
15819,0.7056,0.2515,-0.6753,0.183,0.488,0.061,159.181,-44.478,-55.058
15830,0.7051,0.2539,-0.6758,-0.061,0.305,0.122,159.181,-44.484,-55.058
15839,0.7061,0.2554,-0.6733,-0.183,-0.061,0.244,159.181,-44.484,-55.058
15849,0.7070,0.2573,-0.6699,-0.061,-0.366,0.427,159.186,-44.478,-55.058
15859,0.7100,0.2603,-0.6724,0.244,-0.488,0.549,159.192,-44.478,-55.058
15869,0.7090,0.2593,-0.6724,0.610,-0.427,0.610,159.197,-44.478,-55.058
15879,0.7070,0.2588,-0.6748,0.854,-0.122,0.549,159.214,-44.478,-55.058
15889,0.7065,0.2583,-0.6758,0.732,0.244,0.427,159.219,-44.478,-55.058
15899,0.7051,0.2578,-0.6753,0.427,0.488,0.244,159.225,-44.484,-55.058
15909,0.7070,0.2588,-0.6768,0.061,0.488,0.000,159.219,-44.484,-55.058
15919,0.7080,0.2578,-0.6758,-0.305,0.488,-0.122,159.214,-44.489,-55.058
15929,0.7065,0.2583,-0.6753,-0.427,0.244,-0.183,159.208,-44.489,-55.058
15939,0.7061,0.2593,-0.6743,-0.244,-0.122,-0.122,159.203,-44.484,-55.058
15949,0.7075,0.2578,-0.6714,0.000,-0.366,0.061,159.203,-44.484,-55.058
15959,0.7095,0.2563,-0.6719,0.305,-0.427,0.061,159.203,-44.484,-55.058
15969,0.7080,0.2559,-0.6733,0.488,-0.244,0.122,159.214,-44.478,-55.058
15979,0.7075,0.2529,-0.6724,0.427,0.061,0.061,159.219,-44.484,-55.058
15989,0.7070,0.2524,-0.6729,0.244,0.488,-0.061,159.219,-44.489,-55.058
15999,0.7085,0.2515,-0.6743,-0.061,0.671,-0.183,159.219,-44.495,-55.058
16009,0.7075,0.2544,-0.6772,-0.244,0.610,-0.183,159.214,-44.495,-55.058
16019,0.7075,0.2539,-0.6802,-0.366,0.427,-0.122,159.214,-44.500,-55.058
16029,0.7100,0.2515,-0.6777,-0.244,0.183,0.061,159.214,-44.500,-55.058
16039,0.7085,0.2539,-0.6797,-0.061,0.000,0.183,159.219,-44.500,-55.058
16049,0.7070,0.2554,-0.6768,0.122,-0.122,0.427,159.225,-44.500,-55.058
16059,0.7075,0.2563,-0.6758,0.244,-0.122,0.549,159.230,-44.500,-55.058
16069,0.7075,0.2563,-0.6768,0.305,0.000,0.549,159.241,-44.500,-55.058
16079,0.7075,0.2593,-0.6768,0.244,0.122,0.366,159.241,-44.500,-55.058
16089,0.7090,0.2607,-0.6753,0.122,0.122,0.183,159.241,-44.500,-55.058
16099,0.7095,0.2598,-0.6753,-0.061,-0.061,0.000,159.241,-44.500,-55.058
16109,0.7085,0.2588,-0.6753,-0.305,-0.244,-0.122,159.236,-44.495,-55.058
16119,0.7090,0.2588,-0.6714,-0.427,-0.366,-0.183,159.225,-44.495,-55.058
16129,0.7070,0.2568,-0.6714,-0.488,-0.366,-0.244,159.219,-44.489,-55.058
16139,0.7075,0.2583,-0.6685,-0.366,-0.305,-0.244,159.208,-44.484,-55.058
16149,0.7070,0.2563,-0.6719,-0.305,-0.183,-0.244,159.203,-44.484,-55.058
16159,0.7051,0.2563,-0.6694,-0.122,0.000,-0.305,159.197,-44.484,-55.058
16169,0.7046,0.2549,-0.6724,-0.061,0.122,-0.244,159.197,-44.484,-55.058
16179,0.7065,0.2554,-0.6719,-0.061,0.305,-0.244,159.192,-44.484,-55.058
16189,0.7065,0.2544,-0.6714,-0.061,0.427,-0.305,159.186,-44.489,-55.058
16199,0.7075,0.2539,-0.6753,-0.122,0.610,-0.305,159.186,-44.495,-55.058
16209,0.7065,0.2534,-0.6748,-0.183,0.732,-0.305,159.181,-44.500,-55.058
16219,0.7090,0.2563,-0.6733,-0.183,0.854,-0.183,159.170,-44.506,-55.058
16229,0.7119,0.2568,-0.6748,-0.122,0.854,-0.061,159.170,-44.517,-55.058
16239,0.7104,0.2573,-0.6787,-0.061,0.793,-0.061,159.164,-44.522,-55.058
16249,0.7104,0.2583,-0.6802,0.183,0.610,0.000,159.164,-44.522,-55.058
16259,0.7109,0.2573,-0.6821,0.305,0.305,0.000,159.170,-44.522,-55.058
16269,0.7109,0.2588,-0.6797,0.305,0.183,0.000,159.170,-44.528,-55.058
16279,0.7090,0.2568,-0.6753,0.366,0.061,0.000,159.175,-44.522,-55.058
16289,0.7080,0.2578,-0.6758,0.305,0.000,-0.061,159.175,-44.522,-55.058
16299,0.7104,0.2583,-0.6772,0.122,-0.061,-0.122,159.175,-44.522,-55.058
16309,0.7104,0.2573,-0.6738,-0.061,-0.061,-0.183,159.170,-44.522,-55.058
16319,0.7104,0.2573,-0.6733,-0.183,0.000,-0.183,159.170,-44.522,-55.058
16330,0.7085,0.2563,-0.6729,-0.244,0.000,-0.183,159.164,-44.522,-55.058
16339,0.7070,0.2583,-0.6709,-0.305,-0.183,-0.183,159.159,-44.517,-55.058
16349,0.7070,0.2578,-0.6733,-0.183,-0.244,-0.122,159.153,-44.517,-55.058
16359,0.7080,0.2559,-0.6704,0.000,-0.244,-0.061,159.153,-44.511,-55.058
16369,0.7104,0.2573,-0.6714,0.122,-0.122,-0.061,159.153,-44.511,-55.058
16379,0.7095,0.2568,-0.6729,0.122,0.061,0.000,159.153,-44.517,-55.058
16389,0.7061,0.2559,-0.6714,0.061,0.244,-0.061,159.153,-44.517,-55.058
16399,0.7061,0.2578,-0.6729,-0.183,0.244,-0.122,159.148,-44.517,-55.058
16409,0.7065,0.2568,-0.6724,-0.488,0.244,-0.305,159.137,-44.517,-55.058
16419,0.7080,0.2554,-0.6729,-0.671,0.061,-0.305,159.131,-44.517,-55.058
16429,0.7075,0.2563,-0.6709,-0.671,-0.122,-0.183,159.120,-44.517,-55.058
16439,0.7090,0.2578,-0.6719,-0.427,-0.183,0.061,159.120,-44.517,-55.058
16449,0.7090,0.2593,-0.6729,0.061,0.000,0.244,159.120,-44.517,-55.058
16459,0.7085,0.2593,-0.6758,0.610,0.183,0.305,159.126,-44.517,-55.058
16469,0.7085,0.2578,-0.6753,0.854,0.305,0.305,159.137,-44.522,-55.058
16479,0.7080,0.2573,-0.6743,0.610,0.244,0.061,159.142,-44.522,-55.058
16489,0.7075,0.2559,-0.6753,0.061,0.061,-0.122,159.142,-44.522,-55.058
16499,0.7080,0.2583,-0.6738,-0.610,0.000,-0.244,159.131,-44.522,-55.058
16509,0.7095,0.2607,-0.6743,-0.916,-0.061,-0.305,159.115,-44.522,-55.058
16519,0.7090,0.2603,-0.6748,-0.916,-0.061,-0.305,159.104,-44.517,-55.058
16529,0.7085,0.2573,-0.6753,-0.488,0.000,-0.122,159.099,-44.517,-55.058
16539,0.7075,0.2573,-0.6748,0.000,0.122,0.061,159.099,-44.517,-55.058
16549,0.7065,0.2578,-0.6792,0.427,0.183,0.183,159.104,-44.517,-55.058
16559,0.7041,0.2573,-0.6792,0.488,0.305,0.122,159.109,-44.517,-55.058
16569,0.7065,0.2554,-0.6777,0.366,0.488,0.061,159.115,-44.517,-55.058
16579,0.7075,0.2568,-0.6768,0.061,0.488,-0.061,159.115,-44.522,-55.058
16589,0.7090,0.2568,-0.6772,-0.366,0.427,-0.122,159.109,-44.522,-55.058
16599,0.7104,0.2588,-0.6729,-0.671,0.183,-0.122,159.099,-44.522,-55.058
16609,0.7114,0.2593,-0.6724,-0.671,0.000,-0.061,159.093,-44.528,-55.058
16619,0.7124,0.2603,-0.6709,-0.427,-0.244,0.000,159.088,-44.528,-55.058
16629,0.7124,0.2607,-0.6709,-0.122,-0.366,0.061,159.082,-44.522,-55.058
16639,0.7124,0.2598,-0.6699,0.122,-0.488,0.061,159.082,-44.522,-55.058
16649,0.7119,0.2603,-0.6704,0.183,-0.427,-0.061,159.082,-44.522,-55.058
16659,0.7095,0.2573,-0.6699,0.061,-0.305,-0.122,159.082,-44.517,-55.058
16669,0.7095,0.2559,-0.6680,-0.122,-0.061,-0.183,159.082,-44.522,-55.058
16679,0.7080,0.2559,-0.6694,-0.305,0.122,-0.244,159.077,-44.522,-55.058
16689,0.7080,0.2544,-0.6694,-0.305,0.305,-0.244,159.071,-44.528,-55.058
