elapsed_ms,acc_x_g,acc_y_g,acc_z_g,gyro_x_dps,gyro_y_dps,gyro_z_dps,angle_x_deg,angle_y_deg,angle_z_deg
0,0.7051,0.2700,-0.6714,-0.671,-0.610,-0.366,158.313,-44.253,-55.184
10,0.7036,0.2681,-0.6670,-0.732,-0.366,-0.549,158.302,-44.247,-55.184
20,0.7007,0.2642,-0.6689,-0.732,-0.061,-0.610,158.291,-44.247,-55.184
30,0.7007,0.2627,-0.6665,-0.732,0.183,-0.549,158.280,-44.247,-55.184
40,0.6987,0.2622,-0.6689,-0.671,0.305,-0.427,158.269,-44.247,-55.184
50,0.7012,0.2661,-0.6689,-0.366,0.427,-0.183,158.264,-44.253,-55.184
60,0.7012,0.2671,-0.6689,0.183,0.427,0.061,158.264,-44.253,-55.184
70,0.7046,0.2676,-0.6724,0.854,0.549,0.244,158.275,-44.258,-55.184
80,0.7041,0.2651,-0.6733,1.221,0.671,0.305,158.286,-44.269,-55.184
90,0.7036,0.2642,-0.6729,1.282,0.854,0.183,158.302,-44.275,-55.184
100,0.7031,0.2646,-0.6758,0.977,1.038,0.061,158.313,-44.286,-55.184
110,0.7026,0.2656,-0.6782,0.427,1.038,-0.122,158.313,-44.291,-55.184
120,0.7046,0.2681,-0.6758,-0.183,0.916,-0.244,158.307,-44.297,-55.184
130,0.7051,0.2686,-0.6763,-0.427,0.671,-0.183,158.297,-44.297,-55.184
140,0.7075,0.2695,-0.6748,-0.305,0.488,-0.122,158.291,-44.302,-55.184
150,0.7085,0.2681,-0.6729,0.183,0.427,-0.061,158.291,-44.308,-55.184
160,0.7070,0.2686,-0.6738,0.671,0.366,-0.061,158.297,-44.308,-55.184
170,0.7061,0.2632,-0.6753,0.854,0.366,-0.061,158.307,-44.313,-55.184
180,0.7061,0.2622,-0.6729,0.671,0.427,-0.183,158.313,-44.319,-55.184
190,0.7065,0.2646,-0.6768,0.122,0.427,-0.366,158.313,-44.319,-55.184
200,0.7051,0.2637,-0.6748,-0.488,0.427,-0.488,158.307,-44.319,-55.184
210,0.7036,0.2646,-0.6753,-0.793,0.366,-0.488,158.297,-44.319,-55.184
220,0.7041,0.2656,-0.6753,-0.793,0.366,-0.427,158.286,-44.319,-55.184
230,0.7056,0.2656,-0.6729,-0.488,0.183,-0.244,158.280,-44.319,-55.184
240,0.7056,0.2646,-0.6738,-0.061,0.061,-0.061,158.280,-44.319,-55.184
250,0.7061,0.2656,-0.6758,0.366,0.122,0.183,158.286,-44.319,-55.184
260,0.7070,0.2656,-0.6763,0.488,0.183,0.244,158.297,-44.324,-55.184
270,0.7061,0.2656,-0.6748,0.488,0.244,0.244,158.307,-44.324,-55.184
280,0.7070,0.2656,-0.6768,0.244,0.183,0.244,158.313,-44.324,-55.184
290,0.7056,0.2656,-0.6738,-0.061,0.183,0.061,158.313,-44.324,-55.184
300,0.7056,0.2686,-0.6704,-0.305,0.122,-0.061,158.307,-44.330,-55.184
310,0.7061,0.2686,-0.6689,-0.427,0.061,-0.061,158.302,-44.330,-55.184
320,0.7056,0.2676,-0.6699,-0.427,0.061,-0.061,158.297,-44.330,-55.184
330,0.7046,0.2671,-0.6719,-0.305,0.000,-0.061,158.291,-44.330,-55.184
340,0.7041,0.2695,-0.6704,-0.183,0.061,0.000,158.286,-44.330,-55.184
350,0.7056,0.2705,-0.6689,0.000,0.122,0.000,158.286,-44.330,-55.184
360,0.7046,0.2695,-0.6680,0.244,0.183,0.000,158.286,-44.335,-55.184
370,0.7056,0.2681,-0.6694,0.427,0.427,0.000,158.286,-44.335,-55.184
380,0.7070,0.2686,-0.6699,0.549,0.610,-0.061,158.286,-44.346,-55.184
390,0.7070,0.2695,-0.6733,0.488,0.793,-0.122,158.286,-44.352,-55.184
400,0.7065,0.2671,-0.6729,0.366,0.854,-0.183,158.286,-44.357,-55.184
410,0.7070,0.2651,-0.6748,0.183,0.854,-0.244,158.286,-44.363,-55.184
420,0.7070,0.2642,-0.6763,0.000,0.793,-0.305,158.286,-44.368,-55.184
430,0.7065,0.2666,-0.6743,-0.122,0.610,-0.244,158.280,-44.374,-55.184
440,0.7070,0.2661,-0.6753,-0.122,0.427,-0.244,158.275,-44.374,-55.184
450,0.7075,0.2651,-0.6748,-0.061,0.244,-0.183,158.275,-44.374,-55.184
460,0.7070,0.2656,-0.6743,0.061,0.183,-0.061,158.275,-44.374,-55.184
470,0.7085,0.2642,-0.6753,0.122,0.122,-0.061,158.280,-44.374,-55.184
480,0.7070,0.2671,-0.6689,0.122,0.183,0.000,158.280,-44.379,-55.184
490,0.7090,0.2686,-0.6689,0.122,0.183,0.061,158.280,-44.379,-55.184
500,0.7095,0.2656,-0.6743,0.122,0.305,0.122,158.286,-44.385,-55.184
510,0.7075,0.2671,-0.6758,0.244,0.427,0.183,158.286,-44.390,-55.184
520,0.7061,0.2651,-0.6763,0.366,0.427,0.122,158.297,-44.390,-55.184
530,0.7085,0.2632,-0.6748,0.366,0.427,0.122,158.302,-44.396,-55.184
540,0.7085,0.2646,-0.6758,0.305,0.366,0.061,158.307,-44.396,-55.184
550,0.7080,0.2642,-0.6768,0.061,0.183,-0.061,158.307,-44.396,-55.184
560,0.7046,0.2661,-0.6753,-0.183,-0.122,-0.122,158.307,-44.396,-55.184
570,0.7056,0.2676,-0.6714,-0.366,-0.427,-0.122,158.307,-44.390,-55.184
580,0.7056,0.2666,-0.6729,-0.305,-0.610,-0.183,158.302,-44.379,-55.184
590,0.7075,0.2661,-0.6748,-0.244,-0.549,-0.183,158.302,-44.374,-55.184
600,0.7051,0.2671,-0.6680,-0.061,-0.366,-0.122,158.302,-44.374,-55.184
610,0.7051,0.2681,-0.6689,0.000,-0.183,0.000,158.302,-44.368,-55.184
620,0.7070,0.2676,-0.6724,0.061,-0.061,0.000,158.302,-44.368,-55.184
630,0.7065,0.2656,-0.6719,0.183,0.000,-0.061,158.302,-44.368,-55.184
640,0.7061,0.2656,-0.6704,0.183,-0.061,-0.183,158.307,-44.368,-55.184
650,0.7061,0.2637,-0.6719,-0.122,-0.183,-0.305,158.307,-44.368,-55.184
660,0.7041,0.2617,-0.6699,-0.427,-0.244,-0.366,158.302,-44.363,-55.184
670,0.7051,0.2637,-0.6689,-0.671,-0.305,-0.305,158.297,-44.357,-55.184
680,0.7056,0.2661,-0.6689,-0.671,-0.183,-0.183,158.286,-44.357,-55.184
690,0.7036,0.2676,-0.6699,-0.488,0.122,-0.061,158.280,-44.357,-55.184
700,0.7036,0.2695,-0.6714,-0.122,0.366,0.122,158.280,-44.363,-55.184
710,0.7036,0.2666,-0.6763,0.366,0.610,0.183,158.286,-44.363,-55.184
720,0.7065,0.2661,-0.6782,0.610,0.793,0.244,158.291,-44.368,-55.184
730,0.7051,0.2661,-0.6792,0.610,0.854,0.244,158.302,-44.374,-55.184
740,0.7075,0.2661,-0.6816,0.305,0.793,0.122,158.307,-44.379,-55.184
750,0.7075,0.2690,-0.6802,0.000,0.549,-0.061,158.302,-44.379,-55.184
760,0.7100,0.2720,-0.6802,-0.305,0.183,-0.183,158.297,-44.379,-55.184
770,0.7085,0.2720,-0.6772,-0.366,-0.183,-0.244,158.291,-44.374,-55.184
780,0.7109,0.2710,-0.6743,-0.427,-0.671,-0.244,158.286,-44.368,-55.184
790,0.7095,0.2695,-0.6729,-0.305,-0.977,-0.305,158.280,-44.357,-55.184
800,0.7104,0.2671,-0.6729,-0.122,-1.038,-0.427,158.280,-44.346,-55.184
810,0.7090,0.2651,-0.6685,-0.122,-0.916,-0.427,158.280,-44.341,-55.184
820,0.7051,0.2617,-0.6675,-0.305,-0.793,-0.488,158.280,-44.335,-55.184
830,0.7051,0.2617,-0.6650,-0.610,-0.671,-0.427,158.275,-44.330,-55.184
840,0.7056,0.2622,-0.6641,-0.671,-0.427,-0.244,158.269,-44.330,-55.184
850,0.7021,0.2622,-0.6646,-0.427,-0.122,0.000,158.264,-44.330,-55.184
860,0.7026,0.2632,-0.6660,-0.061,0.305,0.244,158.269,-44.335,-55.184
870,0.7012,0.2632,-0.6704,0.366,0.671,0.427,158.275,-44.341,-55.184
880,0.7031,0.2627,-0.6724,0.488,0.854,0.488,158.286,-44.346,-55.184
890,0.7051,0.2632,-0.6753,0.610,0.854,0.610,158.297,-44.357,-55.184
900,0.7041,0.2651,-0.6772,0.427,0.671,0.671,158.307,-44.363,-55.184
910,0.7065,0.2681,-0.6782,0.183,0.488,0.610,158.318,-44.368,-55.184
920,0.7061,0.2705,-0.6782,0.122,0.305,0.488,158.318,-44.368,-55.184
930,0.7075,0.2686,-0.6758,0.000,0.000,0.366,158.324,-44.368,-55.184
940,0.7080,0.2661,-0.6758,-0.061,-0.244,0.244,158.329,-44.368,-55.184
950,0.7041,0.2681,-0.6758,-0.061,-0.549,0.122,158.329,-44.357,-55.184
960,0.7056,0.2686,-0.6733,-0.061,-0.732,0.000,158.329,-44.352,-55.184
970,0.7041,0.2671,-0.6709,0.000,-0.732,-0.122,158.335,-44.346,-55.184
980,0.7012,0.2676,-0.6689,0.000,-0.549,-0.244,158.329,-44.335,-55.184
990,0.7021,0.2661,-0.6680,0.000,-0.366,-0.244,158.329,-44.330,-55.184
1000,0.7017,0.2681,-0.6675,0.061,-0.122,-0.305,158.324,-44.330,-55.184
1010,0.7017,0.2671,-0.6641,0.183,0.183,-0.305,158.324,-44.330,-55.184
1020,0.7031,0.2656,-0.6660,0.305,0.488,-0.244,158.318,-44.335,-55.184
1030,0.7051,0.2642,-0.6675,0.366,0.732,-0.244,158.318,-44.346,-55.184
1040,0.7046,0.2617,-0.6704,0.366,0.977,-0.244,158.324,-44.352,-55.184
1050,0.7070,0.2627,-0.6724,0.366,1.099,-0.244,158.324,-44.363,-55.184
1060,0.7085,0.2627,-0.6753,0.183,1.099,-0.244,158.324,-44.374,-55.184
1070,0.7090,0.2617,-0.6797,0.061,1.099,-0.244,158.324,-44.379,-55.184
1080,0.7075,0.2622,-0.6821,-0.122,0.977,-0.183,158.324,-44.385,-55.184
1090,0.7085,0.2627,-0.6816,-0.061,0.732,-0.061,158.324,-44.390,-55.184
1100,0.7085,0.2637,-0.6826,0.000,0.366,0.122,158.329,-44.390,-55.184
1110,0.7061,0.2642,-0.6797,0.061,0.000,0.122,158.335,-44.385,-55.184
1120,0.7075,0.2637,-0.6816,0.183,-0.366,0.244,158.346,-44.379,-55.184
1130,0.7080,0.2656,-0.6782,0.183,-0.671,0.183,158.357,-44.374,-55.184
1140,0.7075,0.2651,-0.6763,0.000,-0.854,0.183,158.362,-44.368,-55.184
1150,0.7065,0.2661,-0.6768,-0.183,-0.916,0.061,158.368,-44.357,-55.184
1160,0.7070,0.2676,-0.6709,-0.427,-0.916,0.000,158.362,-44.346,-55.184
1170,0.7051,0.2690,-0.6694,-0.427,-0.793,-0.122,158.357,-44.341,-55.184
1180,0.7046,0.2671,-0.6670,-0.427,-0.610,-0.122,158.351,-44.335,-55.184
1190,0.7041,0.2676,-0.6646,-0.427,-0.488,-0.183,158.346,-44.330,-55.184
1200,0.7026,0.2661,-0.6641,-0.427,-0.427,-0.122,158.340,-44.330,-55.184
1210,0.7051,0.2671,-0.6665,-0.366,-0.305,0.000,158.335,-44.330,-55.184
1220,0.7041,0.2656,-0.6680,-0.183,-0.122,0.061,158.335,-44.330,-55.184
1230,0.7051,0.2681,-0.6689,0.000,0.183,0.122,158.335,-44.330,-55.184
1240,0.7056,0.2681,-0.6704,0.183,0.488,0.122,158.335,-44.335,-55.184
1250,0.7051,0.2666,-0.6743,0.305,0.671,0.000,158.335,-44.341,-55.184
1260,0.7036,0.2666,-0.6758,0.244,0.732,-0.061,158.335,-44.346,-55.184
1270,0.7051,0.2646,-0.6758,0.000,0.732,-0.183,158.335,-44.352,-55.184
1280,0.7051,0.2651,-0.6763,-0.122,0.610,-0.183,158.335,-44.352,-55.184
1290,0.7061,0.2651,-0.6777,-0.244,0.488,-0.183,158.329,-44.352,-55.184
1300,0.7065,0.2642,-0.6782,-0.183,0.366,-0.183,158.329,-44.357,-55.184
1310,0.7100,0.2642,-0.6792,0.000,0.122,-0.122,158.329,-44.352,-55.184
1321,0.7090,0.2637,-0.6782,0.244,-0.122,0.061,158.340,-44.352,-55.184
1330,0.7075,0.2622,-0.6753,0.427,-0.366,0.122,158.351,-44.352,-55.184
1340,0.7075,0.2612,-0.6743,0.427,-0.427,0.122,158.362,-44.346,-55.184
1350,0.7065,0.2627,-0.6743,0.366,-0.488,0.122,158.373,-44.341,-55.184
1360,0.7046,0.2651,-0.6729,0.183,-0.488,0.122,158.379,-44.335,-55.184
1370,0.7041,0.2671,-0.6699,0.000,-0.427,0.183,158.379,-44.335,-55.184
1380,0.7051,0.2671,-0.6724,-0.122,-0.427,0.183,158.379,-44.330,-55.184
1390,0.7051,0.2676,-0.6719,0.000,-0.366,0.244,158.384,-44.330,-55.184
1400,0.7046,0.2686,-0.6719,0.183,-0.366,0.305,158.390,-44.324,-55.184
1410,0.7021,0.2671,-0.6714,0.244,-0.183,0.244,158.390,-44.324,-55.184
1420,0.7002,0.2661,-0.6704,0.183,0.061,0.122,158.395,-44.324,-55.184
1430,0.7021,0.2666,-0.6709,0.000,0.183,0.000,158.395,-44.324,-55.184
1440,0.7046,0.2666,-0.6709,-0.183,0.366,-0.122,158.390,-44.324,-55.184
1450,0.7061,0.2681,-0.6719,-0.366,0.549,-0.183,158.379,-44.330,-55.184
1460,0.7056,0.2695,-0.6758,-0.244,0.488,-0.183,158.373,-44.330,-55.184
1470,0.7075,0.2666,-0.6768,0.000,0.366,-0.183,158.368,-44.335,-55.184
1480,0.7095,0.2642,-0.6763,0.244,0.183,-0.183,158.373,-44.335,-55.184
1490,0.7095,0.2617,-0.6787,0.305,0.061,-0.122,158.379,-44.335,-55.184
1500,0.7085,0.2603,-0.6772,0.183,-0.183,-0.183,158.390,-44.330,-55.184
1510,0.7051,0.2607,-0.6772,-0.122,-0.366,-0.183,158.390,-44.324,-55.184
1520,0.7051,0.2617,-0.6743,-0.427,-0.427,-0.244,158.390,-44.319,-55.184
1530,0.7026,0.2632,-0.6733,-0.610,-0.488,-0.183,158.384,-44.313,-55.184
1540,0.7017,0.2622,-0.6719,-0.549,-0.427,-0.061,158.384,-44.308,-55.184
1550,0.7031,0.2627,-0.6719,-0.183,-0.366,0.122,158.390,-44.308,-55.184
1560,0.7041,0.2661,-0.6772,0.244,-0.244,0.244,158.395,-44.302,-55.184
1570,0.7031,0.2651,-0.6753,0.549,-0.061,0.366,158.406,-44.302,-55.184
1580,0.7036,0.2661,-0.6768,0.671,0.061,0.366,158.417,-44.302,-55.184
1590,0.7070,0.2651,-0.6782,0.488,0.183,0.366,158.428,-44.302,-55.184
1600,0.7090,0.2681,-0.6787,0.244,0.183,0.244,158.434,-44.302,-55.184
1610,0.7085,0.2676,-0.6782,-0.061,0.183,0.061,158.428,-44.302,-55.184
1620,0.7085,0.2676,-0.6792,-0.366,0.000,-0.061,158.428,-44.302,-55.184
1630,0.7075,0.2690,-0.6738,-0.488,-0.305,-0.183,158.417,-44.297,-55.184
1640,0.7075,0.2686,-0.6743,-0.549,-0.610,-0.305,158.412,-44.291,-55.184
1650,0.7070,0.2681,-0.6738,-0.488,-0.854,-0.366,158.406,-44.280,-55.184
1660,0.7070,0.2656,-0.6738,-0.427,-0.977,-0.366,158.401,-44.275,-55.184
1670,0.7061,0.2637,-0.6709,-0.366,-0.854,-0.366,158.401,-44.264,-55.184
1680,0.7051,0.2622,-0.6689,-0.366,-0.610,-0.366,158.395,-44.258,-55.184
1690,0.7046,0.2622,-0.6680,-0.305,-0.366,-0.305,158.395,-44.258,-55.184
1700,0.7031,0.2593,-0.6719,-0.244,-0.183,-0.244,158.395,-44.258,-55.184
1710,0.7017,0.2593,-0.6699,-0.244,-0.061,-0.183,158.395,-44.258,-55.184
1720,0.7026,0.2622,-0.6709,-0.244,-0.061,-0.061,158.395,-44.253,-55.184
1730,0.7012,0.2642,-0.6694,-0.122,-0.061,0.183,158.395,-44.258,-55.184
1740,0.7026,0.2651,-0.6714,0.122,-0.061,0.305,158.401,-44.258,-55.184
1750,0.7017,0.2671,-0.6719,0.427,-0.061,0.488,158.412,-44.258,-55.184
1760,0.7026,0.2676,-0.6738,0.610,0.122,0.549,158.423,-44.258,-55.184
1770,0.7041,0.2686,-0.6748,0.732,0.305,0.488,158.428,-44.264,-55.184
1780,0.7036,0.2681,-0.6753,0.732,0.488,0.366,158.439,-44.264,-55.184
1790,0.7051,0.2686,-0.6777,0.488,0.488,0.122,158.439,-44.269,-55.184
1800,0.7031,0.2676,-0.6782,0.122,0.305,-0.122,158.439,-44.269,-55.184
1810,0.7017,0.2681,-0.6772,-0.183,0.122,-0.305,158.434,-44.264,-55.184
1821,0.7041,0.2666,-0.6748,-0.427,0.000,-0.427,158.428,-44.264,-55.184
1830,0.7031,0.2656,-0.6753,-0.366,-0.122,-0.427,158.423,-44.258,-55.184
1840,0.7021,0.2637,-0.6738,-0.183,-0.183,-0.305,158.417,-44.253,-55.184
1850,0.7031,0.2627,-0.6719,0.183,-0.183,-0.244,158.423,-44.253,-55.184
1860,0.7031,0.2627,-0.6724,0.366,-0.122,-0.122,158.428,-44.247,-55.184
1870,0.7051,0.2607,-0.6777,0.549,0.061,-0.061,158.439,-44.247,-55.184
1880,0.7075,0.2598,-0.6782,0.488,0.244,0.000,158.445,-44.253,-55.184
1890,0.7061,0.2603,-0.6777,0.366,0.305,0.000,158.456,-44.253,-55.184
1900,0.7061,0.2617,-0.6772,0.122,0.244,-0.061,158.461,-44.253,-55.184
1910,0.7046,0.2617,-0.6777,-0.183,0.183,-0.061,158.461,-44.253,-55.184
1920,0.7056,0.2622,-0.6782,-0.366,-0.061,0.000,158.461,-44.253,-55.184
1930,0.7046,0.2646,-0.6792,-0.305,-0.244,0.061,158.461,-44.247,-55.184
1940,0.7021,0.2632,-0.6777,-0.183,-0.305,0.061,158.467,-44.242,-55.184
1950,0.7017,0.2617,-0.6743,-0.061,-0.244,0.183,158.472,-44.242,-55.184
1960,0.7036,0.2651,-0.6753,0.000,-0.183,0.183,158.472,-44.242,-55.184
1970,0.7036,0.2637,-0.6738,0.000,-0.122,0.244,158.478,-44.242,-55.184
1980,0.7041,0.2671,-0.6729,0.000,0.000,0.244,158.478,-44.242,-55.184
1990,0.7017,0.2656,-0.6753,-0.061,0.122,0.244,158.478,-44.242,-55.184
2000,0.7026,0.2681,-0.6758,0.000,0.244,0.183,158.478,-44.242,-55.184
2010,0.7056,0.2671,-0.6743,0.000,0.244,0.122,158.478,-44.242,-55.184
2020,0.7051,0.2642,-0.6758,0.000,0.244,0.122,158.478,-44.247,-55.184
2030,0.7046,0.2690,-0.6753,0.000,0.183,0.061,158.478,-44.247,-55.184
2040,0.7036,0.2666,-0.6753,0.061,0.183,-0.061,158.478,-44.247,-55.184
2050,0.7036,0.2661,-0.6763,0.061,0.183,-0.183,158.478,-44.247,-55.184
2060,0.7056,0.2642,-0.6758,0.000,0.183,-0.305,158.472,-44.247,-55.184
2070,0.7046,0.2651,-0.6748,-0.183,0.122,-0.366,158.472,-44.247,-55.184
2080,0.7056,0.2651,-0.6768,-0.305,0.183,-0.427,158.461,-44.242,-55.184
2090,0.7051,0.2642,-0.6738,-0.305,0.183,-0.427,158.456,-44.247,-55.184
2100,0.7051,0.2622,-0.6719,-0.244,0.244,-0.244,158.456,-44.247,-55.184
2110,0.7046,0.2617,-0.6753,-0.122,0.305,-0.183,158.456,-44.247,-55.184
2120,0.7041,0.2612,-0.6772,0.061,0.366,-0.122,158.456,-44.253,-55.184
2130,0.7051,0.2627,-0.6758,0.122,0.305,0.000,158.461,-44.253,-55.184
2140,0.7056,0.2642,-0.6738,0.061,0.305,0.122,158.461,-44.258,-55.184
2150,0.7056,0.2637,-0.6758,0.000,0.244,0.183,158.467,-44.258,-55.184
2160,0.7061,0.2642,-0.6753,0.000,0.183,0.122,158.467,-44.264,-55.184
2170,0.7051,0.2676,-0.6753,-0.061,0.183,0.061,158.467,-44.264,-55.184
2180,0.7061,0.2656,-0.6782,0.000,0.122,0.000,158.467,-44.264,-55.184
2190,0.7065,0.2651,-0.6748,-0.061,0.000,0.000,158.467,-44.264,-55.184
2200,0.7056,0.2676,-0.6758,-0.122,-0.122,-0.061,158.467,-44.258,-55.184
2210,0.7051,0.2671,-0.6758,-0.244,-0.244,-0.061,158.461,-44.258,-55.184
2220,0.7056,0.2681,-0.6777,-0.244,-0.305,-0.122,158.461,-44.253,-55.184
2230,0.7061,0.2681,-0.6763,-0.244,-0.305,-0.183,158.456,-44.247,-55.184
2240,0.7046,0.2661,-0.6733,-0.183,-0.244,-0.183,158.450,-44.242,-55.184
2250,0.7051,0.2676,-0.6719,-0.122,-0.122,-0.244,158.445,-44.242,-55.184
2260,0.7056,0.2676,-0.6733,-0.122,0.000,-0.305,158.445,-44.242,-55.184
2270,0.7046,0.2671,-0.6763,-0.183,0.061,-0.366,158.439,-44.236,-55.184
2280,0.7031,0.2646,-0.6748,-0.244,0.122,-0.427,158.434,-44.236,-55.184
2290,0.7036,0.2632,-0.6743,-0.427,0.061,-0.549,158.423,-44.236,-55.184
2300,0.7056,0.2637,-0.6743,-0.488,-0.061,-0.488,158.417,-44.231,-55.184
2310,0.7036,0.2642,-0.6763,-0.427,-0.183,-0.427,158.412,-44.231,-55.184
2321,0.7041,0.2632,-0.6763,-0.366,-0.305,-0.305,158.412,-44.225,-55.184
2330,0.7061,0.2632,-0.6777,-0.244,-0.244,-0.183,158.412,-44.220,-55.184
2340,0.7051,0.2642,-0.6753,0.000,-0.183,-0.061,158.412,-44.220,-55.184
2350,0.7051,0.2646,-0.6777,0.183,-0.122,-0.061,158.417,-44.214,-55.184
2360,0.7031,0.2637,-0.6777,0.122,-0.183,-0.122,158.423,-44.214,-55.184
2370,0.7046,0.2661,-0.6753,-0.122,-0.183,-0.122,158.423,-44.209,-55.184
2380,0.7036,0.2627,-0.6743,-0.427,-0.305,-0.244,158.417,-44.203,-55.184
2390,0.7026,0.2642,-0.6724,-0.671,-0.366,-0.244,158.412,-44.203,-55.184
2400,0.7021,0.2642,-0.6694,-0.793,-0.488,-0.183,158.406,-44.198,-55.184
2410,0.7017,0.2676,-0.6709,-0.610,-0.427,-0.122,158.395,-44.193,-55.184
2420,0.7017,0.2681,-0.6743,-0.305,-0.183,0.061,158.395,-44.193,-55.184
2430,0.7017,0.2661,-0.6719,0.061,0.122,0.183,158.395,-44.193,-55.184
2440,0.7002,0.2676,-0.6753,0.305,0.488,0.183,158.401,-44.193,-55.184
2450,0.7012,0.2666,-0.6772,0.244,0.610,0.000,158.401,-44.198,-55.184
2460,0.7012,0.2671,-0.6807,0.000,0.671,-0.122,158.401,-44.198,-55.184
2470,0.7031,0.2656,-0.6812,-0.244,0.549,-0.183,158.395,-44.203,-55.184
2480,0.7065,0.2661,-0.6802,-0.488,0.305,-0.305,158.390,-44.203,-55.184
2490,0.7051,0.2695,-0.6812,-0.610,0.061,-0.244,158.384,-44.198,-55.184
2500,0.7080,0.2666,-0.6777,-0.549,-0.122,-0.244,158.373,-44.198,-55.184
2510,0.7070,0.2666,-0.6768,-0.427,-0.244,-0.244,158.373,-44.193,-55.184
2520,0.7046,0.2681,-0.6738,-0.305,-0.366,-0.183,158.368,-44.187,-55.184
2530,0.7041,0.2661,-0.6729,-0.244,-0.366,-0.183,158.368,-44.187,-55.184
2540,0.7031,0.2637,-0.6714,-0.366,-0.366,-0.244,158.362,-44.182,-55.184
2550,0.7046,0.2646,-0.6699,-0.488,-0.183,-0.305,158.357,-44.182,-55.184
2560,0.7021,0.2632,-0.6685,-0.549,0.000,-0.305,158.351,-44.182,-55.184
2570,0.7021,0.2637,-0.6680,-0.549,0.122,-0.183,158.346,-44.182,-55.184
2580,0.7031,0.2646,-0.6685,-0.366,0.244,0.061,158.340,-44.187,-55.184
2590,0.7036,0.2651,-0.6680,-0.183,0.427,0.244,158.340,-44.198,-55.184
2600,0.7041,0.2666,-0.6709,0.244,0.610,0.488,158.346,-44.203,-55.184
2610,0.7051,0.2642,-0.6724,0.549,0.854,0.488,158.351,-44.214,-55.184
2620,0.7051,0.2666,-0.6743,0.671,1.038,0.549,158.362,-44.225,-55.184
2630,0.7031,0.2656,-0.6753,0.488,0.977,0.366,158.368,-44.236,-55.184
2640,0.7051,0.2661,-0.6777,0.061,0.793,0.183,158.368,-44.242,-55.184
2650,0.7065,0.2656,-0.6782,-0.305,0.610,0.061,158.368,-44.247,-55.184
2660,0.7065,0.2646,-0.6768,-0.610,0.305,0.000,158.362,-44.247,-55.184
2670,0.7046,0.2651,-0.6772,-0.610,0.000,0.000,158.357,-44.247,-55.184
2680,0.7021,0.2666,-0.6748,-0.427,-0.122,0.122,158.357,-44.247,-55.184
2690,0.7026,0.2656,-0.6758,-0.122,-0.183,0.183,158.357,-44.242,-55.184
2700,0.7021,0.2671,-0.6733,0.183,-0.122,0.183,158.362,-44.242,-55.184
2710,0.7007,0.2651,-0.6729,0.244,0.061,0.183,158.368,-44.242,-55.184
2720,0.7012,0.2651,-0.6729,0.122,0.183,0.122,158.373,-44.242,-55.184
2730,0.7031,0.2651,-0.6733,0.000,0.305,0.061,158.373,-44.242,-55.184
2740,0.7041,0.2646,-0.6743,-0.183,0.427,0.000,158.373,-44.247,-55.184
2750,0.7046,0.2676,-0.6748,-0.244,0.488,-0.061,158.368,-44.253,-55.184
2760,0.7075,0.2666,-0.6753,-0.183,0.427,-0.061,158.362,-44.253,-55.184
2770,0.7061,0.2646,-0.6748,0.000,0.427,-0.061,158.362,-44.258,-55.184
2780,0.7041,0.2637,-0.6753,-0.061,0.427,-0.061,158.362,-44.264,-55.184
2790,0.7036,0.2632,-0.6743,-0.061,0.488,-0.122,158.362,-44.264,-55.184
2800,0.7031,0.2637,-0.6738,-0.183,0.488,-0.122,158.362,-44.269,-55.184
2810,0.7046,0.2622,-0.6738,-0.366,0.549,-0.122,158.357,-44.275,-55.184
2821,0.7021,0.2646,-0.6729,-0.427,0.671,-0.122,158.351,-44.275,-55.184
2830,0.7036,0.2656,-0.6782,-0.244,0.549,-0.061,158.351,-44.280,-55.184
2840,0.7061,0.2656,-0.6772,-0.183,0.488,0.000,158.351,-44.280,-55.184
2850,0.7070,0.2656,-0.6733,-0.122,0.305,0.122,158.351,-44.286,-55.184
2860,0.7051,0.2676,-0.6743,0.000,0.244,0.183,158.351,-44.286,-55.184
2870,0.7056,0.2666,-0.6748,0.061,0.183,0.183,158.351,-44.291,-55.184
2880,0.7051,0.2700,-0.6753,0.122,0.061,0.122,158.351,-44.291,-55.184
2890,0.7065,0.2690,-0.6733,0.122,0.122,0.061,158.351,-44.291,-55.184
2900,0.7070,0.2690,-0.6719,0.061,0.122,-0.061,158.351,-44.291,-55.184
2910,0.7070,0.2671,-0.6724,0.000,0.244,-0.244,158.346,-44.291,-55.184
2920,0.7065,0.2651,-0.6709,-0.183,0.244,-0.427,158.340,-44.297,-55.184
2930,0.7075,0.2671,-0.6733,-0.488,0.305,-0.549,158.329,-44.297,-55.184
2940,0.7080,0.2656,-0.6738,-0.610,0.244,-0.488,158.318,-44.297,-55.184
2950,0.7080,0.2686,-0.6738,-0.427,0.183,-0.305,158.313,-44.297,-55.184
2960,0.7090,0.2666,-0.6738,-0.122,0.122,-0.183,158.313,-44.302,-55.184
2970,0.7075,0.2656,-0.6724,0.244,0.122,-0.122,158.313,-44.302,-55.184
2980,0.7051,0.2637,-0.6748,0.488,0.183,0.000,158.318,-44.302,-55.184
2990,0.7056,0.2632,-0.6748,0.427,0.305,-0.122,158.324,-44.302,-55.184
3000,0.7051,0.2627,-0.6709,0.122,0.305,-0.122,158.329,-44.308,-55.184
3010,0.7056,0.2642,-0.6704,-0.122,0.244,-0.061,158.329,-44.313,-55.184
3020,0.7061,0.2666,-0.6733,-0.305,0.183,-0.061,158.324,-44.313,-55.184
3030,0.7080,0.2676,-0.6768,-0.183,0.122,0.122,158.324,-44.313,-55.184
3040,0.7080,0.2681,-0.6753,0.183,0.122,0.244,158.329,-44.313,-55.184
3050,0.7095,0.2681,-0.6777,0.610,0.183,0.366,158.335,-44.319,-55.184
3060,0.7080,0.2661,-0.6763,0.793,0.244,0.305,158.346,-44.319,-55.184
3070,0.7075,0.2642,-0.6777,0.732,0.183,0.122,158.357,-44.319,-55.184
3080,0.7051,0.2646,-0.6763,0.366,0.000,-0.061,158.368,-44.319,-55.184
3090,0.7070,0.2646,-0.6768,-0.122,-0.305,-0.305,158.368,-44.313,-55.184
3100,0.7061,0.2656,-0.6729,-0.488,-0.549,-0.305,158.362,-44.308,-55.184
3110,0.7046,0.2671,-0.6699,-0.610,-0.732,-0.305,158.351,-44.302,-55.184
3120,0.7036,0.2700,-0.6650,-0.488,-0.854,-0.244,158.346,-44.291,-55.184
3130,0.7041,0.2705,-0.6675,-0.061,-0.854,-0.061,158.340,-44.286,-55.184
3140,0.7051,0.2671,-0.6675,0.488,-0.610,0.122,158.351,-44.280,-55.184
3150,0.7046,0.2681,-0.6670,0.916,-0.122,0.183,158.357,-44.286,-55.184
3160,0.7051,0.2666,-0.6694,1.038,0.427,0.122,158.368,-44.291,-55.184
3170,0.7070,0.2661,-0.6724,0.854,0.793,0.000,158.373,-44.297,-55.184
3180,0.7070,0.2651,-0.6738,0.305,0.854,-0.244,158.373,-44.302,-55.184
3190,0.7090,0.2646,-0.6772,-0.183,0.610,-0.366,158.368,-44.308,-55.184
3200,0.7090,0.2661,-0.6748,-0.549,0.244,-0.427,158.357,-44.308,-55.184
3210,0.7085,0.2666,-0.6768,-0.610,-0.122,-0.305,158.351,-44.308,-55.184
3220,0.7095,0.2656,-0.6758,-0.305,-0.183,-0.183,158.351,-44.302,-55.184
3230,0.7051,0.2622,-0.6719,0.122,-0.122,-0.061,158.351,-44.302,-55.184
3240,0.7031,0.2622,-0.6743,0.244,0.061,-0.061,158.357,-44.302,-55.184
3250,0.7036,0.2637,-0.6729,0.122,0.061,-0.061,158.362,-44.302,-55.184
3260,0.7012,0.2646,-0.6729,-0.122,0.061,0.000,158.362,-44.302,-55.184
3270,0.7056,0.2661,-0.6758,-0.122,0.061,0.122,158.362,-44.302,-55.184
3280,0.7061,0.2686,-0.6763,0.061,0.061,0.305,158.368,-44.302,-55.184
3290,0.7080,0.2695,-0.6777,0.427,0.244,0.427,158.373,-44.302,-55.184
3300,0.7100,0.2715,-0.6792,0.916,0.305,0.549,158.384,-44.308,-55.184
3310,0.7109,0.2720,-0.6797,1.160,0.427,0.488,158.395,-44.313,-55.184
3321,0.7095,0.2705,-0.6777,0.977,0.305,0.183,158.406,-44.313,-55.184
3330,0.7075,0.2676,-0.6782,0.305,0.061,-0.244,158.406,-44.313,-55.184
3340,0.7100,0.2681,-0.6733,-0.610,-0.366,-0.610,158.395,-44.308,-55.184
3350,0.7114,0.2666,-0.6738,-1.221,-0.793,-0.793,158.379,-44.302,-55.184
3360,0.7109,0.2671,-0.6680,-1.465,-1.160,-0.854,158.357,-44.291,-55.184
3370,0.7095,0.2661,-0.6636,-1.221,-1.343,-0.732,158.346,-44.280,-55.184
3380,0.7051,0.2637,-0.6626,-0.671,-1.221,-0.427,158.335,-44.269,-55.184
3390,0.7026,0.2617,-0.6616,0.061,-0.793,-0.061,158.340,-44.269,-55.184
3400,0.7026,0.2603,-0.6641,0.610,-0.122,0.244,158.351,-44.269,-55.184
3410,0.7017,0.2617,-0.6675,0.793,0.610,0.427,158.362,-44.280,-55.184
3420,0.7026,0.2617,-0.6699,0.732,1.160,0.549,158.373,-44.291,-55.184
3430,0.7051,0.2642,-0.6738,0.549,1.221,0.610,158.384,-44.302,-55.184
3440,0.7065,0.2671,-0.6763,0.427,0.977,0.549,158.390,-44.313,-55.184
3450,0.7075,0.2686,-0.6753,0.366,0.610,0.488,158.395,-44.319,-55.184
3460,0.7095,0.2695,-0.6777,0.488,0.244,0.488,158.401,-44.324,-55.184
3470,0.7104,0.2700,-0.6733,0.549,-0.061,0.427,158.406,-44.324,-55.184
3480,0.7100,0.2666,-0.6743,0.488,-0.305,0.305,158.417,-44.324,-55.184
3490,0.7080,0.2676,-0.6743,0.244,-0.610,0.122,158.423,-44.319,-55.184
3500,0.7070,0.2686,-0.6685,-0.122,-0.793,0.000,158.423,-44.313,-55.184
3510,0.7041,0.2681,-0.6680,-0.305,-0.732,-0.122,158.417,-44.308,-55.184
3520,0.7041,0.2661,-0.6655,-0.183,-0.427,-0.183,158.412,-44.302,-55.184
3530,0.7021,0.2651,-0.6655,0.000,-0.183,-0.305,158.412,-44.302,-55.184
3540,0.7012,0.2666,-0.6641,0.244,0.122,-0.305,158.406,-44.302,-55.184
3550,0.7041,0.2646,-0.6704,0.488,0.610,-0.061,158.406,-44.308,-55.184
3560,0.7046,0.2651,-0.6714,0.549,0.732,-0.061,158.412,-44.319,-55.184
3570,0.7065,0.2642,-0.6724,0.488,0.854,0.000,158.412,-44.324,-55.184
3580,0.7075,0.2661,-0.6743,0.549,0.854,0.000,158.417,-44.335,-55.184
3590,0.7075,0.2651,-0.6768,0.549,0.793,0.000,158.423,-44.341,-55.184
3600,0.7090,0.2656,-0.6797,0.549,0.671,0.000,158.428,-44.346,-55.184
3610,0.7109,0.2646,-0.6816,0.488,0.488,0.000,158.434,-44.346,-55.184
3620,0.7104,0.2627,-0.6787,0.244,0.305,-0.183,158.439,-44.352,-55.184
3630,0.7100,0.2622,-0.6782,0.000,0.061,-0.183,158.439,-44.352,-55.184
3640,0.7095,0.2617,-0.6802,-0.305,-0.244,-0.244,158.439,-44.346,-55.184
3650,0.7095,0.2632,-0.6763,-0.488,-0.488,-0.122,158.439,-44.341,-55.184
3660,0.7070,0.2637,-0.6753,-0.427,-0.671,-0.061,158.439,-44.335,-55.184
3670,0.7065,0.2622,-0.6733,-0.305,-0.793,0.000,158.439,-44.324,-55.184
3680,0.7041,0.2656,-0.6729,-0.061,-0.793,0.122,158.445,-44.319,-55.184
3690,0.7031,0.2651,-0.6685,0.244,-0.732,0.183,158.450,-44.313,-55.184
3700,0.7036,0.2666,-0.6699,0.305,-0.488,0.305,158.456,-44.308,-55.184
3710,0.7041,0.2681,-0.6685,0.305,-0.183,0.244,158.461,-44.308,-55.184
3720,0.7056,0.2661,-0.6689,0.244,-0.061,0.183,158.461,-44.313,-55.184
3730,0.7075,0.2656,-0.6719,0.122,0.000,0.000,158.461,-44.313,-55.184
3740,0.7075,0.2661,-0.6714,-0.122,0.061,-0.122,158.461,-44.313,-55.184
3750,0.7075,0.2666,-0.6729,-0.244,0.000,-0.183,158.456,-44.313,-55.184
3760,0.7080,0.2656,-0.6719,-0.366,-0.061,-0.244,158.450,-44.313,-55.184
3770,0.7075,0.2676,-0.6675,-0.366,-0.122,-0.244,158.439,-44.313,-55.184
3780,0.7065,0.2690,-0.6694,-0.183,-0.122,-0.244,158.434,-44.313,-55.184
3790,0.7056,0.2661,-0.6694,0.000,-0.061,-0.183,158.434,-44.313,-55.184
3800,0.7056,0.2661,-0.6704,0.183,0.061,-0.122,158.428,-44.313,-55.184
3810,0.7061,0.2661,-0.6709,0.366,0.244,-0.061,158.434,-44.313,-55.184
3821,0.7061,0.2646,-0.6733,0.427,0.427,-0.061,158.434,-44.319,-55.184
3830,0.7075,0.2651,-0.6738,0.488,0.549,-0.122,158.439,-44.324,-55.184
3840,0.7075,0.2651,-0.6748,0.427,0.488,-0.183,158.439,-44.330,-55.184
3850,0.7075,0.2627,-0.6758,0.366,0.305,-0.183,158.445,-44.330,-55.184
3860,0.7090,0.2637,-0.6787,0.244,0.061,-0.183,158.450,-44.330,-55.184
3870,0.7080,0.2627,-0.6758,0.122,-0.244,-0.061,158.450,-44.324,-55.184
3880,0.7075,0.2656,-0.6733,0.122,-0.427,0.061,158.456,-44.324,-55.184
3890,0.7061,0.2656,-0.6729,0.305,-0.427,0.244,158.461,-44.319,-55.184
3900,0.7051,0.2666,-0.6714,0.549,-0.366,0.305,158.472,-44.319,-55.184
3910,0.7051,0.2661,-0.6719,0.732,-0.244,0.305,158.483,-44.313,-55.184
3920,0.6997,0.2656,-0.6704,0.732,-0.122,0.244,158.489,-44.313,-55.184
3930,0.6982,0.2651,-0.6694,0.366,0.000,0.122,158.494,-44.313,-55.184
3940,0.7021,0.2651,-0.6694,0.000,0.000,-0.061,158.494,-44.313,-55.184
3950,0.7046,0.2676,-0.6704,-0.305,-0.122,-0.183,158.483,-44.313,-55.184
3960,0.7061,0.2690,-0.6665,-0.427,0.000,-0.122,158.478,-44.313,-55.184
3970,0.7061,0.2690,-0.6685,-0.183,0.122,0.000,158.467,-44.313,-55.184
3980,0.7095,0.2686,-0.6704,0.366,0.305,0.061,158.467,-44.319,-55.184
3990,0.7095,0.2671,-0.6733,0.793,0.488,0.122,158.478,-44.324,-55.184
4000,0.7075,0.2642,-0.6719,1.038,0.427,0.061,158.483,-44.330,-55.184
4010,0.7075,0.2637,-0.6729,0.732,0.305,-0.061,158.494,-44.335,-55.184
4020,0.7080,0.2612,-0.6748,0.183,0.244,-0.183,158.494,-44.335,-55.184
4030,0.7075,0.2612,-0.6689,-0.305,0.183,-0.305,158.489,-44.341,-55.184
4040,0.7070,0.2627,-0.6704,-0.610,0.122,-0.305,158.483,-44.341,-55.184
4050,0.7056,0.2642,-0.6714,-0.610,0.122,-0.244,158.472,-44.341,-55.184
4060,0.7051,0.2627,-0.6719,-0.305,0.122,-0.061,158.472,-44.341,-55.184
4070,0.7065,0.2637,-0.6733,0.122,0.183,0.244,158.478,-44.346,-55.184
4080,0.7056,0.2622,-0.6733,0.488,0.244,0.488,158.489,-44.346,-55.184
4090,0.7051,0.2656,-0.6748,0.793,0.305,0.549,158.500,-44.352,-55.184
4100,0.7061,0.2676,-0.6763,0.916,0.244,0.610,158.511,-44.352,-55.184
4110,0.7075,0.2676,-0.6777,0.854,0.244,0.610,158.522,-44.357,-55.184
4120,0.7119,0.2695,-0.6782,0.732,0.244,0.488,158.533,-44.363,-55.184
4130,0.7124,0.2690,-0.6782,0.549,0.305,0.366,158.538,-44.363,-55.184
4140,0.7114,0.2676,-0.6797,0.244,0.244,0.122,158.538,-44.363,-55.184
4150,0.7109,0.2661,-0.6772,-0.061,0.000,-0.183,158.538,-44.363,-55.184
4160,0.7104,0.2656,-0.6753,-0.488,-0.427,-0.427,158.533,-44.357,-55.184
4170,0.7100,0.2666,-0.6709,-0.793,-0.854,-0.549,158.522,-44.352,-55.184
4180,0.7075,0.2646,-0.6670,-0.854,-1.160,-0.488,158.511,-44.341,-55.184
4190,0.7065,0.2642,-0.6636,-0.671,-1.160,-0.427,158.500,-44.335,-55.184
4200,0.7056,0.2622,-0.6616,-0.244,-0.916,-0.305,158.500,-44.330,-55.184
4210,0.7031,0.2588,-0.6621,0.122,-0.488,-0.061,158.500,-44.324,-55.184
4220,0.7021,0.2578,-0.6616,0.427,0.061,0.122,158.511,-44.330,-55.184
4230,0.7031,0.2593,-0.6670,0.610,0.671,0.244,158.516,-44.341,-55.184
4240,0.7056,0.2598,-0.6685,0.671,1.099,0.305,158.527,-44.352,-55.184
4250,0.7046,0.2603,-0.6729,0.549,1.221,0.366,158.533,-44.368,-55.184
4260,0.7056,0.2642,-0.6738,0.305,1.099,0.305,158.533,-44.374,-55.184
4270,0.7080,0.2646,-0.6758,0.122,0.610,0.305,158.538,-44.385,-55.184
4280,0.7104,0.2671,-0.6782,0.244,0.183,0.305,158.544,-44.385,-55.184
4290,0.7090,0.2676,-0.6768,0.549,-0.122,0.366,158.549,-44.385,-55.184
4300,0.7095,0.2676,-0.6768,0.732,-0.305,0.305,158.560,-44.379,-55.184
4310,0.7075,0.2666,-0.6738,0.732,-0.488,0.183,158.566,-44.374,-55.184
4321,0.7090,0.2651,-0.6738,0.488,-0.549,0.061,158.577,-44.374,-55.184
4330,0.7046,0.2661,-0.6733,0.000,-0.427,-0.122,158.577,-44.363,-55.184
4340,0.7056,0.2661,-0.6724,-0.244,-0.366,-0.244,158.571,-44.363,-55.184
4350,0.7051,0.2651,-0.6724,-0.366,-0.183,-0.366,158.560,-44.357,-55.184
4360,0.7070,0.2671,-0.6709,-0.305,-0.122,-0.427,158.555,-44.357,-55.184
4370,0.7080,0.2646,-0.6689,-0.183,-0.244,-0.366,158.549,-44.352,-55.184
4380,0.7080,0.2646,-0.6680,0.000,-0.305,-0.244,158.544,-44.352,-55.184
4390,0.7080,0.2632,-0.6694,0.183,-0.305,-0.061,158.549,-44.352,-55.184
4400,0.7070,0.2627,-0.6704,0.305,-0.122,0.000,158.549,-44.352,-55.184
4410,0.7080,0.2603,-0.6714,0.427,0.000,-0.061,158.555,-44.352,-55.184
4420,0.7070,0.2607,-0.6724,0.366,0.244,-0.061,158.560,-44.357,-55.184
4430,0.7075,0.2607,-0.6738,0.122,0.488,-0.122,158.560,-44.357,-55.184
4440,0.7070,0.2593,-0.6763,-0.183,0.549,-0.183,158.560,-44.363,-55.184
4450,0.7080,0.2593,-0.6782,-0.549,0.427,-0.183,158.560,-44.368,-55.184
4460,0.7080,0.2612,-0.6768,-0.671,0.122,-0.061,158.555,-44.368,-55.184
4470,0.7109,0.2656,-0.6782,-0.549,-0.183,0.000,158.549,-44.363,-55.184
4480,0.7109,0.2651,-0.6768,-0.183,-0.488,0.183,158.555,-44.363,-55.184
4490,0.7095,0.2646,-0.6758,0.183,-0.671,0.305,158.560,-44.357,-55.184
4500,0.7080,0.2642,-0.6733,0.488,-0.671,0.244,158.571,-44.352,-55.184
4510,0.7070,0.2632,-0.6758,0.427,-0.610,0.122,158.577,-44.346,-55.184
4520,0.7070,0.2632,-0.6733,0.183,-0.549,0.000,158.582,-44.341,-55.184
4530,0.7080,0.2656,-0.6724,-0.244,-0.488,-0.122,158.577,-44.335,-55.184
4540,0.7080,0.2686,-0.6689,-0.549,-0.488,-0.244,158.571,-44.330,-55.184
4550,0.7065,0.2681,-0.6675,-0.549,-0.610,-0.305,158.560,-44.330,-55.184
4560,0.7070,0.2676,-0.6660,-0.427,-0.610,-0.244,158.549,-44.324,-55.184
4570,0.7056,0.2671,-0.6665,-0.183,-0.671,-0.183,158.544,-44.319,-55.184
4580,0.7075,0.2676,-0.6670,0.183,-0.610,-0.122,158.544,-44.313,-55.184
4590,0.7070,0.2637,-0.6680,0.488,-0.366,-0.061,158.549,-44.313,-55.184
4600,0.7065,0.2607,-0.6699,0.488,0.061,-0.061,158.555,-44.319,-55.184
4610,0.7085,0.2607,-0.6704,0.305,0.366,-0.183,158.555,-44.324,-55.184
4620,0.7061,0.2612,-0.6709,-0.061,0.549,-0.305,158.555,-44.324,-55.184
4630,0.7095,0.2617,-0.6758,-0.427,0.427,-0.427,158.544,-44.330,-55.184
4640,0.7109,0.2637,-0.6758,-0.549,0.183,-0.305,158.538,-44.330,-55.184
4650,0.7090,0.2637,-0.6738,-0.427,-0.061,-0.183,158.533,-44.330,-55.184
4660,0.7095,0.2637,-0.6753,-0.122,-0.305,0.000,158.533,-44.330,-55.184
4670,0.7080,0.2637,-0.6748,0.366,-0.427,0.183,158.544,-44.324,-55.184
4680,0.7070,0.2617,-0.6733,0.610,-0.305,0.183,158.555,-44.324,-55.184
4690,0.7061,0.2612,-0.6753,0.610,-0.244,0.122,158.566,-44.324,-55.184
4700,0.7065,0.2617,-0.6743,0.244,-0.183,0.000,158.571,-44.319,-55.184
4710,0.7061,0.2622,-0.6763,-0.183,-0.305,-0.061,158.571,-44.319,-55.184
4720,0.7056,0.2637,-0.6729,-0.488,-0.427,-0.061,158.566,-44.313,-55.184
4730,0.7056,0.2666,-0.6704,-0.488,-0.549,0.000,158.560,-44.308,-55.184
4740,0.7061,0.2681,-0.6719,-0.183,-0.549,0.122,158.560,-44.302,-55.184
4750,0.7065,0.2651,-0.6709,0.244,-0.549,0.122,158.566,-44.302,-55.184
4760,0.7061,0.2637,-0.6709,0.488,-0.427,0.061,158.571,-44.297,-55.184
4770,0.7051,0.2646,-0.6733,0.427,-0.305,0.000,158.577,-44.297,-55.184
4780,0.7046,0.2612,-0.6719,0.122,-0.244,-0.122,158.577,-44.291,-55.184
4790,0.7031,0.2622,-0.6719,-0.366,-0.183,-0.305,158.571,-44.291,-55.184
4800,0.7021,0.2632,-0.6670,-0.793,-0.183,-0.305,158.560,-44.286,-55.184
4810,0.7031,0.2666,-0.6680,-0.854,-0.122,-0.244,158.549,-44.286,-55.184
4820,0.7046,0.2651,-0.6689,-0.610,-0.061,-0.122,158.538,-44.286,-55.184
4830,0.7061,0.2637,-0.6709,-0.061,-0.061,0.000,158.538,-44.286,-55.184
4840,0.7065,0.2627,-0.6729,0.427,0.183,0.122,158.544,-44.291,-55.184
4850,0.7075,0.2617,-0.6733,0.610,0.305,0.183,158.555,-44.297,-55.184
4860,0.7090,0.2622,-0.6758,0.488,0.305,0.183,158.560,-44.302,-55.184
4870,0.7065,0.2622,-0.6777,0.183,0.122,0.122,158.566,-44.302,-55.184
4880,0.7065,0.2627,-0.6738,-0.122,-0.061,0.061,158.571,-44.302,-55.184
4890,0.7080,0.2632,-0.6733,-0.305,-0.122,0.000,158.566,-44.302,-55.184
4900,0.7070,0.2646,-0.6758,-0.366,-0.061,0.000,158.566,-44.302,-55.184
4910,0.7065,0.2646,-0.6748,-0.305,0.000,-0.061,158.560,-44.297,-55.184
4920,0.7051,0.2637,-0.6753,-0.244,0.061,0.000,158.560,-44.297,-55.184
4930,0.7056,0.2637,-0.6782,-0.305,0.061,-0.061,158.555,-44.297,-55.184
4940,0.7070,0.2627,-0.6753,-0.366,-0.061,-0.061,158.555,-44.297,-55.184
4950,0.7061,0.2637,-0.6733,-0.366,-0.122,-0.061,158.555,-44.297,-55.184
4960,0.7080,0.2651,-0.6748,-0.244,-0.061,-0.061,158.549,-44.297,-55.184
4970,0.7080,0.2651,-0.6729,0.000,0.061,0.000,158.549,-44.297,-55.184
4980,0.7065,0.2661,-0.6743,0.183,0.122,0.000,158.549,-44.297,-55.184
4990,0.7065,0.2656,-0.6777,0.183,0.244,0.000,158.549,-44.297,-55.184
5000,0.7070,0.2646,-0.6758,0.000,0.305,-0.061,158.549,-44.302,-55.184
5010,0.7070,0.2661,-0.6768,-0.305,0.183,-0.244,158.544,-44.302,-55.184
5020,0.7095,0.2656,-0.6729,-0.610,0.061,-0.366,158.533,-44.302,-55.184
5030,0.7085,0.2661,-0.6704,-0.793,-0.183,-0.488,158.522,-44.302,-55.184
5040,0.7100,0.2661,-0.6714,-0.793,-0.366,-0.488,158.505,-44.297,-55.184
5050,0.7109,0.2637,-0.6685,-0.549,-0.610,-0.427,158.500,-44.291,-55.184
5060,0.7109,0.2627,-0.6675,-0.244,-0.671,-0.305,158.494,-44.291,-55.184
5070,0.7075,0.2603,-0.6665,-0.061,-0.549,-0.244,158.500,-44.291,-55.184
5080,0.7036,0.2612,-0.6660,0.000,-0.305,-0.183,158.500,-44.286,-55.184
5090,0.7041,0.2578,-0.6670,-0.061,0.061,-0.183,158.500,-44.291,-55.184
5100,0.7051,0.2593,-0.6685,-0.183,0.366,-0.183,158.500,-44.297,-55.184
5110,0.7070,0.2607,-0.6704,-0.244,0.610,-0.122,158.494,-44.302,-55.184
5120,0.7056,0.2622,-0.6704,-0.183,0.671,0.061,158.494,-44.313,-55.184
5130,0.7070,0.2632,-0.6763,0.061,0.732,0.122,158.494,-44.319,-55.184
5140,0.7075,0.2651,-0.6782,0.427,0.732,0.183,158.500,-44.324,-55.184
5150,0.7095,0.2646,-0.6782,0.671,0.610,0.183,158.505,-44.330,-55.184
5160,0.7114,0.2642,-0.6807,0.488,0.305,0.061,158.511,-44.330,-55.184
5170,0.7100,0.2642,-0.6792,0.183,0.000,0.000,158.516,-44.330,-55.184
5180,0.7095,0.2651,-0.6802,-0.122,-0.366,-0.061,158.516,-44.324,-55.184
5190,0.7095,0.2642,-0.6763,-0.366,-0.610,-0.244,158.516,-44.319,-55.184
5200,0.7090,0.2632,-0.6738,-0.549,-0.732,-0.366,158.511,-44.313,-55.184
5210,0.7056,0.2632,-0.6724,-0.610,-0.671,-0.427,158.505,-44.308,-55.184
5220,0.7070,0.2627,-0.6694,-0.610,-0.732,-0.488,158.500,-44.302,-55.184
5230,0.7065,0.2607,-0.6689,-0.549,-0.671,-0.366,158.494,-44.297,-55.184
5240,0.7075,0.2617,-0.6685,-0.427,-0.488,-0.305,158.489,-44.291,-55.184
5250,0.7065,0.2612,-0.6699,-0.244,-0.366,-0.122,158.489,-44.291,-55.184
5260,0.7056,0.2612,-0.6714,-0.061,-0.183,-0.061,158.494,-44.291,-55.184
5270,0.7056,0.2617,-0.6709,0.122,0.061,0.000,158.494,-44.291,-55.184
5280,0.7026,0.2588,-0.6733,0.122,0.244,-0.061,158.500,-44.291,-55.184
5290,0.7036,0.2607,-0.6743,-0.183,0.366,-0.183,158.500,-44.297,-55.184
5300,0.7036,0.2607,-0.6763,-0.549,0.244,-0.244,158.494,-44.297,-55.184
5310,0.7061,0.2617,-0.6758,-0.916,0.000,-0.244,158.483,-44.291,-55.184
5320,0.7070,0.2642,-0.6724,-0.977,-0.305,-0.122,158.478,-44.291,-55.184
5330,0.7080,0.2651,-0.6743,-0.732,-0.549,-0.061,158.472,-44.286,-55.184
5340,0.7095,0.2651,-0.6753,-0.427,-0.671,0.061,158.472,-44.280,-55.184
5350,0.7100,0.2656,-0.6738,-0.122,-0.671,0.122,158.472,-44.280,-55.184
5360,0.7056,0.2637,-0.6724,-0.122,-0.671,0.000,158.478,-44.275,-55.184
5370,0.7046,0.2637,-0.6729,-0.305,-0.488,-0.122,158.472,-44.269,-55.184
5380,0.7061,0.2656,-0.6704,-0.610,-0.427,-0.244,158.467,-44.264,-55.184
5390,0.7085,0.2661,-0.6689,-0.854,-0.366,-0.366,158.456,-44.264,-55.184
5400,0.7085,0.2656,-0.6719,-0.854,-0.305,-0.427,158.445,-44.258,-55.184
5410,0.7075,0.2681,-0.6670,-0.732,-0.366,-0.366,158.428,-44.258,-55.184
5420,0.7070,0.2676,-0.6670,-0.427,-0.305,-0.244,158.423,-44.258,-55.184
5430,0.7056,0.2661,-0.6670,-0.061,-0.183,-0.122,158.417,-44.258,-55.184
5440,0.7065,0.2661,-0.6689,0.183,0.000,-0.061,158.417,-44.258,-55.184
5450,0.7080,0.2646,-0.6709,0.183,0.305,-0.061,158.423,-44.264,-55.184
5460,0.7075,0.2651,-0.6743,0.061,0.610,-0.061,158.417,-44.269,-55.184
5470,0.7075,0.2656,-0.6782,-0.061,0.610,-0.061,158.417,-44.275,-55.184
5480,0.7085,0.2656,-0.6758,-0.122,0.488,-0.122,158.417,-44.280,-55.184
5490,0.7080,0.2646,-0.6758,-0.183,0.183,-0.183,158.412,-44.280,-55.184
5500,0.7075,0.2642,-0.6753,-0.305,-0.183,-0.244,158.412,-44.280,-55.184
5510,0.7061,0.2617,-0.6743,-0.427,-0.610,-0.305,158.412,-44.269,-55.184
5520,0.7051,0.2607,-0.6719,-0.549,-0.977,-0.305,158.406,-44.264,-55.184
5530,0.7085,0.2632,-0.6704,-0.610,-1.038,-0.183,158.406,-44.253,-55.184
5540,0.7061,0.2617,-0.6709,-0.427,-0.793,0.000,158.406,-44.247,-55.184
5550,0.7070,0.2656,-0.6704,-0.122,-0.366,0.183,158.412,-44.247,-55.184
5560,0.7080,0.2651,-0.6704,0.305,0.122,0.366,158.417,-44.253,-55.184
5570,0.7070,0.2661,-0.6729,0.671,0.427,0.427,158.423,-44.258,-55.184
5580,0.7056,0.2651,-0.6763,0.732,0.488,0.305,158.434,-44.264,-55.184
5590,0.7046,0.2666,-0.6743,0.488,0.244,0.183,158.439,-44.269,-55.184
5600,0.7070,0.2686,-0.6772,0.061,-0.061,0.061,158.439,-44.264,-55.184
5610,0.7075,0.2681,-0.6768,-0.244,-0.488,-0.183,158.439,-44.258,-55.184
5620,0.7080,0.2676,-0.6753,-0.488,-0.671,-0.366,158.428,-44.253,-55.184
5630,0.7061,0.2646,-0.6738,-0.610,-0.793,-0.488,158.423,-44.242,-55.184
5640,0.7051,0.2651,-0.6733,-0.671,-0.854,-0.610,158.417,-44.236,-55.184
5650,0.7056,0.2642,-0.6699,-0.671,-0.916,-0.549,158.406,-44.225,-55.184
5660,0.7061,0.2656,-0.6694,-0.549,-0.732,-0.427,158.401,-44.220,-55.184
5670,0.7065,0.2676,-0.6704,-0.244,-0.427,-0.244,158.395,-44.214,-55.184
5680,0.7075,0.2671,-0.6729,0.244,-0.122,-0.122,158.395,-44.214,-55.184
5690,0.7095,0.2642,-0.6758,0.671,0.061,-0.122,158.406,-44.220,-55.184
5700,0.7104,0.2627,-0.6763,0.732,0.000,-0.183,158.417,-44.220,-55.184
5710,0.7075,0.2612,-0.6758,0.305,-0.305,-0.305,158.423,-44.214,-55.184
5720,0.7056,0.2598,-0.6748,-0.366,-0.671,-0.488,158.423,-44.209,-55.184
5730,0.7041,0.2598,-0.6709,-1.038,-0.977,-0.610,158.412,-44.198,-55.184
5740,0.7012,0.2617,-0.6670,-1.404,-1.038,-0.549,158.401,-44.193,-55.184
5750,0.6997,0.2637,-0.6655,-1.343,-0.854,-0.366,158.384,-44.182,-55.184
5760,0.6997,0.2637,-0.6665,-0.793,-0.488,-0.122,158.379,-44.182,-55.184
5770,0.6992,0.2666,-0.6694,-0.122,0.000,0.183,158.379,-44.182,-55.184
5780,0.6997,0.2671,-0.6709,0.488,0.427,0.427,158.384,-44.182,-55.184
5790,0.7021,0.2666,-0.6753,0.916,0.793,0.488,158.395,-44.193,-55.184
5800,0.7041,0.2671,-0.6812,0.916,1.038,0.427,158.406,-44.198,-55.184
5810,0.7075,0.2690,-0.6816,0.610,0.977,0.366,158.412,-44.209,-55.184
5820,0.7124,0.2710,-0.6865,0.061,0.671,0.122,158.412,-44.214,-55.184
5830,0.7139,0.2690,-0.6885,-0.366,0.244,0.000,158.412,-44.214,-55.184
5840,0.7129,0.2681,-0.6865,-0.671,-0.305,-0.183,158.406,-44.209,-55.184
5850,0.7129,0.2676,-0.6816,-0.854,-0.916,-0.366,158.401,-44.198,-55.184
5860,0.7095,0.2651,-0.6777,-0.977,-1.404,-0.488,158.390,-44.187,-55.184
5870,0.7085,0.2632,-0.6714,-0.977,-1.770,-0.549,158.384,-44.171,-55.184
5880,0.7080,0.2612,-0.6709,-0.977,-1.953,-0.610,158.379,-44.154,-55.184
5890,0.7070,0.2612,-0.6641,-0.916,-2.014,-0.549,158.373,-44.138,-55.184
5900,0.7036,0.2612,-0.6650,-0.671,-1.831,-0.427,158.373,-44.127,-55.184
5910,0.7051,0.2603,-0.6621,-0.366,-1.404,-0.244,158.373,-44.116,-55.184
5920,0.7021,0.2622,-0.6616,-0.122,-0.854,0.000,158.373,-44.116,-55.184
5930,0.7012,0.2598,-0.6606,0.122,-0.305,0.244,158.384,-44.116,-55.184
5940,0.6987,0.2612,-0.6641,0.244,0.244,0.427,158.390,-44.127,-55.184
5950,0.7007,0.2632,-0.6655,0.244,0.671,0.488,158.395,-44.138,-55.184
5960,0.7002,0.2646,-0.6694,0.183,0.977,0.610,158.395,-44.149,-55.184
5970,0.7036,0.2681,-0.6743,0.305,1.038,0.671,158.401,-44.160,-55.184
5980,0.7056,0.2686,-0.6763,0.488,1.099,0.671,158.406,-44.171,-55.184
5990,0.7075,0.2705,-0.6797,0.671,0.977,0.610,158.417,-44.182,-55.184
6000,0.7065,0.2681,-0.6812,0.671,0.671,0.366,158.423,-44.187,-55.184
6010,0.7046,0.2651,-0.6807,0.305,0.183,0.122,158.428,-44.187,-55.184
6020,0.7051,0.2666,-0.6763,-0.183,-0.427,-0.122,158.428,-44.182,-55.184
6030,0.7031,0.2700,-0.6733,-0.610,-0.916,-0.305,158.423,-44.171,-55.184
6040,0.7017,0.2676,-0.6714,-0.793,-1.160,-0.366,158.412,-44.160,-55.184
6050,0.7021,0.2681,-0.6680,-0.549,-1.038,-0.366,158.406,-44.149,-55.184
6060,0.7007,0.2666,-0.6680,-0.061,-0.610,-0.305,158.401,-44.143,-55.184
6070,0.7002,0.2661,-0.6670,0.427,0.000,-0.305,158.401,-44.143,-55.184
6080,0.7002,0.2627,-0.6685,0.793,0.671,-0.244,158.406,-44.154,-55.184
6090,0.7041,0.2612,-0.6724,0.793,1.160,-0.244,158.412,-44.165,-55.184
6100,0.7065,0.2588,-0.6772,0.671,1.404,-0.305,158.417,-44.176,-55.184
6110,0.7065,0.2578,-0.6792,0.305,1.343,-0.366,158.423,-44.187,-55.184
6120,0.7075,0.2593,-0.6802,-0.183,0.977,-0.366,158.417,-44.193,-55.184
6130,0.7080,0.2588,-0.6777,-0.427,0.427,-0.305,158.417,-44.198,-55.184
6140,0.7070,0.2617,-0.6807,-0.549,-0.122,-0.183,158.417,-44.198,-55.184
6150,0.7080,0.2617,-0.6777,-0.427,-0.488,0.000,158.417,-44.193,-55.184
6160,0.7080,0.2627,-0.6768,-0.183,-0.610,0.122,158.423,-44.187,-55.184
6170,0.7075,0.2632,-0.6758,-0.061,-0.549,0.244,158.428,-44.187,-55.184
6180,0.7061,0.2646,-0.6724,-0.061,-0.366,0.366,158.434,-44.187,-55.184
6190,0.7056,0.2646,-0.6714,-0.061,-0.183,0.427,158.439,-44.187,-55.184
6200,0.7075,0.2651,-0.6733,-0.061,0.000,0.305,158.445,-44.187,-55.184
6210,0.7070,0.2656,-0.6753,-0.122,0.061,0.183,158.445,-44.193,-55.184
6220,0.7075,0.2656,-0.6772,-0.122,-0.061,0.061,158.445,-44.193,-55.184
6230,0.7056,0.2656,-0.6763,-0.183,-0.244,-0.061,158.445,-44.187,-55.184
6240,0.7051,0.2661,-0.6719,-0.427,-0.488,-0.122,158.439,-44.187,-55.184
6250,0.7012,0.2676,-0.6704,-0.549,-0.732,-0.183,158.434,-44.176,-55.184
6260,0.7021,0.2676,-0.6670,-0.610,-0.732,-0.183,158.423,-44.171,-55.184
6270,0.7017,0.2686,-0.6660,-0.488,-0.610,-0.183,158.417,-44.165,-55.184
6280,0.7036,0.2676,-0.6655,-0.183,-0.427,-0.183,158.412,-44.165,-55.184
6290,0.7046,0.2656,-0.6704,0.122,0.000,-0.183,158.412,-44.165,-55.184
6300,0.7061,0.2656,-0.6714,0.244,0.427,-0.183,158.412,-44.171,-55.184
6310,0.7056,0.2666,-0.6694,0.305,0.793,-0.305,158.406,-44.182,-55.184
6321,0.7056,0.2651,-0.6758,0.122,1.038,-0.305,158.401,-44.187,-55.184
6330,0.7061,0.2646,-0.6758,0.122,1.160,-0.305,158.401,-44.198,-55.184
6340,0.7070,0.2656,-0.6768,0.000,1.038,-0.183,158.395,-44.209,-55.184
6350,0.7070,0.2646,-0.6777,0.061,0.854,-0.122,158.395,-44.214,-55.184
6360,0.7070,0.2661,-0.6777,0.244,0.427,0.000,158.395,-44.220,-55.184
6370,0.7070,0.2642,-0.6777,0.549,0.122,0.061,158.406,-44.220,-55.184
6380,0.7070,0.2632,-0.6772,0.732,-0.183,0.061,158.417,-44.220,-55.184
6390,0.7075,0.2627,-0.6782,0.671,-0.427,0.061,158.428,-44.214,-55.184
6400,0.7075,0.2632,-0.6738,0.427,-0.366,-0.061,158.439,-44.214,-55.184
6410,0.7070,0.2632,-0.6738,0.122,-0.305,-0.122,158.439,-44.209,-55.184
6420,0.7061,0.2637,-0.6743,-0.244,-0.244,-0.183,158.439,-44.209,-55.184
6430,0.7070,0.2646,-0.6719,-0.366,-0.061,-0.183,158.434,-44.209,-55.184
6440,0.7056,0.2642,-0.6733,-0.244,-0.061,-0.122,158.434,-44.209,-55.184
6450,0.7021,0.2656,-0.6699,-0.061,-0.061,-0.061,158.434,-44.209,-55.184
6460,0.6987,0.2661,-0.6694,0.122,-0.122,0.000,158.434,-44.209,-55.184
6470,0.6987,0.2656,-0.6675,0.244,-0.122,-0.061,158.434,-44.209,-55.184
6480,0.7036,0.2627,-0.6709,0.244,0.000,-0.122,158.439,-44.209,-55.184
6490,0.7065,0.2637,-0.6719,0.122,0.122,-0.122,158.439,-44.209,-55.184
6500,0.7065,0.2651,-0.6724,0.122,0.366,-0.061,158.439,-44.214,-55.184
6510,0.7061,0.2642,-0.6738,0.061,0.671,0.061,158.439,-44.220,-55.184
6520,0.7075,0.2642,-0.6763,0.122,0.732,0.061,158.439,-44.231,-55.184
6530,0.7109,0.2632,-0.6782,0.244,0.671,0.061,158.445,-44.236,-55.184
6540,0.7090,0.2627,-0.6772,0.305,0.366,0.000,158.450,-44.242,-55.184
6549,0.7090,0.2622,-0.6768,0.183,0.000,0.000,158.456,-44.242,-55.184
6560,0.7075,0.2622,-0.6753,0.000,-0.366,0.000,158.461,-44.242,-55.184
6570,0.7056,0.2642,-0.6748,-0.183,-0.671,-0.061,158.461,-44.231,-55.184
6580,0.7046,0.2617,-0.6738,-0.305,-0.732,-0.061,158.461,-44.225,-55.184
6590,0.7056,0.2612,-0.6738,-0.305,-0.671,-0.061,158.467,-44.220,-55.184
6600,0.7036,0.2637,-0.6704,-0.244,-0.488,0.000,158.467,-44.220,-55.184
6610,0.7017,0.2651,-0.6729,0.000,-0.305,0.122,158.467,-44.214,-55.184
6620,0.7041,0.2661,-0.6733,0.183,-0.061,0.244,158.472,-44.214,-55.184
6630,0.7021,0.2637,-0.6743,0.366,0.122,0.183,158.478,-44.214,-55.184
6640,0.7036,0.2661,-0.6763,0.366,0.244,0.183,158.483,-44.220,-55.184
6650,0.7041,0.2671,-0.6768,0.305,0.305,0.183,158.483,-44.220,-55.184
6660,0.7070,0.2681,-0.6753,0.183,0.244,0.122,158.489,-44.220,-55.184
6670,0.7075,0.2681,-0.6748,0.061,0.183,0.061,158.483,-44.225,-55.184
6680,0.7085,0.2666,-0.6738,0.122,0.183,-0.061,158.483,-44.225,-55.184
6690,0.7100,0.2642,-0.6768,0.000,0.244,-0.244,158.483,-44.231,-55.184
6701,0.7104,0.2627,-0.6753,-0.244,0.244,-0.366,158.478,-44.231,-55.184
6710,0.7119,0.2627,-0.6743,-0.549,0.061,-0.366,158.472,-44.236,-55.184
6720,0.7095,0.2622,-0.6709,-0.671,-0.183,-0.305,158.467,-44.236,-55.184
6730,0.7080,0.2622,-0.6689,-0.610,-0.366,-0.183,158.461,-44.236,-55.184
6740,0.7065,0.2607,-0.6689,-0.305,-0.488,-0.061,158.461,-44.236,-55.184
6750,0.7041,0.2637,-0.6699,0.183,-0.427,0.061,158.467,-44.231,-55.184
6760,0.7036,0.2612,-0.6738,0.610,-0.183,0.183,158.478,-44.231,-55.184
6770,0.7036,0.2593,-0.6714,0.732,0.122,0.244,158.489,-44.236,-55.184
6780,0.7021,0.2588,-0.6709,0.549,0.427,0.305,158.500,-44.242,-55.184
6790,0.7036,0.2607,-0.6714,0.244,0.549,0.244,158.505,-44.247,-55.184
6800,0.7051,0.2642,-0.6733,-0.061,0.427,0.183,158.505,-44.253,-55.184
6810,0.7061,0.2656,-0.6738,-0.183,0.122,0.244,158.505,-44.253,-55.184
6820,0.7061,0.2656,-0.6714,0.061,-0.122,0.305,158.511,-44.253,-55.184
6830,0.7051,0.2666,-0.6704,0.427,-0.244,0.305,158.516,-44.253,-55.184
6840,0.7046,0.2642,-0.6724,0.671,-0.183,0.366,158.527,-44.253,-55.184
6850,0.7031,0.2651,-0.6733,0.671,-0.061,0.305,158.538,-44.253,-55.184
6860,0.7026,0.2646,-0.6758,0.488,0.122,0.244,158.544,-44.253,-55.184
6870,0.7041,0.2642,-0.6738,0.183,0.366,0.122,158.544,-44.258,-55.184
6880,0.7026,0.2646,-0.6733,-0.183,0.549,-0.122,158.538,-44.264,-55.184
6890,0.7026,0.2642,-0.6738,-0.366,0.549,-0.244,158.533,-44.264,-55.184
6900,0.7031,0.2622,-0.6724,-0.366,0.305,-0.366,158.527,-44.269,-55.184
6910,0.7026,0.2637,-0.6743,-0.244,0.061,-0.305,158.522,-44.264,-55.184
6920,0.7036,0.2627,-0.6738,0.000,-0.061,-0.183,158.522,-44.264,-55.184
6930,0.7061,0.2612,-0.6738,0.244,-0.061,-0.061,158.527,-44.264,-55.184
6940,0.7065,0.2617,-0.6753,0.427,0.061,0.000,158.533,-44.264,-55.184
6950,0.7080,0.2612,-0.6758,0.488,0.183,0.061,158.544,-44.269,-55.184
6960,0.7065,0.2617,-0.6743,0.427,0.305,0.061,158.549,-44.269,-55.184
6970,0.7065,0.2598,-0.6772,0.244,0.488,0.000,158.555,-44.275,-55.184
6980,0.7056,0.2627,-0.6772,-0.061,0.427,0.000,158.555,-44.280,-55.184
6990,0.7051,0.2642,-0.6782,-0.244,0.183,-0.061,158.555,-44.280,-55.184
7000,0.7061,0.2642,-0.6758,-0.366,-0.183,-0.061,158.549,-44.275,-55.184
7010,0.7065,0.2646,-0.6758,-0.244,-0.488,0.000,158.549,-44.269,-55.184
7020,0.7080,0.2646,-0.6753,-0.061,-0.732,0.061,158.555,-44.264,-55.184
7030,0.7090,0.2642,-0.6733,0.122,-0.671,0.183,158.560,-44.264,-55.184
7040,0.7090,0.2661,-0.6748,0.366,-0.488,0.244,158.566,-44.258,-55.184
7050,0.7046,0.2637,-0.6724,0.427,-0.183,0.183,158.571,-44.258,-55.184
7060,0.7070,0.2622,-0.6738,0.366,-0.061,0.000,158.577,-44.258,-55.184
7070,0.7051,0.2637,-0.6738,0.000,0.061,-0.183,158.577,-44.258,-55.184
7080,0.7061,0.2642,-0.6758,-0.305,-0.122,-0.244,158.571,-44.258,-55.184
7090,0.7051,0.2646,-0.6743,-0.488,-0.305,-0.244,158.566,-44.253,-55.184
7100,0.7056,0.2656,-0.6714,-0.488,-0.427,-0.244,158.560,-44.247,-55.184
7110,0.7065,0.2646,-0.6709,-0.244,-0.427,-0.183,158.555,-44.247,-55.184
7120,0.7056,0.2642,-0.6704,0.183,-0.183,-0.061,158.555,-44.247,-55.184
7130,0.7075,0.2622,-0.6704,0.488,0.122,0.061,158.560,-44.247,-55.184
7140,0.7051,0.2617,-0.6724,0.549,0.366,0.000,158.566,-44.253,-55.184
7150,0.7061,0.2622,-0.6753,0.366,0.610,0.000,158.571,-44.258,-55.184
7160,0.7095,0.2612,-0.6772,0.183,0.732,-0.061,158.571,-44.269,-55.184
7170,0.7095,0.2612,-0.6787,0.000,0.671,-0.122,158.571,-44.275,-55.184
7180,0.7095,0.2627,-0.6787,-0.061,0.427,-0.122,158.571,-44.275,-55.184
7190,0.7075,0.2622,-0.6792,-0.122,0.122,-0.061,158.577,-44.275,-55.184
7200,0.7046,0.2617,-0.6792,-0.061,-0.183,0.000,158.577,-44.275,-55.184
7210,0.7056,0.2632,-0.6782,0.122,-0.366,0.183,158.582,-44.269,-55.184
7220,0.7065,0.2642,-0.6772,0.244,-0.549,0.244,158.593,-44.264,-55.184
7230,0.7061,0.2646,-0.6763,0.305,-0.610,0.244,158.599,-44.258,-55.184
7240,0.7031,0.2651,-0.6733,0.305,-0.732,0.183,158.604,-44.253,-55.184
7250,0.7036,0.2637,-0.6743,0.305,-0.671,0.183,158.615,-44.247,-55.184
7260,0.7041,0.2637,-0.6748,0.244,-0.549,0.122,158.621,-44.242,-55.184
7270,0.7036,0.2632,-0.6748,0.061,-0.305,0.061,158.621,-44.236,-55.184
7280,0.7021,0.2646,-0.6704,-0.122,-0.183,-0.061,158.621,-44.236,-55.184
7290,0.7017,0.2642,-0.6699,-0.366,-0.183,-0.122,158.615,-44.231,-55.184
7300,0.6987,0.2646,-0.6699,-0.488,-0.244,-0.183,158.604,-44.231,-55.184
7310,0.7007,0.2651,-0.6665,-0.366,-0.061,-0.122,158.599,-44.231,-55.184
7321,0.6997,0.2637,-0.6675,-0.183,0.061,-0.122,158.593,-44.231,-55.184
7330,0.7012,0.2642,-0.6704,-0.061,0.244,-0.061,158.593,-44.231,-55.184
7340,0.7051,0.2646,-0.6724,0.183,0.366,0.000,158.593,-44.236,-55.184
7350,0.7061,0.2632,-0.6748,0.244,0.549,0.000,158.593,-44.242,-55.184
7360,0.7080,0.2642,-0.6763,0.244,0.671,-0.061,158.593,-44.247,-55.184
7370,0.7090,0.2642,-0.6792,0.122,0.610,-0.122,158.593,-44.253,-55.184
7380,0.7095,0.2637,-0.6777,0.061,0.488,-0.122,158.593,-44.258,-55.184
7390,0.7070,0.2622,-0.6758,0.000,0.244,-0.183,158.593,-44.258,-55.184
7400,0.7061,0.2598,-0.6753,0.000,-0.061,-0.183,158.593,-44.258,-55.184
7410,0.7065,0.2607,-0.6738,-0.061,-0.366,-0.122,158.593,-44.258,-55.184
7420,0.7056,0.2612,-0.6724,-0.061,-0.488,-0.061,158.599,-44.253,-55.184
7430,0.7031,0.2612,-0.6733,-0.061,-0.427,0.000,158.599,-44.247,-55.184
7440,0.7026,0.2593,-0.6709,-0.122,-0.244,0.122,158.604,-44.247,-55.184
7450,0.7031,0.2598,-0.6729,-0.122,-0.061,0.122,158.604,-44.247,-55.184
7460,0.7021,0.2607,-0.6753,-0.061,0.122,0.244,158.610,-44.247,-55.184
7470,0.7046,0.2622,-0.6748,0.122,0.305,0.366,158.615,-44.253,-55.184
7480,0.7046,0.2632,-0.6748,0.305,0.488,0.427,158.621,-44.258,-55.184
7490,0.7061,0.2646,-0.6768,0.488,0.549,0.427,158.626,-44.264,-55.184
7500,0.7080,0.2666,-0.6797,0.366,0.549,0.366,158.632,-44.269,-55.184
7510,0.7090,0.2681,-0.6797,0.183,0.610,0.244,158.632,-44.275,-55.184
7520,0.7090,0.2661,-0.6797,-0.061,0.488,0.122,158.632,-44.280,-55.184
7530,0.7080,0.2666,-0.6797,-0.305,0.305,0.061,158.626,-44.280,-55.184
7540,0.7090,0.2656,-0.6797,-0.549,-0.061,-0.061,158.621,-44.280,-55.184
7550,0.7085,0.2666,-0.6802,-0.610,-0.366,-0.183,158.615,-44.275,-55.184
7560,0.7100,0.2651,-0.6724,-0.610,-0.732,-0.244,158.610,-44.269,-55.184
7570,0.7090,0.2646,-0.6724,-0.549,-0.916,-0.244,158.604,-44.258,-55.184
7580,0.7065,0.2612,-0.6714,-0.488,-0.916,-0.305,158.599,-44.253,-55.184
7590,0.7051,0.2598,-0.6689,-0.427,-0.793,-0.305,158.599,-44.247,-55.184
7600,0.7036,0.2593,-0.6685,-0.366,-0.488,-0.183,158.599,-44.242,-55.184
7610,0.7017,0.2588,-0.6694,-0.183,-0.122,-0.122,158.599,-44.242,-55.184
7620,0.7012,0.2588,-0.6709,-0.061,0.244,0.000,158.599,-44.247,-55.184
7630,0.7012,0.2578,-0.6729,0.061,0.549,0.061,158.599,-44.253,-55.184
7640,0.7002,0.2583,-0.6729,0.183,0.610,0.122,158.604,-44.258,-55.184
7650,0.7036,0.2612,-0.6743,0.183,0.488,0.183,158.610,-44.264,-55.184
7660,0.7036,0.2627,-0.6743,0.183,0.244,0.305,158.615,-44.264,-55.184
7670,0.7065,0.2642,-0.6758,0.183,0.122,0.427,158.621,-44.269,-55.184
7680,0.7061,0.2666,-0.6743,0.183,0.122,0.366,158.621,-44.269,-55.184
7690,0.7061,0.2642,-0.6763,0.244,0.244,0.244,158.626,-44.269,-55.184
7700,0.7065,0.2642,-0.6772,0.122,0.305,0.061,158.626,-44.275,-55.184
7710,0.7056,0.2656,-0.6768,-0.122,0.244,-0.122,158.626,-44.275,-55.184
7720,0.7046,0.2656,-0.6738,-0.305,0.122,-0.183,158.621,-44.275,-55.184
7730,0.7046,0.2656,-0.6768,-0.427,0.183,-0.244,158.610,-44.275,-55.184
7740,0.7041,0.2676,-0.6748,-0.427,0.183,-0.305,158.599,-44.275,-55.184
7750,0.7070,0.2661,-0.6782,-0.244,0.122,-0.305,158.593,-44.269,-55.184
7760,0.7075,0.2646,-0.6777,0.000,0.000,-0.305,158.593,-44.269,-55.184
7770,0.7056,0.2632,-0.6797,0.183,-0.122,-0.305,158.593,-44.264,-55.184
7780,0.7056,0.2598,-0.6787,0.183,-0.183,-0.366,158.599,-44.264,-55.184
7790,0.7080,0.2603,-0.6777,0.000,-0.183,-0.427,158.599,-44.258,-55.184
7800,0.7075,0.2568,-0.6763,-0.366,-0.183,-0.488,158.599,-44.258,-55.184
7810,0.7065,0.2544,-0.6768,-0.732,-0.305,-0.549,158.593,-44.253,-55.184
7821,0.7065,0.2573,-0.6738,-0.977,-0.549,-0.488,158.588,-44.247,-55.184
7830,0.7036,0.2578,-0.6694,-0.916,-0.671,-0.366,158.582,-44.242,-55.184
7840,0.7036,0.2598,-0.6689,-0.671,-0.793,-0.122,158.577,-44.236,-55.184
7850,0.7021,0.2622,-0.6704,-0.305,-0.732,0.122,158.577,-44.231,-55.184
7860,0.7026,0.2632,-0.6704,-0.061,-0.488,0.366,158.582,-44.231,-55.184
7870,0.7012,0.2622,-0.6714,0.183,-0.122,0.488,158.593,-44.231,-55.184
7880,0.7021,0.2637,-0.6729,0.305,0.305,0.427,158.599,-44.231,-55.184
7890,0.7031,0.2646,-0.6768,0.183,0.671,0.305,158.599,-44.236,-55.184
7900,0.7041,0.2661,-0.6797,-0.122,0.793,0.183,158.599,-44.242,-55.184
7910,0.7061,0.2676,-0.6792,-0.366,0.610,0.061,158.593,-44.247,-55.184
7920,0.7085,0.2690,-0.6787,-0.488,0.305,-0.061,158.582,-44.247,-55.184
7930,0.7085,0.2705,-0.6777,-0.488,0.000,-0.122,158.571,-44.247,-55.184
7940,0.7051,0.2705,-0.6768,-0.427,-0.366,-0.183,158.566,-44.242,-55.184
7950,0.7041,0.2700,-0.6748,-0.305,-0.610,-0.244,158.560,-44.236,-55.184
7960,0.7056,0.2651,-0.6748,-0.183,-0.732,-0.305,158.555,-44.225,-55.184
7970,0.7026,0.2627,-0.6738,-0.244,-0.610,-0.488,158.555,-44.220,-55.184
7980,0.7031,0.2627,-0.6724,-0.305,-0.488,-0.610,158.549,-44.214,-55.184
7990,0.7031,0.2627,-0.6685,-0.549,-0.244,-0.610,158.538,-44.209,-55.184
8000,0.7036,0.2607,-0.6680,-0.610,-0.122,-0.610,158.527,-44.209,-55.184
8010,0.7056,0.2637,-0.6709,-0.549,0.061,-0.427,158.516,-44.209,-55.184
8020,0.7051,0.2622,-0.6694,-0.305,0.244,-0.183,158.511,-44.214,-55.184
8030,0.7031,0.2622,-0.6680,0.061,0.427,0.000,158.511,-44.220,-55.184
8040,0.7046,0.2637,-0.6709,0.366,0.549,0.183,158.516,-44.225,-55.184
8050,0.7041,0.2627,-0.6719,0.488,0.610,0.183,158.522,-44.236,-55.184
8060,0.7070,0.2622,-0.6758,0.488,0.549,0.244,158.527,-44.242,-55.184
8070,0.7061,0.2612,-0.6753,0.366,0.488,0.183,158.538,-44.247,-55.184
8080,0.7075,0.2642,-0.6763,0.061,0.427,0.122,158.538,-44.253,-55.184
8090,0.7080,0.2642,-0.6768,-0.183,0.305,0.122,158.538,-44.253,-55.184
8100,0.7095,0.2681,-0.6768,-0.366,0.183,0.183,158.533,-44.258,-55.184
8110,0.7080,0.2676,-0.6748,-0.305,0.000,0.183,158.533,-44.258,-55.184
8120,0.7080,0.2700,-0.6763,-0.122,-0.122,0.183,158.527,-44.258,-55.184
8130,0.7051,0.2681,-0.6782,0.183,-0.061,0.122,158.533,-44.253,-55.184
8140,0.7046,0.2651,-0.6768,0.427,-0.061,0.061,158.538,-44.253,-55.184
8150,0.7026,0.2646,-0.6797,0.427,0.000,-0.061,158.544,-44.247,-55.184
8160,0.7026,0.2627,-0.6753,0.122,-0.061,-0.244,158.544,-44.247,-55.184
8170,0.6987,0.2637,-0.6699,-0.305,-0.183,-0.427,158.538,-44.242,-55.184
8180,0.6978,0.2627,-0.6655,-0.732,-0.305,-0.488,158.527,-44.236,-55.184
8190,0.7026,0.2651,-0.6675,-0.854,-0.366,-0.427,158.511,-44.236,-55.184
8200,0.7046,0.2666,-0.6704,-0.427,-0.061,-0.183,158.505,-44.236,-55.184
8210,0.7056,0.2651,-0.6689,0.183,0.427,0.122,158.505,-44.242,-55.184
8220,0.7051,0.2642,-0.6699,0.793,0.977,0.305,158.511,-44.253,-55.184
8230,0.7065,0.2627,-0.6753,1.282,1.343,0.305,158.522,-44.269,-55.184
8240,0.7056,0.2622,-0.6787,1.221,1.465,0.183,158.538,-44.280,-55.184
8250,0.7061,0.2612,-0.6777,0.732,1.282,-0.061,158.544,-44.291,-55.184
8260,0.7061,0.2607,-0.6777,-0.122,0.854,-0.305,158.538,-44.297,-55.184
8270,0.7061,0.2598,-0.6763,-0.793,0.366,-0.488,158.533,-44.297,-55.184
8280,0.7080,0.2627,-0.6743,-1.099,-0.061,-0.427,158.516,-44.297,-55.184
8290,0.7056,0.2627,-0.6748,-0.916,-0.244,-0.244,158.511,-44.291,-55.184
8300,0.7046,0.2612,-0.6772,-0.305,-0.183,0.061,158.511,-44.291,-55.184
8310,0.7036,0.2622,-0.6733,0.305,-0.061,0.244,158.522,-44.291,-55.184
8320,0.7051,0.2627,-0.6768,0.793,0.061,0.427,158.533,-44.291,-55.184
8330,0.7046,0.2622,-0.6768,1.038,0.183,0.427,158.549,-44.291,-55.184
8340,0.7056,0.2622,-0.6802,0.854,0.366,0.305,158.566,-44.297,-55.184
8350,0.7075,0.2642,-0.6807,0.366,0.366,0.183,158.571,-44.297,-55.184
8360,0.7080,0.2651,-0.6797,-0.122,0.244,0.122,158.571,-44.297,-55.184
8370,0.7095,0.2676,-0.6758,-0.549,-0.061,0.061,158.566,-44.297,-55.184
8380,0.7080,0.2681,-0.6743,-0.671,-0.366,0.000,158.555,-44.297,-55.184
8390,0.7100,0.2656,-0.6709,-0.549,-0.610,-0.061,158.549,-44.291,-55.184
8400,0.7100,0.2666,-0.6704,-0.366,-0.732,-0.061,158.544,-44.286,-55.184
8410,0.7080,0.2666,-0.6680,-0.244,-0.854,-0.061,158.544,-44.280,-55.184
8420,0.7090,0.2637,-0.6694,-0.122,-0.671,-0.122,158.544,-44.280,-55.184
8430,0.7061,0.2642,-0.6675,-0.122,-0.488,-0.183,158.538,-44.275,-55.184
8440,0.7065,0.2617,-0.6675,-0.183,-0.183,-0.305,158.538,-44.275,-55.184
8450,0.7065,0.2607,-0.6665,-0.244,0.122,-0.305,158.533,-44.280,-55.184
8460,0.7041,0.2607,-0.6719,-0.305,0.305,-0.183,158.527,-44.286,-55.184
8470,0.7036,0.2627,-0.6763,-0.244,0.488,0.000,158.527,-44.286,-55.184
8480,0.7036,0.2622,-0.6724,-0.061,0.488,0.244,158.527,-44.291,-55.184
8490,0.7036,0.2632,-0.6733,0.244,0.305,0.366,158.533,-44.297,-55.184
8500,0.7046,0.2637,-0.6758,0.488,0.183,0.488,158.544,-44.297,-55.184
8510,0.7070,0.2646,-0.6772,0.732,0.061,0.488,158.555,-44.297,-55.184
8520,0.7085,0.2622,-0.6797,0.854,0.061,0.488,158.571,-44.302,-55.184
8530,0.7090,0.2622,-0.6812,0.854,0.122,0.427,158.588,-44.302,-55.184
8540,0.7075,0.2627,-0.6816,0.610,0.183,0.305,158.599,-44.302,-55.184
8550,0.7075,0.2627,-0.6797,0.244,-0.061,0.183,158.610,-44.302,-55.184
8560,0.7085,0.2627,-0.6797,-0.183,-0.427,0.061,158.610,-44.297,-55.184
8570,0.7075,0.2632,-0.6802,-0.488,-0.854,0.000,158.610,-44.286,-55.184
8580,0.7051,0.2627,-0.6758,-0.549,-1.221,-0.061,158.610,-44.275,-55.184
8590,0.7041,0.2627,-0.6753,-0.366,-1.404,-0.061,158.610,-44.258,-55.184
8600,0.7056,0.2622,-0.6719,-0.244,-1.526,0.000,158.615,-44.247,-55.184
8610,0.7031,0.2612,-0.6699,-0.122,-1.404,0.000,158.621,-44.236,-55.184
8620,0.7046,0.2607,-0.6733,0.000,-1.160,0.061,158.626,-44.225,-55.184
8630,0.7021,0.2617,-0.6709,0.000,-0.793,0.061,158.632,-44.220,-55.184
8640,0.7036,0.2632,-0.6699,-0.122,-0.427,0.122,158.632,-44.220,-55.184
8650,0.7041,0.2627,-0.6685,-0.183,-0.244,0.061,158.632,-44.220,-55.184
8660,0.7031,0.2642,-0.6709,-0.244,-0.061,0.122,158.626,-44.220,-55.184
8670,0.7021,0.2666,-0.6719,-0.244,0.122,0.122,158.626,-44.220,-55.184
8680,0.7046,0.2661,-0.6738,-0.183,0.183,0.183,158.621,-44.220,-55.184
8690,0.7021,0.2661,-0.6768,-0.061,0.244,0.183,158.621,-44.220,-55.184
8702,0.7021,0.2656,-0.6782,0.061,0.305,0.061,158.621,-44.225,-55.184
8710,0.7031,0.2646,-0.6826,0.244,0.305,0.061,158.626,-44.220,-55.184
8720,0.7046,0.2637,-0.6797,0.183,0.183,-0.061,158.626,-44.220,-55.184
8730,0.7065,0.2642,-0.6782,0.061,0.061,-0.122,158.626,-44.220,-55.184
8740,0.7061,0.2642,-0.6797,-0.183,-0.122,-0.183,158.626,-44.220,-55.184
8750,0.7046,0.2666,-0.6772,-0.366,-0.305,-0.244,158.621,-44.214,-55.184
8760,0.7036,0.2656,-0.6777,-0.305,-0.488,-0.244,158.615,-44.209,-55.184
8770,0.7036,0.2656,-0.6768,-0.061,-0.549,-0.122,158.615,-44.198,-55.184
8780,0.7012,0.2661,-0.6748,0.183,-0.488,-0.122,158.615,-44.193,-55.184
8790,0.7036,0.2661,-0.6743,0.305,-0.427,-0.244,158.615,-44.187,-55.184
8800,0.7041,0.2642,-0.6733,0.244,-0.366,-0.244,158.615,-44.182,-55.184
8810,0.7031,0.2642,-0.6724,0.061,-0.305,-0.305,158.615,-44.182,-55.184
8820,0.7056,0.2627,-0.6714,-0.122,-0.183,-0.305,158.615,-44.182,-55.184
8830,0.7061,0.2612,-0.6714,-0.183,0.000,-0.366,158.610,-44.182,-55.184
8840,0.7056,0.2622,-0.6743,-0.244,0.183,-0.427,158.604,-44.182,-55.184
8850,0.7056,0.2617,-0.6733,-0.305,0.244,-0.366,158.599,-44.187,-55.184
8860,0.7041,0.2607,-0.6743,-0.305,0.244,-0.183,158.593,-44.187,-55.184
8870,0.7031,0.2617,-0.6738,-0.183,0.244,-0.061,158.593,-44.187,-55.184
8880,0.7036,0.2642,-0.6768,-0.061,0.305,0.061,158.593,-44.193,-55.184
8890,0.7041,0.2661,-0.6763,0.183,0.488,0.244,158.593,-44.198,-55.184
8900,0.7061,0.2632,-0.6782,0.305,0.488,0.305,158.599,-44.203,-55.184
8910,0.7046,0.2646,-0.6772,0.366,0.366,0.244,158.604,-44.203,-55.184
8920,0.7056,0.2661,-0.6797,0.366,0.244,0.183,158.610,-44.203,-55.184
8930,0.7070,0.2656,-0.6782,0.244,0.183,0.122,158.615,-44.209,-55.184
8940,0.7056,0.2651,-0.6782,0.061,0.061,0.000,158.615,-44.209,-55.184
8950,0.7046,0.2656,-0.6768,-0.183,-0.061,-0.122,158.610,-44.203,-55.184
8960,0.7046,0.2637,-0.6792,-0.244,-0.183,-0.305,158.610,-44.203,-55.184
8970,0.7041,0.2637,-0.6758,-0.244,-0.305,-0.366,158.604,-44.198,-55.184
8980,0.7012,0.2632,-0.6729,-0.183,-0.427,-0.305,158.599,-44.193,-55.184
8990,0.6997,0.2617,-0.6733,-0.061,-0.427,-0.183,158.604,-44.187,-55.184
9000,0.7002,0.2622,-0.6733,0.061,-0.427,-0.122,158.604,-44.182,-55.184
9010,0.7017,0.2637,-0.6694,0.183,-0.244,0.000,158.604,-44.182,-55.184
9020,0.7026,0.2651,-0.6685,0.366,0.000,0.122,158.610,-44.182,-55.184
9030,0.7041,0.2656,-0.6704,0.549,0.244,0.305,158.615,-44.187,-55.184
9040,0.7046,0.2671,-0.6733,0.671,0.549,0.366,158.621,-44.193,-55.184
9050,0.7056,0.2646,-0.6758,0.793,0.793,0.244,158.626,-44.203,-55.184
9060,0.7080,0.2646,-0.6763,0.732,0.854,0.061,158.632,-44.209,-55.184
9070,0.7065,0.2632,-0.6777,0.366,0.671,-0.061,158.632,-44.214,-55.184
9080,0.7046,0.2646,-0.6792,-0.122,0.427,-0.183,158.632,-44.214,-55.184
9090,0.7056,0.2632,-0.6797,-0.427,0.061,-0.305,158.626,-44.214,-55.184
9100,0.7051,0.2651,-0.6792,-0.549,-0.061,-0.427,158.615,-44.209,-55.184
9110,0.7056,0.2627,-0.6763,-0.488,-0.122,-0.366,158.610,-44.209,-55.184
9120,0.7031,0.2612,-0.6758,-0.244,-0.061,-0.244,158.610,-44.209,-55.184
9130,0.7012,0.2593,-0.6763,0.061,0.061,-0.122,158.610,-44.203,-55.184
9139,0.7017,0.2588,-0.6753,0.122,0.122,0.000,158.615,-44.209,-55.184
9150,0.7002,0.2612,-0.6753,0.122,0.183,0.061,158.621,-44.209,-55.184
9160,0.7017,0.2642,-0.6782,0.183,0.183,0.183,158.621,-44.209,-55.184
9170,0.7041,0.2646,-0.6797,0.305,0.305,0.366,158.632,-44.209,-55.184
9180,0.7061,0.2661,-0.6807,0.488,0.427,0.427,158.637,-44.214,-55.184
9190,0.7080,0.2666,-0.6812,0.732,0.549,0.488,158.648,-44.220,-55.184
9200,0.7095,0.2666,-0.6807,0.793,0.549,0.427,158.654,-44.225,-55.184
9210,0.7104,0.2666,-0.6821,0.610,0.183,0.305,158.665,-44.225,-55.184
9220,0.7109,0.2651,-0.6802,0.183,-0.244,0.061,158.665,-44.225,-55.184
9230,0.7085,0.2632,-0.6797,-0.183,-0.732,-0.122,158.670,-44.214,-55.184
9240,0.7095,0.2612,-0.6748,-0.549,-1.038,-0.305,158.665,-44.209,-55.184
9250,0.7065,0.2622,-0.6704,-0.732,-1.099,-0.366,158.659,-44.198,-55.184
9260,0.7051,0.2627,-0.6694,-0.671,-1.038,-0.305,158.654,-44.193,-55.184
9270,0.7021,0.2612,-0.6670,-0.427,-0.732,-0.183,158.648,-44.187,-55.184
9279,0.7002,0.2612,-0.6694,-0.061,-0.366,0.000,158.648,-44.182,-55.184
9290,0.6997,0.2583,-0.6699,0.244,0.061,0.122,158.654,-44.187,-55.184
9299,0.6992,0.2573,-0.6689,0.427,0.427,0.244,158.665,-44.193,-55.184
9310,0.7012,0.2603,-0.6704,0.427,0.549,0.366,158.670,-44.198,-55.184
9320,0.7031,0.2637,-0.6719,0.427,0.610,0.488,158.676,-44.209,-55.184
9329,0.7026,0.2632,-0.6738,0.488,0.549,0.549,158.681,-44.214,-55.184
9339,0.7075,0.2651,-0.6777,0.671,0.610,0.610,158.692,-44.220,-55.184
9349,0.7070,0.2666,-0.6802,0.793,0.671,0.549,158.703,-44.225,-55.184
9359,0.7061,0.2642,-0.6812,0.793,0.732,0.366,158.714,-44.236,-55.184
9369,0.7061,0.2642,-0.6816,0.488,0.488,0.183,158.719,-44.236,-55.184
9379,0.7061,0.2651,-0.6816,0.122,0.122,0.000,158.719,-44.236,-55.184
9389,0.7046,0.2676,-0.6787,-0.183,-0.122,-0.122,158.714,-44.231,-55.184
9399,0.7046,0.2681,-0.6763,-0.244,-0.244,-0.244,158.708,-44.225,-55.184
9409,0.7012,0.2651,-0.6729,-0.244,-0.305,-0.305,158.703,-44.220,-55.184
9419,0.7017,0.2632,-0.6714,-0.122,-0.366,-0.366,158.698,-44.220,-55.184
9430,0.7021,0.2612,-0.6694,0.061,-0.305,-0.366,158.692,-44.214,-55.184
9439,0.7021,0.2603,-0.6660,0.244,-0.244,-0.366,158.692,-44.214,-55.184
9449,0.7021,0.2607,-0.6714,0.305,0.000,-0.305,158.698,-44.214,-55.184
9459,0.7051,0.2588,-0.6733,0.305,0.305,-0.305,158.698,-44.214,-55.184
9469,0.7021,0.2583,-0.6753,0.305,0.671,-0.183,158.698,-44.220,-55.184
9479,0.7026,0.2617,-0.6758,0.305,0.916,-0.122,158.698,-44.231,-55.184
9489,0.7026,0.2632,-0.6748,0.305,0.977,-0.122,158.698,-44.236,-55.184
9499,0.7046,0.2646,-0.6768,0.244,1.038,-0.183,158.692,-44.242,-55.184
9509,0.7080,0.2646,-0.6777,0.244,0.916,-0.122,158.692,-44.253,-55.184
9519,0.7070,0.2661,-0.6802,0.244,0.793,-0.183,158.692,-44.258,-55.184
9529,0.7061,0.2661,-0.6812,0.244,0.549,-0.244,158.687,-44.258,-55.184
9539,0.7085,0.2646,-0.6821,0.244,0.244,-0.305,158.687,-44.258,-55.184
9549,0.7090,0.2656,-0.6816,0.183,-0.061,-0.427,158.687,-44.253,-55.184
9559,0.7100,0.2642,-0.6797,0.061,-0.305,-0.549,158.681,-44.253,-55.184
9569,0.7090,0.2627,-0.6782,0.000,-0.549,-0.671,158.681,-44.242,-55.184
9579,0.7075,0.2617,-0.6768,-0.061,-0.671,-0.671,158.676,-44.236,-55.184
9589,0.7061,0.2578,-0.6772,0.000,-0.610,-0.732,158.681,-44.225,-55.184
9599,0.7046,0.2588,-0.6753,0.000,-0.549,-0.732,158.676,-44.220,-55.184
9609,0.7046,0.2583,-0.6763,-0.122,-0.549,-0.610,158.676,-44.214,-55.184
9619,0.7041,0.2588,-0.6743,-0.183,-0.732,-0.366,158.676,-44.203,-55.184
9629,0.7051,0.2617,-0.6714,-0.183,-0.916,-0.183,158.676,-44.198,-55.184
9639,0.7061,0.2632,-0.6704,-0.061,-1.099,-0.061,158.681,-44.193,-55.184
9649,0.7065,0.2632,-0.6714,0.244,-1.099,0.061,158.687,-44.182,-55.184
9659,0.7056,0.2627,-0.6689,0.427,-0.916,0.061,158.692,-44.176,-55.184
9669,0.7041,0.2627,-0.6680,0.427,-0.549,0.061,158.698,-44.176,-55.184
9679,0.7041,0.2637,-0.6699,0.305,-0.122,-0.061,158.698,-44.176,-55.184
9689,0.7021,0.2661,-0.6699,0.061,0.244,-0.183,158.692,-44.176,-55.184
9699,0.7017,0.2642,-0.6685,-0.183,0.549,-0.244,158.687,-44.182,-55.184
9709,0.7021,0.2656,-0.6719,-0.183,0.732,-0.183,158.676,-44.193,-55.184
9719,0.7021,0.2690,-0.6748,0.061,0.793,-0.183,158.665,-44.193,-55.184
9729,0.7007,0.2734,-0.6714,0.305,0.732,-0.061,158.659,-44.198,-55.184
9739,0.7026,0.2744,-0.6763,0.977,0.488,0.061,158.659,-44.203,-55.184
9749,0.7041,0.2744,-0.6743,1.648,0.244,-0.061,158.665,-44.203,-55.184
9759,0.7061,0.2681,-0.6748,1.831,0.427,-0.366,158.676,-44.203,-55.184
9769,0.7065,0.2632,-0.6753,1.709,0.854,-0.671,158.687,-44.209,-55.184
9779,0.7046,0.2617,-0.6812,0.977,1.282,-0.916,158.687,-44.220,-55.184
9790,0.7026,0.2627,-0.6821,0.183,1.465,-1.099,158.676,-44.225,-55.162
9800,0.7056,0.2642,-0.6807,-0.244,1.343,-1.160,158.659,-44.231,-55.140
9810,0.7051,0.2632,-0.6812,-0.183,0.977,-1.160,158.643,-44.231,-55.118
9820,0.7031,0.2617,-0.6792,0.366,0.427,-1.099,158.637,-44.231,-55.102
9829,0.7012,0.2563,-0.6797,0.793,0.000,-0.854,158.648,-44.225,-55.091
9840,0.7007,0.2524,-0.6772,0.977,-0.244,-0.671,158.659,-44.220,-55.085
9850,0.7021,0.2515,-0.6782,0.854,-0.244,-0.549,158.676,-44.214,-55.080
9860,0.7036,0.2544,-0.6763,0.427,-0.122,-0.427,158.681,-44.214,-55.074
9870,0.7065,0.2583,-0.6768,0.061,0.183,-0.183,158.687,-44.214,-55.074
9879,0.7075,0.2603,-0.6743,0.000,0.366,-0.061,158.687,-44.220,-55.069
9890,0.7085,0.2603,-0.6748,0.244,0.488,0.061,158.687,-44.225,-55.069
9899,0.7085,0.2607,-0.6758,0.488,0.366,0.244,158.698,-44.231,-55.069
9910,0.7090,0.2593,-0.6802,0.488,0.305,0.305,158.708,-44.236,-55.069
9920,0.7080,0.2583,-0.6812,0.183,0.061,0.305,158.719,-44.236,-55.074
9930,0.7061,0.2598,-0.6792,-0.244,-0.122,0.183,158.719,-44.236,-55.080
9940,0.7056,0.2622,-0.6802,-0.793,-0.183,0.122,158.714,-44.231,-55.080
9949,0.7031,0.2617,-0.6772,-1.099,-0.183,0.000,158.708,-44.231,-55.080
9959,0.7026,0.2627,-0.6763,-1.160,-0.244,0.000,158.698,-44.225,-55.080
9970,0.7046,0.2656,-0.6787,-0.916,-0.305,0.061,158.687,-44.220,-55.085
9980,0.7021,0.2651,-0.6777,-0.549,-0.366,0.244,158.687,-44.214,-55.091
9989,0.7026,0.2637,-0.6797,-0.183,-0.366,0.366,158.692,-44.214,-55.096
9999,0.7036,0.2632,-0.6821,0.183,-0.244,0.488,158.698,-44.209,-55.102
10009,0.7051,0.2656,-0.6802,0.305,-0.122,0.488,158.708,-44.209,-55.113
10019,0.7065,0.2646,-0.6831,0.305,-0.061,0.488,158.714,-44.209,-55.118
10029,0.7061,0.2661,-0.6802,0.122,-0.061,0.305,158.719,-44.203,-55.124
10039,0.7041,0.2681,-0.6802,-0.244,-0.244,0.122,158.714,-44.203,-55.124
10049,0.7070,0.2700,-0.6758,-0.549,-0.671,-0.061,158.708,-44.193,-55.129
10059,0.7075,0.2690,-0.6738,-0.671,-0.977,-0.183,158.698,-44.187,-55.129
10069,0.7070,0.2676,-0.6694,-0.610,-1.221,-0.183,158.692,-44.176,-55.135
10079,0.7070,0.2646,-0.6685,-0.427,-1.221,-0.244,158.687,-44.165,-55.135
10089,0.7046,0.2632,-0.6670,-0.183,-0.977,-0.183,158.681,-44.160,-55.140
10099,0.7041,0.2598,-0.6650,-0.061,-0.549,-0.183,158.681,-44.160,-55.140
10109,0.7026,0.2598,-0.6660,0.000,-0.122,-0.183,158.681,-44.160,-55.140
10119,0.7007,0.2598,-0.6680,0.000,0.366,-0.183,158.681,-44.165,-55.135
10129,0.7007,0.2578,-0.6724,-0.061,0.793,-0.183,158.676,-44.176,-55.129
10139,0.7026,0.2593,-0.6753,0.061,1.099,-0.061,158.676,-44.182,-55.118
10149,0.7036,0.2598,-0.6763,0.061,1.221,0.122,158.676,-44.198,-55.118
10159,0.7051,0.2593,-0.6772,0.183,0.977,0.427,158.681,-44.209,-55.118
10169,0.7065,0.2632,-0.6812,0.427,0.610,0.671,158.692,-44.214,-55.124
10179,0.7070,0.2627,-0.6855,0.671,0.366,0.793,158.708,-44.214,-55.129
10189,0.7085,0.2622,-0.6846,0.854,0.244,0.854,158.725,-44.220,-55.140
10199,0.7100,0.2637,-0.6865,0.793,0.000,0.793,158.747,-44.220,-55.151
10209,0.7061,0.2651,-0.6826,0.427,-0.305,0.610,158.758,-44.220,-55.162
10219,0.7031,0.2651,-0.6816,-0.061,-0.671,0.366,158.758,-44.209,-55.168
10229,0.7007,0.2661,-0.6772,-0.549,-0.916,0.122,158.758,-44.198,-55.173
10239,0.6997,0.2681,-0.6724,-0.793,-0.977,0.000,158.747,-44.187,-55.179
10249,0.7002,0.2700,-0.6704,-0.732,-0.916,-0.122,158.736,-44.176,-55.184
10259,0.6997,0.2686,-0.6680,-0.427,-0.793,-0.244,158.725,-44.171,-55.184
10269,0.7007,0.2666,-0.6650,0.000,-0.610,-0.244,158.719,-44.165,-55.184
10279,0.7007,0.2651,-0.6646,0.305,-0.183,-0.305,158.714,-44.165,-55.179
10289,0.7007,0.2627,-0.6670,0.488,0.305,-0.366,158.714,-44.171,-55.173
10299,0.7017,0.2598,-0.6709,0.366,0.793,-0.366,158.714,-44.176,-55.168
10309,0.7036,0.2603,-0.6729,0.183,1.282,-0.366,158.708,-44.187,-55.157
10320,0.7021,0.2603,-0.6772,0.122,1.587,-0.366,158.703,-44.198,-55.140
10329,0.7046,0.2593,-0.6802,0.122,1.709,-0.244,158.703,-44.214,-55.129
10339,0.7051,0.2588,-0.6821,0.122,1.465,-0.183,158.703,-44.225,-55.118
10349,0.7061,0.2598,-0.6851,0.183,1.099,-0.122,158.703,-44.231,-55.113
10359,0.7046,0.2578,-0.6836,0.122,0.488,-0.122,158.708,-44.236,-55.107
10369,0.7070,0.2603,-0.6816,0.061,-0.061,-0.061,158.714,-44.231,-55.107
10379,0.7056,0.2612,-0.6812,0.000,-0.366,0.000,158.714,-44.225,-55.113
10389,0.7056,0.2627,-0.6797,0.061,-0.427,0.061,158.719,-44.220,-55.113
10399,0.7056,0.2622,-0.6792,0.122,-0.366,0.122,158.725,-44.220,-55.118
10409,0.7065,0.2646,-0.6768,0.183,-0.305,0.122,158.730,-44.214,-55.118
10419,0.7036,0.2656,-0.6758,0.183,-0.305,0.122,158.730,-44.209,-55.124
10429,0.7046,0.2651,-0.6748,0.122,-0.366,0.061,158.730,-44.209,-55.124
10439,0.7031,0.2632,-0.6748,-0.122,-0.366,-0.122,158.730,-44.203,-55.124
10449,0.7046,0.2651,-0.6748,-0.366,-0.366,-0.366,158.725,-44.198,-55.124
10459,0.7036,0.2632,-0.6758,-0.610,-0.366,-0.488,158.714,-44.193,-55.118
10469,0.7017,0.2637,-0.6709,-0.793,-0.305,-0.488,158.703,-44.187,-55.113
10479,0.7046,0.2642,-0.6685,-0.732,-0.305,-0.427,158.687,-44.187,-55.107
10489,0.7031,0.2661,-0.6675,-0.549,-0.061,-0.244,158.676,-44.187,-55.107
10499,0.7031,0.2656,-0.6689,-0.183,0.183,-0.061,158.670,-44.193,-55.107
10509,0.7017,0.2656,-0.6714,0.244,0.488,0.000,158.670,-44.198,-55.102
10519,0.7041,0.2661,-0.6733,0.549,0.793,0.061,158.670,-44.203,-55.102
10529,0.7056,0.2656,-0.6724,0.610,1.038,0.000,158.670,-44.214,-55.096
10539,0.7051,0.2651,-0.6763,0.488,1.221,0.000,158.670,-44.225,-55.085
10549,0.7085,0.2646,-0.6802,0.366,1.282,-0.122,158.670,-44.236,-55.080
10559,0.7080,0.2642,-0.6821,0.183,1.221,-0.305,158.665,-44.242,-55.069
10569,0.7085,0.2656,-0.6816,0.061,0.977,-0.427,158.659,-44.247,-55.058
10579,0.7080,0.2607,-0.6802,0.061,0.671,-0.488,158.654,-44.253,-55.047
10589,0.7095,0.2583,-0.6807,0.061,0.305,-0.549,158.654,-44.253,-55.042
10599,0.7080,0.2573,-0.6816,0.122,0.000,-0.549,158.659,-44.253,-55.036
10609,0.7065,0.2578,-0.6821,0.122,-0.305,-0.427,158.665,-44.247,-55.031
10619,0.7065,0.2588,-0.6792,0.122,-0.427,-0.244,158.670,-44.242,-55.031
10629,0.7065,0.2573,-0.6807,0.244,-0.488,0.000,158.681,-44.236,-55.031
10639,0.7036,0.2578,-0.6763,0.305,-0.488,0.122,158.687,-44.231,-55.036
10649,0.7036,0.2603,-0.6753,0.305,-0.488,0.305,158.698,-44.225,-55.042
10659,0.7002,0.2622,-0.6724,0.305,-0.488,0.427,158.708,-44.225,-55.047
10669,0.7017,0.2651,-0.6724,0.183,-0.488,0.488,158.714,-44.220,-55.058
10679,0.7017,0.2661,-0.6753,0.061,-0.549,0.488,158.719,-44.214,-55.069
10689,0.7061,0.2681,-0.6738,0.061,-0.488,0.488,158.719,-44.214,-55.074
10703,0.7051,0.2695,-0.6699,0.000,-0.427,0.427,158.719,-44.214,-55.085
10709,0.7041,0.2700,-0.6719,-0.061,-0.183,0.305,158.714,-44.209,-55.091
10719,0.7041,0.2686,-0.6729,0.000,0.061,0.122,158.714,-44.214,-55.091
10729,0.7041,0.2676,-0.6733,0.000,0.366,-0.122,158.708,-44.214,-55.085
10739,0.7061,0.2646,-0.6763,-0.122,0.549,-0.366,158.698,-44.220,-55.080
10749,0.7065,0.2637,-0.6748,-0.366,0.488,-0.549,158.687,-44.220,-55.069
10759,0.7021,0.2617,-0.6738,-0.671,0.305,-0.488,158.676,-44.220,-55.063
10769,0.7041,0.2607,-0.6748,-0.732,0.122,-0.366,158.670,-44.220,-55.058
10779,0.7046,0.2598,-0.6763,-0.488,0.000,-0.244,158.665,-44.220,-55.052
10789,0.7036,0.2612,-0.6763,-0.122,-0.061,-0.061,158.665,-44.220,-55.052
10799,0.7026,0.2627,-0.6768,0.305,-0.061,0.122,158.670,-44.220,-55.052
10809,0.7007,0.2603,-0.6772,0.610,0.000,0.305,158.681,-44.220,-55.058
10820,0.7036,0.2598,-0.6758,0.732,0.061,0.366,158.698,-44.220,-55.058
10829,0.7017,0.2632,-0.6787,0.610,0.183,0.366,158.703,-44.220,-55.058
10839,0.7036,0.2622,-0.6797,0.488,0.488,0.244,158.714,-44.225,-55.058
10849,0.7056,0.2637,-0.6812,0.305,0.671,0.183,158.714,-44.225,-55.058
10859,0.7061,0.2666,-0.6797,0.183,0.671,0.183,158.714,-44.231,-55.058
10869,0.7075,0.2656,-0.6812,0.183,0.427,0.183,158.719,-44.236,-55.058
10879,0.7104,0.2681,-0.6792,0.183,0.061,0.183,158.719,-44.236,-55.058
10889,0.7085,0.2666,-0.6792,0.244,-0.305,0.122,158.719,-44.236,-55.058
10899,0.7100,0.2651,-0.6763,0.183,-0.671,0.000,158.725,-44.231,-55.058
10909,0.7095,0.2637,-0.6758,0.000,-0.916,-0.061,158.725,-44.220,-55.058
10919,0.7085,0.2622,-0.6743,-0.244,-0.977,-0.122,158.725,-44.214,-55.058
10929,0.7070,0.2627,-0.6724,-0.427,-0.854,-0.122,158.725,-44.209,-55.058
10939,0.7017,0.2588,-0.6670,-0.244,-0.305,-0.183,158.719,-44.209,-55.058
10949,0.7002,0.2573,-0.6699,-0.183,-0.122,-0.244,158.719,-44.203,-55.058
10959,0.6992,0.2568,-0.6714,-0.183,0.000,-0.183,158.719,-44.203,-55.058
10969,0.6992,0.2554,-0.6743,-0.183,0.000,0.000,158.725,-44.203,-55.058
10979,0.7007,0.2578,-0.6724,-0.183,-0.061,0.183,158.725,-44.203,-55.058
10989,0.7012,0.2593,-0.6743,0.000,0.000,0.366,158.730,-44.203,-55.058
10999,0.7002,0.2612,-0.6763,0.305,0.000,0.610,158.741,-44.203,-55.058
11009,0.7007,0.2627,-0.6753,0.671,0.061,0.793,158.758,-44.209,-55.058
11019,0.7036,0.2642,-0.6772,0.977,0.122,0.854,158.769,-44.209,-55.058
11029,0.7051,0.2646,-0.6772,1.099,0.366,0.793,158.785,-44.214,-55.058
11039,0.7070,0.2646,-0.6792,0.854,0.427,0.549,158.796,-44.220,-55.058
11049,0.7056,0.2656,-0.6768,0.427,0.366,0.183,158.802,-44.225,-55.058
11059,0.7061,0.2656,-0.6768,0.061,0.183,-0.061,158.796,-44.225,-55.058
11069,0.7056,0.2676,-0.6782,-0.122,0.061,-0.183,158.791,-44.225,-55.058
11079,0.7056,0.2671,-0.6768,-0.061,-0.061,-0.305,158.785,-44.220,-55.058
11089,0.7046,0.2661,-0.6763,0.183,-0.122,-0.305,158.780,-44.220,-55.058
11099,0.7036,0.2627,-0.6729,0.488,-0.122,-0.305,158.785,-44.214,-55.058
11109,0.7056,0.2617,-0.6733,0.671,0.000,-0.305,158.785,-44.214,-55.058
11119,0.7056,0.2598,-0.6758,0.671,0.183,-0.305,158.791,-44.220,-55.058
11129,0.7031,0.2559,-0.6758,0.427,0.366,-0.366,158.796,-44.220,-55.058
11139,0.7046,0.2534,-0.6743,0.122,0.488,-0.427,158.796,-44.225,-55.058
11149,0.7036,0.2539,-0.6772,-0.183,0.610,-0.366,158.796,-44.231,-55.058
11159,0.7041,0.2549,-0.6768,-0.305,0.488,-0.183,158.796,-44.231,-55.058
11169,0.7041,0.2563,-0.6812,-0.244,0.366,0.122,158.802,-44.236,-55.058
11179,0.7021,0.2573,-0.6802,0.061,0.183,0.366,158.807,-44.236,-55.058
11189,0.7036,0.2578,-0.6787,0.366,0.061,0.549,158.818,-44.236,-55.058
11199,0.7061,0.2583,-0.6812,0.549,0.000,0.671,158.835,-44.236,-55.058
11209,0.7041,0.2603,-0.6802,0.488,0.000,0.671,158.846,-44.236,-55.058
11219,0.7070,0.2637,-0.6807,0.183,-0.061,0.610,158.857,-44.236,-55.058
11229,0.7065,0.2646,-0.6797,-0.183,-0.122,0.488,158.857,-44.236,-55.058
11239,0.7075,0.2656,-0.6792,-0.549,-0.305,0.366,158.857,-44.236,-55.058
11249,0.7095,0.2681,-0.6748,-0.610,-0.488,0.305,158.846,-44.231,-55.058
11259,0.7061,0.2676,-0.6753,-0.488,-0.549,0.305,158.840,-44.231,-55.058
11269,0.7041,0.2695,-0.6729,-0.244,-0.610,0.244,158.840,-44.225,-55.058
11279,0.7021,0.2686,-0.6699,0.122,-0.610,0.244,158.835,-44.220,-55.058
11289,0.7026,0.2661,-0.6724,0.305,-0.366,0.061,158.835,-44.214,-55.058
11299,0.7041,0.2632,-0.6758,0.366,-0.122,-0.061,158.840,-44.214,-55.058
11309,0.7046,0.2627,-0.6729,0.244,0.061,-0.183,158.840,-44.214,-55.058
11320,0.7051,0.2627,-0.6743,0.000,0.122,-0.305,158.835,-44.214,-55.058
11329,0.7046,0.2607,-0.6714,-0.183,0.183,-0.366,158.829,-44.214,-55.058
11339,0.7061,0.2612,-0.6729,-0.305,0.122,-0.366,158.818,-44.220,-55.058
11349,0.7046,0.2603,-0.6738,-0.122,0.122,-0.183,158.818,-44.220,-55.058
11359,0.7065,0.2607,-0.6724,0.122,0.183,0.000,158.818,-44.225,-55.058
11369,0.7056,0.2588,-0.6748,0.427,0.244,0.122,158.824,-44.225,-55.058
11379,0.7031,0.2578,-0.6768,0.610,0.366,0.244,158.835,-44.231,-55.058
11389,0.7041,0.2593,-0.6748,0.671,0.488,0.183,158.840,-44.236,-55.058
11399,0.7046,0.2573,-0.6768,0.549,0.427,0.183,158.851,-44.242,-55.058
11409,0.7075,0.2598,-0.6782,0.305,0.305,0.122,158.857,-44.242,-55.058
11419,0.7070,0.2607,-0.6797,0.183,0.122,0.183,158.862,-44.247,-55.058
11429,0.7075,0.2622,-0.6777,0.122,-0.061,0.305,158.862,-44.247,-55.058
11439,0.7065,0.2661,-0.6782,0.244,-0.122,0.305,158.868,-44.242,-55.058
11449,0.7061,0.2637,-0.6772,0.427,-0.244,0.305,158.873,-44.242,-55.058
11459,0.7056,0.2656,-0.6777,0.549,-0.244,0.305,158.879,-44.242,-55.058
11469,0.7080,0.2637,-0.6792,0.549,-0.183,0.183,158.884,-44.236,-55.058
11479,0.7061,0.2632,-0.6792,0.366,-0.061,0.000,158.890,-44.236,-55.058
11489,0.7031,0.2627,-0.6763,0.000,-0.061,-0.122,158.890,-44.236,-55.058
11499,0.7012,0.2603,-0.6772,-0.305,-0.183,-0.305,158.884,-44.231,-55.058
11509,0.7007,0.2607,-0.6738,-0.488,-0.244,-0.305,158.879,-44.225,-55.058
11519,0.7021,0.2612,-0.6738,-0.488,-0.366,-0.244,158.868,-44.220,-55.058
11529,0.7026,0.2607,-0.6729,-0.244,-0.427,-0.061,158.868,-44.214,-55.058
11539,0.7036,0.2617,-0.6729,0.122,-0.305,0.122,158.868,-44.214,-55.058
11549,0.7041,0.2622,-0.6753,0.610,-0.122,0.305,158.879,-44.214,-55.058
11559,0.7031,0.2617,-0.6777,0.916,0.122,0.244,158.890,-44.214,-55.058
11569,0.7036,0.2578,-0.6777,0.916,0.305,0.122,158.901,-44.220,-55.058
11579,0.7061,0.2578,-0.6792,0.549,0.305,-0.061,158.906,-44.220,-55.058
11589,0.7065,0.2588,-0.6782,-0.061,0.122,-0.244,158.906,-44.220,-55.058
11599,0.7065,0.2583,-0.6748,-0.427,-0.183,-0.244,158.901,-44.220,-55.058
11609,0.7056,0.2593,-0.6758,-0.610,-0.427,-0.244,158.895,-44.214,-55.058
11619,0.7031,0.2593,-0.6733,-0.488,-0.488,-0.183,158.895,-44.209,-55.058
11629,0.7026,0.2598,-0.6768,-0.244,-0.488,-0.061,158.890,-44.203,-55.058
11639,0.7026,0.2598,-0.6768,0.000,-0.427,0.122,158.895,-44.198,-55.058
11649,0.7021,0.2588,-0.6772,0.183,-0.305,0.305,158.906,-44.198,-55.058
11659,0.7017,0.2607,-0.6792,0.305,-0.183,0.427,158.912,-44.193,-55.058
11669,0.7031,0.2627,-0.6777,0.366,0.000,0.427,158.917,-44.193,-55.058
11679,0.7051,0.2632,-0.6792,0.305,0.122,0.305,158.923,-44.198,-55.058
11689,0.7056,0.2642,-0.6782,0.122,0.183,0.244,158.923,-44.198,-55.058
11699,0.7051,0.2651,-0.6802,0.000,0.183,0.183,158.923,-44.198,-55.058
11709,0.7061,0.2642,-0.6782,-0.122,0.061,0.122,158.917,-44.198,-55.058
11719,0.7051,0.2661,-0.6797,-0.244,0.000,-0.061,158.912,-44.198,-55.058
11729,0.7085,0.2656,-0.6777,-0.244,-0.122,-0.122,158.906,-44.198,-55.058
11739,0.7085,0.2637,-0.6772,-0.244,-0.305,-0.122,158.901,-44.193,-55.058
11749,0.7061,0.2617,-0.6782,-0.183,-0.366,-0.183,158.901,-44.187,-55.058
11759,0.7056,0.2622,-0.6748,-0.183,-0.427,-0.244,158.895,-44.187,-55.058
11769,0.7041,0.2612,-0.6748,-0.061,-0.366,-0.244,158.895,-44.182,-55.058
11779,0.7056,0.2598,-0.6748,-0.122,-0.244,-0.305,158.890,-44.182,-55.058
11789,0.7041,0.2598,-0.6733,-0.183,-0.305,-0.305,158.890,-44.176,-55.058
11799,0.7002,0.2578,-0.6753,-0.244,-0.305,-0.305,158.884,-44.171,-55.058
11809,0.7031,0.2563,-0.6738,-0.305,-0.305,-0.183,158.884,-44.171,-55.058
11820,0.7021,0.2583,-0.6724,-0.183,-0.244,0.000,158.884,-44.171,-55.058
11829,0.7031,0.2578,-0.6733,0.061,-0.061,0.244,158.890,-44.171,-55.058
11839,0.7036,0.2598,-0.6743,0.427,0.122,0.427,158.901,-44.171,-55.058
11849,0.7026,0.2588,-0.6763,0.671,0.305,0.549,158.912,-44.176,-55.058
11859,0.7017,0.2612,-0.6743,0.732,0.549,0.610,158.923,-44.187,-55.058
11869,0.7017,0.2622,-0.6768,0.671,0.610,0.549,158.928,-44.193,-55.058
11879,0.7021,0.2627,-0.6787,0.305,0.610,0.427,158.934,-44.198,-55.058
11889,0.7026,0.2637,-0.6777,0.000,0.488,0.244,158.934,-44.198,-55.058
11899,0.7036,0.2642,-0.6782,-0.183,0.244,0.122,158.928,-44.198,-55.058
11909,0.7051,0.2642,-0.6797,-0.183,0.000,0.000,158.923,-44.198,-55.058
11919,0.7051,0.2651,-0.6763,-0.122,-0.122,-0.061,158.917,-44.198,-55.058
11929,0.7070,0.2651,-0.6768,0.000,-0.122,-0.061,158.917,-44.198,-55.058
11939,0.7065,0.2627,-0.6763,0.122,-0.122,-0.183,158.917,-44.193,-55.058
11949,0.7056,0.2607,-0.6772,0.061,0.000,-0.305,158.912,-44.193,-55.058
11959,0.7065,0.2598,-0.6768,-0.061,0.061,-0.488,158.906,-44.193,-55.058
11969,0.7046,0.2559,-0.6777,-0.305,0.061,-0.610,158.906,-44.193,-55.058
11979,0.7017,0.2578,-0.6763,-0.488,0.000,-0.610,158.895,-44.187,-55.058
11989,0.7017,0.2578,-0.6743,-0.549,-0.061,-0.488,158.890,-44.187,-55.058
11999,0.7036,0.2578,-0.6733,-0.427,-0.061,-0.366,158.884,-44.187,-55.058
12009,0.7017,0.2583,-0.6758,-0.183,0.061,-0.244,158.879,-44.187,-55.058
12019,0.7026,0.2578,-0.6758,0.061,0.183,-0.061,158.884,-44.187,-55.058
12029,0.7036,0.2593,-0.6768,0.244,0.427,0.061,158.884,-44.193,-55.058
12039,0.7031,0.2568,-0.6797,0.122,0.549,0.122,158.890,-44.193,-55.058
12049,0.7036,0.2578,-0.6792,-0.061,0.671,0.061,158.890,-44.198,-55.058
12059,0.7041,0.2603,-0.6797,-0.366,0.549,0.061,158.884,-44.203,-55.058
12069,0.7046,0.2617,-0.6807,-0.488,0.305,0.061,158.884,-44.203,-55.058
12079,0.7051,0.2651,-0.6787,-0.488,0.061,0.122,158.879,-44.203,-55.058
12089,0.7075,0.2656,-0.6768,-0.366,-0.122,0.183,158.873,-44.203,-55.058
12099,0.7075,0.2661,-0.6777,-0.122,-0.244,0.183,158.868,-44.203,-55.058
12109,0.7065,0.2651,-0.6787,0.061,-0.244,0.122,158.868,-44.203,-55.058
12119,0.7075,0.2637,-0.6787,0.000,-0.244,-0.061,158.868,-44.198,-55.058
12129,0.7031,0.2612,-0.6777,-0.305,-0.305,-0.244,158.868,-44.193,-55.058
12139,0.7070,0.2612,-0.6758,-0.732,-0.488,-0.427,158.857,-44.187,-55.058
12149,0.7046,0.2612,-0.6729,-1.160,-0.671,-0.549,158.840,-44.182,-55.058
12159,0.7051,0.2617,-0.6714,-1.282,-0.854,-0.488,158.824,-44.176,-55.058
12169,0.7036,0.2627,-0.6665,-1.099,-0.793,-0.305,158.813,-44.171,-55.058
12179,0.7026,0.2612,-0.6699,-0.671,-0.549,-0.061,158.807,-44.165,-55.058
12189,0.7026,0.2612,-0.6685,-0.244,-0.244,0.122,158.802,-44.165,-55.058
12199,0.7002,0.2607,-0.6689,0.122,0.244,0.244,158.807,-44.171,-55.058
12209,0.7007,0.2612,-0.6699,0.305,0.732,0.244,158.807,-44.182,-55.058
12219,0.7012,0.2607,-0.6719,0.183,1.099,0.183,158.807,-44.193,-55.058
12229,0.7021,0.2622,-0.6738,-0.061,1.160,0.122,158.802,-44.203,-55.058
12239,0.7046,0.2646,-0.6758,-0.244,1.038,-0.061,158.791,-44.209,-55.058
12249,0.7046,0.2642,-0.6772,-0.366,0.854,-0.061,158.785,-44.214,-55.058
12259,0.7051,0.2646,-0.6768,-0.305,0.732,-0.061,158.780,-44.225,-55.058
12269,0.7065,0.2656,-0.6753,-0.122,0.610,-0.061,158.769,-44.231,-55.058
12279,0.7065,0.2642,-0.6763,0.061,0.488,-0.061,158.769,-44.231,-55.058
12289,0.7070,0.2642,-0.6792,0.183,0.488,-0.122,158.769,-44.236,-55.058
12299,0.7065,0.2637,-0.6792,0.244,0.488,-0.183,158.763,-44.236,-55.058
12309,0.7051,0.2642,-0.6797,0.183,0.549,-0.244,158.763,-44.242,-55.058
12320,0.7070,0.2617,-0.6812,0.061,0.488,-0.305,158.763,-44.242,-55.058
12329,0.7065,0.2603,-0.6802,-0.061,0.427,-0.305,158.758,-44.247,-55.058
12339,0.7061,0.2622,-0.6802,-0.061,0.366,-0.244,158.758,-44.247,-55.058
12349,0.7046,0.2612,-0.6748,-0.061,0.183,-0.244,158.752,-44.247,-55.058
12359,0.7021,0.2607,-0.6729,-0.122,-0.061,-0.122,158.752,-44.247,-55.058
12369,0.7012,0.2607,-0.6748,-0.183,-0.244,-0.061,158.752,-44.242,-55.058
12379,0.7041,0.2622,-0.6729,-0.244,-0.305,-0.122,158.752,-44.236,-55.058
12389,0.7041,0.2627,-0.6719,-0.183,-0.183,0.000,158.747,-44.236,-55.058
12399,0.7021,0.2651,-0.6704,0.000,0.122,0.183,158.747,-44.242,-55.058
12409,0.7056,0.2642,-0.6714,0.183,0.427,0.244,158.747,-44.247,-55.058
12419,0.7056,0.2642,-0.6738,0.366,0.671,0.183,158.747,-44.253,-55.058
12429,0.7051,0.2627,-0.6743,0.488,0.793,0.122,158.752,-44.258,-55.058
12439,0.7065,0.2603,-0.6768,0.244,0.793,0.000,158.752,-44.269,-55.058
12449,0.7075,0.2598,-0.6792,-0.122,0.610,-0.122,158.752,-44.275,-55.058
12459,0.7065,0.2603,-0.6792,-0.427,0.427,-0.183,158.747,-44.275,-55.058
12469,0.7065,0.2603,-0.6763,-0.732,0.244,-0.183,158.736,-44.275,-55.058
12479,0.7061,0.2607,-0.6763,-0.732,0.061,-0.183,158.730,-44.275,-55.058
12489,0.7041,0.2593,-0.6772,-0.610,0.122,-0.061,158.725,-44.275,-55.058
12499,0.7031,0.2598,-0.6777,-0.305,0.183,0.061,158.725,-44.275,-55.058
12509,0.7046,0.2627,-0.6768,0.000,0.305,0.183,158.730,-44.280,-55.058
12519,0.7026,0.2622,-0.6797,0.305,0.305,0.305,158.736,-44.280,-55.058
12529,0.7021,0.2622,-0.6782,0.366,0.305,0.427,158.741,-44.280,-55.058
12539,0.7056,0.2627,-0.6807,0.366,0.244,0.427,158.752,-44.280,-55.058
12549,0.7065,0.2632,-0.6826,0.366,0.244,0.366,158.758,-44.286,-55.058
12559,0.7085,0.2646,-0.6792,0.183,0.183,0.305,158.763,-44.286,-55.058
12569,0.7090,0.2661,-0.6782,0.061,0.000,0.122,158.763,-44.286,-55.058
12579,0.7090,0.2651,-0.6797,-0.183,-0.183,-0.061,158.758,-44.286,-55.058
12589,0.7109,0.2661,-0.6724,-0.427,-0.427,-0.244,158.752,-44.280,-55.058
12599,0.7100,0.2632,-0.6743,-0.671,-0.671,-0.366,158.741,-44.275,-55.058
12609,0.7104,0.2617,-0.6714,-0.854,-0.854,-0.488,158.730,-44.269,-55.058
12619,0.7070,0.2627,-0.6694,-0.916,-0.916,-0.488,158.719,-44.258,-55.058
12629,0.7070,0.2598,-0.6680,-0.793,-0.732,-0.427,158.714,-44.258,-55.058
12639,0.7036,0.2568,-0.6675,-0.671,-0.427,-0.244,158.708,-44.253,-55.058
12649,0.7017,0.2573,-0.6685,-0.427,0.000,-0.061,158.703,-44.258,-55.058
12659,0.7031,0.2573,-0.6699,-0.183,0.427,0.061,158.703,-44.264,-55.058
12669,0.7026,0.2559,-0.6709,0.061,0.732,0.244,158.708,-44.269,-55.058
12679,0.7031,0.2593,-0.6738,0.183,0.854,0.366,158.714,-44.280,-55.058
12689,0.7036,0.2622,-0.6753,0.244,0.854,0.549,158.719,-44.291,-55.058
12704,0.7065,0.2646,-0.6782,0.366,0.793,0.549,158.725,-44.297,-55.058
12709,0.7051,0.2642,-0.6812,0.549,0.671,0.488,158.730,-44.302,-55.058
12719,0.7061,0.2637,-0.6802,0.549,0.488,0.366,158.741,-44.302,-55.058
12729,0.7046,0.2646,-0.6802,0.366,0.244,0.183,158.741,-44.302,-55.058
12739,0.7061,0.2676,-0.6782,0.000,-0.061,0.061,158.741,-44.302,-55.058
12749,0.7046,0.2666,-0.6777,-0.305,-0.427,-0.122,158.736,-44.297,-55.058
12759,0.7061,0.2651,-0.6733,-0.549,-0.610,-0.183,158.730,-44.291,-55.058
12769,0.7031,0.2642,-0.6724,-0.488,-0.549,-0.183,158.725,-44.286,-55.058
12779,0.7026,0.2622,-0.6719,-0.305,-0.366,-0.122,158.719,-44.280,-55.058
12789,0.7036,0.2632,-0.6719,0.061,-0.122,-0.061,158.719,-44.280,-55.058
12799,0.7036,0.2637,-0.6724,0.427,0.061,0.000,158.719,-44.280,-55.058
12809,0.7012,0.2622,-0.6709,0.427,0.305,0.000,158.725,-44.280,-55.058
12820,0.7041,0.2632,-0.6714,0.244,0.366,-0.122,158.725,-44.286,-55.058
12829,0.7036,0.2612,-0.6733,0.061,0.427,-0.183,158.719,-44.286,-55.058
12839,0.7036,0.2617,-0.6748,-0.183,0.427,-0.244,158.714,-44.291,-55.058
12849,0.7041,0.2607,-0.6733,-0.244,0.427,-0.183,158.714,-44.291,-55.058
12859,0.7046,0.2598,-0.6763,-0.183,0.305,-0.122,158.708,-44.291,-55.058
12869,0.7061,0.2607,-0.6763,0.000,0.366,-0.061,158.708,-44.297,-55.058
12879,0.7046,0.2593,-0.6797,0.061,0.366,0.061,158.714,-44.297,-55.058
12889,0.7061,0.2612,-0.6787,0.122,0.305,0.122,158.719,-44.302,-55.058
12899,0.7065,0.2603,-0.6777,0.061,0.183,0.183,158.725,-44.302,-55.058
12909,0.7061,0.2617,-0.6792,0.000,0.122,0.305,158.725,-44.302,-55.058
12919,0.7061,0.2637,-0.6792,0.000,0.000,0.244,158.730,-44.302,-55.058
12929,0.7051,0.2637,-0.6772,0.000,-0.122,0.244,158.730,-44.302,-55.058
12939,0.7051,0.2632,-0.6748,0.000,-0.183,0.183,158.736,-44.297,-55.058
12949,0.7056,0.2637,-0.6763,-0.122,-0.366,0.061,158.736,-44.291,-55.058
12959,0.7041,0.2627,-0.6772,-0.305,-0.427,0.000,158.736,-44.286,-55.058
12969,0.7041,0.2632,-0.6733,-0.427,-0.549,-0.061,158.730,-44.280,-55.058
12979,0.7041,0.2627,-0.6743,-0.427,-0.610,-0.061,158.725,-44.275,-55.058
12989,0.7041,0.2642,-0.6699,-0.244,-0.488,0.000,158.725,-44.275,-55.058
12999,0.7046,0.2627,-0.6694,0.000,-0.305,0.000,158.725,-44.269,-55.058
13009,0.7056,0.2622,-0.6714,0.183,-0.061,0.000,158.725,-44.275,-55.058
13019,0.7036,0.2637,-0.6689,0.183,0.061,-0.061,158.725,-44.275,-55.058
13029,0.7021,0.2622,-0.6709,0.061,0.244,0.000,158.725,-44.275,-55.058
13039,0.7051,0.2617,-0.6704,-0.061,0.427,0.000,158.719,-44.280,-55.058
13049,0.7046,0.2607,-0.6719,-0.122,0.610,0.000,158.719,-44.286,-55.058
13059,0.7056,0.2622,-0.6738,-0.122,0.793,0.061,158.714,-44.297,-55.058
13069,0.7051,0.2656,-0.6753,0.061,0.793,0.183,158.714,-44.302,-55.058
13079,0.7041,0.2642,-0.6758,0.305,0.732,0.183,158.714,-44.308,-55.058
13089,0.7061,0.2642,-0.6753,0.549,0.610,0.122,158.719,-44.313,-55.058
13099,0.7095,0.2642,-0.6768,0.610,0.427,0.061,158.719,-44.319,-55.058
13109,0.7100,0.2632,-0.6772,0.427,0.244,0.000,158.725,-44.319,-55.058
13119,0.7090,0.2632,-0.6782,0.183,0.122,0.000,158.725,-44.319,-55.058
13129,0.7080,0.2651,-0.6768,0.000,0.122,-0.061,158.725,-44.319,-55.058
13139,0.7070,0.2637,-0.6792,0.000,0.122,-0.122,158.725,-44.319,-55.058
13149,0.7080,0.2622,-0.6753,0.061,0.061,-0.183,158.725,-44.319,-55.058
13159,0.7080,0.2627,-0.6763,0.122,-0.061,-0.183,158.725,-44.319,-55.058
13169,0.7065,0.2593,-0.6748,0.122,-0.305,-0.183,158.725,-44.313,-55.058
13179,0.7031,0.2583,-0.6733,0.000,-0.488,-0.061,158.730,-44.313,-55.058
13189,0.7026,0.2603,-0.6709,-0.061,-0.488,0.061,158.730,-44.308,-55.058
13199,0.7017,0.2607,-0.6699,-0.061,-0.488,0.122,158.736,-44.302,-55.058
13209,0.7031,0.2612,-0.6709,0.122,-0.305,0.244,158.741,-44.302,-55.058
13219,0.7036,0.2661,-0.6694,0.366,-0.061,0.366,158.741,-44.302,-55.058
13229,0.7065,0.2651,-0.6704,0.671,0.244,0.488,158.747,-44.308,-55.058
13239,0.7080,0.2656,-0.6758,0.854,0.549,0.427,158.758,-44.313,-55.058
13249,0.7100,0.2637,-0.6777,0.793,0.671,0.305,158.763,-44.324,-55.058
13259,0.7095,0.2632,-0.6777,0.549,0.549,0.061,158.769,-44.324,-55.058
13269,0.7085,0.2637,-0.6777,0.000,0.305,-0.183,158.769,-44.330,-55.058
13279,0.7075,0.2622,-0.6777,-0.488,-0.183,-0.305,158.763,-44.324,-55.058
13289,0.7075,0.2632,-0.6753,-0.671,-0.488,-0.305,158.752,-44.319,-55.058
13299,0.7036,0.2622,-0.6743,-0.732,-0.671,-0.305,158.747,-44.313,-55.058
13309,0.7051,0.2617,-0.6738,-0.488,-0.671,-0.183,158.741,-44.302,-55.058
13320,0.7017,0.2617,-0.6719,-0.061,-0.488,-0.061,158.741,-44.297,-55.058
13329,0.7012,0.2588,-0.6709,0.305,-0.183,0.061,158.747,-44.297,-55.058
13339,0.7007,0.2568,-0.6748,0.488,0.000,0.122,158.758,-44.297,-55.058
13349,0.7021,0.2578,-0.6777,0.427,0.244,0.183,158.769,-44.297,-55.058
13359,0.7041,0.2612,-0.6782,0.244,0.427,0.183,158.769,-44.297,-55.058
13369,0.7070,0.2642,-0.6792,0.244,0.488,0.244,158.774,-44.302,-55.058
13379,0.7080,0.2656,-0.6816,0.183,0.488,0.305,158.774,-44.308,-55.058
13389,0.7090,0.2666,-0.6802,0.305,0.427,0.305,158.780,-44.308,-55.058
13399,0.7095,0.2671,-0.6826,0.427,0.122,0.244,158.780,-44.308,-55.058
13409,0.7104,0.2661,-0.6816,0.305,-0.122,0.122,158.785,-44.308,-55.058
13419,0.7095,0.2637,-0.6807,0.061,-0.427,-0.122,158.785,-44.302,-55.058
13429,0.7090,0.2622,-0.6782,-0.305,-0.732,-0.305,158.785,-44.291,-55.058
13439,0.7100,0.2617,-0.6729,-0.671,-0.854,-0.488,158.774,-44.286,-55.058
13449,0.7061,0.2617,-0.6680,-0.854,-0.916,-0.488,158.763,-44.280,-55.058
13459,0.7051,0.2622,-0.6689,-0.793,-0.854,-0.427,158.752,-44.269,-55.058
13469,0.7021,0.2603,-0.6680,-0.549,-0.671,-0.244,158.747,-44.264,-55.058
13479,0.7021,0.2603,-0.6675,-0.122,-0.366,-0.061,158.747,-44.264,-55.058
13489,0.7007,0.2578,-0.6694,0.244,-0.061,0.122,158.752,-44.264,-55.058
13499,0.7007,0.2588,-0.6719,0.427,0.305,0.305,158.763,-44.269,-55.058
13509,0.7021,0.2578,-0.6694,0.488,0.610,0.427,158.769,-44.275,-55.058
13519,0.7026,0.2607,-0.6724,0.488,0.732,0.427,158.774,-44.286,-55.058
13529,0.7051,0.2612,-0.6748,0.366,0.671,0.366,158.780,-44.291,-55.058
13539,0.7051,0.2646,-0.6768,0.305,0.610,0.366,158.785,-44.297,-55.058
13549,0.7070,0.2637,-0.6797,0.244,0.427,0.305,158.785,-44.302,-55.058
13559,0.7075,0.2627,-0.6802,0.122,0.244,0.244,158.791,-44.302,-55.058
13569,0.7075,0.2637,-0.6772,0.061,0.061,0.122,158.791,-44.302,-55.058
13579,0.7065,0.2637,-0.6758,0.000,-0.122,0.122,158.791,-44.302,-55.058
13589,0.7031,0.2651,-0.6753,0.061,-0.061,0.122,158.791,-44.302,-55.058
13599,0.7026,0.2642,-0.6758,0.000,0.000,0.061,158.791,-44.297,-55.058
13609,0.7036,0.2632,-0.6758,0.061,0.122,0.000,158.791,-44.297,-55.058
13619,0.7041,0.2632,-0.6733,0.183,0.183,0.000,158.791,-44.297,-55.058
13629,0.7051,0.2637,-0.6748,0.183,0.061,-0.061,158.791,-44.297,-55.058
13639,0.7061,0.2612,-0.6763,0.244,-0.061,-0.061,158.791,-44.297,-55.058
13649,0.7070,0.2588,-0.6733,0.183,-0.183,-0.061,158.796,-44.297,-55.058
13659,0.7061,0.2612,-0.6738,0.183,-0.122,-0.061,158.796,-44.297,-55.058
13669,0.7080,0.2627,-0.6738,0.183,0.000,0.000,158.802,-44.297,-55.058
13679,0.7070,0.2622,-0.6738,0.244,0.183,0.000,158.802,-44.297,-55.058
13689,0.7056,0.2632,-0.6753,0.305,0.366,0.000,158.802,-44.302,-55.058
13699,0.7056,0.2627,-0.6772,0.427,0.427,-0.061,158.802,-44.302,-55.058
13709,0.7070,0.2598,-0.6782,0.305,0.549,-0.061,158.807,-44.308,-55.058
13719,0.7061,0.2607,-0.6797,0.061,0.488,-0.183,158.807,-44.313,-55.058
13729,0.7075,0.2607,-0.6777,-0.305,0.366,-0.244,158.802,-44.313,-55.058
13739,0.7080,0.2612,-0.6768,-0.488,0.183,-0.244,158.796,-44.313,-55.058
13749,0.7075,0.2598,-0.6772,-0.488,0.061,-0.122,158.791,-44.313,-55.058
13759,0.7065,0.2617,-0.6768,-0.366,0.061,0.061,158.785,-44.313,-55.058
13769,0.7056,0.2603,-0.6772,-0.061,0.061,0.183,158.791,-44.313,-55.058
13779,0.7061,0.2612,-0.6763,0.244,0.183,0.366,158.796,-44.319,-55.058
13789,0.7065,0.2607,-0.6782,0.427,0.122,0.366,158.802,-44.319,-55.058
13799,0.7070,0.2622,-0.6792,0.427,0.122,0.305,158.813,-44.319,-55.058
13809,0.7070,0.2607,-0.6763,0.305,0.061,0.183,158.818,-44.319,-55.058
13820,0.7075,0.2637,-0.6753,0.000,-0.122,0.000,158.818,-44.319,-55.058
13829,0.7070,0.2622,-0.6733,-0.305,-0.305,-0.183,158.813,-44.313,-55.058
13839,0.7080,0.2617,-0.6729,-0.549,-0.427,-0.244,158.807,-44.313,-55.058
13849,0.7070,0.2632,-0.6729,-0.610,-0.549,-0.244,158.796,-44.308,-55.058
13859,0.7041,0.2632,-0.6704,-0.488,-0.549,-0.183,158.791,-44.302,-55.058
13869,0.7041,0.2622,-0.6689,-0.244,-0.427,-0.183,158.785,-44.297,-55.058
13879,0.7046,0.2617,-0.6714,0.061,-0.183,-0.061,158.785,-44.297,-55.058
13889,0.7046,0.2607,-0.6709,0.305,0.122,0.000,158.785,-44.302,-55.058
13899,0.7046,0.2622,-0.6714,0.366,0.488,0.000,158.791,-44.302,-55.058
13909,0.7046,0.2603,-0.6729,0.305,0.610,-0.061,158.791,-44.308,-55.058
13919,0.7046,0.2593,-0.6768,0.183,0.671,-0.061,158.791,-44.313,-55.058
13929,0.7056,0.2593,-0.6777,-0.061,0.549,-0.061,158.791,-44.319,-55.058
13939,0.7061,0.2603,-0.6807,-0.122,0.366,0.061,158.791,-44.319,-55.058
13949,0.7090,0.2598,-0.6782,-0.061,0.122,0.061,158.791,-44.324,-55.058
13959,0.7080,0.2603,-0.6787,0.061,-0.122,0.122,158.796,-44.319,-55.058
13969,0.7075,0.2598,-0.6787,0.183,-0.305,0.183,158.807,-44.319,-55.058
13979,0.7085,0.2607,-0.6768,0.183,-0.427,0.244,158.813,-44.313,-55.058
13989,0.7075,0.2598,-0.6768,0.244,-0.427,0.244,158.818,-44.313,-55.058
13999,0.7061,0.2603,-0.6738,0.244,-0.366,0.305,158.824,-44.308,-55.058
14009,0.7046,0.2627,-0.6729,0.122,-0.366,0.244,158.829,-44.308,-55.058
14019,0.7051,0.2607,-0.6719,0.000,-0.244,0.183,158.829,-44.308,-55.058
14029,0.7021,0.2622,-0.6729,0.000,-0.244,0.183,158.835,-44.302,-55.058
14039,0.7056,0.2632,-0.6729,0.061,-0.183,0.183,158.835,-44.302,-55.058
14049,0.7031,0.2632,-0.6719,0.061,-0.122,0.122,158.835,-44.302,-55.058
14059,0.7012,0.2627,-0.6714,0.061,-0.061,0.061,158.835,-44.302,-55.058
14069,0.7056,0.2617,-0.6738,0.061,-0.061,0.061,158.835,-44.302,-55.058
14079,0.7056,0.2617,-0.6738,0.061,-0.061,0.061,158.835,-44.302,-55.058
14089,0.7065,0.2632,-0.6729,0.122,0.061,0.122,158.835,-44.302,-55.058
14099,0.7095,0.2637,-0.6743,0.183,0.122,0.122,158.835,-44.302,-55.058
14109,0.7080,0.2642,-0.6772,0.366,0.244,0.122,158.835,-44.308,-55.058
14119,0.7100,0.2632,-0.6792,0.488,0.305,0.061,158.840,-44.308,-55.058
14129,0.7119,0.2593,-0.6782,0.488,0.305,-0.061,158.846,-44.313,-55.058
14139,0.7104,0.2583,-0.6777,0.244,0.122,-0.122,158.851,-44.313,-55.058
14149,0.7080,0.2583,-0.6758,-0.061,-0.061,-0.244,158.851,-44.313,-55.058
14159,0.7056,0.2563,-0.6733,-0.366,-0.305,-0.244,158.851,-44.313,-55.058
14169,0.7056,0.2573,-0.6748,-0.549,-0.488,-0.244,158.846,-44.308,-55.058
14179,0.7026,0.2554,-0.6714,-0.610,-0.610,-0.122,158.846,-44.302,-55.058
14189,0.7021,0.2559,-0.6724,-0.366,-0.610,0.061,158.846,-44.297,-55.058
14199,0.7026,0.2583,-0.6709,0.000,-0.488,0.244,158.851,-44.291,-55.058
14209,0.7031,0.2573,-0.6758,0.366,-0.305,0.427,158.862,-44.291,-55.058
14219,0.7046,0.2598,-0.6738,0.549,0.000,0.549,158.873,-44.291,-55.058
14229,0.7051,0.2598,-0.6763,0.610,0.183,0.610,158.884,-44.297,-55.058
14239,0.7075,0.2622,-0.6792,0.488,0.366,0.549,158.895,-44.302,-55.058
14249,0.7065,0.2661,-0.6782,0.244,0.366,0.488,158.895,-44.302,-55.058
14259,0.7095,0.2686,-0.6802,0.061,0.244,0.305,158.895,-44.308,-55.058
14269,0.7100,0.2676,-0.6802,-0.122,0.061,0.122,158.890,-44.308,-55.058
14279,0.7100,0.2666,-0.6777,-0.244,-0.366,-0.061,158.884,-44.302,-55.058
14289,0.7090,0.2671,-0.6743,-0.366,-0.732,-0.122,158.879,-44.297,-55.058
14299,0.7085,0.2651,-0.6738,-0.427,-0.916,-0.244,158.873,-44.286,-55.058
14309,0.7070,0.2642,-0.6709,-0.427,-0.977,-0.366,158.862,-44.280,-55.058
14319,0.7061,0.2607,-0.6714,-0.427,-0.793,-0.366,158.857,-44.269,-55.058
14329,0.7046,0.2603,-0.6729,-0.427,-0.549,-0.366,158.851,-44.264,-55.058
14339,0.7041,0.2588,-0.6670,-0.244,-0.244,-0.305,158.846,-44.264,-55.058
14349,0.7036,0.2588,-0.6709,-0.061,0.061,-0.183,158.846,-44.264,-55.058
14359,0.7031,0.2578,-0.6719,0.244,0.244,0.000,158.846,-44.269,-55.058
14369,0.7041,0.2568,-0.6738,0.427,0.305,0.122,158.857,-44.275,-55.058
14379,0.7041,0.2563,-0.6768,0.549,0.305,0.305,158.868,-44.275,-55.058
14389,0.7061,0.2563,-0.6792,0.549,0.183,0.366,158.879,-44.280,-55.058
14399,0.7061,0.2563,-0.6768,0.488,0.122,0.427,158.890,-44.280,-55.058
14409,0.7070,0.2573,-0.6782,0.366,0.000,0.427,158.901,-44.286,-55.058
14419,0.7075,0.2593,-0.6807,0.244,-0.122,0.488,158.912,-44.280,-55.058
14429,0.7070,0.2598,-0.6792,0.183,-0.183,0.427,158.917,-44.280,-55.058
14439,0.7056,0.2617,-0.6797,0.183,-0.366,0.488,158.928,-44.280,-55.058
14449,0.7056,0.2637,-0.6729,0.122,-0.549,0.427,158.928,-44.275,-55.058
14459,0.7056,0.2637,-0.6768,0.061,-0.732,0.305,158.934,-44.269,-55.058
14469,0.7026,0.2622,-0.6743,0.000,-0.793,0.183,158.939,-44.264,-55.058
14479,0.7026,0.2603,-0.6709,-0.061,-0.732,0.122,158.939,-44.258,-55.058
14489,0.7026,0.2603,-0.6670,-0.122,-0.610,0.061,158.939,-44.253,-55.058
14499,0.7041,0.2627,-0.6699,0.000,-0.427,0.061,158.934,-44.247,-55.058
14509,0.7036,0.2622,-0.6719,0.122,-0.183,0.000,158.934,-44.247,-55.058
14519,0.7046,0.2607,-0.6704,0.183,0.122,0.000,158.934,-44.253,-55.058
14529,0.7031,0.2617,-0.6729,0.244,0.366,-0.061,158.934,-44.253,-55.058
14539,0.7061,0.2627,-0.6743,0.244,0.366,-0.122,158.934,-44.258,-55.058
14549,0.7075,0.2598,-0.6763,0.183,0.366,-0.183,158.928,-44.264,-55.058
14559,0.7051,0.2588,-0.6768,0.122,0.366,-0.305,158.928,-44.264,-55.058
14569,0.7065,0.2549,-0.6782,-0.061,0.305,-0.305,158.928,-44.264,-55.058
14579,0.7056,0.2544,-0.6792,-0.366,0.244,-0.366,158.928,-44.264,-55.058
14589,0.7056,0.2534,-0.6792,-0.549,0.122,-0.305,158.923,-44.264,-55.058
14599,0.7061,0.2549,-0.6768,-0.549,0.000,-0.122,158.923,-44.264,-55.058
14609,0.7061,0.2588,-0.6772,-0.244,-0.122,0.122,158.923,-44.264,-55.058
14619,0.7080,0.2617,-0.6772,0.183,-0.122,0.305,158.928,-44.264,-55.058
14629,0.7075,0.2593,-0.6763,0.488,-0.061,0.366,158.939,-44.269,-55.058
14639,0.7046,0.2598,-0.6772,0.488,-0.061,0.366,158.945,-44.269,-55.058
14649,0.7041,0.2603,-0.6753,0.244,0.000,0.244,158.950,-44.269,-55.058
14659,0.7036,0.2612,-0.6743,-0.183,0.000,0.061,158.950,-44.269,-55.058
14669,0.7036,0.2642,-0.6699,-0.549,-0.061,0.000,158.939,-44.269,-55.058
14679,0.7036,0.2681,-0.6719,-0.671,-0.061,-0.061,158.923,-44.269,-55.058
14689,0.7051,0.2676,-0.6704,-0.427,-0.122,0.000,158.912,-44.264,-55.058
14699,0.7056,0.2671,-0.6685,0.000,-0.061,0.000,158.906,-44.269,-55.058
14709,0.7061,0.2637,-0.6714,0.305,0.122,-0.061,158.906,-44.269,-55.058
14719,0.7090,0.2603,-0.6738,0.305,0.488,-0.244,158.906,-44.275,-55.058
14729,0.7070,0.2578,-0.6743,0.061,0.793,-0.427,158.901,-44.280,-55.058
14739,0.7085,0.2583,-0.6772,-0.427,1.038,-0.549,158.890,-44.291,-55.058
14749,0.7104,0.2573,-0.6807,-0.854,0.977,-0.610,158.873,-44.297,-55.058
14759,0.7100,0.2573,-0.6807,-0.916,0.732,-0.549,158.862,-44.302,-55.058
14769,0.7095,0.2583,-0.6836,-0.671,0.244,-0.366,158.857,-44.302,-55.058
14779,0.7080,0.2544,-0.6821,-0.244,-0.183,-0.122,158.862,-44.302,-55.058
14789,0.7085,0.2559,-0.6772,0.061,-0.549,0.061,158.868,-44.297,-55.058
14799,0.7070,0.2554,-0.6763,0.183,-0.732,0.244,158.879,-44.291,-55.058
14809,0.7051,0.2563,-0.6772,0.061,-0.671,0.366,158.890,-44.286,-55.058
14819,0.7056,0.2568,-0.6758,-0.061,-0.610,0.366,158.895,-44.280,-55.058
14829,0.7046,0.2583,-0.6748,-0.244,-0.610,0.305,158.901,-44.275,-55.058
14839,0.7046,0.2622,-0.6724,-0.305,-0.549,0.305,158.901,-44.275,-55.058
14849,0.7036,0.2646,-0.6709,-0.244,-0.610,0.366,158.901,-44.269,-55.058
14859,0.7031,0.2656,-0.6685,-0.122,-0.549,0.427,158.901,-44.269,-55.058
14869,0.7012,0.2681,-0.6670,-0.061,-0.488,0.427,158.895,-44.264,-55.058
14879,0.7021,0.2686,-0.6685,0.061,-0.305,0.305,158.890,-44.264,-55.058
14889,0.7026,0.2686,-0.6670,0.061,0.000,0.061,158.884,-44.264,-55.058
14899,0.7026,0.2661,-0.6680,0.000,0.366,-0.122,158.879,-44.269,-55.058
14909,0.7046,0.2651,-0.6665,-0.183,0.793,-0.305,158.862,-44.275,-55.058
14919,0.7051,0.2637,-0.6729,-0.427,0.977,-0.488,158.851,-44.286,-55.058
14929,0.7075,0.2622,-0.6724,-0.488,1.099,-0.610,158.835,-44.291,-55.058
14939,0.7051,0.2617,-0.6709,-0.488,1.038,-0.671,158.818,-44.302,-55.058
14949,0.7056,0.2612,-0.6733,-0.305,0.916,-0.610,158.807,-44.308,-55.058
14959,0.7051,0.2578,-0.6763,-0.061,0.732,-0.549,158.802,-44.313,-55.058
14969,0.7046,0.2559,-0.6768,0.122,0.671,-0.488,158.802,-44.319,-55.058
14979,0.7036,0.2554,-0.6743,0.183,0.610,-0.488,158.802,-44.319,-55.058
14989,0.7021,0.2520,-0.6738,0.122,0.671,-0.488,158.802,-44.324,-55.058
14999,0.7051,0.2539,-0.6763,-0.061,0.854,-0.427,158.802,-44.330,-55.058
15009,0.7070,0.2578,-0.6782,-0.122,0.732,-0.305,158.796,-44.335,-55.058
15019,0.7080,0.2603,-0.6763,0.061,0.671,0.000,158.796,-44.341,-55.058
15029,0.7109,0.2637,-0.6787,0.427,0.549,0.244,158.802,-44.346,-55.058
15039,0.7124,0.2642,-0.6816,0.916,0.549,0.366,158.813,-44.352,-55.058
15049,0.7119,0.2627,-0.6812,1.099,0.427,0.366,158.824,-44.357,-55.058
15059,0.7104,0.2637,-0.6782,0.854,0.244,0.244,158.835,-44.363,-55.058
15069,0.7075,0.2617,-0.6792,0.183,-0.061,0.000,158.835,-44.357,-55.058
15079,0.7075,0.2607,-0.6753,-0.610,-0.366,-0.305,158.829,-44.352,-55.058
15089,0.7075,0.2588,-0.6733,-1.282,-0.610,-0.488,158.818,-44.346,-55.058
15099,0.7070,0.2583,-0.6704,-1.709,-0.732,-0.549,158.796,-44.341,-55.058
15109,0.7051,0.2593,-0.6689,-1.648,-0.732,-0.366,158.780,-44.335,-55.058
15119,0.7041,0.2603,-0.6665,-1.343,-0.549,-0.122,158.769,-44.330,-55.058
15129,0.7021,0.2603,-0.6660,-0.793,-0.366,0.122,158.763,-44.330,-55.058
15139,0.7002,0.2607,-0.6704,-0.305,-0.061,0.366,158.763,-44.330,-55.058
15149,0.7002,0.2612,-0.6709,0.061,0.305,0.488,158.763,-44.335,-55.058
15159,0.7007,0.2612,-0.6709,0.244,0.732,0.488,158.769,-44.341,-55.058
15169,0.7012,0.2627,-0.6729,0.183,1.038,0.427,158.769,-44.352,-55.058
15179,0.7046,0.2656,-0.6724,-0.061,1.221,0.427,158.763,-44.363,-55.058
15189,0.7109,0.2676,-0.6738,-0.122,1.221,0.427,158.758,-44.374,-55.058
15199,0.7148,0.2695,-0.6753,-0.122,1.160,0.305,158.752,-44.390,-55.058
15209,0.7168,0.2686,-0.6758,-0.061,0.916,0.244,158.747,-44.401,-55.058
15219,0.7163,0.2681,-0.6753,0.000,0.610,0.122,158.741,-44.407,-55.058
15229,0.7144,0.2671,-0.6763,0.061,0.244,0.000,158.736,-44.412,-55.058
15239,0.7119,0.2651,-0.6724,0.000,0.000,-0.183,158.736,-44.412,-55.058
15249,0.7090,0.2607,-0.6709,-0.122,-0.244,-0.488,158.730,-44.412,-55.058
15259,0.7065,0.2583,-0.6709,-0.366,-0.244,-0.549,158.725,-44.407,-55.058
15269,0.7061,0.2568,-0.6670,-0.610,-0.183,-0.549,158.714,-44.407,-55.058
15279,0.7056,0.2593,-0.6670,-0.549,-0.061,-0.366,158.708,-44.407,-55.058
15289,0.7051,0.2568,-0.6670,-0.183,0.122,-0.061,158.708,-44.407,-55.058
15299,0.7046,0.2554,-0.6689,0.366,0.427,0.305,158.714,-44.418,-55.058
15309,0.7061,0.2593,-0.6709,0.854,0.671,0.671,158.730,-44.423,-55.058
15319,0.7075,0.2588,-0.6714,1.282,0.793,0.854,158.747,-44.434,-55.058
15329,0.7090,0.2593,-0.6733,1.404,0.854,0.977,158.769,-44.451,-55.058
15339,0.7104,0.2598,-0.6743,1.160,0.854,0.916,158.791,-44.462,-55.058
15349,0.7114,0.2612,-0.6777,0.793,0.732,0.671,158.802,-44.467,-55.058
15359,0.7104,0.2622,-0.6768,0.183,0.488,0.427,158.807,-44.473,-55.058
15369,0.7100,0.2627,-0.6748,-0.427,0.122,0.183,158.802,-44.478,-55.058
15379,0.7095,0.2637,-0.6733,-0.854,-0.244,0.000,158.791,-44.473,-55.058
15389,0.7090,0.2651,-0.6719,-0.916,-0.488,-0.061,158.780,-44.467,-55.058
15399,0.7070,0.2646,-0.6689,-0.671,-0.549,-0.061,158.774,-44.462,-55.058
15409,0.7065,0.2617,-0.6694,-0.305,-0.427,-0.183,158.769,-44.462,-55.058
15419,0.7046,0.2603,-0.6665,0.000,-0.244,-0.183,158.763,-44.456,-55.058
15429,0.7070,0.2578,-0.6689,0.122,0.061,-0.244,158.763,-44.462,-55.058
15439,0.7075,0.2573,-0.6699,0.061,0.305,-0.244,158.763,-44.462,-55.058
15449,0.7061,0.2573,-0.6709,0.000,0.427,-0.244,158.763,-44.467,-55.058
15459,0.7065,0.2593,-0.6738,0.000,0.549,-0.122,158.763,-44.473,-55.058
15469,0.7051,0.2583,-0.6748,0.122,0.549,-0.061,158.763,-44.473,-55.058
15479,0.7070,0.2593,-0.6724,0.305,0.488,0.000,158.769,-44.478,-55.058
15489,0.7065,0.2583,-0.6787,0.366,0.427,0.000,158.774,-44.478,-55.058
15499,0.7085,0.2598,-0.6777,0.244,0.366,0.061,158.780,-44.484,-55.058
15509,0.7100,0.2603,-0.6792,0.061,0.244,0.061,158.780,-44.484,-55.058
15519,0.7114,0.2598,-0.6787,-0.061,0.061,0.000,158.780,-44.484,-55.058
15529,0.7095,0.2603,-0.6802,-0.305,-0.061,-0.061,158.780,-44.478,-55.058
15539,0.7119,0.2593,-0.6758,-0.488,-0.305,-0.122,158.780,-44.478,-55.058
15549,0.7095,0.2617,-0.6733,-0.671,-0.549,-0.122,158.774,-44.473,-55.058
15559,0.7100,0.2622,-0.6714,-0.610,-0.732,-0.061,158.769,-44.467,-55.058
15569,0.7085,0.2646,-0.6685,-0.549,-0.732,0.061,158.763,-44.462,-55.058
15579,0.7080,0.2642,-0.6694,-0.366,-0.671,0.122,158.758,-44.456,-55.058
15589,0.7075,0.2627,-0.6699,0.000,-0.549,0.183,158.763,-44.451,-55.058
15599,0.7085,0.2617,-0.6694,0.305,-0.305,0.244,158.763,-44.451,-55.058
15609,0.7104,0.2583,-0.6733,0.488,-0.122,0.244,158.774,-44.451,-55.058
15619,0.7109,0.2593,-0.6724,0.305,-0.061,0.183,158.780,-44.456,-55.058
15629,0.7119,0.2612,-0.6689,0.000,-0.122,0.183,158.785,-44.456,-55.058
15639,0.7095,0.2607,-0.6694,-0.366,-0.244,0.122,158.780,-44.456,-55.058
15649,0.7109,0.2637,-0.6714,-0.549,-0.366,0.122,158.774,-44.456,-55.058
15659,0.7095,0.2627,-0.6689,-0.366,-0.366,0.244,158.774,-44.456,-55.058
15669,0.7090,0.2632,-0.6719,-0.061,-0.244,0.244,158.774,-44.456,-55.058
15679,0.7070,0.2632,-0.6689,0.183,0.000,0.183,158.774,-44.456,-55.058
15689,0.7080,0.2632,-0.6704,0.305,0.305,0.244,158.774,-44.462,-55.058
15699,0.7080,0.2642,-0.6714,0.305,0.488,0.183,158.780,-44.467,-55.058
15709,0.7085,0.2642,-0.6729,0.305,0.427,0.122,158.780,-44.467,-55.058
15719,0.7104,0.2617,-0.6763,0.183,0.244,0.000,158.780,-44.473,-55.058
15729,0.7090,0.2598,-0.6758,0.122,0.061,0.000,158.780,-44.473,-55.058
15739,0.7109,0.2607,-0.6729,0.122,-0.183,-0.061,158.785,-44.467,-55.058
15749,0.7119,0.2617,-0.6719,0.183,-0.366,0.000,158.785,-44.467,-55.058
15759,0.7095,0.2612,-0.6680,0.183,-0.427,0.061,158.791,-44.467,-55.058
15769,0.7090,0.2612,-0.6704,0.183,-0.305,0.122,158.791,-44.467,-55.058
15779,0.7104,0.2617,-0.6670,0.183,-0.122,0.122,158.791,-44.467,-55.058
15789,0.7065,0.2598,-0.6709,0.061,0.061,0.061,158.796,-44.467,-55.058
15799,0.7065,0.2612,-0.6699,-0.061,0.305,0.061,158.791,-44.473,-55.058
15809,0.7085,0.2607,-0.6699,-0.122,0.427,-0.061,158.791,-44.478,-55.058
15819,0.7100,0.2603,-0.6709,-0.122,0.488,-0.061,158.785,-44.484,-55.058
15829,0.7109,0.2588,-0.6738,-0.122,0.488,-0.122,158.785,-44.489,-55.058
15839,0.7109,0.2598,-0.6738,-0.183,0.427,-0.183,158.780,-44.489,-55.058
15849,0.7100,0.2598,-0.6729,-0.244,0.122,-0.122,158.774,-44.495,-55.058
15859,0.7075,0.2607,-0.6743,-0.427,-0.122,-0.183,158.774,-44.489,-55.058
15869,0.7065,0.2598,-0.6714,-0.488,-0.305,-0.244,158.769,-44.489,-55.058
15879,0.7085,0.2612,-0.6670,-0.427,-0.427,-0.183,158.758,-44.484,-55.058
15889,0.7104,0.2588,-0.6704,-0.183,-0.244,-0.183,158.758,-44.484,-55.058
15899,0.7085,0.2603,-0.6709,0.000,0.000,-0.061,158.758,-44.484,-55.058
15909,0.7104,0.2598,-0.6704,0.244,0.366,0.061,158.763,-44.489,-55.058
15919,0.7095,0.2583,-0.6743,0.366,0.610,0.122,158.769,-44.495,-55.058
15928,0.7070,0.2563,-0.6738,0.305,0.488,0.000,158.774,-44.500,-55.058
15939,0.7075,0.2593,-0.6719,0.061,0.183,-0.122,158.774,-44.500,-55.058
15949,0.7080,0.2578,-0.6733,-0.305,-0.244,-0.183,158.769,-44.500,-55.058
15959,0.7085,0.2593,-0.6714,-0.549,-0.549,-0.122,158.769,-44.495,-55.058
15969,0.7075,0.2617,-0.6685,-0.671,-0.610,0.000,158.763,-44.489,-55.058
15979,0.7061,0.2637,-0.6694,-0.610,-0.549,0.122,158.758,-44.484,-55.058
15989,0.7056,0.2632,-0.6680,-0.305,-0.366,0.244,158.752,-44.484,-55.058
15999,0.7051,0.2603,-0.6694,0.061,-0.122,0.305,158.758,-44.478,-55.058
16009,0.7051,0.2617,-0.6729,0.305,0.183,0.305,158.763,-44.484,-55.058
16019,0.7075,0.2612,-0.6714,0.366,0.427,0.244,158.769,-44.489,-55.058
16029,0.7095,0.2617,-0.6748,0.183,0.427,0.183,158.769,-44.489,-55.058
16039,0.7114,0.2637,-0.6782,-0.061,0.366,0.122,158.769,-44.495,-55.058
16049,0.7134,0.2632,-0.6763,-0.183,0.305,0.061,158.763,-44.495,-55.058
16059,0.7124,0.2637,-0.6763,-0.244,0.061,0.061,158.763,-44.500,-55.058
16069,0.7163,0.2666,-0.6763,-0.122,-0.122,0.000,158.758,-44.500,-55.058
16079,0.7144,0.2642,-0.6738,0.000,-0.366,-0.061,158.758,-44.495,-55.058
16089,0.7144,0.2612,-0.6719,0.000,-0.671,-0.122,158.758,-44.489,-55.058
16099,0.7134,0.2588,-0.6724,-0.183,-0.793,-0.244,158.758,-44.484,-55.058
16109,0.7090,0.2573,-0.6689,-0.366,-0.793,-0.305,158.758,-44.478,-55.058
16119,0.7085,0.2583,-0.6675,-0.610,-0.671,-0.366,158.752,-44.473,-55.058
16129,0.7075,0.2583,-0.6650,-0.671,-0.488,-0.305,158.747,-44.473,-55.058
16139,0.7046,0.2563,-0.6646,-0.549,-0.244,-0.183,158.741,-44.473,-55.058
16149,0.7065,0.2568,-0.6655,-0.244,-0.061,0.061,158.741,-44.473,-55.058
16159,0.7075,0.2573,-0.6670,0.061,0.122,0.244,158.741,-44.478,-55.058
16169,0.7075,0.2573,-0.6694,0.366,0.305,0.427,158.752,-44.484,-55.058
16179,0.7075,0.2593,-0.6709,0.488,0.427,0.610,158.763,-44.489,-55.058
16189,0.7061,0.2603,-0.6714,0.488,0.366,0.610,158.774,-44.495,-55.058
16199,0.7095,0.2607,-0.6743,0.366,0.305,0.549,158.780,-44.500,-55.058
16209,0.7100,0.2637,-0.6748,0.244,0.183,0.427,158.785,-44.500,-55.058
16219,0.7109,0.2627,-0.6768,0.183,0.000,0.366,158.791,-44.500,-55.058
16229,0.7100,0.2622,-0.6763,0.122,-0.244,0.244,158.796,-44.500,-55.058
16239,0.7100,0.2603,-0.6738,-0.061,-0.488,0.183,158.796,-44.495,-55.058
16249,0.7090,0.2627,-0.6743,-0.183,-0.610,0.183,158.796,-44.489,-55.058
16259,0.7075,0.2632,-0.6709,-0.183,-0.732,0.061,158.796,-44.484,-55.058
16269,0.7056,0.2646,-0.6709,-0.122,-0.671,0.000,158.796,-44.478,-55.058
16279,0.7036,0.2637,-0.6675,0.000,-0.610,-0.061,158.796,-44.473,-55.058
16289,0.7061,0.2632,-0.6665,0.122,-0.488,-0.122,158.791,-44.467,-55.058
16299,0.7065,0.2617,-0.6689,0.244,-0.244,-0.122,158.791,-44.467,-55.058
16309,0.7065,0.2603,-0.6699,0.305,0.000,-0.122,158.796,-44.467,-55.058
16320,0.7085,0.2607,-0.6685,0.305,0.305,-0.122,158.796,-44.467,-55.058
16328,0.7070,0.2588,-0.6719,0.244,0.610,-0.122,158.796,-44.473,-55.058
16339,0.7090,0.2583,-0.6719,0.122,0.732,-0.183,158.796,-44.484,-55.058
16348,0.7095,0.2588,-0.6709,0.061,0.671,-0.244,158.791,-44.489,-55.058
16358,0.7075,0.2578,-0.6733,0.061,0.488,-0.244,158.791,-44.495,-55.058
16368,0.7075,0.2583,-0.6743,0.000,0.244,-0.183,158.791,-44.495,-55.058
16379,0.7090,0.2583,-0.6758,-0.061,-0.061,-0.122,158.791,-44.489,-55.058
16389,0.7090,0.2583,-0.6748,-0.061,-0.244,0.061,158.796,-44.489,-55.058
16398,0.7114,0.2583,-0.6724,0.000,-0.244,0.183,158.802,-44.489,-55.058
16409,0.7100,0.2588,-0.6709,0.183,-0.183,0.244,158.807,-44.489,-55.058
16418,0.7090,0.2598,-0.6748,0.305,-0.061,0.244,158.813,-44.489,-55.058
16428,0.7090,0.2598,-0.6753,0.183,0.000,0.183,158.818,-44.489,-55.058
16438,0.7095,0.2593,-0.6768,0.061,-0.061,0.122,158.818,-44.489,-55.058
16449,0.7065,0.2607,-0.6748,-0.122,-0.122,0.061,158.818,-44.484,-55.058
16459,0.7041,0.2622,-0.6743,-0.183,-0.366,0.061,158.818,-44.478,-55.058
16468,0.7065,0.2627,-0.6719,-0.305,-0.488,0.000,158.818,-44.473,-55.058
16478,0.7070,0.2642,-0.6714,-0.244,-0.671,0.000,158.813,-44.467,-55.058
16488,0.7070,0.2627,-0.6675,-0.244,-0.732,0.061,158.813,-44.462,-55.058
16498,0.7085,0.2617,-0.6675,-0.122,-0.549,0.061,158.813,-44.462,-55.058
16508,0.7090,0.2632,-0.6660,-0.061,-0.366,0.061,158.807,-44.462,-55.058
16518,0.7080,0.2622,-0.6680,-0.122,-0.061,0.000,158.807,-44.462,-55.058
16528,0.7070,0.2617,-0.6650,-0.061,0.183,-0.061,158.802,-44.467,-55.058
16538,0.7104,0.2612,-0.6694,-0.183,0.244,-0.122,158.796,-44.467,-55.058
16548,0.7090,0.2598,-0.6675,-0.183,0.244,-0.183,158.791,-44.473,-55.058
16558,0.7100,0.2612,-0.6685,-0.183,0.183,-0.122,158.785,-44.478,-55.058
16568,0.7090,0.2607,-0.6699,-0.061,0.244,-0.122,158.780,-44.478,-55.058
16578,0.7085,0.2598,-0.6719,0.122,0.305,-0.061,158.785,-44.484,-55.058
16588,0.7100,0.2598,-0.6743,0.183,0.305,-0.061,158.785,-44.489,-55.058
16598,0.7100,0.2607,-0.6748,0.183,0.305,0.000,158.785,-44.489,-55.058
16608,0.7095,0.2617,-0.6743,0.183,0.244,0.061,158.785,-44.489,-55.058
16618,0.7104,0.2612,-0.6763,0.244,0.183,0.183,158.791,-44.495,-55.058
16628,0.7109,0.2627,-0.6714,0.305,0.061,0.244,158.796,-44.495,-55.058
16638,0.7100,0.2607,-0.6724,0.305,-0.061,0.244,158.802,-44.495,-55.058
16648,0.7109,0.2612,-0.6738,0.427,-0.244,0.183,158.807,-44.495,-55.058
16658,0.7114,0.2617,-0.6719,0.427,-0.366,0.183,158.813,-44.495,-55.058
16668,0.7109,0.2622,-0.6714,0.366,-0.427,0.122,158.818,-44.489,-55.058
16678,0.7085,0.2603,-0.6709,0.183,-0.427,0.061,158.824,-44.489,-55.058
16688,0.7085,0.2607,-0.6704,0.000,-0.366,-0.061,158.824,-44.484,-55.058
