elapsed_ms,acc_x_g,acc_y_g,acc_z_g,gyro_x_dps,gyro_y_dps,gyro_z_dps,angle_x_deg,angle_y_deg,angle_z_deg
0,0.6797,0.2412,-0.7173,1.282,1.648,1.343,160.955,-42.012,-80.629
10,0.6782,0.2476,-0.7124,0.793,1.648,1.709,160.972,-42.028,-80.645
20,0.6797,0.2480,-0.7109,0.854,1.404,1.465,160.988,-42.050,-80.656
30,0.6797,0.2480,-0.7085,1.282,1.099,0.916,160.999,-42.061,-80.662
40,0.6807,0.2446,-0.7056,1.953,0.977,0.488,161.021,-42.078,-80.667
50,0.6777,0.2383,-0.7056,2.563,0.732,0.305,161.049,-42.089,-80.667
60,0.6797,0.2324,-0.7046,2.686,0.671,0.427,161.087,-42.100,-80.667
70,0.6802,0.2305,-0.7056,2.319,0.793,0.732,161.120,-42.111,-80.673
80,0.6826,0.2334,-0.7061,1.526,0.916,0.549,161.142,-42.127,-80.678
90,0.6846,0.2334,-0.7056,0.427,0.916,-0.183,161.147,-42.138,-80.673
100,0.6855,0.2329,-0.7061,-0.488,0.671,-0.671,161.142,-42.149,-80.662
110,0.6855,0.2349,-0.7046,-1.282,0.305,-0.854,161.125,-42.155,-80.645
120,0.6826,0.2432,-0.7021,-1.526,0.061,-0.732,161.104,-42.160,-80.640
130,0.6831,0.2412,-0.7085,-1.343,0.061,-0.427,161.087,-42.160,-80.634
140,0.6831,0.2437,-0.7090,-1.343,-0.061,-0.305,161.071,-42.160,-80.629
150,0.6826,0.2471,-0.7100,-1.343,-0.061,-0.366,161.049,-42.160,-80.623
160,0.6836,0.2505,-0.7139,-1.221,-0.183,-0.732,161.027,-42.155,-80.618
170,0.6855,0.2520,-0.7124,-1.038,-0.183,-0.793,161.005,-42.149,-80.607
181,0.6836,0.2559,-0.7178,-0.366,-0.183,-0.793,160.988,-42.144,-80.596
190,0.6816,0.2573,-0.7197,0.549,-0.244,-0.732,160.983,-42.138,-80.590
200,0.6777,0.2583,-0.7183,1.587,-0.366,-0.793,160.988,-42.127,-80.579
210,0.6763,0.2554,-0.7187,2.380,-0.427,-0.854,160.999,-42.111,-80.574
220,0.6743,0.2549,-0.7173,2.930,-0.549,-0.854,161.016,-42.100,-80.563
230,0.6709,0.2539,-0.7134,3.418,-0.549,-0.793,161.038,-42.083,-80.557
240,0.6704,0.2520,-0.7163,3.601,-0.305,-0.671,161.065,-42.072,-80.546
250,0.6680,0.2485,-0.7183,4.089,-0.183,-0.549,161.098,-42.061,-80.541
260,0.6704,0.2480,-0.7148,4.150,-0.305,-0.244,161.136,-42.056,-80.541
270,0.6694,0.2427,-0.7134,4.333,-0.427,-0.122,161.180,-42.045,-80.541
280,0.6665,0.2373,-0.7134,4.517,-0.366,-0.183,161.230,-42.039,-80.541
290,0.6670,0.2324,-0.7100,4.333,-0.061,-0.061,161.279,-42.034,-80.541
300,0.6670,0.2314,-0.7109,3.662,0.488,0.244,161.323,-42.034,-80.541
310,0.6680,0.2383,-0.7148,2.441,1.221,0.793,161.351,-42.045,-80.546
320,0.6699,0.2412,-0.7119,1.770,1.709,0.671,161.373,-42.061,-80.546
330,0.6753,0.2437,-0.7109,1.709,1.770,0.488,161.384,-42.078,-80.546
340,0.6768,0.2388,-0.7100,2.136,1.404,0.244,161.400,-42.089,-80.541
350,0.6772,0.2329,-0.7100,2.380,0.854,0.061,161.428,-42.100,-80.541
360,0.6782,0.2256,-0.7031,2.075,0.793,0.122,161.455,-42.111,-80.535
370,0.6782,0.2227,-0.7046,1.404,0.793,0.061,161.477,-42.127,-80.535
380,0.6821,0.2261,-0.7036,0.244,1.221,-0.122,161.483,-42.144,-80.530
390,0.6841,0.2305,-0.7061,0.122,1.404,-0.366,161.483,-42.160,-80.519
400,0.6851,0.2363,-0.7085,-0.488,1.526,-0.366,161.472,-42.177,-80.508
410,0.6860,0.2393,-0.7114,-0.610,1.892,-0.549,161.455,-42.193,-80.491
420,0.6831,0.2407,-0.7168,-0.488,1.953,-0.732,161.439,-42.209,-80.475
430,0.6826,0.2412,-0.7153,-0.488,1.831,-0.732,161.417,-42.226,-80.458
440,0.6851,0.2427,-0.7178,-0.549,1.587,-0.671,161.400,-42.237,-80.442
450,0.6816,0.2412,-0.7178,-0.305,1.038,-0.488,161.395,-42.242,-80.431
460,0.6831,0.2422,-0.7124,-0.122,0.732,-0.427,161.384,-42.248,-80.420
470,0.6816,0.2441,-0.7119,0.122,0.610,-0.305,161.378,-42.253,-80.414
480,0.6802,0.2490,-0.7119,0.366,0.732,-0.488,161.367,-42.253,-80.403
490,0.6777,0.2529,-0.7144,0.977,0.916,-0.549,161.362,-42.259,-80.392
500,0.6758,0.2578,-0.7153,1.587,1.099,-0.427,161.362,-42.259,-80.381
510,0.6738,0.2612,-0.7178,2.380,1.343,-0.305,161.362,-42.264,-80.376
520,0.6729,0.2642,-0.7192,3.296,1.587,-0.061,161.373,-42.270,-80.365
530,0.6719,0.2627,-0.7173,4.333,1.953,0.366,161.400,-42.281,-80.365
540,0.6699,0.2578,-0.7158,5.432,2.136,0.671,161.444,-42.292,-80.359
550,0.6670,0.2534,-0.7124,6.165,2.014,0.854,161.494,-42.303,-80.365
560,0.6660,0.2476,-0.7090,6.592,1.892,0.977,161.554,-42.319,-80.370
570,0.6646,0.2417,-0.7051,6.775,1.709,1.038,161.620,-42.330,-80.376
580,0.6650,0.2319,-0.6997,6.775,1.770,0.977,161.691,-42.347,-80.381
590,0.6646,0.2251,-0.6997,6.653,2.014,1.038,161.763,-42.369,-80.387
600,0.6670,0.2222,-0.7026,6.287,2.136,0.916,161.834,-42.391,-80.387
610,0.6689,0.2202,-0.7017,5.493,2.258,1.038,161.900,-42.413,-80.392
620,0.6738,0.2148,-0.7026,4.700,2.380,1.038,161.960,-42.440,-80.392
630,0.6792,0.2124,-0.7065,3.967,2.441,1.099,162.015,-42.468,-80.398
640,0.6831,0.2104,-0.7065,2.991,2.502,0.916,162.059,-42.501,-80.398
650,0.6890,0.2075,-0.7080,2.075,2.441,0.977,162.098,-42.528,-80.403
660,0.6938,0.2114,-0.7114,1.099,2.319,0.854,162.125,-42.561,-80.403
670,0.6963,0.2104,-0.7104,0.244,2.136,0.732,162.142,-42.589,-80.403
680,0.6982,0.2109,-0.7090,-0.549,1.831,0.671,162.147,-42.616,-80.403
690,0.7007,0.2134,-0.7124,-1.404,1.526,0.488,162.147,-42.638,-80.403
700,0.7002,0.2178,-0.7129,-2.136,1.221,0.366,162.131,-42.654,-80.403
710,0.6992,0.2202,-0.7139,-2.747,0.854,0.183,162.114,-42.671,-80.403
720,0.6973,0.2236,-0.7119,-3.052,0.427,0.000,162.087,-42.676,-80.403
730,0.6953,0.2280,-0.7100,-3.174,0.061,-0.122,162.054,-42.682,-80.398
740,0.6914,0.2295,-0.7075,-3.174,-0.183,-0.244,162.021,-42.682,-80.398
750,0.6885,0.2305,-0.7056,-3.174,-0.366,-0.244,161.988,-42.676,-80.398
760,0.6855,0.2314,-0.7056,-2.991,-0.366,-0.305,161.955,-42.676,-80.392
770,0.6826,0.2349,-0.7017,-2.808,-0.305,-0.366,161.917,-42.671,-80.392
780,0.6812,0.2368,-0.7021,-2.808,-0.122,-0.488,161.884,-42.665,-80.381
790,0.6782,0.2417,-0.7031,-2.808,0.061,-0.488,161.840,-42.665,-80.376
800,0.6758,0.2432,-0.7046,-2.747,0.305,-0.488,161.801,-42.660,-80.370
810,0.6753,0.2441,-0.7085,-2.563,0.488,-0.488,161.763,-42.660,-80.359
820,0.6777,0.2461,-0.7056,-2.136,0.610,-0.427,161.724,-42.660,-80.354
830,0.6763,0.2461,-0.7061,-1.587,0.671,-0.427,161.691,-42.660,-80.343
840,0.6753,0.2461,-0.7090,-0.916,0.610,-0.366,161.669,-42.654,-80.338
850,0.6758,0.2437,-0.7090,-0.183,0.549,-0.366,161.658,-42.654,-80.332
860,0.6812,0.2446,-0.7109,0.366,0.549,-0.183,161.653,-42.654,-80.327
870,0.6831,0.2432,-0.7080,0.854,0.488,0.000,161.653,-42.654,-80.327
880,0.6831,0.2427,-0.7095,1.343,0.427,0.061,161.658,-42.654,-80.321
890,0.6826,0.2407,-0.7085,1.709,0.244,0.061,161.675,-42.654,-80.321
900,0.6802,0.2388,-0.7065,2.014,0.122,0.061,161.691,-42.654,-80.321
910,0.6816,0.2373,-0.7070,2.136,0.183,0.061,161.708,-42.654,-80.321
920,0.6807,0.2334,-0.7061,2.258,0.122,0.183,161.730,-42.654,-80.327
930,0.6782,0.2310,-0.7046,2.258,0.122,0.122,161.757,-42.654,-80.327
940,0.6792,0.2285,-0.7051,2.136,0.244,0.122,161.779,-42.654,-80.327
950,0.6802,0.2251,-0.7051,1.892,0.427,0.122,161.807,-42.660,-80.327
960,0.6802,0.2246,-0.7070,1.526,0.732,0.122,161.823,-42.665,-80.327
970,0.6807,0.2271,-0.7109,0.977,0.977,0.122,161.834,-42.671,-80.321
980,0.6836,0.2261,-0.7109,0.366,1.038,0.122,161.845,-42.682,-80.321
990,0.6846,0.2271,-0.7100,-0.061,1.099,0.061,161.845,-42.687,-80.316
1000,0.6860,0.2310,-0.7104,-0.366,1.038,0.000,161.840,-42.698,-80.310
1010,0.6851,0.2324,-0.7090,-0.549,0.977,0.061,161.834,-42.704,-80.310
1020,0.6875,0.2339,-0.7080,-0.671,0.793,0.122,161.823,-42.715,-80.305
1030,0.6865,0.2368,-0.7070,-0.549,0.610,0.183,161.812,-42.720,-80.305
1040,0.6865,0.2383,-0.7070,-0.427,0.488,0.183,161.807,-42.726,-80.305
1050,0.6851,0.2412,-0.7056,-0.244,0.427,0.244,161.796,-42.726,-80.305
1060,0.6875,0.2407,-0.7031,-0.061,0.366,0.305,161.790,-42.731,-80.310
1070,0.6870,0.2402,-0.7041,0.183,0.427,0.305,161.790,-42.737,-80.310
1080,0.6865,0.2368,-0.7026,0.488,0.488,0.305,161.790,-42.742,-80.316
1090,0.6841,0.2344,-0.7031,0.610,0.549,0.366,161.796,-42.748,-80.316
1100,0.6831,0.2354,-0.7026,0.671,0.610,0.488,161.801,-42.753,-80.321
1110,0.6821,0.2314,-0.7075,0.732,0.549,0.488,161.812,-42.759,-80.321
1120,0.6831,0.2334,-0.7080,0.854,0.549,0.427,161.823,-42.764,-80.327
1130,0.6841,0.2314,-0.7104,0.977,0.610,0.488,161.834,-42.770,-80.332
1140,0.6841,0.2324,-0.7090,1.099,0.610,0.427,161.851,-42.775,-80.332
1150,0.6855,0.2300,-0.7100,1.160,0.549,0.488,161.867,-42.775,-80.338
1160,0.6851,0.2261,-0.7090,1.343,0.549,0.427,161.884,-42.781,-80.343
1170,0.6860,0.2231,-0.7095,1.282,0.610,0.366,161.906,-42.792,-80.343
1180,0.6899,0.2163,-0.7051,1.038,0.610,0.305,161.927,-42.797,-80.343
1190,0.6929,0.2168,-0.7061,0.610,0.488,0.244,161.944,-42.808,-80.343
1200,0.6938,0.2197,-0.7061,0.061,0.488,0.244,161.955,-42.819,-80.349
1210,0.6958,0.2202,-0.7046,-0.427,0.488,0.183,161.955,-42.825,-80.349
1220,0.6987,0.2246,-0.7036,-0.854,0.488,0.061,161.949,-42.836,-80.343
1230,0.7002,0.2280,-0.7026,-1.282,0.366,-0.122,161.933,-42.847,-80.343
1240,0.6978,0.2324,-0.7021,-1.648,0.061,-0.244,161.917,-42.852,-80.338
1250,0.6958,0.2339,-0.7007,-1.831,-0.305,-0.244,161.889,-42.852,-80.338
1260,0.6948,0.2363,-0.7017,-1.587,-0.732,-0.244,161.873,-42.847,-80.338
1270,0.6973,0.2407,-0.7007,-1.099,-0.977,-0.244,161.851,-42.841,-80.338
1280,0.6929,0.2417,-0.7007,-0.305,-1.160,-0.183,161.840,-42.836,-80.343
1290,0.6909,0.2437,-0.7002,0.305,-1.282,-0.244,161.834,-42.825,-80.343
1300,0.6885,0.2432,-0.7041,0.793,-1.221,-0.244,161.834,-42.808,-80.343
1310,0.6841,0.2441,-0.7085,1.038,-0.977,-0.366,161.840,-42.797,-80.343
1320,0.6802,0.2422,-0.7104,1.465,-0.732,-0.366,161.845,-42.781,-80.343
1330,0.6748,0.2417,-0.7100,2.014,-0.549,-0.366,161.856,-42.764,-80.338
1340,0.6733,0.2378,-0.7129,2.502,-0.244,-0.427,161.873,-42.753,-80.338
1350,0.6709,0.2354,-0.7129,2.625,0.183,-0.244,161.895,-42.748,-80.332
1360,0.6670,0.2314,-0.7153,2.380,0.610,-0.183,161.917,-42.737,-80.327
1370,0.6646,0.2280,-0.7148,2.502,0.671,-0.122,161.944,-42.731,-80.321
1380,0.6675,0.2256,-0.7129,2.441,0.732,0.122,161.971,-42.731,-80.321
1390,0.6694,0.2217,-0.7114,2.197,0.732,0.244,161.999,-42.731,-80.321
1400,0.6724,0.2217,-0.7070,1.709,0.732,0.427,162.026,-42.731,-80.321
1410,0.6753,0.2261,-0.7056,1.221,0.732,0.610,162.043,-42.737,-80.327
1420,0.6812,0.2285,-0.7036,0.671,0.793,0.732,162.054,-42.748,-80.332
1430,0.6851,0.2344,-0.6987,0.366,0.977,0.732,162.054,-42.759,-80.338
1440,0.6895,0.2383,-0.7007,0.366,1.282,0.549,162.048,-42.775,-80.343
1450,0.6904,0.2397,-0.7036,0.427,1.587,0.427,162.048,-42.792,-80.343
1460,0.6978,0.2427,-0.7021,1.038,1.953,0.366,162.043,-42.819,-80.338
1470,0.6982,0.2437,-0.7021,1.465,1.831,0.183,162.043,-42.841,-80.332
1480,0.6992,0.2417,-0.7021,2.136,1.587,0.183,162.048,-42.858,-80.327
1490,0.6982,0.2417,-0.7002,2.808,1.160,0.061,162.065,-42.874,-80.321
1500,0.6987,0.2412,-0.7007,3.540,0.671,-0.061,162.087,-42.885,-80.321
1510,0.6978,0.2378,-0.6997,4.456,0.244,0.000,162.120,-42.896,-80.321
1520,0.6973,0.2354,-0.7017,5.493,-0.061,0.061,162.169,-42.896,-80.321
1530,0.6953,0.2314,-0.7012,5.981,-0.183,0.000,162.224,-42.902,-80.321
1540,0.6914,0.2271,-0.7061,6.348,-0.305,0.061,162.290,-42.896,-80.321
1550,0.6895,0.2256,-0.7041,6.592,0.000,0.061,162.356,-42.902,-80.321
1560,0.6870,0.2158,-0.7109,6.836,0.488,-0.122,162.427,-42.902,-80.321
1570,0.6851,0.2129,-0.7134,6.042,0.793,0.366,162.499,-42.907,-80.321
1580,0.6875,0.2119,-0.7148,5.127,1.221,0.488,162.559,-42.918,-80.321
1590,0.6870,0.2119,-0.7197,4.761,1.282,0.305,162.614,-42.929,-80.321
1600,0.6890,0.2070,-0.7144,4.456,1.526,0.305,162.669,-42.940,-80.321
1610,0.6841,0.2075,-0.7183,4.089,1.526,0.244,162.719,-42.951,-80.316
1620,0.6860,0.2056,-0.7187,2.808,1.648,0.000,162.757,-42.962,-80.310
1630,0.6865,0.2085,-0.7183,2.930,1.648,0.061,162.790,-42.973,-80.310
1640,0.6846,0.2109,-0.7139,2.747,1.343,0.549,162.828,-42.984,-80.310
1650,0.6841,0.2109,-0.7119,2.258,1.282,0.793,162.861,-42.995,-80.310
1660,0.6841,0.2124,-0.7119,1.831,1.099,0.671,162.889,-43.006,-80.310
1670,0.6841,0.2139,-0.7124,1.221,1.038,0.610,162.905,-43.011,-80.310
1680,0.6855,0.2153,-0.7085,0.671,1.099,0.549,162.916,-43.022,-80.310
1690,0.6880,0.2129,-0.7070,0.244,1.038,0.610,162.922,-43.033,-80.310
1700,0.6880,0.2114,-0.7070,-0.183,1.099,0.610,162.927,-43.044,-80.310
1710,0.6875,0.2100,-0.7080,-0.610,1.160,0.671,162.933,-43.061,-80.310
1720,0.6909,0.2100,-0.7017,-0.977,1.282,0.793,162.927,-43.077,-80.310
1730,0.6904,0.2104,-0.7061,-1.526,1.953,1.099,162.922,-43.099,-80.316
1740,0.6924,0.2109,-0.7031,-1.648,2.197,1.038,162.916,-43.127,-80.321
1750,0.6929,0.2080,-0.7061,-2.014,2.441,0.610,162.900,-43.149,-80.321
1760,0.6929,0.2046,-0.7119,-2.563,2.319,0.366,162.883,-43.171,-80.316
1770,0.6948,0.2056,-0.7100,-3.479,2.258,0.305,162.850,-43.198,-80.310
1780,0.6938,0.2090,-0.7080,-4.395,2.075,0.244,162.812,-43.215,-80.305
1790,0.6938,0.2124,-0.7051,-4.944,1.526,0.305,162.768,-43.231,-80.299
1800,0.6948,0.2173,-0.7041,-5.188,0.916,0.305,162.719,-43.242,-80.305
1810,0.6914,0.2212,-0.6982,-5.066,0.122,0.244,162.664,-43.248,-80.305
1820,0.6904,0.2222,-0.6963,-4.883,-0.305,0.305,162.614,-43.248,-80.310
1830,0.6899,0.2241,-0.6919,-4.578,-0.549,0.366,162.570,-43.242,-80.316
1840,0.6875,0.2256,-0.6909,-4.517,-0.366,0.305,162.521,-43.242,-80.321
1850,0.6851,0.2261,-0.6870,-4.150,-0.305,0.122,162.477,-43.242,-80.327
1860,0.6841,0.2280,-0.6851,-3.845,0.061,0.061,162.427,-43.248,-80.327
1870,0.6841,0.2300,-0.6841,-3.967,0.610,0.061,162.378,-43.253,-80.327
1880,0.6816,0.2319,-0.6880,-3.906,1.221,0.061,162.328,-43.264,-80.321
1890,0.6846,0.2329,-0.6885,-3.540,1.404,-0.061,162.279,-43.281,-80.316
1900,0.6880,0.2310,-0.6924,-3.296,1.526,-0.122,162.235,-43.292,-80.305
1910,0.6914,0.2295,-0.6973,-2.991,1.404,-0.244,162.191,-43.308,-80.294
1920,0.6934,0.2290,-0.6992,-2.808,1.099,-0.183,162.158,-43.314,-80.288
1930,0.6953,0.2271,-0.6978,-2.686,0.732,-0.061,162.125,-43.325,-80.283
1940,0.6934,0.2266,-0.6992,-2.563,0.366,0.061,162.098,-43.330,-80.283
1950,0.6924,0.2256,-0.7012,-2.380,0.061,0.122,162.076,-43.330,-80.288
1960,0.6919,0.2222,-0.7056,-2.319,-0.061,0.061,162.059,-43.325,-80.288
1970,0.6943,0.2212,-0.7056,-2.563,-0.061,-0.122,162.037,-43.325,-80.288
1980,0.6924,0.2197,-0.7075,-2.991,0.061,-0.305,162.010,-43.319,-80.283
1990,0.6890,0.2192,-0.7090,-3.540,0.061,-0.488,161.982,-43.314,-80.277
2000,0.6899,0.2266,-0.7095,-3.845,0.122,-0.488,161.938,-43.308,-80.266
2010,0.6899,0.2295,-0.7100,-3.906,0.000,-0.549,161.900,-43.303,-80.261
2020,0.6885,0.2358,-0.7114,-3.723,-0.244,-0.610,161.856,-43.292,-80.255
2030,0.6851,0.2402,-0.7119,-3.479,-0.549,-0.671,161.812,-43.275,-80.250
2040,0.6821,0.2407,-0.7104,-2.991,-0.916,-0.793,161.774,-43.253,-80.239
2050,0.6836,0.2432,-0.7080,-2.441,-1.160,-0.916,161.735,-43.231,-80.233
2060,0.6841,0.2432,-0.7041,-1.831,-1.221,-0.854,161.708,-43.209,-80.228
2070,0.6841,0.2412,-0.7026,-1.282,-0.977,-0.671,161.686,-43.193,-80.222
2080,0.6875,0.2397,-0.7021,-0.793,-0.488,-0.488,161.669,-43.182,-80.217
2090,0.6880,0.2388,-0.7036,-0.488,0.183,-0.366,161.653,-43.182,-80.211
2100,0.6855,0.2397,-0.7017,-0.427,0.854,-0.183,161.642,-43.182,-80.206
2110,0.6904,0.2422,-0.7012,-0.488,1.404,0.000,161.625,-43.193,-80.200
2120,0.6895,0.2412,-0.7012,-0.427,1.465,0.244,161.614,-43.209,-80.200
2130,0.6890,0.2422,-0.6963,-0.183,1.160,0.427,161.603,-43.220,-80.200
2140,0.6899,0.2456,-0.6958,0.122,0.732,0.610,161.598,-43.226,-80.206
2150,0.6885,0.2441,-0.6924,0.671,0.305,0.854,161.598,-43.231,-80.211
2160,0.6914,0.2437,-0.6919,1.160,0.061,1.038,161.609,-43.237,-80.228
2170,0.6934,0.2397,-0.6895,1.587,-0.061,1.099,161.631,-43.242,-80.239
2180,0.6934,0.2388,-0.6870,1.892,0.061,0.977,161.647,-43.248,-80.255
2190,0.6958,0.2363,-0.6870,2.014,0.427,0.732,161.664,-43.259,-80.261
2200,0.6968,0.2349,-0.6899,2.136,0.732,0.427,161.686,-43.275,-80.266
2210,0.6973,0.2305,-0.6890,2.258,1.038,0.183,161.702,-43.286,-80.261
2220,0.7002,0.2261,-0.6914,2.441,1.099,0.000,161.724,-43.303,-80.255
2230,0.7012,0.2207,-0.6934,2.625,0.977,-0.122,161.757,-43.319,-80.250
2240,0.7061,0.2148,-0.6973,2.686,0.854,-0.183,161.790,-43.336,-80.244
2250,0.7056,0.2144,-0.7002,2.441,0.610,-0.183,161.823,-43.347,-80.239
2260,0.7065,0.2148,-0.7017,2.014,0.305,-0.122,161.851,-43.358,-80.239
2270,0.7065,0.2192,-0.7065,1.526,0.061,-0.061,161.873,-43.358,-80.239
2280,0.7061,0.2231,-0.7056,1.160,-0.244,-0.122,161.889,-43.358,-80.233
2290,0.7041,0.2275,-0.7075,1.038,-0.610,-0.244,161.906,-43.352,-80.233
2300,0.7017,0.2319,-0.7080,0.977,-0.854,-0.366,161.911,-43.347,-80.233
2310,0.6987,0.2349,-0.7104,1.099,-1.099,-0.366,161.922,-43.330,-80.233
2320,0.6934,0.2363,-0.7085,1.343,-1.343,-0.305,161.933,-43.314,-80.233
2330,0.6890,0.2349,-0.7070,1.648,-1.526,-0.305,161.944,-43.292,-80.239
2340,0.6880,0.2319,-0.7056,2.014,-1.587,-0.305,161.966,-43.270,-80.239
2350,0.6870,0.2261,-0.7061,2.075,-1.343,-0.305,161.993,-43.253,-80.244
2360,0.6855,0.2183,-0.7085,1.709,-0.793,-0.305,162.015,-43.237,-80.244
2370,0.6836,0.2100,-0.7129,0.854,0.061,-0.244,162.037,-43.231,-80.239
2380,0.6821,0.2041,-0.7163,-0.549,0.793,-0.244,162.048,-43.231,-80.233
2390,0.6797,0.2075,-0.7183,-2.136,1.404,-0.122,162.043,-43.237,-80.222
2400,0.6797,0.2114,-0.7197,-3.723,1.587,0.122,162.015,-43.242,-80.217
2410,0.6787,0.2168,-0.7173,-4.944,1.282,0.305,161.977,-43.242,-80.217
2420,0.6802,0.2231,-0.7100,-5.737,0.732,0.488,161.927,-43.242,-80.222
2430,0.6797,0.2280,-0.7017,-6.042,0.122,0.610,161.873,-43.242,-80.228
2440,0.6797,0.2334,-0.6963,-6.165,-0.366,0.732,161.818,-43.237,-80.239
2450,0.6807,0.2393,-0.6855,-5.920,-0.610,0.732,161.757,-43.231,-80.250
2460,0.6826,0.2461,-0.6792,-5.310,-0.427,0.732,161.697,-43.231,-80.261
2470,0.6860,0.2520,-0.6772,-4.272,0.000,0.732,161.636,-43.237,-80.272
2480,0.6875,0.2573,-0.6772,-3.052,0.488,0.610,161.587,-43.242,-80.277
2490,0.6929,0.2607,-0.6782,-1.770,1.038,0.366,161.543,-43.259,-80.277
2500,0.6953,0.2651,-0.6772,-0.427,1.587,0.183,161.510,-43.281,-80.277
2510,0.6992,0.2632,-0.6792,0.916,1.892,-0.122,161.483,-43.303,-80.266
2520,0.7002,0.2539,-0.6846,2.136,1.953,-0.366,161.477,-43.325,-80.250
2530,0.7012,0.2456,-0.6885,3.113,1.831,-0.549,161.488,-43.347,-80.239
2540,0.7007,0.2354,-0.6919,3.784,1.709,-0.610,161.510,-43.363,-80.222
2550,0.6997,0.2271,-0.6914,4.089,1.404,-0.671,161.543,-43.380,-80.206
2560,0.6992,0.2202,-0.6992,4.028,1.038,-0.549,161.587,-43.391,-80.195
2570,0.7085,0.2207,-0.7056,3.723,0.793,-0.427,161.625,-43.401,-80.184
2580,0.7100,0.2178,-0.7119,3.540,0.488,-0.244,161.669,-43.407,-80.178
2590,0.7036,0.2241,-0.7178,2.747,-0.061,-0.305,161.708,-43.401,-80.178
2600,0.7012,0.2261,-0.7246,2.380,-0.427,-0.305,161.735,-43.391,-80.173
2610,0.6982,0.2305,-0.7187,2.258,-0.793,-0.183,161.768,-43.380,-80.173
2620,0.6943,0.2305,-0.7168,2.502,-1.099,-0.061,161.796,-43.358,-80.178
2630,0.6880,0.2266,-0.7129,2.686,-1.343,0.122,161.834,-43.341,-80.184
2640,0.6851,0.2241,-0.7104,2.686,-1.465,0.244,161.873,-43.319,-80.195
2650,0.6831,0.2217,-0.7026,2.380,-1.343,0.244,161.911,-43.303,-80.206
2660,0.6807,0.2178,-0.6987,1.770,-1.038,0.244,161.938,-43.292,-80.211
2670,0.6802,0.2173,-0.6958,0.916,-0.610,0.244,161.960,-43.281,-80.217
2680,0.6812,0.2217,-0.6914,0.122,-0.183,0.305,161.966,-43.281,-80.222
2690,0.6831,0.2236,-0.6865,-0.549,0.183,0.366,161.966,-43.286,-80.228
2700,0.6846,0.2275,-0.6846,-0.977,0.488,0.549,161.955,-43.297,-80.233
2710,0.6890,0.2344,-0.6846,-1.221,0.793,0.732,161.938,-43.308,-80.239
2720,0.6919,0.2378,-0.6890,-1.343,0.977,0.732,161.917,-43.319,-80.244
2730,0.6938,0.2417,-0.6895,-1.038,1.038,0.549,161.900,-43.336,-80.244
2740,0.6987,0.2412,-0.6953,-0.610,1.160,0.366,161.884,-43.347,-80.244
2750,0.6997,0.2378,-0.6968,0.000,1.099,0.183,161.873,-43.363,-80.244
2760,0.6992,0.2329,-0.7007,0.610,1.099,0.061,161.873,-43.374,-80.239
2770,0.6982,0.2300,-0.7021,0.977,1.038,0.061,161.878,-43.385,-80.239
2780,0.6982,0.2271,-0.7061,1.099,0.977,0.122,161.895,-43.391,-80.233
2790,0.6997,0.2295,-0.7075,1.160,0.671,0.183,161.906,-43.396,-80.233
2800,0.7031,0.2305,-0.7080,1.404,0.366,0.305,161.922,-43.401,-80.233
2810,0.6987,0.2285,-0.7075,1.770,-0.061,0.305,161.944,-43.401,-80.239
2820,0.6958,0.2236,-0.7080,2.014,-0.427,0.244,161.971,-43.396,-80.244
2830,0.6904,0.2207,-0.7046,1.953,-0.732,0.183,161.999,-43.385,-80.250
2840,0.6895,0.2207,-0.7041,1.770,-0.793,0.305,162.032,-43.374,-80.255
2850,0.6875,0.2202,-0.6992,1.526,-0.793,0.427,162.054,-43.369,-80.266
2860,0.6875,0.2202,-0.6978,1.343,-0.732,0.488,162.081,-43.358,-80.277
2870,0.6846,0.2217,-0.6973,1.221,-0.549,0.366,162.098,-43.352,-80.283
2880,0.6880,0.2227,-0.6948,1.099,-0.366,0.366,162.114,-43.352,-80.288
2890,0.6875,0.2251,-0.6968,0.916,-0.061,0.366,162.131,-43.347,-80.294
2900,0.6904,0.2280,-0.6982,0.732,0.183,0.366,162.136,-43.352,-80.299
2910,0.6924,0.2275,-0.7007,0.732,0.427,0.244,162.142,-43.352,-80.299
2920,0.6909,0.2305,-0.7012,0.854,0.610,0.183,162.147,-43.358,-80.299
2930,0.6929,0.2300,-0.7007,1.038,0.671,0.061,162.153,-43.363,-80.299
2940,0.6914,0.2275,-0.7026,1.160,0.732,0.122,162.164,-43.369,-80.299
2950,0.6929,0.2266,-0.7026,1.221,0.732,0.122,162.175,-43.374,-80.294
2960,0.6929,0.2256,-0.7051,1.221,0.671,0.183,162.186,-43.380,-80.294
2970,0.6919,0.2231,-0.7031,1.099,0.610,0.244,162.202,-43.385,-80.294
2980,0.6924,0.2217,-0.7021,0.916,0.427,0.244,162.213,-43.385,-80.299
2990,0.6914,0.2222,-0.6982,0.732,0.305,0.244,162.224,-43.391,-80.299
3000,0.6919,0.2227,-0.6968,0.549,0.183,0.305,162.230,-43.391,-80.299
3010,0.6909,0.2236,-0.6992,0.427,0.122,0.244,162.235,-43.391,-80.305
3020,0.6904,0.2241,-0.6968,0.366,0.183,0.183,162.241,-43.396,-80.305
3030,0.6895,0.2246,-0.6938,0.305,0.244,0.183,162.246,-43.396,-80.310
3040,0.6904,0.2271,-0.6978,0.366,0.427,0.122,162.246,-43.401,-80.305
3050,0.6914,0.2261,-0.6958,0.549,0.610,0.122,162.246,-43.407,-80.305
3060,0.6914,0.2261,-0.6992,0.671,0.793,0.000,162.252,-43.412,-80.305
3070,0.6919,0.2266,-0.6997,0.610,0.916,-0.061,162.252,-43.418,-80.299
3080,0.6909,0.2280,-0.7012,0.854,0.977,0.000,162.252,-43.429,-80.294
3090,0.6929,0.2222,-0.7056,0.977,0.977,0.000,162.263,-43.434,-80.288
3100,0.6948,0.2231,-0.7046,0.977,0.854,-0.061,162.274,-43.440,-80.288
3110,0.6938,0.2207,-0.7036,0.977,0.793,-0.061,162.279,-43.445,-80.283
3120,0.6934,0.2202,-0.7041,0.793,0.671,0.061,162.290,-43.451,-80.277
3130,0.6938,0.2212,-0.7026,0.427,0.549,0.122,162.296,-43.451,-80.277
3140,0.6924,0.2231,-0.7012,0.305,0.366,0.183,162.301,-43.456,-80.277
3150,0.6924,0.2231,-0.6987,0.305,0.244,0.244,162.307,-43.456,-80.283
3160,0.6934,0.2236,-0.6992,0.366,0.183,0.244,162.312,-43.456,-80.283
3170,0.6938,0.2251,-0.6978,0.488,0.122,0.305,162.318,-43.462,-80.283
3180,0.6948,0.2246,-0.6958,0.488,0.244,0.427,162.323,-43.467,-80.283
3189,0.6958,0.2241,-0.6982,0.549,0.427,0.366,162.328,-43.473,-80.283
3199,0.6968,0.2246,-0.6987,0.549,0.488,0.244,162.334,-43.478,-80.283
3209,0.6973,0.2241,-0.7002,0.610,0.549,0.183,162.339,-43.484,-80.283
3219,0.6973,0.2236,-0.6982,0.610,0.488,0.122,162.345,-43.489,-80.283
3229,0.6953,0.2227,-0.6987,0.610,0.427,0.122,162.350,-43.495,-80.283
3239,0.6948,0.2222,-0.6978,0.610,0.305,0.061,162.356,-43.495,-80.283
3249,0.6924,0.2231,-0.6968,0.610,0.122,0.122,162.361,-43.495,-80.283
3259,0.6904,0.2231,-0.6997,0.671,0.000,0.122,162.367,-43.495,-80.283
3269,0.6895,0.2241,-0.6978,0.732,0.000,0.183,162.372,-43.495,-80.283
3279,0.6904,0.2251,-0.6973,0.793,0.061,0.183,162.378,-43.489,-80.283
3289,0.6924,0.2256,-0.6953,0.854,0.183,0.183,162.389,-43.495,-80.283
3299,0.6943,0.2246,-0.6978,0.916,0.305,0.244,162.394,-43.495,-80.283
3309,0.6948,0.2246,-0.6987,0.977,0.427,0.122,162.400,-43.500,-80.283
3319,0.6943,0.2227,-0.7017,0.916,0.610,0.122,162.411,-43.506,-80.283
3329,0.6958,0.2222,-0.7031,0.916,0.732,0.122,162.416,-43.511,-80.283
3339,0.6968,0.2197,-0.7021,0.916,0.732,0.122,162.427,-43.517,-80.283
3349,0.6953,0.2207,-0.7021,1.038,0.549,0.122,162.438,-43.522,-80.283
3359,0.6948,0.2212,-0.7002,1.038,0.366,0.183,162.449,-43.522,-80.283
3369,0.6948,0.2187,-0.7021,1.160,0.305,0.183,162.466,-43.528,-80.283
3379,0.6948,0.2173,-0.7031,1.160,0.122,0.183,162.482,-43.528,-80.283
3389,0.6943,0.2178,-0.7021,0.977,0.061,0.183,162.493,-43.528,-80.283
3399,0.6958,0.2173,-0.7026,0.793,0.122,0.183,162.510,-43.528,-80.283
3409,0.6958,0.2173,-0.7017,0.610,0.183,0.244,162.521,-43.528,-80.283
3419,0.6968,0.2173,-0.7017,0.427,0.183,0.183,162.526,-43.533,-80.283
3429,0.6978,0.2173,-0.7031,0.305,0.244,0.183,162.532,-43.533,-80.283
3439,0.6973,0.2207,-0.7031,0.244,0.183,0.244,162.537,-43.533,-80.283
3449,0.6973,0.2197,-0.7012,0.427,0.183,0.244,162.543,-43.539,-80.283
3459,0.6973,0.2197,-0.7017,0.549,0.061,0.244,162.554,-43.539,-80.283
3469,0.6963,0.2197,-0.7002,0.366,0.000,0.183,162.559,-43.539,-80.283
3479,0.6938,0.2212,-0.6992,0.183,0.061,0.061,162.559,-43.539,-80.283
3489,0.6948,0.2207,-0.6987,0.061,0.061,0.000,162.559,-43.539,-80.283
3499,0.6943,0.2197,-0.6982,-0.122,0.061,0.000,162.559,-43.539,-80.283
3509,0.6934,0.2202,-0.6968,-0.122,0.061,0.061,162.554,-43.539,-80.283
3519,0.6938,0.2217,-0.6978,-0.061,0.061,0.061,162.554,-43.539,-80.283
3529,0.6938,0.2217,-0.7002,0.000,0.122,0.000,162.554,-43.539,-80.283
3539,0.6953,0.2207,-0.7041,-0.061,0.244,0.061,162.554,-43.539,-80.283
3549,0.6948,0.2207,-0.7026,-0.061,0.305,0.000,162.548,-43.539,-80.283
3559,0.6953,0.2202,-0.7036,-0.122,0.244,0.061,162.548,-43.539,-80.283
3569,0.6938,0.2217,-0.7031,-0.244,0.122,0.061,162.548,-43.539,-80.283
3579,0.6953,0.2212,-0.6997,-0.305,0.061,0.122,162.543,-43.539,-80.283
3589,0.6938,0.2222,-0.6958,-0.244,0.000,0.183,162.543,-43.539,-80.283
3599,0.6929,0.2207,-0.6968,-0.183,-0.061,0.244,162.537,-43.539,-80.283
3609,0.6929,0.2212,-0.6978,-0.061,-0.061,0.305,162.543,-43.539,-80.283
3619,0.6943,0.2231,-0.6982,0.122,-0.122,0.305,162.543,-43.539,-80.283
3629,0.6938,0.2217,-0.6997,0.305,-0.061,0.244,162.548,-43.533,-80.283
3639,0.6963,0.2246,-0.6978,0.427,0.061,0.244,162.548,-43.539,-80.283
3649,0.6968,0.2227,-0.6992,0.549,0.183,0.183,162.554,-43.539,-80.283
3659,0.6978,0.2222,-0.7012,0.793,0.305,0.122,162.559,-43.544,-80.283
3669,0.6963,0.2227,-0.7036,0.916,0.366,0.061,162.565,-43.544,-80.283
3680,0.6958,0.2192,-0.7061,0.916,0.366,0.061,162.576,-43.544,-80.283
3689,0.6943,0.2207,-0.7056,0.854,0.305,0.122,162.587,-43.544,-80.283
3699,0.6948,0.2202,-0.7026,0.854,0.244,0.122,162.598,-43.544,-80.283
3709,0.6948,0.2168,-0.7041,0.732,0.061,0.061,162.609,-43.544,-80.283
3719,0.6948,0.2187,-0.7070,0.610,-0.061,0.122,162.614,-43.539,-80.283
3729,0.6948,0.2168,-0.7012,0.488,-0.244,0.183,162.625,-43.539,-80.283
3739,0.6948,0.2187,-0.6958,0.427,-0.305,0.244,162.631,-43.533,-80.283
3749,0.6958,0.2183,-0.6934,0.366,-0.366,0.183,162.636,-43.533,-80.283
3759,0.6948,0.2187,-0.6943,0.305,-0.305,0.183,162.642,-43.533,-80.283
3769,0.6958,0.2168,-0.6958,0.244,-0.183,0.183,162.647,-43.533,-80.283
3779,0.6943,0.2207,-0.6968,0.244,0.000,0.122,162.647,-43.533,-80.283
3789,0.6938,0.2192,-0.6948,0.183,0.183,0.061,162.647,-43.539,-80.283
3799,0.6924,0.2197,-0.6968,0.244,0.244,0.000,162.647,-43.539,-80.283
3809,0.6929,0.2212,-0.6963,0.183,0.244,0.000,162.647,-43.539,-80.283
3819,0.6934,0.2202,-0.6992,0.244,0.183,0.000,162.647,-43.544,-80.283
3829,0.6948,0.2207,-0.7007,0.366,0.183,-0.061,162.647,-43.544,-80.283
3839,0.6934,0.2192,-0.7036,0.488,0.183,0.000,162.653,-43.539,-80.283
3849,0.6943,0.2187,-0.7031,0.549,0.122,0.000,162.658,-43.539,-80.283
3859,0.6948,0.2187,-0.7051,0.549,0.122,0.000,162.664,-43.539,-80.283
3869,0.6958,0.2192,-0.7026,0.488,0.000,0.000,162.669,-43.539,-80.283
3879,0.6948,0.2173,-0.7046,0.488,0.000,0.061,162.675,-43.533,-80.283
3889,0.6929,0.2168,-0.7026,0.427,0.000,0.122,162.686,-43.533,-80.283
3899,0.6929,0.2178,-0.7017,0.366,0.061,0.122,162.691,-43.533,-80.283
3910,0.6924,0.2183,-0.7017,0.244,0.061,0.183,162.691,-43.533,-80.283
3919,0.6938,0.2178,-0.7012,0.183,0.061,0.244,162.697,-43.533,-80.283
3929,0.6934,0.2178,-0.7012,0.122,0.061,0.183,162.702,-43.528,-80.283
3939,0.6943,0.2183,-0.7017,0.122,0.183,0.183,162.702,-43.533,-80.283
3949,0.6934,0.2187,-0.7031,0.183,0.305,0.183,162.708,-43.533,-80.283
3959,0.6943,0.2183,-0.7007,0.183,0.366,0.183,162.708,-43.533,-80.283
3969,0.6948,0.2183,-0.7017,0.183,0.366,0.183,162.713,-43.539,-80.283
3979,0.6958,0.2183,-0.7012,0.244,0.366,0.183,162.713,-43.539,-80.283
3989,0.6953,0.2197,-0.7002,0.305,0.305,0.183,162.719,-43.544,-80.283
3999,0.6943,0.2197,-0.7012,0.366,0.244,0.183,162.719,-43.544,-80.283
4009,0.6963,0.2183,-0.7012,0.366,0.183,0.183,162.724,-43.544,-80.283
4019,0.6958,0.2178,-0.6992,0.427,0.244,0.122,162.729,-43.550,-80.283
4029,0.6953,0.2178,-0.7012,0.427,0.244,0.122,162.735,-43.550,-80.283
4040,0.6943,0.2173,-0.6997,0.366,0.244,0.122,162.735,-43.555,-80.283
4049,0.6934,0.2163,-0.7007,0.305,0.244,0.122,162.740,-43.555,-80.283
4059,0.6948,0.2187,-0.6997,0.244,0.366,0.122,162.746,-43.555,-80.283
4069,0.6953,0.2187,-0.7007,0.183,0.366,0.122,162.746,-43.561,-80.283
4079,0.6948,0.2163,-0.7012,0.122,0.366,0.122,162.746,-43.561,-80.283
4090,0.6943,0.2183,-0.6997,0.061,0.488,0.122,162.746,-43.566,-80.283
4099,0.6953,0.2178,-0.7007,0.000,0.488,0.244,162.746,-43.572,-80.283
4109,0.6963,0.2187,-0.6992,0.000,0.366,0.244,162.746,-43.577,-80.283
4119,0.6953,0.2187,-0.6987,0.061,0.366,0.183,162.746,-43.577,-80.283
4129,0.6953,0.2187,-0.6968,0.122,0.305,0.122,162.746,-43.583,-80.283
4139,0.6953,0.2187,-0.6973,0.244,0.244,0.183,162.746,-43.583,-80.283
4149,0.6948,0.2173,-0.6987,0.305,0.244,0.122,162.751,-43.588,-80.283
4159,0.6953,0.2178,-0.7007,0.305,0.244,0.122,162.757,-43.588,-80.283
4170,0.6953,0.2173,-0.7002,0.366,0.305,0.061,162.757,-43.594,-80.283
4180,0.6943,0.2178,-0.6987,0.427,0.366,0.061,162.762,-43.594,-80.283
4189,0.6943,0.2163,-0.6987,0.427,0.366,0.000,162.762,-43.594,-80.283
4199,0.6953,0.2163,-0.7017,0.366,0.305,0.000,162.768,-43.599,-80.283
4209,0.6953,0.2158,-0.7031,0.305,0.305,0.000,162.773,-43.599,-80.283
4219,0.6953,0.2158,-0.7007,0.183,0.366,0.000,162.773,-43.599,-80.283
4229,0.6934,0.2173,-0.7007,0.122,0.244,0.061,162.773,-43.599,-80.283
4240,0.6963,0.2148,-0.7026,0.061,0.305,0.061,162.779,-43.605,-80.283
4249,0.6958,0.2173,-0.7021,0.000,0.305,0.000,162.779,-43.605,-80.283
4260,0.6973,0.2173,-0.6992,-0.061,0.305,-0.061,162.773,-43.610,-80.283
4269,0.6943,0.2192,-0.7007,-0.061,0.366,-0.061,162.773,-43.610,-80.283
4279,0.6938,0.2178,-0.6992,-0.061,0.305,0.000,162.768,-43.610,-80.283
4289,0.6934,0.2192,-0.6992,0.000,0.366,0.000,162.768,-43.610,-80.283
4299,0.6938,0.2207,-0.6973,0.061,0.244,-0.061,162.762,-43.610,-80.283
4309,0.6934,0.2197,-0.7002,0.244,0.244,0.000,162.762,-43.610,-80.283
4319,0.6934,0.2202,-0.6948,0.427,0.305,0.000,162.762,-43.616,-80.283
4330,0.6938,0.2197,-0.6958,0.610,0.427,0.061,162.762,-43.621,-80.283
4339,0.6953,0.2207,-0.6982,0.671,0.549,0.122,162.768,-43.621,-80.283
4349,0.6963,0.2202,-0.6987,0.671,0.549,0.122,162.773,-43.627,-80.283
4359,0.6978,0.2187,-0.7007,0.671,0.610,0.061,162.773,-43.632,-80.283
4369,0.6958,0.2153,-0.6973,0.610,0.549,0.061,162.779,-43.638,-80.283
4380,0.6958,0.2134,-0.6982,0.488,0.366,0.122,162.790,-43.643,-80.283
4389,0.6973,0.2158,-0.6992,0.366,0.244,0.122,162.795,-43.643,-80.283
4399,0.6958,0.2163,-0.6978,0.244,0.122,0.244,162.795,-43.649,-80.283
4410,0.6963,0.2153,-0.6978,0.183,0.122,0.305,162.801,-43.649,-80.283
4420,0.6948,0.2158,-0.6987,0.244,0.122,0.305,162.806,-43.649,-80.283
4430,0.6963,0.2173,-0.6973,0.305,0.183,0.366,162.812,-43.654,-80.283
4439,0.6978,0.2183,-0.7021,0.427,0.305,0.366,162.817,-43.654,-80.283
4449,0.6973,0.2187,-0.7036,0.549,0.366,0.305,162.823,-43.660,-80.283
4459,0.6978,0.2178,-0.7041,0.610,0.427,0.183,162.828,-43.660,-80.283
4469,0.6992,0.2183,-0.7051,0.671,0.549,0.122,162.834,-43.665,-80.283
4479,0.6978,0.2183,-0.7051,0.671,0.549,0.122,162.839,-43.665,-80.283
4490,0.6973,0.2153,-0.7075,0.671,0.549,0.122,162.850,-43.671,-80.283
4500,0.6958,0.2144,-0.7007,0.671,0.427,0.183,162.856,-43.671,-80.283
4510,0.6943,0.2134,-0.7002,0.671,0.366,0.244,162.867,-43.676,-80.283
4519,0.6943,0.2124,-0.6973,0.488,0.183,0.244,162.878,-43.676,-80.283
4530,0.6943,0.2134,-0.6934,0.366,0.061,0.244,162.883,-43.676,-80.283
4540,0.6963,0.2144,-0.6924,0.244,0.061,0.305,162.889,-43.682,-80.283
4549,0.6958,0.2134,-0.6919,0.061,0.122,0.244,162.889,-43.687,-80.283
4559,0.6973,0.2139,-0.6948,0.000,0.244,0.122,162.889,-43.687,-80.283
4570,0.6997,0.2153,-0.6943,-0.061,0.427,0.122,162.889,-43.698,-80.283
4580,0.7002,0.2187,-0.6938,-0.122,0.610,0.061,162.883,-43.704,-80.283
4589,0.7002,0.2187,-0.6963,-0.122,0.610,0.000,162.872,-43.709,-80.283
4599,0.7012,0.2187,-0.6992,0.000,0.610,0.000,162.872,-43.715,-80.283
4610,0.7002,0.2183,-0.7007,0.122,0.549,-0.061,162.867,-43.720,-80.283
4620,0.7017,0.2163,-0.7036,0.244,0.488,-0.061,162.867,-43.726,-80.283
4630,0.6992,0.2144,-0.7046,0.305,0.366,-0.061,162.872,-43.726,-80.283
4639,0.6968,0.2139,-0.7046,0.305,0.183,0.000,162.878,-43.726,-80.283
4650,0.6943,0.2109,-0.7036,0.183,0.000,-0.061,162.883,-43.720,-80.283
4659,0.6938,0.2114,-0.7031,0.061,-0.122,0.000,162.889,-43.720,-80.283
4670,0.6943,0.2144,-0.6987,-0.122,-0.244,0.122,162.889,-43.715,-80.283
4680,0.6929,0.2148,-0.6992,-0.244,-0.183,0.183,162.889,-43.709,-80.283
4690,0.6958,0.2163,-0.6973,-0.305,-0.183,0.244,162.889,-43.709,-80.283
4700,0.6948,0.2173,-0.6948,-0.366,-0.061,0.183,162.883,-43.709,-80.283
4710,0.6953,0.2173,-0.6958,-0.366,0.122,0.122,162.878,-43.709,-80.283
4720,0.6978,0.2192,-0.6963,-0.305,0.244,0.061,162.872,-43.709,-80.283
4730,0.6968,0.2187,-0.6948,-0.244,0.305,0.122,162.867,-43.715,-80.283
4740,0.6978,0.2187,-0.6987,-0.183,0.366,0.122,162.861,-43.720,-80.283
4750,0.6987,0.2173,-0.6997,0.000,0.305,0.122,162.861,-43.720,-80.283
4760,0.6992,0.2183,-0.6968,0.122,0.244,0.183,162.861,-43.726,-80.283
4770,0.6963,0.2187,-0.6997,0.244,0.183,0.122,162.861,-43.726,-80.283
4780,0.6982,0.2163,-0.7002,0.366,0.122,0.122,162.867,-43.726,-80.283
4790,0.6982,0.2134,-0.7021,0.427,0.122,0.122,162.872,-43.726,-80.283
4800,0.6958,0.2104,-0.7026,0.366,0.061,0.122,162.883,-43.726,-80.283
4810,0.6958,0.2139,-0.7002,0.244,0.122,0.122,162.883,-43.720,-80.283
4820,0.6963,0.2114,-0.7007,0.183,0.122,0.122,162.889,-43.726,-80.283
4830,0.6953,0.2109,-0.6987,0.061,0.122,0.122,162.894,-43.726,-80.283
4840,0.6968,0.2134,-0.6997,-0.061,0.122,0.183,162.900,-43.726,-80.283
4850,0.6948,0.2144,-0.6992,-0.183,0.061,0.183,162.900,-43.726,-80.283
4860,0.6948,0.2163,-0.7002,-0.244,0.061,0.183,162.894,-43.720,-80.283
4870,0.6978,0.2183,-0.6973,-0.305,0.061,0.122,162.894,-43.720,-80.283
4880,0.6973,0.2178,-0.6953,-0.183,0.122,0.122,162.889,-43.726,-80.283
4890,0.6943,0.2168,-0.6973,0.000,0.122,0.061,162.889,-43.726,-80.283
4900,0.6948,0.2168,-0.6973,0.061,0.183,0.061,162.883,-43.726,-80.283
4910,0.6973,0.2173,-0.6987,0.183,0.244,0.061,162.883,-43.726,-80.283
4920,0.6987,0.2168,-0.6978,0.244,0.244,0.061,162.889,-43.731,-80.283
4930,0.6978,0.2148,-0.6997,0.366,0.244,0.061,162.889,-43.731,-80.283
4940,0.6973,0.2158,-0.7002,0.427,0.183,0.061,162.894,-43.731,-80.283
4950,0.6978,0.2124,-0.7007,0.427,0.122,0.061,162.900,-43.731,-80.283
4960,0.6968,0.2144,-0.7021,0.427,0.061,0.122,162.905,-43.731,-80.283
4970,0.6992,0.2139,-0.7012,0.366,0.061,0.122,162.911,-43.731,-80.283
4979,0.7007,0.2153,-0.7012,0.305,0.000,0.122,162.916,-43.731,-80.283
4989,0.6982,0.2148,-0.7021,0.183,0.000,0.122,162.922,-43.731,-80.283
5000,0.6997,0.2134,-0.7017,0.244,-0.061,0.122,162.927,-43.726,-80.283
5009,0.6997,0.2124,-0.7026,0.244,0.000,0.000,162.933,-43.726,-80.283
5020,0.6987,0.2129,-0.7002,0.122,0.061,-0.061,162.933,-43.726,-80.283
5030,0.6978,0.2144,-0.7026,0.000,0.061,-0.122,162.933,-43.726,-80.283
5039,0.6953,0.2148,-0.7007,-0.183,0.000,-0.061,162.933,-43.726,-80.283
5050,0.6938,0.2148,-0.7002,-0.244,-0.061,-0.061,162.927,-43.720,-80.283
5060,0.6929,0.2173,-0.6978,-0.244,-0.122,-0.061,162.922,-43.715,-80.283
5070,0.6938,0.2168,-0.6978,-0.183,-0.244,-0.122,162.922,-43.709,-80.283
5080,0.6929,0.2183,-0.6973,-0.061,-0.244,-0.122,162.916,-43.709,-80.283
5090,0.6953,0.2178,-0.6968,0.000,-0.122,-0.061,162.911,-43.704,-80.283
5100,0.6968,0.2197,-0.7007,0.061,0.061,0.061,162.911,-43.704,-80.283
5110,0.6978,0.2183,-0.6992,0.183,0.183,0.000,162.911,-43.704,-80.283
5119,0.6958,0.2168,-0.7002,0.244,0.305,0.000,162.911,-43.704,-80.283
5129,0.6978,0.2168,-0.7021,0.305,0.244,0.000,162.911,-43.704,-80.283
5140,0.6968,0.2148,-0.7021,0.244,0.122,0.000,162.916,-43.704,-80.283
5150,0.6973,0.2144,-0.6973,0.183,-0.061,0.061,162.916,-43.704,-80.283
5160,0.6953,0.2139,-0.6958,0.061,-0.183,0.122,162.916,-43.704,-80.283
5170,0.6943,0.2153,-0.6978,-0.061,-0.244,0.244,162.922,-43.698,-80.283
5180,0.6948,0.2144,-0.6982,-0.061,-0.183,0.244,162.922,-43.698,-80.283
5190,0.6948,0.2153,-0.6987,0.000,-0.244,0.183,162.922,-43.693,-80.283
5200,0.6963,0.2178,-0.6992,0.122,-0.122,0.183,162.927,-43.693,-80.283
5210,0.6978,0.2173,-0.7026,0.244,0.061,0.122,162.927,-43.693,-80.283
5220,0.6978,0.2158,-0.7056,0.366,0.244,0.122,162.933,-43.693,-80.283
5230,0.7002,0.2158,-0.7051,0.549,0.366,0.122,162.938,-43.693,-80.283
5240,0.7002,0.2178,-0.7065,0.732,0.305,0.122,162.944,-43.693,-80.283
5250,0.7002,0.2168,-0.7051,0.854,0.305,0.244,162.955,-43.698,-80.283
5260,0.6987,0.2139,-0.7046,0.916,0.183,0.244,162.966,-43.698,-80.283
5270,0.6978,0.2134,-0.7036,0.793,0.061,0.244,162.977,-43.698,-80.283
5280,0.6973,0.2119,-0.7007,0.610,-0.061,0.244,162.988,-43.698,-80.283
5290,0.6938,0.2134,-0.6963,0.488,-0.122,0.305,162.993,-43.693,-80.283
5300,0.6948,0.2114,-0.6953,0.305,-0.244,0.183,163.004,-43.693,-80.283
5310,0.6978,0.2124,-0.6924,0.061,-0.305,0.183,163.004,-43.693,-80.283
5320,0.6958,0.2139,-0.6899,-0.122,-0.183,0.122,163.004,-43.693,-80.283
5330,0.6948,0.2139,-0.6919,-0.122,-0.061,0.000,162.999,-43.698,-80.283
5340,0.6963,0.2144,-0.6914,-0.183,0.061,0.061,162.999,-43.698,-80.283
5350,0.6978,0.2153,-0.6904,-0.061,0.244,0.061,162.993,-43.704,-80.283
5360,0.6987,0.2163,-0.6924,0.061,0.305,0.000,162.988,-43.709,-80.283
5370,0.6982,0.2158,-0.6992,0.061,0.305,-0.061,162.988,-43.709,-80.283
5380,0.7002,0.2148,-0.7031,0.244,0.366,-0.122,162.988,-43.715,-80.283
5390,0.6987,0.2124,-0.7031,0.305,0.366,-0.122,162.988,-43.715,-80.283
5400,0.6987,0.2104,-0.7061,0.366,0.305,-0.122,162.993,-43.715,-80.283
5410,0.6973,0.2104,-0.7095,0.305,0.061,-0.122,163.004,-43.709,-80.283
5420,0.6948,0.2080,-0.7041,0.122,-0.122,-0.061,163.010,-43.709,-80.283
5430,0.6948,0.2095,-0.7021,-0.061,-0.366,0.061,163.015,-43.704,-80.283
5440,0.6943,0.2124,-0.7007,-0.305,-0.488,0.122,163.015,-43.693,-80.283
5450,0.6953,0.2134,-0.6982,-0.427,-0.671,0.183,163.015,-43.687,-80.283
5460,0.6938,0.2178,-0.6963,-0.488,-0.610,0.244,163.010,-43.682,-80.283
5470,0.6934,0.2192,-0.6948,-0.488,-0.427,0.183,162.999,-43.676,-80.283
5480,0.6934,0.2192,-0.6963,-0.427,-0.244,0.183,162.993,-43.676,-80.283
5490,0.6938,0.2192,-0.6953,-0.305,0.000,0.122,162.988,-43.676,-80.283
5500,0.6943,0.2187,-0.6938,-0.122,0.183,0.061,162.982,-43.676,-80.283
5510,0.6963,0.2183,-0.6982,0.061,0.366,0.000,162.977,-43.676,-80.283
5520,0.6958,0.2158,-0.7007,0.244,0.427,0.000,162.977,-43.682,-80.283
5530,0.6958,0.2148,-0.7036,0.427,0.427,0.000,162.982,-43.682,-80.283
5540,0.6978,0.2124,-0.7061,0.488,0.305,0.000,162.988,-43.682,-80.283
5550,0.6968,0.2114,-0.7065,0.427,0.183,0.000,162.993,-43.682,-80.283
5559,0.6963,0.2119,-0.7061,0.366,0.000,0.000,163.004,-43.682,-80.283
5570,0.6953,0.2100,-0.7046,0.244,-0.122,0.061,163.010,-43.676,-80.283
5580,0.6934,0.2109,-0.7026,0.183,-0.183,0.122,163.015,-43.671,-80.283
5590,0.6938,0.2109,-0.7002,0.000,-0.183,0.122,163.021,-43.671,-80.283
5600,0.6924,0.2114,-0.7002,-0.122,-0.183,0.122,163.021,-43.665,-80.283
5610,0.6953,0.2144,-0.6978,-0.183,-0.061,0.183,163.021,-43.665,-80.283
5620,0.6958,0.2153,-0.6973,-0.305,0.061,0.183,163.015,-43.665,-80.283
5630,0.6948,0.2173,-0.6953,-0.305,0.183,0.122,163.010,-43.665,-80.283
5640,0.6963,0.2173,-0.6992,-0.244,0.305,0.122,163.004,-43.671,-80.283
5650,0.6948,0.2173,-0.6997,-0.122,0.244,0.061,163.004,-43.671,-80.283
5660,0.6968,0.2173,-0.6978,0.061,0.244,0.061,162.999,-43.671,-80.283
5670,0.6973,0.2163,-0.6987,0.122,0.244,0.061,162.999,-43.676,-80.283
5681,0.6987,0.2139,-0.6973,0.244,0.244,0.061,162.999,-43.676,-80.283
5689,0.6982,0.2134,-0.7021,0.183,0.183,0.000,163.004,-43.676,-80.283
5700,0.6992,0.2124,-0.7017,0.183,0.183,0.000,163.004,-43.682,-80.283
5709,0.6987,0.2114,-0.7036,0.061,0.122,0.000,163.010,-43.682,-80.283
5719,0.6973,0.2114,-0.7036,0.000,0.061,0.000,163.010,-43.682,-80.283
5729,0.6958,0.2119,-0.7036,-0.061,0.000,0.000,163.010,-43.676,-80.283
5739,0.6953,0.2129,-0.7017,-0.122,0.000,0.000,163.010,-43.676,-80.283
5750,0.6963,0.2129,-0.7007,-0.122,0.000,0.000,163.010,-43.676,-80.283
5759,0.6968,0.2129,-0.7012,-0.183,0.000,0.000,163.010,-43.671,-80.283
5769,0.6948,0.2139,-0.7021,-0.305,0.000,0.000,163.010,-43.671,-80.283
5779,0.6943,0.2139,-0.6992,-0.366,0.000,0.000,163.004,-43.671,-80.283
5789,0.6948,0.2148,-0.6973,-0.366,0.000,0.061,162.999,-43.671,-80.283
5800,0.6963,0.2168,-0.6968,-0.305,0.061,0.000,162.993,-43.671,-80.283
5810,0.6963,0.2163,-0.6982,-0.122,0.061,0.000,162.993,-43.671,-80.283
5820,0.6958,0.2144,-0.6958,-0.061,0.122,-0.061,162.988,-43.671,-80.283
5830,0.6948,0.2158,-0.7007,-0.061,0.122,-0.061,162.988,-43.671,-80.283
5840,0.6948,0.2158,-0.6982,0.061,0.122,-0.122,162.982,-43.671,-80.283
5850,0.6953,0.2148,-0.7007,0.122,0.122,-0.183,162.982,-43.671,-80.283
5860,0.6958,0.2144,-0.7002,0.122,0.183,-0.183,162.982,-43.671,-80.283
5870,0.6963,0.2144,-0.7012,0.122,0.183,-0.122,162.982,-43.671,-80.283
5880,0.6953,0.2114,-0.7021,0.061,0.122,-0.061,162.982,-43.671,-80.283
5890,0.6958,0.2129,-0.7012,0.061,0.122,0.000,162.982,-43.671,-80.283
5899,0.6948,0.2148,-0.7002,0.061,0.183,0.000,162.982,-43.671,-80.283
5910,0.6963,0.2144,-0.7002,0.061,0.122,0.000,162.982,-43.671,-80.283
5920,0.6978,0.2124,-0.7026,0.000,0.061,0.061,162.988,-43.665,-80.283
5930,0.6963,0.2124,-0.7007,-0.061,-0.061,0.000,162.988,-43.665,-80.283
5939,0.6958,0.2129,-0.7002,-0.183,-0.183,0.000,162.988,-43.665,-80.283
5950,0.6968,0.2124,-0.6978,-0.366,-0.244,0.061,162.988,-43.660,-80.283
5960,0.6943,0.2148,-0.6987,-0.427,-0.244,0.061,162.982,-43.660,-80.283
5970,0.6958,0.2148,-0.6973,-0.366,-0.244,0.122,162.977,-43.654,-80.283
5980,0.6953,0.2163,-0.6982,-0.305,-0.183,0.122,162.977,-43.654,-80.283
5990,0.6973,0.2153,-0.7021,-0.183,-0.122,0.061,162.977,-43.654,-80.283
5999,0.6973,0.2168,-0.7012,-0.122,0.000,0.061,162.971,-43.649,-80.283
6009,0.6978,0.2187,-0.7051,0.000,0.122,0.061,162.971,-43.649,-80.283
6020,0.6978,0.2187,-0.7061,0.122,0.244,0.061,162.971,-43.649,-80.283
6030,0.6973,0.2202,-0.7046,0.244,0.244,0.061,162.971,-43.649,-80.283
6039,0.6978,0.2183,-0.7056,0.427,0.244,0.122,162.971,-43.649,-80.283
6049,0.6973,0.2158,-0.7070,0.488,0.122,0.122,162.977,-43.649,-80.283
6059,0.6968,0.2153,-0.7026,0.671,0.000,0.183,162.988,-43.649,-80.283
6069,0.6963,0.2124,-0.7002,0.610,-0.061,0.183,162.993,-43.643,-80.283
6080,0.6958,0.2114,-0.6992,0.549,-0.061,0.183,163.004,-43.643,-80.283
6090,0.6938,0.2095,-0.6953,0.305,-0.061,0.183,163.010,-43.643,-80.283
6099,0.6968,0.2095,-0.6958,0.000,-0.122,0.122,163.015,-43.649,-80.283
6109,0.6968,0.2114,-0.6958,-0.183,-0.122,0.061,163.015,-43.649,-80.283
6119,0.6992,0.2144,-0.6958,-0.366,-0.122,0.122,163.010,-43.649,-80.283
6129,0.7007,0.2144,-0.6948,-0.366,-0.061,0.061,163.004,-43.649,-80.283
6139,0.6992,0.2153,-0.6968,-0.305,0.000,0.000,163.004,-43.654,-80.283
6149,0.6992,0.2148,-0.6978,-0.244,0.000,-0.061,162.999,-43.654,-80.283
6159,0.6982,0.2148,-0.7007,-0.183,0.000,-0.122,162.993,-43.654,-80.283
6169,0.6982,0.2168,-0.6997,-0.061,0.000,-0.183,162.988,-43.654,-80.283
6180,0.6978,0.2168,-0.7017,0.000,0.000,-0.183,162.988,-43.649,-80.283
6189,0.6978,0.2158,-0.7036,0.183,0.061,-0.183,162.988,-43.649,-80.283
6199,0.6968,0.2134,-0.7041,0.244,0.000,-0.183,162.988,-43.649,-80.283
6209,0.6948,0.2134,-0.7041,0.183,-0.061,-0.122,162.993,-43.643,-80.283
6219,0.6934,0.2129,-0.7056,0.061,-0.122,-0.061,162.993,-43.638,-80.283
6229,0.6929,0.2119,-0.7036,-0.122,-0.244,0.000,162.993,-43.632,-80.283
6239,0.6929,0.2129,-0.7017,-0.183,-0.305,0.061,162.999,-43.627,-80.283
6249,0.6929,0.2139,-0.7002,-0.305,-0.366,0.122,162.993,-43.621,-80.283
6259,0.6924,0.2148,-0.6997,-0.305,-0.366,0.183,162.993,-43.616,-80.283
6269,0.6924,0.2178,-0.6978,-0.305,-0.244,0.122,162.988,-43.616,-80.283
6279,0.6934,0.2153,-0.6963,-0.183,-0.061,0.061,162.988,-43.610,-80.283
6289,0.6948,0.2124,-0.6982,-0.122,0.061,0.061,162.988,-43.616,-80.283
6299,0.6963,0.2148,-0.6997,-0.122,0.305,0.000,162.982,-43.616,-80.283
6309,0.6987,0.2124,-0.7012,-0.122,0.305,-0.061,162.982,-43.621,-80.283
6319,0.6973,0.2124,-0.7031,-0.061,0.366,-0.122,162.982,-43.621,-80.283
6329,0.6982,0.2124,-0.7041,-0.061,0.305,-0.122,162.982,-43.621,-80.283
6339,0.6978,0.2134,-0.7051,0.000,0.122,-0.061,162.982,-43.621,-80.283
6349,0.6958,0.2100,-0.7036,0.000,-0.061,-0.061,162.988,-43.621,-80.283
6359,0.6968,0.2104,-0.7041,-0.061,-0.122,-0.122,162.988,-43.616,-80.283
6369,0.6953,0.2100,-0.7007,-0.122,-0.183,-0.122,162.993,-43.616,-80.283
6379,0.6953,0.2134,-0.6997,-0.244,-0.183,0.000,162.988,-43.610,-80.283
6389,0.6943,0.2139,-0.6992,-0.366,-0.122,-0.061,162.988,-43.610,-80.283
6399,0.6938,0.2134,-0.6968,-0.366,-0.061,0.000,162.982,-43.610,-80.283
6409,0.6929,0.2163,-0.6973,-0.366,-0.061,0.000,162.977,-43.610,-80.283
6419,0.6938,0.2153,-0.6978,-0.305,0.000,-0.061,162.971,-43.605,-80.283
6429,0.6953,0.2183,-0.6982,-0.244,0.122,-0.061,162.966,-43.610,-80.283
6439,0.6958,0.2178,-0.6997,-0.122,0.244,-0.061,162.960,-43.610,-80.283
6449,0.6948,0.2178,-0.6982,-0.061,0.244,0.000,162.955,-43.610,-80.283
6459,0.6953,0.2173,-0.7017,0.000,0.305,-0.061,162.955,-43.610,-80.283
6469,0.6963,0.2144,-0.6997,0.122,0.244,0.000,162.955,-43.616,-80.283
6479,0.6973,0.2129,-0.6997,0.183,0.183,0.000,162.955,-43.616,-80.283
6489,0.6982,0.2119,-0.7017,0.183,0.122,0.000,162.960,-43.616,-80.283
6499,0.6963,0.2129,-0.7021,0.061,0.183,-0.061,162.960,-43.616,-80.283
6509,0.6958,0.2134,-0.7036,0.000,0.122,0.000,162.960,-43.616,-80.283
6519,0.6968,0.2124,-0.7021,-0.061,0.122,-0.061,162.960,-43.616,-80.283
6529,0.6943,0.2129,-0.7012,-0.122,0.122,-0.061,162.960,-43.616,-80.283
6539,0.6953,0.2144,-0.7021,-0.183,0.061,-0.061,162.960,-43.616,-80.283
6549,0.6948,0.2119,-0.7012,-0.183,0.061,-0.061,162.960,-43.616,-80.283
6559,0.6953,0.2144,-0.7021,-0.244,0.061,-0.061,162.955,-43.616,-80.283
6569,0.6943,0.2148,-0.7026,-0.244,0.183,-0.061,162.955,-43.610,-80.283
6579,0.6948,0.2139,-0.7002,-0.183,0.244,0.000,162.955,-43.616,-80.283
6589,0.6943,0.2153,-0.7002,-0.122,0.244,0.000,162.949,-43.616,-80.283
6599,0.6943,0.2134,-0.6997,-0.122,0.244,0.000,162.949,-43.616,-80.283
6609,0.6958,0.2144,-0.7007,-0.122,0.305,0.000,162.949,-43.616,-80.283
6619,0.6953,0.2134,-0.7017,-0.122,0.305,0.000,162.949,-43.621,-80.283
6629,0.6968,0.2139,-0.7012,-0.061,0.244,0.061,162.949,-43.621,-80.283
6639,0.6978,0.2134,-0.7017,-0.061,0.183,0.000,162.949,-43.621,-80.283
6649,0.6968,0.2139,-0.7017,-0.061,0.244,0.000,162.949,-43.627,-80.283
6659,0.6963,0.2144,-0.7012,-0.122,0.244,-0.061,162.944,-43.627,-80.283
6669,0.6948,0.2134,-0.7007,-0.183,0.244,0.000,162.944,-43.627,-80.283
6680,0.6934,0.2139,-0.7017,-0.244,0.244,0.000,162.944,-43.627,-80.283
6689,0.6938,0.2153,-0.6992,-0.244,0.122,0.000,162.938,-43.627,-80.283
6699,0.6938,0.2153,-0.7002,-0.183,0.122,0.000,162.938,-43.627,-80.283
6709,0.6958,0.2163,-0.7026,-0.122,0.061,0.061,162.933,-43.627,-80.283
6719,0.6978,0.2144,-0.7021,0.061,0.183,0.061,162.938,-43.627,-80.283
6729,0.6982,0.2139,-0.7002,0.122,0.305,0.061,162.938,-43.627,-80.283
6739,0.6963,0.2134,-0.7012,0.122,0.366,0.061,162.938,-43.632,-80.283
6749,0.6973,0.2119,-0.7017,0.061,0.305,0.000,162.944,-43.632,-80.283
6759,0.6958,0.2124,-0.6997,0.000,0.183,0.000,162.944,-43.638,-80.283
6769,0.6963,0.2119,-0.6978,-0.122,0.000,0.061,162.944,-43.638,-80.283
6779,0.6943,0.2139,-0.6958,-0.244,-0.122,0.183,162.944,-43.638,-80.283
6789,0.6968,0.2168,-0.7002,-0.305,-0.122,0.183,162.938,-43.632,-80.283
6799,0.6953,0.2153,-0.6992,-0.366,-0.183,0.183,162.938,-43.632,-80.283
6809,0.6953,0.2153,-0.7002,-0.305,-0.061,0.183,162.938,-43.632,-80.283
6819,0.6953,0.2168,-0.7036,-0.183,0.061,0.122,162.938,-43.627,-80.283
6829,0.6978,0.2183,-0.7056,-0.061,0.244,0.122,162.933,-43.632,-80.283
6839,0.6958,0.2163,-0.7065,0.122,0.427,0.061,162.933,-43.632,-80.283
6849,0.6978,0.2168,-0.7065,0.305,0.488,0.061,162.938,-43.632,-80.283
6859,0.6992,0.2134,-0.7075,0.488,0.488,0.061,162.944,-43.638,-80.283
6869,0.6997,0.2124,-0.7070,0.427,0.488,0.061,162.949,-43.638,-80.283
6879,0.6978,0.2090,-0.7061,0.305,0.427,0.122,162.960,-43.643,-80.283
6889,0.6968,0.2085,-0.7031,0.061,0.244,0.122,162.966,-43.643,-80.283
6899,0.6982,0.2095,-0.7007,-0.183,0.061,0.244,162.971,-43.643,-80.283
6909,0.6978,0.2090,-0.6968,-0.427,-0.183,0.244,162.971,-43.643,-80.283
6919,0.6968,0.2095,-0.6934,-0.671,-0.305,0.244,162.971,-43.643,-80.283
6929,0.6978,0.2100,-0.6914,-0.916,-0.244,0.122,162.966,-43.649,-80.283
6939,0.6973,0.2148,-0.6904,-1.160,-0.122,0.122,162.949,-43.649,-80.283
6949,0.6978,0.2183,-0.6914,-1.221,0.000,0.061,162.933,-43.654,-80.283
6959,0.6987,0.2207,-0.6924,-1.038,0.122,-0.061,162.916,-43.654,-80.283
6969,0.6973,0.2222,-0.6948,-0.732,0.244,-0.122,162.900,-43.660,-80.283
6979,0.6982,0.2212,-0.6943,-0.427,0.244,-0.122,162.889,-43.660,-80.283
6989,0.6963,0.2197,-0.6978,-0.061,0.183,-0.122,162.883,-43.665,-80.283
6999,0.6968,0.2173,-0.7007,0.244,0.183,-0.122,162.883,-43.665,-80.283
7009,0.6978,0.2163,-0.7026,0.488,0.244,-0.183,162.889,-43.665,-80.283
7019,0.6968,0.2153,-0.7031,0.671,0.183,-0.183,162.894,-43.660,-80.283
7029,0.6973,0.2148,-0.7065,0.671,0.122,-0.183,162.900,-43.660,-80.283
7039,0.6963,0.2100,-0.7056,0.671,0.061,-0.183,162.911,-43.660,-80.283
7049,0.6968,0.2114,-0.7056,0.610,0.000,-0.122,162.916,-43.654,-80.283
7059,0.6948,0.2095,-0.7061,0.488,-0.183,0.000,162.927,-43.649,-80.283
7069,0.6958,0.2075,-0.7021,0.366,-0.244,0.000,162.938,-43.649,-80.283
7079,0.6953,0.2095,-0.6997,0.122,-0.366,0.061,162.944,-43.643,-80.283
7089,0.6934,0.2090,-0.6997,-0.122,-0.427,0.122,162.949,-43.638,-80.283
7099,0.6938,0.2129,-0.6982,-0.305,-0.305,0.122,162.949,-43.632,-80.283
7109,0.6968,0.2144,-0.6982,-0.549,-0.244,0.122,162.949,-43.632,-80.283
7119,0.6973,0.2168,-0.6982,-0.671,-0.122,0.061,162.938,-43.632,-80.283
7129,0.6978,0.2163,-0.6997,-0.732,0.000,0.000,162.933,-43.632,-80.283
7139,0.6953,0.2178,-0.7017,-0.671,0.061,-0.061,162.922,-43.632,-80.283
7149,0.6958,0.2187,-0.7026,-0.488,0.000,-0.061,162.916,-43.627,-80.283
7159,0.6934,0.2178,-0.7017,-0.305,0.000,-0.061,162.911,-43.627,-80.283
7169,0.6953,0.2178,-0.7007,-0.122,0.000,-0.061,162.905,-43.621,-80.283
7180,0.6943,0.2178,-0.7036,0.122,0.061,0.000,162.905,-43.621,-80.283
7189,0.6934,0.2153,-0.7041,0.305,0.000,0.000,162.911,-43.616,-80.283
7199,0.6924,0.2163,-0.7002,0.366,0.000,0.061,162.911,-43.616,-80.283
7209,0.6948,0.2153,-0.7002,0.305,0.061,0.122,162.916,-43.616,-80.283
7219,0.6953,0.2144,-0.6992,0.244,0.122,0.061,162.922,-43.616,-80.283
7229,0.6953,0.2134,-0.6968,0.183,0.183,0.061,162.922,-43.616,-80.283
7239,0.6943,0.2153,-0.6987,0.183,0.183,0.061,162.922,-43.621,-80.283
7249,0.6938,0.2163,-0.7007,0.244,0.244,0.122,162.927,-43.621,-80.283
7259,0.6968,0.2168,-0.6968,0.305,0.305,0.122,162.927,-43.621,-80.283
7269,0.6953,0.2153,-0.6982,0.305,0.366,0.061,162.927,-43.627,-80.283
7279,0.6958,0.2173,-0.6992,0.427,0.366,0.061,162.933,-43.632,-80.283
7289,0.6963,0.2153,-0.7002,0.488,0.427,0.000,162.933,-43.632,-80.283
7299,0.6958,0.2148,-0.7026,0.549,0.427,-0.061,162.938,-43.638,-80.283
7309,0.6968,0.2139,-0.7021,0.610,0.488,-0.061,162.944,-43.638,-80.283
7319,0.6982,0.2095,-0.7002,0.549,0.549,-0.061,162.949,-43.643,-80.283
7329,0.6982,0.2095,-0.7036,0.488,0.610,-0.122,162.955,-43.649,-80.283
7339,0.6973,0.2095,-0.7051,0.305,0.610,-0.122,162.960,-43.654,-80.283
7349,0.6963,0.2100,-0.7051,0.183,0.549,-0.122,162.966,-43.654,-80.283
7359,0.6978,0.2119,-0.7036,0.000,0.427,-0.061,162.966,-43.660,-80.283
7369,0.6973,0.2144,-0.7041,0.000,0.244,0.000,162.966,-43.660,-80.283
7379,0.6992,0.2148,-0.7007,-0.061,0.061,0.061,162.966,-43.660,-80.283
7389,0.6987,0.2139,-0.6997,-0.122,-0.061,0.122,162.966,-43.660,-80.283
7399,0.7002,0.2144,-0.6963,-0.183,-0.183,0.122,162.966,-43.660,-80.283
7409,0.6982,0.2163,-0.6973,-0.244,-0.183,0.122,162.966,-43.660,-80.283
7419,0.6973,0.2163,-0.6948,-0.244,-0.061,0.122,162.960,-43.660,-80.283
7429,0.6968,0.2173,-0.6934,-0.183,0.061,0.061,162.955,-43.665,-80.283
7439,0.6978,0.2134,-0.6973,-0.122,0.244,-0.061,162.955,-43.665,-80.283
7449,0.7007,0.2129,-0.7002,-0.061,0.366,-0.122,162.949,-43.671,-80.283
7459,0.6982,0.2148,-0.7041,-0.061,0.427,-0.122,162.949,-43.671,-80.283
7469,0.6987,0.2148,-0.7036,-0.122,0.488,-0.122,162.944,-43.676,-80.283
7479,0.6978,0.2134,-0.7026,-0.122,0.427,-0.122,162.944,-43.676,-80.283
7489,0.6968,0.2134,-0.7036,-0.061,0.244,-0.122,162.944,-43.676,-80.283
7499,0.6963,0.2148,-0.6997,-0.122,0.061,-0.061,162.944,-43.676,-80.283
7509,0.6958,0.2158,-0.7021,-0.122,-0.122,0.061,162.944,-43.676,-80.283
7519,0.6958,0.2134,-0.7012,-0.122,-0.122,0.061,162.944,-43.671,-80.283
7529,0.6968,0.2153,-0.7002,-0.122,0.061,0.122,162.944,-43.671,-80.283
7539,0.6968,0.2158,-0.7017,-0.122,0.122,0.061,162.938,-43.671,-80.283
7549,0.6987,0.2153,-0.6987,-0.122,0.244,0.000,162.938,-43.676,-80.283
7559,0.6968,0.2158,-0.6987,-0.122,0.183,0.000,162.933,-43.676,-80.283
7569,0.6987,0.2153,-0.6973,-0.061,0.122,0.000,162.933,-43.676,-80.283
7579,0.7002,0.2178,-0.6963,-0.061,0.061,0.000,162.927,-43.682,-80.283
7589,0.6987,0.2178,-0.6953,0.000,0.000,0.061,162.927,-43.682,-80.283
7599,0.7007,0.2173,-0.6958,0.122,-0.122,0.122,162.927,-43.682,-80.283
7609,0.6992,0.2163,-0.6963,0.305,-0.244,0.122,162.927,-43.682,-80.283
7619,0.7002,0.2148,-0.6973,0.366,-0.244,0.061,162.933,-43.682,-80.283
7629,0.6982,0.2144,-0.6997,0.427,-0.122,0.122,162.938,-43.682,-80.283
7639,0.6978,0.2134,-0.7012,0.549,-0.061,0.061,162.949,-43.676,-80.283
7649,0.6978,0.2134,-0.7031,0.488,0.061,0.000,162.955,-43.676,-80.283
7659,0.6987,0.2129,-0.7026,0.488,0.122,0.061,162.960,-43.676,-80.283
7669,0.6978,0.2134,-0.7070,0.488,0.122,0.122,162.966,-43.676,-80.283
7680,0.6992,0.2168,-0.7056,0.488,0.122,0.122,162.971,-43.676,-80.283
7689,0.6992,0.2124,-0.7051,0.488,-0.061,0.122,162.982,-43.676,-80.283
7699,0.6978,0.2124,-0.7036,0.488,-0.183,0.122,162.993,-43.671,-80.283
7709,0.6963,0.2104,-0.6973,0.366,-0.183,0.122,162.999,-43.671,-80.283
7719,0.6958,0.2134,-0.6943,0.122,-0.244,0.122,162.999,-43.671,-80.283
7729,0.6958,0.2139,-0.6938,0.000,-0.305,0.183,162.999,-43.671,-80.283
7739,0.6958,0.2153,-0.6909,-0.122,-0.305,0.122,162.999,-43.671,-80.283
7751,0.6978,0.2178,-0.6899,-0.061,-0.183,0.061,162.993,-43.671,-80.283
7759,0.6973,0.2192,-0.6924,-0.061,-0.061,0.000,162.988,-43.671,-80.283
7769,0.6973,0.2183,-0.6934,0.061,0.122,-0.061,162.982,-43.676,-80.283
7779,0.6997,0.2183,-0.6958,0.244,0.183,-0.061,162.982,-43.676,-80.283
7789,0.6978,0.2163,-0.6978,0.366,0.183,-0.122,162.982,-43.676,-80.283
7799,0.6992,0.2158,-0.6997,0.549,0.183,-0.122,162.982,-43.682,-80.283
7809,0.7012,0.2139,-0.7036,0.732,0.122,-0.122,162.988,-43.682,-80.283
7819,0.6992,0.2119,-0.7070,0.916,0.061,0.000,163.004,-43.676,-80.283
7829,0.6992,0.2129,-0.7051,0.977,0.000,0.000,163.015,-43.676,-80.283
7839,0.6968,0.2100,-0.7041,0.916,-0.183,0.000,163.026,-43.676,-80.283
7849,0.6978,0.2104,-0.7046,0.793,-0.366,0.000,163.037,-43.671,-80.283
7859,0.6978,0.2095,-0.7007,0.671,-0.488,0.061,163.054,-43.665,-80.283
7869,0.6958,0.2104,-0.6987,0.549,-0.488,0.061,163.059,-43.660,-80.283
7879,0.6948,0.2129,-0.6958,0.366,-0.488,0.061,163.065,-43.654,-80.283
7889,0.6953,0.2119,-0.6978,0.183,-0.366,0.061,163.070,-43.654,-80.283
7899,0.6953,0.2124,-0.6948,0.061,-0.244,0.000,163.070,-43.649,-80.283
7909,0.6978,0.2124,-0.6968,0.000,-0.122,-0.061,163.070,-43.649,-80.283
7919,0.6973,0.2139,-0.6973,-0.061,0.000,0.000,163.065,-43.649,-80.283
7929,0.6978,0.2139,-0.7017,-0.122,0.061,0.000,163.065,-43.649,-80.283
7939,0.6982,0.2144,-0.7007,-0.061,0.061,0.000,163.065,-43.654,-80.283
7949,0.6982,0.2144,-0.7026,0.000,-0.061,0.000,163.065,-43.649,-80.283
7959,0.6992,0.2163,-0.7026,0.122,-0.061,0.000,163.065,-43.649,-80.283
7969,0.6982,0.2134,-0.7021,0.183,-0.061,0.061,163.065,-43.649,-80.283
7979,0.6978,0.2144,-0.7021,0.244,-0.183,0.000,163.070,-43.643,-80.283
7989,0.6953,0.2139,-0.7012,0.244,-0.183,0.000,163.070,-43.643,-80.283
7999,0.6968,0.2134,-0.7031,0.305,-0.183,0.000,163.076,-43.638,-80.283
8009,0.6943,0.2134,-0.6992,0.366,-0.183,0.000,163.081,-43.638,-80.283
8019,0.6943,0.2124,-0.6987,0.366,-0.122,0.061,163.081,-43.632,-80.283
8029,0.6943,0.2139,-0.6992,0.366,-0.061,0.061,163.087,-43.632,-80.283
8039,0.6968,0.2144,-0.7007,0.305,0.000,0.061,163.087,-43.632,-80.283
8049,0.6982,0.2144,-0.7012,0.244,0.061,0.061,163.092,-43.632,-80.283
8059,0.6992,0.2134,-0.6982,0.244,0.122,0.122,163.092,-43.638,-80.283
8069,0.6982,0.2139,-0.6992,0.244,0.122,0.122,163.098,-43.638,-80.283
8079,0.6978,0.2144,-0.6968,0.305,0.061,0.122,163.098,-43.638,-80.283
8089,0.6982,0.2134,-0.6992,0.305,0.000,0.061,163.103,-43.643,-80.283
8099,0.6978,0.2129,-0.6968,0.244,-0.061,0.122,163.103,-43.643,-80.283
8109,0.6968,0.2139,-0.6963,0.183,-0.061,0.122,163.103,-43.643,-80.283
8119,0.6978,0.2109,-0.6978,0.244,-0.061,0.061,163.109,-43.643,-80.283
8129,0.6968,0.2129,-0.6982,0.244,-0.061,0.061,163.109,-43.643,-80.283
8139,0.6958,0.2134,-0.6987,0.244,-0.122,0.061,163.114,-43.643,-80.283
8149,0.6978,0.2153,-0.6982,0.244,-0.061,0.061,163.114,-43.643,-80.283
8159,0.6978,0.2134,-0.7002,0.305,-0.061,0.061,163.120,-43.643,-80.283
8169,0.6963,0.2139,-0.6992,0.305,0.000,0.061,163.120,-43.643,-80.283
8180,0.6963,0.2129,-0.6992,0.305,-0.061,0.122,163.125,-43.643,-80.283
8189,0.6958,0.2144,-0.7002,0.305,-0.122,0.122,163.125,-43.638,-80.283
8199,0.6973,0.2139,-0.7026,0.244,-0.183,0.122,163.130,-43.638,-80.283
8209,0.6978,0.2144,-0.7026,0.305,-0.244,0.183,163.136,-43.632,-80.283
8219,0.6973,0.2153,-0.7002,0.366,-0.244,0.183,163.136,-43.632,-80.283
8229,0.6978,0.2144,-0.6997,0.427,-0.244,0.122,163.141,-43.632,-80.283
8239,0.6978,0.2134,-0.6987,0.488,-0.244,0.061,163.147,-43.627,-80.283
8249,0.6978,0.2129,-0.7002,0.488,-0.183,0.000,163.152,-43.627,-80.283
8259,0.6968,0.2124,-0.7017,0.549,-0.183,0.000,163.158,-43.627,-80.283
8269,0.6968,0.2124,-0.7017,0.549,-0.122,0.000,163.163,-43.621,-80.283
8279,0.6968,0.2144,-0.6992,0.549,-0.122,-0.061,163.163,-43.621,-80.283
8289,0.6948,0.2134,-0.6963,0.549,-0.061,-0.061,163.169,-43.621,-80.283
8299,0.6943,0.2109,-0.6992,0.488,-0.061,0.000,163.174,-43.621,-80.283
8309,0.6987,0.2100,-0.7036,0.488,0.000,0.000,163.180,-43.621,-80.283
8319,0.6997,0.2104,-0.7056,0.488,0.122,-0.061,163.185,-43.621,-80.283
8329,0.6982,0.2100,-0.7031,0.366,0.244,-0.122,163.191,-43.621,-80.283
8339,0.6973,0.2085,-0.7036,0.183,0.305,-0.122,163.196,-43.621,-80.283
8349,0.6997,0.2109,-0.7021,0.061,0.122,-0.122,163.196,-43.627,-80.283
8359,0.6987,0.2114,-0.7012,0.000,-0.122,-0.061,163.196,-43.621,-80.283
8369,0.6982,0.2124,-0.7007,-0.061,-0.366,0.000,163.196,-43.621,-80.283
8379,0.6968,0.2134,-0.6953,-0.061,-0.549,0.000,163.191,-43.616,-80.283
8389,0.6968,0.2144,-0.6929,-0.122,-0.610,0.061,163.191,-43.616,-80.283
8399,0.6968,0.2148,-0.6943,-0.061,-0.549,0.000,163.185,-43.610,-80.283
8409,0.6958,0.2158,-0.6953,0.000,-0.427,-0.061,163.180,-43.605,-80.283
8419,0.6958,0.2144,-0.6978,0.183,-0.244,-0.122,163.180,-43.605,-80.283
8429,0.6958,0.2148,-0.7041,0.366,-0.061,-0.122,163.180,-43.599,-80.283
8439,0.6968,0.2124,-0.7061,0.488,0.122,-0.183,163.185,-43.599,-80.283
8449,0.6958,0.2124,-0.7051,0.549,0.244,-0.122,163.191,-43.599,-80.283
8459,0.6978,0.2109,-0.7080,0.549,0.305,-0.183,163.196,-43.599,-80.283
8469,0.6953,0.2100,-0.7031,0.549,0.183,-0.122,163.202,-43.599,-80.283
8479,0.6943,0.2095,-0.7041,0.549,0.000,-0.061,163.207,-43.599,-80.283
8489,0.6938,0.2104,-0.7007,0.427,-0.122,-0.061,163.213,-43.594,-80.283
8499,0.6953,0.2114,-0.6978,0.366,-0.183,0.000,163.218,-43.594,-80.283
8509,0.6953,0.2119,-0.6958,0.305,-0.244,0.000,163.218,-43.594,-80.283
8519,0.6948,0.2124,-0.6953,0.183,-0.183,-0.061,163.218,-43.594,-80.283
8529,0.6948,0.2129,-0.6943,0.061,-0.122,-0.061,163.218,-43.594,-80.283
8539,0.6978,0.2139,-0.6953,0.061,0.000,-0.122,163.213,-43.594,-80.283
8549,0.6978,0.2139,-0.6968,0.061,0.061,-0.122,163.207,-43.594,-80.283
8559,0.6978,0.2139,-0.6997,0.183,0.122,-0.122,163.207,-43.599,-80.283
8569,0.6997,0.2139,-0.6997,0.305,0.061,-0.122,163.207,-43.599,-80.283
8579,0.6992,0.2134,-0.7036,0.488,-0.061,-0.122,163.207,-43.599,-80.283
8589,0.6982,0.2134,-0.7041,0.610,-0.244,0.000,163.218,-43.594,-80.283
8599,0.6987,0.2124,-0.7056,0.732,-0.305,0.000,163.224,-43.588,-80.283
8609,0.6978,0.2095,-0.7036,0.671,-0.183,0.000,163.235,-43.588,-80.283
8619,0.6982,0.2085,-0.7031,0.549,-0.122,0.000,163.240,-43.588,-80.283
8629,0.6973,0.2080,-0.7036,0.427,-0.122,0.000,163.251,-43.588,-80.283
8639,0.6963,0.2070,-0.7036,0.305,-0.244,0.061,163.257,-43.583,-80.283
8649,0.6968,0.2095,-0.7002,0.183,-0.305,0.122,163.262,-43.583,-80.283
8659,0.6948,0.2109,-0.6978,0.183,-0.305,0.061,163.262,-43.577,-80.283
8669,0.6948,0.2119,-0.6978,0.061,-0.366,0.122,163.262,-43.577,-80.283
8680,0.6968,0.2129,-0.6938,0.000,-0.305,0.122,163.262,-43.577,-80.283
8689,0.6958,0.2158,-0.6948,-0.061,-0.244,0.122,163.257,-43.577,-80.283
8699,0.6948,0.2148,-0.6973,0.000,-0.183,0.122,163.257,-43.577,-80.283
8709,0.6963,0.2139,-0.6987,0.122,-0.061,0.061,163.257,-43.577,-80.283
8719,0.6958,0.2134,-0.6973,0.183,0.000,0.000,163.257,-43.577,-80.283
8729,0.6978,0.2119,-0.6997,0.183,0.061,0.000,163.257,-43.577,-80.283
8739,0.7002,0.2124,-0.7026,0.122,0.000,0.000,163.257,-43.577,-80.283
8749,0.6982,0.2109,-0.7031,0.122,0.000,0.000,163.257,-43.577,-80.283
8759,0.6978,0.2090,-0.7046,0.183,-0.061,-0.061,163.262,-43.577,-80.283
8769,0.6997,0.2104,-0.7041,0.244,-0.183,-0.122,163.262,-43.577,-80.283
8779,0.6973,0.2119,-0.7036,0.244,-0.244,-0.122,163.268,-43.572,-80.283
8789,0.6963,0.2124,-0.7017,0.183,-0.366,-0.061,163.268,-43.566,-80.283
8799,0.6958,0.2109,-0.6992,0.183,-0.427,-0.061,163.268,-43.566,-80.283
8809,0.6934,0.2114,-0.6987,0.122,-0.427,0.000,163.268,-43.561,-80.283
8819,0.6943,0.2119,-0.6992,0.122,-0.366,-0.061,163.268,-43.555,-80.283
8829,0.6953,0.2109,-0.7007,0.122,-0.244,-0.122,163.273,-43.555,-80.283
8839,0.6953,0.2119,-0.6997,0.122,-0.183,-0.061,163.273,-43.550,-80.283
8849,0.6978,0.2119,-0.7007,0.122,0.000,-0.061,163.273,-43.555,-80.283
8859,0.6963,0.2104,-0.7002,0.183,0.061,-0.122,163.273,-43.555,-80.283
8869,0.6973,0.2114,-0.7051,0.122,0.000,-0.061,163.273,-43.550,-80.283
8879,0.6948,0.2119,-0.7026,0.122,-0.061,0.000,163.273,-43.550,-80.283
8889,0.6958,0.2114,-0.7036,0.122,-0.183,0.061,163.273,-43.550,-80.283
8899,0.6968,0.2124,-0.7021,0.122,-0.244,0.000,163.273,-43.544,-80.283
8909,0.6953,0.2109,-0.7012,0.122,-0.305,0.000,163.279,-43.544,-80.283
8919,0.6943,0.2109,-0.7017,0.122,-0.305,0.000,163.279,-43.539,-80.283
8929,0.6943,0.2119,-0.6997,0.122,-0.305,0.000,163.279,-43.539,-80.283
8939,0.6943,0.2134,-0.6982,0.122,-0.244,0.061,163.279,-43.533,-80.283
8949,0.6938,0.2139,-0.6992,0.061,-0.183,0.061,163.279,-43.533,-80.283
8959,0.6958,0.2144,-0.7017,0.122,-0.061,0.061,163.279,-43.533,-80.283
8969,0.6948,0.2148,-0.7002,0.183,-0.061,0.000,163.279,-43.533,-80.283
8979,0.6968,0.2139,-0.7007,0.244,-0.061,0.000,163.279,-43.533,-80.283
8989,0.6973,0.2124,-0.6997,0.244,0.000,0.000,163.279,-43.533,-80.283
8999,0.6973,0.2104,-0.7002,0.244,-0.061,0.000,163.279,-43.533,-80.283
9009,0.6953,0.2114,-0.6987,0.305,-0.122,0.000,163.284,-43.533,-80.283
9019,0.6968,0.2104,-0.6997,0.244,-0.183,0.000,163.284,-43.533,-80.283
9029,0.6987,0.2104,-0.6992,0.244,-0.244,0.000,163.290,-43.533,-80.283
9039,0.6973,0.2114,-0.7021,0.305,-0.244,-0.061,163.290,-43.528,-80.283
9049,0.6978,0.2114,-0.7017,0.244,-0.183,-0.061,163.290,-43.528,-80.283
9059,0.6934,0.2129,-0.7012,0.244,-0.183,-0.061,163.290,-43.528,-80.283
9069,0.6934,0.2148,-0.7002,0.244,-0.183,-0.061,163.290,-43.522,-80.283
9079,0.6934,0.2124,-0.7021,0.366,-0.122,-0.061,163.295,-43.522,-80.283
9089,0.6934,0.2139,-0.7007,0.427,-0.122,-0.061,163.295,-43.517,-80.283
9099,0.6943,0.2114,-0.7017,0.488,-0.122,0.000,163.301,-43.517,-80.283
9109,0.6938,0.2124,-0.7021,0.549,-0.122,0.061,163.306,-43.517,-80.283
9119,0.6958,0.2124,-0.7021,0.610,-0.061,0.061,163.312,-43.511,-80.283
9129,0.6978,0.2124,-0.7046,0.671,0.061,0.061,163.317,-43.517,-80.283
9139,0.6968,0.2134,-0.7026,0.671,0.061,0.061,163.323,-43.517,-80.283
9149,0.6963,0.2090,-0.7026,0.732,0.000,0.061,163.328,-43.517,-80.283
9159,0.6973,0.2109,-0.7017,0.793,-0.183,0.061,163.339,-43.517,-80.283
9169,0.7007,0.2100,-0.7017,0.610,-0.244,0.122,163.345,-43.517,-80.283
9180,0.6958,0.2090,-0.6992,0.488,-0.366,0.183,163.356,-43.511,-80.283
9189,0.6953,0.2085,-0.6992,0.122,-0.183,0.122,163.356,-43.511,-80.283
9199,0.6953,0.2075,-0.7017,0.000,-0.183,0.122,163.361,-43.511,-80.283
9209,0.6948,0.2095,-0.6997,0.000,-0.183,0.122,163.361,-43.511,-80.283
9219,0.6948,0.2095,-0.7036,-0.061,-0.061,0.122,163.361,-43.511,-80.283
9229,0.6943,0.2114,-0.7065,0.061,0.000,0.183,163.367,-43.506,-80.283
9239,0.6938,0.2139,-0.7065,0.183,0.000,0.183,163.367,-43.506,-80.283
9249,0.6934,0.2134,-0.7070,0.305,0.000,0.183,163.367,-43.506,-80.283
9259,0.6958,0.2124,-0.7056,0.488,0.061,0.183,163.372,-43.506,-80.283
9269,0.6958,0.2119,-0.7056,0.671,0.122,0.122,163.378,-43.506,-80.283
9279,0.6953,0.2095,-0.7056,0.732,0.183,0.122,163.389,-43.506,-80.283
9289,0.6963,0.2070,-0.7061,0.671,0.244,0.122,163.400,-43.506,-80.283
9299,0.6948,0.2080,-0.7012,0.427,0.183,0.122,163.405,-43.511,-80.283
9309,0.6953,0.2070,-0.6978,0.244,0.183,0.122,163.411,-43.511,-80.283
9319,0.6958,0.2090,-0.6968,0.061,0.122,0.122,163.411,-43.517,-80.283
9329,0.6968,0.2100,-0.6958,-0.061,0.122,0.122,163.405,-43.522,-80.283
9339,0.6982,0.2085,-0.6968,-0.122,0.061,0.061,163.405,-43.522,-80.283
9349,0.6978,0.2095,-0.6958,-0.183,0.061,0.061,163.400,-43.528,-80.283
9359,0.6987,0.2085,-0.7002,-0.183,0.061,0.000,163.400,-43.533,-80.283
9369,0.6978,0.2109,-0.7021,-0.244,0.061,-0.122,163.394,-43.533,-80.283
9379,0.6987,0.2104,-0.7007,-0.183,-0.061,-0.122,163.389,-43.533,-80.283
9389,0.6968,0.2095,-0.7046,-0.122,-0.122,-0.122,163.389,-43.533,-80.283
9399,0.6973,0.2104,-0.7046,0.000,-0.183,-0.183,163.389,-43.528,-80.283
9409,0.6968,0.2075,-0.7061,0.061,-0.183,-0.183,163.389,-43.528,-80.283
9419,0.6963,0.2095,-0.7046,0.122,-0.061,-0.244,163.389,-43.522,-80.283
9429,0.6943,0.2090,-0.7080,0.122,-0.061,-0.183,163.389,-43.517,-80.283
9439,0.6968,0.2114,-0.7061,0.122,-0.061,-0.183,163.389,-43.517,-80.283
9449,0.6943,0.2095,-0.7031,0.122,-0.061,-0.183,163.389,-43.517,-80.283
9459,0.6934,0.2104,-0.7026,0.122,-0.183,-0.122,163.389,-43.511,-80.283
9469,0.6943,0.2109,-0.7046,0.061,-0.244,-0.061,163.389,-43.506,-80.283
9479,0.6948,0.2134,-0.7007,0.122,-0.244,0.000,163.389,-43.506,-80.283
9489,0.6934,0.2134,-0.6992,0.183,-0.183,0.061,163.389,-43.506,-80.283
9499,0.6924,0.2109,-0.7012,0.244,-0.183,0.061,163.389,-43.500,-80.283
9509,0.6943,0.2104,-0.7002,0.305,-0.122,0.061,163.394,-43.500,-80.283
9519,0.6953,0.2119,-0.7026,0.366,-0.061,0.000,163.394,-43.500,-80.283
9529,0.6953,0.2114,-0.7012,0.427,0.000,0.000,163.400,-43.500,-80.283
9539,0.6953,0.2124,-0.6997,0.549,-0.061,0.000,163.400,-43.500,-80.283
9549,0.6938,0.2114,-0.7017,0.671,-0.122,0.000,163.405,-43.500,-80.283
9559,0.6968,0.2065,-0.7026,0.732,-0.122,0.000,163.416,-43.500,-80.283
9569,0.6953,0.2080,-0.7031,0.732,-0.122,0.061,163.422,-43.495,-80.283
9579,0.6953,0.2065,-0.7041,0.732,-0.061,0.000,163.433,-43.495,-80.283
9589,0.6948,0.2090,-0.7061,0.671,-0.122,0.000,163.444,-43.495,-80.283
9599,0.6958,0.2065,-0.7041,0.610,-0.122,0.000,163.449,-43.495,-80.283
9609,0.6929,0.2061,-0.7036,0.610,-0.122,0.000,163.460,-43.489,-80.283
9619,0.6929,0.2046,-0.7056,0.488,0.000,-0.061,163.466,-43.489,-80.283
9629,0.6943,0.2065,-0.7026,0.366,0.000,0.000,163.471,-43.489,-80.283
9639,0.6938,0.2070,-0.7031,0.183,0.000,0.000,163.477,-43.489,-80.283
9649,0.6934,0.2070,-0.7017,0.122,0.000,-0.061,163.477,-43.489,-80.283
9659,0.6929,0.2070,-0.7007,0.061,0.000,0.061,163.477,-43.489,-80.283
9669,0.6958,0.2090,-0.7021,0.000,0.000,0.122,163.477,-43.489,-80.283
9680,0.6948,0.2090,-0.7036,0.000,0.061,0.061,163.477,-43.489,-80.283
9689,0.6958,0.2090,-0.7031,-0.061,0.000,0.000,163.477,-43.489,-80.283
9699,0.6934,0.2065,-0.7031,-0.061,0.061,0.000,163.477,-43.489,-80.283
9709,0.6953,0.2070,-0.7012,-0.122,0.122,-0.061,163.477,-43.489,-80.283
9719,0.6958,0.2056,-0.7026,-0.183,0.305,-0.061,163.477,-43.495,-80.283
9729,0.6963,0.2061,-0.7046,-0.366,0.488,-0.061,163.471,-43.500,-80.283
9739,0.6948,0.2036,-0.7061,-0.549,0.488,-0.122,163.471,-43.500,-80.283
9752,0.6958,0.2056,-0.7051,-0.610,0.366,-0.061,163.466,-43.506,-80.283
9759,0.6953,0.2075,-0.7041,-0.610,0.305,0.000,163.460,-43.506,-80.283
9769,0.6958,0.2104,-0.7007,-0.610,0.183,0.061,163.449,-43.511,-80.283
9779,0.6948,0.2075,-0.7026,-0.549,0.122,0.000,163.444,-43.511,-80.283
9789,0.6924,0.2109,-0.7026,-0.549,0.122,0.122,163.438,-43.511,-80.283
9799,0.6914,0.2139,-0.7007,-0.488,0.183,0.122,163.433,-43.511,-80.283
9809,0.6919,0.2134,-0.7017,-0.366,0.244,0.000,163.422,-43.511,-80.283
9819,0.6929,0.2114,-0.7046,-0.183,0.366,0.061,163.422,-43.511,-80.283
9829,0.6953,0.2085,-0.6997,-0.122,0.427,0.061,163.416,-43.517,-80.283
9839,0.6958,0.2114,-0.7002,0.000,0.427,0.000,163.416,-43.522,-80.283
9849,0.6973,0.2090,-0.7007,0.122,0.427,0.061,163.416,-43.528,-80.283
9859,0.6958,0.2075,-0.7012,0.183,0.427,0.061,163.416,-43.533,-80.283
9869,0.6973,0.2065,-0.7002,0.122,0.427,0.061,163.422,-43.539,-80.283
9879,0.6982,0.2061,-0.7017,0.061,0.427,0.061,163.422,-43.544,-80.283
9889,0.6978,0.2051,-0.7041,-0.061,0.427,0.000,163.422,-43.550,-80.283
9899,0.6948,0.2046,-0.7046,-0.244,0.366,0.061,163.422,-43.550,-80.283
9909,0.6943,0.2075,-0.7061,-0.366,0.305,-0.061,163.422,-43.555,-80.283
9919,0.6934,0.2065,-0.7046,-0.488,0.305,-0.061,163.416,-43.555,-80.283
9929,0.6948,0.2085,-0.7065,-0.610,0.305,0.000,163.411,-43.555,-80.283
9939,0.6934,0.2090,-0.7061,-0.610,0.366,0.061,163.405,-43.555,-80.283
9949,0.6968,0.2104,-0.7061,-0.610,0.427,0.061,163.400,-43.561,-80.283
9959,0.6978,0.2109,-0.7046,-0.610,0.610,0.061,163.394,-43.566,-80.283
9969,0.6978,0.2109,-0.7041,-0.549,0.610,0.000,163.383,-43.572,-80.283
9979,0.6978,0.2109,-0.6997,-0.427,0.488,0.000,163.378,-43.577,-80.283
9989,0.6973,0.2104,-0.6982,-0.427,0.305,0.000,163.372,-43.577,-80.283
9999,0.6973,0.2080,-0.6978,-0.488,0.183,0.000,163.367,-43.583,-80.283
10009,0.6943,0.2100,-0.6982,-0.549,0.122,0.061,163.361,-43.583,-80.283
10019,0.6963,0.2080,-0.6958,-0.671,0.183,0.061,163.350,-43.588,-80.283
10029,0.6948,0.2075,-0.6963,-0.732,0.244,0.122,163.345,-43.594,-80.283
10039,0.6948,0.2109,-0.6987,-0.732,0.366,0.061,163.339,-43.599,-80.283
10049,0.6958,0.2109,-0.7007,-0.671,0.366,0.061,163.328,-43.599,-80.283
10059,0.6987,0.2109,-0.7041,-0.549,0.427,0.061,163.323,-43.605,-80.283
10069,0.6973,0.2114,-0.7065,-0.427,0.488,0.061,163.317,-43.605,-80.283
10079,0.6992,0.2095,-0.7090,-0.305,0.488,0.061,163.317,-43.610,-80.283
10089,0.6968,0.2104,-0.7090,-0.122,0.610,0.000,163.317,-43.610,-80.283
10099,0.6987,0.2095,-0.7075,0.061,0.549,0.000,163.317,-43.616,-80.283
10109,0.6982,0.2104,-0.7041,0.122,0.488,0.000,163.317,-43.621,-80.283
10119,0.6968,0.2104,-0.7031,0.244,0.366,0.000,163.317,-43.621,-80.283
10129,0.6943,0.2085,-0.6978,0.183,0.305,0.000,163.317,-43.627,-80.283
10139,0.6958,0.2070,-0.6963,0.122,0.244,0.061,163.323,-43.632,-80.283
10149,0.6973,0.2095,-0.6953,-0.122,0.244,0.061,163.317,-43.632,-80.283
10159,0.6973,0.2075,-0.6914,-0.244,0.244,0.000,163.317,-43.643,-80.283
10169,0.6987,0.2080,-0.6914,-0.305,0.244,-0.061,163.312,-43.649,-80.283
10180,0.6992,0.2100,-0.6953,-0.427,0.305,-0.122,163.306,-43.654,-80.283
10189,0.6987,0.2109,-0.6973,-0.488,0.305,-0.183,163.295,-43.654,-80.283
10199,0.7002,0.2095,-0.6992,-0.488,0.244,-0.122,163.290,-43.660,-80.283
10209,0.7002,0.2114,-0.7012,-0.488,0.183,-0.183,163.279,-43.660,-80.283
10219,0.6992,0.2114,-0.7026,-0.427,0.061,-0.183,163.273,-43.660,-80.283
10229,0.6973,0.2100,-0.7051,-0.366,-0.061,-0.183,163.273,-43.660,-80.283
10239,0.6963,0.2080,-0.7056,-0.244,-0.061,-0.244,163.268,-43.654,-80.283
10249,0.6968,0.2070,-0.7070,-0.305,-0.061,-0.183,163.268,-43.654,-80.283
10259,0.6963,0.2061,-0.7070,-0.366,0.000,-0.183,163.268,-43.649,-80.283
10269,0.6948,0.2070,-0.7065,-0.366,0.061,-0.183,163.268,-43.643,-80.283
10279,0.6958,0.2095,-0.7056,-0.488,0.061,-0.183,163.262,-43.643,-80.283
10289,0.6934,0.2109,-0.7002,-0.549,0.061,-0.122,163.257,-43.643,-80.283
10299,0.6929,0.2139,-0.6982,-0.610,0.122,-0.061,163.246,-43.643,-80.283
10309,0.6938,0.2144,-0.6987,-0.610,0.122,0.061,163.235,-43.643,-80.283
10319,0.6924,0.2158,-0.6982,-0.549,0.183,0.061,163.229,-43.643,-80.283
10329,0.6958,0.2158,-0.6968,-0.427,0.244,0.122,163.218,-43.643,-80.283
10339,0.6948,0.2129,-0.6963,-0.305,0.305,0.061,163.213,-43.649,-80.283
10349,0.6968,0.2119,-0.6992,-0.244,0.305,0.061,163.207,-43.649,-80.283
10359,0.6978,0.2104,-0.7007,-0.183,0.366,0.122,163.207,-43.654,-80.283
10369,0.6982,0.2070,-0.7046,-0.183,0.366,0.061,163.213,-43.660,-80.283
10379,0.6963,0.2085,-0.7017,-0.183,0.366,0.000,163.213,-43.660,-80.283
10389,0.6973,0.2070,-0.7051,-0.122,0.305,0.000,163.213,-43.660,-80.283
10399,0.6968,0.2075,-0.7056,-0.061,0.244,0.000,163.213,-43.660,-80.283
10409,0.6953,0.2070,-0.7046,-0.122,0.244,0.000,163.218,-43.660,-80.283
10419,0.6978,0.2075,-0.7046,-0.183,0.183,0.000,163.218,-43.665,-80.283
10429,0.6973,0.2080,-0.7031,-0.244,0.244,0.000,163.218,-43.665,-80.283
10439,0.6958,0.2090,-0.6987,-0.244,0.244,0.061,163.218,-43.665,-80.283
10449,0.6948,0.2104,-0.6997,-0.305,0.244,0.061,163.213,-43.671,-80.283
10459,0.6963,0.2119,-0.7002,-0.366,0.305,0.061,163.213,-43.671,-80.283
10469,0.6963,0.2124,-0.6982,-0.366,0.366,0.000,163.202,-43.676,-80.283
10479,0.6963,0.2124,-0.6978,-0.366,0.305,0.000,163.196,-43.676,-80.283
10489,0.6982,0.2129,-0.6978,-0.366,0.305,0.061,163.191,-43.682,-80.283
10499,0.6953,0.2129,-0.6987,-0.366,0.366,0.000,163.185,-43.682,-80.283
10509,0.6968,0.2124,-0.7002,-0.305,0.305,0.061,163.185,-43.687,-80.283
10519,0.6978,0.2119,-0.7012,-0.183,0.244,0.061,163.180,-43.687,-80.283
10529,0.6968,0.2100,-0.6992,-0.183,0.183,0.061,163.180,-43.687,-80.283
10539,0.6963,0.2114,-0.6992,-0.122,0.183,0.000,163.180,-43.693,-80.283
10549,0.6978,0.2109,-0.7012,-0.122,0.183,0.061,163.180,-43.693,-80.283
10559,0.6973,0.2090,-0.7036,-0.183,0.244,0.000,163.180,-43.693,-80.283
10569,0.6973,0.2100,-0.7017,-0.122,0.244,0.000,163.180,-43.693,-80.283
10579,0.6963,0.2114,-0.7051,-0.183,0.244,0.000,163.174,-43.693,-80.283
10589,0.6978,0.2100,-0.7031,-0.244,0.183,0.000,163.174,-43.693,-80.283
10599,0.6963,0.2104,-0.7021,-0.244,0.183,0.000,163.174,-43.693,-80.283
10609,0.7002,0.2109,-0.7012,-0.183,0.122,0.061,163.174,-43.698,-80.283
10619,0.6982,0.2095,-0.7002,-0.122,0.183,0.061,163.174,-43.698,-80.283
10629,0.6978,0.2104,-0.6982,-0.183,0.122,0.061,163.174,-43.698,-80.283
10639,0.6987,0.2100,-0.7002,-0.244,0.122,0.122,163.174,-43.704,-80.283
10649,0.6997,0.2100,-0.6997,-0.244,0.122,0.122,163.174,-43.704,-80.283
10659,0.6978,0.2104,-0.7002,-0.183,0.061,0.061,163.174,-43.704,-80.283
10669,0.6987,0.2104,-0.6963,-0.122,0.000,0.000,163.169,-43.704,-80.283
10680,0.6982,0.2104,-0.6997,-0.122,0.000,-0.061,163.169,-43.704,-80.283
10689,0.6953,0.2119,-0.7002,-0.122,0.061,0.000,163.169,-43.704,-80.283
10699,0.6958,0.2119,-0.7012,-0.061,0.122,0.000,163.169,-43.704,-80.283
10709,0.6938,0.2139,-0.6997,0.000,0.122,-0.061,163.163,-43.704,-80.283
10719,0.6982,0.2114,-0.6997,0.061,0.122,-0.061,163.163,-43.704,-80.283
10729,0.6963,0.2095,-0.7017,0.122,0.122,-0.061,163.169,-43.704,-80.283
10739,0.6978,0.2085,-0.7002,0.061,0.122,0.000,163.169,-43.704,-80.283
10749,0.6992,0.2100,-0.7031,0.061,0.244,0.000,163.174,-43.709,-80.283
10759,0.6997,0.2095,-0.7036,-0.061,0.366,-0.061,163.174,-43.709,-80.283
10769,0.7002,0.2090,-0.7017,-0.061,0.244,0.000,163.174,-43.709,-80.283
10779,0.6987,0.2104,-0.6997,-0.061,0.061,0.000,163.174,-43.715,-80.283
10789,0.6978,0.2109,-0.6982,-0.061,-0.122,0.000,163.174,-43.709,-80.283
10799,0.6973,0.2109,-0.6953,-0.183,-0.244,0.061,163.174,-43.709,-80.283
10809,0.6968,0.2119,-0.6943,-0.244,-0.244,0.122,163.169,-43.709,-80.283
10819,0.6938,0.2139,-0.6963,-0.305,-0.305,0.122,163.169,-43.704,-80.283
10829,0.6963,0.2119,-0.6982,-0.183,-0.244,0.061,163.163,-43.704,-80.283
10839,0.6978,0.2129,-0.7017,-0.061,-0.061,0.000,163.163,-43.704,-80.283
10849,0.6978,0.2114,-0.7075,0.000,0.000,0.061,163.169,-43.698,-80.283
10859,0.6968,0.2090,-0.7095,0.183,0.122,0.000,163.174,-43.698,-80.283
10869,0.6982,0.2085,-0.7100,0.305,0.061,0.000,163.180,-43.693,-80.283
10879,0.6978,0.2095,-0.7090,0.427,0.000,0.061,163.191,-43.693,-80.283
10889,0.6987,0.2109,-0.7080,0.488,0.000,0.061,163.196,-43.687,-80.283
10899,0.6968,0.2104,-0.7036,0.549,0.000,0.122,163.202,-43.687,-80.283
10909,0.6953,0.2100,-0.6992,0.549,-0.122,0.122,163.213,-43.687,-80.283
10919,0.6934,0.2100,-0.6968,0.549,-0.122,0.122,163.218,-43.682,-80.283
10929,0.6958,0.2100,-0.6958,0.549,-0.122,0.122,163.224,-43.682,-80.283
10939,0.6958,0.2109,-0.6934,0.549,-0.061,0.061,163.229,-43.687,-80.283
10949,0.6978,0.2075,-0.6919,0.488,0.000,0.122,163.235,-43.687,-80.283
10959,0.6982,0.2109,-0.6934,0.549,0.061,0.061,163.240,-43.693,-80.283
10969,0.6987,0.2100,-0.6968,0.427,0.122,-0.061,163.246,-43.693,-80.283
10979,0.6997,0.2090,-0.6982,0.305,0.122,0.000,163.246,-43.698,-80.283
10989,0.6978,0.2104,-0.7007,0.244,0.122,0.000,163.251,-43.698,-80.283
10999,0.6992,0.2085,-0.7036,0.183,0.000,-0.061,163.251,-43.698,-80.283
11009,0.7007,0.2070,-0.7031,0.122,-0.122,-0.061,163.257,-43.698,-80.283
11019,0.6978,0.2065,-0.7065,0.122,-0.183,-0.061,163.262,-43.693,-80.283
11029,0.6982,0.2046,-0.7095,0.122,-0.183,-0.061,163.273,-43.687,-80.283
11039,0.6978,0.2056,-0.7080,-0.061,-0.122,-0.061,163.273,-43.682,-80.283
11049,0.6963,0.2065,-0.7080,-0.244,-0.122,-0.061,163.279,-43.676,-80.283
11059,0.6943,0.2070,-0.7031,-0.305,-0.122,-0.061,163.279,-43.676,-80.283
11069,0.6938,0.2065,-0.7026,-0.366,-0.183,-0.061,163.279,-43.671,-80.283
11079,0.6943,0.2104,-0.7017,-0.427,-0.183,0.000,163.273,-43.665,-80.283
11089,0.6934,0.2119,-0.6973,-0.427,-0.183,0.061,163.268,-43.665,-80.283
11099,0.6924,0.2134,-0.6982,-0.366,-0.061,0.061,163.262,-43.660,-80.283
11109,0.6924,0.2153,-0.6973,-0.427,0.000,0.000,163.257,-43.660,-80.283
11119,0.6924,0.2148,-0.6934,-0.366,0.122,0.000,163.246,-43.660,-80.283
11129,0.6948,0.2124,-0.7002,-0.244,0.183,0.061,163.240,-43.660,-80.283
11139,0.6968,0.2124,-0.6987,-0.122,0.244,0.000,163.240,-43.665,-80.283
11149,0.6973,0.2090,-0.7012,-0.061,0.244,0.000,163.240,-43.665,-80.283
11159,0.6978,0.2065,-0.7041,0.000,0.244,0.000,163.240,-43.671,-80.283
11169,0.7007,0.2061,-0.7051,-0.061,0.183,0.061,163.246,-43.671,-80.283
11180,0.7002,0.2061,-0.7046,-0.061,0.122,0.061,163.251,-43.671,-80.283
11189,0.6968,0.2070,-0.7046,-0.122,0.061,0.000,163.251,-43.671,-80.283
11199,0.6978,0.2056,-0.7041,-0.122,0.061,0.000,163.257,-43.671,-80.283
11209,0.6968,0.2056,-0.7046,-0.061,0.000,0.000,163.262,-43.671,-80.283
11219,0.6963,0.2075,-0.7007,-0.122,0.000,-0.061,163.262,-43.665,-80.283
11229,0.6978,0.2070,-0.6973,-0.183,0.061,0.000,163.262,-43.671,-80.283
11239,0.6958,0.2100,-0.6953,-0.244,0.122,0.000,163.257,-43.671,-80.283
11249,0.6963,0.2095,-0.6982,-0.305,0.122,0.000,163.257,-43.671,-80.283
11259,0.6978,0.2104,-0.6968,-0.305,0.122,-0.061,163.251,-43.676,-80.283
11269,0.6987,0.2134,-0.6973,-0.305,0.122,-0.061,163.246,-43.676,-80.283
11279,0.7007,0.2119,-0.6978,-0.244,0.183,-0.061,163.240,-43.682,-80.283
11289,0.6997,0.2114,-0.7007,-0.183,0.183,-0.061,163.235,-43.682,-80.283
11299,0.6982,0.2119,-0.7017,-0.122,0.183,-0.061,163.235,-43.682,-80.283
11309,0.6948,0.2100,-0.7036,-0.061,0.122,0.000,163.235,-43.682,-80.283
11319,0.6973,0.2090,-0.7031,0.000,0.061,0.000,163.235,-43.682,-80.283
11329,0.6958,0.2090,-0.7031,0.061,0.061,-0.061,163.240,-43.682,-80.283
11339,0.6963,0.2061,-0.7026,0.122,0.000,-0.061,163.240,-43.682,-80.283
11349,0.6958,0.2061,-0.7026,0.000,0.061,-0.061,163.246,-43.676,-80.283
11359,0.6968,0.2065,-0.7046,-0.122,0.061,0.000,163.251,-43.676,-80.283
11369,0.6968,0.2070,-0.7041,-0.244,0.061,-0.061,163.251,-43.676,-80.283
11379,0.6987,0.2090,-0.7021,-0.305,0.061,-0.061,163.246,-43.676,-80.283
11389,0.6978,0.2095,-0.6997,-0.366,0.122,-0.061,163.246,-43.676,-80.283
11399,0.6958,0.2100,-0.7002,-0.427,0.061,-0.061,163.240,-43.676,-80.283
11409,0.6963,0.2109,-0.7012,-0.366,0.061,-0.061,163.235,-43.676,-80.283
11419,0.6968,0.2109,-0.7036,-0.305,0.061,-0.061,163.229,-43.676,-80.283
11429,0.6968,0.2129,-0.7007,-0.244,0.061,-0.061,163.229,-43.676,-80.283
11439,0.6978,0.2119,-0.7017,-0.183,0.061,0.000,163.224,-43.676,-80.283
11449,0.6958,0.2109,-0.6997,-0.122,0.061,0.000,163.224,-43.676,-80.283
11459,0.6973,0.2100,-0.7007,0.000,0.061,0.000,163.224,-43.676,-80.283
11469,0.6973,0.2100,-0.7021,0.000,0.061,0.000,163.224,-43.676,-80.283
11479,0.6968,0.2100,-0.7017,0.000,0.061,-0.061,163.224,-43.676,-80.283
11489,0.6968,0.2104,-0.7041,0.061,0.000,-0.061,163.229,-43.671,-80.283
11499,0.6958,0.2095,-0.7065,0.122,0.000,-0.061,163.229,-43.671,-80.283
11509,0.6963,0.2080,-0.7021,0.122,-0.061,-0.122,163.235,-43.665,-80.283
11519,0.6963,0.2095,-0.7012,0.122,-0.061,-0.061,163.235,-43.665,-80.283
11529,0.6978,0.2095,-0.7017,0.122,-0.061,-0.061,163.240,-43.665,-80.283
11539,0.6973,0.2104,-0.7021,0.122,-0.061,0.000,163.240,-43.665,-80.283
11549,0.6987,0.2109,-0.7031,0.183,0.000,0.000,163.240,-43.660,-80.283
11559,0.6978,0.2129,-0.7026,0.244,0.061,-0.061,163.246,-43.660,-80.283
11569,0.6978,0.2095,-0.7017,0.244,0.061,-0.061,163.246,-43.660,-80.283
11579,0.6987,0.2104,-0.6997,0.305,-0.122,-0.061,163.251,-43.660,-80.283
11589,0.6973,0.2085,-0.6973,0.366,-0.305,-0.061,163.251,-43.660,-80.283
11599,0.6948,0.2090,-0.6958,0.366,-0.366,-0.061,163.257,-43.654,-80.283
11609,0.6963,0.2080,-0.6963,0.244,-0.366,0.061,163.262,-43.654,-80.283
11619,0.6968,0.2104,-0.6958,0.183,-0.366,0.061,163.268,-43.654,-80.283
11629,0.6978,0.2114,-0.6997,0.122,-0.305,0.122,163.268,-43.649,-80.283
11639,0.6973,0.2090,-0.7036,0.122,-0.244,0.061,163.273,-43.649,-80.283
11649,0.6978,0.2095,-0.7080,0.183,-0.183,0.000,163.279,-43.643,-80.283
11659,0.6978,0.2090,-0.7095,0.244,-0.061,0.000,163.284,-43.638,-80.283
11669,0.6968,0.2085,-0.7124,0.244,0.061,-0.061,163.290,-43.632,-80.283
11680,0.6958,0.2085,-0.7104,0.305,0.000,0.000,163.295,-43.632,-80.283
11689,0.6968,0.2090,-0.7095,0.427,0.000,0.061,163.301,-43.627,-80.283
11699,0.6943,0.2075,-0.7090,0.549,-0.122,0.061,163.312,-43.621,-80.283
11709,0.6943,0.2080,-0.7065,0.610,-0.122,0.122,163.323,-43.616,-80.283
11719,0.6943,0.2090,-0.6992,0.671,-0.183,0.183,163.334,-43.616,-80.283
11729,0.6943,0.2061,-0.6968,0.610,-0.122,0.122,163.339,-43.616,-80.283
11739,0.6934,0.2070,-0.6953,0.549,-0.061,0.122,163.350,-43.616,-80.283
11753,0.6943,0.2075,-0.6973,0.488,0.061,0.122,163.356,-43.621,-80.283
11759,0.6973,0.2085,-0.6953,0.366,0.122,0.061,163.361,-43.621,-80.283
11769,0.6958,0.2065,-0.6968,0.244,0.183,0.000,163.361,-43.627,-80.283
11779,0.6982,0.2075,-0.6997,0.122,0.183,0.000,163.367,-43.627,-80.283
11789,0.7007,0.2085,-0.7021,0.061,0.122,0.000,163.367,-43.632,-80.283
11799,0.6997,0.2070,-0.7021,0.000,0.000,-0.061,163.367,-43.632,-80.283
11809,0.6987,0.2080,-0.7026,0.000,-0.122,-0.061,163.367,-43.632,-80.283
11819,0.6987,0.2046,-0.7061,0.061,-0.244,-0.061,163.372,-43.627,-80.283
11829,0.6982,0.2056,-0.7031,0.061,-0.305,0.000,163.378,-43.627,-80.283
11839,0.6953,0.2051,-0.7036,0.000,-0.244,-0.061,163.383,-43.621,-80.283
11849,0.6943,0.2061,-0.7051,-0.061,-0.122,-0.061,163.383,-43.616,-80.283
11859,0.6938,0.2061,-0.7061,-0.122,-0.061,-0.122,163.383,-43.616,-80.283
11869,0.6938,0.2080,-0.7046,-0.183,-0.061,-0.122,163.383,-43.610,-80.283
11879,0.6924,0.2085,-0.7036,-0.305,-0.122,-0.061,163.383,-43.605,-80.283
11889,0.6948,0.2095,-0.7026,-0.305,-0.122,0.000,163.378,-43.605,-80.283
11899,0.6963,0.2104,-0.7002,-0.305,-0.061,0.061,163.378,-43.605,-80.283
11909,0.6948,0.2100,-0.7007,-0.244,-0.061,0.061,163.372,-43.605,-80.283
11919,0.6943,0.2109,-0.7002,-0.244,0.000,0.061,163.372,-43.605,-80.283
11929,0.6943,0.2109,-0.6997,-0.183,0.000,0.061,163.367,-43.599,-80.283
11939,0.6958,0.2104,-0.6992,-0.061,0.061,0.061,163.367,-43.605,-80.283
11949,0.6968,0.2065,-0.7017,0.061,0.122,0.061,163.372,-43.605,-80.283
11959,0.6978,0.2070,-0.7017,0.000,0.061,0.061,163.372,-43.605,-80.283
11969,0.6982,0.2061,-0.7036,0.000,0.122,0.061,163.378,-43.605,-80.283
11979,0.6982,0.2056,-0.7061,-0.061,0.061,0.061,163.378,-43.605,-80.283
11989,0.6982,0.2056,-0.7075,-0.061,0.000,0.061,163.383,-43.605,-80.283
11999,0.6963,0.2051,-0.7085,0.000,-0.061,-0.061,163.389,-43.605,-80.283
12009,0.6968,0.2041,-0.7031,-0.122,-0.122,-0.061,163.389,-43.599,-80.283
12019,0.6968,0.2051,-0.7031,-0.183,-0.122,-0.061,163.394,-43.599,-80.283
12029,0.6948,0.2070,-0.7041,-0.244,-0.122,-0.061,163.389,-43.599,-80.283
12039,0.6953,0.2075,-0.7021,-0.305,-0.061,-0.122,163.389,-43.594,-80.283
12049,0.6938,0.2095,-0.7031,-0.366,0.061,0.000,163.383,-43.594,-80.283
12059,0.6924,0.2090,-0.7021,-0.366,0.061,-0.061,163.383,-43.594,-80.283
12069,0.6938,0.2114,-0.7031,-0.366,0.122,-0.061,163.378,-43.594,-80.283
12079,0.6934,0.2095,-0.7021,-0.244,0.183,0.000,163.372,-43.594,-80.283
12089,0.6958,0.2100,-0.7026,-0.244,0.183,0.000,163.372,-43.594,-80.283
12099,0.6953,0.2095,-0.7026,-0.122,0.122,-0.061,163.367,-43.594,-80.283
12109,0.6973,0.2109,-0.7002,-0.061,0.122,0.000,163.367,-43.594,-80.283
12119,0.6958,0.2095,-0.7041,0.000,0.061,0.000,163.367,-43.594,-80.283
12129,0.6948,0.2090,-0.6997,0.061,0.122,0.000,163.367,-43.594,-80.283
12139,0.6958,0.2095,-0.7012,0.061,0.122,0.000,163.367,-43.594,-80.283
12149,0.6948,0.2085,-0.7017,0.061,0.061,-0.061,163.367,-43.594,-80.283
12159,0.6963,0.2061,-0.7026,0.000,0.061,0.000,163.372,-43.594,-80.283
12169,0.6958,0.2051,-0.7046,-0.061,0.061,0.000,163.372,-43.594,-80.283
12180,0.6968,0.2051,-0.7056,-0.183,0.122,-0.061,163.372,-43.594,-80.283
12189,0.6968,0.2061,-0.7012,-0.244,0.122,-0.122,163.372,-43.594,-80.283
12199,0.6953,0.2085,-0.7026,-0.305,0.122,-0.061,163.372,-43.594,-80.283
12209,0.6948,0.2095,-0.7017,-0.366,0.061,-0.061,163.367,-43.594,-80.283
12219,0.6953,0.2114,-0.6987,-0.305,0.000,-0.061,163.361,-43.594,-80.283
12229,0.6938,0.2124,-0.7007,-0.244,0.061,-0.061,163.356,-43.594,-80.283
12239,0.6938,0.2119,-0.7031,-0.122,0.122,-0.061,163.350,-43.594,-80.283
12249,0.6963,0.2090,-0.7012,-0.061,0.183,-0.061,163.350,-43.594,-80.283
12259,0.6973,0.2080,-0.7021,-0.061,0.122,-0.061,163.350,-43.594,-80.283
12269,0.6982,0.2080,-0.7041,0.000,0.183,-0.061,163.350,-43.599,-80.283
12279,0.6963,0.2080,-0.7036,-0.061,0.122,0.000,163.350,-43.599,-80.283
12289,0.6958,0.2080,-0.7026,-0.122,0.122,0.000,163.350,-43.599,-80.283
12299,0.6963,0.2080,-0.7021,-0.122,0.000,0.000,163.350,-43.599,-80.283
12309,0.6963,0.2075,-0.7017,-0.183,0.000,0.000,163.350,-43.599,-80.283
12319,0.6982,0.2056,-0.7026,-0.183,0.000,-0.061,163.356,-43.599,-80.283
12329,0.6938,0.2090,-0.7026,-0.305,-0.061,0.000,163.350,-43.594,-80.283
12339,0.6934,0.2080,-0.7036,-0.366,0.000,0.000,163.350,-43.594,-80.283
12349,0.6934,0.2090,-0.7046,-0.305,0.000,-0.061,163.345,-43.594,-80.283
12359,0.6953,0.2080,-0.7041,-0.244,0.061,-0.122,163.345,-43.588,-80.283
12369,0.6948,0.2070,-0.7031,-0.305,0.122,-0.061,163.345,-43.588,-80.283
12379,0.6938,0.2104,-0.7041,-0.305,0.183,-0.061,163.339,-43.588,-80.283
12389,0.6929,0.2109,-0.7056,-0.244,0.244,-0.061,163.334,-43.588,-80.283
12399,0.6943,0.2109,-0.7070,-0.244,0.366,-0.061,163.334,-43.588,-80.283
12409,0.6968,0.2104,-0.7090,-0.244,0.366,-0.061,163.328,-43.588,-80.283
12419,0.6963,0.2090,-0.7041,-0.183,0.305,-0.061,163.328,-43.594,-80.283
12429,0.6968,0.2100,-0.7021,-0.244,0.183,-0.061,163.323,-43.594,-80.283
12439,0.6978,0.2085,-0.7007,-0.244,0.000,0.061,163.323,-43.594,-80.283
12449,0.6963,0.2109,-0.6992,-0.244,-0.183,0.122,163.323,-43.594,-80.283
12459,0.6943,0.2090,-0.6992,-0.244,-0.183,0.183,163.323,-43.594,-80.283
12469,0.6934,0.2090,-0.7002,-0.244,-0.122,0.183,163.323,-43.588,-80.283
12479,0.6938,0.2070,-0.6987,-0.305,0.000,0.183,163.323,-43.588,-80.283
12489,0.6963,0.2090,-0.7007,-0.244,0.061,0.183,163.323,-43.594,-80.283
12499,0.6958,0.2090,-0.7041,-0.183,0.183,0.183,163.323,-43.594,-80.283
12509,0.6953,0.2090,-0.7075,-0.122,0.183,0.122,163.323,-43.594,-80.283
12519,0.6963,0.2080,-0.7070,-0.061,0.244,0.122,163.328,-43.594,-80.283
12529,0.6968,0.2095,-0.7095,0.122,0.183,0.122,163.334,-43.594,-80.283
12539,0.6973,0.2080,-0.7075,0.183,0.183,0.183,163.339,-43.594,-80.283
12549,0.6982,0.2080,-0.7080,0.305,0.122,0.183,163.345,-43.594,-80.283
12559,0.6958,0.2085,-0.7017,0.366,0.122,0.122,163.350,-43.594,-80.283
12569,0.6958,0.2070,-0.6997,0.366,0.061,0.122,163.356,-43.594,-80.283
12579,0.6948,0.2100,-0.6982,0.366,0.122,0.122,163.361,-43.599,-80.283
12589,0.6934,0.2104,-0.6982,0.244,0.061,0.122,163.361,-43.599,-80.283
12599,0.6953,0.2090,-0.6973,0.183,0.061,0.122,163.361,-43.599,-80.283
12609,0.6948,0.2080,-0.6958,0.183,0.122,0.122,163.367,-43.605,-80.283
12619,0.6948,0.2085,-0.6968,0.122,0.183,0.122,163.367,-43.605,-80.283
12629,0.6953,0.2080,-0.6992,0.000,0.183,0.061,163.367,-43.610,-80.283
12639,0.6963,0.2100,-0.6997,-0.061,0.244,0.122,163.367,-43.610,-80.283
12649,0.6978,0.2104,-0.7002,-0.061,0.183,0.061,163.367,-43.616,-80.283
12659,0.6958,0.2090,-0.7036,-0.061,0.183,0.000,163.367,-43.616,-80.283
12669,0.6973,0.2070,-0.7046,-0.061,0.122,0.061,163.367,-43.616,-80.283
12680,0.6968,0.2056,-0.7041,0.061,0.122,0.061,163.372,-43.616,-80.283
12689,0.6968,0.2036,-0.7026,0.183,0.061,0.061,163.378,-43.616,-80.283
12699,0.6953,0.2041,-0.7056,0.122,0.122,0.061,163.383,-43.616,-80.283
12709,0.6934,0.2041,-0.7065,0.061,0.183,0.061,163.389,-43.616,-80.283
12719,0.6938,0.2051,-0.7041,0.000,0.183,0.061,163.394,-43.616,-80.283
12729,0.6958,0.2041,-0.7036,0.000,0.122,0.061,163.400,-43.616,-80.283
12739,0.6948,0.2061,-0.7036,-0.183,0.000,0.122,163.400,-43.616,-80.283
12749,0.6978,0.2051,-0.6997,-0.305,-0.061,0.122,163.405,-43.616,-80.283
12759,0.6963,0.2090,-0.6978,-0.366,-0.061,0.122,163.400,-43.616,-80.283
12769,0.6968,0.2100,-0.7007,-0.366,-0.061,0.122,163.394,-43.616,-80.283
12779,0.6943,0.2090,-0.6992,-0.366,0.122,0.122,163.394,-43.616,-80.283
12789,0.6963,0.2090,-0.7002,-0.305,0.122,0.122,163.389,-43.621,-80.283
12799,0.6948,0.2100,-0.7036,-0.244,0.122,0.061,163.389,-43.616,-80.283
12809,0.6958,0.2080,-0.7046,-0.183,0.122,0.061,163.389,-43.616,-80.283
12819,0.6968,0.2056,-0.7070,-0.183,0.122,0.061,163.389,-43.616,-80.283
12829,0.6963,0.2065,-0.7075,-0.122,0.061,0.000,163.394,-43.616,-80.283
12839,0.6968,0.2041,-0.7061,-0.183,0.061,0.000,163.394,-43.616,-80.283
12849,0.6938,0.2036,-0.7070,-0.244,0.061,-0.061,163.400,-43.610,-80.283
12859,0.6953,0.2056,-0.7090,-0.305,0.000,-0.061,163.400,-43.610,-80.283
12869,0.6953,0.2090,-0.7085,-0.305,0.000,-0.061,163.394,-43.605,-80.283
12879,0.6943,0.2090,-0.7065,-0.305,0.000,-0.061,163.394,-43.605,-80.283
12889,0.6948,0.2085,-0.7021,-0.305,0.000,-0.061,163.389,-43.599,-80.283
12899,0.6948,0.2100,-0.7017,-0.305,0.061,-0.061,163.389,-43.599,-80.283
12909,0.6943,0.2109,-0.6997,-0.305,0.122,-0.061,163.383,-43.599,-80.283
12919,0.6968,0.2129,-0.7002,-0.244,0.183,-0.122,163.372,-43.605,-80.283
12929,0.6963,0.2090,-0.6997,-0.244,0.183,-0.122,163.372,-43.605,-80.283
12939,0.6963,0.2095,-0.7012,-0.183,0.244,-0.122,163.367,-43.605,-80.283
12949,0.6958,0.2080,-0.7012,-0.122,0.183,-0.122,163.367,-43.605,-80.283
12959,0.6973,0.2090,-0.7012,-0.061,0.183,-0.122,163.361,-43.610,-80.283
12969,0.6978,0.2075,-0.7031,-0.061,0.183,-0.122,163.361,-43.610,-80.283
12979,0.6968,0.2070,-0.7017,0.000,0.183,-0.183,163.361,-43.610,-80.283
12989,0.6948,0.2080,-0.7046,0.000,0.122,-0.183,163.361,-43.610,-80.283
12999,0.6953,0.2070,-0.7046,-0.122,0.061,-0.122,163.361,-43.610,-80.283
13009,0.6953,0.2070,-0.7051,-0.183,0.122,-0.183,163.361,-43.610,-80.283
13019,0.6963,0.2114,-0.7051,-0.183,0.061,-0.183,163.356,-43.605,-80.283
13029,0.6958,0.2109,-0.7026,-0.183,0.122,-0.244,163.350,-43.605,-80.283
13039,0.6943,0.2114,-0.7021,-0.183,0.122,-0.183,163.345,-43.605,-80.283
13049,0.6943,0.2100,-0.7041,-0.061,0.122,-0.244,163.345,-43.605,-80.283
13059,0.6948,0.2095,-0.7021,0.000,0.122,-0.183,163.345,-43.599,-80.283
13069,0.6958,0.2095,-0.7012,0.061,0.183,-0.183,163.339,-43.605,-80.283
13079,0.6943,0.2104,-0.7007,0.122,0.244,-0.122,163.339,-43.605,-80.283
13089,0.6948,0.2104,-0.7002,0.183,0.305,-0.061,163.339,-43.605,-80.283
13099,0.6953,0.2090,-0.7012,0.244,0.366,0.000,163.345,-43.610,-80.283
13109,0.6953,0.2080,-0.7031,0.305,0.366,-0.061,163.345,-43.610,-80.283
13119,0.6978,0.2080,-0.7026,0.366,0.305,0.000,163.350,-43.616,-80.283
13129,0.6973,0.2075,-0.7036,0.305,0.305,0.000,163.356,-43.616,-80.283
13139,0.6992,0.2075,-0.7026,0.244,0.244,-0.061,163.356,-43.621,-80.283
13149,0.6987,0.2080,-0.7031,0.122,0.244,0.000,163.361,-43.621,-80.283
13159,0.6973,0.2065,-0.7041,-0.061,0.183,0.000,163.361,-43.621,-80.283
13169,0.6982,0.2061,-0.7041,-0.183,0.122,-0.061,163.361,-43.621,-80.283
13180,0.6982,0.2070,-0.7021,-0.244,0.061,0.000,163.361,-43.621,-80.283
13189,0.6968,0.2061,-0.7017,-0.244,-0.061,-0.061,163.361,-43.621,-80.283
13199,0.6968,0.2090,-0.7021,-0.305,-0.061,-0.061,163.361,-43.621,-80.283
13209,0.6943,0.2090,-0.7007,-0.366,-0.122,0.000,163.356,-43.621,-80.283
13219,0.6929,0.2104,-0.7021,-0.244,-0.122,0.000,163.356,-43.616,-80.283
13229,0.6919,0.2090,-0.6992,-0.183,-0.122,-0.061,163.350,-43.616,-80.283
13239,0.6919,0.2095,-0.6978,-0.122,-0.122,0.000,163.350,-43.610,-80.283
13249,0.6953,0.2095,-0.7007,-0.061,0.000,0.061,163.350,-43.610,-80.283
13259,0.6938,0.2104,-0.7031,0.000,0.122,0.061,163.350,-43.610,-80.283
13269,0.6958,0.2090,-0.7051,0.061,0.305,0.061,163.350,-43.610,-80.283
13279,0.6982,0.2109,-0.7041,0.000,0.427,0.061,163.350,-43.616,-80.283
13289,0.6978,0.2095,-0.7041,-0.061,0.366,0.122,163.350,-43.616,-80.283
13299,0.6978,0.2095,-0.7021,0.000,0.244,0.122,163.350,-43.621,-80.283
13309,0.6968,0.2075,-0.7021,0.000,0.000,0.122,163.356,-43.621,-80.283
13319,0.6943,0.2090,-0.6958,0.000,-0.122,0.244,163.356,-43.621,-80.283
13329,0.6948,0.2095,-0.6997,-0.061,-0.244,0.305,163.361,-43.621,-80.283
13339,0.6953,0.2100,-0.6978,-0.122,-0.183,0.305,163.361,-43.621,-80.283
13349,0.6943,0.2090,-0.6978,-0.183,-0.122,0.244,163.361,-43.621,-80.283
13359,0.6963,0.2070,-0.6997,-0.122,0.000,0.244,163.361,-43.621,-80.283
13369,0.6958,0.2090,-0.7036,0.000,0.122,0.244,163.367,-43.621,-80.283
13379,0.6963,0.2095,-0.7036,0.061,0.183,0.244,163.367,-43.621,-80.283
13389,0.6978,0.2070,-0.7100,0.122,0.244,0.183,163.372,-43.621,-80.283
13399,0.6987,0.2075,-0.7114,0.183,0.305,0.183,163.383,-43.621,-80.283
13409,0.7007,0.2085,-0.7104,0.244,0.244,0.183,163.389,-43.621,-80.283
13419,0.6992,0.2080,-0.7070,0.366,0.122,0.244,163.394,-43.627,-80.283
13429,0.6973,0.2090,-0.7026,0.427,0.061,0.244,163.400,-43.627,-80.283
13439,0.6958,0.2090,-0.7017,0.427,-0.061,0.244,163.405,-43.627,-80.283
13449,0.6958,0.2085,-0.6973,0.305,-0.061,0.244,163.411,-43.627,-80.283
13459,0.6948,0.2070,-0.6963,0.244,-0.122,0.183,163.416,-43.627,-80.283
13469,0.6978,0.2070,-0.6943,0.244,-0.061,0.183,163.422,-43.627,-80.283
13479,0.6987,0.2100,-0.6948,0.061,0.000,0.122,163.422,-43.632,-80.283
13489,0.6982,0.2090,-0.6963,0.122,0.061,0.122,163.422,-43.638,-80.283
13499,0.6997,0.2085,-0.6982,0.122,0.061,0.122,163.422,-43.638,-80.283
13509,0.7002,0.2085,-0.7012,0.061,0.000,0.122,163.427,-43.638,-80.283
13519,0.7002,0.2070,-0.7026,0.061,-0.122,0.000,163.427,-43.638,-80.283
13529,0.6987,0.2070,-0.7031,0.061,-0.183,0.061,163.433,-43.638,-80.283
13539,0.6973,0.2080,-0.7051,0.183,-0.305,0.000,163.433,-43.632,-80.283
13549,0.6973,0.2051,-0.7070,0.305,-0.366,0.000,163.444,-43.627,-80.283
13559,0.6973,0.2031,-0.7070,0.244,-0.366,-0.061,163.449,-43.621,-80.283
13569,0.6978,0.2021,-0.7061,0.183,-0.427,-0.122,163.460,-43.616,-80.283
13579,0.6987,0.2041,-0.7061,0.000,-0.427,-0.122,163.460,-43.616,-80.283
13589,0.6963,0.2051,-0.7061,-0.122,-0.488,-0.122,163.466,-43.605,-80.283
13599,0.6953,0.2065,-0.7036,-0.244,-0.427,-0.122,163.466,-43.599,-80.283
13609,0.6948,0.2100,-0.7002,-0.244,-0.366,-0.122,163.460,-43.599,-80.283
13619,0.6934,0.2109,-0.6987,-0.366,-0.305,-0.061,163.455,-43.594,-80.283
13629,0.6929,0.2100,-0.6982,-0.366,-0.305,-0.061,163.449,-43.588,-80.283
13639,0.6953,0.2090,-0.6963,-0.244,-0.244,-0.061,163.444,-43.588,-80.283
13649,0.6948,0.2090,-0.6997,-0.122,-0.183,-0.122,163.444,-43.588,-80.283
13659,0.6968,0.2090,-0.7007,0.061,-0.183,-0.122,163.444,-43.583,-80.283
13669,0.6978,0.2070,-0.7017,0.122,-0.061,-0.122,163.444,-43.583,-80.283
13680,0.6968,0.2080,-0.7046,0.122,-0.061,-0.122,163.444,-43.583,-80.283
13689,0.6963,0.2070,-0.7056,0.183,-0.061,-0.122,163.449,-43.583,-80.283
13699,0.6978,0.2061,-0.7051,0.183,-0.061,-0.122,163.449,-43.577,-80.283
13709,0.6943,0.2061,-0.7065,0.183,-0.122,-0.122,163.455,-43.577,-80.283
13719,0.6958,0.2046,-0.7056,0.122,-0.183,-0.183,163.460,-43.572,-80.283
13729,0.6938,0.2085,-0.7061,0.122,-0.183,-0.183,163.460,-43.566,-80.283
13739,0.6938,0.2085,-0.7036,0.061,-0.183,-0.122,163.460,-43.566,-80.283
13754,0.6953,0.2085,-0.7021,0.000,-0.183,-0.061,163.460,-43.561,-80.283
13759,0.6948,0.2085,-0.7007,0.000,-0.183,0.000,163.460,-43.561,-80.283
13769,0.6968,0.2109,-0.6973,0.000,-0.122,0.000,163.455,-43.561,-80.283
13779,0.6958,0.2104,-0.6997,0.000,-0.061,0.000,163.455,-43.561,-80.283
13789,0.6968,0.2100,-0.7012,0.000,0.000,0.000,163.455,-43.561,-80.283
13799,0.6958,0.2109,-0.6992,0.061,0.000,0.061,163.455,-43.561,-80.283
13809,0.6953,0.2090,-0.7007,0.061,0.000,0.000,163.455,-43.561,-80.283
13819,0.6963,0.2095,-0.6992,0.183,-0.061,0.061,163.455,-43.561,-80.283
13829,0.6982,0.2065,-0.7026,0.183,-0.061,0.061,163.460,-43.561,-80.283
13839,0.6968,0.2075,-0.7026,0.244,-0.183,0.061,163.460,-43.561,-80.283
13849,0.6958,0.2065,-0.7021,0.244,-0.244,0.000,163.466,-43.561,-80.283
13859,0.6963,0.2070,-0.7017,0.183,-0.244,0.061,163.471,-43.555,-80.283
13869,0.6968,0.2056,-0.7031,0.122,-0.122,0.000,163.477,-43.555,-80.283
13879,0.6973,0.2056,-0.7026,0.061,-0.183,0.000,163.477,-43.555,-80.283
13889,0.6958,0.2051,-0.7017,0.000,-0.183,-0.061,163.482,-43.555,-80.283
13899,0.6958,0.2065,-0.7046,-0.122,-0.122,0.000,163.482,-43.550,-80.283
13909,0.6953,0.2085,-0.6997,-0.122,-0.061,-0.061,163.477,-43.550,-80.283
13919,0.6963,0.2085,-0.7007,-0.183,-0.061,-0.061,163.477,-43.550,-80.283
13929,0.6968,0.2104,-0.7026,-0.122,-0.061,-0.061,163.471,-43.550,-80.283
13939,0.6958,0.2104,-0.7026,-0.061,-0.061,-0.061,163.471,-43.550,-80.283
13949,0.6953,0.2075,-0.7026,0.061,-0.061,0.000,163.471,-43.550,-80.283
13959,0.6953,0.2080,-0.7031,0.122,-0.061,0.000,163.471,-43.550,-80.283
13969,0.6958,0.2075,-0.7007,0.183,-0.122,-0.061,163.477,-43.544,-80.283
13979,0.6982,0.2065,-0.7007,0.183,-0.122,0.000,163.477,-43.550,-80.283
13989,0.6968,0.2065,-0.7012,0.183,-0.061,0.000,163.482,-43.550,-80.283
13999,0.6973,0.2051,-0.7021,0.122,-0.061,0.061,163.488,-43.550,-80.283
14009,0.6978,0.2070,-0.7031,0.122,-0.061,0.000,163.488,-43.550,-80.283
14019,0.6978,0.2061,-0.7061,0.122,-0.122,0.000,163.493,-43.544,-80.283
14029,0.6948,0.2065,-0.7046,0.061,-0.122,-0.061,163.493,-43.544,-80.283
14039,0.6963,0.2046,-0.7007,0.000,-0.122,-0.061,163.499,-43.544,-80.283
14049,0.6963,0.2056,-0.7026,-0.122,-0.122,-0.061,163.499,-43.544,-80.283
14059,0.6958,0.2075,-0.7017,-0.183,-0.122,-0.122,163.493,-43.539,-80.283
14069,0.6958,0.2070,-0.7021,-0.122,-0.122,-0.183,163.493,-43.539,-80.283
14079,0.6953,0.2070,-0.7007,-0.122,-0.122,-0.061,163.493,-43.539,-80.283
14089,0.6963,0.2085,-0.7002,-0.122,-0.061,-0.061,163.488,-43.539,-80.283
14099,0.6963,0.2090,-0.7021,-0.122,0.000,-0.061,163.488,-43.539,-80.283
14109,0.6968,0.2100,-0.7051,-0.061,0.122,0.000,163.488,-43.539,-80.283
14119,0.7002,0.2080,-0.7031,-0.061,0.183,-0.061,163.482,-43.544,-80.283
14129,0.6987,0.2065,-0.7051,0.000,0.122,-0.061,163.488,-43.544,-80.283
14139,0.6992,0.2061,-0.7017,0.061,-0.122,-0.061,163.488,-43.544,-80.283
14149,0.6987,0.2061,-0.7002,-0.061,-0.305,0.000,163.488,-43.544,-80.283
14159,0.6978,0.2080,-0.7002,-0.183,-0.427,0.061,163.488,-43.539,-80.283
14169,0.6958,0.2095,-0.6973,-0.366,-0.549,0.061,163.482,-43.539,-80.283
14180,0.6953,0.2095,-0.6978,-0.366,-0.549,0.061,163.482,-43.533,-80.283
14189,0.6938,0.2090,-0.6997,-0.427,-0.427,0.061,163.477,-43.533,-80.283
14199,0.6934,0.2090,-0.7041,-0.366,-0.305,0.000,163.471,-43.528,-80.283
14209,0.6938,0.2085,-0.7061,-0.244,-0.183,0.000,163.471,-43.522,-80.283
14219,0.6973,0.2114,-0.7090,-0.122,-0.122,0.000,163.471,-43.517,-80.283
14229,0.6953,0.2095,-0.7095,0.000,0.000,-0.061,163.471,-43.517,-80.283
14239,0.6963,0.2080,-0.7075,0.122,0.000,0.000,163.471,-43.517,-80.283
14249,0.6968,0.2085,-0.7065,0.244,0.000,0.061,163.477,-43.511,-80.283
14259,0.6958,0.2095,-0.7061,0.305,0.000,0.122,163.482,-43.511,-80.283
14269,0.6958,0.2080,-0.7026,0.305,-0.061,0.122,163.488,-43.511,-80.283
14279,0.6958,0.2075,-0.7012,0.366,-0.122,0.122,163.493,-43.511,-80.283
14289,0.6943,0.2080,-0.6958,0.366,-0.122,0.061,163.493,-43.511,-80.283
14299,0.6973,0.2075,-0.6963,0.244,-0.122,0.000,163.499,-43.517,-80.283
14309,0.6968,0.2075,-0.6943,0.183,-0.122,0.000,163.499,-43.517,-80.283
14319,0.6968,0.2090,-0.6968,0.061,0.000,0.000,163.493,-43.522,-80.283
14329,0.6953,0.2095,-0.7002,0.000,0.061,-0.061,163.493,-43.522,-80.283
14339,0.6973,0.2080,-0.6982,-0.061,0.061,-0.061,163.493,-43.522,-80.283
14349,0.6978,0.2075,-0.7007,-0.061,0.061,-0.122,163.488,-43.528,-80.283
14359,0.6987,0.2070,-0.7031,-0.061,-0.061,-0.061,163.488,-43.528,-80.283
14369,0.6963,0.2065,-0.7065,-0.061,-0.183,-0.061,163.493,-43.522,-80.283
14379,0.6968,0.2051,-0.7075,0.000,-0.244,-0.122,163.493,-43.522,-80.283
14389,0.6963,0.2070,-0.7075,0.000,-0.244,-0.061,163.499,-43.517,-80.283
14399,0.6973,0.2046,-0.7095,0.000,-0.183,-0.061,163.499,-43.511,-80.283
14409,0.6963,0.2031,-0.7090,-0.122,-0.183,-0.061,163.504,-43.511,-80.283
14419,0.6953,0.2065,-0.7070,-0.244,-0.183,-0.061,163.504,-43.506,-80.283
14429,0.6934,0.2085,-0.7051,-0.305,-0.183,0.000,163.499,-43.500,-80.283
14439,0.6929,0.2109,-0.7007,-0.305,-0.183,0.061,163.499,-43.500,-80.283
14449,0.6924,0.2114,-0.6997,-0.244,-0.183,0.061,163.493,-43.500,-80.283
14459,0.6919,0.2119,-0.6982,-0.183,-0.183,0.061,163.488,-43.495,-80.283
14469,0.6948,0.2119,-0.6958,-0.061,-0.122,0.061,163.482,-43.500,-80.283
14479,0.6934,0.2104,-0.6968,0.000,-0.061,0.061,163.482,-43.500,-80.283
14489,0.6938,0.2085,-0.6987,0.061,0.061,0.061,163.482,-43.500,-80.283
14499,0.6919,0.2090,-0.7002,0.183,0.122,0.061,163.482,-43.500,-80.283
14509,0.6948,0.2070,-0.7026,0.183,0.183,0.061,163.488,-43.506,-80.283
14519,0.6953,0.2056,-0.7046,0.122,0.183,0.061,163.488,-43.506,-80.283
14529,0.6987,0.2026,-0.7070,0.061,0.122,0.061,163.493,-43.506,-80.283
14539,0.6982,0.2031,-0.7080,0.000,0.061,0.061,163.499,-43.506,-80.283
14549,0.6978,0.2051,-0.7056,-0.061,-0.061,0.061,163.504,-43.506,-80.283
14559,0.6982,0.2080,-0.7070,-0.061,-0.122,0.000,163.504,-43.506,-80.283
14569,0.6968,0.2065,-0.7041,-0.061,-0.244,0.000,163.504,-43.506,-80.283
14579,0.6948,0.2080,-0.7007,-0.061,-0.183,0.000,163.504,-43.500,-80.283
14589,0.6948,0.2085,-0.6973,-0.122,-0.122,0.000,163.504,-43.500,-80.283
14599,0.6953,0.2075,-0.6982,-0.061,-0.061,-0.061,163.499,-43.506,-80.283
14609,0.6953,0.2095,-0.6973,-0.122,0.061,-0.061,163.499,-43.506,-80.283
14619,0.6953,0.2100,-0.6973,-0.122,0.122,0.000,163.493,-43.511,-80.283
14629,0.6968,0.2095,-0.6997,-0.061,0.122,-0.061,163.488,-43.511,-80.283
14639,0.6958,0.2104,-0.6997,0.000,0.122,-0.061,163.488,-43.511,-80.283
14649,0.6973,0.2104,-0.7026,0.000,0.061,-0.061,163.482,-43.517,-80.283
14659,0.6968,0.2080,-0.7046,0.061,0.000,0.000,163.488,-43.517,-80.283
14669,0.6968,0.2065,-0.7031,0.061,0.000,0.000,163.488,-43.517,-80.283
14680,0.6953,0.2046,-0.7017,0.061,0.000,0.061,163.493,-43.517,-80.283
14689,0.6948,0.2065,-0.7026,0.000,0.000,0.061,163.493,-43.517,-80.283
14699,0.6938,0.2056,-0.7051,0.000,0.000,0.000,163.493,-43.517,-80.283
14709,0.6948,0.2056,-0.7026,0.000,0.000,0.000,163.499,-43.517,-80.283
14719,0.6943,0.2080,-0.7031,0.061,-0.061,0.000,163.499,-43.511,-80.283
14729,0.6948,0.2080,-0.7012,-0.061,0.000,-0.061,163.499,-43.511,-80.283
14739,0.6948,0.2085,-0.7036,-0.122,0.061,-0.061,163.493,-43.511,-80.283
14749,0.6953,0.2075,-0.7041,-0.122,0.061,-0.061,163.493,-43.511,-80.283
14759,0.6968,0.2080,-0.7041,-0.061,0.061,0.000,163.493,-43.511,-80.283
14769,0.6973,0.2085,-0.7026,-0.061,0.000,0.000,163.493,-43.517,-80.283
14779,0.6968,0.2090,-0.7036,0.000,0.000,-0.061,163.493,-43.511,-80.283
14789,0.6963,0.2061,-0.7041,0.000,0.000,-0.061,163.493,-43.511,-80.283
14799,0.6958,0.2070,-0.7031,0.000,0.000,-0.061,163.493,-43.511,-80.283
14809,0.6958,0.2075,-0.7041,-0.061,0.000,-0.061,163.493,-43.511,-80.283
14819,0.6948,0.2095,-0.7036,-0.061,0.000,0.000,163.493,-43.511,-80.283
14829,0.6973,0.2095,-0.7046,0.000,0.061,0.000,163.493,-43.511,-80.283
14839,0.6948,0.2085,-0.7046,0.061,0.000,0.000,163.493,-43.511,-80.283
14849,0.6938,0.2075,-0.7031,0.122,0.061,-0.061,163.493,-43.511,-80.283
14859,0.6929,0.2085,-0.7002,0.122,0.061,0.000,163.493,-43.511,-80.283
14869,0.6953,0.2070,-0.7026,0.122,0.061,0.000,163.493,-43.511,-80.283
14879,0.6968,0.2065,-0.7031,0.061,0.061,0.000,163.499,-43.511,-80.283
14889,0.6963,0.2075,-0.7026,0.061,0.061,0.061,163.499,-43.517,-80.283
14899,0.6938,0.2080,-0.7026,0.000,0.061,0.061,163.499,-43.517,-80.283
14909,0.6958,0.2080,-0.7026,0.000,0.061,0.000,163.499,-43.517,-80.283
14919,0.6968,0.2080,-0.7036,0.061,0.061,0.000,163.499,-43.517,-80.283
14929,0.6992,0.2070,-0.7031,0.061,0.000,0.000,163.499,-43.517,-80.283
14939,0.6968,0.2075,-0.7036,0.061,-0.061,0.000,163.504,-43.517,-80.283
14949,0.6973,0.2065,-0.7046,0.122,-0.061,0.000,163.504,-43.517,-80.283
14959,0.6958,0.2065,-0.7031,0.183,-0.061,-0.061,163.510,-43.517,-80.283
14969,0.6943,0.2070,-0.7007,0.122,0.000,-0.061,163.510,-43.517,-80.283
14979,0.6943,0.2075,-0.7017,0.000,-0.061,-0.061,163.510,-43.517,-80.283
14989,0.6958,0.2065,-0.7021,0.000,0.000,0.000,163.510,-43.517,-80.283
14999,0.6958,0.2070,-0.7026,0.061,0.061,-0.061,163.510,-43.517,-80.283
15009,0.6958,0.2070,-0.7046,0.000,0.183,-0.122,163.510,-43.517,-80.283
15019,0.6978,0.2070,-0.7051,-0.061,0.305,-0.122,163.510,-43.522,-80.283
15029,0.6963,0.2065,-0.7051,-0.061,0.183,-0.061,163.510,-43.522,-80.283
15039,0.6953,0.2075,-0.7012,-0.061,0.061,-0.061,163.510,-43.522,-80.283
15049,0.6963,0.2090,-0.7021,-0.061,-0.183,0.000,163.504,-43.522,-80.283
15059,0.6943,0.2109,-0.6997,-0.061,-0.305,0.061,163.504,-43.517,-80.283
15069,0.6934,0.2109,-0.6997,-0.061,-0.366,0.122,163.504,-43.517,-80.283
15079,0.6934,0.2090,-0.6973,-0.061,-0.305,0.183,163.504,-43.511,-80.283
15089,0.6909,0.2095,-0.6992,0.061,-0.183,0.183,163.504,-43.511,-80.283
15099,0.6924,0.2095,-0.7017,0.183,0.000,0.183,163.504,-43.511,-80.283
15109,0.6919,0.2075,-0.7070,0.244,0.122,0.122,163.510,-43.511,-80.283
15119,0.6953,0.2061,-0.7095,0.305,0.244,0.122,163.515,-43.511,-80.283
15129,0.6968,0.2095,-0.7139,0.366,0.305,0.183,163.521,-43.511,-80.283
15139,0.6973,0.2090,-0.7100,0.488,0.244,0.183,163.531,-43.511,-80.283
15149,0.6978,0.2085,-0.7104,0.549,0.183,0.244,163.537,-43.511,-80.283
15159,0.6982,0.2075,-0.7061,0.671,0.183,0.244,163.548,-43.511,-80.283
15169,0.6978,0.2075,-0.6992,0.732,0.061,0.244,163.553,-43.517,-80.283
15180,0.6958,0.2070,-0.6978,0.793,0.000,0.183,163.564,-43.517,-80.283
15189,0.6953,0.2061,-0.6958,0.671,0.000,0.183,163.570,-43.522,-80.283
15199,0.6958,0.2051,-0.6948,0.610,0.000,0.122,163.581,-43.528,-80.283
15209,0.6973,0.2031,-0.6948,0.488,0.061,0.122,163.586,-43.533,-80.283
15219,0.6973,0.2036,-0.6953,0.305,0.183,0.061,163.592,-43.539,-80.283
15229,0.6987,0.2036,-0.6997,0.061,0.244,0.000,163.592,-43.539,-80.283
15239,0.6997,0.2036,-0.7002,-0.122,0.183,0.000,163.592,-43.544,-80.283
15249,0.7017,0.2031,-0.7031,-0.305,0.000,-0.122,163.592,-43.550,-80.283
15259,0.7007,0.2036,-0.7046,-0.427,-0.122,-0.122,163.586,-43.550,-80.283
15269,0.7002,0.2051,-0.7051,-0.488,-0.305,-0.122,163.586,-43.544,-80.283
15279,0.6973,0.2061,-0.7080,-0.488,-0.427,-0.122,163.581,-43.539,-80.283
15289,0.6934,0.2075,-0.7085,-0.427,-0.488,-0.122,163.581,-43.533,-80.283
15299,0.6948,0.2061,-0.7041,-0.427,-0.488,-0.122,163.575,-43.528,-80.283
15309,0.6953,0.2065,-0.7051,-0.366,-0.427,-0.122,163.575,-43.522,-80.283
15319,0.6943,0.2056,-0.7075,-0.366,-0.366,-0.122,163.570,-43.517,-80.283
15329,0.6938,0.2056,-0.7026,-0.305,-0.305,-0.122,163.570,-43.511,-80.283
15339,0.6929,0.2090,-0.7021,-0.183,-0.244,-0.122,163.564,-43.506,-80.283
15349,0.6924,0.2090,-0.7036,-0.122,-0.244,-0.061,163.564,-43.506,-80.283
15359,0.6919,0.2109,-0.7007,-0.183,-0.183,0.000,163.559,-43.500,-80.283
15369,0.6924,0.2119,-0.7007,-0.183,-0.061,0.000,163.553,-43.500,-80.283
15379,0.6924,0.2104,-0.7007,-0.122,0.061,0.061,163.548,-43.500,-80.283
15389,0.6948,0.2085,-0.7031,-0.122,0.122,0.061,163.548,-43.500,-80.283
15399,0.6973,0.2085,-0.7041,-0.061,0.183,0.000,163.548,-43.500,-80.283
15409,0.6968,0.2080,-0.7041,0.000,0.183,0.000,163.548,-43.506,-80.283
15419,0.6968,0.2056,-0.7041,0.061,0.122,0.061,163.548,-43.506,-80.283
15429,0.6968,0.2036,-0.7065,0.061,0.122,0.000,163.553,-43.506,-80.283
15439,0.6968,0.2056,-0.7056,0.061,0.061,0.000,163.553,-43.506,-80.283
15449,0.6963,0.2041,-0.7046,0.061,-0.061,-0.061,163.559,-43.506,-80.283
15459,0.6953,0.2056,-0.7036,0.061,-0.061,-0.061,163.559,-43.506,-80.283
15469,0.6953,0.2061,-0.6997,0.000,-0.061,-0.122,163.559,-43.506,-80.283
15479,0.6953,0.2056,-0.7007,-0.061,-0.061,-0.122,163.559,-43.506,-80.283
15489,0.6953,0.2075,-0.7017,-0.122,0.000,-0.122,163.553,-43.506,-80.283
15499,0.6948,0.2075,-0.7007,-0.183,0.000,-0.183,163.553,-43.506,-80.283
15509,0.6958,0.2080,-0.7012,-0.244,0.061,-0.183,163.548,-43.506,-80.283
15519,0.6963,0.2119,-0.7021,-0.305,0.061,-0.122,163.537,-43.506,-80.283
15529,0.6973,0.2104,-0.7017,-0.244,0.122,-0.122,163.531,-43.511,-80.283
15539,0.6997,0.2095,-0.7036,-0.122,0.061,-0.061,163.531,-43.511,-80.283
15549,0.6973,0.2085,-0.7026,-0.061,0.061,-0.061,163.526,-43.511,-80.283
15559,0.6948,0.2085,-0.7012,-0.061,0.000,-0.061,163.526,-43.511,-80.283
15569,0.6953,0.2046,-0.7017,-0.061,-0.061,-0.061,163.526,-43.511,-80.283
15579,0.6938,0.2046,-0.6997,0.000,-0.122,-0.061,163.526,-43.511,-80.283
15589,0.6958,0.2065,-0.7021,-0.122,-0.061,-0.061,163.526,-43.511,-80.283
15599,0.6943,0.2065,-0.7021,-0.122,-0.061,-0.061,163.526,-43.511,-80.283
15609,0.6953,0.2051,-0.7031,-0.183,-0.061,-0.061,163.526,-43.511,-80.283
15619,0.6953,0.2075,-0.7041,-0.183,-0.061,-0.122,163.526,-43.506,-80.283
15629,0.6934,0.2080,-0.7041,-0.183,0.000,-0.122,163.521,-43.506,-80.283
15639,0.6909,0.2090,-0.7036,-0.122,0.061,-0.061,163.521,-43.506,-80.283
15649,0.6919,0.2090,-0.7056,-0.122,0.122,-0.061,163.515,-43.500,-80.283
15659,0.6938,0.2080,-0.7075,-0.061,0.183,0.000,163.515,-43.500,-80.283
15669,0.6924,0.2104,-0.7056,-0.061,0.244,-0.061,163.515,-43.500,-80.283
15680,0.6934,0.2100,-0.7061,0.000,0.183,0.000,163.515,-43.500,-80.283
15689,0.6938,0.2095,-0.7046,0.061,0.183,0.061,163.515,-43.500,-80.283
15699,0.6929,0.2104,-0.7046,0.183,0.183,0.061,163.515,-43.500,-80.283
15709,0.6929,0.2109,-0.7051,0.183,0.305,0.061,163.515,-43.500,-80.283
15719,0.6919,0.2095,-0.7065,0.183,0.366,0.061,163.515,-43.500,-80.283
15729,0.6953,0.2061,-0.7031,0.183,0.427,0.061,163.515,-43.506,-80.283
15739,0.6968,0.2075,-0.7041,0.244,0.366,0.061,163.521,-43.511,-80.283
15749,0.6948,0.2075,-0.7036,0.244,0.366,0.122,163.521,-43.517,-80.283
15759,0.6948,0.2061,-0.7031,0.244,0.366,0.061,163.526,-43.517,-80.283
15769,0.6953,0.2036,-0.7051,0.305,0.366,0.061,163.531,-43.522,-80.283
15779,0.6978,0.2061,-0.7021,0.183,0.305,0.061,163.537,-43.528,-80.283
15789,0.6987,0.2065,-0.7017,0.061,0.305,0.000,163.537,-43.528,-80.283
15799,0.6997,0.2041,-0.7041,-0.061,0.305,0.000,163.537,-43.533,-80.283
15809,0.6992,0.2070,-0.7041,-0.122,0.244,0.000,163.537,-43.539,-80.283
15819,0.6978,0.2056,-0.7012,-0.122,0.183,0.000,163.537,-43.539,-80.283
15829,0.6978,0.2070,-0.7021,-0.183,0.183,0.061,163.531,-43.544,-80.283
15839,0.6982,0.2051,-0.7012,-0.183,0.122,0.000,163.531,-43.544,-80.283
15849,0.6987,0.2085,-0.7012,-0.122,0.061,0.000,163.531,-43.550,-80.283
15859,0.6982,0.2075,-0.7021,-0.122,0.061,-0.061,163.526,-43.550,-80.283
15869,0.6953,0.2065,-0.7026,-0.122,0.000,-0.061,163.526,-43.550,-80.283
15879,0.6953,0.2070,-0.7012,-0.122,-0.061,-0.061,163.526,-43.550,-80.283
15889,0.6953,0.2070,-0.7007,-0.061,-0.061,-0.122,163.526,-43.550,-80.283
15899,0.6948,0.2056,-0.7007,-0.122,-0.061,-0.122,163.526,-43.550,-80.283
15909,0.6938,0.2056,-0.7012,-0.244,0.000,-0.122,163.521,-43.550,-80.283
15919,0.6943,0.2080,-0.7051,-0.244,0.122,-0.061,163.521,-43.544,-80.283
15929,0.6963,0.2085,-0.7061,-0.305,0.244,-0.061,163.515,-43.550,-80.283
15939,0.6968,0.2085,-0.7075,-0.305,0.305,-0.122,163.510,-43.550,-80.283
15949,0.6963,0.2100,-0.7075,-0.305,0.183,-0.061,163.504,-43.550,-80.283
15959,0.6978,0.2100,-0.7065,-0.244,0.000,-0.061,163.504,-43.544,-80.283
15969,0.6958,0.2080,-0.7012,-0.122,-0.244,0.000,163.504,-43.544,-80.283
15979,0.6963,0.2075,-0.7007,-0.061,-0.244,0.061,163.504,-43.544,-80.283
15989,0.6938,0.2070,-0.6968,-0.122,-0.305,0.061,163.504,-43.544,-80.283
15999,0.6919,0.2070,-0.6997,-0.122,-0.244,0.061,163.504,-43.539,-80.283
16009,0.6919,0.2075,-0.7002,-0.122,-0.122,0.061,163.504,-43.539,-80.283
16019,0.6938,0.2080,-0.7041,-0.061,-0.061,0.061,163.504,-43.533,-80.283
16029,0.6943,0.2090,-0.7075,0.000,0.061,0.061,163.504,-43.533,-80.283
16039,0.6948,0.2085,-0.7090,0.061,0.061,0.061,163.504,-43.533,-80.283
16049,0.6968,0.2080,-0.7134,0.122,0.122,0.000,163.510,-43.528,-80.283
16059,0.6953,0.2085,-0.7114,0.244,0.122,0.061,163.515,-43.528,-80.283
16069,0.6953,0.2104,-0.7085,0.366,0.122,0.061,163.515,-43.528,-80.283
16079,0.6953,0.2095,-0.7056,0.488,0.061,0.122,163.521,-43.528,-80.283
16089,0.6963,0.2085,-0.7026,0.549,0.061,0.061,163.526,-43.528,-80.283
16099,0.6958,0.2085,-0.7002,0.610,0.061,0.122,163.531,-43.528,-80.283
16109,0.6958,0.2100,-0.6953,0.549,0.122,0.061,163.537,-43.533,-80.283
16119,0.6958,0.2090,-0.6963,0.427,0.183,0.061,163.537,-43.539,-80.283
16129,0.6953,0.2061,-0.6948,0.305,0.244,0.061,163.537,-43.544,-80.283
16139,0.6968,0.2065,-0.6963,0.183,0.305,0.000,163.537,-43.550,-80.283
16149,0.6963,0.2056,-0.6978,0.122,0.244,0.000,163.542,-43.550,-80.283
16159,0.6973,0.2070,-0.7012,0.061,0.305,-0.061,163.537,-43.555,-80.283
16169,0.6982,0.2056,-0.7041,0.000,0.244,-0.061,163.542,-43.555,-80.283
16180,0.6992,0.2056,-0.7061,-0.122,0.122,-0.061,163.542,-43.561,-80.283
16189,0.6978,0.2046,-0.7065,-0.122,-0.122,-0.061,163.542,-43.555,-80.283
16199,0.6978,0.2061,-0.7090,-0.183,-0.183,-0.061,163.542,-43.555,-80.283
16209,0.6987,0.2061,-0.7085,-0.244,-0.244,-0.122,163.542,-43.550,-80.283
16219,0.6973,0.2036,-0.7090,-0.244,-0.183,-0.122,163.542,-43.544,-80.283
16229,0.6958,0.2065,-0.7070,-0.366,-0.122,-0.061,163.542,-43.544,-80.283
16239,0.6953,0.2070,-0.7046,-0.366,-0.183,-0.061,163.537,-43.539,-80.283
16249,0.6948,0.2075,-0.7031,-0.366,-0.183,-0.061,163.537,-43.539,-80.283
16259,0.6948,0.2080,-0.7012,-0.305,-0.244,0.000,163.531,-43.533,-80.283
16269,0.6943,0.2119,-0.6992,-0.244,-0.244,0.061,163.526,-43.533,-80.283
16279,0.6948,0.2095,-0.6997,-0.244,-0.183,0.122,163.526,-43.533,-80.283
16289,0.6929,0.2124,-0.6987,-0.183,-0.122,0.122,163.521,-43.533,-80.283
16299,0.6929,0.2109,-0.6997,-0.122,0.000,0.122,163.515,-43.533,-80.283
16309,0.6958,0.2090,-0.7012,0.000,0.061,0.183,163.515,-43.533,-80.283
16319,0.6958,0.2065,-0.7026,0.061,0.183,0.122,163.521,-43.533,-80.283
16329,0.6978,0.2056,-0.7041,0.000,0.244,0.122,163.521,-43.539,-80.283
16339,0.6958,0.2041,-0.7051,0.000,0.244,0.122,163.526,-43.539,-80.283
16349,0.6963,0.2031,-0.7065,-0.122,0.183,0.061,163.526,-43.539,-80.283
16359,0.6987,0.2041,-0.7080,-0.183,0.061,0.061,163.531,-43.539,-80.283
16369,0.6978,0.2046,-0.7070,-0.183,0.000,0.061,163.531,-43.539,-80.283
16379,0.6968,0.2046,-0.7061,-0.244,-0.122,0.000,163.531,-43.539,-80.283
16389,0.6968,0.2051,-0.7026,-0.305,-0.122,0.000,163.531,-43.539,-80.283
16399,0.6953,0.2070,-0.7026,-0.366,-0.061,-0.061,163.531,-43.539,-80.283
16409,0.6938,0.2090,-0.7041,-0.366,0.000,-0.061,163.526,-43.533,-80.283
16419,0.6934,0.2075,-0.7021,-0.366,0.000,-0.061,163.521,-43.533,-80.283
16429,0.6958,0.2104,-0.7012,-0.305,0.061,-0.061,163.515,-43.533,-80.283
16439,0.6973,0.2119,-0.7012,-0.244,0.122,0.000,163.510,-43.539,-80.283
16449,0.6973,0.2085,-0.7031,-0.244,0.122,0.000,163.504,-43.539,-80.283
16459,0.6978,0.2104,-0.6987,-0.183,0.000,0.061,163.499,-43.539,-80.283
16469,0.6973,0.2104,-0.7021,-0.122,0.061,0.061,163.499,-43.544,-80.283
16479,0.6963,0.2075,-0.7056,-0.122,0.000,0.061,163.499,-43.539,-80.283
16489,0.6968,0.2075,-0.7012,-0.061,-0.061,0.061,163.499,-43.539,-80.283
16499,0.6958,0.2085,-0.7002,-0.122,-0.061,0.061,163.499,-43.539,-80.283
16509,0.6953,0.2070,-0.7031,-0.122,-0.061,0.000,163.499,-43.539,-80.283
16519,0.6968,0.2070,-0.7036,-0.122,-0.061,0.000,163.499,-43.539,-80.283
16529,0.6978,0.2061,-0.7021,-0.122,-0.061,-0.061,163.499,-43.539,-80.283
16539,0.6953,0.2041,-0.7017,-0.122,0.000,-0.061,163.499,-43.539,-80.283
16549,0.6958,0.2056,-0.7056,-0.183,-0.061,-0.061,163.499,-43.539,-80.283
16559,0.6963,0.2061,-0.7041,-0.183,0.000,-0.061,163.499,-43.539,-80.283
16569,0.6948,0.2090,-0.7046,-0.244,0.000,-0.061,163.493,-43.539,-80.283
16579,0.6929,0.2095,-0.7007,-0.183,0.000,-0.061,163.493,-43.533,-80.283
16589,0.6934,0.2090,-0.7031,-0.122,-0.061,-0.061,163.488,-43.533,-80.283
16599,0.6943,0.2085,-0.6992,-0.122,-0.061,-0.061,163.488,-43.533,-80.283
16609,0.6963,0.2085,-0.7002,-0.122,0.000,0.000,163.482,-43.533,-80.283
16619,0.6963,0.2095,-0.6987,-0.061,0.061,0.000,163.482,-43.539,-80.283
16629,0.6963,0.2100,-0.7017,0.000,0.122,0.000,163.482,-43.539,-80.283
16639,0.6953,0.2104,-0.7017,0.122,0.183,-0.061,163.477,-43.539,-80.283
16649,0.6963,0.2104,-0.7021,0.061,0.183,-0.061,163.477,-43.539,-80.283
16659,0.6963,0.2104,-0.7017,0.122,0.122,0.000,163.477,-43.544,-80.283
16669,0.6978,0.2104,-0.7036,0.244,0.122,0.000,163.477,-43.544,-80.283
16680,0.6992,0.2075,-0.7026,0.305,0.061,0.000,163.482,-43.544,-80.283
16689,0.7002,0.2046,-0.7041,0.427,0.061,0.000,163.488,-43.550,-80.283
16699,0.6978,0.2051,-0.7065,0.366,0.061,0.000,163.493,-43.550,-80.283
16709,0.6978,0.2051,-0.7046,0.305,0.000,0.000,163.499,-43.550,-80.283
16719,0.6968,0.2051,-0.7031,0.183,-0.061,0.000,163.504,-43.550,-80.283
16729,0.6978,0.2046,-0.7031,0.122,0.000,0.000,163.510,-43.550,-80.283
16739,0.6982,0.2036,-0.7051,0.061,-0.061,0.000,163.515,-43.550,-80.283
16749,0.6978,0.2051,-0.7026,0.061,-0.061,0.000,163.515,-43.550,-80.283
16759,0.6938,0.2085,-0.6997,-0.061,-0.122,0.000,163.515,-43.550,-80.283
16769,0.6938,0.2109,-0.7007,0.000,-0.244,-0.061,163.510,-43.544,-80.283
16779,0.6938,0.2080,-0.7007,0.061,-0.244,-0.122,163.510,-43.539,-80.283
