elapsed_ms,acc_x_g,acc_y_g,acc_z_g,gyro_x_dps,gyro_y_dps,gyro_z_dps,angle_x_deg,angle_y_deg,angle_z_deg
0,0.6934,0.2080,-0.7012,0.000,0.122,0.000,163.746,-43.429,-80.283
10,0.6929,0.2065,-0.7041,0.122,0.183,0.000,163.746,-43.434,-80.283
20,0.6953,0.2041,-0.7065,0.122,0.183,0.122,163.746,-43.434,-80.283
30,0.6948,0.2036,-0.7100,0.122,0.244,0.122,163.751,-43.434,-80.283
40,0.6943,0.2017,-0.7061,0.122,0.244,0.122,163.757,-43.440,-80.283
50,0.6919,0.2036,-0.7090,0.122,0.244,0.061,163.757,-43.440,-80.283
60,0.6938,0.2021,-0.7065,0.122,0.244,0.061,163.762,-43.440,-80.283
70,0.6948,0.2021,-0.7070,0.061,0.122,0.000,163.768,-43.440,-80.283
80,0.6934,0.2026,-0.7056,-0.061,0.061,0.000,163.768,-43.440,-80.283
90,0.6938,0.2021,-0.7061,-0.122,0.061,0.061,163.768,-43.440,-80.283
100,0.6929,0.2031,-0.7051,-0.122,0.061,0.061,163.768,-43.440,-80.283
110,0.6943,0.2051,-0.7051,-0.183,0.122,0.061,163.768,-43.440,-80.283
120,0.6914,0.2065,-0.7041,-0.244,0.183,0.061,163.762,-43.440,-80.283
130,0.6943,0.2056,-0.7031,-0.244,0.244,0.061,163.762,-43.445,-80.283
140,0.6948,0.2075,-0.7041,-0.183,0.244,0.061,163.757,-43.445,-80.283
150,0.6948,0.2061,-0.7026,-0.122,0.305,0.061,163.757,-43.451,-80.283
160,0.6934,0.2070,-0.7036,0.000,0.244,0.122,163.751,-43.451,-80.283
170,0.6934,0.2075,-0.7041,0.061,0.244,0.122,163.751,-43.456,-80.283
180,0.6943,0.2065,-0.7051,0.122,0.122,0.061,163.751,-43.456,-80.283
190,0.6938,0.2051,-0.7056,0.183,0.122,0.000,163.757,-43.456,-80.283
200,0.6934,0.2026,-0.7041,0.122,0.122,0.000,163.757,-43.456,-80.283
210,0.6938,0.2041,-0.7036,0.122,0.122,0.000,163.762,-43.456,-80.283
220,0.6938,0.2041,-0.7036,0.122,0.122,0.061,163.762,-43.462,-80.283
230,0.6943,0.2051,-0.7061,0.061,0.244,0.000,163.762,-43.462,-80.283
240,0.6943,0.2041,-0.7075,0.061,0.305,0.000,163.762,-43.462,-80.283
250,0.6938,0.2036,-0.7051,0.000,0.305,-0.061,163.762,-43.462,-80.283
261,0.6958,0.2056,-0.7061,0.000,0.305,0.000,163.762,-43.467,-80.283
270,0.6943,0.2051,-0.7065,-0.061,0.122,0.000,163.762,-43.467,-80.283
280,0.6953,0.2051,-0.7036,0.000,0.061,0.000,163.762,-43.467,-80.283
290,0.6953,0.2041,-0.7075,0.061,0.000,0.000,163.762,-43.467,-80.283
300,0.6958,0.2041,-0.7056,0.122,-0.061,0.000,163.768,-43.467,-80.283
310,0.6934,0.2061,-0.7061,0.061,-0.061,0.000,163.768,-43.462,-80.283
320,0.6948,0.2056,-0.7036,0.000,0.000,-0.061,163.768,-43.462,-80.283
330,0.6963,0.2041,-0.7046,-0.061,0.061,-0.061,163.768,-43.467,-80.283
340,0.6968,0.2046,-0.7036,-0.061,0.061,-0.122,163.762,-43.467,-80.283
350,0.6938,0.2056,-0.7051,-0.122,0.000,-0.061,163.762,-43.467,-80.283
360,0.6924,0.2036,-0.7036,-0.122,0.000,0.000,163.762,-43.462,-80.283
370,0.6919,0.2046,-0.7002,-0.122,-0.061,0.000,163.762,-43.462,-80.283
380,0.6934,0.2051,-0.7017,-0.183,0.000,-0.061,163.757,-43.462,-80.283
390,0.6948,0.2061,-0.7036,-0.244,0.122,-0.061,163.751,-43.467,-80.283
400,0.6948,0.2065,-0.7041,-0.244,0.183,0.000,163.751,-43.467,-80.283
410,0.6943,0.2065,-0.7070,-0.244,0.305,0.000,163.746,-43.467,-80.283
420,0.6978,0.2104,-0.7100,-0.122,0.366,0.000,163.740,-43.473,-80.283
430,0.6973,0.2056,-0.7070,0.000,0.366,0.000,163.740,-43.473,-80.283
440,0.6978,0.2021,-0.7046,0.122,0.244,0.000,163.740,-43.478,-80.283
450,0.6978,0.2007,-0.7036,0.122,0.000,0.000,163.746,-43.478,-80.283
460,0.6968,0.2017,-0.7007,0.122,-0.244,0.122,163.751,-43.478,-80.283
470,0.6958,0.2046,-0.6997,-0.061,-0.305,0.183,163.751,-43.478,-80.283
480,0.6938,0.2036,-0.6978,-0.122,-0.305,0.183,163.757,-43.478,-80.283
490,0.6929,0.2046,-0.7002,-0.183,-0.183,0.061,163.751,-43.478,-80.283
500,0.6919,0.2041,-0.7046,-0.244,-0.061,0.122,163.751,-43.478,-80.283
510,0.6929,0.2061,-0.7085,-0.244,0.000,0.061,163.751,-43.473,-80.283
520,0.6963,0.2056,-0.7085,-0.183,0.000,0.061,163.751,-43.473,-80.283
530,0.6968,0.2056,-0.7109,-0.061,0.122,0.061,163.751,-43.473,-80.283
540,0.6968,0.2080,-0.7100,0.061,0.122,0.061,163.751,-43.473,-80.283
550,0.6958,0.2080,-0.7114,0.244,0.061,0.061,163.757,-43.467,-80.283
560,0.6948,0.2056,-0.7090,0.366,0.061,0.122,163.757,-43.467,-80.283
570,0.6943,0.2056,-0.7070,0.427,0.000,0.122,163.762,-43.467,-80.283
580,0.6943,0.2041,-0.7036,0.488,-0.061,0.122,163.773,-43.467,-80.283
590,0.6948,0.2036,-0.7026,0.427,-0.122,0.061,163.779,-43.467,-80.283
600,0.6948,0.2031,-0.7002,0.427,-0.122,0.000,163.784,-43.467,-80.283
610,0.6948,0.2036,-0.6978,0.305,-0.061,0.000,163.784,-43.467,-80.283
620,0.6963,0.2036,-0.6968,0.183,-0.061,-0.061,163.784,-43.473,-80.283
630,0.6958,0.2031,-0.6987,0.061,-0.122,-0.061,163.784,-43.473,-80.283
640,0.6978,0.2012,-0.6997,0.000,-0.122,-0.061,163.790,-43.473,-80.283
650,0.6992,0.2021,-0.7007,-0.061,-0.183,-0.061,163.790,-43.478,-80.283
660,0.6982,0.2051,-0.7031,-0.061,-0.305,-0.122,163.784,-43.473,-80.283
670,0.6982,0.2036,-0.7036,0.000,-0.427,-0.061,163.790,-43.473,-80.283
680,0.6987,0.2051,-0.7085,0.061,-0.427,-0.122,163.790,-43.467,-80.283
690,0.6968,0.2031,-0.7100,0.122,-0.366,-0.183,163.790,-43.462,-80.283
700,0.6958,0.2017,-0.7129,0.122,-0.366,-0.183,163.795,-43.456,-80.283
710,0.6968,0.1997,-0.7095,0.122,-0.488,-0.183,163.801,-43.451,-80.283
720,0.6938,0.2002,-0.7075,0.122,-0.549,-0.305,163.806,-43.445,-80.283
730,0.6934,0.2002,-0.7046,0.000,-0.671,-0.305,163.806,-43.434,-80.283
740,0.6924,0.2017,-0.7012,-0.122,-0.732,-0.183,163.812,-43.429,-80.283
750,0.6909,0.2056,-0.6973,-0.183,-0.732,-0.183,163.806,-43.423,-80.283
760,0.6909,0.2080,-0.6963,-0.305,-0.610,-0.183,163.795,-43.418,-80.283
770,0.6909,0.2095,-0.6968,-0.488,-0.427,-0.244,163.784,-43.412,-80.283
780,0.6919,0.2104,-0.7007,-0.488,-0.244,-0.244,163.773,-43.412,-80.283
790,0.6919,0.2095,-0.7021,-0.305,-0.122,-0.183,163.768,-43.412,-80.283
800,0.6924,0.2085,-0.7065,-0.244,0.061,-0.183,163.762,-43.407,-80.283
810,0.6934,0.2080,-0.7075,-0.122,0.183,-0.183,163.757,-43.407,-80.283
820,0.6938,0.2051,-0.7095,0.061,0.183,-0.122,163.757,-43.407,-80.283
830,0.6938,0.2041,-0.7114,0.183,0.183,-0.061,163.757,-43.407,-80.283
840,0.6948,0.2026,-0.7114,0.305,0.061,0.000,163.768,-43.407,-80.283
850,0.6943,0.2012,-0.7100,0.427,-0.061,0.061,163.773,-43.401,-80.283
860,0.6943,0.2021,-0.7100,0.427,-0.183,0.122,163.784,-43.401,-80.283
870,0.6934,0.2002,-0.7075,0.366,-0.244,0.122,163.795,-43.396,-80.283
880,0.6934,0.1978,-0.7070,0.305,-0.305,0.122,163.806,-43.396,-80.283
890,0.6909,0.2012,-0.7036,0.061,-0.244,0.122,163.806,-43.391,-80.283
900,0.6929,0.2046,-0.7007,-0.183,-0.122,0.122,163.806,-43.391,-80.283
910,0.6924,0.2061,-0.7017,-0.366,0.000,0.122,163.801,-43.396,-80.283
920,0.6919,0.2070,-0.7026,-0.427,0.122,0.122,163.795,-43.396,-80.283
930,0.6929,0.2065,-0.7041,-0.427,0.183,0.122,163.790,-43.396,-80.283
940,0.6938,0.2051,-0.7041,-0.366,0.183,0.122,163.790,-43.401,-80.283
950,0.6943,0.2046,-0.7046,-0.366,0.244,0.122,163.784,-43.401,-80.283
960,0.6929,0.2046,-0.7036,-0.366,0.305,0.122,163.784,-43.407,-80.283
970,0.6953,0.2026,-0.7031,-0.366,0.305,0.061,163.779,-43.412,-80.283
980,0.6938,0.2031,-0.7065,-0.366,0.305,0.061,163.779,-43.412,-80.283
990,0.6953,0.2026,-0.7065,-0.366,0.244,0.000,163.773,-43.412,-80.283
1000,0.6958,0.2036,-0.7051,-0.366,0.061,0.000,163.773,-43.418,-80.283
1010,0.6973,0.2007,-0.7036,-0.366,0.000,-0.061,163.773,-43.418,-80.283
1020,0.6973,0.2012,-0.7012,-0.488,-0.061,-0.061,163.768,-43.418,-80.283
1030,0.6963,0.2026,-0.7031,-0.671,-0.122,-0.122,163.762,-43.418,-80.283
1040,0.6963,0.2031,-0.7026,-0.732,-0.061,-0.122,163.757,-43.423,-80.283
1050,0.6968,0.2051,-0.7026,-0.732,-0.061,-0.122,163.746,-43.423,-80.283
1060,0.6953,0.2075,-0.7046,-0.732,-0.061,-0.122,163.735,-43.423,-80.283
1070,0.6934,0.2061,-0.7070,-0.732,-0.122,-0.122,163.729,-43.418,-80.283
1080,0.6934,0.2061,-0.7041,-0.671,-0.122,-0.122,163.724,-43.418,-80.283
1090,0.6929,0.2051,-0.7080,-0.610,-0.122,-0.122,163.718,-43.412,-80.283
1100,0.6948,0.2051,-0.7100,-0.427,-0.122,-0.183,163.713,-43.412,-80.283
1110,0.6948,0.2065,-0.7075,-0.366,-0.061,-0.122,163.707,-43.407,-80.283
1120,0.6924,0.2065,-0.7085,-0.244,-0.061,-0.061,163.707,-43.407,-80.283
1130,0.6919,0.2065,-0.7070,-0.122,-0.122,-0.061,163.702,-43.401,-80.283
1140,0.6929,0.2061,-0.7056,0.000,-0.122,-0.061,163.702,-43.401,-80.283
1150,0.6948,0.2051,-0.7061,0.122,-0.061,-0.122,163.707,-43.401,-80.283
1160,0.6934,0.2061,-0.7046,0.061,0.000,-0.122,163.707,-43.396,-80.283
1170,0.6938,0.2051,-0.7046,0.000,0.122,-0.061,163.702,-43.401,-80.283
1180,0.6968,0.2061,-0.7080,0.000,0.183,-0.061,163.702,-43.401,-80.283
1190,0.6978,0.2070,-0.7056,0.000,0.305,-0.122,163.702,-43.407,-80.283
1200,0.6958,0.2036,-0.7065,0.000,0.244,-0.061,163.702,-43.407,-80.283
1210,0.6958,0.2007,-0.7051,0.000,0.000,-0.061,163.707,-43.407,-80.283
1220,0.6953,0.2031,-0.7056,-0.061,-0.244,-0.122,163.707,-43.407,-80.283
1230,0.6968,0.2031,-0.7012,-0.244,-0.244,-0.061,163.707,-43.407,-80.283
1240,0.6958,0.2021,-0.6978,-0.488,-0.366,-0.061,163.702,-43.407,-80.283
1250,0.6943,0.2026,-0.6982,-0.610,-0.488,-0.061,163.696,-43.401,-80.283
1260,0.6958,0.2021,-0.7012,-0.671,-0.488,-0.061,163.696,-43.401,-80.283
1270,0.6934,0.2041,-0.7012,-0.732,-0.366,-0.122,163.691,-43.401,-80.283
1280,0.6963,0.2051,-0.7046,-0.732,-0.366,-0.183,163.680,-43.396,-80.283
1290,0.6948,0.2085,-0.7061,-0.671,-0.305,-0.122,163.674,-43.391,-80.283
1300,0.6968,0.2090,-0.7100,-0.549,-0.244,-0.122,163.669,-43.391,-80.283
1310,0.6958,0.2095,-0.7109,-0.366,-0.244,-0.061,163.663,-43.385,-80.283
1320,0.6958,0.2095,-0.7114,-0.183,-0.244,0.000,163.658,-43.380,-80.283
1330,0.6929,0.2085,-0.7085,0.061,-0.244,0.000,163.663,-43.374,-80.283
1340,0.6938,0.2090,-0.7095,0.183,-0.244,0.061,163.663,-43.374,-80.283
1350,0.6948,0.2090,-0.7070,0.061,-0.366,0.122,163.663,-43.369,-80.283
1360,0.6914,0.2075,-0.7021,0.061,-0.549,0.183,163.669,-43.363,-80.283
1370,0.6899,0.2085,-0.6982,0.061,-0.610,0.183,163.669,-43.358,-80.283
1380,0.6890,0.2085,-0.6958,0.122,-0.549,0.122,163.669,-43.358,-80.283
1390,0.6880,0.2109,-0.6958,0.183,-0.488,0.122,163.669,-43.352,-80.283
1400,0.6880,0.2085,-0.6943,0.305,-0.366,0.000,163.669,-43.352,-80.283
1410,0.6895,0.2051,-0.6958,0.305,-0.122,0.000,163.669,-43.352,-80.283
1420,0.6909,0.2056,-0.7012,0.244,0.122,-0.061,163.669,-43.352,-80.283
1430,0.6929,0.2056,-0.7036,0.183,0.244,-0.061,163.674,-43.358,-80.283
1440,0.6948,0.2041,-0.7070,0.183,0.244,-0.061,163.674,-43.358,-80.283
1450,0.6958,0.2026,-0.7104,0.183,0.244,-0.061,163.680,-43.358,-80.283
1460,0.6978,0.2012,-0.7119,0.183,0.122,-0.122,163.685,-43.358,-80.283
1470,0.6982,0.1997,-0.7124,0.122,0.122,-0.061,163.691,-43.363,-80.283
1480,0.7002,0.2012,-0.7114,-0.061,0.000,0.000,163.696,-43.363,-80.283
1490,0.6973,0.2017,-0.7100,-0.122,-0.244,0.000,163.702,-43.358,-80.283
1500,0.6978,0.2041,-0.7070,-0.122,-0.427,-0.061,163.702,-43.358,-80.283
1510,0.6953,0.2031,-0.7046,-0.122,-0.549,-0.061,163.702,-43.352,-80.283
1520,0.6934,0.2036,-0.7002,-0.244,-0.549,0.000,163.702,-43.352,-80.283
1530,0.6938,0.2056,-0.6997,-0.366,-0.549,0.000,163.702,-43.347,-80.283
1540,0.6919,0.2080,-0.6982,-0.549,-0.427,0.000,163.691,-43.347,-80.283
1550,0.6909,0.2104,-0.7002,-0.549,-0.366,0.000,163.685,-43.341,-80.283
1560,0.6929,0.2090,-0.7017,-0.427,-0.244,0.000,163.680,-43.341,-80.283
1570,0.6938,0.2095,-0.7051,-0.244,-0.122,0.000,163.674,-43.341,-80.283
1580,0.6958,0.2080,-0.7080,-0.122,-0.061,0.061,163.674,-43.341,-80.283
1590,0.6953,0.2046,-0.7075,-0.061,-0.061,0.061,163.674,-43.336,-80.283
1600,0.6948,0.2046,-0.7080,-0.122,-0.122,0.000,163.674,-43.336,-80.283
1610,0.6943,0.2056,-0.7075,-0.244,-0.244,0.061,163.674,-43.336,-80.283
1620,0.6914,0.2031,-0.7080,-0.305,-0.305,0.000,163.674,-43.330,-80.283
1630,0.6924,0.2021,-0.7065,-0.366,-0.366,-0.061,163.680,-43.325,-80.283
1640,0.6919,0.2031,-0.7041,-0.427,-0.305,-0.061,163.674,-43.325,-80.283
1650,0.6904,0.2046,-0.7021,-0.549,-0.305,0.000,163.674,-43.319,-80.283
1660,0.6895,0.2070,-0.7026,-0.549,-0.244,0.000,163.663,-43.319,-80.283
1670,0.6890,0.2100,-0.7041,-0.549,-0.061,0.000,163.658,-43.319,-80.283
1680,0.6899,0.2090,-0.7041,-0.366,0.061,0.000,163.652,-43.314,-80.283
1690,0.6929,0.2090,-0.7051,-0.183,0.183,0.000,163.647,-43.319,-80.283
1700,0.6943,0.2075,-0.7061,-0.122,0.183,0.061,163.647,-43.319,-80.283
1710,0.6938,0.2080,-0.7061,0.000,0.183,0.122,163.647,-43.319,-80.283
1720,0.6943,0.2075,-0.7070,0.122,0.122,0.122,163.647,-43.325,-80.283
1730,0.6934,0.2065,-0.7065,0.244,0.061,0.183,163.652,-43.325,-80.283
1740,0.6963,0.2051,-0.7065,0.305,-0.061,0.122,163.658,-43.325,-80.283
1750,0.6953,0.2051,-0.7075,0.305,-0.122,0.183,163.663,-43.325,-80.283
1760,0.6948,0.2036,-0.7056,0.183,-0.183,0.122,163.669,-43.325,-80.283
1770,0.6934,0.2036,-0.7056,0.122,-0.244,0.061,163.674,-43.325,-80.283
1780,0.6943,0.2036,-0.7070,-0.061,-0.183,0.061,163.680,-43.319,-80.283
1790,0.6938,0.2046,-0.7021,-0.183,-0.122,0.000,163.680,-43.319,-80.283
1800,0.6958,0.2075,-0.7026,-0.305,-0.183,0.061,163.674,-43.325,-80.283
1810,0.6948,0.2090,-0.7046,-0.366,-0.122,0.000,163.669,-43.325,-80.283
1820,0.6953,0.2075,-0.7031,-0.305,-0.122,0.061,163.669,-43.325,-80.283
1830,0.6968,0.2051,-0.7036,-0.244,0.000,-0.061,163.663,-43.325,-80.283
1840,0.6963,0.2065,-0.7031,-0.183,0.000,-0.061,163.663,-43.325,-80.283
1850,0.6963,0.2061,-0.7031,-0.122,-0.061,-0.061,163.658,-43.330,-80.283
1860,0.6973,0.2065,-0.7056,-0.183,-0.183,0.000,163.658,-43.330,-80.283
1870,0.6968,0.2065,-0.7041,-0.183,-0.244,0.061,163.658,-43.330,-80.283
1880,0.6953,0.2051,-0.7051,-0.183,-0.305,0.000,163.658,-43.325,-80.283
1890,0.6968,0.2056,-0.7056,-0.183,-0.366,-0.061,163.658,-43.325,-80.283
1900,0.6968,0.2056,-0.7041,-0.244,-0.366,-0.122,163.658,-43.325,-80.283
1910,0.6968,0.2051,-0.7041,-0.305,-0.427,-0.061,163.652,-43.319,-80.283
1920,0.6938,0.2070,-0.7075,-0.366,-0.488,-0.061,163.652,-43.314,-80.283
1930,0.6919,0.2070,-0.7051,-0.366,-0.427,-0.122,163.647,-43.308,-80.283
1940,0.6914,0.2075,-0.7056,-0.366,-0.427,-0.183,163.641,-43.303,-80.283
1950,0.6909,0.2075,-0.7061,-0.366,-0.305,-0.183,163.641,-43.303,-80.283
1960,0.6899,0.2046,-0.7075,-0.366,-0.244,-0.122,163.636,-43.297,-80.283
1970,0.6924,0.2075,-0.7080,-0.427,-0.183,-0.061,163.636,-43.292,-80.283
1980,0.6914,0.2085,-0.7065,-0.305,-0.183,-0.122,163.630,-43.292,-80.283
1990,0.6929,0.2085,-0.7061,-0.183,-0.122,-0.122,163.625,-43.286,-80.283
2000,0.6924,0.2095,-0.7046,-0.122,-0.061,-0.061,163.619,-43.286,-80.283
2010,0.6938,0.2075,-0.7056,-0.122,-0.122,-0.061,163.619,-43.286,-80.283
2020,0.6914,0.2075,-0.7012,-0.122,-0.305,-0.061,163.619,-43.286,-80.283
2030,0.6924,0.2070,-0.7036,-0.122,-0.427,0.000,163.619,-43.281,-80.283
2040,0.6914,0.2070,-0.7002,-0.122,-0.427,0.061,163.619,-43.281,-80.283
2050,0.6914,0.2095,-0.7012,-0.061,-0.427,0.122,163.619,-43.275,-80.283
2060,0.6919,0.2085,-0.6992,-0.122,-0.427,0.122,163.614,-43.275,-80.283
2070,0.6924,0.2061,-0.7017,-0.122,-0.305,0.183,163.619,-43.275,-80.283
2080,0.6943,0.2056,-0.7065,-0.061,-0.183,0.122,163.619,-43.275,-80.283
2090,0.6934,0.2056,-0.7090,0.000,-0.061,0.061,163.625,-43.275,-80.283
2100,0.6919,0.2075,-0.7114,0.122,0.000,0.061,163.625,-43.270,-80.283
2110,0.6924,0.2061,-0.7129,0.183,0.061,0.061,163.630,-43.270,-80.283
2119,0.6929,0.2061,-0.7129,0.244,0.000,0.000,163.636,-43.264,-80.283
2130,0.6914,0.2056,-0.7139,0.366,0.061,0.061,163.641,-43.264,-80.283
2140,0.6929,0.2051,-0.7100,0.427,0.000,0.061,163.647,-43.264,-80.283
2150,0.6934,0.2041,-0.7061,0.366,-0.061,0.122,163.658,-43.264,-80.283
2160,0.6943,0.2070,-0.7026,0.366,-0.122,0.122,163.658,-43.264,-80.283
2170,0.6934,0.2070,-0.7012,0.305,-0.183,0.122,163.663,-43.264,-80.283
2180,0.6919,0.2046,-0.7012,0.244,-0.244,0.122,163.669,-43.264,-80.283
2190,0.6919,0.2056,-0.6997,0.122,-0.183,0.122,163.669,-43.270,-80.283
2200,0.6943,0.2061,-0.6982,0.000,-0.183,0.061,163.669,-43.270,-80.283
2210,0.6938,0.2070,-0.6997,0.000,-0.183,0.061,163.669,-43.270,-80.283
2219,0.6943,0.2070,-0.7021,0.000,-0.061,0.000,163.669,-43.270,-80.283
2230,0.6953,0.2056,-0.7056,-0.061,-0.061,-0.061,163.669,-43.275,-80.283
2240,0.6943,0.2056,-0.7080,-0.122,-0.061,-0.061,163.669,-43.275,-80.283
2250,0.6943,0.2061,-0.7085,-0.122,-0.122,-0.061,163.669,-43.270,-80.283
2260,0.6938,0.2041,-0.7100,-0.122,-0.244,-0.122,163.669,-43.270,-80.283
2270,0.6943,0.2036,-0.7109,-0.061,-0.122,-0.061,163.674,-43.264,-80.283
2279,0.6934,0.2031,-0.7095,0.000,-0.122,-0.122,163.674,-43.264,-80.283
2289,0.6919,0.2041,-0.7095,-0.061,-0.122,-0.122,163.674,-43.264,-80.283
2299,0.6895,0.2041,-0.7061,-0.122,-0.061,-0.122,163.674,-43.259,-80.283
2310,0.6909,0.2061,-0.7065,-0.183,-0.061,-0.122,163.674,-43.259,-80.283
2319,0.6899,0.2095,-0.7070,-0.366,0.000,-0.122,163.669,-43.259,-80.283
2329,0.6890,0.2085,-0.7051,-0.366,0.000,-0.122,163.663,-43.253,-80.283
2340,0.6904,0.2100,-0.7051,-0.366,0.061,-0.061,163.652,-43.253,-80.283
2349,0.6919,0.2104,-0.7051,-0.366,0.183,0.000,163.647,-43.259,-80.283
2359,0.6924,0.2104,-0.7046,-0.305,0.305,0.000,163.641,-43.259,-80.283
2369,0.6924,0.2080,-0.7075,-0.122,0.305,0.000,163.641,-43.264,-80.283
2379,0.6924,0.2085,-0.7080,0.000,0.305,0.061,163.636,-43.264,-80.283
2389,0.6929,0.2065,-0.7095,0.122,0.305,0.122,163.641,-43.264,-80.283
2399,0.6934,0.2051,-0.7085,0.183,0.244,0.061,163.647,-43.270,-80.283
2409,0.6938,0.2026,-0.7100,0.183,0.244,0.061,163.652,-43.270,-80.283
2419,0.6938,0.2017,-0.7080,0.061,0.183,0.061,163.658,-43.275,-80.283
2429,0.6953,0.2017,-0.7085,0.000,0.183,0.061,163.663,-43.275,-80.283
2439,0.6938,0.2007,-0.7075,-0.061,0.122,0.061,163.663,-43.281,-80.283
2449,0.6948,0.2041,-0.7056,-0.183,0.122,0.061,163.663,-43.281,-80.283
2459,0.6953,0.2036,-0.7041,-0.244,0.122,0.000,163.663,-43.286,-80.283
2469,0.6934,0.2036,-0.7026,-0.305,0.061,0.000,163.663,-43.286,-80.283
2479,0.6934,0.2070,-0.7031,-0.366,0.061,-0.061,163.658,-43.286,-80.283
2489,0.6958,0.2080,-0.7031,-0.366,0.061,-0.061,163.652,-43.292,-80.283
2499,0.6924,0.2090,-0.7031,-0.366,0.122,-0.061,163.647,-43.292,-80.283
2509,0.6899,0.2095,-0.7036,-0.366,0.183,-0.061,163.641,-43.292,-80.283
2519,0.6929,0.2080,-0.7051,-0.305,0.244,0.000,163.636,-43.297,-80.283
2529,0.6924,0.2056,-0.7056,-0.244,0.305,0.000,163.630,-43.297,-80.283
2539,0.6924,0.2051,-0.7046,-0.183,0.244,-0.061,163.630,-43.303,-80.283
2549,0.6919,0.2065,-0.7031,-0.122,0.183,0.000,163.630,-43.303,-80.283
2559,0.6934,0.2061,-0.7056,-0.122,0.183,0.000,163.630,-43.308,-80.283
2569,0.6924,0.2080,-0.7065,-0.061,0.122,0.000,163.625,-43.308,-80.283
2579,0.6914,0.2080,-0.7051,-0.061,0.122,0.000,163.625,-43.308,-80.283
2589,0.6919,0.2065,-0.7041,-0.122,0.183,0.000,163.625,-43.308,-80.283
2599,0.6924,0.2080,-0.7061,-0.183,0.244,-0.061,163.619,-43.314,-80.283
2609,0.6929,0.2075,-0.7095,-0.183,0.305,0.000,163.619,-43.314,-80.283
2619,0.6934,0.2056,-0.7070,-0.183,0.427,0.000,163.619,-43.314,-80.283
2629,0.6924,0.2056,-0.7090,-0.122,0.427,-0.061,163.619,-43.319,-80.283
2639,0.6938,0.2056,-0.7080,-0.122,0.488,-0.061,163.614,-43.325,-80.283
2649,0.6934,0.2061,-0.7075,-0.061,0.427,-0.061,163.614,-43.325,-80.283
2659,0.6943,0.2056,-0.7090,0.000,0.366,0.000,163.614,-43.330,-80.283
2669,0.6948,0.2070,-0.7070,0.061,0.305,0.061,163.619,-43.330,-80.283
2679,0.6929,0.2065,-0.7046,0.061,0.244,0.000,163.619,-43.336,-80.283
2689,0.6929,0.2075,-0.7036,0.122,0.305,0.000,163.619,-43.336,-80.283
2699,0.6934,0.2080,-0.7021,0.122,0.366,0.000,163.614,-43.341,-80.283
2709,0.6938,0.2095,-0.7031,0.122,0.427,0.000,163.614,-43.347,-80.283
2719,0.6953,0.2070,-0.7012,0.061,0.427,0.000,163.614,-43.352,-80.283
2729,0.6973,0.2065,-0.7012,-0.061,0.427,0.000,163.608,-43.363,-80.283
2739,0.6973,0.2041,-0.7021,-0.061,0.427,0.000,163.614,-43.369,-80.283
2749,0.6968,0.2070,-0.7046,-0.122,0.366,0.000,163.608,-43.374,-80.283
2760,0.6968,0.2041,-0.7056,-0.122,0.305,0.000,163.608,-43.374,-80.283
2769,0.6948,0.2031,-0.7046,-0.183,0.183,0.000,163.608,-43.380,-80.283
2779,0.6938,0.2051,-0.7061,-0.244,0.122,0.122,163.608,-43.380,-80.283
2789,0.6924,0.2056,-0.7056,-0.244,0.122,0.000,163.608,-43.380,-80.283
2799,0.6914,0.2046,-0.7056,-0.244,0.122,-0.122,163.608,-43.380,-80.283
2809,0.6929,0.2065,-0.7046,-0.305,0.122,-0.122,163.603,-43.380,-80.283
2819,0.6934,0.2075,-0.7056,-0.427,0.183,-0.061,163.597,-43.380,-80.283
2829,0.6943,0.2075,-0.7046,-0.427,0.244,-0.061,163.592,-43.385,-80.283
2839,0.6938,0.2075,-0.7041,-0.427,0.427,-0.061,163.586,-43.391,-80.283
2849,0.6948,0.2085,-0.7080,-0.366,0.488,-0.061,163.581,-43.391,-80.283
2859,0.6943,0.2080,-0.7046,-0.305,0.488,-0.061,163.575,-43.396,-80.283
2869,0.6953,0.2090,-0.7051,-0.183,0.366,-0.061,163.570,-43.401,-80.283
2879,0.6934,0.2075,-0.7017,0.000,0.122,0.122,163.570,-43.401,-80.283
2889,0.6924,0.2080,-0.6987,0.000,0.061,0.122,163.570,-43.401,-80.283
2899,0.6914,0.2070,-0.7002,-0.061,0.061,0.122,163.570,-43.407,-80.283
2909,0.6938,0.2075,-0.7012,0.000,0.183,0.061,163.570,-43.407,-80.283
2919,0.6929,0.2070,-0.7056,0.061,0.305,0.061,163.570,-43.412,-80.283
2929,0.6934,0.2065,-0.7051,0.122,0.427,0.000,163.575,-43.412,-80.283
2939,0.6948,0.2085,-0.7100,0.122,0.549,-0.061,163.575,-43.418,-80.283
2949,0.6948,0.2090,-0.7114,0.183,0.549,-0.061,163.575,-43.418,-80.283
2959,0.6963,0.2090,-0.7124,0.244,0.610,0.000,163.575,-43.423,-80.283
2969,0.6963,0.2090,-0.7104,0.366,0.549,0.061,163.575,-43.423,-80.283
2979,0.6963,0.2090,-0.7075,0.488,0.488,0.061,163.581,-43.429,-80.283
2989,0.6943,0.2075,-0.7070,0.549,0.488,0.061,163.586,-43.434,-80.283
2999,0.6948,0.2070,-0.7017,0.488,0.366,0.122,163.592,-43.440,-80.283
3009,0.6953,0.2065,-0.6997,0.427,0.305,0.183,163.597,-43.445,-80.283
3019,0.6958,0.2046,-0.6992,0.366,0.305,0.183,163.603,-43.451,-80.283
3029,0.6973,0.2036,-0.6982,0.183,0.305,0.122,163.603,-43.456,-80.283
3039,0.6992,0.2041,-0.6968,0.061,0.366,0.061,163.608,-43.467,-80.283
3049,0.6992,0.2061,-0.6992,-0.061,0.366,0.061,163.603,-43.473,-80.283
3059,0.7002,0.2065,-0.6973,-0.244,0.366,-0.061,163.597,-43.478,-80.283
3069,0.6978,0.2056,-0.7007,-0.305,0.244,-0.122,163.597,-43.484,-80.283
3079,0.6987,0.2061,-0.7041,-0.366,0.122,-0.061,163.592,-43.484,-80.283
3089,0.6987,0.2075,-0.7051,-0.427,-0.061,-0.061,163.586,-43.484,-80.283
3099,0.6963,0.2056,-0.7095,-0.366,-0.183,-0.061,163.586,-43.484,-80.283
3109,0.6963,0.2046,-0.7095,-0.366,-0.183,-0.122,163.586,-43.478,-80.283
3119,0.6938,0.2036,-0.7114,-0.427,-0.122,-0.122,163.586,-43.473,-80.283
3129,0.6924,0.2056,-0.7100,-0.488,-0.061,-0.122,163.581,-43.473,-80.283
3139,0.6924,0.2065,-0.7065,-0.488,-0.061,-0.122,163.575,-43.467,-80.283
3149,0.6924,0.2080,-0.7036,-0.488,-0.122,-0.122,163.570,-43.467,-80.283
3159,0.6914,0.2090,-0.7026,-0.488,-0.061,-0.061,163.564,-43.462,-80.283
3169,0.6909,0.2104,-0.6982,-0.488,-0.061,0.000,163.553,-43.462,-80.283
3179,0.6924,0.2134,-0.6987,-0.427,0.000,0.000,163.548,-43.462,-80.283
3189,0.6914,0.2139,-0.6982,-0.305,0.061,0.061,163.537,-43.462,-80.283
3199,0.6934,0.2119,-0.7007,-0.183,0.183,0.122,163.531,-43.467,-80.283
3209,0.6938,0.2085,-0.7007,0.061,0.244,0.061,163.531,-43.467,-80.283
3219,0.6963,0.2070,-0.7046,0.183,0.305,0.061,163.537,-43.473,-80.283
3229,0.6948,0.2056,-0.7085,0.244,0.305,0.122,163.542,-43.473,-80.283
3239,0.6963,0.2031,-0.7065,0.183,0.244,0.061,163.548,-43.473,-80.283
3249,0.6982,0.2036,-0.7090,0.122,0.122,0.122,163.553,-43.478,-80.283
3260,0.6938,0.2041,-0.7080,0.122,0.122,0.122,163.559,-43.478,-80.283
3269,0.6953,0.2046,-0.7075,0.061,0.061,0.122,163.564,-43.473,-80.283
3279,0.6968,0.2056,-0.7046,-0.122,0.000,0.061,163.564,-43.478,-80.283
3289,0.6943,0.2075,-0.7056,-0.183,-0.061,0.000,163.564,-43.473,-80.283
3299,0.6953,0.2080,-0.7046,-0.244,0.000,-0.061,163.559,-43.473,-80.283
3309,0.6934,0.2070,-0.7031,-0.244,0.000,-0.061,163.559,-43.473,-80.283
3319,0.6968,0.2104,-0.7041,-0.244,0.000,-0.061,163.553,-43.473,-80.283
3329,0.6968,0.2095,-0.7021,-0.183,0.061,-0.061,163.548,-43.473,-80.283
3339,0.6982,0.2080,-0.7026,-0.122,0.061,-0.061,163.548,-43.478,-80.283
3349,0.6963,0.2085,-0.7026,0.000,0.000,0.000,163.542,-43.478,-80.283
3359,0.6963,0.2095,-0.7012,0.000,-0.061,0.000,163.542,-43.478,-80.283
3369,0.6958,0.2080,-0.7036,0.000,-0.183,0.061,163.542,-43.478,-80.283
3379,0.6968,0.2070,-0.7021,0.122,-0.244,0.061,163.548,-43.478,-80.283
3389,0.6973,0.2056,-0.7026,0.122,-0.244,0.000,163.548,-43.473,-80.283
3399,0.6948,0.2070,-0.7051,0.122,-0.183,0.000,163.553,-43.473,-80.283
3409,0.6953,0.2061,-0.7036,0.122,-0.244,0.000,163.553,-43.467,-80.283
3419,0.6953,0.2070,-0.7051,0.122,-0.183,-0.061,163.559,-43.467,-80.283
3429,0.6943,0.2051,-0.7061,0.122,-0.122,-0.122,163.559,-43.467,-80.283
3439,0.6943,0.2041,-0.7051,0.061,-0.183,-0.183,163.564,-43.462,-80.283
3449,0.6943,0.2041,-0.7041,0.000,-0.244,-0.122,163.564,-43.462,-80.283
3459,0.6924,0.2031,-0.7036,-0.061,-0.305,-0.122,163.570,-43.456,-80.283
3469,0.6899,0.2070,-0.7051,-0.061,-0.366,-0.122,163.570,-43.451,-80.283
3479,0.6924,0.2065,-0.7031,-0.122,-0.305,-0.061,163.564,-43.445,-80.283
3489,0.6938,0.2075,-0.7021,-0.122,-0.305,-0.183,163.564,-43.445,-80.283
3499,0.6919,0.2080,-0.7056,-0.122,-0.122,-0.183,163.564,-43.440,-80.283
3509,0.6914,0.2090,-0.7036,-0.183,-0.122,-0.183,163.559,-43.434,-80.283
3519,0.6938,0.2095,-0.7026,-0.183,-0.061,-0.122,163.553,-43.434,-80.283
3529,0.6929,0.2090,-0.7021,-0.122,-0.122,-0.122,163.548,-43.434,-80.283
3539,0.6924,0.2100,-0.7036,0.061,-0.061,-0.122,163.548,-43.429,-80.283
3549,0.6929,0.2090,-0.7046,0.183,-0.061,-0.122,163.548,-43.429,-80.283
3559,0.6934,0.2080,-0.7051,0.244,-0.061,-0.061,163.548,-43.429,-80.283
3569,0.6914,0.2075,-0.7061,0.244,-0.061,-0.061,163.553,-43.423,-80.283
3579,0.6899,0.2075,-0.7056,0.244,0.061,-0.061,163.553,-43.423,-80.283
3589,0.6899,0.2075,-0.7036,0.244,0.122,-0.122,163.559,-43.423,-80.283
3599,0.6899,0.2095,-0.7046,0.244,0.183,-0.122,163.559,-43.423,-80.283
3609,0.6904,0.2104,-0.7036,0.305,0.122,-0.122,163.553,-43.418,-80.283
3619,0.6929,0.2075,-0.7026,0.305,0.183,0.000,163.559,-43.423,-80.283
3629,0.6943,0.2075,-0.7046,0.305,0.366,0.061,163.559,-43.423,-80.283
3639,0.6958,0.2061,-0.7056,0.305,0.427,0.061,163.564,-43.429,-80.283
3649,0.6963,0.2095,-0.7046,0.305,0.549,0.061,163.564,-43.434,-80.283
3659,0.6968,0.2070,-0.7036,0.305,0.549,0.000,163.570,-43.440,-80.283
3669,0.6963,0.2051,-0.7041,0.305,0.427,-0.061,163.570,-43.445,-80.283
3679,0.6968,0.2036,-0.7031,0.305,0.183,0.000,163.575,-43.451,-80.283
3689,0.6958,0.2031,-0.7017,0.183,0.000,0.061,163.581,-43.451,-80.283
3699,0.6953,0.2061,-0.6997,0.000,-0.122,0.061,163.581,-43.451,-80.283
3709,0.6943,0.2070,-0.6987,-0.122,-0.122,0.122,163.581,-43.451,-80.283
3719,0.6943,0.2075,-0.7036,-0.183,0.000,0.061,163.581,-43.451,-80.283
3729,0.6953,0.2075,-0.7036,-0.183,0.122,0.061,163.581,-43.456,-80.283
3739,0.6968,0.2046,-0.7090,-0.122,0.244,0.061,163.581,-43.456,-80.283
3749,0.6968,0.2061,-0.7129,-0.122,0.305,0.061,163.581,-43.456,-80.283
3760,0.6958,0.2056,-0.7144,0.000,0.244,0.061,163.586,-43.456,-80.283
3769,0.6963,0.2041,-0.7144,0.061,0.122,0.000,163.592,-43.456,-80.283
3779,0.6958,0.2046,-0.7134,0.061,0.061,0.061,163.597,-43.451,-80.283
3789,0.6948,0.2041,-0.7095,0.122,-0.061,0.061,163.603,-43.451,-80.283
3799,0.6919,0.2070,-0.7056,0.122,-0.122,0.061,163.603,-43.445,-80.283
3809,0.6914,0.2056,-0.7021,0.000,-0.122,0.061,163.603,-43.445,-80.283
3819,0.6924,0.2080,-0.7021,-0.061,-0.061,0.061,163.603,-43.445,-80.283
3829,0.6914,0.2095,-0.7046,-0.061,0.000,0.000,163.603,-43.445,-80.283
3839,0.6924,0.2100,-0.7007,-0.061,0.122,0.000,163.597,-43.445,-80.283
3849,0.6934,0.2080,-0.6987,0.000,0.244,0.000,163.597,-43.445,-80.283
3859,0.6958,0.2070,-0.7021,0.061,0.366,-0.061,163.592,-43.451,-80.283
3869,0.6968,0.2065,-0.7031,0.061,0.305,0.000,163.592,-43.456,-80.283
3879,0.6963,0.2051,-0.7031,0.061,0.244,0.000,163.597,-43.462,-80.283
3889,0.6958,0.2046,-0.7051,0.061,0.061,0.000,163.597,-43.462,-80.283
3899,0.6948,0.2046,-0.7056,-0.061,-0.061,-0.061,163.597,-43.462,-80.283
3909,0.6929,0.2061,-0.7026,-0.183,-0.183,-0.061,163.597,-43.456,-80.283
3919,0.6943,0.2061,-0.7036,-0.183,-0.122,-0.061,163.597,-43.456,-80.283
3929,0.6938,0.2070,-0.7036,-0.183,0.000,0.000,163.597,-43.456,-80.283
3939,0.6938,0.2056,-0.7061,-0.183,0.122,0.000,163.597,-43.456,-80.283
3949,0.6919,0.2056,-0.7085,-0.183,0.244,-0.061,163.592,-43.456,-80.283
3959,0.6909,0.2095,-0.7041,-0.122,0.305,0.000,163.592,-43.456,-80.283
3969,0.6919,0.2075,-0.7056,-0.061,0.305,-0.061,163.586,-43.456,-80.283
3979,0.6948,0.2090,-0.7056,-0.061,0.183,0.000,163.586,-43.456,-80.283
3989,0.6948,0.2080,-0.7026,-0.061,0.061,0.061,163.586,-43.456,-80.283
3999,0.6948,0.2104,-0.7007,0.000,-0.122,0.183,163.586,-43.456,-80.283
4009,0.6968,0.2109,-0.7026,0.000,-0.183,0.183,163.586,-43.456,-80.283
4019,0.6963,0.2104,-0.7007,0.061,-0.122,0.122,163.581,-43.456,-80.283
4029,0.6958,0.2075,-0.7021,0.122,-0.122,0.061,163.586,-43.456,-80.283
4039,0.6953,0.2051,-0.7041,0.122,-0.061,0.000,163.586,-43.456,-80.283
4049,0.6958,0.2036,-0.7036,0.122,-0.061,-0.061,163.592,-43.456,-80.283
4059,0.6943,0.2036,-0.7061,0.122,-0.061,-0.122,163.592,-43.456,-80.283
4069,0.6929,0.2031,-0.7061,0.122,-0.061,-0.122,163.597,-43.456,-80.283
4079,0.6938,0.2051,-0.7061,0.000,-0.122,-0.122,163.597,-43.451,-80.283
4089,0.6929,0.2036,-0.7070,-0.122,-0.183,-0.122,163.603,-43.445,-80.283
4099,0.6929,0.2041,-0.7051,-0.305,-0.183,-0.122,163.597,-43.445,-80.283
4109,0.6919,0.2075,-0.7041,-0.427,-0.183,-0.183,163.592,-43.440,-80.283
4119,0.6919,0.2090,-0.7065,-0.427,-0.122,-0.122,163.586,-43.440,-80.283
4129,0.6919,0.2095,-0.7056,-0.427,-0.061,-0.122,163.581,-43.434,-80.283
4139,0.6904,0.2100,-0.7075,-0.366,-0.061,-0.061,163.575,-43.429,-80.283
4149,0.6895,0.2104,-0.7031,-0.305,0.000,0.000,163.570,-43.429,-80.283
4159,0.6924,0.2119,-0.7031,-0.061,0.061,0.000,163.570,-43.429,-80.283
4169,0.6924,0.2104,-0.7046,0.122,0.061,0.000,163.564,-43.429,-80.283
4179,0.6943,0.2100,-0.7056,0.244,0.183,0.000,163.564,-43.429,-80.283
4189,0.6914,0.2104,-0.7046,0.305,0.122,0.061,163.570,-43.429,-80.283
4199,0.6924,0.2095,-0.7026,0.427,0.122,0.122,163.570,-43.429,-80.283
4209,0.6943,0.2090,-0.7051,0.427,0.183,0.061,163.575,-43.429,-80.283
4219,0.6934,0.2056,-0.7031,0.366,0.122,0.000,163.581,-43.429,-80.283
4229,0.6924,0.2065,-0.7046,0.305,0.122,0.000,163.581,-43.429,-80.283
4239,0.6929,0.2051,-0.7051,0.122,0.183,0.000,163.586,-43.434,-80.283
4249,0.6919,0.2051,-0.7061,0.000,0.122,0.000,163.586,-43.434,-80.283
4260,0.6938,0.2046,-0.7056,-0.122,0.122,-0.061,163.586,-43.434,-80.283
4269,0.6919,0.2061,-0.7046,-0.183,0.122,-0.061,163.586,-43.434,-80.283
4279,0.6904,0.2075,-0.7051,-0.244,0.183,-0.061,163.581,-43.429,-80.283
4289,0.6899,0.2075,-0.7051,-0.244,0.244,-0.122,163.581,-43.429,-80.283
4299,0.6904,0.2085,-0.7041,-0.183,0.305,-0.122,163.575,-43.434,-80.283
4309,0.6904,0.2080,-0.7041,-0.122,0.366,-0.122,163.570,-43.434,-80.283
4319,0.6929,0.2085,-0.7070,-0.061,0.366,-0.122,163.570,-43.434,-80.283
4329,0.6948,0.2065,-0.7056,0.061,0.366,-0.061,163.570,-43.440,-80.283
4341,0.6953,0.2075,-0.7046,0.061,0.366,0.000,163.570,-43.440,-80.283
4349,0.6978,0.2070,-0.7041,0.061,0.366,0.061,163.570,-43.445,-80.283
4359,0.6982,0.2070,-0.7051,0.061,0.366,0.061,163.570,-43.451,-80.283
4369,0.6992,0.2065,-0.7056,0.000,0.305,0.122,163.570,-43.456,-80.283
4379,0.6982,0.2061,-0.7046,0.000,0.183,0.122,163.575,-43.456,-80.283
4389,0.6963,0.2065,-0.7046,-0.061,0.061,0.122,163.575,-43.462,-80.283
4399,0.6943,0.2051,-0.7017,-0.183,0.000,0.061,163.575,-43.462,-80.283
4409,0.6948,0.2061,-0.7026,-0.244,-0.061,0.000,163.570,-43.462,-80.283
4419,0.6934,0.2065,-0.7031,-0.366,-0.061,0.000,163.570,-43.462,-80.283
4429,0.6929,0.2095,-0.7026,-0.488,0.000,-0.061,163.564,-43.456,-80.283
4439,0.6909,0.2095,-0.7021,-0.488,0.061,-0.061,163.553,-43.456,-80.283
4449,0.6919,0.2070,-0.7026,-0.366,0.183,-0.122,163.548,-43.456,-80.283
4459,0.6929,0.2051,-0.7041,-0.244,0.305,-0.183,163.548,-43.462,-80.283
4469,0.6953,0.2061,-0.7070,-0.244,0.366,-0.183,163.542,-43.462,-80.283
4479,0.6963,0.2056,-0.7090,-0.244,0.366,-0.122,163.542,-43.462,-80.283
4489,0.6953,0.2061,-0.7075,-0.244,0.366,-0.061,163.542,-43.467,-80.283
4499,0.6963,0.2085,-0.7051,-0.183,0.305,0.000,163.537,-43.467,-80.283
4509,0.6938,0.2100,-0.7075,-0.122,0.305,-0.061,163.537,-43.467,-80.283
4519,0.6934,0.2085,-0.7065,-0.061,0.183,-0.061,163.531,-43.467,-80.283
4529,0.6929,0.2070,-0.7012,-0.122,0.061,-0.061,163.531,-43.467,-80.283
4539,0.6929,0.2075,-0.7012,-0.122,0.000,0.000,163.531,-43.467,-80.283
4549,0.6938,0.2075,-0.7007,-0.183,-0.061,0.122,163.531,-43.467,-80.283
4559,0.6948,0.2075,-0.7031,-0.183,0.000,0.183,163.531,-43.473,-80.283
4569,0.6948,0.2090,-0.7036,-0.244,-0.061,0.122,163.526,-43.467,-80.283
4579,0.6958,0.2114,-0.7026,-0.305,0.000,0.000,163.521,-43.473,-80.283
4589,0.6943,0.2080,-0.7061,-0.305,0.122,0.000,163.521,-43.473,-80.283
4599,0.6924,0.2090,-0.7075,-0.244,0.122,-0.061,163.515,-43.467,-80.283
4609,0.6929,0.2095,-0.7080,-0.122,0.122,-0.122,163.515,-43.467,-80.283
4619,0.6929,0.2100,-0.7085,-0.061,0.122,-0.122,163.510,-43.462,-80.283
4629,0.6934,0.2080,-0.7109,0.061,0.183,-0.122,163.510,-43.462,-80.283
4639,0.6938,0.2080,-0.7090,0.183,0.183,-0.061,163.515,-43.462,-80.283
4649,0.6953,0.2090,-0.7095,0.244,0.244,0.000,163.515,-43.462,-80.283
4659,0.6963,0.2090,-0.7090,0.305,0.366,0.061,163.521,-43.462,-80.283
4669,0.6953,0.2090,-0.7070,0.366,0.427,0.061,163.521,-43.467,-80.283
4679,0.6943,0.2080,-0.7056,0.366,0.427,0.061,163.526,-43.467,-80.283
4689,0.6953,0.2075,-0.7031,0.305,0.305,0.061,163.531,-43.473,-80.283
4699,0.6943,0.2095,-0.7036,0.305,0.122,0.061,163.531,-43.473,-80.283
4709,0.6929,0.2065,-0.7007,0.305,0.061,0.183,163.537,-43.473,-80.283
4719,0.6948,0.2075,-0.7007,0.244,0.000,0.183,163.542,-43.478,-80.283
4729,0.6953,0.2075,-0.6973,0.183,-0.061,0.122,163.542,-43.478,-80.283
4739,0.6953,0.2061,-0.6987,0.183,-0.122,0.122,163.548,-43.478,-80.283
4749,0.6958,0.2061,-0.7017,0.061,-0.061,0.122,163.548,-43.478,-80.283
4760,0.6958,0.2051,-0.7002,0.061,0.000,0.061,163.553,-43.484,-80.283
4769,0.6943,0.2041,-0.7065,0.122,-0.122,0.061,163.553,-43.478,-80.283
4779,0.6958,0.2041,-0.7070,0.122,-0.061,0.000,163.559,-43.478,-80.283
4789,0.6978,0.2026,-0.7090,0.061,-0.061,0.000,163.564,-43.478,-80.283
4799,0.6953,0.2056,-0.7100,0.000,0.000,-0.061,163.570,-43.473,-80.283
4809,0.6948,0.2061,-0.7119,-0.122,-0.061,-0.061,163.570,-43.473,-80.283
4819,0.6934,0.2065,-0.7080,-0.122,-0.183,-0.122,163.570,-43.467,-80.283
4829,0.6929,0.2090,-0.7031,-0.183,-0.305,-0.122,163.564,-43.462,-80.283
4839,0.6909,0.2100,-0.7031,-0.183,-0.366,-0.061,163.564,-43.456,-80.283
4849,0.6929,0.2104,-0.6982,-0.183,-0.305,-0.061,163.559,-43.456,-80.283
4859,0.6904,0.2119,-0.6953,-0.183,-0.305,0.000,163.553,-43.451,-80.283
4869,0.6919,0.2144,-0.6968,-0.122,-0.244,0.061,163.548,-43.451,-80.283
4879,0.6938,0.2134,-0.6982,0.061,-0.183,0.061,163.542,-43.451,-80.283
4889,0.6948,0.2119,-0.7007,0.244,-0.061,0.000,163.542,-43.451,-80.283
4899,0.6958,0.2095,-0.7031,0.366,0.000,0.000,163.542,-43.451,-80.283
4909,0.6938,0.2061,-0.7056,0.427,0.183,-0.061,163.548,-43.451,-80.283
4919,0.6948,0.2065,-0.7090,0.488,0.122,-0.061,163.553,-43.451,-80.283
4929,0.6943,0.2041,-0.7100,0.427,0.122,0.000,163.564,-43.451,-80.283
4939,0.6938,0.2046,-0.7085,0.366,0.061,-0.061,163.570,-43.451,-80.283
4949,0.6953,0.2036,-0.7100,0.305,-0.061,0.000,163.575,-43.445,-80.283
4959,0.6943,0.2026,-0.7065,0.244,-0.183,0.000,163.581,-43.445,-80.283
4969,0.6934,0.2046,-0.7051,0.122,-0.183,0.000,163.586,-43.440,-80.283
4979,0.6924,0.2070,-0.7046,0.000,-0.183,0.000,163.586,-43.440,-80.283
4989,0.6934,0.2085,-0.6997,-0.061,-0.183,0.000,163.586,-43.440,-80.283
4999,0.6934,0.2100,-0.6973,-0.061,-0.122,0.000,163.581,-43.440,-80.283
5009,0.6958,0.2100,-0.7002,-0.061,-0.122,0.000,163.581,-43.440,-80.283
5019,0.6943,0.2100,-0.7041,0.000,0.000,-0.061,163.575,-43.440,-80.283
5029,0.6943,0.2085,-0.7041,0.122,0.000,-0.061,163.575,-43.440,-80.283
5039,0.6963,0.2085,-0.7075,0.183,0.061,0.000,163.575,-43.440,-80.283
5049,0.6953,0.2061,-0.7056,0.244,0.000,-0.061,163.581,-43.434,-80.283
5059,0.6963,0.2046,-0.7056,0.366,-0.122,-0.061,163.586,-43.434,-80.283
5069,0.6938,0.2065,-0.7065,0.366,-0.244,0.000,163.592,-43.434,-80.283
5079,0.6924,0.2065,-0.7061,0.305,-0.244,0.000,163.597,-43.429,-80.283
5089,0.6914,0.2061,-0.7051,0.244,-0.305,0.000,163.603,-43.423,-80.283
5099,0.6914,0.2056,-0.7061,0.183,-0.305,0.000,163.608,-43.418,-80.283
5109,0.6929,0.2065,-0.7056,0.061,-0.244,0.000,163.608,-43.418,-80.283
5119,0.6924,0.2075,-0.7056,0.000,-0.183,0.000,163.608,-43.412,-80.283
5129,0.6934,0.2070,-0.7036,0.000,-0.183,0.000,163.608,-43.412,-80.283
5139,0.6938,0.2075,-0.7002,0.061,-0.122,0.000,163.608,-43.412,-80.283
5149,0.6934,0.2085,-0.7031,0.061,-0.122,0.061,163.608,-43.412,-80.283
5159,0.6904,0.2095,-0.7036,0.122,-0.122,0.061,163.608,-43.407,-80.283
5169,0.6909,0.2075,-0.7041,0.183,-0.061,0.061,163.608,-43.407,-80.283
5179,0.6919,0.2075,-0.7051,0.183,-0.061,0.061,163.614,-43.407,-80.283
5189,0.6934,0.2065,-0.7075,0.244,-0.061,0.061,163.619,-43.401,-80.283
5199,0.6953,0.2061,-0.7070,0.305,-0.061,0.061,163.625,-43.401,-80.283
5209,0.6958,0.2056,-0.7056,0.305,-0.061,0.061,163.630,-43.401,-80.283
5219,0.6958,0.2051,-0.7056,0.305,-0.061,0.061,163.630,-43.401,-80.283
5229,0.6968,0.2031,-0.7075,0.244,-0.122,0.061,163.641,-43.401,-80.283
5239,0.6973,0.2051,-0.7051,0.183,-0.244,0.061,163.647,-43.401,-80.283
5249,0.6958,0.2046,-0.7056,0.122,-0.244,0.000,163.647,-43.401,-80.283
5260,0.6934,0.2056,-0.7056,0.061,-0.305,0.000,163.652,-43.396,-80.283
5269,0.6929,0.2056,-0.7031,0.061,-0.244,-0.061,163.652,-43.391,-80.283
5279,0.6909,0.2061,-0.7031,0.000,-0.305,-0.061,163.652,-43.391,-80.283
5289,0.6895,0.2065,-0.7036,0.000,-0.244,-0.122,163.652,-43.385,-80.283
5299,0.6904,0.2065,-0.7036,-0.061,-0.183,-0.183,163.647,-43.380,-80.283
5309,0.6919,0.2070,-0.7041,-0.122,-0.122,-0.183,163.647,-43.380,-80.283
5319,0.6919,0.2070,-0.7051,-0.122,-0.061,-0.122,163.647,-43.380,-80.283
5329,0.6924,0.2061,-0.7061,-0.061,0.061,-0.122,163.641,-43.380,-80.283
5339,0.6958,0.2080,-0.7080,0.061,0.183,-0.122,163.641,-43.380,-80.283
5349,0.6968,0.2090,-0.7080,0.061,0.244,-0.122,163.641,-43.380,-80.283
5359,0.6958,0.2075,-0.7080,0.122,0.183,-0.061,163.641,-43.380,-80.283
5369,0.6968,0.2065,-0.7075,0.183,-0.061,0.000,163.641,-43.380,-80.283
5379,0.6948,0.2061,-0.7036,0.183,-0.244,0.000,163.647,-43.380,-80.283
5389,0.6924,0.2070,-0.7012,0.122,-0.427,0.061,163.647,-43.374,-80.283
5399,0.6924,0.2085,-0.7036,0.000,-0.427,0.061,163.647,-43.374,-80.283
5409,0.6904,0.2095,-0.7026,-0.061,-0.427,0.061,163.647,-43.369,-80.283
5419,0.6904,0.2080,-0.7012,-0.122,-0.305,0.122,163.647,-43.363,-80.283
5429,0.6899,0.2090,-0.7036,-0.061,-0.122,0.061,163.641,-43.363,-80.283
5439,0.6909,0.2075,-0.7061,0.061,0.061,0.000,163.641,-43.363,-80.283
5449,0.6934,0.2070,-0.7100,0.122,0.183,0.000,163.647,-43.363,-80.283
5459,0.6929,0.2065,-0.7139,0.244,0.244,0.000,163.652,-43.358,-80.283
5469,0.6924,0.2085,-0.7124,0.366,0.305,0.061,163.652,-43.358,-80.283
5479,0.6934,0.2100,-0.7119,0.488,0.244,0.061,163.658,-43.358,-80.283
5489,0.6943,0.2090,-0.7090,0.610,0.183,0.122,163.663,-43.358,-80.283
5499,0.6929,0.2090,-0.7075,0.671,0.183,0.122,163.669,-43.358,-80.283
5509,0.6914,0.2070,-0.7026,0.793,0.122,0.122,163.674,-43.363,-80.283
5519,0.6924,0.2070,-0.7002,0.793,0.183,0.183,163.685,-43.363,-80.283
5529,0.6909,0.2065,-0.7002,0.732,0.122,0.122,163.691,-43.369,-80.283
5539,0.6914,0.2046,-0.6968,0.671,0.244,0.122,163.696,-43.374,-80.283
5549,0.6934,0.2041,-0.6987,0.610,0.305,0.122,163.702,-43.380,-80.283
5559,0.6948,0.2061,-0.7017,0.549,0.366,0.122,163.707,-43.385,-80.283
5569,0.6958,0.2061,-0.7046,0.488,0.366,0.061,163.713,-43.391,-80.283
5579,0.6953,0.2051,-0.7046,0.366,0.244,0.000,163.718,-43.391,-80.283
5589,0.6958,0.2046,-0.7051,0.244,0.244,0.000,163.718,-43.396,-80.283
5599,0.6968,0.2036,-0.7046,0.183,0.122,0.000,163.724,-43.396,-80.283
5609,0.6953,0.2046,-0.7070,0.122,-0.061,0.000,163.724,-43.396,-80.283
5619,0.6948,0.2046,-0.7070,0.122,-0.061,-0.061,163.729,-43.396,-80.283
5629,0.6929,0.2036,-0.7075,0.000,0.000,-0.061,163.729,-43.396,-80.283
5639,0.6919,0.2031,-0.7065,-0.061,-0.061,-0.061,163.729,-43.391,-80.283
5649,0.6934,0.2026,-0.7051,-0.061,-0.061,-0.122,163.729,-43.391,-80.283
5659,0.6948,0.2051,-0.7070,-0.061,-0.122,-0.061,163.729,-43.391,-80.283
5669,0.6914,0.2065,-0.7051,0.000,-0.061,0.000,163.729,-43.391,-80.283
5679,0.6914,0.2095,-0.7051,0.061,-0.061,0.000,163.729,-43.385,-80.283
5689,0.6909,0.2095,-0.7036,0.000,-0.061,0.061,163.729,-43.385,-80.283
5699,0.6904,0.2080,-0.7041,0.061,-0.061,0.122,163.729,-43.385,-80.283
5709,0.6929,0.2090,-0.7061,0.183,0.000,0.061,163.729,-43.380,-80.283
5719,0.6938,0.2061,-0.7056,0.244,0.061,0.061,163.729,-43.380,-80.283
5729,0.6938,0.2051,-0.7046,0.244,0.122,0.122,163.735,-43.385,-80.283
5739,0.6948,0.2051,-0.7056,0.183,0.183,0.061,163.735,-43.385,-80.283
5749,0.6948,0.2026,-0.7070,0.122,0.183,0.061,163.740,-43.385,-80.283
5760,0.6953,0.2021,-0.7065,0.000,0.122,0.000,163.740,-43.391,-80.283
5769,0.6968,0.2031,-0.7065,-0.244,0.061,0.000,163.740,-43.391,-80.283
5779,0.6958,0.2046,-0.7075,-0.244,0.000,0.000,163.740,-43.391,-80.283
5789,0.6948,0.2056,-0.7065,-0.244,-0.122,0.000,163.740,-43.391,-80.283
5799,0.6938,0.2061,-0.7075,-0.244,-0.061,0.000,163.735,-43.385,-80.283
5809,0.6958,0.2051,-0.7051,-0.244,-0.061,0.000,163.735,-43.391,-80.283
5819,0.6929,0.2070,-0.7041,-0.244,-0.061,0.000,163.729,-43.385,-80.283
5829,0.6929,0.2070,-0.7056,-0.244,0.000,0.000,163.729,-43.385,-80.283
5839,0.6958,0.2080,-0.7046,-0.366,0.000,0.061,163.724,-43.385,-80.283
5849,0.6953,0.2080,-0.7031,-0.305,0.000,0.061,163.718,-43.391,-80.283
5859,0.6938,0.2095,-0.7026,-0.244,0.000,0.061,163.713,-43.391,-80.283
5869,0.6943,0.2085,-0.7012,-0.183,0.061,0.122,163.707,-43.391,-80.283
5879,0.6948,0.2075,-0.7031,-0.061,0.061,0.061,163.707,-43.391,-80.283
5889,0.6943,0.2075,-0.7041,-0.061,0.000,0.061,163.707,-43.391,-80.283
5899,0.6934,0.2061,-0.7061,0.000,0.000,0.061,163.707,-43.391,-80.283
5909,0.6943,0.2061,-0.7070,0.000,0.000,0.061,163.707,-43.391,-80.283
5919,0.6924,0.2046,-0.7070,-0.061,0.000,0.061,163.707,-43.391,-80.283
5929,0.6938,0.2061,-0.7061,-0.122,0.061,0.061,163.707,-43.391,-80.283
5939,0.6953,0.2041,-0.7085,-0.244,0.061,0.000,163.707,-43.391,-80.283
5949,0.6934,0.2065,-0.7070,-0.244,0.061,0.000,163.707,-43.391,-80.283
5959,0.6948,0.2065,-0.7056,-0.244,0.122,0.061,163.702,-43.391,-80.283
5969,0.6953,0.2070,-0.7075,-0.244,0.061,0.000,163.702,-43.391,-80.283
5979,0.6948,0.2080,-0.7075,-0.183,0.122,-0.061,163.696,-43.391,-80.283
5989,0.6958,0.2065,-0.7056,-0.061,0.061,-0.061,163.696,-43.391,-80.283
5999,0.6958,0.2061,-0.7061,0.000,0.061,-0.061,163.696,-43.396,-80.283
6009,0.6938,0.2056,-0.7056,0.061,0.000,0.000,163.696,-43.391,-80.283
6019,0.6934,0.2061,-0.7065,0.122,-0.061,0.000,163.696,-43.391,-80.283
6029,0.6948,0.2051,-0.7036,0.183,0.000,0.061,163.702,-43.391,-80.283
6039,0.6963,0.2041,-0.7051,0.183,-0.061,0.061,163.707,-43.396,-80.283
6049,0.6934,0.2036,-0.7051,0.061,-0.061,0.000,163.707,-43.391,-80.283
6059,0.6958,0.2046,-0.7065,0.000,0.000,0.000,163.707,-43.391,-80.283
6069,0.6938,0.2051,-0.7031,-0.061,0.000,0.000,163.707,-43.396,-80.283
6079,0.6904,0.2070,-0.7036,-0.061,-0.061,-0.061,163.707,-43.391,-80.283
6089,0.6890,0.2075,-0.7036,-0.061,-0.061,-0.061,163.707,-43.391,-80.283
6099,0.6919,0.2065,-0.7051,-0.061,-0.061,-0.122,163.702,-43.385,-80.283
6109,0.6914,0.2065,-0.7046,-0.061,0.000,-0.122,163.702,-43.385,-80.283
6119,0.6938,0.2056,-0.7046,0.000,0.061,-0.061,163.702,-43.385,-80.283
6129,0.6948,0.2061,-0.7041,-0.061,0.183,0.000,163.702,-43.391,-80.283
6139,0.6934,0.2061,-0.7075,0.000,0.305,0.000,163.696,-43.391,-80.283
6149,0.6948,0.2056,-0.7085,0.000,0.305,0.000,163.702,-43.391,-80.283
6159,0.6938,0.2051,-0.7085,0.122,0.183,0.000,163.702,-43.391,-80.283
6169,0.6953,0.2051,-0.7041,0.122,0.000,0.061,163.702,-43.396,-80.283
6179,0.6948,0.2051,-0.7012,0.122,-0.183,0.061,163.707,-43.396,-80.283
6189,0.6938,0.2051,-0.7017,0.122,-0.366,0.122,163.707,-43.391,-80.283
6199,0.6953,0.2070,-0.6982,0.000,-0.305,0.122,163.707,-43.391,-80.283
6209,0.6934,0.2080,-0.7012,-0.122,-0.244,0.061,163.707,-43.391,-80.283
6219,0.6929,0.2061,-0.7026,-0.122,-0.122,0.000,163.707,-43.391,-80.283
6229,0.6919,0.2041,-0.7075,-0.183,0.000,0.000,163.707,-43.391,-80.283
6239,0.6929,0.2046,-0.7119,-0.122,0.183,0.061,163.707,-43.391,-80.283
6249,0.6948,0.2041,-0.7134,-0.122,0.183,0.061,163.707,-43.385,-80.283
6260,0.6963,0.2065,-0.7129,-0.061,0.122,0.000,163.707,-43.385,-80.283
6269,0.6953,0.2061,-0.7104,0.061,0.122,0.122,163.713,-43.385,-80.283
6279,0.6963,0.2056,-0.7085,0.122,0.000,0.122,163.713,-43.385,-80.283
6289,0.6943,0.2056,-0.7095,0.122,-0.061,0.061,163.718,-43.385,-80.283
6299,0.6943,0.2080,-0.7061,0.183,-0.061,0.122,163.718,-43.385,-80.283
6309,0.6934,0.2080,-0.7017,0.244,0.000,0.122,163.724,-43.385,-80.283
6319,0.6919,0.2046,-0.6978,0.244,0.000,0.122,163.724,-43.385,-80.283
6329,0.6934,0.2051,-0.6973,0.244,0.122,0.061,163.724,-43.391,-80.283
6342,0.6924,0.2065,-0.6968,0.183,0.244,0.000,163.724,-43.396,-80.283
6349,0.6948,0.2051,-0.6982,0.122,0.305,0.061,163.724,-43.401,-80.283
6359,0.6968,0.2065,-0.6992,0.061,0.366,0.000,163.724,-43.407,-80.283
6369,0.6963,0.2080,-0.7021,0.000,0.244,0.000,163.718,-43.412,-80.283
6379,0.6973,0.2075,-0.7051,-0.061,0.183,0.000,163.718,-43.418,-80.283
6389,0.6968,0.2041,-0.7075,-0.061,0.061,0.000,163.718,-43.418,-80.283
6399,0.6958,0.2026,-0.7080,-0.122,0.000,-0.061,163.718,-43.418,-80.283
6409,0.6943,0.2031,-0.7085,-0.122,0.000,-0.122,163.718,-43.412,-80.283
6419,0.6934,0.2036,-0.7095,-0.183,0.061,-0.122,163.718,-43.412,-80.283
6429,0.6953,0.2031,-0.7090,-0.244,0.061,-0.061,163.718,-43.412,-80.283
6439,0.6963,0.2026,-0.7085,-0.305,0.000,-0.061,163.718,-43.412,-80.283
6449,0.6934,0.2031,-0.7085,-0.305,-0.061,0.000,163.718,-43.407,-80.283
6459,0.6924,0.2061,-0.7065,-0.305,0.000,0.061,163.718,-43.407,-80.283
6469,0.6934,0.2070,-0.7031,-0.305,-0.061,0.061,163.713,-43.407,-80.283
6479,0.6953,0.2085,-0.7036,-0.305,-0.061,0.061,163.707,-43.407,-80.283
6489,0.6929,0.2090,-0.7031,-0.305,-0.061,0.061,163.702,-43.407,-80.283
6499,0.6924,0.2075,-0.7017,-0.244,0.000,0.061,163.702,-43.407,-80.283
6509,0.6929,0.2070,-0.7026,-0.183,0.000,0.061,163.696,-43.407,-80.283
6519,0.6938,0.2046,-0.7026,-0.183,0.061,0.000,163.696,-43.407,-80.283
6529,0.6953,0.2046,-0.7061,-0.122,0.061,0.000,163.696,-43.407,-80.283
6539,0.6963,0.2061,-0.7095,-0.122,0.122,0.061,163.696,-43.412,-80.283
6549,0.6963,0.2070,-0.7085,-0.122,0.122,0.000,163.696,-43.412,-80.283
6559,0.6953,0.2065,-0.7109,-0.183,0.122,0.000,163.696,-43.407,-80.283
6569,0.6963,0.2031,-0.7109,-0.183,0.061,0.000,163.696,-43.407,-80.283
6579,0.6938,0.2041,-0.7090,-0.183,0.000,0.000,163.696,-43.407,-80.283
6589,0.6924,0.2021,-0.7070,-0.183,-0.122,0.000,163.696,-43.407,-80.283
6599,0.6919,0.2056,-0.7056,-0.183,-0.122,-0.061,163.696,-43.401,-80.283
6609,0.6919,0.2026,-0.7036,-0.183,-0.061,-0.061,163.696,-43.401,-80.283
6619,0.6938,0.2041,-0.7021,-0.183,-0.061,0.000,163.696,-43.401,-80.283
6629,0.6924,0.2061,-0.6973,-0.244,0.061,0.000,163.691,-43.401,-80.283
6639,0.6924,0.2075,-0.6997,-0.305,0.122,0.000,163.685,-43.407,-80.283
6649,0.6914,0.2080,-0.7007,-0.305,0.183,0.000,163.680,-43.407,-80.283
6659,0.6929,0.2090,-0.7051,-0.305,0.244,0.000,163.674,-43.407,-80.283
6669,0.6943,0.2095,-0.7075,-0.244,0.244,0.000,163.669,-43.412,-80.283
6679,0.6963,0.2080,-0.7051,-0.244,0.244,0.000,163.663,-43.412,-80.283
6689,0.6953,0.2065,-0.7061,-0.183,0.244,0.061,163.663,-43.412,-80.283
6699,0.6938,0.2051,-0.7026,-0.122,0.122,0.061,163.663,-43.418,-80.283
6709,0.6948,0.2070,-0.7070,-0.061,0.061,0.000,163.663,-43.418,-80.283
6719,0.6943,0.2041,-0.7056,-0.061,0.122,0.000,163.663,-43.418,-80.283
6729,0.6948,0.2046,-0.7061,-0.061,0.183,-0.061,163.663,-43.418,-80.283
6739,0.6948,0.2031,-0.7041,-0.061,0.183,-0.061,163.663,-43.423,-80.283
6749,0.6958,0.2031,-0.7026,-0.122,0.183,0.000,163.663,-43.423,-80.283
6760,0.6943,0.2056,-0.7017,-0.183,0.183,-0.061,163.663,-43.429,-80.283
6769,0.6948,0.2031,-0.7021,-0.244,0.122,-0.061,163.663,-43.429,-80.283
6779,0.6968,0.2036,-0.7056,-0.305,0.061,-0.061,163.658,-43.429,-80.283
6789,0.6958,0.2046,-0.7041,-0.366,0.000,-0.061,163.658,-43.429,-80.283
6799,0.6953,0.2080,-0.7080,-0.427,0.061,-0.061,163.652,-43.429,-80.283
6809,0.6958,0.2065,-0.7070,-0.488,0.122,-0.061,163.647,-43.429,-80.283
6819,0.6953,0.2056,-0.7065,-0.549,0.122,-0.122,163.641,-43.429,-80.283
6829,0.6919,0.2046,-0.7061,-0.488,0.061,-0.122,163.636,-43.429,-80.283
6839,0.6934,0.2061,-0.7070,-0.427,0.000,-0.183,163.630,-43.429,-80.283
6849,0.6909,0.2051,-0.7070,-0.366,0.000,-0.183,163.630,-43.423,-80.283
6859,0.6904,0.2061,-0.7075,-0.244,0.000,-0.183,163.625,-43.423,-80.283
6869,0.6934,0.2061,-0.7041,-0.244,0.183,-0.183,163.625,-43.423,-80.283
6879,0.6938,0.2065,-0.7036,-0.305,0.183,-0.061,163.619,-43.423,-80.283
6889,0.6948,0.2090,-0.7046,-0.305,0.305,0.000,163.614,-43.429,-80.283
6899,0.6953,0.2100,-0.7056,-0.305,0.427,-0.061,163.608,-43.429,-80.283
6909,0.6948,0.2075,-0.7056,-0.244,0.366,-0.061,163.603,-43.434,-80.283
6919,0.6958,0.2061,-0.7046,-0.183,0.305,0.000,163.603,-43.434,-80.283
6929,0.6948,0.2075,-0.7041,-0.183,0.183,0.061,163.597,-43.440,-80.283
6939,0.6943,0.2080,-0.7021,-0.244,0.061,0.122,163.597,-43.440,-80.283
6949,0.6953,0.2080,-0.7002,-0.244,-0.061,0.122,163.592,-43.440,-80.283
6959,0.6948,0.2061,-0.6997,-0.305,0.000,0.122,163.592,-43.445,-80.283
6969,0.6953,0.2065,-0.7041,-0.244,0.061,0.061,163.592,-43.445,-80.283
6979,0.6963,0.2061,-0.7056,-0.244,0.122,0.122,163.592,-43.445,-80.283
6989,0.6958,0.2056,-0.7080,-0.244,0.122,0.122,163.592,-43.445,-80.283
6999,0.6953,0.2041,-0.7109,-0.183,0.183,0.061,163.592,-43.445,-80.283
7009,0.6968,0.2056,-0.7109,-0.122,0.244,0.000,163.592,-43.445,-80.283
7019,0.6968,0.2051,-0.7114,0.000,0.183,0.000,163.597,-43.445,-80.283
7029,0.6978,0.2056,-0.7085,0.061,0.183,0.061,163.597,-43.451,-80.283
7039,0.6973,0.2075,-0.7061,0.061,0.183,0.061,163.603,-43.451,-80.283
7049,0.6958,0.2075,-0.7041,0.061,0.061,0.122,163.603,-43.451,-80.283
7059,0.6943,0.2070,-0.7002,0.000,0.000,0.122,163.603,-43.451,-80.283
7069,0.6953,0.2075,-0.6953,-0.061,-0.061,0.122,163.603,-43.456,-80.283
7079,0.6953,0.2051,-0.6934,0.000,0.000,0.061,163.597,-43.462,-80.283
7089,0.6973,0.2065,-0.6958,0.061,0.000,0.000,163.597,-43.462,-80.283
7099,0.6973,0.2041,-0.6953,0.000,0.061,0.000,163.597,-43.467,-80.283
7109,0.6963,0.2041,-0.6987,-0.122,0.122,-0.061,163.597,-43.473,-80.283
7119,0.6978,0.2056,-0.7002,-0.183,0.061,-0.061,163.597,-43.478,-80.283
7129,0.6987,0.2036,-0.7021,-0.183,0.000,-0.122,163.597,-43.478,-80.283
7139,0.6958,0.2056,-0.7041,-0.244,-0.061,-0.122,163.592,-43.478,-80.283
7149,0.6958,0.2065,-0.7100,-0.305,-0.183,-0.122,163.592,-43.473,-80.283
7159,0.6953,0.2041,-0.7075,-0.305,-0.305,-0.122,163.592,-43.467,-80.283
7169,0.6963,0.2026,-0.7090,-0.366,-0.305,-0.122,163.592,-43.462,-80.283
7179,0.6958,0.2031,-0.7070,-0.305,-0.305,-0.122,163.592,-43.462,-80.283
7189,0.6948,0.2046,-0.7065,-0.366,-0.244,-0.061,163.592,-43.456,-80.283
7199,0.6948,0.2061,-0.7046,-0.366,-0.244,-0.122,163.586,-43.456,-80.283
7209,0.6924,0.2085,-0.7012,-0.366,-0.244,-0.122,163.581,-43.451,-80.283
7219,0.6909,0.2104,-0.7036,-0.305,-0.244,-0.061,163.575,-43.445,-80.283
7229,0.6924,0.2109,-0.7007,-0.183,-0.183,0.000,163.575,-43.445,-80.283
7239,0.6929,0.2124,-0.6987,-0.061,-0.122,0.000,163.570,-43.445,-80.283
7249,0.6943,0.2114,-0.7002,-0.061,-0.122,0.000,163.564,-43.445,-80.283
7260,0.6934,0.2104,-0.6987,0.061,-0.061,0.000,163.559,-43.445,-80.283
7269,0.6943,0.2070,-0.7007,0.366,-0.061,0.000,163.564,-43.445,-80.283
7279,0.6948,0.2065,-0.7061,0.366,0.000,0.000,163.570,-43.445,-80.283
7289,0.7002,0.2046,-0.7095,0.305,-0.061,0.000,163.575,-43.445,-80.283
7299,0.6982,0.2012,-0.7075,0.244,-0.122,0.061,163.586,-43.445,-80.283
7309,0.6973,0.2031,-0.7065,0.183,-0.183,0.000,163.592,-43.440,-80.283
7319,0.6982,0.2026,-0.7070,0.122,-0.183,0.000,163.597,-43.440,-80.283
7329,0.6963,0.2031,-0.7046,0.061,-0.305,-0.061,163.603,-43.440,-80.283
7339,0.6958,0.2046,-0.7041,0.000,-0.305,-0.061,163.603,-43.434,-80.283
7349,0.6919,0.2061,-0.7041,0.000,-0.305,-0.061,163.603,-43.434,-80.283
7359,0.6929,0.2036,-0.7007,0.000,-0.305,-0.061,163.608,-43.429,-80.283
7369,0.6934,0.2061,-0.7002,0.000,-0.244,-0.122,163.608,-43.429,-80.283
7379,0.6943,0.2070,-0.7012,-0.061,-0.183,-0.061,163.603,-43.429,-80.283
7389,0.6943,0.2061,-0.7002,-0.122,-0.122,-0.061,163.603,-43.429,-80.283
7399,0.6938,0.2085,-0.6987,-0.122,-0.061,-0.122,163.597,-43.429,-80.283
7409,0.6958,0.2065,-0.7012,-0.061,-0.061,-0.061,163.597,-43.429,-80.283
7419,0.6943,0.2090,-0.7036,0.000,-0.061,0.000,163.597,-43.429,-80.283
7429,0.6943,0.2085,-0.7041,0.000,-0.183,0.000,163.597,-43.429,-80.283
7439,0.6943,0.2085,-0.7031,0.000,-0.183,0.000,163.597,-43.423,-80.283
7449,0.6958,0.2080,-0.7026,0.122,-0.183,0.000,163.597,-43.423,-80.283
7459,0.6938,0.2090,-0.7036,0.183,-0.244,0.000,163.597,-43.423,-80.283
7469,0.6948,0.2070,-0.7041,0.244,-0.183,0.000,163.603,-43.423,-80.283
7479,0.6938,0.2065,-0.7036,0.183,-0.061,0.000,163.603,-43.423,-80.283
7489,0.6938,0.2051,-0.7046,0.305,-0.061,0.000,163.608,-43.418,-80.283
7499,0.6948,0.2051,-0.7065,0.305,0.000,-0.061,163.614,-43.418,-80.283
7509,0.6968,0.2051,-0.7041,0.305,0.000,0.000,163.619,-43.423,-80.283
7519,0.6968,0.2051,-0.7002,0.244,-0.122,0.000,163.619,-43.423,-80.283
7529,0.6978,0.2056,-0.7007,0.183,-0.122,0.061,163.625,-43.423,-80.283
7539,0.6968,0.2056,-0.7021,0.183,-0.122,0.061,163.625,-43.423,-80.283
7549,0.6948,0.2061,-0.7041,0.183,-0.183,0.061,163.630,-43.423,-80.283
7559,0.6973,0.2056,-0.7036,0.183,-0.244,0.000,163.630,-43.423,-80.283
7569,0.6958,0.2080,-0.7026,0.122,-0.244,0.000,163.636,-43.423,-80.283
7579,0.6924,0.2090,-0.7012,0.183,-0.244,-0.061,163.630,-43.418,-80.283
7589,0.6938,0.2100,-0.7036,0.244,-0.183,-0.122,163.630,-43.418,-80.283
7599,0.6943,0.2061,-0.7036,0.244,-0.122,-0.122,163.636,-43.418,-80.283
7609,0.6934,0.2070,-0.7051,0.305,-0.122,-0.061,163.636,-43.412,-80.283
7619,0.6948,0.2046,-0.7046,0.305,-0.122,0.000,163.641,-43.412,-80.283
7629,0.6929,0.2070,-0.7070,0.244,-0.061,0.061,163.647,-43.412,-80.283
7639,0.6963,0.2075,-0.7061,0.244,0.000,0.061,163.647,-43.412,-80.283
7649,0.6968,0.2075,-0.7065,0.244,0.000,0.000,163.652,-43.412,-80.283
7659,0.6958,0.2065,-0.7061,0.244,0.000,-0.061,163.652,-43.412,-80.283
7669,0.6963,0.2061,-0.7012,0.183,-0.061,0.061,163.652,-43.412,-80.283
7679,0.6943,0.2065,-0.7012,0.183,-0.244,0.061,163.658,-43.412,-80.283
7689,0.6943,0.2065,-0.7012,0.122,-0.366,0.122,163.658,-43.412,-80.283
7699,0.6924,0.2065,-0.6987,0.000,-0.427,0.122,163.663,-43.407,-80.283
7709,0.6943,0.2080,-0.7002,-0.061,-0.427,0.122,163.658,-43.407,-80.283
7719,0.6924,0.2075,-0.7017,-0.061,-0.305,0.061,163.658,-43.401,-80.283
7729,0.6919,0.2061,-0.7075,0.000,-0.244,0.061,163.663,-43.401,-80.283
7739,0.6924,0.2065,-0.7075,0.061,-0.122,0.000,163.663,-43.396,-80.283
7749,0.6948,0.2065,-0.7104,0.183,-0.061,0.061,163.669,-43.396,-80.283
7760,0.6953,0.2065,-0.7119,0.244,-0.061,0.061,163.674,-43.391,-80.283
7769,0.6963,0.2051,-0.7119,0.305,-0.122,0.122,163.680,-43.391,-80.283
7779,0.6943,0.2051,-0.7124,0.427,-0.183,0.122,163.685,-43.385,-80.283
7789,0.6958,0.2065,-0.7056,0.427,-0.183,0.122,163.691,-43.385,-80.283
7799,0.6943,0.2065,-0.7017,0.427,-0.244,0.122,163.696,-43.385,-80.283
7809,0.6953,0.2070,-0.7002,0.488,-0.244,0.122,163.702,-43.385,-80.283
7819,0.6934,0.2065,-0.6997,0.427,-0.244,0.122,163.707,-43.385,-80.283
7829,0.6943,0.2080,-0.6953,0.427,-0.244,0.122,163.707,-43.385,-80.283
7839,0.6929,0.2065,-0.6963,0.427,-0.183,0.061,163.713,-43.385,-80.283
7849,0.6943,0.2075,-0.6982,0.366,-0.122,0.061,163.713,-43.385,-80.283
7859,0.6953,0.2061,-0.6997,0.305,-0.122,0.061,163.718,-43.391,-80.283
7869,0.6973,0.2051,-0.7017,0.244,-0.061,0.061,163.718,-43.391,-80.283
7879,0.6963,0.2046,-0.7046,0.183,-0.122,-0.061,163.724,-43.391,-80.283
7889,0.6963,0.2041,-0.7080,0.122,-0.122,-0.122,163.724,-43.391,-80.283
7899,0.6963,0.2036,-0.7090,0.122,-0.244,-0.061,163.729,-43.385,-80.283
7909,0.6953,0.2036,-0.7075,0.000,-0.305,-0.061,163.729,-43.385,-80.283
7919,0.6943,0.2026,-0.7100,0.000,-0.366,-0.061,163.735,-43.380,-80.283
7929,0.6953,0.2061,-0.7075,0.000,-0.305,-0.061,163.735,-43.374,-80.283
7939,0.6953,0.2046,-0.7075,0.000,-0.305,-0.061,163.735,-43.374,-80.283
7949,0.6934,0.2061,-0.7041,0.000,-0.244,-0.061,163.735,-43.369,-80.283
7959,0.6919,0.2065,-0.7026,0.061,-0.244,-0.061,163.735,-43.369,-80.283
7969,0.6924,0.2090,-0.6997,0.061,-0.244,-0.061,163.735,-43.369,-80.283
7979,0.6938,0.2100,-0.6987,0.122,-0.305,0.000,163.729,-43.363,-80.283
7989,0.6929,0.2090,-0.7002,0.122,-0.305,0.000,163.729,-43.363,-80.283
7999,0.6929,0.2090,-0.6982,0.122,-0.183,0.000,163.729,-43.363,-80.283
8009,0.6948,0.2090,-0.6992,0.122,-0.122,0.000,163.724,-43.363,-80.283
8019,0.6953,0.2085,-0.7007,0.122,-0.061,0.000,163.724,-43.369,-80.283
8029,0.6958,0.2046,-0.7051,0.183,0.000,0.000,163.724,-43.369,-80.283
8039,0.6958,0.2036,-0.7061,0.244,0.000,0.000,163.729,-43.369,-80.283
8049,0.6963,0.2041,-0.7056,0.183,0.061,0.000,163.735,-43.369,-80.283
8059,0.6938,0.2041,-0.7100,0.183,0.000,0.000,163.735,-43.369,-80.283
8069,0.6953,0.2046,-0.7090,0.183,-0.061,-0.061,163.740,-43.369,-80.283
8079,0.6953,0.2051,-0.7070,0.122,-0.061,-0.061,163.740,-43.369,-80.283
8089,0.6938,0.2061,-0.7085,0.122,-0.122,-0.061,163.740,-43.363,-80.283
8099,0.6924,0.2041,-0.7070,0.061,-0.122,-0.061,163.746,-43.363,-80.283
8109,0.6943,0.2046,-0.7061,0.061,-0.122,-0.061,163.746,-43.363,-80.283
8119,0.6948,0.2056,-0.7041,0.061,-0.061,-0.061,163.746,-43.363,-80.283
8129,0.6919,0.2065,-0.7021,0.061,-0.061,-0.061,163.746,-43.363,-80.283
8139,0.6929,0.2080,-0.7012,0.000,-0.061,0.000,163.740,-43.363,-80.283
8149,0.6924,0.2070,-0.7031,0.000,0.000,0.000,163.740,-43.363,-80.283
8159,0.6938,0.2085,-0.7021,0.000,0.000,0.000,163.740,-43.363,-80.283
8169,0.6958,0.2070,-0.7031,0.061,-0.061,0.000,163.735,-43.363,-80.283
8179,0.6948,0.2085,-0.7041,0.061,0.000,0.000,163.735,-43.363,-80.283
8189,0.6948,0.2090,-0.7041,0.061,0.000,0.000,163.735,-43.363,-80.283
8199,0.6948,0.2070,-0.7070,0.122,0.000,0.000,163.735,-43.363,-80.283
8209,0.6943,0.2041,-0.7080,0.122,0.000,0.000,163.735,-43.363,-80.283
8219,0.6953,0.2051,-0.7046,0.122,-0.061,0.000,163.740,-43.363,-80.283
8229,0.6943,0.2026,-0.7041,0.061,-0.061,0.000,163.740,-43.363,-80.283
8239,0.6948,0.2051,-0.7061,0.000,-0.061,0.061,163.740,-43.363,-80.283
8249,0.6938,0.2056,-0.7065,0.000,0.000,0.061,163.746,-43.363,-80.283
8260,0.6958,0.2065,-0.7061,0.000,0.000,0.061,163.746,-43.363,-80.283
8269,0.6943,0.2046,-0.7002,-0.122,0.122,0.000,163.740,-43.369,-80.283
8279,0.6934,0.2036,-0.7026,-0.122,0.122,0.000,163.740,-43.369,-80.283
8289,0.6943,0.2046,-0.7041,-0.183,0.122,0.061,163.740,-43.374,-80.283
8299,0.6938,0.2065,-0.7046,-0.183,0.183,0.061,163.740,-43.374,-80.283
8309,0.6943,0.2065,-0.7061,-0.244,0.122,0.061,163.735,-43.374,-80.283
8319,0.6943,0.2056,-0.7046,-0.122,0.061,0.061,163.735,-43.380,-80.283
8329,0.6978,0.2046,-0.7031,-0.122,0.061,0.000,163.735,-43.380,-80.283
8343,0.6968,0.2036,-0.7002,-0.122,-0.061,0.000,163.735,-43.385,-80.283
8349,0.6953,0.2046,-0.7017,-0.183,-0.122,0.000,163.729,-43.385,-80.283
8359,0.6924,0.2065,-0.7031,-0.244,-0.122,0.000,163.729,-43.385,-80.283
8369,0.6919,0.2061,-0.7031,-0.305,-0.122,0.000,163.724,-43.380,-80.283
8379,0.6924,0.2070,-0.7031,-0.183,-0.183,-0.061,163.724,-43.380,-80.283
8389,0.6929,0.2065,-0.7026,-0.244,-0.061,-0.122,163.718,-43.380,-80.283
8399,0.6943,0.2061,-0.7026,-0.305,0.000,-0.061,163.713,-43.380,-80.283
8409,0.6929,0.2090,-0.7041,-0.244,0.122,-0.061,163.707,-43.380,-80.283
8419,0.6953,0.2100,-0.7070,-0.183,0.183,-0.061,163.702,-43.385,-80.283
8429,0.6948,0.2051,-0.7085,-0.122,0.305,-0.122,163.702,-43.385,-80.283
8439,0.6953,0.2065,-0.7085,0.000,0.244,-0.061,163.702,-43.385,-80.283
8449,0.6963,0.2046,-0.7056,0.000,0.122,0.000,163.702,-43.385,-80.283
8459,0.6963,0.2065,-0.7026,-0.061,-0.122,0.000,163.702,-43.391,-80.283
8469,0.6963,0.2065,-0.7002,-0.183,-0.305,0.122,163.696,-43.391,-80.283
8479,0.6953,0.2075,-0.6992,-0.244,-0.366,0.122,163.696,-43.385,-80.283
8489,0.6953,0.2075,-0.6997,-0.366,-0.305,0.061,163.691,-43.385,-80.283
8499,0.6958,0.2061,-0.7012,-0.366,-0.244,0.061,163.685,-43.385,-80.283
8509,0.6938,0.2070,-0.7031,-0.305,-0.122,0.061,163.685,-43.385,-80.283
8519,0.6924,0.2075,-0.7080,-0.244,-0.061,0.061,163.685,-43.385,-80.283
8529,0.6934,0.2070,-0.7114,-0.122,0.000,0.000,163.680,-43.380,-80.283
8539,0.6968,0.2075,-0.7139,0.000,0.061,0.061,163.685,-43.380,-80.283
8549,0.6948,0.2070,-0.7124,0.061,0.061,0.061,163.685,-43.380,-80.283
8559,0.6963,0.2061,-0.7095,0.183,0.061,0.061,163.691,-43.380,-80.283
8569,0.6924,0.2065,-0.7080,0.183,0.000,0.061,163.691,-43.380,-80.283
8579,0.6934,0.2041,-0.7026,0.122,-0.061,0.122,163.696,-43.380,-80.283
8589,0.6943,0.2056,-0.6997,0.061,-0.122,0.061,163.696,-43.380,-80.283
8599,0.6938,0.2061,-0.6973,0.000,-0.183,0.061,163.696,-43.380,-80.283
8609,0.6934,0.2070,-0.6973,-0.061,-0.183,0.061,163.696,-43.380,-80.283
8619,0.6929,0.2085,-0.6943,-0.183,-0.122,0.000,163.691,-43.385,-80.283
8629,0.6938,0.2095,-0.6948,-0.244,-0.061,0.000,163.680,-43.385,-80.283
8639,0.6953,0.2080,-0.6987,-0.244,-0.061,0.000,163.674,-43.391,-80.283
8649,0.6953,0.2070,-0.7007,-0.244,0.000,-0.061,163.674,-43.391,-80.283
8659,0.6963,0.2065,-0.7036,-0.183,0.061,-0.061,163.669,-43.391,-80.283
8669,0.6958,0.2046,-0.7104,-0.183,0.061,-0.061,163.669,-43.391,-80.283
8679,0.6948,0.2021,-0.7080,-0.244,0.000,-0.061,163.669,-43.391,-80.283
8689,0.6958,0.2031,-0.7090,-0.305,-0.122,-0.061,163.669,-43.391,-80.283
8699,0.6924,0.2031,-0.7104,-0.366,-0.183,0.000,163.669,-43.385,-80.283
8709,0.6934,0.2065,-0.7109,-0.427,-0.244,0.000,163.669,-43.380,-80.283
8719,0.6919,0.2075,-0.7104,-0.427,-0.183,0.000,163.663,-43.374,-80.283
8729,0.6934,0.2075,-0.7075,-0.305,-0.122,-0.061,163.663,-43.374,-80.283
8739,0.6914,0.2070,-0.7075,-0.244,-0.061,-0.061,163.658,-43.369,-80.283
8749,0.6914,0.2085,-0.7051,-0.244,0.000,0.000,163.658,-43.369,-80.283
8759,0.6895,0.2104,-0.7026,-0.183,-0.061,0.061,163.652,-43.369,-80.283
8769,0.6914,0.2109,-0.7012,-0.183,0.000,0.061,163.647,-43.369,-80.283
8779,0.6924,0.2095,-0.6992,-0.122,0.183,0.122,163.641,-43.369,-80.283
8789,0.6914,0.2095,-0.7012,-0.061,0.183,0.183,163.641,-43.374,-80.283
8799,0.6929,0.2090,-0.7031,0.000,0.244,0.122,163.636,-43.374,-80.283
8809,0.6963,0.2061,-0.7036,0.061,0.244,0.122,163.641,-43.380,-80.283
8819,0.6958,0.2061,-0.7021,0.061,0.244,0.122,163.641,-43.385,-80.283
8829,0.6968,0.2046,-0.7046,0.061,0.244,0.122,163.641,-43.391,-80.283
8839,0.6963,0.2041,-0.7056,0.000,0.183,0.122,163.647,-43.391,-80.283
8849,0.6982,0.2031,-0.7070,-0.061,0.183,0.061,163.647,-43.396,-80.283
8859,0.6968,0.2021,-0.7070,-0.122,0.122,0.000,163.652,-43.396,-80.283
8869,0.6973,0.2031,-0.7065,-0.244,0.061,0.000,163.652,-43.396,-80.283
8879,0.6958,0.2056,-0.7065,-0.305,0.000,-0.061,163.652,-43.396,-80.283
8889,0.6948,0.2061,-0.7056,-0.305,0.061,-0.061,163.647,-43.396,-80.283
8899,0.6958,0.2061,-0.7046,-0.305,0.000,-0.061,163.641,-43.401,-80.283
8909,0.6958,0.2065,-0.7036,-0.305,0.000,-0.061,163.641,-43.401,-80.283
8919,0.6948,0.2080,-0.6997,-0.305,0.000,-0.061,163.636,-43.401,-80.283
8929,0.6958,0.2090,-0.6997,-0.305,0.000,-0.122,163.630,-43.401,-80.283
8939,0.6953,0.2095,-0.6982,-0.244,0.061,-0.061,163.619,-43.407,-80.283
8949,0.6968,0.2090,-0.7012,-0.244,0.000,-0.061,163.614,-43.407,-80.283
8959,0.6963,0.2095,-0.7041,-0.244,0.061,0.000,163.614,-43.412,-80.283
8969,0.6968,0.2075,-0.7046,-0.183,0.122,-0.061,163.608,-43.412,-80.283
8979,0.6948,0.2075,-0.7061,-0.244,0.122,0.000,163.608,-43.412,-80.283
8989,0.6938,0.2070,-0.7080,-0.244,0.061,-0.061,163.603,-43.412,-80.283
8999,0.6938,0.2070,-0.7046,-0.244,0.000,0.000,163.603,-43.412,-80.283
9009,0.6938,0.2065,-0.7075,-0.244,0.000,0.000,163.603,-43.407,-80.283
9019,0.6943,0.2065,-0.7061,-0.244,-0.061,0.061,163.597,-43.407,-80.283
9029,0.6953,0.2080,-0.7041,-0.244,-0.061,0.000,163.597,-43.407,-80.283
9039,0.6929,0.2090,-0.7007,-0.244,0.000,0.000,163.592,-43.407,-80.283
9049,0.6938,0.2085,-0.7012,-0.183,0.061,0.000,163.586,-43.412,-80.283
9059,0.6948,0.2080,-0.7036,-0.183,0.122,-0.061,163.586,-43.412,-80.283
9069,0.6943,0.2095,-0.7021,-0.122,0.122,0.000,163.581,-43.412,-80.283
9079,0.6943,0.2085,-0.7017,-0.061,0.122,0.000,163.581,-43.418,-80.283
9089,0.6958,0.2065,-0.7026,0.061,0.122,0.000,163.581,-43.418,-80.283
9099,0.6943,0.2075,-0.7012,0.122,0.061,0.000,163.581,-43.418,-80.283
9109,0.6948,0.2075,-0.7031,0.122,0.061,0.000,163.581,-43.423,-80.283
9119,0.6943,0.2075,-0.7046,0.122,0.061,0.061,163.581,-43.423,-80.283
9129,0.6948,0.2061,-0.7056,0.122,0.061,0.000,163.586,-43.423,-80.283
9139,0.6943,0.2075,-0.7046,0.122,0.061,-0.061,163.586,-43.423,-80.283
9149,0.6943,0.2080,-0.7041,0.061,0.000,0.000,163.586,-43.423,-80.283
9159,0.6968,0.2080,-0.7026,0.000,-0.061,0.000,163.586,-43.423,-80.283
9169,0.6958,0.2080,-0.7021,0.000,0.000,-0.061,163.586,-43.423,-80.283
9179,0.6973,0.2065,-0.7036,0.061,-0.061,-0.061,163.586,-43.423,-80.283
9189,0.6958,0.2070,-0.7061,0.000,-0.061,-0.122,163.586,-43.423,-80.283
9199,0.6948,0.2065,-0.7056,-0.061,0.000,-0.122,163.586,-43.423,-80.283
9209,0.6924,0.2061,-0.7017,-0.122,-0.061,-0.122,163.581,-43.423,-80.283
9219,0.6934,0.2065,-0.7036,-0.061,-0.061,-0.183,163.581,-43.423,-80.283
9229,0.6929,0.2085,-0.7017,0.000,-0.061,-0.183,163.575,-43.418,-80.283
9239,0.6943,0.2090,-0.7021,-0.061,0.061,-0.183,163.575,-43.418,-80.283
9249,0.6934,0.2100,-0.7051,-0.122,0.000,-0.183,163.570,-43.418,-80.283
9260,0.6934,0.2090,-0.7036,-0.061,0.061,-0.122,163.564,-43.418,-80.283
9269,0.6943,0.2114,-0.7065,0.122,0.183,-0.061,163.564,-43.418,-80.283
9279,0.6948,0.2095,-0.7080,0.244,0.183,-0.122,163.564,-43.418,-80.283
9289,0.6948,0.2075,-0.7070,0.244,0.122,-0.122,163.564,-43.418,-80.283
9299,0.6953,0.2065,-0.7046,0.244,0.000,-0.061,163.570,-43.418,-80.283
9309,0.6938,0.2070,-0.7026,0.122,-0.183,0.000,163.570,-43.418,-80.283
9319,0.6938,0.2065,-0.7002,0.061,-0.305,0.061,163.575,-43.418,-80.283
9329,0.6924,0.2080,-0.6978,-0.122,-0.427,0.122,163.570,-43.412,-80.283
9339,0.6929,0.2095,-0.7012,-0.183,-0.366,0.122,163.570,-43.412,-80.283
9349,0.6929,0.2080,-0.7002,-0.244,-0.305,0.122,163.570,-43.412,-80.283
9359,0.6919,0.2090,-0.7017,-0.183,-0.183,0.122,163.564,-43.407,-80.283
9369,0.6934,0.2100,-0.7061,0.000,-0.122,0.061,163.564,-43.407,-80.283
9379,0.6948,0.2100,-0.7100,0.122,0.000,0.061,163.570,-43.401,-80.283
9389,0.6958,0.2104,-0.7134,0.366,0.061,0.061,163.570,-43.401,-80.283
9399,0.6943,0.2080,-0.7119,0.549,0.061,0.122,163.581,-43.401,-80.283
9409,0.6958,0.2075,-0.7124,0.610,0.061,0.122,163.586,-43.396,-80.283
9419,0.6968,0.2070,-0.7100,0.610,0.061,0.183,163.597,-43.401,-80.283
9429,0.6929,0.2070,-0.7070,0.671,0.000,0.183,163.608,-43.396,-80.283
9439,0.6929,0.2085,-0.7026,0.671,-0.061,0.183,163.614,-43.396,-80.283
9449,0.6943,0.2080,-0.7012,0.671,-0.122,0.183,163.619,-43.396,-80.283
9459,0.6953,0.2061,-0.6973,0.549,-0.183,0.183,163.625,-43.401,-80.283
9469,0.6948,0.2065,-0.6958,0.427,-0.122,0.183,163.630,-43.401,-80.283
9479,0.6938,0.2061,-0.6953,0.366,0.000,0.122,163.636,-43.407,-80.283
9489,0.6924,0.2051,-0.6978,0.244,0.061,0.122,163.636,-43.412,-80.283
9499,0.6943,0.2041,-0.7021,0.183,0.122,0.000,163.641,-43.412,-80.283
9509,0.6953,0.2051,-0.7026,0.183,0.183,0.000,163.641,-43.418,-80.283
9519,0.6943,0.2065,-0.7070,0.122,0.122,-0.061,163.647,-43.418,-80.283
9529,0.6943,0.2036,-0.7100,0.000,0.061,-0.061,163.647,-43.412,-80.283
9539,0.6953,0.2046,-0.7090,0.061,-0.061,0.000,163.652,-43.412,-80.283
9549,0.6934,0.2056,-0.7100,0.061,-0.183,0.000,163.652,-43.407,-80.283
9559,0.6943,0.2070,-0.7095,0.122,-0.183,0.000,163.658,-43.407,-80.283
9569,0.6934,0.2070,-0.7100,0.122,-0.122,0.000,163.658,-43.401,-80.283
9579,0.6919,0.2056,-0.7109,0.122,-0.061,-0.061,163.663,-43.396,-80.283
9589,0.6924,0.2070,-0.7095,0.122,0.000,0.000,163.663,-43.396,-80.283
9599,0.6904,0.2090,-0.7065,0.122,0.000,0.061,163.663,-43.391,-80.283
9609,0.6929,0.2090,-0.7041,0.183,-0.061,0.061,163.663,-43.391,-80.283
9619,0.6938,0.2095,-0.7026,0.244,-0.061,0.122,163.663,-43.391,-80.283
9629,0.6909,0.2109,-0.6997,0.244,-0.122,0.183,163.663,-43.391,-80.283
9639,0.6934,0.2109,-0.6987,0.305,0.000,0.183,163.663,-43.396,-80.283
9649,0.6924,0.2095,-0.7012,0.305,0.061,0.122,163.669,-43.396,-80.283
9659,0.6953,0.2070,-0.7021,0.427,0.122,0.061,163.669,-43.396,-80.283
9669,0.6938,0.2041,-0.7070,0.427,0.183,0.061,163.674,-43.396,-80.283
9679,0.6958,0.2051,-0.7065,0.366,0.244,0.061,163.680,-43.401,-80.283
9689,0.6948,0.2031,-0.7075,0.305,0.244,0.061,163.685,-43.401,-80.283
9699,0.6943,0.2007,-0.7100,0.244,0.183,0.000,163.696,-43.401,-80.283
9709,0.6934,0.2031,-0.7114,0.122,0.122,0.000,163.696,-43.401,-80.283
9719,0.6953,0.2061,-0.7104,0.061,0.061,0.000,163.702,-43.401,-80.283
9729,0.6953,0.2061,-0.7065,0.000,0.000,-0.061,163.702,-43.401,-80.283
9739,0.6943,0.2070,-0.7056,0.000,-0.061,-0.061,163.702,-43.401,-80.283
9749,0.6938,0.2061,-0.7026,0.061,-0.061,-0.061,163.702,-43.401,-80.283
9759,0.6929,0.2080,-0.7021,0.061,0.000,-0.061,163.696,-43.401,-80.283
9769,0.6943,0.2085,-0.7017,0.061,0.061,0.000,163.696,-43.401,-80.283
9779,0.6968,0.2109,-0.7021,0.122,0.122,0.000,163.691,-43.401,-80.283
9789,0.6958,0.2095,-0.7007,0.183,0.122,0.000,163.691,-43.407,-80.283
9799,0.6943,0.2090,-0.7031,0.244,0.244,0.000,163.691,-43.407,-80.283
9809,0.6968,0.2085,-0.7051,0.244,0.244,0.061,163.691,-43.412,-80.283
9819,0.6953,0.2085,-0.7056,0.244,0.183,0.061,163.691,-43.412,-80.283
9829,0.6963,0.2051,-0.7041,0.244,0.122,0.000,163.696,-43.418,-80.283
9839,0.6958,0.2036,-0.7051,0.244,0.061,0.000,163.696,-43.418,-80.283
9849,0.6929,0.2036,-0.7041,0.183,0.000,0.000,163.702,-43.418,-80.283
9859,0.6948,0.2021,-0.7070,0.061,0.000,0.000,163.707,-43.418,-80.283
9869,0.6948,0.2056,-0.7070,0.000,0.000,0.000,163.707,-43.418,-80.283
9879,0.6938,0.2046,-0.7051,-0.061,0.061,-0.061,163.707,-43.418,-80.283
9889,0.6938,0.2056,-0.7041,-0.061,0.183,-0.061,163.702,-43.418,-80.283
9899,0.6929,0.2061,-0.7036,-0.061,0.183,-0.061,163.702,-43.418,-80.283
9909,0.6929,0.2080,-0.7070,-0.061,0.183,-0.061,163.702,-43.418,-80.283
9919,0.6924,0.2080,-0.7080,0.000,0.122,0.061,163.702,-43.418,-80.283
9929,0.6934,0.2080,-0.7041,0.061,0.122,0.061,163.696,-43.418,-80.283
9939,0.6929,0.2090,-0.7061,0.183,0.061,0.061,163.696,-43.418,-80.283
9949,0.6929,0.2075,-0.7051,0.183,0.122,0.061,163.702,-43.418,-80.283
9959,0.6943,0.2065,-0.7036,0.183,0.061,0.122,163.702,-43.418,-80.283
9969,0.6938,0.2080,-0.7017,0.244,0.122,0.122,163.702,-43.423,-80.283
9979,0.6929,0.2075,-0.7017,0.305,0.244,0.122,163.707,-43.423,-80.283
9989,0.6943,0.2065,-0.7036,0.305,0.305,0.122,163.707,-43.429,-80.283
9999,0.6963,0.2046,-0.7026,0.305,0.305,0.122,163.713,-43.434,-80.283
10009,0.6963,0.2056,-0.7021,0.366,0.305,0.122,163.713,-43.440,-80.283
10019,0.6958,0.2056,-0.7080,0.305,0.305,0.122,163.718,-43.440,-80.283
10029,0.6953,0.2041,-0.7056,0.244,0.244,0.122,163.724,-43.445,-80.283
10039,0.6958,0.2061,-0.7056,0.183,0.183,0.061,163.724,-43.445,-80.283
10049,0.6992,0.2036,-0.7056,0.183,0.122,0.061,163.729,-43.451,-80.283
10059,0.6948,0.2026,-0.7070,0.122,0.061,0.000,163.735,-43.445,-80.283
10069,0.6948,0.2021,-0.7075,0.061,0.000,0.000,163.735,-43.445,-80.283
10079,0.6938,0.2036,-0.7061,-0.061,0.061,0.000,163.740,-43.445,-80.283
10089,0.6924,0.2051,-0.7085,-0.122,0.061,-0.061,163.735,-43.445,-80.283
10099,0.6899,0.2061,-0.7051,-0.122,0.122,-0.061,163.735,-43.445,-80.283
10109,0.6914,0.2080,-0.7041,-0.183,0.122,-0.061,163.729,-43.445,-80.283
10119,0.6929,0.2075,-0.7026,-0.122,0.183,-0.061,163.724,-43.445,-80.283
10129,0.6943,0.2085,-0.7061,-0.061,0.244,0.000,163.724,-43.445,-80.283
10139,0.6978,0.2095,-0.7085,0.000,0.305,0.061,163.718,-43.451,-80.283
10149,0.6968,0.2109,-0.7070,0.122,0.427,0.061,163.718,-43.451,-80.283
10159,0.6968,0.2095,-0.7075,0.183,0.488,0.061,163.718,-43.456,-80.283
10169,0.6968,0.2070,-0.7090,0.244,0.427,0.061,163.718,-43.456,-80.283
10179,0.6978,0.2051,-0.7065,0.305,0.244,0.061,163.724,-43.462,-80.283
10189,0.6958,0.2041,-0.7026,0.366,0.000,0.122,163.729,-43.462,-80.283
10199,0.6958,0.2065,-0.7012,0.244,-0.183,0.183,163.729,-43.462,-80.283
10209,0.6919,0.2065,-0.7017,0.122,-0.244,0.122,163.735,-43.462,-80.283
10219,0.6943,0.2075,-0.7012,0.000,-0.183,0.122,163.735,-43.462,-80.283
10229,0.6934,0.2065,-0.7031,-0.061,-0.122,0.061,163.729,-43.456,-80.283
10239,0.6938,0.2046,-0.7046,-0.061,0.061,0.000,163.729,-43.456,-80.283
10249,0.6934,0.2051,-0.7075,0.061,0.183,0.000,163.735,-43.456,-80.283
10260,0.6953,0.2061,-0.7100,0.183,0.244,0.000,163.735,-43.456,-80.283
10269,0.6963,0.2051,-0.7144,0.183,0.061,0.000,163.740,-43.456,-80.283
10279,0.6973,0.2041,-0.7134,0.305,0.122,-0.061,163.746,-43.456,-80.283
10289,0.6973,0.2070,-0.7104,0.366,0.061,0.061,163.746,-43.456,-80.283
10299,0.6963,0.2061,-0.7065,0.366,0.000,0.000,163.751,-43.456,-80.283
10309,0.6978,0.2061,-0.7026,0.366,-0.061,0.061,163.757,-43.456,-80.283
10319,0.6938,0.2070,-0.6987,0.366,-0.122,0.000,163.757,-43.456,-80.283
10329,0.6943,0.2056,-0.6992,0.305,-0.122,0.000,163.757,-43.456,-80.283
10339,0.6934,0.2056,-0.6948,0.244,-0.061,0.000,163.757,-43.456,-80.283
10349,0.6958,0.2036,-0.6953,0.122,-0.061,0.000,163.757,-43.462,-80.283
10359,0.6953,0.2051,-0.6958,0.122,0.000,-0.061,163.757,-43.467,-80.283
10369,0.6958,0.2056,-0.7002,0.000,-0.061,-0.122,163.757,-43.467,-80.283
10379,0.6953,0.2041,-0.7075,-0.122,-0.061,-0.122,163.757,-43.462,-80.283
10389,0.6943,0.2031,-0.7075,-0.183,-0.122,-0.183,163.751,-43.462,-80.283
10399,0.6963,0.2036,-0.7090,-0.244,-0.183,-0.183,163.751,-43.456,-80.283
10409,0.6953,0.2031,-0.7109,-0.305,-0.366,-0.122,163.751,-43.451,-80.283
10419,0.6929,0.2046,-0.7100,-0.366,-0.427,-0.061,163.751,-43.445,-80.283
10429,0.6943,0.2046,-0.7095,-0.244,-0.366,-0.061,163.751,-43.440,-80.283
10439,0.6948,0.2061,-0.7100,-0.183,-0.305,-0.061,163.751,-43.434,-80.283
10449,0.6934,0.2046,-0.7075,-0.183,-0.244,-0.061,163.751,-43.429,-80.283
10459,0.6904,0.2056,-0.7036,-0.183,-0.244,-0.061,163.746,-43.429,-80.283
10469,0.6929,0.2070,-0.6997,-0.122,-0.305,0.000,163.746,-43.423,-80.283
10479,0.6924,0.2095,-0.7012,-0.061,-0.244,0.061,163.740,-43.423,-80.283
10489,0.6914,0.2104,-0.7012,-0.061,-0.244,0.122,163.740,-43.418,-80.283
10499,0.6929,0.2100,-0.7021,0.000,-0.122,0.183,163.735,-43.418,-80.283
10509,0.6929,0.2095,-0.7026,0.000,-0.061,0.122,163.735,-43.418,-80.283
10519,0.6919,0.2090,-0.7041,0.061,0.000,0.061,163.729,-43.418,-80.283
10529,0.6943,0.2056,-0.7031,0.183,0.000,0.122,163.735,-43.418,-80.283
10539,0.6958,0.2036,-0.7056,0.244,0.000,0.122,163.740,-43.418,-80.283
10549,0.6968,0.2041,-0.7075,0.244,0.061,0.122,163.746,-43.418,-80.283
10559,0.6963,0.2021,-0.7085,0.244,0.061,0.061,163.751,-43.423,-80.283
10568,0.6948,0.2031,-0.7114,0.183,0.000,0.000,163.757,-43.418,-80.283
10579,0.6958,0.2046,-0.7114,0.244,-0.122,0.000,163.762,-43.418,-80.283
10589,0.6948,0.2041,-0.7100,0.183,-0.183,0.061,163.768,-43.412,-80.283
10599,0.6948,0.2021,-0.7061,0.183,-0.244,0.000,163.768,-43.412,-80.283
10609,0.6938,0.2031,-0.7031,0.183,-0.244,0.000,163.773,-43.407,-80.283
10619,0.6943,0.2051,-0.7017,0.122,-0.183,-0.061,163.773,-43.407,-80.283
10629,0.6934,0.2046,-0.6987,0.000,-0.244,0.000,163.773,-43.407,-80.283
10639,0.6943,0.2056,-0.6992,-0.122,-0.183,-0.122,163.773,-43.407,-80.283
10649,0.6948,0.2080,-0.7017,-0.122,-0.122,-0.061,163.768,-43.407,-80.283
10659,0.6943,0.2070,-0.7021,-0.122,-0.122,-0.122,163.762,-43.407,-80.283
10669,0.6938,0.2080,-0.7021,-0.122,-0.122,-0.122,163.757,-43.407,-80.283
10679,0.6948,0.2056,-0.7031,-0.061,-0.061,-0.122,163.757,-43.407,-80.283
10689,0.6934,0.2036,-0.7036,-0.061,-0.061,-0.122,163.757,-43.407,-80.283
10699,0.6938,0.2065,-0.7026,-0.061,-0.061,-0.122,163.751,-43.407,-80.283
10709,0.6938,0.2051,-0.7061,-0.061,-0.122,-0.061,163.751,-43.401,-80.283
10719,0.6929,0.2051,-0.7046,-0.061,-0.122,-0.183,163.751,-43.401,-80.283
10729,0.6924,0.2051,-0.7051,-0.061,-0.183,-0.183,163.751,-43.401,-80.283
10739,0.6929,0.2065,-0.7061,-0.061,-0.122,-0.122,163.746,-43.396,-80.283
10749,0.6953,0.2046,-0.7090,-0.061,0.000,-0.122,163.746,-43.396,-80.283
10759,0.6948,0.2061,-0.7036,-0.061,0.000,-0.122,163.746,-43.396,-80.283
10769,0.6924,0.2080,-0.7051,0.000,0.061,-0.183,163.740,-43.396,-80.283
10779,0.6929,0.2056,-0.7051,0.061,0.061,-0.061,163.740,-43.396,-80.283
10789,0.6924,0.2065,-0.7056,0.122,0.061,-0.061,163.740,-43.396,-80.283
10799,0.6948,0.2070,-0.7031,0.122,0.000,-0.061,163.740,-43.396,-80.283
10808,0.6924,0.2041,-0.7056,0.183,0.000,0.000,163.740,-43.396,-80.283
10819,0.6953,0.2061,-0.7065,0.122,0.000,-0.061,163.746,-43.396,-80.283
10829,0.6934,0.2051,-0.7046,0.122,-0.061,0.000,163.746,-43.391,-80.283
10838,0.6948,0.2061,-0.7036,0.122,0.000,0.000,163.746,-43.396,-80.283
10849,0.6958,0.2056,-0.7056,0.122,0.000,-0.061,163.746,-43.396,-80.283
10859,0.6943,0.2051,-0.7051,0.122,-0.061,-0.061,163.746,-43.396,-80.283
10869,0.6953,0.2041,-0.7061,0.122,-0.061,-0.061,163.751,-43.391,-80.283
10879,0.6948,0.2041,-0.7041,0.061,-0.061,0.000,163.751,-43.391,-80.283
10889,0.6963,0.2051,-0.7046,0.000,-0.122,0.000,163.751,-43.396,-80.283
10899,0.6953,0.2036,-0.7056,-0.061,-0.183,-0.061,163.751,-43.391,-80.283
10909,0.6934,0.2041,-0.7061,-0.122,-0.244,-0.122,163.751,-43.391,-80.283
10919,0.6943,0.2041,-0.7056,-0.122,-0.305,-0.061,163.751,-43.385,-80.283
10929,0.6924,0.2056,-0.7051,-0.244,-0.305,-0.061,163.751,-43.380,-80.283
10939,0.6929,0.2046,-0.7041,-0.305,-0.244,-0.061,163.746,-43.380,-80.283
10949,0.6929,0.2061,-0.7056,-0.305,-0.183,-0.122,163.746,-43.380,-80.283
10959,0.6914,0.2065,-0.7056,-0.305,-0.183,-0.183,163.740,-43.374,-80.283
10969,0.6929,0.2056,-0.7051,-0.244,-0.183,-0.122,163.735,-43.369,-80.283
10979,0.6924,0.2090,-0.7036,-0.183,-0.122,-0.122,163.729,-43.369,-80.283
10989,0.6938,0.2085,-0.7036,-0.122,0.000,-0.061,163.724,-43.369,-80.283
10999,0.6953,0.2114,-0.7075,0.000,0.061,-0.061,163.724,-43.369,-80.283
11009,0.6953,0.2085,-0.7080,0.183,0.061,0.000,163.724,-43.369,-80.283
11019,0.6953,0.2070,-0.7090,0.305,0.061,0.000,163.724,-43.369,-80.283
11029,0.6953,0.2036,-0.7075,0.244,0.000,0.061,163.729,-43.369,-80.283
11039,0.6943,0.2026,-0.7041,0.305,-0.183,0.061,163.735,-43.369,-80.283
11049,0.6953,0.2036,-0.7026,0.183,-0.366,0.122,163.740,-43.369,-80.283
11059,0.6948,0.2046,-0.7026,0.000,-0.366,0.183,163.746,-43.369,-80.283
11069,0.6934,0.2041,-0.7031,-0.183,-0.366,0.122,163.746,-43.363,-80.283
11079,0.6924,0.2070,-0.7017,-0.366,-0.305,0.122,163.740,-43.363,-80.283
11089,0.6938,0.2090,-0.7007,-0.366,-0.244,0.061,163.735,-43.363,-80.283
11099,0.6948,0.2080,-0.7065,-0.244,-0.244,0.122,163.735,-43.358,-80.283
11109,0.6943,0.2075,-0.7085,-0.122,-0.183,0.122,163.735,-43.358,-80.283
11119,0.6934,0.2070,-0.7124,0.061,-0.183,0.122,163.735,-43.352,-80.283
11129,0.6953,0.2061,-0.7139,0.183,-0.122,0.122,163.740,-43.347,-80.283
11139,0.6943,0.2056,-0.7134,0.305,-0.122,0.122,163.746,-43.347,-80.283
11149,0.6953,0.2056,-0.7104,0.427,-0.061,0.122,163.751,-43.347,-80.283
11159,0.6943,0.2051,-0.7085,0.488,-0.122,0.061,163.762,-43.341,-80.283
11169,0.6938,0.2046,-0.7041,0.488,-0.183,0.061,163.768,-43.341,-80.283
11179,0.6929,0.2070,-0.7017,0.488,-0.244,0.061,163.768,-43.341,-80.283
11189,0.6938,0.2080,-0.6982,0.427,-0.244,0.122,163.773,-43.341,-80.283
11199,0.6943,0.2041,-0.6963,0.366,-0.244,0.000,163.773,-43.341,-80.283
11209,0.6948,0.2051,-0.6992,0.366,-0.183,0.000,163.779,-43.347,-80.283
11219,0.6968,0.2026,-0.7012,0.183,-0.122,-0.061,163.779,-43.347,-80.283
11229,0.6934,0.2036,-0.7012,0.061,-0.122,-0.061,163.784,-43.347,-80.283
11239,0.6963,0.2041,-0.7031,0.000,-0.061,-0.122,163.779,-43.347,-80.283
11249,0.6953,0.2041,-0.7056,0.000,-0.122,-0.122,163.779,-43.347,-80.283
11260,0.6929,0.2031,-0.7085,-0.061,-0.244,-0.183,163.784,-43.347,-80.283
11269,0.6948,0.2046,-0.7095,-0.122,-0.244,-0.183,163.779,-43.341,-80.283
11279,0.6948,0.2046,-0.7104,-0.183,-0.305,-0.122,163.779,-43.336,-80.283
11289,0.6943,0.2046,-0.7085,-0.122,-0.366,-0.122,163.779,-43.330,-80.283
11299,0.6934,0.2046,-0.7104,-0.061,-0.305,-0.122,163.779,-43.325,-80.283
11309,0.6909,0.2065,-0.7090,-0.061,-0.183,-0.183,163.779,-43.325,-80.283
11319,0.6929,0.2080,-0.7075,-0.061,-0.122,-0.183,163.773,-43.319,-80.283
11329,0.6914,0.2080,-0.7056,0.000,-0.061,-0.183,163.773,-43.319,-80.283
11339,0.6924,0.2065,-0.7061,0.000,-0.122,-0.122,163.768,-43.314,-80.283
11349,0.6914,0.2080,-0.7021,0.061,-0.122,0.000,163.768,-43.314,-80.283
11359,0.6929,0.2080,-0.7021,0.122,-0.122,0.061,163.768,-43.314,-80.283
11369,0.6909,0.2075,-0.7031,0.061,-0.122,0.061,163.768,-43.314,-80.283
11379,0.6904,0.2095,-0.7017,0.061,0.000,0.061,163.762,-43.314,-80.283
11389,0.6934,0.2080,-0.7021,0.061,0.061,0.061,163.762,-43.319,-80.283
11399,0.6938,0.2056,-0.7070,0.122,0.122,0.061,163.762,-43.319,-80.283
11409,0.6953,0.2041,-0.7080,0.183,0.122,0.000,163.768,-43.319,-80.283
11419,0.6948,0.2036,-0.7109,0.183,0.122,0.000,163.773,-43.319,-80.283
11429,0.6929,0.2031,-0.7109,0.122,0.061,0.000,163.773,-43.319,-80.283
11439,0.6943,0.2031,-0.7095,0.122,0.061,0.000,163.779,-43.319,-80.283
11449,0.6948,0.2036,-0.7104,0.061,0.000,0.000,163.779,-43.319,-80.283
11459,0.6924,0.2021,-0.7095,0.000,-0.061,0.000,163.784,-43.314,-80.283
11469,0.6919,0.2031,-0.7075,0.000,-0.061,0.000,163.784,-43.314,-80.283
11479,0.6914,0.2061,-0.7031,0.000,-0.122,0.000,163.784,-43.314,-80.283
11489,0.6934,0.2061,-0.7046,-0.061,-0.122,0.000,163.784,-43.314,-80.283
11499,0.6924,0.2070,-0.7046,-0.061,-0.061,0.000,163.784,-43.314,-80.283
11509,0.6943,0.2075,-0.7017,-0.122,0.000,0.000,163.779,-43.314,-80.283
11519,0.6948,0.2070,-0.7036,-0.061,0.061,-0.061,163.773,-43.314,-80.283
11529,0.6943,0.2085,-0.7017,0.000,0.122,-0.061,163.773,-43.319,-80.283
11539,0.6948,0.2080,-0.7046,0.122,0.183,-0.061,163.768,-43.319,-80.283
11549,0.6924,0.2070,-0.7056,0.183,0.122,0.000,163.768,-43.325,-80.283
11559,0.6938,0.2065,-0.7070,0.183,0.061,-0.061,163.768,-43.325,-80.283
11569,0.6938,0.2046,-0.7056,0.183,-0.061,0.000,163.773,-43.325,-80.283
11579,0.6924,0.2051,-0.7065,0.183,0.000,-0.061,163.773,-43.319,-80.283
11589,0.6919,0.2046,-0.7070,0.061,0.000,-0.061,163.773,-43.319,-80.283
11599,0.6929,0.2051,-0.7061,0.000,0.000,-0.061,163.773,-43.319,-80.283
11609,0.6958,0.2041,-0.7075,0.000,0.000,-0.061,163.773,-43.319,-80.283
11619,0.6953,0.2026,-0.7080,-0.061,0.000,-0.061,163.779,-43.319,-80.283
11629,0.6958,0.2041,-0.7061,-0.122,-0.061,-0.061,163.779,-43.319,-80.283
11639,0.6943,0.2056,-0.7041,-0.183,-0.061,-0.122,163.773,-43.325,-80.283
11649,0.6953,0.2061,-0.7041,-0.061,-0.122,-0.061,163.773,-43.325,-80.283
11659,0.6948,0.2075,-0.7046,0.000,-0.122,-0.122,163.768,-43.319,-80.283
11669,0.6929,0.2051,-0.7051,0.061,-0.122,-0.061,163.768,-43.319,-80.283
11679,0.6934,0.2065,-0.7031,0.061,-0.061,0.000,163.768,-43.319,-80.283
11689,0.6934,0.2056,-0.7046,0.122,-0.061,0.000,163.768,-43.319,-80.283
11699,0.6938,0.2051,-0.7070,0.183,0.000,-0.061,163.773,-43.319,-80.283
11709,0.6934,0.2036,-0.7061,0.061,0.061,-0.061,163.773,-43.319,-80.283
11719,0.6948,0.2046,-0.7065,0.000,0.061,-0.061,163.773,-43.325,-80.283
11729,0.6934,0.2051,-0.7075,0.000,0.061,-0.061,163.773,-43.325,-80.283
11739,0.6938,0.2056,-0.7075,0.061,0.000,-0.122,163.773,-43.325,-80.283
11749,0.6934,0.2036,-0.7065,0.000,0.000,-0.061,163.773,-43.325,-80.283
11760,0.6929,0.2056,-0.7056,0.000,-0.061,-0.061,163.773,-43.319,-80.283
11769,0.6934,0.2051,-0.7061,0.000,-0.122,-0.061,163.773,-43.319,-80.283
11779,0.6919,0.2051,-0.7061,-0.061,-0.122,-0.061,163.773,-43.319,-80.283
11789,0.6953,0.2056,-0.7061,-0.061,-0.061,-0.122,163.773,-43.319,-80.283
11799,0.6948,0.2056,-0.7051,0.000,0.000,-0.122,163.768,-43.319,-80.283
11809,0.6958,0.2051,-0.7070,0.000,0.000,-0.122,163.768,-43.319,-80.283
11819,0.6953,0.2041,-0.7080,0.000,0.000,-0.122,163.768,-43.319,-80.283
11829,0.6938,0.2065,-0.7041,0.000,0.000,-0.122,163.768,-43.319,-80.283
11839,0.6934,0.2056,-0.7061,0.061,-0.122,-0.122,163.768,-43.319,-80.283
11849,0.6948,0.2051,-0.7046,0.061,-0.122,-0.122,163.768,-43.319,-80.283
11859,0.6929,0.2061,-0.7075,0.061,-0.061,-0.122,163.768,-43.319,-80.283
11869,0.6909,0.2061,-0.7080,0.000,-0.061,-0.122,163.768,-43.314,-80.283
11879,0.6919,0.2070,-0.7051,-0.061,-0.061,-0.122,163.762,-43.314,-80.283
11889,0.6895,0.2065,-0.7056,-0.061,-0.122,-0.122,163.762,-43.308,-80.283
11899,0.6904,0.2075,-0.7061,0.061,-0.122,-0.122,163.757,-43.308,-80.283
11909,0.6914,0.2075,-0.7061,0.061,-0.061,-0.183,163.757,-43.303,-80.283
11919,0.6909,0.2075,-0.7051,0.061,-0.061,-0.183,163.751,-43.303,-80.283
11929,0.6914,0.2085,-0.7065,0.122,-0.061,-0.061,163.751,-43.303,-80.283
11939,0.6929,0.2075,-0.7085,0.183,0.061,-0.061,163.751,-43.303,-80.283
11949,0.6953,0.2056,-0.7085,0.305,0.244,-0.122,163.757,-43.303,-80.283
11959,0.6948,0.2056,-0.7090,0.366,0.244,-0.122,163.757,-43.303,-80.283
11969,0.6958,0.2041,-0.7080,0.305,0.183,-0.122,163.762,-43.308,-80.283
11979,0.6943,0.2026,-0.7070,0.244,0.000,-0.061,163.762,-43.308,-80.283
11989,0.6958,0.2041,-0.7056,0.183,-0.305,0.061,163.768,-43.308,-80.283
11999,0.6929,0.2026,-0.7031,0.000,-0.427,0.122,163.773,-43.303,-80.283
12009,0.6938,0.2061,-0.6992,-0.122,-0.427,0.061,163.773,-43.303,-80.283
12019,0.6929,0.2075,-0.7026,-0.305,-0.366,0.061,163.768,-43.303,-80.283
12029,0.6929,0.2070,-0.7017,-0.305,-0.244,0.061,163.762,-43.297,-80.283
12039,0.6938,0.2065,-0.7041,-0.244,-0.122,0.000,163.762,-43.297,-80.283
12049,0.6924,0.2036,-0.7095,-0.122,0.061,0.000,163.762,-43.297,-80.283
12059,0.6943,0.2056,-0.7129,0.000,0.122,-0.061,163.762,-43.297,-80.283
12069,0.6943,0.2051,-0.7144,0.183,0.183,-0.061,163.762,-43.297,-80.283
12079,0.6934,0.2051,-0.7124,0.305,0.183,-0.061,163.768,-43.297,-80.283
12089,0.6924,0.2041,-0.7129,0.366,0.122,0.000,163.773,-43.297,-80.283
12099,0.6914,0.2046,-0.7095,0.427,0.061,0.061,163.779,-43.297,-80.283
12109,0.6919,0.2061,-0.7075,0.366,-0.122,0.061,163.784,-43.292,-80.283
12119,0.6924,0.2046,-0.7041,0.366,-0.183,0.000,163.790,-43.292,-80.283
12129,0.6904,0.2046,-0.7026,0.244,-0.244,0.061,163.790,-43.292,-80.283
12139,0.6924,0.2041,-0.6987,0.183,-0.122,0.061,163.795,-43.292,-80.283
12149,0.6934,0.2051,-0.6987,0.000,-0.061,0.061,163.795,-43.297,-80.283
12159,0.6924,0.2056,-0.6992,-0.061,0.061,0.061,163.790,-43.297,-80.283
12169,0.6948,0.2041,-0.7007,-0.061,0.122,-0.061,163.790,-43.303,-80.283
12179,0.6938,0.2065,-0.7017,-0.061,0.122,-0.122,163.784,-43.303,-80.283
12189,0.6938,0.2061,-0.7065,-0.122,0.122,-0.122,163.784,-43.308,-80.283
12199,0.6948,0.2065,-0.7061,-0.061,0.122,-0.122,163.779,-43.308,-80.283
12209,0.6953,0.2046,-0.7085,-0.061,0.061,-0.122,163.779,-43.308,-80.283
12219,0.6943,0.2041,-0.7104,-0.061,-0.061,-0.122,163.779,-43.308,-80.283
12229,0.6929,0.2041,-0.7075,-0.061,-0.183,-0.061,163.779,-43.303,-80.283
12239,0.6924,0.2041,-0.7080,0.000,-0.183,-0.061,163.779,-43.303,-80.283
12249,0.6938,0.2041,-0.7090,0.061,-0.061,0.000,163.784,-43.303,-80.283
12260,0.6929,0.2041,-0.7090,0.061,0.061,-0.061,163.784,-43.303,-80.283
12269,0.6904,0.2041,-0.7056,0.000,0.122,0.000,163.784,-43.303,-80.283
12279,0.6904,0.2080,-0.7056,-0.061,0.000,0.000,163.784,-43.297,-80.283
12289,0.6904,0.2080,-0.7046,-0.061,-0.122,0.061,163.779,-43.297,-80.283
12299,0.6909,0.2090,-0.7031,0.000,-0.183,0.061,163.779,-43.297,-80.283
12309,0.6909,0.2080,-0.7021,0.061,-0.061,0.122,163.779,-43.297,-80.283
12319,0.6914,0.2090,-0.7017,0.122,-0.061,0.122,163.773,-43.297,-80.283
12329,0.6914,0.2070,-0.7031,0.122,0.000,0.061,163.773,-43.297,-80.283
12339,0.6914,0.2051,-0.7041,0.183,0.183,0.061,163.779,-43.297,-80.283
12349,0.6919,0.2036,-0.7056,0.183,0.305,0.000,163.779,-43.303,-80.283
12359,0.6919,0.2036,-0.7070,0.122,0.366,0.000,163.779,-43.308,-80.283
12369,0.6938,0.2021,-0.7100,0.061,0.366,0.061,163.784,-43.308,-80.283
12379,0.6953,0.2012,-0.7114,0.000,0.244,0.000,163.790,-43.308,-80.283
12389,0.6948,0.2021,-0.7129,0.000,0.183,0.000,163.790,-43.308,-80.283
12399,0.6929,0.2031,-0.7100,0.000,0.061,0.000,163.795,-43.308,-80.283
12409,0.6938,0.2036,-0.7070,0.000,0.000,0.061,163.795,-43.308,-80.283
12419,0.6938,0.2051,-0.7061,-0.061,0.000,0.122,163.795,-43.314,-80.283
12429,0.6929,0.2046,-0.7051,-0.122,0.000,0.122,163.795,-43.314,-80.283
12439,0.6919,0.2051,-0.7041,-0.183,0.061,0.061,163.795,-43.314,-80.283
12449,0.6924,0.2070,-0.7031,-0.183,0.122,0.061,163.790,-43.314,-80.283
12459,0.6938,0.2070,-0.7041,-0.244,0.183,0.061,163.790,-43.319,-80.283
12469,0.6938,0.2090,-0.7036,-0.183,0.183,0.122,163.784,-43.319,-80.283
12479,0.6943,0.2075,-0.7017,-0.061,0.244,0.183,163.779,-43.325,-80.283
12489,0.6953,0.2080,-0.7056,0.000,0.305,0.122,163.779,-43.330,-80.283
12499,0.6943,0.2065,-0.7051,0.061,0.305,0.183,163.779,-43.336,-80.283
12509,0.6929,0.2056,-0.7065,0.061,0.183,0.183,163.779,-43.336,-80.283
12519,0.6924,0.2036,-0.7070,0.122,0.122,0.183,163.784,-43.336,-80.283
12529,0.6919,0.2061,-0.7085,0.183,0.061,0.122,163.790,-43.336,-80.283
12539,0.6929,0.2046,-0.7080,0.183,0.122,0.122,163.790,-43.336,-80.283
12549,0.6953,0.2031,-0.7090,0.122,0.244,0.061,163.795,-43.341,-80.283
12559,0.6934,0.2046,-0.7100,0.000,0.305,0.122,163.795,-43.341,-80.283
12569,0.6934,0.2041,-0.7100,-0.061,0.305,0.061,163.795,-43.341,-80.283
12579,0.6929,0.2051,-0.7090,0.000,0.244,0.122,163.795,-43.341,-80.283
12589,0.6943,0.2036,-0.7065,0.061,0.122,0.122,163.801,-43.347,-80.283
12599,0.6943,0.2056,-0.7041,0.183,0.000,0.122,163.801,-43.347,-80.283
12609,0.6924,0.2041,-0.7041,0.244,0.000,0.122,163.806,-43.347,-80.283
12619,0.6919,0.2041,-0.7056,0.244,0.000,0.122,163.812,-43.347,-80.283
12629,0.6943,0.2041,-0.7026,0.244,-0.061,0.061,163.812,-43.347,-80.283
12639,0.6934,0.2031,-0.7007,0.305,0.000,0.061,163.817,-43.352,-80.283
12649,0.6938,0.2041,-0.7036,0.244,0.122,0.000,163.817,-43.352,-80.283
12659,0.6943,0.2036,-0.7056,0.183,0.122,0.000,163.823,-43.352,-80.283
12669,0.6948,0.2036,-0.7051,0.183,0.183,0.000,163.823,-43.358,-80.283
12679,0.6963,0.2051,-0.7056,0.122,0.122,0.061,163.823,-43.358,-80.283
12689,0.6958,0.2041,-0.7070,0.061,0.061,0.000,163.828,-43.358,-80.283
12699,0.6958,0.2051,-0.7061,0.061,0.061,0.061,163.828,-43.363,-80.283
12709,0.6958,0.2056,-0.7080,0.061,0.000,0.061,163.828,-43.363,-80.283
12719,0.6958,0.2051,-0.7061,0.122,-0.061,0.000,163.828,-43.363,-80.283
12729,0.6958,0.2046,-0.7080,0.183,-0.122,0.061,163.834,-43.363,-80.283
12739,0.6958,0.2046,-0.7061,0.305,-0.122,0.061,163.834,-43.363,-80.283
12749,0.6938,0.2026,-0.7061,0.244,-0.122,0.061,163.839,-43.358,-80.283
12760,0.6938,0.2036,-0.7065,0.183,-0.183,0.000,163.845,-43.358,-80.283
12769,0.6943,0.2036,-0.7070,-0.061,-0.305,-0.061,163.845,-43.358,-80.283
12779,0.6943,0.2056,-0.7070,-0.061,-0.305,-0.061,163.845,-43.352,-80.283
12789,0.6938,0.2041,-0.7046,-0.122,-0.305,-0.061,163.845,-43.347,-80.283
12799,0.6895,0.2002,-0.7056,-0.244,-0.244,-0.122,163.845,-43.347,-80.283
12809,0.6875,0.1987,-0.7041,-0.549,-0.183,-0.183,163.839,-43.341,-80.283
12819,0.6870,0.2012,-0.7041,-0.916,-0.122,-0.183,163.834,-43.341,-80.283
12829,0.6875,0.2031,-0.7051,-1.160,0.000,-0.122,163.823,-43.336,-80.283
12839,0.6885,0.2075,-0.7036,-1.099,0.122,-0.122,163.806,-43.336,-80.283
12849,0.6855,0.2051,-0.7031,-1.099,0.244,-0.305,163.790,-43.336,-80.283
12859,0.6836,0.2017,-0.7041,-1.282,0.366,-0.488,163.773,-43.336,-80.283
12869,0.6914,0.2046,-0.7036,-1.526,0.793,-0.366,163.757,-43.341,-80.283
12879,0.6968,0.2075,-0.7085,-1.465,1.099,-0.061,163.735,-43.352,-80.283
12889,0.7007,0.2100,-0.7109,-1.343,1.099,0.000,163.718,-43.363,-80.283
12899,0.7007,0.2114,-0.7119,-1.038,0.854,-0.122,163.702,-43.369,-80.283
12909,0.7021,0.2109,-0.7095,-0.732,0.305,-0.183,163.691,-43.374,-80.283
12919,0.7021,0.2100,-0.7065,-0.366,-0.122,-0.061,163.680,-43.374,-80.283
12929,0.6987,0.2090,-0.7036,-0.122,-0.427,0.122,163.680,-43.374,-80.283
12939,0.6968,0.2090,-0.7002,0.061,-0.549,0.183,163.680,-43.369,-80.283
12949,0.6929,0.2080,-0.7002,0.122,-0.610,0.122,163.685,-43.369,-80.283
12959,0.6929,0.2070,-0.7021,0.183,-0.549,0.000,163.685,-43.363,-80.283
12969,0.6899,0.2046,-0.7041,0.183,-0.366,0.000,163.691,-43.358,-80.283
12979,0.6899,0.2026,-0.7075,0.244,-0.122,0.000,163.696,-43.358,-80.283
12989,0.6929,0.2041,-0.7129,0.244,0.061,-0.061,163.702,-43.352,-80.283
12999,0.6929,0.2036,-0.7114,0.183,0.183,-0.061,163.702,-43.352,-80.283
13009,0.6958,0.2031,-0.7124,0.183,0.183,-0.061,163.707,-43.352,-80.283
13019,0.6963,0.2036,-0.7139,0.244,0.122,0.000,163.713,-43.352,-80.283
13028,0.6948,0.2070,-0.7124,0.305,0.000,0.000,163.718,-43.347,-80.283
13039,0.6938,0.2070,-0.7065,0.244,-0.061,0.000,163.718,-43.347,-80.283
13049,0.6953,0.2065,-0.7021,0.244,-0.122,0.061,163.724,-43.347,-80.283
13059,0.6948,0.2075,-0.6973,0.244,-0.183,0.061,163.724,-43.352,-80.283
13069,0.6943,0.2080,-0.6987,0.244,-0.183,0.000,163.724,-43.352,-80.283
13079,0.6938,0.2056,-0.6997,0.183,-0.183,0.061,163.724,-43.352,-80.283
13089,0.6958,0.2041,-0.7002,0.061,-0.061,-0.061,163.724,-43.358,-80.283
13098,0.6938,0.2036,-0.7036,0.000,0.000,0.000,163.729,-43.358,-80.283
13109,0.6963,0.2031,-0.7070,0.000,0.061,-0.061,163.729,-43.358,-80.283
13119,0.6948,0.2026,-0.7056,-0.122,0.061,-0.061,163.729,-43.358,-80.283
13129,0.6953,0.2031,-0.7090,-0.244,-0.061,-0.061,163.729,-43.358,-80.283
13139,0.6943,0.2051,-0.7119,-0.305,-0.244,-0.061,163.729,-43.352,-80.283
13149,0.6948,0.2036,-0.7109,-0.366,-0.366,-0.061,163.729,-43.347,-80.283
13159,0.6953,0.2036,-0.7104,-0.366,-0.427,-0.061,163.729,-43.341,-80.283
13169,0.6914,0.2026,-0.7090,-0.427,-0.427,-0.122,163.724,-43.336,-80.283
13179,0.6914,0.2031,-0.7085,-0.549,-0.305,-0.183,163.724,-43.330,-80.283
13189,0.6904,0.2056,-0.7070,-0.610,-0.305,-0.183,163.718,-43.325,-80.283
13199,0.6919,0.2075,-0.7065,-0.549,-0.366,-0.183,163.707,-43.319,-80.283
13209,0.6909,0.2100,-0.7051,-0.427,-0.366,-0.183,163.702,-43.314,-80.283
13219,0.6919,0.2095,-0.7031,-0.366,-0.305,-0.122,163.696,-43.314,-80.283
13229,0.6914,0.2104,-0.6982,-0.244,-0.183,-0.122,163.685,-43.314,-80.283
13239,0.6914,0.2104,-0.6997,-0.183,-0.061,-0.122,163.680,-43.314,-80.283
13249,0.6924,0.2100,-0.7026,-0.061,0.061,-0.122,163.674,-43.314,-80.283
13259,0.6929,0.2080,-0.7046,0.000,0.122,-0.122,163.674,-43.314,-80.283
13269,0.6934,0.2056,-0.7056,0.061,0.122,-0.061,163.674,-43.314,-80.283
13279,0.6958,0.2046,-0.7095,0.122,0.122,-0.122,163.674,-43.319,-80.283
13289,0.6953,0.2041,-0.7114,0.183,0.000,-0.122,163.680,-43.314,-80.283
13299,0.6948,0.2017,-0.7114,0.122,-0.061,-0.061,163.685,-43.314,-80.283
13309,0.6948,0.2036,-0.7095,0.061,-0.122,-0.122,163.685,-43.314,-80.283
13319,0.6958,0.2017,-0.7061,0.000,-0.122,-0.122,163.691,-43.314,-80.283
13329,0.6938,0.2056,-0.7061,-0.122,-0.183,-0.183,163.691,-43.308,-80.283
13339,0.6924,0.2051,-0.7046,-0.183,-0.244,-0.183,163.685,-43.308,-80.283
13349,0.6953,0.2056,-0.7026,-0.244,-0.122,-0.183,163.685,-43.308,-80.283
13359,0.6929,0.2075,-0.7046,-0.244,-0.122,-0.183,163.680,-43.308,-80.283
13369,0.6929,0.2075,-0.7012,-0.244,0.000,-0.183,163.674,-43.308,-80.283
13379,0.6943,0.2095,-0.7031,-0.244,0.000,-0.183,163.663,-43.308,-80.283
13389,0.6914,0.2095,-0.7041,-0.122,0.061,-0.183,163.663,-43.308,-80.283
13399,0.6934,0.2100,-0.7046,-0.061,0.122,-0.183,163.658,-43.308,-80.283
13409,0.6929,0.2085,-0.7056,-0.061,0.122,-0.122,163.652,-43.308,-80.283
13419,0.6938,0.2061,-0.7065,0.000,0.061,-0.122,163.652,-43.308,-80.283
13429,0.6924,0.2075,-0.7080,0.061,0.061,-0.061,163.652,-43.308,-80.283
13439,0.6934,0.2051,-0.7041,0.061,0.061,0.000,163.652,-43.314,-80.283
13449,0.6924,0.2046,-0.7061,0.122,0.061,-0.061,163.658,-43.314,-80.283
13459,0.6934,0.2056,-0.7065,0.122,0.061,0.000,163.658,-43.314,-80.283
13469,0.6934,0.2056,-0.7061,0.122,0.061,0.000,163.658,-43.314,-80.283
13479,0.6938,0.2051,-0.7051,0.122,0.061,0.000,163.663,-43.314,-80.283
13489,0.6948,0.2046,-0.7041,0.122,0.122,0.000,163.663,-43.319,-80.283
13499,0.6938,0.2031,-0.7051,0.122,0.122,0.000,163.669,-43.319,-80.283
13509,0.6953,0.2041,-0.7046,0.122,0.061,0.000,163.669,-43.319,-80.283
13519,0.6948,0.2046,-0.7065,0.122,0.061,0.000,163.674,-43.325,-80.283
13529,0.6948,0.2031,-0.7051,0.122,0.000,0.000,163.680,-43.325,-80.283
13539,0.6943,0.2051,-0.7031,0.122,-0.061,-0.061,163.680,-43.325,-80.283
13549,0.6943,0.2051,-0.7056,0.122,-0.122,-0.061,163.680,-43.325,-80.283
13559,0.6953,0.2056,-0.7031,0.061,-0.183,-0.122,163.680,-43.325,-80.283
13569,0.6953,0.2061,-0.7026,0.061,-0.244,-0.122,163.680,-43.325,-80.283
13579,0.6958,0.2056,-0.7021,0.061,-0.183,-0.122,163.680,-43.325,-80.283
13589,0.6919,0.2070,-0.7021,0.061,-0.122,-0.122,163.680,-43.325,-80.283
13599,0.6890,0.2070,-0.7046,0.061,-0.122,-0.183,163.680,-43.319,-80.283
13609,0.6929,0.2046,-0.7065,0.061,-0.061,-0.183,163.680,-43.319,-80.283
13619,0.6924,0.2031,-0.7065,0.061,-0.061,-0.183,163.680,-43.319,-80.283
13629,0.6938,0.2046,-0.7065,0.000,-0.122,-0.183,163.680,-43.314,-80.283
13639,0.6914,0.2041,-0.7090,-0.061,-0.183,-0.122,163.685,-43.314,-80.283
13649,0.6929,0.2056,-0.7065,-0.122,-0.183,-0.061,163.680,-43.308,-80.283
13659,0.6914,0.2031,-0.7070,-0.183,-0.244,-0.122,163.685,-43.308,-80.283
13669,0.6929,0.2021,-0.7085,-0.183,-0.183,-0.122,163.685,-43.303,-80.283
13679,0.6943,0.2041,-0.7080,-0.244,-0.183,-0.183,163.685,-43.303,-80.283
13689,0.6929,0.2075,-0.7070,-0.305,-0.183,-0.122,163.680,-43.297,-80.283
13699,0.6914,0.2070,-0.7056,-0.183,-0.122,-0.183,163.674,-43.297,-80.283
13709,0.6904,0.2061,-0.7070,-0.061,-0.061,-0.183,163.674,-43.292,-80.283
13719,0.6919,0.2085,-0.7070,-0.061,-0.061,-0.183,163.669,-43.292,-80.283
13729,0.6924,0.2075,-0.7070,-0.061,0.000,-0.183,163.669,-43.292,-80.283
13739,0.6938,0.2085,-0.7056,0.000,0.000,-0.122,163.669,-43.292,-80.283
13749,0.6958,0.2100,-0.7080,0.122,0.122,-0.122,163.663,-43.292,-80.283
13759,0.6938,0.2090,-0.7061,0.305,0.244,-0.122,163.663,-43.292,-80.283
13769,0.6938,0.2046,-0.7061,0.305,0.122,-0.122,163.669,-43.297,-80.283
13779,0.6934,0.2046,-0.7051,0.305,0.061,-0.122,163.669,-43.297,-80.283
13789,0.6934,0.2017,-0.7031,0.244,-0.122,-0.061,163.674,-43.297,-80.283
13799,0.6924,0.2007,-0.7036,0.061,-0.244,-0.061,163.680,-43.297,-80.283
13809,0.6914,0.2026,-0.7026,-0.122,-0.244,-0.061,163.680,-43.292,-80.283
13819,0.6934,0.2051,-0.7026,-0.305,-0.122,0.000,163.680,-43.297,-80.283
13829,0.6943,0.2070,-0.7051,-0.427,-0.122,-0.061,163.674,-43.292,-80.283
13839,0.6943,0.2070,-0.7070,-0.488,-0.061,0.000,163.669,-43.292,-80.283
13849,0.6958,0.2075,-0.7100,-0.366,0.000,0.000,163.669,-43.292,-80.283
13859,0.6948,0.2070,-0.7114,-0.244,-0.061,-0.061,163.663,-43.292,-80.283
13869,0.6953,0.2085,-0.7119,-0.061,0.000,0.000,163.663,-43.292,-80.283
13879,0.6934,0.2070,-0.7104,0.122,-0.122,0.000,163.669,-43.286,-80.283
13889,0.6924,0.2065,-0.7100,0.244,-0.122,0.061,163.669,-43.286,-80.283
13899,0.6919,0.2070,-0.7056,0.366,-0.122,0.000,163.674,-43.286,-80.283
13909,0.6904,0.2065,-0.7051,0.366,-0.122,0.000,163.680,-43.281,-80.283
13919,0.6899,0.2046,-0.7026,0.305,-0.061,-0.061,163.680,-43.281,-80.283
13929,0.6919,0.2061,-0.7041,0.244,0.000,-0.061,163.685,-43.281,-80.283
13939,0.6938,0.2051,-0.7036,0.183,0.122,0.000,163.685,-43.286,-80.283
13949,0.6929,0.2041,-0.6997,0.122,0.183,0.000,163.685,-43.292,-80.283
13959,0.6914,0.2070,-0.7012,0.061,0.244,0.000,163.685,-43.292,-80.283
13969,0.6929,0.2056,-0.7041,0.061,0.244,-0.061,163.685,-43.297,-80.283
13979,0.6948,0.2046,-0.7056,0.061,0.183,0.000,163.685,-43.297,-80.283
13989,0.6934,0.2056,-0.7031,0.061,0.122,0.000,163.685,-43.303,-80.283
13999,0.6943,0.2056,-0.7070,0.061,0.061,0.000,163.691,-43.303,-80.283
14009,0.6943,0.2065,-0.7070,0.000,0.000,0.000,163.691,-43.303,-80.283
14019,0.6924,0.2061,-0.7075,0.000,-0.061,0.000,163.691,-43.303,-80.283
14029,0.6929,0.2061,-0.7056,0.000,-0.122,-0.061,163.691,-43.303,-80.283
14039,0.6948,0.2056,-0.7080,0.000,-0.061,-0.061,163.691,-43.303,-80.283
14049,0.6948,0.2065,-0.7070,0.000,-0.061,-0.061,163.691,-43.297,-80.283
14059,0.6934,0.2051,-0.7075,0.000,0.061,-0.122,163.691,-43.297,-80.283
14069,0.6929,0.2061,-0.7090,0.000,0.122,-0.122,163.691,-43.297,-80.283
14079,0.6938,0.2031,-0.7075,0.061,0.061,-0.122,163.691,-43.303,-80.283
14089,0.6919,0.2056,-0.7046,0.000,-0.122,-0.061,163.691,-43.297,-80.283
14099,0.6924,0.2046,-0.7046,-0.061,-0.183,0.000,163.696,-43.297,-80.283
14109,0.6934,0.2051,-0.7041,-0.061,-0.122,0.061,163.696,-43.297,-80.283
14119,0.6934,0.2070,-0.7046,-0.061,-0.061,0.061,163.696,-43.297,-80.283
14129,0.6929,0.2075,-0.7026,-0.061,-0.061,0.061,163.691,-43.297,-80.283
14139,0.6929,0.2070,-0.7041,0.000,0.061,0.000,163.691,-43.297,-80.283
14149,0.6929,0.2036,-0.7070,0.061,0.122,0.061,163.696,-43.303,-80.283
14159,0.6938,0.2036,-0.7085,0.000,0.061,0.000,163.696,-43.303,-80.283
14169,0.6938,0.2007,-0.7080,0.061,-0.061,0.000,163.702,-43.303,-80.283
14179,0.6963,0.2002,-0.7085,0.000,-0.061,0.061,163.707,-43.303,-80.283
14189,0.6973,0.2012,-0.7070,-0.061,-0.122,0.000,163.713,-43.303,-80.283
14199,0.6958,0.2021,-0.7075,-0.183,-0.183,-0.061,163.713,-43.303,-80.283
14209,0.6948,0.2041,-0.7080,-0.244,-0.305,0.000,163.713,-43.297,-80.283
14219,0.6919,0.2051,-0.7056,-0.244,-0.305,-0.061,163.713,-43.297,-80.283
14229,0.6909,0.2046,-0.7080,-0.305,-0.305,-0.061,163.713,-43.292,-80.283
14239,0.6909,0.2061,-0.7051,-0.244,-0.305,-0.061,163.713,-43.286,-80.283
14249,0.6914,0.2085,-0.7051,-0.183,-0.244,-0.061,163.707,-43.286,-80.283
14260,0.6895,0.2075,-0.7041,-0.122,-0.183,-0.061,163.702,-43.281,-80.283
14269,0.6924,0.2070,-0.7036,-0.061,-0.122,-0.061,163.702,-43.281,-80.283
14279,0.6929,0.2061,-0.7046,0.061,-0.061,0.000,163.702,-43.281,-80.283
14289,0.6914,0.2080,-0.7061,0.122,0.000,0.000,163.702,-43.281,-80.283
14299,0.6938,0.2065,-0.7075,0.183,0.000,0.061,163.707,-43.281,-80.283
14309,0.6943,0.2056,-0.7061,0.244,-0.061,0.000,163.707,-43.281,-80.283
14319,0.6929,0.2041,-0.7075,0.305,-0.061,0.000,163.713,-43.281,-80.283
14329,0.6919,0.2026,-0.7080,0.305,-0.122,0.000,163.718,-43.281,-80.283
14339,0.6948,0.2007,-0.7061,0.244,-0.122,0.000,163.729,-43.281,-80.283
14349,0.6938,0.2036,-0.7090,0.183,-0.122,0.000,163.729,-43.281,-80.283
14359,0.6938,0.2017,-0.7085,0.122,-0.183,0.000,163.735,-43.275,-80.283
14369,0.6914,0.2036,-0.7051,0.061,-0.122,0.000,163.740,-43.275,-80.283
14379,0.6919,0.2041,-0.7070,0.061,-0.122,0.000,163.740,-43.275,-80.283
14389,0.6919,0.2061,-0.7061,0.061,-0.122,0.000,163.740,-43.275,-80.283
14399,0.6938,0.2061,-0.7100,0.061,-0.183,0.000,163.746,-43.270,-80.283
14409,0.6924,0.2031,-0.7070,0.122,-0.122,-0.061,163.746,-43.270,-80.283
14419,0.6924,0.2051,-0.7080,0.061,-0.183,0.000,163.751,-43.270,-80.283
14429,0.6934,0.2061,-0.7075,0.061,-0.183,0.000,163.751,-43.264,-80.283
14439,0.6929,0.2065,-0.7085,0.061,-0.122,-0.061,163.751,-43.264,-80.283
14449,0.6914,0.2056,-0.7080,0.122,-0.122,-0.061,163.751,-43.259,-80.283
14459,0.6919,0.2046,-0.7061,0.061,-0.122,-0.061,163.757,-43.259,-80.283
14469,0.6914,0.2041,-0.7070,0.000,-0.061,-0.061,163.757,-43.259,-80.283
14479,0.6934,0.2051,-0.7061,0.000,-0.122,-0.061,163.757,-43.259,-80.283
14489,0.6929,0.2041,-0.7070,-0.061,-0.122,-0.061,163.757,-43.259,-80.283
14499,0.6934,0.2046,-0.7051,-0.061,-0.122,-0.061,163.757,-43.259,-80.283
14509,0.6924,0.2046,-0.7051,-0.122,-0.122,-0.061,163.757,-43.259,-80.283
14519,0.6938,0.2046,-0.7065,-0.061,-0.122,-0.122,163.757,-43.253,-80.283
14529,0.6938,0.2046,-0.7070,-0.122,-0.061,-0.061,163.751,-43.253,-80.283
14539,0.6924,0.2036,-0.7095,-0.061,-0.061,-0.061,163.757,-43.253,-80.283
14549,0.6914,0.2061,-0.7095,-0.061,0.000,-0.061,163.757,-43.253,-80.283
14559,0.6904,0.2041,-0.7085,0.000,-0.061,-0.122,163.757,-43.253,-80.283
14569,0.6904,0.2031,-0.7061,0.061,-0.122,-0.122,163.757,-43.248,-80.283
14579,0.6929,0.2036,-0.7056,0.061,-0.122,-0.122,163.757,-43.248,-80.283
14589,0.6924,0.2051,-0.7075,0.061,-0.061,-0.061,163.757,-43.248,-80.283
14599,0.6938,0.2070,-0.7065,0.000,-0.061,-0.061,163.757,-43.248,-80.283
14609,0.6934,0.2065,-0.7080,0.061,0.000,-0.061,163.757,-43.248,-80.283
14619,0.6943,0.2070,-0.7051,0.122,0.061,-0.061,163.757,-43.248,-80.283
14629,0.6924,0.2061,-0.7085,0.183,0.061,-0.061,163.757,-43.248,-80.283
14639,0.6919,0.2046,-0.7070,0.244,0.000,-0.061,163.762,-43.248,-80.283
14649,0.6924,0.2036,-0.7051,0.305,-0.183,0.000,163.768,-43.248,-80.283
14659,0.6953,0.2041,-0.7051,0.244,-0.305,0.061,163.773,-43.248,-80.283
14669,0.6924,0.2075,-0.7031,0.122,-0.427,0.061,163.773,-43.242,-80.283
14679,0.6924,0.2051,-0.7021,0.061,-0.366,0.061,163.773,-43.242,-80.283
14689,0.6914,0.2041,-0.7036,-0.061,-0.366,0.061,163.773,-43.242,-80.283
14699,0.6919,0.2046,-0.7065,0.000,-0.244,0.000,163.773,-43.237,-80.283
14709,0.6895,0.2041,-0.7090,0.122,-0.122,-0.061,163.779,-43.237,-80.283
14719,0.6919,0.2046,-0.7109,0.244,-0.061,-0.061,163.784,-43.231,-80.283
14729,0.6938,0.2080,-0.7129,0.427,-0.122,0.000,163.784,-43.231,-80.283
14739,0.6938,0.2051,-0.7148,0.549,-0.122,0.000,163.795,-43.226,-80.283
14749,0.6919,0.2046,-0.7144,0.732,-0.122,0.061,163.806,-43.226,-80.283
14759,0.6938,0.2065,-0.7119,0.916,-0.183,0.061,163.812,-43.220,-80.283
14769,0.6968,0.2056,-0.7080,1.099,-0.183,0.122,163.828,-43.220,-80.283
14779,0.6943,0.2046,-0.7075,1.160,-0.244,0.061,163.839,-43.220,-80.283
14789,0.6929,0.2021,-0.7061,1.038,-0.183,0.000,163.850,-43.220,-80.283
14799,0.6924,0.2021,-0.7056,0.854,-0.183,0.000,163.861,-43.220,-80.283
14809,0.6919,0.2007,-0.7056,0.732,-0.122,-0.061,163.872,-43.220,-80.283
14819,0.6938,0.2002,-0.7031,0.549,-0.061,-0.061,163.878,-43.220,-80.283
14829,0.6948,0.1997,-0.7031,0.305,0.000,-0.122,163.883,-43.226,-80.283
14839,0.6919,0.2007,-0.7051,0.122,0.000,-0.183,163.889,-43.226,-80.283
14849,0.6914,0.2002,-0.7041,0.000,-0.061,-0.183,163.889,-43.226,-80.283
14859,0.6934,0.1997,-0.7061,-0.061,-0.122,-0.244,163.889,-43.226,-80.283
14869,0.6943,0.2026,-0.7080,-0.061,-0.183,-0.244,163.889,-43.226,-80.283
14879,0.6924,0.2036,-0.7100,-0.061,-0.305,-0.244,163.889,-43.220,-80.283
14889,0.6919,0.2031,-0.7129,0.000,-0.305,-0.244,163.889,-43.215,-80.283
14899,0.6919,0.2021,-0.7095,0.000,-0.305,-0.244,163.889,-43.209,-80.283
14909,0.6914,0.2012,-0.7070,-0.061,-0.244,-0.244,163.889,-43.209,-80.283
14919,0.6899,0.2046,-0.7080,0.000,-0.183,-0.305,163.883,-43.204,-80.283
14929,0.6895,0.2041,-0.7095,0.061,-0.122,-0.305,163.883,-43.198,-80.283
14939,0.6899,0.2036,-0.7095,0.061,-0.183,-0.244,163.883,-43.198,-80.283
14949,0.6904,0.2036,-0.7090,0.061,-0.244,-0.183,163.883,-43.193,-80.283
14959,0.6899,0.2036,-0.7046,0.061,-0.305,-0.183,163.883,-43.193,-80.283
14969,0.6904,0.2036,-0.7061,0.000,-0.244,-0.061,163.883,-43.187,-80.283
14979,0.6914,0.2061,-0.7080,0.000,-0.244,-0.061,163.883,-43.187,-80.283
14989,0.6929,0.2056,-0.7056,0.061,-0.183,-0.061,163.883,-43.187,-80.283
14999,0.6909,0.2041,-0.7046,0.122,-0.122,0.000,163.883,-43.187,-80.283
15009,0.6919,0.2041,-0.7046,0.183,-0.061,0.000,163.883,-43.187,-80.283
15019,0.6948,0.2036,-0.7090,0.244,0.061,-0.061,163.889,-43.187,-80.283
15029,0.6929,0.2036,-0.7065,0.244,0.061,-0.061,163.889,-43.187,-80.283
15039,0.6943,0.2002,-0.7070,0.183,0.000,-0.061,163.894,-43.193,-80.283
15049,0.6943,0.1992,-0.7100,0.183,-0.122,-0.061,163.900,-43.193,-80.283
15059,0.6919,0.2002,-0.7100,0.122,-0.244,-0.061,163.905,-43.187,-80.283
15069,0.6909,0.2012,-0.7056,0.122,-0.244,-0.061,163.911,-43.187,-80.283
15079,0.6914,0.1992,-0.7085,0.061,-0.244,-0.061,163.911,-43.182,-80.283
15089,0.6895,0.2036,-0.7085,-0.061,-0.183,-0.061,163.911,-43.182,-80.283
15099,0.6880,0.2046,-0.7095,-0.122,-0.122,-0.061,163.911,-43.176,-80.283
15109,0.6899,0.2046,-0.7100,-0.122,-0.061,-0.061,163.911,-43.176,-80.283
15119,0.6904,0.2041,-0.7065,-0.061,-0.061,-0.061,163.911,-43.176,-80.283
15129,0.6909,0.2070,-0.7090,0.000,-0.061,0.000,163.905,-43.176,-80.283
15139,0.6914,0.2051,-0.7080,0.061,0.061,0.000,163.905,-43.176,-80.283
15149,0.6919,0.2056,-0.7080,0.122,0.061,-0.061,163.905,-43.176,-80.283
15159,0.6909,0.2031,-0.7065,0.122,0.122,-0.122,163.905,-43.176,-80.283
15169,0.6919,0.2036,-0.7070,0.183,0.183,-0.061,163.905,-43.182,-80.283
15179,0.6909,0.2021,-0.7075,0.183,0.183,-0.061,163.911,-43.182,-80.283
15189,0.6929,0.2017,-0.7051,0.183,0.183,-0.061,163.911,-43.187,-80.283
15199,0.6929,0.2031,-0.7061,0.183,0.061,0.000,163.916,-43.187,-80.283
15209,0.6938,0.2012,-0.7100,0.183,0.061,0.000,163.916,-43.187,-80.283
15219,0.6938,0.2021,-0.7085,0.122,0.122,-0.061,163.922,-43.187,-80.283
15229,0.6938,0.2031,-0.7100,0.183,0.122,-0.061,163.922,-43.193,-80.283
15239,0.6938,0.2031,-0.7090,0.122,0.061,-0.061,163.922,-43.193,-80.283
15249,0.6934,0.2021,-0.7104,0.122,0.061,-0.061,163.927,-43.193,-80.283
15260,0.6929,0.2012,-0.7090,0.122,0.061,-0.061,163.927,-43.193,-80.283
15269,0.6924,0.2012,-0.7109,0.122,0.000,-0.061,163.932,-43.193,-80.283
15279,0.6938,0.2026,-0.7065,0.061,0.000,-0.061,163.932,-43.193,-80.283
15289,0.6909,0.2046,-0.7061,0.061,0.000,-0.122,163.932,-43.193,-80.283
15299,0.6929,0.2036,-0.7090,0.122,-0.061,-0.122,163.932,-43.193,-80.283
15309,0.6934,0.2031,-0.7056,0.122,0.000,-0.061,163.932,-43.198,-80.283
15319,0.6943,0.2017,-0.7036,0.122,0.061,-0.122,163.932,-43.198,-80.283
15329,0.6938,0.2002,-0.7051,0.122,0.061,-0.122,163.932,-43.204,-80.283
15339,0.6943,0.1997,-0.7085,0.061,0.061,-0.061,163.938,-43.204,-80.283
15349,0.6943,0.1982,-0.7095,-0.122,0.000,-0.061,163.943,-43.204,-80.283
15359,0.6948,0.2007,-0.7075,-0.183,0.000,0.000,163.943,-43.204,-80.283
15369,0.6938,0.2017,-0.7090,-0.244,-0.122,0.000,163.943,-43.204,-80.283
15379,0.6938,0.2007,-0.7085,-0.244,-0.122,-0.061,163.938,-43.204,-80.283
15389,0.6919,0.2007,-0.7085,-0.305,-0.061,-0.061,163.938,-43.204,-80.283
15399,0.6904,0.2002,-0.7095,-0.366,-0.122,-0.122,163.938,-43.204,-80.283
15409,0.6885,0.2021,-0.7104,-0.427,-0.122,-0.122,163.932,-43.198,-80.283
15419,0.6885,0.2002,-0.7075,-0.427,-0.061,-0.183,163.932,-43.198,-80.283
15429,0.6904,0.2007,-0.7090,-0.427,-0.061,-0.122,163.927,-43.198,-80.283
15439,0.6914,0.2046,-0.7095,-0.488,0.000,-0.061,163.922,-43.193,-80.283
15449,0.6914,0.2056,-0.7095,-0.427,0.183,-0.061,163.916,-43.198,-80.283
15459,0.6938,0.2046,-0.7109,-0.305,0.305,-0.061,163.916,-43.198,-80.283
15469,0.6934,0.2021,-0.7129,-0.244,0.305,-0.061,163.911,-43.198,-80.283
15479,0.6929,0.2007,-0.7100,-0.183,0.183,-0.061,163.911,-43.204,-80.283
15489,0.6919,0.2002,-0.7080,-0.183,0.000,0.000,163.916,-43.204,-80.283
15499,0.6909,0.2031,-0.7085,-0.183,-0.183,0.061,163.916,-43.198,-80.283
15509,0.6914,0.2021,-0.7031,-0.366,-0.244,0.122,163.911,-43.198,-80.283
15519,0.6909,0.2041,-0.7041,-0.488,-0.183,0.122,163.911,-43.198,-80.283
15529,0.6904,0.2046,-0.7061,-0.549,-0.061,0.122,163.905,-43.198,-80.283
15539,0.6909,0.2070,-0.7046,-0.549,0.122,0.122,163.894,-43.204,-80.283
15549,0.6904,0.2070,-0.7061,-0.366,0.122,0.122,163.889,-43.204,-80.283
15559,0.6909,0.2046,-0.7114,-0.122,0.183,0.122,163.889,-43.204,-80.283
15569,0.6914,0.2046,-0.7109,0.122,0.122,0.122,163.894,-43.204,-80.283
15579,0.6914,0.2041,-0.7124,0.366,0.183,0.122,163.900,-43.204,-80.283
15589,0.6904,0.2051,-0.7129,0.427,0.183,0.122,163.905,-43.204,-80.283
15599,0.6914,0.2036,-0.7119,0.549,0.244,0.122,163.911,-43.204,-80.283
15609,0.6929,0.2036,-0.7109,0.488,0.244,0.183,163.916,-43.209,-80.283
15619,0.6943,0.2026,-0.7090,0.427,0.244,0.183,163.927,-43.209,-80.283
15629,0.6943,0.2017,-0.7090,0.427,0.244,0.122,163.932,-43.215,-80.283
15639,0.6953,0.2007,-0.7065,0.305,0.122,0.122,163.938,-43.220,-80.283
15649,0.6919,0.2012,-0.7012,0.244,0.122,0.061,163.938,-43.220,-80.283
15659,0.6924,0.2017,-0.7007,0.244,0.061,0.000,163.943,-43.226,-80.283
15669,0.6934,0.2017,-0.6997,0.122,0.061,0.000,163.943,-43.231,-80.283
15679,0.6919,0.2012,-0.7017,0.061,0.061,-0.061,163.943,-43.231,-80.283
15689,0.6919,0.2017,-0.7056,-0.061,0.000,-0.122,163.943,-43.231,-80.283
15699,0.6943,0.2017,-0.7051,-0.183,0.000,-0.122,163.943,-43.237,-80.283
15709,0.6934,0.2017,-0.7080,-0.244,0.000,-0.183,163.938,-43.237,-80.283
15719,0.6938,0.2012,-0.7080,-0.366,-0.122,-0.183,163.938,-43.237,-80.283
15729,0.6938,0.2021,-0.7090,-0.427,-0.244,-0.122,163.932,-43.231,-80.283
15739,0.6914,0.2026,-0.7109,-0.366,-0.122,-0.122,163.927,-43.231,-80.283
15749,0.6919,0.2012,-0.7119,-0.366,-0.122,-0.122,163.927,-43.226,-80.283
15760,0.6904,0.2046,-0.7114,-0.305,-0.122,-0.122,163.927,-43.220,-80.283
15769,0.6895,0.2031,-0.7095,-0.244,-0.122,-0.122,163.922,-43.220,-80.283
15779,0.6904,0.2036,-0.7095,-0.183,-0.122,-0.122,163.922,-43.215,-80.283
15789,0.6880,0.2041,-0.7090,-0.122,-0.183,-0.122,163.916,-43.215,-80.283
15799,0.6899,0.2041,-0.7051,-0.122,-0.183,-0.061,163.916,-43.209,-80.283
15809,0.6880,0.2061,-0.7031,-0.122,-0.183,0.000,163.916,-43.209,-80.283
15819,0.6899,0.2070,-0.7026,-0.061,-0.061,0.061,163.911,-43.209,-80.283
15829,0.6919,0.2056,-0.7065,0.000,0.000,0.061,163.911,-43.209,-80.283
15839,0.6924,0.2026,-0.7085,0.061,0.061,0.000,163.911,-43.209,-80.283
15849,0.6934,0.2021,-0.7100,0.183,0.122,0.000,163.916,-43.215,-80.283
15859,0.6948,0.2017,-0.7104,0.183,0.183,0.000,163.916,-43.215,-80.283
15869,0.6948,0.1987,-0.7104,0.183,0.122,0.000,163.927,-43.215,-80.283
15879,0.6943,0.1982,-0.7104,0.183,0.061,0.000,163.932,-43.220,-80.283
15889,0.6934,0.1987,-0.7114,0.183,-0.061,-0.061,163.938,-43.215,-80.283
15899,0.6914,0.1997,-0.7109,0.122,-0.122,-0.061,163.943,-43.215,-80.283
15909,0.6934,0.2007,-0.7090,0.122,-0.122,-0.061,163.943,-43.215,-80.283
15919,0.6909,0.2031,-0.7090,0.061,-0.122,-0.061,163.943,-43.215,-80.283
15929,0.6919,0.2031,-0.7070,0.000,-0.061,-0.122,163.943,-43.209,-80.283
15939,0.6919,0.2026,-0.7065,-0.061,0.061,-0.122,163.943,-43.215,-80.283
15949,0.6938,0.2046,-0.7051,0.000,0.122,-0.122,163.943,-43.215,-80.283
15959,0.6924,0.2051,-0.7051,0.000,0.183,-0.122,163.938,-43.220,-80.283
15969,0.6948,0.2051,-0.7051,0.000,0.183,-0.122,163.932,-43.220,-80.283
15979,0.6934,0.2065,-0.7075,0.000,0.061,-0.122,163.932,-43.220,-80.283
15989,0.6948,0.2041,-0.7075,0.122,0.061,-0.122,163.932,-43.226,-80.283
15999,0.6929,0.2021,-0.7070,0.122,0.000,-0.122,163.932,-43.226,-80.283
16009,0.6929,0.2021,-0.7065,0.122,-0.061,-0.122,163.932,-43.226,-80.283
16019,0.6929,0.2017,-0.7085,0.122,-0.122,-0.061,163.938,-43.220,-80.283
16029,0.6929,0.2002,-0.7051,0.061,-0.061,-0.122,163.938,-43.226,-80.283
16039,0.6919,0.1997,-0.7070,0.000,0.000,-0.122,163.938,-43.226,-80.283
16049,0.6929,0.2002,-0.7085,-0.061,0.000,-0.183,163.938,-43.226,-80.283
16059,0.6909,0.2007,-0.7090,-0.061,0.000,-0.183,163.943,-43.226,-80.283
16069,0.6924,0.2021,-0.7080,-0.061,0.061,-0.122,163.938,-43.226,-80.283
16079,0.6929,0.2026,-0.7056,-0.122,0.061,-0.183,163.938,-43.226,-80.283
16089,0.6909,0.2031,-0.7100,-0.122,0.000,-0.122,163.938,-43.226,-80.283
16099,0.6909,0.2046,-0.7070,-0.122,0.000,-0.122,163.932,-43.220,-80.283
16109,0.6948,0.2041,-0.7065,-0.061,-0.061,-0.122,163.932,-43.226,-80.283
16119,0.6953,0.2026,-0.7080,-0.061,-0.122,-0.122,163.932,-43.226,-80.283
16129,0.6929,0.2007,-0.7075,-0.061,-0.122,-0.122,163.932,-43.220,-80.283
16139,0.6943,0.2007,-0.7070,0.000,-0.122,-0.122,163.932,-43.220,-80.283
16149,0.6948,0.2021,-0.7070,0.000,-0.122,-0.122,163.932,-43.226,-80.283
16159,0.6924,0.2031,-0.7104,0.061,-0.061,-0.122,163.932,-43.220,-80.283
16169,0.6943,0.2031,-0.7104,0.061,-0.122,-0.122,163.932,-43.220,-80.283
16179,0.6929,0.1992,-0.7095,0.122,-0.122,-0.122,163.938,-43.220,-80.283
16189,0.6924,0.2002,-0.7100,0.061,-0.183,-0.122,163.943,-43.215,-80.283
16199,0.6919,0.2021,-0.7075,0.061,-0.183,-0.122,163.943,-43.215,-80.283
16209,0.6904,0.2012,-0.7031,0.061,-0.183,-0.122,163.943,-43.215,-80.283
16219,0.6880,0.2021,-0.7041,0.000,-0.183,-0.122,163.943,-43.215,-80.283
16229,0.6885,0.2012,-0.7061,0.000,-0.183,-0.183,163.943,-43.209,-80.283
16239,0.6919,0.2026,-0.7051,-0.061,0.000,-0.183,163.943,-43.209,-80.283
16249,0.6934,0.2036,-0.7085,-0.061,0.122,-0.122,163.938,-43.209,-80.283
16260,0.6953,0.2026,-0.7104,-0.061,0.183,-0.122,163.938,-43.215,-80.283
16269,0.6973,0.2036,-0.7124,0.000,0.183,-0.061,163.938,-43.215,-80.283
16279,0.6953,0.2026,-0.7124,0.000,0.183,-0.061,163.938,-43.215,-80.283
16289,0.6938,0.1997,-0.7080,0.122,0.061,-0.061,163.943,-43.220,-80.283
16299,0.6938,0.2002,-0.7061,0.122,-0.183,0.000,163.949,-43.220,-80.283
16309,0.6938,0.1982,-0.7041,0.061,-0.366,0.061,163.954,-43.220,-80.283
16319,0.6929,0.2031,-0.7017,-0.122,-0.549,0.122,163.954,-43.215,-80.283
16329,0.6890,0.2012,-0.7026,-0.305,-0.549,0.061,163.954,-43.215,-80.283
16339,0.6890,0.2026,-0.7036,-0.488,-0.488,0.061,163.949,-43.209,-80.283
16349,0.6885,0.2036,-0.7056,-0.549,-0.427,0.000,163.943,-43.204,-80.283
16359,0.6885,0.2031,-0.7109,-0.427,-0.305,-0.061,163.943,-43.198,-80.283
16369,0.6929,0.2021,-0.7153,-0.366,-0.122,0.000,163.943,-43.193,-80.283
16379,0.6934,0.2002,-0.7158,-0.305,-0.122,0.000,163.943,-43.193,-80.283
16389,0.6934,0.2017,-0.7178,-0.183,-0.122,0.061,163.943,-43.187,-80.283
16399,0.6924,0.2031,-0.7134,-0.122,-0.061,0.061,163.949,-43.187,-80.283
16409,0.6909,0.2031,-0.7124,0.000,-0.122,0.122,163.949,-43.182,-80.283
16419,0.6904,0.2046,-0.7114,0.122,-0.244,0.183,163.954,-43.182,-80.283
16429,0.6890,0.2041,-0.7075,0.244,-0.305,0.183,163.960,-43.176,-80.283
16439,0.6899,0.2026,-0.7031,0.244,-0.183,0.183,163.960,-43.176,-80.283
16449,0.6899,0.2041,-0.7007,0.244,-0.061,0.183,163.965,-43.182,-80.283
16459,0.6895,0.2017,-0.6992,0.183,0.000,0.183,163.965,-43.182,-80.283
16469,0.6909,0.2031,-0.7021,0.183,0.061,0.122,163.971,-43.187,-80.283
16479,0.6914,0.2031,-0.7051,0.122,0.183,0.122,163.971,-43.187,-80.283
16489,0.6914,0.2021,-0.7080,0.000,0.244,0.122,163.971,-43.193,-80.283
16499,0.6919,0.2002,-0.7095,-0.061,0.183,0.061,163.971,-43.193,-80.283
16509,0.6929,0.2012,-0.7124,-0.061,0.061,0.122,163.976,-43.193,-80.283
16519,0.6924,0.2026,-0.7109,-0.061,-0.122,0.122,163.976,-43.193,-80.283
16529,0.6943,0.1992,-0.7100,-0.061,-0.183,0.122,163.982,-43.193,-80.283
16539,0.6934,0.2002,-0.7109,-0.061,-0.244,0.122,163.987,-43.193,-80.283
16549,0.6938,0.2002,-0.7100,-0.061,-0.244,0.061,163.987,-43.187,-80.283
16559,0.6934,0.1997,-0.7090,-0.122,-0.122,0.000,163.993,-43.187,-80.283
16569,0.6938,0.2002,-0.7114,-0.122,-0.061,-0.061,163.993,-43.187,-80.283
16579,0.6929,0.2026,-0.7090,-0.122,0.000,-0.061,163.993,-43.187,-80.283
16589,0.6919,0.2021,-0.7065,-0.122,-0.122,-0.061,163.993,-43.187,-80.283
16599,0.6924,0.2026,-0.7070,-0.122,-0.244,0.000,163.993,-43.187,-80.283
16609,0.6909,0.2041,-0.7046,-0.122,-0.305,0.000,163.987,-43.187,-80.283
16619,0.6899,0.2046,-0.7051,-0.183,-0.305,-0.061,163.987,-43.182,-80.283
16629,0.6904,0.2021,-0.7036,-0.183,-0.244,-0.061,163.982,-43.182,-80.283
16639,0.6885,0.2017,-0.7046,-0.244,-0.183,-0.061,163.982,-43.182,-80.283
16649,0.6899,0.2017,-0.7070,-0.244,-0.122,-0.122,163.976,-43.176,-80.283
16659,0.6914,0.2036,-0.7080,-0.244,-0.061,-0.183,163.976,-43.176,-80.283
16669,0.6934,0.2007,-0.7104,-0.183,0.061,-0.183,163.971,-43.176,-80.283
16679,0.6914,0.2002,-0.7124,-0.183,0.061,-0.183,163.971,-43.176,-80.283
16689,0.6919,0.2007,-0.7134,-0.244,0.000,-0.244,163.971,-43.176,-80.283
16699,0.6929,0.2012,-0.7124,-0.183,-0.061,-0.244,163.971,-43.171,-80.283
16709,0.6924,0.2007,-0.7144,-0.122,-0.122,-0.183,163.971,-43.171,-80.283
