elapsed_ms,acc_x_g,acc_y_g,acc_z_g,gyro_x_dps,gyro_y_dps,gyro_z_dps,angle_x_deg,angle_y_deg,angle_z_deg
0,0.7485,0.2686,-0.6265,-0.488,-0.366,-0.244,156.693,-47.642,-65.693
9,0.7471,0.2671,-0.6255,-0.610,-0.610,-0.366,156.687,-47.631,-65.693
19,0.7490,0.2666,-0.6260,-0.671,-0.549,-0.427,156.682,-47.626,-65.693
29,0.7461,0.2671,-0.6235,-0.671,-0.427,-0.366,156.676,-47.626,-65.693
39,0.7451,0.2690,-0.6216,-0.488,-0.244,-0.244,156.665,-47.620,-65.693
49,0.7461,0.2656,-0.6216,-0.305,0.000,-0.122,156.665,-47.626,-65.693
59,0.7437,0.2686,-0.6230,0.000,0.183,0.061,156.665,-47.626,-65.693
69,0.7446,0.2661,-0.6250,0.183,0.427,0.183,156.671,-47.631,-65.693
79,0.7461,0.2686,-0.6230,0.305,0.488,0.305,156.676,-47.637,-65.693
89,0.7480,0.2690,-0.6265,0.244,0.488,0.305,156.676,-47.642,-65.693
99,0.7485,0.2681,-0.6274,0.122,0.366,0.305,156.682,-47.648,-65.693
109,0.7480,0.2705,-0.6250,-0.122,0.122,0.244,156.682,-47.648,-65.693
119,0.7480,0.2715,-0.6245,-0.305,-0.061,0.183,156.682,-47.653,-65.693
129,0.7495,0.2725,-0.6240,-0.427,-0.183,0.183,156.676,-47.653,-65.693
139,0.7480,0.2710,-0.6235,-0.427,-0.244,0.061,156.671,-47.648,-65.693
149,0.7456,0.2720,-0.6235,-0.366,-0.305,0.000,156.665,-47.648,-65.693
159,0.7466,0.2700,-0.6221,-0.305,-0.183,-0.061,156.660,-47.648,-65.693
169,0.7456,0.2700,-0.6226,-0.244,-0.061,-0.061,156.660,-47.648,-65.693
179,0.7476,0.2700,-0.6240,-0.244,0.122,-0.122,156.654,-47.648,-65.693
189,0.7480,0.2695,-0.6240,-0.305,0.244,-0.122,156.649,-47.648,-65.693
199,0.7480,0.2715,-0.6245,-0.244,0.366,-0.183,156.643,-47.653,-65.693
209,0.7495,0.2700,-0.6245,-0.244,0.366,-0.183,156.632,-47.659,-65.693
219,0.7505,0.2690,-0.6235,-0.183,0.244,-0.183,156.632,-47.659,-65.693
229,0.7495,0.2681,-0.6235,-0.183,0.183,-0.183,156.627,-47.664,-65.693
239,0.7490,0.2686,-0.6230,-0.183,0.122,-0.244,156.621,-47.664,-65.693
249,0.7476,0.2681,-0.6201,-0.183,0.061,-0.244,156.616,-47.670,-65.693
259,0.7480,0.2681,-0.6216,-0.183,0.000,-0.244,156.616,-47.670,-65.693
269,0.7456,0.2710,-0.6226,-0.183,0.061,-0.183,156.610,-47.670,-65.693
279,0.7466,0.2700,-0.6221,-0.183,0.122,-0.061,156.605,-47.670,-65.693
289,0.7476,0.2705,-0.6230,-0.061,0.183,0.000,156.605,-47.675,-65.693
299,0.7490,0.2715,-0.6221,0.061,0.305,0.122,156.599,-47.675,-65.693
309,0.7495,0.2705,-0.6221,0.244,0.427,0.183,156.605,-47.686,-65.693
319,0.7490,0.2715,-0.6221,0.366,0.427,0.244,156.605,-47.692,-65.693
329,0.7510,0.2729,-0.6255,0.427,0.427,0.183,156.610,-47.697,-65.693
339,0.7524,0.2715,-0.6260,0.305,0.366,0.122,156.610,-47.703,-65.693
349,0.7534,0.2715,-0.6245,0.061,0.366,-0.061,156.605,-47.708,-65.693
359,0.7515,0.2695,-0.6235,-0.305,0.244,-0.244,156.599,-47.708,-65.693
369,0.7520,0.2690,-0.6240,-0.610,0.122,-0.366,156.594,-47.708,-65.693
379,0.7500,0.2676,-0.6260,-0.854,0.000,-0.488,156.583,-47.708,-65.693
389,0.7476,0.2681,-0.6240,-0.854,-0.061,-0.488,156.572,-47.708,-65.693
399,0.7446,0.2666,-0.6201,-0.732,-0.183,-0.427,156.561,-47.703,-65.693
409,0.7427,0.2651,-0.6221,-0.488,-0.244,-0.427,156.555,-47.703,-65.693
419,0.7441,0.2671,-0.6211,-0.305,-0.305,-0.305,156.555,-47.697,-65.693
429,0.7451,0.2690,-0.6240,-0.061,-0.305,-0.122,156.555,-47.692,-65.693
439,0.7471,0.2690,-0.6211,0.183,-0.183,0.183,156.561,-47.692,-65.693
449,0.7485,0.2715,-0.6211,0.427,0.061,0.427,156.566,-47.697,-65.693
459,0.7490,0.2705,-0.6221,0.732,0.305,0.549,156.577,-47.703,-65.693
469,0.7524,0.2705,-0.6221,0.854,0.488,0.488,156.588,-47.714,-65.693
479,0.7510,0.2734,-0.6245,0.671,0.366,0.305,156.594,-47.719,-65.693
489,0.7520,0.2715,-0.6235,0.122,0.183,0.061,156.594,-47.725,-65.693
500,0.7505,0.2710,-0.6245,-0.549,-0.061,-0.183,156.583,-47.719,-65.693
509,0.7524,0.2720,-0.6235,-1.038,-0.305,-0.427,156.572,-47.719,-65.693
519,0.7520,0.2734,-0.6211,-1.221,-0.366,-0.427,156.550,-47.714,-65.693
529,0.7490,0.2729,-0.6226,-1.099,-0.366,-0.427,156.533,-47.714,-65.693
539,0.7500,0.2700,-0.6230,-0.732,-0.427,-0.366,156.528,-47.708,-65.693
549,0.7490,0.2700,-0.6250,-0.305,-0.366,-0.305,156.522,-47.703,-65.693
559,0.7471,0.2695,-0.6245,0.061,-0.305,-0.122,156.528,-47.697,-65.693
569,0.7476,0.2686,-0.6260,0.244,-0.244,-0.061,156.528,-47.697,-65.693
579,0.7505,0.2686,-0.6274,0.305,-0.183,0.061,156.539,-47.697,-65.693
589,0.7485,0.2710,-0.6250,0.305,0.000,0.183,156.544,-47.697,-65.693
599,0.7520,0.2715,-0.6265,0.366,0.061,0.183,156.550,-47.697,-65.693
609,0.7534,0.2729,-0.6279,0.366,-0.061,0.244,156.555,-47.697,-65.693
619,0.7520,0.2710,-0.6279,0.305,-0.244,0.183,156.561,-47.697,-65.693
629,0.7534,0.2729,-0.6265,0.122,-0.671,0.061,156.566,-47.692,-65.693
639,0.7520,0.2729,-0.6250,-0.183,-1.099,-0.183,156.566,-47.686,-65.693
649,0.7520,0.2710,-0.6230,-0.427,-1.465,-0.305,156.561,-47.670,-65.693
659,0.7510,0.2700,-0.6191,-0.610,-1.648,-0.366,156.561,-47.659,-65.693
669,0.7505,0.2700,-0.6191,-0.610,-1.709,-0.427,156.555,-47.648,-65.693
679,0.7490,0.2705,-0.6157,-0.549,-1.526,-0.366,156.550,-47.637,-65.693
689,0.7471,0.2700,-0.6157,-0.305,-1.099,-0.244,156.544,-47.626,-65.693
699,0.7446,0.2690,-0.6147,-0.122,-0.610,-0.122,156.544,-47.626,-65.693
709,0.7456,0.2681,-0.6172,0.000,-0.122,0.000,156.544,-47.626,-65.693
719,0.7446,0.2681,-0.6177,0.122,0.305,0.122,156.544,-47.631,-65.693
729,0.7451,0.2695,-0.6201,0.122,0.549,0.183,156.544,-47.642,-65.693
739,0.7471,0.2710,-0.6235,0.183,0.671,0.244,156.550,-47.648,-65.693
749,0.7505,0.2729,-0.6270,0.183,0.610,0.305,156.550,-47.653,-65.693
759,0.7510,0.2720,-0.6313,0.305,0.427,0.305,156.555,-47.659,-65.693
769,0.7500,0.2705,-0.6304,0.244,0.061,0.183,156.561,-47.659,-65.693
779,0.7485,0.2690,-0.6309,0.061,-0.305,0.183,156.566,-47.659,-65.693
789,0.7456,0.2686,-0.6284,-0.122,-0.671,0.061,156.572,-47.648,-65.693
799,0.7456,0.2686,-0.6274,-0.305,-0.977,0.000,156.577,-47.637,-65.693
809,0.7471,0.2710,-0.6245,-0.366,-1.038,-0.061,156.577,-47.631,-65.693
819,0.7480,0.2715,-0.6260,-0.366,-0.916,-0.061,156.577,-47.620,-65.693
829,0.7480,0.2720,-0.6211,-0.366,-0.854,-0.061,156.572,-47.615,-65.693
839,0.7471,0.2690,-0.6226,-0.305,-0.732,0.000,156.572,-47.609,-65.693
849,0.7476,0.2695,-0.6230,-0.183,-0.610,-0.061,156.572,-47.604,-65.693
859,0.7480,0.2700,-0.6245,-0.183,-0.488,0.000,156.577,-47.604,-65.693
869,0.7471,0.2676,-0.6211,-0.122,-0.305,-0.061,156.577,-47.604,-65.693
879,0.7476,0.2695,-0.6245,-0.122,-0.244,-0.122,156.577,-47.598,-65.693
889,0.7466,0.2690,-0.6230,-0.183,-0.244,-0.183,156.572,-47.598,-65.693
899,0.7451,0.2695,-0.6230,-0.244,-0.122,-0.244,156.572,-47.598,-65.693
909,0.7466,0.2681,-0.6230,-0.244,-0.183,-0.244,156.566,-47.598,-65.693
919,0.7456,0.2666,-0.6240,-0.244,-0.183,-0.183,156.566,-47.598,-65.693
929,0.7480,0.2690,-0.6235,-0.183,-0.244,-0.061,156.566,-47.593,-65.693
939,0.7471,0.2700,-0.6230,-0.061,-0.305,0.061,156.566,-47.593,-65.693
949,0.7471,0.2700,-0.6226,0.061,-0.366,0.122,156.572,-47.593,-65.693
959,0.7485,0.2710,-0.6245,0.244,-0.305,0.244,156.577,-47.593,-65.693
969,0.7485,0.2710,-0.6250,0.305,-0.244,0.183,156.583,-47.593,-65.693
979,0.7495,0.2700,-0.6240,0.183,-0.305,0.122,156.588,-47.593,-65.693
989,0.7480,0.2700,-0.6260,0.000,-0.244,0.061,156.588,-47.593,-65.693
999,0.7480,0.2729,-0.6221,-0.305,-0.244,0.000,156.583,-47.593,-65.693
1009,0.7480,0.2744,-0.6216,-0.427,-0.244,-0.061,156.577,-47.587,-65.693
1019,0.7471,0.2725,-0.6221,-0.366,-0.244,-0.122,156.572,-47.587,-65.693
1029,0.7476,0.2744,-0.6206,-0.183,-0.122,-0.183,156.561,-47.587,-65.693
1039,0.7476,0.2734,-0.6216,0.000,0.000,-0.183,156.555,-47.587,-65.693
1049,0.7490,0.2710,-0.6221,0.061,0.061,-0.244,156.555,-47.593,-65.693
1059,0.7485,0.2705,-0.6216,0.061,0.061,-0.305,156.550,-47.593,-65.693
1069,0.7471,0.2710,-0.6201,-0.061,0.061,-0.305,156.544,-47.593,-65.693
1079,0.7495,0.2720,-0.6235,-0.183,0.000,-0.305,156.539,-47.598,-65.693
1089,0.7490,0.2700,-0.6240,-0.122,-0.061,-0.305,156.539,-47.598,-65.693
1099,0.7500,0.2681,-0.6265,0.000,-0.122,-0.183,156.539,-47.598,-65.693
1109,0.7495,0.2700,-0.6250,0.122,-0.183,-0.122,156.539,-47.598,-65.693
1119,0.7490,0.2671,-0.6265,0.244,-0.122,-0.122,156.544,-47.593,-65.693
1129,0.7490,0.2671,-0.6260,0.183,-0.183,-0.061,156.550,-47.593,-65.693
1139,0.7500,0.2681,-0.6240,0.000,-0.183,-0.061,156.555,-47.598,-65.693
1149,0.7510,0.2690,-0.6245,-0.183,-0.244,-0.061,156.555,-47.598,-65.693
1159,0.7500,0.2695,-0.6230,-0.244,-0.305,0.000,156.550,-47.598,-65.693
1169,0.7510,0.2720,-0.6226,-0.244,-0.366,0.000,156.550,-47.598,-65.693
1179,0.7490,0.2700,-0.6245,-0.122,-0.366,0.061,156.550,-47.593,-65.693
1189,0.7500,0.2710,-0.6221,0.061,-0.366,0.122,156.555,-47.593,-65.693
1199,0.7456,0.2705,-0.6235,0.183,-0.366,0.183,156.561,-47.593,-65.693
1209,0.7437,0.2710,-0.6235,0.183,-0.366,0.061,156.561,-47.587,-65.693
1219,0.7451,0.2725,-0.6211,0.122,-0.305,0.000,156.561,-47.587,-65.693
1229,0.7456,0.2725,-0.6221,-0.061,-0.366,-0.061,156.561,-47.587,-65.693
1239,0.7476,0.2729,-0.6226,-0.183,-0.366,-0.061,156.555,-47.582,-65.693
1249,0.7485,0.2749,-0.6226,-0.061,-0.305,0.000,156.555,-47.582,-65.693
1259,0.7490,0.2734,-0.6216,0.183,-0.244,0.122,156.555,-47.582,-65.693
1269,0.7480,0.2725,-0.6216,0.549,-0.183,0.183,156.561,-47.582,-65.693
1279,0.7495,0.2715,-0.6216,0.732,-0.061,0.061,156.566,-47.587,-65.693
1289,0.7490,0.2690,-0.6221,0.488,-0.122,-0.122,156.572,-47.587,-65.693
1299,0.7485,0.2676,-0.6216,0.061,-0.061,-0.305,156.572,-47.587,-65.693
1309,0.7490,0.2690,-0.6226,-0.488,-0.122,-0.427,156.561,-47.587,-65.693
1319,0.7485,0.2695,-0.6240,-0.916,-0.183,-0.427,156.550,-47.587,-65.693
1329,0.7476,0.2695,-0.6255,-1.038,-0.183,-0.427,156.539,-47.582,-65.693
1339,0.7471,0.2690,-0.6240,-0.854,-0.122,-0.305,156.528,-47.582,-65.693
1349,0.7480,0.2676,-0.6226,-0.427,-0.183,-0.122,156.528,-47.582,-65.693
1359,0.7476,0.2695,-0.6255,0.061,-0.244,0.122,156.533,-47.582,-65.693
1369,0.7480,0.2695,-0.6265,0.427,-0.244,0.305,156.544,-47.582,-65.693
1379,0.7495,0.2705,-0.6255,0.732,-0.183,0.488,156.555,-47.582,-65.693
1389,0.7485,0.2710,-0.6279,0.854,-0.061,0.549,156.572,-47.587,-65.693
1399,0.7500,0.2744,-0.6304,0.854,0.000,0.488,156.583,-47.587,-65.693
1409,0.7510,0.2739,-0.6323,0.671,0.000,0.366,156.594,-47.587,-65.693
1419,0.7520,0.2734,-0.6299,0.366,-0.183,0.183,156.599,-47.587,-65.693
1429,0.7515,0.2739,-0.6313,0.122,-0.366,0.000,156.599,-47.582,-65.693
1439,0.7529,0.2744,-0.6299,-0.244,-0.671,-0.305,156.599,-47.576,-65.693
1449,0.7539,0.2734,-0.6289,-0.488,-1.099,-0.549,156.588,-47.565,-65.693
1459,0.7520,0.2720,-0.6255,-0.732,-1.526,-0.671,156.583,-47.549,-65.693
1469,0.7500,0.2695,-0.6201,-0.916,-1.770,-0.793,156.572,-47.538,-65.693
1479,0.7471,0.2676,-0.6157,-0.977,-1.831,-0.793,156.561,-47.521,-65.693
1489,0.7432,0.2666,-0.6147,-0.916,-1.648,-0.671,156.555,-47.510,-65.693
1500,0.7422,0.2666,-0.6118,-0.732,-1.282,-0.488,156.544,-47.499,-65.693
1509,0.7407,0.2666,-0.6123,-0.366,-0.488,-0.183,156.539,-47.499,-65.693
1519,0.7417,0.2646,-0.6152,0.000,0.122,0.122,156.544,-47.505,-65.693
1529,0.7422,0.2671,-0.6191,0.366,0.610,0.427,156.550,-47.516,-65.693
1539,0.7432,0.2695,-0.6196,0.732,0.977,0.610,156.561,-47.527,-65.693
1550,0.7461,0.2690,-0.6221,0.977,1.221,0.732,156.572,-47.543,-65.693
1559,0.7446,0.2710,-0.6250,0.977,1.221,0.671,156.583,-47.560,-65.693
1569,0.7466,0.2710,-0.6284,0.854,1.099,0.549,156.594,-47.571,-65.693
1579,0.7466,0.2725,-0.6289,0.549,0.793,0.366,156.599,-47.576,-65.693
1589,0.7451,0.2754,-0.6304,0.183,0.427,0.183,156.599,-47.582,-65.693
1599,0.7485,0.2759,-0.6299,0.000,0.122,0.061,156.594,-47.582,-65.693
1609,0.7485,0.2754,-0.6289,-0.061,-0.183,-0.061,156.594,-47.576,-65.693
1619,0.7456,0.2734,-0.6270,-0.061,-0.244,-0.061,156.588,-47.571,-65.693
1629,0.7471,0.2710,-0.6250,-0.061,-0.305,-0.122,156.588,-47.571,-65.693
1639,0.7466,0.2725,-0.6250,-0.061,-0.305,-0.244,156.588,-47.565,-65.693
1649,0.7466,0.2695,-0.6230,-0.061,-0.305,-0.244,156.583,-47.565,-65.693
1659,0.7471,0.2700,-0.6235,-0.061,-0.183,-0.305,156.583,-47.565,-65.693
1669,0.7471,0.2686,-0.6221,-0.122,-0.061,-0.305,156.577,-47.565,-65.693
1679,0.7476,0.2661,-0.6201,-0.122,0.122,-0.366,156.577,-47.571,-65.693
1689,0.7476,0.2661,-0.6226,-0.061,0.244,-0.305,156.572,-47.571,-65.693
1699,0.7461,0.2656,-0.6221,0.000,0.366,-0.183,156.572,-47.576,-65.693
1709,0.7476,0.2651,-0.6245,0.122,0.427,-0.061,156.577,-47.582,-65.693
1719,0.7461,0.2656,-0.6230,0.244,0.549,0.061,156.577,-47.593,-65.693
1729,0.7480,0.2671,-0.6255,0.305,0.549,0.122,156.583,-47.598,-65.693
1739,0.7485,0.2671,-0.6274,0.305,0.366,0.183,156.594,-47.604,-65.693
1749,0.7480,0.2671,-0.6284,0.244,0.244,0.244,156.599,-47.604,-65.693
1759,0.7476,0.2681,-0.6245,0.122,0.061,0.244,156.605,-47.609,-65.693
1769,0.7500,0.2715,-0.6240,0.061,-0.061,0.244,156.605,-47.609,-65.693
1779,0.7515,0.2720,-0.6245,0.061,-0.183,0.305,156.610,-47.609,-65.693
1788,0.7505,0.2715,-0.6226,0.122,-0.244,0.305,156.610,-47.615,-65.693
1799,0.7480,0.2744,-0.6230,0.122,-0.183,0.244,156.616,-47.615,-65.693
1809,0.7490,0.2734,-0.6226,0.061,-0.122,0.244,156.616,-47.615,-65.693
1818,0.7471,0.2739,-0.6230,-0.061,0.000,0.122,156.610,-47.615,-65.693
1828,0.7461,0.2734,-0.6260,-0.244,0.000,0.000,156.605,-47.615,-65.693
1838,0.7466,0.2744,-0.6211,-0.305,0.000,-0.183,156.599,-47.615,-65.693
1848,0.7471,0.2729,-0.6216,-0.244,0.122,-0.244,156.588,-47.620,-65.693
1858,0.7446,0.2729,-0.6235,-0.122,0.183,-0.305,156.583,-47.620,-65.693
1868,0.7456,0.2720,-0.6216,0.000,0.183,-0.305,156.577,-47.620,-65.693
1878,0.7471,0.2695,-0.6226,0.061,0.244,-0.366,156.572,-47.620,-65.693
1888,0.7480,0.2690,-0.6221,0.183,0.244,-0.427,156.566,-47.626,-65.693
1898,0.7500,0.2705,-0.6187,0.122,0.183,-0.366,156.561,-47.626,-65.693
1908,0.7480,0.2671,-0.6221,0.061,0.183,-0.305,156.561,-47.631,-65.693
1918,0.7485,0.2681,-0.6230,0.122,0.183,-0.183,156.561,-47.631,-65.693
1928,0.7490,0.2695,-0.6240,0.244,0.244,-0.122,156.561,-47.637,-65.693
1938,0.7490,0.2690,-0.6230,0.366,0.305,0.000,156.566,-47.642,-65.693
1948,0.7485,0.2681,-0.6230,0.366,0.366,0.061,156.572,-47.648,-65.693
1958,0.7490,0.2695,-0.6250,0.366,0.305,0.061,156.572,-47.653,-65.693
1968,0.7495,0.2686,-0.6260,0.305,0.305,0.061,156.577,-47.653,-65.693
1978,0.7485,0.2686,-0.6245,0.244,0.244,0.000,156.583,-47.659,-65.693
1988,0.7490,0.2695,-0.6250,0.183,0.244,-0.061,156.583,-47.664,-65.693
1999,0.7461,0.2681,-0.6245,0.122,0.183,-0.122,156.583,-47.664,-65.693
2008,0.7471,0.2681,-0.6245,-0.061,0.061,-0.244,156.583,-47.664,-65.693
2018,0.7456,0.2710,-0.6211,-0.122,-0.122,-0.244,156.577,-47.664,-65.693
2028,0.7485,0.2725,-0.6226,-0.183,-0.183,-0.122,156.572,-47.659,-65.693
2038,0.7480,0.2725,-0.6216,-0.061,-0.183,0.000,156.572,-47.659,-65.693
2048,0.7490,0.2705,-0.6221,0.305,-0.061,0.183,156.577,-47.664,-65.693
2058,0.7485,0.2729,-0.6250,0.610,0.061,0.244,156.583,-47.664,-65.693
2068,0.7505,0.2710,-0.6270,0.793,0.183,0.244,156.594,-47.670,-65.693
2078,0.7480,0.2690,-0.6270,0.732,0.183,0.183,156.599,-47.670,-65.693
2088,0.7500,0.2700,-0.6240,0.305,0.122,0.000,156.605,-47.670,-65.693
2098,0.7485,0.2690,-0.6255,-0.244,-0.061,-0.183,156.599,-47.670,-65.693
2108,0.7485,0.2676,-0.6230,-0.732,-0.244,-0.366,156.594,-47.670,-65.693
2118,0.7480,0.2710,-0.6221,-1.038,-0.305,-0.366,156.577,-47.664,-65.693
2128,0.7456,0.2705,-0.6230,-0.977,-0.366,-0.305,156.566,-47.664,-65.693
2138,0.7466,0.2690,-0.6245,-0.671,-0.427,-0.122,156.561,-47.659,-65.693
2148,0.7471,0.2686,-0.6211,-0.122,-0.366,0.061,156.566,-47.659,-65.693
2158,0.7461,0.2695,-0.6216,0.305,-0.183,0.244,156.572,-47.659,-65.693
2168,0.7466,0.2705,-0.6245,0.732,0.061,0.305,156.583,-47.659,-65.693
2178,0.7471,0.2715,-0.6265,0.916,0.244,0.366,156.594,-47.664,-65.693
2188,0.7476,0.2695,-0.6279,0.854,0.488,0.244,156.605,-47.664,-65.693
2198,0.7480,0.2720,-0.6279,0.610,0.549,0.122,156.605,-47.670,-65.693
2208,0.7495,0.2695,-0.6323,0.366,0.488,-0.061,156.610,-47.675,-65.693
2218,0.7510,0.2734,-0.6289,0.000,0.305,-0.183,156.605,-47.675,-65.693
2228,0.7515,0.2744,-0.6274,-0.305,-0.061,-0.305,156.599,-47.675,-65.693
2238,0.7515,0.2734,-0.6270,-0.366,-0.488,-0.305,156.594,-47.670,-65.693
2248,0.7520,0.2725,-0.6265,-0.305,-0.854,-0.305,156.588,-47.659,-65.693
2258,0.7480,0.2695,-0.6235,-0.183,-1.038,-0.366,156.588,-47.648,-65.693
2268,0.7471,0.2666,-0.6226,-0.122,-1.160,-0.427,156.588,-47.637,-65.693
2278,0.7446,0.2656,-0.6196,-0.183,-1.038,-0.366,156.588,-47.631,-65.693
2288,0.7461,0.2661,-0.6182,-0.305,-0.732,-0.366,156.588,-47.626,-65.693
2298,0.7446,0.2661,-0.6191,-0.366,-0.427,-0.244,156.588,-47.626,-65.693
2308,0.7422,0.2651,-0.6182,-0.366,-0.061,-0.061,156.583,-47.626,-65.693
2318,0.7427,0.2681,-0.6182,-0.122,0.244,0.183,156.583,-47.631,-65.693
2328,0.7432,0.2695,-0.6182,0.183,0.488,0.305,156.583,-47.637,-65.693
2338,0.7437,0.2700,-0.6191,0.427,0.610,0.427,156.588,-47.648,-65.693
2348,0.7441,0.2700,-0.6240,0.671,0.671,0.427,156.599,-47.653,-65.693
2358,0.7446,0.2720,-0.6270,0.854,0.793,0.488,156.605,-47.659,-65.693
2368,0.7461,0.2715,-0.6270,0.793,0.916,0.488,156.616,-47.670,-65.693
2378,0.7485,0.2720,-0.6294,0.671,0.977,0.305,156.621,-47.675,-65.693
2388,0.7485,0.2720,-0.6318,0.427,1.038,0.122,156.621,-47.686,-65.693
2398,0.7471,0.2720,-0.6289,0.183,0.854,0.000,156.621,-47.692,-65.693
2408,0.7495,0.2715,-0.6309,-0.061,0.549,-0.183,156.616,-47.692,-65.693
2418,0.7505,0.2715,-0.6294,-0.305,0.122,-0.244,156.610,-47.692,-65.693
2428,0.7500,0.2715,-0.6284,-0.366,-0.183,-0.366,156.605,-47.686,-65.693
2438,0.7476,0.2710,-0.6274,-0.366,-0.488,-0.366,156.599,-47.681,-65.693
2448,0.7485,0.2710,-0.6245,-0.244,-0.610,-0.305,156.594,-47.675,-65.693
2458,0.7480,0.2681,-0.6206,-0.061,-0.549,-0.244,156.594,-47.670,-65.693
2468,0.7490,0.2671,-0.6230,-0.061,-0.427,-0.183,156.599,-47.670,-65.693
2478,0.7495,0.2676,-0.6226,0.000,-0.183,-0.183,156.599,-47.670,-65.693
2488,0.7476,0.2651,-0.6211,0.000,0.122,-0.122,156.599,-47.670,-65.693
2499,0.7471,0.2646,-0.6230,0.000,0.366,-0.061,156.599,-47.675,-65.693
2508,0.7456,0.2637,-0.6250,0.000,0.488,0.000,156.605,-47.681,-65.693
2518,0.7461,0.2661,-0.6250,-0.061,0.427,0.061,156.605,-47.686,-65.693
2528,0.7480,0.2681,-0.6260,-0.061,0.305,0.183,156.605,-47.692,-65.693
2538,0.7490,0.2686,-0.6260,-0.061,0.122,0.366,156.610,-47.692,-65.693
2548,0.7476,0.2710,-0.6265,0.122,-0.061,0.488,156.616,-47.692,-65.693
2558,0.7466,0.2705,-0.6255,0.305,-0.244,0.549,156.627,-47.692,-65.693
2568,0.7471,0.2720,-0.6260,0.427,-0.305,0.488,156.638,-47.692,-65.693
2578,0.7485,0.2720,-0.6245,0.366,-0.183,0.366,156.643,-47.692,-65.693
2588,0.7485,0.2739,-0.6240,0.183,-0.061,0.305,156.643,-47.692,-65.693
2598,0.7485,0.2734,-0.6270,0.000,0.061,0.183,156.643,-47.692,-65.693
2608,0.7466,0.2734,-0.6260,-0.244,0.183,0.000,156.638,-47.692,-65.693
2618,0.7480,0.2749,-0.6240,-0.366,0.183,-0.122,156.627,-47.692,-65.693
2628,0.7441,0.2759,-0.6250,-0.366,0.183,-0.244,156.616,-47.692,-65.693
2638,0.7451,0.2749,-0.6250,-0.366,0.061,-0.244,156.605,-47.686,-65.693
2648,0.7451,0.2715,-0.6245,-0.183,0.000,-0.244,156.599,-47.686,-65.693
2658,0.7471,0.2695,-0.6270,-0.122,-0.061,-0.305,156.599,-47.686,-65.693
2668,0.7466,0.2686,-0.6260,-0.061,-0.061,-0.305,156.599,-47.681,-65.693
2678,0.7451,0.2666,-0.6260,-0.061,-0.061,-0.305,156.599,-47.681,-65.693
2688,0.7456,0.2666,-0.6250,-0.122,0.000,-0.244,156.599,-47.681,-65.693
2698,0.7466,0.2666,-0.6260,-0.061,0.061,-0.183,156.599,-47.681,-65.693
2708,0.7476,0.2671,-0.6255,-0.061,0.122,-0.061,156.599,-47.681,-65.693
2718,0.7485,0.2681,-0.6255,0.061,0.061,0.061,156.599,-47.681,-65.693
2728,0.7480,0.2690,-0.6211,0.183,0.061,0.122,156.605,-47.686,-65.693
2738,0.7466,0.2690,-0.6245,0.305,0.061,0.244,156.610,-47.686,-65.693
2748,0.7461,0.2705,-0.6226,0.366,0.061,0.305,156.616,-47.686,-65.693
2758,0.7471,0.2705,-0.6216,0.305,0.061,0.305,156.621,-47.692,-65.693
2768,0.7490,0.2705,-0.6221,0.244,0.183,0.305,156.621,-47.697,-65.693
2778,0.7490,0.2720,-0.6255,0.183,0.183,0.244,156.627,-47.697,-65.693
2788,0.7500,0.2725,-0.6260,0.183,0.244,0.183,156.627,-47.703,-65.693
2798,0.7510,0.2725,-0.6274,0.183,0.366,0.061,156.627,-47.703,-65.693
2808,0.7461,0.2729,-0.6255,0.244,0.427,0.000,156.627,-47.708,-65.693
2818,0.7466,0.2715,-0.6270,0.183,0.366,-0.061,156.627,-47.708,-65.693
2828,0.7480,0.2715,-0.6289,-0.061,0.244,-0.183,156.621,-47.708,-65.693
2838,0.7456,0.2705,-0.6260,-0.244,0.122,-0.305,156.616,-47.708,-65.693
2848,0.7461,0.2676,-0.6245,-0.427,0.061,-0.305,156.610,-47.703,-65.693
2858,0.7466,0.2705,-0.6245,-0.488,0.000,-0.244,156.599,-47.703,-65.693
2868,0.7485,0.2705,-0.6260,-0.305,-0.061,-0.061,156.599,-47.703,-65.693
2878,0.7471,0.2700,-0.6235,0.122,0.000,0.183,156.599,-47.703,-65.693
2888,0.7466,0.2695,-0.6221,0.488,0.061,0.305,156.610,-47.708,-65.693
2898,0.7461,0.2686,-0.6245,0.732,0.122,0.305,156.621,-47.708,-65.693
2908,0.7456,0.2671,-0.6255,0.610,0.061,0.183,156.632,-47.708,-65.693
2918,0.7476,0.2676,-0.6245,0.244,0.061,0.000,156.632,-47.708,-65.693
2928,0.7466,0.2695,-0.6260,-0.305,0.061,-0.122,156.632,-47.708,-65.693
2938,0.7485,0.2695,-0.6274,-0.671,0.061,-0.183,156.621,-47.708,-65.693
2948,0.7471,0.2700,-0.6230,-0.854,0.122,-0.183,156.610,-47.708,-65.693
2958,0.7485,0.2710,-0.6250,-0.732,0.122,-0.122,156.599,-47.708,-65.693
2968,0.7495,0.2739,-0.6245,-0.366,0.000,0.000,156.594,-47.708,-65.693
2978,0.7466,0.2729,-0.6226,0.183,-0.061,0.244,156.599,-47.708,-65.693
2988,0.7476,0.2734,-0.6230,0.671,0.061,0.305,156.605,-47.714,-65.693
2999,0.7500,0.2729,-0.6260,0.916,0.183,0.366,156.616,-47.714,-65.693
3008,0.7490,0.2749,-0.6279,0.916,0.366,0.305,156.621,-47.719,-65.693
3018,0.7515,0.2739,-0.6270,0.854,0.549,0.183,156.627,-47.725,-65.693
3028,0.7510,0.2729,-0.6284,0.610,0.671,0.061,156.632,-47.730,-65.693
3038,0.7505,0.2739,-0.6309,0.305,0.610,-0.183,156.627,-47.730,-65.693
3048,0.7510,0.2720,-0.6284,0.000,0.366,-0.427,156.621,-47.730,-65.693
3058,0.7544,0.2725,-0.6284,-0.305,0.000,-0.549,156.610,-47.730,-65.693
3068,0.7524,0.2700,-0.6260,-0.488,-0.488,-0.671,156.605,-47.725,-65.693
3078,0.7515,0.2676,-0.6255,-0.610,-0.916,-0.671,156.599,-47.714,-65.693
3088,0.7480,0.2676,-0.6216,-0.549,-1.099,-0.671,156.588,-47.703,-65.693
3098,0.7485,0.2642,-0.6182,-0.488,-1.099,-0.488,156.588,-47.697,-65.693
3108,0.7456,0.2622,-0.6196,-0.366,-0.916,-0.305,156.588,-47.686,-65.693
3118,0.7451,0.2632,-0.6191,-0.183,-0.610,-0.122,156.594,-47.686,-65.693
3128,0.7446,0.2642,-0.6201,0.061,-0.183,0.183,156.599,-47.686,-65.693
3138,0.7432,0.2676,-0.6216,0.244,0.183,0.366,156.605,-47.692,-65.693
3148,0.7432,0.2695,-0.6245,0.366,0.366,0.610,156.616,-47.692,-65.693
3158,0.7446,0.2705,-0.6255,0.488,0.427,0.732,156.627,-47.697,-65.693
3168,0.7432,0.2725,-0.6265,0.610,0.427,0.732,156.638,-47.703,-65.693
3178,0.7461,0.2739,-0.6260,0.671,0.427,0.671,156.643,-47.708,-65.693
3188,0.7471,0.2744,-0.6270,0.671,0.366,0.610,156.654,-47.714,-65.693
3198,0.7485,0.2734,-0.6289,0.549,0.427,0.427,156.660,-47.714,-65.693
3208,0.7480,0.2739,-0.6304,0.366,0.427,0.183,156.660,-47.719,-65.693
3218,0.7476,0.2759,-0.6279,0.122,0.366,0.061,156.660,-47.719,-65.693
3228,0.7495,0.2749,-0.6274,-0.183,0.244,-0.183,156.649,-47.719,-65.693
3238,0.7471,0.2734,-0.6289,-0.427,0.122,-0.366,156.638,-47.714,-65.693
3248,0.7476,0.2715,-0.6260,-0.549,-0.061,-0.488,156.627,-47.714,-65.693
3258,0.7480,0.2710,-0.6265,-0.488,-0.244,-0.549,156.621,-47.708,-65.693
3268,0.7476,0.2690,-0.6216,-0.366,-0.366,-0.488,156.610,-47.703,-65.693
3278,0.7471,0.2681,-0.6230,-0.244,-0.488,-0.427,156.610,-47.697,-65.693
3288,0.7456,0.2666,-0.6221,-0.122,-0.427,-0.366,156.605,-47.692,-65.693
3298,0.7471,0.2646,-0.6230,0.122,-0.244,-0.244,156.610,-47.692,-65.693
3308,0.7461,0.2651,-0.6250,0.244,0.061,-0.122,156.616,-47.692,-65.693
3318,0.7480,0.2651,-0.6250,0.366,0.366,0.000,156.621,-47.697,-65.693
3328,0.7466,0.2651,-0.6274,0.305,0.671,0.000,156.627,-47.703,-65.693
3338,0.7466,0.2651,-0.6265,0.183,0.732,0.061,156.632,-47.708,-65.693
3348,0.7461,0.2651,-0.6309,0.061,0.671,0.122,156.638,-47.714,-65.693
3358,0.7476,0.2676,-0.6343,-0.061,0.305,0.183,156.638,-47.714,-65.693
3368,0.7476,0.2700,-0.6304,-0.061,-0.061,0.244,156.643,-47.714,-65.693
3378,0.7476,0.2710,-0.6279,0.000,-0.366,0.305,156.649,-47.708,-65.693
3388,0.7495,0.2729,-0.6240,0.061,-0.671,0.366,156.654,-47.703,-65.693
3398,0.7500,0.2710,-0.6245,0.183,-0.671,0.366,156.660,-47.697,-65.693
3408,0.7490,0.2720,-0.6230,0.305,-0.610,0.366,156.665,-47.697,-65.693
3418,0.7480,0.2739,-0.6230,0.366,-0.427,0.305,156.671,-47.692,-65.693
3428,0.7490,0.2729,-0.6230,0.244,-0.122,0.183,156.671,-47.692,-65.693
3438,0.7480,0.2734,-0.6240,0.061,0.122,0.000,156.671,-47.697,-65.693
3448,0.7471,0.2734,-0.6250,-0.244,0.183,-0.183,156.660,-47.697,-65.693
3458,0.7485,0.2725,-0.6226,-0.488,0.122,-0.427,156.649,-47.697,-65.693
3468,0.7480,0.2710,-0.6221,-0.671,0.000,-0.488,156.638,-47.692,-65.693
3478,0.7471,0.2695,-0.6221,-0.671,-0.183,-0.549,156.621,-47.692,-65.693
3488,0.7451,0.2695,-0.6221,-0.488,-0.366,-0.488,156.616,-47.686,-65.693
3499,0.7476,0.2671,-0.6221,-0.305,-0.427,-0.366,156.610,-47.681,-65.693
3508,0.7471,0.2656,-0.6221,0.000,-0.305,-0.183,156.616,-47.681,-65.693
3518,0.7471,0.2666,-0.6230,0.244,-0.183,-0.061,156.616,-47.681,-65.693
3528,0.7471,0.2676,-0.6235,0.427,0.000,0.122,156.627,-47.681,-65.693
3538,0.7466,0.2651,-0.6260,0.488,0.244,0.122,156.632,-47.686,-65.693
3551,0.7446,0.2676,-0.6255,0.427,0.366,0.122,156.638,-47.686,-65.693
3558,0.7466,0.2690,-0.6270,0.183,0.366,0.061,156.643,-47.692,-65.693
3568,0.7476,0.2705,-0.6284,0.000,0.244,0.061,156.643,-47.692,-65.693
3578,0.7500,0.2695,-0.6250,-0.122,0.061,0.061,156.643,-47.692,-65.693
3588,0.7520,0.2720,-0.6270,0.000,-0.122,0.122,156.643,-47.692,-65.693
3598,0.7510,0.2695,-0.6260,0.183,-0.244,0.244,156.649,-47.692,-65.693
3608,0.7476,0.2705,-0.6260,0.427,-0.366,0.244,156.654,-47.692,-65.693
3618,0.7485,0.2715,-0.6274,0.427,-0.366,0.183,156.665,-47.686,-65.693
3628,0.7471,0.2705,-0.6279,0.305,-0.305,0.122,156.671,-47.681,-65.693
3638,0.7476,0.2710,-0.6265,0.061,-0.305,0.000,156.671,-47.681,-65.693
3648,0.7466,0.2695,-0.6245,-0.244,-0.244,-0.122,156.671,-47.675,-65.693
3658,0.7466,0.2690,-0.6226,-0.488,-0.305,-0.244,156.660,-47.675,-65.693
3668,0.7476,0.2690,-0.6216,-0.610,-0.427,-0.366,156.654,-47.670,-65.693
3678,0.7441,0.2686,-0.6216,-0.549,-0.427,-0.305,156.649,-47.664,-65.693
3688,0.7417,0.2700,-0.6221,-0.305,-0.427,-0.122,156.643,-47.659,-65.693
3698,0.7422,0.2681,-0.6211,0.000,-0.366,0.000,156.643,-47.659,-65.693
3708,0.7412,0.2695,-0.6216,0.183,-0.183,0.061,156.649,-47.653,-65.693
3718,0.7437,0.2690,-0.6221,0.366,0.000,0.183,156.654,-47.653,-65.693
3728,0.7441,0.2686,-0.6221,0.366,0.183,0.305,156.660,-47.659,-65.693
3738,0.7471,0.2710,-0.6265,0.366,0.488,0.366,156.665,-47.664,-65.693
3748,0.7505,0.2729,-0.6265,0.427,0.671,0.427,156.665,-47.670,-65.693
3758,0.7505,0.2739,-0.6294,0.549,0.732,0.366,156.671,-47.681,-65.693
3768,0.7515,0.2720,-0.6313,0.549,0.671,0.305,156.676,-47.686,-65.693
3778,0.7476,0.2700,-0.6294,0.305,0.305,0.061,156.682,-47.686,-65.693
3788,0.7490,0.2686,-0.6304,-0.122,-0.122,-0.122,156.682,-47.681,-65.693
3798,0.7476,0.2690,-0.6274,-0.610,-0.549,-0.305,156.676,-47.675,-65.693
3808,0.7466,0.2710,-0.6270,-0.977,-0.793,-0.305,156.665,-47.664,-65.693
3818,0.7466,0.2695,-0.6245,-1.099,-0.854,-0.244,156.654,-47.659,-65.693
3828,0.7441,0.2700,-0.6230,-0.916,-0.732,-0.122,156.649,-47.648,-65.693
3838,0.7441,0.2690,-0.6211,-0.549,-0.549,0.000,156.643,-47.648,-65.693
3848,0.7427,0.2671,-0.6216,-0.122,-0.183,0.183,156.643,-47.648,-65.693
3858,0.7427,0.2676,-0.6230,0.183,0.122,0.366,156.649,-47.648,-65.693
3868,0.7451,0.2676,-0.6250,0.488,0.427,0.488,156.660,-47.653,-65.693
3878,0.7441,0.2690,-0.6260,0.549,0.671,0.488,156.671,-47.659,-65.693
3888,0.7466,0.2705,-0.6260,0.549,0.854,0.488,156.676,-47.670,-65.693
3898,0.7466,0.2725,-0.6304,0.427,0.916,0.427,156.682,-47.675,-65.693
3908,0.7476,0.2749,-0.6304,0.244,0.793,0.244,156.676,-47.681,-65.693
3918,0.7476,0.2739,-0.6313,0.000,0.488,0.122,156.676,-47.686,-65.693
3928,0.7510,0.2725,-0.6289,-0.183,0.244,0.000,156.671,-47.686,-65.693
3938,0.7500,0.2739,-0.6289,-0.305,-0.122,-0.122,156.665,-47.681,-65.693
3948,0.7495,0.2705,-0.6270,-0.366,-0.427,-0.183,156.665,-47.681,-65.693
3958,0.7480,0.2690,-0.6230,-0.488,-0.610,-0.305,156.660,-47.675,-65.693
3968,0.7466,0.2666,-0.6230,-0.671,-0.793,-0.427,156.649,-47.664,-65.693
3978,0.7451,0.2656,-0.6216,-0.854,-0.732,-0.427,156.643,-47.659,-65.693
3988,0.7422,0.2656,-0.6167,-0.854,-0.610,-0.305,156.638,-47.653,-65.693
3999,0.7437,0.2651,-0.6172,-0.732,-0.244,-0.122,156.627,-47.653,-65.693
4008,0.7407,0.2666,-0.6167,-0.549,0.183,0.061,156.621,-47.659,-65.693
4018,0.7407,0.2690,-0.6172,-0.183,0.488,0.244,156.621,-47.664,-65.693
4028,0.7417,0.2686,-0.6196,0.122,0.732,0.427,156.621,-47.670,-65.693
4038,0.7427,0.2720,-0.6206,0.427,0.977,0.610,156.627,-47.681,-65.693
4048,0.7441,0.2720,-0.6211,0.732,1.160,0.671,156.632,-47.697,-65.693
4058,0.7446,0.2734,-0.6235,0.854,1.404,0.732,156.638,-47.708,-65.693
4068,0.7461,0.2725,-0.6265,0.916,1.587,0.671,156.643,-47.725,-65.693
4078,0.7495,0.2744,-0.6284,0.793,1.648,0.488,156.649,-47.741,-65.693
4088,0.7490,0.2729,-0.6323,0.488,1.526,0.244,156.649,-47.752,-65.693
4098,0.7500,0.2734,-0.6299,0.122,1.343,0.122,156.643,-47.763,-65.693
4108,0.7505,0.2739,-0.6309,-0.305,1.038,-0.061,156.638,-47.769,-65.693
4118,0.7534,0.2720,-0.6318,-0.610,0.610,-0.183,156.627,-47.774,-65.693
4128,0.7524,0.2715,-0.6309,-0.610,0.183,-0.183,156.616,-47.774,-65.693
4138,0.7490,0.2700,-0.6274,-0.549,-0.122,-0.244,156.610,-47.769,-65.693
4148,0.7485,0.2676,-0.6270,-0.366,-0.305,-0.183,156.610,-47.763,-65.693
4158,0.7490,0.2666,-0.6274,-0.244,-0.366,-0.122,156.610,-47.758,-65.693
4168,0.7476,0.2651,-0.6230,-0.122,-0.244,-0.061,156.616,-47.758,-65.693
4178,0.7461,0.2656,-0.6235,-0.122,-0.061,0.000,156.616,-47.758,-65.693
4188,0.7456,0.2656,-0.6221,-0.061,0.244,0.061,156.616,-47.763,-65.693
4198,0.7461,0.2646,-0.6206,-0.061,0.549,0.122,156.621,-47.769,-65.693
4208,0.7480,0.2661,-0.6211,-0.061,0.793,0.305,156.621,-47.780,-65.693
4218,0.7490,0.2671,-0.6250,-0.061,0.854,0.427,156.621,-47.785,-65.693
4228,0.7485,0.2690,-0.6255,0.000,0.854,0.610,156.627,-47.796,-65.693
4238,0.7500,0.2695,-0.6260,0.122,0.671,0.671,156.632,-47.807,-65.693
4248,0.7505,0.2720,-0.6284,0.244,0.427,0.732,156.638,-47.813,-65.693
4258,0.7500,0.2725,-0.6260,0.305,0.244,0.732,156.649,-47.813,-65.693
4268,0.7505,0.2725,-0.6265,0.244,0.122,0.610,156.654,-47.818,-65.693
4278,0.7500,0.2759,-0.6265,0.122,0.000,0.488,156.654,-47.818,-65.693
4288,0.7500,0.2715,-0.6250,-0.122,-0.061,0.305,156.654,-47.818,-65.693
4298,0.7485,0.2705,-0.6245,-0.427,-0.122,0.000,156.649,-47.813,-65.693
4308,0.7466,0.2720,-0.6221,-0.732,-0.061,-0.244,156.638,-47.813,-65.693
4318,0.7476,0.2710,-0.6211,-0.916,-0.122,-0.366,156.627,-47.807,-65.693
4328,0.7461,0.2695,-0.6211,-0.977,-0.122,-0.427,156.610,-47.807,-65.693
4338,0.7441,0.2705,-0.6201,-0.793,-0.061,-0.366,156.599,-47.802,-65.693
4348,0.7446,0.2690,-0.6196,-0.427,0.061,-0.244,156.588,-47.802,-65.693
4358,0.7461,0.2681,-0.6206,-0.061,0.244,-0.061,156.588,-47.807,-65.693
4368,0.7485,0.2671,-0.6230,0.244,0.488,0.061,156.594,-47.813,-65.693
4378,0.7490,0.2661,-0.6226,0.427,0.671,0.183,156.599,-47.818,-65.693
4388,0.7485,0.2671,-0.6240,0.488,0.916,0.183,156.599,-47.829,-65.693
4398,0.7500,0.2686,-0.6270,0.427,0.977,0.183,156.605,-47.834,-65.693
4408,0.7500,0.2695,-0.6260,0.244,0.916,0.183,156.605,-47.845,-65.693
4418,0.7495,0.2715,-0.6250,0.000,0.793,0.122,156.605,-47.851,-65.693
4428,0.7485,0.2729,-0.6250,-0.122,0.549,0.061,156.599,-47.856,-65.693
4438,0.7480,0.2725,-0.6260,-0.122,0.244,0.000,156.594,-47.856,-65.693
4448,0.7490,0.2720,-0.6250,-0.061,0.000,0.000,156.594,-47.851,-65.693
4458,0.7490,0.2715,-0.6235,0.122,-0.122,0.061,156.594,-47.851,-65.693
4468,0.7495,0.2705,-0.6240,0.183,-0.061,0.000,156.599,-47.851,-65.693
4478,0.7505,0.2686,-0.6235,0.183,0.000,-0.061,156.599,-47.851,-65.693
4488,0.7505,0.2690,-0.6235,0.061,0.061,0.000,156.599,-47.851,-65.693
4498,0.7490,0.2676,-0.6221,-0.061,0.183,-0.061,156.599,-47.851,-65.693
4508,0.7520,0.2681,-0.6226,-0.183,0.244,0.000,156.599,-47.856,-65.693
4518,0.7510,0.2686,-0.6221,-0.244,0.305,0.000,156.594,-47.862,-65.693
4528,0.7490,0.2700,-0.6226,-0.122,0.366,0.000,156.588,-47.862,-65.693
4538,0.7461,0.2700,-0.6216,0.000,0.366,0.000,156.588,-47.867,-65.693
4548,0.7451,0.2690,-0.6221,0.000,0.366,-0.061,156.588,-47.867,-65.693
4558,0.7437,0.2686,-0.6196,-0.061,0.305,-0.061,156.583,-47.867,-65.693
4568,0.7466,0.2695,-0.6221,-0.244,0.244,-0.061,156.577,-47.867,-65.693
4578,0.7500,0.2700,-0.6206,-0.183,0.305,0.061,156.577,-47.873,-65.693
4588,0.7485,0.2705,-0.6187,0.122,0.366,0.305,156.577,-47.878,-65.693
4598,0.7529,0.2705,-0.6187,0.427,0.549,0.366,156.583,-47.889,-65.693
4608,0.7520,0.2695,-0.6221,0.732,0.671,0.427,156.588,-47.895,-65.693
4618,0.7520,0.2676,-0.6226,0.732,0.671,0.366,156.599,-47.906,-65.693
4628,0.7495,0.2690,-0.6255,0.427,0.549,0.244,156.605,-47.911,-65.693
4638,0.7480,0.2700,-0.6260,-0.122,0.244,0.000,156.599,-47.911,-65.693
4648,0.7510,0.2695,-0.6255,-0.610,0.061,-0.183,156.594,-47.906,-65.693
4658,0.7515,0.2710,-0.6230,-0.916,-0.061,-0.244,156.583,-47.906,-65.693
4668,0.7495,0.2715,-0.6235,-0.916,-0.061,-0.244,156.572,-47.906,-65.693
4678,0.7476,0.2700,-0.6250,-0.671,-0.061,-0.183,156.561,-47.900,-65.693
4688,0.7480,0.2676,-0.6230,-0.305,0.061,-0.061,156.561,-47.900,-65.693
4698,0.7471,0.2671,-0.6230,0.061,0.061,0.061,156.566,-47.900,-65.693
4708,0.7471,0.2700,-0.6265,0.305,0.122,0.122,156.566,-47.900,-65.693
4718,0.7456,0.2686,-0.6260,0.427,0.122,0.122,156.577,-47.895,-65.693
4728,0.7480,0.2690,-0.6250,0.549,0.183,0.183,156.583,-47.900,-65.693
4738,0.7500,0.2715,-0.6270,0.488,0.122,0.183,156.588,-47.900,-65.693
4748,0.7495,0.2739,-0.6240,0.488,0.000,0.183,156.594,-47.895,-65.693
4758,0.7495,0.2788,-0.6216,0.549,-0.244,0.183,156.594,-47.895,-65.693
4768,0.7510,0.2793,-0.6182,0.793,-0.549,0.183,156.599,-47.889,-65.693
4778,0.7524,0.2759,-0.6211,1.343,-0.732,0.061,156.610,-47.884,-65.693
4788,0.7544,0.2705,-0.6206,1.465,-0.671,-0.183,156.621,-47.878,-65.693
4798,0.7524,0.2705,-0.6191,1.160,-0.427,-0.366,156.632,-47.878,-65.693
4808,0.7515,0.2681,-0.6172,0.488,-0.061,-0.549,156.627,-47.878,-65.693
4818,0.7476,0.2642,-0.6216,-0.305,0.305,-0.732,156.621,-47.878,-65.693
4828,0.7476,0.2661,-0.6211,-0.793,0.610,-1.038,156.599,-47.878,-65.676
4838,0.7466,0.2627,-0.6216,-0.977,0.671,-1.099,156.583,-47.878,-65.654
4848,0.7476,0.2632,-0.6230,-0.916,0.671,-0.977,156.566,-47.884,-65.638
4858,0.7476,0.2632,-0.6206,-0.671,0.488,-0.671,156.555,-47.884,-65.627
4868,0.7485,0.2622,-0.6250,-0.244,0.305,-0.183,156.555,-47.889,-65.621
4878,0.7480,0.2646,-0.6250,0.366,0.244,0.305,156.566,-47.889,-65.627
4888,0.7485,0.2646,-0.6260,1.038,0.244,0.610,156.588,-47.895,-65.632
4898,0.7476,0.2622,-0.6294,1.343,0.305,0.793,156.616,-47.895,-65.643
4908,0.7500,0.2622,-0.6318,1.221,0.183,0.854,156.643,-47.900,-65.654
4918,0.7490,0.2646,-0.6318,0.793,0.122,0.732,156.665,-47.900,-65.660
4928,0.7510,0.2671,-0.6270,0.244,-0.061,0.610,156.676,-47.900,-65.671
4938,0.7505,0.2686,-0.6279,-0.366,-0.244,0.427,156.682,-47.900,-65.676
4948,0.7495,0.2725,-0.6260,-0.732,-0.427,0.305,156.676,-47.895,-65.682
4958,0.7466,0.2749,-0.6260,-0.854,-0.610,0.305,156.671,-47.884,-65.693
4968,0.7466,0.2754,-0.6240,-0.732,-0.793,0.244,156.660,-47.878,-65.698
4978,0.7456,0.2734,-0.6221,-0.549,-0.916,0.183,156.660,-47.867,-65.709
4988,0.7490,0.2729,-0.6206,-0.244,-0.916,0.183,156.660,-47.856,-65.715
4998,0.7485,0.2720,-0.6187,-0.061,-0.732,0.122,156.660,-47.851,-65.720
5008,0.7466,0.2720,-0.6201,0.000,-0.610,-0.061,156.654,-47.845,-65.726
5018,0.7456,0.2700,-0.6206,0.000,-0.305,-0.305,156.654,-47.840,-65.720
5028,0.7446,0.2705,-0.6196,-0.183,0.000,-0.427,156.643,-47.840,-65.715
5038,0.7441,0.2690,-0.6196,-0.366,0.305,-0.549,156.632,-47.840,-65.709
5048,0.7461,0.2676,-0.6182,-0.366,0.549,-0.549,156.621,-47.845,-65.698
5058,0.7456,0.2666,-0.6177,-0.244,0.732,-0.366,156.610,-47.851,-65.687
5068,0.7485,0.2686,-0.6196,0.061,0.854,-0.183,156.605,-47.856,-65.682
5078,0.7510,0.2676,-0.6221,0.427,0.916,0.061,156.610,-47.867,-65.676
5088,0.7505,0.2646,-0.6240,0.732,0.916,0.183,156.616,-47.878,-65.671
5098,0.7480,0.2651,-0.6265,0.854,0.793,0.244,156.627,-47.884,-65.671
5108,0.7505,0.2646,-0.6279,0.732,0.610,0.305,156.643,-47.889,-65.671
5118,0.7505,0.2676,-0.6265,0.610,0.488,0.244,156.649,-47.895,-65.671
5128,0.7505,0.2681,-0.6284,0.366,0.305,0.183,156.660,-47.895,-65.671
5138,0.7510,0.2690,-0.6279,0.183,0.183,0.122,156.660,-47.895,-65.671
5147,0.7515,0.2700,-0.6250,0.061,0.000,0.000,156.660,-47.895,-65.671
5158,0.7520,0.2725,-0.6260,-0.061,-0.122,0.061,156.660,-47.895,-65.676
5168,0.7520,0.2700,-0.6235,-0.061,-0.183,0.000,156.660,-47.889,-65.676
5178,0.7510,0.2695,-0.6250,0.061,-0.244,-0.061,156.660,-47.889,-65.676
5188,0.7500,0.2686,-0.6250,0.122,-0.305,-0.061,156.665,-47.884,-65.676
5198,0.7490,0.2690,-0.6270,0.122,-0.244,-0.122,156.665,-47.878,-65.676
5208,0.7480,0.2666,-0.6265,0.061,-0.244,-0.122,156.671,-47.873,-65.676
5218,0.7480,0.2676,-0.6240,-0.061,-0.244,-0.122,156.671,-47.873,-65.676
5228,0.7485,0.2671,-0.6250,-0.122,-0.305,-0.122,156.671,-47.867,-65.676
5238,0.7480,0.2686,-0.6211,-0.122,-0.305,-0.061,156.671,-47.867,-65.676
5248,0.7495,0.2686,-0.6201,-0.061,-0.244,0.000,156.671,-47.862,-65.682
5258,0.7476,0.2690,-0.6201,0.061,-0.305,0.183,156.671,-47.862,-65.682
5268,0.7480,0.2681,-0.6187,0.183,-0.122,0.244,156.676,-47.862,-65.687
5278,0.7505,0.2681,-0.6177,0.183,0.061,0.305,156.676,-47.867,-65.693
5288,0.7490,0.2686,-0.6196,0.244,0.244,0.305,156.682,-47.873,-65.693
5298,0.7495,0.2690,-0.6235,0.244,0.366,0.244,156.687,-47.878,-65.693
5308,0.7505,0.2695,-0.6240,0.244,0.488,0.122,156.687,-47.878,-65.693
5318,0.7500,0.2690,-0.6230,0.183,0.549,-0.061,156.682,-47.884,-65.687
5328,0.7471,0.2695,-0.6250,-0.061,0.427,-0.244,156.676,-47.884,-65.682
5338,0.7476,0.2695,-0.6245,-0.244,0.244,-0.366,156.671,-47.884,-65.676
5348,0.7441,0.2700,-0.6240,-0.427,0.000,-0.366,156.665,-47.878,-65.671
5358,0.7446,0.2686,-0.6230,-0.488,-0.183,-0.427,156.654,-47.873,-65.665
5368,0.7461,0.2686,-0.6226,-0.366,-0.366,-0.366,156.649,-47.867,-65.665
5378,0.7490,0.2700,-0.6226,0.000,-0.427,-0.183,156.649,-47.867,-65.665
5388,0.7500,0.2690,-0.6196,0.366,-0.305,0.122,156.654,-47.862,-65.671
5398,0.7500,0.2705,-0.6201,0.793,-0.061,0.305,156.660,-47.867,-65.671
5408,0.7485,0.2705,-0.6230,1.038,0.305,0.366,156.671,-47.867,-65.676
5418,0.7520,0.2705,-0.6240,1.099,0.549,0.244,156.682,-47.873,-65.676
5428,0.7500,0.2671,-0.6274,0.854,0.549,0.061,156.693,-47.878,-65.676
5438,0.7505,0.2661,-0.6265,0.244,0.305,-0.183,156.693,-47.878,-65.671
5448,0.7510,0.2671,-0.6274,-0.427,0.061,-0.427,156.687,-47.878,-65.665
5458,0.7510,0.2686,-0.6250,-0.916,-0.244,-0.488,156.676,-47.873,-65.660
5468,0.7476,0.2681,-0.6221,-1.099,-0.427,-0.488,156.660,-47.867,-65.654
5478,0.7490,0.2686,-0.6216,-0.854,-0.488,-0.366,156.654,-47.862,-65.654
5488,0.7456,0.2681,-0.6206,-0.366,-0.427,-0.122,156.649,-47.856,-65.654
5499,0.7466,0.2671,-0.6221,0.122,-0.305,0.061,156.654,-47.851,-65.654
5508,0.7471,0.2681,-0.6221,0.488,-0.122,0.305,156.660,-47.851,-65.660
5518,0.7466,0.2686,-0.6270,0.793,0.183,0.427,156.676,-47.856,-65.665
5528,0.7476,0.2700,-0.6270,0.793,0.427,0.427,156.687,-47.856,-65.671
5538,0.7490,0.2695,-0.6270,0.732,0.610,0.366,156.693,-47.862,-65.671
5552,0.7500,0.2710,-0.6284,0.488,0.488,0.244,156.698,-47.867,-65.671
5558,0.7515,0.2734,-0.6294,0.183,0.183,0.061,156.698,-47.862,-65.671
5568,0.7510,0.2720,-0.6274,-0.244,-0.610,-0.244,156.693,-47.856,-65.671
5578,0.7529,0.2720,-0.6250,-0.427,-0.977,-0.427,156.687,-47.845,-65.671
5588,0.7515,0.2690,-0.6196,-0.610,-1.282,-0.488,156.682,-47.834,-65.671
5598,0.7490,0.2671,-0.6133,-0.610,-1.282,-0.610,156.671,-47.823,-65.671
5608,0.7471,0.2651,-0.6138,-0.610,-1.099,-0.610,156.665,-47.818,-65.671
5618,0.7446,0.2661,-0.6157,-0.488,-0.793,-0.549,156.660,-47.807,-65.665
5628,0.7441,0.2651,-0.6147,-0.244,-0.366,-0.366,156.654,-47.807,-65.665
5638,0.7432,0.2632,-0.6167,-0.061,0.183,-0.244,156.654,-47.807,-65.660
5648,0.7441,0.2637,-0.6196,0.244,0.671,-0.061,156.654,-47.813,-65.654
5658,0.7427,0.2651,-0.6211,0.427,0.977,0.122,156.654,-47.823,-65.649
5668,0.7451,0.2671,-0.6240,0.549,1.099,0.244,156.660,-47.834,-65.649
5678,0.7490,0.2666,-0.6265,0.610,0.977,0.305,156.671,-47.840,-65.643
5688,0.7495,0.2671,-0.6279,0.610,0.732,0.427,156.682,-47.845,-65.649
5698,0.7490,0.2690,-0.6313,0.488,0.427,0.488,156.687,-47.851,-65.649
5708,0.7480,0.2686,-0.6309,0.366,0.000,0.366,156.698,-47.851,-65.654
5718,0.7495,0.2700,-0.6304,0.244,-0.366,0.305,156.709,-47.845,-65.660
5728,0.7466,0.2705,-0.6260,0.122,-0.549,0.244,156.714,-47.834,-65.671
5738,0.7471,0.2695,-0.6270,-0.061,-0.671,0.122,156.714,-47.829,-65.676
5748,0.7466,0.2725,-0.6250,-0.244,-0.671,0.122,156.714,-47.823,-65.682
5758,0.7451,0.2720,-0.6240,-0.305,-0.610,0.122,156.714,-47.813,-65.687
5768,0.7466,0.2734,-0.6230,-0.244,-0.488,0.061,156.709,-47.807,-65.687
5778,0.7466,0.2720,-0.6221,-0.122,-0.366,-0.061,156.703,-47.802,-65.687
5788,0.7490,0.2710,-0.6216,0.000,-0.183,-0.061,156.703,-47.802,-65.693
5798,0.7490,0.2695,-0.6230,0.061,0.000,-0.183,156.703,-47.802,-65.687
5808,0.7461,0.2681,-0.6226,0.061,0.183,-0.244,156.698,-47.802,-65.682
5818,0.7471,0.2671,-0.6206,-0.122,0.366,-0.244,156.693,-47.807,-65.676
5828,0.7461,0.2676,-0.6191,-0.183,0.427,-0.305,156.687,-47.807,-65.671
5838,0.7476,0.2656,-0.6201,-0.244,0.366,-0.305,156.682,-47.813,-65.671
5848,0.7461,0.2666,-0.6221,-0.244,0.427,-0.244,156.676,-47.818,-65.671
5858,0.7446,0.2651,-0.6196,-0.183,0.427,-0.122,156.671,-47.818,-65.671
5868,0.7446,0.2666,-0.6226,-0.061,0.427,0.061,156.671,-47.823,-65.671
5878,0.7466,0.2690,-0.6245,0.183,0.488,0.244,156.676,-47.829,-65.671
5888,0.7461,0.2681,-0.6240,0.427,0.610,0.427,156.682,-47.834,-65.671
5898,0.7485,0.2686,-0.6240,0.610,0.610,0.488,156.687,-47.840,-65.671
5908,0.7500,0.2695,-0.6265,0.671,0.732,0.488,156.698,-47.845,-65.671
5918,0.7505,0.2710,-0.6279,0.488,0.732,0.427,156.703,-47.851,-65.671
5928,0.7500,0.2715,-0.6274,0.183,0.610,0.305,156.703,-47.856,-65.671
5938,0.7490,0.2710,-0.6265,-0.183,0.488,0.122,156.698,-47.862,-65.671
5948,0.7500,0.2700,-0.6240,-0.549,0.244,0.000,156.693,-47.862,-65.671
5958,0.7485,0.2700,-0.6250,-0.732,-0.061,-0.122,156.682,-47.862,-65.671
5968,0.7500,0.2695,-0.6216,-0.671,-0.244,-0.122,156.676,-47.856,-65.671
5978,0.7505,0.2686,-0.6196,-0.427,-0.305,-0.061,156.671,-47.856,-65.671
5988,0.7510,0.2686,-0.6211,-0.061,-0.244,0.122,156.671,-47.856,-65.671
5999,0.7510,0.2681,-0.6230,0.183,-0.122,0.122,156.676,-47.856,-65.671
6007,0.7505,0.2671,-0.6211,0.183,0.000,0.061,156.682,-47.856,-65.671
6018,0.7485,0.2666,-0.6216,0.061,0.183,0.061,156.682,-47.862,-65.671
6028,0.7471,0.2676,-0.6221,-0.183,0.305,-0.122,156.676,-47.862,-65.671
6038,0.7476,0.2690,-0.6240,-0.427,0.366,-0.122,156.671,-47.862,-65.671
6048,0.7495,0.2686,-0.6245,-0.549,0.366,-0.061,156.665,-47.867,-65.671
6058,0.7476,0.2681,-0.6245,-0.488,0.305,0.000,156.660,-47.867,-65.671
6068,0.7490,0.2666,-0.6221,-0.244,0.244,0.122,156.660,-47.873,-65.671
6078,0.7480,0.2666,-0.6245,-0.061,0.244,0.183,156.660,-47.873,-65.671
6088,0.7480,0.2676,-0.6245,0.061,0.244,0.244,156.665,-47.873,-65.671
6098,0.7476,0.2705,-0.6245,0.061,0.183,0.305,156.665,-47.878,-65.671
6108,0.7495,0.2710,-0.6245,0.000,0.183,0.305,156.665,-47.878,-65.671
6118,0.7524,0.2710,-0.6274,0.000,0.183,0.244,156.665,-47.878,-65.671
6128,0.7505,0.2725,-0.6304,0.061,0.183,0.183,156.671,-47.878,-65.671
6138,0.7524,0.2700,-0.6304,0.122,0.122,0.122,156.671,-47.878,-65.671
6147,0.7505,0.2695,-0.6328,0.061,0.000,0.000,156.676,-47.873,-65.671
6158,0.7505,0.2690,-0.6299,0.000,-0.061,-0.061,156.676,-47.873,-65.671
6168,0.7490,0.2681,-0.6304,-0.183,-0.244,-0.244,156.676,-47.867,-65.671
6178,0.7500,0.2686,-0.6284,-0.366,-0.366,-0.305,156.671,-47.856,-65.671
6188,0.7471,0.2676,-0.6279,-0.549,-0.549,-0.366,156.671,-47.851,-65.671
6198,0.7480,0.2676,-0.6255,-0.549,-0.610,-0.366,156.665,-47.840,-65.671
6208,0.7495,0.2695,-0.6255,-0.488,-0.671,-0.244,156.660,-47.834,-65.671
6218,0.7471,0.2676,-0.6245,-0.183,-0.732,-0.122,156.660,-47.823,-65.671
6227,0.7461,0.2695,-0.6221,0.122,-0.732,0.000,156.665,-47.818,-65.671
6238,0.7466,0.2686,-0.6226,0.183,-0.732,0.000,156.671,-47.813,-65.671
6248,0.7441,0.2676,-0.6196,0.061,-0.793,0.061,156.676,-47.802,-65.671
6258,0.7451,0.2686,-0.6211,-0.183,-0.732,0.061,156.676,-47.796,-65.671
6268,0.7461,0.2690,-0.6196,-0.366,-0.549,0.061,156.671,-47.791,-65.671
6277,0.7480,0.2690,-0.6191,-0.488,-0.305,0.000,156.671,-47.791,-65.671
6288,0.7480,0.2686,-0.6221,-0.549,-0.122,0.061,156.665,-47.791,-65.671
6298,0.7490,0.2705,-0.6211,-0.427,0.061,0.061,156.660,-47.791,-65.671
6308,0.7480,0.2725,-0.6240,-0.244,0.183,0.122,156.654,-47.796,-65.671
6318,0.7485,0.2725,-0.6240,0.000,0.305,0.122,156.649,-47.796,-65.671
6328,0.7490,0.2729,-0.6240,0.183,0.427,0.122,156.649,-47.802,-65.671
6338,0.7500,0.2734,-0.6255,0.366,0.549,0.183,156.649,-47.807,-65.671
6348,0.7515,0.2739,-0.6270,0.427,0.549,0.183,156.649,-47.807,-65.671
6358,0.7515,0.2729,-0.6309,0.488,0.610,0.122,156.654,-47.813,-65.671
6368,0.7510,0.2729,-0.6328,0.427,0.488,0.061,156.654,-47.813,-65.671
6378,0.7524,0.2710,-0.6333,0.305,0.305,-0.122,156.660,-47.813,-65.671
6388,0.7500,0.2705,-0.6318,0.061,-0.061,-0.305,156.660,-47.807,-65.671
6398,0.7500,0.2690,-0.6284,-0.183,-0.488,-0.427,156.654,-47.802,-65.671
6408,0.7490,0.2681,-0.6270,-0.488,-0.854,-0.488,156.654,-47.791,-65.671
6418,0.7485,0.2671,-0.6226,-0.610,-1.221,-0.549,156.649,-47.780,-65.671
6428,0.7461,0.2666,-0.6216,-0.549,-1.404,-0.427,156.643,-47.763,-65.671
6438,0.7456,0.2632,-0.6177,-0.427,-1.343,-0.305,156.643,-47.752,-65.671
6448,0.7441,0.2642,-0.6191,-0.183,-1.038,-0.183,156.649,-47.747,-65.671
6457,0.7432,0.2646,-0.6157,0.000,-0.610,0.000,156.654,-47.741,-65.671
6468,0.7432,0.2656,-0.6138,0.122,-0.061,0.183,156.654,-47.747,-65.671
6478,0.7451,0.2656,-0.6147,0.244,0.366,0.366,156.660,-47.752,-65.671
6488,0.7441,0.2686,-0.6162,0.366,0.671,0.488,156.665,-47.763,-65.671
6499,0.7446,0.2690,-0.6191,0.488,0.793,0.671,156.671,-47.774,-65.671
6507,0.7466,0.2705,-0.6211,0.610,0.854,0.732,156.676,-47.785,-65.671
6517,0.7461,0.2725,-0.6265,0.671,0.732,0.732,156.687,-47.791,-65.671
6528,0.7485,0.2729,-0.6274,0.671,0.549,0.732,156.698,-47.796,-65.671
6537,0.7495,0.2734,-0.6284,0.671,0.488,0.671,156.703,-47.802,-65.671
6548,0.7490,0.2729,-0.6294,0.549,0.366,0.549,156.714,-47.802,-65.671
6558,0.7485,0.2749,-0.6294,0.488,0.305,0.427,156.720,-47.807,-65.671
6568,0.7466,0.2754,-0.6274,0.305,0.183,0.183,156.720,-47.802,-65.671
6578,0.7471,0.2759,-0.6250,0.122,0.061,0.061,156.714,-47.802,-65.671
6588,0.7451,0.2729,-0.6255,0.122,-0.122,-0.122,156.709,-47.796,-65.671
6598,0.7476,0.2725,-0.6250,0.183,-0.244,-0.305,156.709,-47.791,-65.671
6608,0.7471,0.2695,-0.6260,0.244,-0.122,-0.427,156.709,-47.791,-65.671
6617,0.7471,0.2671,-0.6235,0.183,0.000,-0.488,156.703,-47.785,-65.671
6627,0.7466,0.2642,-0.6245,0.000,0.122,-0.488,156.703,-47.785,-65.671
6638,0.7476,0.2646,-0.6245,-0.061,0.366,-0.366,156.698,-47.785,-65.671
6647,0.7505,0.2637,-0.6235,-0.061,0.427,-0.244,156.698,-47.791,-65.671
6658,0.7471,0.2642,-0.6235,0.122,0.488,-0.122,156.698,-47.796,-65.671
6668,0.7480,0.2646,-0.6250,0.366,0.488,0.061,156.703,-47.802,-65.671
6677,0.7480,0.2642,-0.6260,0.549,0.366,0.244,156.714,-47.807,-65.671
6687,0.7461,0.2642,-0.6284,0.671,0.183,0.366,156.731,-47.807,-65.671
6697,0.7480,0.2656,-0.6274,0.610,0.000,0.427,156.742,-47.807,-65.671
6707,0.7500,0.2686,-0.6294,0.488,-0.183,0.427,156.758,-47.807,-65.671
6717,0.7505,0.2695,-0.6289,0.488,-0.244,0.427,156.764,-47.802,-65.671
6727,0.7510,0.2705,-0.6260,0.427,-0.305,0.427,156.775,-47.802,-65.671
6737,0.7500,0.2715,-0.6255,0.366,-0.305,0.366,156.780,-47.802,-65.671
6747,0.7505,0.2715,-0.6216,0.305,-0.244,0.244,156.786,-47.802,-65.671
6757,0.7495,0.2739,-0.6245,0.244,-0.122,0.183,156.786,-47.796,-65.671
6767,0.7480,0.2720,-0.6250,0.122,0.061,0.000,156.780,-47.796,-65.671
6778,0.7466,0.2720,-0.6260,-0.122,0.061,-0.183,156.775,-47.796,-65.671
6788,0.7476,0.2715,-0.6255,-0.305,0.061,-0.305,156.769,-47.791,-65.671
6797,0.7476,0.2715,-0.6250,-0.427,0.000,-0.427,156.758,-47.791,-65.671
6807,0.7471,0.2710,-0.6235,-0.427,-0.122,-0.488,156.747,-47.785,-65.671
6817,0.7461,0.2690,-0.6265,-0.366,-0.122,-0.427,156.736,-47.780,-65.671
6828,0.7485,0.2681,-0.6255,-0.122,-0.122,-0.366,156.736,-47.780,-65.671
6837,0.7476,0.2671,-0.6250,0.122,-0.061,-0.366,156.731,-47.774,-65.671
6847,0.7461,0.2632,-0.6250,0.122,-0.061,-0.305,156.736,-47.774,-65.671
6857,0.7480,0.2632,-0.6235,0.000,0.000,-0.183,156.736,-47.774,-65.671
6867,0.7480,0.2637,-0.6221,-0.122,0.000,-0.122,156.736,-47.774,-65.671
6877,0.7461,0.2666,-0.6245,-0.183,0.000,0.000,156.736,-47.774,-65.671
6887,0.7456,0.2700,-0.6250,-0.061,0.000,0.183,156.736,-47.774,-65.671
6897,0.7480,0.2700,-0.6240,0.244,0.061,0.244,156.742,-47.774,-65.671
6907,0.7476,0.2715,-0.6230,0.488,0.183,0.427,156.747,-47.780,-65.671
6917,0.7466,0.2700,-0.6274,0.610,0.183,0.427,156.758,-47.780,-65.671
6927,0.7500,0.2695,-0.6284,0.671,0.183,0.427,156.764,-47.780,-65.671
6937,0.7520,0.2695,-0.6255,0.488,0.122,0.244,156.769,-47.785,-65.671
6947,0.7520,0.2690,-0.6274,0.122,0.000,0.061,156.775,-47.785,-65.671
6957,0.7515,0.2700,-0.6284,-0.183,-0.122,-0.061,156.769,-47.780,-65.671
6967,0.7485,0.2720,-0.6260,-0.488,-0.305,-0.244,156.764,-47.774,-65.671
6977,0.7456,0.2695,-0.6240,-0.549,-0.427,-0.244,156.758,-47.769,-65.671
6987,0.7437,0.2686,-0.6211,-0.488,-0.488,-0.305,156.747,-47.763,-65.671
6998,0.7437,0.2681,-0.6230,-0.305,-0.488,-0.183,156.747,-47.758,-65.671
7007,0.7441,0.2686,-0.6216,-0.122,-0.427,-0.122,156.742,-47.752,-65.671
7017,0.7432,0.2681,-0.6187,0.061,-0.305,0.061,156.747,-47.752,-65.671
7027,0.7461,0.2661,-0.6221,0.244,-0.061,0.183,156.753,-47.752,-65.671
7037,0.7471,0.2686,-0.6240,0.427,0.183,0.305,156.758,-47.752,-65.671
7047,0.7480,0.2700,-0.6235,0.610,0.427,0.427,156.764,-47.758,-65.671
7057,0.7495,0.2705,-0.6260,0.671,0.488,0.427,156.769,-47.763,-65.671
7067,0.7485,0.2690,-0.6274,0.671,0.427,0.305,156.780,-47.769,-65.671
7077,0.7495,0.2661,-0.6289,0.427,0.305,0.122,156.786,-47.774,-65.671
7087,0.7505,0.2661,-0.6299,-0.061,0.000,0.061,156.791,-47.769,-65.671
7097,0.7490,0.2681,-0.6265,-0.488,-0.244,-0.061,156.786,-47.769,-65.671
7107,0.7490,0.2690,-0.6250,-0.610,-0.366,-0.122,156.780,-47.763,-65.671
7117,0.7485,0.2700,-0.6235,-0.549,-0.366,-0.122,156.769,-47.758,-65.671
7127,0.7461,0.2690,-0.6255,-0.244,-0.244,0.000,156.769,-47.758,-65.671
7137,0.7461,0.2686,-0.6265,0.061,-0.061,0.122,156.769,-47.758,-65.671
7147,0.7461,0.2690,-0.6279,0.366,0.244,0.244,156.775,-47.758,-65.671
7157,0.7466,0.2681,-0.6289,0.610,0.366,0.305,156.786,-47.758,-65.671
7167,0.7466,0.2710,-0.6294,0.732,0.549,0.305,156.791,-47.763,-65.671
7177,0.7490,0.2690,-0.6309,0.793,0.549,0.244,156.802,-47.763,-65.671
7187,0.7510,0.2700,-0.6313,0.671,0.610,0.183,156.808,-47.769,-65.671
7197,0.7524,0.2705,-0.6333,0.427,0.488,0.122,156.813,-47.774,-65.671
7207,0.7515,0.2710,-0.6299,0.122,0.244,0.061,156.813,-47.774,-65.671
7217,0.7520,0.2710,-0.6309,-0.122,-0.122,-0.061,156.808,-47.769,-65.671
7227,0.7505,0.2690,-0.6289,-0.244,-0.488,-0.122,156.808,-47.763,-65.671
7237,0.7476,0.2671,-0.6250,-0.366,-0.916,-0.244,156.808,-47.758,-65.671
7247,0.7476,0.2656,-0.6221,-0.427,-1.221,-0.305,156.808,-47.747,-65.671
7257,0.7446,0.2666,-0.6211,-0.488,-1.282,-0.366,156.802,-47.730,-65.671
7267,0.7412,0.2632,-0.6191,-0.549,-1.282,-0.366,156.802,-47.719,-65.671
7277,0.7397,0.2627,-0.6196,-0.488,-0.977,-0.244,156.802,-47.708,-65.671
7287,0.7422,0.2622,-0.6187,-0.366,-0.549,-0.061,156.802,-47.703,-65.671
7297,0.7402,0.2646,-0.6152,-0.061,-0.183,0.183,156.802,-47.708,-65.671
7307,0.7417,0.2656,-0.6167,0.305,0.244,0.366,156.808,-47.708,-65.671
7317,0.7397,0.2695,-0.6167,0.549,0.610,0.549,156.808,-47.719,-65.671
7327,0.7417,0.2695,-0.6221,0.854,0.793,0.610,156.819,-47.725,-65.671
7337,0.7422,0.2700,-0.6245,1.038,1.099,0.610,156.830,-47.736,-65.671
7347,0.7461,0.2705,-0.6270,1.038,1.404,0.549,156.835,-47.752,-65.671
7357,0.7490,0.2690,-0.6294,0.916,1.587,0.488,156.846,-47.763,-65.671
7367,0.7515,0.2705,-0.6313,0.610,1.587,0.305,156.846,-47.780,-65.671
7377,0.7495,0.2700,-0.6348,0.305,1.404,0.122,156.846,-47.785,-65.671
7387,0.7505,0.2710,-0.6362,0.061,0.977,-0.061,156.841,-47.791,-65.671
7397,0.7505,0.2715,-0.6348,-0.183,0.488,-0.183,156.835,-47.791,-65.671
7407,0.7495,0.2676,-0.6333,-0.366,-0.061,-0.244,156.835,-47.785,-65.671
7417,0.7480,0.2676,-0.6318,-0.366,-0.488,-0.305,156.830,-47.780,-65.671
7427,0.7490,0.2661,-0.6299,-0.427,-0.793,-0.366,156.830,-47.769,-65.671
7437,0.7490,0.2622,-0.6260,-0.427,-0.916,-0.305,156.830,-47.758,-65.671
7447,0.7461,0.2612,-0.6240,-0.305,-0.916,-0.244,156.830,-47.752,-65.671
7457,0.7466,0.2627,-0.6216,-0.183,-0.732,-0.061,156.835,-47.747,-65.671
7467,0.7446,0.2651,-0.6221,0.000,-0.427,0.122,156.841,-47.741,-65.671
7477,0.7456,0.2632,-0.6216,0.244,-0.122,0.244,156.846,-47.741,-65.671
7487,0.7446,0.2661,-0.6211,0.488,0.244,0.366,156.852,-47.747,-65.671
7498,0.7446,0.2671,-0.6255,0.549,0.610,0.488,156.863,-47.752,-65.671
7507,0.7456,0.2676,-0.6226,0.427,0.854,0.549,156.868,-47.763,-65.671
7517,0.7446,0.2671,-0.6240,0.244,1.038,0.488,156.868,-47.774,-65.671
7527,0.7461,0.2690,-0.6255,0.122,0.916,0.427,156.868,-47.780,-65.671
7537,0.7466,0.2715,-0.6250,0.061,0.793,0.366,156.868,-47.791,-65.671
7547,0.7476,0.2720,-0.6270,0.061,0.610,0.244,156.863,-47.791,-65.671
7557,0.7500,0.2734,-0.6260,0.061,0.488,0.122,156.857,-47.796,-65.671
7567,0.7500,0.2720,-0.6274,0.000,0.366,0.122,156.857,-47.802,-65.671
7577,0.7476,0.2705,-0.6265,0.061,0.305,0.061,156.852,-47.802,-65.671
7587,0.7485,0.2705,-0.6226,0.061,0.427,0.000,156.846,-47.807,-65.671
7597,0.7480,0.2695,-0.6245,0.000,0.488,-0.122,156.841,-47.807,-65.671
7607,0.7495,0.2690,-0.6245,-0.122,0.610,-0.305,156.835,-47.813,-65.671
7617,0.7480,0.2661,-0.6255,-0.244,0.732,-0.427,156.824,-47.818,-65.671
7627,0.7480,0.2671,-0.6245,-0.427,0.732,-0.488,156.813,-47.818,-65.671
7637,0.7480,0.2666,-0.6226,-0.549,0.671,-0.366,156.802,-47.823,-65.671
7647,0.7466,0.2656,-0.6245,-0.427,0.488,-0.305,156.797,-47.829,-65.671
7657,0.7480,0.2666,-0.6245,-0.244,0.366,-0.122,156.791,-47.829,-65.671
7667,0.7480,0.2661,-0.6235,0.061,0.366,0.061,156.791,-47.834,-65.671
7677,0.7476,0.2651,-0.6230,0.305,0.366,0.183,156.797,-47.840,-65.671
7687,0.7485,0.2656,-0.6240,0.488,0.488,0.305,156.802,-47.845,-65.671
7697,0.7505,0.2646,-0.6240,0.488,0.610,0.366,156.813,-47.851,-65.671
7707,0.7505,0.2656,-0.6255,0.305,0.671,0.366,156.819,-47.856,-65.671
7717,0.7500,0.2666,-0.6260,0.122,0.732,0.305,156.819,-47.867,-65.671
7727,0.7500,0.2666,-0.6270,0.000,0.671,0.183,156.819,-47.873,-65.671
7737,0.7495,0.2690,-0.6270,-0.183,0.549,0.061,156.813,-47.873,-65.671
7747,0.7510,0.2686,-0.6255,-0.305,0.427,0.061,156.808,-47.878,-65.671
7757,0.7490,0.2661,-0.6255,-0.305,0.366,0.061,156.808,-47.884,-65.671
7767,0.7505,0.2671,-0.6240,-0.244,0.305,0.061,156.802,-47.884,-65.671
7777,0.7510,0.2681,-0.6260,-0.183,0.244,0.122,156.802,-47.884,-65.671
7787,0.7495,0.2686,-0.6245,-0.061,0.183,0.183,156.802,-47.889,-65.671
7797,0.7500,0.2686,-0.6240,0.000,0.244,0.122,156.802,-47.889,-65.671
7807,0.7461,0.2671,-0.6245,-0.061,0.183,0.061,156.802,-47.889,-65.671
7817,0.7441,0.2666,-0.6235,-0.183,0.244,0.000,156.797,-47.889,-65.671
7827,0.7446,0.2676,-0.6226,-0.427,0.244,-0.122,156.791,-47.889,-65.671
7837,0.7446,0.2666,-0.6221,-0.488,0.305,-0.183,156.786,-47.889,-65.671
7847,0.7466,0.2681,-0.6191,-0.366,0.305,-0.061,156.775,-47.895,-65.671
7857,0.7485,0.2690,-0.6226,-0.122,0.427,0.122,156.775,-47.900,-65.671
7867,0.7485,0.2666,-0.6230,0.244,0.549,0.244,156.775,-47.906,-65.671
7877,0.7505,0.2676,-0.6250,0.549,0.610,0.305,156.780,-47.911,-65.671
7887,0.7510,0.2661,-0.6245,0.549,0.488,0.244,156.791,-47.917,-65.671
7897,0.7505,0.2651,-0.6235,0.305,0.427,0.122,156.791,-47.917,-65.671
7907,0.7495,0.2642,-0.6226,-0.244,0.305,0.000,156.791,-47.922,-65.671
7917,0.7490,0.2656,-0.6221,-0.732,0.244,-0.122,156.786,-47.922,-65.671
7927,0.7505,0.2686,-0.6182,-0.916,0.305,-0.122,156.769,-47.928,-65.671
7937,0.7476,0.2690,-0.6211,-0.854,0.366,-0.061,156.758,-47.933,-65.671
7947,0.7471,0.2686,-0.6221,-0.549,0.488,0.000,156.747,-47.933,-65.671
7957,0.7480,0.2686,-0.6260,-0.122,0.549,0.183,156.747,-47.939,-65.671
7967,0.7476,0.2681,-0.6260,0.305,0.549,0.305,156.753,-47.939,-65.671
7977,0.7480,0.2676,-0.6289,0.549,0.610,0.305,156.758,-47.944,-65.671
7987,0.7505,0.2666,-0.6289,0.671,0.732,0.305,156.769,-47.950,-65.671
7998,0.7510,0.2676,-0.6289,0.610,0.793,0.244,156.775,-47.955,-65.671
8007,0.7529,0.2690,-0.6318,0.488,0.732,0.183,156.780,-47.961,-65.671
8017,0.7549,0.2695,-0.6338,0.244,0.610,0.000,156.780,-47.961,-65.671
8027,0.7559,0.2710,-0.6309,0.000,0.244,-0.061,156.780,-47.961,-65.671
8037,0.7529,0.2700,-0.6265,-0.183,-0.122,-0.183,156.775,-47.961,-65.671
8047,0.7520,0.2676,-0.6270,-0.427,-0.549,-0.366,156.769,-47.950,-65.671
8057,0.7520,0.2676,-0.6221,-0.671,-0.916,-0.427,156.764,-47.944,-65.671
8067,0.7510,0.2676,-0.6206,-0.854,-1.160,-0.488,156.753,-47.928,-65.671
8077,0.7490,0.2651,-0.6152,-0.854,-1.221,-0.427,156.747,-47.922,-65.671
8087,0.7446,0.2637,-0.6143,-0.793,-1.038,-0.366,156.742,-47.911,-65.671
8097,0.7451,0.2632,-0.6157,-0.671,-0.610,-0.305,156.731,-47.906,-65.671
8107,0.7441,0.2617,-0.6157,-0.488,-0.183,-0.122,156.731,-47.906,-65.671
8117,0.7446,0.2632,-0.6187,-0.244,0.244,0.000,156.731,-47.906,-65.671
8127,0.7437,0.2646,-0.6196,-0.061,0.732,0.244,156.731,-47.917,-65.671
8137,0.7446,0.2676,-0.6211,0.122,1.038,0.488,156.731,-47.922,-65.671
8147,0.7480,0.2700,-0.6226,0.366,1.160,0.549,156.731,-47.933,-65.671
8157,0.7485,0.2686,-0.6270,0.549,1.160,0.610,156.742,-47.944,-65.671
8167,0.7485,0.2686,-0.6289,0.488,1.038,0.610,156.747,-47.955,-65.671
8177,0.7485,0.2686,-0.6294,0.305,0.671,0.488,156.753,-47.961,-65.671
8187,0.7500,0.2705,-0.6313,0.061,0.305,0.366,156.758,-47.961,-65.671
8197,0.7505,0.2725,-0.6309,-0.183,0.000,0.244,156.758,-47.955,-65.671
8207,0.7520,0.2734,-0.6289,-0.366,-0.122,0.122,156.753,-47.950,-65.671
8217,0.7500,0.2715,-0.6260,-0.488,-0.183,0.000,156.747,-47.950,-65.671
8227,0.7490,0.2695,-0.6260,-0.488,-0.183,-0.122,156.742,-47.944,-65.671
8237,0.7485,0.2690,-0.6245,-0.488,-0.244,-0.183,156.736,-47.939,-65.671
8247,0.7485,0.2700,-0.6260,-0.549,-0.244,-0.366,156.725,-47.933,-65.671
8257,0.7505,0.2661,-0.6245,-0.549,-0.244,-0.427,156.720,-47.928,-65.671
8267,0.7500,0.2666,-0.6206,-0.488,-0.183,-0.427,156.709,-47.922,-65.671
8277,0.7515,0.2656,-0.6191,-0.427,-0.122,-0.366,156.703,-47.922,-65.671
8287,0.7500,0.2646,-0.6177,-0.244,0.000,-0.244,156.698,-47.928,-65.671
8297,0.7485,0.2646,-0.6187,-0.122,0.122,-0.122,156.698,-47.928,-65.671
8307,0.7485,0.2642,-0.6196,0.061,0.366,0.061,156.703,-47.933,-65.671
8317,0.7490,0.2642,-0.6226,0.183,0.488,0.122,156.703,-47.939,-65.671
8327,0.7500,0.2632,-0.6245,0.305,0.549,0.183,156.709,-47.944,-65.671
8337,0.7505,0.2646,-0.6226,0.244,0.549,0.183,156.714,-47.950,-65.671
8347,0.7515,0.2666,-0.6235,0.183,0.427,0.244,156.720,-47.955,-65.671
8357,0.7505,0.2661,-0.6255,0.061,0.305,0.244,156.725,-47.955,-65.671
8367,0.7510,0.2681,-0.6284,-0.061,0.183,0.183,156.725,-47.955,-65.671
8377,0.7524,0.2695,-0.6279,-0.122,0.000,0.183,156.725,-47.955,-65.671
8387,0.7495,0.2700,-0.6274,-0.122,-0.061,0.244,156.731,-47.955,-65.671
8397,0.7505,0.2690,-0.6279,-0.122,-0.122,0.183,156.731,-47.950,-65.671
8407,0.7495,0.2705,-0.6265,-0.183,-0.183,0.122,156.731,-47.944,-65.671
8417,0.7495,0.2710,-0.6270,-0.244,-0.305,0.061,156.725,-47.939,-65.671
8427,0.7500,0.2695,-0.6226,-0.305,-0.366,-0.061,156.725,-47.939,-65.671
8437,0.7495,0.2690,-0.6226,-0.427,-0.366,-0.122,156.720,-47.933,-65.671
8447,0.7510,0.2710,-0.6201,-0.427,-0.366,-0.183,156.714,-47.928,-65.671
8457,0.7500,0.2705,-0.6226,-0.366,-0.427,-0.244,156.703,-47.922,-65.671
8467,0.7485,0.2690,-0.6221,-0.305,-0.366,-0.244,156.703,-47.917,-65.671
8477,0.7490,0.2681,-0.6187,-0.183,-0.305,-0.183,156.698,-47.917,-65.671
8487,0.7476,0.2671,-0.6206,-0.122,-0.183,-0.244,156.693,-47.911,-65.671
8498,0.7471,0.2651,-0.6191,-0.122,0.000,-0.244,156.693,-47.911,-65.671
8507,0.7471,0.2642,-0.6196,-0.061,0.061,-0.122,156.693,-47.911,-65.671
8517,0.7480,0.2686,-0.6226,-0.061,0.244,-0.061,156.687,-47.917,-65.671
8527,0.7480,0.2671,-0.6221,0.000,0.305,-0.061,156.687,-47.917,-65.671
8537,0.7480,0.2661,-0.6255,0.000,0.366,0.000,156.687,-47.917,-65.671
8547,0.7495,0.2651,-0.6211,0.000,0.305,0.061,156.693,-47.922,-65.671
8557,0.7515,0.2686,-0.6240,0.061,0.305,0.122,156.693,-47.922,-65.671
8567,0.7505,0.2700,-0.6250,0.061,0.305,0.122,156.693,-47.928,-65.671
8577,0.7490,0.2666,-0.6260,0.183,0.427,0.122,156.693,-47.928,-65.671
8587,0.7495,0.2666,-0.6279,0.183,0.427,0.061,156.698,-47.933,-65.671
8597,0.7490,0.2651,-0.6260,0.122,0.305,0.000,156.703,-47.933,-65.671
8607,0.7476,0.2661,-0.6270,0.000,0.183,-0.183,156.703,-47.933,-65.671
8617,0.7461,0.2646,-0.6260,-0.244,0.000,-0.305,156.698,-47.928,-65.671
8627,0.7495,0.2656,-0.6245,-0.488,-0.183,-0.305,156.698,-47.922,-65.671
8637,0.7495,0.2686,-0.6230,-0.549,-0.366,-0.244,156.687,-47.917,-65.671
8647,0.7500,0.2690,-0.6216,-0.305,-0.427,-0.061,156.687,-47.917,-65.671
8657,0.7505,0.2690,-0.6226,0.122,-0.305,0.183,156.693,-47.911,-65.671
8667,0.7500,0.2681,-0.6226,0.427,-0.183,0.305,156.698,-47.911,-65.671
8677,0.7480,0.2686,-0.6206,0.610,-0.122,0.305,156.709,-47.911,-65.671
8687,0.7495,0.2681,-0.6245,0.427,-0.122,0.244,156.714,-47.911,-65.671
8697,0.7495,0.2671,-0.6216,0.000,-0.244,0.122,156.720,-47.911,-65.671
8707,0.7480,0.2681,-0.6206,-0.427,-0.244,0.000,156.714,-47.906,-65.671
8717,0.7485,0.2676,-0.6196,-0.732,-0.183,-0.122,156.703,-47.906,-65.671
8727,0.7466,0.2686,-0.6196,-0.854,-0.122,-0.122,156.693,-47.906,-65.671
8737,0.7466,0.2686,-0.6235,-0.732,0.061,-0.061,156.687,-47.900,-65.671
8747,0.7480,0.2671,-0.6230,-0.427,0.244,-0.061,156.682,-47.906,-65.671
8757,0.7480,0.2686,-0.6245,-0.061,0.427,0.061,156.682,-47.906,-65.671
8767,0.7461,0.2690,-0.6265,0.183,0.488,0.183,156.682,-47.906,-65.671
8777,0.7490,0.2690,-0.6274,0.366,0.610,0.183,156.687,-47.911,-65.671
8787,0.7490,0.2681,-0.6318,0.488,0.671,0.122,156.693,-47.917,-65.671
8797,0.7515,0.2690,-0.6348,0.427,0.671,0.122,156.698,-47.917,-65.671
8807,0.7520,0.2705,-0.6318,0.366,0.549,0.122,156.703,-47.917,-65.671
8817,0.7524,0.2715,-0.6333,0.244,0.244,0.122,156.703,-47.917,-65.671
8827,0.7529,0.2700,-0.6323,0.183,-0.061,0.000,156.709,-47.917,-65.671
8837,0.7539,0.2695,-0.6309,0.061,-0.427,-0.122,156.714,-47.906,-65.671
8847,0.7539,0.2690,-0.6284,-0.061,-0.793,-0.244,156.714,-47.900,-65.671
8857,0.7510,0.2686,-0.6245,-0.305,-0.977,-0.366,156.709,-47.889,-65.671
8867,0.7500,0.2642,-0.6221,-0.488,-1.099,-0.549,156.709,-47.878,-65.671
8877,0.7510,0.2646,-0.6196,-0.732,-1.099,-0.610,156.703,-47.867,-65.671
8887,0.7466,0.2642,-0.6157,-0.793,-1.038,-0.671,156.693,-47.856,-65.671
8897,0.7446,0.2622,-0.6147,-0.793,-0.793,-0.610,156.682,-47.851,-65.671
8907,0.7441,0.2642,-0.6157,-0.671,-0.488,-0.427,156.676,-47.845,-65.671
8917,0.7422,0.2651,-0.6157,-0.427,-0.122,-0.122,156.671,-47.845,-65.671
8927,0.7407,0.2656,-0.6162,0.000,0.244,0.183,156.671,-47.845,-65.671
8937,0.7446,0.2666,-0.6167,0.366,0.549,0.488,156.676,-47.856,-65.671
8947,0.7471,0.2666,-0.6206,0.732,0.793,0.671,156.687,-47.867,-65.671
8957,0.7480,0.2681,-0.6240,1.038,1.038,0.793,156.703,-47.878,-65.671
8967,0.7490,0.2695,-0.6255,1.099,1.099,0.793,156.720,-47.889,-65.671
8977,0.7485,0.2690,-0.6284,0.977,0.977,0.610,156.731,-47.895,-65.671
8987,0.7495,0.2700,-0.6294,0.488,0.671,0.366,156.736,-47.900,-65.671
8998,0.7495,0.2700,-0.6323,0.000,0.366,0.122,156.736,-47.900,-65.671
9007,0.7490,0.2710,-0.6304,-0.427,0.061,-0.122,156.731,-47.900,-65.671
9017,0.7485,0.2729,-0.6265,-0.732,-0.244,-0.244,156.720,-47.889,-65.671
9027,0.7476,0.2710,-0.6260,-0.732,-0.488,-0.366,156.709,-47.884,-65.671
9037,0.7480,0.2705,-0.6235,-0.610,-0.671,-0.366,156.703,-47.873,-65.671
9047,0.7461,0.2700,-0.6216,-0.366,-0.671,-0.427,156.693,-47.867,-65.671
9057,0.7480,0.2671,-0.6221,-0.244,-0.549,-0.366,156.693,-47.862,-65.671
9067,0.7476,0.2622,-0.6216,-0.183,-0.244,-0.305,156.693,-47.856,-65.671
9077,0.7480,0.2637,-0.6201,-0.061,0.000,-0.244,156.693,-47.856,-65.671
9087,0.7490,0.2632,-0.6211,0.061,0.244,-0.183,156.693,-47.862,-65.671
9097,0.7490,0.2632,-0.6230,0.122,0.427,-0.183,156.693,-47.862,-65.671
9107,0.7495,0.2642,-0.6245,0.183,0.549,-0.122,156.698,-47.867,-65.671
9117,0.7495,0.2632,-0.6250,0.244,0.549,0.000,156.703,-47.873,-65.671
9127,0.7505,0.2642,-0.6270,0.305,0.427,0.061,156.709,-47.878,-65.671
9137,0.7505,0.2656,-0.6255,0.305,0.244,0.183,156.714,-47.878,-65.671
9147,0.7490,0.2671,-0.6245,0.244,0.061,0.244,156.720,-47.878,-65.671
9157,0.7515,0.2686,-0.6260,0.305,-0.122,0.244,156.725,-47.878,-65.671
9167,0.7471,0.2700,-0.6240,0.366,-0.305,0.305,156.731,-47.878,-65.671
9177,0.7441,0.2788,-0.6182,0.488,-0.488,0.366,156.731,-47.873,-65.671
9187,0.7490,0.2788,-0.6172,0.977,-0.671,0.427,156.742,-47.867,-65.671
9197,0.7495,0.2744,-0.6201,1.709,-0.732,0.305,156.758,-47.862,-65.671
9207,0.7529,0.2715,-0.6201,2.014,-0.427,0.061,156.775,-47.862,-65.671
9217,0.7520,0.2671,-0.6226,1.770,0.244,-0.305,156.791,-47.862,-65.671
9227,0.7505,0.2637,-0.6240,0.854,0.854,-0.549,156.791,-47.867,-65.671
9237,0.7480,0.2651,-0.6270,-0.305,1.221,-0.732,156.780,-47.878,-65.671
9247,0.7476,0.2656,-0.6255,-1.099,1.221,-1.099,156.753,-47.884,-65.649
9257,0.7480,0.2651,-0.6289,-1.282,0.977,-1.282,156.725,-47.884,-65.627
9267,0.7510,0.2637,-0.6294,-0.977,0.549,-1.160,156.709,-47.884,-65.605
9277,0.7500,0.2583,-0.6294,-0.427,0.000,-0.916,156.703,-47.878,-65.594
9287,0.7500,0.2563,-0.6279,0.122,-0.427,-0.488,156.714,-47.873,-65.588
9297,0.7500,0.2559,-0.6299,0.366,-0.732,-0.061,156.731,-47.862,-65.594
9307,0.7471,0.2563,-0.6270,0.488,-0.793,0.122,156.753,-47.856,-65.599
9317,0.7456,0.2593,-0.6265,0.366,-0.732,0.244,156.769,-47.851,-65.605
9327,0.7476,0.2617,-0.6255,0.183,-0.549,0.366,156.780,-47.845,-65.616
9337,0.7466,0.2651,-0.6245,0.000,-0.366,0.427,156.791,-47.845,-65.621
9347,0.7480,0.2676,-0.6235,-0.061,-0.244,0.488,156.797,-47.845,-65.632
9357,0.7505,0.2690,-0.6230,0.000,-0.244,0.488,156.797,-47.845,-65.638
9367,0.7510,0.2700,-0.6221,0.122,-0.183,0.488,156.802,-47.845,-65.649
9377,0.7500,0.2734,-0.6230,0.122,-0.244,0.366,156.802,-47.845,-65.654
9387,0.7500,0.2715,-0.6230,0.000,-0.366,0.183,156.802,-47.840,-65.660
9397,0.7485,0.2729,-0.6221,-0.305,-0.427,0.000,156.797,-47.834,-65.660
9407,0.7490,0.2729,-0.6216,-0.488,-0.488,-0.122,156.791,-47.829,-65.660
9417,0.7490,0.2720,-0.6182,-0.488,-0.488,-0.183,156.780,-47.829,-65.660
9427,0.7495,0.2710,-0.6211,-0.366,-0.244,-0.305,156.769,-47.823,-65.660
9437,0.7476,0.2700,-0.6216,-0.183,0.000,-0.427,156.764,-47.823,-65.654
9447,0.7471,0.2666,-0.6177,-0.122,0.244,-0.488,156.753,-47.823,-65.643
9457,0.7471,0.2642,-0.6226,-0.122,0.427,-0.488,156.747,-47.829,-65.638
9467,0.7456,0.2646,-0.6260,-0.305,0.427,-0.488,156.742,-47.829,-65.627
9477,0.7471,0.2637,-0.6245,-0.427,0.427,-0.488,156.736,-47.829,-65.616
9487,0.7476,0.2632,-0.6250,-0.427,0.305,-0.366,156.731,-47.829,-65.610
9498,0.7500,0.2651,-0.6240,-0.305,0.122,-0.244,156.725,-47.829,-65.605
9507,0.7500,0.2651,-0.6265,0.000,0.061,0.183,156.731,-47.834,-65.610
9517,0.7495,0.2642,-0.6260,0.488,0.000,0.488,156.742,-47.834,-65.616
9527,0.7490,0.2627,-0.6284,0.916,0.061,0.671,156.764,-47.834,-65.627
9537,0.7510,0.2651,-0.6323,0.977,-0.061,0.610,156.786,-47.834,-65.632
9547,0.7510,0.2637,-0.6294,0.671,-0.183,0.549,156.802,-47.834,-65.643
9557,0.7500,0.2656,-0.6284,0.061,-0.366,0.366,156.813,-47.834,-65.649
9567,0.7510,0.2671,-0.6270,-0.549,-0.488,0.244,156.813,-47.829,-65.654
9577,0.7490,0.2725,-0.6245,-1.038,-0.671,0.183,156.802,-47.823,-65.660
9587,0.7480,0.2715,-0.6274,-1.038,-0.732,0.122,156.797,-47.813,-65.671
9597,0.7476,0.2715,-0.6265,-0.793,-0.793,0.183,156.791,-47.807,-65.676
9607,0.7480,0.2700,-0.6255,-0.366,-0.793,0.183,156.791,-47.796,-65.682
9617,0.7471,0.2705,-0.6230,0.061,-0.610,0.244,156.791,-47.791,-65.687
9627,0.7456,0.2695,-0.6235,0.366,-0.427,0.305,156.802,-47.791,-65.698
9637,0.7461,0.2715,-0.6235,0.549,-0.122,0.305,156.808,-47.785,-65.698
9647,0.7466,0.2690,-0.6245,0.610,0.244,0.244,156.813,-47.791,-65.704
9657,0.7480,0.2720,-0.6260,0.610,0.549,0.122,156.813,-47.791,-65.704
9667,0.7500,0.2715,-0.6294,0.549,0.793,0.000,156.813,-47.796,-65.698
9677,0.7495,0.2681,-0.6279,0.366,0.732,-0.183,156.813,-47.802,-65.687
9687,0.7490,0.2671,-0.6274,0.122,0.549,-0.305,156.813,-47.807,-65.682
9697,0.7505,0.2656,-0.6294,-0.244,0.183,-0.488,156.808,-47.807,-65.676
9707,0.7520,0.2656,-0.6284,-0.488,-0.183,-0.549,156.797,-47.802,-65.671
9717,0.7529,0.2651,-0.6255,-0.549,-0.488,-0.488,156.791,-47.796,-65.665
9727,0.7505,0.2637,-0.6255,-0.488,-0.671,-0.366,156.791,-47.791,-65.665
9737,0.7480,0.2583,-0.6250,-0.305,-0.732,-0.305,156.797,-47.785,-65.665
9747,0.7471,0.2583,-0.6245,-0.183,-0.671,-0.183,156.802,-47.774,-65.665
9757,0.7437,0.2578,-0.6216,-0.122,-0.488,0.061,156.813,-47.774,-65.671
9767,0.7437,0.2593,-0.6226,-0.183,-0.305,0.183,156.819,-47.774,-65.671
9777,0.7441,0.2627,-0.6221,-0.183,-0.244,0.427,156.824,-47.774,-65.682
9787,0.7437,0.2632,-0.6226,-0.122,-0.122,0.671,156.835,-47.774,-65.693
9797,0.7461,0.2656,-0.6206,0.122,-0.061,0.916,156.841,-47.774,-65.704
9807,0.7476,0.2671,-0.6230,0.488,-0.061,1.038,156.857,-47.780,-65.720
9817,0.7461,0.2705,-0.6250,0.793,0.000,1.038,156.874,-47.785,-65.731
9827,0.7466,0.2710,-0.6265,0.977,0.122,0.916,156.890,-47.785,-65.742
9837,0.7446,0.2725,-0.6260,0.732,0.305,0.671,156.896,-47.791,-65.753
9847,0.7437,0.2725,-0.6270,0.305,0.305,0.488,156.901,-47.791,-65.753
9857,0.7451,0.2715,-0.6255,-0.183,0.366,0.183,156.896,-47.791,-65.759
9867,0.7466,0.2710,-0.6284,-0.549,0.366,0.000,156.885,-47.791,-65.753
9877,0.7480,0.2715,-0.6279,-0.610,0.305,-0.122,156.874,-47.791,-65.753
9887,0.7476,0.2695,-0.6250,-0.488,0.183,-0.061,156.868,-47.791,-65.748
9897,0.7485,0.2695,-0.6270,-0.183,0.122,-0.122,156.863,-47.791,-65.748
9907,0.7485,0.2666,-0.6250,0.061,0.061,-0.061,156.863,-47.791,-65.748
9917,0.7476,0.2646,-0.6245,0.183,0.061,-0.122,156.863,-47.791,-65.742
9927,0.7485,0.2607,-0.6270,0.061,0.061,-0.244,156.868,-47.791,-65.737
9937,0.7505,0.2598,-0.6270,-0.183,0.122,-0.305,156.868,-47.791,-65.737
9947,0.7490,0.2598,-0.6250,-0.488,0.122,-0.305,156.863,-47.791,-65.731
9957,0.7480,0.2603,-0.6235,-0.671,0.122,-0.183,156.863,-47.796,-65.726
9967,0.7461,0.2598,-0.6245,-0.610,0.061,0.000,156.863,-47.796,-65.726
9977,0.7461,0.2632,-0.6255,-0.305,0.000,0.244,156.863,-47.796,-65.731
9987,0.7471,0.2632,-0.6265,0.122,0.061,0.488,156.874,-47.796,-65.737
9998,0.7471,0.2632,-0.6250,0.488,0.122,0.671,156.885,-47.802,-65.742
10007,0.7461,0.2632,-0.6270,0.732,0.183,0.793,156.907,-47.807,-65.753
10017,0.7461,0.2642,-0.6274,0.610,0.122,0.732,156.918,-47.807,-65.764
10027,0.7490,0.2666,-0.6284,0.366,0.061,0.610,156.929,-47.807,-65.770
10037,0.7505,0.2700,-0.6279,0.000,0.000,0.427,156.934,-47.807,-65.775
10047,0.7500,0.2710,-0.6294,-0.305,-0.061,0.305,156.929,-47.807,-65.781
10057,0.7476,0.2715,-0.6284,-0.427,-0.061,0.244,156.923,-47.807,-65.786
10067,0.7476,0.2720,-0.6265,-0.366,-0.183,0.122,156.918,-47.802,-65.786
10077,0.7480,0.2729,-0.6250,-0.366,-0.244,0.122,156.912,-47.796,-65.792
10087,0.7461,0.2710,-0.6260,-0.244,-0.244,0.000,156.907,-47.796,-65.792
10097,0.7456,0.2671,-0.6250,-0.183,-0.244,-0.061,156.907,-47.791,-65.792
10107,0.7456,0.2646,-0.6230,-0.183,-0.061,-0.122,156.907,-47.791,-65.792
10117,0.7466,0.2646,-0.6270,-0.183,0.122,-0.183,156.901,-47.791,-65.786
10127,0.7461,0.2656,-0.6265,-0.244,0.305,-0.183,156.901,-47.791,-65.786
10137,0.7471,0.2646,-0.6250,-0.366,0.427,-0.183,156.890,-47.791,-65.781
10147,0.7456,0.2632,-0.6260,-0.366,0.427,-0.183,156.890,-47.796,-65.775
10157,0.7456,0.2622,-0.6279,-0.366,0.366,-0.122,156.885,-47.796,-65.770
10167,0.7461,0.2642,-0.6284,-0.366,0.244,0.000,156.885,-47.796,-65.770
10177,0.7476,0.2632,-0.6289,-0.244,0.122,0.183,156.890,-47.796,-65.770
10187,0.7461,0.2632,-0.6265,-0.122,0.061,0.366,156.896,-47.796,-65.775
10197,0.7480,0.2646,-0.6270,0.000,0.061,0.427,156.901,-47.796,-65.781
10207,0.7476,0.2656,-0.6260,0.183,0.000,0.549,156.907,-47.802,-65.786
10217,0.7490,0.2656,-0.6294,0.305,0.000,0.549,156.918,-47.802,-65.797
10227,0.7485,0.2646,-0.6284,0.244,0.061,0.488,156.929,-47.802,-65.803
10237,0.7466,0.2676,-0.6265,0.000,0.061,0.366,156.929,-47.802,-65.808
10247,0.7471,0.2666,-0.6255,-0.244,0.000,0.244,156.929,-47.802,-65.808
10257,0.7480,0.2671,-0.6235,-0.488,-0.061,0.122,156.929,-47.802,-65.814
10267,0.7476,0.2686,-0.6235,-0.549,-0.061,0.061,156.918,-47.802,-65.814
10277,0.7461,0.2676,-0.6211,-0.549,-0.061,0.061,156.912,-47.802,-65.814
10287,0.7466,0.2661,-0.6226,-0.427,0.000,0.122,156.907,-47.802,-65.819
10297,0.7476,0.2666,-0.6255,-0.305,0.000,0.183,156.907,-47.802,-65.819
10307,0.7466,0.2661,-0.6245,-0.122,0.061,0.244,156.907,-47.802,-65.825
10317,0.7471,0.2661,-0.6226,0.000,0.183,0.244,156.912,-47.807,-65.825
10327,0.7480,0.2656,-0.6270,0.061,0.366,0.244,156.912,-47.807,-65.825
10337,0.7485,0.2642,-0.6260,0.061,0.549,0.183,156.912,-47.813,-65.825
10347,0.7485,0.2646,-0.6284,-0.122,0.549,0.122,156.918,-47.818,-65.825
10357,0.7446,0.2651,-0.6274,-0.244,0.366,0.122,156.912,-47.818,-65.825
10367,0.7456,0.2651,-0.6260,-0.427,0.122,0.122,156.912,-47.818,-65.825
10377,0.7456,0.2656,-0.6245,-0.488,-0.061,0.122,156.907,-47.818,-65.825
10387,0.7480,0.2661,-0.6221,-0.427,-0.122,0.122,156.907,-47.818,-65.830
10397,0.7476,0.2666,-0.6260,-0.305,-0.122,0.305,156.907,-47.818,-65.836
10407,0.7480,0.2681,-0.6230,-0.122,0.000,0.427,156.907,-47.818,-65.841
10417,0.7505,0.2686,-0.6230,0.305,0.244,0.610,156.912,-47.823,-65.847
10427,0.7510,0.2676,-0.6235,0.610,0.488,0.610,156.923,-47.829,-65.852
10437,0.7510,0.2661,-0.6270,0.671,0.671,0.488,156.934,-47.840,-65.852
10447,0.7510,0.2671,-0.6284,0.366,0.610,0.305,156.934,-47.845,-65.858
10457,0.7490,0.2646,-0.6304,-0.183,0.366,0.122,156.934,-47.845,-65.852
10467,0.7495,0.2671,-0.6279,-0.793,0.061,-0.061,156.929,-47.845,-65.852
10477,0.7490,0.2671,-0.6265,-1.221,-0.183,-0.122,156.918,-47.840,-65.852
10487,0.7490,0.2656,-0.6265,-1.282,-0.305,-0.061,156.907,-47.840,-65.852
10498,0.7480,0.2656,-0.6255,-0.916,-0.427,0.122,156.901,-47.834,-65.858
10507,0.7456,0.2661,-0.6240,-0.305,-0.427,0.061,156.901,-47.829,-65.863
10517,0.7480,0.2646,-0.6230,0.183,-0.183,0.183,156.907,-47.829,-65.863
10527,0.7456,0.2642,-0.6260,0.488,0.122,0.244,156.912,-47.829,-65.869
10537,0.7456,0.2651,-0.6274,0.549,0.427,0.244,156.923,-47.834,-65.869
10547,0.7476,0.2681,-0.6309,0.488,0.671,0.183,156.923,-47.834,-65.869
10557,0.7510,0.2666,-0.6299,0.366,0.793,0.122,156.929,-47.840,-65.863
10567,0.7534,0.2686,-0.6313,0.244,0.732,0.122,156.929,-47.845,-65.863
10577,0.7534,0.2700,-0.6323,0.183,0.427,0.000,156.929,-47.851,-65.858
10587,0.7544,0.2705,-0.6309,0.061,0.061,-0.122,156.923,-47.845,-65.858
10597,0.7539,0.2700,-0.6309,-0.122,-0.366,-0.183,156.923,-47.840,-65.858
10607,0.7534,0.2666,-0.6289,-0.305,-0.854,-0.244,156.923,-47.834,-65.858
10617,0.7515,0.2661,-0.6265,-0.427,-1.282,-0.427,156.918,-47.818,-65.858
10627,0.7505,0.2646,-0.6260,-0.549,-1.465,-0.488,156.918,-47.807,-65.863
10637,0.7476,0.2627,-0.6216,-0.671,-1.465,-0.549,156.912,-47.791,-65.863
10647,0.7446,0.2617,-0.6177,-0.671,-1.282,-0.549,156.907,-47.780,-65.863
10657,0.7417,0.2607,-0.6162,-0.671,-0.916,-0.427,156.901,-47.774,-65.863
10667,0.7412,0.2617,-0.6138,-0.488,-0.427,-0.244,156.896,-47.769,-65.863
10677,0.7412,0.2632,-0.6143,-0.244,0.183,0.000,156.890,-47.774,-65.858
10687,0.7422,0.2637,-0.6147,0.122,0.671,0.244,156.890,-47.780,-65.858
10697,0.7437,0.2637,-0.6196,0.488,1.038,0.488,156.896,-47.796,-65.858
10707,0.7456,0.2686,-0.6240,0.732,1.282,0.610,156.907,-47.807,-65.863
10717,0.7485,0.2681,-0.6260,0.916,1.404,0.671,156.912,-47.823,-65.863
10727,0.7485,0.2676,-0.6304,0.977,1.282,0.610,156.923,-47.834,-65.863
10737,0.7490,0.2676,-0.6333,0.793,1.221,0.427,156.934,-47.840,-65.863
10747,0.7510,0.2676,-0.6333,0.488,0.977,0.183,156.940,-47.851,-65.858
10757,0.7500,0.2676,-0.6333,0.183,0.488,-0.061,156.940,-47.851,-65.852
10767,0.7500,0.2681,-0.6333,-0.244,0.061,-0.183,156.934,-47.845,-65.852
10777,0.7490,0.2690,-0.6304,-0.488,-0.183,-0.305,156.929,-47.840,-65.847
10787,0.7480,0.2686,-0.6279,-0.610,-0.488,-0.366,156.918,-47.834,-65.847
10797,0.7456,0.2690,-0.6270,-0.610,-0.671,-0.427,156.912,-47.823,-65.847
10807,0.7456,0.2671,-0.6250,-0.488,-0.732,-0.366,156.901,-47.813,-65.841
10817,0.7476,0.2651,-0.6216,-0.366,-0.732,-0.305,156.901,-47.807,-65.841
10827,0.7490,0.2632,-0.6221,-0.244,-0.549,-0.305,156.901,-47.802,-65.841
10837,0.7466,0.2617,-0.6196,-0.061,-0.244,-0.183,156.901,-47.802,-65.841
10847,0.7461,0.2617,-0.6196,0.061,0.122,-0.122,156.901,-47.802,-65.841
10857,0.7451,0.2598,-0.6201,0.000,0.366,0.000,156.901,-47.807,-65.841
10867,0.7471,0.2632,-0.6196,0.000,0.610,0.061,156.901,-47.813,-65.841
10877,0.7480,0.2642,-0.6191,0.061,0.732,0.183,156.901,-47.823,-65.841
10887,0.7480,0.2651,-0.6235,0.183,0.793,0.305,156.901,-47.834,-65.841
10897,0.7476,0.2676,-0.6255,0.305,0.732,0.305,156.907,-47.840,-65.841
10907,0.7495,0.2676,-0.6245,0.366,0.610,0.366,156.907,-47.845,-65.841
10917,0.7515,0.2681,-0.6274,0.244,0.366,0.305,156.912,-47.851,-65.841
10927,0.7520,0.2686,-0.6289,0.122,0.183,0.305,156.912,-47.851,-65.841
10937,0.7510,0.2686,-0.6270,0.000,0.061,0.244,156.918,-47.851,-65.841
10947,0.7510,0.2695,-0.6265,-0.122,0.122,0.122,156.912,-47.851,-65.841
10957,0.7500,0.2690,-0.6265,-0.122,0.122,0.061,156.912,-47.851,-65.841
10967,0.7490,0.2681,-0.6240,-0.183,0.122,-0.061,156.907,-47.851,-65.841
10977,0.7510,0.2681,-0.6240,-0.244,0.122,-0.122,156.901,-47.856,-65.841
10987,0.7495,0.2686,-0.6270,-0.244,0.061,-0.183,156.896,-47.851,-65.841
10998,0.7485,0.2676,-0.6270,-0.244,0.061,-0.244,156.890,-47.851,-65.841
11007,0.7490,0.2671,-0.6255,-0.305,-0.061,-0.305,156.885,-47.845,-65.841
11017,0.7480,0.2646,-0.6235,-0.305,-0.183,-0.427,156.879,-47.845,-65.841
11027,0.7490,0.2617,-0.6260,-0.366,-0.244,-0.427,156.874,-47.840,-65.841
11037,0.7480,0.2656,-0.6226,-0.366,-0.305,-0.366,156.868,-47.834,-65.841
11047,0.7480,0.2651,-0.6216,-0.305,-0.244,-0.183,156.868,-47.834,-65.841
11057,0.7461,0.2637,-0.6206,-0.061,-0.122,-0.122,156.868,-47.834,-65.841
11067,0.7480,0.2637,-0.6221,0.061,0.000,0.000,156.868,-47.834,-65.841
11077,0.7485,0.2642,-0.6206,0.244,0.122,0.061,156.874,-47.840,-65.841
11087,0.7495,0.2661,-0.6206,0.427,0.244,0.183,156.874,-47.840,-65.841
11097,0.7485,0.2666,-0.6201,0.549,0.427,0.244,156.879,-47.845,-65.841
11107,0.7480,0.2690,-0.6250,0.610,0.549,0.244,156.885,-47.851,-65.841
11117,0.7510,0.2676,-0.6279,0.610,0.549,0.183,156.890,-47.856,-65.841
11127,0.7515,0.2676,-0.6265,0.427,0.427,0.061,156.896,-47.862,-65.841
11137,0.7529,0.2681,-0.6289,0.122,0.305,-0.122,156.890,-47.862,-65.841
11147,0.7549,0.2671,-0.6255,-0.244,0.000,-0.244,156.885,-47.862,-65.841
11157,0.7544,0.2666,-0.6260,-0.366,-0.244,-0.305,156.885,-47.862,-65.841
11167,0.7544,0.2676,-0.6270,-0.427,-0.549,-0.305,156.879,-47.856,-65.841
11177,0.7515,0.2656,-0.6255,-0.305,-0.671,-0.305,156.874,-47.851,-65.841
11187,0.7500,0.2656,-0.6216,-0.183,-0.732,-0.244,156.874,-47.840,-65.841
11197,0.7461,0.2637,-0.6191,-0.061,-0.732,-0.183,156.874,-47.834,-65.841
11207,0.7432,0.2627,-0.6206,-0.061,-0.610,-0.183,156.879,-47.829,-65.841
11217,0.7451,0.2622,-0.6206,-0.122,-0.488,-0.183,156.879,-47.823,-65.841
11227,0.7476,0.2642,-0.6211,-0.061,-0.305,-0.061,156.879,-47.823,-65.841
11237,0.7490,0.2651,-0.6211,0.183,-0.061,0.061,156.879,-47.823,-65.841
11247,0.7485,0.2666,-0.6250,0.427,0.244,0.183,156.885,-47.829,-65.841
11257,0.7495,0.2656,-0.6260,0.671,0.427,0.305,156.896,-47.829,-65.841
11267,0.7510,0.2642,-0.6289,0.732,0.427,0.305,156.907,-47.834,-65.841
11277,0.7534,0.2671,-0.6289,0.610,0.244,0.061,156.912,-47.840,-65.841
11287,0.7515,0.2646,-0.6279,0.183,-0.061,-0.122,156.918,-47.834,-65.841
11297,0.7515,0.2666,-0.6260,-0.366,-0.427,-0.305,156.912,-47.834,-65.841
11307,0.7495,0.2676,-0.6260,-0.793,-0.732,-0.427,156.901,-47.823,-65.841
11317,0.7485,0.2671,-0.6270,-0.977,-0.854,-0.488,156.890,-47.813,-65.841
11327,0.7476,0.2681,-0.6245,-0.916,-0.916,-0.427,156.879,-47.802,-65.841
11337,0.7461,0.2671,-0.6235,-0.671,-0.793,-0.305,156.874,-47.791,-65.841
11347,0.7466,0.2676,-0.6240,-0.183,-0.610,-0.183,156.874,-47.785,-65.841
11357,0.7446,0.2661,-0.6245,0.244,-0.366,0.000,156.879,-47.780,-65.841
11367,0.7456,0.2651,-0.6245,0.610,-0.122,0.061,156.885,-47.780,-65.841
11377,0.7476,0.2646,-0.6284,0.732,0.061,0.061,156.896,-47.780,-65.841
11387,0.7485,0.2651,-0.6294,0.671,0.183,0.000,156.907,-47.780,-65.841
11397,0.7500,0.2681,-0.6274,0.488,0.122,-0.061,156.907,-47.780,-65.841
11407,0.7539,0.2690,-0.6274,0.183,0.000,-0.061,156.907,-47.780,-65.841
11417,0.7529,0.2686,-0.6270,0.061,-0.244,-0.122,156.907,-47.780,-65.841
11427,0.7520,0.2705,-0.6265,-0.061,-0.610,-0.244,156.901,-47.769,-65.841
11437,0.7520,0.2695,-0.6235,-0.061,-0.916,-0.427,156.901,-47.763,-65.841
11447,0.7505,0.2681,-0.6230,-0.122,-1.038,-0.549,156.896,-47.752,-65.841
11457,0.7495,0.2651,-0.6216,-0.183,-1.160,-0.610,156.890,-47.741,-65.841
11467,0.7466,0.2646,-0.6177,-0.366,-1.099,-0.671,156.885,-47.730,-65.841
11477,0.7446,0.2632,-0.6182,-0.488,-0.977,-0.671,156.879,-47.725,-65.841
11487,0.7432,0.2627,-0.6196,-0.488,-0.732,-0.549,156.874,-47.714,-65.841
11498,0.7437,0.2617,-0.6187,-0.366,-0.366,-0.427,156.868,-47.714,-65.841
11507,0.7441,0.2627,-0.6191,-0.061,-0.061,-0.183,156.868,-47.714,-65.841
11517,0.7437,0.2637,-0.6196,0.244,0.244,0.122,156.874,-47.719,-65.841
11527,0.7456,0.2642,-0.6235,0.488,0.549,0.366,156.879,-47.725,-65.841
11537,0.7466,0.2642,-0.6260,0.671,0.671,0.488,156.890,-47.730,-65.841
11547,0.7471,0.2656,-0.6284,0.793,0.610,0.488,156.901,-47.736,-65.841
11557,0.7485,0.2656,-0.6309,0.854,0.488,0.488,156.918,-47.741,-65.841
11567,0.7500,0.2656,-0.6323,0.610,0.305,0.366,156.929,-47.747,-65.841
11577,0.7490,0.2666,-0.6313,0.305,0.000,0.183,156.934,-47.741,-65.841
11587,0.7480,0.2671,-0.6309,-0.061,-0.244,0.122,156.940,-47.741,-65.841
11597,0.7461,0.2666,-0.6279,-0.366,-0.549,0.000,156.934,-47.730,-65.841
11607,0.7471,0.2690,-0.6284,-0.549,-0.671,-0.061,156.934,-47.725,-65.841
11617,0.7446,0.2690,-0.6255,-0.549,-0.793,-0.122,156.929,-47.714,-65.841
11627,0.7451,0.2681,-0.6245,-0.427,-0.793,-0.122,156.923,-47.708,-65.841
11637,0.7461,0.2671,-0.6221,-0.305,-0.671,-0.122,156.918,-47.703,-65.841
11647,0.7446,0.2651,-0.6206,-0.244,-0.549,-0.061,156.918,-47.697,-65.841
11657,0.7476,0.2661,-0.6201,-0.061,-0.305,-0.061,156.918,-47.697,-65.841
11667,0.7480,0.2661,-0.6177,0.122,0.000,-0.061,156.918,-47.697,-65.841
11677,0.7480,0.2642,-0.6206,0.305,0.305,-0.061,156.918,-47.703,-65.841
11687,0.7495,0.2656,-0.6230,0.366,0.610,-0.122,156.918,-47.714,-65.841
11697,0.7485,0.2632,-0.6274,0.305,0.732,-0.122,156.918,-47.719,-65.841
11707,0.7495,0.2607,-0.6279,0.061,0.732,-0.122,156.923,-47.725,-65.841
11717,0.7490,0.2622,-0.6284,-0.061,0.610,-0.183,156.918,-47.730,-65.841
11727,0.7500,0.2642,-0.6294,-0.122,0.427,-0.183,156.918,-47.736,-65.841
11737,0.7485,0.2671,-0.6299,-0.061,0.122,-0.061,156.918,-47.736,-65.841
11747,0.7510,0.2656,-0.6294,0.000,-0.122,0.000,156.918,-47.730,-65.841
11757,0.7500,0.2651,-0.6284,0.183,-0.427,0.061,156.929,-47.730,-65.841
11767,0.7505,0.2661,-0.6250,0.244,-0.488,0.122,156.934,-47.725,-65.841
11777,0.7480,0.2646,-0.6274,0.244,-0.549,0.183,156.940,-47.719,-65.841
11787,0.7471,0.2637,-0.6250,0.122,-0.549,0.061,156.945,-47.719,-65.841
11797,0.7461,0.2642,-0.6265,-0.061,-0.488,0.000,156.951,-47.714,-65.841
11807,0.7471,0.2656,-0.6255,-0.305,-0.488,0.000,156.951,-47.708,-65.841
11817,0.7480,0.2681,-0.6245,-0.427,-0.549,0.000,156.945,-47.703,-65.841
11827,0.7495,0.2686,-0.6226,-0.366,-0.488,0.000,156.940,-47.703,-65.841
11837,0.7476,0.2690,-0.6240,-0.183,-0.427,0.000,156.940,-47.697,-65.841
11847,0.7476,0.2690,-0.6216,0.061,-0.427,0.000,156.940,-47.697,-65.841
11857,0.7495,0.2686,-0.6260,0.244,-0.366,0.000,156.940,-47.692,-65.841
11867,0.7490,0.2666,-0.6265,0.244,-0.305,-0.122,156.940,-47.686,-65.841
11877,0.7480,0.2671,-0.6260,0.183,-0.244,-0.183,156.945,-47.686,-65.841
11887,0.7466,0.2666,-0.6260,0.000,-0.122,-0.305,156.940,-47.686,-65.841
11897,0.7480,0.2661,-0.6235,-0.183,0.000,-0.427,156.934,-47.681,-65.841
11907,0.7480,0.2676,-0.6255,-0.366,0.061,-0.427,156.923,-47.681,-65.841
11917,0.7495,0.2681,-0.6255,-0.366,0.061,-0.366,156.918,-47.681,-65.841
11927,0.7461,0.2676,-0.6260,-0.183,-0.122,-0.305,156.912,-47.681,-65.841
11937,0.7466,0.2656,-0.6255,0.061,-0.122,-0.244,156.912,-47.681,-65.841
11947,0.7485,0.2656,-0.6270,0.244,-0.122,-0.061,156.912,-47.675,-65.841
11957,0.7490,0.2661,-0.6260,0.305,-0.122,0.000,156.918,-47.675,-65.841
11967,0.7476,0.2651,-0.6279,0.305,-0.122,0.061,156.923,-47.675,-65.841
11977,0.7490,0.2656,-0.6294,0.183,-0.122,0.061,156.929,-47.675,-65.841
11987,0.7485,0.2661,-0.6294,0.061,-0.183,0.000,156.934,-47.675,-65.841
11997,0.7485,0.2651,-0.6299,0.000,-0.244,-0.061,156.934,-47.670,-65.841
12007,0.7485,0.2681,-0.6284,-0.061,-0.305,-0.061,156.934,-47.664,-65.841
12017,0.7476,0.2671,-0.6255,-0.061,-0.366,-0.122,156.934,-47.664,-65.841
12027,0.7456,0.2661,-0.6274,0.000,-0.488,-0.122,156.934,-47.659,-65.841
12037,0.7437,0.2671,-0.6265,0.000,-0.549,-0.183,156.934,-47.648,-65.841
12047,0.7446,0.2686,-0.6240,0.061,-0.488,-0.183,156.934,-47.642,-65.841
12057,0.7446,0.2661,-0.6255,0.061,-0.488,-0.183,156.934,-47.642,-65.841
12067,0.7466,0.2666,-0.6230,0.061,-0.305,-0.244,156.934,-47.637,-65.841
12077,0.7466,0.2686,-0.6245,0.122,-0.183,-0.122,156.934,-47.637,-65.841
12087,0.7485,0.2690,-0.6274,0.244,-0.122,-0.061,156.934,-47.637,-65.841
12097,0.7490,0.2690,-0.6279,0.427,-0.122,0.000,156.934,-47.631,-65.841
12107,0.7485,0.2666,-0.6289,0.488,-0.183,0.000,156.945,-47.631,-65.841
12117,0.7466,0.2642,-0.6289,0.305,-0.305,-0.122,156.951,-47.626,-65.841
12127,0.7471,0.2627,-0.6270,0.000,-0.488,-0.183,156.951,-47.626,-65.841
12137,0.7461,0.2627,-0.6240,-0.427,-0.610,-0.244,156.951,-47.620,-65.841
12147,0.7451,0.2642,-0.6245,-0.671,-0.671,-0.183,156.945,-47.615,-65.841
12157,0.7437,0.2661,-0.6230,-0.671,-0.671,-0.122,156.940,-47.609,-65.841
12167,0.7451,0.2676,-0.6240,-0.427,-0.549,0.000,156.934,-47.604,-65.841
12177,0.7461,0.2656,-0.6250,-0.061,-0.305,0.122,156.940,-47.604,-65.841
12187,0.7466,0.2666,-0.6245,0.427,-0.183,0.244,156.945,-47.604,-65.841
12197,0.7466,0.2676,-0.6250,0.610,-0.061,0.305,156.956,-47.604,-65.841
12207,0.7480,0.2695,-0.6245,0.732,0.000,0.305,156.962,-47.604,-65.841
12217,0.7471,0.2710,-0.6255,0.732,0.000,0.244,156.967,-47.609,-65.841
12227,0.7480,0.2729,-0.6265,0.854,0.061,0.244,156.973,-47.609,-65.841
12237,0.7480,0.2725,-0.6255,1.038,0.061,0.183,156.978,-47.609,-65.841
12247,0.7510,0.2734,-0.6255,1.343,0.061,0.122,156.989,-47.615,-65.841
12257,0.7515,0.2700,-0.6279,1.526,0.122,-0.061,157.000,-47.615,-65.841
12267,0.7520,0.2686,-0.6289,1.282,0.183,-0.183,157.006,-47.615,-65.841
12277,0.7510,0.2661,-0.6304,0.854,0.183,-0.427,157.011,-47.615,-65.841
12287,0.7510,0.2661,-0.6318,0.244,0.122,-0.610,157.011,-47.615,-65.841
12297,0.7490,0.2642,-0.6289,-0.305,-0.183,-0.854,157.000,-47.615,-65.841
12307,0.7490,0.2607,-0.6270,-0.427,-0.366,-0.916,156.995,-47.609,-65.841
12317,0.7466,0.2617,-0.6245,-0.427,-0.549,-0.854,156.984,-47.598,-65.841
12327,0.7441,0.2568,-0.6240,-0.244,-0.732,-0.549,156.989,-47.593,-65.841
12337,0.7441,0.2568,-0.6196,0.000,-0.854,-0.305,156.995,-47.587,-65.841
12347,0.7407,0.2549,-0.6177,0.305,-0.610,0.000,157.006,-47.587,-65.841
12357,0.7417,0.2583,-0.6187,0.549,-0.244,0.305,157.017,-47.587,-65.841
12367,0.7417,0.2612,-0.6187,0.732,0.183,0.488,157.028,-47.593,-65.841
12377,0.7446,0.2627,-0.6245,0.977,0.549,0.610,157.044,-47.604,-65.841
12387,0.7466,0.2646,-0.6279,1.099,0.793,0.671,157.061,-47.615,-65.841
12397,0.7441,0.2642,-0.6304,1.038,0.916,0.610,157.072,-47.620,-65.841
12407,0.7471,0.2661,-0.6338,0.793,0.793,0.488,157.083,-47.631,-65.841
12417,0.7485,0.2666,-0.6377,0.427,0.427,0.244,157.094,-47.631,-65.841
12427,0.7490,0.2681,-0.6343,0.061,0.061,0.122,157.094,-47.631,-65.841
12437,0.7471,0.2690,-0.6333,-0.183,-0.305,0.000,157.094,-47.626,-65.841
12447,0.7480,0.2720,-0.6309,-0.305,-0.488,0.000,157.088,-47.620,-65.841
12457,0.7480,0.2695,-0.6289,-0.305,-0.488,0.000,157.083,-47.615,-65.841
12467,0.7480,0.2686,-0.6270,-0.183,-0.488,0.061,157.083,-47.609,-65.841
12477,0.7461,0.2686,-0.6255,-0.122,-0.427,0.000,157.077,-47.604,-65.841
12487,0.7456,0.2656,-0.6279,0.000,-0.244,-0.061,157.077,-47.604,-65.841
12498,0.7476,0.2666,-0.6260,0.061,-0.061,-0.122,157.077,-47.604,-65.841
12507,0.7480,0.2666,-0.6279,0.061,0.061,-0.305,157.072,-47.604,-65.841
12517,0.7466,0.2642,-0.6255,0.000,0.061,-0.366,157.072,-47.604,-65.841
12527,0.7476,0.2637,-0.6279,-0.061,-0.061,-0.427,157.066,-47.604,-65.841
12537,0.7456,0.2622,-0.6245,-0.183,-0.244,-0.488,157.061,-47.598,-65.841
12547,0.7441,0.2622,-0.6250,-0.244,-0.427,-0.427,157.061,-47.593,-65.841
12557,0.7466,0.2632,-0.6250,-0.183,-0.610,-0.305,157.055,-47.587,-65.841
12567,0.7461,0.2617,-0.6230,0.000,-0.610,-0.122,157.061,-47.587,-65.841
12577,0.7471,0.2637,-0.6221,0.305,-0.549,0.061,157.066,-47.582,-65.841
12587,0.7466,0.2642,-0.6235,0.549,-0.366,0.305,157.077,-47.582,-65.841
12597,0.7476,0.2642,-0.6245,0.732,-0.122,0.488,157.088,-47.587,-65.841
12607,0.7490,0.2661,-0.6274,0.916,0.122,0.427,157.099,-47.593,-65.841
12617,0.7476,0.2681,-0.6274,0.793,0.244,0.244,157.110,-47.593,-65.841
12627,0.7480,0.2661,-0.6279,0.488,0.305,0.061,157.110,-47.598,-65.841
12637,0.7476,0.2671,-0.6265,0.061,0.183,-0.122,157.110,-47.598,-65.841
12647,0.7495,0.2671,-0.6279,-0.183,0.061,-0.244,157.099,-47.598,-65.841
12657,0.7495,0.2666,-0.6289,-0.366,0.000,-0.366,157.094,-47.598,-65.841
12667,0.7490,0.2666,-0.6274,-0.366,-0.122,-0.366,157.088,-47.598,-65.841
12677,0.7471,0.2656,-0.6279,-0.244,-0.183,-0.366,157.083,-47.598,-65.841
12687,0.7441,0.2646,-0.6260,-0.061,-0.183,-0.305,157.077,-47.593,-65.841
12697,0.7456,0.2642,-0.6279,0.122,-0.122,-0.244,157.077,-47.593,-65.841
12707,0.7441,0.2637,-0.6289,0.305,0.061,-0.183,157.083,-47.593,-65.841
12717,0.7456,0.2612,-0.6270,0.244,0.244,-0.244,157.083,-47.593,-65.841
12727,0.7437,0.2593,-0.6294,0.122,0.366,-0.244,157.083,-47.593,-65.841
12737,0.7461,0.2622,-0.6313,-0.122,0.244,-0.183,157.083,-47.593,-65.841
12747,0.7451,0.2632,-0.6313,-0.366,0.061,-0.122,157.083,-47.593,-65.841
12757,0.7476,0.2646,-0.6289,-0.366,-0.183,0.061,157.083,-47.593,-65.841
12767,0.7471,0.2651,-0.6279,-0.244,-0.427,0.122,157.083,-47.587,-65.841
12777,0.7466,0.2666,-0.6279,0.000,-0.610,0.183,157.083,-47.587,-65.841
12787,0.7466,0.2666,-0.6250,0.244,-0.610,0.183,157.088,-47.582,-65.841
12797,0.7471,0.2666,-0.6245,0.305,-0.549,0.183,157.094,-47.576,-65.841
12807,0.7471,0.2646,-0.6265,0.183,-0.427,0.183,157.099,-47.576,-65.841
12817,0.7446,0.2671,-0.6270,-0.061,-0.183,0.061,157.099,-47.576,-65.841
12827,0.7471,0.2676,-0.6279,-0.244,0.061,-0.061,157.094,-47.576,-65.841
12837,0.7476,0.2656,-0.6270,-0.366,0.122,-0.183,157.088,-47.576,-65.841
12847,0.7476,0.2651,-0.6284,-0.366,0.244,-0.244,157.083,-47.576,-65.841
12857,0.7480,0.2671,-0.6299,-0.244,0.244,-0.244,157.072,-47.582,-65.841
12867,0.7466,0.2642,-0.6274,-0.122,0.122,-0.244,157.072,-47.582,-65.841
12877,0.7451,0.2642,-0.6260,0.000,0.000,-0.183,157.072,-47.582,-65.841
12887,0.7461,0.2646,-0.6274,0.061,0.000,-0.122,157.072,-47.582,-65.841
12897,0.7471,0.2632,-0.6270,0.000,-0.061,-0.122,157.072,-47.582,-65.841
12907,0.7466,0.2627,-0.6260,-0.061,-0.061,-0.122,157.072,-47.582,-65.841
12917,0.7480,0.2627,-0.6274,-0.061,-0.061,0.061,157.072,-47.582,-65.841
12927,0.7466,0.2681,-0.6284,0.061,0.061,0.244,157.072,-47.582,-65.841
12937,0.7490,0.2671,-0.6284,0.366,0.183,0.305,157.077,-47.587,-65.841
12947,0.7495,0.2646,-0.6284,0.671,0.183,0.366,157.088,-47.593,-65.841
12957,0.7505,0.2646,-0.6284,0.732,0.122,0.244,157.099,-47.598,-65.841
12967,0.7495,0.2627,-0.6284,0.366,-0.122,0.061,157.104,-47.598,-65.841
12977,0.7480,0.2642,-0.6294,-0.244,-0.427,-0.183,157.104,-47.593,-65.841
12987,0.7466,0.2656,-0.6265,-0.854,-0.610,-0.366,157.094,-47.587,-65.841
12998,0.7476,0.2646,-0.6255,-1.221,-0.732,-0.366,157.083,-47.582,-65.841
13007,0.7441,0.2661,-0.6245,-0.854,-0.610,-0.122,157.072,-47.576,-65.841
13017,0.7451,0.2671,-0.6240,-0.183,-0.488,0.061,157.072,-47.571,-65.841
13027,0.7446,0.2671,-0.6245,0.305,-0.244,0.305,157.077,-47.571,-65.841
13037,0.7461,0.2671,-0.6265,0.671,0.000,0.305,157.083,-47.571,-65.841
13047,0.7461,0.2686,-0.6284,0.793,0.244,0.244,157.088,-47.576,-65.841
13057,0.7500,0.2686,-0.6284,0.671,0.427,0.122,157.094,-47.582,-65.841
13067,0.7500,0.2695,-0.6299,0.549,0.549,0.000,157.094,-47.587,-65.841
13077,0.7515,0.2695,-0.6304,0.305,0.549,-0.122,157.094,-47.593,-65.841
13087,0.7515,0.2695,-0.6318,0.061,0.427,-0.305,157.088,-47.593,-65.841
13097,0.7515,0.2686,-0.6353,-0.122,0.183,-0.427,157.077,-47.593,-65.841
13107,0.7510,0.2700,-0.6333,-0.183,-0.122,-0.488,157.072,-47.587,-65.841
13117,0.7524,0.2671,-0.6294,-0.244,-0.488,-0.488,157.066,-47.582,-65.841
13127,0.7490,0.2637,-0.6274,-0.244,-0.793,-0.549,157.061,-47.576,-65.841
13137,0.7490,0.2607,-0.6270,-0.366,-0.977,-0.610,157.061,-47.565,-65.841
13147,0.7471,0.2588,-0.6274,-0.549,-1.099,-0.610,157.061,-47.554,-65.841
13157,0.7451,0.2583,-0.6260,-0.671,-1.099,-0.549,157.055,-47.543,-65.841
13167,0.7441,0.2603,-0.6250,-0.610,-1.038,-0.366,157.055,-47.538,-65.841
13177,0.7427,0.2607,-0.6235,-0.427,-0.916,-0.061,157.055,-47.527,-65.841
13187,0.7432,0.2627,-0.6201,-0.061,-0.610,0.183,157.061,-47.527,-65.841
13197,0.7412,0.2632,-0.6221,0.305,-0.488,0.488,157.072,-47.527,-65.841
13207,0.7427,0.2661,-0.6216,0.549,-0.305,0.671,157.083,-47.527,-65.841
13217,0.7441,0.2656,-0.6216,0.671,-0.061,0.793,157.094,-47.532,-65.841
13227,0.7451,0.2686,-0.6216,0.671,0.122,0.793,157.104,-47.538,-65.841
13237,0.7466,0.2695,-0.6240,0.610,0.305,0.671,157.110,-47.549,-65.841
13247,0.7466,0.2715,-0.6255,0.549,0.427,0.488,157.110,-47.554,-65.841
13257,0.7461,0.2725,-0.6294,0.366,0.488,0.244,157.110,-47.560,-65.841
13267,0.7471,0.2710,-0.6328,0.122,0.427,0.061,157.110,-47.560,-65.841
13277,0.7490,0.2715,-0.6294,-0.183,0.183,-0.122,157.099,-47.560,-65.841
13287,0.7485,0.2700,-0.6299,-0.427,-0.061,-0.305,157.088,-47.560,-65.841
13297,0.7471,0.2695,-0.6304,-0.488,-0.183,-0.366,157.077,-47.554,-65.841
13307,0.7480,0.2666,-0.6318,-0.305,-0.305,-0.427,157.072,-47.549,-65.841
13317,0.7471,0.2651,-0.6294,-0.183,-0.366,-0.427,157.072,-47.543,-65.841
13327,0.7471,0.2627,-0.6289,-0.061,-0.366,-0.427,157.072,-47.543,-65.841
13337,0.7466,0.2612,-0.6294,0.000,-0.366,-0.427,157.072,-47.538,-65.841
13347,0.7466,0.2607,-0.6274,-0.061,-0.305,-0.366,157.072,-47.532,-65.841
13357,0.7471,0.2593,-0.6265,-0.122,-0.244,-0.305,157.072,-47.532,-65.841
13367,0.7437,0.2583,-0.6255,-0.183,-0.183,-0.244,157.072,-47.532,-65.841
13377,0.7461,0.2573,-0.6270,-0.061,-0.122,-0.061,157.077,-47.532,-65.841
13387,0.7466,0.2603,-0.6260,0.000,-0.061,0.122,157.083,-47.538,-65.841
13397,0.7471,0.2622,-0.6284,0.183,0.000,0.244,157.094,-47.538,-65.841
13407,0.7466,0.2617,-0.6299,0.366,0.061,0.366,157.099,-47.538,-65.841
13417,0.7476,0.2642,-0.6284,0.488,0.000,0.427,157.110,-47.543,-65.841
13427,0.7485,0.2637,-0.6289,0.488,-0.061,0.366,157.121,-47.543,-65.841
13437,0.7490,0.2642,-0.6304,0.305,-0.183,0.305,157.132,-47.543,-65.841
13447,0.7495,0.2671,-0.6294,0.122,-0.244,0.183,157.132,-47.543,-65.841
13457,0.7505,0.2690,-0.6289,-0.061,-0.305,0.122,157.132,-47.543,-65.841
13467,0.7480,0.2686,-0.6279,-0.183,-0.305,0.000,157.126,-47.543,-65.841
13477,0.7476,0.2676,-0.6270,-0.244,-0.366,-0.122,157.121,-47.538,-65.841
13487,0.7461,0.2676,-0.6260,-0.183,-0.366,-0.183,157.121,-47.538,-65.841
13498,0.7480,0.2656,-0.6260,-0.122,-0.305,-0.244,157.115,-47.532,-65.841
13507,0.7451,0.2656,-0.6250,-0.122,-0.061,-0.305,157.110,-47.532,-65.841
13517,0.7446,0.2646,-0.6270,-0.122,-0.061,-0.366,157.104,-47.532,-65.841
13527,0.7446,0.2642,-0.6270,-0.183,-0.061,-0.488,157.099,-47.532,-65.841
13537,0.7446,0.2632,-0.6270,-0.244,0.000,-0.488,157.094,-47.532,-65.841
13547,0.7476,0.2637,-0.6250,-0.366,0.061,-0.427,157.088,-47.532,-65.841
13557,0.7471,0.2622,-0.6230,-0.366,0.061,-0.366,157.077,-47.532,-65.841
13567,0.7456,0.2627,-0.6226,-0.183,0.061,-0.244,157.077,-47.538,-65.841
13577,0.7456,0.2632,-0.6274,0.061,0.183,-0.061,157.077,-47.538,-65.841
13587,0.7466,0.2642,-0.6255,0.244,0.244,0.061,157.077,-47.543,-65.841
13597,0.7446,0.2617,-0.6265,0.427,0.366,0.122,157.083,-47.549,-65.841
13607,0.7441,0.2622,-0.6284,0.427,0.488,0.183,157.088,-47.554,-65.841
13617,0.7451,0.2632,-0.6304,0.427,0.549,0.183,157.099,-47.560,-65.841
13627,0.7476,0.2627,-0.6333,0.244,0.549,0.061,157.099,-47.565,-65.841
13637,0.7500,0.2627,-0.6323,0.000,0.488,-0.061,157.104,-47.565,-65.841
13647,0.7476,0.2637,-0.6313,-0.244,0.305,-0.061,157.099,-47.571,-65.841
13657,0.7476,0.2656,-0.6304,-0.366,0.122,-0.061,157.094,-47.571,-65.841
13667,0.7471,0.2651,-0.6318,-0.305,-0.183,0.061,157.094,-47.571,-65.841
13677,0.7490,0.2656,-0.6309,-0.183,-0.427,0.061,157.099,-47.565,-65.841
13687,0.7485,0.2671,-0.6255,0.000,-0.549,0.061,157.099,-47.560,-65.841
13697,0.7456,0.2671,-0.6284,0.122,-0.488,0.061,157.099,-47.560,-65.841
13707,0.7427,0.2646,-0.6299,0.061,-0.366,0.061,157.104,-47.554,-65.841
13717,0.7422,0.2646,-0.6289,-0.061,-0.183,0.000,157.104,-47.549,-65.841
13727,0.7456,0.2651,-0.6279,-0.244,0.061,-0.061,157.099,-47.549,-65.841
13737,0.7441,0.2637,-0.6284,-0.305,0.183,-0.183,157.099,-47.549,-65.841
13747,0.7446,0.2646,-0.6255,-0.366,0.183,-0.183,157.088,-47.554,-65.841
13757,0.7461,0.2622,-0.6245,-0.366,0.061,-0.061,157.088,-47.554,-65.841
13767,0.7476,0.2642,-0.6260,-0.183,0.061,0.061,157.088,-47.560,-65.841
13777,0.7500,0.2651,-0.6284,0.061,0.122,0.183,157.088,-47.560,-65.841
13787,0.7485,0.2637,-0.6294,0.244,0.183,0.244,157.094,-47.565,-65.841
13797,0.7476,0.2627,-0.6289,0.305,0.122,0.305,157.104,-47.571,-65.841
13807,0.7485,0.2617,-0.6260,0.061,0.122,0.244,157.104,-47.571,-65.841
13817,0.7466,0.2612,-0.6279,-0.366,0.122,0.122,157.104,-47.576,-65.841
13827,0.7466,0.2617,-0.6274,-0.854,0.061,0.000,157.099,-47.576,-65.841
13837,0.7456,0.2642,-0.6289,-1.099,0.061,0.000,157.094,-47.576,-65.841
13847,0.7471,0.2666,-0.6289,-1.038,0.122,0.000,157.077,-47.582,-65.841
13857,0.7441,0.2671,-0.6304,-0.732,0.183,0.061,157.072,-47.582,-65.841
13867,0.7441,0.2646,-0.6270,-0.366,0.183,0.122,157.066,-47.582,-65.841
13877,0.7437,0.2637,-0.6274,-0.122,0.183,0.183,157.072,-47.582,-65.841
13887,0.7437,0.2646,-0.6279,0.061,0.183,0.244,157.072,-47.587,-65.841
13897,0.7461,0.2671,-0.6299,0.122,0.305,0.305,157.077,-47.587,-65.841
13907,0.7485,0.2681,-0.6318,0.244,0.427,0.366,157.077,-47.593,-65.841
13917,0.7500,0.2720,-0.6309,0.366,0.549,0.366,157.083,-47.598,-65.841
13927,0.7510,0.2720,-0.6309,0.427,0.549,0.305,157.083,-47.604,-65.841
13937,0.7505,0.2720,-0.6309,0.427,0.488,0.183,157.083,-47.609,-65.841
13947,0.7480,0.2710,-0.6323,0.305,0.244,-0.061,157.077,-47.609,-65.841
13957,0.7495,0.2695,-0.6309,-0.061,-0.061,-0.366,157.072,-47.604,-65.841
13967,0.7480,0.2681,-0.6274,-0.427,-0.488,-0.671,157.061,-47.598,-65.841
13977,0.7466,0.2681,-0.6250,-0.793,-0.793,-0.854,157.044,-47.587,-65.841
13987,0.7471,0.2651,-0.6196,-1.038,-0.977,-0.977,157.028,-47.582,-65.841
13997,0.7441,0.2622,-0.6162,-1.099,-0.854,-0.977,157.011,-47.576,-65.841
14007,0.7432,0.2622,-0.6152,-0.916,-0.671,-0.854,156.995,-47.571,-65.841
14017,0.7422,0.2598,-0.6147,-0.549,-0.305,-0.549,156.984,-47.571,-65.841
14027,0.7402,0.2612,-0.6143,-0.122,0.122,-0.183,156.984,-47.571,-65.841
14037,0.7397,0.2632,-0.6182,0.305,0.671,0.122,156.984,-47.582,-65.841
14047,0.7427,0.2627,-0.6157,0.671,1.099,0.427,156.989,-47.598,-65.841
14057,0.7456,0.2656,-0.6216,0.977,1.648,0.610,156.995,-47.615,-65.841
14067,0.7466,0.2651,-0.6260,1.099,2.014,0.671,157.006,-47.637,-65.841
14077,0.7466,0.2661,-0.6313,1.099,2.319,0.549,157.011,-47.659,-65.841
14087,0.7495,0.2642,-0.6362,0.793,2.258,0.427,157.022,-47.681,-65.841
14097,0.7515,0.2666,-0.6387,0.427,1.953,0.244,157.022,-47.697,-65.841
14107,0.7505,0.2666,-0.6382,0.061,1.404,0.000,157.022,-47.703,-65.841
14117,0.7485,0.2686,-0.6372,-0.244,0.854,-0.061,157.017,-47.708,-65.841
14127,0.7500,0.2676,-0.6353,-0.366,0.305,-0.122,157.011,-47.708,-65.841
14137,0.7480,0.2666,-0.6313,-0.305,-0.183,-0.122,157.006,-47.703,-65.841
14147,0.7476,0.2666,-0.6309,-0.305,-0.488,0.000,157.006,-47.697,-65.841
14157,0.7466,0.2656,-0.6260,-0.244,-0.610,0.061,157.006,-47.692,-65.841
14167,0.7485,0.2637,-0.6270,-0.183,-0.671,0.061,157.011,-47.686,-65.841
14177,0.7480,0.2642,-0.6240,-0.061,-0.427,-0.061,157.011,-47.686,-65.841
14187,0.7451,0.2651,-0.6226,-0.061,-0.122,-0.122,157.011,-47.681,-65.841
14197,0.7441,0.2617,-0.6250,-0.122,0.183,-0.244,157.006,-47.686,-65.841
14207,0.7441,0.2627,-0.6230,-0.244,0.427,-0.244,157.000,-47.686,-65.841
14217,0.7451,0.2642,-0.6230,-0.366,0.610,-0.244,156.995,-47.692,-65.841
14227,0.7446,0.2637,-0.6255,-0.366,0.732,-0.183,156.989,-47.697,-65.841
14237,0.7446,0.2642,-0.6245,-0.244,0.793,0.000,156.984,-47.703,-65.841
14247,0.7461,0.2676,-0.6245,0.000,0.854,0.183,156.978,-47.714,-65.841
14257,0.7485,0.2671,-0.6250,0.305,0.854,0.305,156.978,-47.725,-65.841
14267,0.7495,0.2671,-0.6255,0.549,0.732,0.427,156.984,-47.730,-65.841
14277,0.7485,0.2666,-0.6270,0.671,0.610,0.427,156.995,-47.741,-65.841
14287,0.7495,0.2676,-0.6270,0.549,0.610,0.366,157.000,-47.747,-65.841
14297,0.7515,0.2666,-0.6265,0.366,0.610,0.305,157.000,-47.752,-65.841
14307,0.7520,0.2671,-0.6274,0.122,0.610,0.183,157.000,-47.763,-65.841
14317,0.7520,0.2671,-0.6270,0.000,0.610,-0.061,157.000,-47.769,-65.841
14327,0.7490,0.2686,-0.6265,-0.183,0.610,-0.183,156.989,-47.769,-65.841
14337,0.7510,0.2681,-0.6294,-0.305,0.488,-0.366,156.978,-47.774,-65.841
14347,0.7495,0.2661,-0.6270,-0.366,0.366,-0.488,156.973,-47.774,-65.841
14357,0.7476,0.2646,-0.6265,-0.366,0.305,-0.488,156.962,-47.774,-65.841
14367,0.7471,0.2632,-0.6235,-0.366,0.244,-0.427,156.956,-47.774,-65.841
14377,0.7480,0.2637,-0.6230,-0.244,0.244,-0.366,156.951,-47.780,-65.841
14387,0.7485,0.2627,-0.6255,-0.122,0.305,-0.305,156.945,-47.780,-65.841
14397,0.7476,0.2617,-0.6230,0.000,0.305,-0.183,156.945,-47.785,-65.841
14407,0.7485,0.2627,-0.6221,0.183,0.305,0.000,156.945,-47.791,-65.841
14417,0.7480,0.2646,-0.6221,0.244,0.366,0.061,156.951,-47.791,-65.841
14427,0.7485,0.2651,-0.6235,0.244,0.366,0.122,156.951,-47.796,-65.841
14437,0.7490,0.2642,-0.6240,0.122,0.488,0.122,156.951,-47.802,-65.841
14447,0.7505,0.2646,-0.6245,0.061,0.488,0.122,156.951,-47.807,-65.841
14457,0.7520,0.2661,-0.6265,0.000,0.549,0.122,156.951,-47.818,-65.841
14467,0.7515,0.2676,-0.6255,-0.061,0.610,0.122,156.951,-47.823,-65.841
14477,0.7510,0.2676,-0.6279,0.000,0.671,0.122,156.945,-47.829,-65.841
14487,0.7505,0.2656,-0.6270,0.122,0.610,0.000,156.945,-47.834,-65.841
14497,0.7466,0.2656,-0.6255,0.122,0.610,-0.061,156.945,-47.834,-65.841
14507,0.7451,0.2661,-0.6245,0.000,0.488,-0.183,156.940,-47.840,-65.841
14517,0.7461,0.2651,-0.6245,-0.244,0.366,-0.244,156.934,-47.840,-65.841
14527,0.7466,0.2656,-0.6245,-0.427,0.244,-0.305,156.929,-47.840,-65.841
14537,0.7480,0.2656,-0.6245,-0.305,0.183,-0.183,156.923,-47.840,-65.841
14547,0.7490,0.2676,-0.6245,-0.061,0.183,-0.061,156.918,-47.840,-65.841
14557,0.7505,0.2666,-0.6235,0.122,0.305,0.061,156.918,-47.845,-65.841
14567,0.7495,0.2646,-0.6250,0.305,0.427,0.122,156.923,-47.851,-65.841
14577,0.7500,0.2651,-0.6255,0.427,0.427,0.183,156.929,-47.856,-65.841
14587,0.7500,0.2646,-0.6226,0.183,0.366,0.061,156.929,-47.856,-65.841
14597,0.7515,0.2661,-0.6250,-0.122,0.244,-0.061,156.923,-47.862,-65.841
14607,0.7515,0.2666,-0.6240,-0.427,0.183,-0.122,156.918,-47.862,-65.841
14617,0.7505,0.2661,-0.6216,-0.549,0.183,-0.183,156.907,-47.867,-65.841
14627,0.7500,0.2646,-0.6240,-0.549,0.244,-0.122,156.901,-47.867,-65.841
14637,0.7490,0.2666,-0.6235,-0.427,0.427,-0.183,156.896,-47.873,-65.841
14647,0.7510,0.2651,-0.6240,-0.305,0.488,-0.183,156.890,-47.873,-65.841
14657,0.7490,0.2642,-0.6255,-0.244,0.488,-0.122,156.885,-47.878,-65.841
14667,0.7500,0.2656,-0.6284,-0.061,0.488,-0.061,156.885,-47.878,-65.841
14677,0.7500,0.2681,-0.6274,0.061,0.488,0.061,156.885,-47.884,-65.841
14687,0.7520,0.2686,-0.6279,0.305,0.427,0.122,156.885,-47.889,-65.841
14697,0.7515,0.2686,-0.6299,0.549,0.366,0.183,156.890,-47.889,-65.841
14707,0.7544,0.2681,-0.6299,0.610,0.183,0.244,156.896,-47.889,-65.841
14717,0.7529,0.2686,-0.6304,0.610,0.061,0.183,156.907,-47.889,-65.841
14727,0.7554,0.2690,-0.6284,0.427,-0.122,0.061,156.912,-47.889,-65.841
14737,0.7544,0.2681,-0.6284,0.122,-0.305,-0.183,156.912,-47.884,-65.841
14747,0.7539,0.2671,-0.6255,-0.366,-0.610,-0.427,156.907,-47.878,-65.841
14757,0.7529,0.2656,-0.6226,-0.732,-0.854,-0.610,156.896,-47.867,-65.841
14767,0.7515,0.2666,-0.6201,-0.916,-0.977,-0.671,156.885,-47.862,-65.841
14777,0.7495,0.2642,-0.6187,-0.916,-1.038,-0.610,156.874,-47.851,-65.841
14787,0.7456,0.2622,-0.6177,-0.671,-0.793,-0.488,156.863,-47.845,-65.841
14797,0.7471,0.2607,-0.6147,-0.366,-0.427,-0.305,156.863,-47.840,-65.841
14807,0.7441,0.2627,-0.6162,0.000,-0.061,-0.061,156.863,-47.845,-65.841
14817,0.7441,0.2632,-0.6172,0.244,0.244,0.183,156.863,-47.845,-65.841
14827,0.7451,0.2637,-0.6206,0.488,0.549,0.366,156.874,-47.856,-65.841
14837,0.7461,0.2646,-0.6245,0.671,0.793,0.488,156.885,-47.862,-65.841
14847,0.7466,0.2671,-0.6255,0.916,0.854,0.549,156.890,-47.867,-65.841
14857,0.7480,0.2661,-0.6289,0.916,0.854,0.488,156.907,-47.878,-65.841
14867,0.7500,0.2671,-0.6304,0.732,0.549,0.366,156.912,-47.878,-65.841
14877,0.7505,0.2646,-0.6289,0.305,0.183,0.183,156.923,-47.884,-65.841
14887,0.7505,0.2661,-0.6309,-0.122,-0.244,0.000,156.923,-47.878,-65.841
14897,0.7505,0.2676,-0.6279,-0.366,-0.549,-0.122,156.923,-47.873,-65.841
14907,0.7490,0.2681,-0.6245,-0.488,-0.610,-0.183,156.918,-47.862,-65.841
14917,0.7471,0.2646,-0.6235,-0.366,-0.610,-0.244,156.912,-47.856,-65.841
14927,0.7466,0.2661,-0.6211,-0.244,-0.610,-0.244,156.907,-47.851,-65.841
14937,0.7441,0.2642,-0.6226,-0.122,-0.427,-0.183,156.907,-47.845,-65.841
14947,0.7466,0.2656,-0.6235,-0.061,-0.183,-0.122,156.907,-47.840,-65.841
14957,0.7485,0.2642,-0.6250,0.061,0.061,-0.122,156.907,-47.840,-65.841
14967,0.7500,0.2661,-0.6230,0.122,0.244,-0.183,156.907,-47.845,-65.841
14977,0.7495,0.2632,-0.6255,0.122,0.366,-0.244,156.907,-47.845,-65.841
14987,0.7495,0.2627,-0.6255,0.061,0.305,-0.244,156.907,-47.845,-65.841
14997,0.7500,0.2627,-0.6274,-0.061,0.183,-0.305,156.907,-47.845,-65.841
15007,0.7490,0.2632,-0.6265,-0.122,0.061,-0.244,156.907,-47.845,-65.841
15017,0.7485,0.2637,-0.6284,-0.122,-0.061,-0.122,156.907,-47.845,-65.841
15027,0.7515,0.2651,-0.6270,-0.061,-0.183,0.000,156.907,-47.840,-65.841
15037,0.7505,0.2656,-0.6265,0.000,-0.305,0.122,156.912,-47.840,-65.841
15047,0.7500,0.2651,-0.6245,0.183,-0.366,0.244,156.918,-47.840,-65.841
15057,0.7471,0.2651,-0.6245,0.244,-0.305,0.244,156.923,-47.834,-65.841
15067,0.7490,0.2651,-0.6245,0.244,-0.122,0.244,156.929,-47.834,-65.841
15077,0.7485,0.2681,-0.6265,0.122,0.000,0.244,156.934,-47.834,-65.841
15087,0.7490,0.2676,-0.6279,0.000,0.061,0.122,156.934,-47.834,-65.841
15097,0.7466,0.2671,-0.6260,-0.122,0.122,0.061,156.934,-47.834,-65.841
15107,0.7461,0.2686,-0.6260,-0.244,0.000,-0.183,156.929,-47.829,-65.841
15117,0.7451,0.2690,-0.6235,-0.427,-0.183,-0.305,156.918,-47.829,-65.841
15127,0.7485,0.2676,-0.6235,-0.488,-0.427,-0.366,156.912,-47.823,-65.841
15137,0.7485,0.2666,-0.6245,-0.427,-0.427,-0.427,156.901,-47.818,-65.841
15147,0.7480,0.2661,-0.6206,-0.305,-0.366,-0.366,156.896,-47.813,-65.841
15157,0.7490,0.2642,-0.6187,0.000,-0.183,-0.183,156.896,-47.813,-65.841
15167,0.7500,0.2646,-0.6221,0.305,0.000,-0.061,156.901,-47.813,-65.841
15177,0.7485,0.2637,-0.6230,0.427,0.183,0.000,156.901,-47.818,-65.841
15187,0.7490,0.2632,-0.6250,0.427,0.366,0.000,156.907,-47.818,-65.841
15197,0.7510,0.2651,-0.6250,0.244,0.427,-0.061,156.912,-47.823,-65.841
15207,0.7500,0.2656,-0.6255,0.000,0.427,-0.122,156.907,-47.829,-65.841
15217,0.7500,0.2646,-0.6279,-0.061,0.427,-0.183,156.907,-47.829,-65.841
15227,0.7500,0.2651,-0.6313,-0.122,0.244,-0.244,156.907,-47.829,-65.841
15237,0.7500,0.2642,-0.6289,-0.183,0.061,-0.366,156.901,-47.829,-65.841
15247,0.7480,0.2642,-0.6289,-0.244,-0.122,-0.427,156.896,-47.823,-65.841
15257,0.7451,0.2651,-0.6265,-0.366,-0.366,-0.427,156.896,-47.818,-65.841
15267,0.7446,0.2642,-0.6226,-0.305,-0.488,-0.366,156.890,-47.813,-65.841
15277,0.7476,0.2646,-0.6211,-0.183,-0.427,-0.183,156.890,-47.807,-65.841
15287,0.7476,0.2676,-0.6177,0.122,-0.305,0.000,156.890,-47.807,-65.841
15297,0.7480,0.2666,-0.6206,0.488,0.000,0.305,156.896,-47.807,-65.841
15307,0.7480,0.2681,-0.6221,0.854,0.305,0.427,156.901,-47.813,-65.841
15317,0.7524,0.2695,-0.6265,1.038,0.488,0.488,156.918,-47.818,-65.841
15327,0.7505,0.2666,-0.6289,1.038,0.549,0.305,156.929,-47.823,-65.841
15337,0.7510,0.2676,-0.6294,0.671,0.427,0.061,156.934,-47.829,-65.841
15347,0.7515,0.2656,-0.6304,0.000,0.183,-0.305,156.929,-47.829,-65.841
15357,0.7500,0.2656,-0.6265,-0.732,-0.183,-0.488,156.923,-47.823,-65.841
15367,0.7495,0.2646,-0.6250,-1.221,-0.488,-0.671,156.907,-47.818,-65.841
15377,0.7480,0.2646,-0.6221,-1.343,-0.732,-0.610,156.890,-47.807,-65.841
15387,0.7476,0.2632,-0.6201,-1.038,-0.732,-0.427,156.879,-47.802,-65.841
15397,0.7466,0.2651,-0.6201,-0.427,-0.549,-0.183,156.874,-47.796,-65.841
15407,0.7471,0.2651,-0.6206,0.305,-0.183,0.122,156.879,-47.796,-65.841
15417,0.7461,0.2637,-0.6226,0.854,0.183,0.366,156.896,-47.802,-65.841
15427,0.7456,0.2651,-0.6279,1.099,0.488,0.488,156.907,-47.807,-65.841
15437,0.7471,0.2661,-0.6318,1.099,0.916,0.549,156.923,-47.813,-65.841
15447,0.7505,0.2676,-0.6348,0.916,1.099,0.427,156.934,-47.818,-65.841
15457,0.7520,0.2700,-0.6313,0.671,1.038,0.305,156.940,-47.829,-65.841
15467,0.7544,0.2710,-0.6348,0.366,0.732,0.061,156.940,-47.834,-65.841
15477,0.7549,0.2690,-0.6367,0.061,0.244,-0.183,156.940,-47.829,-65.841
15487,0.7549,0.2686,-0.6323,-0.183,-0.366,-0.366,156.934,-47.823,-65.841
15498,0.7539,0.2676,-0.6289,-0.366,-0.977,-0.549,156.929,-47.813,-65.841
15507,0.7515,0.2656,-0.6250,-0.427,-1.343,-0.549,156.929,-47.802,-65.841
15517,0.7495,0.2632,-0.6245,-0.427,-1.526,-0.610,156.923,-47.785,-65.841
15527,0.7476,0.2622,-0.6196,-0.427,-1.465,-0.671,156.923,-47.774,-65.841
15537,0.7461,0.2607,-0.6187,-0.427,-1.160,-0.610,156.918,-47.763,-65.841
15547,0.7446,0.2588,-0.6167,-0.488,-0.793,-0.549,156.912,-47.758,-65.841
15557,0.7427,0.2588,-0.6162,-0.427,-0.366,-0.366,156.912,-47.752,-65.841
15567,0.7432,0.2622,-0.6177,-0.366,-0.061,-0.122,156.907,-47.752,-65.841
15577,0.7402,0.2646,-0.6187,-0.061,0.244,0.183,156.907,-47.758,-65.841
15587,0.7417,0.2651,-0.6216,0.305,0.488,0.488,156.912,-47.763,-65.841
15597,0.7432,0.2681,-0.6250,0.793,0.610,0.671,156.923,-47.769,-65.841
15607,0.7466,0.2695,-0.6245,1.160,0.671,0.793,156.940,-47.774,-65.841
15617,0.7456,0.2676,-0.6265,1.404,0.793,0.732,156.956,-47.785,-65.841
15627,0.7490,0.2686,-0.6279,1.221,0.916,0.549,156.967,-47.796,-65.841
15637,0.7476,0.2681,-0.6294,0.793,0.854,0.305,156.973,-47.802,-65.841
15647,0.7490,0.2686,-0.6284,0.183,0.610,0.000,156.973,-47.807,-65.841
15657,0.7495,0.2690,-0.6313,-0.305,0.366,-0.305,156.962,-47.802,-65.841
15667,0.7476,0.2690,-0.6294,-0.610,0.061,-0.488,156.951,-47.802,-65.841
15677,0.7461,0.2700,-0.6304,-0.732,-0.183,-0.549,156.940,-47.791,-65.841
15687,0.7441,0.2666,-0.6255,-0.671,-0.488,-0.549,156.929,-47.785,-65.841
15697,0.7456,0.2656,-0.6274,-0.488,-0.671,-0.488,156.923,-47.774,-65.841
15707,0.7485,0.2651,-0.6250,-0.183,-0.610,-0.366,156.918,-47.769,-65.841
15717,0.7471,0.2637,-0.6265,0.061,-0.427,-0.183,156.923,-47.763,-65.841
15727,0.7485,0.2627,-0.6260,0.305,-0.122,-0.061,156.929,-47.763,-65.841
15737,0.7471,0.2622,-0.6255,0.427,0.122,0.000,156.934,-47.763,-65.841
15747,0.7485,0.2632,-0.6270,0.427,0.427,0.000,156.940,-47.769,-65.841
15757,0.7485,0.2622,-0.6274,0.366,0.549,0.000,156.945,-47.769,-65.841
15767,0.7490,0.2646,-0.6270,0.122,0.671,0.000,156.945,-47.780,-65.841
15777,0.7480,0.2632,-0.6265,0.000,0.549,0.000,156.945,-47.780,-65.841
15787,0.7471,0.2651,-0.6274,-0.061,0.366,0.061,156.945,-47.785,-65.841
15797,0.7476,0.2646,-0.6284,-0.061,0.061,0.061,156.951,-47.785,-65.841
15807,0.7480,0.2651,-0.6294,-0.061,-0.183,0.183,156.951,-47.780,-65.841
15817,0.7480,0.2646,-0.6265,0.000,-0.427,0.183,156.956,-47.780,-65.841
15827,0.7476,0.2651,-0.6265,0.061,-0.427,0.183,156.962,-47.774,-65.841
15837,0.7466,0.2661,-0.6274,0.000,-0.366,0.244,156.967,-47.769,-65.841
15847,0.7476,0.2671,-0.6270,-0.061,-0.244,0.183,156.967,-47.769,-65.841
15856,0.7466,0.2686,-0.6240,0.000,0.000,0.122,156.967,-47.769,-65.841
15867,0.7471,0.2690,-0.6255,0.000,0.183,0.122,156.967,-47.769,-65.841
15877,0.7476,0.2705,-0.6265,-0.122,0.244,0.061,156.962,-47.769,-65.841
15887,0.7480,0.2690,-0.6255,-0.183,0.183,-0.061,156.956,-47.769,-65.841
15897,0.7476,0.2686,-0.6240,-0.305,-0.061,-0.122,156.951,-47.769,-65.841
15907,0.7476,0.2671,-0.6255,-0.366,-0.244,-0.244,156.945,-47.763,-65.841
15917,0.7471,0.2661,-0.6265,-0.305,-0.305,-0.244,156.940,-47.763,-65.841
15927,0.7476,0.2642,-0.6260,-0.183,-0.244,-0.244,156.940,-47.758,-65.841
15937,0.7490,0.2642,-0.6240,0.000,-0.122,-0.183,156.940,-47.758,-65.841
15946,0.7495,0.2632,-0.6260,0.122,0.000,-0.122,156.940,-47.758,-65.841
15957,0.7485,0.2627,-0.6245,0.183,0.183,-0.061,156.945,-47.758,-65.841
15966,0.7476,0.2632,-0.6270,0.244,0.366,0.000,156.945,-47.763,-65.841
15977,0.7490,0.2632,-0.6250,0.183,0.366,0.122,156.951,-47.769,-65.841
15987,0.7495,0.2632,-0.6245,0.244,0.366,0.183,156.956,-47.774,-65.841
15997,0.7520,0.2637,-0.6255,0.244,0.244,0.183,156.962,-47.780,-65.841
16006,0.7510,0.2646,-0.6265,0.244,0.183,0.244,156.967,-47.780,-65.841
16016,0.7480,0.2666,-0.6260,0.305,0.122,0.183,156.967,-47.780,-65.841
16026,0.7456,0.2651,-0.6235,0.244,0.000,0.122,156.973,-47.780,-65.841
16036,0.7437,0.2651,-0.6270,0.061,0.000,0.000,156.973,-47.780,-65.841
16047,0.7461,0.2656,-0.6284,-0.061,-0.122,-0.061,156.978,-47.774,-65.841
16056,0.7456,0.2661,-0.6250,-0.183,-0.061,-0.061,156.973,-47.774,-65.841
16066,0.7461,0.2681,-0.6255,-0.122,-0.061,0.122,156.973,-47.774,-65.841
16076,0.7480,0.2686,-0.6240,0.183,0.122,0.244,156.973,-47.774,-65.841
16086,0.7490,0.2686,-0.6240,0.488,0.244,0.366,156.978,-47.780,-65.841
16096,0.7480,0.2656,-0.6230,0.732,0.305,0.305,156.984,-47.785,-65.841
16106,0.7485,0.2646,-0.6265,0.610,0.244,0.122,156.995,-47.785,-65.841
16116,0.7485,0.2637,-0.6255,0.061,0.061,-0.122,156.995,-47.785,-65.841
16126,0.7471,0.2627,-0.6260,-0.549,-0.183,-0.183,156.989,-47.785,-65.841
16136,0.7461,0.2632,-0.6255,-1.038,-0.305,-0.244,156.978,-47.780,-65.841
16146,0.7471,0.2642,-0.6240,-1.160,-0.366,-0.183,156.967,-47.774,-65.841
16156,0.7461,0.2651,-0.6216,-0.916,-0.244,0.000,156.962,-47.774,-65.841
16166,0.7446,0.2656,-0.6230,-0.366,0.000,0.183,156.956,-47.774,-65.841
16176,0.7446,0.2642,-0.6230,0.305,0.244,0.427,156.967,-47.780,-65.841
16186,0.7466,0.2661,-0.6255,0.732,0.549,0.610,156.978,-47.785,-65.841
16196,0.7480,0.2651,-0.6304,0.916,0.854,0.610,156.989,-47.791,-65.841
16206,0.7471,0.2661,-0.6318,0.793,0.977,0.427,157.000,-47.802,-65.841
16216,0.7476,0.2666,-0.6353,0.488,0.977,0.305,157.006,-47.807,-65.841
16226,0.7515,0.2666,-0.6353,0.122,0.793,0.122,157.006,-47.813,-65.841
16236,0.7524,0.2686,-0.6338,-0.183,0.366,-0.061,157.000,-47.813,-65.841
16246,0.7529,0.2700,-0.6338,-0.366,-0.122,-0.122,157.000,-47.807,-65.841
16256,0.7520,0.2690,-0.6313,-0.366,-0.610,-0.183,156.995,-47.802,-65.841
16266,0.7510,0.2661,-0.6299,-0.305,-1.038,-0.244,156.995,-47.785,-65.841
16276,0.7505,0.2656,-0.6279,-0.305,-1.343,-0.305,156.995,-47.774,-65.841
16286,0.7490,0.2637,-0.6230,-0.366,-1.343,-0.488,156.995,-47.763,-65.841
16296,0.7485,0.2603,-0.6187,-0.488,-1.221,-0.549,156.989,-47.752,-65.841
16306,0.7471,0.2603,-0.6201,-0.671,-0.916,-0.549,156.984,-47.747,-65.841
16316,0.7471,0.2607,-0.6177,-0.732,-0.549,-0.366,156.978,-47.741,-65.841
16326,0.7451,0.2612,-0.6191,-0.610,-0.244,-0.183,156.973,-47.741,-65.841
16336,0.7446,0.2632,-0.6216,-0.244,0.061,0.000,156.967,-47.741,-65.841
16346,0.7446,0.2646,-0.6226,0.305,0.244,0.244,156.973,-47.747,-65.841
16356,0.7446,0.2646,-0.6211,0.610,0.366,0.427,156.984,-47.752,-65.841
16366,0.7446,0.2671,-0.6245,0.793,0.366,0.610,156.995,-47.758,-65.841
16376,0.7466,0.2666,-0.6265,0.854,0.488,0.610,157.006,-47.763,-65.841
16386,0.7461,0.2676,-0.6284,0.793,0.549,0.549,157.017,-47.769,-65.841
16396,0.7466,0.2671,-0.6304,0.549,0.671,0.366,157.022,-47.769,-65.841
16406,0.7476,0.2671,-0.6289,0.366,0.671,0.244,157.022,-47.774,-65.841
16416,0.7471,0.2671,-0.6309,0.122,0.488,0.061,157.022,-47.780,-65.841
16426,0.7461,0.2681,-0.6313,-0.061,0.305,-0.061,157.022,-47.780,-65.841
16436,0.7461,0.2681,-0.6284,-0.183,0.122,-0.183,157.017,-47.774,-65.841
16446,0.7466,0.2686,-0.6294,-0.244,-0.183,-0.244,157.011,-47.769,-65.841
16456,0.7466,0.2686,-0.6304,-0.244,-0.427,-0.305,157.006,-47.763,-65.841
16466,0.7466,0.2651,-0.6274,-0.183,-0.549,-0.305,157.006,-47.752,-65.841
16476,0.7456,0.2637,-0.6274,-0.183,-0.610,-0.305,157.006,-47.747,-65.841
16486,0.7471,0.2617,-0.6235,-0.183,-0.610,-0.305,157.006,-47.741,-65.841
16497,0.7471,0.2593,-0.6226,-0.122,-0.427,-0.305,157.006,-47.736,-65.841
16506,0.7451,0.2593,-0.6240,-0.061,-0.244,-0.183,157.006,-47.736,-65.841
16516,0.7466,0.2607,-0.6245,0.061,0.000,-0.122,157.011,-47.736,-65.841
16526,0.7446,0.2607,-0.6240,0.061,0.244,-0.061,157.011,-47.736,-65.841
16536,0.7437,0.2612,-0.6265,0.000,0.427,0.000,157.017,-47.741,-65.841
16546,0.7437,0.2622,-0.6270,-0.122,0.366,0.122,157.017,-47.741,-65.841
16556,0.7471,0.2656,-0.6279,-0.061,0.305,0.183,157.017,-47.747,-65.841
16566,0.7476,0.2661,-0.6250,0.061,0.305,0.366,157.017,-47.747,-65.841
16576,0.7490,0.2671,-0.6270,0.244,0.183,0.427,157.022,-47.752,-65.841
16586,0.7490,0.2695,-0.6284,0.427,0.183,0.488,157.028,-47.752,-65.841
16596,0.7480,0.2690,-0.6299,0.549,0.122,0.488,157.039,-47.758,-65.841
16606,0.7485,0.2681,-0.6299,0.549,0.061,0.366,157.044,-47.758,-65.841
16616,0.7515,0.2676,-0.6299,0.427,0.122,0.244,157.050,-47.758,-65.841
16626,0.7490,0.2671,-0.6309,0.061,0.061,-0.061,157.050,-47.758,-65.841
16636,0.7495,0.2661,-0.6294,-0.366,-0.061,-0.244,157.044,-47.752,-65.841
16646,0.7461,0.2656,-0.6289,-0.671,-0.244,-0.427,157.033,-47.747,-65.841
16656,0.7451,0.2651,-0.6265,-0.793,-0.427,-0.488,157.028,-47.741,-65.841
16666,0.7456,0.2671,-0.6255,-0.732,-0.549,-0.427,157.017,-47.730,-65.841
16676,0.7456,0.2661,-0.6211,-0.488,-0.610,-0.244,157.006,-47.725,-65.841
16686,0.7461,0.2632,-0.6221,-0.122,-0.549,-0.122,157.006,-47.725,-65.841
16696,0.7437,0.2617,-0.6245,0.305,-0.366,0.061,157.017,-47.719,-65.841
