elapsed_ms,acc_x_g,acc_y_g,acc_z_g,gyro_x_dps,gyro_y_dps,gyro_z_dps,angle_x_deg,angle_y_deg,angle_z_deg
0,0.7495,0.2856,-0.6177,1.099,0.916,0.305,154.737,-47.988,-66.149
10,0.7480,0.2871,-0.6187,0.732,0.916,0.122,154.742,-47.994,-66.143
20,0.7529,0.2886,-0.6211,0.366,0.671,0.061,154.748,-47.994,-66.138
30,0.7544,0.2876,-0.6226,0.183,0.427,0.061,154.753,-47.999,-66.138
40,0.7539,0.2881,-0.6211,0.183,0.122,0.061,154.759,-47.994,-66.138
50,0.7539,0.2861,-0.6191,0.244,-0.244,0.061,154.764,-47.994,-66.138
60,0.7520,0.2847,-0.6177,0.305,-0.488,0.000,154.775,-47.988,-66.143
70,0.7495,0.2842,-0.6157,0.061,-0.732,-0.061,154.786,-47.977,-66.149
80,0.7476,0.2847,-0.6152,-0.244,-0.916,-0.061,154.792,-47.972,-66.154
90,0.7446,0.2847,-0.6157,-0.549,-0.916,-0.122,154.792,-47.955,-66.154
100,0.7456,0.2856,-0.6128,-0.793,-0.793,-0.183,154.786,-47.950,-66.160
110,0.7427,0.2847,-0.6118,-0.916,-0.549,-0.183,154.781,-47.939,-66.160
120,0.7412,0.2842,-0.6099,-0.916,-0.244,-0.244,154.775,-47.933,-66.160
130,0.7407,0.2842,-0.6113,-0.977,0.122,-0.183,154.764,-47.933,-66.154
140,0.7407,0.2852,-0.6118,-0.916,0.427,-0.061,154.753,-47.933,-66.149
150,0.7417,0.2876,-0.6118,-0.793,0.793,0.183,154.748,-47.939,-66.149
160,0.7441,0.2891,-0.6128,-0.488,1.160,0.366,154.737,-47.950,-66.149
170,0.7466,0.2910,-0.6167,0.122,1.526,0.427,154.737,-47.961,-66.143
180,0.7485,0.2939,-0.6187,0.549,1.831,0.427,154.737,-47.977,-66.138
190,0.7505,0.2925,-0.6255,0.854,2.014,0.366,154.742,-47.988,-66.127
201,0.7549,0.2915,-0.6289,0.854,1.770,0.183,154.748,-47.999,-66.121
210,0.7549,0.2905,-0.6245,0.244,1.221,-0.244,154.748,-48.005,-66.110
220,0.7539,0.2900,-0.6235,-0.305,0.427,-0.610,154.737,-48.005,-66.099
230,0.7529,0.2900,-0.6177,-0.916,-0.427,-0.916,154.720,-47.994,-66.088
240,0.7520,0.2900,-0.6133,-1.343,-1.099,-1.099,154.704,-47.983,-66.083
250,0.7505,0.2866,-0.6104,-1.526,-1.404,-1.160,154.682,-47.966,-66.072
260,0.7476,0.2847,-0.6074,-1.465,-1.404,-1.099,154.666,-47.950,-66.066
270,0.7471,0.2842,-0.6060,-1.099,-1.038,-0.854,154.655,-47.939,-66.061
280,0.7441,0.2842,-0.6064,-0.732,-0.366,-0.549,154.644,-47.933,-66.055
290,0.7437,0.2837,-0.6064,-0.305,0.427,-0.244,154.644,-47.933,-66.050
300,0.7422,0.2832,-0.6079,0.061,1.282,0.000,154.638,-47.944,-66.044
310,0.7441,0.2852,-0.6108,0.305,1.892,0.183,154.638,-47.961,-66.033
320,0.7437,0.2856,-0.6147,0.427,2.197,0.244,154.638,-47.983,-66.022
330,0.7471,0.2861,-0.6167,0.366,2.136,0.183,154.638,-47.999,-66.011
340,0.7500,0.2871,-0.6182,0.122,1.831,0.244,154.638,-48.016,-66.006
350,0.7490,0.2891,-0.6157,-0.122,1.404,0.244,154.638,-48.027,-66.000
360,0.7510,0.2891,-0.6157,-0.305,0.854,0.305,154.633,-48.032,-65.995
370,0.7534,0.2920,-0.6172,-0.305,0.366,0.366,154.633,-48.032,-66.000
380,0.7524,0.2910,-0.6123,-0.122,0.122,0.366,154.633,-48.038,-66.006
390,0.7510,0.2905,-0.6143,0.000,0.122,0.366,154.638,-48.038,-66.006
400,0.7510,0.2881,-0.6167,0.000,0.305,0.244,154.644,-48.038,-66.011
410,0.7515,0.2876,-0.6182,-0.122,0.549,0.122,154.644,-48.043,-66.006
420,0.7510,0.2847,-0.6177,-0.244,0.793,0.000,154.644,-48.049,-66.000
430,0.7515,0.2866,-0.6177,-0.610,0.977,-0.183,154.638,-48.054,-65.995
440,0.7524,0.2856,-0.6201,-0.916,0.916,-0.305,154.627,-48.060,-65.984
450,0.7500,0.2856,-0.6172,-1.099,0.732,-0.305,154.616,-48.060,-65.973
460,0.7524,0.2866,-0.6206,-1.099,0.366,-0.244,154.605,-48.060,-65.967
470,0.7490,0.2856,-0.6157,-0.854,0.122,-0.122,154.600,-48.060,-65.967
480,0.7510,0.2852,-0.6182,-0.549,-0.061,0.061,154.600,-48.054,-65.967
490,0.7485,0.2832,-0.6187,-0.305,-0.122,0.183,154.611,-48.054,-65.973
500,0.7471,0.2832,-0.6152,-0.244,-0.061,0.244,154.616,-48.049,-65.973
510,0.7480,0.2832,-0.6157,-0.183,-0.122,0.427,154.627,-48.049,-65.978
520,0.7485,0.2842,-0.6177,-0.244,-0.122,0.549,154.638,-48.049,-65.989
530,0.7485,0.2847,-0.6147,-0.183,-0.061,0.488,154.644,-48.049,-65.995
540,0.7505,0.2847,-0.6138,-0.305,-0.061,0.488,154.649,-48.049,-66.006
550,0.7485,0.2866,-0.6128,-0.427,-0.061,0.427,154.655,-48.049,-66.011
560,0.7476,0.2905,-0.6138,-0.671,-0.122,0.488,154.655,-48.043,-66.017
570,0.7461,0.2905,-0.6128,-0.732,-0.244,0.549,154.655,-48.043,-66.028
580,0.7476,0.2930,-0.6113,-0.610,-0.183,0.610,154.649,-48.043,-66.033
590,0.7485,0.2944,-0.6084,-0.244,-0.122,0.610,154.649,-48.043,-66.044
600,0.7480,0.2930,-0.6104,0.244,0.061,0.610,154.655,-48.043,-66.050
610,0.7500,0.2910,-0.6113,0.732,0.305,0.671,154.666,-48.049,-66.061
620,0.7480,0.2900,-0.6143,1.038,0.488,0.549,154.682,-48.049,-66.061
630,0.7480,0.2900,-0.6128,1.038,0.610,0.305,154.693,-48.054,-66.066
640,0.7500,0.2881,-0.6152,0.671,0.549,0.061,154.698,-48.060,-66.061
650,0.7500,0.2856,-0.6128,0.305,0.427,-0.122,154.698,-48.060,-66.055
660,0.7476,0.2876,-0.6133,-0.183,0.366,-0.305,154.698,-48.060,-66.050
670,0.7485,0.2866,-0.6099,-0.488,0.305,-0.366,154.687,-48.060,-66.044
680,0.7480,0.2842,-0.6113,-0.549,0.183,-0.305,154.682,-48.060,-66.039
690,0.7480,0.2852,-0.6128,-0.427,0.305,-0.183,154.677,-48.060,-66.033
701,0.7485,0.2832,-0.6094,-0.244,0.488,0.000,154.677,-48.065,-66.028
710,0.7485,0.2837,-0.6113,0.000,0.732,0.183,154.682,-48.076,-66.028
720,0.7495,0.2852,-0.6133,0.244,1.038,0.366,154.682,-48.082,-66.028
730,0.7515,0.2881,-0.6138,0.427,1.221,0.488,154.687,-48.093,-66.028
740,0.7505,0.2886,-0.6152,0.488,1.282,0.488,154.693,-48.104,-66.022
750,0.7510,0.2871,-0.6133,0.549,1.160,0.427,154.704,-48.115,-66.022
760,0.7520,0.2871,-0.6152,0.366,0.916,0.244,154.704,-48.126,-66.017
770,0.7524,0.2866,-0.6167,0.183,0.549,0.000,154.709,-48.126,-66.017
780,0.7534,0.2871,-0.6143,-0.061,0.244,-0.122,154.709,-48.126,-66.011
790,0.7549,0.2871,-0.6133,-0.244,0.122,-0.244,154.704,-48.126,-66.011
800,0.7568,0.2866,-0.6162,-0.305,0.061,-0.244,154.704,-48.126,-66.006
810,0.7573,0.2852,-0.6162,-0.305,0.000,-0.244,154.704,-48.126,-66.000
820,0.7563,0.2837,-0.6143,-0.183,0.061,-0.305,154.704,-48.126,-65.995
830,0.7563,0.2827,-0.6152,-0.122,0.061,-0.305,154.704,-48.126,-65.995
840,0.7554,0.2812,-0.6138,-0.244,0.061,-0.366,154.704,-48.126,-65.989
850,0.7539,0.2817,-0.6128,-0.427,0.000,-0.305,154.704,-48.126,-65.984
860,0.7500,0.2817,-0.6147,-0.549,-0.122,-0.244,154.704,-48.120,-65.978
870,0.7485,0.2812,-0.6152,-0.732,0.000,-0.183,154.698,-48.120,-65.978
880,0.7471,0.2808,-0.6162,-0.671,0.122,-0.122,154.698,-48.115,-65.978
890,0.7480,0.2822,-0.6172,-0.549,0.244,0.000,154.698,-48.115,-65.973
900,0.7476,0.2827,-0.6167,-0.427,0.183,0.122,154.704,-48.115,-65.973
910,0.7466,0.2837,-0.6177,-0.061,0.183,0.183,154.709,-48.115,-65.978
920,0.7485,0.2856,-0.6191,0.183,0.183,0.305,154.720,-48.109,-65.978
930,0.7480,0.2861,-0.6196,0.305,0.244,0.366,154.731,-48.109,-65.984
940,0.7515,0.2900,-0.6206,0.366,0.183,0.366,154.737,-48.109,-65.984
950,0.7500,0.2920,-0.6206,0.427,0.122,0.305,154.748,-48.104,-65.989
960,0.7529,0.2900,-0.6172,0.366,0.000,0.122,154.753,-48.104,-65.989
970,0.7549,0.2915,-0.6177,0.183,-0.305,0.000,154.753,-48.098,-65.995
980,0.7544,0.2900,-0.6191,-0.061,-0.671,-0.244,154.753,-48.087,-65.995
990,0.7549,0.2896,-0.6191,-0.366,-0.977,-0.488,154.753,-48.076,-65.995
1000,0.7544,0.2886,-0.6147,-0.671,-1.221,-0.732,154.748,-48.060,-65.989
1010,0.7529,0.2852,-0.6128,-0.916,-1.465,-0.916,154.737,-48.043,-65.989
1020,0.7505,0.2837,-0.6084,-1.099,-1.465,-1.038,154.726,-48.027,-65.984
1030,0.7476,0.2822,-0.6084,-1.160,-1.343,-0.977,154.715,-48.016,-65.978
1040,0.7451,0.2822,-0.6074,-1.038,-1.160,-0.854,154.704,-47.999,-65.973
1050,0.7456,0.2827,-0.6045,-0.793,-0.854,-0.549,154.698,-47.994,-65.973
1060,0.7451,0.2822,-0.6064,-0.366,-0.488,-0.244,154.698,-47.988,-65.973
1070,0.7446,0.2837,-0.6079,0.183,-0.061,0.061,154.704,-47.988,-65.973
1080,0.7432,0.2827,-0.6094,0.732,0.366,0.366,154.715,-47.994,-65.978
1090,0.7461,0.2842,-0.6123,1.099,0.732,0.549,154.731,-47.999,-65.978
1100,0.7480,0.2837,-0.6162,1.221,0.977,0.610,154.753,-48.010,-65.984
1110,0.7476,0.2842,-0.6191,0.916,1.038,0.549,154.770,-48.016,-65.984
1120,0.7490,0.2871,-0.6191,0.427,0.854,0.427,154.775,-48.021,-65.984
1130,0.7490,0.2891,-0.6182,-0.061,0.488,0.366,154.781,-48.027,-65.984
1140,0.7480,0.2896,-0.6157,-0.244,0.122,0.305,154.781,-48.027,-65.989
1150,0.7466,0.2915,-0.6147,-0.183,-0.061,0.183,154.775,-48.021,-65.989
1160,0.7480,0.2930,-0.6138,0.000,-0.183,0.183,154.775,-48.016,-65.995
1170,0.7471,0.2910,-0.6157,0.305,0.000,0.122,154.781,-48.016,-65.995
1180,0.7471,0.2900,-0.6167,0.488,0.305,0.061,154.786,-48.016,-65.995
1190,0.7476,0.2852,-0.6167,0.488,0.610,-0.122,154.792,-48.016,-65.989
1201,0.7480,0.2852,-0.6191,0.366,0.854,-0.427,154.792,-48.016,-65.978
1210,0.7485,0.2832,-0.6177,-0.061,1.038,-0.732,154.781,-48.021,-65.962
1220,0.7480,0.2832,-0.6162,-0.610,1.038,-0.854,154.770,-48.027,-65.945
1230,0.7490,0.2847,-0.6147,-1.038,0.793,-0.854,154.748,-48.027,-65.929
1240,0.7500,0.2847,-0.6143,-1.160,0.488,-0.732,154.731,-48.027,-65.912
1250,0.7480,0.2856,-0.6147,-0.916,0.122,-0.366,154.720,-48.027,-65.907
1260,0.7510,0.2847,-0.6118,-0.305,-0.122,0.000,154.726,-48.027,-65.907
1270,0.7485,0.2817,-0.6108,0.427,-0.122,0.305,154.737,-48.027,-65.912
1280,0.7485,0.2817,-0.6089,0.854,0.061,0.427,154.753,-48.027,-65.918
1290,0.7466,0.2808,-0.6089,0.854,0.366,0.549,154.770,-48.038,-65.923
1300,0.7466,0.2827,-0.6079,0.549,0.793,0.488,154.781,-48.043,-65.923
1310,0.7495,0.2861,-0.6074,0.061,1.221,0.366,154.781,-48.060,-65.923
1320,0.7500,0.2900,-0.6099,-0.244,1.465,0.305,154.770,-48.071,-65.918
1330,0.7510,0.2925,-0.6123,-0.183,1.587,0.183,154.759,-48.087,-65.912
1340,0.7544,0.2920,-0.6138,0.122,1.770,0.061,154.753,-48.104,-65.901
1350,0.7554,0.2920,-0.6152,0.366,1.892,-0.122,154.742,-48.115,-65.885
1360,0.7539,0.2891,-0.6157,0.488,1.770,-0.183,154.737,-48.131,-65.874
1370,0.7568,0.2871,-0.6206,0.366,1.526,-0.366,154.737,-48.142,-65.858
1380,0.7549,0.2827,-0.6182,0.061,1.282,-0.549,154.731,-48.148,-65.841
1390,0.7554,0.2827,-0.6196,-0.305,1.099,-0.671,154.726,-48.153,-65.825
1400,0.7529,0.2808,-0.6201,-0.488,0.916,-0.671,154.720,-48.159,-65.808
1410,0.7549,0.2803,-0.6216,-0.549,0.793,-0.671,154.709,-48.159,-65.797
1420,0.7534,0.2803,-0.6226,-0.366,0.732,-0.488,154.709,-48.159,-65.786
1430,0.7539,0.2788,-0.6230,-0.244,0.793,-0.305,154.715,-48.164,-65.775
1440,0.7524,0.2788,-0.6245,-0.244,0.671,-0.061,154.720,-48.164,-65.770
1450,0.7544,0.2783,-0.6230,-0.366,0.366,0.000,154.726,-48.164,-65.770
1460,0.7544,0.2764,-0.6196,-0.549,-0.061,0.122,154.737,-48.164,-65.770
1470,0.7549,0.2739,-0.6216,-0.732,-0.427,0.183,154.748,-48.159,-65.775
1480,0.7529,0.2773,-0.6196,-0.854,-0.793,0.244,154.753,-48.153,-65.786
1490,0.7510,0.2808,-0.6182,-0.854,-1.038,0.366,154.764,-48.142,-65.797
1500,0.7505,0.2803,-0.6182,-0.793,-1.160,0.488,154.775,-48.131,-65.808
1510,0.7510,0.2817,-0.6118,-0.671,-1.282,0.549,154.786,-48.120,-65.825
1520,0.7500,0.2852,-0.6113,-0.610,-1.221,0.610,154.792,-48.109,-65.841
1530,0.7505,0.2891,-0.6113,-0.610,-1.038,0.732,154.797,-48.104,-65.858
1540,0.7529,0.2905,-0.6089,-0.549,-0.854,0.793,154.803,-48.098,-65.874
1550,0.7520,0.2949,-0.6084,-0.366,-0.610,0.732,154.803,-48.098,-65.891
1560,0.7524,0.2944,-0.6089,-0.122,-0.488,0.549,154.803,-48.093,-65.896
1570,0.7529,0.2930,-0.6089,0.000,-0.366,0.366,154.803,-48.093,-65.907
1580,0.7515,0.2925,-0.6113,-0.061,-0.244,0.061,154.797,-48.093,-65.907
1590,0.7520,0.2900,-0.6118,-0.244,-0.183,-0.244,154.792,-48.087,-65.907
1600,0.7510,0.2891,-0.6123,-0.671,-0.183,-0.549,154.781,-48.082,-65.901
1610,0.7500,0.2886,-0.6118,-1.099,-0.183,-0.732,154.764,-48.076,-65.891
1620,0.7480,0.2852,-0.6113,-1.343,-0.122,-0.854,154.742,-48.071,-65.880
1630,0.7485,0.2847,-0.6099,-1.221,0.000,-0.732,154.726,-48.065,-65.869
1640,0.7480,0.2842,-0.6113,-0.854,0.244,-0.549,154.715,-48.065,-65.863
1650,0.7490,0.2837,-0.6143,-0.244,0.427,-0.366,154.715,-48.065,-65.852
1660,0.7471,0.2822,-0.6167,0.244,0.671,-0.183,154.715,-48.071,-65.847
1670,0.7466,0.2827,-0.6187,0.549,0.916,0.061,154.726,-48.071,-65.841
1680,0.7490,0.2842,-0.6182,0.732,0.977,0.183,154.737,-48.082,-65.836
1690,0.7529,0.2832,-0.6187,0.671,0.916,0.244,154.748,-48.087,-65.836
1701,0.7534,0.2861,-0.6221,0.610,0.854,0.183,154.759,-48.093,-65.830
1710,0.7539,0.2876,-0.6240,0.427,0.549,0.061,154.764,-48.093,-65.830
1720,0.7524,0.2871,-0.6270,0.183,0.000,-0.061,154.770,-48.087,-65.830
1730,0.7554,0.2866,-0.6216,0.061,-0.488,-0.183,154.775,-48.082,-65.830
1740,0.7524,0.2856,-0.6172,-0.183,-0.916,-0.366,154.781,-48.065,-65.830
1750,0.7524,0.2847,-0.6143,-0.427,-1.343,-0.549,154.781,-48.054,-65.830
1760,0.7524,0.2817,-0.6118,-0.671,-1.648,-0.671,154.781,-48.038,-65.836
1770,0.7510,0.2822,-0.6108,-0.854,-1.709,-0.732,154.775,-48.021,-65.836
1780,0.7495,0.2822,-0.6069,-0.916,-1.526,-0.610,154.770,-48.005,-65.836
1790,0.7466,0.2837,-0.6040,-0.916,-1.221,-0.427,154.764,-47.994,-65.836
1800,0.7461,0.2842,-0.6035,-0.671,-0.671,-0.122,154.759,-47.988,-65.841
1810,0.7466,0.2837,-0.6021,-0.244,-0.122,0.122,154.759,-47.994,-65.841
1820,0.7451,0.2842,-0.6050,0.244,0.427,0.366,154.764,-47.999,-65.847
1830,0.7441,0.2847,-0.6113,0.549,0.793,0.488,154.775,-48.005,-65.847
1840,0.7480,0.2847,-0.6133,0.732,1.038,0.549,154.786,-48.016,-65.847
1850,0.7485,0.2837,-0.6162,0.793,1.221,0.488,154.797,-48.027,-65.847
1860,0.7505,0.2827,-0.6187,0.610,1.221,0.305,154.803,-48.038,-65.841
1870,0.7495,0.2847,-0.6191,0.183,1.160,0.122,154.808,-48.049,-65.836
1880,0.7495,0.2842,-0.6182,-0.366,0.854,-0.122,154.803,-48.049,-65.830
1890,0.7471,0.2847,-0.6196,-0.793,0.488,-0.244,154.797,-48.049,-65.825
1900,0.7461,0.2822,-0.6206,-1.038,0.061,-0.244,154.792,-48.043,-65.819
1910,0.7476,0.2852,-0.6152,-0.977,-0.183,-0.183,154.786,-48.038,-65.819
1920,0.7471,0.2852,-0.6152,-0.732,-0.305,-0.061,154.781,-48.032,-65.819
1930,0.7490,0.2852,-0.6152,-0.366,-0.366,0.122,154.786,-48.032,-65.825
1940,0.7471,0.2837,-0.6138,0.000,-0.244,0.183,154.792,-48.027,-65.825
1950,0.7495,0.2847,-0.6152,0.183,0.122,0.244,154.797,-48.027,-65.830
1960,0.7515,0.2856,-0.6152,0.183,0.488,0.183,154.803,-48.032,-65.830
1970,0.7515,0.2856,-0.6157,0.122,0.732,0.000,154.803,-48.038,-65.825
1980,0.7510,0.2837,-0.6143,-0.061,0.854,-0.122,154.803,-48.043,-65.819
1990,0.7500,0.2856,-0.6162,-0.305,0.793,-0.244,154.797,-48.049,-65.808
2000,0.7505,0.2856,-0.6201,-0.427,0.671,-0.305,154.792,-48.049,-65.803
2010,0.7529,0.2856,-0.6201,-0.427,0.549,-0.366,154.786,-48.049,-65.792
2020,0.7549,0.2866,-0.6191,-0.366,0.427,-0.305,154.781,-48.054,-65.792
2030,0.7559,0.2842,-0.6201,-0.244,0.305,-0.183,154.781,-48.054,-65.792
2040,0.7554,0.2842,-0.6191,-0.122,0.061,-0.122,154.781,-48.054,-65.792
2050,0.7524,0.2817,-0.6221,-0.183,-0.183,-0.061,154.792,-48.049,-65.792
2060,0.7544,0.2817,-0.6187,-0.244,-0.305,-0.061,154.797,-48.043,-65.792
2070,0.7524,0.2832,-0.6191,-0.366,-0.488,0.000,154.797,-48.038,-65.792
2080,0.7500,0.2832,-0.6157,-0.488,-0.488,0.061,154.803,-48.032,-65.792
2090,0.7490,0.2847,-0.6152,-0.549,-0.488,0.122,154.803,-48.027,-65.792
2100,0.7471,0.2861,-0.6167,-0.488,-0.427,0.183,154.808,-48.021,-65.792
2110,0.7451,0.2876,-0.6143,-0.366,-0.427,0.122,154.808,-48.016,-65.792
2120,0.7471,0.2886,-0.6108,-0.305,-0.427,0.061,154.808,-48.010,-65.792
2130,0.7466,0.2876,-0.6128,-0.305,-0.427,-0.061,154.803,-48.005,-65.792
2140,0.7480,0.2876,-0.6123,-0.366,-0.366,-0.061,154.803,-47.999,-65.792
2150,0.7490,0.2876,-0.6108,-0.366,-0.305,-0.061,154.797,-47.994,-65.792
2160,0.7495,0.2881,-0.6094,-0.244,-0.183,-0.061,154.797,-47.994,-65.792
2170,0.7495,0.2871,-0.6104,-0.183,0.000,-0.122,154.792,-47.994,-65.792
2180,0.7510,0.2876,-0.6113,-0.061,0.183,-0.122,154.792,-47.994,-65.792
2190,0.7529,0.2886,-0.6108,0.061,0.305,-0.122,154.786,-47.999,-65.792
2200,0.7515,0.2852,-0.6128,0.061,0.366,-0.244,154.786,-47.999,-65.792
2210,0.7515,0.2852,-0.6157,0.000,0.427,-0.427,154.786,-48.005,-65.792
2220,0.7510,0.2827,-0.6177,-0.122,0.488,-0.549,154.781,-48.005,-65.792
2230,0.7510,0.2842,-0.6182,-0.305,0.366,-0.671,154.775,-48.005,-65.792
2240,0.7485,0.2847,-0.6196,-0.305,0.305,-0.732,154.770,-47.999,-65.792
2250,0.7490,0.2822,-0.6167,-0.122,0.244,-0.671,154.764,-47.999,-65.792
2260,0.7505,0.2832,-0.6167,0.061,0.183,-0.610,154.764,-47.994,-65.792
2270,0.7500,0.2803,-0.6152,0.244,0.061,-0.549,154.770,-47.994,-65.792
2280,0.7485,0.2788,-0.6152,0.305,-0.061,-0.427,154.775,-47.988,-65.792
2290,0.7495,0.2783,-0.6152,0.305,0.061,-0.244,154.786,-47.988,-65.792
2300,0.7490,0.2788,-0.6167,0.305,0.244,-0.061,154.797,-47.994,-65.792
2310,0.7495,0.2803,-0.6187,0.244,0.488,0.061,154.808,-47.994,-65.792
2320,0.7505,0.2788,-0.6162,0.183,0.671,0.061,154.814,-47.999,-65.792
2330,0.7490,0.2773,-0.6182,-0.061,0.549,0.000,154.819,-48.005,-65.792
2340,0.7485,0.2773,-0.6211,-0.427,0.305,0.000,154.825,-48.005,-65.792
2350,0.7476,0.2798,-0.6182,-0.854,-0.061,0.061,154.825,-47.999,-65.792
2360,0.7476,0.2812,-0.6177,-1.160,-0.427,0.122,154.825,-47.994,-65.792
2370,0.7480,0.2866,-0.6177,-1.282,-0.610,0.244,154.819,-47.988,-65.792
2380,0.7480,0.2871,-0.6191,-1.038,-0.671,0.427,154.819,-47.983,-65.792
2390,0.7505,0.2891,-0.6152,-0.549,-0.610,0.610,154.825,-47.977,-65.792
2400,0.7480,0.2886,-0.6162,-0.061,-0.366,0.671,154.830,-47.972,-65.792
2410,0.7480,0.2876,-0.6157,0.244,-0.061,0.610,154.841,-47.972,-65.792
2420,0.7490,0.2881,-0.6172,0.244,0.305,0.488,154.852,-47.977,-65.792
2430,0.7490,0.2886,-0.6167,0.000,0.488,0.244,154.852,-47.977,-65.792
2440,0.7480,0.2915,-0.6152,-0.305,0.488,0.000,154.841,-47.983,-65.792
2450,0.7490,0.2891,-0.6133,-0.610,0.488,-0.244,154.830,-47.983,-65.792
2460,0.7505,0.2910,-0.6128,-0.793,0.427,-0.427,154.814,-47.983,-65.792
2470,0.7495,0.2905,-0.6138,-0.854,0.366,-0.427,154.797,-47.983,-65.792
2480,0.7500,0.2900,-0.6143,-0.793,0.244,-0.305,154.786,-47.983,-65.792
2490,0.7524,0.2876,-0.6162,-0.549,0.122,-0.244,154.781,-47.983,-65.792
2500,0.7524,0.2871,-0.6138,-0.244,0.000,-0.183,154.775,-47.983,-65.792
2510,0.7529,0.2832,-0.6133,-0.061,-0.061,-0.183,154.781,-47.983,-65.792
2520,0.7520,0.2822,-0.6118,0.061,-0.122,-0.183,154.786,-47.983,-65.792
2530,0.7505,0.2798,-0.6113,0.061,-0.061,-0.183,154.786,-47.983,-65.792
2540,0.7510,0.2798,-0.6157,0.061,0.183,-0.244,154.792,-47.983,-65.792
2550,0.7520,0.2783,-0.6147,-0.061,0.427,-0.305,154.797,-47.988,-65.792
2560,0.7524,0.2783,-0.6133,-0.244,0.549,-0.305,154.797,-47.994,-65.792
2570,0.7500,0.2778,-0.6128,-0.427,0.549,-0.244,154.797,-47.999,-65.792
2580,0.7490,0.2773,-0.6152,-0.427,0.427,-0.244,154.797,-47.999,-65.792
2590,0.7505,0.2788,-0.6123,-0.244,0.305,-0.122,154.797,-48.005,-65.792
2600,0.7485,0.2788,-0.6177,0.000,0.183,0.000,154.808,-48.005,-65.792
2610,0.7490,0.2812,-0.6182,0.305,0.244,0.244,154.819,-48.005,-65.792
2620,0.7490,0.2827,-0.6216,0.671,0.305,0.427,154.836,-48.005,-65.792
2630,0.7471,0.2847,-0.6206,0.854,0.305,0.610,154.852,-48.010,-65.792
2640,0.7490,0.2842,-0.6191,0.916,0.244,0.671,154.874,-48.010,-65.792
2650,0.7510,0.2876,-0.6196,0.732,0.122,0.610,154.885,-48.010,-65.792
2660,0.7520,0.2861,-0.6206,0.305,-0.061,0.427,154.896,-48.010,-65.792
2670,0.7510,0.2871,-0.6187,-0.122,-0.183,0.244,154.902,-48.005,-65.792
2680,0.7515,0.2886,-0.6187,-0.610,-0.305,0.000,154.902,-47.999,-65.792
2690,0.7500,0.2891,-0.6162,-0.854,-0.427,-0.183,154.891,-47.994,-65.792
2700,0.7500,0.2871,-0.6167,-0.916,-0.488,-0.305,154.880,-47.988,-65.792
2710,0.7485,0.2861,-0.6138,-0.793,-0.427,-0.366,154.874,-47.983,-65.792
2720,0.7476,0.2861,-0.6147,-0.549,-0.305,-0.427,154.869,-47.977,-65.792
2730,0.7476,0.2837,-0.6147,-0.366,-0.122,-0.488,154.863,-47.972,-65.792
2740,0.7476,0.2812,-0.6167,-0.366,0.122,-0.488,154.858,-47.966,-65.792
2750,0.7471,0.2803,-0.6182,-0.305,0.427,-0.488,154.858,-47.966,-65.792
2760,0.7480,0.2812,-0.6196,-0.366,0.610,-0.366,154.852,-47.966,-65.792
2770,0.7515,0.2803,-0.6226,-0.366,0.610,-0.305,154.852,-47.972,-65.792
2780,0.7515,0.2783,-0.6211,-0.366,0.427,-0.305,154.858,-47.972,-65.792
2790,0.7529,0.2793,-0.6235,-0.366,0.061,-0.244,154.858,-47.972,-65.792
2800,0.7534,0.2803,-0.6206,-0.488,-0.488,-0.122,154.863,-47.966,-65.792
2810,0.7524,0.2808,-0.6187,-0.427,-0.977,0.061,154.874,-47.955,-65.792
2820,0.7515,0.2822,-0.6196,-0.305,-1.343,0.183,154.885,-47.944,-65.792
2830,0.7505,0.2842,-0.6157,-0.183,-1.343,0.244,154.896,-47.933,-65.792
2840,0.7490,0.2842,-0.6162,-0.061,-1.160,0.305,154.907,-47.922,-65.792
2850,0.7485,0.2856,-0.6162,0.000,-0.793,0.305,154.913,-47.917,-65.792
2860,0.7471,0.2847,-0.6133,-0.122,-0.427,0.244,154.918,-47.911,-65.792
2870,0.7456,0.2847,-0.6147,-0.305,-0.122,0.183,154.924,-47.911,-65.792
2880,0.7456,0.2866,-0.6162,-0.549,0.000,0.061,154.918,-47.906,-65.792
2890,0.7456,0.2861,-0.6167,-0.793,-0.061,-0.061,154.913,-47.906,-65.792
2900,0.7471,0.2861,-0.6162,-0.793,-0.183,-0.183,154.902,-47.900,-65.792
2910,0.7451,0.2866,-0.6162,-0.732,-0.366,-0.183,154.896,-47.895,-65.792
2920,0.7461,0.2881,-0.6123,-0.305,-0.366,-0.122,154.896,-47.889,-65.792
2930,0.7466,0.2871,-0.6133,-0.061,-0.183,0.000,154.896,-47.884,-65.792
2940,0.7461,0.2856,-0.6143,0.122,0.000,0.122,154.902,-47.884,-65.792
2950,0.7446,0.2856,-0.6152,0.244,0.244,0.122,154.902,-47.884,-65.792
2960,0.7471,0.2842,-0.6138,0.244,0.488,0.000,154.907,-47.889,-65.792
2970,0.7495,0.2842,-0.6167,0.183,0.671,-0.183,154.907,-47.895,-65.792
2980,0.7495,0.2827,-0.6196,0.000,0.732,-0.366,154.907,-47.900,-65.792
2990,0.7476,0.2827,-0.6196,-0.305,0.671,-0.427,154.902,-47.900,-65.792
3000,0.7461,0.2822,-0.6191,-0.549,0.488,-0.488,154.896,-47.900,-65.792
3010,0.7466,0.2812,-0.6172,-0.671,0.366,-0.488,154.885,-47.900,-65.792
3020,0.7495,0.2827,-0.6152,-0.732,0.061,-0.366,154.880,-47.900,-65.792
3030,0.7471,0.2808,-0.6152,-0.488,-0.183,-0.122,154.880,-47.895,-65.792
3040,0.7495,0.2817,-0.6167,-0.122,-0.244,0.122,154.885,-47.895,-65.792
3050,0.7505,0.2827,-0.6162,0.427,-0.122,0.427,154.902,-47.895,-65.792
3060,0.7510,0.2837,-0.6172,0.793,0.122,0.671,154.918,-47.900,-65.792
3070,0.7505,0.2812,-0.6191,1.038,0.366,0.793,154.940,-47.906,-65.792
3080,0.7495,0.2803,-0.6191,0.916,0.488,0.671,154.962,-47.911,-65.792
3090,0.7500,0.2827,-0.6206,0.305,0.488,0.366,154.973,-47.917,-65.792
3100,0.7490,0.2832,-0.6216,-0.427,0.244,0.122,154.973,-47.917,-65.792
3110,0.7495,0.2842,-0.6167,-1.160,0.000,-0.122,154.962,-47.911,-65.792
3120,0.7485,0.2847,-0.6157,-1.526,-0.366,-0.183,154.951,-47.911,-65.792
3130,0.7485,0.2866,-0.6172,-1.526,-0.549,-0.183,154.940,-47.900,-65.792
3140,0.7480,0.2871,-0.6147,-1.160,-0.671,-0.061,154.929,-47.895,-65.792
3150,0.7471,0.2871,-0.6147,-0.488,-0.488,0.061,154.929,-47.889,-65.792
3160,0.7461,0.2861,-0.6182,0.183,-0.244,0.305,154.935,-47.884,-65.792
3170,0.7480,0.2856,-0.6157,0.732,0.244,0.427,154.946,-47.889,-65.792
3180,0.7490,0.2847,-0.6196,0.916,0.671,0.427,154.962,-47.895,-65.792
3190,0.7495,0.2847,-0.6235,0.916,1.099,0.305,154.973,-47.900,-65.792
3201,0.7505,0.2866,-0.6240,0.610,1.343,0.122,154.979,-47.911,-65.792
3210,0.7534,0.2861,-0.6265,0.366,1.221,-0.122,154.979,-47.917,-65.792
3220,0.7524,0.2866,-0.6270,-0.061,0.793,-0.366,154.979,-47.922,-65.792
3230,0.7520,0.2876,-0.6245,-0.488,0.061,-0.610,154.968,-47.917,-65.792
3240,0.7515,0.2866,-0.6226,-0.732,-0.732,-0.671,154.962,-47.900,-65.792
3250,0.7505,0.2837,-0.6182,-0.793,-1.465,-0.793,154.957,-47.884,-65.792
3260,0.7480,0.2803,-0.6157,-0.671,-1.892,-0.793,154.957,-47.867,-65.792
3270,0.7480,0.2788,-0.6138,-0.427,-2.014,-0.671,154.962,-47.845,-65.792
3280,0.7461,0.2778,-0.6099,-0.183,-1.648,-0.488,154.968,-47.829,-65.792
3290,0.7456,0.2783,-0.6108,0.061,-1.099,-0.366,154.973,-47.823,-65.792
3300,0.7422,0.2783,-0.6094,0.183,-0.427,-0.244,154.979,-47.818,-65.792
3310,0.7427,0.2803,-0.6089,0.305,0.244,-0.061,154.984,-47.823,-65.792
3320,0.7422,0.2803,-0.6113,0.305,0.793,0.122,154.990,-47.829,-65.792
3330,0.7451,0.2798,-0.6133,0.366,1.099,0.244,154.995,-47.840,-65.792
3340,0.7466,0.2832,-0.6167,0.488,1.221,0.244,155.001,-47.851,-65.792
3350,0.7476,0.2871,-0.6191,0.610,1.221,0.305,155.006,-47.862,-65.792
3360,0.7480,0.2852,-0.6187,0.732,1.038,0.366,155.012,-47.867,-65.792
3370,0.7476,0.2847,-0.6226,0.732,0.854,0.305,155.023,-47.878,-65.792
3380,0.7515,0.2832,-0.6240,0.610,0.549,0.183,155.034,-47.878,-65.792
3390,0.7490,0.2842,-0.6245,0.305,0.305,0.122,155.039,-47.878,-65.792
3400,0.7495,0.2852,-0.6230,0.000,0.183,0.000,155.045,-47.878,-65.792
3410,0.7500,0.2856,-0.6235,-0.244,0.061,-0.122,155.045,-47.873,-65.792
3420,0.7485,0.2852,-0.6230,-0.427,-0.061,-0.244,155.039,-47.867,-65.792
3430,0.7480,0.2827,-0.6230,-0.488,-0.244,-0.305,155.039,-47.862,-65.792
3440,0.7480,0.2832,-0.6201,-0.488,-0.305,-0.366,155.039,-47.856,-65.792
3450,0.7466,0.2832,-0.6206,-0.366,-0.488,-0.366,155.039,-47.845,-65.792
3460,0.7485,0.2817,-0.6177,-0.305,-0.549,-0.305,155.039,-47.840,-65.792
3470,0.7476,0.2793,-0.6157,-0.305,-0.488,-0.305,155.039,-47.834,-65.792
3480,0.7466,0.2803,-0.6172,-0.305,-0.366,-0.244,155.039,-47.829,-65.792
3490,0.7461,0.2812,-0.6172,-0.244,-0.183,-0.122,155.045,-47.829,-65.792
3500,0.7471,0.2798,-0.6191,-0.061,-0.122,0.000,155.050,-47.823,-65.792
3510,0.7451,0.2817,-0.6187,0.061,-0.061,0.061,155.056,-47.823,-65.792
3520,0.7466,0.2822,-0.6172,0.244,0.000,0.122,155.061,-47.823,-65.792
3530,0.7461,0.2837,-0.6191,0.305,0.000,0.122,155.072,-47.823,-65.792
3540,0.7466,0.2847,-0.6152,0.183,0.000,0.122,155.072,-47.823,-65.792
3550,0.7466,0.2847,-0.6138,0.000,0.000,0.122,155.078,-47.823,-65.792
3560,0.7451,0.2847,-0.6162,-0.061,0.000,0.122,155.078,-47.823,-65.792
3570,0.7471,0.2856,-0.6167,-0.061,0.122,0.061,155.078,-47.823,-65.792
3580,0.7490,0.2852,-0.6187,0.061,0.183,0.000,155.078,-47.823,-65.792
3590,0.7476,0.2852,-0.6211,0.000,0.244,0.000,155.078,-47.823,-65.792
3600,0.7495,0.2852,-0.6201,-0.061,0.366,-0.061,155.078,-47.823,-65.792
3610,0.7466,0.2832,-0.6201,-0.061,0.488,-0.061,155.078,-47.823,-65.792
3620,0.7476,0.2856,-0.6235,-0.122,0.549,-0.122,155.078,-47.829,-65.792
3630,0.7485,0.2847,-0.6235,-0.610,0.183,-0.244,155.072,-47.823,-65.792
3640,0.7476,0.2832,-0.6216,-0.916,-0.244,-0.305,155.067,-47.818,-65.792
3650,0.7466,0.2827,-0.6211,-0.916,-0.427,-0.305,155.061,-47.813,-65.792
3660,0.7471,0.2808,-0.6216,-0.671,-0.427,-0.305,155.061,-47.807,-65.792
3670,0.7490,0.2822,-0.6206,-0.244,-0.366,-0.183,155.061,-47.802,-65.792
3680,0.7480,0.2827,-0.6196,0.366,-0.183,0.000,155.072,-47.796,-65.792
3690,0.7485,0.2842,-0.6196,0.793,0.061,0.122,155.083,-47.796,-65.792
3700,0.7476,0.2847,-0.6206,0.854,0.122,0.061,155.094,-47.796,-65.792
3710,0.7466,0.2803,-0.6201,0.732,0.122,-0.061,155.105,-47.796,-65.792
3720,0.7456,0.2778,-0.6206,0.488,0.183,-0.122,155.116,-47.796,-65.792
3730,0.7456,0.2788,-0.6191,-0.061,0.244,-0.183,155.116,-47.796,-65.792
3740,0.7456,0.2817,-0.6182,-0.549,0.183,-0.244,155.110,-47.796,-65.792
3750,0.7456,0.2812,-0.6201,-0.732,0.061,-0.244,155.110,-47.791,-65.792
3760,0.7476,0.2827,-0.6172,-0.610,0.000,-0.061,155.105,-47.791,-65.792
3770,0.7476,0.2847,-0.6182,-0.244,0.000,0.061,155.105,-47.791,-65.792
3780,0.7466,0.2866,-0.6182,0.244,0.122,0.244,155.110,-47.791,-65.792
3790,0.7461,0.2837,-0.6182,0.671,0.244,0.305,155.121,-47.796,-65.792
3800,0.7456,0.2827,-0.6162,0.854,0.305,0.244,155.132,-47.796,-65.792
3810,0.7456,0.2817,-0.6196,0.671,0.366,0.061,155.143,-47.802,-65.792
3820,0.7466,0.2837,-0.6201,0.183,0.366,-0.183,155.143,-47.802,-65.792
3830,0.7471,0.2842,-0.6216,-0.305,0.366,-0.305,155.138,-47.802,-65.792
3840,0.7500,0.2856,-0.6191,-0.610,0.305,-0.305,155.127,-47.802,-65.792
3850,0.7505,0.2847,-0.6230,-0.427,0.244,-0.244,155.121,-47.802,-65.792
3860,0.7485,0.2837,-0.6221,-0.122,0.122,-0.122,155.121,-47.796,-65.792
3870,0.7480,0.2827,-0.6201,0.183,0.000,-0.061,155.127,-47.796,-65.792
3880,0.7471,0.2808,-0.6216,0.305,-0.244,-0.061,155.138,-47.791,-65.792
3890,0.7461,0.2788,-0.6226,0.122,-0.366,-0.061,155.149,-47.785,-65.792
3900,0.7461,0.2778,-0.6211,-0.244,-0.427,-0.122,155.154,-47.780,-65.792
3910,0.7441,0.2803,-0.6196,-0.610,-0.488,-0.183,155.154,-47.774,-65.792
3920,0.7437,0.2812,-0.6172,-0.854,-0.427,-0.183,155.149,-47.769,-65.792
3930,0.7437,0.2842,-0.6172,-0.854,-0.366,-0.061,155.143,-47.763,-65.792
3940,0.7441,0.2847,-0.6152,-0.549,-0.183,0.061,155.138,-47.763,-65.792
3950,0.7456,0.2847,-0.6152,-0.122,0.061,0.244,155.138,-47.763,-65.792
3960,0.7456,0.2861,-0.6167,0.305,0.305,0.488,155.143,-47.769,-65.792
3970,0.7466,0.2876,-0.6182,0.671,0.610,0.549,155.154,-47.774,-65.792
3980,0.7480,0.2886,-0.6216,0.854,0.854,0.549,155.165,-47.780,-65.792
3990,0.7485,0.2876,-0.6235,0.916,1.038,0.366,155.171,-47.791,-65.792
4000,0.7495,0.2871,-0.6245,0.732,1.160,0.183,155.176,-47.796,-65.792
4010,0.7505,0.2876,-0.6260,0.366,1.038,-0.061,155.176,-47.802,-65.792
4020,0.7544,0.2861,-0.6260,-0.122,0.732,-0.305,155.171,-47.807,-65.792
4030,0.7544,0.2856,-0.6216,-0.488,0.305,-0.488,155.160,-47.807,-65.792
4040,0.7520,0.2856,-0.6196,-0.793,-0.305,-0.610,155.149,-47.802,-65.792
4050,0.7515,0.2812,-0.6182,-0.854,-0.793,-0.732,155.143,-47.791,-65.792
4060,0.7495,0.2783,-0.6172,-0.854,-1.160,-0.732,155.138,-47.780,-65.792
4070,0.7485,0.2773,-0.6162,-0.854,-1.282,-0.671,155.132,-47.769,-65.792
4080,0.7441,0.2764,-0.6143,-0.732,-1.160,-0.427,155.132,-47.758,-65.792
4090,0.7422,0.2764,-0.6118,-0.488,-0.854,-0.183,155.138,-47.747,-65.792
4100,0.7407,0.2764,-0.6123,-0.183,-0.427,0.122,155.143,-47.747,-65.792
4110,0.7402,0.2788,-0.6108,0.183,0.061,0.366,155.154,-47.747,-65.792
4120,0.7402,0.2817,-0.6118,0.488,0.488,0.488,155.160,-47.752,-65.792
4130,0.7417,0.2793,-0.6152,0.732,0.854,0.549,155.176,-47.763,-65.792
4140,0.7437,0.2832,-0.6172,0.854,1.038,0.610,155.187,-47.774,-65.792
4150,0.7461,0.2847,-0.6177,0.854,1.160,0.549,155.193,-47.785,-65.792
4160,0.7471,0.2866,-0.6196,0.671,1.160,0.488,155.198,-47.796,-65.792
4170,0.7476,0.2852,-0.6230,0.427,1.099,0.366,155.204,-47.807,-65.792
4180,0.7490,0.2881,-0.6240,0.183,0.916,0.244,155.204,-47.813,-65.792
4190,0.7510,0.2866,-0.6250,-0.122,0.732,0.000,155.204,-47.813,-65.792
4201,0.7510,0.2861,-0.6250,-0.305,0.427,-0.183,155.198,-47.813,-65.792
4210,0.7505,0.2842,-0.6245,-0.427,0.000,-0.427,155.193,-47.813,-65.792
4220,0.7510,0.2856,-0.6240,-0.488,-0.122,-0.549,155.187,-47.807,-65.792
4230,0.7520,0.2812,-0.6211,-0.549,-0.305,-0.610,155.182,-47.802,-65.792
4240,0.7490,0.2769,-0.6221,-0.610,-0.366,-0.671,155.176,-47.796,-65.792
4250,0.7490,0.2773,-0.6191,-0.671,-0.366,-0.610,155.171,-47.791,-65.792
4260,0.7490,0.2764,-0.6187,-0.671,-0.427,-0.610,155.171,-47.785,-65.792
4270,0.7490,0.2793,-0.6201,-0.610,-0.488,-0.488,155.165,-47.774,-65.792
4280,0.7471,0.2778,-0.6177,-0.488,-0.488,-0.366,155.165,-47.769,-65.792
4290,0.7466,0.2773,-0.6182,-0.305,-0.427,-0.122,155.171,-47.769,-65.792
4300,0.7461,0.2769,-0.6182,-0.183,-0.305,0.000,155.176,-47.763,-65.792
4310,0.7446,0.2783,-0.6182,-0.122,-0.244,0.061,155.182,-47.763,-65.792
4320,0.7437,0.2798,-0.6182,-0.183,-0.183,0.183,155.187,-47.758,-65.792
4330,0.7437,0.2803,-0.6191,-0.244,-0.122,0.305,155.193,-47.758,-65.792
4340,0.7446,0.2847,-0.6172,-0.244,-0.061,0.305,155.198,-47.758,-65.792
4350,0.7456,0.2861,-0.6177,-0.244,-0.061,0.366,155.198,-47.758,-65.792
4360,0.7451,0.2876,-0.6216,-0.122,0.122,0.366,155.198,-47.758,-65.792
4370,0.7446,0.2871,-0.6201,0.000,0.244,0.305,155.198,-47.758,-65.792
4380,0.7441,0.2866,-0.6206,0.000,0.305,0.244,155.204,-47.758,-65.792
4390,0.7456,0.2886,-0.6206,-0.061,0.305,0.122,155.198,-47.758,-65.792
4400,0.7456,0.2881,-0.6196,-0.183,0.244,-0.061,155.193,-47.758,-65.792
4410,0.7461,0.2876,-0.6187,-0.366,0.061,-0.183,155.187,-47.758,-65.792
4420,0.7461,0.2871,-0.6177,-0.427,-0.061,-0.305,155.182,-47.752,-65.792
4430,0.7461,0.2876,-0.6152,-0.488,-0.122,-0.427,155.171,-47.747,-65.792
4440,0.7466,0.2861,-0.6152,-0.366,-0.061,-0.488,155.160,-47.747,-65.792
4450,0.7476,0.2861,-0.6162,-0.244,0.061,-0.549,155.149,-47.747,-65.792
4460,0.7461,0.2842,-0.6162,-0.183,0.244,-0.488,155.143,-47.747,-65.792
4470,0.7471,0.2817,-0.6147,-0.122,0.427,-0.427,155.138,-47.747,-65.792
4480,0.7485,0.2793,-0.6172,-0.061,0.671,-0.366,155.138,-47.752,-65.792
4490,0.7490,0.2817,-0.6167,-0.061,0.793,-0.244,155.132,-47.758,-65.792
4500,0.7495,0.2812,-0.6182,0.000,0.916,-0.183,155.132,-47.769,-65.792
4510,0.7471,0.2812,-0.6211,0.000,0.916,-0.122,155.132,-47.774,-65.792
4520,0.7490,0.2793,-0.6206,0.000,0.854,-0.061,155.132,-47.780,-65.792
4530,0.7490,0.2793,-0.6196,0.000,0.793,0.061,155.132,-47.791,-65.792
4540,0.7495,0.2803,-0.6182,0.000,0.671,0.183,155.138,-47.796,-65.792
4550,0.7500,0.2798,-0.6191,0.061,0.488,0.305,155.143,-47.802,-65.792
4560,0.7500,0.2808,-0.6216,0.000,0.427,0.366,155.154,-47.807,-65.792
4570,0.7490,0.2817,-0.6201,0.000,0.305,0.427,155.160,-47.813,-65.792
4580,0.7505,0.2822,-0.6211,0.000,0.244,0.427,155.165,-47.813,-65.792
4590,0.7495,0.2837,-0.6187,0.000,0.244,0.427,155.171,-47.818,-65.792
4600,0.7456,0.2852,-0.6206,0.000,0.183,0.427,155.176,-47.818,-65.792
4610,0.7451,0.2852,-0.6162,-0.061,0.183,0.305,155.176,-47.818,-65.792
4620,0.7427,0.2866,-0.6152,-0.183,0.122,0.122,155.176,-47.818,-65.792
4630,0.7437,0.2861,-0.6167,-0.305,0.122,0.061,155.171,-47.818,-65.792
4640,0.7471,0.2871,-0.6167,-0.305,0.183,0.122,155.165,-47.818,-65.792
4650,0.7485,0.2847,-0.6187,-0.183,0.244,0.183,155.165,-47.823,-65.792
4660,0.7500,0.2852,-0.6162,0.061,0.488,0.305,155.171,-47.829,-65.792
4670,0.7495,0.2842,-0.6187,0.305,0.671,0.305,155.171,-47.834,-65.792
4680,0.7510,0.2817,-0.6216,0.366,0.732,0.183,155.182,-47.840,-65.792
4690,0.7534,0.2793,-0.6196,0.122,0.610,0.000,155.182,-47.845,-65.792
4701,0.7515,0.2808,-0.6182,-0.305,0.366,-0.122,155.182,-47.851,-65.792
4710,0.7520,0.2803,-0.6187,-0.549,0.000,-0.244,155.176,-47.851,-65.792
4720,0.7505,0.2827,-0.6201,-0.793,-0.183,-0.305,155.171,-47.845,-65.792
4730,0.7500,0.2817,-0.6182,-0.793,-0.244,-0.244,155.165,-47.840,-65.792
4740,0.7485,0.2817,-0.6177,-0.610,-0.183,-0.122,155.160,-47.840,-65.792
4750,0.7505,0.2827,-0.6201,-0.244,-0.122,0.000,155.165,-47.840,-65.792
4760,0.7495,0.2822,-0.6211,0.122,-0.061,0.183,155.171,-47.834,-65.792
4770,0.7490,0.2842,-0.6206,0.427,0.061,0.305,155.182,-47.834,-65.792
4780,0.7500,0.2842,-0.6230,0.671,0.183,0.305,155.193,-47.840,-65.792
4790,0.7476,0.2852,-0.6226,0.671,0.244,0.244,155.204,-47.840,-65.792
4800,0.7500,0.2856,-0.6265,0.488,0.183,0.122,155.209,-47.834,-65.792
4809,0.7524,0.2861,-0.6265,0.244,0.000,0.000,155.215,-47.834,-65.792
4820,0.7529,0.2861,-0.6240,0.122,-0.183,-0.061,155.220,-47.829,-65.792
4830,0.7520,0.2866,-0.6226,-0.061,-0.488,-0.183,155.220,-47.823,-65.792
4840,0.7505,0.2866,-0.6201,-0.122,-0.854,-0.305,155.215,-47.813,-65.792
4850,0.7500,0.2837,-0.6177,-0.244,-1.221,-0.427,155.215,-47.802,-65.792
4860,0.7480,0.2817,-0.6152,-0.427,-1.526,-0.549,155.215,-47.785,-65.792
4870,0.7485,0.2817,-0.6118,-0.549,-1.587,-0.671,155.215,-47.769,-65.792
4880,0.7461,0.2803,-0.6108,-0.610,-1.526,-0.671,155.209,-47.758,-65.792
4890,0.7446,0.2812,-0.6094,-0.549,-1.160,-0.610,155.204,-47.747,-65.792
4900,0.7441,0.2817,-0.6084,-0.305,-0.732,-0.488,155.198,-47.741,-65.792
4910,0.7446,0.2808,-0.6104,0.000,-0.244,-0.305,155.198,-47.736,-65.792
4920,0.7437,0.2822,-0.6108,0.305,0.305,-0.183,155.198,-47.741,-65.792
4930,0.7446,0.2812,-0.6123,0.549,0.732,-0.061,155.198,-47.747,-65.792
4940,0.7432,0.2827,-0.6157,0.671,0.977,0.000,155.204,-47.758,-65.792
4950,0.7456,0.2817,-0.6177,0.732,1.160,0.061,155.209,-47.769,-65.792
4960,0.7456,0.2822,-0.6191,0.610,1.160,0.061,155.209,-47.774,-65.792
4970,0.7490,0.2832,-0.6216,0.549,1.038,0.061,155.215,-47.785,-65.792
4980,0.7500,0.2842,-0.6226,0.488,0.793,0.061,155.220,-47.791,-65.792
4990,0.7495,0.2842,-0.6265,0.427,0.549,0.000,155.226,-47.791,-65.792
5000,0.7505,0.2852,-0.6250,0.366,0.183,-0.061,155.231,-47.791,-65.792
5010,0.7495,0.2842,-0.6211,0.244,-0.122,-0.122,155.231,-47.791,-65.792
5020,0.7480,0.2837,-0.6240,0.000,-0.366,-0.183,155.237,-47.780,-65.792
5030,0.7471,0.2817,-0.6226,-0.183,-0.671,-0.244,155.242,-47.774,-65.792
5040,0.7466,0.2812,-0.6211,-0.305,-0.916,-0.244,155.242,-47.763,-65.792
5050,0.7480,0.2822,-0.6201,-0.305,-0.977,-0.183,155.242,-47.752,-65.792
5060,0.7476,0.2822,-0.6177,-0.183,-0.977,-0.122,155.248,-47.741,-65.792
5070,0.7466,0.2817,-0.6147,0.061,-0.732,0.000,155.253,-47.736,-65.792
5080,0.7480,0.2808,-0.6167,0.244,-0.488,0.122,155.264,-47.736,-65.792
5090,0.7480,0.2812,-0.6147,0.427,-0.305,0.122,155.270,-47.736,-65.792
5100,0.7476,0.2822,-0.6162,0.427,-0.122,0.122,155.275,-47.736,-65.792
5109,0.7480,0.2812,-0.6167,0.305,0.000,0.122,155.286,-47.736,-65.792
5120,0.7471,0.2837,-0.6167,0.122,0.061,0.061,155.286,-47.736,-65.792
5130,0.7480,0.2842,-0.6167,0.061,0.061,0.061,155.286,-47.736,-65.792
5140,0.7461,0.2852,-0.6157,0.000,-0.061,0.122,155.286,-47.736,-65.792
5150,0.7461,0.2871,-0.6128,0.061,-0.183,0.122,155.286,-47.736,-65.792
5160,0.7456,0.2891,-0.6147,0.305,-0.244,0.183,155.286,-47.736,-65.792
5170,0.7456,0.2891,-0.6128,0.549,-0.183,0.183,155.286,-47.736,-65.792
5180,0.7461,0.2920,-0.6133,0.916,-0.061,0.244,155.292,-47.736,-65.792
5190,0.7456,0.2910,-0.6099,1.221,0.061,0.244,155.297,-47.736,-65.792
5200,0.7461,0.2881,-0.6138,1.709,0.244,0.183,155.314,-47.741,-65.792
5210,0.7471,0.2842,-0.6191,1.770,0.610,-0.183,155.325,-47.741,-65.792
5220,0.7490,0.2817,-0.6201,1.465,1.160,-0.549,155.330,-47.752,-65.792
5229,0.7485,0.2808,-0.6211,0.854,1.526,-0.793,155.330,-47.763,-65.792
5239,0.7520,0.2803,-0.6230,0.061,1.709,-0.977,155.319,-47.774,-65.792
5250,0.7490,0.2788,-0.6250,-0.366,1.404,-1.160,155.303,-47.780,-65.770
5260,0.7490,0.2793,-0.6211,-0.488,0.977,-1.160,155.286,-47.780,-65.748
5270,0.7485,0.2783,-0.6235,-0.244,0.427,-1.038,155.275,-47.780,-65.731
5280,0.7480,0.2754,-0.6230,0.305,-0.122,-0.671,155.281,-47.774,-65.720
5290,0.7480,0.2754,-0.6216,0.854,-0.366,-0.244,155.297,-47.769,-65.720
5300,0.7485,0.2734,-0.6211,1.221,-0.427,0.061,155.325,-47.769,-65.726
5310,0.7480,0.2769,-0.6206,1.221,-0.366,0.244,155.347,-47.763,-65.731
5320,0.7476,0.2754,-0.6221,1.038,-0.244,0.366,155.369,-47.763,-65.737
5330,0.7490,0.2773,-0.6230,0.671,-0.183,0.366,155.385,-47.763,-65.742
5340,0.7500,0.2793,-0.6216,0.244,-0.122,0.305,155.396,-47.763,-65.748
5350,0.7495,0.2822,-0.6191,-0.122,-0.122,0.305,155.402,-47.763,-65.753
5360,0.7515,0.2871,-0.6172,-0.244,-0.183,0.305,155.396,-47.763,-65.759
5370,0.7510,0.2871,-0.6172,-0.061,-0.305,0.305,155.396,-47.763,-65.764
5380,0.7515,0.2866,-0.6172,0.122,-0.427,0.244,155.402,-47.763,-65.770
5390,0.7500,0.2861,-0.6167,0.305,-0.427,0.122,155.402,-47.758,-65.775
5400,0.7490,0.2861,-0.6152,0.244,-0.427,-0.061,155.402,-47.752,-65.775
5410,0.7441,0.2861,-0.6138,0.000,-0.427,-0.305,155.396,-47.747,-65.775
5420,0.7461,0.2852,-0.6167,-0.366,-0.366,-0.488,155.391,-47.741,-65.770
5430,0.7471,0.2832,-0.6157,-0.610,-0.244,-0.610,155.380,-47.741,-65.764
5440,0.7471,0.2827,-0.6133,-0.549,-0.061,-0.610,155.363,-47.736,-65.753
5450,0.7485,0.2847,-0.6133,-0.183,0.122,-0.427,155.358,-47.741,-65.748
5460,0.7520,0.2808,-0.6162,0.183,0.366,-0.183,155.358,-47.747,-65.742
5470,0.7515,0.2832,-0.6182,0.610,0.549,-0.061,155.358,-47.752,-65.737
5480,0.7510,0.2793,-0.6201,0.793,0.549,0.000,155.369,-47.758,-65.737
5490,0.7505,0.2778,-0.6221,0.610,0.427,0.000,155.380,-47.758,-65.731
5500,0.7485,0.2773,-0.6211,0.183,0.244,-0.122,155.385,-47.763,-65.731
5510,0.7505,0.2769,-0.6226,-0.244,0.122,-0.183,155.385,-47.763,-65.726
5520,0.7510,0.2817,-0.6230,-0.610,-0.061,-0.305,155.380,-47.758,-65.720
5530,0.7495,0.2798,-0.6201,-0.793,-0.305,-0.305,155.374,-47.758,-65.720
5540,0.7476,0.2808,-0.6196,-0.671,-0.488,-0.183,155.369,-47.752,-65.720
5550,0.7471,0.2822,-0.6177,-0.366,-0.671,0.000,155.369,-47.747,-65.726
5560,0.7466,0.2803,-0.6177,0.061,-0.671,0.244,155.380,-47.741,-65.731
5570,0.7446,0.2827,-0.6187,0.549,-0.549,0.549,155.391,-47.736,-65.742
5580,0.7466,0.2842,-0.6177,0.916,-0.305,0.610,155.407,-47.736,-65.753
5590,0.7471,0.2856,-0.6216,1.160,-0.122,0.671,155.424,-47.736,-65.764
5600,0.7480,0.2866,-0.6235,1.160,0.183,0.549,155.440,-47.736,-65.770
5610,0.7500,0.2861,-0.6226,0.977,0.427,0.305,155.451,-47.741,-65.770
5620,0.7515,0.2876,-0.6226,0.610,0.366,0.000,155.451,-47.741,-65.770
5630,0.7529,0.2861,-0.6230,0.061,0.061,-0.305,155.446,-47.741,-65.764
5640,0.7515,0.2886,-0.6221,-0.427,-0.366,-0.610,155.435,-47.736,-65.759
5650,0.7510,0.2852,-0.6191,-0.793,-0.854,-0.793,155.424,-47.725,-65.753
5660,0.7495,0.2822,-0.6162,-0.916,-1.221,-0.916,155.407,-47.708,-65.748
5670,0.7485,0.2798,-0.6152,-0.793,-1.465,-0.916,155.402,-47.697,-65.742
5680,0.7476,0.2783,-0.6123,-0.549,-1.404,-0.732,155.396,-47.681,-65.742
5690,0.7466,0.2754,-0.6123,-0.244,-1.160,-0.427,155.396,-47.675,-65.748
5700,0.7471,0.2759,-0.6133,0.061,-0.671,-0.183,155.402,-47.670,-65.748
5710,0.7446,0.2759,-0.6128,0.366,-0.122,0.000,155.413,-47.670,-65.748
5720,0.7441,0.2773,-0.6128,0.488,0.427,0.183,155.418,-47.681,-65.748
5730,0.7427,0.2788,-0.6133,0.549,0.793,0.305,155.424,-47.686,-65.748
5740,0.7456,0.2798,-0.6191,0.549,0.977,0.366,155.429,-47.697,-65.748
5750,0.7466,0.2822,-0.6226,0.488,0.916,0.427,155.440,-47.708,-65.748
5760,0.7466,0.2842,-0.6221,0.549,0.732,0.488,155.446,-47.714,-65.748
5770,0.7471,0.2852,-0.6235,0.549,0.427,0.488,155.451,-47.719,-65.753
5780,0.7485,0.2856,-0.6226,0.549,-0.061,0.427,155.462,-47.719,-65.759
5790,0.7495,0.2866,-0.6216,0.610,-0.488,0.305,155.473,-47.714,-65.764
5800,0.7485,0.2852,-0.6196,0.549,-0.793,0.122,155.479,-47.708,-65.770
5810,0.7480,0.2847,-0.6191,0.366,-0.916,0.000,155.484,-47.697,-65.775
5820,0.7461,0.2852,-0.6187,0.183,-0.854,-0.122,155.490,-47.686,-65.781
5830,0.7456,0.2847,-0.6172,0.000,-0.732,-0.244,155.484,-47.681,-65.781
5840,0.7480,0.2852,-0.6177,-0.122,-0.549,-0.366,155.479,-47.675,-65.781
5850,0.7461,0.2832,-0.6147,-0.183,-0.366,-0.488,155.473,-47.670,-65.775
5860,0.7490,0.2812,-0.6143,-0.183,-0.244,-0.549,155.468,-47.670,-65.770
5870,0.7471,0.2788,-0.6152,-0.061,0.000,-0.549,155.462,-47.670,-65.764
5880,0.7500,0.2793,-0.6162,0.061,0.183,-0.488,155.457,-47.670,-65.753
5890,0.7495,0.2783,-0.6152,0.244,0.305,-0.366,155.457,-47.675,-65.748
5900,0.7485,0.2793,-0.6196,0.366,0.427,-0.305,155.462,-47.681,-65.742
5910,0.7471,0.2778,-0.6216,0.427,0.549,-0.305,155.462,-47.681,-65.731
5920,0.7480,0.2773,-0.6216,0.366,0.549,-0.244,155.468,-47.686,-65.726
5930,0.7490,0.2788,-0.6230,0.244,0.427,-0.122,155.468,-47.692,-65.720
5940,0.7495,0.2783,-0.6216,0.122,0.183,0.000,155.473,-47.692,-65.720
5950,0.7476,0.2808,-0.6216,0.122,0.000,0.122,155.479,-47.692,-65.726
5960,0.7500,0.2822,-0.6221,0.183,-0.244,0.183,155.484,-47.692,-65.726
5970,0.7485,0.2822,-0.6221,0.244,-0.366,0.244,155.490,-47.686,-65.731
5980,0.7485,0.2822,-0.6196,0.366,-0.488,0.244,155.500,-47.686,-65.737
5990,0.7495,0.2847,-0.6211,0.366,-0.549,0.244,155.506,-47.681,-65.748
6000,0.7485,0.2847,-0.6206,0.183,-0.488,0.122,155.511,-47.675,-65.753
6010,0.7495,0.2837,-0.6191,0.000,-0.427,0.061,155.511,-47.675,-65.753
6020,0.7476,0.2856,-0.6172,-0.122,-0.427,-0.122,155.511,-47.670,-65.753
6030,0.7476,0.2856,-0.6187,-0.244,-0.427,-0.244,155.500,-47.664,-65.753
6040,0.7476,0.2852,-0.6157,-0.305,-0.366,-0.366,155.495,-47.659,-65.753
6050,0.7471,0.2852,-0.6147,-0.244,-0.305,-0.427,155.484,-47.659,-65.748
6060,0.7480,0.2842,-0.6143,-0.122,-0.183,-0.427,155.479,-47.659,-65.742
6070,0.7466,0.2837,-0.6162,0.061,-0.061,-0.427,155.473,-47.653,-65.737
6080,0.7471,0.2812,-0.6172,0.183,0.122,-0.366,155.468,-47.659,-65.731
6090,0.7456,0.2798,-0.6167,0.244,0.305,-0.366,155.468,-47.659,-65.726
6100,0.7437,0.2812,-0.6172,0.183,0.305,-0.366,155.468,-47.659,-65.720
6110,0.7456,0.2808,-0.6172,0.183,0.366,-0.305,155.462,-47.664,-65.709
6120,0.7480,0.2812,-0.6162,0.183,0.244,-0.244,155.462,-47.664,-65.709
6130,0.7461,0.2817,-0.6172,0.244,0.122,-0.122,155.462,-47.670,-65.704
6140,0.7490,0.2817,-0.6206,0.488,0.122,0.000,155.468,-47.670,-65.704
6150,0.7490,0.2827,-0.6191,0.732,0.122,0.122,155.479,-47.670,-65.704
6160,0.7490,0.2827,-0.6182,0.854,0.183,0.122,155.484,-47.675,-65.704
6170,0.7490,0.2817,-0.6191,0.854,0.244,0.061,155.495,-47.675,-65.704
6180,0.7495,0.2837,-0.6191,0.610,0.305,0.000,155.495,-47.681,-65.704
6190,0.7490,0.2832,-0.6191,0.427,0.305,-0.122,155.495,-47.686,-65.698
6201,0.7510,0.2837,-0.6245,0.244,0.305,-0.244,155.495,-47.686,-65.693
6210,0.7505,0.2827,-0.6216,0.000,0.183,-0.244,155.495,-47.686,-65.687
6220,0.7490,0.2847,-0.6201,0.183,0.000,-0.122,155.495,-47.686,-65.687
6230,0.7476,0.2798,-0.6211,0.427,-0.244,0.061,155.500,-47.681,-65.693
6240,0.7476,0.2803,-0.6187,0.671,-0.427,0.122,155.511,-47.681,-65.693
6250,0.7466,0.2793,-0.6201,0.671,-0.488,0.122,155.522,-47.675,-65.698
6260,0.7471,0.2798,-0.6191,0.549,-0.427,0.061,155.533,-47.675,-65.704
6270,0.7476,0.2788,-0.6152,0.244,-0.305,0.061,155.539,-47.675,-65.704
6280,0.7476,0.2803,-0.6162,-0.061,-0.183,0.122,155.539,-47.675,-65.704
6290,0.7495,0.2827,-0.6172,-0.244,-0.061,0.122,155.539,-47.675,-65.704
6300,0.7490,0.2847,-0.6167,-0.122,0.061,0.183,155.533,-47.675,-65.704
6310,0.7480,0.2852,-0.6147,0.122,0.061,0.183,155.533,-47.681,-65.704
6320,0.7490,0.2822,-0.6167,0.244,-0.061,0.183,155.539,-47.681,-65.704
6330,0.7485,0.2803,-0.6187,0.183,-0.244,0.183,155.544,-47.681,-65.704
6340,0.7485,0.2822,-0.6191,-0.061,-0.244,0.122,155.544,-47.681,-65.704
6350,0.7480,0.2803,-0.6187,-0.305,-0.183,0.061,155.544,-47.681,-65.704
6360,0.7480,0.2812,-0.6196,-0.549,0.000,-0.061,155.539,-47.681,-65.704
6370,0.7461,0.2812,-0.6196,-0.854,0.183,-0.122,155.528,-47.681,-65.704
6380,0.7476,0.2778,-0.6187,-0.916,0.366,-0.122,155.517,-47.686,-65.704
6390,0.7451,0.2798,-0.6201,-0.793,0.366,0.000,155.511,-47.686,-65.704
6400,0.7456,0.2812,-0.6211,-0.427,0.366,0.061,155.506,-47.692,-65.704
6410,0.7471,0.2817,-0.6230,-0.061,0.305,0.183,155.506,-47.692,-65.704
6420,0.7476,0.2847,-0.6226,0.305,0.244,0.244,155.511,-47.692,-65.704
6430,0.7480,0.2842,-0.6255,0.610,0.244,0.244,155.517,-47.692,-65.704
6440,0.7515,0.2837,-0.6250,0.671,0.244,0.244,155.528,-47.697,-65.704
6450,0.7515,0.2822,-0.6265,0.610,0.244,0.183,155.539,-47.697,-65.704
6460,0.7520,0.2827,-0.6226,0.244,0.061,0.000,155.539,-47.697,-65.704
6470,0.7520,0.2808,-0.6221,-0.366,-0.183,-0.244,155.533,-47.697,-65.704
6480,0.7520,0.2812,-0.6206,-0.854,-0.610,-0.488,155.528,-47.692,-65.704
6490,0.7495,0.2817,-0.6191,-1.160,-1.038,-0.610,155.511,-47.681,-65.704
6500,0.7476,0.2812,-0.6167,-1.343,-1.404,-0.671,155.500,-47.664,-65.704
6510,0.7476,0.2798,-0.6128,-1.282,-1.404,-0.610,155.490,-47.653,-65.704
6520,0.7476,0.2798,-0.6123,-0.977,-1.221,-0.427,155.479,-47.648,-65.704
6530,0.7451,0.2773,-0.6113,-0.610,-0.793,-0.183,155.473,-47.642,-65.704
6540,0.7422,0.2773,-0.6113,-0.305,-0.244,0.000,155.473,-47.642,-65.704
6550,0.7427,0.2764,-0.6138,-0.183,0.244,0.122,155.473,-47.648,-65.704
6560,0.7437,0.2769,-0.6147,-0.183,0.610,0.183,155.473,-47.653,-65.704
6570,0.7441,0.2798,-0.6152,-0.305,0.916,0.305,155.473,-47.664,-65.704
6580,0.7461,0.2817,-0.6191,-0.305,0.916,0.427,155.468,-47.675,-65.704
6590,0.7471,0.2847,-0.6187,-0.244,0.916,0.488,155.468,-47.686,-65.704
6600,0.7471,0.2861,-0.6177,-0.061,0.793,0.549,155.462,-47.692,-65.704
6610,0.7471,0.2837,-0.6226,0.061,0.671,0.610,155.468,-47.703,-65.704
6620,0.7461,0.2842,-0.6216,0.061,0.488,0.549,155.473,-47.708,-65.704
6630,0.7471,0.2842,-0.6226,-0.061,0.305,0.427,155.473,-47.708,-65.704
6640,0.7471,0.2832,-0.6245,-0.366,0.183,0.244,155.473,-47.708,-65.704
6650,0.7471,0.2837,-0.6221,-0.549,0.122,0.122,155.468,-47.708,-65.704
6660,0.7485,0.2847,-0.6206,-0.732,0.122,0.000,155.457,-47.708,-65.704
6670,0.7495,0.2842,-0.6206,-0.732,0.122,-0.122,155.451,-47.708,-65.704
6680,0.7515,0.2827,-0.6206,-0.610,0.061,-0.183,155.440,-47.708,-65.704
6690,0.7495,0.2798,-0.6216,-0.610,0.122,-0.305,155.435,-47.708,-65.704
6700,0.7495,0.2778,-0.6187,-0.793,-0.061,-0.488,155.429,-47.708,-65.704
6710,0.7485,0.2783,-0.6182,-1.099,-0.183,-0.549,155.413,-47.708,-65.704
6720,0.7466,0.2783,-0.6196,-1.282,-0.183,-0.427,155.402,-47.703,-65.704
6730,0.7490,0.2793,-0.6138,-1.160,-0.122,-0.183,155.391,-47.703,-65.704
6740,0.7485,0.2793,-0.6167,-0.793,0.061,0.061,155.385,-47.708,-65.704
6750,0.7485,0.2769,-0.6177,-0.305,0.366,0.366,155.391,-47.714,-65.704
6760,0.7500,0.2764,-0.6182,0.183,0.671,0.488,155.396,-47.725,-65.704
6770,0.7505,0.2773,-0.6191,0.183,0.793,0.549,155.407,-47.736,-65.704
6780,0.7495,0.2793,-0.6196,-0.244,0.793,0.488,155.407,-47.747,-65.704
6790,0.7480,0.2812,-0.6216,-0.793,0.549,0.427,155.407,-47.752,-65.704
6800,0.7505,0.2852,-0.6182,-1.221,0.244,0.366,155.396,-47.758,-65.704
6810,0.7476,0.2861,-0.6172,-1.221,0.000,0.366,155.385,-47.758,-65.704
6820,0.7490,0.2876,-0.6152,-0.977,0.000,0.427,155.374,-47.758,-65.704
6830,0.7480,0.2876,-0.6182,-0.610,0.061,0.488,155.369,-47.758,-65.704
6840,0.7495,0.2871,-0.6162,-0.244,0.183,0.549,155.369,-47.763,-65.704
6850,0.7495,0.2866,-0.6191,-0.122,0.366,0.549,155.369,-47.769,-65.704
6860,0.7490,0.2866,-0.6172,-0.183,0.549,0.366,155.363,-47.774,-65.704
6870,0.7505,0.2852,-0.6187,-0.488,0.671,0.122,155.358,-47.780,-65.704
6880,0.7495,0.2842,-0.6187,-0.916,0.549,-0.183,155.341,-47.785,-65.704
6890,0.7505,0.2856,-0.6182,-1.160,0.305,-0.427,155.325,-47.785,-65.704
6900,0.7505,0.2861,-0.6216,-1.160,-0.061,-0.427,155.308,-47.785,-65.704
6910,0.7510,0.2842,-0.6167,-0.916,-0.244,-0.305,155.297,-47.780,-65.704
6920,0.7510,0.2827,-0.6196,-0.549,-0.305,-0.183,155.292,-47.780,-65.704
6930,0.7495,0.2822,-0.6167,-0.183,-0.305,0.000,155.292,-47.774,-65.704
6940,0.7505,0.2822,-0.6152,0.183,-0.122,0.122,155.297,-47.780,-65.704
6950,0.7510,0.2808,-0.6177,0.366,0.122,0.244,155.303,-47.780,-65.704
6960,0.7500,0.2808,-0.6172,0.366,0.427,0.244,155.314,-47.785,-65.704
6970,0.7500,0.2808,-0.6172,0.122,0.549,0.122,155.314,-47.796,-65.704
6980,0.7510,0.2832,-0.6167,-0.183,0.488,-0.061,155.308,-47.802,-65.704
6990,0.7520,0.2812,-0.6157,-0.488,0.244,-0.183,155.303,-47.802,-65.704
7000,0.7505,0.2808,-0.6143,-0.671,-0.061,-0.183,155.297,-47.802,-65.704
7010,0.7485,0.2842,-0.6152,-0.610,-0.305,-0.122,155.292,-47.802,-65.704
7020,0.7480,0.2842,-0.6143,-0.366,-0.488,0.000,155.286,-47.796,-65.704
7030,0.7490,0.2817,-0.6157,0.000,-0.427,0.183,155.292,-47.796,-65.704
7040,0.7495,0.2832,-0.6157,0.427,-0.122,0.305,155.297,-47.796,-65.704
7050,0.7510,0.2822,-0.6162,0.671,0.183,0.366,155.308,-47.802,-65.704
7060,0.7515,0.2817,-0.6201,0.610,0.427,0.305,155.319,-47.807,-65.704
7070,0.7524,0.2808,-0.6221,0.244,0.427,0.061,155.325,-47.813,-65.704
7080,0.7520,0.2817,-0.6216,-0.122,0.183,-0.122,155.325,-47.813,-65.704
7090,0.7505,0.2817,-0.6211,-0.488,-0.122,-0.305,155.319,-47.807,-65.704
7100,0.7515,0.2822,-0.6211,-0.732,-0.549,-0.305,155.314,-47.802,-65.704
7110,0.7520,0.2842,-0.6172,-0.671,-0.854,-0.183,155.308,-47.796,-65.704
7120,0.7490,0.2832,-0.6162,-0.427,-1.038,0.000,155.308,-47.785,-65.704
7130,0.7500,0.2812,-0.6167,-0.061,-1.099,0.183,155.319,-47.780,-65.704
7140,0.7471,0.2822,-0.6167,0.244,-1.099,0.244,155.330,-47.769,-65.704
7150,0.7461,0.2812,-0.6157,0.366,-0.854,0.122,155.336,-47.763,-65.704
7160,0.7451,0.2822,-0.6152,0.244,-0.549,0.000,155.341,-47.758,-65.704
7170,0.7446,0.2817,-0.6147,0.061,-0.366,-0.122,155.347,-47.752,-65.704
7180,0.7456,0.2812,-0.6152,-0.122,-0.366,-0.183,155.347,-47.752,-65.704
7190,0.7495,0.2827,-0.6157,-0.183,-0.427,-0.122,155.341,-47.747,-65.704
7200,0.7515,0.2852,-0.6152,0.061,-0.549,0.061,155.347,-47.747,-65.704
7210,0.7520,0.2856,-0.6147,0.610,-0.610,0.305,155.352,-47.741,-65.704
7220,0.7529,0.2837,-0.6138,1.160,-0.732,0.549,155.374,-47.741,-65.704
7230,0.7505,0.2798,-0.6172,1.465,-0.916,0.671,155.402,-47.741,-65.704
7240,0.7500,0.2773,-0.6196,1.404,-0.854,0.549,155.429,-47.736,-65.704
7250,0.7485,0.2778,-0.6196,0.916,-0.793,0.366,155.451,-47.730,-65.704
7260,0.7500,0.2778,-0.6191,0.244,-0.854,0.305,155.462,-47.725,-65.704
7270,0.7490,0.2783,-0.6201,-0.122,-0.854,0.305,155.473,-47.719,-65.704
7280,0.7500,0.2798,-0.6187,-0.305,-0.977,0.305,155.479,-47.714,-65.704
7290,0.7485,0.2803,-0.6177,-0.122,-0.977,0.305,155.484,-47.708,-65.704
7300,0.7485,0.2812,-0.6201,0.122,-0.977,0.427,155.495,-47.697,-65.704
7310,0.7490,0.2817,-0.6211,0.549,-0.854,0.610,155.511,-47.692,-65.704
7320,0.7466,0.2827,-0.6211,0.854,-0.610,0.732,155.533,-47.692,-65.704
7330,0.7466,0.2822,-0.6274,1.099,-0.366,0.671,155.550,-47.686,-65.704
7340,0.7471,0.2827,-0.6255,1.099,-0.122,0.549,155.572,-47.686,-65.704
7350,0.7480,0.2822,-0.6260,0.732,-0.122,0.305,155.583,-47.681,-65.704
7360,0.7451,0.2832,-0.6274,0.183,-0.488,0.061,155.588,-47.675,-65.704
7370,0.7476,0.2827,-0.6250,-0.244,-0.916,-0.122,155.588,-47.664,-65.704
7380,0.7485,0.2837,-0.6211,-0.549,-1.343,-0.183,155.588,-47.653,-65.704
7390,0.7495,0.2847,-0.6162,-0.610,-1.587,-0.244,155.583,-47.637,-65.704
7400,0.7480,0.2822,-0.6123,-0.549,-1.709,-0.244,155.577,-47.626,-65.704
7410,0.7466,0.2803,-0.6113,-0.427,-1.587,-0.244,155.577,-47.615,-65.704
7420,0.7417,0.2803,-0.6113,-0.366,-1.343,-0.244,155.577,-47.604,-65.704
7430,0.7422,0.2783,-0.6128,-0.427,-0.916,-0.366,155.572,-47.593,-65.704
7440,0.7437,0.2778,-0.6108,-0.549,-0.305,-0.366,155.561,-47.593,-65.704
7450,0.7437,0.2764,-0.6113,-0.549,0.244,-0.366,155.555,-47.598,-65.704
7460,0.7432,0.2783,-0.6118,-0.488,0.732,-0.305,155.544,-47.604,-65.704
7470,0.7422,0.2773,-0.6167,-0.244,0.977,-0.061,155.539,-47.615,-65.704
7480,0.7446,0.2793,-0.6177,0.122,1.099,0.122,155.539,-47.626,-65.704
7490,0.7451,0.2827,-0.6162,0.549,1.099,0.305,155.539,-47.637,-65.704
7500,0.7456,0.2808,-0.6196,0.916,1.099,0.366,155.544,-47.648,-65.704
7510,0.7471,0.2793,-0.6216,1.038,1.038,0.427,155.561,-47.659,-65.704
7520,0.7480,0.2793,-0.6245,0.916,0.916,0.427,155.572,-47.670,-65.704
7530,0.7480,0.2812,-0.6265,0.610,0.793,0.305,155.577,-47.675,-65.704
7540,0.7495,0.2803,-0.6265,0.244,0.549,0.122,155.583,-47.681,-65.704
7550,0.7495,0.2812,-0.6240,-0.061,0.366,0.000,155.583,-47.681,-65.704
7560,0.7495,0.2817,-0.6235,-0.244,0.122,-0.061,155.583,-47.681,-65.704
7570,0.7490,0.2798,-0.6245,-0.305,-0.122,-0.122,155.577,-47.681,-65.704
7580,0.7505,0.2783,-0.6235,-0.244,-0.305,-0.122,155.583,-47.681,-65.704
7590,0.7505,0.2778,-0.6221,-0.122,-0.427,-0.061,155.583,-47.675,-65.704
7600,0.7505,0.2759,-0.6226,-0.122,-0.488,-0.061,155.588,-47.670,-65.704
7610,0.7524,0.2759,-0.6216,-0.244,-0.427,-0.122,155.594,-47.670,-65.704
7620,0.7500,0.2754,-0.6201,-0.366,-0.366,-0.122,155.594,-47.670,-65.704
7630,0.7480,0.2769,-0.6177,-0.488,-0.244,-0.061,155.594,-47.670,-65.704
7640,0.7471,0.2764,-0.6162,-0.488,-0.183,0.000,155.594,-47.670,-65.704
7650,0.7480,0.2764,-0.6172,-0.366,-0.122,0.122,155.594,-47.670,-65.704
7660,0.7456,0.2778,-0.6162,-0.183,-0.061,0.244,155.594,-47.670,-65.704
7670,0.7476,0.2793,-0.6177,0.061,0.061,0.366,155.599,-47.675,-65.704
7680,0.7461,0.2778,-0.6167,0.244,0.122,0.488,155.605,-47.681,-65.704
7690,0.7471,0.2798,-0.6177,0.305,0.183,0.549,155.616,-47.686,-65.704
7700,0.7446,0.2803,-0.6211,0.122,0.305,0.488,155.621,-47.686,-65.704
7710,0.7456,0.2832,-0.6211,0.000,0.366,0.427,155.621,-47.692,-65.704
7720,0.7466,0.2847,-0.6201,-0.122,0.366,0.305,155.621,-47.697,-65.704
7730,0.7490,0.2837,-0.6230,-0.183,0.244,0.183,155.616,-47.697,-65.704
7740,0.7495,0.2847,-0.6187,-0.122,0.122,0.183,155.616,-47.697,-65.704
7750,0.7515,0.2842,-0.6235,0.061,0.000,0.122,155.616,-47.697,-65.704
7760,0.7524,0.2832,-0.6206,0.122,0.061,0.000,155.616,-47.703,-65.704
7770,0.7505,0.2798,-0.6201,0.061,0.000,-0.122,155.616,-47.703,-65.704
7780,0.7510,0.2773,-0.6206,-0.244,0.000,-0.305,155.610,-47.703,-65.704
7790,0.7480,0.2754,-0.6196,-0.610,-0.061,-0.488,155.605,-47.703,-65.704
7800,0.7456,0.2759,-0.6211,-0.977,-0.183,-0.488,155.599,-47.697,-65.704
7810,0.7476,0.2778,-0.6182,-1.099,-0.244,-0.427,155.583,-47.692,-65.704
7820,0.7490,0.2788,-0.6187,-0.916,-0.305,-0.244,155.577,-47.692,-65.704
7830,0.7456,0.2788,-0.6157,-0.488,-0.305,0.061,155.572,-47.692,-65.704
7840,0.7471,0.2778,-0.6157,0.122,-0.244,0.305,155.583,-47.692,-65.704
7850,0.7480,0.2778,-0.6157,0.549,-0.183,0.488,155.594,-47.692,-65.704
7860,0.7476,0.2778,-0.6196,0.793,-0.061,0.610,155.610,-47.697,-65.704
7870,0.7476,0.2773,-0.6167,0.671,0.122,0.549,155.621,-47.703,-65.704
7880,0.7485,0.2788,-0.6172,0.305,0.244,0.427,155.632,-47.708,-65.704
7890,0.7485,0.2817,-0.6187,-0.122,0.366,0.244,155.627,-47.714,-65.704
7900,0.7490,0.2812,-0.6191,-0.427,0.305,0.122,155.621,-47.714,-65.704
7910,0.7495,0.2822,-0.6182,-0.488,0.244,0.122,155.616,-47.719,-65.704
7920,0.7495,0.2812,-0.6191,-0.366,0.183,0.122,155.610,-47.725,-65.704
7930,0.7480,0.2827,-0.6221,-0.122,0.183,0.183,155.610,-47.725,-65.704
7940,0.7520,0.2832,-0.6196,0.122,0.122,0.183,155.610,-47.725,-65.704
7950,0.7490,0.2817,-0.6211,0.244,0.000,0.122,155.616,-47.725,-65.704
7960,0.7529,0.2808,-0.6226,0.244,0.061,0.061,155.621,-47.730,-65.704
7970,0.7524,0.2812,-0.6206,0.061,0.061,0.000,155.621,-47.730,-65.704
7980,0.7529,0.2793,-0.6211,-0.183,0.061,-0.122,155.621,-47.730,-65.704
7990,0.7510,0.2788,-0.6235,-0.427,-0.061,-0.305,155.616,-47.730,-65.704
8000,0.7505,0.2773,-0.6235,-0.671,-0.122,-0.366,155.610,-47.730,-65.704
8010,0.7490,0.2759,-0.6211,-0.671,-0.305,-0.305,155.605,-47.725,-65.704
8020,0.7451,0.2759,-0.6211,-0.610,-0.488,-0.244,155.605,-47.719,-65.704
8030,0.7456,0.2749,-0.6201,-0.488,-0.610,-0.122,155.605,-47.714,-65.704
8040,0.7485,0.2739,-0.6211,-0.305,-0.732,-0.061,155.610,-47.708,-65.704
8050,0.7490,0.2764,-0.6201,-0.122,-0.732,0.122,155.616,-47.703,-65.704
8060,0.7485,0.2798,-0.6182,0.061,-0.732,0.366,155.627,-47.697,-65.704
8070,0.7485,0.2812,-0.6177,0.305,-0.610,0.549,155.638,-47.697,-65.704
8080,0.7476,0.2822,-0.6143,0.732,-0.549,0.671,155.649,-47.697,-65.704
8090,0.7456,0.2837,-0.6157,1.038,-0.549,0.610,155.665,-47.692,-65.704
8100,0.7480,0.2822,-0.6167,1.099,-0.610,0.366,155.676,-47.692,-65.704
8110,0.7471,0.2812,-0.6162,0.977,-0.671,0.183,155.693,-47.686,-65.704
8120,0.7471,0.2812,-0.6162,0.610,-0.732,-0.061,155.698,-47.681,-65.704
8130,0.7466,0.2817,-0.6138,0.122,-0.549,-0.244,155.693,-47.675,-65.704
8140,0.7476,0.2817,-0.6147,-0.122,-0.183,-0.305,155.687,-47.675,-65.704
8150,0.7466,0.2812,-0.6172,-0.244,0.244,-0.305,155.682,-47.675,-65.704
8160,0.7485,0.2803,-0.6177,-0.122,0.549,-0.305,155.671,-47.681,-65.704
8170,0.7500,0.2808,-0.6211,0.183,0.671,-0.305,155.665,-47.686,-65.704
8180,0.7510,0.2793,-0.6216,0.366,0.732,-0.305,155.665,-47.697,-65.704
8190,0.7505,0.2798,-0.6235,0.488,0.610,-0.305,155.665,-47.697,-65.704
8201,0.7495,0.2798,-0.6279,0.488,0.427,-0.244,155.671,-47.703,-65.704
8210,0.7515,0.2778,-0.6294,0.427,0.366,-0.244,155.676,-47.703,-65.704
8220,0.7515,0.2769,-0.6260,0.366,0.122,-0.305,155.682,-47.703,-65.704
8230,0.7529,0.2739,-0.6265,0.122,-0.183,-0.366,155.687,-47.697,-65.704
8240,0.7524,0.2739,-0.6245,-0.122,-0.488,-0.366,155.687,-47.692,-65.704
8250,0.7534,0.2734,-0.6255,-0.427,-0.854,-0.305,155.693,-47.686,-65.704
8260,0.7480,0.2739,-0.6191,-0.610,-1.160,-0.183,155.693,-47.675,-65.704
8270,0.7476,0.2725,-0.6201,-0.671,-1.404,-0.122,155.698,-47.664,-65.704
8280,0.7461,0.2754,-0.6147,-0.671,-1.465,-0.061,155.698,-47.653,-65.704
8290,0.7427,0.2759,-0.6138,-0.610,-1.343,0.000,155.704,-47.642,-65.704
8300,0.7412,0.2764,-0.6099,-0.549,-1.038,0.061,155.698,-47.637,-65.704
8310,0.7422,0.2759,-0.6123,-0.488,-0.610,0.183,155.698,-47.637,-65.704
8320,0.7422,0.2793,-0.6128,-0.366,-0.061,0.366,155.698,-47.637,-65.704
8330,0.7437,0.2812,-0.6138,-0.122,0.366,0.488,155.698,-47.642,-65.704
8340,0.7441,0.2832,-0.6152,0.244,0.671,0.610,155.698,-47.653,-65.704
8350,0.7437,0.2832,-0.6177,0.427,0.732,0.610,155.704,-47.664,-65.704
8360,0.7441,0.2852,-0.6196,0.610,0.793,0.549,155.704,-47.670,-65.704
8370,0.7461,0.2861,-0.6201,0.671,0.854,0.488,155.709,-47.681,-65.704
8380,0.7480,0.2852,-0.6201,0.549,0.793,0.305,155.709,-47.686,-65.704
8390,0.7471,0.2808,-0.6235,0.427,0.793,0.061,155.709,-47.692,-65.704
8400,0.7480,0.2808,-0.6226,0.122,0.732,-0.122,155.709,-47.697,-65.704
8410,0.7471,0.2793,-0.6240,-0.122,0.610,-0.366,155.704,-47.703,-65.704
8420,0.7485,0.2803,-0.6216,-0.366,0.427,-0.488,155.693,-47.703,-65.704
8430,0.7495,0.2773,-0.6206,-0.549,0.305,-0.488,155.682,-47.703,-65.704
8440,0.7500,0.2778,-0.6172,-0.610,0.244,-0.488,155.671,-47.708,-65.704
8450,0.7515,0.2759,-0.6201,-0.488,0.183,-0.427,155.665,-47.708,-65.704
8460,0.7500,0.2759,-0.6196,-0.244,0.122,-0.244,155.665,-47.708,-65.704
8469,0.7495,0.2725,-0.6211,0.061,0.183,0.000,155.671,-47.714,-65.704
8480,0.7490,0.2725,-0.6187,0.244,0.305,0.122,155.676,-47.719,-65.704
8490,0.7480,0.2739,-0.6191,0.366,0.366,0.244,155.687,-47.725,-65.704
8500,0.7510,0.2734,-0.6235,0.366,0.427,0.305,155.698,-47.730,-65.704
8510,0.7505,0.2729,-0.6211,0.183,0.427,0.305,155.704,-47.736,-65.704
8520,0.7524,0.2749,-0.6245,0.000,0.427,0.427,155.715,-47.747,-65.704
8530,0.7520,0.2773,-0.6240,-0.061,0.366,0.427,155.720,-47.752,-65.704
8540,0.7524,0.2773,-0.6245,-0.061,0.244,0.488,155.726,-47.752,-65.704
8550,0.7510,0.2788,-0.6245,0.000,0.122,0.488,155.731,-47.758,-65.704
8560,0.7505,0.2793,-0.6226,0.061,-0.183,0.488,155.737,-47.758,-65.704
8569,0.7510,0.2783,-0.6206,0.000,-0.549,0.488,155.748,-47.752,-65.704
8580,0.7510,0.2808,-0.6226,-0.061,-0.854,0.549,155.759,-47.747,-65.704
8590,0.7520,0.2808,-0.6230,-0.122,-1.038,0.549,155.764,-47.741,-65.704
8599,0.7480,0.2817,-0.6216,0.000,-1.038,0.549,155.775,-47.736,-65.704
8609,0.7485,0.2856,-0.6187,0.122,-0.916,0.427,155.775,-47.725,-65.704
8619,0.7456,0.2817,-0.6187,0.366,-0.793,0.305,155.786,-47.719,-65.704
8629,0.7466,0.2827,-0.6182,0.488,-0.610,0.061,155.792,-47.714,-65.704
8640,0.7441,0.2764,-0.6182,0.366,-0.427,-0.183,155.792,-47.708,-65.704
8649,0.7393,0.2759,-0.6172,0.061,-0.183,-0.488,155.792,-47.703,-65.704
8659,0.7407,0.2769,-0.6196,-0.366,0.000,-0.671,155.781,-47.703,-65.704
8669,0.7397,0.2783,-0.6167,-0.732,0.122,-0.793,155.764,-47.697,-65.704
8679,0.7407,0.2793,-0.6182,-0.732,0.244,-0.732,155.748,-47.692,-65.704
8689,0.7437,0.2788,-0.6177,-0.305,0.366,-0.610,155.737,-47.697,-65.704
8700,0.7461,0.2788,-0.6177,0.305,0.488,-0.366,155.737,-47.697,-65.704
8709,0.7495,0.2778,-0.6172,0.854,0.488,-0.061,155.742,-47.703,-65.704
8719,0.7500,0.2773,-0.6201,1.221,0.427,0.183,155.753,-47.708,-65.704
8729,0.7520,0.2773,-0.6211,1.404,0.366,0.305,155.775,-47.719,-65.704
8741,0.7529,0.2764,-0.6187,1.160,0.366,0.183,155.786,-47.725,-65.704
8749,0.7524,0.2764,-0.6230,0.732,0.305,0.000,155.797,-47.730,-65.704
8759,0.7534,0.2749,-0.6250,0.122,0.305,-0.183,155.797,-47.730,-65.704
8769,0.7520,0.2759,-0.6240,-0.366,0.244,-0.366,155.792,-47.730,-65.704
8779,0.7520,0.2778,-0.6206,-0.732,0.183,-0.427,155.781,-47.736,-65.704
8789,0.7490,0.2778,-0.6196,-0.854,0.061,-0.427,155.770,-47.736,-65.704
8799,0.7495,0.2764,-0.6201,-0.732,-0.061,-0.427,155.759,-47.730,-65.704
8809,0.7510,0.2754,-0.6216,-0.488,-0.183,-0.244,155.759,-47.730,-65.704
8819,0.7476,0.2739,-0.6216,-0.122,-0.122,-0.061,155.759,-47.730,-65.704
8829,0.7451,0.2764,-0.6196,0.183,-0.061,0.183,155.764,-47.730,-65.704
8839,0.7466,0.2769,-0.6211,0.427,0.061,0.244,155.775,-47.730,-65.704
8849,0.7471,0.2749,-0.6191,0.488,0.061,0.244,155.786,-47.736,-65.704
8859,0.7500,0.2744,-0.6196,0.366,-0.061,0.305,155.792,-47.736,-65.704
8869,0.7524,0.2759,-0.6191,0.122,-0.244,0.305,155.803,-47.736,-65.704
8879,0.7524,0.2783,-0.6201,-0.122,-0.366,0.366,155.808,-47.736,-65.704
8889,0.7534,0.2783,-0.6191,-0.244,-0.366,0.305,155.808,-47.736,-65.704
8899,0.7534,0.2803,-0.6206,-0.305,-0.366,0.244,155.808,-47.736,-65.704
8909,0.7520,0.2808,-0.6201,-0.305,-0.305,0.183,155.808,-47.736,-65.704
8919,0.7500,0.2773,-0.6201,-0.305,-0.244,0.061,155.808,-47.736,-65.704
8929,0.7495,0.2769,-0.6191,-0.488,-0.183,0.000,155.803,-47.736,-65.704
8939,0.7476,0.2754,-0.6206,-0.610,-0.122,-0.122,155.797,-47.736,-65.704
8949,0.7480,0.2769,-0.6206,-0.610,-0.061,-0.183,155.792,-47.730,-65.704
8959,0.7480,0.2759,-0.6206,-0.488,-0.061,-0.183,155.786,-47.730,-65.704
8969,0.7466,0.2754,-0.6177,-0.488,-0.061,-0.244,155.781,-47.730,-65.704
8979,0.7466,0.2744,-0.6182,-0.549,-0.305,-0.305,155.781,-47.730,-65.704
8989,0.7476,0.2739,-0.6177,-0.732,-0.427,-0.183,155.775,-47.725,-65.704
8999,0.7446,0.2749,-0.6182,-0.793,-0.488,-0.061,155.770,-47.719,-65.704
9009,0.7456,0.2773,-0.6182,-0.732,-0.427,0.122,155.770,-47.719,-65.704
9019,0.7451,0.2783,-0.6147,-0.488,-0.183,0.305,155.764,-47.719,-65.704
9029,0.7451,0.2803,-0.6157,-0.122,0.061,0.427,155.764,-47.719,-65.704
9039,0.7476,0.2837,-0.6201,0.305,0.305,0.610,155.770,-47.725,-65.704
9049,0.7520,0.2837,-0.6230,0.793,0.549,0.610,155.781,-47.736,-65.704
9059,0.7549,0.2837,-0.6265,1.038,0.732,0.488,155.792,-47.741,-65.704
9069,0.7578,0.2808,-0.6279,0.916,0.732,0.183,155.797,-47.747,-65.704
9079,0.7554,0.2808,-0.6294,0.366,0.610,-0.122,155.797,-47.752,-65.704
9089,0.7534,0.2808,-0.6313,-0.366,0.183,-0.427,155.792,-47.752,-65.704
9099,0.7539,0.2798,-0.6284,-0.977,-0.366,-0.732,155.781,-47.741,-65.704
9109,0.7515,0.2798,-0.6250,-1.343,-0.732,-0.854,155.764,-47.730,-65.704
9119,0.7500,0.2803,-0.6221,-1.343,-1.038,-0.916,155.742,-47.719,-65.704
9129,0.7485,0.2759,-0.6211,-1.038,-1.160,-0.732,155.737,-47.708,-65.704
9139,0.7476,0.2749,-0.6196,-0.610,-1.160,-0.610,155.731,-47.692,-65.704
9149,0.7456,0.2725,-0.6201,-0.305,-1.099,-0.549,155.731,-47.681,-65.704
9159,0.7432,0.2705,-0.6147,-0.244,-1.038,-0.549,155.737,-47.675,-65.704
9169,0.7432,0.2695,-0.6162,-0.427,-0.916,-0.488,155.737,-47.664,-65.704
9179,0.7456,0.2700,-0.6138,-0.549,-0.793,-0.305,155.737,-47.659,-65.704
9189,0.7485,0.2715,-0.6157,-0.549,-0.610,0.000,155.737,-47.659,-65.704
9200,0.7490,0.2749,-0.6157,-0.244,-0.244,0.305,155.742,-47.659,-65.704
9209,0.7471,0.2754,-0.6182,0.183,0.000,0.610,155.753,-47.664,-65.704
9219,0.7495,0.2778,-0.6191,0.549,0.244,0.854,155.764,-47.675,-65.704
9229,0.7505,0.2788,-0.6216,0.793,0.305,0.916,155.781,-47.681,-65.704
9239,0.7480,0.2793,-0.6206,0.671,0.366,0.916,155.797,-47.686,-65.704
9249,0.7456,0.2793,-0.6211,0.366,0.366,0.793,155.808,-47.692,-65.704
9259,0.7461,0.2793,-0.6235,-0.061,0.305,0.549,155.808,-47.697,-65.704
9269,0.7441,0.2812,-0.6230,-0.427,0.183,0.244,155.808,-47.697,-65.704
9279,0.7456,0.2827,-0.6226,-0.671,-0.061,0.061,155.797,-47.697,-65.704
9289,0.7466,0.2842,-0.6221,-0.671,-0.244,0.000,155.792,-47.692,-65.704
9299,0.7446,0.2822,-0.6221,-0.610,-0.427,0.000,155.781,-47.686,-65.704
9309,0.7451,0.2822,-0.6206,-0.305,-0.610,0.061,155.781,-47.681,-65.704
9319,0.7427,0.2832,-0.6191,0.000,-0.549,0.183,155.781,-47.670,-65.704
9329,0.7446,0.2822,-0.6182,0.366,-0.305,0.183,155.786,-47.670,-65.704
9339,0.7476,0.2778,-0.6187,0.671,-0.061,0.122,155.792,-47.670,-65.704
9349,0.7480,0.2749,-0.6216,0.610,0.122,-0.122,155.803,-47.670,-65.704
9359,0.7524,0.2764,-0.6206,0.183,0.183,-0.366,155.803,-47.675,-65.704
9369,0.7539,0.2744,-0.6206,-0.305,0.122,-0.427,155.797,-47.675,-65.704
9379,0.7549,0.2764,-0.6211,-0.671,0.061,-0.488,155.786,-47.681,-65.704
9389,0.7524,0.2744,-0.6206,-0.610,0.061,-0.427,155.781,-47.681,-65.704
9399,0.7510,0.2749,-0.6206,-0.305,0.122,-0.366,155.775,-47.681,-65.704
9409,0.7480,0.2759,-0.6230,0.000,0.183,-0.183,155.775,-47.686,-65.704
9419,0.7471,0.2729,-0.6235,0.305,0.122,0.000,155.786,-47.686,-65.704
9429,0.7456,0.2720,-0.6226,0.366,0.122,0.061,155.797,-47.686,-65.704
9439,0.7446,0.2725,-0.6230,0.366,0.183,0.183,155.803,-47.686,-65.704
9449,0.7441,0.2769,-0.6245,0.366,0.244,0.183,155.814,-47.686,-65.704
9459,0.7476,0.2769,-0.6240,0.305,0.244,0.183,155.819,-47.692,-65.704
9469,0.7471,0.2793,-0.6255,0.305,0.183,0.122,155.825,-47.692,-65.704
9479,0.7495,0.2778,-0.6255,0.122,0.000,0.183,155.830,-47.692,-65.704
9489,0.7480,0.2808,-0.6245,0.000,-0.183,0.183,155.830,-47.686,-65.704
9499,0.7490,0.2808,-0.6226,-0.061,-0.305,0.122,155.830,-47.686,-65.704
9509,0.7490,0.2803,-0.6201,-0.061,-0.427,0.122,155.830,-47.686,-65.704
9519,0.7480,0.2798,-0.6172,-0.061,-0.427,0.061,155.830,-47.681,-65.704
9529,0.7437,0.2817,-0.6182,-0.061,-0.427,0.000,155.830,-47.675,-65.704
9539,0.7456,0.2783,-0.6196,-0.183,-0.183,-0.122,155.830,-47.675,-65.704
9549,0.7461,0.2798,-0.6196,-0.244,0.000,-0.183,155.825,-47.675,-65.704
9559,0.7432,0.2803,-0.6221,-0.305,0.244,-0.366,155.814,-47.670,-65.704
9569,0.7437,0.2773,-0.6221,-0.366,0.305,-0.610,155.803,-47.670,-65.704
9579,0.7451,0.2773,-0.6201,-0.549,0.244,-0.732,155.792,-47.670,-65.704
9589,0.7456,0.2788,-0.6206,-0.610,0.000,-0.793,155.775,-47.664,-65.704
9599,0.7456,0.2788,-0.6177,-0.549,-0.244,-0.793,155.764,-47.664,-65.704
9609,0.7456,0.2773,-0.6143,-0.427,-0.427,-0.732,155.753,-47.659,-65.704
9619,0.7456,0.2769,-0.6167,-0.183,-0.488,-0.549,155.748,-47.653,-65.704
9629,0.7471,0.2764,-0.6167,0.183,-0.366,-0.366,155.753,-47.648,-65.704
9639,0.7476,0.2769,-0.6177,0.427,-0.061,-0.122,155.753,-47.653,-65.704
9649,0.7471,0.2769,-0.6191,0.671,0.427,0.122,155.764,-47.659,-65.704
9659,0.7490,0.2769,-0.6216,0.793,0.916,0.244,155.770,-47.664,-65.704
9669,0.7510,0.2744,-0.6255,0.671,1.160,0.183,155.781,-47.681,-65.704
9679,0.7524,0.2749,-0.6250,0.305,1.099,0.061,155.781,-47.692,-65.704
9689,0.7539,0.2754,-0.6294,-0.122,0.732,-0.061,155.786,-47.697,-65.704
9700,0.7520,0.2759,-0.6270,-0.549,0.305,-0.122,155.781,-47.697,-65.704
9709,0.7524,0.2773,-0.6250,-0.793,-0.183,-0.183,155.775,-47.697,-65.704
9719,0.7524,0.2773,-0.6250,-0.793,-0.671,-0.122,155.770,-47.692,-65.704
9729,0.7515,0.2783,-0.6250,-0.610,-1.038,0.000,155.770,-47.681,-65.704
9739,0.7471,0.2769,-0.6211,-0.427,-1.099,0.061,155.775,-47.670,-65.704
9749,0.7446,0.2778,-0.6177,-0.122,-1.099,0.183,155.781,-47.664,-65.704
9759,0.7451,0.2764,-0.6187,0.000,-0.793,0.122,155.786,-47.659,-65.704
9769,0.7432,0.2754,-0.6191,0.000,-0.488,0.122,155.792,-47.653,-65.704
9779,0.7407,0.2769,-0.6187,-0.122,-0.183,0.000,155.792,-47.648,-65.704
9789,0.7417,0.2764,-0.6182,-0.305,0.000,-0.061,155.792,-47.648,-65.704
9799,0.7441,0.2817,-0.6167,-0.549,0.061,-0.122,155.781,-47.648,-65.704
9809,0.7446,0.2837,-0.6187,-0.488,0.122,-0.061,155.770,-47.648,-65.704
9819,0.7437,0.2832,-0.6187,-0.183,0.183,0.061,155.764,-47.653,-65.704
9829,0.7441,0.2832,-0.6167,0.122,0.183,0.122,155.764,-47.653,-65.704
9839,0.7441,0.2803,-0.6182,0.366,0.183,0.122,155.764,-47.653,-65.704
9849,0.7451,0.2778,-0.6182,0.366,0.244,0.122,155.770,-47.659,-65.704
9859,0.7461,0.2788,-0.6226,0.183,0.366,0.122,155.770,-47.664,-65.704
9869,0.7505,0.2783,-0.6201,-0.183,0.488,0.061,155.770,-47.670,-65.704
9879,0.7515,0.2783,-0.6211,-0.427,0.610,-0.061,155.764,-47.675,-65.704
9889,0.7495,0.2783,-0.6255,-0.610,0.671,-0.244,155.753,-47.681,-65.704
9899,0.7505,0.2773,-0.6235,-0.610,0.549,-0.366,155.742,-47.686,-65.704
9909,0.7510,0.2783,-0.6235,-0.671,0.427,-0.488,155.731,-47.686,-65.704
9919,0.7505,0.2773,-0.6260,-0.671,0.244,-0.427,155.726,-47.686,-65.704
9929,0.7510,0.2783,-0.6250,-0.610,0.183,-0.366,155.715,-47.686,-65.704
9939,0.7510,0.2783,-0.6245,-0.305,0.122,-0.244,155.715,-47.686,-65.704
9949,0.7529,0.2793,-0.6245,0.061,0.183,-0.061,155.715,-47.686,-65.704
9959,0.7534,0.2783,-0.6284,0.488,0.061,0.061,155.720,-47.686,-65.704
9969,0.7529,0.2764,-0.6284,0.671,0.000,0.061,155.737,-47.686,-65.704
9979,0.7539,0.2773,-0.6265,0.610,-0.183,0.000,155.748,-47.686,-65.704
9989,0.7520,0.2769,-0.6279,0.244,-0.549,-0.183,155.753,-47.681,-65.704
9999,0.7500,0.2769,-0.6245,-0.244,-0.977,-0.366,155.753,-47.670,-65.704
10009,0.7461,0.2778,-0.6182,-0.854,-1.404,-0.549,155.748,-47.659,-65.704
10019,0.7446,0.2764,-0.6157,-1.221,-1.648,-0.732,155.737,-47.642,-65.704
10029,0.7456,0.2778,-0.6123,-1.343,-1.709,-0.732,155.720,-47.626,-65.704
10039,0.7427,0.2788,-0.6108,-1.221,-1.404,-0.610,155.709,-47.615,-65.704
10049,0.7417,0.2778,-0.6104,-0.793,-0.854,-0.366,155.698,-47.609,-65.704
10059,0.7432,0.2769,-0.6118,-0.244,-0.183,-0.061,155.698,-47.609,-65.704
10069,0.7432,0.2769,-0.6138,0.244,0.549,0.183,155.698,-47.615,-65.704
10079,0.7437,0.2769,-0.6147,0.549,1.160,0.305,155.704,-47.631,-65.704
10089,0.7466,0.2773,-0.6201,0.610,1.404,0.427,155.709,-47.648,-65.704
10099,0.7471,0.2788,-0.6216,0.549,1.465,0.427,155.709,-47.659,-65.704
10109,0.7476,0.2783,-0.6265,0.427,1.221,0.305,155.715,-47.670,-65.704
10119,0.7495,0.2788,-0.6299,0.244,0.916,0.183,155.720,-47.675,-65.704
10129,0.7490,0.2783,-0.6309,-0.061,0.427,-0.061,155.720,-47.675,-65.704
10139,0.7480,0.2783,-0.6270,-0.244,-0.122,-0.122,155.726,-47.675,-65.704
10149,0.7485,0.2788,-0.6274,-0.366,-0.427,-0.122,155.726,-47.670,-65.704
10159,0.7476,0.2783,-0.6245,-0.488,-0.610,0.000,155.726,-47.664,-65.704
10169,0.7485,0.2798,-0.6260,-0.427,-0.671,0.000,155.726,-47.653,-65.704
10179,0.7476,0.2793,-0.6230,-0.244,-0.671,0.061,155.726,-47.648,-65.704
10189,0.7451,0.2798,-0.6191,-0.061,-0.671,0.000,155.731,-47.642,-65.704
10200,0.7456,0.2793,-0.6245,0.000,-0.671,0.000,155.731,-47.637,-65.704
10209,0.7456,0.2778,-0.6216,0.000,-0.610,0.000,155.737,-47.626,-65.704
10219,0.7441,0.2778,-0.6191,-0.122,-0.610,0.000,155.742,-47.626,-65.704
10229,0.7466,0.2773,-0.6201,-0.183,-0.610,-0.061,155.742,-47.620,-65.704
10239,0.7461,0.2778,-0.6206,-0.305,-0.610,-0.122,155.742,-47.615,-65.704
10249,0.7446,0.2788,-0.6201,-0.427,-0.427,-0.122,155.737,-47.609,-65.704
10259,0.7466,0.2769,-0.6201,-0.427,-0.183,-0.061,155.737,-47.609,-65.704
10269,0.7476,0.2764,-0.6182,-0.305,-0.061,0.000,155.737,-47.609,-65.704
10279,0.7461,0.2778,-0.6182,-0.183,0.183,0.122,155.737,-47.615,-65.704
10289,0.7456,0.2788,-0.6216,0.000,0.183,0.122,155.737,-47.615,-65.704
10299,0.7451,0.2788,-0.6221,0.122,0.244,0.122,155.737,-47.615,-65.704
10309,0.7456,0.2783,-0.6230,0.183,0.183,0.122,155.742,-47.620,-65.704
10319,0.7471,0.2817,-0.6216,0.183,0.000,0.183,155.748,-47.620,-65.704
10329,0.7461,0.2803,-0.6235,0.061,-0.061,0.244,155.748,-47.620,-65.704
10339,0.7461,0.2808,-0.6250,0.061,-0.061,0.122,155.753,-47.615,-65.704
10349,0.7466,0.2803,-0.6255,0.061,0.000,0.122,155.753,-47.615,-65.704
10359,0.7495,0.2788,-0.6235,0.061,0.061,0.061,155.759,-47.615,-65.704
10369,0.7480,0.2808,-0.6226,0.061,0.183,0.061,155.759,-47.620,-65.704
10379,0.7485,0.2803,-0.6216,0.122,0.183,-0.061,155.759,-47.620,-65.704
10389,0.7476,0.2778,-0.6211,0.061,0.183,-0.183,155.759,-47.620,-65.704
10399,0.7480,0.2783,-0.6226,-0.061,0.061,-0.305,155.753,-47.620,-65.704
10409,0.7471,0.2783,-0.6201,-0.061,0.000,-0.366,155.748,-47.620,-65.704
10419,0.7456,0.2788,-0.6196,-0.122,-0.061,-0.427,155.748,-47.620,-65.704
10429,0.7456,0.2788,-0.6196,0.000,-0.122,-0.366,155.742,-47.620,-65.704
10439,0.7471,0.2769,-0.6206,0.122,-0.122,-0.244,155.742,-47.615,-65.704
10449,0.7476,0.2754,-0.6226,0.305,0.000,-0.122,155.748,-47.615,-65.704
10459,0.7480,0.2734,-0.6245,0.427,0.183,0.000,155.759,-47.620,-65.704
10469,0.7480,0.2734,-0.6240,0.427,0.305,0.122,155.770,-47.626,-65.704
10479,0.7490,0.2734,-0.6250,0.366,0.366,0.183,155.781,-47.626,-65.704
10489,0.7485,0.2739,-0.6294,0.244,0.305,0.244,155.792,-47.631,-65.704
10499,0.7500,0.2759,-0.6265,0.122,0.183,0.305,155.797,-47.631,-65.704
10509,0.7505,0.2783,-0.6260,0.061,0.061,0.305,155.803,-47.637,-65.704
10519,0.7500,0.2769,-0.6279,0.000,-0.183,0.305,155.808,-47.631,-65.704
10529,0.7529,0.2769,-0.6279,0.000,-0.427,0.366,155.819,-47.631,-65.704
10539,0.7510,0.2783,-0.6284,0.000,-0.671,0.366,155.830,-47.626,-65.704
10549,0.7495,0.2778,-0.6274,0.000,-0.916,0.427,155.841,-47.620,-65.704
10559,0.7461,0.2783,-0.6265,-0.061,-1.099,0.366,155.852,-47.609,-65.704
10569,0.7461,0.2773,-0.6226,-0.183,-1.221,0.183,155.858,-47.598,-65.704
10579,0.7441,0.2783,-0.6196,-0.366,-1.343,0.061,155.858,-47.587,-65.704
10589,0.7417,0.2808,-0.6201,-0.549,-1.343,0.000,155.858,-47.571,-65.704
10599,0.7437,0.2783,-0.6167,-0.610,-1.282,-0.061,155.858,-47.565,-65.704
10609,0.7441,0.2808,-0.6162,-0.549,-0.977,-0.122,155.852,-47.554,-65.704
10619,0.7422,0.2798,-0.6143,-0.305,-0.671,0.000,155.847,-47.549,-65.704
10629,0.7427,0.2788,-0.6172,0.000,-0.244,0.122,155.847,-47.549,-65.704
10639,0.7446,0.2769,-0.6167,0.244,-0.061,0.122,155.852,-47.554,-65.704
10649,0.7437,0.2754,-0.6187,0.305,0.000,0.061,155.858,-47.554,-65.704
10659,0.7446,0.2754,-0.6206,0.122,0.000,0.000,155.858,-47.554,-65.704
10669,0.7461,0.2773,-0.6221,-0.122,0.000,-0.061,155.858,-47.554,-65.704
10679,0.7456,0.2788,-0.6226,-0.305,0.061,-0.122,155.852,-47.554,-65.704
10689,0.7480,0.2793,-0.6235,-0.366,0.183,-0.122,155.847,-47.560,-65.704
10700,0.7485,0.2783,-0.6250,-0.305,0.183,-0.183,155.847,-47.560,-65.704
10709,0.7480,0.2788,-0.6274,-0.183,0.305,-0.183,155.841,-47.560,-65.704
10719,0.7466,0.2773,-0.6294,-0.061,0.183,-0.244,155.841,-47.560,-65.704
10729,0.7480,0.2764,-0.6309,0.061,0.061,-0.183,155.847,-47.554,-65.704
10742,0.7500,0.2778,-0.6309,0.183,0.000,-0.244,155.847,-47.554,-65.704
10749,0.7490,0.2754,-0.6333,0.244,-0.183,-0.183,155.858,-47.549,-65.704
10759,0.7490,0.2783,-0.6313,0.244,-0.305,-0.305,155.858,-47.543,-65.704
10769,0.7480,0.2759,-0.6289,0.061,-0.488,-0.305,155.863,-47.538,-65.704
10779,0.7500,0.2759,-0.6289,-0.061,-0.671,-0.305,155.869,-47.532,-65.704
10789,0.7485,0.2764,-0.6255,-0.244,-0.793,-0.244,155.869,-47.521,-65.704
10799,0.7480,0.2744,-0.6240,-0.305,-0.977,-0.244,155.874,-47.516,-65.704
10809,0.7476,0.2754,-0.6235,-0.305,-1.099,-0.183,155.874,-47.505,-65.704
10819,0.7476,0.2773,-0.6245,-0.427,-1.282,-0.122,155.880,-47.494,-65.704
10829,0.7466,0.2749,-0.6211,-0.610,-1.282,-0.122,155.880,-47.483,-65.704
10839,0.7466,0.2759,-0.6201,-0.732,-1.221,-0.183,155.874,-47.472,-65.704
10849,0.7441,0.2759,-0.6191,-0.916,-1.160,-0.061,155.874,-47.466,-65.704
10859,0.7432,0.2759,-0.6177,-0.916,-0.977,0.000,155.869,-47.461,-65.704
10869,0.7407,0.2778,-0.6143,-0.793,-0.793,0.183,155.863,-47.455,-65.704
10879,0.7393,0.2773,-0.6143,-0.549,-0.488,0.366,155.863,-47.455,-65.704
10889,0.7383,0.2778,-0.6138,-0.244,-0.244,0.549,155.863,-47.455,-65.704
10899,0.7393,0.2798,-0.6167,0.183,0.061,0.732,155.869,-47.461,-65.704
10909,0.7393,0.2808,-0.6167,0.671,0.427,0.793,155.880,-47.466,-65.704
10919,0.7432,0.2817,-0.6196,0.854,0.854,0.854,155.891,-47.477,-65.704
10929,0.7422,0.2803,-0.6255,0.854,1.160,0.793,155.901,-47.494,-65.704
10939,0.7437,0.2798,-0.6265,0.732,1.282,0.671,155.907,-47.505,-65.704
10949,0.7446,0.2812,-0.6294,0.427,1.343,0.427,155.912,-47.516,-65.704
10959,0.7441,0.2793,-0.6304,0.061,1.160,0.183,155.912,-47.521,-65.704
10969,0.7456,0.2778,-0.6304,-0.366,0.854,-0.061,155.907,-47.527,-65.704
10979,0.7461,0.2783,-0.6294,-0.671,0.427,-0.183,155.896,-47.527,-65.704
10989,0.7441,0.2778,-0.6309,-0.671,0.000,-0.244,155.891,-47.527,-65.704
10999,0.7461,0.2793,-0.6284,-0.610,-0.244,-0.183,155.885,-47.521,-65.704
11009,0.7451,0.2778,-0.6265,-0.427,-0.427,-0.183,155.885,-47.516,-65.704
11019,0.7441,0.2754,-0.6240,-0.244,-0.610,-0.122,155.885,-47.510,-65.704
11029,0.7446,0.2734,-0.6226,-0.061,-0.610,-0.061,155.891,-47.505,-65.704
11039,0.7432,0.2700,-0.6221,0.000,-0.488,-0.061,155.901,-47.499,-65.704
11049,0.7422,0.2749,-0.6235,-0.061,-0.244,-0.061,155.901,-47.499,-65.704
11059,0.7417,0.2734,-0.6230,-0.183,0.122,0.000,155.907,-47.499,-65.704
11069,0.7432,0.2759,-0.6221,-0.244,0.366,0.061,155.901,-47.499,-65.704
11079,0.7437,0.2739,-0.6240,-0.183,0.488,0.122,155.901,-47.505,-65.704
11089,0.7446,0.2769,-0.6230,-0.122,0.610,0.244,155.901,-47.516,-65.704
11099,0.7441,0.2749,-0.6235,0.000,0.549,0.366,155.907,-47.521,-65.704
11109,0.7466,0.2759,-0.6240,0.122,0.488,0.366,155.912,-47.527,-65.704
11119,0.7471,0.2739,-0.6255,0.122,0.366,0.427,155.923,-47.532,-65.704
11129,0.7476,0.2773,-0.6235,0.000,0.305,0.427,155.923,-47.538,-65.704
11139,0.7466,0.2778,-0.6206,-0.122,0.305,0.366,155.923,-47.543,-65.704
11149,0.7461,0.2778,-0.6221,-0.244,0.427,0.305,155.923,-47.549,-65.704
11159,0.7451,0.2783,-0.6250,-0.366,0.488,0.244,155.923,-47.554,-65.704
11169,0.7446,0.2812,-0.6255,-0.427,0.488,0.244,155.918,-47.560,-65.704
11179,0.7466,0.2803,-0.6289,-0.366,0.488,0.183,155.912,-47.560,-65.704
11189,0.7451,0.2793,-0.6265,-0.244,0.427,0.122,155.912,-47.565,-65.704
11200,0.7451,0.2773,-0.6255,-0.244,0.305,0.000,155.907,-47.565,-65.704
11209,0.7422,0.2773,-0.6235,-0.305,0.244,-0.183,155.901,-47.565,-65.704
11219,0.7427,0.2778,-0.6226,-0.427,0.061,-0.305,155.896,-47.565,-65.704
11229,0.7427,0.2764,-0.6235,-0.488,-0.061,-0.305,155.891,-47.560,-65.704
11239,0.7446,0.2764,-0.6226,-0.549,-0.122,-0.366,155.885,-47.560,-65.704
11249,0.7446,0.2759,-0.6221,-0.488,-0.061,-0.244,155.880,-47.554,-65.704
11259,0.7441,0.2759,-0.6226,-0.305,0.000,-0.183,155.874,-47.554,-65.704
11269,0.7441,0.2754,-0.6201,-0.061,0.122,0.000,155.880,-47.560,-65.704
11279,0.7437,0.2744,-0.6221,0.122,0.305,0.061,155.880,-47.560,-65.704
11289,0.7441,0.2739,-0.6216,0.244,0.427,0.183,155.885,-47.565,-65.704
11299,0.7461,0.2773,-0.6211,0.122,0.549,0.183,155.885,-47.571,-65.704
11309,0.7461,0.2764,-0.6255,-0.061,0.549,0.122,155.891,-47.576,-65.704
11319,0.7490,0.2769,-0.6265,-0.183,0.671,0.000,155.885,-47.582,-65.704
11329,0.7485,0.2778,-0.6230,-0.305,0.671,0.000,155.880,-47.593,-65.704
11339,0.7490,0.2788,-0.6255,-0.305,0.549,0.061,155.880,-47.598,-65.704
11349,0.7446,0.2783,-0.6240,-0.244,0.366,0.000,155.874,-47.598,-65.704
11359,0.7456,0.2769,-0.6240,-0.244,0.244,0.000,155.874,-47.598,-65.704
11369,0.7441,0.2759,-0.6206,-0.244,0.000,-0.061,155.869,-47.598,-65.704
11379,0.7456,0.2764,-0.6216,-0.305,-0.061,-0.061,155.869,-47.598,-65.704
11389,0.7456,0.2769,-0.6230,-0.427,0.061,0.061,155.869,-47.598,-65.704
11399,0.7461,0.2769,-0.6196,-0.244,0.244,0.244,155.869,-47.604,-65.704
11409,0.7446,0.2793,-0.6221,0.061,0.610,0.427,155.869,-47.609,-65.704
11419,0.7451,0.2788,-0.6255,0.366,0.916,0.427,155.874,-47.620,-65.704
11429,0.7446,0.2778,-0.6250,0.488,1.099,0.366,155.880,-47.626,-65.704
11439,0.7432,0.2764,-0.6274,0.305,1.038,0.183,155.880,-47.637,-65.704
11449,0.7437,0.2749,-0.6270,-0.244,0.732,0.000,155.880,-47.637,-65.704
11459,0.7432,0.2769,-0.6260,-0.793,0.427,-0.122,155.874,-47.642,-65.704
11469,0.7412,0.2783,-0.6260,-1.282,0.244,-0.183,155.858,-47.637,-65.704
11479,0.7437,0.2783,-0.6245,-1.282,0.183,-0.061,155.847,-47.637,-65.704
11489,0.7441,0.2803,-0.6245,-0.977,0.244,0.061,155.836,-47.637,-65.704
11499,0.7456,0.2812,-0.6221,-0.427,0.427,0.244,155.830,-47.642,-65.704
11509,0.7456,0.2808,-0.6235,0.183,0.488,0.366,155.830,-47.648,-65.704
11519,0.7432,0.2788,-0.6250,0.610,0.549,0.427,155.841,-47.648,-65.704
11529,0.7476,0.2788,-0.6270,0.793,0.732,0.366,155.852,-47.653,-65.704
11539,0.7485,0.2788,-0.6265,0.732,0.854,0.183,155.858,-47.664,-65.704
11549,0.7495,0.2793,-0.6255,0.427,0.916,0.000,155.858,-47.670,-65.704
11559,0.7500,0.2793,-0.6265,0.000,0.854,-0.122,155.858,-47.675,-65.704
11569,0.7534,0.2778,-0.6255,-0.305,0.610,-0.244,155.847,-47.681,-65.704
11579,0.7495,0.2798,-0.6240,-0.427,0.305,-0.366,155.841,-47.681,-65.704
11589,0.7520,0.2773,-0.6211,-0.427,-0.061,-0.427,155.830,-47.681,-65.704
11599,0.7510,0.2744,-0.6196,-0.366,-0.305,-0.427,155.830,-47.681,-65.704
11609,0.7500,0.2739,-0.6187,-0.305,-0.488,-0.366,155.825,-47.675,-65.704
11619,0.7500,0.2729,-0.6162,-0.305,-0.488,-0.244,155.825,-47.675,-65.704
11629,0.7476,0.2715,-0.6201,-0.305,-0.305,-0.122,155.830,-47.675,-65.704
11639,0.7466,0.2720,-0.6187,-0.366,0.000,-0.061,155.830,-47.675,-65.704
11649,0.7466,0.2705,-0.6191,-0.305,0.305,0.122,155.830,-47.681,-65.704
11659,0.7466,0.2725,-0.6206,-0.183,0.610,0.244,155.836,-47.686,-65.704
11669,0.7480,0.2720,-0.6226,-0.122,0.854,0.488,155.841,-47.697,-65.704
11679,0.7476,0.2754,-0.6250,0.061,0.916,0.610,155.847,-47.708,-65.704
11689,0.7471,0.2764,-0.6235,0.244,0.793,0.793,155.858,-47.719,-65.704
11700,0.7461,0.2778,-0.6235,0.427,0.488,0.854,155.869,-47.725,-65.704
11709,0.7466,0.2783,-0.6235,0.549,0.183,0.854,155.880,-47.730,-65.704
11719,0.7437,0.2769,-0.6250,0.610,0.061,0.793,155.896,-47.730,-65.704
11729,0.7422,0.2769,-0.6250,0.366,0.122,0.732,155.907,-47.730,-65.704
11739,0.7432,0.2764,-0.6255,0.122,0.244,0.671,155.918,-47.730,-65.704
11749,0.7456,0.2778,-0.6240,-0.183,0.488,0.610,155.923,-47.736,-65.704
11759,0.7441,0.2788,-0.6240,-0.427,0.610,0.488,155.918,-47.741,-65.704
11769,0.7456,0.2803,-0.6235,-0.549,0.488,0.366,155.912,-47.741,-65.704
11779,0.7476,0.2822,-0.6226,-0.549,0.305,0.366,155.907,-47.747,-65.704
11789,0.7485,0.2827,-0.6226,-0.366,0.061,0.366,155.907,-47.747,-65.704
11799,0.7466,0.2798,-0.6221,-0.122,0.061,0.366,155.907,-47.747,-65.704
11809,0.7461,0.2817,-0.6196,0.061,0.183,0.366,155.907,-47.747,-65.704
11819,0.7427,0.2808,-0.6201,0.244,0.366,0.183,155.907,-47.752,-65.704
11829,0.7461,0.2803,-0.6211,0.305,0.549,0.061,155.907,-47.752,-65.704
11839,0.7461,0.2769,-0.6216,0.244,0.793,-0.183,155.901,-47.758,-65.704
11849,0.7456,0.2734,-0.6206,0.183,1.038,-0.366,155.901,-47.769,-65.704
11859,0.7461,0.2734,-0.6235,0.000,1.343,-0.549,155.891,-47.774,-65.704
11869,0.7461,0.2739,-0.6221,-0.183,1.404,-0.610,155.880,-47.785,-65.704
11879,0.7471,0.2705,-0.6226,-0.305,1.282,-0.549,155.874,-47.791,-65.704
11889,0.7466,0.2705,-0.6240,-0.305,0.977,-0.366,155.869,-47.802,-65.704
11899,0.7495,0.2734,-0.6235,-0.244,0.671,-0.183,155.869,-47.807,-65.704
11909,0.7495,0.2725,-0.6201,0.061,0.366,0.061,155.869,-47.807,-65.704
11919,0.7490,0.2720,-0.6206,0.366,0.244,0.244,155.880,-47.813,-65.704
11929,0.7495,0.2729,-0.6216,0.732,0.183,0.427,155.896,-47.818,-65.704
11939,0.7505,0.2739,-0.6221,0.854,0.305,0.488,155.907,-47.823,-65.704
11949,0.7500,0.2734,-0.6235,0.671,0.610,0.488,155.923,-47.829,-65.704
11959,0.7515,0.2739,-0.6235,0.305,0.793,0.366,155.929,-47.834,-65.704
11969,0.7495,0.2754,-0.6250,-0.061,0.854,0.244,155.929,-47.845,-65.704
11979,0.7485,0.2793,-0.6235,-0.488,0.793,0.061,155.923,-47.851,-65.704
11989,0.7495,0.2769,-0.6260,-0.610,0.488,0.000,155.918,-47.851,-65.704
11999,0.7500,0.2773,-0.6211,-0.610,0.244,-0.061,155.907,-47.851,-65.704
12009,0.7515,0.2764,-0.6221,-0.427,0.061,-0.122,155.901,-47.851,-65.704
12019,0.7510,0.2769,-0.6230,-0.244,-0.122,-0.122,155.901,-47.851,-65.704
12029,0.7480,0.2744,-0.6226,-0.122,-0.244,-0.061,155.907,-47.845,-65.704
12039,0.7476,0.2754,-0.6221,-0.183,-0.122,-0.061,155.907,-47.845,-65.704
12049,0.7485,0.2739,-0.6240,-0.183,0.061,0.000,155.907,-47.845,-65.704
12059,0.7490,0.2725,-0.6216,-0.305,0.305,0.000,155.907,-47.845,-65.704
12069,0.7490,0.2725,-0.6230,-0.244,0.427,-0.061,155.907,-47.851,-65.704
12079,0.7456,0.2754,-0.6226,-0.305,0.427,-0.061,155.901,-47.851,-65.704
12089,0.7446,0.2754,-0.6221,-0.366,0.427,0.000,155.901,-47.851,-65.704
12099,0.7432,0.2773,-0.6226,-0.427,0.305,0.000,155.896,-47.851,-65.704
12109,0.7437,0.2773,-0.6221,-0.366,0.061,0.000,155.891,-47.845,-65.704
12119,0.7451,0.2773,-0.6196,-0.244,0.000,0.061,155.891,-47.845,-65.704
12129,0.7466,0.2778,-0.6196,0.061,0.122,0.183,155.891,-47.845,-65.704
12139,0.7495,0.2778,-0.6226,0.366,0.366,0.366,155.896,-47.851,-65.704
12149,0.7520,0.2788,-0.6216,0.671,0.610,0.366,155.907,-47.856,-65.704
12159,0.7515,0.2783,-0.6245,0.732,0.732,0.244,155.912,-47.862,-65.704
12169,0.7500,0.2759,-0.6235,0.488,0.671,0.000,155.918,-47.867,-65.704
12179,0.7510,0.2739,-0.6196,0.000,0.488,-0.183,155.912,-47.873,-65.704
12189,0.7490,0.2734,-0.6196,-0.488,0.183,-0.366,155.907,-47.873,-65.704
12199,0.7505,0.2739,-0.6191,-0.916,0.061,-0.488,155.896,-47.873,-65.704
12209,0.7490,0.2759,-0.6187,-1.099,0.061,-0.366,155.880,-47.873,-65.704
12219,0.7480,0.2734,-0.6201,-0.916,0.122,-0.305,155.874,-47.873,-65.704
12229,0.7480,0.2734,-0.6216,-0.549,0.305,-0.122,155.869,-47.873,-65.704
12239,0.7480,0.2739,-0.6216,-0.183,0.427,0.000,155.869,-47.873,-65.704
12249,0.7466,0.2734,-0.6245,0.183,0.488,0.122,155.874,-47.878,-65.704
12259,0.7490,0.2720,-0.6255,0.427,0.549,0.305,155.885,-47.884,-65.704
12269,0.7490,0.2749,-0.6255,0.610,0.549,0.366,155.896,-47.884,-65.704
12279,0.7490,0.2749,-0.6270,0.610,0.549,0.366,155.907,-47.889,-65.704
12289,0.7515,0.2764,-0.6270,0.549,0.427,0.305,155.918,-47.889,-65.704
12299,0.7510,0.2773,-0.6270,0.244,0.183,0.244,155.923,-47.889,-65.704
12309,0.7549,0.2783,-0.6260,-0.061,-0.122,0.122,155.923,-47.889,-65.704
12319,0.7529,0.2773,-0.6235,-0.366,-0.427,0.061,155.923,-47.884,-65.704
12329,0.7529,0.2783,-0.6216,-0.671,-0.793,-0.061,155.918,-47.878,-65.704
12339,0.7524,0.2773,-0.6211,-0.854,-1.038,-0.122,155.918,-47.867,-65.704
12349,0.7524,0.2764,-0.6187,-0.916,-1.160,-0.244,155.907,-47.856,-65.704
12359,0.7510,0.2734,-0.6143,-0.854,-1.099,-0.305,155.901,-47.851,-65.704
12369,0.7466,0.2720,-0.6147,-0.793,-0.977,-0.366,155.896,-47.840,-65.704
12379,0.7432,0.2705,-0.6128,-0.793,-0.671,-0.427,155.891,-47.834,-65.704
12389,0.7422,0.2710,-0.6133,-0.793,-0.244,-0.366,155.885,-47.834,-65.704
12399,0.7412,0.2739,-0.6143,-0.732,0.122,-0.122,155.874,-47.834,-65.704
12409,0.7427,0.2729,-0.6177,-0.549,0.427,0.122,155.874,-47.834,-65.704
12419,0.7417,0.2744,-0.6177,-0.183,0.732,0.305,155.874,-47.840,-65.704
12429,0.7432,0.2778,-0.6201,0.427,0.854,0.488,155.880,-47.851,-65.704
12439,0.7441,0.2783,-0.6230,0.854,1.038,0.671,155.891,-47.856,-65.704
12449,0.7476,0.2769,-0.6240,1.099,0.977,0.671,155.901,-47.867,-65.704
12459,0.7461,0.2769,-0.6284,0.977,0.854,0.549,155.918,-47.873,-65.704
12469,0.7480,0.2769,-0.6289,0.671,0.610,0.366,155.929,-47.873,-65.704
12479,0.7485,0.2769,-0.6279,0.244,0.305,0.183,155.934,-47.873,-65.704
12489,0.7495,0.2773,-0.6265,-0.183,0.000,-0.061,155.934,-47.873,-65.704
12499,0.7490,0.2764,-0.6279,-0.549,-0.183,-0.244,155.929,-47.867,-65.704
12509,0.7485,0.2759,-0.6270,-0.732,-0.305,-0.427,155.923,-47.856,-65.704
12519,0.7480,0.2734,-0.6230,-0.854,-0.427,-0.427,155.918,-47.851,-65.704
12529,0.7490,0.2749,-0.6235,-0.793,-0.610,-0.366,155.912,-47.845,-65.704
12539,0.7466,0.2744,-0.6216,-0.549,-0.549,-0.305,155.907,-47.834,-65.704
12549,0.7466,0.2739,-0.6216,-0.183,-0.366,-0.122,155.907,-47.829,-65.704
12559,0.7476,0.2734,-0.6216,0.122,-0.183,0.000,155.912,-47.829,-65.704
12569,0.7480,0.2729,-0.6216,0.305,0.122,0.000,155.918,-47.829,-65.704
12579,0.7485,0.2715,-0.6226,0.305,0.305,0.000,155.929,-47.829,-65.704
12589,0.7490,0.2715,-0.6245,0.244,0.427,0.000,155.934,-47.834,-65.704
12599,0.7480,0.2700,-0.6221,0.061,0.488,-0.061,155.940,-47.840,-65.704
12609,0.7480,0.2700,-0.6235,-0.183,0.305,-0.061,155.940,-47.840,-65.704
12619,0.7490,0.2734,-0.6255,-0.366,0.122,-0.061,155.940,-47.840,-65.704
12629,0.7480,0.2729,-0.6230,-0.427,-0.183,-0.061,155.940,-47.834,-65.704
12639,0.7480,0.2754,-0.6226,-0.427,-0.366,0.061,155.940,-47.829,-65.704
12649,0.7485,0.2749,-0.6201,-0.305,-0.366,0.183,155.940,-47.829,-65.704
12659,0.7480,0.2773,-0.6206,-0.122,-0.427,0.305,155.945,-47.823,-65.704
12669,0.7476,0.2773,-0.6201,0.000,-0.244,0.366,155.951,-47.823,-65.704
12679,0.7437,0.2783,-0.6201,0.183,-0.061,0.427,155.956,-47.823,-65.704
12689,0.7441,0.2803,-0.6187,0.244,0.061,0.305,155.956,-47.823,-65.704
12699,0.7446,0.2798,-0.6226,0.244,0.305,0.244,155.956,-47.823,-65.704
12709,0.7432,0.2808,-0.6216,0.183,0.427,0.000,155.956,-47.823,-65.704
12719,0.7466,0.2798,-0.6211,0.122,0.488,-0.183,155.951,-47.823,-65.704
12729,0.7476,0.2793,-0.6235,0.061,0.488,-0.366,155.945,-47.823,-65.704
12743,0.7505,0.2773,-0.6240,-0.061,0.366,-0.488,155.940,-47.823,-65.704
12749,0.7476,0.2754,-0.6265,-0.122,0.244,-0.549,155.934,-47.823,-65.704
12759,0.7490,0.2744,-0.6206,-0.122,0.122,-0.610,155.929,-47.823,-65.704
12769,0.7500,0.2720,-0.6191,-0.061,0.061,-0.549,155.923,-47.823,-65.704
12779,0.7480,0.2705,-0.6201,0.000,0.000,-0.488,155.923,-47.818,-65.704
12789,0.7495,0.2744,-0.6216,0.183,0.061,-0.427,155.923,-47.818,-65.704
12799,0.7500,0.2729,-0.6206,0.305,0.122,-0.305,155.929,-47.818,-65.704
12809,0.7466,0.2725,-0.6196,0.366,0.183,-0.183,155.934,-47.823,-65.704
12819,0.7441,0.2705,-0.6235,0.305,0.366,-0.122,155.940,-47.823,-65.704
12829,0.7456,0.2700,-0.6240,0.183,0.366,-0.183,155.945,-47.823,-65.704
12839,0.7451,0.2729,-0.6226,0.000,0.366,-0.183,155.945,-47.823,-65.704
12849,0.7461,0.2739,-0.6221,-0.122,0.305,-0.122,155.945,-47.823,-65.704
12859,0.7495,0.2754,-0.6230,0.000,0.305,0.061,155.945,-47.823,-65.704
12869,0.7500,0.2749,-0.6235,0.305,0.366,0.305,155.951,-47.829,-65.704
12879,0.7500,0.2764,-0.6260,0.732,0.427,0.427,155.962,-47.834,-65.704
12889,0.7510,0.2739,-0.6250,0.977,0.427,0.366,155.978,-47.840,-65.704
12899,0.7505,0.2725,-0.6274,0.793,0.183,0.244,155.995,-47.840,-65.704
12909,0.7485,0.2705,-0.6265,0.244,-0.122,0.000,156.000,-47.834,-65.704
12919,0.7466,0.2729,-0.6245,-0.488,-0.366,-0.244,156.000,-47.829,-65.704
12929,0.7485,0.2754,-0.6221,-1.221,-0.610,-0.427,155.989,-47.823,-65.704
12939,0.7451,0.2749,-0.6196,-1.526,-0.732,-0.488,155.973,-47.813,-65.704
12949,0.7437,0.2769,-0.6177,-1.404,-0.732,-0.427,155.956,-47.802,-65.704
12959,0.7432,0.2759,-0.6172,-1.099,-0.549,-0.244,155.945,-47.796,-65.704
12969,0.7427,0.2773,-0.6167,-0.488,-0.244,0.000,155.940,-47.791,-65.704
12979,0.7427,0.2759,-0.6191,0.122,0.183,0.244,155.945,-47.791,-65.704
12989,0.7456,0.2769,-0.6216,0.549,0.610,0.366,155.951,-47.796,-65.704
12999,0.7456,0.2764,-0.6226,0.793,1.038,0.427,155.956,-47.807,-65.704
13009,0.7476,0.2778,-0.6270,0.793,1.282,0.366,155.967,-47.818,-65.704
13019,0.7500,0.2778,-0.6265,0.610,1.343,0.305,155.967,-47.829,-65.704
13029,0.7510,0.2788,-0.6304,0.366,1.099,0.183,155.973,-47.834,-65.704
13039,0.7524,0.2773,-0.6294,0.122,0.671,0.000,155.973,-47.840,-65.704
13049,0.7515,0.2773,-0.6284,-0.183,0.122,-0.183,155.973,-47.834,-65.704
13059,0.7515,0.2769,-0.6255,-0.366,-0.427,-0.305,155.967,-47.829,-65.704
13069,0.7515,0.2754,-0.6230,-0.488,-0.916,-0.427,155.962,-47.818,-65.704
13079,0.7500,0.2734,-0.6226,-0.610,-1.221,-0.549,155.962,-47.807,-65.704
13089,0.7471,0.2705,-0.6196,-0.732,-1.343,-0.610,155.956,-47.791,-65.704
13099,0.7476,0.2690,-0.6167,-0.793,-1.160,-0.549,155.956,-47.785,-65.704
13109,0.7446,0.2681,-0.6152,-0.793,-0.854,-0.427,155.951,-47.774,-65.704
13119,0.7451,0.2695,-0.6147,-0.610,-0.427,-0.183,155.951,-47.774,-65.704
13129,0.7417,0.2729,-0.6152,-0.366,0.061,0.122,155.945,-47.774,-65.704
13139,0.7446,0.2715,-0.6143,0.000,0.427,0.366,155.951,-47.780,-65.704
13149,0.7441,0.2729,-0.6172,0.305,0.732,0.610,155.962,-47.791,-65.704
13159,0.7446,0.2729,-0.6182,0.549,0.916,0.793,155.973,-47.802,-65.704
13169,0.7456,0.2759,-0.6230,0.671,1.038,0.854,155.984,-47.813,-65.704
13179,0.7476,0.2773,-0.6255,0.854,1.038,0.916,155.995,-47.823,-65.704
13189,0.7466,0.2769,-0.6260,0.854,1.099,0.793,156.011,-47.834,-65.704
13200,0.7476,0.2773,-0.6279,0.610,0.977,0.610,156.017,-47.840,-65.704
13209,0.7490,0.2769,-0.6284,0.366,0.671,0.366,156.028,-47.845,-65.704
13219,0.7505,0.2778,-0.6304,0.061,0.366,0.122,156.028,-47.845,-65.704
13229,0.7480,0.2773,-0.6289,-0.366,0.183,-0.122,156.022,-47.840,-65.704
13239,0.7480,0.2759,-0.6284,-0.671,-0.183,-0.305,156.017,-47.834,-65.704
13249,0.7476,0.2754,-0.6250,-0.854,-0.488,-0.427,156.011,-47.829,-65.704
13259,0.7495,0.2759,-0.6226,-0.916,-0.732,-0.488,156.000,-47.818,-65.704
13269,0.7471,0.2739,-0.6221,-0.793,-0.793,-0.488,155.995,-47.807,-65.704
13279,0.7456,0.2720,-0.6182,-0.610,-0.793,-0.427,155.989,-47.796,-65.704
13289,0.7461,0.2695,-0.6172,-0.366,-0.610,-0.305,155.989,-47.791,-65.704
13299,0.7476,0.2715,-0.6191,-0.061,-0.244,-0.183,155.989,-47.791,-65.704
13309,0.7480,0.2705,-0.6187,0.183,0.122,0.000,155.995,-47.796,-65.704
13319,0.7480,0.2700,-0.6221,0.366,0.549,0.061,156.000,-47.802,-65.704
13329,0.7456,0.2690,-0.6235,0.305,0.793,0.122,156.011,-47.807,-65.704
13339,0.7480,0.2710,-0.6240,0.183,0.854,0.122,156.017,-47.813,-65.704
13349,0.7485,0.2734,-0.6245,0.000,0.732,0.122,156.017,-47.818,-65.704
13359,0.7500,0.2734,-0.6250,-0.183,0.488,0.122,156.017,-47.823,-65.704
13369,0.7485,0.2759,-0.6250,-0.244,0.183,0.183,156.017,-47.823,-65.704
13379,0.7476,0.2769,-0.6255,-0.122,-0.122,0.244,156.017,-47.823,-65.704
13389,0.7471,0.2764,-0.6245,0.061,-0.244,0.244,156.022,-47.818,-65.704
13399,0.7451,0.2754,-0.6235,0.244,-0.366,0.244,156.033,-47.813,-65.704
13409,0.7471,0.2764,-0.6240,0.244,-0.305,0.244,156.039,-47.807,-65.704
13419,0.7476,0.2778,-0.6240,0.122,-0.183,0.183,156.044,-47.807,-65.704
13429,0.7476,0.2773,-0.6235,0.000,0.000,0.061,156.044,-47.802,-65.704
13439,0.7471,0.2773,-0.6245,-0.183,0.122,-0.061,156.039,-47.802,-65.704
13449,0.7466,0.2759,-0.6255,-0.366,0.061,-0.244,156.033,-47.802,-65.704
13459,0.7461,0.2788,-0.6206,-0.488,-0.122,-0.366,156.028,-47.796,-65.704
13469,0.7451,0.2783,-0.6201,-0.366,-0.366,-0.366,156.017,-47.791,-65.704
13479,0.7466,0.2759,-0.6182,-0.183,-0.488,-0.305,156.017,-47.785,-65.704
13489,0.7456,0.2744,-0.6172,0.061,-0.488,-0.305,156.017,-47.780,-65.704
13499,0.7476,0.2710,-0.6162,0.244,-0.305,-0.244,156.017,-47.780,-65.704
13509,0.7471,0.2710,-0.6177,0.244,0.000,-0.244,156.022,-47.780,-65.704
13519,0.7480,0.2725,-0.6201,0.122,0.305,-0.244,156.022,-47.780,-65.704
13529,0.7490,0.2715,-0.6206,0.000,0.610,-0.244,156.017,-47.785,-65.704
13539,0.7476,0.2700,-0.6226,-0.122,0.732,-0.244,156.017,-47.791,-65.704
13549,0.7495,0.2725,-0.6230,-0.183,0.793,-0.183,156.017,-47.796,-65.704
13559,0.7495,0.2725,-0.6245,-0.183,0.610,-0.183,156.011,-47.802,-65.704
13569,0.7505,0.2739,-0.6240,0.000,0.366,-0.061,156.011,-47.807,-65.704
13579,0.7490,0.2744,-0.6230,0.244,0.183,0.122,156.017,-47.807,-65.704
13589,0.7480,0.2729,-0.6216,0.366,-0.061,0.183,156.028,-47.807,-65.704
13599,0.7466,0.2744,-0.6235,0.488,-0.183,0.122,156.033,-47.802,-65.704
13609,0.7456,0.2725,-0.6240,0.305,-0.366,0.122,156.044,-47.802,-65.704
13619,0.7466,0.2749,-0.6230,0.122,-0.366,0.061,156.050,-47.796,-65.704
13629,0.7451,0.2744,-0.6226,-0.061,-0.305,0.122,156.055,-47.791,-65.704
13639,0.7466,0.2754,-0.6230,-0.061,-0.244,0.122,156.055,-47.785,-65.704
13649,0.7495,0.2764,-0.6216,0.122,-0.122,0.122,156.061,-47.785,-65.704
13659,0.7490,0.2754,-0.6226,0.305,-0.122,0.061,156.061,-47.785,-65.704
13669,0.7476,0.2744,-0.6235,0.244,-0.183,0.000,156.066,-47.785,-65.704
13679,0.7466,0.2744,-0.6235,0.000,-0.305,-0.061,156.072,-47.780,-65.704
13689,0.7480,0.2739,-0.6201,-0.305,-0.366,-0.122,156.072,-47.774,-65.704
13700,0.7451,0.2739,-0.6201,-0.549,-0.366,-0.244,156.066,-47.769,-65.704
13709,0.7417,0.2715,-0.6206,-0.671,-0.305,-0.305,156.061,-47.763,-65.704
13719,0.7446,0.2729,-0.6201,-0.610,-0.183,-0.244,156.055,-47.763,-65.704
13729,0.7461,0.2734,-0.6201,-0.427,-0.061,-0.122,156.050,-47.758,-65.704
13739,0.7471,0.2744,-0.6211,-0.061,0.061,0.000,156.050,-47.763,-65.704
13749,0.7466,0.2754,-0.6221,0.366,0.305,0.183,156.055,-47.763,-65.704
13759,0.7490,0.2769,-0.6255,0.732,0.610,0.305,156.061,-47.769,-65.704
13769,0.7500,0.2744,-0.6279,0.977,0.793,0.305,156.077,-47.774,-65.704
13779,0.7490,0.2734,-0.6299,1.038,0.854,0.305,156.088,-47.780,-65.704
13789,0.7485,0.2739,-0.6323,0.793,0.732,0.122,156.099,-47.785,-65.704
13799,0.7480,0.2739,-0.6343,0.366,0.427,-0.122,156.105,-47.785,-65.704
13809,0.7485,0.2739,-0.6304,-0.183,0.061,-0.244,156.105,-47.780,-65.704
13819,0.7490,0.2749,-0.6279,-0.549,-0.427,-0.366,156.099,-47.769,-65.704
13829,0.7500,0.2725,-0.6255,-0.671,-0.854,-0.427,156.099,-47.763,-65.704
13839,0.7485,0.2715,-0.6216,-0.610,-1.343,-0.366,156.094,-47.747,-65.704
13849,0.7485,0.2705,-0.6206,-0.488,-1.526,-0.305,156.099,-47.736,-65.704
13859,0.7466,0.2695,-0.6162,-0.244,-1.526,-0.244,156.105,-47.725,-65.704
13869,0.7446,0.2690,-0.6157,-0.122,-1.343,-0.061,156.110,-47.714,-65.704
13879,0.7441,0.2690,-0.6167,-0.061,-0.977,-0.061,156.116,-47.703,-65.704
13889,0.7422,0.2715,-0.6152,0.000,-0.427,0.061,156.121,-47.703,-65.704
13899,0.7422,0.2710,-0.6123,0.000,0.061,0.122,156.121,-47.708,-65.704
13909,0.7422,0.2734,-0.6167,0.000,0.427,0.183,156.121,-47.714,-65.704
13919,0.7407,0.2734,-0.6162,0.122,0.610,0.305,156.121,-47.719,-65.704
13929,0.7456,0.2759,-0.6216,0.244,0.854,0.366,156.121,-47.725,-65.704
13939,0.7471,0.2769,-0.6226,0.427,0.916,0.427,156.127,-47.736,-65.704
13949,0.7441,0.2769,-0.6250,0.549,1.038,0.427,156.132,-47.741,-65.704
13959,0.7456,0.2749,-0.6294,0.610,0.977,0.427,156.138,-47.752,-65.704
13969,0.7466,0.2754,-0.6309,0.488,0.854,0.244,156.149,-47.758,-65.704
13979,0.7476,0.2739,-0.6294,0.305,0.610,0.122,156.149,-47.758,-65.704
13989,0.7480,0.2749,-0.6318,0.000,0.366,0.000,156.154,-47.758,-65.704
13999,0.7490,0.2739,-0.6299,-0.305,0.000,-0.183,156.149,-47.752,-65.704
14009,0.7466,0.2720,-0.6289,-0.549,-0.244,-0.244,156.149,-47.747,-65.704
14019,0.7456,0.2729,-0.6260,-0.610,-0.488,-0.244,156.143,-47.741,-65.704
14029,0.7471,0.2729,-0.6284,-0.549,-0.671,-0.183,156.143,-47.730,-65.704
14039,0.7461,0.2715,-0.6255,-0.244,-0.671,-0.183,156.149,-47.725,-65.704
14049,0.7456,0.2715,-0.6216,-0.061,-0.610,-0.122,156.149,-47.719,-65.704
14059,0.7461,0.2690,-0.6235,0.000,-0.488,-0.061,156.160,-47.714,-65.704
14069,0.7446,0.2681,-0.6250,-0.061,-0.366,-0.061,156.165,-47.708,-65.704
14079,0.7441,0.2695,-0.6221,-0.183,-0.183,-0.061,156.165,-47.703,-65.704
14089,0.7451,0.2690,-0.6221,-0.366,-0.061,-0.061,156.165,-47.703,-65.704
14099,0.7451,0.2729,-0.6235,-0.488,-0.122,-0.061,156.165,-47.703,-65.704
14109,0.7476,0.2734,-0.6201,-0.366,-0.183,0.061,156.165,-47.703,-65.704
14119,0.7466,0.2739,-0.6206,-0.183,-0.183,0.122,156.165,-47.703,-65.704
14129,0.7485,0.2749,-0.6230,0.061,-0.183,0.244,156.165,-47.703,-65.704
14139,0.7476,0.2739,-0.6250,0.366,-0.122,0.366,156.176,-47.703,-65.704
14149,0.7480,0.2734,-0.6255,0.488,-0.061,0.366,156.187,-47.703,-65.704
14159,0.7485,0.2725,-0.6240,0.366,0.061,0.244,156.193,-47.703,-65.704
14169,0.7490,0.2759,-0.6265,0.122,0.122,0.122,156.198,-47.703,-65.704
14179,0.7495,0.2764,-0.6270,-0.183,0.122,0.000,156.193,-47.703,-65.704
14189,0.7476,0.2764,-0.6245,-0.488,0.000,-0.122,156.187,-47.703,-65.704
14200,0.7466,0.2749,-0.6250,-0.671,-0.183,-0.183,156.182,-47.697,-65.704
14209,0.7471,0.2754,-0.6235,-0.671,-0.549,-0.244,156.176,-47.692,-65.704
14219,0.7466,0.2754,-0.6226,-0.549,-0.793,-0.244,156.171,-47.681,-65.704
14229,0.7456,0.2759,-0.6245,-0.427,-0.854,-0.183,156.165,-47.670,-65.704
14239,0.7461,0.2754,-0.6226,-0.244,-0.793,-0.122,156.165,-47.664,-65.704
14249,0.7456,0.2734,-0.6196,-0.061,-0.549,-0.122,156.171,-47.659,-65.704
14259,0.7446,0.2725,-0.6216,-0.061,-0.305,-0.122,156.171,-47.659,-65.704
14269,0.7461,0.2729,-0.6240,-0.061,-0.061,-0.122,156.171,-47.653,-65.704
14279,0.7432,0.2739,-0.6245,-0.183,0.000,-0.183,156.165,-47.653,-65.704
14289,0.7437,0.2720,-0.6226,-0.244,-0.122,-0.183,156.165,-47.653,-65.704
14299,0.7441,0.2729,-0.6245,-0.244,-0.244,-0.122,156.165,-47.648,-65.704
14309,0.7441,0.2739,-0.6230,-0.244,-0.366,-0.061,156.165,-47.642,-65.704
14319,0.7441,0.2744,-0.6201,-0.122,-0.549,0.000,156.165,-47.637,-65.704
14329,0.7446,0.2739,-0.6221,0.061,-0.549,0.122,156.171,-47.631,-65.704
14339,0.7437,0.2754,-0.6221,0.183,-0.549,0.183,156.176,-47.626,-65.704
14349,0.7456,0.2759,-0.6211,0.305,-0.366,0.305,156.182,-47.626,-65.704
14359,0.7451,0.2769,-0.6206,0.488,-0.183,0.366,156.187,-47.626,-65.704
14369,0.7461,0.2783,-0.6221,0.610,0.061,0.305,156.198,-47.626,-65.704
14379,0.7466,0.2783,-0.6255,0.671,0.305,0.244,156.204,-47.631,-65.704
14389,0.7446,0.2817,-0.6245,0.732,0.366,0.122,156.204,-47.631,-65.704
14399,0.7461,0.2827,-0.6216,0.793,0.305,0.000,156.204,-47.631,-65.704
14409,0.7451,0.2773,-0.6255,1.038,0.183,-0.244,156.209,-47.631,-65.704
14419,0.7451,0.2729,-0.6250,0.916,0.122,-0.671,156.215,-47.631,-65.704
14429,0.7451,0.2700,-0.6235,0.549,0.244,-0.977,156.209,-47.626,-65.704
14439,0.7451,0.2676,-0.6230,-0.061,0.427,-1.038,156.204,-47.631,-65.687
14449,0.7432,0.2676,-0.6240,-0.610,0.610,-0.916,156.193,-47.631,-65.671
14459,0.7441,0.2700,-0.6235,-0.610,0.732,-0.732,156.182,-47.637,-65.654
14469,0.7437,0.2710,-0.6260,-0.244,0.793,-0.549,156.171,-47.637,-65.643
14479,0.7466,0.2720,-0.6245,0.549,0.793,-0.183,156.176,-47.642,-65.638
14489,0.7480,0.2690,-0.6274,1.221,0.732,0.183,156.193,-47.653,-65.632
14499,0.7471,0.2666,-0.6304,1.526,0.610,0.488,156.220,-47.659,-65.638
14509,0.7471,0.2661,-0.6313,1.404,0.427,0.610,156.248,-47.664,-65.643
14519,0.7456,0.2671,-0.6309,0.854,0.244,0.427,156.264,-47.664,-65.649
14529,0.7471,0.2686,-0.6318,0.122,0.000,0.183,156.275,-47.664,-65.649
14539,0.7471,0.2695,-0.6270,-0.610,-0.244,0.000,156.275,-47.659,-65.649
14549,0.7456,0.2710,-0.6235,-1.160,-0.488,-0.061,156.270,-47.653,-65.654
14559,0.7471,0.2759,-0.6260,-1.221,-0.610,0.000,156.259,-47.648,-65.660
14569,0.7476,0.2783,-0.6289,-0.916,-0.671,0.244,156.253,-47.642,-65.665
14579,0.7466,0.2778,-0.6255,-0.305,-0.732,0.488,156.253,-47.637,-65.676
14589,0.7441,0.2769,-0.6255,0.305,-0.549,0.610,156.264,-47.631,-65.687
14599,0.7466,0.2754,-0.6245,0.732,-0.244,0.610,156.281,-47.631,-65.698
14609,0.7466,0.2749,-0.6274,0.793,0.061,0.488,156.292,-47.631,-65.704
14619,0.7466,0.2773,-0.6284,0.488,0.427,0.305,156.297,-47.631,-65.704
14629,0.7456,0.2798,-0.6279,0.122,0.549,0.061,156.292,-47.637,-65.704
14639,0.7490,0.2769,-0.6294,-0.244,0.549,-0.122,156.286,-47.637,-65.698
14649,0.7485,0.2764,-0.6265,-0.610,0.427,-0.427,156.275,-47.637,-65.687
14659,0.7476,0.2744,-0.6250,-0.854,0.061,-0.610,156.259,-47.637,-65.682
14669,0.7485,0.2720,-0.6240,-0.977,-0.366,-0.671,156.248,-47.631,-65.671
14679,0.7490,0.2729,-0.6216,-1.038,-0.610,-0.671,156.231,-47.626,-65.665
14689,0.7490,0.2686,-0.6201,-0.977,-0.793,-0.610,156.226,-47.620,-65.665
14700,0.7480,0.2661,-0.6211,-0.732,-0.793,-0.488,156.220,-47.615,-65.660
14709,0.7446,0.2646,-0.6216,-0.488,-0.427,-0.244,156.220,-47.609,-65.660
14719,0.7432,0.2646,-0.6201,-0.183,-0.122,0.000,156.226,-47.609,-65.660
14729,0.7427,0.2656,-0.6196,-0.061,0.244,0.183,156.237,-47.615,-65.665
14739,0.7427,0.2666,-0.6191,0.000,0.549,0.427,156.242,-47.626,-65.665
14749,0.7427,0.2686,-0.6226,0.000,0.732,0.549,156.248,-47.631,-65.671
14759,0.7417,0.2720,-0.6211,0.000,0.732,0.732,156.253,-47.642,-65.676
14769,0.7427,0.2744,-0.6221,0.122,0.732,0.793,156.259,-47.648,-65.682
14779,0.7456,0.2759,-0.6270,0.305,0.793,0.916,156.264,-47.659,-65.687
14789,0.7461,0.2773,-0.6284,0.488,0.793,0.916,156.275,-47.664,-65.698
14799,0.7466,0.2769,-0.6270,0.610,0.854,0.793,156.286,-47.675,-65.704
14809,0.7461,0.2803,-0.6323,0.427,0.793,0.671,156.292,-47.681,-65.704
14819,0.7466,0.2778,-0.6309,0.183,0.671,0.427,156.292,-47.686,-65.709
14829,0.7471,0.2778,-0.6289,-0.183,0.488,0.244,156.292,-47.686,-65.709
14839,0.7485,0.2778,-0.6299,-0.488,0.305,0.000,156.281,-47.686,-65.709
14849,0.7485,0.2764,-0.6255,-0.671,0.061,-0.122,156.275,-47.686,-65.704
14859,0.7461,0.2739,-0.6270,-0.793,-0.122,-0.244,156.264,-47.681,-65.704
14869,0.7466,0.2739,-0.6230,-0.793,-0.305,-0.305,156.253,-47.675,-65.698
14879,0.7461,0.2715,-0.6240,-0.671,-0.366,-0.244,156.248,-47.675,-65.698
14889,0.7451,0.2686,-0.6211,-0.549,-0.366,-0.183,156.248,-47.670,-65.698
14899,0.7456,0.2686,-0.6196,-0.488,-0.183,-0.061,156.248,-47.670,-65.698
14909,0.7451,0.2690,-0.6187,-0.305,0.122,0.000,156.248,-47.670,-65.698
14919,0.7461,0.2686,-0.6172,-0.122,0.488,0.183,156.248,-47.681,-65.698
14929,0.7446,0.2700,-0.6191,0.061,0.916,0.244,156.248,-47.692,-65.693
14939,0.7456,0.2710,-0.6240,0.183,1.221,0.427,156.253,-47.703,-65.693
14949,0.7456,0.2705,-0.6260,0.305,1.404,0.488,156.259,-47.719,-65.693
14959,0.7466,0.2700,-0.6245,0.305,1.343,0.366,156.259,-47.730,-65.687
14969,0.7490,0.2725,-0.6260,0.183,1.160,0.305,156.264,-47.741,-65.687
14979,0.7480,0.2710,-0.6260,0.000,0.854,0.244,156.264,-47.747,-65.682
14989,0.7510,0.2734,-0.6260,-0.122,0.488,0.244,156.264,-47.752,-65.687
14999,0.7510,0.2749,-0.6265,-0.183,0.244,0.244,156.264,-47.758,-65.687
15009,0.7485,0.2759,-0.6255,-0.244,0.122,0.244,156.264,-47.758,-65.687
15019,0.7515,0.2754,-0.6255,-0.183,0.061,0.183,156.264,-47.758,-65.693
15029,0.7495,0.2739,-0.6245,-0.122,0.122,0.183,156.264,-47.758,-65.693
15039,0.7495,0.2739,-0.6230,-0.244,0.183,0.122,156.264,-47.763,-65.693
15049,0.7471,0.2729,-0.6226,-0.366,0.061,0.061,156.259,-47.763,-65.693
15059,0.7471,0.2729,-0.6226,-0.610,0.000,-0.061,156.253,-47.763,-65.693
15069,0.7476,0.2705,-0.6201,-0.732,0.000,-0.122,156.248,-47.763,-65.693
15079,0.7471,0.2729,-0.6191,-0.793,0.122,-0.061,156.237,-47.763,-65.693
15089,0.7466,0.2734,-0.6206,-0.671,0.244,0.061,156.231,-47.763,-65.687
15099,0.7480,0.2725,-0.6235,-0.427,0.366,0.183,156.226,-47.769,-65.687
15109,0.7476,0.2739,-0.6245,-0.183,0.549,0.244,156.226,-47.774,-65.687
15119,0.7485,0.2720,-0.6235,0.000,0.610,0.244,156.226,-47.780,-65.687
15129,0.7466,0.2710,-0.6289,0.061,0.671,0.244,156.231,-47.785,-65.687
15139,0.7471,0.2729,-0.6260,-0.122,0.549,0.244,156.231,-47.791,-65.687
15149,0.7495,0.2729,-0.6270,-0.244,0.366,0.244,156.237,-47.791,-65.693
15159,0.7490,0.2729,-0.6260,-0.244,0.244,0.305,156.237,-47.791,-65.693
15169,0.7480,0.2734,-0.6255,-0.183,0.122,0.305,156.237,-47.796,-65.698
15179,0.7490,0.2734,-0.6240,0.000,0.061,0.244,156.242,-47.796,-65.698
15189,0.7500,0.2744,-0.6250,-0.061,-0.061,0.244,156.242,-47.796,-65.704
15199,0.7500,0.2749,-0.6245,-0.122,-0.122,0.183,156.248,-47.791,-65.704
15209,0.7490,0.2759,-0.6206,-0.305,-0.183,0.061,156.242,-47.791,-65.709
15219,0.7490,0.2764,-0.6226,-0.488,-0.183,0.000,156.237,-47.791,-65.709
15229,0.7485,0.2764,-0.6226,-0.549,-0.183,-0.122,156.226,-47.785,-65.709
15239,0.7490,0.2739,-0.6206,-0.488,-0.122,-0.122,156.220,-47.785,-65.709
15249,0.7485,0.2739,-0.6216,-0.366,0.000,-0.122,156.215,-47.785,-65.704
15259,0.7466,0.2739,-0.6211,-0.244,0.183,-0.061,156.215,-47.785,-65.704
15269,0.7446,0.2744,-0.6201,-0.122,0.244,-0.061,156.209,-47.785,-65.704
15279,0.7451,0.2739,-0.6221,0.000,0.366,-0.061,156.209,-47.791,-65.698
15289,0.7471,0.2715,-0.6196,0.000,0.366,-0.122,156.204,-47.791,-65.693
15299,0.7446,0.2715,-0.6221,-0.122,0.366,-0.183,156.204,-47.796,-65.693
15309,0.7480,0.2734,-0.6211,-0.122,0.366,-0.122,156.198,-47.796,-65.687
15319,0.7495,0.2759,-0.6235,0.000,0.427,0.000,156.198,-47.802,-65.682
15329,0.7500,0.2749,-0.6245,0.244,0.427,0.183,156.198,-47.802,-65.682
15339,0.7510,0.2734,-0.6255,0.488,0.427,0.305,156.209,-47.807,-65.687
15349,0.7510,0.2734,-0.6270,0.610,0.366,0.183,156.215,-47.813,-65.687
15359,0.7500,0.2725,-0.6265,0.427,0.122,0.061,156.226,-47.813,-65.687
15369,0.7500,0.2720,-0.6265,0.000,-0.122,-0.061,156.226,-47.807,-65.687
15379,0.7485,0.2700,-0.6255,-0.549,-0.366,-0.244,156.226,-47.802,-65.682
15389,0.7471,0.2729,-0.6250,-0.977,-0.488,-0.244,156.215,-47.796,-65.682
15399,0.7446,0.2729,-0.6235,-1.160,-0.488,-0.244,156.204,-47.785,-65.682
15409,0.7466,0.2739,-0.6250,-0.977,-0.427,-0.061,156.198,-47.780,-65.687
15419,0.7461,0.2744,-0.6226,-0.549,-0.244,0.122,156.198,-47.780,-65.687
15429,0.7456,0.2744,-0.6230,-0.122,-0.183,0.305,156.198,-47.774,-65.693
15439,0.7466,0.2739,-0.6216,0.244,0.000,0.366,156.204,-47.780,-65.693
15449,0.7471,0.2739,-0.6230,0.488,0.061,0.488,156.215,-47.780,-65.693
15459,0.7480,0.2749,-0.6250,0.610,0.183,0.488,156.226,-47.780,-65.693
15469,0.7461,0.2759,-0.6265,0.488,0.305,0.366,156.231,-47.780,-65.693
15479,0.7515,0.2773,-0.6270,0.305,0.305,0.244,156.237,-47.785,-65.693
15489,0.7505,0.2788,-0.6250,0.122,0.183,0.122,156.237,-47.785,-65.693
15499,0.7505,0.2764,-0.6250,-0.061,0.061,-0.061,156.231,-47.785,-65.693
15509,0.7505,0.2759,-0.6255,-0.244,-0.183,-0.244,156.226,-47.780,-65.693
15519,0.7529,0.2729,-0.6250,-0.427,-0.427,-0.427,156.220,-47.774,-65.693
15529,0.7485,0.2695,-0.6245,-0.610,-0.671,-0.488,156.220,-47.769,-65.693
15539,0.7480,0.2695,-0.6216,-0.732,-0.793,-0.610,156.215,-47.758,-65.693
15549,0.7446,0.2690,-0.6167,-0.916,-0.793,-0.610,156.204,-47.752,-65.693
15559,0.7461,0.2705,-0.6182,-0.854,-0.671,-0.488,156.193,-47.747,-65.693
15569,0.7446,0.2686,-0.6172,-0.671,-0.366,-0.244,156.187,-47.741,-65.693
15579,0.7441,0.2686,-0.6172,-0.366,-0.061,0.000,156.187,-47.741,-65.693
15589,0.7441,0.2676,-0.6206,-0.061,0.183,0.244,156.193,-47.747,-65.693
15599,0.7427,0.2690,-0.6196,0.183,0.427,0.427,156.204,-47.752,-65.693
15609,0.7437,0.2710,-0.6211,0.305,0.610,0.549,156.209,-47.758,-65.693
15618,0.7451,0.2734,-0.6255,0.427,0.671,0.671,156.220,-47.763,-65.693
15629,0.7461,0.2754,-0.6284,0.549,0.671,0.793,156.231,-47.769,-65.693
15639,0.7471,0.2739,-0.6294,0.549,0.610,0.793,156.248,-47.774,-65.693
15649,0.7485,0.2759,-0.6289,0.488,0.427,0.732,156.259,-47.780,-65.693
15659,0.7476,0.2764,-0.6274,0.305,0.122,0.549,156.264,-47.780,-65.693
15669,0.7476,0.2769,-0.6274,0.000,-0.183,0.366,156.270,-47.774,-65.693
15679,0.7466,0.2759,-0.6255,-0.305,-0.366,0.122,156.264,-47.769,-65.693
15689,0.7451,0.2769,-0.6255,-0.549,-0.549,-0.061,156.264,-47.763,-65.693
15699,0.7446,0.2773,-0.6230,-0.671,-0.549,-0.183,156.253,-47.752,-65.693
15709,0.7456,0.2764,-0.6226,-0.671,-0.549,-0.244,156.242,-47.747,-65.693
15719,0.7456,0.2754,-0.6206,-0.488,-0.427,-0.305,156.237,-47.741,-65.693
15729,0.7461,0.2734,-0.6182,-0.305,-0.183,-0.305,156.231,-47.741,-65.693
15739,0.7476,0.2720,-0.6187,-0.061,0.122,-0.244,156.226,-47.741,-65.693
15749,0.7476,0.2715,-0.6172,0.122,0.488,-0.122,156.226,-47.747,-65.693
15759,0.7495,0.2739,-0.6206,0.305,0.793,-0.061,156.226,-47.758,-65.693
15768,0.7485,0.2729,-0.6221,0.427,1.160,0.000,156.226,-47.769,-65.693
15778,0.7466,0.2720,-0.6270,0.549,1.282,0.000,156.226,-47.774,-65.693
15789,0.7471,0.2705,-0.6270,0.549,1.282,0.061,156.231,-47.785,-65.693
15799,0.7500,0.2705,-0.6289,0.427,1.099,0.061,156.237,-47.796,-65.693
15808,0.7510,0.2686,-0.6313,0.183,0.732,0.000,156.242,-47.802,-65.693
15819,0.7505,0.2715,-0.6304,-0.061,0.305,-0.122,156.242,-47.802,-65.693
15829,0.7500,0.2705,-0.6309,-0.305,-0.122,-0.183,156.242,-47.796,-65.693
15838,0.7505,0.2715,-0.6274,-0.427,-0.488,-0.122,156.242,-47.791,-65.693
15848,0.7495,0.2720,-0.6255,-0.427,-0.671,-0.061,156.248,-47.780,-65.693
15859,0.7510,0.2715,-0.6250,-0.183,-0.793,0.122,156.253,-47.774,-65.693
15868,0.7480,0.2734,-0.6250,0.061,-0.671,0.244,156.259,-47.769,-65.693
15878,0.7461,0.2734,-0.6235,0.244,-0.488,0.305,156.264,-47.763,-65.693
15888,0.7446,0.2739,-0.6216,0.244,-0.305,0.305,156.275,-47.763,-65.693
15898,0.7446,0.2729,-0.6216,0.061,-0.122,0.183,156.275,-47.758,-65.693
15909,0.7432,0.2744,-0.6221,-0.244,-0.061,0.122,156.275,-47.758,-65.693
15918,0.7471,0.2739,-0.6191,-0.549,-0.122,0.000,156.270,-47.758,-65.693
15928,0.7476,0.2749,-0.6211,-0.610,-0.244,-0.122,156.259,-47.752,-65.693
15939,0.7466,0.2749,-0.6206,-0.549,-0.305,-0.122,156.253,-47.752,-65.693
15948,0.7476,0.2739,-0.6206,-0.305,-0.305,0.000,156.253,-47.747,-65.693
15959,0.7466,0.2749,-0.6221,-0.061,-0.183,0.061,156.253,-47.747,-65.693
15969,0.7451,0.2725,-0.6196,0.183,-0.061,0.061,156.253,-47.747,-65.693
15979,0.7437,0.2734,-0.6211,0.244,0.122,0.061,156.259,-47.747,-65.693
15988,0.7446,0.2754,-0.6191,0.122,0.366,0.000,156.253,-47.752,-65.693
15999,0.7441,0.2715,-0.6216,0.061,0.610,-0.061,156.253,-47.752,-65.693
16009,0.7461,0.2739,-0.6221,-0.061,0.671,-0.122,156.248,-47.758,-65.693
16018,0.7461,0.2729,-0.6235,-0.183,0.671,-0.183,156.242,-47.763,-65.693
16028,0.7490,0.2729,-0.6250,-0.183,0.610,-0.122,156.237,-47.769,-65.693
16038,0.7510,0.2749,-0.6265,-0.122,0.366,-0.061,156.237,-47.769,-65.693
16048,0.7505,0.2729,-0.6260,0.000,0.183,0.000,156.237,-47.769,-65.693
16058,0.7485,0.2725,-0.6279,0.122,0.061,0.122,156.242,-47.769,-65.693
16068,0.7485,0.2710,-0.6274,0.122,0.000,0.183,156.248,-47.769,-65.693
16078,0.7490,0.2715,-0.6260,0.122,-0.061,0.122,156.253,-47.769,-65.693
16088,0.7500,0.2715,-0.6265,0.000,-0.122,0.122,156.259,-47.769,-65.693
16098,0.7500,0.2715,-0.6284,-0.061,-0.183,0.122,156.264,-47.763,-65.693
16108,0.7461,0.2749,-0.6284,-0.183,-0.244,0.061,156.264,-47.758,-65.693
16118,0.7461,0.2739,-0.6240,-0.305,-0.305,0.000,156.264,-47.752,-65.693
16128,0.7446,0.2729,-0.6201,-0.305,-0.427,0.000,156.264,-47.752,-65.693
16138,0.7451,0.2720,-0.6211,-0.244,-0.427,0.061,156.264,-47.747,-65.693
16148,0.7456,0.2734,-0.6201,0.000,-0.366,0.183,156.264,-47.741,-65.693
16158,0.7461,0.2739,-0.6201,0.244,-0.122,0.305,156.270,-47.741,-65.693
16168,0.7471,0.2729,-0.6206,0.427,0.061,0.427,156.281,-47.747,-65.693
16178,0.7461,0.2734,-0.6216,0.488,0.244,0.427,156.286,-47.747,-65.693
16188,0.7480,0.2744,-0.6230,0.488,0.305,0.366,156.292,-47.752,-65.693
16199,0.7490,0.2749,-0.6250,0.244,0.305,0.183,156.297,-47.758,-65.693
16208,0.7480,0.2734,-0.6255,-0.061,0.122,0.000,156.297,-47.758,-65.693
16218,0.7461,0.2734,-0.6245,-0.488,0.000,-0.122,156.292,-47.752,-65.693
16228,0.7466,0.2749,-0.6240,-0.854,-0.183,-0.183,156.281,-47.752,-65.693
16238,0.7461,0.2759,-0.6216,-0.916,-0.244,-0.244,156.270,-47.747,-65.693
16248,0.7451,0.2725,-0.6206,-0.793,-0.183,-0.183,156.259,-47.741,-65.693
16258,0.7437,0.2729,-0.6196,-0.549,-0.122,-0.122,156.253,-47.741,-65.693
16268,0.7446,0.2710,-0.6240,-0.244,0.061,-0.061,156.253,-47.741,-65.693
16278,0.7471,0.2710,-0.6265,0.061,0.183,0.122,156.259,-47.741,-65.693
16288,0.7476,0.2715,-0.6284,0.244,0.427,0.183,156.264,-47.741,-65.693
16298,0.7480,0.2725,-0.6279,0.366,0.671,0.305,156.270,-47.747,-65.693
16308,0.7490,0.2729,-0.6294,0.488,0.732,0.366,156.275,-47.752,-65.693
16318,0.7515,0.2754,-0.6289,0.488,0.671,0.305,156.281,-47.758,-65.693
16328,0.7520,0.2754,-0.6309,0.427,0.366,0.183,156.286,-47.763,-65.693
16338,0.7510,0.2759,-0.6313,0.244,-0.061,0.061,156.292,-47.758,-65.693
16348,0.7524,0.2749,-0.6304,-0.061,-0.549,-0.061,156.297,-47.752,-65.693
16358,0.7524,0.2754,-0.6270,-0.305,-1.038,-0.244,156.297,-47.741,-65.693
16368,0.7505,0.2744,-0.6265,-0.610,-1.465,-0.305,156.292,-47.725,-65.693
16378,0.7505,0.2720,-0.6221,-0.793,-1.648,-0.488,156.286,-47.708,-65.693
16388,0.7461,0.2705,-0.6206,-0.916,-1.709,-0.610,156.281,-47.692,-65.693
16398,0.7476,0.2700,-0.6206,-0.916,-1.526,-0.549,156.275,-47.681,-65.693
16408,0.7422,0.2666,-0.6152,-0.793,-1.160,-0.427,156.270,-47.670,-65.693
16418,0.7412,0.2690,-0.6113,-0.549,-0.793,-0.183,156.270,-47.664,-65.693
16428,0.7432,0.2690,-0.6133,-0.305,-0.305,0.061,156.264,-47.664,-65.693
16438,0.7407,0.2705,-0.6177,0.000,0.122,0.305,156.270,-47.670,-65.693
16448,0.7417,0.2715,-0.6187,0.244,0.488,0.488,156.275,-47.675,-65.693
16458,0.7441,0.2739,-0.6221,0.427,0.671,0.610,156.281,-47.681,-65.693
16468,0.7471,0.2744,-0.6240,0.549,0.732,0.671,156.292,-47.692,-65.693
16478,0.7466,0.2744,-0.6265,0.549,0.732,0.610,156.302,-47.697,-65.693
16488,0.7466,0.2769,-0.6265,0.488,0.732,0.549,156.308,-47.703,-65.693
16498,0.7471,0.2759,-0.6289,0.366,0.610,0.305,156.308,-47.708,-65.693
16508,0.7456,0.2769,-0.6313,0.061,0.427,0.122,156.308,-47.708,-65.693
16518,0.7461,0.2744,-0.6294,-0.244,0.183,-0.122,156.308,-47.708,-65.693
16528,0.7471,0.2754,-0.6294,-0.488,-0.122,-0.244,156.302,-47.703,-65.693
16538,0.7461,0.2749,-0.6294,-0.732,-0.366,-0.366,156.292,-47.692,-65.693
16548,0.7451,0.2749,-0.6250,-0.793,-0.549,-0.366,156.281,-47.686,-65.693
16558,0.7466,0.2729,-0.6245,-0.671,-0.671,-0.244,156.275,-47.681,-65.693
16568,0.7466,0.2725,-0.6226,-0.488,-0.671,-0.183,156.275,-47.670,-65.693
16578,0.7456,0.2710,-0.6230,-0.244,-0.610,-0.061,156.275,-47.664,-65.693
16588,0.7456,0.2700,-0.6230,-0.061,-0.427,0.000,156.281,-47.664,-65.693
16598,0.7432,0.2700,-0.6206,-0.061,-0.183,-0.061,156.281,-47.659,-65.693
16608,0.7437,0.2700,-0.6211,-0.061,0.061,0.000,156.286,-47.659,-65.693
16618,0.7466,0.2705,-0.6211,-0.061,0.305,0.061,156.286,-47.664,-65.693
16628,0.7466,0.2705,-0.6226,-0.061,0.427,0.122,156.286,-47.670,-65.693
16638,0.7461,0.2720,-0.6230,-0.061,0.488,0.122,156.286,-47.675,-65.693
16648,0.7466,0.2729,-0.6245,0.000,0.488,0.183,156.286,-47.681,-65.693
16658,0.7485,0.2739,-0.6260,0.122,0.427,0.183,156.286,-47.686,-65.693
16668,0.7466,0.2715,-0.6274,0.061,0.366,0.183,156.292,-47.686,-65.693
16678,0.7485,0.2715,-0.6294,0.000,0.244,0.183,156.297,-47.686,-65.693
16688,0.7485,0.2725,-0.6279,-0.122,0.122,0.183,156.297,-47.686,-65.693
