elapsed_ms,acc_x_g,acc_y_g,acc_z_g,gyro_x_dps,gyro_y_dps,gyro_z_dps,angle_x_deg,angle_y_deg,angle_z_deg
0,-0.3369,0.6118,-0.7734,7.690,23.743,2.441,141.971,19.962,-110.638
10,-0.3477,0.5737,-0.7500,4.272,17.944,-0.793,142.059,19.830,-110.511
20,-0.3618,0.5532,-0.7271,-4.028,6.958,-3.662,142.053,19.814,-110.440
30,-0.3540,0.5630,-0.7505,-11.536,-2.441,-5.249,141.960,19.874,-110.407
40,-0.3384,0.6133,-0.7915,-15.747,-5.615,-5.127,141.806,19.935,-110.402
50,-0.3286,0.6636,-0.8105,-13.794,-2.197,-3.296,141.663,19.946,-110.391
60,-0.3345,0.6440,-0.7817,-3.601,3.479,-0.977,141.630,19.913,-110.358
70,-0.3403,0.6157,-0.7588,7.874,5.676,0.427,141.713,19.858,-110.325
80,-0.3408,0.5840,-0.7559,16.785,4.456,1.160,141.888,19.814,-110.308
90,-0.3408,0.5352,-0.7422,20.386,-0.122,2.136,142.108,19.808,-110.325
100,-0.3345,0.5278,-0.7759,16.968,-3.906,2.686,142.295,19.819,-110.374
110,-0.3306,0.5454,-0.8091,10.376,-3.967,2.686,142.421,19.825,-110.424
120,-0.3296,0.5737,-0.8184,3.052,-0.977,2.197,142.465,19.803,-110.446
130,-0.3271,0.6006,-0.8081,-2.258,3.296,0.793,142.460,19.753,-110.429
140,-0.3291,0.6255,-0.8003,-4.578,5.066,-0.916,142.421,19.698,-110.391
150,-0.3364,0.6240,-0.7725,-4.089,3.784,-1.709,142.383,19.671,-110.352
160,-0.3501,0.5962,-0.7485,-1.404,-0.488,-1.770,142.361,19.693,-110.341
170,-0.3569,0.5742,-0.7349,0.671,-5.493,-1.465,142.355,19.753,-110.363
180,-0.3521,0.5767,-0.7461,1.587,-8.911,-0.061,142.355,19.830,-110.418
190,-0.3384,0.5991,-0.7759,2.991,-8.362,2.014,142.361,19.880,-110.490
200,-0.3389,0.5986,-0.7744,5.676,-4.456,3.357,142.394,19.885,-110.550
210,-0.3452,0.5830,-0.7539,6.958,-0.977,2.869,142.454,19.874,-110.577
220,-0.3555,0.5649,-0.7314,5.859,-0.305,0.977,142.504,19.885,-110.588
230,-0.3667,0.5400,-0.7095,1.953,-3.235,-0.854,142.520,19.940,-110.605
240,-0.3477,0.5835,-0.7544,-4.028,-5.371,-1.465,142.471,19.990,-110.627
250,-0.3364,0.6284,-0.7827,-6.592,-3.113,-0.977,142.388,20.006,-110.638
260,-0.3379,0.6523,-0.7803,-4.395,1.038,0.061,142.328,19.984,-110.632
270,-0.3408,0.6646,-0.7852,1.038,5.615,0.366,142.322,19.918,-110.599
280,-0.3530,0.5869,-0.7329,7.324,6.287,0.427,142.399,19.874,-110.561
290,-0.3535,0.5488,-0.7031,8.484,1.526,-0.610,142.482,19.885,-110.544
300,-0.3584,0.5254,-0.7139,6.165,-4.272,-1.831,142.553,19.951,-110.555
310,-0.3696,0.5151,-0.7207,0.916,-8.301,-1.526,142.564,20.050,-110.599
320,-0.3691,0.5488,-0.7344,-4.578,-7.385,-0.610,142.515,20.132,-110.643
330,-0.3501,0.6143,-0.7930,-5.981,-1.038,0.183,142.449,20.127,-110.649
340,-0.3291,0.6577,-0.8354,-2.747,8.667,0.793,142.432,20.028,-110.599
350,-0.3345,0.6406,-0.8145,3.479,15.869,0.671,142.493,19.880,-110.500
360,-0.3423,0.5952,-0.7588,6.897,16.663,0.549,142.586,19.742,-110.402
370,-0.3530,0.5332,-0.7051,7.385,8.789,0.183,142.685,19.687,-110.347
380,-0.3594,0.4907,-0.6846,4.578,-2.625,-0.305,142.740,19.748,-110.358
390,-0.3540,0.5088,-0.7129,-0.671,-11.230,0.244,142.729,19.858,-110.435
400,-0.3364,0.5605,-0.7749,-3.540,-12.390,2.014,142.674,19.935,-110.528
410,-0.3237,0.6089,-0.8276,-2.991,-4.150,4.150,142.630,19.918,-110.594
420,-0.3252,0.6328,-0.8335,-0.061,7.019,4.822,142.635,19.808,-110.588
430,-0.3315,0.6221,-0.8062,3.845,14.954,4.639,142.690,19.649,-110.528
440,-0.3418,0.5986,-0.7827,5.798,15.747,4.028,142.767,19.495,-110.462
450,-0.3506,0.5752,-0.7603,5.188,10.010,2.991,142.833,19.402,-110.424
460,-0.3516,0.5728,-0.7515,2.686,1.099,1.526,142.855,19.396,-110.429
470,-0.3457,0.5869,-0.7666,0.427,-6.287,0.183,142.844,19.446,-110.473
480,-0.3340,0.6084,-0.7993,-0.305,-8.545,-0.122,142.822,19.506,-110.522
490,-0.3325,0.5977,-0.7964,0.610,-6.165,-0.244,142.817,19.545,-110.561
500,-0.3252,0.6221,-0.8003,0.916,-2.563,-0.977,142.817,19.556,-110.572
510,-0.3213,0.6035,-0.8022,1.709,-0.122,-1.953,142.844,19.550,-110.555
520,-0.3237,0.5908,-0.7944,1.038,-0.854,-2.808,142.866,19.556,-110.539
530,-0.3472,0.5713,-0.7373,-1.648,-4.089,-4.028,142.844,19.622,-110.528
540,-0.3892,0.5088,-0.6465,-4.395,-10.986,-4.517,142.778,19.792,-110.561
550,-0.3994,0.5073,-0.6226,-7.324,-17.761,-4.517,142.663,20.028,-110.638
560,-0.3779,0.5649,-0.6963,-6.592,-20.020,-3.357,142.548,20.231,-110.737
570,-0.3481,0.6108,-0.7847,-1.160,-12.024,-0.427,142.504,20.319,-110.814
580,-0.3306,0.6313,-0.8252,4.883,2.625,2.136,142.553,20.259,-110.814
590,-0.3267,0.6182,-0.8193,8.240,16.174,2.319,142.668,20.094,-110.726
600,-0.3340,0.6006,-0.7847,6.775,22.217,1.038,142.778,19.896,-110.594
610,-0.3418,0.5669,-0.7432,2.686,17.822,-0.793,142.844,19.764,-110.473
620,-0.3530,0.5347,-0.7158,-2.563,6.409,-3.052,142.844,19.748,-110.407
630,-0.3496,0.5479,-0.7236,-8.972,-5.859,-4.822,142.756,19.836,-110.402
640,-0.3491,0.5728,-0.7422,-11.536,-12.512,-4.883,142.630,19.973,-110.440
650,-0.3345,0.6138,-0.7832,-9.460,-11.902,-3.296,142.509,20.072,-110.490
660,-0.3306,0.6162,-0.8003,-2.808,-4.883,-0.916,142.471,20.094,-110.511
670,-0.3325,0.5864,-0.8008,3.906,2.502,0.732,142.526,20.056,-110.506
680,-0.3350,0.5640,-0.7959,5.493,6.836,0.671,142.619,19.984,-110.468
690,-0.3467,0.5161,-0.7700,1.709,5.676,-0.244,142.685,19.951,-110.424
700,-0.3501,0.5278,-0.7568,-7.324,0.122,-1.221,142.635,19.962,-110.413
710,-0.3428,0.5776,-0.7676,-15.015,-5.432,-1.465,142.487,20.012,-110.440
720,-0.3437,0.6230,-0.7803,-15.442,-7.874,-0.183,142.306,20.067,-110.490
730,-0.3403,0.6392,-0.7949,-8.484,-5.554,1.160,142.196,20.083,-110.533
740,-0.3359,0.6099,-0.7949,1.831,-1.221,1.404,142.207,20.072,-110.555
750,-0.3315,0.5630,-0.7759,7.996,1.099,0.671,142.306,20.050,-110.550
760,-0.3530,0.5215,-0.7358,6.348,-0.671,0.122,142.394,20.067,-110.555
770,-0.3711,0.4966,-0.7051,-1.953,-6.470,0.549,142.383,20.143,-110.605
780,-0.3755,0.5425,-0.7036,-12.573,-11.169,0.977,142.229,20.253,-110.682
790,-0.3599,0.6465,-0.7461,-18.555,-11.353,1.709,141.982,20.330,-110.775
800,-0.3442,0.7329,-0.7822,-14.404,-4.395,3.113,141.773,20.319,-110.830
810,-0.3442,0.7207,-0.7710,-0.854,5.188,3.784,141.713,20.237,-110.825
820,-0.3394,0.6914,-0.7632,11.597,11.719,3.723,141.806,20.099,-110.781
830,-0.3535,0.5854,-0.7100,19.775,11.963,2.319,142.009,20.001,-110.720
840,-0.3828,0.4756,-0.6558,18.860,3.662,0.671,142.224,20.023,-110.704
850,-0.3760,0.4932,-0.6914,8.118,-6.287,-1.282,142.317,20.121,-110.731
860,-0.3760,0.5337,-0.7314,-0.977,-11.230,-1.465,142.300,20.242,-110.792
870,-0.3701,0.5864,-0.7568,-5.005,-8.179,0.793,142.229,20.308,-110.852
880,-0.3428,0.6572,-0.8110,-2.747,1.709,2.502,142.185,20.259,-110.863
890,-0.3232,0.6846,-0.8501,6.104,13.672,3.052,142.256,20.094,-110.797
900,-0.3145,0.6748,-0.8535,14.404,21.790,3.357,142.432,19.863,-110.687
910,-0.3159,0.6147,-0.7979,19.165,22.644,3.479,142.663,19.644,-110.566
920,-0.3340,0.5215,-0.7319,18.738,13.855,2.319,142.888,19.528,-110.500
930,-0.3467,0.4785,-0.7119,9.888,-0.244,-0.610,143.020,19.556,-110.495
940,-0.3652,0.4653,-0.7124,-0.854,-12.695,-3.113,143.031,19.715,-110.550
950,-0.3652,0.4990,-0.7349,-9.766,-18.494,-4.028,142.938,19.907,-110.632
960,-0.3560,0.5552,-0.7651,-12.756,-15.137,-2.441,142.795,20.050,-110.709
970,-0.3398,0.6372,-0.8032,-8.545,-5.981,1.099,142.679,20.072,-110.759
980,-0.3276,0.6797,-0.8218,2.747,5.798,5.066,142.685,19.968,-110.764
990,-0.3320,0.6719,-0.8105,15.076,14.587,7.690,142.822,19.781,-110.731
1000,-0.3213,0.6724,-0.8105,21.973,17.151,8.057,143.026,19.572,-110.693
1010,-0.3369,0.5684,-0.7588,25.269,12.573,5.737,143.289,19.435,-110.660
1020,-0.3530,0.4775,-0.7119,18.982,0.977,1.343,143.503,19.451,-110.665
1030,-0.3457,0.4727,-0.7183,4.944,-11.414,-4.028,143.569,19.589,-110.704
1040,-0.3389,0.5352,-0.7651,-8.972,-19.043,-6.958,143.476,19.786,-110.764
1050,-0.3501,0.5840,-0.7808,-15.198,-17.761,-5.676,143.300,19.962,-110.825
1060,-0.3511,0.6348,-0.7856,-12.756,-10.498,-2.258,143.135,20.050,-110.874
1070,-0.3462,0.6489,-0.7720,-4.028,-0.916,0.793,143.064,20.039,-110.885
1080,-0.3462,0.6221,-0.7598,5.493,5.554,2.136,143.097,19.979,-110.869
1090,-0.3384,0.6118,-0.7778,9.888,7.996,1.587,143.196,19.896,-110.830
1100,-0.3384,0.5879,-0.7915,10.376,6.775,0.122,143.317,19.830,-110.792
1110,-0.3462,0.5376,-0.7866,6.592,2.930,-1.465,143.416,19.819,-110.759
1120,-0.3394,0.5322,-0.7861,-0.427,-1.465,-3.906,143.443,19.852,-110.737
1130,-0.3437,0.5278,-0.7778,-7.263,-4.883,-5.859,143.399,19.924,-110.715
1140,-0.3462,0.5459,-0.7651,-11.292,-6.470,-5.798,143.300,20.017,-110.709
1150,-0.3530,0.5532,-0.7407,-9.583,-6.592,-4.272,143.207,20.099,-110.715
1160,-0.3618,0.5591,-0.7173,-4.089,-6.226,-1.465,143.146,20.176,-110.742
1170,-0.3730,0.5415,-0.7007,2.808,-5.615,1.526,143.146,20.237,-110.792
1180,-0.3628,0.5615,-0.7412,7.568,-3.662,3.906,143.201,20.253,-110.847
1190,-0.3267,0.6025,-0.8267,10.315,1.953,5.310,143.295,20.182,-110.880
1200,-0.3115,0.6143,-0.8691,10.620,9.583,5.554,143.421,20.034,-110.863
1210,-0.3120,0.6270,-0.8755,7.019,15.625,4.211,143.520,19.847,-110.803
1220,-0.3228,0.6104,-0.8438,1.282,17.151,2.258,143.569,19.671,-110.715
1230,-0.3647,0.5225,-0.7246,-4.517,10.315,-0.793,143.558,19.616,-110.643
1240,-0.3867,0.4941,-0.6655,-10.986,-3.906,-5.188,143.454,19.731,-110.621
1250,-0.3872,0.5186,-0.6821,-14.771,-16.541,-7.324,143.284,19.957,-110.665
1260,-0.3779,0.5591,-0.7334,-12.634,-23.804,-5.859,143.119,20.204,-110.764
1270,-0.3501,0.6245,-0.7979,-7.080,-19.775,-1.343,142.998,20.352,-110.880
1280,-0.3169,0.6724,-0.8633,1.526,-7.629,3.662,142.976,20.352,-110.962
1290,-0.3081,0.6597,-0.8525,9.399,6.714,6.348,143.058,20.215,-110.973
1300,-0.3398,0.5957,-0.7642,12.207,14.160,6.592,143.179,20.056,-110.934
1310,-0.3613,0.5254,-0.6763,9.399,10.498,3.418,143.278,19.979,-110.896
1320,-0.4009,0.4517,-0.5996,3.662,-2.502,-1.343,143.311,20.089,-110.901
1330,-0.4199,0.4404,-0.5781,-3.967,-17.883,-4.822,143.240,20.358,-110.978
1340,-0.3989,0.4893,-0.6870,-8.240,-26.123,-6.348,143.130,20.654,-111.088
1350,-0.3428,0.6470,-0.8818,-10.254,-19.226,-3.418,143.004,20.792,-111.182
1360,-0.3218,0.7271,-0.9551,-6.104,1.160,2.441,142.938,20.715,-111.198
1370,-0.3149,0.7104,-0.9053,1.770,20.752,6.897,142.971,20.451,-111.121
1380,-0.3081,0.6621,-0.8247,6.409,31.189,7.568,143.064,20.121,-110.984
1390,-0.3271,0.5937,-0.7505,9.521,26.306,3.906,143.190,19.874,-110.852
1400,-0.3428,0.5562,-0.7187,9.277,8.606,-1.282,143.295,19.825,-110.786
1410,-0.3384,0.5303,-0.7192,8.118,-10.437,-4.944,143.366,19.946,-110.808
1420,-0.3311,0.5103,-0.7515,7.202,-24.536,-6.592,143.432,20.176,-110.907
1430,-0.3247,0.5239,-0.8086,5.249,-28.992,-6.226,143.476,20.429,-111.039
1440,-0.3203,0.5576,-0.8491,1.465,-23.254,-3.662,143.481,20.610,-111.154
1450,-0.3257,0.5796,-0.8477,-0.916,-12.085,-0.366,143.465,20.676,-111.231
1460,-0.3320,0.6064,-0.8330,-0.916,-1.831,1.526,143.454,20.654,-111.253
1470,-0.3574,0.5957,-0.7798,0.427,2.869,1.953,143.448,20.610,-111.253
1480,-0.3784,0.5664,-0.7139,0.549,-0.305,1.587,143.432,20.627,-111.270
1490,-0.3901,0.5151,-0.6812,0.427,-7.812,-0.793,143.416,20.731,-111.308
1500,-0.3901,0.4980,-0.6890,-2.686,-15.503,-2.991,143.372,20.912,-111.385
1510,-0.3677,0.5171,-0.7549,-6.348,-18.433,-4.089,143.300,21.094,-111.467
1520,-0.3530,0.5591,-0.8105,-9.583,-13.733,-2.808,143.207,21.204,-111.528
1530,-0.3506,0.5947,-0.8086,-11.108,-5.310,-0.183,143.086,21.226,-111.561
1540,-0.3765,0.5796,-0.7402,-9.277,1.221,1.221,142.982,21.215,-111.566
1550,-0.4092,0.5605,-0.6582,-7.446,0.244,1.282,142.872,21.248,-111.572
1560,-0.4136,0.5566,-0.6499,-5.920,-5.676,0.549,142.762,21.335,-111.616
1570,-0.4067,0.5591,-0.6885,-3.662,-10.132,0.366,142.685,21.445,-111.687
1580,-0.3931,0.5713,-0.7251,-2.258,-9.766,1.160,142.625,21.533,-111.758
1590,-0.3838,0.5845,-0.7476,-1.587,-4.395,2.136,142.586,21.561,-111.802
1600,-0.3652,0.5962,-0.7988,-1.221,3.418,2.136,142.581,21.506,-111.802
1610,-0.3457,0.6475,-0.8599,-2.563,11.230,1.404,142.586,21.374,-111.742
1620,-0.3550,0.6528,-0.8291,-3.723,16.235,0.854,142.575,21.209,-111.643
1630,-0.3672,0.6221,-0.7368,-5.432,13.977,0.732,142.526,21.094,-111.555
1640,-0.3809,0.5630,-0.6626,-5.859,3.784,-1.282,142.449,21.094,-111.522
1650,-0.3853,0.5601,-0.6675,-7.629,-8.911,-3.845,142.339,21.215,-111.544
1660,-0.3740,0.5859,-0.7334,-7.629,-16.296,-4.578,142.229,21.379,-111.616
1670,-0.3721,0.5825,-0.7900,-2.808,-13.550,-4.089,142.196,21.500,-111.671
1680,-0.3716,0.5654,-0.7827,1.221,-4.517,-2.502,142.224,21.550,-111.676
1690,-0.3613,0.5723,-0.7686,2.747,3.662,-0.977,142.278,21.517,-111.643
1700,-0.3521,0.6011,-0.7686,2.686,8.179,0.427,142.317,21.434,-111.594
1710,-0.3706,0.6074,-0.7397,2.197,7.507,1.892,142.333,21.363,-111.561
1720,-0.3887,0.6084,-0.7231,1.465,4.272,1.953,142.328,21.324,-111.550
1730,-0.4082,0.5664,-0.6953,1.831,0.610,-0.305,142.333,21.352,-111.544
1740,-0.4136,0.5513,-0.6802,-0.183,-2.747,-2.991,142.322,21.434,-111.533
1750,-0.4038,0.5596,-0.7026,-2.319,-3.723,-4.150,142.295,21.517,-111.522
1760,-0.3789,0.5933,-0.7520,-1.099,-1.282,-2.991,142.284,21.544,-111.506
1770,-0.3579,0.6167,-0.7783,2.502,3.906,-0.427,142.311,21.500,-111.478
1780,-0.3418,0.6465,-0.8032,6.592,8.789,1.404,142.383,21.390,-111.434
1790,-0.3232,0.6772,-0.8511,9.338,12.451,1.587,142.493,21.231,-111.363
1800,-0.3057,0.6943,-0.8843,9.583,14.465,0.732,142.614,21.055,-111.275
1810,-0.3140,0.6479,-0.8594,8.240,12.695,-1.465,142.729,20.918,-111.182
1820,-0.3340,0.5713,-0.8096,3.906,6.104,-6.104,142.822,20.880,-111.088
1830,-0.3789,0.4580,-0.7368,-3.662,-5.127,-12.329,142.866,21.022,-111.017
1840,-0.3960,0.4321,-0.7056,-14.404,-17.517,-16.846,142.789,21.308,-110.989
1850,-0.3984,0.4395,-0.7056,-20.996,-25.757,-18.127,142.630,21.665,-111.000
1860,-0.3921,0.4814,-0.6953,-22.156,-28.015,-13.916,142.416,22.000,-111.061
1870,-0.3770,0.5508,-0.7227,-17.090,-22.949,-6.592,142.213,22.225,-111.160
1880,-0.3687,0.5835,-0.7383,-5.737,-10.925,1.831,142.119,22.291,-111.248
1890,-0.3574,0.5874,-0.7490,6.836,2.625,7.996,142.163,22.203,-111.297
1900,-0.3525,0.5781,-0.7622,16.296,14.404,10.559,142.333,22.006,-111.292
1912,-0.3682,0.5117,-0.7476,20.386,20.386,10.925,142.581,21.780,-111.248
1920,-0.3657,0.4961,-0.7598,16.235,19.043,9.033,142.806,21.583,-111.204
1930,-0.3667,0.5200,-0.7871,6.836,13.245,6.348,142.921,21.434,-111.171
1940,-0.3721,0.5767,-0.8125,-2.808,6.042,5.066,142.910,21.346,-111.176
1950,-0.3643,0.6484,-0.8433,-8.118,1.709,5.310,142.811,21.275,-111.209
1960,-0.3564,0.6807,-0.8364,-6.409,0.183,6.104,142.707,21.209,-111.259
1970,-0.3335,0.6929,-0.8130,-1.709,-1.038,5.981,142.641,21.143,-111.319
1980,-0.3374,0.6558,-0.7734,3.479,-3.479,4.333,142.625,21.116,-111.379
1990,-0.3608,0.5923,-0.7134,5.371,-8.972,1.587,142.630,21.182,-111.451
2000,-0.3906,0.5317,-0.6562,1.770,-16.235,-1.343,142.597,21.352,-111.544
2010,-0.4297,0.4546,-0.5918,-4.272,-23.376,-3.113,142.509,21.643,-111.671
2020,-0.4531,0.4097,-0.5566,-10.681,-27.771,-2.686,142.355,21.989,-111.830
2030,-0.4580,0.3848,-0.5439,-16.846,-26.917,2.197,142.141,22.313,-112.028
2040,-0.4355,0.4258,-0.5713,-19.897,-20.691,12.085,141.861,22.495,-112.264
2050,-0.3931,0.5161,-0.6958,-12.451,-6.592,23.682,141.663,22.418,-112.511
2060,-0.3286,0.6504,-0.8428,-0.732,13.977,34.973,141.586,22.044,-112.714
2070,-0.2905,0.7324,-0.9272,13.306,37.537,43.274,141.674,21.401,-112.830
2080,-0.2866,0.7368,-0.9243,28.076,55.847,45.410,141.949,20.616,-112.841
2090,-0.3032,0.6802,-0.8794,36.621,62.073,42.053,142.333,19.819,-112.786
2100,-0.3120,0.5962,-0.8364,35.400,53.711,32.532,142.729,19.171,-112.709
2110,-0.3184,0.5576,-0.8105,23.743,33.997,19.958,143.009,18.770,-112.659
2120,-0.3218,0.5474,-0.8140,4.822,9.766,8.728,143.080,18.638,-112.670
2130,-0.3105,0.5942,-0.8369,-10.681,-10.132,1.221,142.971,18.693,-112.747
2140,-0.3037,0.6523,-0.8511,-16.846,-23.621,-1.404,142.756,18.858,-112.885
2150,-0.3013,0.7153,-0.8267,-15.930,-29.297,-1.465,142.504,19.061,-113.060
2160,-0.3198,0.7290,-0.7559,-9.705,-29.724,0.000,142.284,19.276,-113.253
2170,-0.3667,0.6758,-0.6689,-2.441,-28.992,2.625,142.114,19.506,-113.461
2180,-0.4155,0.5762,-0.5864,3.479,-29.175,3.967,142.009,19.781,-113.681
2190,-0.4204,0.5005,-0.5757,5.432,-30.579,2.258,141.960,20.099,-113.901
2200,-0.4072,0.4756,-0.6367,-0.122,-29.297,-0.732,141.905,20.402,-114.088
2210,-0.3740,0.5552,-0.7485,-9.094,-22.705,-2.747,141.790,20.610,-114.214
2220,-0.3325,0.6738,-0.8501,-13.489,-7.019,-1.892,141.641,20.638,-114.247
2230,-0.3076,0.7290,-0.8848,-9.888,13.611,0.916,141.559,20.473,-114.164
2240,-0.3091,0.7310,-0.8159,-4.089,30.212,2.930,141.548,20.171,-113.989
2250,-0.3447,0.6768,-0.7021,0.122,36.865,2.258,141.570,19.869,-113.763
2260,-0.3838,0.5664,-0.6035,2.869,29.846,-2.563,141.625,19.698,-113.544
2270,-0.4043,0.4946,-0.5942,1.282,13.733,-8.545,141.680,19.726,-113.379
2280,-0.4023,0.4727,-0.6475,-3.662,-2.441,-11.780,141.691,19.885,-113.297
2290,-0.3555,0.5000,-0.7583,-8.179,-11.475,-12.268,141.669,20.067,-113.275
2300,-0.3125,0.5928,-0.8618,-11.902,-8.911,-8.240,141.592,20.149,-113.264
2310,-0.2842,0.6792,-0.9175,-10.986,2.258,-1.831,141.509,20.083,-113.231
2320,-0.2769,0.7012,-0.9111,-3.357,15.381,3.113,141.515,19.880,-113.154
2330,-0.2988,0.6660,-0.8374,3.418,23.254,5.554,141.581,19.622,-113.049
2340,-0.3145,0.6074,-0.7549,6.348,20.569,3.479,141.680,19.424,-112.939
2350,-0.3359,0.5239,-0.7041,5.371,9.033,-1.831,141.773,19.380,-112.868
2360,-0.3486,0.4692,-0.6948,-1.404,-5.676,-6.592,141.806,19.495,-112.852
2370,-0.3501,0.4712,-0.7163,-9.827,-17.761,-9.216,141.746,19.720,-112.890
2380,-0.3486,0.4956,-0.7495,-14.648,-22.827,-9.033,141.619,19.968,-112.961
2390,-0.3306,0.5591,-0.7979,-16.968,-18.860,-4.883,141.460,20.132,-113.049
2400,-0.3208,0.6279,-0.8184,-14.343,-8.606,1.160,141.306,20.160,-113.115
2410,-0.3311,0.6572,-0.7881,-7.324,2.197,6.165,141.207,20.083,-113.154
2420,-0.3477,0.6665,-0.7456,-1.221,9.583,9.033,141.163,19.946,-113.165
2430,-0.3525,0.6631,-0.7231,3.479,10.193,7.874,141.163,19.814,-113.159
2440,-0.3550,0.6304,-0.7202,6.470,5.005,4.150,141.202,19.759,-113.159
2450,-0.3599,0.5996,-0.7231,5.188,-2.625,0.000,141.240,19.792,-113.176
2460,-0.3682,0.5708,-0.7222,0.854,-10.376,-4.028,141.240,19.913,-113.214
2470,-0.3599,0.5806,-0.7656,-5.371,-15.076,-6.897,141.185,20.078,-113.258
2480,-0.3618,0.6113,-0.7974,-11.169,-13.916,-7.324,141.081,20.231,-113.291
2490,-0.3657,0.6592,-0.7788,-14.343,-10.193,-5.676,140.916,20.341,-113.307
2500,-0.3628,0.7124,-0.7490,-12.939,-5.798,-3.235,140.740,20.396,-113.324
2510,-0.3633,0.7012,-0.7134,-5.432,-3.357,-1.282,140.630,20.424,-113.335
2520,-0.3643,0.6572,-0.6812,1.709,-4.211,-0.916,140.592,20.468,-113.357
2530,-0.3555,0.6138,-0.6870,5.859,-5.981,-3.235,140.620,20.539,-113.368
2540,-0.3647,0.5474,-0.6978,6.470,-6.836,-6.165,140.702,20.649,-113.362
2550,-0.3628,0.5386,-0.7417,2.930,-6.226,-8.301,140.773,20.759,-113.340
2560,-0.3589,0.5557,-0.7729,-1.770,-2.563,-7.935,140.806,20.825,-113.291
2570,-0.3394,0.6045,-0.7891,-5.798,1.282,-4.883,140.784,20.830,-113.242
2580,-0.3110,0.6846,-0.8213,-6.470,6.409,-1.160,140.729,20.742,-113.187
2590,-0.3130,0.7002,-0.8105,-2.136,10.498,1.648,140.713,20.605,-113.132
2600,-0.3071,0.6807,-0.7842,3.479,11.536,2.625,140.751,20.457,-113.071
2610,-0.3130,0.6265,-0.7480,8.118,9.705,0.671,140.845,20.352,-113.016
2620,-0.3633,0.5000,-0.6802,8.789,1.892,-3.296,140.977,20.391,-112.972
2630,-0.3916,0.4404,-0.6455,1.404,-8.728,-7.324,141.037,20.561,-112.972
2640,-0.3960,0.4360,-0.6689,-6.897,-17.456,-9.338,141.015,20.814,-113.011
2650,-0.3896,0.4819,-0.7095,-11.414,-21.606,-7.141,140.922,21.061,-113.099
2660,-0.3721,0.5923,-0.7690,-11.780,-16.785,-0.366,140.779,21.193,-113.209
2670,-0.3643,0.6626,-0.7842,-3.174,-5.371,8.057,140.702,21.165,-113.313
2680,-0.3379,0.6987,-0.7808,10.071,6.775,14.221,140.746,20.989,-113.384
2690,-0.3135,0.7114,-0.7720,21.240,16.296,17.578,140.911,20.715,-113.417
2700,-0.3120,0.6670,-0.7676,30.823,17.883,15.747,141.196,20.440,-113.428
2710,-0.3218,0.6128,-0.7749,34.424,13.306,10.925,141.537,20.248,-113.428
2720,-0.3486,0.5195,-0.7764,30.457,4.211,5.249,141.883,20.182,-113.445
2730,-0.3647,0.4819,-0.7656,17.395,-6.470,0.488,142.097,20.248,-113.494
2740,-0.3711,0.4932,-0.7559,1.831,-15.320,-2.319,142.136,20.402,-113.571
2750,-0.3726,0.5278,-0.7461,-10.498,-20.203,-1.953,142.020,20.588,-113.692
2760,-0.3726,0.6006,-0.7441,-16.785,-19.897,1.160,141.795,20.748,-113.829
2770,-0.3730,0.6543,-0.7358,-12.939,-14.893,4.639,141.581,20.836,-113.967
2780,-0.3828,0.6553,-0.7041,-3.174,-8.667,7.935,141.460,20.863,-114.093
2790,-0.3887,0.6284,-0.6729,6.470,-3.906,9.399,141.443,20.852,-114.197
2800,-0.3970,0.5864,-0.6611,12.939,-1.770,8.423,141.515,20.847,-114.280
2810,-0.4019,0.5342,-0.6636,13.672,-1.526,6.775,141.619,20.863,-114.346
2820,-0.3940,0.5229,-0.6851,8.789,-2.197,5.005,141.696,20.885,-114.401
2830,-0.3730,0.5752,-0.7275,1.892,-1.648,4.028,141.702,20.885,-114.445
2840,-0.3540,0.6196,-0.7510,-1.465,1.221,5.188,141.663,20.836,-114.483
2850,-0.3271,0.6592,-0.7617,-0.977,5.676,6.836,141.619,20.720,-114.500
2860,-0.3257,0.6768,-0.7578,1.770,10.193,7.141,141.608,20.566,-114.494
2871,-0.3477,0.6392,-0.7212,4.639,12.451,6.592,141.630,20.424,-114.467
2880,-0.3701,0.5947,-0.7046,5.066,11.047,4.150,141.674,20.325,-114.428
2890,-0.3750,0.5669,-0.7124,2.747,7.507,1.282,141.713,20.281,-114.390
2900,-0.3682,0.5605,-0.7466,-0.671,3.967,0.000,141.729,20.264,-114.362
2910,-0.3457,0.6011,-0.8057,-3.052,3.662,0.610,141.724,20.215,-114.346
2920,-0.3169,0.6533,-0.8501,-2.686,7.263,2.563,141.713,20.105,-114.318
2930,-0.2969,0.7290,-0.8892,0.244,12.756,4.211,141.718,19.924,-114.269
2940,-0.3340,0.6768,-0.7769,8.484,16.785,3.723,141.806,19.753,-114.192
2950,-0.3706,0.5737,-0.6860,8.728,9.216,-1.465,141.899,19.720,-114.115
2960,-0.4053,0.4668,-0.6299,3.296,-3.967,-8.728,141.960,19.880,-114.071
2970,-0.3945,0.4580,-0.6460,-8.423,-16.418,-14.099,141.910,20.160,-114.060
2980,-0.3511,0.5151,-0.7236,-16.907,-22.278,-15.991,141.762,20.446,-114.071
2990,-0.2935,0.6494,-0.8413,-20.081,-16.541,-11.230,141.564,20.594,-114.088
3000,-0.2715,0.7305,-0.8667,-14.099,-1.160,-2.563,141.411,20.544,-114.071
3010,-0.2891,0.6948,-0.7847,-2.014,13.306,3.967,141.383,20.369,-114.016
3020,-0.3062,0.6548,-0.7295,5.554,22.217,6.226,141.438,20.127,-113.923
3030,-0.3369,0.5781,-0.7002,10.986,21.179,2.502,141.575,19.951,-113.802
3040,-0.3599,0.5029,-0.6855,11.169,11.841,-2.441,141.746,19.902,-113.703
3050,-0.3760,0.4736,-0.6914,7.202,0.061,-5.371,141.866,19.979,-113.659
3060,-0.3745,0.4922,-0.7275,4.272,-10.681,-6.165,141.943,20.127,-113.676
3070,-0.3730,0.5176,-0.7661,2.319,-14.832,-3.296,141.982,20.281,-113.747
3080,-0.3477,0.6035,-0.8242,-0.061,-11.658,1.709,141.971,20.347,-113.835
3090,-0.3110,0.6997,-0.8833,1.892,-0.732,6.165,141.965,20.270,-113.895
3100,-0.3105,0.7114,-0.8750,7.568,11.108,8.240,142.031,20.083,-113.890
3110,-0.3052,0.7139,-0.8345,9.521,17.700,8.240,142.114,19.847,-113.840
3120,-0.2974,0.6636,-0.8032,10.193,17.029,4.028,142.224,19.649,-113.763
3130,-0.3179,0.5757,-0.7646,6.592,8.606,-2.319,142.322,19.583,-113.692
3140,-0.3389,0.5342,-0.7363,-3.235,-3.845,-8.362,142.322,19.677,-113.643
3150,-0.3613,0.5112,-0.7070,-12.756,-16.052,-12.451,142.218,19.902,-113.643
3160,-0.3721,0.5186,-0.7002,-18.494,-24.902,-13.672,142.031,20.215,-113.692
3170,-0.3672,0.5854,-0.7202,-20.264,-26.306,-11.108,141.790,20.500,-113.769
3180,-0.3677,0.6216,-0.7148,-14.099,-21.790,-6.409,141.592,20.715,-113.862
3190,-0.3540,0.6313,-0.7090,-2.686,-12.878,-1.221,141.504,20.819,-113.934
3200,-0.3481,0.6279,-0.7178,9.155,-2.319,2.502,141.559,20.814,-113.972
3210,-0.3555,0.5825,-0.7109,18.311,5.188,3.357,141.729,20.759,-113.967
3220,-0.3706,0.5244,-0.6953,21.179,8.728,2.441,141.965,20.698,-113.928
3230,-0.3862,0.4600,-0.6768,17.273,7.080,0.854,142.191,20.682,-113.890
3240,-0.3799,0.4600,-0.6929,6.165,2.502,-0.244,142.300,20.704,-113.873
3250,-0.3633,0.5117,-0.7427,-4.883,-0.427,-0.305,142.284,20.720,-113.873
3260,-0.3252,0.6270,-0.8472,-11.353,2.075,1.831,142.180,20.660,-113.873
3270,-0.2852,0.7539,-0.9414,-9.705,12.024,5.188,142.092,20.462,-113.840
3280,-0.2803,0.7734,-0.9238,-0.488,23.315,7.751,142.092,20.154,-113.752
3290,-0.2910,0.7622,-0.8652,5.737,29.602,8.057,142.158,19.819,-113.626
3300,-0.3311,0.6855,-0.7949,9.766,26.184,3.601,142.273,19.567,-113.483
3310,-0.3687,0.5947,-0.7441,9.155,13.367,-4.272,142.394,19.506,-113.362
3320,-0.3984,0.4927,-0.6978,2.625,-3.601,-11.658,142.471,19.660,-113.286
3330,-0.3970,0.4536,-0.6909,-7.202,-20.264,-16.907,142.443,19.979,-113.275
3340,-0.3687,0.4829,-0.7251,-16.235,-30.457,-18.921,142.311,20.363,-113.313
3350,-0.3623,0.5361,-0.7158,-21.545,-31.799,-15.015,142.081,20.720,-113.395
3360,-0.3647,0.5835,-0.6792,-19.470,-26.611,-7.935,141.823,20.989,-113.500
3371,-0.3740,0.5933,-0.6548,-9.277,-16.602,-0.977,141.652,21.143,-113.604
3380,-0.3950,0.5708,-0.6587,3.296,-5.310,3.906,141.636,21.193,-113.670
3390,-0.3901,0.5581,-0.6782,12.634,5.249,5.798,141.746,21.143,-113.687
3400,-0.3984,0.5137,-0.6948,18.555,13.855,5.615,141.960,21.039,-113.643
3410,-0.3896,0.4819,-0.7295,18.311,19.226,5.310,142.218,20.885,-113.560
3420,-0.3608,0.5156,-0.7979,11.963,21.851,5.432,142.421,20.682,-113.461
3430,-0.3198,0.5894,-0.8848,4.456,23.743,6.348,142.537,20.418,-113.362
3440,-0.2788,0.6836,-0.9443,-1.038,26.978,8.301,142.581,20.089,-113.258
3450,-0.2627,0.7271,-0.9258,-2.258,28.381,9.033,142.586,19.731,-113.148
3460,-0.2627,0.7393,-0.8682,-1.648,23.682,7.385,142.570,19.435,-113.060
3470,-0.2847,0.7114,-0.8164,-0.549,12.939,2.991,142.548,19.270,-113.000
3480,-0.3281,0.6470,-0.7666,-0.366,-1.709,-3.235,142.520,19.292,-112.983
3490,-0.3525,0.5747,-0.7271,-3.662,-15.625,-8.850,142.471,19.479,-113.011
3500,-0.3667,0.5215,-0.6992,-9.033,-26.917,-12.878,142.366,19.803,-113.077
3510,-0.3618,0.5293,-0.7124,-14.160,-33.020,-14.771,142.207,20.176,-113.165
3520,-0.3521,0.5791,-0.7549,-15.625,-30.457,-12.695,142.020,20.490,-113.258
3530,-0.3394,0.6318,-0.7861,-11.597,-20.325,-7.690,141.877,20.676,-113.324
3540,-0.3506,0.6475,-0.7461,-3.174,-6.409,-2.380,141.806,20.731,-113.346
3550,-0.3931,0.5669,-0.6411,7.446,2.869,-0.061,141.855,20.748,-113.329
3560,-0.4219,0.4839,-0.5801,12.390,4.333,-1.221,141.976,20.808,-113.291
3570,-0.4312,0.4355,-0.5825,10.620,0.488,-3.418,142.103,20.923,-113.258
3580,-0.4204,0.4492,-0.6597,5.127,-3.235,-3.296,142.196,21.039,-113.253
3590,-0.3545,0.5728,-0.8354,1.038,0.977,-1.160,142.245,21.017,-113.236
3600,-0.2920,0.7280,-1.0200,0.549,15.320,4.333,142.295,20.792,-113.170
3610,-0.2153,0.8984,-1.1787,4.944,36.377,10.010,142.399,20.325,-113.016
3620,-0.1714,0.9395,-1.1587,12.207,59.265,13.794,142.597,19.638,-112.747
3630,-0.2100,0.8071,-0.9355,21.057,65.247,10.925,142.883,18.957,-112.423
3640,-0.2905,0.6089,-0.6953,20.691,48.645,-0.916,143.152,18.567,-112.104
3650,-0.3735,0.4106,-0.5327,11.780,12.207,-18.127,143.333,18.682,-111.874
3660,-0.4697,0.2896,-0.4287,-4.944,-31.982,-29.419,143.322,19.341,-111.824
3670,-0.4932,0.2568,-0.4175,-23.193,-71.655,-34.729,143.091,20.374,-111.984
3680,-0.4585,0.3486,-0.5107,-35.706,-93.140,-33.142,142.657,21.473,-112.297
3690,-0.4258,0.4980,-0.6709,-36.865,-91.003,-22.949,142.158,22.385,-112.692
3700,-0.4014,0.6519,-0.8027,-25.574,-64.941,-6.287,141.746,22.917,-113.071
3710,-0.3848,0.7271,-0.8301,-7.202,-27.100,7.996,141.548,23.044,-113.324
3720,-0.3521,0.7275,-0.8003,12.695,11.047,15.930,141.614,22.808,-113.384
3730,-0.3125,0.7090,-0.7866,27.832,41.199,16.541,141.905,22.324,-113.247
3740,-0.3022,0.6411,-0.7925,34.607,56.519,11.230,142.344,21.753,-112.967
3750,-0.3237,0.5654,-0.7988,31.738,54.688,4.456,142.800,21.264,-112.643
3760,-0.3501,0.5112,-0.7925,23.010,39.429,-3.296,143.174,20.967,-112.357
3770,-0.3750,0.4766,-0.7876,11.108,18.738,-9.094,143.410,20.885,-112.159
3780,-0.3755,0.5083,-0.8047,-2.991,-0.610,-10.986,143.454,20.956,-112.072
3790,-0.3828,0.5366,-0.8135,-13.245,-14.954,-9.827,143.355,21.138,-112.083
3800,-0.3789,0.5864,-0.8042,-17.456,-22.583,-7.385,143.157,21.363,-112.159
3810,-0.3774,0.6064,-0.7568,-15.503,-24.902,-4.333,142.938,21.583,-112.286
3820,-0.3867,0.5723,-0.7026,-8.423,-23.865,-1.587,142.784,21.797,-112.423
3830,-0.3936,0.5181,-0.6646,-0.488,-21.667,0.366,142.718,21.995,-112.571
3840,-0.3950,0.4731,-0.6733,5.005,-18.738,1.770,142.740,22.170,-112.709
3850,-0.3877,0.4565,-0.6963,6.836,-14.038,2.563,142.806,22.291,-112.824
3860,-0.3755,0.4756,-0.7495,6.042,-7.935,3.601,142.883,22.341,-112.906
3871,-0.3042,0.5986,-0.9180,2.808,3.174,5.493,142.938,22.214,-112.928
3880,-0.2661,0.6694,-1.0352,0.732,20.447,7.141,143.015,21.912,-112.857
3890,-0.2671,0.7075,-0.9980,-3.540,34.058,8.240,143.053,21.495,-112.709
3900,-0.2632,0.6924,-0.8457,-7.446,37.170,5.188,143.026,21.094,-112.516
3913,-0.3101,0.6216,-0.6670,-11.353,25.085,0.427,142.910,20.869,-112.357
3920,-0.3682,0.5874,-0.5488,-16.296,-0.488,-3.784,142.657,20.929,-112.324
3930,-0.4106,0.5796,-0.5034,-17.151,-27.222,-5.066,142.328,21.248,-112.462
3940,-0.4580,0.5342,-0.5142,-13.000,-47.974,-3.723,142.009,21.753,-112.742
3950,-0.4766,0.4858,-0.5737,-6.226,-54.932,-1.404,141.795,22.297,-113.093
3960,-0.4697,0.5107,-0.6616,-1.892,-45.776,2.686,141.663,22.703,-113.423
3970,-0.4351,0.5923,-0.7446,2.075,-22.339,8.545,141.597,22.846,-113.648
3980,-0.3857,0.6958,-0.8516,8.240,7.874,12.390,141.647,22.670,-113.698
3990,-0.3662,0.7280,-0.8862,15.442,38.025,15.015,141.839,22.236,-113.571
4000,-0.3369,0.7114,-0.8306,18.372,56.641,13.916,142.092,21.660,-113.313
4010,-0.3237,0.6172,-0.7720,18.250,57.007,6.287,142.383,21.138,-112.989
4020,-0.3281,0.5293,-0.7632,10.071,43.823,-4.333,142.630,20.803,-112.665
4030,-0.3481,0.4844,-0.7881,-4.761,24.414,-12.878,142.734,20.687,-112.396
4040,-0.3379,0.4854,-0.8096,-19.165,3.906,-17.029,142.668,20.748,-112.225
4050,-0.3315,0.4883,-0.8228,-27.832,-10.986,-16.846,142.482,20.923,-112.154
4060,-0.3452,0.5151,-0.8115,-31.677,-19.043,-13.062,142.218,21.138,-112.165
4070,-0.3457,0.5879,-0.7881,-29.480,-20.264,-6.470,141.905,21.319,-112.247
4080,-0.3506,0.6392,-0.7627,-18.066,-15.869,0.671,141.669,21.418,-112.357
4090,-0.3667,0.6348,-0.7344,-1.587,-10.193,6.226,141.586,21.451,-112.478
4100,-0.3711,0.6084,-0.7109,11.780,-4.456,9.033,141.641,21.434,-112.582
4110,-0.3623,0.5854,-0.7124,18.311,1.038,8.728,141.790,21.374,-112.648
4120,-0.3599,0.5718,-0.7305,18.005,5.066,6.226,141.960,21.292,-112.670
4130,-0.3623,0.5752,-0.7515,12.207,6.592,3.113,142.097,21.220,-112.648
4140,-0.3657,0.5942,-0.7529,4.456,5.859,0.977,142.147,21.165,-112.621
4150,-0.3628,0.6221,-0.7637,-2.136,4.211,0.427,142.119,21.121,-112.599
4160,-0.3628,0.6597,-0.7671,-6.714,3.967,1.221,142.031,21.066,-112.582
4170,-0.3594,0.6748,-0.7573,-6.470,4.944,1.587,141.938,21.000,-112.560
4180,-0.3589,0.6582,-0.7515,-1.953,3.601,0.488,141.894,20.956,-112.544
4190,-0.3462,0.6265,-0.7759,1.953,0.427,-1.465,141.910,20.945,-112.527
4200,-0.3442,0.5845,-0.8003,2.380,-1.343,-3.906,141.960,20.962,-112.500
4210,-0.3442,0.5625,-0.8252,-2.991,-0.977,-6.104,141.987,20.989,-112.456
4220,-0.3252,0.5850,-0.8682,-10.376,0.427,-8.179,141.949,21.000,-112.385
4230,-0.3096,0.6196,-0.8833,-16.418,1.953,-9.399,141.850,20.989,-112.291
4240,-0.3018,0.6353,-0.8589,-18.677,1.648,-9.766,141.713,20.984,-112.198
4250,-0.3228,0.6128,-0.8032,-17.090,-1.526,-9.644,141.581,21.022,-112.132
4260,-0.3716,0.5640,-0.7290,-14.160,-6.409,-9.216,141.460,21.138,-112.094
4270,-0.3994,0.5269,-0.6792,-11.414,-11.963,-8.362,141.350,21.319,-112.104
4280,-0.4482,0.4536,-0.6064,-7.751,-17.578,-6.531,141.268,21.588,-112.165
4290,-0.4810,0.3784,-0.5327,-6.531,-22.705,-3.540,141.191,21.934,-112.291
4300,-0.4746,0.3711,-0.5254,-9.094,-25.635,-0.061,141.075,22.280,-112.462
4310,-0.4341,0.4697,-0.6089,-11.108,-22.400,4.578,140.905,22.495,-112.654
4320,-0.3882,0.5913,-0.6968,-7.935,-11.169,11.230,140.751,22.516,-112.824
4330,-0.3403,0.6797,-0.7715,0.854,4.578,16.235,140.696,22.335,-112.928
4340,-0.3018,0.7539,-0.8115,10.437,21.362,19.287,140.757,21.978,-112.945
4350,-0.2949,0.7319,-0.8096,18.738,32.166,18.433,140.938,21.550,-112.879
4360,-0.3120,0.6509,-0.7783,21.118,33.142,14.099,141.180,21.165,-112.775
4371,-0.3462,0.5767,-0.7515,14.771,24.902,8.301,141.372,20.907,-112.676
4380,-0.3853,0.5420,-0.7324,2.380,10.193,3.662,141.432,20.825,-112.637
4390,-0.3994,0.5591,-0.7187,-9.644,-4.883,1.404,141.328,20.885,-112.681
4400,-0.3921,0.6099,-0.6992,-16.296,-14.893,2.258,141.097,21.006,-112.797
4410,-0.3770,0.6665,-0.7046,-14.526,-18.616,5.005,140.850,21.121,-112.967
4420,-0.3350,0.7500,-0.7715,-7.507,-13.672,8.240,140.669,21.138,-113.126
4430,-0.3042,0.7637,-0.8296,4.028,-1.831,9.033,140.647,21.033,-113.214
4440,-0.2969,0.7241,-0.8242,14.038,11.169,7.324,140.768,20.841,-113.198
4450,-0.2969,0.6401,-0.7827,16.541,18.372,2.808,140.971,20.638,-113.099
4460,-0.3105,0.5737,-0.7471,9.460,17.090,-2.441,141.125,20.500,-112.961
4470,-0.3569,0.5259,-0.6934,-3.235,8.057,-7.080,141.147,20.500,-112.852
4480,-0.4258,0.4995,-0.6089,-14.709,-4.578,-9.705,141.015,20.676,-112.802
4490,-0.4463,0.4990,-0.5737,-21.118,-14.526,-9.460,140.779,20.940,-112.819
4500,-0.4448,0.5127,-0.5703,-22.156,-19.470,-6.531,140.504,21.226,-112.896
4510,-0.4019,0.5825,-0.6431,-18.372,-14.404,-2.197,140.268,21.385,-112.978
4520,-0.3398,0.6621,-0.7573,-8.179,2.563,2.258,140.169,21.324,-112.978
4530,-0.3208,0.6748,-0.8213,5.249,21.057,5.005,140.262,21.088,-112.874
4540,-0.3008,0.6875,-0.8442,13.000,33.386,6.348,140.460,20.737,-112.698
4550,-0.2798,0.6909,-0.8779,15.625,37.415,4.578,140.707,20.352,-112.484
4560,-0.2842,0.6782,-0.8789,11.902,30.029,0.854,140.911,20.061,-112.286
4570,-0.3027,0.6572,-0.8447,3.418,14.282,-3.540,140.999,19.929,-112.159
4580,-0.3286,0.6167,-0.7935,-5.737,-4.150,-7.935,140.966,19.990,-112.121
4590,-0.3359,0.6118,-0.7495,-13.672,-20.752,-11.292,140.812,20.215,-112.170
4600,-0.3521,0.5991,-0.7183,-16.296,-31.677,-12.634,140.609,20.539,-112.275
4610,-0.3564,0.6035,-0.7031,-14.832,-35.156,-11.597,140.400,20.885,-112.418
4620,-0.3389,0.6152,-0.7217,-9.460,-29.846,-9.216,140.251,21.160,-112.549
4630,-0.3506,0.5894,-0.7183,-1.770,-18.066,-6.042,140.208,21.330,-112.621
4640,-0.3784,0.5552,-0.6963,3.906,-5.249,-3.479,140.257,21.412,-112.626
4650,-0.4131,0.5347,-0.6733,5.798,5.432,-1.892,140.345,21.423,-112.577
4660,-0.4346,0.5366,-0.6562,4.822,11.169,-0.549,140.427,21.396,-112.495
4670,-0.4287,0.5610,-0.6577,2.747,12.878,0.854,140.477,21.346,-112.412
4680,-0.4014,0.5649,-0.6533,1.587,12.024,1.526,140.504,21.281,-112.346
4690,-0.3599,0.5654,-0.6665,0.427,9.949,1.160,140.521,21.209,-112.286
4700,-0.3140,0.6289,-0.7451,-2.075,9.705,0.610,140.515,21.094,-112.225
4710,-0.2939,0.6777,-0.8174,-2.808,13.123,1.465,140.515,20.929,-112.148
4720,-0.3037,0.6831,-0.8213,-1.038,16.052,2.686,140.532,20.742,-112.061
4730,-0.3184,0.6748,-0.8018,0.427,16.235,2.380,140.559,20.561,-111.967
4740,-0.3311,0.6519,-0.7832,0.671,12.390,0.549,140.592,20.440,-111.890
4750,-0.3457,0.6035,-0.7705,-0.793,6.165,-2.075,140.620,20.396,-111.830
4760,-0.3491,0.5605,-0.7778,-3.845,-0.122,-4.944,140.630,20.424,-111.791
4770,-0.3413,0.5469,-0.8057,-7.812,-3.845,-6.897,140.614,20.484,-111.758
4780,-0.3428,0.5449,-0.8062,-10.742,-5.249,-6.714,140.570,20.555,-111.742
4790,-0.3477,0.5552,-0.7817,-11.597,-6.165,-4.700,140.493,20.627,-111.742
4800,-0.3403,0.5898,-0.7651,-9.644,-7.874,-1.770,140.400,20.687,-111.780
4810,-0.3345,0.6113,-0.7612,-4.395,-9.216,1.526,140.339,20.726,-111.857
4820,-0.3389,0.6079,-0.7476,1.770,-9.460,4.089,140.328,20.759,-111.956
4830,-0.3481,0.5952,-0.7285,5.493,-8.606,5.188,140.350,20.792,-112.055
4840,-0.3511,0.5752,-0.7153,5.737,-7.568,4.456,140.389,20.819,-112.148
4850,-0.3472,0.5767,-0.7100,2.014,-6.714,3.479,140.383,20.847,-112.220
4860,-0.3481,0.5908,-0.7031,-2.930,-5.432,3.296,140.328,20.869,-112.286
4871,-0.3496,0.6147,-0.6987,-6.409,-4.028,3.967,140.229,20.874,-112.346
4880,-0.3457,0.6646,-0.7144,-7.141,-2.258,4.761,140.109,20.847,-112.401
4890,-0.3437,0.7104,-0.7368,-4.700,0.366,5.554,140.004,20.786,-112.445
4900,-0.3521,0.7158,-0.7363,0.122,2.686,5.554,139.955,20.709,-112.467
4910,-0.3584,0.7109,-0.7451,3.967,3.967,4.211,139.955,20.638,-112.478
4920,-0.3604,0.7046,-0.7563,5.188,3.357,1.892,139.977,20.588,-112.467
4930,-0.3770,0.6841,-0.7490,3.601,1.160,-0.916,139.999,20.583,-112.456
4940,-0.3916,0.6724,-0.7412,-0.366,-1.831,-3.967,139.977,20.627,-112.434
4950,-0.3945,0.6558,-0.7261,-4.211,-4.456,-6.897,139.922,20.720,-112.407
4960,-0.3960,0.6147,-0.7051,-6.775,-6.104,-9.521,139.861,20.847,-112.374
4970,-0.3911,0.5913,-0.6909,-9.094,-6.958,-11.719,139.785,21.000,-112.324
4980,-0.3779,0.5742,-0.6724,-10.071,-7.385,-11.841,139.697,21.154,-112.280
4990,-0.3726,0.5635,-0.6709,-8.728,-7.202,-9.521,139.620,21.286,-112.253
5000,-0.3687,0.5723,-0.6899,-5.737,-5.310,-5.859,139.576,21.374,-112.242
5010,-0.3716,0.5806,-0.7075,-1.160,-1.465,-2.136,139.576,21.407,-112.231
5020,-0.3750,0.6079,-0.7485,4.211,3.296,0.854,139.636,21.374,-112.214
5030,-0.3638,0.6123,-0.7939,10.681,8.911,2.930,139.785,21.275,-112.176
5040,-0.3521,0.6006,-0.8169,14.648,13.306,4.333,139.988,21.127,-112.121
5050,-0.3218,0.6021,-0.8354,13.611,14.648,4.639,140.191,20.945,-112.061
5060,-0.3130,0.5908,-0.8237,8.728,11.719,3.357,140.334,20.797,-112.006
5070,-0.3237,0.5884,-0.7959,0.610,3.967,0.671,140.383,20.737,-111.984
5080,-0.3359,0.6162,-0.7798,-7.935,-5.615,-2.563,140.312,20.775,-112.000
5090,-0.3530,0.6562,-0.7441,-13.062,-14.038,-3.906,140.142,20.896,-112.066
5100,-0.3691,0.6748,-0.6987,-11.475,-19.470,-3.174,139.949,21.066,-112.170
5110,-0.3892,0.6709,-0.6699,-4.211,-20.386,-0.977,139.807,21.237,-112.308
5120,-0.3979,0.6396,-0.6426,5.188,-18.066,0.977,139.768,21.390,-112.440
5130,-0.3970,0.6079,-0.6191,12.695,-13.916,1.953,139.807,21.517,-112.549
5140,-0.4043,0.5674,-0.5854,16.296,-9.827,2.319,139.900,21.627,-112.637
5150,-0.4185,0.5049,-0.5586,15.198,-7.385,2.075,140.004,21.742,-112.709
5160,-0.4146,0.4883,-0.5645,8.789,-5.005,1.404,140.065,21.846,-112.753
5170,-0.4023,0.4844,-0.6099,1.038,-0.610,1.099,140.087,21.896,-112.764
5180,-0.3623,0.5513,-0.6943,-6.409,8.423,2.014,140.054,21.824,-112.725
5190,-0.3271,0.6470,-0.7871,-9.460,22.095,4.456,140.004,21.588,-112.610
5200,-0.2847,0.7554,-0.8843,-6.470,36.621,7.141,140.010,21.187,-112.412
5210,-0.2666,0.8042,-0.9302,1.587,46.692,8.423,140.109,20.687,-112.159
5220,-0.2627,0.7988,-0.9146,8.484,47.058,7.385,140.268,20.198,-111.901
5230,-0.2876,0.7583,-0.8613,12.756,36.377,3.418,140.455,19.841,-111.682
5240,-0.3281,0.6729,-0.8066,13.428,17.456,-2.441,140.630,19.698,-111.544
5250,-0.3711,0.5698,-0.7505,7.629,-4.944,-8.240,140.740,19.803,-111.506
5260,-0.3989,0.4990,-0.6821,-2.991,-25.269,-13.367,140.718,20.138,-111.566
5270,-0.4194,0.4565,-0.6279,-12.390,-39.185,-16.602,140.587,20.621,-111.693
5280,-0.4253,0.4790,-0.6001,-18.433,-43.030,-16.052,140.356,21.138,-111.852
5290,-0.4263,0.5361,-0.5903,-18.311,-36.377,-10.986,140.092,21.555,-112.011
5300,-0.4180,0.5933,-0.6069,-10.986,-21.545,-3.723,139.894,21.786,-112.132
5310,-0.4028,0.6187,-0.6313,1.465,-1.587,3.723,139.850,21.802,-112.170
5320,-0.3950,0.6177,-0.6626,14.404,17.944,8.850,139.988,21.627,-112.121
5330,-0.3799,0.6147,-0.6938,22.339,32.593,10.559,140.240,21.319,-111.984
5340,-0.3643,0.5894,-0.7266,21.973,39.368,9.277,140.537,20.962,-111.786
5350,-0.3481,0.5796,-0.7593,15.320,38.452,6.287,140.784,20.621,-111.577
5360,-0.3345,0.5981,-0.7915,6.042,32.654,2.441,140.933,20.336,-111.379
5371,-0.3276,0.6343,-0.8145,-3.357,25.146,-0.793,140.971,20.116,-111.204
5380,-0.3218,0.6660,-0.8213,-9.033,18.311,-2.808,140.933,19.962,-111.055
5390,-0.3145,0.6777,-0.8140,-9.033,13.611,-3.784,140.878,19.847,-110.934
5400,-0.3066,0.6582,-0.8047,-5.432,10.376,-4.028,140.856,19.759,-110.830
5410,-0.2944,0.6226,-0.7949,-1.892,7.507,-4.272,140.878,19.693,-110.748
5420,-0.2900,0.5776,-0.7856,-0.122,4.883,-4.578,140.927,19.655,-110.676
5430,-0.3062,0.5405,-0.7769,-1.343,3.479,-4.395,140.977,19.638,-110.616
5440,-0.3174,0.5161,-0.7583,-4.272,2.625,-3.784,140.999,19.633,-110.566
5450,-0.3247,0.5132,-0.7393,-8.423,2.075,-2.380,140.971,19.633,-110.533
5460,-0.3208,0.5386,-0.7441,-11.475,2.502,-0.366,140.894,19.616,-110.511
5470,-0.3071,0.5962,-0.7759,-10.925,4.211,2.197,140.806,19.545,-110.500
5480,-0.2959,0.6509,-0.8154,-6.287,7.385,5.371,140.751,19.418,-110.500
5490,-0.2876,0.6860,-0.8369,-0.244,10.986,8.606,140.746,19.237,-110.495
5500,-0.3101,0.6748,-0.8257,3.967,12.817,9.949,140.790,19.045,-110.490
5510,-0.3330,0.6196,-0.7607,6.348,10.498,7.874,140.856,18.913,-110.484
5520,-0.3628,0.5420,-0.6860,3.235,2.563,3.296,140.889,18.907,-110.495
5530,-0.3599,0.5088,-0.6748,-5.615,-8.057,-1.221,140.839,19.017,-110.539
5540,-0.3188,0.5820,-0.7778,-17.151,-15.015,-4.211,140.674,19.149,-110.605
5550,-0.2959,0.6938,-0.8579,-24.170,-11.353,-3.967,140.422,19.221,-110.649
5560,-0.2891,0.8145,-0.8750,-22.705,-0.244,-0.793,140.169,19.171,-110.643
5570,-0.3179,0.8247,-0.8120,-11.719,10.132,2.258,140.010,19.045,-110.594
5580,-0.3506,0.7266,-0.6655,0.793,12.329,3.235,139.960,18.935,-110.533
5590,-0.4077,0.5498,-0.5137,9.094,2.258,-0.977,139.993,19.017,-110.511
5600,-0.4521,0.4106,-0.4502,7.935,-16.357,-7.385,140.032,19.363,-110.561
5610,-0.4541,0.3643,-0.4775,0.671,-33.630,-11.353,140.015,19.869,-110.698
5620,-0.4219,0.3843,-0.5825,-5.371,-42.664,-10.132,139.960,20.369,-110.907
5630,-0.3677,0.4912,-0.7397,-9.644,-34.973,-2.869,139.856,20.676,-111.127
5640,-0.2964,0.7036,-0.9097,-10.437,-9.460,8.057,139.730,20.632,-111.259
5650,-0.2524,0.8452,-0.9863,-2.258,23.804,17.212,139.713,20.248,-111.231
5660,-0.2441,0.8672,-0.9399,12.512,48.950,21.545,139.867,19.644,-111.072
5670,-0.2539,0.8008,-0.8501,24.597,56.519,17.517,140.158,19.034,-110.825
5680,-0.2900,0.6948,-0.7788,28.076,43.884,8.240,140.493,18.611,-110.594
5690,-0.3193,0.6240,-0.7480,20.325,17.273,-1.526,140.735,18.484,-110.468
5700,-0.3398,0.6055,-0.7310,6.897,-12.817,-8.362,140.790,18.649,-110.484
5710,-0.3511,0.5991,-0.7202,-4.028,-39.795,-14.038,140.696,19.061,-110.632
5720,-0.3467,0.6025,-0.7251,-11.292,-55.847,-16.663,140.504,19.605,-110.874
5730,-0.3623,0.6182,-0.7124,-14.893,-55.664,-15.015,140.262,20.138,-111.127
5740,-0.3740,0.6235,-0.6860,-12.451,-43.884,-11.047,140.043,20.561,-111.335
5750,-0.3735,0.6143,-0.6689,-5.798,-27.649,-7.690,139.911,20.836,-111.462
5760,-0.3657,0.5718,-0.6431,1.587,-11.719,-4.944,139.900,20.978,-111.500
5770,-0.3608,0.5215,-0.6143,6.348,0.244,-2.319,139.966,21.022,-111.478
5780,-0.3540,0.5005,-0.6216,7.629,7.080,-0.122,140.070,21.000,-111.429
5790,-0.3521,0.4956,-0.6611,6.897,11.414,2.075,140.191,20.918,-111.368
5800,-0.3574,0.5107,-0.7119,4.333,14.954,4.883,140.301,20.786,-111.308
5810,-0.3418,0.5771,-0.7998,1.282,19.531,7.263,140.378,20.577,-111.231
5820,-0.3228,0.6572,-0.8828,1.282,24.841,8.240,140.455,20.292,-111.132
5830,-0.3110,0.7017,-0.9092,4.333,27.771,7.874,140.559,19.979,-111.006
5840,-0.3101,0.6943,-0.8760,6.287,25.696,6.348,140.674,19.698,-110.885
5850,-0.3262,0.6646,-0.8188,6.470,15.564,3.113,140.762,19.534,-110.808
5860,-0.3281,0.6348,-0.7983,4.517,1.282,-0.427,140.823,19.512,-110.797
5871,-0.3188,0.6265,-0.7803,-1.099,-13.062,-2.441,140.790,19.605,-110.863
5880,-0.2812,0.6440,-0.8066,-7.141,-22.827,-4.150,140.685,19.764,-110.984
5890,-0.2886,0.6592,-0.8130,-10.742,-23.499,-5.615,140.548,19.935,-111.094
5900,-0.3149,0.6655,-0.7725,-12.512,-19.165,-6.714,140.383,20.099,-111.165
5914,-0.3486,0.6294,-0.6958,-12.024,-13.733,-7.568,140.229,20.253,-111.198
5920,-0.4141,0.5640,-0.6104,-10.559,-12.085,-8.606,140.092,20.462,-111.209
5930,-0.4365,0.5547,-0.5801,-9.094,-13.733,-9.399,139.955,20.709,-111.226
5940,-0.4448,0.5488,-0.5840,-6.897,-15.137,-8.545,139.845,20.962,-111.264
5950,-0.4385,0.5488,-0.5937,-3.967,-14.893,-5.554,139.763,21.182,-111.319
5960,-0.3823,0.5708,-0.6445,0.183,-10.498,-2.136,139.730,21.302,-111.374
5970,-0.3066,0.6523,-0.7559,3.540,-0.488,1.221,139.752,21.259,-111.390
5980,-0.2822,0.7187,-0.8276,5.981,12.634,4.333,139.823,21.066,-111.335
5990,-0.2988,0.7417,-0.8311,7.507,22.949,5.676,139.922,20.797,-111.226
6000,-0.3154,0.7090,-0.8193,8.972,27.222,3.174,140.059,20.522,-111.061
6010,-0.3115,0.6646,-0.8013,5.798,23.376,-2.136,140.180,20.319,-110.885
6020,-0.3213,0.6387,-0.8008,-2.563,12.451,-7.996,140.219,20.248,-110.731
6030,-0.3437,0.6064,-0.7676,-11.780,-0.854,-12.695,140.153,20.325,-110.638
6040,-0.3906,0.5762,-0.6890,-19.043,-13.977,-14.709,139.971,20.555,-110.610
6050,-0.4131,0.5703,-0.6392,-20.264,-22.583,-13.733,139.741,20.869,-110.654
6060,-0.4102,0.5742,-0.6255,-14.893,-22.888,-10.315,139.543,21.154,-110.726
6070,-0.3589,0.6191,-0.7095,-6.775,-15.076,-6.226,139.449,21.308,-110.781
6080,-0.2812,0.6909,-0.8589,3.052,1.953,-3.174,139.510,21.242,-110.742
6090,-0.2715,0.7104,-0.9194,11.230,21.179,-1.343,139.708,21.011,-110.583
6100,-0.2871,0.7017,-0.8560,12.695,32.593,-0.610,139.927,20.704,-110.352
6110,-0.3408,0.5850,-0.7349,12.146,31.494,-3.906,140.147,20.484,-110.105
6120,-0.4106,0.4839,-0.6304,4.028,15.808,-9.888,140.279,20.495,-109.913
6130,-0.4473,0.4517,-0.5728,-9.583,-7.202,-14.038,140.219,20.748,-109.847
6140,-0.4595,0.4541,-0.5601,-20.020,-27.283,-14.587,140.004,21.165,-109.918
6150,-0.4561,0.4756,-0.5591,-23.499,-38.330,-11.597,139.708,21.638,-110.083
6160,-0.4058,0.5415,-0.6313,-20.813,-36.865,-5.981,139.422,21.995,-110.292
6170,-0.3540,0.6299,-0.7266,-12.329,-20.264,1.526,139.241,22.121,-110.446
6180,-0.3418,0.6582,-0.7671,-0.488,2.502,8.850,139.219,22.011,-110.500
6190,-0.3389,0.6567,-0.7803,11.047,22.461,13.367,139.351,21.720,-110.451
6200,-0.3130,0.6665,-0.8286,17.456,34.790,13.855,139.592,21.319,-110.319
6210,-0.2881,0.6865,-0.8672,16.479,36.987,11.230,139.834,20.896,-110.154
6220,-0.2993,0.6816,-0.8594,11.169,28.564,7.263,140.010,20.577,-110.017
6230,-0.3066,0.6812,-0.8374,3.601,14.343,2.502,140.081,20.407,-109.940
6240,-0.3164,0.6758,-0.8013,-3.906,-2.197,-2.502,140.043,20.402,-109.935
6250,-0.3384,0.6392,-0.7446,-9.583,-17.029,-6.226,139.916,20.561,-110.001
6260,-0.3623,0.6123,-0.6978,-10.559,-27.771,-7.812,139.757,20.825,-110.127
6270,-0.3882,0.5825,-0.6636,-7.935,-32.532,-7.080,139.609,21.149,-110.297
6280,-0.4067,0.5576,-0.6460,-4.578,-31.921,-4.639,139.493,21.462,-110.479
6290,-0.4150,0.5366,-0.6411,-0.305,-25.940,-1.831,139.438,21.720,-110.643
6300,-0.4023,0.5469,-0.6631,3.479,-15.320,1.648,139.438,21.857,-110.764
6310,-0.3906,0.5532,-0.6772,6.775,-2.686,5.249,139.493,21.863,-110.825
6320,-0.3818,0.5669,-0.6963,8.606,8.362,7.996,139.592,21.764,-110.836
6330,-0.3584,0.5972,-0.7197,8.545,16.174,9.949,139.697,21.566,-110.803
6340,-0.3110,0.6553,-0.7803,7.385,20.142,10.437,139.790,21.302,-110.748
6350,-0.2754,0.7046,-0.8359,5.554,21.057,9.216,139.872,21.011,-110.676
6360,-0.2871,0.7256,-0.8540,2.441,18.372,6.531,139.916,20.764,-110.605
6371,-0.2998,0.7437,-0.8462,-1.038,12.329,3.235,139.916,20.594,-110.544
6380,-0.3291,0.7573,-0.8223,-3.296,4.639,0.305,139.867,20.517,-110.517
6390,-0.3750,0.7217,-0.7690,-3.479,-4.333,-2.380,139.801,20.555,-110.528
6400,-0.4009,0.6748,-0.7061,-3.418,-12.878,-5.371,139.713,20.704,-110.572
6410,-0.4185,0.5923,-0.6182,-2.563,-20.264,-8.240,139.631,20.962,-110.643
6420,-0.4316,0.5249,-0.5674,-3.052,-25.085,-10.559,139.543,21.302,-110.731
6430,-0.4189,0.5298,-0.5840,-4.211,-24.536,-11.475,139.455,21.627,-110.808
6440,-0.3735,0.6172,-0.6641,-3.235,-16.907,-9.094,139.384,21.819,-110.852
6450,-0.3057,0.7817,-0.8057,3.479,-0.366,-3.601,139.395,21.780,-110.825
6460,-0.2778,0.8716,-0.8960,17.822,20.569,2.441,139.581,21.517,-110.704
6470,-0.3184,0.8350,-0.8306,32.166,35.339,5.554,139.927,21.149,-110.500
6480,-0.3794,0.6733,-0.6914,41.077,33.875,1.282,140.372,20.891,-110.281
6490,-0.4395,0.4771,-0.5859,38.696,15.747,-8.972,140.823,20.918,-110.099
6500,-0.4785,0.3545,-0.5503,20.813,-9.827,-19.409,141.125,21.270,-110.001
6510,-0.4897,0.3169,-0.5586,-0.977,-33.325,-27.161,141.207,21.857,-110.001
6520,-0.4673,0.3696,-0.5991,-17.761,-46.265,-27.039,141.075,22.495,-110.083
6530,-0.4307,0.4756,-0.6636,-24.414,-42.786,-18.799,140.812,22.994,-110.220
6540,-0.3872,0.6045,-0.7314,-18.799,-25.635,-7.141,140.581,23.231,-110.336
6550,-0.3467,0.6826,-0.7710,-2.380,-1.038,4.456,140.515,23.165,-110.380
6560,-0.3330,0.6782,-0.7856,16.785,21.545,12.329,140.685,22.868,-110.330
6570,-0.3237,0.6509,-0.7876,31.738,33.875,13.977,141.042,22.467,-110.215
6580,-0.3223,0.5679,-0.8042,38.391,34.119,11.536,141.515,22.088,-110.083
6590,-0.3281,0.5029,-0.8193,31.616,24.353,6.592,141.932,21.830,-109.973
6600,-0.3359,0.5044,-0.8267,14.404,8.972,0.854,142.163,21.725,-109.924
6610,-0.3413,0.5454,-0.8306,-4.822,-6.226,-3.540,142.158,21.769,-109.935
6620,-0.3330,0.6304,-0.8320,-17.578,-15.198,-5.005,141.971,21.879,-109.990
6630,-0.3477,0.6899,-0.8213,-20.813,-16.174,-3.601,141.713,21.984,-110.067
6640,-0.3618,0.6870,-0.7891,-14.709,-13.123,-1.465,141.515,22.066,-110.143
6650,-0.3726,0.6431,-0.7549,-4.456,-8.911,-0.549,141.427,22.126,-110.198
6660,-0.3828,0.5889,-0.7256,3.418,-6.592,-0.977,141.443,22.181,-110.237
6670,-0.3848,0.5400,-0.6895,5.188,-6.042,-1.709,141.493,22.258,-110.259
6680,-0.3970,0.4741,-0.6592,2.502,-6.897,-2.258,141.531,22.363,-110.286
6690,-0.4111,0.4507,-0.6582,-4.700,-7.996,-2.563,141.515,22.489,-110.319
6700,-0.4165,0.4766,-0.6724,-12.268,-7.080,-2.014,141.416,22.599,-110.352
6710,-0.4121,0.5151,-0.6846,-17.700,-3.235,-0.122,141.246,22.654,-110.369
6720,-0.4009,0.5757,-0.7158,-19.653,2.930,2.014,141.053,22.632,-110.369
6730,-0.3535,0.6763,-0.7944,-15.747,10.681,4.089,140.900,22.484,-110.330
6740,-0.3125,0.7339,-0.8550,-6.470,16.907,6.836,140.839,22.242,-110.270
6750,-0.3022,0.7427,-0.8696,2.319,18.555,8.362,140.872,21.973,-110.215
6760,-0.3105,0.7212,-0.8594,7.568,14.954,6.653,140.955,21.753,-110.171
6770,-0.3188,0.7026,-0.8311,7.812,6.592,2.869,141.026,21.627,-110.149
6780,-0.3506,0.6572,-0.7671,4.272,-5.371,-1.343,141.042,21.654,-110.176
6790,-0.3984,0.5845,-0.6582,-1.709,-18.311,-5.615,140.971,21.857,-110.253
6800,-0.4365,0.5176,-0.5835,-8.240,-29.846,-10.376,140.823,22.225,-110.369
6810,-0.4517,0.4932,-0.5654,-14.526,-35.339,-14.160,140.614,22.670,-110.490
6820,-0.4482,0.5015,-0.6094,-21.240,-32.959,-15.442,140.367,23.088,-110.588
6830,-0.4165,0.5610,-0.6792,-26.917,-21.973,-15.076,140.092,23.373,-110.610
6840,-0.4043,0.5894,-0.7124,-29.053,-7.996,-14.343,139.828,23.527,-110.550
6850,-0.4189,0.5825,-0.7036,-31.738,2.869,-15.137,139.581,23.615,-110.402
6860,-0.4443,0.5278,-0.6606,-37.231,5.371,-19.043,139.307,23.736,-110.204
6871,-0.4683,0.4805,-0.5967,-47.119,-0.122,-24.536,138.939,23.972,-110.006
6880,-0.4844,0.5117,-0.5884,-58.411,-8.179,-28.320,138.433,24.296,-109.830
6890,-0.4541,0.6797,-0.6782,-62.073,-14.343,-26.489,137.829,24.587,-109.715
6900,-0.3896,0.8525,-0.7905,-48.462,-11.780,-17.395,137.324,24.730,-109.660
6910,-0.3252,0.9063,-0.8560,-19.714,-2.502,-6.531,137.098,24.692,-109.627
6920,-0.2827,0.9067,-0.8755,9.949,6.897,1.282,137.186,24.510,-109.583
6930,-0.2788,0.8408,-0.8604,32.104,12.512,2.625,137.516,24.291,-109.512
6940,-0.3179,0.7231,-0.8130,41.260,11.963,0.854,137.966,24.115,-109.429
6950,-0.3896,0.5718,-0.7212,36.072,4.028,-4.028,138.384,24.104,-109.369
6960,-0.4399,0.4912,-0.6357,17.761,-9.277,-10.620,138.609,24.285,-109.347
6970,-0.4678,0.4731,-0.5898,-1.953,-19.897,-14.648,138.609,24.604,-109.374
6980,-0.4849,0.4746,-0.5503,-15.930,-22.583,-14.099,138.433,24.955,-109.418
6990,-0.4673,0.5151,-0.5366,-21.179,-17.212,-11.047,138.186,25.230,-109.457
7000,-0.4673,0.5645,-0.5474,-14.343,-7.446,-6.104,138.005,25.378,-109.462
7010,-0.4736,0.5713,-0.5786,0.549,5.371,2.136,137.994,25.373,-109.440
7020,-0.4687,0.5679,-0.6123,17.334,16.357,10.559,138.170,25.219,-109.402
7030,-0.4482,0.5576,-0.6543,33.203,24.719,16.846,138.532,24.950,-109.358
7040,-0.4092,0.5698,-0.7334,39.490,28.992,19.897,138.977,24.593,-109.314
7050,-0.3750,0.5811,-0.8076,35.339,29.358,18.555,139.406,24.214,-109.254
7060,-0.3481,0.6162,-0.8555,23.560,24.841,14.099,139.708,23.879,-109.193
7070,-0.3384,0.6514,-0.8657,9.216,18.494,8.362,139.861,23.621,-109.133
7080,-0.3335,0.6816,-0.8608,-4.822,11.841,2.563,139.856,23.445,-109.072
7090,-0.3228,0.7202,-0.8594,-16.418,4.639,-2.808,139.713,23.357,-109.017
7100,-0.3203,0.7412,-0.8271,-22.339,-4.089,-6.592,139.488,23.357,-108.990
7110,-0.3501,0.7236,-0.7749,-21.973,-12.451,-8.057,139.235,23.450,-109.012
7120,-0.3931,0.6748,-0.7031,-17.273,-19.348,-8.118,139.010,23.632,-109.083
7130,-0.4434,0.5962,-0.6152,-10.620,-23.926,-7.690,138.829,23.901,-109.193
7140,-0.4697,0.5518,-0.5645,-6.104,-25.879,-6.470,138.680,24.203,-109.325
7150,-0.4902,0.5303,-0.5522,-2.197,-22.888,-4.639,138.582,24.489,-109.451
7160,-0.4897,0.5210,-0.5562,1.526,-14.648,-1.953,138.543,24.692,-109.539
7170,-0.4585,0.5322,-0.5811,4.272,-3.357,0.854,138.565,24.763,-109.572
7180,-0.4121,0.5811,-0.6445,5.127,7.935,2.808,138.625,24.697,-109.539
7190,-0.3848,0.6294,-0.7158,3.662,16.724,3.174,138.697,24.521,-109.440
7200,-0.3740,0.6650,-0.7534,-0.305,20.813,2.136,138.752,24.313,-109.308
7210,-0.3965,0.6387,-0.7466,-5.493,19.531,-0.488,138.763,24.148,-109.166
7220,-0.4453,0.5571,-0.6763,-13.428,11.047,-5.798,138.697,24.131,-109.034
7230,-0.4639,0.5132,-0.6240,-26.428,-2.136,-12.146,138.488,24.285,-108.951
7240,-0.4541,0.5537,-0.6421,-40.283,-12.939,-15.991,138.115,24.521,-108.913
7250,-0.4316,0.6279,-0.6758,-46.875,-15.991,-14.343,137.637,24.741,-108.913
7260,-0.3594,0.8203,-0.8018,-40.405,-7.874,-8.301,137.208,24.780,-108.907
7270,-0.2803,0.9561,-0.9438,-16.907,9.155,0.061,137.043,24.582,-108.836
7280,-0.2686,0.9648,-0.9761,10.620,24.353,5.737,137.186,24.236,-108.699
7290,-0.2866,0.8564,-0.9009,31.006,27.344,4.578,137.554,23.890,-108.534
7300,-0.3359,0.6509,-0.7769,40.161,15.320,-2.014,138.032,23.736,-108.408
7310,-0.4277,0.4424,-0.6235,29.358,-7.751,-10.132,138.395,23.917,-108.380
7320,-0.5122,0.3188,-0.4902,5.127,-35.034,-17.273,138.488,24.461,-108.490
7330,-0.5488,0.3115,-0.4521,-18.677,-52.917,-18.921,138.279,25.186,-108.721
7340,-0.5361,0.4023,-0.4663,-35.156,-50.842,-13.733,137.829,25.812,-108.984
7350,-0.5171,0.5469,-0.5181,-34.119,-31.372,-4.883,137.368,26.158,-109.177
7360,-0.4678,0.6655,-0.5874,-16.235,-2.319,5.676,137.115,26.153,-109.243
7371,-0.4277,0.7222,-0.6523,8.789,25.879,16.479,137.181,25.829,-109.177
7380,-0.3882,0.7515,-0.7144,31.555,43.396,22.888,137.516,25.307,-109.039
7390,-0.3696,0.7314,-0.7710,45.288,46.631,23.743,138.021,24.747,-108.885
7400,-0.3618,0.6841,-0.8101,45.105,36.987,19.897,138.532,24.285,-108.776
7410,-0.3623,0.6587,-0.8306,30.334,19.531,11.963,138.878,24.011,-108.732
7420,-0.3755,0.6738,-0.8311,7.568,3.235,1.892,138.977,23.923,-108.721
7430,-0.3936,0.6699,-0.7939,-15.076,-7.751,-7.935,138.840,24.005,-108.710
7440,-0.4033,0.6997,-0.7295,-29.541,-12.634,-14.526,138.532,24.170,-108.682
7450,-0.4150,0.7061,-0.6753,-28.809,-12.756,-15.930,138.219,24.357,-108.644
7460,-0.4263,0.6636,-0.6250,-18.738,-11.536,-13.000,137.988,24.532,-108.622
7470,-0.4277,0.6060,-0.5820,-4.944,-9.644,-8.484,137.900,24.686,-108.627
7480,-0.4482,0.5264,-0.5552,9.033,-6.531,-3.845,137.966,24.818,-108.644
7490,-0.4570,0.4619,-0.5605,16.724,-2.808,0.427,138.148,24.906,-108.666
7500,-0.4375,0.4624,-0.6235,16.541,2.075,3.845,138.356,24.911,-108.682
7510,-0.4102,0.4980,-0.7114,12.085,9.094,6.714,138.549,24.807,-108.671
7520,-0.3896,0.5635,-0.7803,4.761,17.273,8.728,138.675,24.593,-108.616
7530,-0.3691,0.6602,-0.8271,-1.770,23.315,9.521,138.724,24.302,-108.528
7540,-0.3501,0.7314,-0.8398,-3.113,25.269,9.644,138.735,23.983,-108.424
7550,-0.3477,0.7617,-0.8101,0.610,21.362,9.277,138.752,23.698,-108.347
7560,-0.3613,0.7412,-0.7642,6.348,11.719,7.874,138.796,23.511,-108.325
7570,-0.3955,0.6562,-0.7017,12.268,-1.038,5.554,138.878,23.472,-108.380
7580,-0.4292,0.5508,-0.6372,13.550,-13.916,2.747,138.966,23.593,-108.501
7590,-0.4639,0.4648,-0.6143,8.972,-23.010,0.122,139.026,23.835,-108.666
7600,-0.4575,0.4541,-0.6450,0.366,-23.865,-1.831,139.026,24.088,-108.825
7610,-0.3936,0.5732,-0.7676,-10.132,-14.160,-1.587,138.933,24.186,-108.913
7620,-0.3511,0.7295,-0.8672,-15.869,4.761,0.671,138.796,24.077,-108.880
7630,-0.3462,0.8384,-0.8398,-13.916,19.958,4.089,138.669,23.824,-108.770
7640,-0.3613,0.8188,-0.7349,-5.554,27.100,7.385,138.598,23.522,-108.638
7650,-0.4355,0.6362,-0.5547,3.601,19.470,5.127,138.598,23.379,-108.539
7660,-0.5420,0.4160,-0.3555,2.930,-1.770,-3.479,138.554,23.626,-108.523
7670,-0.6196,0.2305,-0.2632,-10.864,-25.391,-12.268,138.417,24.269,-108.605
7680,-0.5488,0.3291,-0.4297,-30.579,-37.354,-16.968,138.098,24.868,-108.737
7690,-0.4194,0.6362,-0.7026,-41.382,-20.630,-9.094,137.653,25.071,-108.814
7700,-0.3022,0.9219,-0.9326,-33.081,17.029,6.592,137.335,24.780,-108.743
7710,-0.2485,1.0317,-0.9854,-13.062,55.542,20.630,137.269,24.088,-108.495
7720,-0.2056,1.0684,-0.9326,7.751,77.332,23.865,137.439,23.209,-108.111
7730,-0.2271,0.9155,-0.8398,24.902,74.097,15.381,137.802,22.434,-107.693
7740,-0.3027,0.7026,-0.7593,27.039,46.997,-0.122,138.192,22.028,-107.347
7750,-0.3784,0.5850,-0.7173,13.916,8.850,-15.442,138.428,22.066,-107.161
7760,-0.4707,0.4253,-0.6196,-1.221,-29.724,-26.001,138.488,22.560,-107.166
7770,-0.5107,0.3291,-0.5151,-14.954,-61.768,-30.151,138.351,23.390,-107.364
7780,-0.5059,0.3286,-0.4868,-21.606,-75.439,-27.832,138.087,24.302,-107.682
7790,-0.4692,0.4370,-0.5854,-17.639,-65.613,-17.395,137.829,24.983,-108.023
7800,-0.4155,0.5986,-0.7202,-6.104,-33.752,-0.305,137.686,25.225,-108.270
7810,-0.3872,0.6660,-0.7788,12.451,5.981,15.625,137.796,25.032,-108.353
7820,-0.3550,0.6992,-0.7676,28.870,35.828,24.841,138.104,24.543,-108.287
7830,-0.3296,0.6636,-0.7695,38.696,48.340,24.719,138.560,23.956,-108.138
7840,-0.3203,0.6191,-0.7905,34.485,41.382,17.517,138.999,23.472,-107.979
7850,-0.3408,0.5752,-0.7837,17.395,22.766,7.935,139.257,23.209,-107.880
7860,-0.3760,0.5718,-0.7529,-4.944,-0.671,-0.610,139.246,23.203,-107.880
7871,-0.3916,0.6289,-0.7373,-23.560,-20.264,-5.615,138.977,23.379,-107.979
7880,-0.3564,0.7842,-0.8062,-30.579,-27.222,-5.798,138.582,23.560,-108.127
7890,-0.3569,0.8726,-0.8408,-21.240,-19.775,-2.380,138.279,23.654,-108.248
7900,-0.3784,0.8242,-0.7661,-2.441,-9.155,0.488,138.170,23.665,-108.320
7915,-0.3838,0.7275,-0.6606,14.526,-2.869,0.610,138.246,23.659,-108.347
7920,-0.4160,0.5845,-0.5830,23.437,-4.089,-3.235,138.444,23.741,-108.353
7930,-0.4531,0.4976,-0.5190,16.602,-11.047,-8.362,138.582,23.967,-108.364
7940,-0.4971,0.4399,-0.4697,1.892,-17.761,-11.353,138.565,24.307,-108.397
7950,-0.5054,0.4233,-0.4985,-12.329,-18.982,-11.536,138.439,24.659,-108.441
7960,-0.4639,0.5503,-0.6060,-23.376,-10.010,-9.399,138.203,24.846,-108.435
7970,-0.4360,0.6997,-0.6802,-23.804,7.385,-3.296,137.961,24.802,-108.353
7980,-0.3511,0.8525,-0.8291,-13.245,25.574,4.272,137.856,24.505,-108.199
7990,-0.2441,1.0015,-1.0044,2.991,45.166,10.315,137.961,23.956,-107.952
8000,-0.2524,0.9731,-0.9731,20.142,54.260,12.146,138.252,23.340,-107.655
8010,-0.3159,0.7593,-0.8066,31.494,41.504,6.531,138.642,22.917,-107.408
8020,-0.4277,0.3901,-0.5479,30.396,10.376,-6.653,139.054,22.978,-107.276
8030,-0.5571,0.0894,-0.3301,12.024,-34.180,-21.729,139.406,23.730,-107.342
8040,-0.6172,-0.0361,-0.2583,-15.015,-74.402,-32.288,-172.035,24.933,-107.600
8050,-0.5781,0.1128,-0.3984,-35.767,-89.600,-29.541,164.191,26.065,-107.144
8060,-0.4360,0.5840,-0.7441,-41.321,-62.805,-8.301,163.515,26.669,-107.243
8070,-0.3594,0.8252,-0.9390,-20.081,-3.784,20.142,162.966,26.543,-107.474
8080,-0.2998,0.9409,-1.0034,8.362,49.011,41.016,162.664,25.818,-107.748
8090,-0.1997,1.0898,-1.0659,31.860,80.566,43.823,162.894,24.917,-107.946
8100,-0.1675,1.0366,-1.0688,51.636,86.365,31.311,163.394,24.000,-108.001
8110,-0.2329,0.8438,-0.9766,50.842,59.998,13.062,163.922,23.390,-107.946
8120,-0.3125,0.6309,-0.8354,28.992,13.916,-6.348,164.257,23.275,-107.842
8130,-0.3862,0.5225,-0.6973,-5.737,-39.734,-23.743,164.251,23.719,-107.710
8140,-0.4565,0.4551,-0.5571,-33.020,-83.801,-34.546,163.965,24.620,-107.595
8150,-0.5063,0.4712,-0.4561,-46.509,-105.225,-36.072,163.526,25.730,-107.534
8160,-0.5337,0.4995,-0.3901,-39.856,-100.525,-28.503,163.120,26.779,-107.545
8170,-0.5591,0.5005,-0.3750,-17.944,-73.914,-14.465,162.905,27.526,-107.628
8180,-0.5537,0.5142,-0.4126,7.629,-34.607,1.587,162.916,27.850,-107.759
8190,-0.5088,0.5454,-0.4980,28.992,8.423,15.564,163.141,27.724,-107.902
8200,-0.4434,0.5815,-0.6284,41.199,42.664,23.865,163.499,27.246,-108.023
8210,-0.3833,0.6138,-0.7603,40.283,60.791,24.658,163.872,26.598,-108.094
8220,-0.3579,0.6094,-0.8252,31.311,64.819,19.165,164.180,25.917,-108.094
8230,-0.3545,0.5996,-0.8442,12.878,54.993,9.583,164.339,25.362,-108.034
8240,-0.3853,0.6050,-0.8203,-12.390,34.363,-0.244,164.257,25.032,-107.930
8250,-0.4004,0.6733,-0.7954,-33.142,9.521,-7.507,163.971,24.961,-107.820
8260,-0.3789,0.7690,-0.8198,-39.612,-9.399,-9.277,163.608,25.076,-107.748
8270,-0.3389,0.8447,-0.8477,-30.151,-17.456,-6.714,163.312,25.263,-107.732
8280,-0.3345,0.8115,-0.8271,-10.193,-17.273,-2.991,163.202,25.439,-107.754
8290,-0.3428,0.7280,-0.7690,9.521,-12.390,-0.916,163.284,25.560,-107.787
8300,-0.3716,0.5835,-0.6812,21.667,-8.423,-1.343,163.493,25.648,-107.798
8310,-0.4512,0.3882,-0.5547,21.057,-10.986,-4.089,163.707,25.763,-107.787
8320,-0.5176,0.2808,-0.4771,8.057,-17.517,-7.263,163.801,25.950,-107.765
8330,-0.5288,0.3130,-0.4687,-9.460,-21.118,-6.531,163.707,26.169,-107.765
8340,-0.4678,0.5645,-0.6143,-22.095,-14.832,0.000,163.466,26.312,-107.809
8350,-0.3560,0.8789,-0.8516,-17.456,7.812,10.559,163.251,26.208,-107.897
8360,-0.3359,0.9629,-0.8901,0.610,35.217,19.348,163.218,25.818,-107.990
8371,-0.3242,0.9409,-0.8252,15.259,48.218,20.508,163.339,25.296,-108.056
8380,-0.3379,0.7607,-0.7275,27.222,45.166,13.123,163.614,24.824,-108.051
8390,-0.3916,0.5229,-0.6367,24.292,24.780,0.183,163.889,24.587,-107.974
8400,-0.4448,0.3848,-0.5967,4.272,-3.662,-13.367,163.987,24.659,-107.842
8410,-0.4844,0.3506,-0.5693,-20.752,-26.917,-20.508,163.834,24.972,-107.710
8420,-0.4932,0.4126,-0.5498,-37.476,-38.086,-20.447,163.504,25.395,-107.611
8430,-0.4814,0.4893,-0.5688,-40.833,-31.982,-14.465,163.120,25.746,-107.556
8440,-0.4287,0.6470,-0.6602,-33.325,-10.010,-3.845,162.790,25.851,-107.551
8450,-0.3965,0.7427,-0.7549,-14.282,17.822,7.629,162.636,25.659,-107.573
8460,-0.3755,0.7588,-0.8076,6.104,38.513,15.625,162.680,25.247,-107.611
8470,-0.3550,0.7344,-0.8301,20.813,45.044,17.334,162.872,24.763,-107.644
8480,-0.3345,0.6704,-0.8379,25.879,36.621,14.221,163.120,24.373,-107.672
8490,-0.3213,0.6167,-0.8281,18.738,18.433,8.667,163.295,24.170,-107.704
8500,-0.3145,0.6201,-0.8135,4.639,-1.648,2.319,163.328,24.181,-107.737
8510,-0.3320,0.6382,-0.7891,-5.798,-15.991,-1.404,163.257,24.335,-107.770
8520,-0.3643,0.6367,-0.7197,-7.446,-21.484,-2.502,163.163,24.549,-107.814
8530,-0.4082,0.6279,-0.6426,-4.333,-20.752,-2.380,163.103,24.752,-107.853
8540,-0.4443,0.6177,-0.5942,0.366,-15.625,-1.404,163.092,24.906,-107.891
8550,-0.4761,0.5894,-0.5581,4.883,-8.057,0.793,163.125,24.983,-107.924
8560,-0.4805,0.5757,-0.5518,7.629,-0.671,3.418,163.185,24.977,-107.963
8570,-0.4390,0.6045,-0.6123,8.667,6.897,6.226,163.257,24.895,-108.007
8580,-0.3940,0.6274,-0.6826,8.789,15.442,8.179,163.328,24.725,-108.045
8590,-0.3667,0.6592,-0.7319,6.409,21.362,8.484,163.125,24.456,-108.067
8600,-0.3374,0.7231,-0.7910,2.808,23.193,7.385,162.900,24.142,-108.067
8610,-0.3564,0.7358,-0.7832,1.099,20.813,4.761,162.653,23.873,-108.051
8620,-0.3882,0.7173,-0.7197,-2.014,12.085,0.305,162.372,23.730,-108.018
8630,-0.4092,0.6919,-0.6895,-6.165,0.610,-4.944,162.059,23.730,-107.963
8640,-0.4307,0.6206,-0.6416,-9.399,-8.484,-9.338,161.730,23.857,-107.891
8650,-0.4644,0.5176,-0.5859,-11.414,-13.184,-12.512,161.422,24.088,-107.809
8660,-0.4404,0.5020,-0.5977,-13.611,-12.451,-12.512,161.109,24.296,-107.721
8670,-0.3730,0.5615,-0.6797,-12.024,-5.066,-7.812,160.807,24.357,-107.661
8680,-0.3413,0.6411,-0.7788,-4.883,7.263,-0.610,160.571,24.236,-107.628
8690,-0.3101,0.7085,-0.8506,5.615,18.433,6.165,160.422,23.956,-107.622
8700,-0.3013,0.7393,-0.8711,12.390,23.865,9.644,160.334,23.610,-107.633
8710,-0.3350,0.6865,-0.8262,14.404,18.799,7.446,160.274,23.346,-107.644
8720,-0.3833,0.5669,-0.7319,10.071,4.944,1.404,160.192,23.286,-107.639
8730,-0.4277,0.4453,-0.6235,-1.526,-12.573,-6.226,160.027,23.483,-107.622
8740,-0.4551,0.3970,-0.5757,-14.832,-27.710,-11.841,159.741,23.879,-107.600
8750,-0.4204,0.5161,-0.6558,-22.217,-31.311,-9.827,159.335,24.230,-107.622
8760,-0.3389,0.7222,-0.8052,-18.372,-17.334,0.000,158.912,24.324,-107.688
8770,-0.2949,0.8320,-0.8882,-1.160,5.371,10.803,158.643,24.131,-107.776
8780,-0.2861,0.9087,-0.8965,15.381,25.269,16.907,158.527,23.719,-107.847
8790,-0.3154,0.8584,-0.8179,26.550,29.541,14.648,158.527,23.307,-107.880
8800,-0.3960,0.6704,-0.6797,27.527,15.076,5.249,158.571,23.143,-107.875
8810,-0.4663,0.5156,-0.5806,12.268,-8.362,-7.690,158.511,23.324,-107.825
8820,-0.4917,0.4351,-0.5435,-9.766,-28.870,-19.043,158.275,23.780,-107.748
8830,-0.4980,0.4009,-0.5103,-26.611,-39.612,-22.644,157.874,24.362,-107.682
8840,-0.4819,0.4639,-0.5015,-33.203,-36.804,-17.761,157.346,24.873,-107.650
8850,-0.4346,0.5771,-0.5547,-23.621,-21.912,-5.493,156.863,25.131,-107.688
8860,-0.3564,0.6895,-0.6938,-3.052,0.977,9.216,156.577,25.038,-107.776
8871,-0.3140,0.7827,-0.7979,16.052,23.376,20.142,156.484,24.653,-107.880
8880,-0.3242,0.8071,-0.8345,29.663,35.583,22.949,156.544,24.148,-107.957
8890,-0.3555,0.7476,-0.8164,33.936,32.715,18.311,156.671,23.714,-107.996
8900,-0.3740,0.6606,-0.7881,23.865,17.212,8.057,156.742,23.489,-108.001
8910,-0.3921,0.6108,-0.7441,4.456,-1.831,-4.028,156.638,23.511,-107.968
8920,-0.4180,0.5454,-0.6909,-13.977,-17.212,-14.404,156.374,23.741,-107.902
8930,-0.4219,0.5513,-0.6479,-26.672,-24.780,-18.982,155.973,24.066,-107.820
8940,-0.4126,0.5967,-0.6177,-28.137,-24.353,-16.541,155.522,24.368,-107.765
8950,-0.4092,0.6152,-0.6021,-17.212,-18.677,-8.667,155.138,24.582,-107.759
8960,-0.4146,0.6172,-0.6147,-0.916,-9.521,1.221,154.902,24.675,-107.820
8970,-0.4238,0.6104,-0.6401,15.076,0.305,8.789,154.830,24.642,-107.902
8980,-0.4292,0.5693,-0.6714,24.963,8.423,11.841,154.896,24.532,-107.979
8990,-0.4209,0.5264,-0.7026,24.475,13.672,11.230,155.001,24.373,-108.029
9000,-0.3979,0.5337,-0.7334,14.709,15.076,8.545,155.028,24.197,-108.045
9010,-0.3335,0.6147,-0.8286,1.343,14.709,5.432,154.935,23.978,-108.029
9020,-0.2837,0.6973,-0.9063,-9.216,15.198,2.563,154.737,23.730,-107.985
9030,-0.3018,0.7310,-0.8765,-15.137,13.123,0.244,154.462,23.522,-107.930
9040,-0.3418,0.7373,-0.7974,-16.357,5.859,-1.770,154.144,23.417,-107.880
9050,-0.4058,0.7021,-0.6562,-13.611,-7.141,-2.869,153.798,23.489,-107.886
9060,-0.4595,0.6392,-0.5552,-6.042,-21.545,-3.235,153.484,23.741,-107.957
9070,-0.4668,0.6016,-0.5532,1.892,-29.724,-2.808,153.243,24.077,-108.078
9080,-0.4419,0.5815,-0.6104,7.996,-26.367,-1.282,153.105,24.351,-108.193
9090,-0.4106,0.5942,-0.6694,10.071,-12.695,0.183,153.034,24.467,-108.259
9100,-0.3750,0.6367,-0.7144,7.385,4.211,1.526,152.963,24.395,-108.254
9110,-0.3262,0.7275,-0.7778,1.770,16.968,2.319,152.847,24.159,-108.193
9120,-0.3403,0.7583,-0.7832,-1.343,21.362,0.732,152.704,23.901,-108.094
9130,-0.3809,0.7510,-0.7583,-3.235,16.968,-2.808,152.540,23.719,-107.979
9140,-0.4546,0.6401,-0.6426,-3.601,5.798,-7.202,152.369,23.730,-107.880
9150,-0.5059,0.5171,-0.5161,-5.188,-10.437,-11.597,152.166,23.989,-107.820
9160,-0.5181,0.4365,-0.4844,-7.019,-22.461,-13.916,151.963,24.395,-107.803
9170,-0.4976,0.4126,-0.5059,-6.470,-24.902,-12.146,151.787,24.796,-107.814
9180,-0.4224,0.4707,-0.6147,-3.601,-15.137,-6.042,151.650,24.994,-107.831
9190,-0.3120,0.6562,-0.8306,0.488,6.348,2.991,151.556,24.840,-107.825
9200,-0.2773,0.7666,-0.9287,7.202,30.396,11.902,151.534,24.401,-107.781
9210,-0.2856,0.7793,-0.9253,14.404,42.480,15.747,151.589,23.846,-107.715
9220,-0.2939,0.7539,-0.9126,18.433,38.818,12.451,151.694,23.351,-107.633
9230,-0.3008,0.7256,-0.8926,15.442,21.790,6.714,151.760,23.038,-107.584
9240,-0.3257,0.6509,-0.8535,10.315,-1.587,-0.854,151.771,22.994,-107.584
9250,-0.3452,0.5918,-0.7964,1.770,-22.949,-7.141,151.683,23.192,-107.633
9260,-0.3633,0.5181,-0.7065,-4.517,-36.194,-10.132,151.523,23.549,-107.721
9270,-0.4023,0.4614,-0.6157,-8.423,-40.710,-9.705,151.309,23.989,-107.842
9280,-0.4443,0.4692,-0.5698,-9.460,-36.682,-6.042,151.057,24.406,-107.974
9290,-0.4873,0.5254,-0.5439,-6.592,-26.123,0.305,150.782,24.714,-108.116
9300,-0.4937,0.6128,-0.5454,0.549,-12.085,7.874,150.535,24.846,-108.259
9310,-0.4780,0.6763,-0.5703,11.841,2.808,14.404,150.397,24.785,-108.380
9320,-0.4438,0.7070,-0.6074,21.973,15.076,17.273,150.386,24.582,-108.463
9330,-0.4048,0.6963,-0.6704,26.428,21.057,15.625,150.469,24.302,-108.501
9340,-0.3672,0.6860,-0.7466,22.339,20.386,10.559,150.562,24.033,-108.490
9350,-0.3560,0.6807,-0.7764,11.047,14.160,4.333,150.568,23.840,-108.457
9360,-0.3638,0.6787,-0.7822,-2.747,5.188,-2.136,150.441,23.758,-108.408
9371,-0.3667,0.6943,-0.7715,-15.564,-2.441,-7.690,150.189,23.774,-108.347
9380,-0.3809,0.6934,-0.7441,-21.179,-7.507,-10.925,149.870,23.862,-108.287
9390,-0.3862,0.6694,-0.7285,-17.822,-8.972,-11.841,149.595,23.972,-108.221
9400,-0.3901,0.6362,-0.7358,-9.888,-7.141,-11.230,149.420,24.066,-108.155
9410,-0.3706,0.5952,-0.7461,-2.014,-2.930,-9.644,149.354,24.115,-108.078
9420,-0.3765,0.5356,-0.7192,2.319,0.366,-7.629,149.343,24.137,-108.007
9430,-0.3936,0.5083,-0.6855,1.282,0.793,-5.371,149.321,24.159,-107.952
9440,-0.4233,0.4922,-0.6523,-2.075,-1.343,-2.991,149.244,24.219,-107.930
9450,-0.4517,0.4858,-0.6113,-5.676,-4.028,-0.610,149.101,24.318,-107.946
9460,-0.4565,0.5259,-0.6069,-7.385,-4.639,2.136,148.914,24.395,-107.996
9470,-0.3979,0.6489,-0.7075,-5.737,-0.854,5.981,148.716,24.357,-108.056
9480,-0.2944,0.8213,-0.9370,-0.305,9.583,9.705,148.596,24.115,-108.089
9490,-0.2075,0.9707,-1.1050,3.906,23.254,11.108,148.552,23.698,-108.062
9500,-0.1719,0.9741,-1.0933,4.456,29.236,7.690,148.530,23.242,-107.968
9510,-0.3047,0.7139,-0.7954,-0.061,15.930,-1.709,148.464,23.044,-107.864
9520,-0.5435,0.3340,-0.3726,-17.212,-20.935,-17.395,148.206,23.555,-107.820
9530,-0.6865,0.1167,-0.1211,-41.443,-62.988,-32.166,147.651,24.780,-107.880
9540,-0.7109,0.1138,-0.0874,-59.021,-88.440,-36.743,146.788,26.252,-108.062
9550,-0.6284,0.3711,-0.3535,-55.481,-77.148,-24.231,146.003,27.268,-108.309
9560,-0.4204,0.7529,-0.7764,-30.823,-24.170,2.625,145.514,27.394,-108.484
9570,-0.2642,0.9639,-0.9844,1.831,43.396,29.724,145.437,26.708,-108.484
9580,-0.1948,1.0513,-1.0107,28.809,84.534,42.603,145.668,25.587,-108.336
9590,-0.1572,0.9946,-1.0073,45.959,87.402,36.255,146.113,24.478,-108.122
9600,-0.2202,0.8721,-1.0059,39.734,57.251,18.494,146.508,23.752,-107.941
9610,-0.3296,0.7563,-0.9292,12.329,9.766,-2.808,146.607,23.604,-107.858
9620,-0.4482,0.5947,-0.6973,-18.494,-39.124,-21.545,146.338,24.071,-107.897
9630,-0.5132,0.4927,-0.4966,-37.231,-76.233,-34.119,145.800,25.005,-108.051
9640,-0.5205,0.4155,-0.3418,-22.644,-77.515,-30.212,145.327,25.999,-108.254
9650,-0.5293,0.3423,-0.3511,4.517,-46.387,-15.869,145.212,26.680,-108.402
9660,-0.5103,0.3638,-0.4312,25.085,-8.789,3.174,145.366,26.889,-108.484
9670,-0.4829,0.4683,-0.5894,33.997,23.987,21.423,145.646,26.631,-108.534
9680,-0.4199,0.6440,-0.7578,31.311,46.875,33.081,145.893,26.027,-108.539
9690,-0.3716,0.7563,-0.8574,25.391,54.504,33.386,146.085,25.312,-108.506
9700,-0.3271,0.8076,-0.8672,14.587,47.302,26.184,146.157,24.681,-108.457
9710,-0.3096,0.8276,-0.8599,-0.793,28.564,13.489,146.069,24.269,-108.408
9720,-0.3315,0.8574,-0.8423,-15.015,6.714,0.244,145.822,24.126,-108.369
9730,-0.3604,0.8232,-0.7798,-19.775,-10.620,-9.766,145.514,24.203,-108.342
9740,-0.3901,0.7520,-0.7275,-16.602,-20.264,-15.198,145.239,24.417,-108.331
9750,-0.4199,0.6494,-0.6655,-9.460,-22.217,-16.907,145.052,24.692,-108.320
9760,-0.4468,0.5605,-0.6064,-3.845,-19.653,-15.808,144.948,24.977,-108.298
9770,-0.4624,0.5098,-0.5850,-0.366,-14.343,-12.390,144.893,25.219,-108.281
9780,-0.4648,0.4893,-0.5801,2.136,-6.470,-7.690,144.877,25.378,-108.248
9790,-0.4644,0.4790,-0.5552,4.395,1.221,-2.258,144.871,25.455,-108.221
9800,-0.4678,0.4395,-0.5166,7.324,5.127,2.869,144.893,25.488,-108.215
9810,-0.4775,0.4316,-0.5254,8.667,5.798,7.141,144.926,25.494,-108.243
9820,-0.4526,0.4995,-0.6177,8.362,7.568,11.963,144.943,25.406,-108.303
9830,-0.3784,0.6631,-0.7944,6.714,13.611,17.090,144.932,25.148,-108.369
9840,-0.3086,0.8301,-0.9609,6.165,23.926,20.081,144.926,24.725,-108.402
9850,-0.2827,0.9048,-0.9961,7.446,32.349,18.066,144.943,24.230,-108.358
9860,-0.2876,0.8916,-0.9092,6.836,28.259,11.230,144.948,23.824,-108.281
9871,-0.3315,0.8125,-0.7749,0.854,10.559,0.732,144.871,23.659,-108.221
9880,-0.3984,0.7290,-0.6582,-7.141,-12.085,-10.193,144.679,23.796,-108.210
9890,-0.4570,0.6436,-0.5850,-11.047,-28.320,-17.639,144.432,24.170,-108.232
9900,-0.4844,0.5630,-0.5410,-9.521,-33.569,-19.409,144.218,24.626,-108.270
9910,-0.4932,0.5015,-0.5273,-4.211,-27.893,-16.602,144.086,25.043,-108.303
9920,-0.4712,0.4888,-0.5630,2.075,-13.977,-10.376,144.058,25.285,-108.298
9930,-0.4277,0.5366,-0.6318,6.836,2.930,-2.075,144.097,25.296,-108.259
9940,-0.4150,0.5791,-0.6880,9.949,16.357,5.188,144.179,25.131,-108.204
9950,-0.4067,0.6152,-0.7212,9.949,22.156,8.850,144.256,24.879,-108.138
9960,-0.4028,0.5923,-0.6719,7.507,19.226,8.484,144.294,24.670,-108.089
9970,-0.4160,0.5566,-0.6064,1.709,8.911,5.005,144.250,24.593,-108.078
9980,-0.4326,0.5654,-0.5942,-4.578,-1.404,1.404,144.113,24.626,-108.100
9990,-0.4341,0.5854,-0.6187,-7.324,-5.798,0.671,143.948,24.692,-108.144
10000,-0.4351,0.6118,-0.6660,-6.042,-2.014,2.319,143.811,24.708,-108.177
10010,-0.4048,0.6558,-0.7358,-3.113,6.470,4.639,143.723,24.604,-108.177
10020,-0.3511,0.7349,-0.8193,-0.427,14.465,6.836,143.679,24.379,-108.144
10030,-0.3379,0.7710,-0.8481,2.808,17.700,8.057,143.663,24.109,-108.100
10040,-0.3457,0.7646,-0.8535,6.470,14.465,6.836,143.685,23.884,-108.067
10050,-0.3364,0.7397,-0.8252,7.263,6.042,2.930,143.707,23.747,-108.051
10060,-0.3403,0.6846,-0.7651,4.639,-5.981,-2.136,143.690,23.752,-108.073
10070,-0.3721,0.6377,-0.7129,0.366,-16.052,-5.920,143.619,23.890,-108.122
10080,-0.3970,0.5986,-0.6689,-2.075,-19.287,-7.507,143.520,24.088,-108.182
10090,-0.4258,0.5356,-0.6177,-2.197,-17.334,-6.958,143.432,24.302,-108.232
10100,-0.4429,0.5088,-0.6011,-1.709,-10.681,-5.005,143.372,24.467,-108.259
10110,-0.4512,0.5093,-0.6089,-1.099,-1.831,-2.014,143.328,24.543,-108.254
10120,-0.4292,0.5737,-0.6562,0.061,6.104,1.892,143.295,24.500,-108.232
10130,-0.4204,0.6260,-0.6982,3.784,10.803,6.226,143.284,24.373,-108.215
10140,-0.4072,0.6528,-0.7183,7.996,11.230,8.972,143.306,24.219,-108.221
10150,-0.3770,0.6621,-0.7246,10.010,7.263,9.338,143.333,24.071,-108.254
10160,-0.3511,0.6860,-0.7451,8.179,1.709,7.568,143.333,23.967,-108.309
10170,-0.3638,0.6992,-0.7441,3.784,-2.747,4.944,143.278,23.912,-108.369
10180,-0.3872,0.7061,-0.7197,-2.075,-5.188,1.770,143.163,23.917,-108.419
10190,-0.4097,0.7100,-0.6992,-6.470,-5.432,-1.892,143.004,23.956,-108.441
10200,-0.4258,0.7012,-0.6729,-7.385,-4.150,-5.188,142.850,24.016,-108.419
10210,-0.4292,0.6782,-0.6602,-4.333,-2.502,-7.263,142.740,24.082,-108.375
10220,-0.4194,0.6377,-0.6582,0.916,0.000,-7.935,142.707,24.137,-108.303
10230,-0.4111,0.6104,-0.6699,4.456,2.441,-7.935,142.734,24.164,-108.221
10240,-0.3862,0.6279,-0.7144,3.784,4.211,-7.812,142.767,24.159,-108.122
10250,-0.3672,0.6411,-0.7632,1.282,3.906,-8.484,142.795,24.137,-108.023
10260,-0.3823,0.6367,-0.7656,-2.502,0.549,-10.925,142.784,24.170,-107.924
10270,-0.4233,0.6064,-0.7070,-6.775,-6.042,-13.794,142.718,24.302,-107.842
10280,-0.4634,0.5552,-0.6270,-8.911,-14.526,-15.503,142.603,24.554,-107.803
10290,-0.4927,0.5151,-0.5747,-7.751,-20.935,-14.526,142.476,24.890,-107.820
10300,-0.4785,0.5068,-0.5752,-3.052,-21.790,-10.071,142.383,25.192,-107.875
10310,-0.4297,0.5171,-0.6235,4.089,-15.320,-3.540,142.372,25.362,-107.946
10320,-0.3906,0.5454,-0.6953,10.132,-3.418,3.235,142.443,25.351,-108.001
10330,-0.3379,0.6538,-0.8184,11.597,8.240,9.094,142.537,25.159,-108.023
10340,-0.3193,0.7305,-0.8638,10.559,16.174,11.475,142.619,24.868,-108.018
10350,-0.3530,0.7407,-0.8096,7.385,14.648,9.094,142.646,24.626,-107.996
10360,-0.3945,0.7266,-0.7578,2.136,4.456,2.991,142.608,24.532,-107.996
10371,-0.4429,0.6553,-0.6597,-3.662,-8.423,-3.784,142.487,24.631,-108.018
10380,-0.4814,0.5649,-0.5483,-9.888,-19.470,-9.155,142.284,24.906,-108.067
10390,-0.5054,0.5190,-0.4824,-13.794,-24.841,-10.559,142.026,25.274,-108.144
10400,-0.5005,0.5137,-0.4751,-12.634,-21.484,-7.629,141.773,25.593,-108.221
10410,-0.4639,0.5596,-0.5493,-5.188,-9.644,-0.671,141.619,25.719,-108.281
10420,-0.4268,0.6362,-0.6577,6.470,7.324,7.812,141.619,25.609,-108.303
10430,-0.4028,0.7031,-0.7524,17.273,21.912,13.977,141.757,25.307,-108.270
10440,-0.3892,0.7368,-0.8101,21.912,27.771,15.259,141.960,24.944,-108.215
10450,-0.3892,0.7065,-0.7930,19.348,22.827,11.353,142.136,24.648,-108.155
10460,-0.3901,0.6592,-0.7642,9.766,10.376,3.784,142.218,24.510,-108.122
10470,-0.4028,0.6489,-0.7393,-3.723,-2.014,-4.333,142.158,24.527,-108.094
10480,-0.4043,0.6318,-0.7031,-13.184,-8.057,-9.155,141.998,24.631,-108.073
10490,-0.3877,0.6514,-0.6997,-15.259,-7.263,-9.888,141.812,24.725,-108.034
10500,-0.3857,0.6514,-0.7017,-8.545,-2.991,-7.141,141.696,24.763,-107.996
10510,-0.4043,0.6133,-0.6924,2.502,0.610,-2.991,141.702,24.763,-107.963
10520,-0.4185,0.5796,-0.6982,10.925,1.648,0.366,141.801,24.752,-107.957
10530,-0.4233,0.5659,-0.7129,13.062,0.427,2.441,141.921,24.736,-107.974
10540,-0.4277,0.5620,-0.7153,10.071,-0.122,3.601,142.004,24.719,-108.007
10550,-0.4282,0.5537,-0.7080,5.371,0.000,3.662,142.042,24.703,-108.040
10560,-0.4131,0.5747,-0.7104,0.366,0.366,2.930,142.026,24.681,-108.062
10570,-0.4009,0.5908,-0.7075,-2.869,0.427,2.441,141.971,24.648,-108.078
10580,-0.3994,0.6030,-0.6982,-5.371,0.671,2.319,141.888,24.615,-108.094
10590,-0.3848,0.6221,-0.6924,-7.507,0.244,2.441,141.768,24.576,-108.111
10600,-0.3696,0.6470,-0.6948,-8.606,-1.831,2.441,141.619,24.543,-108.149
10610,-0.3931,0.6641,-0.7056,-7.935,-3.967,2.502,141.471,24.538,-108.193
10620,-0.4126,0.6719,-0.7095,-5.615,-4.333,2.869,141.345,24.532,-108.248
10630,-0.4341,0.6782,-0.7056,-2.625,-3.662,2.930,141.246,24.538,-108.298
10640,-0.4541,0.6675,-0.6807,0.732,-3.235,2.625,141.180,24.560,-108.347
10650,-0.4590,0.6313,-0.6499,3.662,-3.723,1.831,141.141,24.598,-108.386
10660,-0.4556,0.5923,-0.6182,4.517,-4.150,0.488,141.125,24.659,-108.419
10670,-0.4385,0.5645,-0.6055,3.357,-3.235,-0.793,141.108,24.725,-108.435
10680,-0.4326,0.5459,-0.6152,0.793,-0.671,-2.075,141.097,24.774,-108.424
10690,-0.4126,0.5796,-0.6660,-3.723,2.380,-3.296,141.059,24.774,-108.375
10700,-0.3877,0.6367,-0.7358,-8.057,6.104,-3.906,140.988,24.725,-108.303
10710,-0.3916,0.6724,-0.7725,-10.559,8.789,-3.479,140.905,24.637,-108.210
10720,-0.4131,0.6650,-0.7651,-10.254,7.568,-3.296,140.817,24.576,-108.127
10730,-0.4263,0.6309,-0.7349,-8.545,2.380,-3.418,140.735,24.571,-108.083
10740,-0.4263,0.5937,-0.7075,-7.507,-3.845,-3.479,140.652,24.626,-108.083
10750,-0.4209,0.5605,-0.6943,-6.165,-8.179,-2.869,140.587,24.714,-108.116
10760,-0.3818,0.5889,-0.7280,-5.066,-8.240,-0.305,140.515,24.752,-108.171
10770,-0.3462,0.6040,-0.7495,-2.136,-3.479,2.930,140.482,24.708,-108.221
10780,-0.3252,0.6787,-0.7856,-0.549,1.282,5.310,140.449,24.593,-108.254
10790,-0.3247,0.7876,-0.8130,0.549,4.028,7.202,140.394,24.434,-108.287
10800,-0.3701,0.8125,-0.7700,3.418,3.540,7.202,140.345,24.296,-108.325
10810,-0.4492,0.7114,-0.6504,6.165,-2.197,2.869,140.306,24.302,-108.364
10820,-0.5547,0.5073,-0.4517,2.014,-13.977,-3.906,140.219,24.582,-108.430
10830,-0.6191,0.3545,-0.3052,-11.169,-26.733,-10.193,139.966,25.137,-108.528
10840,-0.6235,0.3213,-0.2847,-24.597,-31.677,-12.024,139.587,25.757,-108.655
10850,-0.5312,0.4766,-0.4204,-29.846,-20.203,-5.920,139.169,26.087,-108.748
10860,-0.4043,0.6812,-0.6353,-18.677,6.958,6.165,138.922,25.972,-108.748
10871,-0.3350,0.8086,-0.7808,1.099,34.607,18.127,138.928,25.499,-108.649
10880,-0.2832,0.9365,-0.8975,14.893,47.180,23.010,139.087,24.868,-108.495
10890,-0.2798,0.9883,-0.9688,22.583,39.429,19.104,139.318,24.313,-108.375
10900,-0.3008,0.9375,-0.9717,21.667,18.738,9.583,139.521,23.994,-108.320
10910,-0.3306,0.8447,-0.9209,12.695,-4.578,-3.906,139.625,23.961,-108.320
10920,-0.3604,0.7207,-0.8140,-0.061,-23.743,-16.357,139.603,24.186,-108.347
10930,-0.3921,0.5913,-0.6826,-9.094,-34.668,-23.804,139.488,24.593,-108.397
10940,-0.4302,0.4893,-0.5708,-11.414,-36.194,-25.391,139.356,25.082,-108.446
10950,-0.4668,0.4097,-0.4731,-7.446,-30.151,-21.057,139.263,25.560,-108.484
10960,-0.5024,0.3779,-0.4268,0.183,-19.531,-12.634,139.241,25.950,-108.517
10970,-0.5303,0.3979,-0.4478,7.568,-6.653,-2.197,139.296,26.169,-108.550
10980,-0.5259,0.4556,-0.5156,13.245,6.714,8.179,139.411,26.175,-108.567
10990,-0.4819,0.5312,-0.6167,16.052,17.517,14.893,139.565,25.994,-108.567
11000,-0.4365,0.6118,-0.7168,13.977,22.339,17.090,139.713,25.703,-108.550
11010,-0.3989,0.6792,-0.7993,10.254,22.034,15.869,139.823,25.389,-108.528
11020,-0.3589,0.7285,-0.8623,5.493,17.334,12.207,139.883,25.098,-108.506
11030,-0.3481,0.7280,-0.8535,0.488,9.705,6.897,139.889,24.906,-108.495
11040,-0.3638,0.7251,-0.8057,-5.188,0.000,1.465,139.818,24.835,-108.506
11050,-0.3906,0.7139,-0.7383,-7.996,-9.338,-2.686,139.680,24.879,-108.550
11060,-0.4087,0.6978,-0.6572,-6.470,-16.663,-3.967,139.515,25.010,-108.638
11070,-0.4370,0.6562,-0.5864,-0.854,-20.752,-3.662,139.384,25.208,-108.759
11080,-0.4536,0.6226,-0.5640,6.348,-19.653,-2.930,139.323,25.406,-108.875
11090,-0.4585,0.5840,-0.5781,11.658,-12.878,-1.526,139.356,25.549,-108.951
11100,-0.4312,0.5815,-0.6250,12.695,-3.113,-0.183,139.449,25.587,-108.973
11110,-0.4160,0.5903,-0.6704,10.498,4.700,1.099,139.559,25.538,-108.951
11120,-0.4160,0.6196,-0.6948,6.348,7.568,1.892,139.625,25.455,-108.913
11130,-0.4194,0.6602,-0.7168,3.113,6.042,1.343,139.647,25.378,-108.880
11140,-0.4087,0.6899,-0.7520,2.930,3.174,0.305,139.664,25.318,-108.858
11150,-0.3979,0.6812,-0.7686,4.944,2.319,0.000,139.708,25.258,-108.842
11160,-0.3926,0.6465,-0.7710,6.653,3.235,-0.122,139.785,25.197,-108.820
11170,-0.3940,0.6084,-0.7666,6.531,3.540,-0.488,139.878,25.137,-108.787
11180,-0.3838,0.5884,-0.7710,4.150,2.625,-1.099,139.960,25.093,-108.759
11190,-0.3931,0.5566,-0.7583,2.258,1.465,-1.282,140.026,25.065,-108.737
11200,-0.4077,0.5435,-0.7212,0.916,-1.343,-0.610,140.065,25.071,-108.743
11210,-0.4146,0.5522,-0.6895,0.610,-5.310,1.099,140.065,25.104,-108.792
11220,-0.4131,0.5571,-0.6509,1.709,-8.789,3.418,140.037,25.153,-108.880
11230,-0.4224,0.5576,-0.6187,4.150,-10.254,5.432,140.010,25.214,-109.001
11240,-0.4229,0.5767,-0.6172,5.798,-8.118,7.690,139.982,25.241,-109.122
11250,-0.4321,0.5884,-0.6313,5.798,-2.686,10.315,139.966,25.208,-109.232
11260,-0.4380,0.6118,-0.6611,5.371,4.944,12.024,139.960,25.104,-109.297
11270,-0.4429,0.6597,-0.6938,4.395,11.047,12.207,139.960,24.939,-109.319
11280,-0.4409,0.7100,-0.7227,3.662,13.672,10.986,139.955,24.752,-109.319
11290,-0.4248,0.7319,-0.7236,4.639,12.085,8.362,139.955,24.582,-109.303
11300,-0.3975,0.7300,-0.7007,5.371,5.493,5.249,139.944,24.478,-109.308
11310,-0.4028,0.6982,-0.6807,4.639,-2.869,1.526,139.916,24.467,-109.341
11320,-0.4243,0.6577,-0.6743,1.404,-8.484,-2.136,139.872,24.543,-109.385
11330,-0.4429,0.6289,-0.6719,-3.296,-9.216,-4.456,139.801,24.653,-109.413
11340,-0.4429,0.6274,-0.6836,-7.019,-5.920,-5.737,139.708,24.747,-109.402
11350,-0.4351,0.6274,-0.6772,-7.690,-0.916,-6.042,139.625,24.796,-109.358
11360,-0.4312,0.6069,-0.6426,-4.822,1.953,-5.737,139.576,24.829,-109.297
11371,-0.4229,0.5952,-0.6455,0.122,1.892,-5.310,139.576,24.857,-109.243
11380,-0.4072,0.5732,-0.6548,5.493,0.977,-4.211,139.642,24.879,-109.199
11390,-0.4175,0.5400,-0.6562,8.850,-0.305,-2.197,139.746,24.911,-109.182
11400,-0.4326,0.5220,-0.6821,9.094,-0.732,-0.366,139.861,24.933,-109.182
11410,-0.4199,0.5420,-0.7397,7.141,0.671,1.160,139.971,24.917,-109.188
11420,-0.3960,0.5708,-0.7715,3.540,3.479,2.319,140.043,24.851,-109.182
11430,-0.3911,0.6206,-0.7866,-0.671,5.310,2.869,140.059,24.758,-109.171
11440,-0.3789,0.7124,-0.8003,-3.723,6.104,3.052,140.010,24.642,-109.155
11450,-0.3521,0.7617,-0.7871,-1.587,5.432,3.174,139.960,24.510,-109.144
11460,-0.3374,0.7397,-0.7446,3.357,2.014,1.709,139.944,24.417,-109.144
11470,-0.3462,0.7334,-0.7437,5.188,-2.869,-1.160,139.944,24.384,-109.149
11480,-0.3916,0.7021,-0.7202,3.296,-6.287,-3.967,139.933,24.428,-109.160
11490,-0.4609,0.5845,-0.6255,-1.587,-8.606,-6.592,139.883,24.576,-109.166
11500,-0.5283,0.4565,-0.5142,-10.498,-12.451,-10.925,139.768,24.868,-109.166
11510,-0.5444,0.4365,-0.4829,-20.996,-15.015,-14.099,139.543,25.225,-109.155
11520,-0.5215,0.5103,-0.5186,-25.024,-10.803,-11.292,139.263,25.483,-109.133
11530,-0.4443,0.6587,-0.6138,-17.273,1.953,-2.625,139.043,25.488,-109.100
11540,-0.3691,0.7676,-0.7324,2.258,17.273,7.019,139.043,25.252,-109.034
11550,-0.3198,0.8413,-0.8594,21.912,28.748,12.451,139.268,24.851,-108.929
11560,-0.3071,0.8257,-0.9478,34.180,30.212,10.254,139.658,24.450,-108.798
11570,-0.3208,0.7241,-0.9502,33.875,19.775,3.113,140.070,24.186,-108.682
11580,-0.3638,0.5898,-0.8633,18.738,0.061,-6.775,140.334,24.181,-108.622
11590,-0.4209,0.5107,-0.7573,-5.066,-21.057,-16.418,140.339,24.450,-108.633
11600,-0.4565,0.4819,-0.6543,-24.475,-33.264,-21.179,140.109,24.884,-108.688
11610,-0.4687,0.4883,-0.5625,-31.738,-34.119,-19.653,139.752,25.340,-108.765
11620,-0.4604,0.4946,-0.5063,-24.780,-26.550,-13.733,139.433,25.708,-108.836
11630,-0.4609,0.5103,-0.5259,-8.911,-13.733,-4.700,139.285,25.906,-108.896
11640,-0.4521,0.5464,-0.5918,7.385,-0.122,4.089,139.323,25.917,-108.929
11650,-0.4419,0.5864,-0.6685,18.127,11.414,9.949,139.493,25.768,-108.935
11660,-0.4331,0.6162,-0.7349,21.118,16.357,12.451,139.713,25.554,-108.918
11670,-0.4229,0.6362,-0.7759,16.907,14.526,11.658,139.894,25.340,-108.913
11680,-0.4131,0.6592,-0.7866,8.484,8.240,8.301,139.977,25.192,-108.924
11690,-0.3989,0.6685,-0.7627,0.671,1.221,3.784,139.960,25.120,-108.951
11700,-0.3999,0.6636,-0.7046,-3.906,-4.822,0.000,139.872,25.131,-108.984
11710,-0.4189,0.6523,-0.6602,-3.967,-8.118,-1.892,139.774,25.197,-109.023
11720,-0.4282,0.6470,-0.6558,0.061,-7.446,-1.892,139.713,25.263,-109.061
11730,-0.4170,0.6646,-0.6777,5.005,-3.967,-0.610,139.713,25.280,-109.083
11740,-0.4199,0.6538,-0.6860,9.949,-0.488,0.488,139.774,25.269,-109.094
11750,-0.4370,0.6377,-0.6899,11.963,1.221,0.610,139.867,25.252,-109.089
11760,-0.4434,0.6147,-0.6904,10.498,1.892,-0.183,139.960,25.241,-109.072
11770,-0.4468,0.5610,-0.6621,7.446,2.319,-1.221,140.043,25.252,-109.045
11780,-0.4531,0.5181,-0.6353,3.052,3.418,-2.380,140.103,25.280,-109.001
11790,-0.4517,0.5195,-0.6401,-1.465,5.371,-2.502,140.120,25.285,-108.946
11800,-0.4268,0.5732,-0.6870,-2.747,8.179,-1.038,140.120,25.236,-108.875
11810,-0.4023,0.6152,-0.7407,1.038,10.620,1.892,140.158,25.115,-108.820
11820,-0.3730,0.6553,-0.8037,7.080,11.169,4.639,140.251,24.950,-108.776
11830,-0.3750,0.6533,-0.8203,12.024,9.277,5.493,140.389,24.791,-108.759
11840,-0.4082,0.5981,-0.7603,13.550,4.822,5.005,140.537,24.703,-108.770
11850,-0.4385,0.5190,-0.6787,11.597,-1.465,3.906,140.652,24.714,-108.809
11860,-0.4570,0.4775,-0.6182,5.981,-5.737,2.930,140.702,24.796,-108.875
11871,-0.4536,0.4829,-0.6021,0.916,-4.761,2.991,140.691,24.868,-108.935
11880,-0.4287,0.5371,-0.6372,-1.099,0.916,4.333,140.658,24.857,-108.968
11890,-0.3882,0.6123,-0.7026,1.099,8.179,7.141,140.652,24.730,-108.968
11900,-0.3589,0.6772,-0.7769,6.104,13.245,9.766,140.696,24.510,-108.962
11910,-0.3398,0.7417,-0.8540,10.803,14.099,10.498,140.795,24.258,-108.951
11920,-0.3437,0.7515,-0.8711,13.794,10.986,9.460,140.911,24.038,-108.957
11930,-0.3691,0.7090,-0.8438,13.672,4.333,6.958,141.026,23.906,-108.984
11940,-0.3999,0.6484,-0.8042,9.705,-3.418,2.808,141.103,23.890,-109.034
11950,-0.4146,0.6035,-0.7490,2.686,-9.827,-1.526,141.108,23.967,-109.089
11960,-0.4224,0.5557,-0.6831,-3.113,-13.550,-4.517,141.053,24.115,-109.138
11970,-0.4316,0.5117,-0.6167,-6.409,-14.404,-5.554,140.960,24.307,-109.193
11980,-0.4380,0.5234,-0.6069,-7.629,-13.245,-4.517,140.845,24.478,-109.248
11990,-0.4395,0.5664,-0.6289,-5.798,-9.277,-1.526,140.740,24.587,-109.297
12000,-0.4409,0.5874,-0.6597,-0.610,-2.258,2.136,140.696,24.609,-109.330
12010,-0.4438,0.5894,-0.7090,5.005,4.883,4.700,140.740,24.554,-109.336
12020,-0.4248,0.5991,-0.7695,6.836,8.606,5.127,140.828,24.450,-109.319
12030,-0.3979,0.6196,-0.8076,4.456,8.362,4.395,140.894,24.324,-109.303
12040,-0.3711,0.6304,-0.8125,0.305,4.944,3.113,140.916,24.225,-109.292
12050,-0.3691,0.6406,-0.7930,-3.296,-0.671,1.404,140.878,24.175,-109.308
12060,-0.3882,0.6646,-0.7637,-5.432,-7.019,-0.244,140.784,24.197,-109.358
12070,-0.4185,0.6553,-0.7129,-4.700,-10.986,-1.648,140.680,24.285,-109.418
12080,-0.4312,0.6255,-0.6655,-2.563,-11.536,-3.418,140.592,24.406,-109.468
12090,-0.4331,0.6064,-0.6426,-1.282,-9.583,-5.005,140.532,24.527,-109.495
12100,-0.4214,0.6074,-0.6436,-1.282,-5.920,-5.005,140.482,24.615,-109.490
12110,-0.4194,0.6108,-0.6416,-0.427,-1.709,-3.479,140.444,24.653,-109.473
12120,-0.4219,0.6045,-0.6396,1.282,1.526,-1.770,140.427,24.664,-109.451
12130,-0.4326,0.5991,-0.6465,3.113,2.747,-0.854,140.438,24.664,-109.424
12140,-0.4429,0.5864,-0.6572,3.174,2.747,-0.793,140.460,24.670,-109.396
12150,-0.4531,0.5698,-0.6650,1.404,2.686,-1.221,140.471,24.681,-109.369
12160,-0.4565,0.5415,-0.6577,-2.258,2.747,-1.831,140.466,24.708,-109.330
12170,-0.4556,0.5166,-0.6479,-6.836,2.014,-2.686,140.422,24.752,-109.297
12180,-0.4468,0.5229,-0.6592,-10.376,1.221,-3.235,140.345,24.796,-109.259
12190,-0.4468,0.5488,-0.6680,-10.803,2.625,-1.831,140.257,24.813,-109.226
12200,-0.4282,0.5718,-0.6724,-6.775,6.836,1.465,140.197,24.763,-109.188
12210,-0.3970,0.5884,-0.6963,-0.061,12.207,5.005,140.213,24.626,-109.144
12220,-0.3657,0.6016,-0.7251,5.310,16.235,7.446,140.284,24.417,-109.094
12230,-0.3599,0.6113,-0.7539,7.080,17.822,8.362,140.383,24.192,-109.039
12240,-0.3652,0.6284,-0.7793,5.615,17.639,8.057,140.471,23.961,-108.984
12250,-0.3696,0.6519,-0.8042,2.625,15.686,7.385,140.521,23.752,-108.940
12260,-0.3784,0.6436,-0.8047,0.488,12.329,6.226,140.548,23.582,-108.907
12270,-0.3882,0.6035,-0.7925,-0.732,8.606,4.761,140.570,23.467,-108.885
12280,-0.3857,0.5859,-0.7729,-3.845,5.005,2.869,140.559,23.390,-108.875
12290,-0.3848,0.5889,-0.7554,-7.690,1.953,1.953,140.493,23.351,-108.880
12300,-0.3804,0.6167,-0.7524,-8.545,-0.793,1.953,140.405,23.324,-108.902
12310,-0.3955,0.6279,-0.7446,-5.005,-3.296,2.686,140.334,23.318,-108.946
12320,-0.4077,0.6357,-0.7163,-0.732,-5.432,3.906,140.279,23.335,-109.017
12330,-0.4121,0.6323,-0.6982,3.479,-5.981,4.150,140.257,23.357,-109.094
12340,-0.4121,0.6196,-0.6963,5.615,-5.615,3.052,140.268,23.384,-109.155
12350,-0.4131,0.6021,-0.7070,5.676,-4.272,1.465,140.301,23.412,-109.199
12360,-0.4009,0.6113,-0.7300,3.723,-3.235,-0.122,140.328,23.434,-109.221
12371,-0.3823,0.6436,-0.7578,1.038,-4.089,-0.854,140.323,23.445,-109.243
12380,-0.3687,0.6753,-0.7705,-0.793,-5.737,-0.916,140.284,23.456,-109.276
12390,-0.3584,0.6934,-0.7612,-1.038,-6.958,-1.099,140.235,23.478,-109.314
12400,-0.3545,0.7119,-0.7563,0.366,-7.507,-1.831,140.186,23.500,-109.352
12410,-0.3657,0.6987,-0.7471,4.028,-7.385,-2.930,140.186,23.533,-109.374
12420,-0.4019,0.6274,-0.7056,6.897,-7.996,-4.517,140.229,23.621,-109.396
12430,-0.4487,0.5483,-0.6436,6.226,-10.742,-6.958,140.273,23.791,-109.413
12440,-0.4756,0.4795,-0.5977,1.892,-14.038,-9.583,140.295,24.038,-109.429
12450,-0.4902,0.4487,-0.5752,-5.981,-14.954,-11.230,140.251,24.318,-109.440
12460,-0.4858,0.4863,-0.5830,-13.550,-11.475,-10.132,140.120,24.554,-109.435
12470,-0.4609,0.5972,-0.6260,-15.198,-3.845,-5.798,139.938,24.653,-109.413
12480,-0.4365,0.6807,-0.6719,-6.775,7.568,0.183,139.839,24.598,-109.358
12490,-0.4097,0.7261,-0.7095,6.348,18.005,5.188,139.883,24.401,-109.276
12500,-0.3726,0.7700,-0.7476,15.991,23.865,8.240,140.026,24.115,-109.177
12510,-0.3813,0.7192,-0.7759,23.804,23.315,7.324,140.273,23.846,-109.072
12520,-0.3965,0.6597,-0.7798,24.475,17.151,3.357,140.548,23.670,-108.984
12530,-0.3955,0.6206,-0.7705,16.846,7.080,-2.502,140.746,23.615,-108.913
12540,-0.4028,0.6030,-0.7490,4.700,-2.380,-8.118,140.817,23.676,-108.858
12550,-0.4175,0.6030,-0.7192,-4.700,-7.935,-11.963,140.784,23.813,-108.814
12560,-0.4126,0.6475,-0.7134,-6.592,-8.118,-12.756,140.707,23.950,-108.759
12570,-0.3955,0.6768,-0.7158,-0.610,-3.906,-10.803,140.685,24.027,-108.699
12580,-0.3633,0.6738,-0.7139,9.216,1.831,-8.240,140.773,24.027,-108.616
12590,-0.3496,0.6338,-0.7227,18.005,6.714,-7.080,140.971,23.978,-108.506
12600,-0.3564,0.5835,-0.7446,21.301,8.606,-8.057,141.246,23.928,-108.380
12610,-0.3716,0.5229,-0.7490,17.090,6.042,-10.437,141.504,23.928,-108.248
12620,-0.3945,0.4604,-0.7212,7.263,0.427,-12.817,141.680,24.011,-108.138
12630,-0.4077,0.4229,-0.7124,-4.333,-5.493,-14.709,141.751,24.170,-108.051
12640,-0.4243,0.4102,-0.7109,-13.672,-8.972,-14.587,141.724,24.357,-107.985
12650,-0.4341,0.4497,-0.7163,-18.433,-8.545,-11.780,141.619,24.527,-107.941
12660,-0.4321,0.5405,-0.7495,-16.174,-3.052,-6.653,141.498,24.593,-107.902
12670,-0.4199,0.6123,-0.7773,-6.226,4.883,0.244,141.454,24.538,-107.875
12680,-0.4033,0.6328,-0.7964,7.141,10.620,5.920,141.537,24.395,-107.853
12690,-0.3970,0.6392,-0.8105,15.930,10.925,7.629,141.696,24.225,-107.842
12700,-0.3975,0.5937,-0.7964,19.287,7.019,6.287,141.905,24.109,-107.847
12710,-0.4058,0.5410,-0.7734,16.052,1.648,2.930,142.086,24.071,-107.864
12720,-0.4229,0.5283,-0.7515,7.141,-3.784,-1.160,142.180,24.115,-107.875
12730,-0.4316,0.5312,-0.7290,-3.784,-7.996,-3.662,142.152,24.214,-107.897
12740,-0.4385,0.5693,-0.7178,-11.841,-8.606,-4.028,142.020,24.318,-107.924
12750,-0.4395,0.6489,-0.7168,-13.123,-5.981,-2.808,141.839,24.384,-107.941
12760,-0.4248,0.7104,-0.7300,-5.859,-2.197,-0.549,141.718,24.384,-107.946
12770,-0.4097,0.6958,-0.7256,6.348,0.183,0.977,141.724,24.357,-107.957
12780,-0.4067,0.6045,-0.6885,15.137,-0.854,-0.366,141.839,24.362,-107.957
12790,-0.4219,0.4595,-0.6162,13.794,-5.615,-4.150,141.993,24.478,-107.963
12800,-0.4492,0.3530,-0.5654,1.465,-11.780,-7.812,142.059,24.708,-107.974
12810,-0.4780,0.3223,-0.5479,-14.648,-15.564,-9.827,141.982,25.016,-107.990
12820,-0.4536,0.4761,-0.6328,-27.710,-11.292,-7.446,141.713,25.197,-108.007
12830,-0.4023,0.7324,-0.7754,-29.114,4.150,-0.183,141.389,25.120,-107.974
12840,-0.3589,0.9053,-0.8896,-12.634,24.475,9.094,141.229,24.780,-107.886
12850,-0.2979,1.0454,-1.0073,8.606,42.236,14.587,141.312,24.230,-107.721
12860,-0.2817,0.9766,-0.9971,29.480,49.988,12.634,141.641,23.637,-107.485
12871,-0.3516,0.6577,-0.8208,39.978,38.757,2.563,142.130,23.269,-107.243
12880,-0.4307,0.3267,-0.6270,29.541,10.071,-12.756,142.597,23.351,-107.067
12890,-0.5073,0.1548,-0.4961,0.916,-24.292,-26.062,142.828,23.906,-107.001
12900,-0.5547,0.1084,-0.4307,-28.809,-54.443,-32.410,142.745,24.807,-107.078
12910,-0.5659,0.2246,-0.4253,-46.143,-65.735,-28.015,142.300,25.741,-107.271
12920,-0.5410,0.4507,-0.5366,-43.152,-49.316,-12.878,141.757,26.323,-107.496
12930,-0.4727,0.6660,-0.6963,-21.667,-12.268,6.226,141.427,26.378,-107.633
12940,-0.3896,0.7827,-0.8105,5.554,29.053,23.376,141.427,25.939,-107.633
12950,-0.3057,0.8677,-0.9053,31.372,57.495,30.762,141.740,25.181,-107.501
12960,-0.2637,0.8379,-0.9624,50.842,62.317,27.283,142.295,24.390,-107.314
12970,-0.2627,0.7324,-0.9863,53.711,47.546,17.334,142.910,23.791,-107.144
12980,-0.2886,0.6626,-0.9854,38.086,19.592,6.104,143.344,23.500,-107.067
12990,-0.3442,0.6299,-0.9375,12.573,-11.658,-5.371,143.487,23.560,-107.100
13000,-0.4023,0.5913,-0.8398,-9.644,-36.865,-15.259,143.366,23.917,-107.205
13010,-0.4507,0.5762,-0.7202,-23.560,-49.622,-20.752,143.053,24.456,-107.347
13020,-0.4795,0.5625,-0.6387,-25.085,-48.950,-21.118,142.707,25.021,-107.485
13030,-0.4834,0.5488,-0.6045,-16.479,-38.757,-17.761,142.449,25.488,-107.584
13040,-0.4751,0.5137,-0.5996,-2.808,-23.560,-12.634,142.372,25.807,-107.633
13050,-0.4678,0.4653,-0.5908,8.362,-7.812,-6.531,142.449,25.966,-107.628
13060,-0.4653,0.4419,-0.5835,14.343,3.601,-0.977,142.608,26.010,-107.595
13070,-0.4731,0.3916,-0.5605,15.808,9.827,2.380,142.811,26.005,-107.551
13080,-0.4727,0.3843,-0.5601,9.338,8.911,2.747,142.943,26.005,-107.518
13090,-0.4702,0.4321,-0.5801,-1.709,6.775,2.930,142.938,26.005,-107.496
13100,-0.4727,0.5015,-0.6030,-11.169,6.104,4.028,142.806,25.983,-107.490
13110,-0.4531,0.6089,-0.6533,-14.099,9.155,6.165,142.608,25.884,-107.485
13120,-0.4009,0.7500,-0.7871,-7.751,16.052,8.423,142.487,25.648,-107.452
13130,-0.3550,0.8208,-0.8901,4.150,23.499,10.071,142.504,25.312,-107.380
13140,-0.3403,0.7974,-0.9204,14.465,27.710,9.338,142.657,24.939,-107.276
13150,-0.3452,0.7144,-0.9131,19.836,25.269,4.822,142.899,24.631,-107.150
13160,-0.3657,0.6348,-0.8882,16.785,16.541,-1.221,143.130,24.445,-107.029
13170,-0.3770,0.5728,-0.8481,7.996,4.150,-6.531,143.273,24.412,-106.946
13180,-0.3882,0.5156,-0.7925,0.061,-6.775,-9.949,143.328,24.500,-106.902
13190,-0.4106,0.4624,-0.7358,-5.188,-12.939,-11.902,143.333,24.681,-106.880
13200,-0.4351,0.4395,-0.6860,-7.019,-14.526,-12.024,143.306,24.901,-106.870
13210,-0.4502,0.4458,-0.6616,-6.042,-12.085,-9.460,143.278,25.098,-106.864
13220,-0.4604,0.4561,-0.6558,-1.831,-6.531,-4.456,143.273,25.225,-106.870
13230,-0.4604,0.4551,-0.6694,4.272,0.671,1.404,143.339,25.258,-106.875
13240,-0.4375,0.4795,-0.7168,8.423,7.141,6.287,143.448,25.181,-106.886
13250,-0.4067,0.5376,-0.7773,9.094,11.047,9.033,143.553,25.021,-106.891
13260,-0.3906,0.5840,-0.8213,6.714,12.146,9.827,143.630,24.829,-106.902
13270,-0.3892,0.6162,-0.8325,2.991,10.315,8.789,143.652,24.648,-106.913
13280,-0.3999,0.6191,-0.8096,-0.854,5.554,5.920,143.624,24.538,-106.930
13290,-0.4160,0.6025,-0.7671,-4.578,-1.221,2.197,143.553,24.521,-106.957
13300,-0.4326,0.5820,-0.7183,-7.141,-7.874,-1.160,143.437,24.598,-106.996
13310,-0.4419,0.5767,-0.6719,-7.019,-11.536,-2.625,143.306,24.725,-107.051
13320,-0.4512,0.5527,-0.6392,-3.052,-11.841,-2.014,143.207,24.862,-107.111
13330,-0.4502,0.5327,-0.6284,1.648,-8.911,-0.488,143.168,24.972,-107.166
13340,-0.4399,0.5288,-0.6401,4.639,-3.723,1.221,143.174,25.027,-107.199
13350,-0.4375,0.5269,-0.6577,5.676,1.892,2.808,143.201,25.021,-107.210
13360,-0.4370,0.5376,-0.6743,4.211,6.409,4.028,143.229,24.961,-107.205
13371,-0.4297,0.5713,-0.6987,1.221,9.033,4.761,143.223,24.868,-107.188
13380,-0.4272,0.6016,-0.7266,0.366,10.681,5.005,143.212,24.747,-107.161
13390,-0.4229,0.6167,-0.7617,1.648,11.902,4.700,143.223,24.615,-107.122
13400,-0.4072,0.6372,-0.7983,2.869,12.817,3.174,143.256,24.461,-107.067
13410,-0.3892,0.6382,-0.8169,3.113,12.756,0.793,143.306,24.318,-106.990
13420,-0.3833,0.6260,-0.8135,2.319,10.742,-1.770,143.355,24.203,-106.902
13430,-0.3794,0.6167,-0.8071,0.671,6.531,-3.845,143.383,24.137,-106.826
13440,-0.3838,0.6011,-0.7949,-0.793,2.075,-5.249,143.394,24.120,-106.771
13450,-0.3916,0.5845,-0.7744,-2.014,-0.671,-6.104,143.388,24.142,-106.721
13460,-0.3950,0.5708,-0.7656,-1.953,-1.648,-6.409,143.388,24.175,-106.672
13470,-0.3994,0.5435,-0.7490,-0.549,-1.648,-6.165,143.410,24.219,-106.628
13480,-0.4102,0.5190,-0.7402,0.916,-1.465,-5.188,143.448,24.263,-106.595
13490,-0.4033,0.5073,-0.7354,1.953,-1.648,-3.723,143.492,24.296,-106.573
13500,-0.4043,0.5010,-0.7349,3.052,-2.625,-2.258,143.547,24.335,-106.567
13510,-0.4111,0.5054,-0.7397,3.418,-2.319,-0.549,143.597,24.357,-106.578
13521,-0.3975,0.5679,-0.7700,2.869,-0.549,1.099,143.624,24.340,-106.595
13530,-0.3711,0.6421,-0.8066,2.869,3.174,2.686,143.630,24.252,-106.595
13540,-0.3569,0.6782,-0.8369,5.371,7.446,3.235,143.663,24.115,-106.573
13550,-0.3198,0.7539,-0.9268,7.080,10.376,1.526,143.729,23.934,-106.523
13560,-0.3022,0.7593,-0.9624,8.179,11.047,-1.526,143.822,23.752,-106.436
13570,-0.3403,0.6089,-0.8628,8.606,5.310,-6.348,143.954,23.687,-106.348
13580,-0.4370,0.3271,-0.6602,3.174,-9.521,-13.672,144.102,23.912,-106.287
13590,-0.5249,0.0850,-0.4653,-12.756,-30.701,-21.301,144.229,24.521,-106.293
13600,-0.5698,0.0190,-0.3516,-36.072,-48.096,-23.987,144.163,25.384,-106.392
13611,-0.5645,0.2568,-0.4155,-53.467,-48.218,-16.968,143.602,26.109,-106.551
13621,-0.5054,0.6440,-0.6553,-44.922,-22.827,1.099,143.009,26.312,-106.710
13630,-0.3979,0.9385,-0.9224,-12.268,19.043,22.156,142.773,25.933,-106.782
13640,-0.2617,1.1528,-1.1094,25.452,58.228,36.804,143.053,25.247,-106.716
13650,-0.1831,1.0874,-1.1533,64.636,73.792,37.231,143.767,24.434,-106.551
13660,-0.1787,0.8315,-1.0928,84.717,62.195,24.841,144.695,23.785,-106.370
13670,-0.2412,0.5664,-0.9966,71.960,27.222,6.714,145.459,23.527,-106.260
13680,-0.3462,0.4199,-0.8677,32.898,-20.386,-10.986,145.778,23.758,-106.287
13690,-0.4541,0.3413,-0.7178,-4.639,-60.364,-24.475,145.668,24.390,-106.436
13700,-0.5249,0.3096,-0.5796,-32.104,-80.627,-30.457,145.256,25.230,-106.661
13710,-0.5625,0.3286,-0.4648,-46.570,-81.177,-29.297,144.684,26.065,-106.902
13720,-0.5811,0.3433,-0.3965,-41.931,-61.523,-21.179,144.179,26.686,-107.106
13730,-0.5659,0.3564,-0.4028,-24.902,-29.724,-8.789,143.877,26.982,-107.221
13740,-0.5332,0.3853,-0.4805,-6.348,0.793,4.578,143.795,26.949,-107.260
13750,-0.4937,0.4512,-0.5845,10.864,23.071,15.137,143.910,26.669,-107.243
13760,-0.4702,0.4980,-0.6919,20.874,35.583,21.729,144.135,26.257,-107.205
13770,-0.4341,0.5542,-0.7837,18.799,36.682,23.376,144.338,25.823,-107.177
13780,-0.3955,0.6250,-0.8555,11.597,30.273,20.630,144.459,25.455,-107.166
13790,-0.3804,0.6846,-0.8945,3.906,19.104,15.320,144.492,25.214,-107.183
13800,-0.3794,0.7402,-0.9019,-4.761,7.202,8.972,144.426,25.098,-107.216
13810,-0.3760,0.7617,-0.8813,-10.193,-2.380,2.625,144.311,25.104,-107.254
13820,-0.3857,0.7173,-0.8286,-10.864,-9.277,-2.930,144.190,25.197,-107.287
13830,-0.4023,0.6304,-0.7632,-9.033,-13.245,-7.324,144.091,25.345,-107.309
13840,-0.4102,0.5391,-0.7173,-7.629,-14.709,-10.132,144.009,25.527,-107.314
13850,-0.4092,0.4678,-0.6841,-8.850,-13.733,-10.437,143.926,25.697,-107.309
13860,-0.4097,0.4351,-0.6719,-12.207,-9.216,-8.484,143.811,25.823,-107.292
13871,-0.4009,0.4697,-0.6880,-13.977,-2.380,-5.310,143.685,25.873,-107.260
13880,-0.4048,0.5146,-0.7114,-10.803,4.333,-0.610,143.591,25.840,-107.227
13890,-0.4160,0.5420,-0.7363,-2.930,9.705,4.944,143.569,25.735,-107.205
13900,-0.4287,0.5366,-0.7397,4.822,12.512,9.338,143.619,25.576,-107.210
13910,-0.4355,0.5044,-0.7466,10.315,10.986,10.864,143.707,25.428,-107.232
13920,-0.4180,0.5176,-0.7686,10.193,7.080,10.803,143.789,25.307,-107.281
13930,-0.4077,0.5308,-0.7847,7.263,2.991,10.864,143.828,25.214,-107.358
13940,-0.3818,0.5898,-0.8291,2.075,1.648,11.047,143.811,25.137,-107.446
13950,-0.3574,0.6621,-0.8745,-2.808,2.686,11.230,143.751,25.049,-107.529
13960,-0.3491,0.6885,-0.8638,-7.507,3.601,10.925,143.641,24.955,-107.606
13970,-0.3613,0.6694,-0.8242,-11.841,1.038,9.460,143.492,24.890,-107.682
13980,-0.3872,0.6572,-0.7808,-16.235,-4.944,7.080,143.289,24.890,-107.776
13990,-0.4019,0.6328,-0.7397,-19.165,-10.559,4.456,143.053,24.950,-107.886
14000,-0.4092,0.5815,-0.6963,-19.287,-14.038,2.380,142.811,25.043,-108.001
14010,-0.4263,0.5298,-0.6533,-16.602,-15.015,0.732,142.603,25.159,-108.105
14020,-0.4473,0.4902,-0.6211,-12.573,-12.634,0.305,142.438,25.258,-108.193
14030,-0.4673,0.4746,-0.6045,-7.568,-6.958,1.831,142.333,25.302,-108.254
14040,-0.4839,0.4902,-0.5952,-2.319,0.854,5.249,142.295,25.263,-108.298
14050,-0.4917,0.5210,-0.5957,2.808,9.338,9.460,142.311,25.131,-108.314
14060,-0.4854,0.5469,-0.6084,7.812,15.930,12.451,142.394,24.928,-108.320
14070,-0.4604,0.5898,-0.6558,10.803,19.958,13.672,142.504,24.686,-108.303
14080,-0.4365,0.6265,-0.7114,11.353,21.912,13.428,142.630,24.434,-108.276
14090,-0.4204,0.6553,-0.7642,9.277,21.301,11.292,142.740,24.197,-108.232
14100,-0.4180,0.6689,-0.7876,5.249,18.372,7.874,142.817,24.000,-108.177
14110,-0.4058,0.6616,-0.7798,0.549,13.855,3.479,142.844,23.868,-108.116
14120,-0.4189,0.6421,-0.7661,-3.784,8.911,-1.587,142.839,23.807,-108.045
14130,-0.4185,0.6255,-0.7329,-7.690,4.944,-5.798,142.795,23.802,-107.957
14140,-0.3994,0.6021,-0.6948,-9.277,1.953,-7.996,142.734,23.835,-107.875
14151,-0.4058,0.5796,-0.6782,-7.202,0.122,-8.301,142.663,23.890,-107.803
14161,-0.4243,0.5674,-0.6841,-2.808,0.244,-7.202,142.635,23.950,-107.737
14171,-0.4233,0.5557,-0.7026,2.502,3.296,-5.249,142.679,23.967,-107.672
14181,-0.3872,0.5474,-0.7300,6.104,8.301,-2.869,142.773,23.912,-107.595
14191,-0.3535,0.5415,-0.7583,7.141,12.146,-1.343,142.899,23.791,-107.501
14201,-0.3423,0.5425,-0.7793,5.493,13.672,-0.671,143.015,23.648,-107.402
14211,-0.3394,0.5449,-0.7993,2.319,12.939,-0.366,143.102,23.505,-107.314
14221,-0.3452,0.5586,-0.8159,-0.366,11.230,-0.183,143.152,23.373,-107.243
14231,-0.3423,0.5688,-0.8213,-1.404,8.911,0.000,143.179,23.258,-107.183
14241,-0.3345,0.5654,-0.8193,-0.916,6.775,0.061,143.212,23.159,-107.139
14251,-0.3369,0.5615,-0.8223,0.427,4.395,0.000,143.251,23.077,-107.111
14261,-0.3384,0.5635,-0.8311,2.075,2.258,0.183,143.306,23.016,-107.095
14271,-0.3320,0.5640,-0.8345,2.747,0.000,0.488,143.355,22.967,-107.100
14281,-0.3169,0.5757,-0.8320,2.930,-2.686,0.610,143.394,22.928,-107.122
14291,-0.3105,0.5815,-0.8262,3.052,-6.348,0.183,143.421,22.917,-107.166
14301,-0.3291,0.5791,-0.8242,3.723,-9.766,-0.244,143.454,22.950,-107.227
14311,-0.3540,0.5776,-0.8223,3.235,-12.573,-0.244,143.465,23.016,-107.309
14321,-0.3818,0.5864,-0.7988,2.136,-13.794,0.061,143.454,23.104,-107.397
14331,-0.4058,0.5845,-0.7734,2.136,-12.756,0.916,143.437,23.198,-107.485
14341,-0.4224,0.5767,-0.7368,3.113,-11.719,1.953,143.416,23.291,-107.578
14351,-0.4307,0.5688,-0.7002,3.601,-11.841,2.686,143.388,23.390,-107.682
14361,-0.4380,0.5630,-0.6758,2.991,-12.573,2.869,143.344,23.505,-107.787
14371,-0.4482,0.5571,-0.6582,1.831,-12.024,2.502,143.284,23.626,-107.886
14381,-0.4482,0.5762,-0.6621,0.549,-9.399,2.197,143.218,23.719,-107.968
14391,-0.4414,0.6025,-0.6792,-0.488,-5.371,2.014,143.141,23.774,-108.023
14401,-0.4458,0.6245,-0.6870,-0.671,-1.465,1.831,143.069,23.791,-108.045
14411,-0.4438,0.6270,-0.6743,-0.427,0.732,1.038,143.004,23.802,-108.051
14421,-0.4429,0.6094,-0.6489,-1.038,-0.305,-0.671,142.938,23.835,-108.045
14431,-0.4399,0.6045,-0.6494,-1.892,-2.014,-2.258,142.861,23.890,-108.040
14441,-0.4399,0.5703,-0.6509,-1.587,-1.709,-2.930,142.811,23.950,-108.029
14451,-0.4141,0.5630,-0.6631,-1.587,0.427,-3.174,142.773,23.978,-107.996
14461,-0.3823,0.5835,-0.7007,-1.343,4.578,-2.686,142.756,23.950,-107.941
14471,-0.3765,0.6040,-0.7324,-0.488,9.338,-1.648,142.762,23.862,-107.864
14481,-0.3643,0.7012,-0.7856,-0.366,13.489,-0.732,142.751,23.714,-107.770
14491,-0.3638,0.7817,-0.8413,3.723,16.479,0.122,142.773,23.522,-107.661
14501,-0.3667,0.7593,-0.8486,11.597,17.273,-1.343,142.894,23.335,-107.534
14511,-0.3477,0.7017,-0.8101,15.198,13.855,-6.042,143.058,23.209,-107.391
14521,-0.3535,0.5771,-0.7300,14.099,5.798,-12.024,143.240,23.209,-107.249
14531,-0.3911,0.4062,-0.6567,7.629,-4.822,-19.043,143.421,23.395,-107.117
14541,-0.4395,0.3091,-0.6147,-4.639,-14.343,-23.499,143.514,23.741,-107.001
14551,-0.4644,0.3047,-0.6030,-17.578,-18.311,-21.851,143.470,24.126,-106.930
14561,-0.4536,0.4072,-0.6538,-23.376,-12.817,-14.038,143.300,24.373,-106.891
14571,-0.4229,0.5742,-0.7510,-17.273,1.099,-2.014,143.130,24.373,-106.864
14581,-0.3843,0.7251,-0.8604,0.305,17.944,9.827,143.113,24.115,-106.831
14591,-0.3511,0.7900,-0.9282,21.057,29.907,16.052,143.311,23.703,-106.776
14601,-0.3315,0.7324,-0.9194,37.720,28.748,14.771,143.690,23.307,-106.721
14611,-0.3384,0.5903,-0.8682,42.114,14.893,7.263,144.141,23.093,-106.688
14621,-0.3647,0.5146,-0.8242,29.907,-4.639,-3.357,144.476,23.126,-106.688
14631,-0.4053,0.4683,-0.7749,10.254,-21.606,-12.756,144.613,23.384,-106.710
14641,-0.4434,0.3945,-0.7139,-7.507,-30.640,-17.944,144.586,23.785,-106.743
14651,-0.4570,0.3774,-0.6724,-22.095,-28.992,-19.653,144.426,24.197,-106.754
14661,-0.4663,0.4258,-0.6455,-32.166,-19.470,-16.907,144.141,24.521,-106.727
14671,-0.4556,0.4663,-0.6230,-33.081,-6.897,-10.803,143.822,24.697,-106.677
14681,-0.4390,0.5195,-0.6313,-26.123,3.723,-2.808,143.553,24.719,-106.628
14691,-0.4087,0.5503,-0.6714,-15.137,9.766,3.784,143.388,24.626,-106.595
14701,-0.3853,0.5596,-0.7329,-2.563,11.353,7.568,143.355,24.472,-106.589
14711,-0.3701,0.5591,-0.7905,5.615,11.047,9.460,143.421,24.291,-106.600
14721,-0.3384,0.5708,-0.8496,7.385,9.399,10.376,143.509,24.099,-106.628
14731,-0.3301,0.6177,-0.9023,4.211,7.568,10.071,143.558,23.906,-106.666
14741,-0.3091,0.6421,-0.9106,-0.244,7.751,8.362,143.558,23.708,-106.694
14751,-0.3457,0.6777,-0.8838,-5.554,6.470,4.761,143.492,23.566,-106.694
14761,-0.3716,0.7012,-0.8398,-8.789,2.869,0.977,143.377,23.489,-106.683
14771,-0.3970,0.6768,-0.7988,-7.690,-1.709,-2.502,143.267,23.489,-106.672
14781,-0.4092,0.6011,-0.7456,-6.958,-7.202,-5.310,143.179,23.577,-106.672
14791,-0.4214,0.5288,-0.6943,-8.362,-12.817,-7.202,143.080,23.741,-106.694
14801,-0.4395,0.4873,-0.6602,-10.376,-15.564,-7.324,142.971,23.950,-106.732
14811,-0.4585,0.4922,-0.6382,-13.550,-13.794,-5.310,142.811,24.148,-106.776
14821,-0.4639,0.5190,-0.6240,-14.404,-9.766,-2.319,142.625,24.296,-106.820
14831,-0.4512,0.5845,-0.6504,-9.949,-4.272,0.977,142.465,24.357,-106.859
14841,-0.4272,0.6265,-0.6875,-0.977,2.625,3.784,142.399,24.313,-106.870
14851,-0.4150,0.6172,-0.7134,8.606,7.874,4.700,142.460,24.219,-106.859
14861,-0.4077,0.6001,-0.7456,13.000,9.949,3.540,142.586,24.109,-106.826
14871,-0.4019,0.5972,-0.7686,10.864,8.545,1.953,142.707,24.011,-106.782
14881,-0.4033,0.5796,-0.7666,6.775,5.371,0.671,142.789,23.950,-106.754
14891,-0.4097,0.5474,-0.7417,2.380,1.526,-0.610,142.828,23.945,-106.738
14901,-0.4175,0.5347,-0.7251,-1.770,-2.014,-1.587,142.817,23.978,-106.738
14911,-0.4160,0.5693,-0.7373,-4.395,-2.319,-0.977,142.767,24.005,-106.743
14921,-0.4131,0.5796,-0.7334,-1.831,0.122,1.343,142.729,23.994,-106.754
14931,-0.4014,0.5825,-0.7295,2.869,2.991,2.869,142.745,23.945,-106.760
14941,-0.3906,0.5688,-0.7402,7.080,3.906,3.174,142.811,23.884,-106.765
14951,-0.3779,0.5513,-0.7578,7.996,3.784,3.113,142.899,23.818,-106.765
14961,-0.3750,0.5410,-0.7622,5.859,2.991,2.502,142.976,23.758,-106.765
14971,-0.3794,0.5552,-0.7632,2.197,1.526,1.831,143.004,23.714,-106.771
14981,-0.3896,0.5649,-0.7671,0.183,0.610,1.587,143.009,23.687,-106.782
14991,-0.3970,0.5723,-0.7563,-0.427,0.183,1.709,142.998,23.665,-106.798
15001,-0.4077,0.5669,-0.7485,-0.549,-0.061,1.648,142.987,23.654,-106.809
15011,-0.4204,0.5620,-0.7417,-1.038,-0.366,1.465,142.965,23.654,-106.826
15021,-0.4277,0.5547,-0.7388,-1.831,-0.671,1.343,142.943,23.665,-106.842
15031,-0.4204,0.5498,-0.7446,-2.625,-1.343,1.221,142.916,23.676,-106.864
15041,-0.3994,0.5630,-0.7607,-3.052,-1.160,1.648,142.883,23.665,-106.886
15051,-0.3701,0.6025,-0.7974,-1.343,-0.488,2.563,142.861,23.621,-106.908
15061,-0.3379,0.6509,-0.8398,0.977,0.366,3.113,142.855,23.538,-106.935
15071,-0.3193,0.6719,-0.8594,3.601,-0.366,2.625,142.872,23.456,-106.957
15081,-0.3169,0.6772,-0.8677,3.906,-3.357,0.244,142.894,23.406,-106.985
15091,-0.3315,0.6719,-0.8545,0.488,-8.301,-3.479,142.877,23.428,-107.007
15101,-0.3608,0.6602,-0.8149,-5.188,-13.916,-6.958,142.795,23.538,-107.040
15111,-0.4014,0.6255,-0.7554,-9.949,-18.799,-9.460,142.652,23.730,-107.078
15121,-0.4409,0.5991,-0.7017,-12.268,-21.545,-11.108,142.482,23.983,-107.128
15131,-0.4751,0.5537,-0.6475,-11.658,-21.790,-11.780,142.322,24.274,-107.172
15141,-0.4912,0.4883,-0.5981,-9.460,-20.203,-12.085,142.196,24.587,-107.199
15151,-0.4912,0.4434,-0.5688,-7.690,-17.456,-11.292,142.114,24.890,-107.221
15161,-0.4824,0.4189,-0.5552,-6.287,-13.489,-8.057,142.048,25.142,-107.243
15171,-0.4644,0.4150,-0.5581,-3.784,-7.568,-3.052,142.015,25.307,-107.265
15181,-0.4448,0.4380,-0.5620,-0.427,-0.183,2.930,141.998,25.356,-107.292
15191,-0.4419,0.4736,-0.5864,4.272,7.690,9.094,142.020,25.291,-107.320
15201,-0.4443,0.5337,-0.6382,9.949,15.564,14.404,142.092,25.115,-107.342
15211,-0.4390,0.5967,-0.7124,15.991,22.461,18.005,142.229,24.829,-107.342
15221,-0.4092,0.6455,-0.8032,20.264,27.283,18.860,142.427,24.472,-107.325
15231,-0.3687,0.7002,-0.8960,20.386,28.320,16.724,142.641,24.082,-107.281
15241,-0.3169,0.7837,-0.9854,16.602,25.024,12.451,142.817,23.708,-107.221
15251,-0.2793,0.8247,-1.0229,11.902,17.944,6.714,142.943,23.412,-107.161
15261,-0.2798,0.7881,-0.9829,7.202,6.775,-0.916,143.020,23.253,-107.111
15271,-0.3110,0.7637,-0.9219,0.610,-5.676,-8.728,143.015,23.264,-107.073
15281,-0.3735,0.6851,-0.8271,-5.249,-16.846,-15.442,142.943,23.450,-107.045
15291,-0.4385,0.5796,-0.7197,-10.071,-24.963,-20.386,142.833,23.785,-107.034
15301,-0.4746,0.4878,-0.6323,-12.451,-28.442,-23.315,142.712,24.219,-107.018
15311,-0.5039,0.3936,-0.5586,-12.756,-26.672,-23.071,142.614,24.692,-106.996
15321,-0.5220,0.3120,-0.4937,-12.146,-22.400,-19.897,142.553,25.159,-106.968
15331,-0.5239,0.2871,-0.4619,-10.498,-16.479,-13.855,142.515,25.560,-106.957
15341,-0.5132,0.3037,-0.4644,-5.432,-8.179,-4.700,142.498,25.823,-106.974
15351,-0.4961,0.3330,-0.5039,3.113,3.113,6.104,142.553,25.900,-107.007
15361,-0.4482,0.4326,-0.6069,10.681,16.357,16.357,142.663,25.724,-107.040
15371,-0.3950,0.5547,-0.7373,16.663,29.602,23.499,142.828,25.323,-107.045
15381,-0.3501,0.6982,-0.8892,19.714,38.269,26.611,143.026,24.780,-107.029
15391,-0.2935,0.8604,-1.0518,19.470,40.283,24.536,143.212,24.192,-106.974
15401,-0.2617,0.9121,-1.1201,18.372,34.729,17.456,143.405,23.670,-106.902
15411,-0.2646,0.8706,-1.0962,14.160,21.240,5.859,143.558,23.340,-106.815
15421,-0.2935,0.7661,-1.0015,4.700,1.465,-7.507,143.624,23.269,-106.738
15431,-0.3560,0.6182,-0.8433,-7.935,-21.790,-19.958,143.558,23.516,-106.705
15441,-0.4160,0.5405,-0.7090,-20.813,-41.809,-28.015,143.339,24.027,-106.727
15451,-0.4443,0.5381,-0.6533,-25.635,-50.354,-28.442,143.020,24.631,-106.809
15461,-0.4658,0.4966,-0.6074,-17.944,-44.373,-23.315,142.784,25.181,-106.897
15471,-0.4849,0.3882,-0.5464,-5.005,-28.687,-16.357,142.734,25.615,-106.946
15481,-0.4927,0.3130,-0.5142,3.113,-12.268,-9.033,142.822,25.900,-106.946
15491,-0.4917,0.2954,-0.5220,6.592,0.366,-1.831,142.971,26.043,-106.930
15501,-0.4692,0.3608,-0.5762,6.836,8.362,5.188,143.097,26.032,-106.919
15511,-0.4512,0.4541,-0.6484,7.263,13.977,11.780,143.179,25.889,-106.930
15521,-0.4385,0.5483,-0.7129,8.484,17.517,16.663,143.245,25.653,-106.963
15531,-0.4150,0.6172,-0.7725,11.475,19.653,18.555,143.322,25.356,-106.996
15541,-0.3892,0.6602,-0.8306,14.038,20.081,17.639,143.432,25.043,-107.018
15551,-0.3779,0.6743,-0.8613,13.611,17.578,14.038,143.553,24.758,-107.029
15561,-0.3843,0.6704,-0.8672,8.972,11.902,8.911,143.624,24.560,-107.029
15571,-0.3926,0.6538,-0.8496,1.648,4.150,3.479,143.630,24.461,-107.034
15581,-0.3926,0.6235,-0.7939,-5.554,-2.686,-0.732,143.553,24.456,-107.045
15591,-0.3872,0.5879,-0.7329,-9.583,-6.958,-3.479,143.427,24.510,-107.062
15601,-0.3955,0.5703,-0.6919,-9.888,-9.033,-4.272,143.289,24.598,-107.084
15611,-0.4185,0.5610,-0.6729,-6.836,-7.874,-3.052,143.185,24.686,-107.106
15621,-0.4365,0.5400,-0.6675,-1.160,-2.930,-1.099,143.146,24.741,-107.117
15631,-0.4326,0.5303,-0.6836,3.784,3.235,0.916,143.179,24.730,-107.100
15641,-0.4336,0.5166,-0.7100,6.714,8.728,2.563,143.267,24.659,-107.067
15651,-0.4341,0.5044,-0.7378,6.531,13.428,3.113,143.383,24.549,-107.007
15661,-0.4248,0.4956,-0.7476,4.150,15.808,2.014,143.487,24.417,-106.919
15671,-0.3926,0.5161,-0.7651,1.343,16.174,-0.793,143.575,24.280,-106.809
15681,-0.3608,0.5430,-0.7754,1.587,15.625,-5.005,143.663,24.148,-106.661
15691,-0.3794,0.5889,-0.7959,2.075,17.090,-11.536,143.767,24.049,-106.447
15701,-0.4468,0.6128,-0.7896,-1.282,16.846,-16.113,143.839,24.011,-106.199
15711,-0.3994,0.5977,-0.7695,-4.028,16.785,-15.869,143.882,23.950,-105.947
15721,-0.4199,0.5317,-0.7046,-4.272,16.968,-13.855,143.926,23.912,-105.716
15731,-0.4365,0.4238,-0.6411,-4.517,17.700,-11.780,143.992,23.895,-105.502
15741,-0.4468,0.3618,-0.6060,-7.690,16.174,-8.301,144.042,23.901,-105.320
15751,-0.4355,0.4072,-0.6196,-12.024,15.564,-2.808,143.998,23.857,-105.200
15761,-0.3906,0.5591,-0.7246,-9.705,18.799,3.601,143.921,23.676,-105.106
15771,-0.3145,0.7485,-0.8804,1.343,26.672,8.911,143.926,23.329,-105.013
15781,-0.2720,0.8467,-0.9922,16.724,34.180,11.169,144.097,22.874,-104.892
15791,-0.2676,0.8408,-1.0298,26.245,34.363,8.118,144.382,22.434,-104.749
15801,-0.2827,0.7930,-1.0249,23.010,23.682,0.549,144.641,22.137,-104.601
15811,-0.3276,0.7080,-0.9580,10.376,4.700,-8.728,144.772,22.083,-104.496
15821,-0.3735,0.6035,-0.8452,-5.920,-16.602,-16.174,144.728,22.286,-104.458
15831,-0.4048,0.5137,-0.7192,-19.348,-34.851,-20.996,144.520,22.714,-104.491
15841,-0.4312,0.4526,-0.6113,-26.550,-45.166,-21.118,144.212,23.269,-104.584
15851,-0.4443,0.3970,-0.5459,-23.315,-44.922,-16.602,143.921,23.824,-104.727
15861,-0.4595,0.3447,-0.5225,-12.756,-34.790,-8.728,143.762,24.280,-104.875
15871,-0.4624,0.3418,-0.5542,-1.038,-18.188,0.610,143.751,24.532,-104.996
15881,-0.4395,0.4136,-0.6436,7.385,0.427,9.460,143.822,24.527,-105.079
15891,-0.4258,0.5054,-0.7559,12.634,14.404,15.808,143.954,24.324,-105.123
15901,-0.4067,0.5781,-0.8442,13.855,20.752,17.944,144.097,24.027,-105.150
15911,-0.3735,0.6484,-0.9204,11.292,19.226,16.113,144.207,23.725,-105.167
15921,-0.3350,0.6914,-0.9541,5.310,10.925,11.658,144.245,23.489,-105.205
15931,-0.3257,0.6855,-0.9297,-1.831,-1.526,5.676,144.196,23.390,-105.260
15941,-0.3311,0.6631,-0.8682,-9.033,-13.916,-1.038,144.064,23.445,-105.342
15951,-0.3569,0.6250,-0.8076,-12.939,-23.560,-6.592,143.877,23.632,-105.436
15961,-0.3716,0.5742,-0.7407,-14.954,-28.259,-8.728,143.674,23.884,-105.540
15971,-0.4126,0.5137,-0.6753,-13.428,-28.687,-8.423,143.487,24.186,-105.650
15981,-0.4395,0.4902,-0.6401,-10.742,-24.963,-6.836,143.328,24.467,-105.754
15991,-0.4600,0.4756,-0.6211,-7.446,-16.968,-3.845,143.212,24.686,-105.831
16001,-0.4702,0.4907,-0.6465,-4.089,-7.019,0.000,143.152,24.796,-105.875
16011,-0.4609,0.5122,-0.6860,-1.160,1.709,2.869,143.135,24.802,-105.892
16021,-0.4424,0.5361,-0.7144,0.427,7.141,4.395,143.141,24.730,-105.881
16031,-0.4209,0.5684,-0.7451,0.610,9.460,4.822,143.152,24.626,-105.864
16041,-0.4067,0.5923,-0.7642,-0.305,8.362,3.601,143.146,24.516,-105.842
16051,-0.3838,0.6245,-0.7808,-2.197,4.944,1.770,143.113,24.434,-105.820
16061,-0.3437,0.6636,-0.7954,-3.174,1.099,0.305,143.058,24.362,-105.820
16071,-0.3525,0.6694,-0.7969,-0.854,-1.465,-0.549,143.015,24.318,-105.820
16081,-0.3799,0.6616,-0.7930,2.319,-1.282,-1.526,143.015,24.296,-105.820
16091,-0.4038,0.6382,-0.7847,4.883,-0.366,-3.357,143.047,24.296,-105.793
16101,-0.4204,0.6099,-0.7715,5.493,-0.671,-5.371,143.108,24.324,-105.749
16111,-0.4331,0.5444,-0.7378,4.211,-1.709,-7.141,143.174,24.384,-105.699
16121,-0.4385,0.4644,-0.6885,0.671,-3.967,-9.094,143.234,24.505,-105.645
16131,-0.4487,0.4199,-0.6533,-5.310,-6.958,-10.010,143.240,24.675,-105.601
16141,-0.4536,0.4263,-0.6392,-10.620,-7.751,-8.423,143.174,24.846,-105.579
16151,-0.4307,0.5024,-0.6587,-11.780,-4.944,-4.089,143.053,24.939,-105.573
16161,-0.4141,0.5840,-0.6978,-5.615,0.793,2.380,142.960,24.911,-105.590
16171,-0.4092,0.6133,-0.7383,6.714,6.836,7.629,142.993,24.796,-105.612
16181,-0.3994,0.6074,-0.7764,17.212,11.108,9.338,143.146,24.620,-105.623
16191,-0.4092,0.5640,-0.8057,14.465,8.057,4.944,143.311,24.510,-105.612
