elapsed_ms,acc_x_g,acc_y_g,acc_z_g,gyro_x_dps,gyro_y_dps,gyro_z_dps,angle_x_deg,angle_y_deg,angle_z_deg
0,-0.5532,0.5771,-0.6294,-8.545,-2.563,-4.395,137.758,33.168,-73.751
10,-0.5635,0.5742,-0.6309,-8.545,-1.587,-4.761,137.686,33.212,-73.718
20,-0.5732,0.5718,-0.6357,-8.545,-0.244,-4.944,137.631,33.250,-73.680
30,-0.5752,0.5684,-0.6338,-8.545,0.793,-4.944,137.576,33.289,-73.630
40,-0.5684,0.5688,-0.6333,-8.667,1.038,-4.700,137.521,33.316,-73.575
50,-0.5645,0.5698,-0.6328,-8.545,0.488,-4.395,137.466,33.344,-73.537
60,-0.5630,0.5664,-0.6318,-8.118,-0.427,-4.150,137.411,33.376,-73.504
70,-0.5635,0.5718,-0.6313,-7.629,-1.465,-3.906,137.351,33.415,-73.482
80,-0.5625,0.5786,-0.6294,-7.080,-2.563,-3.601,137.291,33.459,-73.471
90,-0.5640,0.5796,-0.6294,-6.287,-3.296,-3.357,137.230,33.503,-73.466
100,-0.5635,0.5806,-0.6284,-5.615,-3.906,-3.296,137.170,33.552,-73.471
110,-0.5620,0.5811,-0.6235,-5.249,-4.211,-3.418,137.115,33.607,-73.471
120,-0.5586,0.5820,-0.6201,-5.066,-4.456,-3.479,137.060,33.657,-73.477
130,-0.5596,0.5815,-0.6147,-4.883,-4.639,-3.357,137.000,33.712,-73.488
140,-0.5610,0.5825,-0.6094,-4.822,-4.639,-3.296,136.939,33.766,-73.499
150,-0.5562,0.5830,-0.6074,-4.639,-4.211,-3.235,136.884,33.816,-73.504
160,-0.5576,0.5830,-0.6074,-3.967,-3.052,-3.235,136.840,33.860,-73.499
170,-0.5630,0.5820,-0.6079,-3.296,-1.831,-3.113,136.807,33.893,-73.488
180,-0.5625,0.5791,-0.6060,-2.625,-0.549,-2.991,136.791,33.915,-73.466
190,-0.5669,0.5771,-0.6050,-2.319,0.061,-2.869,136.774,33.937,-73.438
200,-0.5747,0.5742,-0.6055,-2.136,0.183,-2.625,136.763,33.959,-73.416
210,-0.5786,0.5703,-0.6021,-1.831,0.244,-2.258,136.758,33.981,-73.394
221,-0.5737,0.5698,-0.6001,-1.465,0.183,-1.892,136.752,34.003,-73.372
230,-0.5669,0.5659,-0.5996,-0.916,0.305,-1.526,136.747,34.014,-73.361
240,-0.5649,0.5679,-0.6045,0.000,0.854,-1.221,136.758,34.019,-73.339
250,-0.5654,0.5630,-0.6099,0.977,1.648,-0.732,136.785,34.014,-73.323
260,-0.5620,0.5562,-0.6162,1.465,2.197,-0.183,136.824,34.003,-73.301
270,-0.5688,0.5571,-0.6235,1.343,2.258,0.244,136.857,33.986,-73.284
280,-0.5728,0.5552,-0.6270,0.916,2.319,0.793,136.890,33.970,-73.273
290,-0.5762,0.5586,-0.6289,0.427,2.136,1.343,136.912,33.948,-73.268
300,-0.5728,0.5723,-0.6362,0.427,1.892,1.770,136.928,33.920,-73.268
310,-0.5674,0.5820,-0.6465,1.099,1.892,1.953,136.950,33.887,-73.268
320,-0.5684,0.5835,-0.6533,2.136,1.892,1.892,136.983,33.849,-73.268
330,-0.5776,0.5703,-0.6455,2.747,1.343,1.526,137.021,33.832,-73.273
340,-0.5820,0.5562,-0.6260,2.563,-0.305,0.732,137.060,33.838,-73.279
350,-0.5825,0.5327,-0.6016,1.343,-3.174,-0.122,137.071,33.882,-73.306
360,-0.5737,0.5293,-0.5962,-0.366,-6.287,-0.916,137.054,33.953,-73.350
370,-0.5684,0.5405,-0.6172,-0.549,-7.507,-1.099,137.038,34.019,-73.400
380,-0.5615,0.5552,-0.6294,0.183,-5.981,0.366,137.027,34.058,-73.455
390,-0.5718,0.5635,-0.6104,1.404,-3.296,3.540,137.010,34.063,-73.510
400,-0.5913,0.5415,-0.5669,4.517,-1.648,6.592,137.010,34.063,-73.586
410,-0.5913,0.5381,-0.5337,7.751,-2.625,8.484,137.010,34.063,-73.680
420,-0.5947,0.5425,-0.5254,12.573,-5.066,9.583,137.038,34.074,-73.806
430,-0.6045,0.5483,-0.5493,18.799,-6.836,10.559,137.120,34.091,-73.954
440,-0.6035,0.5591,-0.5894,24.475,-5.127,11.963,137.274,34.074,-74.103
450,-0.5811,0.5742,-0.6245,28.442,-0.427,13.855,137.488,33.986,-74.229
460,-0.5493,0.6123,-0.6777,31.067,5.371,15.503,137.747,33.816,-74.323
470,-0.5239,0.6455,-0.7422,33.142,11.414,16.602,138.054,33.563,-74.383
480,-0.5273,0.6465,-0.7793,33.569,17.029,17.029,138.400,33.267,-74.394
490,-0.5117,0.6470,-0.7744,29.480,19.531,15.808,138.719,32.953,-74.383
500,-0.5225,0.6167,-0.7363,23.621,17.212,12.329,138.977,32.701,-74.355
510,-0.5498,0.5620,-0.6733,15.015,8.423,6.775,139.142,32.585,-74.350
520,-0.5474,0.5396,-0.6177,3.418,-5.371,0.488,139.147,32.635,-74.399
530,-0.5405,0.5576,-0.6143,-7.202,-18.433,-4.944,139.010,32.811,-74.498
540,-0.5620,0.5850,-0.6509,-13.123,-25.391,-8.423,138.807,33.052,-74.619
550,-0.5649,0.6294,-0.6646,-15.808,-23.499,-8.240,138.565,33.272,-74.729
560,-0.5439,0.6694,-0.6519,-13.062,-16.052,-5.737,138.351,33.398,-74.806
570,-0.5444,0.6670,-0.6221,-4.150,-7.935,-2.991,138.241,33.448,-74.844
580,-0.5459,0.6406,-0.5781,6.042,-3.296,-1.892,138.230,33.475,-74.850
590,-0.5918,0.5835,-0.5620,13.428,-4.272,-2.930,138.318,33.552,-74.861
600,-0.6597,0.4756,-0.4922,16.541,-6.958,-5.249,138.455,33.745,-74.866
610,-0.6255,0.4600,-0.4712,9.277,-13.550,-8.240,138.499,33.997,-74.899
620,-0.5991,0.4370,-0.4844,4.395,-20.386,-11.108,138.499,34.305,-74.965
630,-0.5986,0.4858,-0.5605,-3.418,-23.071,-11.292,138.428,34.596,-75.048
640,-0.5947,0.5317,-0.6177,-7.629,-17.090,-8.362,138.323,34.794,-75.108
650,-0.5503,0.5913,-0.6577,-8.484,-5.920,-3.601,138.230,34.832,-75.125
660,-0.5449,0.6401,-0.7021,-3.906,7.568,1.343,138.214,34.717,-75.075
670,-0.5527,0.6353,-0.7231,3.845,20.325,4.822,138.323,34.486,-74.954
680,-0.5400,0.6387,-0.7329,8.484,28.381,6.104,138.510,34.184,-74.778
690,-0.5596,0.6226,-0.7412,11.169,30.762,4.333,138.752,33.882,-74.575
700,-0.5645,0.5962,-0.7466,9.949,29.114,1.221,138.999,33.624,-74.355
710,-0.5410,0.5679,-0.7305,4.517,23.010,-3.052,139.191,33.442,-74.141
721,-0.5283,0.5352,-0.7012,-2.380,12.512,-8.423,139.296,33.376,-73.971
730,-0.5415,0.4878,-0.6660,-10.132,0.061,-12.939,139.307,33.459,-73.850
740,-0.5576,0.4629,-0.6353,-19.043,-11.230,-15.564,139.191,33.662,-73.795
750,-0.5693,0.4663,-0.6079,-23.315,-19.104,-16.235,138.994,33.942,-73.801
760,-0.5845,0.4805,-0.5840,-21.362,-22.339,-13.855,138.768,34.233,-73.850
770,-0.5947,0.5005,-0.5752,-12.268,-20.996,-8.423,138.598,34.481,-73.943
780,-0.5933,0.5098,-0.5874,1.709,-16.052,-1.465,138.554,34.640,-74.059
790,-0.5869,0.5015,-0.6060,16.785,-9.583,5.066,138.669,34.700,-74.180
800,-0.5635,0.5068,-0.6348,27.039,-2.808,10.132,138.900,34.656,-74.295
810,-0.5425,0.5181,-0.6787,30.640,3.174,13.794,139.186,34.519,-74.394
821,-0.5454,0.5215,-0.7056,27.832,7.019,15.930,139.455,34.338,-74.487
831,-0.5586,0.5376,-0.7119,19.836,7.690,16.052,139.636,34.151,-74.575
841,-0.5605,0.5664,-0.7065,10.437,5.493,14.282,139.708,33.997,-74.663
850,-0.5684,0.5894,-0.7036,2.563,1.770,11.414,139.686,33.887,-74.756
860,-0.5698,0.6133,-0.6914,-3.052,-2.075,7.874,139.592,33.832,-74.844
871,-0.5698,0.6240,-0.6768,-4.700,-5.493,3.784,139.482,33.827,-74.921
881,-0.5586,0.6147,-0.6543,-3.601,-8.057,0.366,139.384,33.865,-74.987
891,-0.5469,0.5747,-0.6099,-2.686,-10.376,-1.892,139.290,33.948,-75.053
900,-0.5400,0.5322,-0.5615,-3.723,-13.550,-2.991,139.186,34.080,-75.130
911,-0.5508,0.5088,-0.5327,-6.165,-17.212,-3.113,139.032,34.255,-75.234
921,-0.5786,0.5005,-0.5200,-8.240,-19.348,-1.831,138.845,34.459,-75.372
931,-0.6025,0.5283,-0.5210,-8.606,-18.555,0.732,138.631,34.634,-75.531
941,-0.6274,0.5723,-0.5439,-4.211,-12.878,4.700,138.461,34.739,-75.674
950,-0.6533,0.5830,-0.5640,5.371,-2.502,8.911,138.411,34.739,-75.778
961,-0.6558,0.5752,-0.5947,15.747,9.399,11.230,138.527,34.634,-75.800
970,-0.6284,0.5786,-0.6528,23.743,20.630,11.353,138.796,34.420,-75.740
981,-0.5898,0.5820,-0.7012,27.222,28.015,10.071,139.153,34.129,-75.608
991,-0.5552,0.5640,-0.7285,25.208,29.419,8.362,139.521,33.821,-75.454
1001,-0.5278,0.5571,-0.7397,17.090,24.902,5.737,139.807,33.558,-75.311
1011,-0.5229,0.5557,-0.7119,5.249,16.296,3.479,139.927,33.376,-75.218
1021,-0.5322,0.5571,-0.6719,-5.676,4.883,0.977,139.894,33.316,-75.185
1031,-0.5537,0.5679,-0.6489,-12.268,-5.493,-1.343,139.746,33.360,-75.218
1041,-0.5771,0.5698,-0.6299,-13.245,-11.780,-2.808,139.559,33.475,-75.284
1051,-0.5776,0.5688,-0.6177,-10.010,-13.672,-3.174,139.395,33.607,-75.361
1061,-0.5776,0.5518,-0.6196,-4.333,-10.925,-3.113,139.312,33.723,-75.416
1071,-0.5703,0.5254,-0.6206,0.671,-6.104,-2.869,139.312,33.799,-75.438
1081,-0.5581,0.5171,-0.6196,3.174,-1.465,-2.441,139.356,33.838,-75.427
1091,-0.5483,0.5093,-0.6177,3.418,1.648,-1.282,139.417,33.838,-75.405
1101,-0.5566,0.5127,-0.6211,1.953,2.991,0.549,139.455,33.821,-75.383
1111,-0.5635,0.5220,-0.6299,0.610,3.418,2.380,139.471,33.788,-75.377
1121,-0.5581,0.5391,-0.6519,1.099,3.906,3.601,139.493,33.728,-75.383
1131,-0.5557,0.5591,-0.6816,3.113,4.944,4.089,139.532,33.651,-75.383
1141,-0.5542,0.5654,-0.7017,5.127,6.042,3.967,139.609,33.558,-75.372
1151,-0.5479,0.5723,-0.7070,5.615,5.554,3.235,139.686,33.470,-75.355
1161,-0.5439,0.5894,-0.7192,4.700,3.906,2.319,139.746,33.398,-75.350
1171,-0.5439,0.5923,-0.7056,3.174,1.526,1.587,139.779,33.349,-75.350
1181,-0.5449,0.5840,-0.6758,0.488,-1.526,0.549,139.768,33.333,-75.366
1191,-0.5532,0.5796,-0.6479,-2.075,-4.700,-1.038,139.713,33.371,-75.394
1201,-0.5728,0.5835,-0.6294,-3.052,-7.019,-2.319,139.642,33.442,-75.427
1211,-0.5742,0.5737,-0.6079,-1.648,-7.935,-2.930,139.576,33.530,-75.460
1221,-0.5708,0.5518,-0.5933,0.977,-8.057,-3.174,139.543,33.629,-75.498
1231,-0.5679,0.5405,-0.6021,3.723,-7.263,-2.991,139.548,33.717,-75.526
1241,-0.5674,0.5254,-0.6118,6.287,-4.822,-2.319,139.598,33.783,-75.542
1251,-0.5771,0.4976,-0.6025,7.324,-2.014,-1.099,139.680,33.827,-75.547
1261,-0.5757,0.4844,-0.5967,6.470,-0.244,-0.061,139.752,33.860,-75.547
1271,-0.5771,0.4844,-0.6113,4.761,1.282,0.854,139.823,33.871,-75.547
1281,-0.5786,0.4907,-0.6240,2.563,3.174,2.075,139.867,33.860,-75.542
1291,-0.5718,0.5142,-0.6411,1.099,5.859,3.357,139.900,33.799,-75.526
1301,-0.5576,0.5420,-0.6724,1.770,9.460,4.395,139.949,33.695,-75.493
1311,-0.5352,0.5898,-0.7290,3.906,13.306,5.432,140.026,33.519,-75.438
1321,-0.5181,0.6318,-0.7866,6.836,17.944,6.531,140.153,33.278,-75.361
1331,-0.5122,0.6357,-0.8003,9.094,21.484,6.470,140.312,33.008,-75.256
1341,-0.5234,0.6191,-0.7686,8.484,20.386,4.089,140.466,32.772,-75.141
1351,-0.5376,0.5732,-0.7134,4.761,12.268,-1.160,140.576,32.662,-75.037
1361,-0.5640,0.5034,-0.6353,-2.625,-2.136,-6.409,140.587,32.745,-74.993
1371,-0.5767,0.4805,-0.5708,-12.573,-17.822,-10.071,140.433,32.992,-75.037
1381,-0.5889,0.4668,-0.5386,-18.982,-30.273,-12.634,140.169,33.371,-75.146
1391,-0.6035,0.4712,-0.5264,-21.484,-36.682,-11.963,139.845,33.794,-75.322
1401,-0.6196,0.4971,-0.5171,-18.494,-34.851,-8.362,139.515,34.184,-75.515
1411,-0.6167,0.5308,-0.5454,-8.301,-24.780,-2.686,139.301,34.437,-75.685
1421,-0.6147,0.5498,-0.5723,4.822,-8.240,4.150,139.257,34.503,-75.784
1431,-0.6113,0.5469,-0.5889,16.785,8.911,9.521,139.395,34.404,-75.806
1441,-0.5947,0.5312,-0.6001,24.109,21.057,11.475,139.658,34.189,-75.745
1451,-0.5835,0.4912,-0.5996,23.560,24.536,10.559,139.955,33.970,-75.646
1461,-0.5669,0.4888,-0.6294,15.442,20.874,8.118,140.180,33.772,-75.558
1471,-0.5381,0.5640,-0.7202,3.967,17.090,6.165,140.273,33.569,-75.487
1481,-0.5146,0.6494,-0.8193,-4.456,16.174,5.676,140.284,33.338,-75.416
1491,-0.5015,0.7065,-0.8633,-7.629,18.616,5.920,140.262,33.069,-75.328
1501,-0.4995,0.7334,-0.8467,-5.981,23.071,5.310,140.257,32.767,-75.201
1511,-0.5151,0.6343,-0.7271,-0.854,22.156,1.587,140.317,32.542,-75.048
1521,-0.5415,0.5181,-0.6162,1.160,10.315,-5.920,140.394,32.514,-74.916
1531,-0.5747,0.4424,-0.5332,-2.991,-7.019,-12.512,140.400,32.717,-74.850
1541,-0.5928,0.3916,-0.4854,-8.301,-24.841,-16.541,140.306,33.118,-74.888
1551,-0.5972,0.3677,-0.5132,-12.268,-36.621,-16.174,140.153,33.607,-75.020
1561,-0.5928,0.4590,-0.6099,-13.855,-34.424,-10.315,139.949,33.975,-75.190
1571,-0.5591,0.5889,-0.7329,-7.874,-15.503,-0.061,139.818,34.058,-75.311
1581,-0.5312,0.7046,-0.8618,5.432,12.878,10.193,139.883,33.810,-75.300
1591,-0.4951,0.7495,-0.8921,18.982,41.321,18.555,140.158,33.272,-75.152
1601,-0.4897,0.6851,-0.8115,29.053,57.251,19.409,140.581,32.629,-74.894
1611,-0.5078,0.5225,-0.6865,30.396,49.866,10.620,141.053,32.162,-74.614
1621,-0.5317,0.4258,-0.5864,16.052,22.095,-1.404,141.334,32.042,-74.438
1631,-0.5571,0.4048,-0.5249,-5.737,-11.597,-9.888,141.290,32.272,-74.432
1641,-0.5791,0.4150,-0.5444,-20.752,-40.222,-15.747,141.021,32.761,-74.586
1651,-0.5972,0.4902,-0.6230,-26.306,-54.321,-13.916,140.620,33.305,-74.861
1661,-0.5898,0.6113,-0.7378,-22.034,-46.387,-6.470,140.240,33.684,-75.152
1671,-0.5537,0.6851,-0.7949,-7.935,-20.935,2.197,140.054,33.772,-75.333
1681,-0.5391,0.6763,-0.7764,8.789,5.188,7.507,140.109,33.624,-75.366
1691,-0.5972,0.6133,-0.6953,22.095,23.682,9.888,140.367,33.371,-75.273
1701,-0.6060,0.5190,-0.5937,25.635,27.283,5.981,140.685,33.168,-75.119
1711,-0.5391,0.4478,-0.4902,16.724,12.756,0.061,140.872,33.129,-75.026
1721,-0.5518,0.4126,-0.4419,1.953,-10.437,-5.615,140.839,33.338,-75.048
1731,-0.6382,0.4287,-0.4863,-10.132,-28.625,-10.132,140.647,33.734,-75.174
1741,-0.6479,0.4897,-0.5581,-17.639,-34.241,-10.864,140.367,34.135,-75.333
1751,-0.5977,0.5630,-0.6387,-17.822,-24.963,-6.104,140.098,34.376,-75.471
1761,-0.5693,0.6196,-0.7144,-10.132,-4.272,-0.610,139.971,34.376,-75.498
1771,-0.5396,0.6406,-0.7544,-0.122,17.517,3.479,140.026,34.167,-75.394
1781,-0.5059,0.6562,-0.7446,7.568,33.813,6.592,140.197,33.794,-75.190
1791,-0.5068,0.6123,-0.6938,11.780,39.856,6.042,140.438,33.404,-74.938
1801,-0.5366,0.5190,-0.6104,9.644,30.945,1.282,140.647,33.162,-74.713
1811,-0.5605,0.4316,-0.5327,1.892,10.803,-5.371,140.740,33.173,-74.581
1821,-0.5859,0.3838,-0.5054,-8.545,-8.850,-10.437,140.691,33.404,-74.553
1831,-0.6069,0.3696,-0.5586,-16.663,-22.278,-14.343,140.565,33.750,-74.592
1841,-0.5835,0.4678,-0.6802,-21.362,-22.583,-11.902,140.367,34.014,-74.652
1851,-0.5464,0.5952,-0.8306,-17.334,-5.066,-2.441,140.229,34.008,-74.669
1861,-0.5063,0.7017,-0.9521,-6.470,22.278,8.118,140.251,33.679,-74.570
1871,-0.4707,0.7187,-0.9287,5.554,47.546,16.174,140.444,33.096,-74.355
1881,-0.4707,0.6333,-0.7930,16.113,57.373,16.602,140.768,32.476,-74.070
1891,-0.5122,0.4702,-0.6372,18.311,44.373,8.423,141.114,32.086,-73.817
1901,-0.5752,0.3472,-0.5146,6.836,15.076,-1.160,141.295,32.086,-73.696
1912,-0.6265,0.2695,-0.4126,-11.353,-16.846,-8.301,141.213,32.465,-73.740
1921,-0.6504,0.2222,-0.4077,-25.146,-45.044,-13.489,140.955,33.113,-73.954
1931,-0.6343,0.3599,-0.5547,-31.799,-57.617,-10.010,140.515,33.728,-74.295
1941,-0.5937,0.5869,-0.8018,-25.391,-39.368,3.906,140.109,33.975,-74.630
1951,-0.5220,0.7881,-1.0005,-5.798,2.686,21.423,139.971,33.701,-74.806
1961,-0.4561,0.8613,-1.0112,19.226,44.495,34.729,140.169,32.992,-74.784
1971,-0.3970,0.8325,-0.9014,45.349,69.702,38.269,140.691,32.069,-74.603
1981,-0.4043,0.7256,-0.7676,57.129,66.223,31.006,141.328,31.256,-74.388
1991,-0.4390,0.6279,-0.6431,47.363,36.133,19.409,141.784,30.806,-74.301
2001,-0.4858,0.5303,-0.5498,25.879,-6.836,7.080,141.921,30.833,-74.416
2011,-0.5366,0.4648,-0.4946,0.000,-46.326,-2.930,141.718,31.289,-74.724
2021,-0.5845,0.4336,-0.4868,-21.912,-73.975,-12.085,141.246,32.042,-75.146
2031,-0.6138,0.4414,-0.5239,-31.677,-83.618,-16.113,140.674,32.888,-75.619
2041,-0.6265,0.5127,-0.6045,-32.104,-72.937,-14.160,140.120,33.585,-76.036
2051,-0.6118,0.6206,-0.6963,-20.874,-45.288,-6.653,139.735,33.970,-76.322
2061,-0.5825,0.6909,-0.7388,-1.953,-10.559,2.808,139.631,33.992,-76.432
2071,-0.5508,0.6768,-0.7070,16.479,18.738,10.559,139.785,33.739,-76.382
2081,-0.5269,0.6431,-0.6567,27.588,35.645,14.038,140.098,33.338,-76.234
2091,-0.5264,0.5596,-0.6177,31.433,33.081,9.277,140.482,33.019,-76.064
2101,-0.5371,0.4790,-0.5996,23.804,16.541,2.014,140.784,32.899,-75.959
2111,-0.5581,0.4419,-0.6030,6.897,-1.892,-3.601,140.889,32.975,-75.938
2121,-0.5723,0.4663,-0.6499,-9.277,-16.113,-8.179,140.806,33.173,-75.987
2131,-0.5708,0.5127,-0.7275,-18.372,-24.536,-10.193,140.620,33.420,-76.075
2141,-0.5552,0.5942,-0.7944,-21.606,-21.790,-7.629,140.378,33.596,-76.174
2151,-0.5366,0.6650,-0.8022,-17.212,-12.085,-4.028,140.175,33.651,-76.229
2161,-0.5288,0.6504,-0.7319,-6.470,-4.150,-1.465,140.087,33.635,-76.245
2171,-0.5386,0.5723,-0.6245,3.479,-1.648,-0.366,140.087,33.640,-76.256
2181,-0.5654,0.4692,-0.5264,8.301,-7.080,-2.625,140.136,33.761,-76.284
2191,-0.5952,0.4023,-0.4687,6.775,-17.944,-5.432,140.147,34.036,-76.371
2201,-0.6216,0.3711,-0.4980,1.282,-25.879,-5.676,140.109,34.376,-76.520
2211,-0.6230,0.4243,-0.6030,-5.371,-23.621,-3.174,140.015,34.634,-76.674
2222,-0.6099,0.5044,-0.6963,-8.362,-9.521,1.038,139.927,34.706,-76.756
2231,-0.5625,0.6343,-0.8130,-5.798,10.864,5.798,139.911,34.530,-76.729
2241,-0.5073,0.7202,-0.8613,-0.854,32.593,10.742,139.988,34.113,-76.575
2251,-0.4829,0.7280,-0.8149,3.845,46.753,13.123,140.142,33.569,-76.333
2261,-0.4902,0.6787,-0.7017,5.798,43.945,8.362,140.301,33.113,-76.069
2271,-0.5244,0.5713,-0.5864,2.441,24.536,-1.099,140.389,32.926,-75.872
2281,-0.5693,0.4639,-0.4810,-9.094,-2.075,-9.644,140.295,33.080,-75.800
2291,-0.6011,0.4253,-0.4399,-21.606,-26.245,-16.357,140.010,33.497,-75.850
2301,-0.6313,0.4170,-0.4629,-24.780,-42.236,-18.677,139.658,34.058,-76.003
2311,-0.6377,0.4858,-0.5747,-19.287,-42.297,-13.062,139.351,34.519,-76.212
2321,-0.6133,0.5737,-0.7153,-7.202,-22.522,-2.441,139.213,34.700,-76.371
2331,-0.5767,0.6255,-0.7847,7.690,6.897,7.690,139.301,34.552,-76.388
2341,-0.5449,0.6206,-0.7412,19.226,32.227,14.221,139.570,34.162,-76.262
2351,-0.5425,0.5625,-0.6592,23.682,44.189,14.282,139.922,33.717,-76.047
2361,-0.5518,0.5122,-0.5937,17.334,37.659,7.568,140.213,33.398,-75.822
2371,-0.5708,0.4814,-0.5586,2.563,21.667,0.549,140.312,33.272,-75.663
2381,-0.5830,0.4941,-0.5537,-12.634,5.005,-4.822,140.213,33.316,-75.580
2391,-0.5825,0.5176,-0.5757,-20.386,-7.324,-7.874,139.999,33.459,-75.564
2401,-0.5713,0.5791,-0.6436,-18.433,-11.414,-6.897,139.785,33.591,-75.591
2411,-0.5381,0.6411,-0.7383,-8.484,-4.028,-2.808,139.686,33.591,-75.597
2421,-0.5073,0.6562,-0.7759,4.822,7.751,1.770,139.763,33.448,-75.553
2431,-0.5044,0.6226,-0.7378,15.015,15.320,4.272,139.955,33.245,-75.471
2441,-0.5200,0.5688,-0.6904,18.616,17.456,4.028,140.197,33.058,-75.372
2451,-0.5435,0.5044,-0.6416,14.832,11.047,0.366,140.405,32.975,-75.295
2461,-0.5679,0.4629,-0.6025,5.005,-0.427,-4.700,140.493,33.047,-75.251
2471,-0.5791,0.4556,-0.6060,-5.493,-9.216,-8.301,140.471,33.217,-75.245
2481,-0.5889,0.4507,-0.6167,-12.329,-12.695,-9.094,140.372,33.415,-75.262
2491,-0.5762,0.4692,-0.6299,-14.587,-10.437,-6.531,140.246,33.563,-75.278
2501,-0.5562,0.5190,-0.6621,-10.010,-3.052,-2.014,140.164,33.596,-75.284
2511,-0.5483,0.5454,-0.6636,-0.183,5.676,3.906,140.169,33.519,-75.278
2521,-0.5513,0.5518,-0.6455,11.353,10.925,9.277,140.273,33.371,-75.278
2531,-0.5547,0.5508,-0.6519,20.630,13.000,13.367,140.460,33.184,-75.300
2541,-0.5625,0.5254,-0.6538,25.146,11.597,15.015,140.691,33.008,-75.350
2551,-0.5630,0.5044,-0.6646,24.353,6.958,13.489,140.916,32.882,-75.421
2561,-0.5371,0.5347,-0.7417,18.921,3.357,10.986,141.092,32.761,-75.498
2571,-0.5054,0.5615,-0.8057,10.559,3.784,9.033,141.207,32.624,-75.553
2581,-0.4824,0.6328,-0.8481,1.099,5.493,7.446,141.224,32.454,-75.580
2591,-0.4648,0.7129,-0.8594,-5.859,8.240,6.470,141.158,32.250,-75.580
2601,-0.4678,0.7256,-0.8022,-7.996,9.155,5.005,141.059,32.058,-75.558
2611,-0.5024,0.6953,-0.7046,-7.568,4.456,1.465,140.938,31.965,-75.542
2621,-0.5508,0.6270,-0.6138,-5.310,-5.188,-4.150,140.817,32.031,-75.542
2631,-0.6011,0.4966,-0.5137,-2.991,-15.930,-9.521,140.724,32.294,-75.569
2641,-0.6284,0.4023,-0.4609,-4.333,-25.757,-13.550,140.625,32.712,-75.641
2651,-0.6343,0.3374,-0.4487,-6.653,-31.250,-15.076,140.532,33.201,-75.740
2661,-0.6328,0.3193,-0.4712,-8.789,-29.114,-11.902,140.438,33.651,-75.850
2671,-0.6094,0.4224,-0.5640,-8.606,-17.151,-4.211,140.328,33.876,-75.943
2681,-0.5767,0.5151,-0.6567,-1.465,3.845,6.104,140.317,33.816,-75.970
2691,-0.5410,0.5981,-0.7363,9.033,23.987,15.930,140.433,33.492,-75.932
2701,-0.5093,0.6685,-0.7798,17.456,39.856,23.132,140.641,32.970,-75.839
2711,-0.4829,0.6797,-0.8066,23.499,43.579,21.179,140.938,32.421,-75.707
2722,-0.4717,0.6567,-0.7964,22.949,34.607,14.343,141.229,31.987,-75.580
2731,-0.4722,0.6113,-0.7690,13.672,18.005,4.883,141.416,31.756,-75.493
2741,-0.4854,0.5835,-0.7485,0.061,-0.122,-4.211,141.443,31.734,-75.454
2751,-0.4995,0.5547,-0.7266,-12.512,-15.015,-11.047,141.323,31.888,-75.465
2761,-0.5161,0.5386,-0.7085,-19.836,-24.719,-13.367,141.114,32.146,-75.520
2771,-0.5332,0.5400,-0.6660,-20.813,-24.963,-11.108,140.861,32.404,-75.608
2781,-0.5474,0.5674,-0.6421,-14.954,-20.996,-7.080,140.641,32.613,-75.696
2791,-0.5469,0.5903,-0.6143,-4.028,-13.794,-2.075,140.510,32.734,-75.784
2801,-0.5635,0.5454,-0.5703,7.996,-6.287,1.892,140.515,32.794,-75.850
2811,-0.5732,0.5332,-0.5684,14.709,-0.793,2.808,140.603,32.822,-75.877
2821,-0.5859,0.4927,-0.5889,16.113,2.991,0.305,140.768,32.838,-75.861
2831,-0.6069,0.4360,-0.5879,10.376,3.662,-3.601,140.933,32.904,-75.800
2841,-0.5957,0.4512,-0.6235,-2.380,3.540,-6.897,140.988,32.964,-75.707
2851,-0.5596,0.5410,-0.7109,-14.160,5.981,-7.568,140.927,32.959,-75.591
2861,-0.5347,0.6099,-0.7627,-19.958,11.414,-4.456,140.801,32.855,-75.465
2871,-0.5190,0.6460,-0.7363,-18.677,16.724,0.061,140.663,32.679,-75.339
2881,-0.5156,0.6216,-0.6665,-10.315,17.883,2.380,140.587,32.498,-75.229
2891,-0.5264,0.5591,-0.6016,1.282,11.536,0.854,140.603,32.404,-75.146
2901,-0.5464,0.4717,-0.5483,10.437,-0.244,-2.869,140.707,32.470,-75.125
2911,-0.5537,0.4326,-0.5708,12.634,-12.512,-5.432,140.834,32.651,-75.168
2921,-0.5532,0.4487,-0.6895,11.047,-16.846,-5.127,140.960,32.827,-75.245
2931,-0.5459,0.4907,-0.7969,5.432,-8.789,-1.099,141.059,32.877,-75.306
2941,-0.5288,0.5562,-0.8394,-2.319,5.432,4.028,141.092,32.756,-75.300
2951,-0.5093,0.6128,-0.8335,-5.676,18.494,7.629,141.097,32.503,-75.234
2961,-0.5000,0.6313,-0.7852,-4.211,24.231,8.728,141.108,32.201,-75.130
2971,-0.5034,0.5884,-0.7021,0.732,16.418,5.493,141.141,32.003,-75.059
2981,-0.5269,0.5220,-0.6128,4.517,-1.709,-0.183,141.169,32.031,-75.070
2991,-0.5493,0.4639,-0.5596,5.371,-19.348,-4.089,141.158,32.256,-75.179
3001,-0.5728,0.4258,-0.5615,4.333,-32.471,-5.737,141.114,32.613,-75.366
3011,-0.5781,0.4473,-0.6377,2.197,-36.072,-3.601,141.048,32.948,-75.602
3021,-0.5615,0.5469,-0.7485,0.061,-23.926,2.136,140.971,33.102,-75.800
3031,-0.5347,0.6460,-0.8359,-0.977,-1.770,7.996,140.927,33.003,-75.888
3041,-0.5049,0.7031,-0.8262,0.061,17.883,11.841,140.927,32.712,-75.861
3051,-0.4824,0.7109,-0.7407,0.732,27.100,10.986,140.944,32.360,-75.762
3061,-0.5049,0.6357,-0.6309,1.282,19.104,3.540,140.955,32.162,-75.652
3071,-0.5425,0.5581,-0.5278,-2.747,-0.732,-5.432,140.872,32.234,-75.608
3081,-0.5918,0.4985,-0.4648,-9.827,-19.836,-11.902,140.674,32.547,-75.646
3091,-0.6235,0.4263,-0.4575,-13.672,-34.729,-16.296,140.444,33.041,-75.756
3101,-0.6309,0.4258,-0.5103,-13.855,-39.429,-15.442,140.219,33.541,-75.916
3111,-0.6138,0.4995,-0.6357,-9.766,-26.428,-9.338,140.076,33.838,-76.031
3121,-0.5776,0.5669,-0.7305,-1.282,-1.160,-0.183,140.081,33.832,-76.036
3131,-0.5542,0.6177,-0.7539,8.179,21.667,8.118,140.219,33.574,-75.948
3141,-0.5283,0.6392,-0.7187,16.357,36.682,13.916,140.444,33.157,-75.795
3151,-0.5239,0.5859,-0.6631,21.362,37.659,11.658,140.735,32.772,-75.613
3161,-0.5400,0.5352,-0.6162,19.775,24.780,5.371,140.988,32.558,-75.476
3171,-0.5605,0.4805,-0.5889,12.024,7.690,-1.282,141.141,32.542,-75.410
3181,-0.5713,0.4595,-0.5894,2.258,-6.714,-6.287,141.174,32.684,-75.399
3191,-0.5674,0.4741,-0.6460,-4.761,-15.747,-7.812,141.130,32.877,-75.443
3201,-0.5508,0.5566,-0.7393,-7.874,-12.024,-3.784,141.042,32.975,-75.498
3211,-0.5298,0.6167,-0.8101,-3.967,0.671,1.526,141.015,32.904,-75.509
3222,-0.4971,0.6421,-0.8354,4.089,13.306,5.798,141.092,32.690,-75.465
3231,-0.4780,0.6475,-0.8101,9.155,21.973,7.751,141.235,32.393,-75.372
3241,-0.4888,0.6025,-0.7588,12.024,19.409,3.967,141.416,32.162,-75.262
3251,-0.5059,0.5508,-0.7017,9.583,7.080,-2.197,141.553,32.097,-75.190
3261,-0.5317,0.5010,-0.6499,0.732,-7.874,-7.812,141.575,32.212,-75.174
3271,-0.5605,0.4561,-0.6240,-9.705,-20.386,-12.329,141.482,32.481,-75.212
3281,-0.5732,0.4341,-0.6104,-17.761,-27.344,-14.832,141.306,32.838,-75.278
3291,-0.5811,0.4609,-0.6001,-20.386,-25.452,-12.146,141.075,33.157,-75.350
3301,-0.5923,0.4565,-0.5811,-14.771,-17.395,-6.714,140.900,33.387,-75.421
3311,-0.5972,0.4775,-0.5737,-4.028,-8.118,-0.244,140.817,33.503,-75.482
3321,-0.5864,0.5117,-0.5825,8.667,1.099,6.287,140.856,33.492,-75.531
3331,-0.5903,0.4824,-0.5674,20.996,6.958,10.498,141.026,33.420,-75.575
3341,-0.5859,0.4653,-0.5776,26.123,7.629,11.414,141.262,33.344,-75.624
3351,-0.5576,0.5000,-0.6743,23.010,7.324,10.376,141.487,33.223,-75.663
3361,-0.5303,0.5591,-0.7876,14.954,10.193,9.521,141.658,33.041,-75.679
3371,-0.4849,0.6958,-0.9248,4.944,16.235,8.789,141.746,32.756,-75.641
3381,-0.4414,0.7720,-0.9702,-1.831,24.475,8.240,141.779,32.388,-75.536
3391,-0.4326,0.7690,-0.9131,-5.127,27.039,4.822,141.790,32.020,-75.383
3401,-0.4517,0.7290,-0.8125,-7.263,18.372,-2.747,141.762,31.800,-75.223
3411,-0.5034,0.6206,-0.6763,-8.911,0.610,-10.620,141.685,31.827,-75.125
3421,-0.5635,0.5044,-0.5552,-11.230,-21.484,-17.822,141.542,32.157,-75.114
3431,-0.6094,0.4272,-0.4800,-15.137,-40.100,-22.522,141.312,32.717,-75.201
3441,-0.6514,0.3062,-0.4111,-15.198,-52.124,-23.682,141.092,33.459,-75.366
3451,-0.6855,0.2139,-0.3760,-13.367,-53.955,-21.545,140.944,34.250,-75.575
3461,-0.6982,0.1953,-0.3887,-11.047,-42.603,-15.625,140.856,34.915,-75.751
3471,-0.6660,0.2876,-0.4746,-5.981,-20.691,-4.944,140.812,35.261,-75.866
3481,-0.6113,0.4492,-0.6138,3.052,8.789,10.437,140.856,35.162,-75.894
3491,-0.5630,0.5537,-0.7197,15.808,39.368,25.757,141.059,34.662,-75.833
3501,-0.5078,0.6514,-0.8140,28.320,61.462,34.973,141.422,33.887,-75.696
3511,-0.4263,0.7310,-0.9204,36.926,69.519,34.119,141.899,32.997,-75.498
3521,-0.3794,0.7378,-0.9590,35.889,62.744,27.283,142.372,32.184,-75.289
3531,-0.3696,0.7187,-0.9497,24.414,42.175,15.747,142.701,31.613,-75.135
3541,-0.3848,0.7041,-0.9297,7.446,15.869,3.357,142.817,31.333,-75.053
3551,-0.4312,0.6934,-0.8745,-9.705,-10.498,-7.202,142.707,31.355,-75.059
3561,-0.4912,0.6030,-0.7568,-22.156,-34.607,-15.137,142.421,31.674,-75.163
3571,-0.5425,0.5200,-0.6235,-29.907,-51.575,-20.020,142.009,32.223,-75.344
3581,-0.5889,0.4624,-0.5186,-31.860,-59.753,-22.156,141.531,32.904,-75.575
3591,-0.6318,0.4238,-0.4512,-25.818,-58.655,-20.508,141.097,33.613,-75.817
3601,-0.6636,0.3892,-0.4141,-14.465,-49.622,-14.771,140.784,34.244,-76.053
3611,-0.6748,0.3677,-0.4131,-1.282,-35.339,-6.348,140.630,34.722,-76.267
3621,-0.6699,0.3794,-0.4531,11.047,-17.029,3.113,140.641,34.969,-76.426
3631,-0.6494,0.4097,-0.5239,20.691,3.723,12.085,140.812,34.958,-76.509
3641,-0.6162,0.4492,-0.6069,26.306,23.743,19.653,141.097,34.695,-76.514
3651,-0.5713,0.5234,-0.7075,27.405,38.147,24.353,141.427,34.233,-76.454
3661,-0.5259,0.5815,-0.7959,25.574,42.297,22.949,141.762,33.701,-76.349
3671,-0.4795,0.6333,-0.8525,18.188,36.560,17.273,142.015,33.217,-76.240
3681,-0.4531,0.6816,-0.8740,7.690,26.489,10.803,142.147,32.838,-76.146
3691,-0.4399,0.6890,-0.8457,-1.831,15.259,4.150,142.152,32.585,-76.075
3701,-0.4497,0.6753,-0.7798,-9.338,1.892,-2.075,142.048,32.492,-76.042
3711,-0.4766,0.6597,-0.7212,-12.024,-11.841,-6.592,141.872,32.558,-76.069
3722,-0.5015,0.6152,-0.6621,-10.315,-22.095,-8.606,141.674,32.750,-76.152
3731,-0.5293,0.5508,-0.6045,-6.104,-28.625,-9.033,141.509,33.025,-76.278
3741,-0.5674,0.4990,-0.5728,-1.160,-31.006,-8.545,141.389,33.360,-76.426
3751,-0.5913,0.4683,-0.5669,3.357,-26.794,-6.531,141.339,33.662,-76.564
3761,-0.6133,0.4404,-0.5688,6.409,-17.639,-3.540,141.356,33.887,-76.663
3771,-0.6309,0.4238,-0.5615,7.202,-7.080,-0.244,141.416,34.025,-76.718
3781,-0.6343,0.4404,-0.5601,5.981,1.953,2.014,141.476,34.074,-76.718
3791,-0.6421,0.4800,-0.5903,4.272,8.179,3.113,141.531,34.052,-76.690
3801,-0.6494,0.5112,-0.6294,4.333,12.451,2.930,141.603,33.981,-76.624
3811,-0.6445,0.5093,-0.6538,4.517,14.709,1.587,141.707,33.898,-76.525
3822,-0.6191,0.4956,-0.6655,3.052,14.282,-0.793,141.817,33.821,-76.415
3832,-0.5903,0.4951,-0.6841,0.305,11.841,-3.479,141.905,33.761,-76.295
3842,-0.5605,0.5234,-0.7217,-2.747,8.484,-5.432,141.965,33.712,-76.179
3852,-0.5220,0.5547,-0.7563,-5.249,5.859,-5.981,141.987,33.657,-76.075
3862,-0.4907,0.5742,-0.7764,-7.263,4.333,-5.554,141.976,33.591,-75.992
3872,-0.4722,0.5918,-0.7847,-8.423,2.869,-5.615,141.943,33.519,-75.921
3882,-0.4687,0.6045,-0.7793,-8.667,1.038,-6.592,141.899,33.470,-75.850
3892,-0.4653,0.5957,-0.7559,-7.629,-1.831,-8.118,141.855,33.459,-75.784
3902,-0.4741,0.5737,-0.7290,-6.409,-5.310,-9.155,141.817,33.492,-75.740
3913,-0.4902,0.5522,-0.7192,-5.859,-7.874,-9.705,141.784,33.563,-75.707
3922,-0.5132,0.5317,-0.7187,-5.554,-8.423,-9.583,141.762,33.651,-75.679
3932,-0.5269,0.5000,-0.6987,-6.042,-7.507,-8.606,141.740,33.739,-75.652
3942,-0.5352,0.4595,-0.6523,-7.996,-8.057,-7.324,141.696,33.849,-75.641
3952,-0.5625,0.4390,-0.6162,-10.742,-10.620,-6.104,141.608,33.997,-75.663
3962,-0.5864,0.4370,-0.6021,-13.550,-12.268,-4.578,141.471,34.162,-75.712
3972,-0.6099,0.4580,-0.6123,-14.587,-11.414,-2.075,141.306,34.305,-75.778
3982,-0.6318,0.4927,-0.6333,-11.841,-7.935,1.526,141.158,34.398,-75.855
3992,-0.6416,0.5127,-0.6436,-4.822,-2.869,5.371,141.070,34.426,-75.927
4002,-0.6299,0.5044,-0.6333,3.723,1.465,8.362,141.075,34.393,-75.992
4012,-0.6089,0.4893,-0.6201,9.766,3.418,9.827,141.141,34.338,-76.058
4022,-0.5967,0.4736,-0.6118,12.451,2.808,9.827,141.235,34.288,-76.130
4032,-0.5830,0.4556,-0.6240,11.719,0.732,9.216,141.334,34.255,-76.212
4042,-0.5645,0.4746,-0.6646,7.385,0.305,9.094,141.389,34.200,-76.295
4052,-0.5493,0.5054,-0.7031,2.136,2.502,10.010,141.400,34.102,-76.371
4062,-0.5283,0.5630,-0.7446,-2.258,5.737,11.414,141.356,33.942,-76.437
4072,-0.5020,0.6567,-0.7920,-4.089,9.888,12.939,141.279,33.706,-76.487
4082,-0.4800,0.7002,-0.7979,-1.465,13.367,13.184,141.224,33.426,-76.509
4092,-0.4614,0.7227,-0.7739,2.319,12.451,10.803,141.202,33.162,-76.514
4102,-0.4487,0.7222,-0.7412,5.188,5.737,5.432,141.191,32.986,-76.525
4112,-0.4629,0.6792,-0.7021,5.249,-4.639,-0.122,141.174,32.948,-76.558
4122,-0.5005,0.6519,-0.6611,0.427,-14.648,-4.150,141.081,33.041,-76.630
4132,-0.5479,0.6221,-0.6382,-4.944,-20.996,-7.629,140.933,33.234,-76.712
4142,-0.5942,0.5776,-0.6099,-8.179,-22.949,-9.827,140.762,33.492,-76.794
4151,-0.6099,0.5332,-0.5586,-10.742,-20.386,-10.742,140.587,33.766,-76.849
4162,-0.6216,0.4863,-0.4976,-11.536,-16.785,-10.437,140.405,34.041,-76.882
4172,-0.6396,0.4492,-0.4492,-9.338,-13.306,-8.362,140.246,34.305,-76.904
4182,-0.6631,0.4189,-0.4258,-4.456,-9.155,-4.333,140.136,34.541,-76.937
4192,-0.6753,0.3823,-0.4292,3.296,-4.028,0.854,140.125,34.717,-76.976
4202,-0.6719,0.3599,-0.4585,11.230,2.380,7.019,140.229,34.799,-77.025
4212,-0.6606,0.3506,-0.4971,17.761,10.498,13.550,140.427,34.755,-77.069
4222,-0.6411,0.3828,-0.5610,22.888,19.409,19.531,140.685,34.574,-77.102
4232,-0.6074,0.4526,-0.6597,27.649,28.625,24.109,141.004,34.228,-77.108
4242,-0.5586,0.5420,-0.7754,31.433,37.537,27.344,141.372,33.734,-77.080
4252,-0.4888,0.6631,-0.9009,32.776,43.335,27.588,141.757,33.124,-77.014
4262,-0.4277,0.7534,-0.9985,32.349,44.373,24.048,142.141,32.492,-76.910
4272,-0.3848,0.7847,-1.0229,28.198,39.246,16.968,142.493,31.921,-76.783
4282,-0.3638,0.7700,-0.9937,17.944,27.588,7.263,142.734,31.503,-76.652
4292,-0.3818,0.7100,-0.9238,3.418,11.108,-3.723,142.828,31.306,-76.542
4302,-0.4277,0.6519,-0.8311,-13.672,-7.568,-14.038,142.723,31.355,-76.465
4312,-0.4663,0.5835,-0.7002,-29.114,-24.963,-21.973,142.421,31.641,-76.432
4322,-0.5239,0.5005,-0.5703,-38.452,-40.039,-26.001,141.982,32.141,-76.481
4332,-0.5903,0.4492,-0.4834,-40.344,-48.828,-26.794,141.476,32.783,-76.586
4342,-0.6387,0.4111,-0.4355,-34.607,-46.875,-24.658,141.021,33.437,-76.701
4352,-0.6699,0.3672,-0.4082,-22.766,-35.706,-19.104,140.718,34.003,-76.794
4362,-0.6870,0.3306,-0.3975,-8.606,-20.020,-10.864,140.598,34.415,-76.844
4372,-0.6841,0.3076,-0.4165,5.127,-3.418,-2.197,140.674,34.640,-76.849
4382,-0.6558,0.3125,-0.4795,14.893,11.963,5.310,140.911,34.662,-76.811
4392,-0.6035,0.3613,-0.5830,18.982,23.437,9.766,141.218,34.486,-76.723
4402,-0.5557,0.4292,-0.6836,16.968,29.297,10.071,141.526,34.195,-76.597
4412,-0.5176,0.5166,-0.7744,10.437,30.212,7.629,141.762,33.865,-76.437
4422,-0.4902,0.6099,-0.8477,1.404,27.527,4.517,141.894,33.536,-76.278
4432,-0.4736,0.6602,-0.8911,-6.226,22.827,1.282,141.932,33.245,-76.119
4442,-0.4585,0.7036,-0.9072,-13.000,16.541,-1.892,141.883,33.014,-75.981
4452,-0.4536,0.7407,-0.8833,-16.846,9.094,-4.639,141.757,32.855,-75.872
4462,-0.4590,0.7144,-0.8149,-14.893,-0.061,-6.897,141.614,32.800,-75.806
4472,-0.4839,0.6699,-0.7432,-9.827,-12.024,-8.667,141.476,32.877,-75.811
4482,-0.5151,0.6143,-0.6914,-4.639,-22.156,-9.033,141.356,33.069,-75.894
4492,-0.5464,0.5503,-0.6514,0.366,-28.137,-8.240,141.273,33.333,-76.025
4502,-0.5806,0.4644,-0.5903,4.150,-31.006,-7.385,141.229,33.662,-76.190
4512,-0.6084,0.4092,-0.5498,5.554,-32.349,-6.165,141.202,34.030,-76.377
4522,-0.6279,0.3867,-0.5288,5.310,-29.602,-3.357,141.174,34.376,-76.569
4532,-0.6245,0.3901,-0.5264,4.395,-22.095,1.038,141.141,34.629,-76.745
4542,-0.6016,0.4619,-0.5615,4.211,-11.169,5.981,141.097,34.728,-76.888
4552,-0.5864,0.5234,-0.6050,7.812,0.977,10.498,141.103,34.673,-76.981
4562,-0.5698,0.5664,-0.6470,15.137,10.925,13.428,141.207,34.492,-77.025
4572,-0.5352,0.6211,-0.7153,21.545,16.602,13.733,141.394,34.228,-77.025
4582,-0.5176,0.6587,-0.7852,24.414,16.296,11.108,141.636,33.959,-77.009
4592,-0.5098,0.6704,-0.8101,22.217,11.353,6.958,141.850,33.750,-76.987
4602,-0.5088,0.6489,-0.7822,14.709,3.784,1.831,141.987,33.635,-76.976
4612,-0.5288,0.5845,-0.7148,3.723,-5.310,-3.784,142.009,33.662,-76.981
4622,-0.5537,0.5518,-0.6611,-9.460,-14.221,-9.094,141.888,33.821,-77.003
4632,-0.5781,0.5273,-0.6162,-18.677,-20.630,-12.512,141.658,34.074,-77.036
4642,-0.5913,0.4976,-0.5669,-21.606,-22.461,-13.428,141.394,34.371,-77.075
4652,-0.5957,0.4717,-0.5317,-19.287,-20.203,-12.695,141.152,34.662,-77.108
4662,-0.6089,0.4766,-0.5229,-11.353,-13.794,-9.644,140.999,34.887,-77.124
4672,-0.6152,0.4580,-0.5283,0.854,-4.395,-5.249,140.999,35.019,-77.108
4682,-0.6079,0.4443,-0.5708,11.536,5.920,-0.488,141.152,35.030,-77.058
4692,-0.6025,0.4580,-0.6377,16.541,15.991,2.869,141.400,34.909,-76.959
4702,-0.5962,0.4941,-0.7183,15.198,21.790,4.089,141.663,34.711,-76.833
4712,-0.5713,0.5625,-0.8179,10.315,24.109,3.296,141.888,34.459,-76.685
4722,-0.5361,0.6104,-0.8765,4.333,23.376,1.221,142.053,34.189,-76.520
4732,-0.5034,0.6143,-0.8711,-0.793,17.334,-1.648,142.158,33.975,-76.377
4742,-0.4854,0.5801,-0.8203,-5.066,6.653,-5.310,142.185,33.871,-76.278
4752,-0.4922,0.5088,-0.7124,-9.521,-6.226,-8.789,142.136,33.931,-76.240
4762,-0.5234,0.4648,-0.6265,-14.343,-19.836,-11.475,141.987,34.156,-76.278
4772,-0.5498,0.4473,-0.6138,-16.296,-28.748,-12.146,141.790,34.470,-76.377
4782,-0.5815,0.4824,-0.6396,-15.625,-28.198,-8.484,141.575,34.755,-76.503
4792,-0.6060,0.5146,-0.6636,-11.047,-17.944,-2.747,141.411,34.926,-76.613
4802,-0.6045,0.5254,-0.6753,-3.723,-4.822,2.441,141.345,34.948,-76.674
4812,-0.5796,0.5249,-0.6475,2.014,4.395,4.761,141.356,34.882,-76.685
4822,-0.5620,0.5312,-0.6182,3.845,5.493,3.601,141.378,34.816,-76.679
4832,-0.5713,0.5527,-0.6167,3.906,0.732,1.160,141.378,34.799,-76.685
4842,-0.5752,0.5693,-0.6377,2.258,-2.991,0.244,141.356,34.816,-76.712
4852,-0.5771,0.5674,-0.6621,0.916,-4.272,0.061,141.328,34.832,-76.745
4862,-0.5771,0.5635,-0.6758,-0.549,-3.784,-0.488,141.295,34.849,-76.767
4872,-0.5747,0.5664,-0.6821,-1.587,-3.052,-1.587,141.268,34.865,-76.778
4882,-0.5771,0.5493,-0.6616,-1.526,-3.479,-2.808,141.240,34.898,-76.778
4892,-0.5854,0.5083,-0.6211,-1.709,-5.920,-4.150,141.213,34.980,-76.783
4902,-0.5947,0.4883,-0.5967,-3.113,-8.423,-5.066,141.169,35.107,-76.800
4912,-0.5903,0.5024,-0.6079,-4.761,-8.667,-4.822,141.103,35.222,-76.816
4922,-0.5845,0.5430,-0.6382,-5.615,-5.493,-3.540,141.026,35.283,-76.827
4932,-0.5854,0.5854,-0.6606,-5.066,-0.977,-2.502,140.960,35.288,-76.811
4942,-0.5850,0.6357,-0.6870,-3.845,3.174,-2.380,140.916,35.244,-76.761
4952,-0.5786,0.6680,-0.7100,-2.380,6.042,-3.479,140.894,35.173,-76.685
4962,-0.5659,0.6436,-0.6919,-1.953,6.226,-5.859,140.894,35.123,-76.580
4972,-0.5537,0.5728,-0.6367,-4.211,2.747,-9.644,140.889,35.140,-76.465
4982,-0.5630,0.5059,-0.5947,-8.972,-3.113,-13.367,140.845,35.250,-76.366
4992,-0.5850,0.4585,-0.5825,-13.184,-6.775,-15.076,140.779,35.431,-76.273
5002,-0.6011,0.4062,-0.5684,-15.015,-5.676,-13.550,140.713,35.612,-76.190
5012,-0.6040,0.3989,-0.5742,-14.832,-1.709,-10.193,140.658,35.739,-76.102
5022,-0.5781,0.5005,-0.6880,-11.719,5.554,-5.127,140.630,35.711,-76.014
5032,-0.5190,0.7227,-0.9507,-4.761,20.691,1.587,140.691,35.420,-75.866
5042,-0.4551,0.9341,-1.1387,1.282,43.335,8.484,140.850,35.035,-75.608
5052,-0.4414,0.8530,-1.0425,5.859,55.176,6.958,141.114,34.563,-75.251
5062,-0.4873,0.5176,-0.7104,0.854,40.588,-7.202,141.339,34.288,-74.872
5072,-0.6074,0.1631,-0.3359,-22.522,3.845,-27.283,141.273,34.431,-74.586
5082,-0.7178,-0.0288,-0.0532,-56.580,-39.673,-42.297,-151.573,35.008,-74.487
5092,-0.8096,-0.0596,0.0825,-76.050,-74.158,-46.387,-151.798,35.436,-73.559
5102,-0.8735,-0.0298,0.0981,-67.444,-85.327,-34.302,-151.968,36.024,-72.691
5112,-0.8579,0.1387,-0.0957,-36.194,-65.796,-6.714,124.607,36.573,-72.235
5122,-0.7773,0.3970,-0.4243,11.536,-15.137,27.771,124.514,36.431,-72.587
5132,-0.6636,0.6284,-0.7817,64.026,45.898,55.908,125.200,35.711,-72.510
5142,-0.5522,0.8892,-1.0806,102.905,89.783,68.237,126.475,34.640,-72.092
5152,-0.4194,1.0469,-1.2529,122.009,106.628,65.369,128.018,33.475,-71.521
5162,-0.2993,1.0098,-1.2778,119.812,100.647,50.720,129.534,32.459,-70.944
5172,-0.2295,0.8804,-1.2144,85.632,70.557,27.649,130.622,31.794,-70.510
5182,-0.2500,0.7822,-1.0859,26.306,24.170,2.380,130.990,31.619,-70.313
5192,-0.3496,0.7319,-0.9131,-31.555,-23.010,-22.034,130.655,31.937,-70.345
5202,-0.4429,0.6460,-0.7119,-69.519,-60.791,-39.795,129.836,32.635,-70.582
5212,-0.5444,0.5127,-0.5190,-83.191,-85.388,-49.072,128.787,33.558,-70.988
5222,-0.6421,0.3999,-0.3906,-76.782,-92.957,-49.683,127.744,34.530,-71.488
5232,-0.7129,0.3403,-0.3418,-55.542,-79.407,-43.213,126.936,35.359,-71.927
5242,-0.7388,0.3213,-0.3525,-28.198,-52.490,-30.701,126.491,35.920,-72.213
5252,-0.7378,0.3003,-0.3872,-0.793,-20.081,-14.954,126.431,36.156,-72.307
5262,-0.7109,0.2944,-0.4507,20.020,10.681,-0.183,126.694,36.096,-72.197
5272,-0.6636,0.3218,-0.5435,27.527,34.912,9.644,127.128,35.810,-71.922
5282,-0.6147,0.3892,-0.6553,24.597,48.096,13.184,127.595,35.414,-71.548
5292,-0.5640,0.4697,-0.7524,14.343,52.063,12.634,127.980,34.997,-71.136
5302,-0.5264,0.5229,-0.8022,3.479,45.776,9.399,128.227,34.640,-70.763
5312,-0.4976,0.5806,-0.8457,-7.080,32.654,5.554,128.309,34.393,-70.494
5322,-0.4907,0.6465,-0.8730,-16.602,17.395,2.380,128.227,34.266,-70.345
5332,-0.4912,0.6797,-0.8662,-19.409,2.075,-0.793,128.046,34.261,-70.323
5342,-0.5044,0.6743,-0.8110,-17.517,-11.719,-3.418,127.820,34.360,-70.406
5352,-0.5244,0.6460,-0.7524,-13.306,-21.729,-5.249,127.595,34.536,-70.576
5362,-0.5562,0.5728,-0.6870,-8.240,-27.100,-7.019,127.392,34.755,-70.785
5372,-0.5854,0.4629,-0.6001,-5.981,-29.236,-9.033,127.211,35.008,-70.999
5382,-0.6128,0.3760,-0.5234,-8.057,-28.625,-10.437,127.013,35.261,-71.202
5392,-0.6465,0.3369,-0.4775,-12.695,-24.902,-10.132,126.788,35.491,-71.373
5402,-0.6650,0.3608,-0.4575,-18.921,-17.212,-7.019,126.530,35.651,-71.488
5412,-0.6567,0.4536,-0.5107,-18.799,-6.958,-1.282,126.310,35.706,-71.548
5422,-0.6479,0.5645,-0.6187,-10.498,5.554,5.737,126.211,35.623,-71.537
5432,-0.6416,0.6396,-0.6821,2.380,17.517,12.451,126.282,35.420,-71.455
5442,-0.6084,0.6577,-0.6836,15.747,25.269,14.832,126.524,35.151,-71.312
5452,-0.5688,0.6040,-0.6553,25.208,23.926,12.024,126.859,34.915,-71.164
5462,-0.5581,0.5571,-0.6113,24.353,12.146,5.493,127.150,34.794,-71.082
5472,-0.5645,0.5425,-0.6030,15.442,-3.723,-1.221,127.288,34.827,-71.109
5482,-0.5825,0.5732,-0.6699,-5.676,-21.667,-12.207,127.161,35.057,-71.230
5492,-0.5894,0.6006,-0.7041,-12.512,-19.043,-13.977,126.991,35.283,-71.312
5502,-0.5918,0.5898,-0.7090,-12.817,-11.658,-12.329,126.848,35.453,-71.334
5512,-0.5854,0.5220,-0.6479,-8.118,-6.165,-10.010,126.777,35.568,-71.323
5522,-0.5850,0.4595,-0.5820,-3.174,-5.798,-8.789,126.749,35.673,-71.318
5532,-0.6069,0.4209,-0.5503,-0.610,-7.324,-7.385,126.733,35.777,-71.334
5542,-0.6338,0.3848,-0.5381,-0.793,-8.362,-5.127,126.700,35.870,-71.378
5552,-0.6494,0.3706,-0.5439,-2.808,-8.728,-2.869,126.628,35.942,-71.444
5562,-0.6543,0.3975,-0.5923,-5.432,-5.737,0.183,126.541,35.975,-71.505
5572,-0.6318,0.5015,-0.6797,-4.578,0.977,4.089,126.486,35.936,-71.521
5582,-0.5840,0.6001,-0.7515,2.563,8.850,8.118,126.530,35.821,-71.494
5592,-0.5396,0.6265,-0.7651,11.658,13.245,11.597,126.672,35.645,-71.450
5602,-0.5259,0.6333,-0.7534,19.104,11.475,11.658,126.876,35.486,-71.422
5612,-0.5312,0.6128,-0.7280,24.536,4.456,9.155,127.112,35.387,-71.444
5622,-0.5513,0.5747,-0.6904,25.269,-5.432,5.981,127.304,35.370,-71.543
5632,-0.5864,0.5308,-0.6816,20.447,-13.733,2.625,127.419,35.431,-71.697
5642,-0.6099,0.4897,-0.6846,10.742,-19.531,-1.343,127.425,35.563,-71.878
5652,-0.6060,0.4907,-0.6997,-3.174,-21.545,-4.395,127.288,35.728,-72.054
5662,-0.5903,0.4678,-0.6558,-17.395,-19.470,-5.737,127.205,35.892,-72.202
5672,-0.5845,0.4722,-0.5859,-27.588,-18.005,-6.348,126.996,36.074,-72.328
5682,-0.5835,0.5913,-0.6050,-29.236,-16.296,-5.310,126.722,36.194,-72.449
5692,-0.5972,0.6475,-0.6123,-19.165,-11.292,-1.221,126.535,36.249,-72.554
5702,-0.6147,0.6426,-0.6118,-4.761,-5.737,2.625,126.519,36.249,-72.631
5712,-0.6045,0.6597,-0.6602,6.897,-1.038,3.174,126.650,36.194,-72.664
5722,-0.6060,0.5835,-0.6636,12.817,1.709,1.221,126.903,36.156,-72.658
5732,-0.6094,0.4819,-0.6230,8.484,-1.099,-3.418,127.150,36.205,-72.642
5742,-0.6313,0.3369,-0.4990,-4.700,-7.568,-8.728,127.282,36.425,-72.653
5752,-0.6846,0.1660,-0.3242,-22.400,-18.677,-13.062,127.266,36.892,-72.740
5762,-0.7183,0.1997,-0.2920,-38.208,-28.259,-13.733,126.969,37.441,-72.916
5772,-0.7305,0.3896,-0.3003,-42.236,-24.902,-5.127,126.431,37.815,-73.125
5782,-0.7065,0.6011,-0.4092,-22.949,-9.216,9.460,126.079,37.859,-73.295
5792,-0.6260,0.8613,-0.7202,14.160,20.020,25.818,126.266,37.447,-73.279
5802,-0.5166,1.0811,-1.0308,52.307,54.993,36.011,126.964,36.832,-72.988
5812,-0.4180,1.0659,-1.1699,76.904,71.045,32.593,128.013,36.145,-72.526
5822,-0.3662,0.8584,-1.0908,76.599,60.791,18.005,129.045,35.629,-72.070
5832,-0.4126,0.5352,-0.8452,48.889,27.893,-3.662,129.710,35.480,-71.774
5842,-0.5498,0.2793,-0.5674,-2.014,-18.494,-25.696,129.705,35.799,-71.746
5852,-0.6533,0.1465,-0.3633,-52.185,-62.561,-42.908,129.029,36.524,-72.004
5862,-0.7539,0.1719,-0.2305,-83.923,-88.806,-48.645,127.908,37.463,-72.482
5872,-0.8145,0.2290,-0.1626,-84.229,-90.637,-40.771,126.711,38.342,-73.065
5882,-0.8057,0.3384,-0.2549,-52.979,-67.078,-21.790,125.859,38.919,-73.586
5892,-0.7314,0.4478,-0.4253,-4.211,-20.142,2.808,125.673,39.012,-73.817
5902,-0.6641,0.5732,-0.6318,45.532,30.457,23.376,126.216,38.644,-73.674
5914,-0.5991,0.6772,-0.8296,75.195,65.674,31.921,127.238,38.002,-73.235
5922,-0.5312,0.7222,-0.9409,78.064,72.388,29.968,128.331,37.326,-72.735
5932,-0.4780,0.7075,-0.9478,59.143,60.364,22.095,129.177,36.777,-72.312
5942,-0.4482,0.6475,-0.8647,23.010,38.269,8.789,129.589,36.464,-72.010
5952,-0.4956,0.5713,-0.7427,-18.921,7.385,-9.705,129.485,36.491,-71.862
5962,-0.5771,0.4883,-0.6074,-56.641,-25.574,-27.405,128.903,36.870,-71.895
5972,-0.6499,0.4214,-0.4858,-77.820,-50.842,-38.025,128.007,37.485,-72.087
5982,-0.7158,0.4126,-0.3940,-76.721,-61.279,-38.147,127.051,38.161,-72.400
5992,-0.7612,0.4053,-0.3833,-51.392,-54.810,-28.381,126.326,38.716,-72.740
6002,-0.7720,0.4204,-0.4370,-16.357,-32.837,-12.817,126.013,39.018,-72.982
6012,-0.7261,0.4253,-0.5117,16.663,-2.869,3.357,126.145,39.007,-73.037
6022,-0.6675,0.4272,-0.5737,39.612,23.254,15.320,126.617,38.743,-72.911
6032,-0.6235,0.3979,-0.6157,49.255,37.537,20.325,127.255,38.359,-72.680
6042,-0.6079,0.3760,-0.6445,44.983,37.231,18.982,127.848,37.980,-72.449
6052,-0.5942,0.4033,-0.6816,28.625,28.870,15.320,128.238,37.683,-72.279
6062,-0.5874,0.4663,-0.7187,6.958,19.592,12.024,128.370,37.469,-72.180
6072,-0.5850,0.5396,-0.7349,-11.658,11.536,8.972,128.282,37.326,-72.136
6082,-0.5767,0.6362,-0.7300,-19.775,5.005,8.118,128.073,37.233,-72.147
6092,-0.5757,0.6641,-0.6753,-11.658,1.160,9.460,127.919,37.150,-72.213
6102,-0.5840,0.6562,-0.6108,3.479,-3.479,10.864,127.886,37.084,-72.328
6112,-0.5918,0.6143,-0.6011,20.996,-6.409,11.230,128.002,37.035,-72.477
6122,-0.5850,0.5356,-0.5908,32.776,-8.240,11.292,128.232,36.996,-72.647
6132,-0.5986,0.4668,-0.5654,34.790,-9.888,11.047,128.469,36.969,-72.828
6142,-0.6162,0.4634,-0.5981,28.259,-10.071,10.742,128.639,36.947,-73.015
6152,-0.6304,0.5029,-0.6396,16.296,-6.836,10.986,128.710,36.909,-73.163
6162,-0.6294,0.5249,-0.6431,4.028,-1.770,11.047,128.688,36.832,-73.268
6172,-0.6055,0.6021,-0.6787,-5.005,3.174,9.949,128.611,36.733,-73.317
6182,-0.5757,0.6846,-0.7290,-7.446,10.498,9.460,128.557,36.595,-73.284
6192,-0.5562,0.6792,-0.7388,-2.319,16.357,8.911,128.584,36.425,-73.196
6202,-0.5469,0.6392,-0.7187,4.700,16.602,6.165,128.699,36.271,-73.081
6212,-0.5459,0.5854,-0.6943,10.193,10.742,0.854,128.859,36.200,-72.988
6222,-0.5718,0.5171,-0.6304,10.498,-0.305,-4.211,128.979,36.233,-72.955
6232,-0.6201,0.4517,-0.5586,5.371,-12.512,-7.446,129.001,36.370,-73.021
6242,-0.6650,0.4097,-0.5254,-0.916,-21.240,-9.705,128.914,36.579,-73.147
6252,-0.7036,0.3892,-0.5181,-6.958,-22.766,-9.949,128.760,36.799,-73.290
6262,-0.7075,0.3774,-0.5190,-11.536,-16.174,-7.507,128.584,36.958,-73.389
6272,-0.6694,0.4395,-0.5630,-10.986,-3.662,-2.625,128.463,37.002,-73.405
6282,-0.6177,0.4761,-0.5913,-3.601,10.986,3.784,128.474,36.903,-73.328
6292,-0.5937,0.4814,-0.5977,6.775,21.545,9.583,128.628,36.694,-73.191
6302,-0.5776,0.5239,-0.6470,14.404,26.123,12.085,128.864,36.436,-73.032
6312,-0.5708,0.5591,-0.6987,17.456,24.475,11.475,129.249,36.156,-72.883
6322,-0.5713,0.5635,-0.7070,15.076,17.151,9.399,129.573,35.942,-72.790
6332,-0.5562,0.5820,-0.7441,9.705,8.484,6.165,129.814,35.782,-72.757
6342,-0.5356,0.6191,-0.8086,3.235,3.174,3.113,129.974,35.662,-72.751
6352,-0.5278,0.6001,-0.8096,-1.404,0.549,0.488,130.095,35.574,-72.751
6362,-0.5293,0.5688,-0.7690,-5.249,-2.563,-1.953,130.172,35.535,-72.762
6372,-0.5303,0.5698,-0.7314,-7.996,-6.592,-3.906,130.193,35.552,-72.790
6382,-0.5557,0.5527,-0.6602,-8.667,-10.742,-4.028,130.172,35.623,-72.861
6392,-0.5986,0.5142,-0.5688,-7.996,-14.282,-2.319,130.100,35.755,-72.977
6402,-0.6416,0.4658,-0.4966,-5.615,-16.113,-0.793,130.029,35.942,-73.125
6412,-0.6812,0.4170,-0.4473,-2.686,-15.381,0.244,129.985,36.156,-73.268
6422,-0.6958,0.3857,-0.4346,0.000,-11.414,1.343,130.001,36.359,-73.389
6432,-0.6924,0.3784,-0.4585,3.235,-3.723,3.662,130.100,36.486,-73.455
6442,-0.6743,0.3950,-0.5127,6.714,6.653,7.629,130.287,36.486,-73.449
6452,-0.6284,0.4883,-0.6211,10.315,18.188,12.390,130.551,36.293,-73.378
6462,-0.5771,0.5635,-0.6953,14.587,28.992,17.944,130.875,35.936,-73.251
6472,-0.5493,0.5928,-0.7183,19.348,34.363,22.095,131.243,35.497,-73.109
6482,-0.5317,0.6455,-0.7686,22.705,31.921,21.729,131.622,35.052,-72.988
6492,-0.5361,0.6279,-0.7720,22.705,24.658,17.273,131.990,34.695,-72.905
6502,-0.5513,0.5425,-0.7134,17.456,11.292,9.277,132.286,34.519,-72.878
6512,-0.5688,0.4854,-0.6636,6.165,-2.136,1.404,132.446,34.525,-72.905
6522,-0.5928,0.4355,-0.6343,-5.676,-10.986,-4.272,132.484,34.662,-72.971
6532,-0.6123,0.4116,-0.6123,-13.794,-12.573,-5.066,132.440,34.832,-73.043
6542,-0.6240,0.4111,-0.5776,-16.113,-6.958,-1.587,132.374,34.953,-73.092
6552,-0.6377,0.3589,-0.5122,-10.925,-0.061,3.296,132.380,35.035,-73.120
6562,-0.6577,0.3696,-0.4863,-2.136,4.883,8.423,132.446,35.063,-73.147
6572,-0.6665,0.4033,-0.5112,8.606,9.888,13.794,132.610,35.002,-73.169
6582,-0.6562,0.4229,-0.5488,18.799,13.672,18.677,132.874,34.860,-73.202
6592,-0.6104,0.5308,-0.6763,24.170,17.395,21.912,133.193,34.590,-73.229
6602,-0.5586,0.6851,-0.8618,26.611,23.682,23.254,133.550,34.184,-73.213
6612,-0.4946,0.8105,-1.0049,27.527,30.762,22.156,133.940,33.684,-73.125
6622,-0.4087,0.9229,-1.0894,25.024,33.386,17.334,134.330,33.151,-72.982
6632,-0.3521,0.9380,-1.0840,20.447,27.283,8.362,134.665,32.712,-72.817
6642,-0.3486,0.8696,-0.9922,12.695,11.230,-3.662,134.901,32.481,-72.691
6652,-0.3955,0.7559,-0.8613,-0.366,-11.230,-17.029,134.962,32.542,-72.647
6662,-0.4648,0.6216,-0.6968,-17.090,-33.691,-28.809,134.802,32.921,-72.686
6672,-0.5459,0.4575,-0.5415,-32.104,-51.086,-37.292,134.473,33.585,-72.806
6682,-0.6240,0.3550,-0.4370,-43.701,-58.960,-40.649,134.011,34.426,-72.966
6692,-0.6704,0.3037,-0.3755,-49.072,-55.237,-38.391,133.511,35.277,-73.125
6702,-0.6880,0.2700,-0.3330,-45.288,-41.138,-31.006,133.077,36.008,-73.229
6712,-0.7065,0.2617,-0.3086,-34.729,-20.935,-19.287,132.781,36.530,-73.257
6723,-0.7207,0.2534,-0.3228,-17.212,0.305,-6.042,132.737,36.810,-73.202
6732,-0.7227,0.2334,-0.3662,3.418,20.386,6.958,132.990,36.843,-73.076
6742,-0.7061,0.2324,-0.4189,20.020,35.950,17.395,133.478,36.667,-72.894
6752,-0.6665,0.2729,-0.5117,31.250,46.021,24.597,134.094,36.299,-72.691
6762,-0.6274,0.3315,-0.6147,36.377,51.086,30.518,134.742,35.788,-72.499
6772,-0.5801,0.4048,-0.7227,37.537,53.223,35.278,135.363,35.162,-72.339
6782,-0.5063,0.5425,-0.8726,35.889,55.237,38.574,135.928,34.415,-72.197
6792,-0.4346,0.6792,-1.0078,35.522,57.007,40.283,136.450,33.585,-72.070
6802,-0.4038,0.7402,-1.0703,37.537,53.040,38.513,136.967,32.778,-71.966
6812,-0.3892,0.7505,-1.0698,37.659,41.016,32.776,137.450,32.097,-71.917
6822,-0.3911,0.7202,-1.0283,33.752,22.888,24.170,137.840,31.619,-71.944
6832,-0.4077,0.6880,-0.9727,23.743,1.099,14.465,138.087,31.388,-72.059
6842,-0.4268,0.6987,-0.9258,8.301,-19.836,5.676,138.109,31.388,-72.268
6852,-0.4497,0.6841,-0.8584,-5.371,-34.241,-0.366,137.955,31.547,-72.532
6862,-0.4790,0.6406,-0.7539,-15.076,-42.664,-5.432,137.675,31.844,-72.817
6872,-0.5024,0.5737,-0.6362,-20.752,-44.800,-10.132,137.329,32.223,-73.087
6882,-0.5376,0.5337,-0.5469,-24.048,-43.762,-14.282,136.956,32.668,-73.312
6892,-0.5952,0.5200,-0.5054,-23.804,-38.513,-15.930,136.599,33.118,-73.488
6902,-0.6304,0.5088,-0.4844,-20.996,-28.992,-14.832,136.302,33.519,-73.597
6912,-0.6362,0.4961,-0.4673,-16.235,-18.005,-11.963,136.088,33.821,-73.641
6922,-0.6313,0.4492,-0.4443,-10.742,-7.080,-8.667,135.978,34.047,-73.625
6932,-0.6255,0.3784,-0.4121,-7.935,1.465,-5.981,135.950,34.217,-73.559
6942,-0.6382,0.3306,-0.4077,-8.728,6.775,-3.784,135.961,34.360,-73.471
6952,-0.6528,0.3120,-0.4258,-10.437,11.658,0.488,135.989,34.437,-73.378
6962,-0.6509,0.3359,-0.4629,-9.705,17.578,7.263,136.022,34.409,-73.290
6972,-0.6372,0.4058,-0.5332,-3.174,25.024,16.052,136.093,34.211,-73.224
6982,-0.6025,0.5039,-0.6450,10.559,33.997,25.635,136.291,33.810,-73.158
6992,-0.5508,0.5952,-0.7798,29.114,42.969,32.898,136.686,33.234,-73.087
7002,-0.4819,0.6685,-0.9155,44.800,49.255,35.156,137.252,32.542,-72.988
7012,-0.4058,0.6943,-1.0156,54.138,49.377,31.860,137.939,31.822,-72.872
7022,-0.3477,0.7012,-1.0815,52.673,41.504,24.048,138.609,31.190,-72.751
7032,-0.3296,0.6826,-1.0908,39.490,29.053,13.123,139.153,30.723,-72.642
7042,-0.3491,0.6572,-1.0522,17.578,12.268,1.221,139.455,30.471,-72.559
7052,-0.3931,0.6392,-0.9785,-7.629,-6.775,-10.132,139.471,30.471,-72.521
7062,-0.4326,0.6157,-0.8740,-29.419,-23.254,-18.921,139.230,30.679,-72.532
7072,-0.4800,0.5713,-0.7524,-42.725,-35.522,-25.330,138.818,31.075,-72.576
7082,-0.5273,0.5327,-0.6499,-47.607,-42.847,-28.870,138.329,31.591,-72.653
7092,-0.5591,0.5068,-0.5894,-46.082,-44.495,-29.114,137.834,32.157,-72.746
7102,-0.5737,0.5063,-0.5718,-39.246,-39.978,-26.062,137.406,32.668,-72.834
7112,-0.5747,0.5498,-0.5937,-28.870,-30.090,-20.691,137.087,33.052,-72.894
7122,-0.5654,0.5742,-0.6304,-14.832,-16.541,-14.343,136.939,33.278,-72.905
7132,-0.5498,0.5557,-0.6597,-0.671,-2.197,-8.911,136.994,33.344,-72.845
7142,-0.5273,0.5273,-0.6665,7.141,9.766,-6.042,137.186,33.300,-72.713
7152,-0.5215,0.5049,-0.6714,8.850,16.174,-6.592,137.433,33.212,-72.521
7162,-0.5342,0.4893,-0.6680,5.005,18.494,-8.362,137.670,33.129,-72.301
7172,-0.5552,0.4785,-0.6567,-2.808,18.250,-10.742,137.834,33.080,-72.059
7182,-0.5806,0.4780,-0.6436,-12.024,16.907,-13.245,137.906,33.069,-71.807
7192,-0.6035,0.4761,-0.6299,-19.958,16.541,-15.259,137.900,33.096,-71.537
7202,-0.6182,0.4624,-0.6089,-23.376,17.273,-16.968,137.878,33.140,-71.252
7212,-0.6313,0.3921,-0.5586,-23.132,15.991,-19.104,137.878,33.245,-70.950
7223,-0.6523,0.3252,-0.5132,-22.034,10.620,-21.423,137.906,33.448,-70.675
7232,-0.6724,0.2964,-0.4810,-22.278,3.662,-20.874,137.906,33.723,-70.461
7242,-0.6694,0.2969,-0.4658,-20.569,-2.563,-17.151,137.873,34.025,-70.329
7252,-0.6519,0.3437,-0.4795,-16.113,-7.812,-10.010,137.796,34.288,-70.302
7262,-0.6357,0.3926,-0.5151,-7.385,-9.521,-0.244,137.725,34.459,-70.378
7272,-0.6206,0.4321,-0.5693,3.723,-5.920,10.010,137.736,34.503,-70.516
7282,-0.5957,0.4673,-0.6343,14.160,3.357,19.226,137.856,34.376,-70.664
7292,-0.5601,0.4839,-0.6777,22.095,14.709,25.635,138.076,34.091,-70.774
7302,-0.5215,0.4639,-0.6899,26.184,22.705,28.015,138.378,33.723,-70.840
7312,-0.4746,0.5166,-0.7397,23.560,23.743,26.123,138.653,33.311,-70.884
7322,-0.4463,0.6133,-0.8120,17.883,22.217,22.888,138.856,32.904,-70.917
7332,-0.4409,0.6821,-0.8521,15.808,20.935,19.592,139.032,32.509,-70.928
7342,-0.4409,0.7559,-0.8882,12.329,18.127,15.503,139.164,32.157,-70.928
7352,-0.4326,0.7920,-0.9106,8.667,15.320,11.230,139.257,31.844,-70.906
7362,-0.4316,0.7559,-0.8872,6.958,9.216,5.615,139.340,31.624,-70.889
7372,-0.4463,0.6826,-0.8286,5.310,0.000,-1.892,139.411,31.542,-70.873
7382,-0.4717,0.6250,-0.7666,-0.488,-9.766,-8.911,139.422,31.613,-70.867
7392,-0.5127,0.4976,-0.6499,-8.789,-20.142,-14.832,139.356,31.866,-70.889
7402,-0.5557,0.3828,-0.5830,-19.043,-32.104,-21.057,139.213,32.311,-70.944
7412,-0.5991,0.4482,-0.6392,-35.095,-35.828,-23.987,138.889,32.783,-71.005
7422,-0.6138,0.6279,-0.7563,-46.265,-23.865,-20.630,138.444,33.091,-71.010
7432,-0.6152,0.6948,-0.8428,-45.776,3.540,-16.235,138.104,33.135,-70.834
7442,-0.5767,0.6797,-0.7788,-42.236,33.752,-18.127,137.928,32.964,-70.406
7452,-0.5708,0.4644,-0.5518,-40.100,46.875,-28.442,137.884,32.866,-69.780
7462,-0.6147,0.2129,-0.3535,-41.626,35.034,-43.213,137.939,33.124,-69.120
7472,-0.6592,0.1055,-0.2573,-52.856,8.301,-52.246,137.900,33.750,-68.588
7482,-0.6792,0.1685,-0.3032,-59.631,-19.836,-51.086,137.604,34.530,-68.291
7492,-0.6445,0.3760,-0.4673,-51.514,-36.011,-36.926,137.148,35.162,-68.258
7502,-0.5996,0.6362,-0.6738,-28.137,-30.151,-9.094,136.769,35.420,-68.423
7512,-0.4995,0.8794,-0.8872,6.348,-4.395,20.874,136.692,35.173,-68.648
7522,-0.3979,0.9790,-1.0059,47.668,32.349,42.358,137.093,34.459,-68.752
7532,-0.3374,0.8970,-0.9932,87.036,62.195,46.997,138.016,33.492,-68.659
7542,-0.3359,0.7080,-0.9043,102.783,70.740,33.875,139.219,32.574,-68.395
7552,-0.3862,0.4971,-0.8188,89.600,56.152,12.939,140.367,31.965,-68.077
7562,-0.4575,0.3394,-0.7256,50.720,26.550,-6.042,141.152,31.778,-67.819
7572,-0.5093,0.3501,-0.6646,-1.343,-9.521,-19.958,141.306,31.998,-67.709
7582,-0.5557,0.4282,-0.6357,-43.213,-39.001,-26.611,140.905,32.503,-67.747
7592,-0.5957,0.4980,-0.6313,-65.063,-56.152,-25.879,140.169,33.135,-67.934
7602,-0.6157,0.5806,-0.6328,-66.406,-61.646,-20.569,139.334,33.761,-68.214
7612,-0.6172,0.5889,-0.6157,-47.424,-56.335,-14.404,138.664,34.299,-68.522
7622,-0.5894,0.5342,-0.5752,-19.958,-45.410,-9.155,138.296,34.722,-68.802
7632,-0.5693,0.4585,-0.5469,5.981,-33.264,-6.042,138.252,35.046,-69.016
7642,-0.5806,0.4180,-0.5566,20.813,-22.705,-4.333,138.422,35.288,-69.164
7652,-0.5923,0.4053,-0.5947,25.574,-13.794,-2.869,138.697,35.453,-69.247
7662,-0.5952,0.3823,-0.6245,21.851,-5.066,-1.343,138.999,35.535,-69.280
7672,-0.5991,0.3647,-0.6445,10.681,2.258,-0.793,139.230,35.557,-69.252
7682,-0.6021,0.3696,-0.6709,-5.066,8.423,-2.502,139.351,35.535,-69.164
7692,-0.5879,0.4312,-0.6943,-22.705,13.123,-5.676,139.307,35.480,-69.005
7702,-0.5796,0.5610,-0.7388,-33.447,17.029,-7.568,139.131,35.365,-68.796
7712,-0.5747,0.6484,-0.7852,-31.372,21.545,-6.287,138.966,35.184,-68.566
7723,-0.5537,0.6724,-0.7954,-20.447,24.841,-1.892,138.895,34.937,-68.351
7732,-0.5142,0.6211,-0.7520,-6.531,24.292,1.953,138.944,34.673,-68.170
7742,-0.4854,0.5239,-0.6851,6.104,16.296,2.686,139.103,34.481,-68.066
7752,-0.5024,0.4805,-0.6421,12.024,1.526,3.235,139.252,34.426,-68.082
7762,-0.5342,0.4897,-0.6377,12.146,-13.184,5.920,139.318,34.481,-68.242
7772,-0.5723,0.5146,-0.6479,10.559,-22.400,11.169,139.285,34.574,-68.522
7782,-0.5757,0.6055,-0.6890,8.240,-25.452,16.602,139.164,34.634,-68.879
7792,-0.5601,0.7007,-0.7290,9.094,-20.630,20.203,139.026,34.601,-69.225
7802,-0.5332,0.7495,-0.7236,14.465,-10.254,21.118,138.961,34.470,-69.500
7812,-0.5122,0.7031,-0.6558,20.264,-1.587,18.799,138.999,34.294,-69.686
7822,-0.5303,0.6465,-0.6104,21.118,-0.366,13.306,139.081,34.173,-69.813
7832,-0.5698,0.5718,-0.5850,17.029,-5.005,6.165,139.164,34.178,-69.906
7842,-0.6011,0.5181,-0.5820,7.996,-11.536,0.061,139.186,34.299,-69.999
7852,-0.5923,0.5767,-0.6299,-4.456,-15.259,-3.418,139.076,34.442,-70.087
7862,-0.5820,0.6875,-0.7007,-12.024,-11.719,-3.601,138.884,34.514,-70.148
7872,-0.5464,0.7983,-0.7905,-10.437,-0.427,-2.441,138.752,34.448,-70.131
7882,-0.4990,0.8940,-0.8657,-2.991,17.517,0.061,138.752,34.189,-69.988
7892,-0.5020,0.7661,-0.8008,8.972,37.170,1.221,138.977,33.805,-69.703
7902,-0.5605,0.4175,-0.5654,17.456,39.856,-5.432,139.395,33.591,-69.340
7915,-0.6548,-0.0093,-0.2891,11.353,15.503,-20.874,-178.160,33.937,-69.027
7922,-0.7114,-0.2100,-0.2041,-15.503,-21.667,-34.180,-177.638,34.481,-68.610
7932,-0.6494,0.0947,-0.4116,-49.866,-47.180,-32.166,167.036,35.156,-68.198
7942,-0.6177,0.6094,-0.7202,-60.913,-41.931,-10.681,166.168,35.568,-68.181
7952,-0.6035,0.8975,-0.9399,-36.560,-9.949,17.883,165.366,35.513,-68.428
7962,-0.5234,1.0010,-1.0332,2.747,31.860,39.124,165.185,35.107,-68.791
7972,-0.4238,0.8770,-0.9463,44.312,64.270,41.016,165.465,34.382,-69.077
7982,-0.3926,0.5386,-0.7920,73.608,67.017,23.926,166.157,33.668,-69.153
7992,-0.4521,0.2642,-0.6587,62.317,41.992,3.235,166.827,33.256,-69.071
8002,-0.5103,0.1782,-0.5781,18.616,5.371,-9.277,167.080,33.223,-68.945
8012,-0.5752,0.1758,-0.5254,-28.259,-27.527,-12.329,166.833,33.519,-68.879
8022,-0.6147,0.2842,-0.5254,-59.509,-52.368,-7.507,166.207,34.047,-68.934
8032,-0.6338,0.5049,-0.5854,-68.115,-61.951,3.601,165.405,34.640,-69.153
8042,-0.6279,0.7061,-0.6606,-51.758,-52.246,16.663,164.685,35.101,-69.510
8052,-0.5898,0.8276,-0.7305,-15.381,-26.306,26.978,164.301,35.288,-69.911
8062,-0.5347,0.8652,-0.7812,26.428,2.441,29.114,164.366,35.184,-70.247
8072,-0.5024,0.8105,-0.7803,55.420,22.522,24.109,164.800,34.904,-70.455
8082,-0.4775,0.7251,-0.7534,58.594,26.245,15.320,165.333,34.607,-70.554
8092,-0.4731,0.6436,-0.7168,41.687,17.395,4.395,165.751,34.431,-70.554
8102,-0.5020,0.5454,-0.6450,12.573,2.197,-7.324,165.927,34.426,-70.461
8112,-0.5522,0.4727,-0.5610,-19.897,-13.123,-18.494,165.833,34.596,-70.280
8122,-0.6182,0.4341,-0.4888,-44.006,-23.865,-26.672,165.531,34.893,-70.038
8132,-0.6543,0.4414,-0.4512,-53.101,-28.442,-29.175,165.146,35.244,-69.780
8142,-0.6538,0.4321,-0.4326,-46.326,-26.855,-25.391,164.806,35.568,-69.565
8152,-0.6226,0.4478,-0.4683,-27.161,-19.714,-17.029,164.614,35.804,-69.423
8162,-0.6113,0.4805,-0.5210,-3.296,-6.531,-5.981,164.614,35.881,-69.373
8172,-0.6104,0.4517,-0.5469,20.447,10.559,4.944,164.800,35.766,-69.401
8182,-0.5977,0.4077,-0.5566,37.292,24.536,13.489,165.130,35.491,-69.478
8192,-0.5898,0.3521,-0.5771,42.419,33.997,18.677,165.487,35.118,-69.593
8202,-0.5854,0.3193,-0.6187,37.231,38.879,20.386,165.789,34.689,-69.719
8212,-0.5591,0.4043,-0.7173,25.940,41.504,21.545,165.970,34.233,-69.846
8223,-0.5352,0.5234,-0.8203,14.954,47.363,25.757,166.031,33.712,-70.010
8232,-0.5142,0.5703,-0.8477,11.841,55.054,31.921,166.031,33.102,-70.225
8242,-0.4976,0.5518,-0.7915,14.893,59.143,39.551,166.025,32.432,-70.510
8252,-0.5293,0.4644,-0.6572,21.973,56.946,50.781,166.014,31.756,-70.933
8262,-0.6045,0.3398,-0.5171,32.959,45.776,65.735,166.020,31.152,-71.554
8272,-0.6670,0.2412,-0.4585,43.945,24.963,78.308,166.036,30.723,-72.367
8282,-0.6553,0.2119,-0.5190,53.284,3.845,85.327,166.080,30.482,-73.323
8292,-0.5859,0.2671,-0.6641,59.326,-3.723,90.027,166.157,30.300,-74.344
8302,-0.4609,0.4785,-0.8721,60.974,9.644,94.604,166.245,29.982,-75.383
8312,-0.3154,0.7212,-1.0566,61.646,43.945,96.497,166.377,29.323,-76.344
8322,-0.1685,0.8999,-1.1729,62.012,81.055,91.614,166.608,28.317,-77.146
8332,-0.0713,0.9917,-1.2041,57.129,98.328,76.416,166.899,27.186,-77.734
8342,-0.0542,0.9219,-1.1665,41.809,90.332,50.659,167.168,26.191,-78.058
8352,-0.0952,0.7725,-1.0806,12.085,63.721,20.325,167.261,25.527,-78.118
8362,-0.1777,0.6680,-0.9600,-31.433,30.273,-7.812,167.014,25.247,-77.964
8372,-0.2437,0.6787,-0.7930,-76.843,-0.793,-30.334,166.388,25.323,-77.640
8382,-0.3281,0.7246,-0.6401,-100.525,-26.917,-41.016,165.542,25.681,-77.267
8392,-0.4170,0.7202,-0.5542,-96.558,-46.204,-42.358,164.718,26.235,-76.937
8402,-0.4868,0.6685,-0.5117,-73.425,-57.556,-38.269,164.086,26.889,-76.696
8412,-0.5605,0.6040,-0.4873,-38.940,-57.678,-29.602,163.762,27.526,-76.553
8422,-0.5933,0.5103,-0.4951,-2.136,-46.692,-19.531,163.773,28.026,-76.492
8432,-0.5815,0.4126,-0.5352,26.062,-29.846,-10.071,164.037,28.345,-76.476
8442,-0.5483,0.3638,-0.6001,38.635,-11.597,-1.404,164.416,28.460,-76.498
8452,-0.5029,0.3574,-0.6675,37.109,3.784,4.822,164.767,28.411,-76.536
8462,-0.4600,0.3735,-0.7187,26.550,14.587,8.606,165.009,28.246,-76.591
8472,-0.4155,0.4453,-0.7812,11.719,23.071,10.132,165.103,27.999,-76.630
8482,-0.3667,0.5732,-0.8608,-1.343,30.762,9.460,165.086,27.675,-76.646
8492,-0.3437,0.6753,-0.8994,-7.996,33.752,6.348,165.020,27.334,-76.619
8502,-0.3193,0.6963,-0.8750,-8.728,28.931,0.427,164.965,27.054,-76.536
8512,-0.3105,0.6641,-0.8105,-7.935,17.395,-6.287,164.943,26.900,-76.421
8522,-0.3364,0.6299,-0.7573,-8.301,3.662,-10.559,164.916,26.895,-76.295
8532,-0.3833,0.6128,-0.7383,-9.277,-7.935,-12.817,164.877,27.004,-76.179
8542,-0.4233,0.6113,-0.7549,-9.094,-16.968,-14.404,164.833,27.202,-76.075
8552,-0.4634,0.6050,-0.7856,-6.958,-22.217,-14.893,164.806,27.455,-75.976
8562,-0.5088,0.5640,-0.8062,-2.930,-21.606,-14.771,164.822,27.702,-75.877
8572,-0.5303,0.5112,-0.7944,-1.160,-17.395,-15.320,164.866,27.911,-75.762
8582,-0.5225,0.4687,-0.7588,-2.808,-13.733,-16.296,164.899,28.087,-75.624
8592,-0.5117,0.4360,-0.6953,-5.249,-13.611,-17.090,164.916,28.262,-75.482
8602,-0.5039,0.4170,-0.6230,-8.728,-19.714,-18.127,164.899,28.499,-75.339
8612,-0.4971,0.4351,-0.5708,-12.451,-30.640,-19.287,164.828,28.845,-75.218
8622,-0.5044,0.4912,-0.5557,-13.428,-40.833,-19.714,164.740,29.295,-75.125
8632,-0.5024,0.5679,-0.5718,-10.254,-46.631,-19.104,164.674,29.795,-75.053
8642,-0.5015,0.6592,-0.6113,-6.531,-45.105,-19.104,164.647,30.278,-74.976
8652,-0.4873,0.7344,-0.6538,0.244,-34.790,-18.982,164.702,30.663,-74.872
8662,-0.4580,0.7500,-0.6836,10.986,-20.020,-18.127,164.883,30.905,-74.729
8672,-0.4351,0.7202,-0.7002,19.409,-7.507,-18.799,165.174,31.025,-74.542
8682,-0.4131,0.6802,-0.7085,20.264,1.709,-23.071,165.515,31.069,-74.273
8692,-0.4097,0.6475,-0.7168,14.465,6.775,-30.029,165.844,31.080,-73.916
8702,-0.4194,0.6182,-0.7192,3.479,5.554,-38.025,166.108,31.119,-73.471
8712,-0.4370,0.5894,-0.7207,-11.169,0.488,-45.044,166.262,31.223,-72.960
8723,-0.4575,0.5576,-0.7256,-27.283,-5.981,-50.354,166.278,31.399,-72.400
8732,-0.4766,0.5542,-0.7222,-41.931,-12.512,-53.528,166.157,31.646,-71.829
8742,-0.5068,0.5547,-0.7163,-51.636,-16.357,-52.307,165.932,31.932,-71.279
8752,-0.5171,0.5435,-0.6899,-54.260,-16.724,-48.523,165.657,32.212,-70.768
8762,-0.5073,0.5581,-0.6392,-48.950,-16.602,-41.687,165.394,32.476,-70.340
8772,-0.5215,0.5796,-0.6064,-33.081,-15.930,-27.039,165.207,32.695,-70.082
8782,-0.5488,0.5586,-0.5952,-8.301,-11.841,-9.827,165.163,32.838,-69.999
8792,-0.5762,0.4961,-0.6079,17.822,-6.409,3.784,165.306,32.888,-70.065
8802,-0.5854,0.4375,-0.6372,37.354,0.488,13.855,165.597,32.849,-70.225
8812,-0.5898,0.4180,-0.6772,47.058,10.010,21.667,165.948,32.701,-70.444
8822,-0.5815,0.4326,-0.7280,47.607,20.142,25.879,166.295,32.443,-70.686
8833,-0.5601,0.4814,-0.7798,39.612,29.175,26.001,166.388,32.091,-70.900
8843,-0.5269,0.5352,-0.8184,28.137,34.607,22.156,166.388,31.668,-71.060
8852,-0.4893,0.5601,-0.8193,16.479,33.264,15.198,166.300,31.256,-71.142
8863,-0.4614,0.5396,-0.7861,5.066,24.170,6.470,166.141,30.954,-71.147
8872,-0.4609,0.5723,-0.7534,-6.592,10.986,-1.099,165.866,30.800,-71.104
8882,-0.4780,0.6128,-0.7310,-13.977,-0.305,-6.531,165.504,30.778,-71.032
8892,-0.4800,0.6343,-0.7275,-15.015,-8.362,-10.315,165.135,30.844,-70.939
8902,-0.4761,0.6445,-0.7344,-13.367,-14.587,-12.634,164.789,30.965,-70.840
8913,-0.4878,0.6177,-0.7529,-10.254,-17.883,-14.771,164.504,31.130,-70.730
8923,-0.4673,0.6060,-0.7920,-11.047,-17.029,-18.188,164.251,31.278,-70.576
8933,-0.4331,0.5771,-0.7808,-17.944,-14.465,-23.560,163.982,31.410,-70.356
8942,-0.4404,0.5273,-0.7114,-26.672,-15.381,-28.748,163.652,31.586,-70.082
8952,-0.4844,0.5044,-0.6138,-34.912,-20.081,-30.518,163.218,31.860,-69.807
8962,-0.5708,0.4331,-0.5122,-33.997,-27.039,-27.222,162.762,32.278,-69.593
8973,-0.6538,0.3257,-0.4590,-24.048,-33.264,-21.545,162.411,32.827,-69.467
8983,-0.6816,0.2891,-0.4707,-11.719,-34.241,-13.733,162.169,33.371,-69.434
8993,-0.6733,0.3174,-0.5405,0.854,-27.710,-3.784,162.021,33.783,-69.489
9002,-0.6108,0.4395,-0.6631,11.108,-13.855,7.385,161.900,33.926,-69.626
9013,-0.5054,0.5986,-0.8003,18.738,6.592,17.822,161.801,33.739,-69.807
9023,-0.4097,0.7285,-0.9058,24.780,29.053,25.146,161.741,33.245,-69.983
9033,-0.3677,0.7573,-0.9351,28.137,46.814,27.161,161.741,32.558,-70.120
9043,-0.3999,0.6504,-0.8813,28.687,52.612,20.935,161.823,31.871,-70.159
9053,-0.4712,0.5137,-0.7920,20.874,45.776,9.583,161.911,31.360,-70.098
9063,-0.5518,0.3647,-0.6929,2.136,30.273,-2.625,161.911,31.119,-69.955
9073,-0.5937,0.2700,-0.5952,-23.193,9.338,-14.099,161.713,31.190,-69.769
9083,-0.6006,0.2563,-0.5117,-44.983,-13.000,-20.813,161.279,31.525,-69.582
9093,-0.6035,0.2964,-0.4790,-53.711,-31.860,-20.508,160.675,32.047,-69.478
9103,-0.5977,0.3657,-0.5039,-47.180,-41.199,-12.939,160.032,32.591,-69.494
9113,-0.5864,0.4336,-0.5659,-26.794,-39.063,0.122,159.505,33.025,-69.653
9122,-0.5771,0.4692,-0.6084,1.221,-27.954,14.648,159.192,33.272,-69.933
9133,-0.5527,0.5049,-0.6387,25.452,-12.024,27.527,159.077,33.294,-70.291
9143,-0.5166,0.5737,-0.6919,41.748,4.333,35.706,159.093,33.091,-70.670
9153,-0.4922,0.6704,-0.7710,48.401,18.494,38.391,159.186,32.712,-71.021
9163,-0.4814,0.7485,-0.8350,46.631,30.212,35.950,159.291,32.212,-71.296
9173,-0.4575,0.7739,-0.8589,37.781,36.316,28.259,159.368,31.668,-71.455
9183,-0.4321,0.7368,-0.8594,24.048,34.607,16.418,159.384,31.185,-71.494
9193,-0.4204,0.6870,-0.8330,6.165,25.146,2.869,159.296,30.844,-71.417
9203,-0.4258,0.6885,-0.7949,-13.245,10.925,-8.179,159.027,30.679,-71.285
9213,-0.4370,0.6978,-0.7573,-26.245,-3.723,-15.137,158.626,30.696,-71.136
9223,-0.4536,0.6851,-0.7285,-28.198,-15.381,-17.883,158.192,30.839,-71.010
9233,-0.4893,0.6533,-0.7227,-21.851,-22.522,-17.029,157.819,31.064,-70.922
9243,-0.5244,0.5923,-0.7046,-11.292,-24.353,-14.526,157.555,31.328,-70.873
9253,-0.5161,0.5200,-0.6797,-1.404,-22.217,-12.329,157.407,31.575,-70.840
9263,-0.5015,0.4614,-0.6650,5.188,-18.372,-10.315,157.352,31.783,-70.807
9273,-0.4976,0.4307,-0.6611,7.874,-14.587,-8.667,157.341,31.954,-70.779
9283,-0.5083,0.4238,-0.6523,6.409,-12.573,-7.080,157.313,32.108,-70.763
9293,-0.5176,0.4277,-0.6333,2.625,-11.963,-5.127,157.225,32.261,-70.757
9303,-0.5298,0.4512,-0.6089,-1.404,-12.085,-2.319,157.055,32.404,-70.790
9313,-0.5635,0.4922,-0.6138,-3.296,-12.024,0.732,156.835,32.542,-70.851
9323,-0.6084,0.5156,-0.6084,-1.648,-9.766,3.113,156.605,32.668,-70.933
9333,-0.6016,0.5386,-0.5859,-0.244,-7.385,4.883,156.363,32.761,-71.021
9343,-0.5815,0.5415,-0.5718,1.404,-6.470,6.042,156.127,32.833,-71.115
9353,-0.5693,0.5298,-0.5835,4.333,-5.737,6.104,155.934,32.888,-71.213
9363,-0.5645,0.5200,-0.6133,5.798,-3.845,4.456,155.792,32.932,-71.279
9373,-0.5513,0.5132,-0.6372,5.371,-1.160,2.441,155.682,32.943,-71.312
9383,-0.5342,0.5112,-0.6460,3.967,1.526,1.160,155.577,32.921,-71.318
9393,-0.5215,0.5278,-0.6611,2.258,4.028,0.854,155.468,32.871,-71.307
9403,-0.5098,0.5596,-0.6851,1.709,6.531,1.343,155.347,32.778,-71.285
9413,-0.5049,0.5996,-0.7002,2.380,7.874,2.075,155.220,32.657,-71.268
9423,-0.5054,0.6333,-0.7124,4.883,8.362,2.625,155.105,32.525,-71.257
9433,-0.5181,0.6567,-0.7280,9.033,8.789,3.052,155.028,32.382,-71.246
9443,-0.5259,0.6587,-0.7446,13.367,9.399,2.991,155.001,32.245,-71.230
9453,-0.5112,0.6426,-0.7505,15.869,8.728,1.770,155.017,32.108,-71.208
9463,-0.4927,0.6133,-0.7539,15.686,6.592,0.122,155.050,31.998,-71.175
9473,-0.4897,0.5903,-0.7573,13.062,3.906,-1.465,155.067,31.915,-71.142
9483,-0.4912,0.5684,-0.7568,8.545,1.038,-3.540,155.056,31.877,-71.098
9493,-0.4966,0.5581,-0.7495,4.150,-1.404,-4.822,155.001,31.871,-71.054
9503,-0.5146,0.5518,-0.7422,2.380,-2.686,-4.822,154.929,31.888,-71.016
9513,-0.5283,0.5376,-0.7339,4.395,-2.686,-3.662,154.874,31.910,-70.988
9523,-0.5327,0.5205,-0.7231,8.606,-2.563,-2.197,154.858,31.932,-70.977
9533,-0.5435,0.4971,-0.7153,14.282,-3.296,-0.916,154.896,31.965,-70.983
9543,-0.5542,0.4585,-0.7085,19.653,-4.944,0.488,155.001,32.020,-71.016
9553,-0.5527,0.4189,-0.7075,22.827,-6.836,1.587,155.143,32.097,-71.065
9563,-0.5381,0.3877,-0.7075,22.461,-9.033,2.136,155.292,32.184,-71.131
9573,-0.5288,0.3848,-0.7012,18.677,-11.169,2.930,155.391,32.283,-71.219
9583,-0.5342,0.3945,-0.7104,13.184,-11.841,4.578,155.418,32.382,-71.329
9593,-0.5400,0.4233,-0.7275,6.531,-9.827,5.859,155.369,32.448,-71.439
9603,-0.5376,0.4482,-0.7349,-0.244,-5.920,6.348,155.248,32.470,-71.537
9613,-0.5229,0.4741,-0.7261,-6.104,-0.732,6.592,155.061,32.437,-71.609
9623,-0.5078,0.5215,-0.7002,-9.094,3.235,7.690,154.819,32.355,-71.680
9633,-0.5127,0.5425,-0.6514,-5.310,2.747,11.658,154.561,32.267,-71.790
9643,-0.5356,0.5283,-0.5835,8.484,-4.272,18.616,154.363,32.250,-72.010
9653,-0.5781,0.4683,-0.5083,27.649,-16.968,28.748,154.259,32.355,-72.400
9663,-0.5879,0.3853,-0.4751,46.387,-30.518,38.574,154.281,32.574,-72.971
9673,-0.5908,0.3530,-0.5513,55.481,-38.086,43.335,154.413,32.822,-73.630
9683,-0.5771,0.3813,-0.6777,49.927,-33.081,44.250,154.523,32.970,-74.273
9693,-0.5566,0.4321,-0.7744,31.128,-16.052,41.870,154.506,32.926,-74.806
9703,-0.5171,0.5127,-0.8389,2.014,7.446,36.011,154.281,32.651,-75.157
9713,-0.4756,0.6836,-0.8623,-27.283,28.625,29.480,153.792,32.179,-75.322
9723,-0.4590,0.8022,-0.8262,-46.936,41.382,24.292,153.127,31.597,-75.366
9733,-0.4409,0.8115,-0.7109,-53.955,41.443,18.555,152.386,31.058,-75.339
9743,-0.4565,0.7471,-0.5967,-49.316,27.222,10.254,151.683,30.718,-75.300
9753,-0.4766,0.6924,-0.5513,-39.490,7.141,2.014,151.068,30.619,-75.278
9763,-0.4980,0.6670,-0.5752,-26.123,-9.155,-2.197,150.590,30.696,-75.311
9773,-0.5176,0.7065,-0.6909,-13.306,-16.541,-4.211,150.271,30.833,-75.361
9783,-0.5229,0.6997,-0.7808,0.732,-10.925,-5.615,150.156,30.910,-75.366
9793,-0.5171,0.6475,-0.7949,12.207,2.014,-5.798,150.216,30.877,-75.300
9803,-0.4976,0.5781,-0.7627,16.479,12.634,-5.432,150.370,30.762,-75.168
9813,-0.4717,0.5039,-0.7285,12.268,16.052,-6.287,150.524,30.630,-75.015
9823,-0.4482,0.5073,-0.7153,2.136,13.000,-8.484,150.568,30.520,-74.855
9833,-0.4507,0.5386,-0.7041,-9.399,7.935,-9.705,150.463,30.465,-74.713
9843,-0.4678,0.5464,-0.6777,-15.686,3.235,-10.132,150.276,30.465,-74.592
9853,-0.5137,0.4917,-0.6362,-16.724,-0.732,-10.925,150.084,30.547,-74.482
9863,-0.5493,0.4443,-0.6138,-14.038,-2.930,-11.780,149.936,30.685,-74.383
9873,-0.5581,0.4409,-0.6211,-10.010,-1.892,-11.230,149.837,30.811,-74.279
9883,-0.5684,0.4429,-0.6357,-5.005,1.465,-8.484,149.788,30.894,-74.185
9893,-0.5591,0.4468,-0.6626,-0.549,5.066,-4.456,149.782,30.916,-74.114
9903,-0.5288,0.4751,-0.7124,1.831,8.789,-0.610,149.793,30.850,-74.053
9916,-0.4932,0.5244,-0.7627,1.709,11.597,2.441,149.788,30.712,-74.009
9923,-0.4551,0.5737,-0.7993,0.977,12.268,4.517,149.760,30.526,-73.982
9933,-0.4297,0.6230,-0.8345,0.366,10.071,5.127,149.700,30.333,-73.976
9943,-0.4204,0.6465,-0.8472,-0.549,5.554,4.456,149.617,30.174,-73.987
9953,-0.4316,0.6543,-0.8301,-1.892,-0.671,2.625,149.507,30.086,-74.020
9963,-0.4614,0.6216,-0.7925,-3.296,-7.629,0.183,149.376,30.097,-74.064
9973,-0.4761,0.5952,-0.7656,-5.798,-14.282,-2.319,149.216,30.190,-74.125
9983,-0.4858,0.5591,-0.7432,-8.362,-18.860,-4.883,149.041,30.350,-74.191
9993,-0.4990,0.4976,-0.7021,-10.071,-21.057,-7.141,148.870,30.564,-74.246
10003,-0.5005,0.4663,-0.6724,-12.573,-21.057,-8.606,148.689,30.795,-74.284
10013,-0.5015,0.4702,-0.6519,-15.320,-18.555,-7.874,148.475,31.003,-74.317
10023,-0.5093,0.4912,-0.6382,-15.808,-14.221,-4.822,148.239,31.163,-74.355
10033,-0.5278,0.5166,-0.6328,-13.550,-8.362,-0.916,148.008,31.256,-74.399
10043,-0.5571,0.5234,-0.6104,-7.690,-2.441,2.869,147.821,31.295,-74.443
10053,-0.5806,0.5112,-0.5962,0.000,1.831,5.737,147.711,31.300,-74.487
10063,-0.6011,0.4980,-0.5933,6.042,4.333,7.446,147.673,31.289,-74.537
10073,-0.5864,0.4990,-0.6172,9.460,6.409,7.751,147.678,31.245,-74.570
10083,-0.5474,0.5186,-0.6646,9.827,7.996,6.531,147.711,31.163,-74.586
10093,-0.4980,0.5918,-0.7241,5.798,8.301,5.310,147.700,31.036,-74.586
10103,-0.4668,0.6523,-0.7559,1.587,8.667,4.700,147.634,30.877,-74.581
10113,-0.4561,0.6846,-0.7490,0.061,8.484,4.028,147.541,30.718,-74.564
10123,-0.4556,0.6890,-0.7285,0.732,6.531,3.052,147.448,30.586,-74.553
10133,-0.4687,0.6719,-0.7114,3.174,2.563,1.404,147.371,30.504,-74.553
10143,-0.4946,0.6372,-0.7007,5.920,-2.625,-1.160,147.327,30.504,-74.559
10153,-0.5181,0.5981,-0.6968,6.836,-6.897,-3.906,147.316,30.569,-74.564
10163,-0.5239,0.5571,-0.6953,5.432,-8.850,-6.165,147.310,30.679,-74.559
10173,-0.5146,0.5176,-0.6890,2.380,-8.850,-7.507,147.299,30.795,-74.542
10183,-0.5117,0.4897,-0.6826,-1.892,-7.751,-7.507,147.266,30.905,-74.515
10193,-0.5098,0.4683,-0.6548,-5.371,-6.592,-6.592,147.195,31.009,-74.493
10203,-0.5034,0.4565,-0.6177,-7.202,-6.653,-4.822,147.090,31.113,-74.487
10213,-0.5073,0.4727,-0.5957,-6.653,-7.507,-1.831,146.953,31.212,-74.515
10223,-0.5337,0.4873,-0.6006,-2.930,-7.446,2.197,146.827,31.295,-74.586
10233,-0.5562,0.5103,-0.6284,2.686,-5.188,5.981,146.750,31.339,-74.680
10243,-0.5605,0.5366,-0.6621,7.812,-0.305,8.118,146.728,31.317,-74.762
10253,-0.5542,0.5469,-0.6963,11.292,5.310,8.484,146.766,31.234,-74.806
10263,-0.5332,0.5586,-0.7163,11.536,9.766,7.507,146.827,31.102,-74.817
10273,-0.4946,0.5942,-0.7490,7.629,11.658,5.493,146.860,30.937,-74.800
10283,-0.4634,0.6392,-0.7754,1.587,11.047,3.296,146.832,30.767,-74.762
10293,-0.4448,0.6670,-0.7764,-3.723,8.118,1.404,146.739,30.619,-74.724
10303,-0.4390,0.6562,-0.7578,-6.592,3.479,-0.488,146.613,30.526,-74.696
10313,-0.4512,0.6304,-0.7310,-7.690,-2.441,-2.625,146.464,30.504,-74.685
10323,-0.4795,0.5977,-0.7031,-7.385,-7.629,-4.211,146.321,30.558,-74.696
10333,-0.5303,0.5449,-0.6685,-6.653,-11.108,-4.883,146.190,30.690,-74.718
10343,-0.5640,0.5044,-0.6353,-7.446,-13.184,-5.310,146.052,30.866,-74.751
10353,-0.5762,0.4834,-0.6196,-9.338,-12.939,-5.554,145.904,31.058,-74.784
10363,-0.5571,0.5010,-0.6152,-11.536,-10.254,-5.066,145.728,31.212,-74.800
10373,-0.5259,0.5195,-0.6118,-11.414,-5.798,-4.028,145.552,31.300,-74.800
10383,-0.5093,0.5278,-0.5991,-8.667,-1.160,-2.441,145.410,31.339,-74.784
10393,-0.5054,0.5332,-0.5845,-4.639,2.686,-0.122,145.294,31.328,-74.767
10403,-0.5254,0.5190,-0.5830,0.183,6.409,2.808,145.234,31.284,-74.751
10413,-0.5508,0.5127,-0.6021,4.150,9.827,5.859,145.223,31.207,-74.740
10423,-0.5737,0.5205,-0.6357,5.432,13.000,8.179,145.234,31.091,-74.734
10433,-0.5674,0.5469,-0.6714,4.700,16.479,8.911,145.250,30.932,-74.707
10443,-0.5381,0.5986,-0.7344,2.991,20.447,8.179,145.267,30.707,-74.652
10453,-0.4985,0.6646,-0.8140,0.671,24.353,6.592,145.278,30.416,-74.553
10463,-0.4575,0.7134,-0.8599,-1.404,27.405,4.333,145.283,30.086,-74.410
10473,-0.4194,0.7192,-0.8472,-2.930,27.588,1.160,145.283,29.762,-74.240
10483,-0.4043,0.6436,-0.7842,-3.845,21.973,-3.601,145.283,29.526,-74.064
10493,-0.4341,0.5361,-0.7021,-5.737,9.521,-9.583,145.278,29.465,-73.911
10503,-0.4888,0.4126,-0.5967,-9.216,-7.080,-14.343,145.228,29.652,-73.823
10513,-0.5337,0.3418,-0.5337,-13.855,-23.193,-16.296,145.113,30.037,-73.817
10523,-0.5415,0.3989,-0.5518,-17.761,-31.250,-12.939,144.888,30.449,-73.905
10533,-0.5239,0.5527,-0.6499,-16.479,-25.208,-2.930,144.602,30.679,-74.042
10543,-0.4604,0.8066,-0.8730,-9.216,-3.296,9.583,144.377,30.558,-74.158
10553,-0.3970,0.9785,-1.0562,1.587,31.921,19.348,144.338,30.037,-74.125
10563,-0.3511,0.9658,-1.0557,10.376,63.416,19.836,144.492,29.251,-73.883
10573,-0.3433,0.7881,-0.9058,14.587,72.876,8.057,144.783,28.482,-73.471
10583,-0.4082,0.5430,-0.7075,5.615,56.519,-10.620,145.036,28.048,-73.004
10593,-0.5181,0.3911,-0.5420,-16.602,19.958,-27.771,145.042,28.141,-72.614
10603,-0.6055,0.2573,-0.3730,-39.185,-23.315,-37.231,144.750,28.790,-72.422
10613,-0.6958,0.1504,-0.2378,-49.255,-62.561,-38.452,144.267,29.910,-72.477
10623,-0.7373,0.0840,-0.2041,-45.776,-88.562,-32.837,143.806,31.245,-72.762
10633,-0.7334,0.1250,-0.3120,-32.288,-92.407,-19.348,143.394,32.437,-73.218
10643,-0.6929,0.2759,-0.5200,-10.437,-69.336,0.671,143.113,33.157,-73.718
10653,-0.6245,0.4526,-0.7319,13.550,-25.330,23.132,143.080,33.250,-74.119
10663,-0.5361,0.6235,-0.9019,32.227,24.231,39.856,143.311,32.750,-74.328
10673,-0.4336,0.8042,-1.0166,41.443,60.730,44.617,143.707,31.860,-74.317
10683,-0.3374,0.9253,-1.0327,41.443,72.754,37.109,144.141,30.877,-74.163
10693,-0.2827,0.9253,-0.9844,33.752,62.561,23.560,144.509,30.053,-73.960
10703,-0.2900,0.8481,-0.8887,17.212,35.217,8.667,144.673,29.548,-73.806
10713,-0.3540,0.7969,-0.7974,-3.601,-2.563,-4.944,144.553,29.476,-73.779
10723,-0.4126,0.7197,-0.6973,-17.517,-40.100,-15.747,144.218,29.822,-73.894
10733,-0.4531,0.5815,-0.5698,-20.935,-71.411,-22.156,143.778,30.515,-74.169
10743,-0.4932,0.4731,-0.4624,-17.334,-89.905,-22.766,143.311,31.426,-74.575
10753,-0.5610,0.4175,-0.4072,-8.179,-91.736,-18.005,142.894,32.388,-75.048
10763,-0.6235,0.3853,-0.3828,2.686,-76.965,-9.521,142.597,33.217,-75.509
10773,-0.6641,0.4082,-0.4019,10.559,-50.964,1.404,142.410,33.772,-75.888
10783,-0.6792,0.4668,-0.4336,17.456,-18.677,12.878,142.344,33.970,-76.152
10793,-0.6704,0.5039,-0.4541,22.949,12.695,21.118,142.410,33.849,-76.256
10803,-0.6333,0.5610,-0.4961,24.353,36.438,24.292,142.564,33.481,-76.223
10813,-0.5898,0.6733,-0.6279,23.315,49.561,21.606,142.784,32.953,-76.064
10823,-0.5498,0.7822,-0.7798,21.118,54.749,15.381,143.047,32.366,-75.817
10833,-0.4961,0.8291,-0.8628,17.151,53.467,7.812,143.311,31.794,-75.509
10843,-0.4429,0.7964,-0.8750,12.695,44.617,-0.610,143.547,31.333,-75.190
10853,-0.4233,0.7070,-0.8252,7.324,28.931,-8.728,143.723,31.053,-74.910
10863,-0.4434,0.6074,-0.7583,1.038,8.728,-15.747,143.817,31.009,-74.702
10873,-0.4814,0.5146,-0.6919,-5.371,-11.536,-19.653,143.811,31.201,-74.592
10883,-0.5288,0.4014,-0.6157,-10.498,-28.564,-20.630,143.734,31.591,-74.597
10893,-0.5645,0.3379,-0.5615,-17.090,-39.490,-17.212,143.564,32.102,-74.707
10903,-0.5874,0.3047,-0.5337,-18.799,-40.649,-10.254,143.344,32.602,-74.894
10913,-0.6011,0.3394,-0.5298,-14.465,-29.785,-2.563,143.141,32.964,-75.081
10923,-0.5796,0.4463,-0.5815,-5.554,-10.498,6.592,143.004,33.063,-75.218
10933,-0.5337,0.5166,-0.6577,7.935,11.169,15.625,143.036,32.877,-75.289
10943,-0.4727,0.5815,-0.7368,19.226,29.846,20.020,143.223,32.459,-75.267
10953,-0.4170,0.6445,-0.8159,23.926,41.565,19.226,143.509,31.910,-75.152
10963,-0.3867,0.6704,-0.8740,23.010,43.457,14.771,143.811,31.349,-74.987
10973,-0.3926,0.6680,-0.8945,15.320,35.706,8.972,144.042,30.894,-74.828
10983,-0.4111,0.6562,-0.8721,3.418,21.179,2.930,144.124,30.602,-74.707
10993,-0.4370,0.6221,-0.8218,-8.057,3.601,-2.502,144.058,30.515,-74.663
11003,-0.4761,0.5879,-0.7588,-15.869,-13.428,-6.470,143.866,30.619,-74.691
11013,-0.5088,0.5581,-0.6899,-18.616,-25.757,-8.423,143.602,30.866,-74.789
11023,-0.5386,0.5327,-0.6392,-15.076,-31.799,-7.629,143.344,31.185,-74.938
11033,-0.5522,0.5063,-0.6147,-7.629,-32.410,-4.944,143.146,31.503,-75.119
11043,-0.5596,0.4907,-0.6118,0.305,-28.748,-1.709,143.036,31.783,-75.306
11053,-0.5596,0.4985,-0.6260,5.798,-21.423,1.282,142.993,31.976,-75.465
11063,-0.5576,0.5151,-0.6411,8.301,-12.207,3.601,142.993,32.075,-75.586
11073,-0.5518,0.5332,-0.6489,7.629,-3.662,4.822,143.009,32.086,-75.657
11083,-0.5347,0.5557,-0.6621,4.639,3.540,4.822,143.015,32.025,-75.679
11093,-0.5098,0.6050,-0.6968,0.366,8.606,4.272,142.987,31.904,-75.657
11103,-0.4922,0.6450,-0.7236,-2.991,11.353,3.235,142.938,31.745,-75.608
11113,-0.4854,0.6543,-0.7183,-4.761,10.681,1.404,142.872,31.597,-75.547
11123,-0.4829,0.6572,-0.7114,-5.188,7.141,-1.099,142.795,31.498,-75.487
11133,-0.4824,0.6636,-0.7192,-4.333,2.869,-3.418,142.723,31.443,-75.432
11143,-0.4810,0.6641,-0.7275,-2.319,-0.244,-4.883,142.674,31.421,-75.388
11153,-0.4888,0.6489,-0.7178,-0.549,-2.808,-5.981,142.635,31.432,-75.355
11163,-0.5020,0.6294,-0.7031,0.305,-4.700,-7.141,142.614,31.476,-75.322
11173,-0.5229,0.6050,-0.6797,-0.244,-5.920,-8.362,142.586,31.558,-75.284
11183,-0.5400,0.5806,-0.6558,-1.770,-6.653,-9.338,142.548,31.668,-75.245
11193,-0.5493,0.5596,-0.6411,-3.235,-6.592,-10.315,142.504,31.794,-75.196
11203,-0.5669,0.5073,-0.6133,-4.517,-5.127,-10.986,142.471,31.937,-75.130
11213,-0.5879,0.4307,-0.5654,-6.165,-3.662,-11.353,142.454,32.113,-75.048
11224,-0.5977,0.3799,-0.5259,-8.911,-3.418,-10.925,142.427,32.311,-74.971
11233,-0.6021,0.3560,-0.5063,-10.925,-2.441,-8.301,142.372,32.498,-74.910
11243,-0.5972,0.3755,-0.5083,-11.169,0.854,-3.845,142.295,32.624,-74.872
11253,-0.5820,0.4224,-0.5327,-8.240,7.141,1.709,142.229,32.635,-74.833
11263,-0.5684,0.4634,-0.5649,-2.319,14.465,7.629,142.207,32.531,-74.800
11273,-0.5405,0.5317,-0.6284,5.127,21.912,12.756,142.256,32.289,-74.762
11283,-0.4976,0.6284,-0.7339,11.963,28.931,15.686,142.377,31.915,-74.696
11293,-0.4531,0.6953,-0.8213,16.541,33.203,15.991,142.564,31.470,-74.608
11303,-0.4155,0.7334,-0.8638,17.029,33.386,13.855,142.756,31.009,-74.498
11313,-0.3979,0.7241,-0.8789,13.855,28.625,9.216,142.932,30.613,-74.383
11323,-0.4038,0.7119,-0.8706,6.348,20.020,2.441,143.031,30.328,-74.268
11333,-0.4189,0.6909,-0.8301,-2.563,9.399,-4.761,143.031,30.190,-74.158
11343,-0.4419,0.6729,-0.7764,-10.620,-2.136,-10.437,142.932,30.201,-74.075
11353,-0.4854,0.6450,-0.7183,-15.747,-11.353,-13.062,142.745,30.333,-74.031
11363,-0.5190,0.6055,-0.6729,-15.930,-17.212,-13.672,142.542,30.547,-74.026
11373,-0.5356,0.5288,-0.6177,-11.963,-19.592,-13.733,142.388,30.811,-74.037
11383,-0.5669,0.4385,-0.5605,-7.751,-20.325,-13.184,142.295,31.130,-74.064
11393,-0.6152,0.3735,-0.5117,-5.493,-20.203,-11.658,142.240,31.487,-74.097
11403,-0.6382,0.3286,-0.4775,-5.066,-18.127,-8.667,142.196,31.844,-74.147
11413,-0.6328,0.3184,-0.4663,-6.287,-13.733,-4.395,142.136,32.146,-74.207
11423,-0.6064,0.3701,-0.5059,-8.362,-6.165,1.282,142.042,32.305,-74.262
11433,-0.5688,0.4800,-0.5869,-8.850,5.554,7.751,141.921,32.256,-74.295
11443,-0.5273,0.6089,-0.6846,-5.615,18.738,12.756,141.839,32.009,-74.279
11453,-0.4814,0.7095,-0.7583,-0.244,27.649,14.282,141.828,31.635,-74.207
11463,-0.4434,0.7783,-0.8115,4.150,27.832,11.536,141.861,31.251,-74.114
11473,-0.4233,0.8003,-0.8296,7.751,20.142,5.310,141.927,30.948,-74.015
11483,-0.4214,0.7656,-0.8008,7.812,7.751,-2.686,141.987,30.806,-73.938
11493,-0.4380,0.6890,-0.7505,2.747,-7.874,-11.353,141.993,30.861,-73.889
11503,-0.5049,0.5332,-0.6489,-18.372,-36.011,-25.024,141.784,31.295,-73.916
11513,-0.5308,0.4751,-0.6211,-29.358,-38.818,-26.306,141.482,31.783,-73.954
11523,-0.5415,0.4805,-0.5947,-37.476,-33.264,-24.170,141.097,32.228,-73.976
11533,-0.5542,0.5449,-0.5771,-36.987,-20.691,-18.066,140.691,32.525,-73.965
11543,-0.5630,0.5757,-0.5674,-24.231,-5.127,-8.850,140.416,32.646,-73.922
11553,-0.5649,0.5508,-0.5693,-4.822,6.592,-1.221,140.356,32.629,-73.861
11563,-0.5464,0.5532,-0.6240,12.146,10.986,1.831,140.493,32.542,-73.795
11573,-0.5225,0.6147,-0.7417,21.973,12.329,2.441,140.746,32.393,-73.724
11583,-0.5122,0.6665,-0.8237,22.095,12.085,2.197,141.004,32.217,-73.652
11593,-0.5059,0.6958,-0.8389,15.137,7.385,-0.305,141.174,32.091,-73.597
11603,-0.4946,0.6860,-0.8115,5.249,0.488,-5.066,141.240,32.047,-73.542
11613,-0.5059,0.6680,-0.7681,-3.784,-6.592,-10.681,141.207,32.108,-73.493
11623,-0.5186,0.6401,-0.7183,-9.338,-12.085,-15.015,141.108,32.256,-73.449
11633,-0.5322,0.5918,-0.6499,-10.193,-16.418,-16.968,140.993,32.481,-73.411
11643,-0.5479,0.5229,-0.5801,-8.057,-19.348,-17.212,140.894,32.761,-73.400
11653,-0.5703,0.4194,-0.5132,-4.150,-20.142,-16.113,140.850,33.096,-73.400
11663,-0.5928,0.3071,-0.4741,-0.977,-18.860,-13.611,140.889,33.459,-73.416
11673,-0.6069,0.2671,-0.4927,-1.099,-14.771,-9.827,140.977,33.772,-73.438
11683,-0.6025,0.2949,-0.5391,-3.967,-5.859,-3.052,141.031,33.942,-73.455
11693,-0.5898,0.3740,-0.5830,-6.165,6.470,5.554,141.031,33.920,-73.455
11703,-0.5615,0.5103,-0.6636,-4.333,18.127,13.245,141.010,33.701,-73.444
11713,-0.5156,0.6724,-0.7700,2.014,26.306,18.494,141.021,33.316,-73.416
11724,-0.4780,0.7856,-0.8613,12.329,29.419,21.057,141.125,32.844,-73.389
11733,-0.4487,0.8130,-0.9004,23.254,26.306,19.714,141.328,32.393,-73.378
11743,-0.4434,0.7764,-0.8818,30.518,14.954,13.611,141.597,32.080,-73.394
11753,-0.4658,0.6929,-0.8311,29.602,-1.953,5.127,141.844,31.976,-73.455
11763,-0.4927,0.6470,-0.7788,19.653,-18.311,-2.747,141.965,32.075,-73.564
11773,-0.5176,0.6060,-0.7217,7.446,-29.541,-7.874,141.943,32.316,-73.702
11783,-0.5400,0.5869,-0.6699,-3.357,-33.264,-10.193,141.801,32.629,-73.850
11793,-0.5557,0.5884,-0.6382,-9.521,-27.832,-10.620,141.608,32.910,-73.954
11803,-0.5581,0.5742,-0.6157,-9.949,-16.968,-10.071,141.443,33.113,-73.987
11813,-0.5439,0.6099,-0.6240,-7.080,-5.737,-8.850,141.339,33.201,-73.949
11823,-0.5327,0.6362,-0.6504,-0.549,3.052,-7.202,141.328,33.190,-73.856
11833,-0.5366,0.6206,-0.6519,6.531,8.179,-5.981,141.405,33.140,-73.740
11843,-0.5464,0.5513,-0.6123,9.949,8.545,-6.470,141.537,33.118,-73.619
11853,-0.5552,0.4629,-0.5537,8.423,3.845,-8.362,141.663,33.184,-73.510
11863,-0.5713,0.3877,-0.5127,2.136,-2.991,-9.888,141.735,33.354,-73.438
11873,-0.6006,0.3286,-0.4995,-7.080,-8.118,-9.277,141.729,33.591,-73.411
11883,-0.6245,0.3086,-0.5000,-16.541,-9.460,-6.409,141.625,33.838,-73.422
11893,-0.6401,0.3032,-0.4980,-20.996,-5.188,-2.075,141.476,34.025,-73.444
11903,-0.6440,0.3237,-0.5015,-21.301,3.357,3.723,141.317,34.107,-73.455
11917,-0.6387,0.3784,-0.5146,-16.479,12.024,9.766,141.174,34.063,-73.455
11923,-0.6221,0.4561,-0.5361,-7.324,17.273,15.259,141.081,33.909,-73.466
11933,-0.5933,0.5068,-0.5645,3.784,18.005,19.043,141.064,33.695,-73.510
11943,-0.5488,0.5723,-0.6270,12.634,14.893,20.203,141.114,33.448,-73.586
11953,-0.5103,0.6724,-0.7183,16.663,10.620,19.714,141.180,33.184,-73.691
11963,-0.5044,0.7480,-0.7832,17.334,7.385,17.761,141.246,32.932,-73.801
11973,-0.5107,0.8081,-0.8208,14.709,7.019,13.672,141.290,32.706,-73.872
11983,-0.5073,0.8281,-0.8350,9.949,8.911,7.141,141.328,32.498,-73.872
11993,-0.4976,0.8115,-0.8232,3.174,9.583,-1.465,141.345,32.338,-73.790
12003,-0.4902,0.7544,-0.7822,-5.310,7.507,-10.559,141.323,32.267,-73.636
12013,-0.4741,0.6587,-0.7114,-14.343,1.221,-18.799,141.235,32.311,-73.455
12023,-0.4834,0.5630,-0.6387,-24.658,-7.568,-24.780,141.053,32.498,-73.279
12033,-0.5220,0.4961,-0.5830,-34.363,-15.381,-27.466,140.773,32.805,-73.141
12043,-0.5625,0.4727,-0.5444,-40.222,-18.738,-26.428,140.416,33.168,-73.037
12053,-0.6040,0.4932,-0.5063,-38.818,-15.991,-21.301,140.026,33.497,-72.966
12063,-0.6255,0.5005,-0.4824,-28.198,-7.751,-13.977,139.719,33.728,-72.894
12073,-0.6304,0.4824,-0.4766,-11.475,2.258,-7.141,139.603,33.849,-72.812
12083,-0.6162,0.4526,-0.4829,4.822,11.292,-2.014,139.680,33.865,-72.708
12093,-0.5894,0.3975,-0.5020,16.418,17.883,1.282,139.933,33.810,-72.581
12103,-0.5630,0.3838,-0.5435,18.494,20.569,2.991,140.240,33.701,-72.449
12113,-0.5532,0.4165,-0.5996,13.367,21.606,4.700,140.488,33.541,-72.323
12123,-0.5425,0.4824,-0.6680,5.920,23.743,6.897,140.647,33.316,-72.208
12133,-0.5312,0.5928,-0.7451,-0.305,27.222,8.911,140.718,33.008,-72.081
12143,-0.5117,0.6777,-0.8120,-1.648,30.212,8.972,140.773,32.651,-71.938
12153,-0.4922,0.7256,-0.8481,0.977,29.785,7.324,140.856,32.289,-71.779
12163,-0.4736,0.7432,-0.8765,4.883,25.085,4.028,140.971,31.970,-71.631
12173,-0.4556,0.7432,-0.8892,8.484,15.442,-0.488,141.108,31.750,-71.510
12183,-0.4546,0.6899,-0.8721,9.949,2.991,-5.066,141.251,31.663,-71.444
12193,-0.4512,0.6089,-0.8071,6.897,-10.010,-9.399,141.339,31.723,-71.433
12203,-0.4600,0.5166,-0.7207,0.366,-21.973,-12.634,141.350,31.926,-71.477
12213,-0.5068,0.4604,-0.6479,-7.263,-30.518,-13.672,141.262,32.256,-71.576
12224,-0.5713,0.4482,-0.6055,-13.306,-32.288,-11.597,141.081,32.624,-71.708
12233,-0.6216,0.4409,-0.5566,-13.855,-26.123,-7.568,140.883,32.959,-71.834
12243,-0.6411,0.4512,-0.5068,-9.033,-16.296,-3.052,140.718,33.206,-71.927
12253,-0.6323,0.4526,-0.4946,1.282,-6.592,1.282,140.663,33.349,-71.988
12263,-0.6187,0.4478,-0.5083,13.794,0.610,5.493,140.757,33.404,-72.032
12273,-0.5894,0.4395,-0.5625,24.414,5.615,8.972,140.988,33.365,-72.076
12283,-0.5464,0.4966,-0.6548,29.419,9.399,12.085,141.273,33.217,-72.114
12293,-0.5054,0.5596,-0.7461,28.625,12.268,14.954,141.548,32.986,-72.164
12303,-0.4658,0.6538,-0.8291,22.949,14.221,15.259,141.762,32.690,-72.202
12313,-0.4370,0.7378,-0.8984,15.564,14.465,13.306,141.894,32.371,-72.219
12323,-0.4263,0.7861,-0.9224,7.507,11.719,8.911,141.943,32.097,-72.219
12333,-0.4336,0.7925,-0.8921,-1.038,4.639,2.258,141.905,31.926,-72.202
12343,-0.4526,0.7407,-0.8237,-9.705,-6.653,-6.165,141.773,31.921,-72.197
12353,-0.4824,0.6680,-0.7495,-18.372,-19.226,-14.526,141.553,32.097,-72.202
12363,-0.5229,0.5684,-0.6606,-26.184,-30.029,-20.996,141.262,32.448,-72.230
12373,-0.5630,0.4448,-0.5410,-31.982,-37.415,-25.146,140.911,32.953,-72.274
12383,-0.6147,0.3506,-0.4482,-34.729,-40.222,-26.306,140.548,33.569,-72.328
12393,-0.6514,0.3354,-0.4141,-33.813,-36.499,-23.376,140.186,34.167,-72.394
12403,-0.6421,0.4141,-0.4619,-28.442,-25.024,-16.052,139.856,34.579,-72.438
12413,-0.6001,0.5728,-0.5815,-19.043,-6.287,-5.554,139.625,34.678,-72.433
12423,-0.5552,0.7026,-0.6953,-7.202,16.235,3.235,139.559,34.481,-72.339
12433,-0.5186,0.7358,-0.7407,0.671,34.668,4.761,139.653,34.107,-72.109
12443,-0.5122,0.6255,-0.6934,0.305,39.795,-2.686,139.823,33.772,-71.774
12453,-0.5493,0.4819,-0.6152,-12.512,29.053,-15.015,139.922,33.662,-71.411
12463,-0.5879,0.4395,-0.5474,-34.485,9.888,-24.048,139.757,33.805,-71.109
12473,-0.6133,0.4644,-0.4912,-50.476,-8.789,-25.818,139.318,34.118,-70.944
12483,-0.6357,0.5479,-0.4482,-47.180,-19.531,-19.775,138.763,34.470,-70.917
12493,-0.6523,0.5884,-0.4600,-20.447,-18.250,-6.836,138.406,34.717,-70.999
12503,-0.6333,0.5562,-0.5161,21.118,-8.301,7.751,138.483,34.783,-71.136
12513,-0.5825,0.5029,-0.6001,62.561,3.967,17.761,139.048,34.656,-71.268
12523,-0.5352,0.4780,-0.7109,87.219,12.390,23.010,139.916,34.387,-71.378
12533,-0.5146,0.4590,-0.7754,90.027,13.916,24.597,140.834,34.074,-71.499
12543,-0.5142,0.4780,-0.8110,71.472,12.085,22.339,141.564,33.788,-71.614
12553,-0.5146,0.5249,-0.8247,40.222,10.315,16.296,141.982,33.547,-71.691
12563,-0.5229,0.5527,-0.8101,6.104,9.766,7.690,142.075,33.371,-71.691
12573,-0.5264,0.5859,-0.7803,-22.034,10.315,-1.404,141.916,33.250,-71.603
12583,-0.5239,0.6182,-0.7407,-38.879,8.911,-8.484,141.592,33.184,-71.455
12593,-0.5195,0.6650,-0.6753,-42.542,4.944,-11.353,141.191,33.173,-71.312
12603,-0.5225,0.7485,-0.6250,-29.846,-0.732,-8.972,140.823,33.184,-71.235
12613,-0.5356,0.7119,-0.5928,-2.197,-6.897,-3.540,140.680,33.228,-71.257
12623,-0.5464,0.6147,-0.5645,26.062,-12.817,0.427,140.801,33.322,-71.356
12633,-0.5698,0.4766,-0.5396,44.250,-18.005,1.221,141.136,33.503,-71.505
12643,-0.5986,0.3730,-0.5449,46.875,-21.973,0.671,141.553,33.755,-71.675
12653,-0.6289,0.3374,-0.5742,35.583,-21.057,1.343,141.888,34.008,-71.845
12663,-0.6416,0.3423,-0.6011,17.700,-12.695,3.113,142.081,34.173,-71.971
12673,-0.6348,0.3877,-0.6313,-2.136,1.831,3.723,142.114,34.200,-71.993
12683,-0.6040,0.4585,-0.6699,-19.592,17.700,2.502,142.015,34.074,-71.884
12693,-0.5459,0.5669,-0.6982,-31.555,28.809,0.610,141.806,33.816,-71.675
12703,-0.4990,0.7139,-0.7007,-31.372,30.457,-0.183,141.548,33.508,-71.450
12713,-0.4878,0.8110,-0.6719,-14.465,22.461,3.235,141.361,33.228,-71.312
12724,-0.5029,0.8125,-0.6426,18.127,8.850,9.460,141.400,33.025,-71.334
12733,-0.5249,0.7163,-0.6401,57.983,-4.272,14.771,141.784,32.926,-71.505
12743,-0.5488,0.5610,-0.6763,91.675,-13.245,16.479,142.542,32.915,-71.752
12753,-0.5586,0.4136,-0.7412,105.957,-15.991,15.442,143.531,32.953,-72.015
12763,-0.5557,0.3335,-0.8110,95.398,-12.878,13.733,144.498,32.970,-72.241
12773,-0.5342,0.3242,-0.8369,63.599,-6.470,10.864,145.190,32.937,-72.389
12783,-0.5054,0.3452,-0.8184,19.714,1.587,5.554,145.481,32.860,-72.433
12793,-0.4795,0.3931,-0.7715,-29.114,8.118,-2.563,145.311,32.772,-72.350
12803,-0.4736,0.5298,-0.7178,-71.472,9.766,-11.719,144.684,32.706,-72.169
12813,-0.4888,0.7256,-0.6567,-88.989,6.592,-16.479,143.784,32.690,-71.966
12823,-0.5190,0.8594,-0.6172,-72.815,0.793,-14.282,142.960,32.701,-71.823
12833,-0.5635,0.8086,-0.6162,-30.457,-5.371,-7.629,142.520,32.750,-71.790
12843,-0.5918,0.6431,-0.6455,18.555,-8.484,-3.479,142.614,32.838,-71.818
12853,-0.6006,0.4634,-0.6660,50.903,-10.559,-2.747,143.119,32.975,-71.867
12863,-0.6001,0.3281,-0.6846,59.692,-14.954,-2.869,143.778,33.168,-71.949
12873,-0.5928,0.2559,-0.6885,49.011,-20.874,-1.892,144.349,33.404,-72.076
12883,-0.5859,0.2124,-0.6499,26.001,-24.353,-0.549,144.695,33.673,-72.241
12893,-0.6011,0.2197,-0.6050,-1.343,-21.851,0.488,144.750,33.942,-72.400
12903,-0.6128,0.2529,-0.5747,-22.644,-13.794,1.404,144.580,34.146,-72.510
12913,-0.6040,0.3110,-0.5771,-32.654,-3.357,3.174,144.294,34.239,-72.565
12923,-0.5737,0.4155,-0.6377,-30.884,8.484,6.775,144.014,34.162,-72.570
12933,-0.5283,0.5435,-0.7251,-22.095,20.203,11.292,143.806,33.893,-72.537
12943,-0.4961,0.6387,-0.7949,-12.085,29.053,14.404,143.696,33.497,-72.471
12953,-0.4687,0.6973,-0.8452,-5.005,32.227,14.526,143.663,33.052,-72.383
12963,-0.4492,0.7266,-0.8628,-5.127,28.320,12.024,143.619,32.646,-72.296
12973,-0.4600,0.7153,-0.8262,-9.949,17.822,7.507,143.503,32.360,-72.246
12983,-0.4971,0.7061,-0.7500,-16.052,2.808,2.319,143.278,32.256,-72.246
12993,-0.5269,0.6895,-0.6812,-18.982,-9.644,-1.465,142.971,32.305,-72.301
13003,-0.5649,0.6484,-0.6338,-15.564,-16.235,-3.906,142.690,32.454,-72.378
13013,-0.5864,0.5679,-0.5820,-9.521,-16.663,-5.493,142.493,32.651,-72.449
13023,-0.5869,0.5059,-0.5488,-4.395,-13.794,-5.859,142.372,32.849,-72.493
13033,-0.5840,0.4985,-0.5381,-0.427,-9.033,-2.380,142.295,32.992,-72.537
13043,-0.5708,0.5171,-0.5508,4.150,-2.563,4.395,142.245,33.025,-72.598
13053,-0.5483,0.5488,-0.5884,9.827,4.028,10.742,142.251,32.943,-72.669
13063,-0.5410,0.5674,-0.6274,14.099,9.033,14.038,142.311,32.783,-72.735
13073,-0.5464,0.5615,-0.6626,15.442,11.963,13.672,142.416,32.602,-72.773
13084,-0.5537,0.5400,-0.6841,11.292,13.855,10.498,142.520,32.426,-72.773
13093,-0.5620,0.4961,-0.6733,3.418,13.489,4.883,142.592,32.305,-72.724
13104,-0.5698,0.4438,-0.6548,-5.371,11.597,-1.343,142.625,32.256,-72.625
13113,-0.5703,0.4302,-0.6494,-14.038,9.399,-5.676,142.586,32.256,-72.504
13123,-0.5474,0.4761,-0.6567,-18.066,8.179,-6.653,142.487,32.250,-72.383
13134,-0.5210,0.5352,-0.6689,-13.428,8.362,-3.845,142.394,32.201,-72.290
13144,-0.5186,0.5464,-0.6782,-1.221,8.362,1.404,142.394,32.113,-72.241
13154,-0.5171,0.5552,-0.7183,13.489,7.690,5.615,142.531,31.992,-72.235
13164,-0.5161,0.6035,-0.7910,23.743,7.446,7.446,142.756,31.844,-72.252
13174,-0.5239,0.5830,-0.8076,25.818,7.507,6.409,143.020,31.707,-72.263
13184,-0.5293,0.5244,-0.7729,17.029,4.944,1.526,143.229,31.635,-72.241
13194,-0.5156,0.4917,-0.7505,0.061,0.610,-5.310,143.295,31.646,-72.186
13204,-0.5088,0.4575,-0.7178,-17.822,-2.747,-11.169,143.207,31.723,-72.098
13214,-0.5142,0.4961,-0.6851,-31.494,-3.357,-13.306,142.954,31.827,-71.999
13224,-0.5166,0.5723,-0.6494,-32.471,-0.916,-10.010,142.635,31.882,-71.911
13233,-0.5332,0.5767,-0.5820,-16.785,0.610,-2.747,142.410,31.904,-71.878
13243,-0.5640,0.5366,-0.5552,8.484,-0.793,4.517,142.405,31.926,-71.927
13254,-0.5762,0.5029,-0.5889,31.677,-2.258,10.071,142.630,31.932,-72.037
13264,-0.5552,0.5044,-0.7002,44.250,-1.587,13.184,143.015,31.871,-72.175
13274,-0.4907,0.5825,-0.8916,41.443,4.150,13.123,143.416,31.690,-72.268
13284,-0.4336,0.6602,-1.0415,25.940,14.832,9.949,143.718,31.393,-72.257
13294,-0.4082,0.7187,-1.0728,2.625,24.231,2.380,143.844,31.047,-72.114
13304,-0.4150,0.6860,-0.9175,-22.644,23.254,-9.583,143.740,30.806,-71.862
13314,-0.4780,0.5581,-0.6201,-40.649,4.883,-21.484,143.405,30.883,-71.625
13324,-0.5771,0.3765,-0.3193,-43.457,-26.306,-27.161,142.877,31.437,-71.554
13334,-0.6685,0.2783,-0.1621,-31.738,-56.335,-24.963,142.251,32.360,-71.719
13344,-0.7354,0.2168,-0.1763,-5.798,-66.711,-13.794,141.872,33.333,-72.076
13354,-0.7563,0.2334,-0.3501,25.024,-43.884,2.686,141.976,33.937,-72.422
13364,-0.6597,0.3984,-0.6396,45.227,4.639,20.508,142.394,33.843,-72.587
13374,-0.5195,0.6348,-0.9448,48.584,54.626,33.386,142.960,33.124,-72.504
13384,-0.3765,0.8306,-1.1182,36.865,84.229,33.447,143.487,32.080,-72.213
13393,-0.2896,0.9141,-1.0991,15.320,84.045,20.142,143.811,31.086,-71.818
13403,-0.2944,0.8667,-0.9380,-10.437,56.091,0.488,143.839,30.454,-71.433
13414,-0.4058,0.7764,-0.7388,-29.663,9.460,-17.700,143.558,30.383,-71.202
13424,-0.5122,0.6621,-0.6108,-31.433,-34.668,-28.137,143.152,30.817,-71.180
13434,-0.6045,0.4941,-0.5459,-16.602,-60.791,-28.564,142.855,31.553,-71.340
13444,-0.6704,0.3013,-0.5117,5.615,-60.852,-22.827,142.861,32.338,-71.554
13454,-0.6841,0.1758,-0.5415,22.217,-39.673,-14.465,143.196,32.921,-71.702
13463,-0.6328,0.1626,-0.6172,25.391,-10.498,-4.456,143.652,33.146,-71.735
13474,-0.5630,0.2715,-0.7017,15.991,15.381,5.615,143.992,33.025,-71.680
13484,-0.4902,0.4404,-0.7622,1.709,32.349,11.780,144.130,32.662,-71.565
13494,-0.4409,0.5854,-0.7598,-9.949,35.706,10.437,144.091,32.234,-71.417
13504,-0.4370,0.6592,-0.7500,-13.550,26.489,4.761,143.976,31.910,-71.279
13514,-0.4756,0.6846,-0.7583,-11.047,10.803,-0.916,143.849,31.756,-71.197
13524,-0.5127,0.6509,-0.7886,-2.991,-4.272,-5.188,143.800,31.772,-71.175
13534,-0.5337,0.5649,-0.8198,6.653,-12.573,-7.629,143.871,31.882,-71.191
13544,-0.5352,0.4595,-0.8115,10.315,-12.573,-8.362,144.036,32.009,-71.202
13554,-0.5288,0.3877,-0.7622,7.202,-6.592,-8.423,144.218,32.108,-71.164
13564,-0.5552,0.3345,-0.6338,0.610,2.991,-8.484,144.355,32.190,-71.065
13574,-0.5957,0.2983,-0.4678,-6.470,15.015,-9.521,144.426,32.272,-70.867
13584,-0.6270,0.2676,-0.3335,-12.146,28.931,-11.230,144.437,32.338,-70.560
13594,-0.6533,0.2729,-0.3247,-16.235,45.471,-11.719,144.454,32.289,-70.137
13604,-0.6392,0.3828,-0.4614,-18.311,66.833,-7.690,144.514,31.937,-69.604
13614,-0.5508,0.6470,-0.7090,-15.686,90.942,1.831,144.608,31.174,-69.000
13624,-0.4253,0.8906,-0.9673,-3.235,107.544,12.207,144.816,30.103,-68.384
13633,-0.3062,1.0313,-1.1465,14.526,105.713,16.663,145.234,29.141,-67.841
13643,-0.2246,0.9717,-1.1743,30.823,80.444,12.268,145.745,28.411,-67.429
13653,-0.2119,0.8027,-1.0718,34.729,32.166,0.854,146.184,28.141,-67.231
13664,-0.3057,0.5845,-0.8823,25.452,-26.550,-12.573,146.415,28.433,-67.280
13674,-0.4224,0.4121,-0.6953,8.789,-78.125,-23.193,146.376,29.213,-67.555
13684,-0.5654,0.3281,-0.5835,-4.883,-98.816,-28.870,146.157,30.196,-67.901
13694,-0.6655,0.2446,-0.5186,-10.925,-79.407,-29.297,145.931,31.014,-68.132
13704,-0.6719,0.2466,-0.5083,-13.428,-36.621,-23.499,145.789,31.454,-68.148
13714,-0.6006,0.2944,-0.5674,-9.644,12.268,-11.658,145.794,31.415,-67.950
13724,-0.5122,0.4028,-0.6572,-3.357,51.636,1.282,145.931,30.981,-67.626
13734,-0.4424,0.5293,-0.7168,1.160,67.505,9.399,146.124,30.372,-67.275
13744,-0.4341,0.6499,-0.7715,7.935,55.237,11.719,146.327,29.844,-67.028
13754,-0.4438,0.7373,-0.8115,9.888,26.123,11.597,146.453,29.564,-66.973
13764,-0.4707,0.7363,-0.8315,12.634,-9.949,8.423,146.508,29.603,-67.121
13774,-0.4810,0.6201,-0.8218,13.123,-43.579,2.136,146.492,29.954,-67.418
13784,-0.4985,0.4790,-0.8042,8.423,-65.002,-4.700,146.393,30.520,-67.786
13794,-0.5137,0.3530,-0.7720,0.488,-75.928,-10.010,146.195,31.207,-68.176
13804,-0.5312,0.3223,-0.7568,-9.827,-72.876,-11.414,145.909,31.877,-68.538
13814,-0.5444,0.3389,-0.7134,-17.700,-53.650,-9.460,145.596,32.377,-68.802
13824,-0.5474,0.4224,-0.6509,-20.935,-28.809,-4.456,145.305,32.635,-68.950
13834,-0.5210,0.5181,-0.6050,-16.907,-6.042,2.869,145.102,32.668,-69.016
13844,-0.5044,0.5552,-0.6133,-3.296,10.193,9.277,145.058,32.536,-69.038
13854,-0.4927,0.5586,-0.6787,10.681,15.381,10.193,145.168,32.349,-69.033
13864,-0.5059,0.5356,-0.7656,19.714,7.629,5.859,145.360,32.256,-69.038
13874,-0.5112,0.5151,-0.8516,18.738,-4.028,2.258,145.519,32.272,-69.088
13884,-0.5234,0.4854,-0.8955,12.146,-19.226,0.793,145.569,32.426,-69.225
13894,-0.5098,0.4312,-0.8711,2.991,-38.452,2.197,145.448,32.734,-69.505
13904,-0.4907,0.3882,-0.8071,-6.531,-65.430,5.920,145.113,33.239,-70.005
13918,-0.4751,0.3926,-0.7651,-14.404,-99.670,12.756,144.531,33.981,-70.812
13924,-0.5000,0.4854,-0.7676,-14.526,-124.512,20.203,143.784,34.882,-71.878
13934,-0.5405,0.5781,-0.7881,-3.540,-113.220,22.095,143.157,35.662,-72.911
13944,-0.5693,0.6328,-0.7192,12.329,-79.163,18.921,142.833,36.183,-73.685
13954,-0.5752,0.6128,-0.5820,26.123,-41.809,14.526,142.828,36.425,-74.141
13964,-0.5991,0.5625,-0.4780,32.166,-9.827,10.376,143.042,36.442,-74.317
13974,-0.6343,0.5010,-0.4370,26.672,13.611,7.385,143.328,36.288,-74.290
13984,-0.6558,0.4194,-0.4307,12.451,29.297,5.981,143.542,36.019,-74.130
13994,-0.6577,0.4043,-0.4492,-6.287,39.429,5.676,143.619,35.667,-73.894
14004,-0.6396,0.4546,-0.4941,-20.813,43.579,7.141,143.553,35.277,-73.647
14014,-0.5859,0.6045,-0.5723,-23.926,40.283,10.010,143.427,34.893,-73.455
14024,-0.5278,0.7612,-0.6597,-14.648,31.555,13.367,143.339,34.557,-73.356
14034,-0.5107,0.8198,-0.7241,3.479,19.226,14.282,143.372,34.321,-73.356
14044,-0.5181,0.7700,-0.7993,19.958,5.371,10.437,143.536,34.211,-73.416
14054,-0.5376,0.6201,-0.8447,30.151,-1.465,1.587,143.822,34.217,-73.444
14064,-0.5610,0.4517,-0.8130,27.893,1.099,-10.132,144.163,34.266,-73.339
14074,-0.5850,0.3633,-0.7456,12.024,5.615,-18.860,144.410,34.332,-73.114
14084,-0.5913,0.2837,-0.6499,-5.249,11.169,-21.851,144.520,34.371,-72.817
14094,-0.5811,0.2285,-0.4932,-21.729,13.306,-19.348,144.465,34.371,-72.537
14104,-0.5957,0.2539,-0.4126,-30.701,13.672,-12.329,144.283,34.332,-72.318
14114,-0.6143,0.2900,-0.4360,-24.536,16.418,-1.831,144.113,34.211,-72.180
14124,-0.5937,0.3872,-0.5825,-9.216,20.264,9.888,144.047,33.986,-72.136
14134,-0.5303,0.5508,-0.8076,8.911,26.062,20.630,144.124,33.657,-72.153
14144,-0.4683,0.6616,-0.9932,24.231,28.503,27.527,144.349,33.146,-72.219
14154,-0.4185,0.7256,-1.0859,30.762,23.743,27.405,144.619,32.640,-72.323
14164,-0.3828,0.7349,-1.0566,25.452,15.564,19.226,144.833,32.245,-72.400
14174,-0.3965,0.7339,-0.9326,9.399,4.456,5.981,144.882,32.036,-72.427
14184,-0.4546,0.6904,-0.7769,-8.179,-6.409,-6.836,144.750,32.047,-72.405
14194,-0.5254,0.5444,-0.5918,-18.372,-11.475,-16.235,144.536,32.239,-72.328
14204,-0.5767,0.4399,-0.4409,-24.170,-10.559,-21.484,144.272,32.558,-72.191
14214,-0.6289,0.3809,-0.3857,-22.400,-3.967,-20.203,144.047,32.871,-72.026
14224,-0.6445,0.3789,-0.4404,-12.817,7.202,-13.245,143.970,33.041,-71.845
14234,-0.6108,0.4360,-0.5781,-0.854,19.348,-3.540,144.042,32.975,-71.675
14244,-0.5791,0.4883,-0.7285,10.559,27.466,5.554,144.245,32.728,-71.537
14254,-0.5527,0.5386,-0.8369,16.602,25.269,10.925,144.476,32.426,-71.466
14264,-0.5122,0.5078,-0.8379,16.785,11.414,11.597,144.668,32.223,-71.505
14274,-0.4932,0.4927,-0.7915,10.681,-11.475,8.301,144.723,32.223,-71.658
14284,-0.4917,0.5264,-0.7617,2.258,-31.189,3.357,144.624,32.415,-71.906
14294,-0.5176,0.5723,-0.7852,-1.831,-32.654,-1.099,144.487,32.640,-72.120
14304,-0.5347,0.6328,-0.8252,-2.563,-12.268,-3.601,144.415,32.706,-72.169
14314,-0.5059,0.6270,-0.8223,-1.099,21.606,-3.723,144.481,32.487,-71.982
14324,-0.4507,0.5991,-0.7734,-2.319,51.575,-3.296,144.646,32.009,-71.598
14334,-0.4424,0.5366,-0.7075,-7.446,50.537,-8.667,144.778,31.597,-71.169
14344,-0.4785,0.5303,-0.6543,-17.395,19.714,-14.038,144.706,31.498,-70.900
14354,-0.5327,0.5366,-0.6328,-23.621,-18.677,-15.808,144.437,31.750,-70.873
14364,-0.5737,0.4941,-0.6147,-19.836,-53.772,-13.489,144.080,32.305,-71.115
14374,-0.5908,0.3989,-0.5903,-7.019,-74.890,-9.155,143.800,33.030,-71.548
14384,-0.6299,0.2886,-0.5894,11.597,-73.608,-4.395,143.762,33.755,-72.021
14394,-0.6313,0.2129,-0.5977,27.222,-53.162,0.488,143.987,34.288,-72.405
14404,-0.6250,0.2271,-0.6016,30.334,-24.780,5.920,144.311,34.552,-72.642
14414,-0.5962,0.3130,-0.5957,21.118,4.578,12.085,144.547,34.514,-72.724
14424,-0.5654,0.4619,-0.6216,8.789,29.968,16.357,144.651,34.195,-72.675
14434,-0.5151,0.6436,-0.7046,0.244,46.753,16.418,144.673,33.662,-72.510
14444,-0.4629,0.7710,-0.7861,0.305,47.852,11.536,144.706,33.102,-72.290
14454,-0.4604,0.8140,-0.8560,4.272,36.804,5.188,144.778,32.657,-72.087
14464,-0.4697,0.7764,-0.9077,7.202,21.606,-1.343,144.882,32.377,-71.927
14474,-0.4795,0.7236,-0.9072,5.371,5.249,-7.324,144.959,32.278,-71.823
14484,-0.5010,0.6270,-0.8335,0.427,-11.108,-12.207,144.965,32.371,-71.779
14494,-0.5259,0.4937,-0.7031,-5.676,-26.733,-15.320,144.888,32.668,-71.812
14504,-0.5605,0.4375,-0.5898,-12.817,-36.560,-16.296,144.701,33.102,-71.906
14514,-0.5903,0.4067,-0.5210,-16.418,-33.936,-14.709,144.459,33.547,-71.993
14524,-0.6021,0.3496,-0.4985,-13.489,-20.752,-11.536,144.316,33.893,-72.026
14534,-0.5986,0.3501,-0.5508,-8.362,-2.075,-7.568,144.300,34.041,-71.966
14544,-0.5908,0.3735,-0.6475,-2.197,15.686,-3.418,144.415,33.975,-71.823
14554,-0.5869,0.3677,-0.7192,2.380,25.024,-0.793,144.624,33.799,-71.642
14564,-0.5781,0.3589,-0.7520,2.380,22.217,-0.061,144.833,33.629,-71.483
14574,-0.5752,0.3662,-0.7490,-1.282,10.925,0.916,144.948,33.547,-71.417
14584,-0.5527,0.4102,-0.7344,-4.761,-2.441,3.540,144.932,33.547,-71.466
14594,-0.5059,0.4941,-0.7485,-2.991,-11.047,7.263,144.833,33.552,-71.614
14604,-0.4717,0.5400,-0.7666,3.967,-9.949,11.719,144.772,33.497,-71.801
14614,-0.4644,0.5693,-0.7666,11.230,-3.235,14.526,144.783,33.365,-71.966
14624,-0.4707,0.5444,-0.7354,14.648,3.052,14.954,144.844,33.195,-72.092
14634,-0.5049,0.5317,-0.6812,11.475,6.958,12.939,144.888,33.036,-72.169
14644,-0.5728,0.4893,-0.6011,3.479,6.836,9.521,144.855,32.959,-72.213
14654,-0.6494,0.3691,-0.4932,-6.042,1.892,5.188,144.761,33.052,-72.252
14664,-0.6753,0.3457,-0.4702,-16.113,-4.639,1.099,144.569,33.245,-72.296
14674,-0.6406,0.4692,-0.5527,-20.691,-6.104,1.831,144.283,33.365,-72.356
14684,-0.5542,0.6602,-0.7246,-13.550,-0.183,8.118,144.036,33.278,-72.433
14694,-0.4331,0.8188,-0.9102,1.282,9.521,15.442,143.943,32.975,-72.515
14704,-0.3618,0.9243,-1.0278,15.076,16.357,17.029,144.009,32.563,-72.565
14714,-0.3638,0.9204,-1.0342,23.132,17.822,12.390,144.185,32.168,-72.559
14725,-0.4443,0.7549,-0.9326,22.095,10.864,2.014,144.399,31.954,-72.504
14734,-0.5459,0.4502,-0.7173,10.254,-4.944,-12.695,144.580,32.075,-72.416
14744,-0.6152,0.2554,-0.5317,-11.597,-25.085,-25.696,144.602,32.563,-72.345
14754,-0.6465,0.1689,-0.4062,-27.466,-38.757,-29.785,144.470,33.278,-72.323
14764,-0.6543,0.1606,-0.3672,-31.189,-41.260,-22.400,144.245,33.992,-72.389
14774,-0.6138,0.3599,-0.5112,-23.071,-29.602,-7.080,143.943,34.376,-72.526
14784,-0.5464,0.6074,-0.7495,-2.563,-3.174,11.108,143.817,34.288,-72.658
14794,-0.4946,0.8071,-0.9585,21.790,22.339,23.682,143.954,33.843,-72.729
14804,-0.4409,0.8887,-1.0552,39.978,35.278,25.452,144.311,33.256,-72.729
14814,-0.4233,0.7715,-0.9941,47.485,28.259,15.503,144.783,32.789,-72.686
14824,-0.4614,0.5688,-0.8545,34.973,3.235,-1.831,145.168,32.690,-72.642
14834,-0.5059,0.4448,-0.7002,4.761,-25.146,-19.531,145.250,32.992,-72.625
14844,-0.5415,0.3081,-0.5239,-25.574,-45.959,-31.799,145.036,33.629,-72.625
14854,-0.6094,0.2656,-0.3979,-47.729,-55.176,-34.241,144.553,34.453,-72.669
14864,-0.6621,0.3223,-0.3828,-51.514,-45.227,-27.222,143.970,35.162,-72.719
14874,-0.6758,0.4053,-0.4351,-36.255,-19.348,-12.390,143.531,35.524,-72.735
14884,-0.6641,0.4624,-0.5249,-10.620,8.545,4.028,143.394,35.513,-72.708
14894,-0.6348,0.5371,-0.6494,15.808,31.311,14.954,143.564,35.189,-72.631
14904,-0.5937,0.5850,-0.7832,33.447,43.396,17.090,143.976,34.706,-72.482
14914,-0.5298,0.5537,-0.8525,38.391,40.710,12.390,144.481,34.233,-72.312
14924,-0.4668,0.4976,-0.8418,27.161,27.161,4.456,144.882,33.904,-72.164
14934,-0.4580,0.4443,-0.7729,4.150,8.423,-3.845,145.031,33.788,-72.070
14944,-0.4907,0.4487,-0.7065,-21.118,-11.841,-9.583,144.855,33.904,-72.054
14954,-0.5273,0.5679,-0.7310,-36.072,-23.193,-10.315,144.437,34.113,-72.114
14964,-0.5396,0.7407,-0.8516,-35.217,-18.188,-5.188,143.992,34.200,-72.191
14974,-0.5010,0.8643,-0.9858,-20.630,-1.282,0.732,143.723,34.074,-72.208
14984,-0.4785,0.7842,-0.9326,-2.808,14.954,2.014,143.707,33.816,-72.120
14994,-0.5293,0.4951,-0.7119,9.033,14.954,-6.409,143.904,33.712,-71.949
15004,-0.6372,0.1060,-0.3843,5.554,-4.150,-20.325,144.256,34.107,-71.785
15014,-0.7349,-0.1689,-0.0942,-12.268,-33.447,-30.151,-119.152,34.958,-71.724
15024,-0.7510,-0.1357,-0.0728,-31.006,-57.983,-27.954,-119.004,35.431,-70.939
15034,-0.6987,0.4058,-0.5054,-33.997,-45.837,-7.935,141.235,35.700,-70.400
15044,-0.5518,0.8970,-0.9819,-16.724,12.878,24.170,140.960,35.321,-70.532
15054,-0.4126,1.2300,-1.2959,6.104,68.481,47.424,141.064,34.492,-70.455
15064,-0.2930,1.3032,-1.2627,34.119,93.140,47.424,141.553,33.464,-70.192
15074,-0.3071,0.8662,-0.9346,59.082,79.956,26.367,142.333,32.679,-69.846
15084,-0.4507,0.3394,-0.6099,46.082,33.752,-8.057,142.971,32.459,-69.527
15094,-0.6152,0.1084,-0.3735,-5.127,-24.414,-38.940,143.026,32.888,-69.329
15104,-0.7559,-0.0410,-0.2065,-48.401,-71.838,-57.068,-168.766,33.805,-69.302
15114,-0.8242,-0.1172,-0.1489,-66.772,-93.384,-55.908,-168.942,34.612,-68.423
15124,-0.7769,0.1973,-0.4048,-60.547,-77.087,-32.898,154.017,35.305,-67.852
15134,-0.6304,0.6353,-0.8071,-33.020,-16.846,6.958,153.589,35.425,-68.016
15144,-0.5000,0.9258,-1.0830,6.226,50.232,44.312,153.528,34.783,-68.231
15154,-0.3784,1.0820,-1.1157,43.152,84.351,54.199,153.885,33.783,-68.362
15164,-0.3203,0.9082,-0.8940,70.923,76.660,38.696,154.589,32.926,-68.379
15174,-0.3877,0.4229,-0.6216,68.726,42.053,10.559,155.330,32.498,-68.275
15184,-0.5171,0.1587,-0.4985,21.973,-4.700,-19.226,155.649,32.624,-68.093
15194,-0.6152,0.1416,-0.4741,-35.522,-44.800,-40.588,155.413,33.201,-67.874
15204,-0.6870,0.2695,-0.4814,-66.650,-65.369,-44.067,154.830,33.975,-67.720
15214,-0.6763,0.4648,-0.5854,-64.941,-57.251,-27.527,154.182,34.612,-67.709
15225,-0.6211,0.6177,-0.7275,-37.781,-21.240,0.488,153.737,34.799,-67.830
15234,-0.5615,0.6929,-0.8174,6.958,22.217,23.926,153.726,34.497,-67.972
15244,-0.5156,0.7310,-0.8101,39.246,48.218,32.654,154.067,33.920,-68.066
15254,-0.5005,0.6108,-0.7227,58.044,46.143,25.085,154.627,33.393,-68.093
15264,-0.5640,0.3701,-0.6021,49.927,25.085,10.559,155.138,33.124,-68.082
15274,-0.6167,0.2178,-0.5264,17.517,-4.395,-6.470,155.336,33.190,-68.033
15284,-0.6294,0.2388,-0.5439,-20.874,-30.640,-18.799,155.154,33.547,-67.983
15294,-0.5918,0.5620,-0.7261,-45.105,-37.476,-17.639,154.709,33.959,-67.978
15304,-0.5229,0.7852,-0.8730,-38.513,-15.076,-3.967,154.303,34.113,-68.011
15314,-0.4883,0.8008,-0.8882,-12.512,15.259,10.315,154.160,33.931,-68.044
15324,-0.4756,0.7778,-0.8145,15.686,34.302,14.954,154.325,33.558,-68.027
15334,-0.5166,0.6230,-0.6709,32.898,33.508,10.010,154.693,33.212,-67.961
15344,-0.5288,0.4321,-0.4868,27.710,11.658,0.244,155.001,33.107,-67.906
15354,-0.6289,0.3691,-0.4287,9.583,-12.573,-9.155,155.116,33.256,-67.868
15364,-0.6304,0.2783,-0.4463,-8.850,-22.766,-12.268,155.039,33.514,-67.852
15374,-0.6875,0.2939,-0.5566,-21.301,-14.709,-10.254,154.847,33.695,-67.813
15384,-0.6196,0.4971,-0.7974,-22.888,9.888,-2.747,154.660,33.613,-67.731
15394,-0.5220,0.6924,-0.9424,-14.587,35.950,8.850,154.561,33.250,-67.643
15404,-0.4287,0.8325,-1.0181,4.028,48.157,16.113,154.644,32.750,-67.571
15414,-0.3809,0.8433,-1.0010,22.827,44.250,15.198,154.907,32.283,-67.511
15424,-0.4009,0.6187,-0.7979,28.137,23.193,6.409,155.215,32.047,-67.462
15434,-0.4624,0.3687,-0.5522,16.113,-9.094,-7.996,155.396,32.162,-67.418
15444,-0.5801,0.0679,-0.3511,-3.235,-39.368,-21.301,155.380,32.607,-67.385
15454,-0.7241,-0.1377,-0.2417,-23.010,-57.068,-26.917,-150.326,33.239,-67.379
15464,-0.7622,0.0176,-0.3711,-39.124,-46.509,-19.714,177.286,33.547,-66.896
15474,-0.6958,0.5483,-0.7520,-39.734,-3.601,4.822,176.852,33.580,-66.956
15484,-0.5464,1.0674,-1.1772,-15.930,57.373,35.461,176.479,32.986,-67.346
15494,-0.3320,1.4312,-1.4087,16.785,103.027,50.232,176.364,31.926,-67.868
15504,-0.1567,1.1470,-1.1553,47.974,106.689,40.405,176.633,30.839,-68.264
15514,-0.2476,0.4966,-0.7598,54.138,61.951,7.080,177.155,30.212,-68.302
15524,-0.4731,0.1401,-0.4727,15.686,-9.827,-30.212,177.484,30.328,-67.956
15534,-0.6777,-0.1162,-0.2510,-32.898,-79.712,-54.016,-155.149,31.146,-67.374
15544,-0.8711,-0.3823,-0.0449,-66.040,-127.808,-56.091,-155.182,32.075,-66.149
15554,-0.9048,-0.2866,-0.0464,-80.994,-138.672,-36.804,-155.418,33.179,-65.072
15564,-0.8159,0.3794,-0.4819,-66.345,-93.567,7.568,141.784,34.058,-64.688
15574,-0.6284,0.9775,-0.9814,-16.602,9.216,62.439,141.328,33.602,-65.209
15584,-0.4224,1.3403,-1.1743,45.898,98.572,91.492,141.718,32.261,-65.330
15594,-0.2134,1.4351,-1.1187,88.379,135.254,78.186,142.745,30.712,-65.061
15604,-0.0713,1.1973,-1.0122,106.750,119.019,45.898,144.025,29.487,-64.649
15614,-0.2095,0.7363,-0.8901,81.360,62.439,5.859,145.020,28.949,-64.286
15624,-0.4932,0.2974,-0.6567,11.597,-12.390,-34.973,145.256,29.251,-64.039
15634,-0.7061,0.0391,-0.4385,-63.171,-78.247,-69.885,144.695,30.289,-63.891
15644,-0.7974,0.1128,-0.1934,-109.619,-111.572,-79.346,143.597,31.663,-63.885
15654,-0.7783,0.1270,-0.0605,-100.891,-111.084,-59.753,142.482,32.910,-64.094
15664,-0.7612,0.2788,-0.2964,-50.781,-77.148,-20.264,141.773,33.646,-64.462
15674,-0.6782,0.5669,-0.7065,15.869,-5.859,22.339,141.790,33.552,-64.720
15684,-0.5259,0.8740,-1.0537,74.707,75.134,49.805,142.586,32.651,-64.633
15694,-0.3447,0.9761,-1.1982,94.116,115.906,45.776,143.745,31.454,-64.226
15704,-0.2412,0.8418,-1.1118,77.576,104.431,22.339,144.789,30.482,-63.715
15714,-0.3291,0.4043,-0.8799,35.950,49.683,-6.775,145.349,30.114,-63.320
15725,-0.4512,0.1704,-0.6753,-28.381,-15.686,-36.316,145.190,30.449,-63.073
15734,-0.5439,0.2012,-0.5200,-84.229,-73.914,-53.589,144.355,31.360,-63.056
15744,-0.6558,0.3096,-0.4497,-92.346,-103.760,-47.180,143.295,32.481,-63.314
15754,-0.6924,0.3457,-0.5249,-56.885,-97.656,-21.484,142.465,33.393,-63.803
15764,-0.6523,0.4663,-0.7354,-1.465,-51.819,9.888,142.191,33.745,-64.270
15774,-0.5718,0.5967,-0.9092,48.401,10.620,35.583,142.531,33.442,-64.534
15784,-0.4595,0.6836,-0.9272,75.378,54.993,44.312,143.273,32.734,-64.556
15794,-0.4106,0.5586,-0.7578,70.374,60.486,32.532,144.042,32.053,-64.435
15804,-0.5005,0.3408,-0.5488,38.391,29.785,10.986,144.481,31.750,-64.330
15814,-0.6001,0.2900,-0.4546,-10.803,-8.789,-8.240,144.382,31.866,-64.314
15824,-0.6528,0.3164,-0.4189,-50.598,-39.429,-18.127,143.828,32.294,-64.407
15834,-0.6567,0.5146,-0.5391,-61.707,-48.035,-13.916,143.102,32.767,-64.611
15844,-0.5854,0.8281,-0.8247,-41.504,-23.560,3.113,142.581,32.932,-64.808
15854,-0.4541,1.1074,-1.1074,-1.953,20.447,22.278,142.526,32.635,-64.874
15864,-0.3101,1.2739,-1.2383,33.997,60.486,31.555,142.938,31.965,-64.731
15874,-0.2729,1.0366,-1.0156,48.218,69.336,21.912,143.575,31.278,-64.446
15884,-0.4590,0.4741,-0.6226,34.302,37.476,-4.028,144.069,31.003,-64.149
15894,-0.6719,0.0005,-0.2930,-6.592,-13.977,-35.950,144.130,31.328,-63.902
15904,-0.7954,-0.2979,-0.0820,-55.786,-63.416,-57.983,-105.397,32.179,-63.792
15919,-0.8467,-0.3677,-0.0020,-86.304,-86.792,-58.899,-105.634,31.844,-62.617
15924,-0.7720,-0.0317,-0.2266,-79.651,-71.777,-31.677,-105.947,31.729,-61.699
15934,-0.6299,0.5420,-0.7520,-34.607,-22.095,16.296,144.212,31.948,-61.507
15944,-0.4653,0.9287,-1.1221,31.006,46.326,61.340,144.382,31.212,-61.771
15954,-0.2769,1.1133,-1.3086,83.679,88.379,75.806,145.157,30.053,-61.891
15964,-0.1948,1.2344,-1.3438,97.412,84.900,58.960,146.135,29.020,-61.891
15974,-0.2773,1.0361,-1.1362,71.472,47.913,28.625,146.865,28.460,-61.859
15984,-0.5049,0.5293,-0.7163,16.785,-4.333,-7.996,147.057,28.542,-61.809
15994,-0.6753,0.1201,-0.3301,-49.500,-52.673,-42.297,146.596,29.213,-61.727
16004,-0.7300,0.0356,-0.0762,-95.154,-81.543,-57.861,145.662,30.212,-61.688
16014,-0.7500,0.0635,0.0640,-90.149,-81.970,-42.542,144.701,31.130,-61.820
16024,-0.7461,0.0732,0.0630,-36.560,-57.068,-5.127,144.157,31.624,-62.155
16034,-0.7104,0.2905,-0.2271,37.354,-12.085,33.386,144.322,31.531,-62.556
16044,-0.6211,0.6826,-0.7559,96.680,49.744,59.692,145.168,30.778,-62.781
16054,-0.4692,1.0278,-1.2407,114.319,101.563,65.308,146.338,29.570,-62.732
16064,-0.3447,1.1719,-1.4629,93.506,124.268,47.913,147.437,28.268,-62.397
16074,-0.2744,0.9849,-1.3477,54.321,109.985,14.221,148.233,27.268,-61.864
16084,-0.3330,0.5732,-1.0054,2.502,58.838,-23.682,148.524,26.889,-61.287
16094,-0.4375,0.3706,-0.6606,-54.626,-8.423,-52.307,148.184,27.235,-60.837
16104,-0.5444,0.3647,-0.4155,-85.571,-69.397,-56.519,147.387,28.125,-60.710
16114,-0.6245,0.3535,-0.3325,-70.740,-106.995,-34.180,146.525,29.207,-61.035
16124,-0.6680,0.3057,-0.4277,-21.851,-104.065,-5.493,146.008,30.108,-61.639
16134,-0.6821,0.3232,-0.6167,30.823,-58.533,14.648,146.058,30.509,-62.161
16144,-0.6201,0.3950,-0.8281,66.223,5.981,27.344,146.607,30.306,-62.386
16154,-0.4810,0.4751,-0.9536,68.054,52.124,31.738,147.299,29.696,-62.358
16164,-0.4014,0.4687,-0.9160,44.189,57.434,24.292,147.799,29.081,-62.238
16174,-0.4316,0.4746,-0.8105,5.432,30.029,10.193,147.898,28.773,-62.155
16184,-0.4463,0.5107,-0.6343,-32.776,-3.723,-1.892,147.568,28.817,-62.155
16194,-0.4912,0.5986,-0.5220,-50.232,-34.180,-6.653,146.997,29.141,-62.303
16204,-0.5586,0.6733,-0.5820,-37.842,-49.500,-1.221,146.470,29.564,-62.600
16214,-0.6030,0.7373,-0.7480,-2.197,-43.884,9.766,146.266,29.872,-62.974
16225,-0.5957,0.7002,-0.8311,38.513,-27.893,20.325,146.464,29.993,-63.347
16234,-0.5557,0.4990,-0.7031,68.787,-14.587,26.001,146.981,29.971,-63.688
16244,-0.5869,0.2202,-0.5166,79.102,-13.306,24.841,147.612,29.949,-64.012
16254,-0.6450,0.0850,-0.3779,64.514,-17.883,23.499,148.085,29.971,-64.352
16264,-0.6870,0.0459,-0.3604,38.574,-17.822,27.405,148.282,29.982,-64.731
16274,-0.6606,0.2036,-0.5522,9.705,2.625,35.645,148.211,29.767,-65.061
16284,-0.5229,0.6162,-0.8804,-15.625,46.570,43.335,147.986,29.147,-65.204
