elapsed_ms,acc_x_g,acc_y_g,acc_z_g,gyro_x_dps,gyro_y_dps,gyro_z_dps,angle_x_deg,angle_y_deg,angle_z_deg
0,-0.5874,0.6206,-0.5654,-24.109,-37.109,-15.808,133.566,33.074,-100.151
11,-0.5933,0.6953,-0.6489,-12.756,-19.653,-8.057,133.380,33.256,-100.256
20,-0.5781,0.7256,-0.6689,3.052,1.770,0.122,133.407,33.212,-100.239
30,-0.5557,0.6562,-0.6396,18.188,18.982,5.798,133.660,33.019,-100.124
40,-0.5444,0.5718,-0.5908,23.315,27.405,9.399,134.000,32.772,-99.965
50,-0.5410,0.5376,-0.5620,17.090,24.353,10.437,134.258,32.552,-99.844
60,-0.5356,0.5444,-0.5454,6.042,13.672,9.583,134.346,32.410,-99.805
70,-0.5415,0.5527,-0.5483,-3.479,1.831,7.263,134.291,32.371,-99.849
80,-0.5420,0.6289,-0.6060,-9.766,-5.188,5.249,134.143,32.366,-99.937
90,-0.5366,0.7261,-0.6812,-9.583,-3.235,4.517,134.006,32.316,-100.003
100,-0.5210,0.7886,-0.7344,-2.441,4.150,4.333,133.973,32.190,-100.003
110,-0.5044,0.7939,-0.7456,6.958,11.108,3.784,134.066,32.014,-99.943
120,-0.4985,0.7407,-0.7168,13.123,14.038,3.479,134.242,31.827,-99.849
130,-0.4956,0.6938,-0.6777,12.329,10.132,1.709,134.401,31.701,-99.778
140,-0.5068,0.5972,-0.5859,3.845,0.244,-2.258,134.451,31.707,-99.756
150,-0.5283,0.4912,-0.4800,-9.949,-16.113,-8.057,134.319,31.937,-99.827
160,-0.5552,0.4409,-0.4009,-22.278,-32.898,-13.916,133.989,32.371,-99.992
170,-0.5713,0.4458,-0.4067,-29.297,-44.617,-17.944,133.561,32.921,-100.223
180,-0.5986,0.5762,-0.4922,-28.442,-44.312,-15.869,133.116,33.387,-100.475
190,-0.6060,0.7017,-0.6055,-15.564,-26.611,-7.690,132.847,33.624,-100.646
200,-0.5947,0.8047,-0.7051,2.014,2.075,2.991,132.847,33.541,-100.651
210,-0.5562,0.7725,-0.7017,18.372,31.067,12.024,133.116,33.190,-100.475
220,-0.5249,0.6118,-0.5732,25.818,47.546,16.113,133.528,32.739,-100.190
230,-0.5156,0.4624,-0.4624,21.912,40.649,11.719,133.896,32.437,-99.937
240,-0.5215,0.4087,-0.3989,7.202,18.433,5.249,134.028,32.371,-99.822
250,-0.5376,0.4849,-0.4404,-8.545,-3.052,1.770,133.907,32.448,-99.866
260,-0.5532,0.6475,-0.5669,-15.076,-13.367,1.770,133.660,32.531,-99.992
270,-0.5464,0.8271,-0.6982,-7.507,-8.423,5.432,133.489,32.492,-100.107
280,-0.5288,0.9307,-0.7915,13.000,7.751,10.010,133.577,32.278,-100.124
290,-0.5068,0.8247,-0.7695,34.851,25.085,12.512,133.978,31.937,-100.009
300,-0.4897,0.6738,-0.6865,45.410,30.701,10.376,134.533,31.602,-99.838
310,-0.4907,0.5366,-0.5859,39.429,22.156,4.211,135.033,31.415,-99.684
320,-0.5005,0.4556,-0.5273,19.714,1.465,-2.563,135.286,31.470,-99.651
330,-0.5146,0.5200,-0.5381,-2.258,-18.860,-7.080,135.220,31.679,-99.750
340,-0.5293,0.6299,-0.6206,-16.663,-28.625,-8.362,134.962,31.932,-99.915
350,-0.5396,0.7378,-0.6846,-18.372,-23.682,-4.944,134.676,32.097,-100.074
360,-0.5454,0.7051,-0.6558,-8.972,-10.010,-1.892,134.539,32.151,-100.140
370,-0.5415,0.6304,-0.6113,3.906,-0.183,-2.014,134.577,32.162,-100.124
380,-0.5347,0.5723,-0.5845,12.634,5.066,-2.930,134.747,32.157,-100.058
390,-0.5410,0.5308,-0.5835,12.695,4.700,-2.747,134.940,32.168,-99.998
400,-0.5376,0.5503,-0.5874,5.798,0.854,-1.282,135.022,32.190,-99.976
410,-0.5293,0.6289,-0.6196,-2.563,-0.793,1.282,134.984,32.173,-99.998
420,-0.5244,0.6851,-0.6479,-5.554,1.831,3.723,134.907,32.102,-100.009
430,-0.5205,0.6641,-0.6230,-3.662,4.639,4.333,134.852,32.014,-100.009
440,-0.5283,0.6143,-0.5830,-0.549,4.272,2.380,134.841,31.970,-99.992
450,-0.5347,0.5605,-0.5654,4.150,0.366,-1.099,134.896,31.992,-99.981
460,-0.5396,0.5972,-0.6104,5.981,-4.395,-2.686,134.951,32.047,-99.992
470,-0.5405,0.6206,-0.6372,6.226,-3.845,-1.404,135.011,32.075,-100.014
480,-0.5322,0.6582,-0.6626,4.456,-0.427,0.854,135.049,32.047,-100.025
490,-0.5171,0.6768,-0.6714,1.099,5.737,2.319,135.077,31.954,-99.998
500,-0.5259,0.6055,-0.6216,-1.160,8.301,2.014,135.099,31.877,-99.943
511,-0.5312,0.5708,-0.5591,-4.761,3.601,-0.488,135.060,31.871,-99.910
520,-0.5410,0.5366,-0.5269,-5.371,-3.479,-2.808,135.000,31.954,-99.915
530,-0.5415,0.5742,-0.5503,-3.845,-10.986,-4.089,134.918,32.086,-99.976
540,-0.5269,0.7148,-0.6733,-0.916,-15.137,-5.920,134.852,32.190,-100.052
550,-0.5254,0.8125,-0.7690,2.502,-14.038,-9.277,134.841,32.283,-100.091
560,-0.5166,0.8110,-0.7627,5.920,-16.052,-16.968,134.890,32.443,-100.085
570,-0.4971,0.7432,-0.6943,9.277,-27.466,-28.992,134.967,32.772,-100.074
580,-0.5088,0.6104,-0.5786,8.606,-47.363,-39.795,135.005,33.365,-100.135
590,-0.5405,0.5200,-0.4932,1.709,-75.012,-49.866,134.890,34.277,-100.349
600,-0.5679,0.4927,-0.4600,-5.127,-99.670,-57.251,134.615,35.436,-100.717
610,-0.6011,0.5415,-0.4976,-7.935,-113.892,-56.396,134.225,36.661,-101.223
620,-0.6450,0.6128,-0.5776,-5.005,-112.427,-46.265,133.813,37.776,-101.827
630,-0.6782,0.6626,-0.6328,0.122,-94.116,-31.555,133.456,38.633,-102.409
640,-0.6748,0.6299,-0.6182,7.629,-64.880,-17.944,133.270,39.194,-102.854
650,-0.6523,0.5557,-0.5425,12.207,-35.706,-7.019,133.231,39.490,-103.129
660,-0.6333,0.4814,-0.4575,12.451,-14.160,0.549,133.270,39.628,-103.266
670,-0.6167,0.4360,-0.4131,8.789,-0.549,6.104,133.319,39.650,-103.326
680,-0.6377,0.4482,-0.4165,4.150,6.226,10.254,133.336,39.595,-103.359
690,-0.6475,0.4912,-0.4458,-0.854,13.672,15.442,133.308,39.441,-103.365
700,-0.6611,0.5347,-0.5015,-4.333,25.452,20.142,133.303,39.150,-103.304
710,-0.6499,0.6226,-0.5679,-4.272,40.283,22.339,133.363,38.699,-103.123
720,-0.6294,0.6592,-0.6016,0.549,52.307,20.569,133.550,38.161,-102.821
730,-0.5918,0.6396,-0.5908,7.324,53.345,14.771,133.835,37.650,-102.458
740,-0.5820,0.6182,-0.5776,12.207,41.260,6.409,134.143,37.293,-102.134
750,-0.5864,0.5913,-0.5659,11.292,23.499,-0.183,134.379,37.112,-101.920
760,-0.5918,0.6050,-0.5928,6.226,5.066,-4.028,134.489,37.084,-101.843
770,-0.6021,0.6230,-0.6157,1.587,-8.972,-6.531,134.495,37.167,-101.865
780,-0.6133,0.6470,-0.6255,-1.343,-15.869,-7.751,134.429,37.304,-101.937
790,-0.6143,0.6528,-0.6196,-1.953,-15.991,-7.874,134.357,37.441,-102.014
800,-0.6089,0.6011,-0.5835,0.183,-12.939,-8.057,134.330,37.573,-102.057
810,-0.6074,0.5454,-0.5381,1.465,-11.841,-8.728,134.330,37.727,-102.090
820,-0.6118,0.5015,-0.4937,0.854,-12.695,-9.033,134.319,37.908,-102.123
830,-0.6152,0.4751,-0.4683,-1.343,-14.771,-8.057,134.269,38.117,-102.184
840,-0.6333,0.5186,-0.5029,-3.601,-14.038,-5.493,134.182,38.282,-102.266
850,-0.6519,0.5796,-0.5586,-3.723,-5.859,-0.366,134.116,38.331,-102.316
860,-0.6528,0.6494,-0.6353,-1.587,7.629,5.493,134.116,38.216,-102.294
870,-0.6426,0.6733,-0.6802,1.953,25.940,11.230,134.231,37.914,-102.156
880,-0.6211,0.6294,-0.6396,3.540,42.358,15.442,134.429,37.480,-101.909
890,-0.5889,0.5171,-0.5186,1.587,45.715,14.465,134.621,37.073,-101.624
900,-0.5684,0.4165,-0.3965,-3.845,31.677,8.179,134.698,36.870,-101.415
910,-0.5688,0.4116,-0.3887,-10.681,8.789,0.671,134.621,36.887,-101.343
920,-0.5972,0.5625,-0.5220,-15.564,-8.057,-2.380,134.418,36.974,-101.393
930,-0.6299,0.7300,-0.6709,-12.451,-7.019,0.732,134.236,36.969,-101.464
940,-0.6270,0.8057,-0.7354,-2.075,8.240,7.019,134.203,36.793,-101.448
950,-0.6011,0.7441,-0.6938,11.841,24.658,11.292,134.385,36.480,-101.327
960,-0.5693,0.6143,-0.5840,20.752,31.982,12.024,134.687,36.145,-101.146
970,-0.5581,0.5176,-0.4966,22.034,24.841,8.423,134.978,35.931,-101.003
980,-0.5693,0.4883,-0.4976,16.113,10.010,3.845,135.176,35.870,-100.948
990,-0.5903,0.5576,-0.5864,8.118,-2.258,1.282,135.253,35.876,-100.981
1000,-0.6001,0.6626,-0.6919,1.343,-3.540,2.136,135.247,35.848,-101.030
1011,-0.5898,0.7124,-0.7417,-0.122,5.371,3.113,135.264,35.733,-101.008
1020,-0.5679,0.6880,-0.7017,0.793,14.343,2.991,135.335,35.552,-100.909
1030,-0.5547,0.5854,-0.6074,0.977,16.052,0.183,135.428,35.414,-100.772
1040,-0.5562,0.5225,-0.5352,1.770,5.676,-5.371,135.505,35.425,-100.679
1050,-0.5713,0.4600,-0.4595,-0.122,-10.620,-9.338,135.489,35.623,-100.690
1060,-0.5977,0.5020,-0.5288,0.061,-27.222,-12.268,135.428,35.936,-100.816
1070,-0.6221,0.5586,-0.6060,-0.183,-29.236,-10.071,135.352,36.227,-100.981
1080,-0.6279,0.6074,-0.6494,0.549,-20.020,-4.578,135.291,36.387,-101.113
1090,-0.6108,0.6973,-0.7095,1.038,-4.089,1.526,135.275,36.359,-101.162
1100,-0.5884,0.6709,-0.7080,3.357,15.442,7.507,135.363,36.145,-101.096
1110,-0.5640,0.6284,-0.6372,3.357,26.917,10.986,135.478,35.837,-100.959
1120,-0.5537,0.5142,-0.5063,1.282,24.719,9.338,135.555,35.618,-100.827
1130,-0.5645,0.4360,-0.4268,-1.587,9.460,3.784,135.555,35.596,-100.778
1140,-0.5874,0.4966,-0.4897,-7.263,-6.897,0.305,135.439,35.689,-100.838
1150,-0.6118,0.6611,-0.6611,-8.911,-10.376,1.404,135.286,35.728,-100.942
1160,-0.6064,0.7637,-0.7598,-5.371,2.319,5.737,135.214,35.607,-100.970
1170,-0.5796,0.7739,-0.7612,-0.732,18.799,9.338,135.247,35.332,-100.887
1180,-0.5464,0.6489,-0.6382,4.395,28.503,10.742,135.368,35.013,-100.739
1190,-0.5303,0.4937,-0.4883,3.479,21.790,6.592,135.472,34.838,-100.607
1200,-0.5459,0.4023,-0.3687,-3.174,-0.671,-0.854,135.412,34.953,-100.607
1210,-0.5771,0.4067,-0.3340,-9.949,-26.917,-5.737,135.148,35.310,-100.789
1220,-0.6162,0.5933,-0.5127,-12.268,-44.006,-5.676,134.797,35.684,-101.118
1230,-0.6558,0.8325,-0.7495,-7.324,-32.288,2.930,134.517,35.837,-101.426
1240,-0.6406,0.8921,-0.8379,2.258,2.197,12.878,134.473,35.651,-101.519
1250,-0.5757,0.8125,-0.7524,10.864,32.776,16.846,134.643,35.222,-101.376
1260,-0.5229,0.5923,-0.5474,14.771,45.715,12.146,134.940,34.794,-101.080
1270,-0.5161,0.4180,-0.3994,5.066,32.593,1.221,135.132,34.629,-100.811
1280,-0.5352,0.3901,-0.3403,-11.169,3.662,-9.155,135.044,34.777,-100.701
1290,-0.5747,0.4067,-0.3389,-24.048,-21.240,-14.099,134.714,35.151,-100.761
1300,-0.6167,0.5596,-0.4844,-27.100,-34.485,-15.015,134.313,35.546,-100.931
1310,-0.6440,0.7422,-0.6802,-15.198,-23.987,-8.057,134.061,35.739,-101.074
1320,-0.6362,0.8252,-0.8052,3.967,5.493,2.625,134.121,35.612,-101.047
1330,-0.5869,0.7905,-0.7842,20.264,35.217,10.742,134.451,35.217,-100.827
1340,-0.5493,0.6016,-0.6411,31.372,51.941,12.268,134.984,34.739,-100.481
1350,-0.5405,0.4219,-0.4961,26.978,43.762,5.981,135.483,34.442,-100.157
1360,-0.5483,0.3940,-0.4590,10.132,16.113,-1.221,135.703,34.409,-100.009
1370,-0.5767,0.4795,-0.5259,-6.531,-7.935,-3.784,135.643,34.541,-100.042
1380,-0.5957,0.6025,-0.6577,-17.395,-18.555,-2.869,135.412,34.684,-100.173
1390,-0.5898,0.7866,-0.8130,-15.137,-11.963,0.549,135.209,34.695,-100.283
1400,-0.5654,0.7949,-0.8438,-4.883,10.010,3.601,135.203,34.508,-100.228
1410,-0.5244,0.6880,-0.7363,3.967,24.597,3.235,135.363,34.244,-100.042
1420,-0.5103,0.5303,-0.5464,7.751,21.973,-1.831,135.560,34.096,-99.844
1430,-0.5303,0.3540,-0.3921,4.761,1.526,-8.911,135.681,34.261,-99.750
1440,-0.5498,0.3418,-0.3604,-4.211,-25.940,-12.878,135.588,34.667,-99.860
1450,-0.5884,0.5303,-0.5469,-11.719,-41.016,-11.292,135.330,35.068,-100.107
1460,-0.6328,0.7354,-0.7437,-10.986,-28.809,-0.977,135.088,35.239,-100.349
1470,-0.6187,0.8413,-0.8706,-1.709,1.343,9.338,135.038,35.085,-100.421
1480,-0.5737,0.8662,-0.9028,9.033,32.349,15.747,135.220,34.640,-100.278
1490,-0.5176,0.6714,-0.7622,17.639,54.626,15.991,135.615,34.069,-99.948
1500,-0.5068,0.4561,-0.5435,11.414,48.645,8.057,135.961,33.684,-99.602
1511,-0.5259,0.3330,-0.3403,-6.836,15.930,-3.418,135.978,33.739,-99.443
1520,-0.5659,0.2324,-0.1714,-24.170,-25.696,-11.963,135.582,34.294,-99.553
1530,-0.5962,0.3037,-0.2427,-36.316,-65.674,-17.334,134.929,35.107,-99.959
1540,-0.6362,0.6929,-0.5757,-31.616,-75.989,-12.878,134.253,35.728,-100.508
1550,-0.6689,0.9517,-0.8604,-10.620,-39.917,4.761,133.896,35.887,-100.898
1560,-0.6230,1.0000,-0.9312,13.062,14.160,20.447,133.989,35.530,-100.948
1570,-0.5376,0.9487,-0.8623,39.612,57.495,26.917,134.522,34.816,-100.668
1580,-0.4639,0.6704,-0.6162,51.208,80.505,23.865,135.291,34.008,-100.173
1590,-0.4697,0.3633,-0.3926,40.405,62.256,10.498,135.956,33.574,-99.734
1600,-0.4912,0.2905,-0.3071,8.545,16.357,-3.662,136.137,33.640,-99.569
1610,-0.5361,0.3213,-0.3008,-20.264,-25.269,-12.085,135.846,34.074,-99.673
1620,-0.5913,0.4668,-0.4341,-34.424,-57.922,-16.418,135.286,34.684,-100.020
1630,-0.6343,0.7373,-0.6914,-31.921,-64.209,-12.390,134.698,35.195,-100.459
1640,-0.6523,0.9033,-0.8799,-10.559,-37.659,-1.465,134.412,35.392,-100.778
1650,-0.6211,0.9336,-0.9595,15.320,1.282,7.202,134.550,35.228,-100.827
1660,-0.5464,0.8633,-0.8804,37.842,35.950,10.986,135.055,34.788,-100.607
1670,-0.4985,0.5771,-0.6353,41.565,51.331,8.667,135.703,34.321,-100.239
1680,-0.4888,0.3496,-0.4092,23.743,30.273,-1.465,136.126,34.195,-99.970
1690,-0.5024,0.2842,-0.2954,-5.920,-10.498,-10.071,136.066,34.503,-99.970
1700,-0.5508,0.3042,-0.2842,-30.579,-46.875,-14.282,135.582,35.123,-100.239
1710,-0.6099,0.5171,-0.5020,-42.419,-66.650,-15.137,134.901,35.750,-100.679
1720,-0.6709,0.7959,-0.7905,-33.325,-51.331,-8.057,134.352,36.118,-101.058
1730,-0.6650,0.9209,-0.9248,-7.507,-7.935,2.441,134.231,36.063,-101.151
1740,-0.6035,0.8477,-0.8325,15.686,32.959,8.606,134.517,35.684,-100.931
1750,-0.5327,0.5503,-0.5513,31.006,50.842,7.324,135.049,35.266,-100.547
1760,-0.5127,0.3550,-0.3853,27.283,36.133,-1.831,135.527,35.118,-100.217
1770,-0.5200,0.3965,-0.3564,7.507,7.874,-5.066,135.632,35.189,-100.107
1780,-0.5518,0.4761,-0.4224,-8.484,-14.404,-3.418,135.450,35.370,-100.201
1790,-0.5815,0.6646,-0.6152,-13.123,-24.719,0.183,135.176,35.513,-100.415
1800,-0.5967,0.8750,-0.8394,-7.080,-10.620,7.751,135.000,35.442,-100.574
1810,-0.5674,0.9302,-0.9214,9.216,21.240,14.221,135.121,35.074,-100.514
1820,-0.5264,0.7520,-0.7812,22.644,43.640,15.503,135.494,34.568,-100.272
1830,-0.5137,0.5298,-0.5684,23.865,41.016,6.592,135.906,34.222,-99.981
1840,-0.5229,0.4204,-0.4204,10.376,17.395,-5.676,136.110,34.211,-99.783
1850,-0.5654,0.3335,-0.2954,-9.277,-13.062,-13.123,135.978,34.568,-99.778
1860,-0.6021,0.2944,-0.2544,-24.841,-44.495,-18.555,135.560,35.239,-99.992
1870,-0.6392,0.5107,-0.4888,-28.809,-61.279,-19.287,135.049,35.876,-100.349
1880,-0.6724,0.7710,-0.8164,-19.226,-38.452,-7.141,134.720,36.145,-100.624
1890,-0.6406,0.9180,-1.0161,-1.038,12.390,9.705,134.753,35.876,-100.596
1900,-0.5566,0.9683,-1.0474,20.447,61.951,20.081,135.176,35.299,-100.228
1910,-0.4370,0.8047,-0.8535,38.696,91.614,19.775,135.917,34.508,-99.608
1920,-0.4185,0.4600,-0.5400,40.100,78.918,7.690,136.659,33.887,-99.009
1930,-0.4575,0.2759,-0.3149,15.930,29.358,-6.592,136.989,33.723,-98.712
1940,-0.5122,0.2378,-0.2109,-17.578,-25.085,-15.747,136.774,34.014,-98.778
1950,-0.5566,0.2490,-0.2124,-40.466,-69.092,-22.095,136.159,34.667,-99.152
1960,-0.6123,0.4482,-0.4336,-44.434,-95.581,-22.766,135.368,35.513,-99.761
1970,-0.6895,0.7695,-0.7637,-27.771,-80.505,-10.010,134.742,36.156,-100.366
1980,-0.7017,0.9150,-0.9307,-0.244,-24.780,11.230,134.550,36.255,-100.684
1990,-0.6348,0.9424,-0.9482,27.710,37.354,25.513,134.890,35.810,-100.574
2000,-0.5239,0.8916,-0.8530,49.500,83.130,29.968,135.659,35.008,-100.107
2011,-0.4458,0.6904,-0.6499,57.373,95.764,22.583,136.588,34.167,-99.487
2020,-0.4497,0.3804,-0.4282,42.847,66.040,8.423,137.285,33.629,-99.014
2030,-0.4902,0.2515,-0.2983,9.583,12.329,-3.784,137.455,33.563,-98.882
2040,-0.5303,0.2925,-0.2935,-27.222,-34.180,-10.254,137.076,33.887,-99.069
2050,-0.5825,0.5044,-0.5122,-46.570,-65.002,-13.428,136.379,34.453,-99.481
2060,-0.6289,0.8120,-0.8369,-45.410,-62.805,-8.179,135.670,34.964,-99.937
2070,-0.6343,0.9570,-0.9854,-25.208,-28.564,1.343,135.275,35.156,-100.190
2080,-0.5928,0.8667,-0.8965,4.761,7.507,4.761,135.335,35.074,-100.168
2090,-0.5278,0.5718,-0.6240,20.996,25.879,2.625,135.659,34.871,-99.970
2100,-0.5020,0.3589,-0.4233,18.738,15.259,-4.700,135.945,34.794,-99.800
2110,-0.5044,0.3452,-0.3511,1.953,-11.597,-8.606,135.950,34.937,-99.822
2120,-0.5361,0.4238,-0.4053,-11.475,-39.795,-8.850,135.687,35.283,-100.080
2130,-0.5752,0.5957,-0.5688,-16.724,-56.458,-4.150,135.258,35.717,-100.525
2140,-0.6084,0.7886,-0.7729,-12.573,-46.753,6.592,134.863,36.002,-100.992
2150,-0.6055,0.8721,-0.8657,1.343,-13.489,16.418,134.725,35.980,-101.250
2160,-0.5728,0.7720,-0.7515,15.015,18.188,18.860,134.874,35.722,-101.255
2170,-0.5454,0.5259,-0.5273,19.470,27.710,11.353,135.148,35.442,-101.113
2180,-0.5400,0.3833,-0.3770,8.057,13.733,-2.136,135.308,35.359,-100.975
2190,-0.5537,0.3809,-0.3091,-9.827,-9.216,-10.681,135.220,35.502,-100.959
2200,-0.6001,0.4663,-0.3779,-20.996,-29.907,-13.916,134.929,35.810,-101.096
2210,-0.6353,0.6870,-0.6221,-20.386,-31.860,-8.789,134.610,36.101,-101.299
2220,-0.6416,0.8394,-0.8413,-8.667,-5.188,3.052,134.478,36.112,-101.371
2230,-0.6060,0.9106,-0.9722,7.629,31.189,13.184,134.648,35.799,-101.212
2240,-0.5342,0.8101,-0.8765,23.132,63.599,19.287,135.110,35.217,-100.822
2250,-0.4858,0.5259,-0.6094,27.954,67.749,13.245,135.659,34.645,-100.349
2260,-0.4834,0.3496,-0.4043,17.029,37.598,0.916,136.011,34.371,-100.042
2270,-0.5166,0.3130,-0.2852,-4.089,-2.747,-6.409,135.983,34.431,-100.009
2280,-0.5654,0.3252,-0.2559,-20.752,-37.415,-9.277,135.648,34.766,-100.239
2290,-0.5977,0.5425,-0.4893,-26.306,-58.350,-9.766,135.148,35.250,-100.651
2300,-0.6187,0.8550,-0.7954,-19.836,-40.649,0.061,134.747,35.541,-101.003
2310,-0.5908,1.0313,-0.9995,-4.395,6.042,14.038,134.665,35.398,-101.074
2320,-0.5205,1.0474,-0.9683,14.343,53.528,21.851,134.967,34.865,-100.794
2330,-0.4561,0.7427,-0.6621,29.907,77.698,17.334,135.566,34.195,-100.272
2340,-0.4634,0.4292,-0.3740,27.710,61.951,1.770,136.126,33.739,-99.761
2350,-0.5059,0.2959,-0.2148,5.432,21.057,-13.245,136.346,33.679,-99.476
2360,-0.5649,0.2578,-0.1392,-19.714,-23.926,-22.400,136.143,34.008,-99.476
2370,-0.6084,0.3369,-0.2979,-33.081,-62.134,-27.649,135.659,34.645,-99.756
2380,-0.6665,0.6440,-0.7021,-32.227,-67.688,-21.423,135.115,35.283,-100.146
2390,-0.6763,0.9214,-1.0308,-19.592,-26.550,-1.160,134.791,35.475,-100.366
2400,-0.6147,1.0303,-1.1563,7.019,31.494,15.503,134.945,35.145,-100.223
2410,-0.4956,0.9561,-0.9873,31.494,77.209,23.010,135.527,34.437,-99.756
2420,-0.4326,0.5947,-0.6328,46.021,85.876,15.625,136.324,33.712,-99.163
2430,-0.4482,0.3013,-0.3862,34.119,50.354,-0.427,136.901,33.354,-98.740
2440,-0.4785,0.2422,-0.2739,1.465,-3.296,-11.414,136.956,33.453,-98.668
2450,-0.5361,0.2329,-0.2310,-25.696,-54.138,-18.066,136.538,33.975,-98.948
2460,-0.5820,0.3452,-0.3867,-38.757,-95.337,-21.301,135.813,34.810,-99.553
2470,-0.6489,0.6885,-0.7510,-40.405,-97.473,-13.000,135.005,35.601,-100.267
2480,-0.6709,0.9355,-0.9780,-20.508,-52.551,3.479,134.517,35.947,-100.756
2490,-0.6265,0.9536,-1.0137,9.338,5.005,13.245,134.566,35.821,-100.827
2500,-0.5303,0.8491,-0.8208,28.809,47.852,15.930,135.022,35.370,-100.541
2511,-0.4668,0.5010,-0.4619,33.813,60.913,9.705,135.615,34.871,-100.102
2520,-0.4712,0.2749,-0.2451,19.165,31.860,-3.357,135.978,34.667,-99.800
2530,-0.5005,0.3174,-0.2207,-7.629,-9.705,-9.521,135.901,34.805,-99.800
2540,-0.5527,0.4438,-0.3481,-24.536,-38.818,-9.766,135.516,35.151,-100.042
2550,-0.6182,0.6538,-0.5962,-25.146,-46.143,-4.517,135.060,35.508,-100.399
2560,-0.6396,0.7954,-0.7749,-10.864,-26.672,4.944,134.797,35.662,-100.673
2570,-0.6128,0.8613,-0.9092,13.062,4.211,12.024,134.885,35.552,-100.739
2580,-0.5654,0.8730,-0.9604,30.151,35.278,16.296,135.286,35.184,-100.574
2590,-0.5156,0.7061,-0.7920,31.982,54.688,15.686,135.797,34.684,-100.239
2600,-0.4961,0.5107,-0.5581,18.066,42.358,5.737,136.154,34.343,-99.932
2610,-0.5137,0.3691,-0.3521,-4.944,7.812,-6.409,136.170,34.332,-99.811
2620,-0.5571,0.3530,-0.2749,-24.353,-30.945,-13.916,135.851,34.651,-99.948
2630,-0.5933,0.5649,-0.4810,-33.630,-56.702,-15.564,135.319,35.167,-100.289
2640,-0.6138,0.7910,-0.7178,-27.161,-50.171,-7.690,134.835,35.574,-100.657
2650,-0.6006,0.8892,-0.8662,-8.545,-20.203,2.441,134.637,35.700,-100.854
2660,-0.5596,0.8516,-0.8169,12.817,13.306,8.240,134.791,35.546,-100.805
2670,-0.5195,0.5781,-0.5483,28.137,35.156,8.423,135.209,35.239,-100.574
2680,-0.5283,0.3369,-0.3325,25.513,28.687,-0.549,135.610,35.041,-100.322
2690,-0.5508,0.2329,-0.1963,7.385,6.958,-7.751,135.758,35.046,-100.195
2700,-0.5996,0.2187,-0.1924,-10.010,-17.944,-12.146,135.632,35.261,-100.239
2710,-0.6230,0.4766,-0.4780,-18.372,-32.288,-10.620,135.341,35.563,-100.426
2720,-0.6328,0.8281,-0.8530,-14.404,-12.695,4.089,135.110,35.629,-100.569
2730,-0.5977,1.0181,-1.0981,0.977,27.954,21.240,135.154,35.277,-100.514
2740,-0.5156,1.0449,-1.1265,20.325,65.735,31.128,135.527,34.590,-100.217
2750,-0.4224,0.8945,-0.9448,38.147,83.557,27.466,136.181,33.805,-99.745
2760,-0.4321,0.5259,-0.5937,39.124,66.040,12.146,136.818,33.245,-99.300
2770,-0.4834,0.3325,-0.3960,16.296,16.663,-7.080,137.087,33.168,-99.097
2780,-0.5308,0.2861,-0.2603,-17.639,-32.227,-20.447,136.868,33.547,-99.185
2790,-0.5791,0.2134,-0.1846,-38.147,-73.975,-29.236,136.291,34.283,-99.531
2800,-0.6182,0.3901,-0.4111,-44.067,-96.619,-27.954,135.533,35.178,-100.096
2810,-0.6675,0.7349,-0.7617,-37.659,-72.266,-9.888,134.852,35.760,-100.629
2820,-0.6445,0.9897,-1.0435,-10.864,-9.888,12.573,134.626,35.744,-100.827
2830,-0.5518,1.1064,-1.0967,18.494,55.725,29.114,134.951,35.145,-100.591
2840,-0.4404,1.0259,-0.8887,41.565,98.328,32.715,135.692,34.217,-100.020
2850,-0.3799,0.6738,-0.5298,54.199,100.952,21.362,136.609,33.344,-99.355
2860,-0.4351,0.2676,-0.2456,41.565,56.152,3.662,137.263,32.915,-98.921
2871,-0.4844,0.2349,-0.1763,1.892,-8.240,-10.071,137.296,33.041,-98.899
2881,-0.5693,0.2739,-0.1924,-31.677,-55.542,-19.165,136.824,33.580,-99.185
2890,-0.6333,0.3213,-0.3516,-46.753,-83.313,-25.085,136.099,34.360,-99.646
2900,-0.6958,0.6128,-0.7168,-45.410,-77.759,-18.494,135.368,35.046,-100.140
2910,-0.6890,0.8594,-0.9785,-24.170,-33.081,-1.526,134.973,35.294,-100.410
2920,-0.6143,0.9717,-1.0625,5.981,17.639,12.817,135.055,35.079,-100.366
2930,-0.5000,1.0298,-1.0000,27.893,56.213,22.156,135.500,34.525,-100.074
2940,-0.4102,0.8213,-0.7388,39.795,71.411,22.034,136.137,33.860,-99.657
2950,-0.4048,0.4731,-0.4243,32.593,46.509,10.620,136.626,33.453,-99.360
2960,-0.4492,0.2983,-0.2637,9.094,-6.287,-3.052,136.703,33.519,-99.388
2970,-0.5059,0.3267,-0.2329,-19.043,-50.659,-10.071,136.329,33.953,-99.717
2980,-0.5928,0.3950,-0.3730,-35.767,-76.416,-12.939,135.681,34.596,-100.239
2990,-0.6714,0.6118,-0.6782,-34.546,-68.054,-10.742,135.060,35.162,-100.723
3000,-0.6587,0.7803,-0.8936,-19.409,-20.325,-3.906,134.786,35.332,-100.865
3011,-0.6025,0.8921,-0.9639,0.671,32.471,3.235,134.940,35.079,-100.607
3020,-0.5288,0.7979,-0.7817,15.320,68.054,7.141,135.396,34.547,-100.085
3030,-0.4863,0.5693,-0.5327,24.231,70.923,2.991,135.967,34.025,-99.503
3040,-0.4902,0.3511,-0.2847,16.541,42.542,-3.845,136.351,33.745,-99.113
3051,-0.5444,0.1646,-0.0913,-0.854,-3.418,-9.033,136.368,33.832,-99.064
3061,-0.5708,0.2456,-0.2227,-13.794,-48.401,-12.817,136.071,34.266,-99.355
3070,-0.5962,0.7417,-0.7603,-16.724,-57.617,-5.432,135.659,34.722,-99.789
3080,-0.5825,1.0757,-1.1489,-9.521,-13.245,14.343,135.428,34.717,-100.031
3090,-0.5278,1.1499,-1.1685,3.540,36.316,26.184,135.511,34.272,-99.943
3100,-0.4355,1.0229,-0.8633,18.555,63.599,24.658,135.879,33.646,-99.619
3110,-0.4307,0.5508,-0.4546,31.555,59.937,8.362,136.434,33.157,-99.190
3121,-0.4795,0.3101,-0.3018,19.165,24.658,-10.132,136.785,33.047,-98.899
3130,-0.5269,0.3574,-0.3169,-8.484,-9.094,-19.714,136.752,33.250,-98.800
3140,-0.5957,0.3838,-0.3516,-21.606,-32.410,-23.315,136.500,33.646,-98.866
3150,-0.6353,0.4854,-0.5366,-25.513,-43.274,-20.630,136.148,34.102,-99.042
3160,-0.6206,0.7148,-0.8042,-19.470,-24.414,-9.155,135.884,34.343,-99.168
3170,-0.5464,0.8833,-0.9526,-2.869,12.939,5.493,135.890,34.211,-99.108
3180,-0.4941,0.9058,-0.9077,20.569,39.917,15.137,136.208,33.821,-98.899
3190,-0.4536,0.6421,-0.6641,34.607,47.791,15.259,136.703,33.371,-98.635
3200,-0.4707,0.4194,-0.4810,29.968,27.649,6.653,137.093,33.124,-98.465
3210,-0.5068,0.3472,-0.3945,9.583,-2.380,-0.366,137.181,33.140,-98.481
3221,-0.5669,0.2910,-0.3369,-10.132,-32.837,-4.456,136.956,33.415,-98.712
3230,-0.5962,0.3877,-0.4829,-23.315,-58.899,-5.920,136.489,33.882,-99.141
3240,-0.6167,0.7236,-0.8438,-27.466,-54.199,2.197,135.950,34.261,-99.608
3250,-0.5620,1.0127,-1.1074,-16.113,-12.024,14.587,135.659,34.244,-99.838
3260,-0.4795,1.0786,-1.0996,3.052,31.982,20.142,135.747,33.876,-99.739
3270,-0.4077,0.9023,-0.8086,20.020,52.246,16.052,136.115,33.393,-99.437
3280,-0.4111,0.4712,-0.4150,24.963,37.781,0.977,136.533,33.113,-99.135
3291,-0.4863,0.2451,-0.1914,7.263,-4.944,-14.343,136.648,33.245,-99.053
3301,-0.5454,0.1611,-0.0649,-20.630,-47.363,-24.963,136.351,33.761,-99.223
3311,-0.6333,0.1416,-0.1123,-36.865,-79.224,-30.884,135.764,34.547,-99.613
3320,-0.7012,0.4229,-0.4819,-40.283,-79.590,-25.269,135.104,35.294,-100.063
3331,-0.7129,0.8442,-0.9067,-30.396,-27.771,-3.601,134.681,35.519,-100.272
3341,-0.6333,1.0928,-1.1421,-4.272,45.288,19.287,134.769,35.063,-100.047
3351,-0.4956,1.2271,-1.1152,24.719,100.342,31.860,135.357,34.129,-99.448
3360,-0.3608,1.0244,-0.8159,51.880,121.277,27.710,136.324,33.069,-98.657
3370,-0.3550,0.5708,-0.4736,60.364,94.666,10.254,137.302,32.316,-97.965
3381,-0.4131,0.3423,-0.3286,33.386,32.715,-7.446,137.812,32.124,-97.641
3391,-0.4595,0.3179,-0.2759,-8.118,-30.396,-19.165,137.692,32.481,-97.712
3401,-0.5415,0.3022,-0.2710,-38.757,-78.491,-27.039,137.093,33.245,-98.102
3410,-0.6284,0.4360,-0.4639,-54.077,-98.755,-27.588,136.247,34.151,-98.663
3421,-0.6777,0.7310,-0.7896,-48.950,-74.707,-17.700,135.494,34.816,-99.135
3430,-0.6362,0.9453,-0.9805,-22.766,-23.437,-4.272,135.170,35.013,-99.294
3441,-0.5791,1.0347,-0.9927,10.925,24.109,5.188,135.374,34.805,-99.135
3450,-0.4849,0.8501,-0.7339,34.058,56.946,9.705,135.945,34.332,-98.729
3460,-0.4600,0.4341,-0.4312,42.175,53.528,2.136,136.609,33.931,-98.300
3471,-0.4790,0.2671,-0.3315,25.635,18.677,-8.179,136.994,33.854,-98.075
3481,-0.5303,0.2231,-0.2812,-1.221,-17.334,-11.414,136.956,34.058,-98.113
3491,-0.5845,0.2139,-0.3276,-23.254,-48.157,-11.902,136.560,34.492,-98.405
3501,-0.6313,0.5098,-0.6284,-35.461,-57.190,-6.226,135.967,34.948,-98.828
3511,-0.6450,0.9048,-1.0195,-27.466,-24.414,7.202,135.538,35.074,-99.097
3521,-0.5669,1.0742,-1.1748,-0.610,31.433,17.761,135.599,34.722,-98.987
3531,-0.4712,1.0361,-1.0132,20.142,69.153,19.958,136.038,34.091,-98.569
3540,-0.3945,0.6616,-0.6001,36.072,73.242,8.972,136.697,33.503,-98.031
3550,-0.4375,0.3164,-0.3198,32.288,36.743,-6.897,137.219,33.283,-97.668
3561,-0.4941,0.2705,-0.2183,3.540,-13.306,-16.235,137.274,33.492,-97.635
3571,-0.5513,0.2700,-0.2432,-18.738,-55.786,-21.118,136.939,34.041,-97.905
3581,-0.6509,0.4004,-0.4951,-31.128,-77.820,-17.700,136.357,34.733,-98.388
3591,-0.6772,0.7476,-0.8628,-35.034,-56.335,-2.686,135.753,35.156,-98.839
3601,-0.6143,0.9941,-1.0811,-21.118,-3.357,13.245,135.456,35.090,-98.981
3611,-0.5220,1.0835,-1.0850,3.967,43.335,21.240,135.604,34.634,-98.795
3620,-0.4009,0.9678,-0.8691,23.437,68.237,20.142,136.066,34.003,-98.394
3631,-0.4106,0.5068,-0.4800,29.358,57.739,7.507,136.593,33.536,-97.976
3641,-0.5000,0.1714,-0.2109,10.681,11.475,-9.827,136.802,33.519,-97.795
3651,-0.5537,0.1143,-0.1133,-18.127,-39.734,-22.339,136.549,33.964,-97.927
3661,-0.6250,0.1509,-0.1680,-34.180,-79.712,-27.405,135.972,34.728,-98.344
3671,-0.6826,0.4795,-0.5454,-37.109,-88.989,-18.188,135.264,35.497,-98.937
3681,-0.6899,0.9131,-0.9629,-28.503,-48.767,5.859,134.703,35.799,-99.410
3691,-0.6025,1.0991,-1.0859,-0.671,9.888,26.367,134.610,35.546,-99.553
3701,-0.4702,1.1621,-1.0332,27.283,51.941,34.973,134.973,34.931,-99.399
3710,-0.3389,0.9805,-0.8120,48.889,76.477,30.273,135.692,34.173,-99.003
3721,-0.3638,0.5488,-0.4839,46.753,63.171,14.587,136.384,33.624,-98.597
3731,-0.4585,0.2964,-0.2529,16.541,12.939,-2.502,136.626,33.547,-98.465
3741,-0.5371,0.2183,-0.1152,-18.921,-39.734,-14.404,136.324,33.931,-98.668
3751,-0.6494,0.1997,-0.1099,-43.945,-81.055,-21.057,135.610,34.662,-99.157
3761,-0.7212,0.3647,-0.3569,-50.476,-88.623,-20.142,134.775,35.436,-99.739
3771,-0.7217,0.7266,-0.7480,-37.842,-50.293,-9.766,134.193,35.865,-100.091
3781,-0.6646,1.0044,-1.0117,-6.470,10.620,4.883,134.160,35.755,-100.042
3791,-0.5771,1.0776,-1.0020,20.386,59.998,17.273,134.583,35.211,-99.657
3801,-0.4502,0.8633,-0.7046,42.969,83.496,21.912,135.324,34.470,-99.119
3811,-0.4316,0.4321,-0.4150,50.171,66.467,12.756,136.088,33.909,-98.663
3821,-0.4673,0.2954,-0.3120,28.503,27.100,1.892,136.489,33.701,-98.448
3831,-0.5234,0.2217,-0.2388,-5.188,-11.536,-3.845,136.401,33.810,-98.514
3841,-0.5850,0.3711,-0.3682,-29.358,-45.837,-6.531,135.928,34.184,-98.839
3851,-0.6250,0.7969,-0.7441,-34.546,-41.016,0.916,135.385,34.475,-99.190
3861,-0.5513,1.1187,-1.1040,-19.836,7.996,13.184,135.159,34.327,-99.234
3870,-0.4663,1.3013,-1.2476,1.892,59.448,20.447,135.368,33.761,-98.904
3880,-0.3486,1.1509,-0.9990,25.146,88.623,15.869,135.956,33.014,-98.289
3891,-0.3555,0.5249,-0.4575,38.696,74.280,-1.648,136.686,32.492,-97.657
3901,-0.4897,0.1113,-0.1313,23.682,24.414,-23.010,137.137,32.476,-97.262
3910,-0.5332,0.1147,-0.0527,-12.939,-27.893,-37.109,137.060,32.932,-97.163
3921,-0.6548,0.1538,-0.1309,-32.166,-72.388,-39.856,136.609,33.734,-97.405
3931,-0.7393,0.4766,-0.5635,-34.912,-86.792,-26.978,135.994,34.547,-97.888
3941,-0.7173,0.8618,-0.9839,-27.100,-47.546,-0.122,135.494,34.893,-98.284
3951,-0.6016,1.0854,-1.2339,-2.747,12.146,22.461,135.417,34.645,-98.377
3961,-0.4585,1.1372,-1.1792,27.100,60.181,34.302,135.807,33.975,-98.163
3970,-0.3276,0.8906,-0.8975,47.852,77.881,28.259,136.516,33.223,-97.751
3981,-0.3159,0.5107,-0.5811,45.776,57.495,10.437,137.186,32.734,-97.366
3991,-0.4292,0.1851,-0.2993,14.709,9.888,-7.874,137.411,32.712,-97.218
4001,-0.5049,0.1089,-0.1719,-23.499,-42.542,-22.339,137.098,33.179,-97.366
4011,-0.5991,0.1924,-0.1821,-47.058,-80.505,-29.480,136.412,33.970,-97.762
4021,-0.6504,0.3789,-0.3726,-52.734,-88.501,-24.719,135.593,34.783,-98.284
4031,-0.6631,0.7397,-0.7085,-37.109,-61.401,-9.583,134.973,35.288,-98.723
4041,-0.6079,0.9692,-0.9395,-0.793,-10.681,8.667,134.868,35.299,-98.893
4051,-0.5479,1.0439,-0.9590,25.330,33.691,23.926,135.170,34.893,-98.806
4061,-0.4570,0.8862,-0.7607,42.725,57.678,27.771,135.742,34.288,-98.547
4071,-0.4443,0.5444,-0.5151,46.326,45.105,17.273,136.335,33.843,-98.317
4081,-0.4653,0.3735,-0.3911,25.085,8.972,4.822,136.604,33.745,-98.284
4091,-0.5176,0.3491,-0.3198,-8.423,-28.198,-2.441,136.401,33.970,-98.498
4101,-0.5776,0.3887,-0.3726,-31.189,-57.495,-7.568,135.862,34.437,-98.910
4111,-0.6367,0.6553,-0.6440,-36.560,-61.096,-7.080,135.236,34.926,-99.366
4121,-0.6182,0.8745,-0.8921,-28.320,-32.654,-1.465,134.802,35.167,-99.630
4131,-0.5601,1.0229,-1.0020,-13.916,1.770,3.784,134.654,35.129,-99.646
4141,-0.4712,0.9819,-0.8755,2.869,27.283,5.188,134.791,34.898,-99.454
4151,-0.4302,0.6763,-0.5664,12.024,32.959,0.183,135.077,34.667,-99.174
4161,-0.4810,0.4653,-0.3369,8.179,12.268,-9.766,135.264,34.645,-98.981
4171,-0.5430,0.3428,-0.2144,-5.859,-11.841,-16.113,135.225,34.843,-98.943
4181,-0.6123,0.2759,-0.1865,-14.954,-34.302,-19.287,135.005,35.222,-99.075
4191,-0.6787,0.3706,-0.3994,-17.578,-43.213,-16.479,134.698,35.645,-99.305
4201,-0.6704,0.7026,-0.8057,-13.123,-17.212,-4.517,134.500,35.799,-99.415
4211,-0.6104,0.9561,-1.0537,-4.761,28.442,10.864,134.544,35.524,-99.261
4221,-0.5122,1.0093,-0.9839,7.507,62.439,20.935,134.830,34.937,-98.893
4231,-0.4419,0.7354,-0.6631,21.423,68.542,18.066,135.297,34.327,-98.454
4241,-0.4644,0.4077,-0.3711,23.743,45.654,6.042,135.725,33.959,-98.119
4251,-0.5200,0.2964,-0.2578,8.911,9.583,-5.066,135.884,33.926,-97.993
4261,-0.5693,0.3394,-0.2720,-8.667,-23.865,-10.803,135.736,34.173,-98.102
4271,-0.6060,0.5518,-0.4868,-17.090,-45.532,-10.254,135.401,34.568,-98.394
4281,-0.5840,0.8242,-0.7642,-16.846,-32.715,-1.038,135.077,34.810,-98.668
4291,-0.5322,0.9473,-0.9014,-8.057,1.892,8.179,134.967,34.739,-98.718
4301,-0.4619,0.9775,-0.8838,8.545,29.968,11.414,135.143,34.442,-98.558
4311,-0.3901,0.8228,-0.7246,20.996,42.114,7.874,135.516,34.091,-98.267
4321,-0.4370,0.5430,-0.5054,19.592,26.917,-2.563,135.851,33.915,-98.020
4331,-0.5132,0.4102,-0.3823,3.784,-2.075,-13.550,135.945,34.025,-97.916
4341,-0.5918,0.3184,-0.2920,-13.733,-28.137,-20.447,135.775,34.371,-97.976
4351,-0.6665,0.3096,-0.2959,-25.208,-48.828,-21.973,135.401,34.871,-98.201
4361,-0.6904,0.4873,-0.5156,-26.428,-44.800,-15.015,134.989,35.299,-98.454
4371,-0.6353,0.8496,-0.9258,-12.329,-9.338,-0.793,134.824,35.370,-98.525
4381,-0.5410,1.1064,-1.1831,6.775,40.283,14.343,135.022,34.986,-98.300
4391,-0.4072,1.1450,-1.1245,19.348,73.730,22.095,135.472,34.305,-97.855
4401,-0.3491,0.8086,-0.7598,28.015,71.106,13.855,136.027,33.701,-97.372
4411,-0.3906,0.3794,-0.3794,20.203,30.945,-5.920,136.401,33.519,-97.059
4421,-0.4687,0.2290,-0.1943,-9.949,-25.391,-24.475,136.302,33.871,-97.059
4431,-0.5635,0.1890,-0.1240,-37.903,-71.533,-36.560,135.769,34.640,-97.333
4441,-0.6841,0.1968,-0.1953,-45.349,-93.750,-37.231,135.044,35.574,-97.806
4451,-0.7505,0.4438,-0.5312,-35.400,-78.613,-25.146,134.423,36.310,-98.267
4461,-0.6997,0.8262,-0.9146,-12.573,-25.940,-4.272,134.182,36.519,-98.465
4471,-0.6221,1.0645,-1.0767,10.437,30.273,19.043,134.352,36.172,-98.355
4481,-0.4878,1.0928,-0.9722,29.968,68.604,34.302,134.835,35.447,-98.047
4491,-0.3813,0.8013,-0.6919,43.762,77.026,31.494,135.500,34.684,-97.646
4501,-0.3945,0.4531,-0.4536,38.269,53.101,17.883,136.055,34.178,-97.350
4511,-0.4673,0.2944,-0.3364,11.475,12.512,4.944,136.203,34.052,-97.289
4521,-0.5410,0.2339,-0.2544,-17.456,-26.123,-4.272,135.928,34.272,-97.471
4531,-0.6313,0.3052,-0.3003,-35.522,-52.002,-8.667,135.368,34.706,-97.833
4541,-0.6616,0.5640,-0.5781,-36.560,-47.424,-5.554,134.797,35.079,-98.190
4551,-0.6045,0.8584,-0.8525,-24.719,-14.404,3.784,134.462,35.156,-98.350
4561,-0.5483,0.9883,-0.9150,-5.371,19.836,11.414,134.451,34.937,-98.273
4571,-0.4600,1.0215,-0.9121,16.174,43.823,15.198,134.758,34.519,-98.020
4581,-0.3989,0.8652,-0.7720,27.161,48.706,11.414,135.209,34.096,-97.696
4591,-0.4141,0.5894,-0.5728,19.958,25.146,0.671,135.527,33.915,-97.493
4601,-0.4629,0.4307,-0.3853,-0.244,-10.193,-9.338,135.522,34.052,-97.498
4611,-0.5659,0.2505,-0.2148,-19.836,-45.227,-16.785,135.192,34.492,-97.734
4621,-0.6655,0.2451,-0.2007,-32.288,-69.824,-19.958,134.626,35.129,-98.157
4631,-0.6987,0.5117,-0.5376,-27.466,-60.852,-14.954,134.121,35.662,-98.558
4641,-0.6631,0.9209,-0.9966,-10.437,-16.846,-0.854,133.934,35.782,-98.701
4651,-0.5596,1.1357,-1.1616,2.991,34.790,14.526,134.072,35.436,-98.514
4661,-0.4062,1.1519,-0.9888,14.648,64.209,22.156,134.434,34.832,-98.141
4671,-0.3481,0.6982,-0.5293,27.405,59.326,14.282,134.934,34.316,-97.745
4681,-0.4258,0.3081,-0.2207,19.958,19.531,-2.197,135.242,34.195,-97.559
4691,-0.4966,0.2817,-0.1357,-6.958,-26.733,-14.771,135.115,34.486,-97.657
4701,-0.6382,0.2197,-0.0669,-23.315,-61.401,-21.362,134.687,35.074,-98.004
4711,-0.7393,0.3086,-0.2930,-24.597,-74.890,-20.874,134.171,35.750,-98.476
4721,-0.7388,0.7300,-0.7964,-19.287,-43.823,-8.118,133.792,36.112,-98.789
4731,-0.6470,1.0630,-1.1216,-9.521,12.085,10.681,133.709,35.953,-98.773
4741,-0.5122,1.2139,-1.1128,3.845,52.795,23.926,133.901,35.414,-98.509
4751,-0.3525,1.0737,-0.8818,23.926,67.871,23.315,134.374,34.777,-98.108
4761,-0.3125,0.6460,-0.5654,31.799,54.077,10.925,134.907,34.316,-97.729
4771,-0.4341,0.3374,-0.3428,12.146,12.329,-6.409,135.121,34.277,-97.570
4781,-0.5122,0.3027,-0.2593,-16.235,-31.006,-21.423,134.912,34.645,-97.646
4791,-0.6304,0.3115,-0.2310,-31.738,-61.707,-28.015,134.429,35.283,-97.938
4801,-0.7021,0.3262,-0.2993,-33.142,-72.937,-24.780,133.852,35.969,-98.366
4811,-0.6997,0.5405,-0.5757,-24.170,-56.580,-13.306,133.380,36.458,-98.756
4821,-0.6328,0.8232,-0.8159,-2.991,-14.099,2.991,133.259,36.530,-98.910
4831,-0.5640,0.9419,-0.8823,15.442,28.015,17.212,133.478,36.216,-98.800
4841,-0.4531,0.9468,-0.7925,22.705,51.758,22.766,133.863,35.695,-98.531
4851,-0.4277,0.6763,-0.5464,22.522,45.227,15.320,134.247,35.272,-98.256
4861,-0.4761,0.5327,-0.3838,7.507,16.174,3.052,134.390,35.134,-98.141
4871,-0.5557,0.4722,-0.3198,-9.827,-12.451,-7.019,134.264,35.272,-98.190
4881,-0.6445,0.3887,-0.3052,-21.484,-36.377,-14.771,133.940,35.634,-98.383
4891,-0.6758,0.5049,-0.4878,-22.888,-43.884,-17.639,133.572,36.063,-98.624
4901,-0.6187,0.7617,-0.7905,-11.658,-21.912,-11.536,133.396,36.299,-98.723
4911,-0.5479,0.9897,-0.9600,-1.343,11.169,-0.122,133.445,36.222,-98.619
4921,-0.4805,1.0361,-0.8833,8.484,34.790,8.118,133.671,35.925,-98.377
4931,-0.4263,0.7891,-0.5986,15.381,39.246,7.568,133.995,35.596,-98.091
4941,-0.4785,0.4321,-0.3188,13.550,19.836,-3.052,134.247,35.480,-97.888
4951,-0.5430,0.2603,-0.1963,0.854,-4.883,-13.489,134.297,35.612,-97.817
4961,-0.6323,0.1816,-0.1899,-9.094,-24.109,-17.822,134.171,35.909,-97.872
4971,-0.7041,0.2788,-0.4272,-11.658,-32.898,-14.465,133.956,36.244,-98.042
4981,-0.6768,0.7793,-0.9224,-9.155,-8.057,0.122,133.824,36.299,-98.113
4991,-0.5776,1.1050,-1.1567,-4.700,39.246,19.348,133.885,35.887,-97.927
5001,-0.4238,1.2559,-1.1343,4.639,68.542,29.724,134.138,35.195,-97.575
5011,-0.2954,1.0703,-0.8682,21.606,72.388,24.109,134.604,34.519,-97.141
5021,-0.3359,0.6113,-0.5010,27.344,45.227,6.897,135.066,34.151,-96.812
5031,-0.4482,0.2739,-0.2495,9.644,-5.554,-14.282,135.203,34.294,-96.735
5041,-0.5586,0.1270,-0.0869,-14.771,-51.819,-29.663,134.951,34.871,-96.921
5051,-0.7036,0.0459,-0.0518,-27.771,-80.505,-34.912,134.445,35.684,-97.317
5061,-0.7705,0.1641,-0.2837,-28.870,-79.529,-28.931,133.896,36.447,-97.767
5071,-0.7554,0.6118,-0.6982,-24.658,-41.870,-10.620,133.484,36.815,-98.053
5081,-0.6523,0.9790,-0.9648,-6.714,12.268,13.489,133.412,36.634,-98.053
5091,-0.5312,1.1919,-1.0229,13.672,53.589,34.485,133.660,36.013,-97.866
5101,-0.3936,1.1777,-0.9121,35.339,70.129,38.513,134.193,35.250,-97.570
5111,-0.2920,0.8726,-0.7095,47.302,59.998,27.405,134.835,34.634,-97.273
5121,-0.3535,0.5688,-0.5518,34.302,24.536,11.841,135.236,34.382,-97.163
5131,-0.4604,0.4365,-0.4639,2.319,-18.311,-3.357,135.192,34.536,-97.289
5141,-0.5659,0.4048,-0.4062,-27.893,-49.377,-16.785,134.753,35.002,-97.570
5151,-0.6499,0.3936,-0.3721,-41.626,-65.063,-25.452,134.138,35.640,-97.916
5161,-0.6865,0.4209,-0.3989,-38.574,-63.904,-25.757,133.555,36.271,-98.256
5171,-0.6821,0.5586,-0.5249,-23.499,-47.791,-19.226,133.160,36.738,-98.525
5181,-0.6338,0.7002,-0.6445,0.793,-19.897,-7.202,133.099,36.931,-98.641
5191,-0.5845,0.7480,-0.6665,20.630,8.362,6.775,133.314,36.821,-98.624
5201,-0.5181,0.7100,-0.5791,28.320,25.940,17.395,133.649,36.519,-98.536
5211,-0.4985,0.5850,-0.4795,26.794,27.405,18.677,133.967,36.194,-98.454
5221,-0.5093,0.5811,-0.4731,16.174,18.738,15.686,134.149,35.947,-98.421
5231,-0.5435,0.6167,-0.5386,2.075,11.841,10.986,134.176,35.788,-98.410
5241,-0.5752,0.6143,-0.5986,-10.681,7.629,5.554,134.083,35.695,-98.388
5251,-0.5586,0.7305,-0.6733,-19.165,7.568,1.587,133.923,35.629,-98.339
5261,-0.5317,0.8735,-0.7515,-19.470,11.414,-0.671,133.786,35.557,-98.229
5271,-0.4980,0.9229,-0.7627,-12.878,16.418,-1.648,133.753,35.453,-98.069
5281,-0.4854,0.8384,-0.6670,-5.249,17.639,-4.333,133.813,35.365,-97.877
5291,-0.5146,0.5630,-0.4346,0.488,9.216,-9.766,133.912,35.370,-97.712
5301,-0.5806,0.2739,-0.2202,1.587,-9.155,-16.541,133.962,35.552,-97.652
5311,-0.6230,0.1851,-0.1865,-2.014,-26.428,-18.738,133.901,35.870,-97.723
5321,-0.6558,0.3486,-0.4258,-4.517,-29.480,-12.634,133.764,36.167,-97.877
5331,-0.6265,0.7534,-0.8149,-4.028,-3.601,2.625,133.693,36.172,-97.932
5341,-0.5513,1.0337,-1.0083,-3.235,37.048,20.752,133.748,35.766,-97.778
5351,-0.4453,1.1191,-0.9399,3.540,65.735,30.945,133.973,35.090,-97.460
5361,-0.3965,0.9053,-0.6699,16.968,69.702,27.832,134.357,34.404,-97.081
5371,-0.4321,0.5464,-0.4199,24.353,47.119,13.123,134.769,33.981,-96.784
5381,-0.5210,0.3154,-0.2925,16.052,8.667,-5.005,134.995,33.959,-96.669
5391,-0.6055,0.2056,-0.2417,-0.366,-27.405,-17.761,134.945,34.277,-96.751
5401,-0.6655,0.2749,-0.4072,-12.878,-50.293,-21.973,134.681,34.788,-96.993
5411,-0.6289,0.6611,-0.7812,-19.226,-38.696,-12.817,134.363,35.151,-97.218
5421,-0.5298,1.0488,-1.0762,-19.958,-6.348,4.333,134.110,35.162,-97.311
5431,-0.4277,1.2178,-1.0684,-7.629,23.437,19.043,134.055,34.865,-97.267
5441,-0.3525,1.0654,-0.8525,12.146,39.307,22.156,134.269,34.431,-97.108
5451,-0.3892,0.7056,-0.5298,20.996,29.419,10.986,134.572,34.146,-96.949
5461,-0.4941,0.3691,-0.3013,15.869,0.793,-7.812,134.769,34.195,-96.877
5471,-0.5723,0.2456,-0.2090,0.549,-31.128,-22.766,134.736,34.579,-96.949
5481,-0.6816,0.1953,-0.1826,-16.113,-56.702,-28.137,134.434,35.178,-97.196
5491,-0.7324,0.2046,-0.2153,-24.719,-63.843,-24.902,133.984,35.799,-97.542
5501,-0.7139,0.4102,-0.4033,-22.217,-47.058,-13.367,133.588,36.222,-97.844
5511,-0.6279,0.7422,-0.6812,-2.075,-10.742,5.493,133.478,36.260,-97.987
5521,-0.5596,0.9888,-0.8867,19.653,29.724,24.841,133.709,35.876,-97.932
5531,-0.4595,1.0869,-0.9424,31.738,55.847,35.828,134.143,35.228,-97.740
5541,-0.3687,1.0044,-0.8398,36.682,57.678,31.311,134.648,34.601,-97.498
5551,-0.3501,0.6963,-0.6245,32.898,37.537,17.578,135.071,34.211,-97.328
5561,-0.4355,0.4473,-0.4775,13.123,2.441,-0.122,135.220,34.195,-97.306
5571,-0.5073,0.4673,-0.4780,-16.113,-27.222,-14.404,134.995,34.492,-97.410
5581,-0.5830,0.5854,-0.5581,-34.180,-41.016,-22.705,134.566,34.942,-97.570
5591,-0.6182,0.7241,-0.6699,-33.997,-38.208,-22.461,134.143,35.370,-97.707
5601,-0.5815,0.8169,-0.7573,-21.057,-22.217,-14.893,133.896,35.634,-97.778
5611,-0.5225,0.8364,-0.7881,-0.122,-1.648,-6.714,133.918,35.695,-97.734
5621,-0.5063,0.6245,-0.6265,15.808,10.803,-1.770,134.143,35.629,-97.625
5631,-0.5205,0.4053,-0.4126,15.869,7.690,-2.686,134.352,35.596,-97.531
5641,-0.5806,0.2324,-0.2715,6.287,-5.188,-4.944,134.412,35.667,-97.537
5651,-0.6396,0.2305,-0.2485,-6.775,-17.395,-3.723,134.275,35.815,-97.657
5661,-0.6665,0.3760,-0.3843,-14.221,-19.531,1.648,134.022,35.942,-97.844
5671,-0.6270,0.7007,-0.6890,-11.719,-1.404,13.550,133.830,35.854,-97.971
5681,-0.5513,0.9141,-0.8833,-2.197,27.771,25.269,133.830,35.480,-97.943
5691,-0.4551,1.0088,-0.9087,7.446,44.983,30.396,133.984,34.948,-97.800
5701,-0.3506,1.0332,-0.8833,17.212,44.556,25.513,134.253,34.453,-97.625
5711,-0.3306,0.9150,-0.7461,18.250,30.579,14.832,134.517,34.135,-97.487
5721,-0.4058,0.7568,-0.5693,7.629,2.869,-0.488,134.610,34.118,-97.460
5731,-0.4873,0.5840,-0.3833,-7.019,-25.635,-14.648,134.484,34.404,-97.553
5741,-0.5996,0.3345,-0.1948,-17.273,-46.875,-24.536,134.203,34.904,-97.751
5751,-0.6997,0.1841,-0.1104,-19.409,-56.519,-27.649,133.857,35.497,-98.009
5761,-0.7358,0.2402,-0.2671,-13.123,-46.753,-21.545,133.594,35.975,-98.240
5771,-0.6782,0.6006,-0.6919,-1.404,-15.442,-4.272,133.522,36.118,-98.344
5781,-0.5786,0.9995,-1.0400,8.606,27.466,17.944,133.660,35.793,-98.251
5791,-0.4395,1.1816,-1.0361,13.733,59.814,33.997,133.940,35.134,-98.004
5801,-0.3384,1.0513,-0.8188,23.560,63.293,32.104,134.341,34.464,-97.718
5811,-0.3315,0.7261,-0.5415,25.146,42.297,16.968,134.720,34.047,-97.498
5821,-0.4307,0.4780,-0.3926,8.667,4.700,-4.883,134.852,34.052,-97.416
5831,-0.5205,0.3936,-0.3711,-15.259,-27.161,-22.949,134.676,34.404,-97.454
5841,-0.6357,0.3364,-0.3687,-30.212,-48.706,-32.410,134.297,34.980,-97.597
5851,-0.7051,0.3701,-0.3984,-32.837,-56.458,-30.518,133.835,35.590,-97.828
5861,-0.6963,0.5156,-0.5464,-20.935,-42.542,-18.860,133.495,36.024,-98.047
5871,-0.6279,0.6616,-0.7046,-0.061,-12.146,-1.770,133.440,36.118,-98.141
5881,-0.5532,0.7734,-0.7788,17.212,17.456,12.939,133.643,35.903,-98.091
5891,-0.4839,0.7920,-0.7524,24.841,35.767,21.423,133.967,35.502,-97.954
5901,-0.4478,0.7065,-0.6265,25.391,36.743,20.386,134.313,35.101,-97.806
5911,-0.4624,0.5601,-0.5068,17.944,22.766,12.878,134.544,34.849,-97.712
5921,-0.4956,0.5303,-0.4917,3.662,4.578,4.272,134.583,34.788,-97.712
5931,-0.5312,0.5889,-0.5298,-12.329,-8.606,-1.404,134.423,34.860,-97.773
5941,-0.5566,0.7070,-0.6147,-20.813,-14.832,-4.944,134.165,34.997,-97.861
5951,-0.5366,0.8418,-0.7124,-17.456,-8.545,-4.883,133.973,35.090,-97.894
5961,-0.5059,0.8789,-0.7310,-6.897,2.625,-3.540,133.934,35.096,-97.839
5971,-0.4805,0.8101,-0.6396,2.319,9.521,-3.479,134.022,35.057,-97.729
5981,-0.4971,0.6343,-0.4976,7.385,7.751,-6.042,134.165,35.046,-97.608
5991,-0.5420,0.5303,-0.4092,4.456,-1.221,-8.972,134.247,35.118,-97.542
6001,-0.5996,0.4380,-0.3584,-0.977,-9.583,-9.827,134.236,35.255,-97.542
6011,-0.6387,0.4229,-0.3755,-5.249,-14.648,-8.728,134.154,35.420,-97.597
6021,-0.6445,0.4922,-0.4658,-6.348,-9.460,-3.601,134.055,35.513,-97.652
6031,-0.5894,0.6694,-0.6714,-1.953,3.662,4.089,134.039,35.458,-97.652
6041,-0.4907,0.9194,-0.9014,4.211,21.301,11.719,134.132,35.228,-97.564
6051,-0.4238,0.8833,-0.7695,12.451,34.729,10.254,134.379,34.909,-97.344
6061,-0.4478,0.5596,-0.4678,9.766,17.456,-2.075,134.577,34.805,-97.174
6071,-0.5420,0.2778,-0.2388,-1.160,-14.404,-16.785,134.572,35.024,-97.158
6081,-0.5967,0.2705,-0.2417,-15.076,-42.175,-25.391,134.335,35.502,-97.306
6091,-0.6670,0.4229,-0.4556,-20.203,-48.035,-21.118,133.995,35.986,-97.548
6101,-0.6675,0.6758,-0.7705,-16.296,-22.583,-7.812,133.753,36.200,-97.679
6111,-0.5767,0.8906,-0.9297,-9.216,20.081,7.812,133.726,36.008,-97.570
6121,-0.4673,0.9390,-0.8916,0.183,49.316,17.578,133.901,35.535,-97.278
6131,-0.3652,0.8374,-0.7261,9.460,50.110,15.259,134.176,35.079,-96.965
6141,-0.3921,0.6636,-0.5459,11.230,27.222,5.737,134.401,34.849,-96.773
6151,-0.4761,0.5635,-0.4775,4.456,-6.104,-6.409,134.445,34.937,-96.773
6161,-0.5283,0.5093,-0.4814,-4.761,-32.532,-13.855,134.302,35.266,-96.938
6171,-0.5713,0.5005,-0.4878,-13.367,-48.889,-15.259,133.995,35.717,-97.234
6181,-0.5957,0.5317,-0.5015,-14.893,-49.622,-11.536,133.649,36.145,-97.575
6191,-0.5986,0.5454,-0.5200,-7.996,-39.124,-5.371,133.391,36.453,-97.883
6201,-0.5850,0.5762,-0.5342,1.282,-22.888,1.465,133.270,36.595,-98.102
6211,-0.5771,0.6064,-0.5410,8.911,-7.202,7.568,133.281,36.590,-98.234
6221,-0.5684,0.6304,-0.5352,11.963,3.845,11.719,133.363,36.480,-98.295
6231,-0.5542,0.6665,-0.5391,11.169,9.155,13.367,133.456,36.321,-98.328
6241,-0.5391,0.7021,-0.5591,8.972,10.254,12.024,133.539,36.161,-98.339
6251,-0.5303,0.7227,-0.5684,5.127,9.949,9.094,133.599,36.030,-98.328
6261,-0.5337,0.6953,-0.5449,2.502,9.277,5.249,133.649,35.925,-98.289
6271,-0.5503,0.6445,-0.5210,3.174,6.287,0.427,133.709,35.881,-98.234
6281,-0.5566,0.6128,-0.5273,5.127,1.587,-4.517,133.792,35.903,-98.185
6291,-0.5732,0.6050,-0.5454,6.592,-3.845,-7.935,133.857,35.975,-98.152
6301,-0.5708,0.6172,-0.5688,7.507,-7.141,-11.108,133.940,36.090,-98.119
6311,-0.5425,0.6338,-0.5894,7.080,-6.775,-14.832,134.039,36.200,-98.053
6321,-0.5415,0.6602,-0.6001,4.761,-6.042,-19.348,134.132,36.332,-97.938
6331,-0.5337,0.6973,-0.6309,2.258,-5.249,-24.231,134.231,36.469,-97.778
6341,-0.5273,0.7148,-0.6602,1.526,-3.784,-28.015,134.352,36.617,-97.564
6351,-0.5376,0.7373,-0.6694,2.197,-1.587,-27.466,134.489,36.738,-97.339
6361,-0.5537,0.7271,-0.6636,5.920,1.282,-23.010,134.654,36.821,-97.130
6371,-0.5483,0.6636,-0.6309,12.756,1.587,-19.592,134.879,36.887,-96.943
6381,-0.5288,0.5718,-0.5801,16.968,-2.502,-17.395,135.126,36.985,-96.812
6391,-0.5337,0.5210,-0.5464,15.625,-10.620,-15.259,135.319,37.150,-96.768
6401,-0.5479,0.5078,-0.5352,9.949,-18.982,-12.451,135.396,37.365,-96.828
6411,-0.5762,0.5278,-0.5283,2.563,-23.865,-9.216,135.341,37.601,-96.954
6421,-0.5913,0.5791,-0.5557,-3.479,-22.583,-6.531,135.203,37.793,-97.097
6431,-0.5947,0.6440,-0.5947,-6.042,-12.878,-3.784,135.071,37.875,-97.174
6441,-0.5859,0.6851,-0.6201,-5.188,2.197,0.183,135.000,37.804,-97.158
6451,-0.5620,0.6997,-0.6313,-1.831,15.015,2.075,135.027,37.612,-97.042
6461,-0.5415,0.6724,-0.6338,2.441,19.958,1.160,135.132,37.392,-96.877
6471,-0.5308,0.6665,-0.6567,4.761,17.700,1.343,135.264,37.183,-96.729
6481,-0.5195,0.6855,-0.6860,2.441,11.780,1.099,135.341,37.002,-96.636
6491,-0.5342,0.6519,-0.6611,-3.601,1.770,-0.610,135.319,36.920,-96.614
6501,-0.5742,0.6357,-0.5737,-12.024,-9.399,-2.930,135.132,36.980,-96.669
6512,-0.6011,0.6152,-0.5220,-16.357,-18.250,-5.798,134.857,37.145,-96.779
6521,-0.6230,0.5283,-0.4595,-13.611,-20.874,-7.568,134.615,37.386,-96.899
6531,-0.5889,0.5103,-0.4531,-8.301,-20.020,-7.935,134.434,37.617,-97.009
6541,-0.5762,0.5640,-0.5049,-0.244,-14.526,-5.127,134.357,37.749,-97.097
6551,-0.5928,0.6138,-0.5610,8.179,-5.554,0.732,134.385,37.760,-97.152
6561,-0.5664,0.7041,-0.6753,13.489,4.517,5.371,134.506,37.617,-97.158
6571,-0.5376,0.7798,-0.7646,13.245,15.625,8.728,134.676,37.332,-97.097
6581,-0.5283,0.8022,-0.7651,6.470,20.569,8.850,134.791,37.007,-96.987
6591,-0.5171,0.7783,-0.7231,-2.075,17.456,4.639,134.819,36.744,-96.872
6601,-0.5332,0.6709,-0.6211,-10.376,7.629,-2.625,134.753,36.645,-96.784
6611,-0.5791,0.5298,-0.5049,-16.663,-7.080,-10.559,134.594,36.782,-96.757
6621,-0.6099,0.4639,-0.4600,-18.066,-20.386,-15.564,134.390,37.095,-96.801
6631,-0.6372,0.4355,-0.4521,-14.771,-27.344,-15.564,134.193,37.480,-96.905
6641,-0.6362,0.4136,-0.4434,-7.446,-26.550,-11.536,134.066,37.837,-97.048
6651,-0.6230,0.3936,-0.4346,1.282,-19.104,-3.906,134.033,38.084,-97.185
6661,-0.6221,0.4268,-0.4561,8.118,-9.033,4.456,134.066,38.183,-97.306
6671,-0.6113,0.5015,-0.5127,13.611,2.136,12.024,134.165,38.106,-97.394
6681,-0.5942,0.5806,-0.5791,16.357,11.963,17.151,134.308,37.881,-97.438
6691,-0.5747,0.6470,-0.6304,15.076,18.555,18.738,134.456,37.562,-97.432
6701,-0.5732,0.6997,-0.6611,12.024,21.606,16.907,134.594,37.227,-97.388
6711,-0.5669,0.7056,-0.6577,7.935,21.484,12.390,134.703,36.920,-97.306
6721,-0.5503,0.6709,-0.6270,2.869,17.090,5.798,134.775,36.700,-97.207
6731,-0.5396,0.6436,-0.5747,-2.686,8.789,-0.793,134.769,36.601,-97.119
6741,-0.5615,0.6255,-0.5327,-5.127,-1.953,-6.042,134.698,36.634,-97.086
6751,-0.5796,0.6201,-0.5234,-3.174,-9.338,-8.057,134.610,36.744,-97.097
6761,-0.5898,0.6235,-0.5400,0.671,-9.583,-7.263,134.572,36.848,-97.119
6771,-0.6021,0.6123,-0.5649,5.066,-2.258,-4.761,134.615,36.892,-97.097
6781,-0.6001,0.5977,-0.5732,8.911,9.460,-2.808,134.758,36.832,-96.987
6791,-0.5918,0.5522,-0.5474,11.108,20.264,-1.892,134.984,36.711,-96.790
6801,-0.5879,0.4912,-0.5029,10.925,23.682,-2.869,135.236,36.595,-96.559
6811,-0.5801,0.4751,-0.4893,7.996,21.362,-4.944,135.461,36.519,-96.328
6821,-0.5723,0.5308,-0.5420,3.906,18.311,-5.981,135.626,36.436,-96.114
6831,-0.5605,0.6226,-0.6211,0.427,17.273,-5.737,135.742,36.315,-95.911
6841,-0.5464,0.7275,-0.6880,-0.732,19.043,-2.869,135.824,36.123,-95.724
6851,-0.5347,0.7886,-0.7246,0.732,22.766,2.869,135.895,35.843,-95.548
6861,-0.5269,0.7886,-0.7119,5.798,24.231,6.897,136.000,35.530,-95.405
6871,-0.5161,0.7339,-0.6782,11.841,21.912,8.362,136.148,35.233,-95.290
6881,-0.5063,0.6831,-0.6489,15.076,16.357,7.324,136.318,34.997,-95.219
6891,-0.5024,0.6313,-0.6050,12.939,7.690,4.578,136.434,34.860,-95.191
6901,-0.5234,0.5493,-0.5186,5.920,-3.906,1.221,136.434,34.882,-95.235
6911,-0.5371,0.5439,-0.4976,-1.770,-12.939,-1.709,136.324,34.997,-95.328
6921,-0.5493,0.5820,-0.5303,-5.066,-10.986,-1.831,136.192,35.085,-95.405
6931,-0.5649,0.6206,-0.5601,-4.456,-1.343,0.671,136.099,35.079,-95.422
6941,-0.5859,0.6313,-0.5835,0.427,9.277,2.869,136.099,34.986,-95.372
6951,-0.5815,0.6226,-0.6182,5.798,18.433,4.578,136.208,34.810,-95.251
6961,-0.5488,0.6450,-0.6729,6.897,23.560,4.822,136.362,34.563,-95.098
6971,-0.5322,0.6797,-0.6973,3.601,24.658,4.517,136.489,34.299,-94.933
6981,-0.5332,0.6655,-0.6738,-0.366,21.851,4.333,136.555,34.063,-94.785
6991,-0.5312,0.6558,-0.6455,-3.418,16.052,3.174,136.555,33.887,-94.680
7001,-0.5317,0.6528,-0.6299,-4.822,9.949,0.977,136.522,33.772,-94.609
7012,-0.5425,0.6396,-0.6274,-3.296,2.258,-2.686,136.494,33.750,-94.565
7021,-0.5498,0.6221,-0.6270,0.488,-4.639,-6.470,136.494,33.810,-94.548
7031,-0.5513,0.5933,-0.6294,5.432,-8.667,-8.301,136.555,33.915,-94.548
7041,-0.5449,0.5337,-0.6016,8.789,-10.498,-7.874,136.648,34.047,-94.565
7051,-0.5474,0.4653,-0.5747,8.545,-11.597,-5.920,136.752,34.195,-94.609
7061,-0.5498,0.4717,-0.5811,4.272,-10.193,-2.625,136.802,34.305,-94.669
7071,-0.5483,0.5132,-0.5806,-0.916,-4.578,1.282,136.780,34.338,-94.719
7081,-0.5420,0.5684,-0.5942,-2.686,1.648,4.883,136.736,34.283,-94.752
7091,-0.5405,0.6255,-0.6299,-1.343,8.789,8.484,136.703,34.135,-94.752
7101,-0.5361,0.6138,-0.6338,2.869,12.817,9.766,136.736,33.948,-94.730
7111,-0.5327,0.6094,-0.6313,7.385,11.658,9.033,136.813,33.777,-94.713
7121,-0.5215,0.5933,-0.6279,9.766,8.057,8.240,136.901,33.635,-94.719
7131,-0.5239,0.5937,-0.6509,9.216,3.357,7.446,136.983,33.530,-94.757
7141,-0.5264,0.6465,-0.6885,5.066,2.686,7.080,137.005,33.420,-94.796
7151,-0.5190,0.6768,-0.6846,-0.427,5.310,7.385,136.972,33.283,-94.818
7161,-0.5063,0.7158,-0.6929,-5.005,8.301,7.385,136.895,33.107,-94.818
7171,-0.4888,0.7988,-0.7529,-6.531,11.169,6.165,136.818,32.893,-94.779
7181,-0.4805,0.8213,-0.7437,-4.883,11.963,4.761,136.752,32.684,-94.724
7191,-0.4888,0.7788,-0.6855,-0.977,8.118,3.052,136.708,32.531,-94.680
7201,-0.5034,0.7056,-0.6318,3.967,0.183,-0.305,136.703,32.481,-94.680
7211,-0.5186,0.6333,-0.5854,6.470,-10.559,-4.578,136.703,32.574,-94.724
7221,-0.5522,0.4834,-0.4692,5.920,-20.996,-7.446,136.681,32.844,-94.828
7231,-0.6094,0.2798,-0.3232,2.441,-33.081,-9.521,136.626,33.371,-95.021
7241,-0.6362,0.2246,-0.2949,-2.747,-40.466,-10.437,136.527,33.997,-95.262
7251,-0.6475,0.2798,-0.3618,-6.409,-36.499,-6.653,136.384,34.514,-95.504
7261,-0.6284,0.4277,-0.5024,-4.578,-20.081,2.869,136.263,34.728,-95.696
7271,-0.5737,0.6362,-0.6899,1.831,6.470,14.404,136.252,34.547,-95.773
7281,-0.5195,0.8423,-0.8516,8.362,31.677,24.414,136.357,34.047,-95.718
7291,-0.4507,0.9775,-0.9341,13.855,45.959,28.625,136.538,33.365,-95.587
7301,-0.3960,0.9517,-0.8623,17.212,40.833,24.536,136.736,32.739,-95.466
7311,-0.3955,0.7710,-0.7021,15.442,17.944,12.512,136.862,32.404,-95.427
7321,-0.4526,0.6631,-0.6221,5.615,-11.292,-2.441,136.846,32.443,-95.493
7331,-0.5151,0.6147,-0.5913,-7.385,-33.081,-14.587,136.664,32.772,-95.636
7341,-0.5874,0.5430,-0.5405,-13.672,-41.199,-20.691,136.428,33.256,-95.795
7351,-0.6357,0.4551,-0.5098,-10.803,-36.865,-20.874,136.274,33.755,-95.916
7361,-0.6211,0.3887,-0.4995,-2.197,-23.132,-15.625,136.280,34.140,-95.977
7371,-0.5791,0.3936,-0.5405,5.798,-5.371,-6.470,136.417,34.288,-95.966
7381,-0.5474,0.4448,-0.5806,9.094,12.085,3.967,136.604,34.200,-95.894
7391,-0.5308,0.4985,-0.6069,7.935,25.635,13.184,136.780,33.926,-95.801
7401,-0.5146,0.5698,-0.6416,3.418,32.837,18.066,136.890,33.536,-95.685
7411,-0.5063,0.6523,-0.6694,-0.916,33.813,18.738,136.934,33.113,-95.576
7421,-0.4990,0.6694,-0.6719,-3.967,26.184,14.954,136.917,32.767,-95.493
7431,-0.4849,0.7065,-0.7080,-5.005,15.747,9.460,136.879,32.520,-95.444
7441,-0.4912,0.7402,-0.7422,-6.165,5.798,4.211,136.802,32.377,-95.433
7451,-0.4883,0.7573,-0.7549,-5.737,-3.418,-0.488,136.714,32.327,-95.460
7461,-0.4595,0.7622,-0.7559,-3.906,-10.376,-4.700,136.631,32.344,-95.504
7471,-0.4600,0.7432,-0.7285,-3.357,-15.442,-7.568,136.544,32.421,-95.565
7481,-0.4800,0.7251,-0.6934,-3.967,-18.982,-9.460,136.439,32.552,-95.636
7491,-0.5059,0.6250,-0.5947,-5.615,-21.667,-10.742,136.307,32.761,-95.718
7501,-0.5503,0.5513,-0.5127,-7.874,-24.475,-11.902,136.143,33.052,-95.817
7512,-0.5908,0.4604,-0.4160,-8.423,-23.682,-11.963,135.972,33.409,-95.911
7521,-0.6284,0.2944,-0.2744,-5.737,-23.376,-10.742,135.829,33.887,-96.015
7531,-0.6562,0.2275,-0.2690,-2.258,-21.729,-7.507,135.780,34.371,-96.130
7541,-0.6421,0.4302,-0.5269,0.549,-9.827,0.061,135.791,34.530,-96.213
7551,-0.5737,0.7700,-0.9014,2.258,17.090,13.245,135.868,34.233,-96.185
7561,-0.4863,1.0381,-1.1143,0.793,48.157,25.635,135.978,33.706,-96.004
7571,-0.3789,1.1553,-1.0684,-0.488,59.204,28.320,136.110,33.085,-95.751
7581,-0.3423,0.8301,-0.7095,2.014,42.358,19.409,136.230,32.646,-95.570
7591,-0.4463,0.4023,-0.3306,-1.526,-1.221,0.061,136.208,32.651,-95.581
7601,-0.5640,0.1709,-0.1587,-14.832,-49.316,-17.578,135.923,33.129,-95.834
7611,-0.7061,0.1460,-0.1650,-23.865,-77.393,-24.231,135.445,33.854,-96.268
7621,-0.7676,0.2686,-0.3696,-17.578,-71.899,-16.174,135.011,34.481,-96.740
7631,-0.6694,0.5728,-0.7441,-2.869,-32.349,2.563,134.813,34.695,-97.037
7641,-0.5308,0.8877,-1.0366,8.423,20.142,21.057,134.890,34.404,-97.042
7651,-0.3911,1.0576,-1.0542,8.911,54.932,33.081,135.088,33.777,-96.855
7661,-0.3135,1.0420,-0.9014,13.000,58.533,33.264,135.335,33.129,-96.641
7671,-0.3408,0.7905,-0.6646,16.174,38.086,23.499,135.566,32.695,-96.520
7681,-0.4668,0.5991,-0.4736,5.432,1.587,5.371,135.599,32.646,-96.553
7691,-0.5366,0.5874,-0.4287,-9.399,-25.635,-9.827,135.439,32.899,-96.685
7701,-0.6035,0.5820,-0.4194,-14.221,-37.170,-16.663,135.203,33.278,-96.855
7711,-0.6255,0.5054,-0.3896,-5.188,-33.752,-16.052,135.071,33.629,-97.004
7721,-0.6118,0.4116,-0.3862,8.850,-22.156,-9.705,135.099,33.854,-97.108
7731,-0.5835,0.4106,-0.4507,17.090,-7.812,-1.343,135.242,33.920,-97.163
7741,-0.5542,0.5630,-0.6240,20.752,7.812,7.568,135.450,33.810,-97.158
7751,-0.5479,0.6562,-0.7246,16.785,22.095,14.160,135.654,33.558,-97.097
7761,-0.5195,0.7495,-0.7231,7.385,28.870,15.503,135.786,33.239,-96.987
7771,-0.5015,0.7881,-0.7002,-0.122,27.710,12.329,135.857,32.953,-96.861
7781,-0.4912,0.8086,-0.6587,-6.042,21.667,6.104,135.862,32.756,-96.735
7791,-0.4985,0.7339,-0.5854,-4.089,13.367,-1.648,135.890,32.673,-96.608
7801,-0.5308,0.5796,-0.5142,4.150,2.563,-8.545,135.983,32.717,-96.515
7811,-0.5557,0.4766,-0.5068,10.498,-6.226,-10.864,136.110,32.833,-96.471
7821,-0.5757,0.4453,-0.5352,13.123,-8.789,-8.606,136.241,32.959,-96.471
7831,-0.5742,0.4429,-0.5703,12.939,-3.723,-2.930,136.368,33.003,-96.476
7841,-0.5352,0.5288,-0.6782,9.888,5.920,3.052,136.478,32.943,-96.454
7851,-0.4873,0.6367,-0.7944,3.723,15.442,6.409,136.555,32.783,-96.383
7861,-0.4492,0.7314,-0.8286,-4.822,20.996,7.446,136.566,32.580,-96.273
7871,-0.4326,0.7734,-0.8027,-9.827,20.752,5.859,136.533,32.388,-96.158
7881,-0.4536,0.7280,-0.7124,-11.230,13.611,2.136,136.467,32.278,-96.064
7891,-0.4790,0.6865,-0.6621,-7.080,2.197,-3.113,136.423,32.283,-96.021
7901,-0.4985,0.6484,-0.6328,-2.075,-4.761,-6.592,136.412,32.360,-96.004
7912,-0.5239,0.5684,-0.5854,2.991,-8.057,-8.545,136.445,32.481,-95.993
7921,-0.5522,0.4717,-0.5415,4.883,-9.033,-8.911,136.494,32.607,-95.993
7931,-0.5522,0.4775,-0.5488,1.221,-7.080,-5.737,136.500,32.695,-95.999
7941,-0.5366,0.4883,-0.5518,-2.441,-2.197,-0.305,136.467,32.717,-96.015
7951,-0.5146,0.4922,-0.5640,-4.578,3.113,4.578,136.417,32.662,-96.031
7961,-0.5249,0.4932,-0.5576,-5.981,6.287,6.287,136.357,32.574,-96.031
7971,-0.5181,0.5884,-0.5864,-7.446,7.935,7.324,136.280,32.465,-96.031
7981,-0.5132,0.7046,-0.6357,-4.822,9.827,9.705,136.230,32.327,-96.031
7991,-0.5195,0.7642,-0.6660,1.587,12.573,12.390,136.247,32.151,-96.037
8001,-0.5083,0.7754,-0.6963,8.179,14.709,12.451,136.335,31.959,-96.021
8012,-0.5078,0.7031,-0.6826,12.634,12.146,8.911,136.472,31.805,-95.999
8021,-0.4839,0.6416,-0.6851,12.329,5.432,2.441,136.609,31.750,-95.977
8031,-0.4780,0.6455,-0.6777,5.249,-2.808,-3.662,136.664,31.800,-95.966
8041,-0.4878,0.6670,-0.6709,-2.258,-9.460,-7.385,136.637,31.915,-95.982
8051,-0.4985,0.6841,-0.6431,-5.981,-11.475,-8.667,136.566,32.058,-95.999
8061,-0.5044,0.6855,-0.6084,-4.822,-9.155,-7.263,136.511,32.179,-96.010
8071,-0.5078,0.6582,-0.5732,1.953,-4.150,-4.456,136.533,32.239,-96.004
8081,-0.5117,0.5986,-0.5420,9.460,1.465,-2.258,136.648,32.239,-95.977
8091,-0.5117,0.5439,-0.5308,13.000,4.822,-1.770,136.807,32.217,-95.922
8101,-0.5137,0.5571,-0.5625,11.536,5.127,-2.258,136.950,32.195,-95.861
8111,-0.5156,0.5986,-0.6016,7.324,6.165,-1.526,137.060,32.162,-95.795
8121,-0.5127,0.6299,-0.6479,4.395,9.033,-0.549,137.142,32.102,-95.718
8131,-0.4888,0.7046,-0.7363,2.441,13.184,-0.244,137.225,32.003,-95.614
8141,-0.4692,0.7607,-0.7944,2.625,16.235,-0.671,137.324,31.888,-95.477
8151,-0.4570,0.7871,-0.8193,4.578,15.076,-1.709,137.428,31.690,-95.339
8161,-0.4507,0.7656,-0.8228,6.775,10.071,-4.028,137.554,31.547,-95.224
8171,-0.4526,0.7114,-0.7861,7.385,2.075,-7.690,137.670,31.498,-95.142
8181,-0.4751,0.6138,-0.7212,6.653,-7.690,-11.902,137.780,31.586,-95.098
8191,-0.5024,0.5068,-0.6519,3.540,-17.700,-16.052,137.856,31.822,-95.098
8201,-0.5220,0.3828,-0.5591,-1.648,-27.039,-19.409,137.895,32.206,-95.147
8211,-0.5562,0.3188,-0.5005,-8.728,-34.485,-19.226,137.851,32.695,-95.251
8221,-0.5791,0.3208,-0.4863,-15.320,-37.537,-14.404,137.692,33.190,-95.422
8231,-0.5981,0.3828,-0.5000,-18.188,-33.203,-5.432,137.444,33.574,-95.641
8241,-0.5850,0.4360,-0.5195,-14.221,-20.508,5.005,137.214,33.761,-95.850
8251,-0.5625,0.4834,-0.5498,-6.104,-7.324,12.878,137.071,33.766,-96.026
8261,-0.5425,0.5322,-0.5830,0.977,1.282,16.113,137.010,33.657,-96.158
8271,-0.5298,0.5757,-0.6006,4.150,3.967,16.113,136.989,33.503,-96.268
8281,-0.5210,0.5986,-0.6211,3.052,3.174,15.442,136.950,33.354,-96.378
8291,-0.5117,0.6484,-0.6558,-1.770,3.967,15.137,136.857,33.179,-96.476
8301,-0.5093,0.6479,-0.6328,-9.705,7.019,16.235,136.692,32.981,-96.559
8311,-0.5098,0.6309,-0.6099,-17.639,9.766,17.700,136.450,32.761,-96.630
8321,-0.4995,0.6675,-0.6260,-24.475,11.658,18.616,136.143,32.509,-96.696
8331,-0.4741,0.7471,-0.6460,-26.428,11.047,19.043,135.786,32.234,-96.768
8341,-0.4624,0.8433,-0.6826,-21.240,8.667,19.470,135.461,31.943,-96.861
8351,-0.4546,0.9053,-0.7183,-9.338,5.859,18.616,135.242,31.668,-96.971
8361,-0.4478,0.8657,-0.7144,5.188,2.930,15.991,135.181,31.437,-97.081
8371,-0.4604,0.7388,-0.6665,17.029,-2.014,9.888,135.264,31.317,-97.180
8381,-0.4888,0.6562,-0.6172,20.691,-7.080,2.625,135.406,31.322,-97.262
8391,-0.5181,0.5947,-0.5688,16.907,-9.033,-1.709,135.527,31.404,-97.317
8401,-0.5449,0.5312,-0.5205,11.536,-7.874,-3.296,135.610,31.531,-97.355
8411,-0.5571,0.4980,-0.5059,7.385,-3.601,-2.563,135.681,31.641,-97.366
8421,-0.5464,0.5093,-0.5269,5.554,3.662,0.793,135.747,31.663,-97.339
8431,-0.5225,0.5562,-0.5952,6.714,11.353,4.578,135.857,31.558,-97.284
8441,-0.5010,0.6147,-0.6631,9.155,19.531,8.118,136.005,31.339,-97.196
8451,-0.4829,0.6709,-0.7144,10.132,23.987,9.705,136.176,31.047,-97.081
8461,-0.4521,0.6924,-0.7251,8.850,20.752,7.935,136.313,30.778,-96.982
8471,-0.4551,0.6943,-0.7026,4.578,10.925,3.845,136.379,30.613,-96.927
8481,-0.4766,0.6997,-0.6631,-1.404,0.977,0.122,136.340,30.564,-96.921
8491,-0.4873,0.6968,-0.6318,-4.272,-4.395,-2.930,136.247,30.586,-96.927
8501,-0.4980,0.6748,-0.6060,-3.906,-5.188,-4.272,136.165,30.630,-96.938
8512,-0.5117,0.6333,-0.5840,-1.282,-3.662,-3.906,136.121,30.685,-96.932
8521,-0.5181,0.5688,-0.5723,2.869,-3.052,-3.479,136.137,30.751,-96.927
8531,-0.5264,0.5093,-0.5757,6.226,-4.272,-3.357,136.219,30.839,-96.932
8541,-0.5132,0.5552,-0.6436,5.554,-5.493,-2.197,136.291,30.899,-96.960
8551,-0.4976,0.6606,-0.7378,3.113,-3.357,0.732,136.324,30.877,-96.993
8561,-0.4619,0.7231,-0.7720,0.427,0.427,3.662,136.324,30.773,-97.020
8571,-0.4302,0.7720,-0.8242,-3.296,0.488,3.967,136.280,30.646,-97.048
8581,-0.4136,0.8682,-0.8765,-7.629,0.183,2.441,136.187,30.504,-97.070
8591,-0.4272,0.8379,-0.7720,-9.766,-2.686,-0.610,136.044,30.432,-97.086
8601,-0.4937,0.6538,-0.5742,-7.812,-13.611,-5.981,135.890,30.558,-97.147
8611,-0.5576,0.4614,-0.3965,-5.676,-30.273,-11.658,135.709,30.976,-97.295
8621,-0.6064,0.3521,-0.3008,-2.869,-43.884,-13.306,135.500,31.597,-97.537
8631,-0.6270,0.2944,-0.3208,1.526,-45.837,-9.155,135.379,32.217,-97.839
8641,-0.6064,0.3618,-0.5083,6.226,-30.823,-0.671,135.401,32.558,-98.091
8651,-0.5381,0.5044,-0.6782,4.517,-2.747,10.193,135.467,32.509,-98.196
8661,-0.4771,0.7441,-0.8643,-2.197,21.790,19.470,135.494,32.119,-98.179
8671,-0.3955,0.9395,-0.9443,-10.315,34.790,23.621,135.434,31.553,-98.091
8681,-0.3726,0.9668,-0.8540,-13.916,29.602,19.287,135.297,31.058,-98.009
8691,-0.4053,0.8823,-0.7144,-14.526,11.108,7.019,135.110,30.817,-97.976
8701,-0.4614,0.7021,-0.5166,-15.686,-11.292,-6.775,134.846,30.916,-98.015
8711,-0.5312,0.4985,-0.3354,-12.878,-29.358,-17.700,134.561,31.349,-98.113
8721,-0.6030,0.3560,-0.2500,-5.737,-39.978,-21.667,134.330,32.009,-98.267
8731,-0.6362,0.2910,-0.2983,3.845,-36.133,-15.320,134.286,32.613,-98.443
8741,-0.6060,0.3931,-0.5034,11.719,-15.991,-2.502,134.418,32.849,-98.558
8751,-0.5425,0.5649,-0.6978,13.367,13.977,12.024,134.626,32.651,-98.542
8761,-0.4766,0.7148,-0.7905,9.216,36.743,22.034,134.819,32.157,-98.416
8771,-0.4233,0.8213,-0.8276,4.761,41.382,23.804,134.951,31.580,-98.267
8781,-0.4131,0.8213,-0.7554,1.465,29.236,17.822,134.989,31.135,-98.174
8791,-0.4580,0.7559,-0.6636,-0.122,7.507,6.775,134.951,30.970,-98.163
8801,-0.4790,0.7651,-0.6479,-1.099,-8.545,-3.052,134.874,30.998,-98.212
8811,-0.4854,0.7666,-0.6348,1.404,-15.076,-8.667,134.808,31.113,-98.262
8821,-0.4878,0.7046,-0.6240,7.019,-15.015,-10.681,134.824,31.256,-98.300
8831,-0.4897,0.6587,-0.6289,10.437,-11.169,-9.949,134.912,31.371,-98.311
8841,-0.4985,0.6357,-0.6099,9.399,-4.089,-6.592,135.005,31.432,-98.289
8851,-0.5122,0.6260,-0.5889,7.996,1.770,-3.296,135.088,31.432,-98.251
8861,-0.5264,0.6299,-0.5747,8.606,5.188,-1.282,135.170,31.410,-98.196
8871,-0.5459,0.5562,-0.5186,11.047,5.981,-0.610,135.286,31.415,-98.141
8881,-0.5752,0.4336,-0.4780,12.695,4.395,-2.014,135.467,31.498,-98.086
8891,-0.5684,0.4258,-0.5298,9.583,4.761,-3.296,135.654,31.575,-98.020
8901,-0.5391,0.5166,-0.6138,2.625,8.118,-1.648,135.764,31.553,-97.943
8911,-0.4839,0.6572,-0.7349,-1.526,14.709,2.075,135.824,31.377,-97.839
8921,-0.4302,0.7935,-0.8271,-4.578,21.545,5.432,135.851,31.080,-97.707
8931,-0.3750,0.8579,-0.8438,-6.042,22.705,4.883,135.851,30.745,-97.564
8941,-0.3740,0.8369,-0.8091,-5.249,17.822,0.549,135.851,30.487,-97.421
8951,-0.4229,0.7686,-0.6816,-7.385,8.728,-5.310,135.791,30.383,-97.311
8961,-0.5137,0.6255,-0.5205,-6.958,-2.625,-11.230,135.703,30.498,-97.234
8971,-0.6187,0.3926,-0.3452,-2.441,-12.512,-15.686,135.648,30.888,-97.207
8981,-0.6777,0.2559,-0.2627,0.732,-17.578,-16.174,135.654,31.432,-97.218
8991,-0.6909,0.2017,-0.2798,5.493,-13.367,-9.155,135.775,31.910,-97.251
9001,-0.6211,0.3350,-0.4907,13.489,2.930,2.991,136.005,32.009,-97.251
9012,-0.5029,0.5625,-0.7798,18.616,24.658,15.503,136.307,31.685,-97.180
9021,-0.3921,0.7705,-0.9717,16.357,39.673,23.499,136.588,31.097,-97.059
9031,-0.3193,0.8970,-1.0176,9.583,37.781,24.231,136.752,30.482,-96.960
9041,-0.3125,0.9355,-0.9463,-0.732,21.912,16.724,136.747,30.037,-96.927
9051,-0.3916,0.8799,-0.7847,-10.437,0.305,4.395,136.577,29.888,-96.960
9061,-0.4727,0.7612,-0.6411,-13.733,-17.273,-8.362,136.346,30.026,-97.026
9071,-0.5269,0.6279,-0.5146,-11.841,-24.902,-16.602,136.126,30.350,-97.086
9081,-0.5532,0.4810,-0.4346,-6.775,-23.987,-18.311,136.000,30.745,-97.130
9091,-0.5464,0.4351,-0.4302,-2.930,-15.808,-13.794,135.950,31.064,-97.141
9101,-0.5068,0.4888,-0.4966,-0.732,-3.601,-5.676,135.950,31.179,-97.119
9111,-0.4536,0.5933,-0.6138,1.343,7.690,3.174,135.978,31.069,-97.086
9121,-0.4297,0.7349,-0.7261,2.625,16.663,10.254,136.016,30.795,-97.037
9131,-0.4316,0.8174,-0.7617,4.456,21.851,13.428,136.066,30.454,-96.971
9141,-0.4878,0.7427,-0.6724,8.301,18.860,10.864,136.137,30.196,-96.910
9151,-0.5562,0.6016,-0.5586,8.789,7.019,2.869,136.208,30.168,-96.877
9161,-0.5625,0.5605,-0.5400,4.639,-3.479,-4.395,136.236,30.278,-96.872
9171,-0.5503,0.5376,-0.5376,1.709,-5.981,-6.836,136.247,30.427,-96.861
9181,-0.4951,0.5220,-0.5703,2.075,-2.136,-5.310,136.291,30.498,-96.833
9192,-0.4580,0.6016,-0.6592,1.465,4.517,-1.099,136.340,30.443,-96.790
9201,-0.4321,0.6733,-0.7246,2.075,11.230,3.601,136.401,30.267,-96.729
9211,-0.4258,0.7021,-0.7646,4.456,13.916,5.676,136.489,30.048,-96.663
9222,-0.4331,0.7354,-0.7783,5.981,12.146,5.127,136.571,29.844,-96.614
9232,-0.4453,0.7437,-0.7773,8.057,7.446,2.930,136.670,29.702,-96.575
9242,-0.4517,0.7319,-0.7593,10.681,2.197,-0.122,136.774,29.619,-96.559
9252,-0.4731,0.6440,-0.6895,13.733,-0.854,-2.075,136.917,29.608,-96.548
9262,-0.5000,0.4990,-0.6064,14.709,-2.747,-3.662,137.104,29.685,-96.537
9271,-0.5200,0.4126,-0.5654,10.498,-4.456,-4.333,137.280,29.817,-96.537
9282,-0.5249,0.4033,-0.5820,4.089,-2.808,-2.014,137.395,29.916,-96.542
9292,-0.5146,0.4429,-0.6499,-2.075,1.831,2.136,137.455,29.921,-96.548
9302,-0.4766,0.5298,-0.7744,-8.179,5.676,5.310,137.455,29.811,-96.548
9311,-0.4297,0.6426,-0.8643,-14.709,6.775,6.287,137.368,29.641,-96.548
9322,-0.3931,0.7397,-0.8740,-19.836,3.113,5.798,137.186,29.471,-96.570
9332,-0.3911,0.8179,-0.8135,-21.301,-5.493,3.357,136.917,29.383,-96.641
9342,-0.4307,0.7690,-0.6685,-16.357,-16.785,-1.038,136.637,29.449,-96.768
9352,-0.4834,0.6641,-0.5156,-8.423,-27.649,-6.226,136.384,29.691,-96.932
9361,-0.5322,0.5498,-0.3892,-1.221,-33.447,-8.911,136.165,30.081,-97.125
9372,-0.5825,0.4214,-0.2944,3.967,-32.532,-7.996,136.000,30.553,-97.317
9382,-0.5991,0.3906,-0.3452,4.578,-20.996,-3.845,135.928,30.910,-97.454
9392,-0.5596,0.4761,-0.5049,1.953,0.793,3.052,135.945,30.965,-97.476
9401,-0.4746,0.6763,-0.7310,-3.540,23.804,9.338,135.983,30.679,-97.361
9412,-0.4033,0.8877,-0.8892,-10.864,39.124,13.489,135.967,30.174,-97.158
9422,-0.3696,0.9668,-0.8921,-12.878,40.527,13.245,135.912,29.652,-96.938
9432,-0.4121,0.8672,-0.7114,-11.108,25.818,6.653,135.813,29.328,-96.790
9442,-0.5259,0.5840,-0.4263,-7.202,-1.343,-4.944,135.659,29.438,-96.757
9452,-0.5923,0.4189,-0.3145,-3.052,-25.940,-14.404,135.500,29.916,-96.850
9462,-0.6328,0.3936,-0.3760,1.709,-33.386,-14.893,135.423,30.449,-96.998
9472,-0.5781,0.5020,-0.6519,10.803,-13.916,-6.897,135.571,30.641,-97.053
9482,-0.4575,0.6943,-0.9175,10.193,21.973,4.883,135.818,30.361,-96.916
9491,-0.3462,0.8491,-1.0210,-0.916,47.241,12.878,135.989,29.778,-96.641
9501,-0.2861,0.9238,-0.9893,-11.780,46.753,13.000,136.011,29.180,-96.372
9512,-0.3306,0.8906,-0.8516,-19.409,25.635,6.165,135.873,28.812,-96.218
9522,-0.4517,0.7197,-0.6230,-19.836,-3.601,-5.859,135.637,28.845,-96.202
9532,-0.5181,0.5933,-0.4990,-12.268,-27.954,-16.846,135.417,29.207,-96.284
9542,-0.5698,0.5410,-0.4556,-1.038,-38.574,-20.142,135.280,29.713,-96.432
9552,-0.5601,0.4424,-0.4185,13.428,-35.034,-16.113,135.324,30.201,-96.586
9562,-0.5288,0.3423,-0.4229,22.095,-20.752,-8.362,135.549,30.547,-96.685
9572,-0.5034,0.3423,-0.4653,16.602,-3.845,0.244,135.775,30.679,-96.718
9582,-0.4956,0.4189,-0.5195,5.737,9.155,9.155,135.884,30.608,-96.718
9592,-0.4922,0.5352,-0.5854,-1.526,18.005,16.296,135.890,30.383,-96.707
9602,-0.4844,0.6597,-0.6611,-2.625,22.278,20.447,135.862,30.053,-96.702
9612,-0.4810,0.7549,-0.7427,3.662,23.437,20.935,135.895,29.685,-96.685
9622,-0.4453,0.8501,-0.8354,10.437,22.766,17.639,136.000,29.312,-96.647
9632,-0.3955,0.8843,-0.8887,14.282,18.555,11.169,136.159,28.982,-96.592
9642,-0.3716,0.8857,-0.9092,13.611,10.498,3.235,136.318,28.757,-96.537
9652,-0.3643,0.8599,-0.8901,6.775,1.465,-5.249,136.406,28.663,-96.482
9662,-0.3779,0.7861,-0.8003,-3.723,-7.996,-13.000,136.384,28.707,-96.438
9672,-0.4316,0.6548,-0.6499,-13.550,-17.517,-18.616,136.241,28.922,-96.422
9682,-0.5039,0.5439,-0.5049,-19.043,-23.621,-21.545,136.016,29.290,-96.432
9692,-0.5679,0.4814,-0.3906,-18.555,-24.658,-20.691,135.747,29.740,-96.454
9702,-0.6196,0.3823,-0.2856,-8.789,-20.996,-15.747,135.555,30.229,-96.493
9712,-0.6304,0.3066,-0.2690,4.456,-13.245,-8.606,135.533,30.646,-96.531
9722,-0.5898,0.3584,-0.4355,14.526,1.343,-0.305,135.736,30.800,-96.515
9732,-0.4878,0.5615,-0.7280,17.334,21.912,8.362,136.027,30.558,-96.411
9742,-0.4043,0.7915,-0.9331,10.498,40.161,14.771,136.269,30.048,-96.207
9752,-0.3428,0.8560,-0.9087,-0.916,45.715,15.808,136.379,29.465,-95.977
9762,-0.3945,0.7124,-0.7002,-12.573,30.762,7.751,136.324,29.114,-95.795
9772,-0.4814,0.6445,-0.5513,-23.132,5.005,-4.211,136.077,29.108,-95.724
9782,-0.5415,0.6401,-0.4844,-24.902,-14.648,-11.169,135.725,29.339,-95.746
9792,-0.5718,0.6289,-0.5000,-11.536,-21.973,-10.864,135.500,29.630,-95.834
9802,-0.5513,0.6440,-0.6113,8.667,-11.597,-5.554,135.538,29.773,-95.883
9812,-0.4878,0.6436,-0.6577,19.775,7.263,1.282,135.758,29.696,-95.834
9822,-0.4292,0.6431,-0.6831,18.616,19.043,5.005,136.011,29.476,-95.718
9832,-0.4097,0.6943,-0.6904,7.324,19.409,3.967,136.132,29.240,-95.598
9842,-0.4150,0.7339,-0.6738,-3.540,12.878,-0.183,136.110,29.086,-95.493
9852,-0.4346,0.7417,-0.6577,-8.118,5.981,-4.822,136.027,29.020,-95.405
9862,-0.4463,0.6914,-0.6538,-5.615,2.197,-8.972,135.989,29.026,-95.317
9872,-0.4448,0.6206,-0.6929,1.526,2.441,-11.597,136.077,29.053,-95.202
9882,-0.4375,0.5718,-0.7432,6.592,5.554,-11.169,136.274,29.053,-95.065
9892,-0.4307,0.5405,-0.7642,7.080,8.606,-9.094,136.494,29.009,-94.922
9902,-0.4219,0.5498,-0.7842,2.747,9.277,-6.592,136.670,28.932,-94.796
9913,-0.4165,0.5850,-0.7896,-2.441,7.690,-4.150,136.758,28.850,-94.702
9922,-0.4238,0.6055,-0.7852,-5.371,4.761,-2.258,136.791,28.773,-94.642
9932,-0.4272,0.6104,-0.7690,-5.249,1.343,-1.526,136.796,28.718,-94.620
9942,-0.4287,0.5840,-0.7158,-5.066,-4.089,-2.136,136.780,28.724,-94.636
9952,-0.4775,0.5469,-0.6460,-4.456,-10.864,-2.869,136.736,28.834,-94.697
9962,-0.5161,0.5117,-0.6055,-2.747,-15.564,-2.869,136.692,29.004,-94.796
9972,-0.5269,0.5107,-0.6060,-1.526,-15.564,-1.099,136.653,29.169,-94.905
9982,-0.5205,0.5200,-0.6060,-1.953,-11.353,2.075,136.609,29.279,-95.015
9992,-0.5083,0.5698,-0.6216,-4.578,-5.981,5.127,136.533,29.306,-95.103
10002,-0.4849,0.6523,-0.6650,-7.324,-1.587,7.141,136.412,29.251,-95.175
10012,-0.4624,0.7349,-0.6836,-9.094,0.793,7.019,136.263,29.152,-95.229
10022,-0.4487,0.7539,-0.6572,-8.911,-0.671,5.188,136.099,29.070,-95.273
10032,-0.4580,0.7573,-0.6357,-6.836,-4.456,2.380,135.945,29.042,-95.328
10042,-0.4819,0.7031,-0.5942,-3.723,-7.812,-0.977,135.824,29.092,-95.383
10052,-0.5063,0.6348,-0.5527,-0.549,-10.193,-4.211,135.747,29.213,-95.433
10062,-0.5142,0.5815,-0.5552,-0.305,-10.620,-5.920,135.709,29.361,-95.466
10072,-0.4966,0.5664,-0.5708,-2.869,-8.301,-5.493,135.665,29.482,-95.488
10082,-0.4814,0.5547,-0.5703,-5.371,-4.761,-3.113,135.604,29.553,-95.499
10092,-0.4629,0.5776,-0.5791,-6.104,-2.380,-0.122,135.533,29.570,-95.521
10102,-0.4678,0.5986,-0.5850,-3.662,-1.892,3.418,135.461,29.559,-95.565
10112,-0.4839,0.5967,-0.5884,2.319,-2.197,6.226,135.439,29.537,-95.630
10122,-0.5088,0.5767,-0.5811,8.057,-2.686,7.385,135.478,29.526,-95.713
10132,-0.5220,0.5640,-0.5933,10.864,-2.563,7.263,135.560,29.526,-95.795
10142,-0.5107,0.6299,-0.6885,9.521,0.916,7.568,135.643,29.454,-95.850
10152,-0.4800,0.6973,-0.7896,5.371,8.240,8.179,135.725,29.290,-95.850
10162,-0.4282,0.7876,-0.8374,-1.221,13.672,6.836,135.753,29.059,-95.795
10172,-0.4023,0.8018,-0.7861,-7.202,11.169,3.784,135.692,28.861,-95.740
10182,-0.4321,0.7520,-0.6885,-9.521,0.854,-0.549,135.571,28.801,-95.729
10192,-0.5010,0.6689,-0.5508,-8.728,-10.742,-5.005,135.406,28.922,-95.773
10202,-0.5562,0.5415,-0.4292,-3.967,-21.362,-8.972,135.247,29.235,-95.872
10212,-0.5840,0.5088,-0.4087,0.732,-25.146,-9.705,135.132,29.603,-95.993
10222,-0.5674,0.5474,-0.4785,3.479,-18.555,-5.920,135.077,29.861,-96.097
10232,-0.4819,0.6914,-0.6479,6.409,-3.296,0.061,135.104,29.855,-96.125
10242,-0.3960,0.8442,-0.8008,6.348,14.526,5.737,135.187,29.603,-96.053
10252,-0.3486,0.8906,-0.8359,4.089,23.926,6.897,135.275,29.251,-95.916
10262,-0.3511,0.8257,-0.7793,1.587,19.531,1.526,135.341,28.982,-95.768
10272,-0.4189,0.7217,-0.6943,-2.258,4.944,-8.362,135.357,28.938,-95.663
10282,-0.4785,0.6406,-0.6338,-3.418,-8.911,-16.724,135.346,29.108,-95.598
10292,-0.5283,0.5645,-0.5986,-1.160,-16.174,-20.386,135.368,29.399,-95.559
10302,-0.5435,0.4668,-0.5649,2.441,-16.663,-19.348,135.450,29.724,-95.537
10312,-0.5293,0.3931,-0.5527,5.676,-13.000,-15.015,135.610,30.004,-95.521
10322,-0.5112,0.3677,-0.5537,5.676,-7.446,-8.118,135.775,30.190,-95.515
10332,-0.5088,0.3833,-0.5718,3.418,-0.427,0.488,135.912,30.251,-95.521
10342,-0.5020,0.4536,-0.6309,0.610,6.836,7.690,135.994,30.174,-95.532
10352,-0.4712,0.5908,-0.7153,-2.563,12.817,12.329,136.016,29.965,-95.526
10362,-0.4604,0.7056,-0.7563,-3.845,15.015,14.709,135.983,29.702,-95.532
10372,-0.4702,0.7637,-0.7637,-2.686,12.146,13.977,135.939,29.454,-95.548
10382,-0.4531,0.8193,-0.7827,-1.526,7.385,10.193,135.890,29.257,-95.576
10392,-0.4365,0.8242,-0.7578,-1.343,2.441,4.272,135.835,29.130,-95.592
10402,-0.4385,0.7827,-0.6929,-2.014,-4.272,-2.808,135.769,29.114,-95.603
10412,-0.4453,0.7300,-0.6367,-4.822,-9.888,-8.911,135.670,29.202,-95.609
10422,-0.4707,0.6436,-0.5522,-9.460,-13.306,-13.245,135.527,29.388,-95.603
10432,-0.5015,0.5654,-0.4946,-13.611,-13.733,-15.747,135.357,29.636,-95.587
10442,-0.5283,0.4702,-0.4292,-16.602,-10.864,-15.442,135.181,29.921,-95.548
10452,-0.5391,0.4502,-0.4326,-18.188,-6.714,-12.085,135.011,30.163,-95.504
10462,-0.4961,0.6392,-0.6099,-15.808,4.211,-4.333,134.874,30.152,-95.433
10472,-0.4365,0.8271,-0.7983,-7.996,21.912,5.371,134.857,29.872,-95.295
10482,-0.3569,0.9702,-0.9409,-0.305,37.292,10.742,134.951,29.383,-95.081
10492,-0.3237,0.8491,-0.8364,2.075,37.231,8.240,135.082,28.922,-94.845
10502,-0.4443,0.4497,-0.5259,-3.723,14.587,-3.784,135.159,28.883,-94.697
10512,-0.5742,0.1895,-0.3506,-19.592,-15.625,-18.494,135.143,29.388,-94.675
10522,-0.6792,0.1816,-0.3071,-39.795,-33.997,-23.865,134.852,30.125,-94.752
10532,-0.7031,0.3423,-0.3662,-45.715,-31.433,-16.113,134.357,30.701,-94.878
10542,-0.6479,0.5928,-0.5454,-29.358,-8.484,2.686,134.006,30.822,-94.971
10552,-0.4941,0.8232,-0.7583,-6.226,21.423,22.400,133.929,30.443,-94.971
10562,-0.3374,0.9575,-0.8569,11.597,40.588,33.997,134.055,29.762,-94.911
10572,-0.2559,0.9756,-0.8721,20.508,36.682,33.875,134.253,29.086,-94.878
10582,-0.2930,0.9409,-0.8398,20.203,17.639,22.827,134.407,28.641,-94.916
10592,-0.3989,0.8438,-0.7505,9.460,-3.723,5.371,134.440,28.537,-94.988
10602,-0.4966,0.7461,-0.6450,-4.272,-18.066,-11.047,134.330,28.724,-95.048
10612,-0.5542,0.6123,-0.5176,-12.329,-24.719,-22.583,134.160,29.114,-95.065
10622,-0.5645,0.4893,-0.4194,-11.597,-25.513,-25.879,134.006,29.592,-95.070
10632,-0.5708,0.4131,-0.4375,0.916,-20.508,-20.508,134.039,30.020,-95.076
10642,-0.4961,0.4893,-0.5864,12.390,-7.385,-9.216,134.231,30.163,-95.065
10652,-0.4180,0.6387,-0.7568,16.541,11.536,3.296,134.484,29.987,-94.993
10662,-0.3994,0.7607,-0.8340,12.207,28.381,12.390,134.703,29.597,-94.861
10672,-0.3818,0.7866,-0.8442,6.042,33.997,14.038,134.868,29.152,-94.697
10682,-0.4028,0.6665,-0.7314,-2.197,25.818,7.751,134.945,28.845,-94.548
10692,-0.4863,0.5796,-0.6177,-11.597,5.310,-3.540,134.879,28.845,-94.477
10702,-0.5386,0.5698,-0.5747,-16.174,-13.489,-10.376,134.714,29.059,-94.504
10712,-0.5698,0.5376,-0.5298,-11.292,-24.414,-11.169,134.544,29.388,-94.614
10722,-0.5459,0.5220,-0.5396,1.343,-26.306,-7.141,134.495,29.685,-94.768
10732,-0.5186,0.5781,-0.6016,12.573,-18.066,0.427,134.566,29.833,-94.922
10742,-0.4888,0.6094,-0.6260,18.250,-5.127,8.240,134.703,29.806,-95.032
10752,-0.4595,0.6284,-0.6172,16.541,5.493,12.817,134.835,29.652,-95.092
10762,-0.4331,0.5874,-0.5444,8.240,7.263,12.695,134.874,29.498,-95.131
10772,-0.4751,0.5571,-0.5083,-2.258,1.099,8.362,134.797,29.460,-95.191
10782,-0.4971,0.6211,-0.5332,-12.268,-1.465,4.700,134.610,29.454,-95.240
10792,-0.4902,0.7300,-0.5791,-16.357,2.075,4.150,134.379,29.394,-95.257
10802,-0.4624,0.8604,-0.7061,-12.146,9.949,5.798,134.225,29.218,-95.224
10812,-0.4438,0.9487,-0.8081,-4.883,18.433,7.263,134.187,28.943,-95.131
10822,-0.4180,0.9116,-0.7954,3.113,20.203,6.042,134.242,28.663,-95.015
10832,-0.4243,0.7817,-0.6948,7.812,11.780,1.099,134.335,28.504,-94.927
10842,-0.4771,0.5977,-0.5503,7.324,-3.540,-6.409,134.401,28.597,-94.905
10852,-0.5337,0.5078,-0.4800,1.831,-16.541,-12.451,134.390,28.889,-94.938
10862,-0.5527,0.4912,-0.4717,-3.845,-20.996,-13.306,134.319,29.229,-95.004
10872,-0.5244,0.5020,-0.5244,-4.456,-15.381,-9.033,134.264,29.465,-95.059
10882,-0.4854,0.5894,-0.6460,-2.380,-1.038,-1.343,134.275,29.476,-95.054
10892,-0.4634,0.6528,-0.7075,0.061,14.282,6.470,134.341,29.295,-94.988
10902,-0.4395,0.6626,-0.7339,3.113,24.170,10.315,134.462,28.998,-94.872
10912,-0.4219,0.6265,-0.6875,4.150,23.804,9.033,134.594,28.724,-94.752
10922,-0.4502,0.5547,-0.6064,2.136,11.108,3.967,134.670,28.619,-94.691
10932,-0.4829,0.5869,-0.6055,-1.404,-3.357,-1.099,134.665,28.663,-94.713
10942,-0.4858,0.6484,-0.6226,-2.502,-8.911,-1.648,134.599,28.735,-94.774
10952,-0.4639,0.6860,-0.6572,-0.610,-6.165,0.549,134.561,28.746,-94.823
10962,-0.4307,0.7412,-0.7007,0.488,1.343,2.991,134.550,28.658,-94.839
10972,-0.4111,0.7720,-0.6987,-0.183,6.897,4.028,134.533,28.510,-94.818
10982,-0.4331,0.7329,-0.6592,-0.793,7.263,1.892,134.522,28.400,-94.774
10992,-0.4697,0.6885,-0.6235,-2.014,2.625,-3.113,134.500,28.389,-94.724
11002,-0.4897,0.6484,-0.5850,-4.150,-2.747,-6.958,134.451,28.466,-94.691
11012,-0.5068,0.5894,-0.5215,-4.517,-6.348,-8.057,134.379,28.608,-94.680
11022,-0.5298,0.5571,-0.4937,-2.869,-7.935,-6.653,134.319,28.779,-94.691
11032,-0.5283,0.5679,-0.5352,0.732,-5.737,-2.930,134.302,28.894,-94.713
11042,-0.4966,0.6309,-0.6455,4.883,1.099,1.770,134.363,28.872,-94.719
11052,-0.4551,0.6929,-0.7534,7.202,10.681,5.371,134.484,28.707,-94.675
11062,-0.4243,0.7432,-0.8184,5.737,18.250,6.165,134.621,28.460,-94.576
11072,-0.4048,0.7710,-0.8325,2.075,20.142,3.967,134.731,28.207,-94.444
11082,-0.3638,0.7329,-0.7798,-1.892,16.235,-0.305,134.797,27.999,-94.312
11092,-0.3862,0.6567,-0.6724,-6.653,7.568,-5.127,134.786,27.927,-94.208
11102,-0.4595,0.5439,-0.5830,-10.071,-1.587,-8.423,134.731,28.021,-94.153
11112,-0.5127,0.4639,-0.5352,-12.878,-3.967,-9.216,134.670,28.191,-94.114
11122,-0.5342,0.4312,-0.5210,-14.465,1.282,-6.958,134.615,28.334,-94.048
11132,-0.5186,0.4790,-0.5352,-13.916,10.742,-1.526,134.555,28.345,-93.950
11142,-0.4707,0.5708,-0.5737,-9.155,19.836,5.737,134.528,28.180,-93.834
11152,-0.4277,0.6953,-0.6616,-1.160,24.109,12.207,134.550,27.889,-93.735
11162,-0.4014,0.7651,-0.7349,6.958,21.545,14.465,134.643,27.565,-93.675
11172,-0.3901,0.7749,-0.7700,11.353,14.343,12.573,134.764,27.296,-93.664
11182,-0.4072,0.7461,-0.7388,8.972,4.700,7.263,134.841,27.153,-93.680
11192,-0.4551,0.6733,-0.6362,1.221,-5.310,0.610,134.819,27.175,-93.730
11202,-0.5049,0.6147,-0.5493,-8.362,-13.184,-4.578,134.670,27.339,-93.796
11212,-0.5234,0.6108,-0.5107,-14.954,-14.771,-5.493,134.445,27.543,-93.873
11222,-0.5107,0.6157,-0.4893,-13.184,-9.705,-2.625,134.225,27.686,-93.928
11232,-0.4805,0.6606,-0.5190,-4.822,-3.235,2.441,134.099,27.708,-93.977
11242,-0.4424,0.7368,-0.6128,6.042,2.319,7.812,134.094,27.609,-94.016
11252,-0.4053,0.7842,-0.6895,14.771,5.615,10.071,134.198,27.433,-94.054
11262,-0.3984,0.7866,-0.7153,16.907,4.089,8.057,134.330,27.279,-94.081
11272,-0.4268,0.7744,-0.7187,12.329,-0.916,3.235,134.423,27.213,-94.114
11282,-0.4614,0.7544,-0.6919,4.700,-6.409,-3.113,134.440,27.246,-94.142
11292,-0.4858,0.6753,-0.6211,-1.404,-9.888,-8.301,134.401,27.383,-94.153
11302,-0.4961,0.6040,-0.5488,-4.150,-11.353,-11.047,134.335,27.576,-94.158
11312,-0.4932,0.5635,-0.5200,-3.662,-9.277,-10.315,134.286,27.768,-94.153
11322,-0.4805,0.5537,-0.5264,-0.488,-3.479,-7.080,134.286,27.883,-94.125
11332,-0.4575,0.5806,-0.5679,4.150,4.395,-2.258,134.352,27.883,-94.070
11342,-0.4312,0.6250,-0.6221,7.507,9.644,2.258,134.462,27.784,-94.010
11352,-0.4346,0.6782,-0.6802,7.935,11.536,5.066,134.572,27.636,-93.961
11362,-0.4380,0.7163,-0.7056,5.859,11.780,5.005,134.654,27.477,-93.906
11372,-0.4355,0.7295,-0.6968,2.686,10.864,2.441,134.703,27.345,-93.834
11382,-0.4375,0.7236,-0.6904,-0.488,8.789,-1.160,134.720,27.252,-93.757
11392,-0.4473,0.6929,-0.6689,-3.357,7.019,-5.188,134.725,27.219,-93.658
11402,-0.4458,0.6685,-0.6216,-6.958,5.432,-8.606,134.687,27.230,-93.549
11412,-0.4414,0.6626,-0.5908,-9.216,3.418,-9.766,134.615,27.263,-93.444
11422,-0.4492,0.6455,-0.5874,-7.019,1.526,-8.545,134.561,27.312,-93.362
11432,-0.4658,0.6069,-0.5806,-1.770,0.183,-6.409,134.555,27.372,-93.312
11442,-0.4868,0.5586,-0.5732,3.052,-0.732,-4.211,134.610,27.449,-93.285
11452,-0.4961,0.5303,-0.5815,5.493,0.061,-1.953,134.703,27.510,-93.268
11462,-0.4980,0.5161,-0.5815,5.310,3.967,0.488,134.808,27.532,-93.241
11472,-0.4941,0.5278,-0.5918,2.258,9.155,2.625,134.885,27.493,-93.186
11482,-0.4644,0.5830,-0.6377,-0.977,14.648,5.066,134.940,27.361,-93.109
11492,-0.4468,0.6294,-0.6909,-2.869,20.813,6.836,134.989,27.153,-92.999
11502,-0.4131,0.6562,-0.7305,-5.249,26.733,6.897,135.038,26.873,-92.840
11513,-0.4121,0.6411,-0.7129,-10.193,28.564,5.981,135.049,26.592,-92.664
11522,-0.4419,0.5640,-0.6641,-17.517,26.367,3.662,135.000,26.389,-92.483
11532,-0.4961,0.4136,-0.5708,-27.954,22.400,0.000,134.890,26.318,-92.307
11542,-0.5210,0.2798,-0.4746,-45.593,20.996,-3.784,134.670,26.367,-92.109
11552,-0.5093,0.4292,-0.4355,-61.768,21.362,-1.526,134.149,26.367,-91.928
11562,-0.4492,0.6860,-0.5630,-54.749,23.926,11.475,133.605,26.125,-91.829
11572,-0.3262,0.9707,-0.7842,-30.396,27.100,27.161,133.259,25.631,-91.818
11582,-0.2202,1.1714,-0.9844,0.488,27.527,36.926,133.237,25.170,-91.873
11592,-0.1841,1.1899,-1.0757,27.771,19.836,35.950,133.467,24.774,-91.989
11602,-0.1997,1.0952,-1.0781,33.569,0.732,24.841,133.726,24.587,-92.170
11612,-0.2290,0.9839,-0.9717,27.954,-21.240,7.080,133.912,24.681,-92.395
11622,-0.3354,0.8066,-0.7666,11.292,-42.664,-11.414,133.923,25.060,-92.642
11632,-0.4453,0.6465,-0.5571,-10.376,-57.617,-25.208,133.709,25.642,-92.911
11642,-0.5269,0.5078,-0.3862,-23.193,-60.791,-31.189,133.369,26.290,-93.159
11652,-0.5698,0.4175,-0.2749,-22.827,-51.819,-28.503,133.050,26.851,-93.362
11662,-0.5742,0.3799,-0.2397,-13.123,-34.973,-18.738,132.852,27.230,-93.505
11672,-0.5664,0.4102,-0.2881,1.892,-15.015,-5.371,132.836,27.367,-93.587
11682,-0.5312,0.4766,-0.4053,14.832,5.310,8.362,132.973,27.274,-93.604
11692,-0.4717,0.6201,-0.5791,20.020,21.606,17.700,133.193,26.993,-93.565
11702,-0.4053,0.7612,-0.7319,20.020,29.297,20.264,133.434,26.647,-93.477
11712,-0.3613,0.8472,-0.7974,14.038,29.663,16.418,133.621,26.323,-93.367
11722,-0.3638,0.8760,-0.8076,3.418,23.926,8.484,133.715,26.098,-93.235
11732,-0.3794,0.8818,-0.7720,-7.080,13.611,-0.732,133.693,26.010,-93.120
11742,-0.3906,0.8462,-0.7168,-11.169,1.648,-8.301,133.616,26.054,-93.043
11752,-0.4048,0.7871,-0.6763,-8.423,-8.118,-12.878,133.550,26.208,-93.010
11762,-0.4126,0.7065,-0.6514,-2.808,-13.428,-14.709,133.522,26.406,-93.005
11772,-0.4170,0.6230,-0.6357,1.221,-14.038,-14.343,133.533,26.603,-93.010
11782,-0.4487,0.5059,-0.5679,-2.136,-12.207,-13.550,133.511,26.790,-93.005
11792,-0.5107,0.4092,-0.4941,-12.146,-10.437,-13.184,133.401,26.955,-92.988
11802,-0.5498,0.3560,-0.4502,-27.100,-7.080,-12.207,133.143,27.092,-92.950
11812,-0.5483,0.4224,-0.4487,-41.321,-1.465,-8.911,132.759,27.169,-92.895
11822,-0.4868,0.6479,-0.5596,-45.105,6.653,-0.732,132.336,27.125,-92.834
11832,-0.3862,0.8774,-0.7002,-31.738,15.564,9.583,132.045,26.949,-92.780
11842,-0.3169,0.9839,-0.7935,-6.409,20.203,16.724,131.995,26.691,-92.736
11852,-0.2886,0.9800,-0.8457,16.907,17.029,17.700,132.171,26.450,-92.725
11862,-0.2979,0.9126,-0.8555,27.161,6.897,12.329,132.424,26.307,-92.763
11872,-0.3555,0.8193,-0.8008,23.682,-5.615,2.930,132.632,26.323,-92.829
11882,-0.4463,0.6450,-0.6372,8.850,-17.883,-7.446,132.682,26.499,-92.922
11892,-0.5200,0.5244,-0.4790,-9.583,-28.076,-15.198,132.534,26.801,-93.038
11902,-0.5483,0.5054,-0.3999,-19.592,-30.701,-17.090,132.281,27.136,-93.159
11914,-0.5283,0.5298,-0.4087,-16.785,-24.536,-12.756,132.067,27.394,-93.268
11922,-0.4307,0.7559,-0.5869,-4.639,-9.460,-3.418,131.995,27.488,-93.318
11932,-0.3521,0.9795,-0.7603,16.174,10.559,8.057,132.171,27.356,-93.290
11942,-0.3184,0.9868,-0.7808,37.964,23.437,13.977,132.589,27.092,-93.203
11952,-0.3398,0.7866,-0.6797,47.302,18.799,9.583,133.099,26.895,-93.120
11962,-0.4282,0.5981,-0.5737,38.330,-0.916,-2.686,133.489,26.922,-93.109
11972,-0.4922,0.5386,-0.5166,16.663,-20.996,-14.343,133.627,27.169,-93.170
11982,-0.5698,0.4663,-0.4731,-3.174,-31.494,-20.142,133.550,27.532,-93.268
11992,-0.6118,0.3726,-0.4287,-17.456,-29.480,-21.301,133.341,27.889,-93.340
12002,-0.5713,0.4058,-0.4341,-25.269,-16.846,-17.029,133.088,28.130,-93.351
12012,-0.5024,0.5039,-0.4673,-20.630,0.610,-6.287,132.907,28.174,-93.296
12022,-0.4238,0.6729,-0.5967,-5.066,16.663,6.409,132.896,28.010,-93.208
12032,-0.3716,0.8643,-0.7603,12.329,29.297,16.235,133.077,27.691,-93.087
12042,-0.3462,0.9463,-0.8354,24.597,33.630,18.677,133.385,27.328,-92.955
12052,-0.3530,0.9307,-0.8418,27.283,27.832,13.672,133.715,27.037,-92.834
12062,-0.4028,0.7861,-0.7568,19.287,13.977,2.869,133.945,26.922,-92.741
12072,-0.4399,0.6743,-0.6660,1.831,-4.028,-10.315,133.984,27.021,-92.692
12082,-0.4731,0.6240,-0.6074,-16.174,-16.602,-18.555,133.830,27.268,-92.681
12092,-0.4922,0.5859,-0.5552,-24.719,-20.264,-20.874,133.583,27.559,-92.686
12102,-0.4941,0.5317,-0.5127,-23.132,-14.954,-17.639,133.363,27.850,-92.670
12112,-0.4814,0.5039,-0.4658,-15.198,-5.981,-10.559,133.220,28.043,-92.637
12122,-0.4790,0.4697,-0.4595,-1.892,1.465,-2.319,133.226,28.130,-92.609
12132,-0.4868,0.4854,-0.5215,10.925,6.042,5.249,133.380,28.114,-92.598
12142,-0.4707,0.5532,-0.6089,17.456,10.132,11.353,133.594,27.977,-92.604
12152,-0.4355,0.6509,-0.7100,16.907,12.939,15.320,133.792,27.746,-92.615
12162,-0.3623,0.8081,-0.8262,10.864,14.404,17.090,133.912,27.422,-92.631
12172,-0.3198,0.9336,-0.8809,2.319,13.550,15.442,133.923,27.081,-92.642
12182,-0.3262,0.9565,-0.8433,-3.601,7.141,8.728,133.857,26.845,-92.653
12192,-0.3755,0.8901,-0.7612,-7.324,-3.540,-0.977,133.742,26.785,-92.675
12202,-0.4238,0.8242,-0.6821,-8.423,-14.832,-10.010,133.599,26.906,-92.719
12212,-0.4678,0.7437,-0.6118,-5.554,-21.851,-15.442,133.478,27.153,-92.774
12222,-0.5034,0.6602,-0.5625,-1.587,-23.437,-17.395,133.407,27.471,-92.834
12232,-0.5088,0.5112,-0.5049,-0.427,-16.052,-13.916,133.401,27.757,-92.856
12242,-0.5088,0.4912,-0.5088,-5.615,-10.925,-10.925,133.369,27.988,-92.862
12252,-0.5093,0.5176,-0.5400,-12.390,-4.883,-7.507,133.286,28.141,-92.840
12262,-0.4980,0.5581,-0.5674,-16.541,1.404,-4.517,133.165,28.202,-92.796
12272,-0.4863,0.5854,-0.5898,-17.639,5.798,-2.380,133.044,28.202,-92.730
12282,-0.4722,0.6094,-0.6201,-16.907,7.812,-1.160,132.935,28.158,-92.653
12292,-0.4546,0.6279,-0.6431,-16.541,7.507,-1.343,132.830,28.103,-92.582
12302,-0.4331,0.6318,-0.6494,-17.700,5.920,-3.418,132.720,28.065,-92.505
12312,-0.4053,0.6401,-0.6470,-21.667,3.906,-6.592,132.572,28.048,-92.422
12322,-0.3784,0.7275,-0.6641,-26.062,2.441,-7.751,132.347,28.015,-92.346
12332,-0.3740,0.8018,-0.6777,-24.597,3.479,-4.089,132.111,27.938,-92.285
12342,-0.3872,0.8115,-0.6860,-17.212,5.066,0.977,131.940,27.817,-92.247
12352,-0.4146,0.7808,-0.6914,-9.155,5.981,4.272,131.852,27.686,-92.230
12362,-0.4307,0.7480,-0.6816,-3.174,5.798,5.188,131.830,27.565,-92.219
12372,-0.4531,0.7085,-0.6465,0.488,3.662,5.371,131.836,27.477,-92.230
12382,-0.4687,0.6572,-0.6025,2.075,0.244,4.822,131.847,27.444,-92.263
12392,-0.4878,0.6108,-0.5586,1.404,-4.089,3.845,131.836,27.471,-92.329
12402,-0.4971,0.5825,-0.5259,-0.671,-7.324,3.357,131.792,27.543,-92.417
12412,-0.5039,0.5806,-0.5044,-2.319,-8.301,4.211,131.715,27.625,-92.516
12422,-0.5093,0.6079,-0.4819,-2.014,-7.019,7.141,131.611,27.675,-92.631
12432,-0.5020,0.6455,-0.4932,1.221,-3.357,11.780,131.528,27.653,-92.747
12442,-0.4717,0.6870,-0.5205,6.653,1.953,16.418,131.501,27.526,-92.851
12452,-0.4458,0.7075,-0.5488,11.963,7.874,18.860,131.550,27.323,-92.928
12462,-0.4346,0.7134,-0.5649,13.977,13.123,18.066,131.644,27.087,-92.950
12472,-0.4365,0.7197,-0.5840,12.207,16.296,15.015,131.748,26.851,-92.928
12482,-0.4448,0.7212,-0.5952,7.446,16.357,10.681,131.825,26.647,-92.867
12492,-0.4556,0.7271,-0.6045,1.587,13.489,6.470,131.852,26.505,-92.807
12502,-0.4556,0.7290,-0.6104,-3.235,10.132,3.357,131.825,26.400,-92.747
12513,-0.4502,0.7275,-0.6172,-5.859,7.385,1.160,131.776,26.334,-92.692
12522,-0.4307,0.7485,-0.6260,-5.005,5.554,-0.122,131.726,26.274,-92.648
12532,-0.4141,0.7446,-0.6299,0.061,3.845,0.122,131.726,26.213,-92.615
12542,-0.4072,0.7207,-0.6309,6.775,0.854,0.793,131.792,26.169,-92.615
12552,-0.4009,0.6924,-0.6421,11.658,-2.625,1.099,131.902,26.147,-92.642
12562,-0.3999,0.6729,-0.6455,13.245,-5.737,1.282,132.028,26.147,-92.703
12572,-0.4033,0.6572,-0.6484,11.169,-7.935,1.160,132.133,26.164,-92.774
12582,-0.4150,0.6704,-0.6587,5.432,-7.568,0.549,132.182,26.186,-92.840
12592,-0.4189,0.7178,-0.6782,-0.610,-4.089,0.549,132.171,26.180,-92.878
12602,-0.4258,0.7329,-0.6895,-4.272,0.610,0.610,132.138,26.136,-92.878
12612,-0.4189,0.7314,-0.6782,-6.470,4.333,-0.793,132.100,26.082,-92.834
12622,-0.4219,0.7212,-0.6440,-8.301,4.822,-3.235,132.039,26.049,-92.774
12632,-0.4438,0.6797,-0.6035,-9.216,0.977,-5.859,131.968,26.087,-92.719
12642,-0.4600,0.6455,-0.5737,-10.681,-4.700,-7.935,131.869,26.197,-92.703
12652,-0.4634,0.6367,-0.5591,-12.878,-9.338,-8.484,131.726,26.345,-92.714
12662,-0.4717,0.6147,-0.5396,-13.794,-12.024,-7.507,131.567,26.516,-92.758
12672,-0.4746,0.6182,-0.5400,-13.733,-12.207,-6.165,131.402,26.675,-92.818
12682,-0.4614,0.6553,-0.5649,-10.376,-9.277,-3.967,131.270,26.779,-92.862
12692,-0.4272,0.7275,-0.6172,-4.578,-3.784,0.000,131.204,26.779,-92.895
12702,-0.3818,0.8057,-0.6729,2.136,3.113,5.249,131.204,26.653,-92.911
12712,-0.3696,0.8398,-0.7036,8.484,8.667,8.728,131.281,26.450,-92.900
12722,-0.3745,0.8228,-0.6860,11.963,9.705,7.690,131.396,26.257,-92.873
12732,-0.4243,0.6997,-0.5947,10.498,3.479,1.892,131.495,26.208,-92.862
12742,-0.4819,0.5854,-0.5049,2.686,-9.766,-7.080,131.501,26.378,-92.889
12752,-0.5049,0.5576,-0.4692,-9.277,-22.339,-13.855,131.358,26.713,-92.972
12762,-0.5278,0.5679,-0.4429,-18.494,-28.992,-15.381,131.083,27.114,-93.104
12772,-0.5249,0.6328,-0.4722,-19.958,-26.123,-12.146,130.781,27.438,-93.235
12782,-0.4961,0.7471,-0.5522,-11.780,-12.573,-4.517,130.589,27.559,-93.307
12792,-0.4648,0.7998,-0.6030,3.235,4.517,4.150,130.589,27.471,-93.301
12802,-0.4395,0.7896,-0.6284,20.325,18.921,10.376,130.809,27.235,-93.214
12812,-0.4155,0.7905,-0.6646,30.090,26.123,11.719,131.160,26.922,-93.082
12822,-0.3872,0.7905,-0.6904,30.640,22.583,7.935,131.523,26.653,-92.944
12832,-0.3809,0.7920,-0.7061,23.193,13.245,2.808,131.797,26.472,-92.856
12842,-0.3867,0.7744,-0.6987,12.207,2.258,-2.625,131.935,26.417,-92.818
12852,-0.3940,0.7339,-0.6753,2.197,-7.690,-8.423,131.962,26.483,-92.818
12862,-0.4077,0.7031,-0.6533,-5.066,-14.282,-12.817,131.913,26.636,-92.840
12872,-0.4189,0.6660,-0.6187,-7.507,-17.151,-14.648,131.830,26.840,-92.873
12882,-0.4302,0.6616,-0.6016,-7.568,-17.578,-14.465,131.743,27.048,-92.917
12892,-0.4463,0.6709,-0.5947,-3.845,-14.771,-11.963,131.688,27.230,-92.950
12902,-0.4697,0.6538,-0.5757,2.014,-8.911,-8.423,131.699,27.361,-92.961
12912,-0.4795,0.6318,-0.5566,7.202,-2.197,-5.554,131.781,27.438,-92.939
12922,-0.4810,0.6191,-0.5552,9.827,3.418,-3.113,131.902,27.466,-92.884
12932,-0.4790,0.6074,-0.5552,9.460,6.348,-1.465,132.028,27.460,-92.823
12942,-0.4844,0.5869,-0.5488,6.653,6.287,-1.038,132.133,27.466,-92.763
12952,-0.4937,0.5591,-0.5391,1.831,4.456,-1.465,132.193,27.493,-92.714
12962,-0.4932,0.5596,-0.5439,-3.235,3.174,-1.282,132.198,27.532,-92.675
12972,-0.4990,0.5723,-0.5620,-5.798,5.005,0.366,132.182,27.537,-92.637
12982,-0.4858,0.6450,-0.6099,-5.066,9.766,2.869,132.171,27.466,-92.576
12992,-0.4556,0.7397,-0.6782,-1.099,16.357,6.409,132.204,27.279,-92.488
13002,-0.4170,0.7983,-0.7236,4.517,22.583,9.277,132.303,26.999,-92.373
13013,-0.3569,0.8687,-0.7949,6.470,24.841,8.301,132.429,26.669,-92.225
13022,-0.3198,0.9072,-0.8423,3.845,20.630,3.357,132.539,26.389,-92.082
13032,-0.3281,0.9004,-0.8242,-4.456,10.681,-4.822,132.550,26.235,-91.956
13042,-0.4058,0.8403,-0.6909,-16.907,-3.296,-14.771,132.385,26.312,-91.873
13052,-0.5078,0.7080,-0.4951,-26.733,-21.362,-24.292,132.050,26.669,-91.868
13062,-0.5503,0.5957,-0.3867,-30.579,-40.100,-32.227,131.616,27.285,-91.961
13072,-0.5557,0.5806,-0.4204,-28.259,-50.354,-34.546,131.204,27.977,-92.126
13082,-0.5283,0.5869,-0.4956,-19.104,-44.373,-29.724,130.930,28.553,-92.280
13092,-0.4971,0.6089,-0.5479,-8.545,-28.076,-20.691,130.814,28.916,-92.368
13102,-0.4790,0.6064,-0.5649,-1.038,-10.925,-10.925,130.820,29.081,-92.379
13112,-0.4775,0.6099,-0.5464,2.197,-1.221,-3.174,130.858,29.125,-92.368
13122,-0.5000,0.6060,-0.5073,2.441,-1.099,1.038,130.869,29.158,-92.384
13132,-0.5293,0.5737,-0.4717,2.563,-5.798,2.991,130.842,29.235,-92.455
13142,-0.5454,0.5488,-0.4663,2.869,-9.705,3.601,130.814,29.350,-92.571
13152,-0.5439,0.5571,-0.4839,3.967,-11.414,3.601,130.792,29.465,-92.692
13162,-0.5073,0.6177,-0.5542,6.897,-10.254,4.578,130.809,29.520,-92.818
13172,-0.4751,0.6787,-0.6304,11.414,-3.784,7.202,130.902,29.465,-92.906
13182,-0.4521,0.7466,-0.6963,14.893,6.348,10.315,131.061,29.290,-92.928
13192,-0.4121,0.8184,-0.7700,15.320,15.198,11.230,131.254,29.015,-92.878
13202,-0.3848,0.8647,-0.8008,11.475,18.677,9.399,131.429,28.718,-92.791
13212,-0.3872,0.8569,-0.7852,6.653,15.808,5.005,131.550,28.471,-92.692
13222,-0.4033,0.7754,-0.6958,0.977,8.179,-1.282,131.600,28.356,-92.615
13232,-0.4434,0.6982,-0.6113,-5.310,-4.456,-8.484,131.556,28.416,-92.587
13242,-0.4790,0.6582,-0.5708,-8.545,-15.930,-13.367,131.451,28.625,-92.620
13252,-0.4990,0.5996,-0.5308,-7.263,-22.949,-14.343,131.336,28.916,-92.708
13262,-0.4971,0.5786,-0.5420,-3.418,-23.926,-12.268,131.265,29.196,-92.823
13272,-0.5044,0.5747,-0.5684,0.854,-18.005,-7.202,131.259,29.394,-92.922
13282,-0.5112,0.5664,-0.5737,4.333,-8.606,-1.526,131.314,29.493,-92.988
13292,-0.5103,0.5801,-0.5967,5.798,0.732,3.174,131.407,29.482,-93.005
13302,-0.4741,0.6479,-0.6313,3.418,7.751,5.859,131.479,29.372,-92.983
13312,-0.4639,0.6958,-0.6396,0.305,10.864,7.202,131.512,29.213,-92.944
13322,-0.4697,0.7036,-0.6323,-1.587,10.681,6.592,131.523,29.070,-92.900
13332,-0.4536,0.7070,-0.6250,-3.540,7.751,4.028,131.506,28.954,-92.867
13342,-0.4258,0.7427,-0.6191,-5.981,2.686,1.099,131.435,28.878,-92.851
13352,-0.4468,0.7573,-0.5967,-6.226,-2.747,-0.671,131.331,28.856,-92.867
13362,-0.4707,0.7554,-0.5801,-4.761,-6.714,-1.709,131.226,28.889,-92.917
13372,-0.4878,0.7451,-0.5757,-2.380,-8.301,-2.625,131.144,28.949,-92.966
13382,-0.5122,0.6938,-0.5503,0.916,-7.202,-3.662,131.111,29.031,-92.999
13392,-0.5244,0.6387,-0.5444,3.174,-5.737,-5.127,131.127,29.136,-93.010
13402,-0.5269,0.6006,-0.5347,2.136,-4.639,-5.737,131.155,29.251,-93.010
13412,-0.5225,0.5703,-0.4990,-1.587,-4.089,-5.310,131.144,29.372,-93.005
13422,-0.5073,0.6084,-0.5078,-5.859,-3.662,-4.089,131.072,29.460,-93.005
13432,-0.5034,0.6733,-0.5205,-6.775,-2.380,-1.099,130.963,29.493,-93.016
13442,-0.4951,0.7280,-0.5371,-1.892,-0.427,2.625,130.891,29.471,-93.038
13452,-0.4839,0.7715,-0.5527,9.094,1.221,5.859,130.908,29.394,-93.071
13462,-0.4937,0.7456,-0.5405,23.315,-1.221,8.606,131.056,29.323,-93.148
13472,-0.5034,0.7109,-0.5601,34.363,-7.935,9.460,131.298,29.301,-93.290
13482,-0.5200,0.6479,-0.5615,40.283,-15.198,9.094,131.594,29.355,-93.488
13492,-0.5293,0.5659,-0.5522,39.307,-19.775,8.545,131.896,29.465,-93.724
13502,-0.5142,0.5698,-0.5947,30.151,-19.287,7.935,132.133,29.559,-93.950
13513,-0.4741,0.6362,-0.6621,16.235,-12.695,7.812,132.248,29.564,-94.120
13522,-0.4580,0.7036,-0.6836,1.465,-1.404,7.507,132.248,29.471,-94.186
13532,-0.4551,0.7495,-0.6680,-10.620,9.827,5.676,132.160,29.317,-94.147
13542,-0.4570,0.7593,-0.6338,-16.357,15.320,1.526,132.028,29.158,-94.026
13552,-0.4771,0.7026,-0.5625,-15.564,13.916,-2.380,131.907,29.070,-93.895
13562,-0.5010,0.6768,-0.5425,-8.850,8.362,-4.944,131.841,29.059,-93.785
13572,-0.5254,0.6621,-0.5469,1.526,3.845,-4.456,131.863,29.092,-93.719
13582,-0.5371,0.6274,-0.5566,12.390,1.770,-1.892,132.001,29.130,-93.686
13592,-0.5371,0.5791,-0.5605,19.714,1.099,1.404,132.215,29.158,-93.686
13602,-0.5293,0.5347,-0.5518,21.301,0.427,3.967,132.451,29.180,-93.713
13612,-0.5181,0.4888,-0.5288,17.822,-0.916,5.737,132.649,29.213,-93.768
13622,-0.5078,0.4600,-0.5220,10.681,-2.747,6.775,132.775,29.246,-93.845
13632,-0.4678,0.5430,-0.6118,3.052,-1.160,8.118,132.830,29.202,-93.917
13642,-0.4180,0.7231,-0.7490,-0.854,6.409,10.681,132.836,29.009,-93.944
13652,-0.3667,0.8481,-0.8506,-0.549,16.663,12.146,132.874,28.685,-93.900
13662,-0.3306,0.9248,-0.9033,-0.305,22.888,10.010,132.940,28.317,-93.785
13672,-0.3193,0.9321,-0.8779,-2.258,20.386,3.784,132.990,28.010,-93.647
13682,-0.3584,0.9219,-0.8091,-5.615,10.925,-3.967,132.973,27.845,-93.527
13692,-0.4194,0.8354,-0.6895,-6.897,-1.526,-11.963,132.907,27.878,-93.444
13702,-0.4849,0.6860,-0.5586,-5.737,-14.343,-18.066,132.819,28.114,-93.428
13712,-0.5381,0.5776,-0.4775,-4.150,-22.400,-19.897,132.731,28.482,-93.461
13722,-0.5522,0.4839,-0.4360,-0.671,-24.109,-16.357,132.682,28.883,-93.532
13732,-0.5508,0.4146,-0.4277,2.869,-19.470,-9.705,132.704,29.224,-93.620
13742,-0.5635,0.4097,-0.4487,4.639,-11.353,-2.075,132.759,29.449,-93.702
13752,-0.5566,0.4429,-0.4897,6.653,-1.892,5.554,132.847,29.531,-93.763
13762,-0.5283,0.5098,-0.5474,7.751,6.531,11.230,132.951,29.460,-93.796
13772,-0.4897,0.5835,-0.6016,8.240,9.766,13.306,133.050,29.306,-93.818
13782,-0.4580,0.6895,-0.6890,6.104,6.714,12.512,133.110,29.130,-93.856
13792,-0.4390,0.7812,-0.7612,4.395,2.258,11.169,133.132,28.965,-93.928
13802,-0.4224,0.8135,-0.7891,3.052,-0.854,8.911,133.132,28.817,-94.005
13812,-0.4136,0.8052,-0.7788,1.465,-2.686,4.822,133.127,28.718,-94.065
13822,-0.4209,0.7847,-0.7393,-1.099,-4.517,0.183,133.099,28.674,-94.103
13832,-0.4136,0.7256,-0.6587,-3.845,-7.263,-3.418,133.039,28.691,-94.136
13842,-0.4346,0.6489,-0.5698,-5.981,-11.230,-5.554,132.940,28.784,-94.186
13852,-0.4824,0.6289,-0.5317,-7.874,-13.367,-5.859,132.803,28.932,-94.252
13862,-0.5132,0.6123,-0.5122,-7.202,-11.414,-4.089,132.671,29.075,-94.318
13872,-0.5254,0.5811,-0.4785,-4.639,-7.080,-1.221,132.567,29.191,-94.367
13882,-0.5254,0.5752,-0.4683,-2.136,-3.601,1.892,132.490,29.262,-94.411
13892,-0.5229,0.6138,-0.4883,-0.244,-1.709,4.883,132.424,29.284,-94.460
13902,-0.5322,0.6450,-0.5166,2.808,1.160,7.446,132.391,29.257,-94.510
13915,-0.5146,0.7095,-0.5732,5.249,5.310,8.057,132.402,29.163,-94.526
13922,-0.4756,0.7783,-0.6597,6.714,8.118,7.019,132.451,29.020,-94.515
13932,-0.4302,0.8071,-0.6909,5.737,8.423,4.883,132.506,28.856,-94.482
13942,-0.4180,0.8237,-0.6934,2.930,6.409,1.404,132.534,28.729,-94.438
13952,-0.4399,0.8086,-0.6562,-0.366,2.625,-2.502,132.512,28.669,-94.395
13962,-0.4819,0.7339,-0.5532,-2.808,-1.038,-5.920,132.446,28.707,-94.356
13972,-0.5312,0.6235,-0.4351,-3.235,-4.272,-8.118,132.352,28.861,-94.334
13982,-0.5615,0.5688,-0.4062,-0.488,-4.517,-7.385,132.286,29.042,-94.312
13992,-0.5366,0.5684,-0.4609,5.432,0.671,-3.601,132.325,29.136,-94.279
14002,-0.4902,0.6343,-0.5981,13.550,10.071,3.113,132.501,29.048,-94.219
14013,-0.4512,0.7007,-0.7344,19.958,21.484,11.658,132.781,28.768,-94.125
14022,-0.4131,0.7529,-0.7749,22.644,27.893,17.578,133.077,28.378,-94.032
14032,-0.4131,0.6904,-0.7202,23.499,22.217,18.799,133.363,28.032,-93.994
14042,-0.4707,0.5703,-0.5933,19.165,5.615,15.808,133.544,27.894,-94.070
14052,-0.5420,0.4526,-0.4873,9.705,-12.268,11.963,133.583,28.010,-94.263
14062,-0.5786,0.4419,-0.4702,-3.967,-22.217,10.498,133.456,28.224,-94.526
14072,-0.5649,0.5278,-0.5503,-11.169,-17.151,13.306,133.259,28.328,-94.774
14082,-0.5161,0.6631,-0.6782,-7.690,1.099,18.066,133.143,28.191,-94.905
14092,-0.4390,0.7686,-0.7612,1.892,19.409,22.583,133.171,27.834,-94.916
14102,-0.3608,0.7979,-0.7808,12.939,24.902,23.071,133.325,27.400,-94.889
14112,-0.3125,0.8398,-0.8042,18.494,17.090,18.494,133.511,27.026,-94.894
14122,-0.3257,0.8760,-0.8276,18.005,6.531,10.864,133.671,26.785,-94.927
14132,-0.3701,0.8770,-0.7939,12.817,-1.770,2.136,133.770,26.691,-94.955
14142,-0.4028,0.8262,-0.7319,5.188,-7.446,-5.188,133.792,26.713,-94.977
14152,-0.4321,0.7036,-0.6250,-2.014,-10.742,-10.742,133.748,26.840,-94.977
14162,-0.4697,0.5640,-0.5361,-8.301,-11.597,-15.198,133.676,27.070,-94.955
14172,-0.5078,0.4985,-0.4980,-13.123,-10.620,-17.822,133.583,27.361,-94.905
14182,-0.5273,0.4805,-0.4976,-14.709,-7.324,-14.954,133.484,27.614,-94.845
14192,-0.5337,0.4810,-0.5127,-10.620,-1.770,-7.385,133.434,27.779,-94.807
14202,-0.5112,0.4785,-0.5073,-5.127,4.150,1.221,133.423,27.823,-94.779
14212,-0.4893,0.5010,-0.5039,-0.488,6.592,6.531,133.440,27.801,-94.779
14222,-0.4834,0.5347,-0.5596,3.906,5.005,8.362,133.495,27.751,-94.801
14232,-0.4683,0.6074,-0.6392,4.944,3.479,9.949,133.550,27.658,-94.850
14242,-0.4346,0.7129,-0.7383,4.395,4.028,11.658,133.594,27.499,-94.905
14252,-0.3960,0.8174,-0.8286,3.540,5.859,11.841,133.627,27.285,-94.949
14262,-0.3643,0.8525,-0.8413,2.197,5.310,8.728,133.649,27.081,-94.977
14272,-0.3608,0.8384,-0.7905,-1.465,-0.916,2.258,133.616,26.977,-94.999
14282,-0.3828,0.8027,-0.7246,-7.446,-9.399,-5.554,133.511,27.004,-95.032
14292,-0.3940,0.7344,-0.6235,-14.160,-15.808,-11.963,133.325,27.153,-95.070
14302,-0.4282,0.6577,-0.5317,-18.433,-19.470,-16.418,133.083,27.400,-95.103
14312,-0.4692,0.6299,-0.4941,-20.142,-19.409,-18.311,132.825,27.691,-95.120
14322,-0.5015,0.6377,-0.5005,-18.616,-14.587,-16.663,132.599,27.955,-95.114
14332,-0.5210,0.6357,-0.5117,-12.512,-7.385,-12.512,132.451,28.141,-95.081
14342,-0.5249,0.6372,-0.5454,-3.784,-1.282,-7.385,132.418,28.240,-95.032
14352,-0.5098,0.6533,-0.5996,4.639,1.160,-3.235,132.479,28.273,-94.999
14362,-0.5010,0.6411,-0.6196,10.132,-1.099,-0.549,132.594,28.295,-95.004
14372,-0.4863,0.5884,-0.6128,11.414,-6.042,0.305,132.720,28.350,-95.059
14382,-0.4868,0.5864,-0.6328,7.385,-10.681,0.366,132.792,28.427,-95.147
14392,-0.4858,0.6138,-0.6538,1.282,-11.047,1.526,132.797,28.493,-95.251
14402,-0.4722,0.6191,-0.6318,-2.747,-7.935,3.357,132.753,28.515,-95.345
14412,-0.4541,0.6328,-0.5815,-3.906,-5.249,4.700,132.676,28.510,-95.427
14422,-0.4653,0.6646,-0.5854,-0.427,-3.174,5.737,132.627,28.482,-95.499
14432,-0.4766,0.6802,-0.5986,4.944,-0.305,6.714,132.632,28.427,-95.554
14442,-0.4727,0.6606,-0.5854,8.484,2.136,7.568,132.687,28.356,-95.592
14452,-0.4687,0.6157,-0.5640,8.667,2.380,7.141,132.759,28.301,-95.625
14462,-0.4785,0.6382,-0.5889,4.150,1.526,5.859,132.781,28.251,-95.658
14472,-0.4863,0.6777,-0.6162,-2.441,1.892,5.127,132.742,28.196,-95.685
14482,-0.4790,0.7158,-0.6309,-7.202,3.296,4.639,132.654,28.130,-95.691
14492,-0.4565,0.7715,-0.6514,-9.155,4.700,3.296,132.545,28.032,-95.680
14502,-0.4316,0.8315,-0.6934,-7.446,6.165,2.075,132.457,27.916,-95.641
14513,-0.4087,0.8232,-0.6904,-2.625,6.592,0.549,132.435,27.795,-95.592
14522,-0.4131,0.7583,-0.6504,0.977,2.808,-3.052,132.446,27.746,-95.543
14532,-0.4434,0.7178,-0.6265,0.366,-1.892,-7.446,132.457,27.784,-95.504
14542,-0.4678,0.6870,-0.6021,-2.930,-3.418,-10.132,132.435,27.878,-95.455
14552,-0.4849,0.6421,-0.5615,-6.897,-2.014,-10.803,132.385,27.988,-95.389
14562,-0.5059,0.5898,-0.5200,-8.850,-0.732,-10.498,132.319,28.114,-95.317
14572,-0.5098,0.5693,-0.5161,-8.606,0.427,-9.094,132.270,28.235,-95.240
14582,-0.4927,0.5342,-0.5098,-7.324,2.075,-6.897,132.242,28.323,-95.169
14592,-0.5005,0.5303,-0.5127,-6.226,2.869,-4.517,132.226,28.400,-95.114
14602,-0.4990,0.5830,-0.5703,-4.822,4.822,-1.709,132.226,28.411,-95.059
14612,-0.4761,0.6797,-0.6460,-4.150,9.399,1.648,132.231,28.317,-94.993
14622,-0.4473,0.7715,-0.7085,-2.747,13.855,4.272,132.248,28.141,-94.911
14632,-0.4106,0.8569,-0.7886,-0.122,15.198,5.188,132.286,27.916,-94.823
14642,-0.3613,0.9141,-0.8564,2.258,13.428,3.296,132.358,27.686,-94.735
14652,-0.3477,0.8735,-0.8374,2.869,7.507,-1.709,132.440,27.532,-94.658
14662,-0.3765,0.7710,-0.7388,-0.916,-3.357,-9.155,132.462,27.537,-94.614
14672,-0.4521,0.5542,-0.5063,-9.277,-17.761,-16.479,132.358,27.812,-94.636
14682,-0.5889,0.2480,-0.2280,-18.250,-34.790,-22.705,132.127,28.537,-94.757
14692,-0.6709,0.1021,-0.0981,-27.771,-43.396,-23.743,131.781,29.493,-94.944
14702,-0.7080,0.2563,-0.1724,-30.701,-31.982,-13.855,131.314,30.179,-95.109
14712,-0.6338,0.5278,-0.4102,-17.578,-1.221,6.531,131.078,30.267,-95.169
14722,-0.5122,0.7852,-0.6831,4.639,32.654,27.466,131.160,29.811,-95.092
14732,-0.3721,1.0088,-0.9126,26.611,49.316,38.818,131.501,29.059,-94.960
14742,-0.2583,1.0986,-1.0210,44.617,42.969,38.513,131.984,28.482,-94.883
14752,-0.2212,1.0527,-1.0142,49.744,21.057,27.283,132.468,28.141,-94.911
14762,-0.2598,0.9653,-0.9390,35.461,-5.127,9.338,132.764,28.103,-95.026
14772,-0.3213,0.8755,-0.8101,8.789,-26.306,-8.484,132.781,28.345,-95.180
14782,-0.4106,0.7568,-0.6450,-13.062,-37.415,-21.118,132.583,28.757,-95.328
14792,-0.4946,0.6260,-0.4917,-23.926,-37.170,-26.245,132.286,29.202,-95.438
14802,-0.5420,0.4932,-0.3691,-25.391,-29.297,-24.414,132.006,29.575,-95.499
14812,-0.5786,0.4116,-0.3057,-18.433,-17.944,-17.944,131.814,29.833,-95.515
14822,-0.6094,0.3970,-0.3071,-7.080,-6.409,-8.850,131.748,29.938,-95.504
14832,-0.6069,0.4438,-0.3770,6.592,4.517,0.977,131.830,29.905,-95.471
14842,-0.5527,0.5576,-0.5063,14.160,13.977,9.521,131.995,29.740,-95.422
14852,-0.5015,0.6973,-0.6240,14.709,21.301,14.709,132.177,29.487,-95.356
14862,-0.4585,0.8027,-0.7095,12.512,24.658,15.686,132.347,29.207,-95.268
14872,-0.4209,0.8618,-0.7583,8.179,23.804,12.329,132.479,28.954,-95.158
14882,-0.3833,0.8594,-0.7725,2.930,19.348,5.249,132.567,28.784,-95.037
14892,-0.3770,0.8110,-0.7358,-3.357,9.766,-3.601,132.589,28.746,-94.927
14902,-0.4116,0.7515,-0.6968,-7.690,-1.648,-10.681,132.545,28.834,-94.861
14912,-0.4443,0.6953,-0.6631,-9.216,-8.179,-14.038,132.473,28.993,-94.818
14922,-0.4658,0.6519,-0.6270,-8.850,-9.583,-14.160,132.396,29.163,-94.790
14932,-0.4810,0.5830,-0.5757,-6.592,-7.935,-12.024,132.341,29.306,-94.763
14942,-0.4883,0.5005,-0.4971,-4.211,-6.958,-8.972,132.308,29.416,-94.757
14952,-0.5078,0.4526,-0.4595,-2.014,-6.775,-5.005,132.275,29.498,-94.774
14962,-0.5420,0.4585,-0.4731,0.366,-4.822,0.122,132.259,29.531,-94.818
14972,-0.5469,0.4878,-0.5010,3.235,1.038,6.104,132.275,29.482,-94.856
14982,-0.5171,0.5615,-0.5669,6.042,8.240,11.841,132.325,29.333,-94.878
14992,-0.4702,0.6699,-0.6587,8.301,14.526,16.296,132.407,29.119,-94.878
15002,-0.4214,0.7607,-0.7310,9.460,17.883,18.433,132.506,28.861,-94.867
15013,-0.3872,0.8242,-0.7881,9.399,16.113,17.517,132.599,28.625,-94.867
15022,-0.3760,0.8394,-0.8115,8.301,10.193,13.489,132.671,28.455,-94.889
15032,-0.3828,0.8179,-0.7954,5.371,1.465,7.263,132.704,28.394,-94.933
15042,-0.3921,0.7739,-0.7559,0.122,-7.874,0.366,132.671,28.444,-94.999
15052,-0.4116,0.7241,-0.6787,-6.104,-16.479,-4.761,132.567,28.586,-95.103
15062,-0.4375,0.6699,-0.5889,-11.475,-23.193,-7.507,132.385,28.801,-95.235
15072,-0.4751,0.6191,-0.4888,-14.709,-26.917,-8.240,132.160,29.042,-95.400
15082,-0.5249,0.5991,-0.4224,-14.709,-25.879,-6.653,131.929,29.268,-95.570
15092,-0.5488,0.5996,-0.4053,-10.315,-18.860,-3.540,131.759,29.421,-95.702
15102,-0.5596,0.5981,-0.4121,-3.479,-8.362,0.488,131.688,29.471,-95.779
15112,-0.5547,0.5986,-0.4395,2.808,2.441,3.967,131.715,29.427,-95.790
15122,-0.5278,0.6377,-0.4971,5.798,11.475,5.859,131.797,29.306,-95.735
15132,-0.5054,0.6860,-0.5630,5.188,16.418,6.042,131.896,29.152,-95.641
15142,-0.4702,0.7173,-0.6182,1.404,17.334,5.127,131.962,28.998,-95.532
15152,-0.4331,0.7622,-0.6655,-3.601,15.991,3.174,131.979,28.867,-95.422
15162,-0.4248,0.8018,-0.6938,-8.301,14.160,0.854,131.951,28.762,-95.306
15172,-0.4268,0.8105,-0.6978,-10.681,12.512,-2.258,131.902,28.696,-95.180
15182,-0.4272,0.7847,-0.6846,-11.475,10.315,-5.981,131.852,28.674,-95.048
15192,-0.4272,0.7500,-0.6611,-11.230,7.141,-9.399,131.803,28.696,-94.916
15202,-0.4312,0.7119,-0.6440,-8.545,3.906,-11.169,131.776,28.751,-94.801
15212,-0.4424,0.6689,-0.6333,-4.089,1.892,-10.742,131.781,28.823,-94.702
15222,-0.4482,0.6064,-0.6016,0.183,0.671,-9.155,131.819,28.883,-94.625
15232,-0.4609,0.5630,-0.5674,2.197,-0.916,-7.080,131.863,28.943,-94.581
15242,-0.4854,0.5547,-0.5591,1.892,-0.977,-4.272,131.929,29.009,-94.554
15252,-0.5024,0.5625,-0.5571,0.854,1.343,-0.977,131.973,29.042,-94.537
15262,-0.4961,0.6001,-0.5649,0.061,4.700,2.258,132.001,29.015,-94.515
15272,-0.4805,0.6533,-0.5947,1.038,8.362,5.066,132.028,28.916,-94.482
15282,-0.4585,0.6978,-0.6284,3.662,10.925,6.470,132.083,28.768,-94.438
15292,-0.4385,0.7456,-0.6650,6.470,11.353,6.714,132.166,28.592,-94.395
15302,-0.4165,0.7544,-0.6812,8.789,9.155,5.737,132.270,28.427,-94.362
15312,-0.4165,0.7446,-0.6714,8.667,4.089,2.930,132.358,28.317,-94.351
15322,-0.4268,0.7314,-0.6553,6.409,-1.709,-0.244,132.407,28.284,-94.362
15332,-0.4434,0.7197,-0.6250,2.686,-5.432,-2.319,132.407,28.301,-94.389
15342,-0.4707,0.7012,-0.5908,-0.122,-5.981,-3.723,132.374,28.361,-94.411
15352,-0.4780,0.6890,-0.5771,-1.343,-3.906,-4.883,132.341,28.416,-94.406
15362,-0.4761,0.7007,-0.5801,-1.465,-0.549,-5.432,132.314,28.455,-94.367
15372,-0.4687,0.6948,-0.5845,-0.122,3.052,-5.310,132.319,28.460,-94.301
15382,-0.4429,0.6855,-0.6045,1.160,5.676,-5.493,132.369,28.438,-94.213
15392,-0.4424,0.6743,-0.6030,0.244,6.958,-6.042,132.413,28.411,-94.109
15402,-0.4819,0.6138,-0.5479,-2.014,6.348,-6.714,132.435,28.438,-94.005
15412,-0.5083,0.5859,-0.5171,-4.822,4.211,-7.080,132.418,28.504,-93.911
15422,-0.5083,0.6108,-0.5303,-6.714,3.784,-5.249,132.374,28.553,-93.840
15432,-0.4810,0.6621,-0.5928,-5.066,6.409,-2.075,132.352,28.526,-93.774
15442,-0.4209,0.7485,-0.6948,-1.221,11.536,0.732,132.385,28.383,-93.680
15452,-0.3813,0.8042,-0.7500,2.075,16.541,2.319,132.473,28.163,-93.560
15462,-0.3667,0.8125,-0.7397,3.662,17.395,1.221,132.567,27.944,-93.422
15472,-0.4028,0.7212,-0.6528,3.723,11.841,-2.747,132.654,27.828,-93.301
15482,-0.4585,0.6021,-0.5552,0.366,0.916,-8.789,132.693,27.900,-93.230
15492,-0.5103,0.5078,-0.4829,-5.371,-9.277,-13.367,132.665,28.141,-93.203
15502,-0.5415,0.4741,-0.4634,-10.559,-13.916,-13.245,132.567,28.444,-93.219
15513,-0.5312,0.5312,-0.5166,-10.437,-8.911,-7.324,132.473,28.625,-93.235
15522,-0.4937,0.6128,-0.5967,-2.991,4.211,2.441,132.468,28.592,-93.219
15532,-0.4272,0.7280,-0.7163,8.057,18.250,11.292,132.599,28.328,-93.153
15542,-0.3687,0.8369,-0.8223,17.578,27.893,15.747,132.847,27.922,-93.038
15552,-0.3350,0.8789,-0.8599,23.193,27.100,13.794,133.143,27.510,-92.922
15562,-0.3428,0.8589,-0.8164,20.447,16.541,7.263,133.391,27.235,-92.840
15572,-0.3892,0.7861,-0.7329,11.230,0.061,-2.197,133.506,27.175,-92.823
15582,-0.4370,0.7222,-0.6553,-2.441,-14.282,-11.292,133.456,27.323,-92.851
15593,-0.4844,0.6250,-0.5620,-13.855,-21.667,-16.785,133.281,27.620,-92.900
15602,-0.5186,0.5518,-0.4897,-20.203,-22.034,-18.433,133.044,27.977,-92.939
15612,-0.5396,0.5107,-0.4546,-19.470,-16.235,-15.991,132.836,28.301,-92.950
15622,-0.5391,0.4902,-0.4497,-13.550,-7.874,-10.437,132.704,28.537,-92.933
15632,-0.5249,0.5117,-0.4878,-5.127,0.183,-3.479,132.676,28.641,-92.906
15642,-0.5093,0.5400,-0.5288,3.662,6.714,3.052,132.748,28.630,-92.873
15652,-0.4932,0.5796,-0.5674,9.460,11.108,7.568,132.874,28.526,-92.840
15663,-0.4844,0.5854,-0.5884,10.864,12.817,9.705,133.017,28.389,-92.807
15672,-0.4707,0.6050,-0.6245,7.996,10.864,9.094,133.132,28.251,-92.785
15683,-0.4536,0.6670,-0.6719,2.258,7.507,8.118,133.176,28.114,-92.791
15693,-0.4385,0.7095,-0.6919,-1.343,4.211,7.568,133.165,27.988,-92.813
15703,-0.4209,0.7495,-0.7251,-1.831,1.465,6.531,133.138,27.872,-92.851
15713,-0.3726,0.8237,-0.7935,-0.366,0.549,5.493,133.121,27.729,-92.889
15722,-0.3457,0.8330,-0.7935,2.075,0.671,4.578,133.132,27.581,-92.917
15732,-0.3457,0.8169,-0.7583,3.052,-1.953,2.319,133.149,27.477,-92.950
15743,-0.3716,0.8022,-0.7187,2.747,-6.897,-0.793,133.138,27.444,-93.005
15753,-0.4062,0.7715,-0.6787,2.380,-11.353,-3.540,133.116,27.488,-93.071
15763,-0.4556,0.6870,-0.6196,2.014,-13.550,-5.737,133.094,27.609,-93.137
15773,-0.4922,0.5972,-0.5527,0.122,-14.832,-7.324,133.061,27.795,-93.203
15782,-0.5186,0.5498,-0.5093,-2.197,-14.954,-7.202,133.006,28.015,-93.268
15792,-0.5269,0.5225,-0.4858,-3.052,-13.062,-5.066,132.940,28.229,-93.340
15802,-0.5186,0.5347,-0.4873,-2.808,-9.644,-1.343,132.874,28.378,-93.411
15813,-0.5049,0.5825,-0.5156,-0.061,-3.784,3.662,132.830,28.422,-93.466
15823,-0.4854,0.6245,-0.5464,5.432,3.235,8.484,132.852,28.356,-93.505
15833,-0.4434,0.7095,-0.6167,9.949,9.521,11.719,132.924,28.174,-93.516
15843,-0.4102,0.7593,-0.6660,11.414,13.306,12.756,133.028,27.933,-93.505
15853,-0.4053,0.7773,-0.6831,9.399,13.916,10.803,133.116,27.697,-93.477
15863,-0.4150,0.7715,-0.6855,5.249,11.780,6.775,133.176,27.510,-93.428
15873,-0.4351,0.7368,-0.6660,0.122,7.812,1.770,133.187,27.405,-93.378
15883,-0.4565,0.6860,-0.6338,-4.395,2.747,-2.869,133.160,27.394,-93.334
15893,-0.4780,0.6436,-0.6030,-7.263,-1.831,-5.127,133.099,27.455,-93.312
15903,-0.4941,0.6079,-0.5718,-6.592,-4.395,-4.517,133.033,27.548,-93.312
15916,-0.4985,0.5830,-0.5356,-3.235,-5.432,-2.502,132.990,27.647,-93.334
15923,-0.5000,0.5654,-0.5205,2.319,-4.639,0.854,132.984,27.729,-93.384
15933,-0.4937,0.5605,-0.5327,7.751,-1.526,4.700,133.044,27.751,-93.433
15943,-0.4722,0.5786,-0.5635,10.681,3.296,8.118,133.149,27.697,-93.466
15953,-0.4448,0.6123,-0.6011,10.498,8.179,10.132,133.259,27.565,-93.477
15963,-0.4243,0.6548,-0.6338,7.812,11.230,10.681,133.352,27.389,-93.466
15973,-0.4111,0.7139,-0.6646,4.639,12.390,9.949,133.401,27.186,-93.444
15983,-0.4131,0.7573,-0.6816,2.258,11.963,8.789,133.423,26.988,-93.411
15993,-0.4180,0.7812,-0.6768,1.160,9.827,6.958,133.423,26.823,-93.384
16003,-0.4248,0.7900,-0.6660,1.465,6.409,4.333,133.412,26.702,-93.367
16013,-0.4307,0.7837,-0.6611,2.808,3.296,1.465,133.412,26.631,-93.351
16023,-0.4346,0.7661,-0.6543,4.517,1.404,-1.770,133.440,26.603,-93.329
16033,-0.4409,0.7446,-0.6479,5.798,1.038,-5.493,133.495,26.609,-93.274
16043,-0.4375,0.7256,-0.6431,5.371,1.587,-8.789,133.566,26.636,-93.197
16053,-0.4307,0.7012,-0.6436,3.967,2.441,-11.108,133.643,26.680,-93.093
16063,-0.4258,0.6792,-0.6470,2.747,3.479,-11.963,133.720,26.719,-92.972
16073,-0.4229,0.6558,-0.6479,2.197,4.028,-11.292,133.808,26.752,-92.851
16083,-0.4248,0.6221,-0.6445,2.563,3.540,-9.949,133.901,26.785,-92.747
16093,-0.4326,0.5884,-0.6396,2.930,2.258,-7.751,134.000,26.818,-92.664
16103,-0.4409,0.5664,-0.6489,2.319,1.831,-4.822,134.094,26.845,-92.615
16113,-0.4492,0.5479,-0.6592,0.732,1.953,-1.648,134.176,26.851,-92.587
16123,-0.4536,0.5386,-0.6611,-1.770,2.380,1.648,134.231,26.834,-92.576
16133,-0.4463,0.5537,-0.6636,-4.517,2.747,4.883,134.236,26.785,-92.593
16143,-0.4404,0.5811,-0.6694,-5.188,2.014,7.751,134.214,26.713,-92.637
16153,-0.4404,0.5972,-0.6782,-2.991,0.244,10.132,134.193,26.631,-92.714
16163,-0.4326,0.6138,-0.6943,0.305,-2.136,11.719,134.193,26.548,-92.823
16173,-0.4160,0.6514,-0.7153,2.808,-5.127,12.634,134.193,26.461,-92.966
16183,-0.4028,0.6880,-0.7256,3.723,-8.728,12.939,134.176,26.384,-93.137
16193,-0.3945,0.7061,-0.7080,2.869,-12.573,12.268,134.127,26.334,-93.329
16203,-0.3921,0.7305,-0.6880,-0.061,-16.174,10.742,134.028,26.323,-93.543
16213,-0.4014,0.7495,-0.6665,-3.235,-17.212,8.667,133.879,26.334,-93.752
16223,-0.4155,0.7617,-0.6392,-5.554,-15.747,5.859,133.709,26.362,-93.922
16233,-0.4341,0.7646,-0.6128,-6.897,-13.672,3.174,133.533,26.406,-94.054
16243,-0.4507,0.7554,-0.5874,-7.080,-11.841,0.854,133.363,26.472,-94.158
16253,-0.4590,0.7485,-0.5674,-6.958,-10.559,-1.282,133.198,26.548,-94.235
16263,-0.4619,0.7422,-0.5459,-5.981,-8.911,-2.869,133.044,26.631,-94.285
16273,-0.4663,0.6982,-0.4951,-4.333,-6.958,-3.967,132.913,26.724,-94.312
16283,-0.4868,0.6357,-0.4541,-3.601,-6.042,-5.188,132.803,26.856,-94.323
16293,-0.5063,0.6113,-0.4429,-4.761,-4.395,-5.920,132.687,26.999,-94.312
16303,-0.5205,0.6060,-0.4414,-5.066,-0.488,-5.005,132.589,27.114,-94.279
16313,-0.5205,0.6104,-0.4478,-3.235,5.310,-2.319,132.523,27.169,-94.219
16323,-0.5181,0.6133,-0.4702,0.793,10.803,0.671,132.517,27.158,-94.131
16333,-0.5059,0.6235,-0.5186,5.554,14.893,3.235,132.589,27.087,-94.032
