elapsed_ms,acc_x_g,acc_y_g,acc_z_g,gyro_x_dps,gyro_y_dps,gyro_z_dps,angle_x_deg,angle_y_deg,angle_z_deg
0,-0.5791,0.5479,-0.6045,3.418,7.141,-2.808,139.790,35.821,-82.051
10,-0.5791,0.5498,-0.6118,4.395,8.789,-2.380,139.872,35.760,-81.958
20,-0.5830,0.5493,-0.6191,5.493,10.559,-2.319,139.971,35.689,-81.854
30,-0.5850,0.5474,-0.6270,6.653,12.024,-2.441,140.098,35.612,-81.738
40,-0.5845,0.5444,-0.6304,7.202,13.000,-2.686,140.229,35.524,-81.606
50,-0.5825,0.5352,-0.6357,7.202,13.428,-3.174,140.378,35.436,-81.475
60,-0.5850,0.5278,-0.6470,7.019,13.672,-3.845,140.532,35.354,-81.326
70,-0.5864,0.5278,-0.6602,6.409,14.160,-4.333,140.691,35.266,-81.178
80,-0.5806,0.5239,-0.6660,5.676,15.015,-4.761,140.850,35.173,-81.019
90,-0.5757,0.5181,-0.6719,5.005,15.442,-5.188,141.010,35.074,-80.848
100,-0.5742,0.5176,-0.6772,4.028,15.381,-5.554,141.163,34.980,-80.678
110,-0.5767,0.5171,-0.6851,3.479,14.526,-5.737,141.312,34.893,-80.513
120,-0.5742,0.5146,-0.6875,3.052,12.878,-5.798,141.449,34.821,-80.359
130,-0.5718,0.5142,-0.6890,2.808,10.681,-5.554,141.570,34.761,-80.222
140,-0.5747,0.5103,-0.6938,3.174,8.789,-5.249,141.685,34.711,-80.107
150,-0.5786,0.5015,-0.6973,3.662,7.324,-5.005,141.806,34.678,-80.002
160,-0.5757,0.5010,-0.6973,3.845,6.409,-4.700,141.921,34.651,-79.909
170,-0.5693,0.5034,-0.6953,3.784,5.798,-4.211,142.031,34.618,-79.827
180,-0.5620,0.4966,-0.6929,3.723,5.005,-3.845,142.130,34.590,-79.755
190,-0.5610,0.4985,-0.6924,3.540,3.967,-3.479,142.224,34.568,-79.689
200,-0.5576,0.5054,-0.6924,3.479,3.174,-2.991,142.300,34.547,-79.640
210,-0.5537,0.5039,-0.6953,3.723,2.502,-2.441,142.383,34.525,-79.596
220,-0.5498,0.5015,-0.6938,3.784,2.197,-1.892,142.454,34.503,-79.563
230,-0.5527,0.4990,-0.6899,3.662,2.014,-1.587,142.526,34.481,-79.530
240,-0.5625,0.4976,-0.6948,3.479,1.892,-1.343,142.592,34.464,-79.503
250,-0.5645,0.4985,-0.6963,3.113,1.953,-1.221,142.657,34.442,-79.481
261,-0.5645,0.5010,-0.7017,2.869,2.075,-1.160,142.718,34.420,-79.453
270,-0.5542,0.5068,-0.7104,2.258,2.563,-1.099,142.773,34.387,-79.420
280,-0.5542,0.5044,-0.7187,2.258,2.380,-1.282,142.833,34.354,-79.393
290,-0.5518,0.4976,-0.7241,1.587,1.953,-1.404,142.894,34.327,-79.365
300,-0.5532,0.4937,-0.7261,0.549,0.916,-1.587,142.938,34.305,-79.343
310,-0.5527,0.4980,-0.7324,-0.366,-0.427,-1.587,142.971,34.299,-79.332
320,-0.5576,0.4966,-0.7310,-0.977,-1.526,-1.404,142.993,34.299,-79.327
330,-0.5601,0.4917,-0.7295,-1.465,-2.686,-1.282,143.004,34.310,-79.332
340,-0.5635,0.4868,-0.7202,-2.258,-4.395,-1.282,142.998,34.338,-79.354
350,-0.5664,0.4819,-0.7114,-3.174,-6.531,-1.221,142.976,34.387,-79.393
360,-0.5674,0.4810,-0.7026,-4.150,-8.911,-0.916,142.932,34.453,-79.448
370,-0.5674,0.4790,-0.6963,-4.578,-10.986,-0.244,142.866,34.536,-79.525
380,-0.5723,0.4722,-0.6841,-4.517,-12.329,0.549,142.795,34.634,-79.618
390,-0.5791,0.4775,-0.6772,-4.028,-12.817,1.343,142.712,34.728,-79.728
400,-0.5786,0.4834,-0.6689,-2.991,-12.268,2.441,142.635,34.816,-79.843
410,-0.5806,0.4814,-0.6631,-1.648,-11.353,3.479,142.564,34.887,-79.958
420,-0.5850,0.4824,-0.6641,-0.671,-10.315,4.456,142.504,34.948,-80.079
430,-0.5918,0.4932,-0.6655,-0.305,-9.399,5.310,142.443,34.997,-80.200
440,-0.5986,0.4937,-0.6611,-0.305,-9.094,5.798,142.377,35.041,-80.321
450,-0.5972,0.5015,-0.6597,-1.099,-9.460,5.981,142.300,35.085,-80.453
460,-0.5923,0.5166,-0.6582,-1.831,-10.437,5.859,142.196,35.134,-80.585
470,-0.5947,0.5205,-0.6567,-1.770,-11.536,5.615,142.097,35.195,-80.728
480,-0.6001,0.5171,-0.6484,-1.587,-12.085,5.493,141.993,35.261,-80.870
490,-0.6021,0.5156,-0.6401,-1.587,-12.024,5.249,141.883,35.332,-81.013
500,-0.6016,0.5190,-0.6343,-1.770,-11.902,4.944,141.779,35.403,-81.151
510,-0.6040,0.5166,-0.6221,-2.136,-11.841,4.944,141.663,35.480,-81.288
520,-0.6040,0.5176,-0.6045,-2.502,-11.841,5.066,141.537,35.557,-81.425
530,-0.6133,0.5205,-0.5962,-2.747,-11.597,5.371,141.400,35.640,-81.568
540,-0.6221,0.5200,-0.5928,-2.502,-10.742,5.493,141.273,35.711,-81.700
550,-0.6250,0.5239,-0.5840,-2.258,-9.216,5.493,141.147,35.777,-81.826
560,-0.6221,0.5244,-0.5732,-1.770,-7.629,5.432,141.026,35.832,-81.936
570,-0.6226,0.5249,-0.5708,-1.221,-6.104,5.249,140.922,35.876,-82.035
580,-0.6216,0.5332,-0.5732,-0.793,-4.761,5.127,140.828,35.909,-82.123
590,-0.6216,0.5449,-0.5845,-0.183,-3.174,5.066,140.746,35.920,-82.194
600,-0.6177,0.5542,-0.5933,0.671,-1.221,5.127,140.680,35.909,-82.255
610,-0.6118,0.5635,-0.6025,1.343,0.977,5.005,140.630,35.876,-82.293
620,-0.6064,0.5728,-0.6128,1.953,2.869,4.395,140.603,35.826,-82.315
630,-0.5986,0.5742,-0.6206,2.258,3.906,3.601,140.587,35.771,-82.315
640,-0.5894,0.5781,-0.6265,1.953,4.028,2.625,140.581,35.711,-82.310
650,-0.5386,0.5728,-0.6011,0.793,3.052,1.404,140.548,35.651,-82.299
660,-0.6260,0.5776,-0.6626,0.061,0.488,-0.549,140.543,35.651,-82.288
670,-0.6240,0.5479,-0.6201,-0.061,3.235,-1.282,140.543,35.645,-82.255
680,-0.5957,0.5845,-0.6367,-4.578,2.075,-2.197,140.488,35.634,-82.216
690,-0.5732,0.5654,-0.6147,-2.869,3.052,-2.747,140.455,35.618,-82.167
700,-0.6060,0.5747,-0.6392,-2.747,2.258,-3.784,140.433,35.618,-82.112
710,-0.5874,0.5781,-0.6406,-1.282,3.479,-4.883,140.438,35.612,-82.040
720,-0.5645,0.5811,-0.6431,-0.671,3.662,-6.042,140.455,35.596,-81.953
730,-0.5796,0.5713,-0.6655,0.244,4.211,-7.019,140.504,35.585,-81.854
740,-0.5859,0.5596,-0.6675,0.854,5.920,-7.812,140.581,35.574,-81.733
750,-0.5796,0.5557,-0.6763,0.183,6.226,-8.972,140.658,35.563,-81.601
761,-0.6182,0.5366,-0.6729,-0.183,5.798,-9.949,140.746,35.579,-81.458
770,-0.6436,0.4922,-0.6333,-2.441,4.578,-10.986,140.817,35.645,-81.321
780,-0.6055,0.4536,-0.5947,-7.324,1.160,-12.329,140.834,35.750,-81.194
790,-0.5972,0.4346,-0.5747,-12.146,-2.869,-13.367,140.795,35.892,-81.085
800,-0.6216,0.4238,-0.5698,-14.709,-5.737,-13.367,140.724,36.074,-81.002
810,-0.6348,0.4131,-0.5596,-15.381,-5.981,-12.512,140.641,36.260,-80.931
820,-0.6260,0.4326,-0.5688,-14.160,-3.479,-9.949,140.565,36.398,-80.865
830,-0.6104,0.4941,-0.6216,-9.705,1.709,-5.676,140.515,36.436,-80.793
840,-0.6001,0.5435,-0.6787,-1.343,10.498,0.000,140.559,36.337,-80.711
850,-0.5835,0.5586,-0.7144,8.545,19.836,4.944,140.724,36.118,-80.601
860,-0.5757,0.5513,-0.7246,16.235,26.855,8.240,140.982,35.821,-80.469
870,-0.5664,0.5054,-0.7051,19.714,28.015,8.301,141.290,35.530,-80.332
880,-0.5562,0.4517,-0.6826,16.663,21.179,5.493,141.570,35.316,-80.222
890,-0.5674,0.4214,-0.6680,7.568,9.460,2.136,141.735,35.233,-80.173
900,-0.5840,0.4219,-0.6421,-3.845,-3.235,-0.793,141.740,35.283,-80.189
910,-0.5874,0.4253,-0.6294,-12.756,-13.489,-3.113,141.614,35.431,-80.261
920,-0.5835,0.4712,-0.6387,-19.653,-18.921,-3.540,141.372,35.612,-80.370
930,-0.5791,0.5557,-0.6675,-20.569,-16.846,-1.526,141.092,35.733,-80.486
940,-0.5742,0.6069,-0.6934,-13.611,-7.690,2.075,140.889,35.739,-80.563
950,-0.5635,0.6147,-0.7041,-2.075,3.296,5.615,140.834,35.634,-80.596
960,-0.5513,0.6270,-0.7231,9.949,12.573,8.057,140.927,35.431,-80.574
970,-0.5513,0.6055,-0.7314,19.226,18.433,9.460,141.141,35.173,-80.519
980,-0.5630,0.5674,-0.7222,20.874,19.409,9.460,141.389,34.931,-80.458
990,-0.5864,0.4941,-0.6670,16.296,13.916,7.263,141.592,34.783,-80.425
1000,-0.6084,0.4194,-0.5918,7.080,1.587,2.686,141.685,34.805,-80.436
1010,-0.6270,0.4048,-0.5361,-5.188,-12.146,-1.770,141.603,34.991,-80.513
1020,-0.6221,0.4253,-0.5410,-14.465,-22.461,-5.127,141.394,35.266,-80.634
1030,-0.6099,0.5322,-0.6050,-19.592,-25.452,-4.883,141.086,35.513,-80.782
1040,-0.5918,0.6338,-0.6802,-17.029,-16.602,-0.488,140.806,35.618,-80.903
1050,-0.5703,0.7085,-0.7358,-5.310,0.610,4.517,140.685,35.519,-80.942
1060,-0.5498,0.7090,-0.7642,10.986,19.409,8.179,140.801,35.239,-80.870
1070,-0.5498,0.6714,-0.7432,22.339,32.166,10.376,141.081,34.865,-80.722
1080,-0.5635,0.5728,-0.6787,25.024,34.302,8.118,141.416,34.525,-80.535
1090,-0.5815,0.4419,-0.5977,18.250,22.705,2.319,141.707,34.371,-80.381
1100,-0.6060,0.3604,-0.5352,3.723,2.991,-4.944,141.823,34.464,-80.316
1110,-0.6216,0.3501,-0.4951,-13.184,-15.930,-10.864,141.713,34.766,-80.332
1120,-0.6387,0.3467,-0.4766,-25.574,-31.433,-14.893,141.427,35.228,-80.425
1130,-0.6333,0.4102,-0.5059,-32.166,-39.734,-14.038,141.010,35.717,-80.596
1140,-0.6309,0.5132,-0.5693,-30.151,-35.400,-8.362,140.570,36.074,-80.788
1150,-0.6094,0.6196,-0.6553,-16.418,-16.724,-0.366,140.290,36.183,-80.914
1160,-0.5874,0.6616,-0.7187,4.395,9.094,7.568,140.306,36.019,-80.914
1170,-0.5684,0.6504,-0.7446,22.705,32.166,13.611,140.587,35.623,-80.793
1180,-0.5474,0.6367,-0.7510,33.142,47.729,16.663,141.031,35.090,-80.579
1190,-0.5269,0.5874,-0.7607,35.950,52.063,13.977,141.553,34.536,-80.310
1200,-0.5171,0.5488,-0.7676,30.396,45.166,8.850,142.026,34.074,-80.052
1210,-0.5225,0.5234,-0.7607,18.616,30.640,3.357,142.355,33.772,-79.860
1220,-0.5317,0.5034,-0.7427,5.737,12.085,-2.075,142.504,33.657,-79.750
1231,-0.5459,0.4858,-0.7124,-6.409,-6.042,-6.226,142.482,33.728,-79.733
1241,-0.5605,0.4785,-0.6816,-15.076,-20.935,-9.399,142.322,33.953,-79.799
1250,-0.5767,0.4697,-0.6577,-18.738,-30.334,-11.047,142.092,34.272,-79.915
1261,-0.5908,0.4912,-0.6494,-17.639,-33.875,-10.315,141.839,34.618,-80.068
1270,-0.5903,0.5342,-0.6729,-12.573,-29.968,-7.568,141.625,34.893,-80.222
1281,-0.5825,0.5498,-0.6846,-4.150,-19.653,-3.357,141.515,35.057,-80.338
1291,-0.5835,0.5244,-0.6665,4.395,-8.240,0.305,141.526,35.112,-80.403
1300,-0.5854,0.4927,-0.6343,9.094,-0.366,2.380,141.608,35.112,-80.431
1310,-0.6050,0.4399,-0.5977,9.155,1.709,2.502,141.713,35.123,-80.442
1320,-0.6128,0.4014,-0.5757,4.395,-2.197,1.404,141.773,35.189,-80.469
1330,-0.6040,0.4351,-0.5879,-2.563,-7.141,0.793,141.729,35.283,-80.530
1340,-0.6035,0.4932,-0.6123,-5.859,-8.850,1.099,141.619,35.370,-80.612
1351,-0.6025,0.5073,-0.6201,-3.906,-7.935,2.380,141.526,35.431,-80.695
1361,-0.6016,0.5161,-0.6016,0.610,-5.676,4.395,141.460,35.469,-80.777
1370,-0.6216,0.4487,-0.5327,7.935,-4.150,6.287,141.471,35.524,-80.870
1381,-0.6470,0.3345,-0.4424,14.221,-8.606,6.653,141.553,35.689,-81.002
1391,-0.6499,0.2695,-0.3970,16.663,-19.958,5.798,141.636,35.986,-81.211
1401,-0.6450,0.2812,-0.4170,14.343,-31.189,7.263,141.641,36.343,-81.519
1411,-0.6274,0.3799,-0.5200,10.376,-34.241,12.756,141.542,36.612,-81.909
1421,-0.6030,0.5815,-0.7026,9.155,-22.949,22.095,141.389,36.623,-82.299
1431,-0.5688,0.7549,-0.8647,15.808,5.310,33.752,141.350,36.271,-82.590
1441,-0.5298,0.8584,-0.9604,30.945,42.236,44.800,141.559,35.524,-82.694
1451,-0.4985,0.8188,-0.9263,48.950,72.144,51.819,142.048,34.514,-82.645
1461,-0.4800,0.6621,-0.8096,61.279,81.787,48.340,142.723,33.481,-82.496
1471,-0.4800,0.5410,-0.7158,58.594,66.406,36.743,143.377,32.684,-82.365
1481,-0.4971,0.4780,-0.6709,40.283,36.926,23.560,143.806,32.234,-82.326
1491,-0.5190,0.4600,-0.6641,16.296,5.554,11.780,143.943,32.130,-82.397
1501,-0.5381,0.5088,-0.6924,-3.723,-20.813,3.296,143.811,32.272,-82.573
1511,-0.5542,0.5967,-0.7549,-13.794,-35.767,-2.258,143.531,32.547,-82.804
1521,-0.5576,0.6538,-0.8013,-13.245,-34.302,-3.662,143.262,32.800,-83.013
1531,-0.5581,0.6475,-0.8008,-5.493,-23.010,-3.540,143.119,32.964,-83.139
1541,-0.5435,0.6235,-0.7559,6.226,-11.963,-4.272,143.130,33.041,-83.183
1551,-0.5322,0.5381,-0.6812,15.991,-4.639,-5.188,143.284,33.096,-83.172
1561,-0.5303,0.4619,-0.6040,15.259,-3.784,-5.615,143.437,33.179,-83.145
1571,-0.5415,0.4102,-0.5474,8.301,-8.850,-5.615,143.514,33.333,-83.150
1581,-0.5674,0.4097,-0.5381,1.648,-15.991,-5.432,143.487,33.558,-83.216
1591,-0.5981,0.4111,-0.5576,-3.052,-19.836,-4.089,143.405,33.810,-83.315
1601,-0.6196,0.4487,-0.6050,-6.958,-16.541,-0.488,143.273,34.003,-83.430
1611,-0.6206,0.5103,-0.6631,-6.653,-5.371,3.296,143.157,34.052,-83.502
1621,-0.6060,0.5405,-0.7158,-0.183,9.094,5.066,143.163,33.948,-83.485
1631,-0.5825,0.5464,-0.7432,7.324,21.973,6.165,143.295,33.723,-83.386
1641,-0.5547,0.5518,-0.7529,11.353,30.701,7.019,143.498,33.409,-83.232
1651,-0.5332,0.5420,-0.7676,13.245,33.203,5.371,143.745,33.074,-83.046
1661,-0.5132,0.5303,-0.7690,11.719,28.809,2.136,143.976,32.789,-82.864
1671,-0.5068,0.5244,-0.7690,7.263,19.104,-1.038,144.141,32.596,-82.722
1681,-0.5142,0.5137,-0.7632,2.075,7.019,-3.784,144.223,32.531,-82.634
1691,-0.5259,0.5044,-0.7549,-2.258,-4.395,-5.188,144.234,32.569,-82.617
1701,-0.5356,0.4917,-0.7358,-4.883,-13.184,-5.798,144.185,32.695,-82.650
1711,-0.5454,0.4751,-0.7163,-5.005,-18.982,-6.348,144.124,32.882,-82.722
1721,-0.5508,0.4697,-0.7012,-4.395,-21.729,-6.042,144.047,33.096,-82.815
1731,-0.5537,0.4722,-0.6885,-2.563,-21.667,-4.944,143.981,33.305,-82.919
1741,-0.5566,0.4707,-0.6782,0.061,-19.348,-3.296,143.937,33.486,-83.024
1751,-0.5591,0.4727,-0.6802,2.686,-15.259,-1.404,143.926,33.618,-83.117
1761,-0.5571,0.4858,-0.6948,4.761,-10.010,0.610,143.943,33.695,-83.194
1771,-0.5547,0.4937,-0.7051,6.348,-4.517,2.502,143.987,33.706,-83.249
1781,-0.5503,0.4976,-0.7100,7.141,-0.549,3.662,144.042,33.673,-83.287
1791,-0.5439,0.5063,-0.7129,6.958,1.160,4.089,144.102,33.624,-83.320
1801,-0.5454,0.5156,-0.7183,5.859,1.160,3.662,144.146,33.574,-83.348
1811,-0.5444,0.5317,-0.7231,3.967,-0.122,2.686,144.168,33.536,-83.375
1821,-0.5488,0.5396,-0.7148,2.380,-2.380,1.648,144.157,33.525,-83.408
1831,-0.5630,0.5137,-0.6792,0.854,-5.188,0.305,144.135,33.563,-83.447
1841,-0.5742,0.4888,-0.6484,-1.404,-8.545,-1.526,144.086,33.662,-83.491
1851,-0.5776,0.4800,-0.6309,-4.395,-11.108,-2.930,143.998,33.788,-83.540
1861,-0.5825,0.4800,-0.6128,-6.592,-12.329,-3.479,143.882,33.937,-83.595
1871,-0.5898,0.4541,-0.5728,-7.629,-12.573,-3.113,143.751,34.107,-83.655
1881,-0.6040,0.4121,-0.4907,-7.568,-13.611,-1.709,143.597,34.321,-83.738
1891,-0.6230,0.3306,-0.3745,-6.958,-18.127,0.732,143.399,34.629,-83.875
1901,-0.6470,0.2510,-0.2646,-6.592,-27.283,4.578,143.130,35.079,-84.117
1911,-0.6499,0.2407,-0.2441,-5.310,-35.645,9.766,142.795,35.574,-84.474
1921,-0.6558,0.3213,-0.3418,-0.122,-31.311,17.151,142.504,35.909,-84.875
1931,-0.6426,0.4414,-0.5156,10.132,-7.874,25.818,142.394,35.887,-85.182
1941,-0.6201,0.5776,-0.7368,24.719,29.541,33.569,142.570,35.431,-85.292
1951,-0.5703,0.6919,-0.9292,38.330,69.824,39.307,143.036,34.552,-85.155
1961,-0.4834,0.8208,-1.1001,48.767,100.464,39.246,143.718,33.371,-84.798
1971,-0.4097,0.8682,-1.2197,55.176,113.953,30.640,144.553,32.272,-84.287
1980,-0.3618,0.7979,-1.1880,50.659,108.093,17.883,145.366,31.289,-83.721
1991,-0.3599,0.6792,-1.0684,30.640,81.604,3.540,145.937,30.597,-83.210
2001,-0.3774,0.6123,-0.9556,1.160,39.185,-10.864,146.129,30.333,-82.853
2011,-0.4170,0.6006,-0.8618,-28.076,-7.874,-22.705,145.931,30.526,-82.683
2021,-0.4541,0.5767,-0.7915,-48.523,-48.584,-31.372,145.443,31.102,-82.700
2031,-0.4985,0.5728,-0.7280,-54.810,-75.256,-33.936,144.805,31.915,-82.870
2041,-0.5444,0.5347,-0.6538,-48.828,-84.045,-32.837,144.179,32.794,-83.123
2051,-0.5762,0.4756,-0.5869,-31.616,-78.003,-29.480,143.723,33.596,-83.381
2061,-0.6006,0.3945,-0.5044,-11.536,-62.500,-24.536,143.492,34.244,-83.589
2071,-0.6182,0.2944,-0.4170,4.517,-45.044,-18.494,143.459,34.717,-83.732
2081,-0.6338,0.2422,-0.3823,13.428,-29.358,-11.353,143.536,35.019,-83.837
2091,-0.6362,0.2549,-0.4150,14.832,-13.672,-3.052,143.646,35.151,-83.903
2101,-0.6362,0.3198,-0.5073,13.184,2.869,5.188,143.756,35.096,-83.936
2111,-0.6270,0.3975,-0.6191,11.414,21.057,12.512,143.888,34.854,-83.908
2121,-0.6006,0.4971,-0.7368,8.789,39.001,18.677,144.031,34.426,-83.809
2131,-0.5586,0.6079,-0.8560,7.385,54.993,21.606,144.207,33.854,-83.633
2141,-0.5107,0.6680,-0.9434,9.888,64.575,19.348,144.454,33.217,-83.364
2151,-0.4639,0.6841,-0.9639,11.536,63.782,13.123,144.739,32.624,-83.051
2161,-0.4336,0.6416,-0.9126,8.057,50.781,4.211,144.987,32.184,-82.744
2171,-0.4380,0.5913,-0.8438,-0.732,25.635,-5.493,145.102,32.003,-82.513
2181,-0.4507,0.5835,-0.7964,-12.085,-4.883,-13.184,145.031,32.119,-82.419
2191,-0.4741,0.6060,-0.8022,-21.179,-31.738,-19.348,144.805,32.492,-82.447
2201,-0.4961,0.6694,-0.8867,-23.560,-47.363,-21.179,144.503,33.003,-82.568
2211,-0.4985,0.7832,-1.0366,-23.499,-44.861,-19.531,144.207,33.481,-82.689
2221,-0.4810,0.8149,-1.0703,-20.630,-25.696,-18.066,143.998,33.794,-82.694
2231,-0.4756,0.6602,-0.8984,-17.822,-9.277,-18.860,143.882,33.981,-82.573
2241,-0.4971,0.4365,-0.6006,-23.315,-12.634,-23.865,143.729,34.222,-82.430
2251,-0.5513,0.1582,-0.2656,-35.217,-36.011,-31.921,143.410,34.700,-82.375
2261,-0.6206,-0.0137,-0.0205,-51.819,-71.716,-37.231,-146.305,35.497,-82.535
2270,-0.6748,-0.0205,0.0771,-62.561,-104.004,-37.903,-146.294,36.156,-81.436
2280,-0.7324,0.0801,-0.0137,-57.861,-115.967,-32.776,99.684,36.936,-80.305
2291,-0.7910,0.3149,-0.2866,-37.720,-100.220,-20.569,98.591,37.310,-81.497
2301,-0.8105,0.5679,-0.6426,-2.136,-50.415,-0.977,98.190,37.392,-82.123
2311,-0.7622,0.7285,-0.9521,32.349,19.592,19.836,98.641,37.167,-81.914
2321,-0.6621,0.8237,-1.1211,55.908,84.290,34.546,99.794,36.700,-80.931
2331,-0.5127,0.8325,-1.1392,75.562,119.446,34.790,101.382,36.156,-79.536
2341,-0.4048,0.6855,-1.0498,85.693,115.479,23.926,103.030,35.695,-78.195
2351,-0.3760,0.5171,-0.8940,64.270,78.064,11.597,104.200,35.403,-77.289
2361,-0.4004,0.4482,-0.7412,19.775,19.165,0.732,104.529,35.349,-77.064
2371,-0.4600,0.4502,-0.6001,-21.240,-39.368,-6.775,104.063,35.513,-77.509
2381,-0.5425,0.4434,-0.5117,-43.884,-83.069,-11.230,103.068,35.826,-78.464
2391,-0.6064,0.4448,-0.4951,-48.096,-105.835,-11.169,101.860,36.172,-79.706
2401,-0.6753,0.4790,-0.5659,-34.973,-104.797,-8.423,100.772,36.469,-80.958
2411,-0.7114,0.4932,-0.6733,-9.583,-78.979,-5.432,100.107,36.672,-81.909
2421,-0.6978,0.5059,-0.7256,7.263,-38.208,0.854,99.904,36.727,-82.381
2431,-0.6543,0.4790,-0.6680,19.531,-1.160,8.667,100.074,36.645,-82.414
2441,-0.6094,0.3760,-0.5088,23.437,17.151,12.451,100.421,36.497,-82.227
2451,-0.5972,0.2676,-0.3662,17.517,12.268,9.949,100.673,36.376,-82.101
2461,-0.6211,0.2734,-0.2949,2.014,-1.526,8.179,100.668,36.299,-82.139
2471,-0.6636,0.3638,-0.3081,-12.085,-10.803,7.629,100.459,36.244,-82.288
2481,-0.6948,0.5229,-0.4746,-12.573,-8.301,8.057,100.267,36.178,-82.408
2491,-0.6997,0.6475,-0.6914,-1.038,9.216,10.193,100.305,36.063,-82.315
2501,-0.6655,0.7139,-0.8721,14.648,32.410,12.756,100.668,35.876,-81.953
2511,-0.6050,0.7798,-0.9990,24.719,52.002,13.977,101.266,35.645,-81.354
2521,-0.5278,0.7383,-0.9844,27.710,60.242,10.376,101.953,35.425,-80.651
2531,-0.4766,0.6128,-0.8594,20.691,49.133,3.723,102.497,35.288,-80.068
2541,-0.4756,0.5054,-0.7002,1.709,22.278,-3.113,102.673,35.266,-79.794
2551,-0.5376,0.4126,-0.5181,-18.860,-10.864,-8.362,102.420,35.370,-79.904
2561,-0.6064,0.3408,-0.3804,-30.762,-40.100,-9.705,101.849,35.552,-80.359
2571,-0.6748,0.3291,-0.3345,-33.325,-56.213,-8.362,101.135,35.750,-81.013
2581,-0.7212,0.3613,-0.4111,-22.766,-48.767,-5.188,100.574,35.898,-81.590
2591,-0.7295,0.4580,-0.6016,-3.540,-19.531,-0.610,100.399,35.936,-81.826
2601,-0.6860,0.5840,-0.8179,12.207,19.592,5.493,100.651,35.848,-81.601
2611,-0.6030,0.6694,-0.9189,21.118,53.101,9.705,101.228,35.656,-80.980
2621,-0.5137,0.6450,-0.8804,26.184,66.223,8.667,101.942,35.442,-80.200
2631,-0.4736,0.5225,-0.7280,23.376,56.641,4.395,102.568,35.283,-79.530
2641,-0.4878,0.4146,-0.5708,8.057,30.029,-0.793,102.854,35.222,-79.167
2651,-0.5361,0.4219,-0.4917,-11.353,0.671,-4.883,102.755,35.272,-79.146
2661,-0.5884,0.4268,-0.4907,-20.996,-19.897,-7.019,102.420,35.381,-79.365
2671,-0.6289,0.4551,-0.5850,-17.822,-29.480,-6.470,102.047,35.508,-79.700
2681,-0.6479,0.5278,-0.7334,-8.362,-21.118,-2.869,101.816,35.579,-79.948
2691,-0.6226,0.5967,-0.8740,2.869,1.221,1.221,101.854,35.568,-79.937
2701,-0.5688,0.6611,-0.9639,11.475,23.254,3.418,102.123,35.486,-79.667
2711,-0.5088,0.6514,-0.9312,13.184,36.072,3.296,102.502,35.376,-79.239
2721,-0.4883,0.5669,-0.7974,8.301,30.090,-0.488,102.799,35.316,-78.882
2731,-0.5112,0.4741,-0.6240,-3.540,7.751,-5.066,102.821,35.349,-78.772
2741,-0.5620,0.4282,-0.4814,-16.479,-18.982,-8.545,102.541,35.475,-78.975
2751,-0.6035,0.4009,-0.4229,-21.484,-40.466,-10.071,102.057,35.662,-79.437
2761,-0.6479,0.4033,-0.4341,-17.883,-50.171,-8.667,101.541,35.848,-80.019
2771,-0.6758,0.4219,-0.5439,-6.714,-40.649,-5.676,101.195,35.986,-80.497
2781,-0.6704,0.4800,-0.6973,6.531,-14.343,-1.282,101.162,36.030,-80.667
2791,-0.6270,0.5156,-0.7910,14.832,14.648,3.784,101.409,35.964,-80.497
2801,-0.5654,0.5308,-0.7983,16.052,32.166,7.263,101.788,35.826,-80.123
2811,-0.5327,0.5000,-0.7358,12.024,34.180,6.958,102.140,35.689,-79.728
2821,-0.5322,0.4478,-0.6323,2.380,21.301,4.272,102.728,35.590,-79.486
2831,-0.5674,0.4526,-0.5464,-10.071,1.221,1.648,103.013,35.601,-79.475
2841,-0.5986,0.4941,-0.5225,-16.541,-14.465,0.061,103.085,35.678,-79.645
2851,-0.6338,0.5732,-0.5923,-12.207,-21.729,0.366,103.140,35.744,-79.909
2861,-0.6509,0.6143,-0.6768,-1.282,-15.320,2.563,103.365,35.750,-80.101
2871,-0.6304,0.5918,-0.7339,11.902,-1.221,3.784,103.843,35.695,-80.123
2881,-0.5908,0.5474,-0.7622,18.982,10.925,3.235,104.507,35.601,-80.002
2891,-0.5601,0.4868,-0.7358,15.747,16.541,1.892,105.194,35.513,-79.816
2901,-0.5547,0.4478,-0.6763,4.822,13.977,0.061,105.749,35.464,-79.645
2911,-0.5601,0.4233,-0.6230,-9.338,5.066,-1.953,106.095,35.480,-79.579
2921,-0.5767,0.4556,-0.5752,-21.179,-5.798,-2.930,106.205,35.552,-79.640
2931,-0.5986,0.5146,-0.5557,-24.475,-13.428,-2.441,106.188,35.640,-79.788
2941,-0.6108,0.5957,-0.6216,-16.296,-15.320,-1.221,106.227,35.689,-79.969
2951,-0.6084,0.6631,-0.7246,-0.916,-7.263,0.916,106.479,35.662,-80.057
2961,-0.5967,0.6470,-0.7837,15.320,5.554,2.075,107.001,35.574,-79.997
2971,-0.5703,0.5713,-0.7729,25.024,13.245,1.953,107.699,35.469,-79.849
2981,-0.5469,0.4497,-0.7104,23.682,11.658,0.061,108.413,35.409,-79.711
2991,-0.5566,0.3569,-0.6284,13.306,0.427,-2.563,108.973,35.453,-79.700
3001,-0.5830,0.3276,-0.5723,0.244,-12.634,-3.235,109.308,35.585,-79.832
3011,-0.6108,0.3506,-0.5483,-9.460,-20.325,-1.282,109.468,35.739,-80.063
3021,-0.6279,0.4258,-0.5532,-11.841,-20.630,2.991,109.534,35.843,-80.316
3031,-0.6318,0.4941,-0.5942,-3.845,-12.939,7.874,109.693,35.848,-80.497
3041,-0.6230,0.5361,-0.6602,11.169,-0.183,11.719,110.089,35.744,-80.546
3051,-0.6045,0.5630,-0.7310,23.865,11.902,13.184,110.693,35.552,-80.464
3061,-0.5815,0.5928,-0.8154,29.663,17.029,10.620,111.407,35.338,-80.316
3071,-0.5537,0.5996,-0.8794,25.879,13.062,4.272,112.083,35.173,-80.184
3081,-0.5205,0.5942,-0.8809,11.780,0.183,-4.150,112.549,35.123,-80.167
3091,-0.5151,0.5859,-0.8154,-7.385,-16.907,-12.207,112.720,35.217,-80.299
3101,-0.5410,0.5674,-0.7300,-24.231,-31.738,-18.005,112.615,35.453,-80.574
3111,-0.5762,0.5586,-0.6387,-34.058,-40.710,-20.142,112.330,35.782,-80.936
3121,-0.6108,0.5210,-0.5566,-33.508,-42.358,-19.287,112.017,36.145,-81.332
3131,-0.6431,0.4697,-0.4995,-25.085,-37.964,-17.090,111.808,36.513,-81.689
3141,-0.6714,0.4155,-0.4731,-14.221,-28.748,-13.977,111.780,36.854,-81.953
3151,-0.6885,0.3560,-0.4443,-5.371,-16.785,-9.644,111.929,37.139,-82.106
3161,-0.6797,0.3042,-0.4121,-1.343,-5.493,-4.761,112.209,37.359,-82.145
3171,-0.6592,0.3022,-0.4268,-2.625,2.502,-0.732,112.527,37.502,-82.112
3181,-0.6479,0.3364,-0.4717,-6.348,7.996,2.319,112.835,37.557,-82.029
3191,-0.6353,0.4297,-0.5415,-10.254,13.184,5.676,113.093,37.502,-81.909
3201,-0.6299,0.5620,-0.6104,-10.315,18.799,9.094,113.340,37.343,-81.733
3211,-0.6226,0.6533,-0.6743,-2.502,24.231,11.902,113.676,37.101,-81.513
3221,-0.6001,0.7148,-0.7563,8.362,28.198,12.512,114.142,36.804,-81.255
3231,-0.5713,0.7529,-0.8472,17.883,28.564,9.338,114.725,36.508,-80.975
3241,-0.5503,0.7236,-0.8765,22.278,23.682,3.784,115.351,36.266,-80.728
3251,-0.5298,0.6587,-0.8433,18.127,13.245,-2.441,115.889,36.134,-80.563
3262,-0.5259,0.5918,-0.7729,5.981,0.122,-7.690,116.241,36.123,-80.524
3271,-0.5459,0.5308,-0.6904,-9.644,-12.390,-11.353,116.362,36.238,-80.596
3281,-0.5796,0.4985,-0.6162,-21.057,-20.630,-12.939,116.307,36.442,-80.755
3291,-0.6172,0.4858,-0.5669,-24.048,-22.522,-12.146,116.191,36.683,-80.942
3301,-0.6445,0.4487,-0.5229,-17.822,-18.372,-9.766,116.158,36.914,-81.090
3311,-0.6567,0.4019,-0.4868,-5.432,-11.414,-6.836,116.296,37.117,-81.183
3321,-0.6499,0.3584,-0.4717,6.592,-3.418,-3.296,116.614,37.266,-81.200
3331,-0.6445,0.3379,-0.4976,14.832,3.540,-0.244,117.076,37.348,-81.161
3341,-0.6362,0.3628,-0.5776,17.151,9.399,2.563,117.609,37.343,-81.068
3351,-0.6260,0.4233,-0.6768,13.672,15.015,5.249,118.130,37.233,-80.931
3361,-0.6089,0.4980,-0.7461,8.118,20.142,7.019,118.603,37.046,-80.750
3371,-0.6001,0.5557,-0.7744,4.211,23.010,7.263,119.026,36.826,-80.541
3381,-0.5937,0.5703,-0.7622,2.747,22.705,6.409,119.416,36.612,-80.332
3391,-0.5913,0.5498,-0.7139,2.441,17.700,4.089,119.767,36.458,-80.167
3401,-0.5820,0.4873,-0.6641,3.601,8.484,1.282,120.097,36.392,-80.085
3411,-0.5767,0.4360,-0.6357,3.662,-2.319,-0.366,120.372,36.414,-80.107
3421,-0.5830,0.4316,-0.6548,2.502,-10.742,-0.122,120.591,36.469,-80.222
3431,-0.5903,0.4727,-0.6860,2.563,-13.306,1.709,120.773,36.513,-80.370
3441,-0.6030,0.5229,-0.7046,3.601,-9.033,5.249,120.959,36.491,-80.502
3451,-0.6147,0.5635,-0.6851,6.775,-1.282,8.362,121.185,36.409,-80.568
3461,-0.6152,0.5669,-0.6582,11.536,5.554,10.010,121.476,36.288,-80.574
3471,-0.5991,0.5259,-0.6274,14.221,8.667,9.949,121.816,36.156,-80.546
3481,-0.5864,0.4819,-0.6226,13.184,5.798,8.362,122.157,36.063,-80.541
3491,-0.5918,0.4722,-0.6489,7.751,1.160,7.507,122.432,35.997,-80.579
3501,-0.5937,0.4912,-0.6885,1.343,-0.977,7.874,122.629,35.925,-80.640
3511,-0.5923,0.5215,-0.7183,-2.991,0.671,9.155,122.783,35.826,-80.695
3521,-0.5889,0.5469,-0.7158,-4.028,4.395,10.437,122.926,35.689,-80.722
3531,-0.6074,0.5610,-0.6934,-1.831,7.202,10.498,123.091,35.546,-80.717
3541,-0.6177,0.5303,-0.6587,2.258,6.226,7.568,123.300,35.458,-80.700
3551,-0.6089,0.4888,-0.6250,4.089,0.305,3.052,123.519,35.447,-80.722
3561,-0.6021,0.4746,-0.6045,0.793,-7.080,-0.183,123.668,35.519,-80.788
3571,-0.5947,0.4854,-0.6055,-4.272,-11.292,-1.465,123.739,35.612,-80.898
3581,-0.5850,0.5103,-0.6299,-8.118,-9.827,-2.136,123.783,35.684,-80.980
3591,-0.5757,0.5391,-0.6406,-9.155,-5.127,-2.441,123.832,35.722,-81.019
3601,-0.5752,0.5571,-0.6406,-7.263,0.122,-1.587,123.920,35.717,-81.008
3611,-0.5840,0.5605,-0.6426,-3.113,5.066,-0.793,124.074,35.684,-80.947
3621,-0.5972,0.5278,-0.6426,0.977,7.690,-0.854,124.294,35.645,-80.865
3631,-0.6040,0.5024,-0.6533,1.587,7.812,-1.709,124.547,35.623,-80.771
3641,-0.6016,0.4995,-0.6709,-1.160,7.202,-2.930,124.777,35.607,-80.678
3651,-0.5850,0.4941,-0.6748,-5.493,5.615,-4.150,124.964,35.601,-80.596
3661,-0.5679,0.5073,-0.6860,-9.827,2.747,-5.432,125.090,35.612,-80.530
3671,-0.5635,0.5327,-0.6963,-12.695,0.854,-6.042,125.167,35.629,-80.475
3681,-0.5747,0.5386,-0.6797,-11.536,0.061,-5.798,125.239,35.651,-80.436
3691,-0.5913,0.5146,-0.6465,-7.690,0.061,-4.761,125.349,35.689,-80.398
3701,-0.6123,0.4683,-0.6060,-3.479,0.549,-3.601,125.502,35.744,-80.370
3711,-0.6294,0.4121,-0.5664,0.000,1.099,-2.319,125.700,35.821,-80.343
3721,-0.6284,0.3853,-0.5684,1.038,1.648,-0.793,125.925,35.881,-80.321
3731,-0.6089,0.4121,-0.6196,0.122,3.418,1.526,126.145,35.887,-80.294
3741,-0.5859,0.4771,-0.6973,-0.732,7.507,3.723,126.359,35.799,-80.250
3751,-0.5698,0.5347,-0.7432,-0.427,11.169,5.432,126.573,35.651,-80.178
3762,-0.5527,0.6035,-0.7925,0.366,13.245,6.104,126.793,35.458,-80.090
3771,-0.5493,0.6279,-0.8071,1.953,11.902,4.639,127.013,35.283,-80.008
3781,-0.5547,0.6182,-0.7715,2.625,5.371,1.587,127.205,35.178,-79.969
3791,-0.5698,0.5874,-0.7227,0.610,-3.235,-2.258,127.337,35.178,-79.980
3801,-0.5840,0.5186,-0.6445,-3.235,-11.292,-5.615,127.403,35.288,-80.052
3811,-0.5923,0.4521,-0.5845,-7.874,-17.273,-7.935,127.414,35.491,-80.162
3821,-0.6016,0.4424,-0.5742,-13.123,-17.395,-8.118,127.370,35.700,-80.266
3831,-0.6069,0.4814,-0.6006,-16.296,-10.986,-5.859,127.310,35.837,-80.332
3841,-0.5981,0.5552,-0.6919,-15.076,0.244,-2.563,127.315,35.837,-80.310
3851,-0.5835,0.6108,-0.7363,-11.780,11.475,-0.183,127.392,35.728,-80.195
3861,-0.5728,0.6250,-0.7178,-8.240,15.991,-0.610,127.518,35.590,-80.035
3871,-0.5933,0.5605,-0.6343,-4.517,11.230,-3.418,127.661,35.541,-79.898
3881,-0.6206,0.4395,-0.5093,-3.418,-1.831,-7.324,127.766,35.684,-79.865
3891,-0.6440,0.3379,-0.4023,-5.371,-16.663,-10.254,127.787,36.013,-79.948
3901,-0.6602,0.2896,-0.3813,-6.470,-27.161,-9.827,127.760,36.436,-80.140
3911,-0.6587,0.3794,-0.5288,-6.042,-24.780,-5.493,127.749,36.716,-80.343
3921,-0.6260,0.5308,-0.7256,-2.380,-3.723,2.014,127.853,36.705,-80.392
3931,-0.5923,0.6387,-0.8145,3.418,20.691,9.094,128.106,36.442,-80.261
3941,-0.5415,0.6768,-0.8423,9.583,34.180,11.169,128.480,36.046,-80.008
3951,-0.5151,0.6704,-0.8223,11.536,32.471,7.446,128.870,35.689,-79.755
3961,-0.5220,0.6221,-0.7544,7.690,16.296,0.488,129.150,35.508,-79.601
3971,-0.5542,0.5640,-0.6797,-0.183,-4.456,-6.653,129.265,35.552,-79.590
3981,-0.5869,0.4800,-0.6084,-7.751,-21.851,-11.841,129.243,35.793,-79.706
3991,-0.6128,0.3853,-0.5283,-11.902,-34.241,-14.404,129.150,36.194,-79.920
4001,-0.6323,0.3340,-0.4951,-13.000,-37.048,-13.000,129.040,36.628,-80.178
4011,-0.6416,0.3799,-0.5581,-10.864,-27.161,-8.362,128.985,36.931,-80.370
4021,-0.6304,0.5112,-0.6997,-3.418,-7.690,-1.282,129.062,36.980,-80.436
4031,-0.6084,0.6406,-0.8105,5.554,13.733,5.432,129.293,36.788,-80.349
4041,-0.5698,0.6997,-0.8257,13.977,27.710,8.789,129.655,36.458,-80.151
4051,-0.5537,0.6528,-0.7637,19.653,26.550,6.470,130.067,36.167,-79.948
4061,-0.5557,0.5479,-0.6587,17.944,10.742,-0.366,130.408,36.068,-79.843
4071,-0.5776,0.4561,-0.5591,7.935,-10.437,-7.385,130.567,36.216,-79.882
4081,-0.6133,0.3838,-0.5000,-3.662,-28.687,-11.597,130.545,36.568,-80.057
4091,-0.6470,0.3555,-0.4941,-11.780,-38.330,-11.169,130.408,37.002,-80.332
4101,-0.6567,0.3936,-0.5449,-15.015,-32.349,-7.080,130.248,37.337,-80.579
4111,-0.6440,0.4482,-0.5981,-10.864,-14.282,-0.732,130.188,37.469,-80.711
4121,-0.6353,0.5103,-0.6240,-1.831,5.615,6.165,130.276,37.392,-80.706
4131,-0.6147,0.5498,-0.6362,7.507,20.630,10.681,130.507,37.167,-80.596
4141,-0.5996,0.5376,-0.6328,14.038,24.719,10.620,130.831,36.914,-80.447
4151,-0.5947,0.5327,-0.6309,14.221,18.738,7.935,131.127,36.722,-80.332
4161,-0.5913,0.5396,-0.6538,8.545,9.155,3.784,131.336,36.617,-80.277
4171,-0.5928,0.5400,-0.6763,1.648,0.488,-0.244,131.457,36.595,-80.272
4181,-0.5937,0.5361,-0.6841,-4.761,-4.395,-3.113,131.506,36.623,-80.288
4191,-0.5869,0.5659,-0.7104,-8.118,-4.822,-4.211,131.517,36.650,-80.299
4201,-0.5850,0.5796,-0.7261,-7.568,-1.953,-3.601,131.550,36.645,-80.288
4211,-0.5923,0.5547,-0.6963,-3.906,0.244,-2.808,131.627,36.634,-80.261
4221,-0.5977,0.5278,-0.6626,-1.038,-0.305,-2.563,131.726,36.639,-80.244
4231,-0.6084,0.5015,-0.6309,0.549,-3.418,-3.235,131.825,36.689,-80.250
4241,-0.6245,0.4521,-0.5825,0.366,-7.263,-3.906,131.913,36.804,-80.283
4251,-0.6309,0.4302,-0.5522,-1.709,-9.216,-4.333,131.968,36.947,-80.332
4262,-0.6270,0.4185,-0.5488,-3.296,-8.972,-4.395,132.012,37.090,-80.381
4271,-0.6206,0.4292,-0.5737,-4.333,-6.714,-3.235,132.061,37.200,-80.414
4281,-0.6128,0.5020,-0.6470,-3.723,-2.258,-1.587,132.122,37.222,-80.420
4291,-0.6006,0.5557,-0.7100,-0.183,2.502,0.000,132.231,37.172,-80.398
4301,-0.5933,0.6079,-0.7563,3.784,4.150,-0.061,132.380,37.084,-80.359
4311,-0.5786,0.6787,-0.8076,8.240,0.793,-3.052,132.561,37.018,-80.327
4321,-0.5698,0.6982,-0.8296,14.709,-6.897,-7.568,132.775,37.029,-80.327
4331,-0.5674,0.6777,-0.8135,18.982,-18.005,-13.123,133.006,37.156,-80.381
4341,-0.5723,0.6284,-0.7651,19.653,-30.579,-20.020,133.215,37.436,-80.491
4351,-0.5874,0.5669,-0.6987,16.052,-41.748,-26.062,133.352,37.864,-80.651
4361,-0.6016,0.5073,-0.6089,8.179,-49.500,-28.076,133.374,38.397,-80.859
4371,-0.6265,0.4512,-0.5186,0.793,-53.650,-27.588,133.281,38.996,-81.118
4381,-0.6562,0.4023,-0.4570,-2.869,-53.833,-25.024,133.132,39.628,-81.398
4391,-0.6909,0.3608,-0.4087,-4.639,-48.889,-19.958,132.957,40.221,-81.683
4401,-0.7178,0.3228,-0.3818,-2.441,-39.429,-14.465,132.841,40.743,-81.936
4411,-0.7314,0.3184,-0.3823,2.747,-25.879,-9.094,132.836,41.133,-82.101
4421,-0.7266,0.3203,-0.4072,8.911,-10.803,-4.211,132.968,41.369,-82.172
4431,-0.7109,0.3174,-0.4443,15.015,1.892,-0.305,133.248,41.473,-82.150
4441,-0.6890,0.3589,-0.5132,17.578,10.925,3.296,133.588,41.435,-82.073
4451,-0.6680,0.4258,-0.5996,16.968,17.883,6.775,133.940,41.276,-81.964
4461,-0.6533,0.5181,-0.6899,16.052,22.095,8.606,134.275,41.017,-81.832
4471,-0.6382,0.6196,-0.8125,16.296,22.522,7.263,134.615,40.721,-81.683
4481,-0.6270,0.6855,-0.9072,17.639,20.630,4.883,134.967,40.424,-81.535
4491,-0.6143,0.6812,-0.9385,17.395,14.832,1.343,135.313,40.188,-81.409
4501,-0.5991,0.6616,-0.9448,12.939,3.906,-4.456,135.588,40.062,-81.332
4511,-0.5947,0.6187,-0.9067,3.906,-10.254,-10.742,135.731,40.095,-81.326
4521,-0.5957,0.5527,-0.8140,-7.568,-25.085,-15.686,135.703,40.292,-81.409
4531,-0.6108,0.4678,-0.6982,-18.616,-38.208,-18.555,135.511,40.649,-81.584
4541,-0.6328,0.3960,-0.5850,-27.100,-46.143,-19.287,135.192,41.122,-81.826
4551,-0.6592,0.3521,-0.4946,-31.677,-46.875,-17.883,134.797,41.638,-82.101
4561,-0.6973,0.3340,-0.4336,-30.090,-40.222,-14.771,134.412,42.122,-82.343
4571,-0.7344,0.3267,-0.4033,-23.254,-29.541,-10.986,134.127,42.534,-82.524
4581,-0.7578,0.3208,-0.3955,-12.268,-17.517,-7.141,134.006,42.841,-82.623
4591,-0.7627,0.3071,-0.4014,-1.160,-7.080,-3.662,134.055,43.050,-82.661
4601,-0.7373,0.2910,-0.4194,6.775,0.000,-0.671,134.242,43.176,-82.656
4611,-0.7119,0.3062,-0.4619,9.644,2.075,0.977,134.467,43.248,-82.645
4621,-0.6982,0.3364,-0.4995,8.057,0.793,2.991,134.648,43.281,-82.661
4631,-0.6899,0.3794,-0.5464,4.089,0.061,5.310,134.758,43.270,-82.716
4641,-0.6860,0.4614,-0.6113,-0.549,1.709,7.629,134.797,43.193,-82.771
4651,-0.6870,0.5415,-0.6709,-2.319,4.639,9.216,134.808,43.044,-82.815
4661,-0.6919,0.5942,-0.7056,-0.549,7.690,9.338,134.841,42.869,-82.831
4671,-0.6802,0.6064,-0.7158,2.686,9.216,7.446,134.929,42.682,-82.815
4681,-0.6680,0.5947,-0.7163,4.761,6.226,3.357,135.049,42.545,-82.787
4691,-0.6587,0.5703,-0.7012,3.174,-1.099,-1.343,135.137,42.495,-82.782
4701,-0.6436,0.5439,-0.6543,-2.808,-10.071,-4.700,135.126,42.545,-82.831
4711,-0.6436,0.5132,-0.5923,-8.972,-18.677,-7.202,135.005,42.693,-82.941
4721,-0.6655,0.4912,-0.5435,-12.756,-23.743,-7.629,134.802,42.913,-83.101
4731,-0.6909,0.4717,-0.5093,-13.306,-22.461,-6.042,134.588,43.127,-83.260
4741,-0.7100,0.4561,-0.4883,-10.986,-16.357,-4.333,134.423,43.308,-83.375
4751,-0.7168,0.4458,-0.4844,-6.653,-8.545,-3.052,134.352,43.434,-83.430
4762,-0.7197,0.4380,-0.4961,-2.014,-2.625,-2.686,134.374,43.511,-83.430
4771,-0.7134,0.4243,-0.5112,1.770,0.366,-2.380,134.467,43.561,-83.403
4781,-0.6978,0.4053,-0.5205,2.319,1.099,-1.831,134.588,43.594,-83.375
4791,-0.6846,0.4014,-0.5405,-0.061,-0.793,-1.404,134.676,43.627,-83.370
4801,-0.6860,0.4136,-0.5552,-4.150,-2.930,-0.305,134.703,43.665,-83.397
4811,-0.6968,0.4360,-0.5747,-7.141,-2.625,1.038,134.692,43.676,-83.430
4821,-0.6992,0.4678,-0.5967,-8.240,0.244,2.075,134.670,43.649,-83.447
4831,-0.6973,0.4990,-0.6108,-6.714,4.333,2.747,134.676,43.577,-83.430
4841,-0.7065,0.5181,-0.6274,-2.930,7.507,2.686,134.736,43.484,-83.386
4851,-0.7065,0.5322,-0.6729,0.732,8.667,1.343,134.863,43.374,-83.315
4861,-0.6909,0.5479,-0.7412,2.136,8.179,-1.343,135.033,43.259,-83.221
4871,-0.6685,0.5400,-0.7549,-0.488,5.981,-4.456,135.192,43.176,-83.117
4881,-0.6348,0.4189,-0.5962,-17.517,-12.024,-7.080,135.082,43.286,-83.167
4891,-0.6743,0.4048,-0.5083,-26.611,-21.423,-6.653,134.786,43.511,-83.309
4901,-0.7246,0.4399,-0.4316,-28.870,-24.963,-4.211,134.357,43.775,-83.513
4911,-0.7681,0.4565,-0.3906,-20.813,-21.912,-1.282,133.973,44.017,-83.716
4921,-0.7930,0.4307,-0.3755,-5.493,-12.634,1.343,133.792,44.198,-83.859
4931,-0.7803,0.4019,-0.4141,9.521,-1.404,2.563,133.879,44.280,-83.897
4941,-0.7490,0.4111,-0.4951,18.005,7.263,2.747,134.154,44.264,-83.848
4951,-0.7124,0.4697,-0.6045,17.456,13.489,3.601,134.478,44.132,-83.749
4961,-0.6772,0.5229,-0.6704,10.437,18.921,5.188,134.753,43.907,-83.611
4971,-0.6494,0.5425,-0.6626,0.793,20.447,5.798,134.918,43.660,-83.469
4981,-0.6436,0.5415,-0.6167,-8.423,14.893,4.150,134.945,43.467,-83.364
4991,-0.6646,0.5376,-0.5547,-14.587,5.066,1.892,134.830,43.396,-83.331
5001,-0.6953,0.5278,-0.5015,-16.174,-3.174,-0.061,134.637,43.418,-83.359
5011,-0.7158,0.5112,-0.4805,-12.451,-7.019,-1.892,134.467,43.500,-83.414
5021,-0.7207,0.5015,-0.4995,-5.432,-7.263,-3.357,134.390,43.599,-83.452
5031,-0.7070,0.4854,-0.5249,1.953,-4.639,-3.113,134.429,43.660,-83.469
5041,-0.6953,0.4707,-0.5459,7.385,0.000,-1.953,134.561,43.682,-83.447
5052,-0.6958,0.4756,-0.5732,8.667,4.150,-0.549,134.736,43.649,-83.403
5062,-0.7026,0.4888,-0.5981,6.958,7.019,0.122,134.912,43.583,-83.331
5072,-0.7202,0.4917,-0.6099,3.967,8.545,0.183,135.066,43.511,-83.254
5081,-0.7163,0.4858,-0.6118,1.099,8.301,-0.793,135.203,43.451,-83.161
5091,-0.7080,0.4873,-0.6123,-0.610,5.188,-2.197,135.308,43.418,-83.090
5101,-0.6992,0.4800,-0.6050,-0.549,0.854,-2.563,135.390,43.418,-83.057
5111,-0.6904,0.4561,-0.5913,1.221,-2.869,-2.136,135.467,43.445,-83.062
5121,-0.6802,0.4238,-0.5684,2.136,-5.798,-1.343,135.538,43.500,-83.106
5131,-0.6855,0.4160,-0.5625,1.587,-7.629,0.061,135.582,43.561,-83.183
5141,-0.6885,0.4199,-0.5708,0.854,-7.019,2.258,135.610,43.605,-83.271
5151,-0.6841,0.4326,-0.5864,-0.122,-4.028,3.906,135.637,43.599,-83.348
5161,-0.6812,0.4692,-0.6152,-1.465,-1.404,4.578,135.654,43.555,-83.408
5172,-0.6851,0.5112,-0.6567,-1.709,0.488,4.761,135.670,43.478,-83.452
5182,-0.6846,0.5469,-0.6821,-0.671,1.343,4.578,135.698,43.385,-83.485
5192,-0.6763,0.5635,-0.6763,0.549,-0.366,3.662,135.720,43.303,-83.524
5202,-0.6675,0.5610,-0.6543,2.441,-4.333,2.014,135.742,43.264,-83.584
5212,-0.6665,0.5400,-0.6167,4.395,-9.338,0.427,135.753,43.286,-83.677
5222,-0.6670,0.5044,-0.5747,5.371,-13.794,-0.732,135.747,43.369,-83.804
5232,-0.6748,0.4717,-0.5469,5.127,-16.052,-1.709,135.742,43.489,-83.941
5241,-0.6875,0.4492,-0.5220,3.967,-15.381,-2.380,135.731,43.627,-84.062
5252,-0.6987,0.4468,-0.5171,2.319,-11.963,-1.892,135.720,43.748,-84.161
5262,-0.6992,0.4551,-0.5259,1.404,-7.324,-0.305,135.725,43.813,-84.227
5271,-0.7046,0.4731,-0.5405,0.916,-3.418,1.587,135.731,43.835,-84.276
5282,-0.7021,0.4785,-0.5342,1.160,-1.038,2.625,135.742,43.830,-84.315
5291,-0.6948,0.4766,-0.5127,2.014,-1.282,2.258,135.753,43.835,-84.348
5301,-0.6895,0.4897,-0.5054,3.662,-3.296,1.892,135.753,43.852,-84.397
5312,-0.7012,0.5083,-0.5288,6.775,-3.418,2.380,135.786,43.857,-84.457
5322,-0.7100,0.5112,-0.5771,12.512,-0.488,3.357,135.912,43.824,-84.496
5332,-0.7183,0.5161,-0.6265,17.273,4.089,3.784,136.126,43.748,-84.490
5342,-0.7197,0.5093,-0.6543,18.616,9.033,3.845,136.406,43.627,-84.441
5352,-0.7114,0.4990,-0.6514,16.418,11.902,3.418,136.681,43.489,-84.364
5362,-0.6909,0.4785,-0.5879,10.803,10.193,1.831,136.884,43.396,-84.287
5372,-0.6753,0.4248,-0.5054,4.272,2.808,-1.160,136.983,43.407,-84.249
5382,-0.6860,0.4219,-0.4717,-0.427,-6.653,-3.601,136.972,43.517,-84.276
5392,-0.6978,0.4536,-0.4976,-1.099,-10.803,-3.479,136.923,43.643,-84.342
5402,-0.7095,0.5215,-0.5903,3.052,-7.446,-2.319,136.939,43.698,-84.386
5412,-0.7070,0.5796,-0.6968,8.240,3.052,-0.854,137.076,43.621,-84.353
5422,-0.6997,0.5981,-0.7412,10.925,14.648,-0.549,137.324,43.445,-84.205
5432,-0.6826,0.5386,-0.6665,6.958,19.348,-2.686,137.571,43.275,-84.001
5442,-0.6768,0.4448,-0.5439,-2.808,10.620,-7.263,137.692,43.253,-83.826
5452,-0.6963,0.3789,-0.4248,-15.991,-5.859,-11.292,137.582,43.445,-83.765
5462,-0.7310,0.3101,-0.3477,-26.855,-19.226,-12.817,137.291,43.813,-83.815
5472,-0.7529,0.3267,-0.3369,-31.372,-23.560,-12.207,136.901,44.209,-83.914
5482,-0.7642,0.3857,-0.4067,-26.672,-16.296,-8.484,136.582,44.478,-83.979
5492,-0.7578,0.4648,-0.5117,-13.123,0.427,-2.441,136.483,44.528,-83.952
5502,-0.7456,0.5044,-0.5937,2.563,18.188,3.784,136.637,44.363,-83.815
5512,-0.7187,0.5132,-0.6411,12.573,28.442,7.263,136.945,44.077,-83.617
5522,-0.7051,0.5020,-0.6484,14.893,26.855,6.653,137.274,43.802,-83.430
5532,-0.6963,0.4824,-0.6187,9.460,16.174,4.211,137.494,43.632,-83.320
5542,-0.6870,0.4604,-0.5630,-0.732,0.793,1.038,137.516,43.621,-83.320
5552,-0.6914,0.4497,-0.5044,-9.705,-12.756,-1.587,137.357,43.742,-83.425
5562,-0.7129,0.4487,-0.4761,-11.658,-19.897,-3.052,137.126,43.945,-83.578
5572,-0.7344,0.4468,-0.4893,-6.775,-18.066,-2.930,136.967,44.138,-83.721
5582,-0.7422,0.4316,-0.5156,0.916,-8.240,-1.709,136.967,44.247,-83.782
5592,-0.7339,0.4453,-0.5493,5.737,3.418,-0.305,137.087,44.242,-83.749
5602,-0.7251,0.4771,-0.5894,7.019,11.536,0.732,137.269,44.149,-83.644
5612,-0.7051,0.5093,-0.6152,4.700,14.648,1.282,137.433,44.006,-83.518
5622,-0.6895,0.5386,-0.6284,1.465,13.000,0.977,137.543,43.863,-83.408
5632,-0.6729,0.5513,-0.6304,-1.038,8.545,-0.366,137.604,43.753,-83.326
5642,-0.6729,0.5400,-0.6309,-2.808,3.601,-2.319,137.631,43.693,-83.265
5652,-0.6802,0.5078,-0.6099,-4.517,-0.244,-4.272,137.642,43.693,-83.227
5662,-0.6885,0.4766,-0.5850,-6.653,-3.052,-5.859,137.631,43.742,-83.194
5672,-0.6978,0.4810,-0.5879,-8.240,-4.822,-6.775,137.593,43.808,-83.167
5682,-0.6992,0.4995,-0.6040,-7.812,-4.333,-6.836,137.565,43.868,-83.139
5692,-0.6826,0.4897,-0.5972,-5.371,-2.686,-6.409,137.571,43.907,-83.101
5702,-0.6733,0.4653,-0.5850,-2.808,-2.686,-6.042,137.609,43.945,-83.062
5712,-0.6792,0.4385,-0.5679,-1.465,-4.517,-5.432,137.648,44.011,-83.051
5722,-0.6904,0.4199,-0.5474,-1.221,-6.531,-4.700,137.675,44.099,-83.062
5732,-0.7070,0.4087,-0.5381,-1.099,-7.568,-3.662,137.697,44.203,-83.095
5742,-0.7236,0.4102,-0.5278,-0.305,-6.104,-2.136,137.714,44.291,-83.128
5752,-0.7275,0.4165,-0.5234,2.502,-2.319,-0.671,137.763,44.346,-83.145
5762,-0.7158,0.4238,-0.5391,6.348,2.441,1.282,137.873,44.335,-83.134
5772,-0.7051,0.4272,-0.5640,9.888,5.920,2.747,138.043,44.280,-83.106
5782,-0.7031,0.4194,-0.5684,10.681,7.568,4.395,138.219,44.203,-83.084
5792,-0.6929,0.4214,-0.5698,7.812,6.348,5.554,138.351,44.121,-83.084
5802,-0.6870,0.4287,-0.5732,3.784,4.395,6.287,138.417,44.044,-83.106
5812,-0.6934,0.4404,-0.5732,0.854,4.089,7.019,138.444,43.967,-83.145
5822,-0.7080,0.4297,-0.5508,0.061,4.822,7.812,138.455,43.890,-83.177
5832,-0.7236,0.4258,-0.5376,1.343,5.432,8.057,138.477,43.824,-83.210
5842,-0.7393,0.4507,-0.5581,3.967,6.836,8.179,138.527,43.742,-83.232
5852,-0.7324,0.4863,-0.5986,7.019,8.057,7.874,138.615,43.627,-83.243
5862,-0.7051,0.5361,-0.6475,8.423,8.179,7.141,138.719,43.484,-83.243
5872,-0.6821,0.5635,-0.6689,7.141,7.446,6.287,138.801,43.330,-83.238
5882,-0.6646,0.5747,-0.6655,4.211,4.150,4.822,138.840,43.209,-83.249
5892,-0.6509,0.5840,-0.6416,0.122,-1.099,2.686,138.801,43.138,-83.287
5902,-0.6606,0.5840,-0.6089,-3.357,-6.042,0.488,138.702,43.127,-83.348
5912,-0.6860,0.5605,-0.5601,-5.554,-8.423,-1.343,138.571,43.176,-83.408
5922,-0.7075,0.5376,-0.5190,-6.592,-7.874,-3.296,138.433,43.259,-83.447
5932,-0.7187,0.5474,-0.5205,-6.348,-5.127,-5.615,138.329,43.336,-83.436
5942,-0.7158,0.5210,-0.5137,-3.967,-1.770,-7.263,138.290,43.407,-83.381
5952,-0.7153,0.4775,-0.5054,-1.526,0.244,-8.484,138.318,43.484,-83.287
5962,-0.7100,0.4639,-0.5254,-0.732,1.587,-8.972,138.389,43.550,-83.183
5972,-0.7075,0.4497,-0.5356,-0.549,2.869,-8.118,138.472,43.599,-83.073
5982,-0.7065,0.4365,-0.5303,-1.587,4.150,-6.897,138.554,43.638,-82.963
5992,-0.7070,0.4414,-0.5444,-3.845,4.333,-6.287,138.609,43.665,-82.859
6002,-0.7109,0.4546,-0.5532,-4.700,3.662,-6.165,138.647,43.687,-82.760
6012,-0.7168,0.4224,-0.5444,-3.479,3.235,-6.042,138.713,43.731,-82.667
6022,-0.7070,0.4150,-0.5708,-2.563,3.235,-5.737,138.801,43.753,-82.579
6032,-0.6875,0.4033,-0.5928,-1.709,5.249,-4.700,138.922,43.748,-82.485
6042,-0.6743,0.3970,-0.6084,-1.465,7.141,-3.174,139.054,43.704,-82.386
6052,-0.6724,0.4390,-0.6460,-2.380,8.789,-1.526,139.164,43.621,-82.288
6062,-0.6685,0.4692,-0.6582,-2.136,10.254,0.183,139.257,43.500,-82.200
6072,-0.6675,0.4731,-0.6440,-0.183,10.010,0.793,139.356,43.385,-82.117
6082,-0.6763,0.4253,-0.5894,1.831,7.019,0.366,139.460,43.325,-82.057
6092,-0.6890,0.3364,-0.5029,2.991,0.488,-0.183,139.565,43.380,-82.051
6102,-0.7114,0.3057,-0.4683,1.343,-5.676,0.488,139.614,43.500,-82.106
6112,-0.7271,0.3384,-0.5073,-0.244,-6.165,3.113,139.614,43.594,-82.194
6122,-0.7222,0.4492,-0.6030,-0.732,0.183,6.958,139.598,43.550,-82.266
6132,-0.6997,0.5801,-0.7085,1.770,10.681,10.193,139.620,43.341,-82.277
6142,-0.6709,0.6445,-0.7607,6.836,18.005,10.498,139.719,43.044,-82.227
6152,-0.6587,0.6538,-0.7715,10.498,17.151,7.019,139.878,42.770,-82.150
6162,-0.6499,0.6143,-0.7378,9.766,7.690,1.953,140.010,42.616,-82.101
6172,-0.6636,0.5337,-0.6519,3.906,-7.507,-2.808,140.032,42.643,-82.139
6182,-0.6875,0.4766,-0.5654,-4.822,-20.325,-6.531,139.905,42.841,-82.249
6192,-0.7100,0.3950,-0.4687,-10.498,-26.855,-8.423,139.702,43.165,-82.397
6202,-0.7261,0.3735,-0.4146,-12.512,-26.855,-8.240,139.460,43.511,-82.546
6212,-0.7305,0.4146,-0.4336,-8.606,-18.860,-5.615,139.268,43.764,-82.656
6222,-0.7183,0.4399,-0.4707,1.282,-5.737,-1.648,139.235,43.857,-82.694
6232,-0.7119,0.4868,-0.5625,11.902,6.226,1.160,139.378,43.802,-82.650
6242,-0.6992,0.5625,-0.6753,16.907,15.503,2.441,139.636,43.621,-82.535
6252,-0.6792,0.6050,-0.7251,16.174,19.165,2.319,139.900,43.380,-82.386
6262,-0.6655,0.5532,-0.6616,10.071,14.160,-0.122,140.087,43.215,-82.260
6272,-0.6812,0.4214,-0.5195,-1.038,-0.122,-5.066,140.120,43.275,-82.205
6282,-0.7124,0.3218,-0.3921,-14.893,-16.479,-9.338,139.949,43.572,-82.255
6292,-0.7422,0.2886,-0.3213,-24.902,-26.184,-9.644,139.592,43.995,-82.386
6302,-0.7583,0.3564,-0.3921,-25.208,-21.545,-5.310,139.230,44.302,-82.524
6312,-0.7358,0.5273,-0.5786,-15.808,0.488,1.282,139.054,44.280,-82.535
6322,-0.6919,0.6724,-0.7476,0.305,29.480,7.202,139.180,43.912,-82.337
6332,-0.6255,0.7651,-0.8745,14.099,48.889,8.606,139.559,43.336,-81.985
6342,-0.5850,0.7178,-0.8779,20.325,48.645,3.296,140.043,42.786,-81.584
6352,-0.5952,0.5796,-0.7319,12.939,26.550,-5.737,140.383,42.517,-81.293
6362,-0.6611,0.3960,-0.5049,-4.761,-7.690,-14.160,140.405,42.698,-81.211
6372,-0.7212,0.1689,-0.2412,-21.606,-39.001,-18.799,140.142,43.369,-81.354
6382,-0.7759,-0.0039,-0.0547,-31.616,-59.204,-18.860,-175.913,44.368,-81.678
6392,-0.8315,0.0249,-0.1011,-31.128,-55.359,-11.597,166.157,45.291,-81.458
6402,-0.8491,0.3110,-0.3877,-18.005,-19.104,2.869,165.657,45.615,-81.563
6412,-0.7964,0.6123,-0.7183,7.080,37.537,18.372,165.377,45.154,-81.683
6422,-0.6777,0.8086,-0.9604,33.997,83.191,25.391,165.427,44.127,-81.738
6432,-0.5483,0.8877,-1.0942,49.805,96.008,19.226,165.729,42.929,-81.656
6442,-0.4746,0.8682,-1.1006,47.546,72.571,6.714,166.064,41.973,-81.502
6452,-0.4897,0.7168,-0.9795,28.198,26.001,-5.737,166.223,41.539,-81.343
6462,-0.5552,0.5356,-0.7700,-3.723,-23.682,-14.954,166.053,41.693,-81.227
6472,-0.6343,0.3481,-0.5166,-31.189,-62.439,-20.691,165.591,42.380,-81.156
6482,-0.7207,0.2324,-0.3154,-44.617,-82.092,-22.522,164.943,43.412,-81.140
6492,-0.7900,0.1475,-0.1934,-39.429,-75.012,-18.921,164.317,44.473,-81.156
6502,-0.8364,0.1118,-0.1724,-22.461,-46.875,-10.742,163.900,45.269,-81.189
6512,-0.8345,0.1714,-0.2896,1.343,-10.498,-0.061,163.740,45.599,-81.227
6522,-0.7959,0.2915,-0.4683,24.109,22.644,9.827,163.790,45.450,-81.271
6532,-0.7280,0.4277,-0.6274,36.743,46.265,17.212,163.938,44.945,-81.326
6542,-0.6577,0.5186,-0.7397,38.574,53.040,19.287,164.092,44.302,-81.381
6552,-0.6245,0.5791,-0.7988,29.480,39.917,16.113,164.136,43.759,-81.442
6562,-0.6138,0.5718,-0.7764,13.306,18.616,10.925,164.015,43.440,-81.519
6572,-0.6416,0.5308,-0.7061,-4.089,-4.761,5.188,163.702,43.396,-81.606
6582,-0.6733,0.4834,-0.6460,-18.433,-23.437,0.793,163.246,43.583,-81.705
6592,-0.6909,0.5000,-0.6475,-25.208,-30.701,-1.160,162.713,43.841,-81.810
6602,-0.7041,0.5327,-0.6636,-22.766,-22.461,-1.160,162.224,44.017,-81.892
6612,-0.7012,0.5640,-0.6519,-14.038,-10.315,-0.122,161.823,44.061,-81.931
6622,-0.6704,0.5591,-0.6138,-1.770,-2.686,-0.305,161.559,44.039,-81.942
6632,-0.6611,0.5215,-0.5566,9.460,-3.601,-1.892,161.411,44.044,-81.931
6642,-0.6826,0.4580,-0.4795,16.296,-10.254,-3.113,161.318,44.171,-81.936
6652,-0.7187,0.3501,-0.3740,17.822,-15.991,-2.563,161.224,44.434,-81.974
6662,-0.7705,0.2607,-0.3096,16.235,-20.752,-1.343,161.120,44.808,-82.046
6672,-0.7891,0.2388,-0.2979,11.536,-18.921,2.197,160.955,45.176,-82.161
6682,-0.7808,0.2920,-0.3735,9.583,-9.644,7.568,160.757,45.374,-82.310
6692,-0.7500,0.4395,-0.5493,11.414,6.287,12.817,160.576,45.291,-82.452
6702,-0.7056,0.5459,-0.6958,15.503,24.475,16.235,160.472,44.940,-82.557
6712,-0.6641,0.6001,-0.7817,15.747,33.142,17.090,160.400,44.467,-82.623
6722,-0.6099,0.6382,-0.8281,10.376,27.466,13.000,160.291,44.022,-82.667
6732,-0.5835,0.6533,-0.8135,1.648,9.827,5.859,160.093,43.764,-82.700
6742,-0.6094,0.6201,-0.7534,-7.751,-10.925,-0.427,159.791,43.753,-82.744
6752,-0.6562,0.5625,-0.6787,-15.259,-27.100,-5.798,159.412,43.951,-82.798
6763,-0.6943,0.5093,-0.6074,-19.287,-34.424,-9.521,158.994,44.275,-82.842
6772,-0.7471,0.4502,-0.5371,-18.127,-31.555,-11.169,158.615,44.632,-82.853
6782,-0.7563,0.3848,-0.4780,-13.916,-21.362,-10.620,158.324,44.934,-82.826
6792,-0.7510,0.3267,-0.4399,-10.315,-11.963,-8.057,158.104,45.159,-82.782
6802,-0.7290,0.2954,-0.4189,-4.272,-6.042,-4.150,157.945,45.330,-82.760
6812,-0.7065,0.3032,-0.4209,0.977,-3.662,0.671,157.797,45.445,-82.787
6822,-0.7085,0.3765,-0.5024,6.348,-2.014,5.371,157.654,45.472,-82.870
6832,-0.7080,0.4668,-0.6099,10.071,3.357,8.667,157.538,45.379,-82.969
6842,-0.6973,0.5229,-0.6855,11.108,10.559,9.766,157.445,45.181,-83.035
6852,-0.6870,0.5542,-0.7144,7.385,14.282,8.911,157.341,44.940,-83.079
6862,-0.6875,0.5469,-0.6851,0.244,12.512,6.409,157.170,44.731,-83.090
6872,-0.6885,0.5200,-0.6338,-7.690,6.042,2.319,156.934,44.621,-83.090
6882,-0.6914,0.4785,-0.5688,-13.611,-2.197,-1.709,156.638,44.632,-83.079
6892,-0.6924,0.4453,-0.5098,-15.442,-8.240,-3.357,156.302,44.731,-83.079
6902,-0.6890,0.4375,-0.4966,-12.573,-9.888,-3.052,155.989,44.846,-83.101
6912,-0.7056,0.4653,-0.5073,-7.263,-6.409,-1.099,155.715,44.918,-83.123
6922,-0.7129,0.4795,-0.5205,-0.244,0.549,1.221,155.522,44.912,-83.134
6932,-0.7256,0.4971,-0.5371,6.348,7.080,2.625,155.407,44.835,-83.128
6942,-0.7310,0.5049,-0.5566,10.376,11.536,2.686,155.358,44.714,-83.090
6952,-0.7300,0.5078,-0.5801,8.240,14.160,0.854,155.325,44.572,-83.018
6962,-0.6875,0.5112,-0.5854,2.075,11.658,-3.113,155.253,44.445,-82.914
6972,-0.6592,0.5405,-0.6523,-6.226,5.493,-8.545,155.143,44.368,-82.771
6982,-0.6543,0.6421,-0.8003,-16.052,0.671,-15.259,154.979,44.308,-82.573
6992,-0.6284,0.7559,-0.9307,-27.466,-0.366,-22.095,154.759,44.236,-82.293
7002,-0.6006,0.8159,-0.9565,-39.734,-4.333,-27.832,154.440,44.203,-81.969
7012,-0.6172,0.7275,-0.8188,-51.147,-11.658,-31.433,153.995,44.297,-81.645
7022,-0.6807,0.4463,-0.4971,-62.561,-23.437,-34.912,153.424,44.670,-81.348
7032,-0.7529,0.0889,-0.1064,-72.083,-39.551,-38.147,152.737,45.538,-81.118
7042,-0.8462,-0.1768,0.1978,-74.829,-52.063,-35.217,-41.786,46.428,-81.013
7052,-0.9111,-0.2261,0.2798,-65.552,-48.950,-22.034,-42.242,46.143,-80.777
7062,-0.9336,-0.0239,0.0474,-39.368,-19.470,-2.441,-42.358,46.390,-80.612
7072,-0.8682,0.2764,-0.3188,0.244,33.569,19.165,139.081,46.939,-80.739
7082,-0.7627,0.6475,-0.7354,40.100,84.534,33.020,139.796,46.000,-80.294
7092,-0.6548,0.9526,-1.1260,71.777,111.633,34.424,140.988,44.929,-79.634
7102,-0.5176,1.0215,-1.3066,83.313,110.718,27.588,142.300,43.890,-78.953
7112,-0.4351,0.8955,-1.2700,64.941,81.665,14.099,143.322,43.160,-78.415
7122,-0.4375,0.7300,-1.0605,18.127,31.982,-0.732,143.690,42.907,-78.146
7132,-0.5000,0.5400,-0.7573,-33.508,-20.569,-12.085,143.333,43.143,-78.179
7142,-0.6089,0.3936,-0.4775,-68.665,-60.181,-17.639,142.438,43.731,-78.475
7152,-0.7173,0.2925,-0.3027,-74.890,-74.707,-17.517,141.389,44.434,-78.915
7162,-0.8086,0.2354,-0.2129,-52.979,-61.401,-13.123,140.581,44.995,-79.305
7172,-0.8691,0.2017,-0.2119,-13.916,-33.386,-5.493,140.273,45.286,-79.547
7182,-0.8335,0.2114,-0.2808,21.667,-1.831,4.272,140.449,45.275,-79.607
7192,-0.7720,0.2695,-0.4058,45.959,19.836,12.207,140.938,45.044,-79.563
7202,-0.7153,0.3750,-0.5337,51.514,30.884,17.822,141.509,44.692,-79.486
7212,-0.6836,0.4790,-0.6343,45.837,31.982,20.020,142.009,44.319,-79.426
7222,-0.6670,0.5791,-0.6899,25.818,27.100,17.639,142.295,43.995,-79.387
7232,-0.6406,0.6460,-0.6943,2.747,20.203,12.512,142.344,43.759,-79.349
7242,-0.6528,0.6646,-0.6685,-11.963,10.864,7.202,142.234,43.627,-79.338
7252,-0.6919,0.6265,-0.6392,-16.907,2.991,2.930,142.064,43.588,-79.343
7262,-0.7051,0.5703,-0.5977,-15.747,-0.305,-0.610,141.910,43.594,-79.343
7272,-0.7065,0.4883,-0.5508,-10.376,-3.540,-3.479,141.812,43.643,-79.332
7282,-0.6963,0.4175,-0.4907,-7.935,-7.629,-3.967,141.713,43.726,-79.354
7292,-0.6836,0.4014,-0.4639,-6.287,-11.353,-3.662,141.614,43.835,-79.415
7302,-0.6948,0.4487,-0.4790,-5.432,-12.756,-2.563,141.498,43.956,-79.497
7312,-0.7158,0.4780,-0.5161,-1.160,-7.202,-0.732,141.454,44.017,-79.552
7322,-0.7295,0.4785,-0.5459,3.296,1.831,0.793,141.487,43.995,-79.541
7332,-0.7197,0.4878,-0.5820,5.066,10.498,1.526,141.592,43.901,-79.470
7342,-0.7129,0.4824,-0.6123,6.775,15.198,0.732,141.746,43.781,-79.343
7352,-0.7007,0.4829,-0.6216,4.944,16.052,0.183,141.888,43.654,-79.211
7362,-0.6797,0.4116,-0.5562,1.099,13.428,0.488,141.976,43.544,-79.102
7372,-0.6738,0.3564,-0.5005,-4.028,5.981,0.793,141.965,43.495,-79.058
7382,-0.6851,0.3848,-0.4995,-8.728,-0.488,2.563,141.855,43.478,-79.091
7392,-0.6934,0.4355,-0.5166,-6.531,-0.854,6.409,141.735,43.445,-79.167
7402,-0.6816,0.5093,-0.5835,1.892,3.296,10.132,141.702,43.358,-79.250
7412,-0.6733,0.5684,-0.6743,13.000,10.071,12.390,141.795,43.204,-79.294
7422,-0.6641,0.6089,-0.7339,21.118,16.296,13.550,142.004,42.990,-79.305
7432,-0.6533,0.6279,-0.7637,23.010,19.653,12.634,142.251,42.759,-79.272
7442,-0.6436,0.6270,-0.7417,19.348,18.127,8.850,142.482,42.561,-79.217
7452,-0.6343,0.5298,-0.6279,11.536,12.390,3.601,142.641,42.440,-79.156
7462,-0.6533,0.3779,-0.4951,0.793,0.793,-2.380,142.674,42.451,-79.124
7472,-0.6982,0.3325,-0.4185,-13.550,-9.460,-5.249,142.520,42.556,-79.146
7482,-0.7388,0.3555,-0.3809,-22.583,-10.254,-2.808,142.256,42.654,-79.200
7492,-0.7383,0.3813,-0.3696,-21.301,-0.732,1.770,142.031,42.649,-79.222
7502,-0.7280,0.4429,-0.4399,-10.315,9.827,4.944,141.943,42.539,-79.195
7512,-0.7056,0.4971,-0.5464,6.592,18.494,7.751,142.059,42.347,-79.124
7522,-0.6841,0.5244,-0.6528,19.653,25.513,9.705,142.328,42.089,-79.014
7532,-0.6523,0.5449,-0.7339,22.461,29.175,10.925,142.635,41.792,-78.887
7542,-0.6230,0.5737,-0.7896,16.418,27.283,9.338,142.883,41.517,-78.766
7552,-0.5879,0.5625,-0.7847,6.165,17.822,4.395,143.009,41.347,-78.673
7562,-0.5913,0.5327,-0.7373,-4.150,2.869,-0.793,142.987,41.331,-78.640
7572,-0.6196,0.5112,-0.6919,-12.146,-10.498,-3.967,142.839,41.435,-78.679
7582,-0.6538,0.4941,-0.6465,-13.855,-15.381,-4.272,142.646,41.583,-78.761
7592,-0.6753,0.4722,-0.6226,-10.010,-12.146,-2.808,142.504,41.699,-78.827
7602,-0.6787,0.4424,-0.6089,-2.441,-6.653,-0.671,142.449,41.754,-78.876
7612,-0.6636,0.4141,-0.5991,4.272,-3.784,1.465,142.487,41.781,-78.920
7622,-0.6616,0.4185,-0.6055,7.874,-4.333,3.418,142.548,41.797,-78.992
7632,-0.6675,0.4653,-0.6353,8.545,-5.493,5.005,142.581,41.797,-79.091
7642,-0.6587,0.4863,-0.6479,9.033,-6.714,6.287,142.592,41.786,-79.211
7652,-0.6519,0.4941,-0.6270,8.240,-9.155,6.775,142.570,41.792,-79.360
7662,-0.6587,0.4878,-0.5903,5.920,-12.085,6.897,142.493,41.830,-79.530
7672,-0.6650,0.4775,-0.5303,2.258,-13.916,7.324,142.344,41.907,-79.722
7682,-0.6821,0.4932,-0.4893,-0.916,-13.489,7.935,142.130,41.995,-79.920
7692,-0.7046,0.5171,-0.4736,-1.465,-10.193,8.423,141.905,42.056,-80.090
7702,-0.7183,0.5293,-0.4819,1.282,-3.906,8.606,141.740,42.061,-80.217
7712,-0.7178,0.5220,-0.4912,4.822,3.174,8.606,141.658,42.012,-80.283
7722,-0.6919,0.5283,-0.5024,7.202,8.606,8.301,141.641,41.913,-80.299
7732,-0.6670,0.5439,-0.5327,8.301,9.888,6.226,141.658,41.792,-80.283
7742,-0.6685,0.5654,-0.5747,9.094,8.484,3.479,141.713,41.682,-80.244
7752,-0.6655,0.5630,-0.5957,7.751,7.080,1.343,141.768,41.594,-80.200
7763,-0.6396,0.5474,-0.5981,3.845,5.066,-0.732,141.795,41.523,-80.151
7772,-0.6426,0.5576,-0.6021,-1.709,2.747,-2.747,141.768,41.484,-80.101
7782,-0.6675,0.5635,-0.6094,-5.493,2.808,-3.906,141.707,41.462,-80.035
7792,-0.6851,0.5386,-0.6084,-6.104,5.188,-4.883,141.674,41.435,-79.942
7802,-0.6816,0.5088,-0.6226,-5.615,7.385,-6.287,141.696,41.407,-79.816
7812,-0.6748,0.4785,-0.6323,-5.188,8.606,-6.836,141.751,41.369,-79.673
7822,-0.6592,0.4448,-0.6230,-5.798,9.155,-6.287,141.812,41.331,-79.530
7832,-0.6240,0.4160,-0.6001,-7.507,6.836,-5.676,141.844,41.309,-79.415
7842,-0.6333,0.4375,-0.5908,-7.324,1.709,-4.517,141.833,41.314,-79.354
7852,-0.6538,0.4492,-0.5952,-3.418,-0.244,-1.892,141.823,41.325,-79.338
7862,-0.6523,0.4478,-0.6074,2.502,1.221,0.427,141.866,41.309,-79.332
7872,-0.6533,0.4575,-0.6318,6.653,3.845,2.502,141.960,41.254,-79.327
7882,-0.6577,0.4976,-0.6621,8.423,5.737,3.723,142.059,41.155,-79.316
7892,-0.6509,0.5483,-0.6890,8.728,6.348,4.150,142.141,41.034,-79.310
7902,-0.6304,0.5625,-0.6963,8.362,5.493,3.113,142.224,40.913,-79.299
7912,-0.6255,0.5508,-0.6851,6.836,2.930,0.732,142.289,40.831,-79.283
7922,-0.6362,0.5166,-0.6382,3.662,-0.610,-1.221,142.322,40.814,-79.272
7932,-0.6494,0.4556,-0.5737,-0.305,-4.639,-2.808,142.306,40.875,-79.283
7942,-0.6724,0.4346,-0.5278,-3.845,-7.996,-3.784,142.234,40.995,-79.305
7952,-0.6816,0.4766,-0.5352,-4.456,-8.057,-2.686,142.125,41.100,-79.343
7962,-0.6763,0.5479,-0.5996,0.549,-3.296,-0.427,142.070,41.116,-79.365
7972,-0.6499,0.6045,-0.6768,8.789,4.822,1.099,142.136,41.017,-79.338
7982,-0.6216,0.6060,-0.7153,14.832,10.803,0.854,142.311,40.853,-79.261
7992,-0.6069,0.5703,-0.7085,14.465,9.216,-2.380,142.509,40.726,-79.162
8002,-0.6216,0.5244,-0.6753,7.629,1.953,-7.080,142.635,40.704,-79.069
8012,-0.6572,0.4434,-0.5635,-4.211,-6.836,-10.925,142.625,40.842,-79.008
8022,-0.6929,0.3335,-0.4053,-16.724,-16.174,-13.855,142.449,41.171,-78.992
8032,-0.7319,0.2832,-0.3076,-25.085,-23.193,-14.709,142.130,41.638,-79.025
8042,-0.7651,0.3105,-0.2798,-24.536,-21.912,-11.292,141.746,42.072,-79.085
8052,-0.7725,0.3716,-0.3457,-13.062,-8.606,-4.578,141.509,42.314,-79.113
8062,-0.7388,0.4331,-0.4800,4.639,13.000,2.563,141.575,42.264,-79.030
8072,-0.6826,0.5132,-0.6479,19.409,32.227,7.202,141.899,41.940,-78.832
8082,-0.6206,0.5933,-0.8071,25.452,41.077,7.812,142.339,41.473,-78.574
8092,-0.5811,0.6562,-0.9077,21.851,37.415,4.822,142.740,41.012,-78.322
8102,-0.5605,0.7012,-0.9478,9.888,24.841,0.305,142.971,40.655,-78.124
8112,-0.5679,0.6929,-0.9082,-4.211,8.240,-5.066,143.004,40.479,-78.008
8122,-0.5962,0.6328,-0.8076,-13.977,-7.080,-10.559,142.888,40.496,-77.953
8132,-0.6191,0.5483,-0.6860,-17.334,-16.968,-14.954,142.718,40.666,-77.932
8142,-0.6401,0.4497,-0.5728,-15.686,-21.667,-16.602,142.553,40.941,-77.932
8152,-0.6543,0.3423,-0.4624,-11.230,-22.217,-15.869,142.443,41.292,-77.943
8162,-0.6865,0.2729,-0.3989,-7.141,-19.470,-13.245,142.394,41.660,-77.959
8172,-0.7192,0.2593,-0.3862,-3.845,-12.634,-8.911,142.388,41.968,-77.970
8182,-0.7373,0.2793,-0.4048,-1.221,-1.892,-3.052,142.416,42.144,-77.953
8192,-0.7407,0.3188,-0.4507,1.038,10.559,2.991,142.487,42.155,-77.899
8202,-0.7241,0.3804,-0.5254,2.563,19.775,6.958,142.586,42.017,-77.811
8212,-0.7021,0.4551,-0.6069,3.967,22.461,7.751,142.696,41.803,-77.706
8222,-0.6797,0.5171,-0.6787,4.089,21.118,7.019,142.800,41.561,-77.613
8232,-0.6426,0.5435,-0.7207,0.488,15.503,5.371,142.855,41.347,-77.542
8242,-0.6201,0.5601,-0.7363,-4.639,7.446,2.869,142.828,41.193,-77.514
8252,-0.6167,0.5620,-0.7275,-9.888,-0.061,0.610,142.718,41.116,-77.520
8263,-0.6216,0.5576,-0.7085,-12.573,-5.066,-1.221,142.564,41.100,-77.547
8272,-0.6333,0.5547,-0.6841,-11.963,-6.470,-2.380,142.416,41.111,-77.574
8282,-0.6436,0.5366,-0.6499,-8.057,-5.615,-3.113,142.306,41.138,-77.585
8292,-0.6431,0.5000,-0.6182,-3.906,-4.883,-3.723,142.256,41.177,-77.591
8302,-0.6338,0.4360,-0.5752,-3.479,-4.639,-4.211,142.229,41.237,-77.580
8312,-0.6455,0.3975,-0.5469,-5.493,-6.226,-3.967,142.191,41.336,-77.591
8322,-0.6592,0.3867,-0.5317,-8.118,-5.554,-2.380,142.114,41.429,-77.613
8332,-0.6729,0.4077,-0.5288,-9.583,-2.686,-0.183,142.009,41.490,-77.629
8342,-0.6768,0.4487,-0.5483,-7.629,1.709,2.136,141.910,41.484,-77.640
8352,-0.6743,0.4717,-0.5806,-2.258,5.920,4.395,141.883,41.418,-77.635
8362,-0.6689,0.5054,-0.6372,3.906,8.789,5.737,141.927,41.298,-77.624
8372,-0.6606,0.5293,-0.6875,7.568,9.888,6.104,142.015,41.144,-77.607
8382,-0.6484,0.5332,-0.7075,7.080,8.667,5.493,142.103,40.990,-77.596
8392,-0.6367,0.5132,-0.6978,3.296,4.211,3.906,142.147,40.886,-77.602
8402,-0.6362,0.5000,-0.6777,-2.258,-2.136,2.258,142.114,40.853,-77.640
8412,-0.6519,0.4917,-0.6416,-6.470,-6.287,1.465,142.009,40.875,-77.706
8422,-0.6621,0.4609,-0.5942,-7.263,-7.141,1.221,141.894,40.924,-77.778
8432,-0.6704,0.4385,-0.5513,-5.676,-7.324,1.221,141.790,41.001,-77.849
8442,-0.6792,0.4458,-0.5459,-2.502,-7.080,2.319,141.702,41.072,-77.932
8452,-0.6909,0.4619,-0.5620,2.014,-3.479,4.211,141.663,41.100,-78.008
8462,-0.6875,0.5132,-0.6196,6.348,1.282,5.859,141.680,41.045,-78.058
8472,-0.6738,0.5508,-0.6772,12.573,8.911,6.042,141.801,40.908,-78.047
8482,-0.6509,0.5273,-0.6646,16.541,18.005,4.395,142.031,40.704,-77.943
8492,-0.6250,0.3794,-0.5723,15.991,20.935,0.427,142.339,40.556,-77.778
8502,-0.6367,0.2754,-0.4863,4.578,11.230,-3.967,142.548,40.573,-77.646
8512,-0.6768,0.2637,-0.4346,-12.939,0.122,-4.272,142.515,40.726,-77.602
8522,-0.7314,0.3174,-0.4043,-26.978,-2.930,-0.305,142.229,40.891,-77.624
8532,-0.7603,0.4028,-0.4243,-31.982,3.418,4.578,141.839,40.952,-77.640
8542,-0.7422,0.5039,-0.4897,-25.635,15.869,7.751,141.542,40.836,-77.591
8552,-0.6865,0.6470,-0.6450,-11.414,29.724,9.521,141.454,40.507,-77.448
8562,-0.6196,0.7759,-0.8159,7.202,41.565,9.216,141.636,40.012,-77.201
8572,-0.5654,0.8267,-0.9146,23.193,45.227,7.019,142.015,39.468,-76.904
8582,-0.5229,0.7876,-0.9087,24.414,38.391,2.563,142.405,38.990,-76.630
8592,-0.5000,0.6328,-0.7549,13.916,19.775,-4.517,142.641,38.743,-76.426
8602,-0.5400,0.5000,-0.5781,-3.845,-7.019,-11.841,142.608,38.831,-76.360
8612,-0.6060,0.4497,-0.4541,-22.827,-28.503,-14.648,142.267,39.194,-76.432
8622,-0.6821,0.4355,-0.3716,-28.870,-33.875,-12.268,141.773,39.639,-76.575
8632,-0.7520,0.4316,-0.3584,-24.353,-23.682,-7.996,141.345,40.012,-76.685
8642,-0.7632,0.4307,-0.3911,-9.949,-6.287,-4.517,141.152,40.215,-76.690
8652,-0.7363,0.4302,-0.4507,7.141,9.888,-1.282,141.235,40.243,-76.597
8662,-0.6899,0.4541,-0.5654,19.470,21.790,1.587,141.531,40.095,-76.432
8672,-0.6416,0.5181,-0.7002,23.621,27.527,3.113,141.905,39.825,-76.240
8682,-0.6079,0.5830,-0.7837,20.020,27.222,3.357,142.234,39.512,-76.053
8692,-0.5854,0.6030,-0.7959,13.672,21.606,2.380,142.471,39.238,-75.910
8702,-0.5771,0.5654,-0.7495,6.775,12.268,-0.488,142.603,39.067,-75.806
8712,-0.5972,0.5396,-0.6958,-1.099,2.563,-3.967,142.630,39.023,-75.745
8722,-0.6196,0.5088,-0.6421,-5.554,-2.625,-5.432,142.586,39.056,-75.712
8732,-0.6377,0.4722,-0.5928,-4.883,-3.540,-5.249,142.542,39.128,-75.685
8742,-0.6450,0.4482,-0.5728,-1.465,-2.319,-4.700,142.537,39.199,-75.657
8752,-0.6328,0.4453,-0.5786,2.563,0.183,-3.296,142.586,39.238,-75.619
8763,-0.6143,0.4966,-0.6440,5.371,2.563,-2.136,142.663,39.205,-75.580
8772,-0.6108,0.5425,-0.7012,6.531,5.432,-1.465,142.762,39.128,-75.520
8782,-0.6133,0.5386,-0.6909,6.592,7.568,-2.014,142.866,39.040,-75.443
8792,-0.6104,0.5020,-0.6504,3.906,5.676,-3.845,142.954,38.990,-75.355
8802,-0.6240,0.4707,-0.6201,-0.610,1.831,-5.676,142.993,39.007,-75.284
8812,-0.6499,0.4111,-0.5825,-3.479,-0.488,-5.676,143.009,39.078,-75.229
8822,-0.6641,0.3716,-0.5630,-6.042,-0.732,-4.822,143.009,39.166,-75.185
8832,-0.6587,0.3696,-0.5703,-6.958,0.732,-3.357,143.009,39.232,-75.146
8842,-0.6353,0.4062,-0.6055,-4.639,3.601,-0.793,143.015,39.227,-75.108
8852,-0.6006,0.4951,-0.6982,0.244,8.240,2.258,143.058,39.106,-75.070
8862,-0.5771,0.5654,-0.7837,7.935,13.367,4.517,143.185,38.892,-75.015
8872,-0.5684,0.5903,-0.8311,14.404,15.808,4.883,143.388,38.639,-74.943
8882,-0.5645,0.5820,-0.8398,15.686,13.672,3.723,143.602,38.414,-74.877
8892,-0.5747,0.5190,-0.7900,12.451,7.935,1.526,143.784,38.271,-74.828
8902,-0.6084,0.4233,-0.7100,5.310,-0.671,-1.282,143.893,38.260,-74.822
8912,-0.6401,0.3628,-0.6445,-3.052,-8.301,-2.991,143.915,38.370,-74.855
8922,-0.6587,0.3257,-0.5913,-8.850,-10.742,-1.770,143.860,38.529,-74.916
8932,-0.6665,0.3145,-0.5547,-10.742,-8.545,1.709,143.767,38.666,-74.998
8942,-0.6675,0.3325,-0.5410,-8.545,-3.601,6.104,143.674,38.732,-75.086
8952,-0.6611,0.3740,-0.5605,-2.869,2.258,10.498,143.613,38.710,-75.179
8962,-0.6475,0.4087,-0.5923,4.517,4.944,13.123,143.619,38.628,-75.278
8972,-0.6357,0.4399,-0.6230,9.644,3.479,13.855,143.652,38.529,-75.394
8982,-0.6309,0.4780,-0.6558,11.047,-0.305,13.672,143.674,38.447,-75.536
8992,-0.6172,0.5308,-0.6968,8.789,-3.296,12.756,143.657,38.364,-75.696
9002,-0.6035,0.5835,-0.7231,5.615,-4.395,10.803,143.597,38.282,-75.839
9012,-0.5977,0.6182,-0.7139,2.136,-3.967,8.667,143.503,38.205,-75.954
9022,-0.5967,0.6255,-0.6782,-1.038,-3.540,6.592,143.372,38.139,-76.053
9032,-0.6104,0.6235,-0.6558,-2.441,-2.808,4.761,143.234,38.095,-76.119
9042,-0.6304,0.5903,-0.6289,-1.831,-0.244,3.296,143.130,38.057,-76.157
9052,-0.6206,0.5645,-0.6299,-1.648,2.197,1.770,143.064,38.013,-76.157
9062,-0.6133,0.5674,-0.6562,-2.563,2.136,-0.061,143.009,37.969,-76.141
9072,-0.5991,0.5654,-0.6577,-3.601,0.977,-0.671,142.949,37.930,-76.124
9082,-0.5854,0.5400,-0.6323,-3.967,-1.404,-1.343,142.877,37.925,-76.124
9092,-0.6011,0.5068,-0.5937,-4.333,-4.272,-2.197,142.789,37.963,-76.135
9102,-0.6445,0.4526,-0.5464,-4.333,-6.165,-2.869,142.712,38.073,-76.152
9112,-0.6807,0.4185,-0.5142,-4.883,-5.859,-2.808,142.635,38.216,-76.168
9122,-0.7129,0.3999,-0.5054,-3.906,-2.747,-2.014,142.586,38.348,-76.168
9132,-0.7153,0.4033,-0.5356,-1.343,2.563,-0.488,142.592,38.414,-76.146
9142,-0.6675,0.4453,-0.5898,2.197,9.033,1.526,142.652,38.370,-76.091
9152,-0.6182,0.4736,-0.6211,5.371,14.160,4.211,142.745,38.232,-76.025
9162,-0.5874,0.4937,-0.6201,6.165,15.564,6.287,142.828,38.057,-75.965
9172,-0.5640,0.4966,-0.6084,4.822,13.611,6.531,142.883,37.886,-75.927
9182,-0.5791,0.5073,-0.6221,3.784,10.620,5.493,142.910,37.749,-75.905
9192,-0.6123,0.5127,-0.6587,4.456,9.827,4.639,142.965,37.628,-75.877
9202,-0.6499,0.5024,-0.6968,6.836,11.475,4.028,143.075,37.507,-75.828
9212,-0.6606,0.4961,-0.7349,9.644,14.099,2.808,143.245,37.370,-75.751
9222,-0.6470,0.4937,-0.7656,10.498,15.137,1.343,143.448,37.222,-75.646
9232,-0.5986,0.4712,-0.7476,8.057,14.099,-0.366,143.635,37.084,-75.542
9242,-0.5698,0.4512,-0.7012,2.686,8.545,-2.136,143.751,37.002,-75.454
9252,-0.5718,0.4673,-0.6782,-2.563,0.916,-1.831,143.756,36.980,-75.432
9263,-0.5801,0.4971,-0.6821,-3.418,-3.418,0.305,143.707,36.980,-75.460
9272,-0.5923,0.5112,-0.6763,0.183,-4.028,2.258,143.668,36.980,-75.509
9282,-0.6001,0.5151,-0.6816,5.371,-3.906,3.052,143.679,36.974,-75.569
9292,-0.6128,0.5117,-0.6948,9.338,-3.967,3.113,143.734,36.974,-75.630
9302,-0.6182,0.4810,-0.7036,11.230,-3.784,2.502,143.833,36.980,-75.685
9312,-0.5996,0.4531,-0.7080,9.094,-3.784,0.916,143.937,36.985,-75.723
9322,-0.5781,0.4556,-0.7012,2.930,-4.822,-0.244,143.976,37.007,-75.756
9332,-0.5688,0.4678,-0.6724,-4.211,-6.836,-0.671,143.921,37.040,-75.800
9342,-0.5698,0.4917,-0.6250,-9.033,-10.132,-1.160,143.773,37.117,-75.861
9352,-0.5864,0.5176,-0.5942,-9.277,-13.123,-1.709,143.586,37.227,-75.943
9362,-0.6182,0.5332,-0.5835,-4.456,-13.550,-1.587,143.432,37.348,-76.025
9372,-0.6504,0.5195,-0.5918,2.502,-10.681,-1.160,143.366,37.463,-76.097
9382,-0.6606,0.4907,-0.6084,6.836,-4.944,-0.732,143.394,37.535,-76.124
9392,-0.6558,0.4834,-0.6421,6.775,1.465,-0.427,143.465,37.546,-76.108
9402,-0.6294,0.5059,-0.6792,3.174,5.920,-0.549,143.525,37.491,-76.058
9412,-0.6060,0.5015,-0.6753,-1.404,6.897,-1.099,143.553,37.425,-75.998
9422,-0.5986,0.5117,-0.6509,-6.348,2.869,-2.319,143.498,37.397,-75.948
9432,-0.6084,0.5410,-0.6304,-9.521,-2.014,-2.747,143.372,37.419,-75.938
9442,-0.6270,0.5249,-0.5947,-7.629,-3.662,-2.686,143.245,37.474,-75.938
9452,-0.6426,0.5020,-0.5703,-2.869,-3.906,-3.418,143.174,37.551,-75.932
9462,-0.6523,0.5127,-0.6079,1.892,-2.808,-3.784,143.168,37.617,-75.916
9473,-0.6353,0.4985,-0.6426,6.714,1.038,-3.052,143.251,37.628,-75.877
9482,-0.6138,0.4746,-0.6816,8.850,3.845,-3.174,143.394,37.606,-75.817
9493,-0.5918,0.4683,-0.7300,6.348,4.211,-4.150,143.542,37.562,-75.745
9503,-0.5835,0.4766,-0.7520,0.732,3.540,-5.005,143.635,37.524,-75.668
9513,-0.5840,0.4800,-0.7451,-5.127,2.319,-5.493,143.663,37.496,-75.591
9522,-0.5713,0.4438,-0.6675,-8.606,-0.122,-5.615,143.641,37.507,-75.536
9532,-0.5854,0.3872,-0.5645,-7.996,-5.981,-5.432,143.586,37.617,-75.526
9542,-0.6318,0.3545,-0.5151,-3.967,-11.414,-3.845,143.536,37.809,-75.575
9553,-0.6626,0.3589,-0.5088,2.747,-10.681,-0.305,143.531,37.985,-75.652
9563,-0.6812,0.3813,-0.5615,10.193,-2.747,4.211,143.613,38.057,-75.712
9573,-0.6626,0.4561,-0.6914,14.771,9.766,8.301,143.784,37.936,-75.723
9583,-0.6250,0.5630,-0.8335,15.625,20.874,9.827,143.992,37.650,-75.668
9593,-0.5757,0.6509,-0.9160,15.198,23.193,7.690,144.207,37.315,-75.575
9603,-0.5161,0.6387,-0.9092,13.489,13.489,3.357,144.388,37.062,-75.509
9613,-0.5112,0.6118,-0.8481,7.751,-4.272,-0.793,144.448,36.991,-75.531
9623,-0.5532,0.5698,-0.7637,-0.610,-18.555,-3.296,144.371,37.090,-75.635
9632,-0.5894,0.4624,-0.5977,-7.996,-25.391,-5.005,144.190,37.332,-75.767
9643,-0.6284,0.3784,-0.4546,-14.587,-28.198,-6.714,143.921,37.694,-75.910
9653,-0.6904,0.3633,-0.3877,-17.700,-25.085,-6.226,143.602,38.079,-76.031
9663,-0.7148,0.3564,-0.3784,-13.428,-12.939,-2.563,143.355,38.353,-76.102
9673,-0.7256,0.3745,-0.4531,-3.357,3.174,0.427,143.306,38.452,-76.086
9683,-0.7046,0.4321,-0.5947,6.775,15.747,2.197,143.437,38.370,-75.987
9693,-0.6504,0.4766,-0.7178,12.878,21.912,3.784,143.674,38.156,-75.855
9703,-0.5845,0.4985,-0.7622,12.512,19.348,4.456,143.893,37.925,-75.756
9713,-0.5684,0.5317,-0.7612,6.897,8.606,4.333,143.987,37.766,-75.740
9723,-0.5869,0.5669,-0.7437,0.732,-1.282,3.845,143.948,37.694,-75.789
9733,-0.6035,0.5737,-0.7017,-2.014,-5.066,2.991,143.855,37.678,-75.855
9743,-0.6050,0.5420,-0.6470,-0.793,-4.822,1.282,143.778,37.689,-75.905
9753,-0.6172,0.5034,-0.6133,1.831,-3.845,-0.366,143.751,37.722,-75.927
9763,-0.6357,0.4780,-0.6230,4.578,-1.587,-0.671,143.784,37.755,-75.932
9773,-0.6436,0.4639,-0.6611,6.775,2.563,-1.038,143.877,37.749,-75.905
9783,-0.6377,0.4453,-0.7017,6.958,5.005,-2.563,144.020,37.722,-75.839
9793,-0.6167,0.4326,-0.7271,3.845,3.235,-4.150,144.152,37.700,-75.773
9802,-0.5903,0.4019,-0.6958,-1.099,-1.831,-4.761,144.223,37.733,-75.740
9813,-0.5903,0.3877,-0.6401,-6.531,-7.690,-3.906,144.190,37.820,-75.756
9823,-0.6064,0.4014,-0.6006,-8.667,-9.949,-1.526,144.091,37.930,-75.811
9833,-0.6226,0.4209,-0.5801,-5.859,-6.226,1.648,143.992,38.002,-75.877
9843,-0.6279,0.4404,-0.5776,-1.343,0.488,4.578,143.943,38.002,-75.921
9853,-0.6255,0.4595,-0.5952,2.563,6.104,6.165,143.943,37.930,-75.938
9863,-0.6226,0.4858,-0.6338,4.395,8.789,6.409,143.970,37.826,-75.938
9873,-0.6323,0.5088,-0.6719,4.089,9.521,5.371,144.009,37.711,-75.921
9883,-0.6294,0.5269,-0.7002,2.075,9.827,3.662,144.042,37.590,-75.888
9893,-0.6304,0.5425,-0.7202,-0.305,9.277,1.831,144.058,37.474,-75.839
9903,-0.6138,0.5527,-0.7227,-2.380,7.324,0.061,144.053,37.381,-75.784
9913,-0.6118,0.5562,-0.7158,-3.479,4.272,-1.404,144.025,37.321,-75.740
9923,-0.6025,0.5547,-0.7041,-4.456,1.282,-2.502,143.981,37.293,-75.701
9933,-0.5918,0.5308,-0.6611,-5.554,-1.587,-3.601,143.915,37.304,-75.679
9943,-0.5908,0.4902,-0.6147,-7.812,-5.066,-4.761,143.817,37.370,-75.668
9953,-0.6025,0.4702,-0.5874,-10.742,-6.897,-5.432,143.690,37.469,-75.663
9963,-0.6255,0.4575,-0.5742,-11.902,-5.066,-4.944,143.553,37.568,-75.652
9973,-0.6348,0.4575,-0.5820,-10.620,-0.244,-3.601,143.454,37.623,-75.613
9983,-0.6367,0.4614,-0.6021,-7.019,4.822,-2.075,143.410,37.617,-75.558
9993,-0.6274,0.4639,-0.6367,-2.075,7.812,-0.977,143.437,37.573,-75.487
10003,-0.6069,0.4780,-0.6904,2.014,7.812,-0.488,143.514,37.496,-75.427
10013,-0.5908,0.4790,-0.7388,4.456,5.676,-0.732,143.624,37.419,-75.377
10023,-0.5830,0.4692,-0.7642,4.089,2.747,-1.282,143.734,37.359,-75.344
10033,-0.5898,0.4585,-0.7666,1.099,-0.061,-1.526,143.806,37.332,-75.328
10043,-0.5957,0.4614,-0.7515,-2.441,-2.380,-1.343,143.828,37.326,-75.333
10053,-0.6089,0.4585,-0.7104,-3.967,-4.272,-0.427,143.800,37.343,-75.361
10063,-0.6265,0.4434,-0.6704,-2.686,-5.920,0.549,143.773,37.397,-75.410
10073,-0.6318,0.4307,-0.6470,-0.122,-7.141,1.221,143.756,37.463,-75.476
10083,-0.6255,0.4248,-0.6294,2.502,-7.507,2.014,143.762,37.529,-75.547
10093,-0.6182,0.4150,-0.6128,3.662,-7.935,2.686,143.767,37.601,-75.635
10103,-0.6177,0.4194,-0.6045,2.808,-8.545,3.479,143.745,37.672,-75.734
10113,-0.6250,0.4341,-0.6001,1.831,-8.240,4.761,143.701,37.738,-75.844
10123,-0.6348,0.4604,-0.6011,2.258,-5.798,6.409,143.646,37.766,-75.954
10133,-0.6445,0.4824,-0.6030,5.066,-1.953,7.874,143.619,37.760,-76.047
10143,-0.6465,0.5000,-0.6104,10.925,0.732,8.911,143.646,37.716,-76.135
10153,-0.6470,0.5039,-0.6323,18.127,0.916,9.338,143.751,37.661,-76.223
10163,-0.6421,0.4966,-0.6538,23.437,-0.977,8.972,143.910,37.623,-76.322
10173,-0.6396,0.4829,-0.6665,24.536,-4.272,7.874,144.086,37.612,-76.432
10183,-0.6279,0.4751,-0.6719,21.057,-7.385,6.531,144.229,37.634,-76.553
10193,-0.6050,0.4678,-0.6631,14.343,-8.911,5.432,144.305,37.661,-76.679
10203,-0.6011,0.4717,-0.6489,6.470,-8.362,4.883,144.294,37.694,-76.789
10213,-0.6006,0.4888,-0.6343,-0.549,-5.188,5.005,144.218,37.700,-76.877
10223,-0.6035,0.4966,-0.6240,-4.089,-1.404,4.822,144.113,37.678,-76.937
10233,-0.6084,0.5088,-0.6177,-4.822,0.549,4.211,144.009,37.645,-76.976
10243,-0.6128,0.5176,-0.6162,-3.906,1.282,3.967,143.910,37.606,-77.009
10253,-0.6167,0.5444,-0.6221,-1.587,1.709,3.967,143.828,37.562,-77.036
10263,-0.6235,0.5557,-0.6338,3.174,1.160,3.723,143.789,37.518,-77.064
10273,-0.6265,0.5522,-0.6479,8.850,0.793,3.052,143.817,37.485,-77.091
10283,-0.6318,0.5464,-0.6616,13.306,1.587,2.258,143.910,37.447,-77.102
10293,-0.6265,0.5210,-0.6689,15.076,3.479,1.343,144.047,37.403,-77.091
10303,-0.6143,0.4780,-0.6704,12.329,4.517,-0.732,144.201,37.365,-77.047
10313,-0.6069,0.4619,-0.6714,4.272,3.906,-3.235,144.289,37.343,-76.987
10323,-0.6045,0.4673,-0.6592,-5.615,3.601,-4.395,144.283,37.332,-76.915
10333,-0.6099,0.4907,-0.6460,-12.268,4.395,-4.456,144.190,37.321,-76.838
10343,-0.6250,0.5078,-0.6489,-12.390,5.676,-3.906,144.097,37.299,-76.756
10353,-0.6318,0.5078,-0.6626,-7.385,7.385,-3.418,144.064,37.255,-76.668
10363,-0.6235,0.4790,-0.6875,-1.038,7.812,-3.662,144.119,37.205,-76.569
10373,-0.6143,0.4512,-0.7031,1.648,5.737,-4.456,144.218,37.178,-76.487
10383,-0.6099,0.4429,-0.7061,-0.854,2.686,-4.822,144.289,37.172,-76.415
10393,-0.6089,0.4424,-0.6929,-5.371,0.427,-4.456,144.294,37.189,-76.366
10403,-0.6021,0.4277,-0.6738,-8.118,-0.732,-3.784,144.267,37.216,-76.333
10413,-0.5937,0.4092,-0.6401,-8.728,-1.892,-2.808,144.223,37.255,-76.317
10423,-0.5981,0.4116,-0.6206,-8.301,-2.930,-0.916,144.157,37.299,-76.333
10433,-0.6099,0.4189,-0.6118,-5.310,-2.808,1.648,144.097,37.337,-76.366
10443,-0.6255,0.4233,-0.6128,-0.671,-1.648,4.456,144.064,37.348,-76.426
10453,-0.6235,0.4258,-0.6255,3.845,0.305,6.653,144.080,37.332,-76.492
10463,-0.6143,0.4521,-0.6646,6.653,1.587,7.324,144.124,37.277,-76.553
10473,-0.6113,0.4771,-0.6929,7.385,1.892,6.958,144.179,37.205,-76.613
10483,-0.6113,0.5063,-0.7178,6.104,1.648,6.042,144.218,37.134,-76.663
10493,-0.6079,0.5234,-0.7329,3.845,1.343,5.127,144.229,37.062,-76.701
10503,-0.6094,0.5312,-0.7305,0.793,1.526,4.395,144.218,36.996,-76.734
10513,-0.6099,0.5400,-0.7246,-1.831,0.916,2.808,144.174,36.942,-76.756
10523,-0.6089,0.5420,-0.7109,-3.601,-0.977,1.038,144.113,36.920,-76.778
10533,-0.5986,0.5063,-0.6792,-4.700,-2.991,-0.061,144.047,36.925,-76.800
10543,-0.5962,0.4653,-0.6372,-6.226,-5.066,-0.671,143.965,36.969,-76.827
10553,-0.6074,0.4424,-0.6128,-8.240,-6.165,-0.854,143.866,37.046,-76.866
10563,-0.6133,0.4351,-0.5957,-9.277,-4.272,-0.061,143.756,37.106,-76.893
10573,-0.6138,0.4478,-0.5952,-8.667,-0.549,0.916,143.652,37.128,-76.910
10583,-0.6162,0.4585,-0.6123,-6.287,3.723,1.770,143.591,37.106,-76.899
10593,-0.6172,0.4697,-0.6343,-2.869,8.484,2.686,143.586,37.029,-76.860
10603,-0.6167,0.4810,-0.6631,0.732,12.390,3.723,143.630,36.909,-76.811
10613,-0.6187,0.4771,-0.6909,3.906,14.160,4.517,143.718,36.766,-76.750
10623,-0.6162,0.4727,-0.7085,5.066,13.977,4.456,143.828,36.617,-76.690
10633,-0.5981,0.4858,-0.7153,3.052,10.742,3.174,143.910,36.497,-76.646
10643,-0.5752,0.4785,-0.7026,0.183,3.906,2.930,143.926,36.425,-76.646
10653,-0.5728,0.4697,-0.6748,-3.601,-2.319,3.906,143.871,36.403,-76.701
10663,-0.5908,0.4824,-0.6519,-6.348,-3.967,5.127,143.756,36.403,-76.783
10673,-0.5933,0.5000,-0.6392,-4.822,-1.709,6.531,143.646,36.376,-76.860
10683,-0.6016,0.4985,-0.6431,0.610,1.343,8.118,143.597,36.315,-76.932
10693,-0.6011,0.4829,-0.6543,6.592,4.395,9.766,143.624,36.227,-76.998
10703,-0.6040,0.4771,-0.6626,9.705,6.348,10.254,143.690,36.118,-77.053
10713,-0.5991,0.4946,-0.6680,7.812,6.042,8.911,143.740,36.013,-77.097
10723,-0.5996,0.5288,-0.6782,3.174,5.859,7.080,143.740,35.914,-77.124
10733,-0.5928,0.5361,-0.6694,0.061,5.798,5.310,143.712,35.826,-77.135
10743,-0.6016,0.5186,-0.6543,-0.366,3.967,3.601,143.679,35.771,-77.141
10753,-0.6099,0.5054,-0.6479,0.122,1.160,1.648,143.663,35.760,-77.151
10764,-0.6133,0.5078,-0.6499,1.160,0.244,0.793,143.652,35.766,-77.157
10773,-0.6250,0.4521,-0.6411,2.319,2.625,2.136,143.685,35.760,-77.157
10783,-0.6318,0.4438,-0.6436,1.892,5.920,3.845,143.723,35.722,-77.151
10793,-0.6167,0.4556,-0.6489,1.038,8.850,4.517,143.756,35.645,-77.130
10803,-0.6040,0.4873,-0.6650,-0.610,9.766,4.456,143.767,35.546,-77.108
10813,-0.5845,0.5176,-0.6836,-1.282,8.301,3.540,143.762,35.447,-77.080
10823,-0.5771,0.5244,-0.6948,0.305,4.089,1.709,143.762,35.387,-77.069
10833,-0.5640,0.5356,-0.7100,2.197,0.549,0.366,143.778,35.349,-77.069
10843,-0.5483,0.5488,-0.7246,4.150,-1.038,-0.671,143.811,35.321,-77.069
10853,-0.5513,0.5439,-0.7402,5.920,-1.038,-1.465,143.871,35.294,-77.064
10863,-0.5723,0.5190,-0.7368,5.676,-0.549,-1.892,143.943,35.277,-77.047
10873,-0.5771,0.4941,-0.7207,2.869,-0.977,-2.319,143.998,35.283,-77.031
10883,-0.5845,0.4951,-0.6968,0.244,-1.221,-2.136,144.014,35.294,-77.020
10893,-0.5796,0.4888,-0.6738,0.305,-0.793,-1.404,144.020,35.305,-77.009
10903,-0.5747,0.4619,-0.6406,2.380,-0.977,-0.427,144.047,35.321,-77.014
10913,-0.5737,0.4307,-0.6123,3.906,-2.136,0.427,144.080,35.359,-77.031
10923,-0.5854,0.4434,-0.6182,4.761,-3.235,1.038,144.113,35.403,-77.064
10933,-0.5967,0.4668,-0.6382,6.348,-2.136,1.953,144.152,35.425,-77.102
10943,-0.6104,0.4731,-0.6484,8.301,1.038,2.808,144.218,35.420,-77.119
10953,-0.6196,0.4800,-0.6660,8.850,4.333,3.479,144.305,35.381,-77.124
10963,-0.6143,0.4966,-0.6865,7.690,6.409,3.662,144.382,35.310,-77.113
10973,-0.6094,0.4819,-0.6982,5.676,6.104,2.075,144.465,35.255,-77.091
10983,-0.5859,0.5107,-0.7393,2.441,4.211,-0.610,144.520,35.200,-77.058
10993,-0.5781,0.5547,-0.7710,-0.122,4.272,-2.014,144.542,35.140,-77.003
11003,-0.5679,0.5679,-0.7583,-1.099,5.310,-1.831,144.547,35.068,-76.948
11013,-0.5703,0.5430,-0.7192,-1.099,3.906,-2.380,144.553,35.019,-76.899
11023,-0.5898,0.4746,-0.6479,-1.099,-1.465,-3.845,144.547,35.068,-76.871
11033,-0.6265,0.3711,-0.5459,-1.526,-9.583,-5.127,144.536,35.261,-76.888
11043,-0.6587,0.3032,-0.4707,-3.540,-16.174,-5.127,144.492,35.563,-76.954
11053,-0.6704,0.2842,-0.4468,-5.310,-16.296,-2.686,144.421,35.870,-77.042
11063,-0.6753,0.3252,-0.4980,-4.944,-9.216,1.770,144.344,36.063,-77.124
11073,-0.6348,0.4253,-0.6108,-0.305,4.761,7.690,144.327,36.024,-77.168
11083,-0.5669,0.5376,-0.7617,9.766,20.874,12.695,144.437,35.739,-77.146
11093,-0.4956,0.6689,-0.9360,18.921,33.203,14.954,144.679,35.261,-77.058
11103,-0.4521,0.7354,-1.0376,23.682,36.438,13.977,144.981,34.728,-76.937
11113,-0.4390,0.7393,-1.0552,22.278,27.710,9.460,145.256,34.288,-76.838
11123,-0.4590,0.6997,-0.9995,14.038,8.179,1.770,145.415,34.074,-76.800
11133,-0.4902,0.6211,-0.8887,1.343,-15.320,-6.470,145.404,34.140,-76.838
11143,-0.5347,0.5039,-0.7261,-10.254,-33.875,-13.550,145.245,34.464,-76.937
11153,-0.5835,0.3696,-0.5522,-18.433,-44.617,-17.822,144.998,34.997,-77.069
11163,-0.6182,0.2891,-0.4229,-23.010,-46.509,-17.517,144.690,35.623,-77.217
11173,-0.6499,0.2524,-0.3472,-22.034,-37.720,-12.756,144.388,36.211,-77.360
11183,-0.6748,0.2544,-0.3496,-15.198,-19.592,-5.432,144.179,36.612,-77.448
11193,-0.6724,0.3101,-0.4316,-4.639,2.991,2.380,144.135,36.727,-77.448
11203,-0.6782,0.3809,-0.5518,6.897,22.278,9.033,144.256,36.579,-77.377
11213,-0.6519,0.4478,-0.6606,15.381,32.410,12.512,144.492,36.277,-77.267
11223,-0.6182,0.5229,-0.7637,19.165,31.860,12.817,144.750,35.920,-77.168
11233,-0.5884,0.5459,-0.8125,18.372,23.499,10.498,144.981,35.618,-77.108
11243,-0.5596,0.5508,-0.8213,12.268,11.780,6.348,145.124,35.425,-77.086
11253,-0.5415,0.5747,-0.8242,2.686,2.686,2.136,145.151,35.321,-77.091
11264,-0.5317,0.5718,-0.7939,-4.456,-0.610,-0.427,145.096,35.261,-77.091
11273,-0.5391,0.5527,-0.7310,-7.324,-0.488,-1.160,145.009,35.222,-77.080
11283,-0.5527,0.5063,-0.6548,-6.287,-0.793,-0.488,144.915,35.217,-77.080
11293,-0.5688,0.4575,-0.6001,-2.991,-1.526,2.380,144.844,35.233,-77.119
11303,-0.6064,0.4146,-0.5713,0.244,-1.099,7.446,144.794,35.255,-77.201
11313,-0.6255,0.3916,-0.5869,1.282,1.282,13.489,144.750,35.233,-77.327
11323,-0.6230,0.4062,-0.6436,3.174,4.272,15.991,144.734,35.145,-77.454
11333,-0.6030,0.4517,-0.7212,5.920,7.935,15.198,144.772,34.997,-77.552
11343,-0.5522,0.5415,-0.7983,8.728,11.353,13.306,144.838,34.777,-77.602
11353,-0.5137,0.5889,-0.8203,11.841,11.963,12.268,144.926,34.536,-77.640
11363,-0.5049,0.5991,-0.7998,12.207,9.338,11.475,145.003,34.316,-77.690
11373,-0.5234,0.5933,-0.7549,9.766,5.310,8.850,145.042,34.162,-77.739
11383,-0.5625,0.5498,-0.6865,7.141,2.197,5.920,145.052,34.096,-77.783
11393,-0.6094,0.4888,-0.6230,4.639,0.732,3.723,145.047,34.107,-77.816
11403,-0.6177,0.4458,-0.5967,2.075,1.221,0.916,145.047,34.146,-77.816
11413,-0.6138,0.4146,-0.5767,0.061,2.563,-1.587,145.058,34.200,-77.783
11423,-0.6050,0.4053,-0.5801,-1.709,2.197,-2.869,145.069,34.261,-77.739
11433,-0.5981,0.4116,-0.6021,-1.282,1.953,-2.258,145.080,34.310,-77.706
11443,-0.5889,0.4238,-0.6299,0.916,4.272,0.305,145.113,34.310,-77.679
11453,-0.5752,0.4653,-0.6699,2.197,7.874,2.625,145.151,34.239,-77.651
11463,-0.5625,0.5039,-0.7026,3.113,10.742,3.540,145.195,34.118,-77.607
11473,-0.5522,0.5293,-0.7173,3.540,12.329,3.296,145.245,33.981,-77.558
11483,-0.5503,0.5498,-0.7446,2.563,13.489,2.258,145.294,33.821,-77.487
11493,-0.5532,0.5840,-0.7964,0.305,14.465,0.122,145.333,33.657,-77.388
11503,-0.5474,0.5752,-0.8252,-1.282,14.709,-2.869,145.393,33.503,-77.261
11513,-0.5391,0.5332,-0.8247,-2.563,11.353,-6.042,145.459,33.398,-77.124
11523,-0.5317,0.4893,-0.8018,-4.883,5.371,-8.118,145.503,33.360,-77.009
11533,-0.5259,0.4390,-0.7466,-8.362,0.305,-8.667,145.508,33.387,-76.921
11543,-0.5269,0.3955,-0.6743,-11.902,-5.188,-8.057,145.459,33.481,-76.877
11553,-0.5547,0.3804,-0.6328,-12.695,-10.742,-6.592,145.360,33.640,-76.882
11563,-0.5815,0.3872,-0.6279,-10.071,-12.939,-4.089,145.267,33.816,-76.932
11573,-0.5854,0.4082,-0.6323,-4.761,-10.193,-1.282,145.206,33.942,-76.987
11583,-0.5820,0.4170,-0.6416,1.770,-5.859,0.854,145.212,34.019,-77.036
11593,-0.5864,0.4253,-0.6650,6.897,-2.869,1.892,145.283,34.058,-77.075
11603,-0.5898,0.4565,-0.7017,9.033,-1.099,1.648,145.377,34.069,-77.102
11613,-0.5742,0.4810,-0.7358,9.583,0.977,0.488,145.486,34.052,-77.097
11623,-0.5503,0.4790,-0.7397,8.728,2.319,-0.671,145.602,34.014,-77.075
11633,-0.5249,0.4897,-0.7368,5.005,0.916,-1.953,145.673,33.986,-77.047
11643,-0.5181,0.5366,-0.7476,0.732,-2.686,-3.540,145.673,33.981,-77.031
11653,-0.5273,0.5708,-0.7510,-1.709,-5.859,-4.639,145.635,34.008,-77.025
11663,-0.5386,0.5737,-0.7397,-2.441,-8.057,-5.920,145.574,34.063,-77.020
11673,-0.5571,0.5552,-0.7227,-3.357,-9.644,-7.935,145.519,34.162,-77.009
11683,-0.5908,0.5396,-0.7139,-5.127,-10.254,-10.498,145.464,34.299,-76.976
11693,-0.6143,0.5186,-0.7012,-7.568,-11.108,-13.733,145.404,34.475,-76.915
11703,-0.6172,0.5044,-0.6846,-10.986,-12.939,-17.822,145.327,34.695,-76.827
11713,-0.6167,0.4956,-0.6719,-14.832,-15.320,-22.461,145.228,34.964,-76.707
11723,-0.6133,0.4771,-0.6484,-18.921,-17.639,-27.405,145.113,35.283,-76.553
11733,-0.6069,0.4482,-0.6230,-23.132,-20.142,-31.921,144.976,35.662,-76.377
11743,-0.6060,0.4463,-0.6089,-27.832,-21.606,-32.898,144.789,36.052,-76.196
11753,-0.6108,0.4619,-0.5977,-30.640,-19.409,-27.222,144.542,36.392,-76.058
11764,-0.6196,0.4478,-0.5903,-27.954,-15.137,-17.883,144.289,36.656,-75.987
11773,-0.6304,0.4204,-0.5811,-20.813,-11.047,-8.606,144.086,36.837,-75.981
11783,-0.6284,0.4170,-0.5845,-12.268,-6.958,-1.160,143.948,36.947,-76.020
11793,-0.6279,0.4331,-0.6182,-2.563,-1.953,3.357,143.904,36.969,-76.069
11803,-0.6284,0.4482,-0.6519,6.836,4.456,5.310,143.976,36.920,-76.086
11813,-0.6162,0.4536,-0.6743,12.756,9.766,5.859,144.130,36.810,-76.075
11823,-0.5762,0.4380,-0.6655,14.282,12.268,5.798,144.311,36.667,-76.047
11833,-0.5439,0.4341,-0.6602,12.146,12.146,5.676,144.476,36.519,-76.014
11843,-0.5386,0.4687,-0.6772,8.118,12.146,5.798,144.580,36.354,-75.987
11853,-0.5552,0.5093,-0.6978,4.761,13.733,6.226,144.641,36.167,-75.948
11863,-0.5859,0.5342,-0.7158,3.174,16.663,6.714,144.690,35.969,-75.899
11873,-0.6064,0.5410,-0.7378,3.113,19.897,5.920,144.761,35.750,-75.817
11883,-0.6069,0.5454,-0.7607,3.723,20.630,3.296,144.860,35.535,-75.701
11893,-0.5937,0.5396,-0.7739,4.089,18.372,0.549,144.970,35.349,-75.575
11903,-0.5835,0.5283,-0.7832,4.150,13.428,-1.648,145.085,35.211,-75.465
11913,-0.5645,0.5244,-0.7886,3.479,6.287,-3.357,145.179,35.140,-75.388
11923,-0.5522,0.5039,-0.7695,1.404,-2.075,-4.822,145.228,35.140,-75.355
11933,-0.5605,0.4976,-0.7505,-1.404,-9.216,-6.470,145.228,35.217,-75.355
11943,-0.5767,0.4907,-0.7222,-3.601,-13.855,-7.690,145.184,35.359,-75.372
11953,-0.5913,0.4531,-0.6733,-4.700,-15.686,-7.935,145.129,35.535,-75.405
11963,-0.6016,0.4062,-0.6255,-5.371,-16.357,-8.301,145.080,35.750,-75.432
11973,-0.6133,0.3867,-0.5967,-6.714,-16.052,-8.301,145.014,35.980,-75.465
11983,-0.6299,0.3911,-0.5806,-7.446,-13.733,-6.714,144.937,36.189,-75.493
11993,-0.6416,0.3955,-0.5835,-6.470,-8.789,-3.784,144.866,36.343,-75.515
12003,-0.6304,0.4175,-0.5972,-4.150,-2.014,-0.427,144.822,36.403,-75.526
12013,-0.6104,0.4243,-0.6074,-0.549,4.333,2.075,144.822,36.387,-75.515
12023,-0.5972,0.4180,-0.6206,2.869,8.728,3.662,144.877,36.321,-75.493
12033,-0.5903,0.4351,-0.6587,4.578,11.658,4.578,144.965,36.205,-75.454
12043,-0.5879,0.4707,-0.7012,4.272,13.916,5.615,145.042,36.046,-75.416
12053,-0.5937,0.5083,-0.7407,3.235,15.259,6.348,145.102,35.859,-75.372
12063,-0.5903,0.5562,-0.7798,1.953,15.259,5.981,145.146,35.662,-75.322
12073,-0.5747,0.5767,-0.7910,0.916,13.550,4.517,145.168,35.475,-75.273
12083,-0.5522,0.5659,-0.7671,-0.366,9.094,1.465,145.179,35.338,-75.223
12093,-0.5337,0.5718,-0.7412,-2.869,1.343,-2.502,145.140,35.283,-75.190
12103,-0.5381,0.5581,-0.7061,-5.249,-6.775,-5.859,145.063,35.327,-75.179
12113,-0.5703,0.5112,-0.6597,-7.385,-13.611,-8.240,144.954,35.475,-75.190
12123,-0.5991,0.4697,-0.6172,-10.376,-16.968,-9.766,144.816,35.689,-75.212
12133,-0.6396,0.3755,-0.5356,-11.902,-16.357,-10.132,144.690,35.969,-75.223
12143,-0.6738,0.2744,-0.4585,-12.268,-14.709,-9.705,144.608,36.299,-75.234
12153,-0.6890,0.2407,-0.4590,-14.404,-10.742,-7.690,144.542,36.595,-75.234
12163,-0.6797,0.3345,-0.5229,-15.564,-3.540,-2.930,144.421,36.749,-75.229
12173,-0.6431,0.4849,-0.6416,-10.254,7.507,4.028,144.311,36.689,-75.212
12183,-0.5962,0.6235,-0.7798,1.770,21.301,11.597,144.322,36.392,-75.179
12193,-0.5503,0.7104,-0.8779,14.954,33.997,16.113,144.487,35.920,-75.092
12203,-0.5107,0.7051,-0.8960,26.001,37.842,14.709,144.789,35.414,-74.971
12213,-0.4932,0.6187,-0.8457,30.945,28.625,7.568,145.157,35.035,-74.844
12223,-0.5068,0.5229,-0.7900,25.879,12.146,-0.488,145.481,34.871,-74.751
12233,-0.5479,0.4653,-0.7485,10.864,-7.141,-7.568,145.629,34.942,-74.729
12243,-0.5850,0.4097,-0.7002,-6.897,-24.353,-12.695,145.574,35.222,-74.767
12253,-0.6006,0.3643,-0.6406,-20.813,-32.593,-13.916,145.371,35.607,-74.850
12264,-0.6147,0.3633,-0.5845,-26.978,-32.104,-11.963,145.069,35.997,-74.954
12273,-0.6230,0.3750,-0.5547,-21.973,-25.452,-7.568,144.800,36.315,-75.059
12283,-0.6221,0.4038,-0.5713,-9.827,-13.794,-1.648,144.657,36.486,-75.141
12293,-0.6099,0.4302,-0.6167,3.784,0.488,4.395,144.673,36.486,-75.179
12303,-0.6006,0.4531,-0.6655,16.052,12.451,8.484,144.844,36.337,-75.179
12313,-0.5981,0.4648,-0.7070,22.095,19.043,10.803,145.096,36.112,-75.152
12323,-0.5894,0.4722,-0.7412,21.790,20.935,11.475,145.355,35.854,-75.119
12333,-0.5815,0.4736,-0.7544,16.235,17.822,9.766,145.558,35.629,-75.092
12343,-0.5771,0.4717,-0.7446,7.202,10.925,6.958,145.651,35.475,-75.086
12353,-0.5732,0.4761,-0.7412,-2.869,3.113,3.784,145.629,35.403,-75.108
12363,-0.5684,0.5205,-0.7578,-11.658,-2.625,1.709,145.492,35.381,-75.141
12373,-0.5684,0.5557,-0.7554,-15.320,-4.883,1.160,145.300,35.370,-75.185
12383,-0.5649,0.5522,-0.7271,-12.451,-5.127,1.282,145.124,35.370,-75.234
12393,-0.5625,0.5205,-0.6831,-6.348,-5.554,1.160,145.003,35.387,-75.284
12403,-0.5737,0.4707,-0.6343,-0.122,-7.263,0.793,144.954,35.447,-75.344
12413,-0.6060,0.3984,-0.5776,3.540,-9.399,0.549,144.954,35.574,-75.416
12423,-0.6372,0.3452,-0.5508,2.930,-10.864,0.671,144.965,35.744,-75.498
12433,-0.6538,0.3433,-0.5669,-2.075,-9.094,1.465,144.937,35.898,-75.580
12443,-0.6470,0.4448,-0.6440,-7.935,-2.075,4.333,144.827,35.931,-75.635
12453,-0.6006,0.6060,-0.8003,-9.033,10.986,8.606,144.712,35.744,-75.646
12463,-0.5361,0.7690,-0.9604,-6.042,27.039,13.123,144.657,35.327,-75.586
12473,-0.4751,0.9292,-1.1416,-3.540,41.382,14.343,144.706,34.904,-75.438
12483,-0.4292,0.9243,-1.1167,-2.075,49.194,10.803,144.822,34.442,-75.196
12493,-0.4399,0.5718,-0.7822,-5.188,33.325,0.427,144.899,34.167,-74.971
12503,-0.5303,0.1470,-0.3828,-21.057,-8.606,-16.541,144.745,34.332,-74.866
12513,-0.6284,-0.1030,-0.1147,-51.086,-56.213,-33.813,-138.076,34.986,-74.921
12523,-0.7183,-0.0811,-0.0244,-76.782,-90.271,-43.640,-138.197,35.365,-73.790
12533,-0.7969,0.1211,-0.1172,-77.576,-98.022,-37.048,134.061,35.848,-72.653
12543,-0.8228,0.4121,-0.3931,-51.514,-73.425,-15.564,133.242,36.475,-73.169
12553,-0.7646,0.6089,-0.6978,-5.615,-20.142,13.672,133.006,36.513,-73.466
12563,-0.6626,0.7002,-0.9106,42.725,42.175,41.382,133.451,35.920,-73.433
12573,-0.5640,0.7871,-0.9717,80.505,86.060,55.542,134.434,34.926,-73.136
12583,-0.4868,0.7969,-0.9458,107.117,98.450,52.429,135.742,33.860,-72.724
12593,-0.4258,0.6592,-0.9209,117.859,85.693,40.527,137.126,32.964,-72.356
12603,-0.4175,0.5171,-0.9155,91.553,53.345,26.672,138.148,32.393,-72.153
12613,-0.4468,0.4487,-0.8872,40.527,9.338,11.292,138.538,32.250,-72.180
12623,-0.4883,0.4189,-0.7979,-8.179,-30.457,-4.822,138.356,32.509,-72.378
12633,-0.5386,0.4224,-0.6929,-44.189,-58.228,-16.235,137.741,33.052,-72.691
12643,-0.5889,0.4570,-0.6426,-65.002,-69.519,-20.142,136.884,33.701,-73.070
12653,-0.6191,0.5225,-0.6401,-59.937,-61.890,-18.188,136.093,34.277,-73.422
12663,-0.6299,0.5498,-0.6309,-40.710,-40.833,-12.756,135.555,34.662,-73.652
12673,-0.6318,0.5591,-0.6113,-18.433,-18.738,-6.104,135.308,34.838,-73.757
12683,-0.6274,0.5249,-0.5737,4.395,-0.305,0.000,135.352,34.838,-73.762
12693,-0.6270,0.4536,-0.5415,18.982,10.193,3.784,135.571,34.739,-73.707
12703,-0.6318,0.3931,-0.5273,20.996,11.841,4.333,135.818,34.623,-73.641
12713,-0.6411,0.3506,-0.5327,14.282,8.728,2.747,135.989,34.541,-73.592
12723,-0.6392,0.3584,-0.5620,4.211,4.944,0.854,136.055,34.503,-73.559
12733,-0.6284,0.3975,-0.6025,-5.188,2.441,-0.122,136.011,34.486,-73.537
12743,-0.6089,0.4766,-0.6792,-9.277,3.967,1.099,135.934,34.448,-73.515
12753,-0.5615,0.5713,-0.7588,-8.179,9.705,3.601,135.879,34.354,-73.466
12764,-0.5371,0.6104,-0.7788,-3.784,14.709,6.226,135.879,34.206,-73.394
12773,-0.5312,0.6196,-0.7676,1.770,17.334,7.629,135.945,34.025,-73.312
12783,-0.5444,0.5854,-0.7476,6.042,16.785,6.042,136.055,33.865,-73.224
12793,-0.5664,0.5166,-0.7031,6.531,11.658,2.136,136.165,33.766,-73.147
12803,-0.5825,0.4590,-0.6592,1.770,3.540,-2.502,136.208,33.755,-73.092
12813,-0.5996,0.4375,-0.6343,-4.578,-4.395,-5.249,136.170,33.827,-73.087
12823,-0.6074,0.4590,-0.6499,-7.812,-8.728,-5.737,136.077,33.926,-73.109
12833,-0.6001,0.4561,-0.6636,-6.897,-7.751,-4.028,135.994,34.014,-73.136
12843,-0.5845,0.4375,-0.6533,-3.296,-5.127,-2.075,135.945,34.063,-73.163
12853,-0.5703,0.4409,-0.6416,0.854,-1.465,0.183,135.945,34.074,-73.180
12863,-0.5767,0.4326,-0.6382,4.333,1.465,2.258,135.983,34.047,-73.185
12873,-0.5967,0.4292,-0.6284,5.127,1.709,3.723,136.027,34.008,-73.202
12883,-0.6113,0.4707,-0.6255,3.174,1.099,4.395,136.044,33.970,-73.229
12893,-0.6245,0.4839,-0.6206,2.686,2.075,4.883,136.055,33.920,-73.257
12903,-0.6177,0.5171,-0.6572,4.028,4.883,4.333,136.099,33.854,-73.251
12913,-0.5981,0.5781,-0.7271,5.554,9.705,3.235,136.181,33.761,-73.202
12923,-0.5737,0.6079,-0.8018,8.423,15.259,2.319,136.324,33.640,-73.092
12933,-0.5464,0.5874,-0.8125,8.972,18.982,0.793,136.500,33.497,-72.944
12943,-0.5303,0.4966,-0.7349,4.639,15.686,-2.258,136.626,33.398,-72.795
12953,-0.5464,0.4233,-0.6445,-3.906,2.747,-6.287,136.631,33.420,-72.719
12963,-0.5732,0.4116,-0.5986,-12.756,-12.024,-8.362,136.489,33.563,-72.740
12973,-0.6025,0.4268,-0.5894,-16.357,-22.217,-7.202,136.258,33.777,-72.861
12983,-0.6182,0.4629,-0.6113,-13.000,-22.705,-2.991,136.104,34.008,-73.026
12993,-0.6143,0.4976,-0.6694,-3.784,-11.414,1.526,136.082,34.102,-73.136
13003,-0.5947,0.5029,-0.7295,7.751,5.371,5.188,136.252,34.030,-73.136
13013,-0.5664,0.5137,-0.7798,16.479,20.508,7.629,136.577,33.799,-73.032
13023,-0.5254,0.5034,-0.7944,18.921,28.748,8.179,136.967,33.492,-72.867
13033,-0.4995,0.4902,-0.7861,15.503,25.208,6.287,137.313,33.217,-72.713
13043,-0.5093,0.5000,-0.7676,6.714,13.367,3.662,137.516,33.052,-72.636
13053,-0.5415,0.5039,-0.7422,-2.686,-1.099,1.038,137.565,33.036,-72.653
13063,-0.5723,0.4878,-0.7026,-8.728,-13.489,-0.854,137.499,33.146,-72.757
13073,-0.6001,0.4692,-0.6670,-10.315,-20.569,-2.014,137.390,33.344,-72.905
13083,-0.6250,0.4575,-0.6426,-7.141,-21.423,-2.441,137.307,33.563,-73.054
13093,-0.6274,0.4321,-0.6245,-1.770,-16.907,-1.770,137.302,33.761,-73.180
13103,-0.6118,0.4121,-0.6138,2.075,-10.620,-0.061,137.368,33.898,-73.262
13113,-0.5859,0.4004,-0.5996,3.601,-4.517,2.319,137.461,33.964,-73.323
13123,-0.5713,0.4053,-0.5894,3.601,-0.488,5.249,137.549,33.981,-73.372
13133,-0.5713,0.4355,-0.6016,3.479,2.441,8.301,137.615,33.942,-73.427
13143,-0.5674,0.4810,-0.6445,4.639,5.798,11.230,137.692,33.838,-73.477
13153,-0.5693,0.5254,-0.6953,6.287,10.437,13.550,137.785,33.668,-73.515
13163,-0.5713,0.5645,-0.7324,7.019,15.015,14.465,137.895,33.442,-73.521
13173,-0.5698,0.5850,-0.7598,6.653,17.456,13.306,138.016,33.195,-73.499
13183,-0.5610,0.5977,-0.7856,4.211,16.541,10.254,138.131,32.970,-73.460
13193,-0.5405,0.5947,-0.7891,-0.183,12.329,5.981,138.203,32.800,-73.416
13203,-0.5347,0.5889,-0.7651,-5.615,4.150,1.038,138.203,32.723,-73.389
13213,-0.5469,0.5771,-0.7383,-9.949,-5.493,-3.418,138.131,32.761,-73.405
13223,-0.5547,0.5640,-0.7144,-12.146,-13.367,-6.287,138.021,32.888,-73.455
13233,-0.5684,0.5698,-0.6953,-11.536,-18.127,-7.446,137.889,33.063,-73.531
13243,-0.5884,0.5454,-0.6636,-7.324,-18.433,-7.202,137.802,33.261,-73.619
13253,-0.6152,0.4932,-0.6143,-1.770,-16.357,-6.348,137.774,33.470,-73.691
13264,-0.6191,0.4390,-0.5654,1.892,-14.160,-5.737,137.802,33.684,-73.757
13273,-0.6187,0.3784,-0.5054,2.869,-12.878,-5.127,137.856,33.920,-73.812
13283,-0.6255,0.3394,-0.4790,1.892,-12.695,-4.028,137.906,34.173,-73.878
13293,-0.6235,0.3691,-0.5098,0.000,-9.338,-1.709,137.933,34.354,-73.938
13303,-0.6235,0.3921,-0.5459,0.549,-0.366,2.625,137.988,34.426,-73.965
13313,-0.6079,0.4722,-0.6392,3.662,11.780,7.263,138.098,34.321,-73.938
13323,-0.5811,0.6157,-0.7866,8.545,27.100,11.414,138.285,34.003,-73.823
13333,-0.5542,0.6982,-0.8896,14.709,42.175,14.771,138.582,33.519,-73.614
13343,-0.5225,0.6948,-0.9092,18.433,48.401,11.841,138.955,32.992,-73.339
13353,-0.5044,0.5562,-0.7827,17.578,38.818,4.150,139.329,32.618,-73.070
13363,-0.5303,0.3125,-0.5767,8.179,11.719,-7.080,139.614,32.640,-72.916
13373,-0.5625,0.2090,-0.4717,-11.902,-22.461,-17.944,139.653,33.074,-72.927
13383,-0.5850,0.2896,-0.5034,-30.823,-46.936,-22.705,139.367,33.695,-73.081
13393,-0.6230,0.5181,-0.6431,-36.438,-49.377,-16.663,138.900,34.206,-73.317
13403,-0.6333,0.6548,-0.7583,-25.879,-26.672,-4.700,138.549,34.420,-73.488
13414,-0.6016,0.6680,-0.7974,-3.906,5.188,5.432,138.521,34.299,-73.493
13423,-0.5552,0.6562,-0.8213,17.090,33.203,10.193,138.818,33.920,-73.323
13433,-0.5132,0.6182,-0.8413,30.396,47.119,8.118,139.334,33.442,-73.021
13443,-0.4966,0.5493,-0.8184,30.640,40.710,2.563,139.867,33.052,-72.724
13454,-0.5068,0.4717,-0.7749,18.066,19.348,-3.845,140.229,32.893,-72.543
13464,-0.5405,0.4175,-0.7227,-0.916,-5.981,-9.033,140.339,32.997,-72.504
13473,-0.5620,0.3711,-0.6660,-18.005,-27.100,-13.062,140.219,33.316,-72.592
13483,-0.5835,0.3687,-0.6177,-27.344,-40.100,-14.160,139.944,33.772,-72.768
13493,-0.6060,0.4219,-0.6206,-25.574,-41.016,-11.719,139.631,34.206,-72.977
13503,-0.6172,0.4990,-0.6924,-13.184,-27.527,-6.226,139.460,34.470,-73.136
13514,-0.6025,0.5054,-0.7358,2.014,-7.690,0.244,139.504,34.525,-73.196
13524,-0.5835,0.5044,-0.7378,13.367,7.629,5.188,139.708,34.420,-73.185
13534,-0.5581,0.4663,-0.7134,17.029,16.113,7.263,139.977,34.239,-73.125
13543,-0.5571,0.4014,-0.6582,13.855,12.573,5.249,140.229,34.129,-73.076
13553,-0.5747,0.3647,-0.6104,3.296,0.610,1.953,140.345,34.156,-73.092
13563,-0.5918,0.3940,-0.5957,-10.437,-10.498,-0.183,140.257,34.294,-73.169
13574,-0.6113,0.4819,-0.6401,-18.250,-16.235,-0.549,140.037,34.453,-73.290
13584,-0.6108,0.5859,-0.7192,-17.944,-11.292,1.648,139.812,34.514,-73.394
13594,-0.5806,0.6123,-0.7573,-10.437,0.427,4.089,139.702,34.448,-73.427
13604,-0.5532,0.6021,-0.7583,-0.732,10.986,5.615,139.730,34.283,-73.394
13614,-0.5415,0.5571,-0.7261,5.432,14.954,4.272,139.856,34.107,-73.317
13624,-0.5430,0.4966,-0.6924,5.981,8.362,0.671,139.993,34.025,-73.257
13634,-0.5605,0.4712,-0.6558,-1.892,-3.174,-2.869,140.015,34.074,-73.257
13643,-0.5894,0.4702,-0.6104,-13.367,-14.648,-5.249,139.872,34.250,-73.323
13653,-0.6299,0.4619,-0.5869,-20.081,-22.339,-7.019,139.631,34.525,-73.433
13664,-0.6411,0.5190,-0.6353,-21.545,-20.996,-7.141,139.373,34.761,-73.531
13674,-0.6128,0.6147,-0.7515,-18.188,-8.484,-5.554,139.197,34.838,-73.548
13684,-0.5801,0.6289,-0.7930,-11.658,8.118,-4.211,139.164,34.755,-73.444
13694,-0.5605,0.5889,-0.7310,-8.667,16.174,-4.944,139.197,34.623,-73.268
13704,-0.5562,0.4673,-0.6255,-9.399,10.803,-8.667,139.235,34.607,-73.103
13714,-0.5854,0.3027,-0.4438,-16.724,-6.226,-12.878,139.175,34.865,-73.032
13724,-0.6431,0.1113,-0.2456,-26.367,-30.029,-16.846,139.032,35.524,-73.120
13733,-0.6987,0.0151,-0.1406,-31.616,-52.307,-16.663,138.911,36.453,-73.383
13744,-0.7368,0.1978,-0.2896,-30.884,-57.434,-6.531,138.433,37.205,-73.790
13754,-0.7334,0.4912,-0.5688,-20.081,-33.569,11.047,138.016,37.452,-74.174
13764,-0.6680,0.7114,-0.8618,2.136,9.399,26.855,137.955,37.139,-74.350
13773,-0.5815,0.9326,-1.1152,25.940,52.490,35.156,138.285,36.513,-74.235
13783,-0.4780,1.0649,-1.2393,47.485,81.421,33.447,138.977,35.684,-73.872
13793,-0.3916,1.0073,-1.2222,64.392,85.266,22.949,139.894,34.893,-73.394
13803,-0.3540,0.8003,-1.0557,62.805,60.547,7.324,140.757,34.382,-72.988
13813,-0.3779,0.5312,-0.8369,38.208,13.306,-9.033,141.246,34.338,-72.801
13823,-0.4561,0.3896,-0.6216,-6.042,-39.856,-22.278,141.136,34.788,-72.894
13833,-0.5303,0.3271,-0.4634,-43.640,-85.449,-31.921,140.499,35.651,-73.240
13843,-0.6187,0.2998,-0.3721,-60.425,-111.816,-33.875,139.570,36.727,-73.795
13853,-0.6968,0.2832,-0.3403,-58.472,-111.694,-29.236,138.609,37.771,-74.421
13863,-0.7393,0.2856,-0.3677,-40.588,-87.830,-20.203,137.873,38.562,-74.965
13873,-0.7476,0.3130,-0.4282,-13.062,-48.767,-7.874,137.527,38.974,-75.311
13883,-0.7256,0.3613,-0.4814,13.123,-6.958,6.104,137.582,38.985,-75.427
13893,-0.6914,0.4189,-0.5347,32.898,26.062,17.456,137.950,38.677,-75.366
13903,-0.6558,0.4619,-0.5806,42.480,45.105,23.254,138.477,38.183,-75.201
13914,-0.6260,0.4687,-0.6099,40.710,49.133,23.743,139.005,37.661,-75.015
13924,-0.5928,0.5034,-0.6553,31.311,44.067,20.813,139.417,37.189,-74.844
13934,-0.5713,0.5640,-0.7378,18.494,36.072,15.808,139.691,36.815,-74.702
13943,-0.5493,0.6641,-0.8569,5.554,28.137,10.620,139.823,36.530,-74.575
13953,-0.5405,0.7319,-0.9282,-2.380,21.423,6.348,139.861,36.326,-74.465
13964,-0.5425,0.7202,-0.9097,-4.944,14.648,2.747,139.867,36.194,-74.372
13974,-0.5420,0.6543,-0.8013,-4.578,5.798,-0.793,139.856,36.156,-74.323
13984,-0.5464,0.5444,-0.6538,-2.747,-7.751,-4.639,139.818,36.249,-74.339
13993,-0.5742,0.4536,-0.5474,-0.610,-23.071,-7.690,139.746,36.475,-74.449
14004,-0.6113,0.4141,-0.4897,-1.038,-34.302,-8.179,139.614,36.788,-74.647
14014,-0.6475,0.3691,-0.4668,-0.671,-37.354,-6.653,139.466,37.117,-74.888
14024,-0.6831,0.3428,-0.4878,0.122,-29.480,-3.235,139.340,37.359,-75.097
14034,-0.6826,0.3516,-0.5205,0.854,-11.780,0.427,139.290,37.447,-75.196
14043,-0.6694,0.4038,-0.5747,3.235,8.484,3.967,139.340,37.359,-75.163
14054,-0.6377,0.5098,-0.6670,6.226,26.733,7.874,139.488,37.101,-75.020
14063,-0.6113,0.5610,-0.7266,10.376,39.795,10.803,139.730,36.727,-74.800
14074,-0.5811,0.5913,-0.7427,12.878,43.945,11.230,140.004,36.321,-74.553
14084,-0.5430,0.5918,-0.7339,12.756,38.025,8.667,140.262,35.975,-74.333
14094,-0.5278,0.5591,-0.7070,11.902,23.376,4.028,140.466,35.771,-74.185
14104,-0.5405,0.5435,-0.6943,8.667,5.981,-0.305,140.581,35.728,-74.136
14114,-0.5625,0.5381,-0.6973,4.211,-7.263,-2.747,140.609,35.799,-74.163
14124,-0.5864,0.5181,-0.7075,2.136,-13.794,-4.028,140.587,35.931,-74.235
14134,-0.6045,0.4849,-0.6943,0.000,-13.794,-3.967,140.548,36.063,-74.306
14144,-0.6055,0.4634,-0.6665,-1.648,-8.667,-3.357,140.510,36.151,-74.344
14154,-0.6079,0.4595,-0.6411,-1.953,-1.709,-2.625,140.499,36.178,-74.328
14164,-0.6084,0.4668,-0.6279,-2.502,4.333,-1.343,140.499,36.156,-74.284
14174,-0.6187,0.4648,-0.6240,-2.441,8.972,-0.061,140.515,36.085,-74.213
14184,-0.6104,0.4565,-0.6182,-3.296,12.085,0.732,140.537,35.991,-74.125
14194,-0.5967,0.4492,-0.6040,-5.127,13.306,1.404,140.537,35.876,-74.031
14204,-0.5825,0.4692,-0.6240,-5.798,13.611,2.014,140.532,35.760,-73.943
14214,-0.5825,0.4941,-0.6558,-4.822,15.076,3.296,140.532,35.623,-73.861
14224,-0.5815,0.5117,-0.6885,-2.319,17.578,4.700,140.565,35.458,-73.768
14234,-0.5840,0.5225,-0.7173,0.427,20.081,5.676,140.630,35.266,-73.663
14244,-0.5840,0.5298,-0.7339,2.441,22.339,6.348,140.718,35.052,-73.548
14254,-0.5757,0.5273,-0.7314,3.418,22.034,6.042,140.817,34.843,-73.438
14264,-0.5605,0.5063,-0.7012,3.357,17.517,4.700,140.905,34.678,-73.345
14274,-0.5459,0.4946,-0.6899,2.380,9.338,2.686,140.955,34.590,-73.301
14284,-0.5469,0.4912,-0.6958,0.854,1.099,0.610,140.966,34.574,-73.295
14294,-0.5503,0.4946,-0.7119,-0.977,-5.066,-0.366,140.977,34.596,-73.334
14304,-0.5615,0.5142,-0.7310,-3.052,-6.592,-0.305,140.960,34.623,-73.378
14314,-0.5596,0.5229,-0.7368,-3.296,-3.967,0.061,140.944,34.623,-73.411
14324,-0.5767,0.5205,-0.7065,-1.770,-0.977,0.305,140.949,34.618,-73.422
14334,-0.5854,0.4736,-0.6650,0.366,0.854,0.549,140.988,34.618,-73.422
14344,-0.5835,0.4312,-0.6299,1.404,0.854,0.183,141.053,34.640,-73.416
14354,-0.5767,0.4204,-0.6240,-0.244,-1.160,0.000,141.092,34.678,-73.422
14364,-0.5669,0.4390,-0.6504,-3.357,-3.967,-0.183,141.092,34.717,-73.455
14374,-0.5684,0.4692,-0.6704,-5.920,-6.592,0.000,141.048,34.772,-73.504
14384,-0.5640,0.5332,-0.7207,-6.409,-6.714,0.732,140.971,34.794,-73.559
14394,-0.5366,0.6792,-0.8579,-3.357,-1.526,2.136,140.927,34.706,-73.592
14404,-0.5186,0.7935,-0.9980,2.014,11.108,3.845,140.982,34.470,-73.542
14414,-0.4971,0.7983,-0.9731,6.104,24.292,4.700,141.119,34.124,-73.405
14424,-0.4966,0.6587,-0.8110,8.118,24.475,0.488,141.295,33.843,-73.224
14434,-0.5405,0.4077,-0.5518,2.869,6.958,-9.216,141.427,33.893,-73.081
14444,-0.6226,0.1514,-0.3066,-10.986,-25.085,-20.630,141.443,34.486,-73.076
14454,-0.6709,0.0376,-0.1846,-29.114,-59.509,-28.076,141.323,35.519,-73.262
14464,-0.7114,0.0493,-0.1499,-42.236,-79.895,-26.428,140.900,36.722,-73.619
14474,-0.7441,0.2090,-0.2979,-40.955,-73.242,-14.282,140.279,37.645,-74.059
14484,-0.7261,0.4990,-0.5879,-25.757,-35.034,6.104,139.807,37.930,-74.399
14494,-0.6631,0.6953,-0.8564,5.615,21.667,25.696,139.834,37.535,-74.471
14504,-0.5874,0.8560,-1.0425,35.339,68.848,37.842,140.306,36.628,-74.279
14514,-0.4761,0.9243,-1.1094,57.678,89.233,33.752,141.103,35.552,-73.889
14524,-0.3965,0.8457,-1.0620,70.313,81.421,20.325,142.053,34.607,-73.455
14534,-0.3696,0.7056,-0.9570,56.702,53.589,4.944,142.828,33.986,-73.103
14544,-0.4014,0.5962,-0.8501,21.667,11.353,-10.437,143.168,33.827,-72.922
14554,-0.4810,0.5166,-0.7368,-14.954,-36.255,-23.437,143.020,34.200,-72.955
14564,-0.5425,0.4424,-0.6196,-39.978,-75.500,-31.738,142.504,34.997,-73.196
14574,-0.6143,0.3911,-0.5269,-52.856,-93.506,-33.142,141.773,36.013,-73.570
14584,-0.6704,0.3545,-0.4683,-49.744,-88.135,-29.480,141.070,37.007,-73.960
14594,-0.7036,0.3140,-0.4263,-31.433,-66.101,-22.888,140.603,37.820,-74.257
14604,-0.7139,0.2744,-0.4023,-12.390,-37.170,-13.428,140.433,38.364,-74.427
14614,-0.6924,0.2700,-0.4077,3.601,-9.399,-2.502,140.493,38.617,-74.476
14624,-0.6758,0.3052,-0.4575,14.404,11.047,5.920,140.718,38.617,-74.443
14634,-0.6514,0.3892,-0.5308,16.785,24.475,12.390,140.960,38.414,-74.372
14644,-0.6270,0.5088,-0.6406,15.198,33.997,15.442,141.191,38.046,-74.251
14654,-0.5972,0.6074,-0.7427,13.184,39.307,14.526,141.416,37.595,-74.081
14664,-0.5669,0.6582,-0.7993,12.329,38.818,11.414,141.647,37.134,-73.889
14674,-0.5454,0.6509,-0.8198,12.512,33.447,7.019,141.883,36.733,-73.696
14684,-0.5327,0.5977,-0.8042,10.986,22.217,1.526,142.103,36.464,-73.542
14694,-0.5415,0.5547,-0.7700,4.944,5.981,-3.906,142.224,36.376,-73.455
14704,-0.5625,0.5127,-0.7158,-3.845,-9.644,-7.568,142.207,36.458,-73.455
14714,-0.5874,0.4624,-0.6523,-9.888,-20.813,-9.705,142.097,36.678,-73.521
14724,-0.6084,0.4341,-0.6060,-13.428,-26.978,-9.888,141.921,36.974,-73.625
14734,-0.6270,0.4160,-0.5649,-14.160,-26.123,-7.751,141.724,37.271,-73.751
14744,-0.6533,0.3882,-0.5278,-9.888,-18.982,-4.272,141.581,37.524,-73.861
14754,-0.6636,0.3608,-0.5156,-3.784,-7.935,-0.488,141.542,37.678,-73.916
14764,-0.6519,0.3555,-0.5293,1.526,3.784,3.235,141.603,37.711,-73.916
14774,-0.6196,0.4087,-0.6079,5.798,14.282,6.287,141.735,37.584,-73.867
14784,-0.5952,0.4585,-0.6831,7.690,23.437,9.033,141.910,37.332,-73.773
14794,-0.5825,0.4932,-0.7231,7.141,29.175,11.047,142.092,36.996,-73.658
14804,-0.5693,0.5146,-0.7505,5.493,31.128,11.292,142.256,36.639,-73.531
14814,-0.5557,0.5513,-0.7773,4.028,28.992,10.254,142.388,36.282,-73.411
14824,-0.5518,0.5703,-0.7891,3.357,23.560,9.033,142.493,35.980,-73.317
14834,-0.5542,0.5713,-0.7783,3.052,16.663,7.996,142.564,35.739,-73.273
14844,-0.5615,0.5522,-0.7461,3.052,9.155,6.958,142.603,35.579,-73.273
14854,-0.5610,0.5244,-0.7075,2.319,2.014,5.981,142.608,35.497,-73.317
14864,-0.5596,0.4932,-0.6675,2.319,-3.540,5.127,142.597,35.480,-73.394
14874,-0.5669,0.4478,-0.6255,2.502,-6.287,5.188,142.586,35.508,-73.488
14884,-0.5791,0.4102,-0.5972,0.916,-6.165,6.653,142.559,35.546,-73.603
14894,-0.5879,0.4023,-0.5977,-1.404,-3.418,8.240,142.520,35.557,-73.707
14904,-0.5977,0.4272,-0.6177,-3.418,1.282,9.521,142.465,35.519,-73.790
14914,-0.5986,0.4858,-0.6655,-3.784,5.676,9.277,142.416,35.425,-73.839
14924,-0.5879,0.5376,-0.7061,-2.258,9.094,8.911,142.383,35.283,-73.856
14934,-0.5708,0.5693,-0.7354,0.610,11.536,8.545,142.388,35.101,-73.856
14944,-0.5488,0.5981,-0.7578,3.418,11.902,7.141,142.427,34.909,-73.834
14954,-0.5415,0.6230,-0.7769,5.005,9.949,5.066,142.482,34.739,-73.806
14964,-0.5396,0.6133,-0.7817,5.676,6.409,2.625,142.542,34.612,-73.784
14974,-0.5415,0.5859,-0.7568,4.639,1.953,0.122,142.592,34.541,-73.773
14984,-0.5361,0.5435,-0.7007,1.587,-3.296,-2.014,142.603,34.547,-73.779
14994,-0.5444,0.5103,-0.6465,-2.319,-9.827,-3.723,142.553,34.634,-73.817
15004,-0.5703,0.4907,-0.6196,-5.737,-14.587,-4.333,142.449,34.788,-73.883
15014,-0.5903,0.4761,-0.6089,-7.568,-15.503,-3.906,142.322,34.958,-73.960
15024,-0.5962,0.4829,-0.6172,-8.667,-11.963,-2.625,142.196,35.090,-74.020
15034,-0.5913,0.5503,-0.6646,-7.507,-3.967,-0.549,142.092,35.118,-74.048
15044,-0.5835,0.6050,-0.7295,-2.380,6.409,1.709,142.070,35.024,-74.015
15054,-0.5669,0.6675,-0.7896,4.089,17.334,4.028,142.141,34.805,-73.922
15064,-0.5439,0.6763,-0.8086,10.193,25.269,3.906,142.306,34.508,-73.773
15074,-0.5239,0.6123,-0.7563,14.038,24.597,0.610,142.531,34.250,-73.597
15084,-0.5239,0.5127,-0.6924,12.817,13.123,-5.310,142.745,34.146,-73.449
15094,-0.5474,0.4619,-0.6421,5.310,-2.808,-10.986,142.861,34.239,-73.361
15104,-0.5825,0.4214,-0.6006,-4.211,-15.625,-13.855,142.855,34.486,-73.345
15114,-0.6143,0.3945,-0.5664,-11.230,-22.766,-13.855,142.745,34.821,-73.378
15124,-0.6357,0.3633,-0.5381,-13.977,-21.423,-11.597,142.614,35.156,-73.422
15134,-0.6416,0.3315,-0.5117,-11.963,-13.062,-8.362,142.531,35.425,-73.438
15144,-0.6304,0.3047,-0.5068,-5.127,-2.441,-4.822,142.564,35.585,-73.411
15154,-0.6270,0.2954,-0.5215,2.502,7.690,-0.061,142.701,35.634,-73.350
15164,-0.6030,0.3423,-0.5947,7.812,15.808,5.249,142.888,35.535,-73.284
15174,-0.5864,0.4258,-0.6914,11.047,21.973,9.338,143.091,35.310,-73.213
15184,-0.5620,0.5127,-0.7695,10.986,26.245,11.719,143.278,34.991,-73.136
15194,-0.5352,0.5884,-0.8267,10.132,28.198,12.695,143.437,34.618,-73.054
15204,-0.5112,0.6504,-0.8750,9.766,27.344,12.695,143.575,34.233,-72.977
15214,-0.4951,0.6738,-0.8921,9.094,22.827,10.559,143.696,33.887,-72.916
15224,-0.4814,0.6401,-0.8564,6.592,13.855,6.287,143.778,33.640,-72.878
15234,-0.4858,0.5913,-0.8052,0.061,1.221,0.854,143.778,33.547,-72.878
15244,-0.4995,0.5503,-0.7686,-10.864,-12.207,-4.028,143.646,33.613,-72.927
15254,-0.5220,0.5308,-0.7378,-23.193,-22.766,-6.714,143.372,33.794,-73.026
15265,-0.5459,0.5195,-0.6948,-33.508,-29.419,-7.874,142.965,34.063,-73.158
15274,-0.5747,0.5225,-0.6421,-38.086,-31.189,-8.179,142.482,34.365,-73.306
15284,-0.5981,0.5278,-0.5908,-33.752,-28.015,-8.240,142.037,34.662,-73.433
15294,-0.6211,0.5205,-0.5474,-22.583,-21.667,-7.751,141.707,34.926,-73.521
15304,-0.6274,0.4951,-0.5220,-8.606,-14.099,-6.836,141.548,35.140,-73.564
15314,-0.6279,0.4434,-0.5073,3.174,-7.385,-5.615,141.548,35.310,-73.564
15324,-0.6206,0.4082,-0.5249,9.460,-1.648,-4.272,141.663,35.425,-73.537
15334,-0.6133,0.3926,-0.5527,9.766,3.479,-2.563,141.823,35.480,-73.488
15344,-0.6060,0.3921,-0.5913,6.836,8.118,-0.549,141.971,35.469,-73.422
15354,-0.5928,0.4292,-0.6489,2.380,12.756,1.404,142.092,35.381,-73.334
15364,-0.5835,0.4795,-0.7070,-0.671,16.785,2.869,142.180,35.222,-73.235
15374,-0.5669,0.5293,-0.7485,-0.732,18.738,3.601,142.256,35.019,-73.130
15384,-0.5459,0.5791,-0.7827,1.404,18.616,3.845,142.339,34.794,-73.032
15394,-0.5278,0.5908,-0.7954,5.859,16.907,3.540,142.460,34.568,-72.938
15404,-0.5068,0.5669,-0.7871,9.216,11.902,2.319,142.608,34.393,-72.872
15414,-0.5015,0.5410,-0.7734,8.545,4.028,0.732,142.729,34.294,-72.850
15424,-0.5186,0.5215,-0.7524,4.272,-3.601,-0.549,142.784,34.277,-72.872
15434,-0.5474,0.4937,-0.7104,-1.038,-8.179,-1.526,142.773,34.332,-72.916
15444,-0.5825,0.4614,-0.6592,-5.310,-9.216,-1.953,142.718,34.431,-72.966
15454,-0.5981,0.4409,-0.6299,-6.592,-6.958,-2.075,142.657,34.536,-72.993
15464,-0.6030,0.4346,-0.6069,-5.005,-3.113,-1.465,142.619,34.612,-73.004
15474,-0.6006,0.4297,-0.5962,-1.465,1.160,0.122,142.625,34.645,-72.999
15484,-0.5962,0.4316,-0.5967,1.770,5.188,2.441,142.663,34.634,-72.982
15494,-0.5908,0.4429,-0.6064,3.845,7.690,4.761,142.723,34.579,-72.971
15504,-0.5825,0.4873,-0.6548,6.226,8.728,6.836,142.789,34.481,-72.971
15514,-0.5693,0.5347,-0.7153,8.911,11.292,8.545,142.883,34.321,-72.971
15524,-0.5552,0.5752,-0.7681,10.559,14.526,8.911,142.998,34.113,-72.955
15534,-0.5400,0.6030,-0.7959,10.071,16.785,7.874,143.124,33.876,-72.905
15544,-0.5278,0.6240,-0.7964,8.545,15.747,5.249,143.229,33.657,-72.845
15554,-0.5181,0.5942,-0.7583,6.897,11.475,2.502,143.317,33.497,-72.784
15564,-0.5171,0.5708,-0.7207,3.723,6.165,-0.610,143.366,33.409,-72.735
15574,-0.5303,0.5576,-0.6943,-0.122,2.014,-3.601,143.366,33.387,-72.686
15584,-0.5469,0.5405,-0.6763,-3.113,-0.061,-5.676,143.350,33.409,-72.631
15594,-0.5601,0.5142,-0.6562,-4.883,-0.427,-6.531,143.317,33.459,-72.570
15604,-0.5664,0.4785,-0.6392,-5.310,0.916,-6.592,143.300,33.508,-72.504
15614,-0.5688,0.4502,-0.6167,-5.371,2.930,-6.042,143.295,33.552,-72.422
15624,-0.5664,0.4404,-0.6099,-4.761,5.066,-4.944,143.306,33.574,-72.339
15634,-0.5674,0.4492,-0.6206,-2.625,8.484,-3.723,143.339,33.563,-72.241
15644,-0.5679,0.4629,-0.6440,0.610,12.939,-2.136,143.416,33.492,-72.131
15654,-0.5659,0.4687,-0.6665,3.784,16.357,-0.366,143.536,33.376,-72.010
15664,-0.5610,0.4727,-0.6851,5.981,18.250,1.160,143.679,33.228,-71.889
15674,-0.5562,0.4736,-0.6997,7.019,18.677,2.380,143.828,33.069,-71.779
15684,-0.5513,0.4692,-0.7134,6.470,17.761,3.418,143.970,32.904,-71.691
15694,-0.5454,0.4673,-0.7183,4.578,15.808,4.395,144.080,32.750,-71.620
15704,-0.5376,0.4668,-0.7246,2.075,13.306,5.432,144.157,32.602,-71.581
15714,-0.5308,0.4780,-0.7383,-0.183,10.742,6.836,144.190,32.459,-71.570
15724,-0.5200,0.5132,-0.7710,-0.977,9.705,8.728,144.190,32.300,-71.587
15734,-0.5020,0.5552,-0.8218,0.854,10.742,10.620,144.201,32.102,-71.614
15744,-0.4839,0.5806,-0.8555,4.883,12.390,11.475,144.256,31.866,-71.642
15754,-0.4761,0.5947,-0.8569,8.362,12.085,9.949,144.338,31.635,-71.653
15765,-0.4741,0.6006,-0.8340,9.033,6.897,6.836,144.421,31.470,-71.669
15774,-0.4814,0.5933,-0.8071,7.874,-3.296,3.479,144.459,31.421,-71.724
15784,-0.4932,0.5806,-0.7759,5.249,-14.954,0.061,144.448,31.498,-71.829
15794,-0.5083,0.5537,-0.7256,1.404,-24.353,-3.113,144.371,31.685,-71.966
15804,-0.5303,0.5044,-0.6592,-2.686,-31.311,-5.859,144.245,31.981,-72.125
15814,-0.5474,0.4678,-0.6133,-6.592,-35.217,-7.812,144.080,32.344,-72.290
15824,-0.5645,0.4507,-0.5918,-8.911,-36.194,-9.155,143.888,32.734,-72.455
15834,-0.5791,0.4541,-0.5942,-9.094,-34.912,-9.399,143.701,33.118,-72.609
15844,-0.5933,0.4663,-0.6113,-7.202,-32.227,-8.606,143.542,33.470,-72.751
15854,-0.6001,0.4683,-0.6274,-3.845,-28.687,-6.592,143.427,33.777,-72.894
15864,-0.6060,0.4702,-0.6396,-0.549,-23.926,-4.272,143.350,34.030,-73.026
15874,-0.6074,0.4707,-0.6328,2.014,-18.066,-1.892,143.311,34.222,-73.136
15884,-0.6035,0.4517,-0.6045,3.418,-12.939,-0.061,143.289,34.371,-73.229
15894,-0.5923,0.4336,-0.5903,2.625,-8.667,1.282,143.278,34.475,-73.306
15904,-0.5781,0.4282,-0.6040,0.610,-3.357,2.625,143.273,34.525,-73.356
15915,-0.5718,0.4282,-0.6230,-1.282,3.113,4.150,143.273,34.497,-73.372
15924,-0.5713,0.4438,-0.6440,-3.113,9.338,5.859,143.267,34.409,-73.361
15934,-0.5601,0.4790,-0.6768,-3.906,14.221,7.141,143.262,34.250,-73.328
15944,-0.5508,0.5835,-0.7622,-2.380,17.883,8.484,143.256,34.014,-73.279
15954,-0.5405,0.6719,-0.8486,2.869,22.278,10.193,143.306,33.701,-73.218
15964,-0.5234,0.6924,-0.8794,10.437,25.330,10.193,143.437,33.354,-73.136
15974,-0.5020,0.6729,-0.8730,15.381,23.315,7.019,143.635,33.036,-73.037
15984,-0.4907,0.6479,-0.8418,16.541,15.686,2.197,143.833,32.816,-72.944
15994,-0.4951,0.6060,-0.7954,14.099,4.333,-2.930,143.992,32.734,-72.889
16004,-0.5083,0.5371,-0.7363,7.507,-9.216,-7.507,144.069,32.816,-72.878
16014,-0.5308,0.4775,-0.6729,-2.441,-23.132,-10.925,144.020,33.063,-72.938
16024,-0.5601,0.4355,-0.6284,-11.475,-34.363,-12.817,143.855,33.448,-73.054
16034,-0.5898,0.4131,-0.5898,-17.273,-39.795,-12.878,143.613,33.898,-73.207
16044,-0.6152,0.3955,-0.5527,-18.494,-38.086,-11.536,143.350,34.354,-73.372
16054,-0.6274,0.3745,-0.5200,-15.076,-32.166,-9.155,143.130,34.761,-73.515
16064,-0.6333,0.3569,-0.4941,-8.667,-25.146,-6.042,142.982,35.112,-73.636
16074,-0.6357,0.3467,-0.4976,-1.465,-16.907,-1.831,142.927,35.365,-73.746
16084,-0.6284,0.3481,-0.5254,4.700,-7.263,2.930,142.965,35.502,-73.828
16094,-0.6196,0.3740,-0.5747,8.118,2.563,7.141,143.053,35.508,-73.878
16104,-0.5928,0.4487,-0.6597,8.972,12.024,11.047,143.157,35.354,-73.900
16114,-0.5591,0.5649,-0.7837,8.667,20.569,13.916,143.262,35.057,-73.883
16124,-0.5322,0.6523,-0.8716,8.972,26.611,14.526,143.383,34.673,-73.828
16134,-0.5107,0.6929,-0.9082,9.155,28.259,13.062,143.509,34.261,-73.751
16144,-0.4902,0.6841,-0.8955,8.301,22.949,8.545,143.624,33.926,-73.669
16154,-0.4834,0.6348,-0.8350,5.798,10.864,2.502,143.707,33.728,-73.619
16164,-0.5000,0.5981,-0.7852,1.404,-4.456,-3.235,143.707,33.717,-73.619
16174,-0.5215,0.5654,-0.7490,-3.662,-17.761,-7.263,143.635,33.854,-73.674
16184,-0.5493,0.5269,-0.7021,-7.690,-28.015,-8.972,143.492,34.113,-73.790
16194,-0.5815,0.4687,-0.6299,-10.254,-32.715,-9.705,143.311,34.453,-73.927
16204,-0.6001,0.4038,-0.5571,-10.681,-33.081,-9.644,143.130,34.838,-74.075
16214,-0.6182,0.3745,-0.5195,-9.521,-30.640,-8.484,142.965,35.222,-74.213
16224,-0.6333,0.3657,-0.5122,-6.531,-24.048,-4.944,142.844,35.541,-74.344
16234,-0.6406,0.3740,-0.5205,-2.319,-13.855,0.305,142.773,35.744,-74.449
16244,-0.6421,0.3833,-0.5381,2.319,-1.953,5.066,142.778,35.815,-74.515
16254,-0.6328,0.3936,-0.5625,6.592,9.155,8.789,142.855,35.760,-74.531
16265,-0.6128,0.4180,-0.6035,9.033,18.005,11.597,142.982,35.590,-74.515
16274,-0.5737,0.4687,-0.6709,9.338,23.804,13.306,143.119,35.316,-74.465
16284,-0.5547,0.5352,-0.7368,8.362,27.283,14.282,143.245,34.975,-74.405
16294,-0.5439,0.5859,-0.7871,7.507,28.748,14.587,143.361,34.601,-74.339
16304,-0.5327,0.6357,-0.8398,6.958,27.466,13.062,143.465,34.228,-74.268
16314,-0.5161,0.6724,-0.8779,6.226,22.156,8.850,143.558,33.909,-74.196
16324,-0.5034,0.6753,-0.8823,5.371,11.902,3.113,143.630,33.701,-74.141
16334,-0.5029,0.6597,-0.8564,2.991,-1.648,-2.502,143.652,33.640,-74.125
16344,-0.5078,0.6167,-0.7920,-0.366,-15.442,-7.324,143.613,33.739,-74.163
16354,-0.5210,0.5522,-0.7061,-3.479,-27.405,-11.047,143.514,33.986,-74.251
16364,-0.5498,0.4966,-0.6387,-6.348,-34.973,-12.939,143.366,34.343,-74.377
16374,-0.5776,0.4551,-0.5937,-7.507,-35.461,-12.390,143.207,34.728,-74.515
16384,-0.6118,0.4077,-0.5444,-6.226,-29.541,-10.681,143.086,35.101,-74.625
16394,-0.6372,0.3672,-0.4888,-4.700,-20.325,-8.179,142.998,35.420,-74.696
16404,-0.6528,0.3452,-0.4644,-2.136,-10.498,-5.005,142.965,35.662,-74.724
16414,-0.6553,0.3457,-0.4673,1.465,-0.549,-0.671,142.987,35.799,-74.724
16424,-0.6445,0.3604,-0.4971,5.127,8.789,3.967,143.064,35.815,-74.696
16434,-0.6230,0.3916,-0.5596,8.301,17.334,7.629,143.196,35.695,-74.641
16444,-0.5908,0.4692,-0.6694,9.644,24.963,10.498,143.355,35.436,-74.559
