elapsed_ms,acc_x_g,acc_y_g,acc_z_g,gyro_x_dps,gyro_y_dps,gyro_z_dps,angle_x_deg,angle_y_deg,angle_z_deg
0,-0.4189,0.5000,-0.8076,-1.770,-13.733,-3.723,149.562,23.659,-104.854
10,-0.4258,0.4800,-0.7812,3.845,-15.869,-4.150,149.568,23.829,-104.903
20,-0.4351,0.4580,-0.7695,9.460,-15.686,-3.845,149.639,24.005,-104.952
30,-0.4399,0.4365,-0.7534,12.756,-13.916,-2.686,149.749,24.164,-105.002
40,-0.4365,0.4287,-0.7368,14.648,-11.292,-1.587,149.875,24.296,-105.051
50,-0.4321,0.4189,-0.7285,16.052,-8.789,-0.732,150.018,24.406,-105.090
60,-0.4316,0.4248,-0.7427,15.930,-6.592,-0.305,150.161,24.489,-105.128
70,-0.4282,0.4429,-0.7734,14.404,-3.662,-0.244,150.298,24.532,-105.145
80,-0.4219,0.4614,-0.8032,12.695,0.183,-0.671,150.425,24.532,-105.134
90,-0.4136,0.4570,-0.7939,11.230,3.174,-1.343,150.546,24.510,-105.106
100,-0.4253,0.4194,-0.7388,8.728,1.831,-2.136,150.645,24.527,-105.073
110,-0.4360,0.3848,-0.6924,3.418,-3.296,-2.747,150.683,24.609,-105.068
120,-0.4404,0.3711,-0.7041,-1.709,-8.972,-3.601,150.677,24.747,-105.079
130,-0.4321,0.4102,-0.7671,-4.700,-10.864,-3.845,150.634,24.879,-105.101
140,-0.4282,0.4551,-0.8486,-3.174,-6.226,-1.892,150.606,24.933,-105.117
150,-0.4194,0.4814,-0.9038,1.648,5.310,1.892,150.639,24.851,-105.106
160,-0.3989,0.4985,-0.9165,5.371,17.395,5.249,150.721,24.637,-105.062
170,-0.3726,0.5015,-0.8989,4.944,23.376,6.775,150.798,24.351,-105.002
180,-0.3628,0.4990,-0.8970,1.038,22.705,4.944,150.837,24.082,-104.930
190,-0.3657,0.4995,-0.8818,-3.662,16.541,0.793,150.831,23.895,-104.848
200,-0.3955,0.4678,-0.8105,-8.911,5.676,-2.869,150.754,23.851,-104.793
210,-0.4087,0.4395,-0.7544,-12.817,-6.836,-4.822,150.623,23.945,-104.782
220,-0.4194,0.4248,-0.7500,-13.794,-16.785,-5.981,150.474,24.137,-104.815
230,-0.4277,0.4341,-0.7812,-10.864,-19.287,-5.798,150.348,24.346,-104.865
241,-0.4316,0.4448,-0.8291,-4.944,-13.123,-3.418,150.298,24.483,-104.903
250,-0.4292,0.4561,-0.8599,1.160,-1.709,0.549,150.320,24.483,-104.914
260,-0.4229,0.4541,-0.8594,4.028,7.874,3.723,150.386,24.390,-104.908
270,-0.4102,0.4604,-0.8296,2.869,11.963,5.188,150.425,24.252,-104.892
280,-0.4028,0.4648,-0.8032,0.244,8.423,4.211,150.425,24.153,-104.886
290,-0.4067,0.4863,-0.7988,-2.258,0.854,1.648,150.381,24.131,-104.897
300,-0.4175,0.4956,-0.7886,-3.296,-6.897,-0.244,150.309,24.192,-104.936
310,-0.4297,0.4995,-0.7847,-2.136,-11.475,-1.099,150.238,24.302,-104.985
320,-0.4429,0.5073,-0.7900,0.916,-10.925,-1.526,150.200,24.412,-105.029
330,-0.4521,0.5059,-0.7861,4.761,-6.653,-1.404,150.205,24.489,-105.051
340,-0.4497,0.5039,-0.7837,8.179,-1.160,-1.343,150.260,24.516,-105.046
350,-0.4360,0.5063,-0.7998,9.888,3.540,-1.770,150.348,24.500,-105.013
360,-0.4224,0.5083,-0.8232,9.460,6.592,-2.625,150.447,24.445,-104.952
370,-0.4082,0.5127,-0.8530,7.202,8.057,-3.723,150.535,24.373,-104.870
380,-0.3867,0.5186,-0.8818,4.028,8.179,-5.127,150.601,24.291,-104.777
390,-0.3711,0.5249,-0.9038,1.404,6.653,-7.019,150.650,24.219,-104.672
400,-0.3672,0.5244,-0.9170,0.122,3.723,-9.033,150.694,24.181,-104.568
410,-0.3687,0.5107,-0.9194,0.122,-0.366,-10.559,150.738,24.186,-104.469
420,-0.3765,0.4839,-0.9087,0.916,-4.578,-11.353,150.793,24.241,-104.387
430,-0.3940,0.4438,-0.8730,0.732,-9.277,-11.475,150.848,24.351,-104.326
440,-0.4077,0.4077,-0.8271,-1.221,-14.343,-11.292,150.875,24.527,-104.293
450,-0.4146,0.3687,-0.7676,-4.639,-19.043,-10.803,150.864,24.758,-104.293
460,-0.4272,0.3350,-0.7222,-8.301,-22.339,-10.010,150.815,25.032,-104.315
470,-0.4385,0.3237,-0.7031,-11.047,-22.705,-8.911,150.732,25.318,-104.354
480,-0.4521,0.3286,-0.6934,-12.146,-19.714,-6.409,150.634,25.571,-104.398
490,-0.4570,0.3428,-0.6968,-10.559,-12.939,-2.563,150.540,25.746,-104.442
500,-0.4585,0.3540,-0.7119,-5.432,-3.540,1.831,150.502,25.807,-104.480
510,-0.4590,0.3647,-0.7368,0.854,5.737,5.737,150.535,25.763,-104.502
520,-0.4565,0.3975,-0.7710,4.883,12.939,8.972,150.595,25.631,-104.518
530,-0.4487,0.4336,-0.8232,6.287,17.944,11.536,150.667,25.422,-104.535
540,-0.4307,0.4663,-0.8809,4.700,20.752,12.451,150.727,25.159,-104.540
550,-0.4087,0.5068,-0.9165,0.488,20.447,10.803,150.738,24.895,-104.535
560,-0.3911,0.5474,-0.9414,-4.089,15.808,6.653,150.694,24.675,-104.513
570,-0.3926,0.5835,-0.9692,-7.996,6.409,0.671,150.612,24.560,-104.485
580,-0.4009,0.6201,-0.9932,-11.169,-6.348,-5.737,150.485,24.587,-104.464
590,-0.4053,0.6348,-0.9810,-12.878,-20.630,-11.414,150.320,24.763,-104.469
600,-0.4165,0.6274,-0.9521,-12.756,-35.095,-16.113,150.145,25.098,-104.502
610,-0.4219,0.6138,-0.9194,-12.695,-47.241,-19.470,149.947,25.554,-104.579
620,-0.4307,0.5674,-0.8730,-14.343,-56.213,-20.996,149.727,26.115,-104.689
630,-0.4438,0.5293,-0.8057,-18.250,-60.791,-21.545,149.458,26.724,-104.821
640,-0.4541,0.4736,-0.7129,-21.729,-61.157,-21.973,149.150,27.367,-104.958
650,-0.4634,0.3970,-0.5859,-23.743,-59.570,-22.522,148.826,28.048,-105.084
660,-0.4663,0.3286,-0.4854,-25.757,-56.458,-22.339,148.491,28.746,-105.200
670,-0.4927,0.2959,-0.4263,-27.771,-50.720,-20.508,148.134,29.427,-105.304
681,-0.5195,0.2798,-0.3945,-25.513,-40.588,-16.418,147.805,30.031,-105.386
690,-0.5420,0.2861,-0.3989,-17.578,-25.146,-9.583,147.563,30.471,-105.447
701,-0.5518,0.2798,-0.4282,-5.005,-4.211,-0.671,147.497,30.679,-105.469
710,-0.5430,0.2705,-0.4819,6.714,17.578,7.629,147.612,30.630,-105.436
720,-0.5195,0.2979,-0.5654,14.282,36.865,14.526,147.843,30.328,-105.348
730,-0.5020,0.3530,-0.6743,15.991,49.561,19.043,148.107,29.844,-105.227
741,-0.4897,0.4448,-0.7964,12.817,54.077,21.057,148.321,29.262,-105.106
751,-0.4761,0.5288,-0.9131,10.498,52.917,20.996,148.497,28.658,-104.991
761,-0.4673,0.5908,-0.9917,8.484,48.401,19.043,148.640,28.087,-104.886
770,-0.4512,0.6382,-1.0400,6.409,41.138,15.686,148.744,27.576,-104.799
780,-0.4355,0.6528,-1.0552,5.127,31.494,11.169,148.821,27.169,-104.722
791,-0.4219,0.6313,-1.0293,5.005,20.874,6.470,148.898,26.884,-104.661
801,-0.4126,0.5796,-0.9673,4.639,8.240,1.465,148.958,26.735,-104.628
811,-0.4141,0.5400,-0.9058,2.930,-5.188,-2.991,148.991,26.746,-104.628
821,-0.4341,0.5034,-0.8540,0.854,-16.296,-5.554,148.986,26.878,-104.667
831,-0.4585,0.4727,-0.7964,-0.854,-22.217,-5.920,148.947,27.092,-104.738
841,-0.4766,0.4609,-0.7373,-1.038,-23.071,-5.127,148.892,27.328,-104.826
851,-0.4912,0.4448,-0.7041,1.587,-18.433,-4.456,148.865,27.543,-104.886
861,-0.4922,0.4316,-0.6792,4.517,-10.193,-4.211,148.887,27.691,-104.908
871,-0.4751,0.4092,-0.6577,6.897,-1.221,-3.967,148.964,27.757,-104.875
881,-0.4517,0.3921,-0.6592,7.996,5.676,-3.479,149.073,27.757,-104.810
891,-0.4414,0.3975,-0.6846,6.287,9.705,-2.197,149.183,27.697,-104.733
901,-0.4336,0.4082,-0.7051,3.418,12.329,0.244,149.255,27.598,-104.661
911,-0.4092,0.4282,-0.7173,0.244,13.367,2.686,149.277,27.455,-104.612
921,-0.4111,0.4575,-0.7495,-2.563,13.123,4.883,149.260,27.290,-104.584
931,-0.4331,0.4829,-0.7837,-3.845,13.306,6.287,149.222,27.125,-104.568
941,-0.4487,0.5068,-0.8057,-4.395,14.160,6.592,149.172,26.955,-104.551
951,-0.4575,0.5322,-0.8379,-3.601,14.832,6.104,149.128,26.774,-104.524
961,-0.4692,0.5410,-0.8633,-1.099,14.893,4.883,149.123,26.603,-104.485
971,-0.4707,0.5376,-0.8813,2.014,14.709,3.296,149.161,26.439,-104.431
981,-0.4424,0.5029,-0.8438,4.639,12.756,1.465,149.233,26.301,-104.376
991,-0.4199,0.4561,-0.8037,3.601,7.080,-0.549,149.304,26.224,-104.326
1001,-0.4316,0.4473,-0.8062,0.183,0.671,-2.441,149.332,26.224,-104.299
1011,-0.4473,0.4404,-0.8047,-3.540,-1.953,-2.869,149.326,26.252,-104.282
1021,-0.4507,0.4492,-0.7896,-6.653,-0.122,-2.014,149.277,26.263,-104.266
1031,-0.4556,0.4648,-0.7905,-7.446,3.174,-1.099,149.222,26.241,-104.238
1041,-0.4551,0.4771,-0.8101,-5.188,7.019,-0.427,149.189,26.180,-104.194
1051,-0.4399,0.4854,-0.8247,-1.953,11.597,0.366,149.200,26.065,-104.128
1061,-0.4233,0.4614,-0.8198,0.549,15.259,0.977,149.255,25.911,-104.052
1071,-0.4204,0.4326,-0.8042,0.061,15.076,0.610,149.315,25.768,-103.975
1081,-0.4165,0.4150,-0.7954,-4.517,12.451,-0.183,149.332,25.659,-103.903
1091,-0.4106,0.3936,-0.7661,-11.963,8.057,-0.671,149.271,25.587,-103.848
1101,-0.4229,0.3647,-0.7090,-20.386,2.930,-0.671,149.112,25.593,-103.826
1111,-0.4536,0.3584,-0.6694,-27.588,-0.488,0.061,148.865,25.648,-103.826
1121,-0.4834,0.4443,-0.6982,-32.349,10.620,5.554,148.535,25.576,-103.821
1131,-0.4775,0.4854,-0.7471,-29.419,25.879,8.728,148.260,25.340,-103.755
1141,-0.4517,0.5361,-0.7861,-27.466,43.640,10.071,148.030,24.917,-103.596
1151,-0.4150,0.5713,-0.8120,-24.719,57.129,8.850,147.859,24.373,-103.343
1161,-0.3765,0.6060,-0.8613,-21.973,63.965,6.836,147.739,23.752,-103.035
1171,-0.3418,0.6411,-0.9082,-20.691,63.599,4.822,147.634,23.126,-102.706
1181,-0.3228,0.6616,-0.9331,-20.020,56.030,2.319,147.524,22.571,-102.404
1191,-0.3164,0.6738,-0.9443,-18.677,43.335,-1.709,147.409,22.148,-102.134
1201,-0.3135,0.6714,-0.9292,-15.625,28.381,-5.981,147.305,21.874,-101.915
1211,-0.3296,0.6377,-0.8833,-10.071,12.512,-9.033,147.228,21.769,-101.761
1221,-0.3535,0.5464,-0.7983,-3.723,-3.601,-10.986,147.206,21.841,-101.684
1231,-0.3765,0.4497,-0.7061,-0.183,-20.081,-12.695,147.206,22.099,-101.684
1241,-0.3936,0.4019,-0.6655,0.061,-31.982,-13.550,147.200,22.484,-101.750
1251,-0.4165,0.3916,-0.6553,-0.793,-34.424,-11.353,147.173,22.896,-101.849
1261,-0.4248,0.4292,-0.6807,-1.160,-26.489,-7.080,147.134,23.203,-101.937
1271,-0.4082,0.4731,-0.7310,1.221,-11.353,-2.747,147.129,23.329,-101.981
1281,-0.3999,0.5010,-0.7666,4.639,3.662,0.366,147.178,23.302,-101.964
1291,-0.3872,0.5298,-0.8018,6.531,15.686,2.075,147.266,23.143,-101.887
1301,-0.3784,0.5415,-0.8262,5.676,21.729,1.648,147.360,22.934,-101.777
1311,-0.3760,0.5278,-0.8330,3.601,20.752,0.366,147.442,22.736,-101.656
1321,-0.3740,0.5190,-0.8262,0.610,14.404,-1.282,147.491,22.604,-101.563
1331,-0.3765,0.5234,-0.8135,-3.052,5.127,-2.319,147.475,22.560,-101.508
1341,-0.3828,0.5396,-0.8203,-5.127,-2.808,-2.136,147.420,22.582,-101.508
1351,-0.3804,0.5562,-0.8403,-4.028,-6.836,-1.343,147.360,22.632,-101.536
1361,-0.3794,0.5684,-0.8477,-0.183,-6.470,-1.038,147.338,22.665,-101.563
1371,-0.3813,0.5625,-0.8491,5.005,-4.639,-1.648,147.371,22.692,-101.574
1381,-0.3838,0.5376,-0.8330,8.423,-3.906,-3.174,147.453,22.725,-101.569
1391,-0.3745,0.4985,-0.7910,8.789,-5.554,-4.944,147.552,22.791,-101.558
1401,-0.3794,0.4360,-0.7334,5.676,-11.475,-6.531,147.623,22.934,-101.563
1411,-0.3931,0.4121,-0.7031,0.854,-18.921,-7.324,147.634,23.159,-101.607
1421,-0.4072,0.4424,-0.7275,-3.662,-22.461,-6.226,147.579,23.401,-101.678
1431,-0.4146,0.4985,-0.7744,-5.249,-18.555,-2.991,147.491,23.582,-101.761
1441,-0.4165,0.5220,-0.8076,-2.441,-7.935,0.916,147.442,23.643,-101.816
1451,-0.3984,0.5562,-0.8525,3.540,4.089,3.296,147.469,23.566,-101.821
1461,-0.3872,0.5586,-0.8706,8.240,11.047,3.052,147.563,23.428,-101.783
1471,-0.3887,0.5366,-0.8516,9.277,10.010,1.404,147.673,23.313,-101.739
1481,-0.3853,0.5010,-0.8213,8.118,3.662,-0.671,147.777,23.275,-101.711
1491,-0.3965,0.4624,-0.7900,4.333,-5.249,-2.930,147.838,23.335,-101.717
1501,-0.4062,0.4395,-0.7739,-0.061,-13.489,-4.517,147.849,23.483,-101.750
1511,-0.4185,0.4556,-0.7739,-3.601,-17.883,-3.906,147.799,23.670,-101.821
1521,-0.4160,0.4878,-0.8022,-3.418,-15.198,-1.221,147.744,23.802,-101.898
1531,-0.3916,0.5293,-0.8716,0.793,-6.836,1.526,147.744,23.824,-101.953
1541,-0.3706,0.5430,-0.9141,6.531,2.625,2.869,147.816,23.741,-101.964
1551,-0.3638,0.5469,-0.8848,7.874,6.714,2.930,147.903,23.626,-101.948
1561,-0.3721,0.5054,-0.7856,5.310,1.770,1.892,147.947,23.582,-101.959
1571,-0.4053,0.4517,-0.6807,-0.732,-11.353,-0.366,147.903,23.708,-102.019
1581,-0.4277,0.4448,-0.6411,-8.240,-23.376,-2.014,147.744,23.967,-102.134
1591,-0.4395,0.4604,-0.6738,-11.414,-29.297,-1.526,147.546,24.263,-102.294
1601,-0.4541,0.4995,-0.7222,-10.864,-24.841,0.916,147.354,24.494,-102.448
1611,-0.4409,0.5264,-0.7544,-4.578,-11.108,3.479,147.250,24.582,-102.546
1621,-0.4106,0.5317,-0.7690,4.211,3.235,5.127,147.261,24.516,-102.574
1631,-0.3979,0.5220,-0.7715,10.803,10.803,5.615,147.360,24.384,-102.563
1641,-0.4019,0.5132,-0.7739,12.268,10.864,5.310,147.475,24.252,-102.546
1651,-0.4121,0.5029,-0.7817,9.583,6.653,4.700,147.568,24.170,-102.552
1661,-0.4170,0.5205,-0.7930,3.784,1.343,4.150,147.585,24.131,-102.579
1671,-0.4224,0.5371,-0.7954,0.610,-2.563,3.845,147.552,24.131,-102.634
1681,-0.4131,0.5630,-0.8247,0.793,-2.930,3.662,147.519,24.120,-102.684
1691,-0.3994,0.5776,-0.8730,3.967,0.916,2.991,147.541,24.060,-102.706
1701,-0.3911,0.5957,-0.8955,6.836,5.249,2.014,147.601,23.967,-102.695
1711,-0.3760,0.5723,-0.8652,7.568,6.409,1.282,147.678,23.868,-102.667
1721,-0.3809,0.5464,-0.8335,6.897,1.648,-0.244,147.739,23.824,-102.656
1731,-0.4019,0.5088,-0.7891,3.479,-5.859,-2.563,147.766,23.879,-102.667
1741,-0.4302,0.4629,-0.7212,-0.549,-13.306,-4.456,147.739,24.044,-102.700
1751,-0.4482,0.4287,-0.6831,-3.296,-18.311,-5.188,147.684,24.274,-102.761
1761,-0.4517,0.4287,-0.6870,-3.845,-18.555,-4.211,147.623,24.500,-102.832
1771,-0.4385,0.4409,-0.7256,-1.526,-12.878,-2.136,147.596,24.648,-102.887
1781,-0.4102,0.4785,-0.7920,2.258,-2.441,0.000,147.623,24.659,-102.903
1791,-0.3896,0.4961,-0.8120,6.653,8.118,1.953,147.711,24.560,-102.870
1801,-0.3809,0.5142,-0.8042,8.423,13.306,3.479,147.810,24.401,-102.827
1811,-0.3838,0.4922,-0.7803,7.996,11.230,3.723,147.903,24.269,-102.794
1821,-0.4048,0.4727,-0.7495,4.150,4.150,2.808,147.942,24.225,-102.799
1831,-0.4253,0.4634,-0.7285,-0.671,-3.235,1.831,147.914,24.258,-102.832
1841,-0.4380,0.4692,-0.7437,-2.991,-6.775,1.831,147.859,24.329,-102.887
1851,-0.4321,0.5068,-0.8091,-2.625,-4.211,2.380,147.816,24.351,-102.936
1861,-0.4131,0.5522,-0.8770,0.305,3.784,3.052,147.816,24.280,-102.942
1871,-0.3921,0.5806,-0.8901,3.906,10.864,3.479,147.859,24.131,-102.909
1881,-0.3765,0.5757,-0.8691,5.798,11.292,3.174,147.920,23.972,-102.876
1891,-0.3877,0.5366,-0.8110,5.676,4.333,1.282,147.964,23.912,-102.859
1901,-0.4150,0.4956,-0.7534,2.502,-6.104,-1.160,147.969,23.972,-102.887
1911,-0.4336,0.4668,-0.7168,-1.038,-14.038,-2.869,147.925,24.137,-102.942
1921,-0.4424,0.4473,-0.7100,-2.808,-16.174,-2.747,147.870,24.324,-103.008
1931,-0.4409,0.4526,-0.7261,-2.441,-10.925,-1.343,147.827,24.450,-103.063
1941,-0.4355,0.4590,-0.7456,0.244,-1.282,0.244,147.827,24.483,-103.068
1951,-0.4199,0.4785,-0.7871,4.272,8.057,1.282,147.892,24.406,-103.035
1961,-0.3940,0.4976,-0.8301,7.446,13.672,1.892,148.002,24.258,-102.975
1971,-0.3813,0.5059,-0.8481,7.507,13.855,2.258,148.118,24.099,-102.914
1981,-0.3862,0.5142,-0.8452,4.822,9.277,1.892,148.184,23.983,-102.876
1991,-0.3979,0.5234,-0.8325,1.160,3.052,1.282,148.195,23.934,-102.870
2001,-0.4048,0.5200,-0.8032,-1.709,-2.625,0.854,148.156,23.939,-102.892
2011,-0.4136,0.5039,-0.7744,-1.770,-6.287,0.549,148.112,23.994,-102.936
2021,-0.4165,0.4985,-0.7720,0.610,-6.836,0.183,148.090,24.055,-102.980
2031,-0.4160,0.5034,-0.7954,3.723,-4.150,0.305,148.112,24.082,-103.002
2041,-0.4023,0.5063,-0.8262,5.981,0.244,0.488,148.173,24.066,-103.008
2051,-0.3955,0.5103,-0.8379,5.859,3.052,0.000,148.244,24.016,-102.991
2061,-0.3970,0.5269,-0.8418,3.723,2.441,-0.916,148.288,23.978,-102.969
2071,-0.4028,0.5156,-0.8130,1.282,-1.221,-1.709,148.293,23.983,-102.958
2081,-0.4126,0.4907,-0.7559,-0.854,-7.080,-2.625,148.266,24.066,-102.975
2091,-0.4229,0.4687,-0.7158,-1.404,-12.329,-3.113,148.222,24.208,-103.019
2101,-0.4312,0.4702,-0.7158,0.122,-14.282,-2.686,148.184,24.368,-103.074
2111,-0.4326,0.4727,-0.7480,2.258,-10.193,-1.160,148.184,24.478,-103.123
2121,-0.4258,0.4814,-0.7656,3.418,-1.648,0.366,148.206,24.494,-103.134
2131,-0.4194,0.4829,-0.7759,3.784,6.348,0.916,148.255,24.439,-103.107
2141,-0.4146,0.4883,-0.7886,2.991,10.681,0.916,148.304,24.340,-103.052
2151,-0.4131,0.4878,-0.7974,1.282,10.864,0.488,148.348,24.241,-102.997
2161,-0.4170,0.5044,-0.8125,-0.671,8.728,0.183,148.359,24.159,-102.947
2171,-0.4126,0.5220,-0.8325,-0.671,6.592,0.488,148.359,24.088,-102.914
2181,-0.4087,0.5259,-0.8491,1.953,5.554,0.977,148.387,24.016,-102.892
2191,-0.4004,0.5342,-0.8691,5.920,5.249,1.099,148.453,23.939,-102.870
2201,-0.3955,0.5513,-0.8994,10.803,5.127,1.038,148.568,23.857,-102.854
2211,-0.3843,0.5464,-0.9180,15.198,5.188,1.221,148.733,23.769,-102.832
2221,-0.3706,0.5229,-0.8936,16.602,3.296,0.549,148.914,23.698,-102.821
2231,-0.3623,0.4961,-0.8374,13.367,-2.014,-1.038,149.046,23.687,-102.821
2242,-0.3843,0.4707,-0.7988,7.874,-9.216,-2.747,149.123,23.769,-102.849
2251,-0.3994,0.4570,-0.7622,1.282,-14.221,-3.845,149.117,23.912,-102.892
2261,-0.4019,0.4531,-0.7144,-4.089,-16.541,-4.089,149.035,24.088,-102.947
2271,-0.4111,0.4556,-0.6797,-6.775,-16.785,-3.540,148.914,24.274,-103.008
2281,-0.4224,0.4854,-0.6851,-5.615,-14.038,-2.441,148.793,24.428,-103.063
2291,-0.4316,0.4858,-0.6943,-1.587,-7.874,-1.343,148.727,24.532,-103.096
2301,-0.4375,0.4775,-0.7100,2.502,-0.610,-0.977,148.727,24.565,-103.090
2311,-0.4326,0.4570,-0.7427,4.578,5.615,-1.465,148.788,24.543,-103.046
2321,-0.4321,0.4336,-0.7725,2.991,8.789,-2.258,148.870,24.494,-102.975
2331,-0.4302,0.4194,-0.7817,-2.502,8.545,-2.686,148.903,24.450,-102.898
2341,-0.4243,0.4326,-0.7852,-8.911,6.042,-2.258,148.859,24.417,-102.843
2351,-0.4199,0.4512,-0.7622,-12.268,2.747,-0.610,148.755,24.412,-102.821
2361,-0.4204,0.4609,-0.7549,-9.521,0.854,1.526,148.651,24.406,-102.832
2371,-0.4229,0.4570,-0.7671,-2.808,2.136,3.235,148.623,24.379,-102.849
2381,-0.4204,0.4648,-0.8271,3.784,5.859,4.089,148.678,24.302,-102.854
2391,-0.4067,0.4888,-0.9111,7.507,11.292,3.845,148.793,24.159,-102.827
2401,-0.4004,0.5034,-0.9521,6.409,14.954,3.113,148.914,23.978,-102.772
2411,-0.3867,0.5122,-0.9487,1.770,13.916,2.075,148.986,23.807,-102.711
2421,-0.3760,0.5049,-0.8984,-2.441,7.507,0.671,148.991,23.703,-102.678
2431,-0.3862,0.4937,-0.8237,-6.592,-3.235,-0.488,148.920,23.714,-102.689
2441,-0.4058,0.4883,-0.7676,-7.751,-13.367,-1.282,148.804,23.840,-102.755
2451,-0.4248,0.4717,-0.7388,-4.578,-19.043,-1.526,148.711,24.027,-102.849
2461,-0.4219,0.4800,-0.7515,0.366,-18.555,-0.854,148.661,24.203,-102.942
2471,-0.4136,0.4824,-0.7759,5.859,-12.451,0.488,148.683,24.307,-103.019
2481,-0.4067,0.4810,-0.7847,9.033,-5.066,1.831,148.749,24.335,-103.063
2491,-0.4058,0.4858,-0.7866,8.667,-0.305,2.441,148.821,24.318,-103.090
2501,-0.4209,0.4731,-0.7681,5.432,0.122,2.380,148.865,24.313,-103.112
2511,-0.4453,0.4790,-0.7612,0.305,-2.380,1.892,148.843,24.346,-103.145
2521,-0.4570,0.4873,-0.7559,-3.479,-3.601,1.465,148.777,24.395,-103.178
2531,-0.4507,0.4927,-0.7524,-4.578,-2.441,1.343,148.700,24.428,-103.206
2541,-0.4165,0.5195,-0.7930,-2.991,1.038,0.793,148.651,24.412,-103.206
2551,-0.3691,0.5366,-0.8340,0.488,5.432,-0.061,148.656,24.324,-103.173
2561,-0.3643,0.5449,-0.8423,2.869,7.202,-0.732,148.689,24.225,-103.123
2571,-0.3730,0.5356,-0.8325,3.113,5.249,-1.282,148.722,24.148,-103.085
2581,-0.3872,0.5166,-0.8037,1.221,0.244,-1.709,148.727,24.137,-103.068
2591,-0.4150,0.4980,-0.7632,-1.770,-5.188,-2.075,148.683,24.192,-103.074
2601,-0.4326,0.4829,-0.7397,-3.296,-8.362,-2.014,148.623,24.291,-103.107
2611,-0.4351,0.4839,-0.7588,-2.380,-7.507,-1.648,148.579,24.379,-103.134
2621,-0.4277,0.4902,-0.7861,-0.183,-2.747,-1.526,148.568,24.417,-103.134
2631,-0.4219,0.4907,-0.7988,1.831,2.136,-2.075,148.601,24.406,-103.101
2641,-0.4160,0.4868,-0.8022,2.441,4.150,-2.991,148.645,24.384,-103.052
2651,-0.4180,0.4761,-0.7871,1.099,3.479,-3.479,148.678,24.373,-102.997
2661,-0.4243,0.4629,-0.7651,-1.160,1.831,-3.418,148.689,24.384,-102.953
2671,-0.4272,0.4502,-0.7432,-3.235,0.732,-2.686,148.667,24.406,-102.925
2681,-0.4292,0.4448,-0.7485,-4.700,1.038,-1.587,148.634,24.428,-102.903
2691,-0.4263,0.4805,-0.8311,-5.920,4.700,-0.671,148.607,24.384,-102.870
2701,-0.4253,0.5601,-0.9375,-7.080,12.451,0.549,148.568,24.247,-102.805
2711,-0.4028,0.6387,-1.0112,-7.751,21.179,3.052,148.519,23.994,-102.711
2721,-0.3721,0.6431,-0.9917,-6.775,25.513,4.456,148.480,23.692,-102.607
2731,-0.3813,0.5312,-0.8169,-7.263,18.738,1.831,148.425,23.500,-102.519
2742,-0.4067,0.3926,-0.6299,-14.099,-1.282,-4.333,148.299,23.588,-102.486
2751,-0.4316,0.3184,-0.5278,-26.123,-22.339,-7.629,148.024,23.928,-102.546
2761,-0.4590,0.3452,-0.4785,-34.546,-34.058,-5.615,147.585,24.384,-102.689
2771,-0.4683,0.4102,-0.5239,-28.503,-29.602,0.427,147.173,24.736,-102.865
2781,-0.4399,0.4482,-0.6313,-10.681,-9.949,6.958,146.992,24.829,-102.991
2791,-0.4097,0.4961,-0.7524,8.728,15.503,11.536,147.068,24.637,-103.002
2801,-0.3696,0.5430,-0.8682,22.766,35.034,13.855,147.338,24.225,-102.925
2811,-0.3384,0.5820,-0.9883,28.564,42.969,13.672,147.689,23.714,-102.794
2821,-0.3330,0.5850,-1.0498,28.015,40.710,12.207,148.052,23.225,-102.667
2831,-0.3398,0.5713,-1.0352,20.386,28.992,9.155,148.315,22.863,-102.585
2841,-0.3506,0.5552,-0.9937,9.583,10.376,4.089,148.442,22.698,-102.568
2851,-0.3745,0.5435,-0.9478,-1.343,-10.498,-1.648,148.431,22.758,-102.612
2861,-0.3867,0.5161,-0.8911,-8.728,-27.100,-6.042,148.321,22.994,-102.706
2871,-0.3965,0.4810,-0.8335,-9.705,-36.377,-8.240,148.189,23.335,-102.838
2881,-0.4014,0.4663,-0.8037,-7.202,-36.438,-8.240,148.085,23.687,-102.975
2891,-0.4062,0.4424,-0.7817,-2.502,-28.992,-6.714,148.041,23.972,-103.079
2901,-0.4067,0.4277,-0.7500,0.732,-18.982,-4.456,148.046,24.170,-103.145
2911,-0.4019,0.4170,-0.7114,2.258,-10.620,-1.648,148.063,24.285,-103.195
2921,-0.4102,0.3916,-0.6675,2.563,-6.653,0.488,148.085,24.373,-103.239
2931,-0.4233,0.3921,-0.6523,0.244,-6.104,1.709,148.079,24.461,-103.288
2941,-0.4409,0.4028,-0.6577,-3.052,-5.737,3.296,148.024,24.549,-103.354
2951,-0.4497,0.4346,-0.6875,-4.700,-2.869,5.554,147.947,24.587,-103.420
2961,-0.4502,0.4780,-0.7417,-3.479,2.686,7.935,147.881,24.549,-103.480
2971,-0.4346,0.5312,-0.8003,0.183,9.277,9.827,147.854,24.417,-103.513
2981,-0.4185,0.5767,-0.8330,4.639,14.526,11.169,147.865,24.214,-103.535
2991,-0.4058,0.5957,-0.8267,9.460,15.686,11.475,147.914,24.000,-103.552
3001,-0.4038,0.5693,-0.7876,13.123,12.146,10.071,147.997,23.829,-103.574
3011,-0.4043,0.5269,-0.7422,13.550,5.188,7.568,148.085,23.747,-103.612
3021,-0.4023,0.4946,-0.7134,10.559,-0.916,5.981,148.134,23.736,-103.672
3031,-0.3979,0.4951,-0.7275,6.531,-3.235,6.104,148.145,23.736,-103.749
3041,-0.4136,0.5103,-0.7583,4.272,-0.305,7.385,148.140,23.703,-103.821
3051,-0.4141,0.5366,-0.7866,5.371,5.981,7.812,148.156,23.615,-103.859
3061,-0.4082,0.5493,-0.8188,9.460,12.573,7.324,148.228,23.456,-103.854
3071,-0.4004,0.5591,-0.8330,13.611,16.113,5.920,148.359,23.275,-103.815
3081,-0.3921,0.5391,-0.8413,16.235,15.137,4.089,148.530,23.104,-103.766
3091,-0.3896,0.5249,-0.8525,16.296,11.230,2.197,148.705,22.983,-103.722
3101,-0.3823,0.4917,-0.8462,13.306,7.019,0.732,148.859,22.901,-103.689
3111,-0.3730,0.4614,-0.8457,8.057,3.174,-1.038,148.975,22.863,-103.661
3121,-0.3740,0.4585,-0.8501,2.258,0.366,-2.441,149.035,22.857,-103.640
3131,-0.3735,0.4561,-0.8496,-2.686,-1.221,-2.686,149.041,22.863,-103.618
3141,-0.3784,0.4644,-0.8516,-5.737,-1.526,-2.197,149.013,22.874,-103.607
3151,-0.3784,0.4902,-0.8672,-5.188,-0.977,-1.526,148.980,22.868,-103.601
3161,-0.3823,0.4888,-0.8809,-1.465,0.061,-0.854,148.991,22.852,-103.590
3171,-0.3799,0.4800,-0.8818,1.587,0.427,-0.122,149.030,22.824,-103.585
3181,-0.3745,0.4673,-0.8809,2.869,0.305,0.366,149.090,22.797,-103.590
3191,-0.3672,0.4482,-0.8843,2.625,-1.038,0.366,149.150,22.780,-103.596
3201,-0.3604,0.4385,-0.8784,0.549,-4.700,-0.183,149.189,22.797,-103.623
3211,-0.3730,0.4429,-0.8594,-2.686,-10.315,-0.366,149.178,22.868,-103.678
3221,-0.3843,0.4419,-0.8413,-5.188,-14.648,-0.061,149.128,22.983,-103.755
3231,-0.3926,0.4438,-0.8062,-6.836,-16.663,0.427,149.041,23.126,-103.854
3242,-0.3994,0.4551,-0.7612,-7.080,-17.761,1.282,148.931,23.280,-103.964
3251,-0.4136,0.4673,-0.7329,-5.371,-17.578,2.380,148.815,23.439,-104.084
3261,-0.4214,0.4619,-0.7207,-1.953,-15.625,3.540,148.733,23.582,-104.205
3271,-0.4219,0.4648,-0.7144,0.122,-12.146,4.517,148.672,23.687,-104.321
3281,-0.4150,0.4702,-0.7119,0.610,-7.874,5.249,148.618,23.752,-104.414
3291,-0.4014,0.4780,-0.7222,0.000,-3.845,5.676,148.568,23.763,-104.485
3301,-0.3921,0.4868,-0.7446,-0.977,-0.732,5.554,148.519,23.741,-104.540
3311,-0.3950,0.5044,-0.7637,-1.587,1.160,5.432,148.464,23.703,-104.584
3321,-0.4048,0.5156,-0.7847,-1.343,2.197,5.554,148.420,23.648,-104.628
3331,-0.4038,0.5229,-0.8066,-0.732,2.380,5.798,148.381,23.593,-104.667
3341,-0.4058,0.5283,-0.8198,-0.671,1.953,5.737,148.348,23.533,-104.711
3351,-0.4048,0.5327,-0.8276,-0.977,1.282,5.188,148.310,23.483,-104.749
3361,-0.4004,0.5381,-0.8315,-1.770,0.488,4.272,148.266,23.445,-104.788
3371,-0.3882,0.5591,-0.8506,-2.136,-0.061,3.540,148.217,23.401,-104.821
3381,-0.3784,0.5610,-0.8540,-0.732,-0.610,2.991,148.184,23.357,-104.848
3391,-0.3833,0.5493,-0.8340,1.343,-2.563,2.075,148.167,23.346,-104.886
3401,-0.3999,0.5269,-0.8022,2.991,-5.066,0.732,148.167,23.379,-104.919
3411,-0.4053,0.4912,-0.7632,2.747,-7.935,-0.671,148.167,23.456,-104.958
3421,-0.4194,0.4722,-0.7280,0.549,-10.193,-1.709,148.145,23.571,-105.002
3431,-0.4282,0.4702,-0.7173,-1.770,-10.559,-2.197,148.101,23.703,-105.040
3441,-0.4287,0.4922,-0.7510,-3.601,-7.019,-2.136,148.041,23.791,-105.062
3451,-0.4214,0.5352,-0.7910,-4.272,0.549,-1.648,147.986,23.796,-105.046
3461,-0.4121,0.5459,-0.8018,-1.953,9.155,-0.977,147.969,23.714,-104.985
3471,-0.3911,0.5308,-0.7778,0.427,15.686,-0.366,147.986,23.577,-104.886
3481,-0.3784,0.4902,-0.7466,1.160,17.395,-0.977,148.030,23.428,-104.777
3491,-0.3853,0.4526,-0.6987,-1.038,13.794,-2.197,148.046,23.340,-104.678
3501,-0.4126,0.4155,-0.6553,-4.211,5.981,-2.563,148.024,23.346,-104.623
3511,-0.4263,0.4258,-0.6675,-6.775,-0.122,-1.465,147.958,23.406,-104.606
3521,-0.4312,0.4517,-0.7163,-5.737,-0.916,0.549,147.898,23.445,-104.617
3531,-0.4199,0.5010,-0.7974,-1.038,5.066,2.808,147.887,23.395,-104.617
3541,-0.3940,0.5552,-0.8833,7.080,16.235,4.211,147.975,23.209,-104.562
3551,-0.3716,0.5771,-0.9443,15.320,26.489,4.456,148.178,22.917,-104.447
3561,-0.3511,0.5718,-0.9644,18.677,30.090,2.991,148.431,22.593,-104.304
3571,-0.3301,0.5293,-0.9561,16.724,24.231,-0.122,148.672,22.330,-104.167
3581,-0.3315,0.5146,-0.9536,9.094,10.925,-3.845,148.832,22.209,-104.068
3591,-0.3486,0.5146,-0.9517,-0.305,-2.380,-6.226,148.870,22.214,-104.024
3601,-0.3618,0.5146,-0.9175,-7.507,-12.207,-6.042,148.810,22.319,-104.035
3611,-0.3721,0.5039,-0.8564,-10.010,-17.151,-5.066,148.700,22.473,-104.084
3621,-0.3979,0.4790,-0.7666,-7.324,-18.311,-4.761,148.601,22.665,-104.145
3631,-0.4224,0.4199,-0.6899,-1.221,-18.188,-5.127,148.568,22.890,-104.200
3641,-0.4365,0.3862,-0.6567,3.784,-16.968,-4.883,148.596,23.132,-104.249
3651,-0.4316,0.3857,-0.6660,5.737,-13.550,-2.930,148.645,23.324,-104.299
3661,-0.4141,0.3809,-0.6987,5.920,-8.118,-0.305,148.716,23.434,-104.343
3671,-0.3960,0.3999,-0.7495,4.517,-0.854,2.258,148.782,23.445,-104.370
3681,-0.3760,0.4458,-0.8042,-0.061,6.775,4.211,148.804,23.351,-104.370
3691,-0.3525,0.5195,-0.8721,-5.981,12.207,5.493,148.755,23.181,-104.354
3701,-0.3437,0.5806,-0.9038,-9.521,13.977,5.615,148.656,22.978,-104.326
3711,-0.3521,0.6035,-0.8940,-8.728,10.864,4.272,148.552,22.819,-104.304
3721,-0.3818,0.6069,-0.8691,-6.592,3.967,1.953,148.453,22.742,-104.299
3731,-0.4102,0.5928,-0.8374,-5.371,-3.906,-0.671,148.354,22.769,-104.315
3742,-0.4214,0.5630,-0.7993,-4.822,-10.010,-3.418,148.260,22.879,-104.343
3751,-0.4189,0.5303,-0.7729,-4.211,-13.794,-5.920,148.184,23.038,-104.365
3761,-0.4019,0.5015,-0.7935,-3.052,-14.282,-7.812,148.145,23.198,-104.376
3771,-0.3945,0.4907,-0.8184,-3.418,-11.536,-8.423,148.123,23.329,-104.365
3781,-0.3828,0.4946,-0.8032,-5.737,-8.362,-7.507,148.079,23.428,-104.343
3791,-0.3755,0.5142,-0.8096,-8.545,-6.897,-5.798,147.997,23.494,-104.326
3801,-0.3955,0.5010,-0.7803,-10.498,-6.165,-5.249,147.892,23.571,-104.315
3811,-0.4224,0.4399,-0.6904,-11.841,-8.728,-5.798,147.772,23.714,-104.310
3821,-0.4321,0.3999,-0.6572,-13.550,-14.404,-6.104,147.634,23.923,-104.337
3831,-0.4175,0.4658,-0.8340,-16.357,-16.052,-5.798,147.486,24.082,-104.381
3841,-0.4170,0.5806,-1.0181,-21.362,-5.981,-2.686,147.299,24.104,-104.392
3851,-0.3818,0.7251,-1.1182,-25.574,8.362,0.244,147.063,23.950,-104.343
3861,-0.3403,0.7319,-0.9980,-24.170,17.395,-0.061,146.832,23.719,-104.238
3871,-0.3716,0.5640,-0.7646,-16.418,6.958,-5.615,146.673,23.670,-104.145
3881,-0.4072,0.4229,-0.5967,-11.902,-17.212,-14.343,146.547,23.945,-104.117
3891,-0.4497,0.3291,-0.4922,-12.695,-41.504,-20.386,146.393,24.532,-104.183
3901,-0.5029,0.2661,-0.4146,-9.399,-58.716,-19.714,146.239,25.334,-104.359
3911,-0.5215,0.2397,-0.4155,0.549,-63.538,-13.550,146.168,26.153,-104.623
3921,-0.4854,0.2944,-0.5547,13.367,-52.673,-3.784,146.228,26.724,-104.919
3931,-0.4502,0.3604,-0.7031,23.560,-24.414,7.874,146.431,26.911,-105.145
3941,-0.4302,0.4468,-0.8125,27.649,10.559,17.456,146.706,26.708,-105.238
3951,-0.4009,0.5405,-0.8960,27.466,39.795,22.095,147.019,26.202,-105.200
3961,-0.3760,0.5859,-0.9302,23.499,52.368,20.935,147.310,25.582,-105.079
3971,-0.3735,0.5825,-0.9219,18.616,46.265,15.991,147.557,25.043,-104.952
3981,-0.3691,0.5669,-0.8892,9.888,27.222,9.827,147.678,24.703,-104.881
3991,-0.3940,0.5874,-0.8955,-0.244,1.648,3.906,147.656,24.626,-104.908
4001,-0.4170,0.5967,-0.9082,-6.653,-19.836,0.183,147.535,24.752,-105.029
4011,-0.4189,0.6260,-0.9438,-6.104,-29.480,-0.244,147.393,24.955,-105.200
4021,-0.4165,0.6343,-0.9478,-1.160,-27.893,-0.244,147.299,25.142,-105.364
4031,-0.4233,0.6045,-0.8652,3.906,-21.484,-0.793,147.266,25.291,-105.485
4041,-0.4185,0.5420,-0.7402,7.080,-16.357,-3.174,147.272,25.439,-105.551
4051,-0.4224,0.4448,-0.5767,7.141,-17.395,-6.592,147.277,25.664,-105.595
4061,-0.4531,0.3491,-0.4648,3.418,-24.292,-9.216,147.239,26.038,-105.656
4071,-0.4839,0.3237,-0.4434,-2.930,-29.358,-8.484,147.134,26.483,-105.754
4081,-0.5039,0.4004,-0.5854,-9.583,-24.597,-4.944,146.981,26.801,-105.853
4091,-0.5068,0.5322,-0.8096,-10.620,-3.845,0.916,146.860,26.840,-105.886
4101,-0.4995,0.5977,-0.8970,-6.226,22.705,7.080,146.821,26.592,-105.815
4111,-0.4312,0.6436,-0.8950,-0.366,41.321,10.132,146.865,26.142,-105.656
4121,-0.3682,0.5913,-0.8228,5.798,43.213,7.202,146.981,25.686,-105.458
4131,-0.3735,0.5400,-0.7661,6.348,27.100,1.770,147.085,25.411,-105.315
4141,-0.4087,0.5420,-0.7744,2.686,5.859,-4.028,147.123,25.362,-105.238
4151,-0.4238,0.5146,-0.7773,-1.221,-10.925,-7.812,147.107,25.488,-105.233
4161,-0.4395,0.4927,-0.7896,-2.686,-18.188,-8.301,147.074,25.681,-105.266
4171,-0.4429,0.5107,-0.7998,-2.136,-14.099,-7.019,147.052,25.829,-105.287
4181,-0.4321,0.5205,-0.8193,2.502,-3.906,-4.761,147.090,25.867,-105.266
4192,-0.4243,0.5122,-0.8462,7.507,6.531,-2.502,147.206,25.801,-105.200
4202,-0.4238,0.5000,-0.8384,10.010,14.038,-0.977,147.365,25.664,-105.106
4212,-0.4141,0.4707,-0.7876,8.789,14.832,-1.038,147.513,25.532,-105.007
4221,-0.4189,0.4434,-0.7402,4.456,8.057,-2.319,147.601,25.483,-104.941
4232,-0.4326,0.4443,-0.7271,-1.282,-0.732,-3.723,147.612,25.521,-104.908
4242,-0.4297,0.4414,-0.7173,-6.287,-6.226,-3.906,147.557,25.609,-104.908
4251,-0.4346,0.4351,-0.7207,-8.057,-7.935,-3.174,147.486,25.708,-104.925
4262,-0.4336,0.4663,-0.7812,-7.141,-3.357,-1.282,147.426,25.741,-104.936
4272,-0.4355,0.5117,-0.8135,-4.517,5.005,1.709,147.393,25.681,-104.919
4282,-0.4336,0.5537,-0.8354,-0.183,12.878,4.211,147.398,25.527,-104.881
4292,-0.4307,0.5684,-0.8467,4.028,17.761,5.188,147.448,25.323,-104.826
4302,-0.4194,0.5449,-0.8149,6.653,16.724,3.967,147.530,25.142,-104.766
4312,-0.4028,0.4980,-0.7686,6.470,10.071,1.099,147.612,25.038,-104.716
4322,-0.3906,0.4692,-0.7285,2.502,0.854,-1.465,147.640,25.032,-104.694
4332,-0.4048,0.4604,-0.7339,-3.113,-5.127,-1.648,147.601,25.082,-104.711
4342,-0.4272,0.4736,-0.7529,-7.385,-5.798,-0.183,147.519,25.137,-104.744
4352,-0.4365,0.5303,-0.8154,-8.301,-0.793,1.648,147.426,25.126,-104.766
4362,-0.4395,0.6040,-0.9282,-5.249,10.071,3.296,147.376,24.988,-104.733
4372,-0.4365,0.6387,-0.9688,-3.540,22.095,5.127,147.371,24.736,-104.650
4382,-0.4023,0.5688,-0.8340,-2.808,24.719,3.540,147.376,24.478,-104.535
4392,-0.3926,0.4189,-0.6450,-3.723,10.498,-2.625,147.371,24.434,-104.447
4402,-0.4175,0.3677,-0.5850,-8.667,-12.817,-9.033,147.288,24.653,-104.442
4412,-0.4478,0.3555,-0.6011,-13.550,-31.738,-10.986,147.140,25.054,-104.529
4422,-0.4517,0.4756,-0.7954,-13.977,-33.020,-6.714,146.964,25.378,-104.667
4432,-0.4233,0.5952,-1.0425,-7.385,-8.606,-0.061,146.904,25.389,-104.716
4442,-0.4087,0.6460,-1.0669,-0.732,22.766,5.737,146.953,25.098,-104.634
4452,-0.3486,0.6416,-0.9424,3.235,40.710,6.165,147.052,24.642,-104.442
4462,-0.3437,0.5063,-0.7354,5.737,34.668,0.000,147.178,24.324,-104.238
4472,-0.4233,0.4048,-0.5757,0.305,4.822,-8.484,147.200,24.395,-104.128
4482,-0.4868,0.3843,-0.5303,-8.850,-27.161,-14.587,147.068,24.818,-104.156
4492,-0.5112,0.3540,-0.5430,-11.597,-47.424,-15.015,146.893,25.428,-104.299
4502,-0.5049,0.3916,-0.6401,-8.667,-44.434,-10.071,146.750,25.939,-104.474
4512,-0.4629,0.4434,-0.7334,-2.686,-20.142,-1.465,146.695,26.136,-104.584
4522,-0.4209,0.5195,-0.8271,3.845,8.667,6.714,146.744,25.999,-104.595
4532,-0.3740,0.6270,-0.9268,8.789,34.363,11.963,146.865,25.576,-104.496
4542,-0.3540,0.6812,-0.9727,12.146,46.997,11.902,147.041,25.032,-104.321
4552,-0.3579,0.6685,-0.9390,14.221,42.419,8.118,147.233,24.560,-104.145
4562,-0.3711,0.6021,-0.8574,10.986,25.391,1.709,147.371,24.285,-104.008
4572,-0.3931,0.4932,-0.7417,3.540,-1.404,-6.104,147.420,24.329,-103.958
4582,-0.4160,0.4316,-0.6938,-6.592,-28.381,-12.085,147.338,24.653,-104.013
4592,-0.4463,0.4219,-0.7231,-13.550,-42.542,-12.634,147.173,25.109,-104.150
4602,-0.4687,0.5083,-0.8364,-15.808,-35.034,-9.460,146.975,25.455,-104.271
4612,-0.4614,0.5518,-0.8989,-9.033,-11.414,-5.005,146.893,25.560,-104.293
4622,-0.4287,0.5732,-0.8618,0.854,11.902,-0.977,146.931,25.439,-104.216
4632,-0.3857,0.5283,-0.7666,9.644,22.949,-0.061,147.068,25.219,-104.073
4642,-0.3950,0.4141,-0.6440,12.817,14.343,-3.113,147.250,25.137,-103.958
4652,-0.4229,0.3589,-0.5825,5.859,-3.967,-6.226,147.332,25.269,-103.925
4662,-0.4507,0.3276,-0.5923,-1.953,-19.592,-6.958,147.327,25.554,-103.980
4672,-0.4619,0.3740,-0.7046,-7.751,-24.170,-3.296,147.250,25.818,-104.090
4682,-0.4473,0.4985,-0.8696,-9.949,-10.681,2.808,147.140,25.873,-104.183
4692,-0.4175,0.6055,-1.0005,-5.249,10.986,8.301,147.101,25.675,-104.194
4702,-0.3730,0.6865,-1.0601,-1.038,30.884,11.230,147.123,25.269,-104.112
4712,-0.3594,0.6714,-0.9819,2.625,37.048,8.545,147.195,24.829,-103.969
4722,-0.3784,0.5894,-0.8350,1.953,24.109,1.892,147.244,24.571,-103.843
4732,-0.4180,0.4844,-0.6958,-4.883,-1.892,-6.714,147.195,24.642,-103.793
4742,-0.4497,0.4028,-0.6064,-14.587,-29.541,-13.672,147.025,25.032,-103.843
4752,-0.4678,0.3818,-0.6348,-21.484,-46.692,-15.381,146.772,25.571,-103.980
4762,-0.4824,0.4487,-0.7705,-24.536,-42.908,-12.207,146.497,26.021,-104.128
4772,-0.4497,0.6226,-1.0190,-21.973,-16.418,-5.737,146.277,26.136,-104.172
4782,-0.4043,0.7930,-1.1143,-17.212,20.508,0.916,146.146,25.867,-104.057
4792,-0.3428,0.7935,-0.9688,-8.850,42.480,1.831,146.107,25.400,-103.810
4802,-0.3462,0.5967,-0.6851,0.916,34.424,-6.104,146.157,25.104,-103.541
4812,-0.4282,0.4131,-0.4814,-1.404,1.953,-18.127,146.151,25.280,-103.365
4822,-0.4873,0.3096,-0.3857,-13.550,-32.043,-26.428,145.986,25.884,-103.315
4832,-0.5400,0.2095,-0.3174,-21.240,-53.711,-26.001,145.745,26.757,-103.414
4842,-0.5752,0.2100,-0.3325,-21.973,-55.420,-16.479,145.459,27.592,-103.607
4852,-0.5391,0.3071,-0.4819,-13.306,-29.846,-1.282,145.261,27.999,-103.788
4862,-0.4756,0.4292,-0.6895,3.662,11.719,13.733,145.305,27.850,-103.843
4872,-0.4424,0.5630,-0.8613,17.761,49.683,24.353,145.536,27.263,-103.749
4882,-0.3877,0.7334,-1.0415,27.527,72.021,26.550,145.898,26.422,-103.535
4892,-0.3208,0.7998,-1.1440,34.607,75.317,21.545,146.354,25.549,-103.260
4902,-0.3022,0.7539,-1.1274,34.241,58.594,11.963,146.799,24.873,-103.013
4912,-0.3135,0.6118,-0.9780,23.254,25.391,0.000,147.101,24.565,-102.859
4922,-0.3750,0.4775,-0.7905,3.784,-16.968,-12.573,147.167,24.747,-102.843
4932,-0.4243,0.3872,-0.6665,-11.841,-51.025,-19.836,147.025,25.323,-102.964
4942,-0.4873,0.3799,-0.6313,-17.273,-67.078,-19.714,146.777,26.065,-103.189
4952,-0.5063,0.4580,-0.7505,-12.390,-58.289,-12.329,146.569,26.653,-103.425
4962,-0.4570,0.5352,-0.9092,-1.587,-25.391,-2.258,146.525,26.845,-103.563
4972,-0.4297,0.5937,-0.8955,7.141,11.414,5.676,146.602,26.669,-103.546
4982,-0.3848,0.6011,-0.7671,13.428,32.349,8.362,146.739,26.307,-103.425
4992,-0.3628,0.4326,-0.6074,21.118,28.564,4.578,146.986,26.038,-103.293
5002,-0.4194,0.2993,-0.5029,15.320,3.784,-2.380,147.178,26.115,-103.250
5012,-0.4712,0.2764,-0.4897,-1.404,-24.109,-6.897,147.167,26.494,-103.326
5022,-0.5059,0.3867,-0.6709,-13.733,-36.926,-5.554,146.981,26.895,-103.502
5032,-0.5044,0.5801,-0.9512,-18.555,-18.066,1.160,146.761,27.015,-103.623
5042,-0.4727,0.6650,-1.0063,-12.268,13.550,9.033,146.635,26.796,-103.623
5052,-0.3940,0.7026,-0.9741,-3.540,35.278,12.207,146.624,26.351,-103.519
5062,-0.3091,0.7012,-0.9609,5.493,40.710,9.155,146.722,25.851,-103.354
5072,-0.3330,0.6167,-0.8726,6.531,25.269,2.075,146.827,25.543,-103.222
5082,-0.4121,0.5698,-0.7896,-2.197,-1.282,-6.226,146.799,25.560,-103.173
5092,-0.4443,0.5000,-0.6646,-11.169,-23.743,-12.268,146.635,25.851,-103.200
5102,-0.4883,0.3755,-0.5000,-13.245,-40.466,-14.282,146.420,26.384,-103.315
5112,-0.5352,0.2515,-0.4111,-7.935,-47.729,-13.855,146.288,27.070,-103.480
5122,-0.5479,0.1982,-0.4727,0.916,-39.368,-9.094,146.338,27.642,-103.640
5132,-0.5259,0.3052,-0.7026,5.981,-12.146,1.526,146.459,27.801,-103.733
5142,-0.4863,0.4966,-1.0098,9.521,28.015,14.954,146.640,27.444,-103.700
5152,-0.3916,0.7256,-1.1768,6.042,62.988,25.146,146.788,26.669,-103.546
5162,-0.2793,0.8359,-1.1377,5.859,73.792,25.635,146.909,25.768,-103.332
5172,-0.2373,0.7773,-0.9858,9.583,55.908,17.029,147.030,25.060,-103.151
5182,-0.2993,0.6167,-0.7812,7.568,15.564,1.892,147.085,24.840,-103.074
5192,-0.3916,0.4673,-0.6230,-0.916,-32.227,-13.062,147.003,25.192,-103.145
5202,-0.4922,0.3608,-0.5610,-6.165,-69.031,-21.545,146.854,25.994,-103.365
5212,-0.5596,0.2676,-0.5220,-5.859,-80.872,-20.569,146.728,26.955,-103.661
5222,-0.5708,0.2627,-0.5488,-0.549,-67.444,-12.390,146.662,27.740,-103.964
5232,-0.5405,0.3242,-0.6250,6.042,-34.119,0.244,146.684,28.120,-104.178
5242,-0.4873,0.4072,-0.7183,12.207,6.897,12.756,146.805,28.021,-104.255
5252,-0.4312,0.5474,-0.8511,13.733,43.152,20.325,146.981,27.504,-104.178
5262,-0.3789,0.6577,-0.9482,11.230,65.613,20.752,147.167,26.752,-103.975
5272,-0.3457,0.7012,-0.9253,4.456,70.251,16.113,147.294,25.977,-103.700
5282,-0.3423,0.6904,-0.8799,-2.319,58.777,7.935,147.338,25.356,-103.420
5292,-0.3530,0.6270,-0.8364,-8.240,36.316,-1.648,147.310,24.999,-103.189
5302,-0.3838,0.5527,-0.7837,-12.878,9.338,-8.301,147.217,24.933,-103.052
5312,-0.4126,0.5034,-0.7344,-14.404,-13.550,-9.888,147.063,25.098,-103.041
5322,-0.4434,0.4834,-0.7129,-7.629,-28.809,-8.057,146.931,25.400,-103.140
5332,-0.4565,0.5015,-0.7295,3.357,-30.701,-3.906,146.887,25.697,-103.288
5342,-0.4482,0.5044,-0.7285,15.015,-16.968,0.427,146.975,25.845,-103.398
5352,-0.4395,0.4873,-0.6792,22.156,1.770,1.953,147.162,25.840,-103.403
5362,-0.4360,0.4644,-0.6592,22.522,18.555,0.427,147.409,25.708,-103.299
5372,-0.4243,0.4336,-0.6855,16.907,29.846,-3.113,147.667,25.494,-103.090
5382,-0.4224,0.4062,-0.7158,4.700,33.691,-5.493,147.849,25.258,-102.838
5392,-0.4180,0.4258,-0.7837,-10.315,32.715,-5.371,147.887,25.010,-102.596
5402,-0.4082,0.5156,-0.8657,-22.583,29.236,-2.075,147.755,24.747,-102.404
5412,-0.3936,0.6040,-0.9292,-24.780,23.560,3.052,147.546,24.483,-102.294
5422,-0.3604,0.6455,-0.9707,-15.808,15.137,6.897,147.393,24.247,-102.272
5432,-0.3340,0.6191,-0.9600,-2.563,4.700,7.202,147.349,24.088,-102.310
5442,-0.3491,0.5664,-0.9023,5.798,-6.897,4.944,147.376,24.060,-102.393
5452,-0.3564,0.4819,-0.8203,8.728,-16.418,1.038,147.442,24.159,-102.502
5462,-0.3877,0.3745,-0.7100,7.690,-23.193,-2.686,147.519,24.379,-102.612
5472,-0.4053,0.3306,-0.6821,1.709,-25.391,-3.723,147.557,24.648,-102.728
5482,-0.4219,0.3848,-0.7202,-7.080,-21.790,-2.625,147.486,24.873,-102.832
5492,-0.4458,0.4985,-0.7593,-12.146,-11.902,1.892,147.321,24.977,-102.920
5502,-0.4409,0.5801,-0.8154,-7.385,1.343,7.141,147.195,24.911,-102.980
5512,-0.4087,0.6089,-0.7896,1.282,11.292,10.437,147.145,24.736,-103.008
5522,-0.3867,0.5649,-0.7275,8.057,10.925,9.888,147.167,24.576,-103.035
5532,-0.3984,0.5381,-0.7612,9.094,6.104,7.324,147.222,24.472,-103.068
5542,-0.4126,0.5190,-0.8086,4.150,2.686,4.578,147.250,24.412,-103.090
5552,-0.4097,0.5273,-0.8257,-3.235,1.404,2.747,147.211,24.368,-103.107
5562,-0.3940,0.5327,-0.8257,-6.531,2.075,1.221,147.151,24.318,-103.107
5572,-0.3892,0.5234,-0.7837,-6.226,1.099,-0.488,147.085,24.291,-103.096
5582,-0.4038,0.5029,-0.7441,-3.845,-1.587,-1.282,147.036,24.313,-103.096
5592,-0.4204,0.4771,-0.7314,0.610,-4.150,-0.916,147.030,24.368,-103.112
5602,-0.4131,0.4673,-0.7559,4.883,-3.784,0.183,147.085,24.401,-103.134
5612,-0.4111,0.4609,-0.7734,5.676,-2.563,1.831,147.145,24.417,-103.167
5622,-0.4028,0.4697,-0.7856,2.991,-1.160,3.479,147.178,24.401,-103.206
5632,-0.3989,0.4922,-0.8203,-0.610,0.977,4.456,147.178,24.351,-103.244
5642,-0.3896,0.5391,-0.8716,-3.540,3.662,4.700,147.145,24.258,-103.266
5652,-0.3901,0.5776,-0.9004,-4.761,6.531,4.578,147.101,24.137,-103.266
5662,-0.3960,0.5947,-0.8833,-4.883,8.179,4.272,147.047,24.011,-103.255
5672,-0.4004,0.5757,-0.8330,-4.028,6.592,3.113,146.992,23.912,-103.244
5682,-0.3950,0.5376,-0.7715,-3.235,1.160,0.671,146.942,23.890,-103.244
5692,-0.3936,0.4976,-0.7358,-1.953,-5.981,-2.136,146.904,23.950,-103.260
5702,-0.3994,0.4775,-0.7246,-0.916,-11.475,-2.930,146.876,24.071,-103.304
5712,-0.3999,0.4785,-0.7456,1.648,-12.939,-0.732,146.871,24.181,-103.376
5722,-0.3887,0.5146,-0.7969,6.104,-10.010,2.686,146.898,24.230,-103.458
5732,-0.3838,0.5317,-0.8413,11.414,-3.784,5.188,146.992,24.203,-103.530
5743,-0.3936,0.5444,-0.8472,13.184,2.808,6.287,147.107,24.120,-103.568
5752,-0.3960,0.5142,-0.7969,11.536,6.104,6.287,147.211,24.022,-103.590
5762,-0.3965,0.4814,-0.7617,7.080,3.418,5.066,147.277,23.961,-103.618
5772,-0.3989,0.4795,-0.7500,0.488,-3.174,3.296,147.261,23.972,-103.667
5782,-0.4043,0.4824,-0.7285,-4.089,-9.949,2.441,147.184,24.049,-103.749
5792,-0.4111,0.5005,-0.7197,-4.822,-14.404,3.113,147.068,24.164,-103.865
5802,-0.4116,0.5278,-0.7480,-1.526,-14.465,4.700,146.981,24.258,-103.991
5812,-0.4175,0.5396,-0.7842,5.615,-9.521,6.165,146.975,24.302,-104.106
5822,-0.4238,0.5283,-0.8037,13.245,-1.892,6.958,147.068,24.274,-104.183
5832,-0.4131,0.4829,-0.7617,15.381,3.418,7.263,147.211,24.208,-104.227
5842,-0.4141,0.4590,-0.7383,10.803,4.211,6.226,147.310,24.153,-104.260
5852,-0.4131,0.4590,-0.7290,1.709,2.380,4.395,147.321,24.126,-104.288
5862,-0.4082,0.4961,-0.7236,-8.118,0.732,2.991,147.217,24.109,-104.310
5872,-0.3931,0.5737,-0.7710,-12.634,1.526,2.563,147.047,24.066,-104.326
5882,-0.3784,0.6260,-0.8438,-9.094,4.883,2.380,146.920,23.967,-104.315
5892,-0.3774,0.6294,-0.8765,-2.197,7.202,1.404,146.887,23.857,-104.288
5902,-0.3687,0.6240,-0.8882,2.075,5.981,-0.061,146.904,23.752,-104.249
5912,-0.3652,0.6099,-0.8672,3.174,1.160,-1.953,146.926,23.708,-104.227
5922,-0.3921,0.5469,-0.7798,1.160,-6.592,-4.517,146.915,23.774,-104.222
5932,-0.4287,0.5024,-0.6919,-3.052,-14.221,-7.874,146.849,23.961,-104.238
5942,-0.4541,0.4736,-0.6504,-6.531,-16.785,-10.376,146.755,24.214,-104.244
5952,-0.4746,0.4360,-0.6367,-7.690,-12.268,-10.681,146.678,24.445,-104.216
5962,-0.4614,0.4526,-0.6426,-6.958,-3.479,-8.423,146.613,24.582,-104.161
5972,-0.4331,0.4663,-0.6724,-1.709,5.493,-4.578,146.613,24.593,-104.084
5982,-0.4102,0.4829,-0.7290,5.127,11.719,-1.465,146.700,24.510,-104.002
5992,-0.3999,0.5171,-0.7871,8.057,14.648,0.366,146.810,24.373,-103.914
6002,-0.3906,0.5371,-0.8262,7.324,15.015,1.282,146.920,24.214,-103.837
6012,-0.3750,0.5547,-0.8418,4.639,13.428,0.793,146.992,24.060,-103.766
6022,-0.3721,0.5371,-0.8423,1.831,10.010,-0.793,147.041,23.945,-103.700
6032,-0.3779,0.5386,-0.8433,-1.404,5.981,-2.808,147.057,23.879,-103.640
6042,-0.3906,0.5347,-0.8394,-3.235,3.601,-4.272,147.052,23.846,-103.574
6052,-0.4155,0.5171,-0.8271,-3.540,3.052,-4.944,147.052,23.840,-103.513
6062,-0.4282,0.4888,-0.8130,-2.625,3.235,-5.188,147.074,23.846,-103.447
6072,-0.4082,0.4805,-0.7915,-1.953,2.075,-5.127,147.096,23.857,-103.387
6082,-0.3901,0.4707,-0.7856,-0.916,0.000,-4.150,147.118,23.868,-103.348
6092,-0.3799,0.4614,-0.7910,-0.122,-0.977,-2.869,147.151,23.879,-103.326
6102,-0.3706,0.4570,-0.7910,-0.610,-1.099,-2.258,147.178,23.884,-103.315
6112,-0.3608,0.4639,-0.8047,-2.625,-1.160,-1.831,147.189,23.873,-103.304
6122,-0.3638,0.4824,-0.8188,-4.700,-1.404,-1.160,147.167,23.862,-103.299
6132,-0.3750,0.4956,-0.8291,-5.737,-0.977,-0.183,147.123,23.846,-103.304
6142,-0.3901,0.4912,-0.8364,-4.944,-0.366,0.671,147.096,23.829,-103.315
6152,-0.3989,0.4951,-0.8350,-3.845,-0.427,1.282,147.074,23.807,-103.326
6162,-0.4004,0.4941,-0.8369,-3.052,-1.099,1.770,147.063,23.796,-103.348
6172,-0.3921,0.4990,-0.8413,-3.296,-2.563,2.136,147.036,23.785,-103.387
6182,-0.3843,0.5215,-0.8530,-4.578,-4.578,2.258,146.986,23.785,-103.431
6192,-0.3784,0.5400,-0.8540,-5.005,-6.775,2.319,146.920,23.796,-103.497
6202,-0.3828,0.5649,-0.8521,-4.761,-8.911,2.136,146.838,23.824,-103.568
6212,-0.3926,0.5786,-0.8423,-2.930,-10.986,1.465,146.766,23.879,-103.645
6222,-0.3896,0.5830,-0.8198,-0.183,-12.756,0.427,146.711,23.956,-103.727
6232,-0.3799,0.5591,-0.7617,1.892,-14.160,-0.916,146.667,24.055,-103.804
6243,-0.3911,0.5435,-0.7031,1.587,-15.747,-2.502,146.613,24.197,-103.876
6252,-0.4126,0.5366,-0.6758,0.244,-15.320,-4.089,146.541,24.362,-103.931
6262,-0.4316,0.5132,-0.6694,-0.366,-12.329,-5.188,146.486,24.516,-103.958
6272,-0.4502,0.4995,-0.6670,-1.099,-7.324,-5.493,146.442,24.648,-103.953
6282,-0.4609,0.4985,-0.6670,-2.075,-2.136,-4.578,146.404,24.736,-103.925
6292,-0.4575,0.5088,-0.6855,-2.380,2.014,-2.991,146.365,24.769,-103.881
6302,-0.4419,0.5381,-0.7271,-2.380,5.493,-1.648,146.332,24.747,-103.837
6312,-0.4336,0.5635,-0.7715,-1.831,9.033,-0.916,146.316,24.670,-103.771
6322,-0.4312,0.5747,-0.8032,-1.831,12.146,-0.916,146.316,24.565,-103.689
6332,-0.4121,0.5791,-0.8140,-3.174,13.489,-1.770,146.305,24.445,-103.590
6342,-0.3936,0.5571,-0.8052,-4.333,12.573,-3.357,146.299,24.329,-103.480
6352,-0.3838,0.5386,-0.7837,-5.737,8.850,-5.615,146.277,24.269,-103.376
6362,-0.3921,0.5264,-0.7793,-5.859,3.906,-7.263,146.250,24.258,-103.288
6372,-0.4170,0.5044,-0.7749,-4.578,0.549,-7.385,146.239,24.296,-103.217
6382,-0.4331,0.4780,-0.7603,-2.625,0.061,-6.653,146.255,24.346,-103.156
6392,-0.4360,0.4492,-0.7471,-0.244,0.977,-5.859,146.305,24.390,-103.096
6402,-0.4297,0.4346,-0.7480,1.404,2.380,-4.883,146.376,24.417,-103.035
6412,-0.4165,0.4321,-0.7632,2.136,4.211,-3.174,146.464,24.412,-102.980
6422,-0.3887,0.4526,-0.7788,2.014,6.165,-0.977,146.536,24.357,-102.936
6432,-0.3740,0.4517,-0.7646,2.136,6.470,1.221,146.596,24.280,-102.909
6442,-0.3774,0.4575,-0.7471,1.648,4.395,2.441,146.635,24.219,-102.903
6452,-0.3823,0.4653,-0.7207,-0.244,0.671,2.686,146.629,24.197,-102.925
6462,-0.4009,0.4727,-0.7085,-2.502,-3.174,2.136,146.585,24.225,-102.964
6472,-0.4287,0.5024,-0.7124,-4.089,-4.333,1.343,146.508,24.269,-103.002
6482,-0.4551,0.5317,-0.7480,-3.906,-0.977,1.770,146.442,24.291,-103.024
6492,-0.4692,0.5420,-0.7837,-1.221,5.737,3.052,146.426,24.247,-103.019
6502,-0.4502,0.5552,-0.8330,2.686,13.062,3.296,146.470,24.120,-102.969
6512,-0.4067,0.5815,-0.8726,5.249,17.273,2.747,146.552,23.934,-102.887
6522,-0.3525,0.5879,-0.8838,5.432,16.052,2.197,146.635,23.730,-102.810
6532,-0.3101,0.6016,-0.8979,3.967,10.193,1.343,146.689,23.566,-102.761
6542,-0.3135,0.6206,-0.9150,0.793,2.563,0.183,146.695,23.467,-102.750
6552,-0.3242,0.6235,-0.9395,-0.977,-2.258,-0.977,146.678,23.412,-102.755
6562,-0.3555,0.5669,-0.8979,-1.099,-4.639,-2.747,146.678,23.417,-102.755
6572,-0.3945,0.5166,-0.8262,-2.808,-7.629,-5.127,146.662,23.494,-102.755
6582,-0.4248,0.4756,-0.7500,-5.859,-11.719,-6.348,146.613,23.648,-102.766
6592,-0.4478,0.4458,-0.6543,-8.789,-15.625,-6.470,146.503,23.873,-102.805
6602,-0.4678,0.4580,-0.6064,-8.362,-18.738,-6.348,146.360,24.137,-102.859
6612,-0.4624,0.4644,-0.6270,-2.441,-17.273,-5.066,146.283,24.373,-102.914
6622,-0.4370,0.4707,-0.7212,6.348,-9.033,-2.563,146.338,24.489,-102.947
6632,-0.4038,0.4775,-0.7964,11.597,4.150,0.977,146.486,24.439,-102.931
6642,-0.3882,0.4854,-0.8228,10.986,14.709,4.211,146.646,24.269,-102.881
6652,-0.3887,0.4590,-0.7788,5.920,17.212,5.615,146.755,24.088,-102.827
6662,-0.4082,0.4390,-0.7061,-2.075,8.850,3.723,146.755,24.016,-102.810
6672,-0.4287,0.4614,-0.6621,-10.010,-3.723,1.465,146.624,24.077,-102.843
6682,-0.4385,0.4810,-0.6611,-12.024,-11.719,1.282,146.448,24.208,-102.925
6692,-0.4302,0.5176,-0.7261,-8.850,-9.521,3.113,146.305,24.285,-103.013
6702,-0.4009,0.5483,-0.8159,-0.854,2.747,5.005,146.283,24.214,-103.041
6712,-0.3804,0.5649,-0.8823,5.432,15.625,6.531,146.360,24.005,-103.008
6722,-0.3540,0.5815,-0.9302,6.348,22.583,7.141,146.470,23.719,-102.936
6732,-0.3403,0.5977,-0.9502,4.028,21.057,5.920,146.552,23.445,-102.865
6743,-0.3638,0.5972,-0.9087,0.061,11.963,3.601,146.569,23.280,-102.821
6752,-0.4038,0.5737,-0.8267,-4.028,-1.526,1.404,146.508,23.269,-102.843
6762,-0.4258,0.5493,-0.7686,-5.249,-13.123,-0.427,146.404,23.390,-102.920
6772,-0.4297,0.5239,-0.7319,-3.113,-17.822,-1.343,146.316,23.566,-103.013
6782,-0.4209,0.5083,-0.7280,0.793,-14.954,-0.732,146.277,23.708,-103.101
6792,-0.3945,0.4917,-0.7554,5.371,-6.409,0.244,146.321,23.763,-103.140
6802,-0.3701,0.4863,-0.7754,7.690,2.319,1.038,146.415,23.719,-103.134
6812,-0.3521,0.4937,-0.7705,6.531,6.653,1.770,146.503,23.626,-103.112
6822,-0.3643,0.5044,-0.7749,2.930,5.737,2.747,146.536,23.544,-103.101
6832,-0.4248,0.4922,-0.7422,-0.854,2.930,3.418,146.525,23.522,-103.118
6842,-0.4731,0.4863,-0.7114,-4.028,0.244,3.540,146.464,23.555,-103.145
6852,-0.4531,0.5112,-0.7393,-6.226,-0.061,3.113,146.376,23.566,-103.173
6862,-0.4121,0.5532,-0.8125,-6.775,2.747,2.686,146.299,23.522,-103.184
6872,-0.3662,0.6045,-0.9028,-5.615,8.301,2.075,146.255,23.395,-103.151
6882,-0.3369,0.6270,-0.9316,-4.272,12.085,1.587,146.234,23.220,-103.090
6892,-0.3057,0.6094,-0.8945,-3.540,9.766,0.488,146.217,23.060,-103.041
6902,-0.3130,0.5718,-0.8350,-2.991,0.427,-1.648,146.190,23.005,-103.019
6912,-0.3540,0.5332,-0.7783,-3.235,-10.254,-3.723,146.140,23.088,-103.052
6922,-0.4062,0.4761,-0.7124,-2.747,-17.212,-4.333,146.085,23.275,-103.112
6932,-0.4419,0.4351,-0.6797,-0.977,-18.250,-3.357,146.058,23.500,-103.195
6942,-0.4536,0.4185,-0.6621,1.404,-14.282,-1.221,146.058,23.687,-103.271
6952,-0.4473,0.4155,-0.6626,4.456,-7.568,1.282,146.102,23.807,-103.326
6962,-0.4365,0.4180,-0.6924,7.568,-0.549,3.601,146.190,23.835,-103.365
6972,-0.4160,0.4424,-0.7622,8.057,5.310,5.676,146.294,23.774,-103.381
6982,-0.3945,0.4849,-0.8262,5.249,8.667,7.690,146.376,23.648,-103.403
6992,-0.3774,0.5317,-0.8696,1.099,9.155,9.094,146.398,23.489,-103.431
7002,-0.3643,0.5669,-0.8906,-1.709,6.897,9.338,146.376,23.335,-103.469
7012,-0.3521,0.5962,-0.8955,-3.174,2.441,8.179,146.316,23.220,-103.530
7022,-0.3696,0.6001,-0.8745,-1.770,-8.423,3.662,146.261,23.231,-103.618
7032,-0.3926,0.5801,-0.8452,-1.587,-12.451,1.526,146.201,23.302,-103.705
7042,-0.4058,0.5601,-0.8105,-1.404,-14.709,-0.305,146.146,23.412,-103.788
7052,-0.4087,0.5459,-0.7764,-1.038,-15.320,-1.404,146.091,23.544,-103.870
7062,-0.4023,0.5229,-0.7373,-0.305,-14.832,-1.648,146.047,23.681,-103.947
7072,-0.3950,0.5010,-0.7021,-0.122,-14.221,-1.465,145.997,23.813,-104.019
7082,-0.4004,0.4995,-0.6875,-0.977,-12.939,-0.916,145.942,23.939,-104.090
7092,-0.4121,0.5024,-0.6895,-1.953,-9.888,0.244,145.876,24.038,-104.150
7102,-0.4180,0.5039,-0.6934,-2.808,-4.822,1.465,145.811,24.088,-104.194
7112,-0.4268,0.5205,-0.6997,-3.052,-0.427,2.380,145.750,24.099,-104.222
7122,-0.4302,0.5366,-0.7183,-1.709,2.136,2.991,145.701,24.082,-104.233
7132,-0.4297,0.5469,-0.7373,0.977,3.418,3.479,145.684,24.044,-104.244
7142,-0.4326,0.5601,-0.7578,3.906,3.845,3.540,145.695,24.000,-104.255
7152,-0.4263,0.5728,-0.7749,6.470,4.150,3.174,145.739,23.945,-104.255
7162,-0.4170,0.5786,-0.7764,8.545,4.028,2.319,145.800,23.895,-104.249
7172,-0.4111,0.5801,-0.7793,10.010,3.967,0.793,145.882,23.846,-104.233
7182,-0.4028,0.5693,-0.7769,10.681,3.662,-0.671,145.975,23.807,-104.205
7192,-0.3931,0.5498,-0.7720,10.559,2.747,-1.587,146.080,23.785,-104.172
7202,-0.3911,0.5400,-0.7666,9.033,1.160,-2.014,146.168,23.774,-104.150
7212,-0.3940,0.5312,-0.7627,6.836,-0.122,-1.831,146.228,23.774,-104.134
7222,-0.3970,0.5283,-0.7598,4.883,-0.183,-1.343,146.272,23.780,-104.123
7232,-0.3965,0.5322,-0.7705,3.418,1.160,-0.977,146.305,23.769,-104.106
7243,-0.4028,0.5337,-0.7705,3.357,3.601,-0.977,146.338,23.736,-104.073
7252,-0.4033,0.5288,-0.7671,3.479,5.981,-1.099,146.382,23.692,-104.030
7262,-0.3970,0.5200,-0.7705,3.113,7.202,-1.221,146.431,23.632,-103.975
7272,-0.3931,0.5151,-0.7842,2.258,7.202,-1.709,146.481,23.571,-103.914
7282,-0.3906,0.5156,-0.8003,1.465,6.042,-2.441,146.525,23.527,-103.859
7292,-0.3799,0.5093,-0.8130,1.343,4.089,-3.052,146.574,23.489,-103.804
7302,-0.3877,0.4858,-0.7988,1.038,0.977,-3.784,146.618,23.489,-103.766
7312,-0.3936,0.4722,-0.7700,-0.793,-2.380,-4.028,146.640,23.533,-103.744
7322,-0.4033,0.4551,-0.7026,-3.601,-6.348,-3.174,146.607,23.626,-103.749
7332,-0.4473,0.4346,-0.6396,-4.089,-9.094,-2.258,146.541,23.774,-103.788
7342,-0.4624,0.4316,-0.6348,-0.732,-7.568,-1.587,146.514,23.923,-103.815
7352,-0.4434,0.4546,-0.6748,3.235,-0.488,0.244,146.541,23.972,-103.821
7362,-0.4141,0.4639,-0.7271,7.507,10.010,3.418,146.635,23.884,-103.793
7372,-0.3926,0.4687,-0.7842,9.521,18.860,5.554,146.777,23.692,-103.733
7382,-0.3672,0.5054,-0.8516,6.958,22.827,5.737,146.909,23.439,-103.645
7392,-0.3623,0.5063,-0.8550,2.197,20.264,5.066,146.981,23.209,-103.574
7402,-0.3755,0.5059,-0.8511,-3.906,12.634,3.540,146.986,23.060,-103.530
7412,-0.3965,0.4873,-0.8291,-10.803,3.723,3.052,146.898,23.005,-103.535
7422,-0.4023,0.5024,-0.8169,-16.602,-3.662,3.357,146.733,23.016,-103.585
7432,-0.3857,0.5308,-0.8330,-17.151,-5.371,4.150,146.541,23.022,-103.656
7442,-0.3462,0.5449,-0.8647,-12.817,-2.441,4.883,146.404,22.972,-103.716
7452,-0.3184,0.5532,-0.8843,-6.165,2.625,5.493,146.343,22.863,-103.749
7462,-0.3242,0.5508,-0.8931,-0.183,6.409,5.859,146.360,22.720,-103.766
7472,-0.3325,0.5596,-0.8970,2.136,7.019,6.042,146.393,22.577,-103.777
7482,-0.3608,0.5610,-0.8716,0.854,3.845,5.981,146.398,22.478,-103.810
7492,-0.4121,0.5610,-0.8232,-1.770,-1.831,5.066,146.349,22.467,-103.865
7502,-0.4375,0.5576,-0.7720,-3.235,-6.653,3.723,146.272,22.522,-103.936
7512,-0.4336,0.5386,-0.7256,-1.892,-8.911,2.014,146.195,22.615,-104.008
7522,-0.4146,0.5337,-0.7114,0.366,-8.057,0.549,146.146,22.703,-104.063
7532,-0.3896,0.5498,-0.7446,2.197,-4.456,0.305,146.129,22.736,-104.090
7542,-0.3555,0.5806,-0.7900,3.540,1.648,1.099,146.140,22.692,-104.090
7552,-0.3403,0.5869,-0.8037,4.272,6.226,1.465,146.173,22.593,-104.068
7562,-0.3511,0.5840,-0.7686,2.136,7.202,0.793,146.173,22.505,-104.030
7572,-0.4004,0.5156,-0.6680,-1.404,2.808,-0.732,146.129,22.511,-104.008
7582,-0.4346,0.4482,-0.6074,-5.615,-3.784,-2.747,146.047,22.632,-104.008
7592,-0.4463,0.4380,-0.6064,-9.399,-7.202,-3.479,145.931,22.797,-104.019
7602,-0.4316,0.4595,-0.6670,-10.437,-3.906,-1.831,145.822,22.890,-104.024
7612,-0.3970,0.5176,-0.7617,-6.531,6.287,1.221,145.767,22.835,-103.997
7622,-0.3560,0.5449,-0.8354,0.793,17.578,4.700,145.811,22.632,-103.931
7632,-0.3086,0.5840,-0.9077,5.310,24.353,7.324,145.909,22.324,-103.848
7642,-0.2998,0.6138,-0.9624,7.263,25.208,7.690,146.030,22.000,-103.766
7652,-0.3315,0.6172,-0.9492,6.714,20.447,5.554,146.129,21.747,-103.694
7662,-0.3926,0.5459,-0.8354,4.028,10.010,1.831,146.195,21.649,-103.651
7672,-0.4307,0.4648,-0.7373,-0.916,-4.456,-2.502,146.201,21.747,-103.656
7682,-0.4370,0.4360,-0.7275,-5.310,-14.709,-5.554,146.162,21.956,-103.694
7692,-0.4199,0.4722,-0.7871,-8.362,-15.503,-4.211,146.085,22.132,-103.749
7702,-0.3662,0.5620,-0.8853,-6.531,-5.493,-0.427,146.025,22.148,-103.777
7712,-0.3198,0.6089,-0.9346,0.122,8.667,3.540,146.041,22.000,-103.755
7722,-0.2974,0.6338,-0.9404,6.104,17.395,5.920,146.124,21.747,-103.705
7732,-0.3027,0.5879,-0.8599,9.644,15.137,4.395,146.234,21.544,-103.651
7743,-0.3657,0.5195,-0.7563,7.446,0.977,-0.183,146.299,21.539,-103.645
7752,-0.4072,0.4937,-0.7012,0.671,-15.076,-4.272,146.277,21.725,-103.694
7762,-0.4307,0.4849,-0.6748,-3.540,-24.292,-5.859,146.184,22.017,-103.788
7772,-0.4189,0.5020,-0.6992,-3.601,-23.376,-3.784,146.091,22.269,-103.898
7782,-0.3726,0.5449,-0.7842,0.793,-11.963,-0.977,146.069,22.363,-103.958
7792,-0.3403,0.5625,-0.8350,7.019,3.662,0.977,146.140,22.291,-103.947
7802,-0.3291,0.5742,-0.8516,9.766,13.855,2.625,146.261,22.115,-103.887
7812,-0.3257,0.5874,-0.8726,9.583,14.893,2.808,146.376,21.929,-103.821
7822,-0.3398,0.5947,-0.8672,6.348,8.240,1.465,146.442,21.813,-103.788
7832,-0.3687,0.5811,-0.8369,3.052,-1.648,-0.916,146.464,21.813,-103.788
7842,-0.3965,0.5464,-0.7954,0.854,-10.681,-3.418,146.448,21.923,-103.821
7852,-0.4062,0.4897,-0.7295,-0.671,-16.174,-5.188,146.420,22.115,-103.870
7862,-0.4072,0.4341,-0.6689,-0.427,-17.822,-5.798,146.404,22.341,-103.925
7872,-0.3936,0.4077,-0.6484,0.000,-16.541,-4.639,146.393,22.555,-103.980
7882,-0.3770,0.4165,-0.6792,1.404,-11.719,-2.136,146.409,22.692,-104.035
7892,-0.3882,0.4321,-0.7065,4.272,-3.845,0.916,146.464,22.742,-104.063
7902,-0.3887,0.4604,-0.7314,6.470,3.723,4.456,146.530,22.698,-104.084
7913,-0.3813,0.4907,-0.7852,7.812,9.155,7.324,146.618,22.582,-104.095
7922,-0.3887,0.5425,-0.8379,6.165,12.329,8.972,146.684,22.418,-104.101
7932,-0.3853,0.5840,-0.8667,3.479,13.550,8.789,146.711,22.236,-104.101
7942,-0.3848,0.6069,-0.8809,1.465,12.024,6.653,146.717,22.077,-104.090
7952,-0.3906,0.6104,-0.8784,-0.427,7.812,3.174,146.706,21.973,-104.073
7962,-0.3921,0.5942,-0.8521,-2.625,1.953,-0.427,146.667,21.945,-104.057
7972,-0.3848,0.5825,-0.8257,-4.883,-4.150,-3.235,146.602,21.989,-104.052
7982,-0.3828,0.5693,-0.8057,-5.737,-8.362,-4.883,146.525,22.077,-104.057
7992,-0.3789,0.5518,-0.7896,-4.700,-9.644,-5.737,146.459,22.181,-104.063
8002,-0.3813,0.5430,-0.7749,-2.625,-8.667,-6.165,146.420,22.286,-104.057
8012,-0.3828,0.5327,-0.7720,0.183,-7.019,-5.859,146.420,22.374,-104.046
8022,-0.3745,0.5186,-0.7759,2.869,-5.432,-5.188,146.448,22.440,-104.035
8032,-0.3701,0.5049,-0.7710,4.272,-3.967,-4.700,146.503,22.495,-104.013
8042,-0.3657,0.4946,-0.7666,3.723,-3.357,-4.517,146.552,22.538,-103.997
8052,-0.3682,0.4946,-0.7676,1.587,-3.113,-4.272,146.585,22.582,-103.975
8062,-0.3799,0.4951,-0.7690,-0.244,-2.197,-3.845,146.596,22.621,-103.953
8072,-0.3872,0.4980,-0.7715,-1.343,-0.732,-3.357,146.596,22.648,-103.925
8082,-0.3857,0.5005,-0.7798,-1.282,0.366,-2.991,146.602,22.659,-103.898
8092,-0.3867,0.5015,-0.7876,-0.977,0.977,-2.563,146.613,22.665,-103.870
8102,-0.3823,0.5039,-0.7988,-1.282,1.099,-2.197,146.624,22.665,-103.843
8112,-0.3765,0.5166,-0.8110,-1.831,0.854,-1.892,146.624,22.654,-103.821
8122,-0.3760,0.5205,-0.8164,-1.892,0.244,-1.526,146.618,22.643,-103.804
8132,-0.3799,0.5220,-0.8154,-1.587,-0.610,-1.282,146.613,22.643,-103.799
8142,-0.3755,0.5229,-0.8149,-1.160,-1.709,-1.160,146.607,22.654,-103.799
8152,-0.3774,0.5254,-0.8110,-0.793,-3.052,-1.099,146.602,22.670,-103.804
8162,-0.3828,0.5249,-0.8066,-0.366,-4.395,-1.038,146.596,22.703,-103.821
8172,-0.3857,0.5215,-0.7939,-0.244,-5.615,-0.977,146.585,22.747,-103.848
8182,-0.3906,0.5151,-0.7788,-0.610,-6.409,-1.160,146.569,22.808,-103.876
8192,-0.3945,0.5005,-0.7598,-1.282,-6.958,-1.587,146.547,22.879,-103.903
8202,-0.3960,0.4971,-0.7485,-2.502,-7.324,-2.258,146.508,22.961,-103.925
8212,-0.3999,0.4937,-0.7378,-3.662,-7.324,-2.502,146.459,23.049,-103.947
8222,-0.4053,0.4961,-0.7300,-4.395,-6.592,-2.136,146.404,23.132,-103.964
8232,-0.4126,0.5034,-0.7246,-4.333,-5.188,-1.160,146.338,23.198,-103.986
8243,-0.4214,0.5039,-0.7271,-2.991,-2.441,-0.244,146.294,23.242,-104.002
8252,-0.4214,0.5093,-0.7271,-1.648,0.977,0.305,146.266,23.253,-103.997
8262,-0.4102,0.5073,-0.7271,-0.549,3.906,1.038,146.255,23.231,-103.980
8272,-0.4053,0.5034,-0.7261,-0.305,5.798,1.709,146.250,23.192,-103.964
8282,-0.3960,0.5044,-0.7256,-1.160,6.470,1.892,146.239,23.137,-103.942
8292,-0.3936,0.5049,-0.7275,-2.136,5.920,1.892,146.212,23.082,-103.920
8302,-0.3984,0.5098,-0.7393,-2.258,5.432,2.258,146.190,23.038,-103.909
8312,-0.3979,0.5171,-0.7573,-1.160,5.920,3.052,146.173,22.972,-103.903
8322,-0.3877,0.5298,-0.7891,0.488,7.507,3.723,146.184,22.885,-103.887
8332,-0.3789,0.5513,-0.8369,2.197,9.644,3.845,146.217,22.764,-103.865
8342,-0.3691,0.5732,-0.8809,3.296,11.108,3.113,146.272,22.621,-103.826
8352,-0.3599,0.5854,-0.9023,3.418,10.925,2.075,146.332,22.478,-103.782
8362,-0.3608,0.5771,-0.8936,2.502,7.996,0.916,146.382,22.368,-103.738
8372,-0.3613,0.5552,-0.8604,0.427,2.869,-0.244,146.398,22.319,-103.722
8382,-0.3755,0.5337,-0.8252,-1.465,-2.441,-1.526,146.393,22.330,-103.722
8392,-0.3896,0.5151,-0.7842,-2.869,-5.615,-2.319,146.360,22.396,-103.733
8402,-0.4004,0.5015,-0.7568,-3.174,-5.737,-2.563,146.327,22.467,-103.744
8412,-0.3960,0.5054,-0.7622,-2.563,-3.113,-2.197,146.305,22.516,-103.744
8422,-0.3867,0.5171,-0.7808,-1.099,1.404,-1.526,146.305,22.511,-103.722
8432,-0.3804,0.5273,-0.8237,1.038,6.042,-0.854,146.338,22.456,-103.678
8442,-0.3696,0.5156,-0.8311,1.831,9.155,-0.244,146.398,22.363,-103.623
8452,-0.3657,0.4897,-0.7998,-0.977,8.606,-0.061,146.431,22.280,-103.568
8462,-0.3804,0.4644,-0.7222,-7.751,3.601,-0.793,146.371,22.269,-103.541
8472,-0.3896,0.4824,-0.6772,-15.381,-3.479,-1.282,146.195,22.335,-103.552
8482,-0.3921,0.5259,-0.6816,-18.066,-6.836,-0.610,145.964,22.418,-103.585
8492,-0.4023,0.5645,-0.7017,-12.207,-4.333,1.099,145.783,22.462,-103.623
8502,-0.3989,0.5996,-0.7769,0.977,2.441,2.869,145.756,22.423,-103.634
8512,-0.3765,0.6025,-0.8672,16.052,10.437,4.333,145.920,22.286,-103.607
8522,-0.3584,0.5850,-0.9336,25.757,15.259,4.944,146.212,22.094,-103.557
8532,-0.3286,0.5874,-1.0078,25.269,15.015,4.333,146.514,21.879,-103.508
8542,-0.3091,0.6172,-1.0615,19.226,11.597,2.380,146.755,21.693,-103.458
8552,-0.3120,0.6309,-1.0425,10.315,6.470,0.183,146.893,21.566,-103.425
8562,-0.3232,0.6074,-0.9409,2.869,-1.648,-2.563,146.931,21.539,-103.409
8572,-0.3584,0.5078,-0.7905,-2.502,-14.465,-6.836,146.898,21.687,-103.436
8582,-0.3975,0.4458,-0.6909,-6.897,-27.771,-11.963,146.816,22.028,-103.491
8592,-0.4199,0.3950,-0.6294,-9.583,-35.583,-13.611,146.695,22.467,-103.579
8602,-0.4302,0.3550,-0.5825,-8.911,-35.095,-10.010,146.585,22.912,-103.694
8612,-0.4204,0.3745,-0.5713,-5.066,-28.503,-4.456,146.486,23.258,-103.826
8622,-0.4058,0.4019,-0.6069,2.319,-16.174,1.221,146.464,23.445,-103.931
8632,-0.3975,0.4199,-0.6465,10.254,-1.282,7.019,146.547,23.456,-104.002
8642,-0.3716,0.4561,-0.7168,15.442,11.780,11.108,146.695,23.297,-104.035
8652,-0.3535,0.4844,-0.7783,14.832,18.982,12.390,146.854,23.049,-104.035
8662,-0.3633,0.5195,-0.8101,8.423,18.127,11.475,146.948,22.813,-104.030
8672,-0.3843,0.5586,-0.8472,-0.488,12.939,9.949,146.931,22.632,-104.046
8682,-0.4082,0.5767,-0.8638,-8.423,7.568,7.935,146.832,22.516,-104.073
8692,-0.4214,0.6318,-0.8828,-13.733,2.930,5.371,146.662,22.451,-104.101
8702,-0.4014,0.6631,-0.9033,-12.207,0.183,3.235,146.497,22.401,-104.134
8712,-0.3760,0.6626,-0.9077,-6.104,-1.526,1.038,146.404,22.374,-104.150
8722,-0.3574,0.6338,-0.8955,-0.061,-3.601,-1.770,146.387,22.368,-104.156
8732,-0.3452,0.6050,-0.8760,1.465,-6.348,-4.395,146.387,22.401,-104.156
8743,-0.3545,0.5571,-0.8076,-2.197,-9.705,-6.226,146.360,22.489,-104.156
8752,-0.3813,0.5010,-0.7090,-8.972,-14.221,-7.568,146.245,22.659,-104.172
8762,-0.4155,0.4219,-0.5781,-14.404,-18.921,-8.972,146.069,22.939,-104.205
8772,-0.4570,0.3682,-0.5181,-17.517,-23.621,-10.498,145.860,23.318,-104.255
8782,-0.4595,0.4238,-0.6118,-20.325,-20.630,-9.399,145.635,23.626,-104.293
8792,-0.4414,0.5210,-0.6953,-19.226,-4.944,-4.272,145.426,23.719,-104.288
8802,-0.3848,0.6138,-0.7954,-10.010,15.442,2.930,145.322,23.555,-104.216
8812,-0.3354,0.6582,-0.8516,3.845,32.288,8.118,145.382,23.181,-104.090
8822,-0.3188,0.6499,-0.8765,13.855,36.255,7.202,145.563,22.775,-103.931
8832,-0.3472,0.6001,-0.8960,16.846,28.687,2.686,145.794,22.478,-103.777
8842,-0.4077,0.5430,-0.8574,11.414,13.977,-2.441,145.964,22.374,-103.672
8852,-0.4497,0.4868,-0.7959,2.258,-2.075,-6.592,146.030,22.456,-103.629
8862,-0.4575,0.4229,-0.7017,-4.761,-13.672,-8.606,146.008,22.687,-103.634
8872,-0.4375,0.4038,-0.6597,-5.737,-19.531,-8.301,145.959,22.961,-103.672
8882,-0.4116,0.4199,-0.6870,-1.404,-17.944,-5.432,145.948,23.181,-103.733
8892,-0.3745,0.4473,-0.7427,6.165,-8.972,-0.793,146.025,23.258,-103.782
8902,-0.3345,0.4863,-0.8237,13.062,4.578,4.089,146.184,23.159,-103.793
8912,-0.3311,0.5210,-0.8843,15.015,15.503,7.568,146.376,22.934,-103.766
8922,-0.3262,0.5532,-0.9077,11.169,19.592,8.972,146.519,22.665,-103.727
8932,-0.3296,0.5508,-0.8931,4.822,15.137,7.202,146.596,22.451,-103.705
8942,-0.3594,0.5547,-0.8784,-2.441,5.188,3.540,146.585,22.352,-103.705
8952,-0.3960,0.5635,-0.8604,-7.568,-4.456,1.099,146.497,22.374,-103.744
8962,-0.3955,0.5444,-0.8179,-7.996,-10.071,0.671,146.393,22.445,-103.810
8972,-0.3882,0.5303,-0.7954,-3.967,-11.597,0.732,146.321,22.533,-103.887
8982,-0.3857,0.5195,-0.7803,1.099,-10.132,0.916,146.305,22.610,-103.953
8992,-0.3838,0.5117,-0.7505,4.456,-7.812,1.465,146.321,22.670,-104.013
9002,-0.3823,0.5200,-0.7324,5.310,-5.615,2.258,146.338,22.709,-104.068
9012,-0.3740,0.5342,-0.7339,5.371,-3.113,2.808,146.349,22.714,-104.112
9022,-0.3936,0.5063,-0.7095,5.798,-0.671,2.991,146.376,22.720,-104.145
9032,-0.4204,0.4888,-0.6987,4.578,0.610,3.052,146.398,22.736,-104.167
9042,-0.4180,0.4839,-0.7100,1.404,1.160,3.601,146.398,22.736,-104.194
9052,-0.4077,0.4980,-0.7490,-1.953,2.991,4.211,146.371,22.709,-104.211
9062,-0.3911,0.5439,-0.8027,-4.395,5.493,4.456,146.321,22.632,-104.222
9072,-0.3765,0.6138,-0.8911,-4.517,8.301,4.517,146.266,22.500,-104.211
9082,-0.3491,0.6611,-0.9292,-2.197,10.742,4.639,146.239,22.335,-104.189
9092,-0.3516,0.6587,-0.9111,1.892,9.949,3.418,146.245,22.181,-104.156
9102,-0.3462,0.5913,-0.8125,5.188,4.456,0.305,146.283,22.110,-104.134
9112,-0.3647,0.4600,-0.6772,4.578,-6.470,-3.845,146.321,22.203,-104.139
9122,-0.4067,0.3838,-0.5957,-1.770,-17.212,-6.470,146.299,22.462,-104.183
9132,-0.4268,0.3677,-0.5957,-9.521,-21.179,-4.700,146.190,22.747,-104.266
9142,-0.4146,0.4717,-0.7178,-13.489,-13.367,0.122,146.030,22.890,-104.348
9152,-0.3931,0.5820,-0.8745,-7.568,5.676,4.639,145.959,22.791,-104.359
9162,-0.3779,0.6348,-0.9360,1.587,24.536,7.874,146.003,22.505,-104.277
9172,-0.3481,0.6602,-0.9438,7.385,30.823,8.057,146.107,22.148,-104.167
9182,-0.3252,0.6001,-0.8809,7.812,20.447,4.333,146.212,21.907,-104.079
9192,-0.3584,0.5386,-0.8267,1.221,0.122,-1.465,146.239,21.896,-104.068
9202,-0.3916,0.5146,-0.7617,-8.911,-17.700,-6.714,146.129,22.088,-104.112
9212,-0.4106,0.4854,-0.7007,-14.160,-26.489,-9.155,145.953,22.396,-104.189
9222,-0.4067,0.4790,-0.6606,-13.245,-24.841,-8.484,145.772,22.687,-104.266
9232,-0.3887,0.4712,-0.6489,-6.714,-15.442,-6.409,145.679,22.879,-104.299
9243,-0.3862,0.4385,-0.6562,2.869,-3.174,-3.296,145.712,22.956,-104.293
9252,-0.3896,0.4238,-0.6860,10.925,6.470,0.732,145.860,22.928,-104.260
9262,-0.4106,0.4365,-0.7534,13.550,10.498,5.188,146.041,22.835,-104.238
9272,-0.3955,0.4863,-0.8438,10.986,12.024,8.423,146.190,22.681,-104.244
9282,-0.3740,0.5547,-0.9194,5.127,12.329,9.827,146.261,22.495,-104.260
9292,-0.3428,0.6157,-0.9590,0.122,11.536,9.094,146.266,22.291,-104.271
9302,-0.3218,0.6445,-0.9473,-2.747,7.874,6.287,146.234,22.126,-104.277
9312,-0.3311,0.6396,-0.9165,-3.967,1.892,2.258,146.179,22.039,-104.288
9322,-0.3491,0.6177,-0.8745,-4.456,-4.578,-1.526,146.118,22.044,-104.304
9332,-0.3750,0.5601,-0.7964,-4.028,-10.010,-4.028,146.052,22.143,-104.326
9342,-0.3906,0.4902,-0.7266,-2.197,-14.038,-5.432,146.019,22.302,-104.365
9352,-0.4092,0.4580,-0.6841,-1.770,-15.869,-5.737,145.986,22.505,-104.409
9362,-0.4180,0.4492,-0.6616,-2.625,-14.465,-3.784,145.937,22.698,-104.458
9372,-0.4106,0.4692,-0.6606,-2.563,-9.949,-0.793,145.882,22.824,-104.513
9382,-0.3989,0.4990,-0.6504,-0.183,-3.784,2.075,145.827,22.879,-104.557
9392,-0.3955,0.5312,-0.6772,4.761,1.831,3.784,145.827,22.857,-104.579
9402,-0.3989,0.5557,-0.7222,8.789,6.409,4.150,145.882,22.791,-104.579
9412,-0.3921,0.5708,-0.7822,8.972,9.583,3.662,145.959,22.687,-104.551
9422,-0.3740,0.5879,-0.8687,4.456,11.475,2.502,146.019,22.544,-104.502
9433,-0.3652,0.6187,-0.9272,-2.991,11.719,0.732,146.019,22.401,-104.442
9443,-0.3584,0.6470,-0.9316,-9.644,9.338,-1.160,145.942,22.286,-104.370
9453,-0.3569,0.6543,-0.9146,-11.902,3.967,-3.418,145.827,22.225,-104.315
9463,-0.3647,0.6245,-0.8569,-9.216,-2.686,-6.165,145.734,22.247,-104.277
9473,-0.3726,0.5312,-0.7485,-3.052,-10.071,-8.911,145.695,22.379,-104.260
9483,-0.3901,0.4478,-0.6689,2.014,-16.724,-10.620,145.717,22.610,-104.266
9493,-0.4102,0.3740,-0.6265,4.150,-19.531,-9.766,145.783,22.890,-104.299
9503,-0.4243,0.3428,-0.6348,3.540,-15.808,-5.981,145.860,23.126,-104.343
9513,-0.4272,0.3555,-0.6514,2.136,-5.554,-0.793,145.926,23.247,-104.370
9523,-0.4067,0.4058,-0.6885,1.465,6.348,3.784,145.975,23.209,-104.365
9532,-0.3906,0.4834,-0.7646,1.709,16.235,7.874,146.025,23.033,-104.337
9543,-0.3735,0.5483,-0.8359,2.808,22.400,10.620,146.074,22.769,-104.299
9553,-0.3599,0.5894,-0.8862,4.578,23.437,10.559,146.140,22.478,-104.249
9563,-0.3408,0.5991,-0.9106,4.333,19.409,8.057,146.206,22.220,-104.205
9573,-0.3257,0.5747,-0.9028,0.854,10.864,4.456,146.234,22.055,-104.178
9583,-0.3330,0.5757,-0.8955,-5.554,0.549,1.099,146.190,21.995,-104.189
9593,-0.3574,0.5786,-0.8691,-10.193,-7.324,-0.671,146.074,22.028,-104.222
9603,-0.3745,0.5762,-0.8311,-11.169,-11.047,-1.038,145.937,22.110,-104.282
9613,-0.3872,0.5737,-0.7944,-8.057,-11.230,-1.221,145.816,22.203,-104.337
9623,-0.3901,0.5723,-0.7534,-2.808,-9.521,-1.343,145.739,22.291,-104.387
9633,-0.3970,0.5371,-0.7036,3.296,-7.446,-1.099,145.728,22.374,-104.420
9643,-0.3921,0.4956,-0.6782,7.568,-5.859,-1.038,145.778,22.456,-104.447
9653,-0.3940,0.4790,-0.6895,7.690,-4.272,-0.671,145.838,22.522,-104.464
9663,-0.4009,0.4775,-0.7061,5.005,-0.977,0.732,145.882,22.549,-104.480
9673,-0.4019,0.4922,-0.7227,1.038,3.540,2.258,145.893,22.533,-104.474
9683,-0.3906,0.5156,-0.7422,-2.380,7.507,3.357,145.871,22.462,-104.464
9693,-0.3862,0.5366,-0.7603,-4.028,10.193,3.723,145.827,22.357,-104.431
9703,-0.3828,0.5518,-0.7778,-3.540,11.597,3.784,145.794,22.236,-104.398
9713,-0.3643,0.5532,-0.8008,-1.587,10.925,3.235,145.789,22.110,-104.359
9723,-0.3569,0.5557,-0.8398,-0.244,8.179,1.953,145.805,22.006,-104.326
9733,-0.3560,0.5659,-0.8818,-0.366,5.310,0.671,145.827,21.929,-104.299
9743,-0.3525,0.5806,-0.8989,-2.502,3.601,0.061,145.822,21.863,-104.282
9753,-0.3477,0.5933,-0.8994,-4.761,1.831,-0.305,145.789,21.808,-104.266
9763,-0.3516,0.5884,-0.8735,-4.517,-1.038,-1.099,145.750,21.791,-104.260
9773,-0.3711,0.5684,-0.8354,-2.197,-5.127,-2.319,145.723,21.830,-104.271
9783,-0.3789,0.5405,-0.8154,0.427,-8.728,-3.235,145.728,21.912,-104.299
9793,-0.3799,0.5098,-0.7881,1.953,-9.827,-3.540,145.750,22.011,-104.326
9803,-0.3750,0.4805,-0.7588,1.831,-9.216,-3.357,145.778,22.110,-104.354
9813,-0.3682,0.4673,-0.7437,0.427,-8.301,-2.991,145.794,22.203,-104.376
9823,-0.3730,0.4717,-0.7383,-1.526,-7.446,-1.953,145.783,22.286,-104.403
9833,-0.3740,0.4854,-0.7402,-2.869,-6.287,-0.366,145.750,22.346,-104.436
9843,-0.3682,0.5142,-0.7476,-3.296,-4.517,1.160,145.701,22.374,-104.474
9853,-0.3711,0.5396,-0.7539,-2.319,-2.441,2.319,145.651,22.374,-104.513
9863,-0.3843,0.5518,-0.7593,-0.488,-0.671,2.869,145.618,22.363,-104.540
9873,-0.3960,0.5571,-0.7686,0.549,0.671,2.808,145.602,22.341,-104.562
9883,-0.3931,0.5522,-0.7681,0.000,1.099,2.014,145.585,22.324,-104.573
9893,-0.3901,0.5547,-0.7656,-1.709,-0.183,0.549,145.547,22.324,-104.579
9903,-0.3940,0.5605,-0.7729,-3.113,-2.197,-0.671,145.503,22.346,-104.584
9914,-0.3887,0.5596,-0.7759,-3.052,-3.235,-1.221,145.453,22.379,-104.595
9923,-0.3794,0.5708,-0.7876,-1.953,-3.296,-1.526,145.421,22.401,-104.601
9933,-0.3716,0.5845,-0.7969,-0.305,-2.563,-1.648,145.399,22.418,-104.601
9943,-0.3696,0.5874,-0.7964,2.014,-1.831,-1.648,145.404,22.418,-104.601
9953,-0.3687,0.5825,-0.7954,3.906,-1.465,-2.197,145.426,22.423,-104.590
9963,-0.3687,0.5669,-0.8008,4.456,-1.404,-3.235,145.470,22.434,-104.568
9973,-0.3677,0.5508,-0.8008,2.991,-1.953,-4.578,145.514,22.462,-104.540
9983,-0.3794,0.5483,-0.7983,0.183,-3.296,-5.737,145.525,22.511,-104.507
9993,-0.3911,0.5469,-0.7886,-2.197,-4.761,-6.531,145.514,22.582,-104.480
10003,-0.3984,0.5430,-0.7681,-2.686,-5.554,-7.141,145.492,22.670,-104.453
10013,-0.4009,0.5303,-0.7529,-1.099,-6.409,-7.324,145.481,22.775,-104.425
10023,-0.4033,0.5156,-0.7437,1.282,-6.714,-7.141,145.503,22.879,-104.403
10033,-0.4053,0.5024,-0.7373,2.686,-5.615,-6.531,145.541,22.978,-104.376
10043,-0.4014,0.4854,-0.7202,2.441,-3.296,-5.676,145.580,23.055,-104.348
10053,-0.4028,0.4575,-0.7095,1.526,-1.770,-5.127,145.624,23.121,-104.310
10063,-0.4053,0.4575,-0.7148,-0.183,-0.854,-4.700,145.657,23.181,-104.277
10073,-0.4062,0.4702,-0.7339,-1.343,0.977,-3.235,145.673,23.209,-104.238
10083,-0.3955,0.4902,-0.7666,-1.160,4.089,-0.977,145.690,23.181,-104.205
10093,-0.3862,0.5166,-0.7944,-0.122,7.568,1.099,145.717,23.104,-104.167
10103,-0.3740,0.5415,-0.8105,1.282,9.827,2.136,145.750,22.989,-104.128
10113,-0.3682,0.5469,-0.8149,1.892,9.216,2.014,145.789,22.879,-104.090
10123,-0.3721,0.5439,-0.8257,0.671,5.554,1.038,145.811,22.808,-104.068
10133,-0.3848,0.5449,-0.8223,-1.587,0.977,0.244,145.805,22.780,-104.063
10143,-0.3984,0.5361,-0.8125,-3.052,-2.319,-0.061,145.778,22.797,-104.073
10153,-0.4053,0.5332,-0.8013,-3.784,-4.211,-0.427,145.739,22.835,-104.095
10163,-0.4165,0.5200,-0.7686,-2.869,-5.371,-0.793,145.701,22.896,-104.123
10173,-0.4087,0.5308,-0.7612,-1.282,-5.920,-0.977,145.673,22.956,-104.150
10183,-0.3677,0.5527,-0.7798,0.427,-3.723,-0.427,145.657,22.972,-104.167
10193,-0.3569,0.5469,-0.7798,0.549,-0.366,0.305,145.657,22.950,-104.172
10203,-0.3721,0.5581,-0.7817,-1.831,1.892,-0.183,145.629,22.917,-104.161
10213,-0.3877,0.5522,-0.7549,-5.249,2.441,-1.221,145.569,22.901,-104.134
10223,-0.4097,0.5410,-0.7202,-8.484,0.732,-1.953,145.470,22.917,-104.112
10233,-0.4126,0.5317,-0.7168,-8.911,-1.160,-2.502,145.366,22.961,-104.095
10243,-0.4082,0.5137,-0.7021,-6.409,-1.892,-2.441,145.294,23.011,-104.090
10253,-0.4033,0.4946,-0.7046,-1.953,-1.892,-2.136,145.272,23.060,-104.079
10263,-0.3789,0.5254,-0.7876,1.404,0.793,-1.038,145.300,23.049,-104.068
10273,-0.3496,0.5908,-0.9141,2.197,8.484,1.099,145.360,22.923,-104.024
10283,-0.3437,0.6470,-0.9673,-0.854,16.785,2.258,145.388,22.709,-103.942
10293,-0.3501,0.6763,-0.9492,-4.150,18.616,0.977,145.382,22.489,-103.832
10303,-0.3813,0.6099,-0.8398,-4.944,10.315,-2.930,145.355,22.401,-103.744
10313,-0.4224,0.5215,-0.7144,-6.958,-6.409,-8.179,145.283,22.527,-103.711
10323,-0.4346,0.4663,-0.6528,-8.484,-21.973,-11.902,145.179,22.835,-103.738
10333,-0.4336,0.4351,-0.6362,-6.836,-29.419,-11.292,145.085,23.203,-103.821
10343,-0.4014,0.4600,-0.7373,-2.686,-22.827,-6.653,145.052,23.439,-103.903
10353,-0.3779,0.5127,-0.8315,2.686,-3.784,-2.014,145.113,23.461,-103.909
10363,-0.3555,0.5537,-0.8452,4.700,14.771,1.831,145.206,23.291,-103.837
10373,-0.3154,0.6255,-0.9429,4.211,23.621,3.906,145.300,23.000,-103.722
10383,-0.3022,0.6777,-1.0449,1.160,22.827,2.197,145.377,22.709,-103.601
10393,-0.3467,0.6611,-1.0005,-4.822,14.282,-1.892,145.382,22.533,-103.497
10403,-0.3911,0.5728,-0.8301,-12.451,-2.136,-7.202,145.278,22.577,-103.447
10413,-0.4253,0.4316,-0.5718,-20.447,-24.902,-13.367,145.042,22.939,-103.480
10423,-0.4810,0.2939,-0.3853,-24.963,-47.974,-17.700,144.712,23.648,-103.623
10433,-0.5029,0.2588,-0.3188,-26.672,-58.411,-15.137,144.316,24.478,-103.854
10443,-0.4951,0.3242,-0.4233,-21.118,-46.082,-6.714,143.998,25.071,-104.090
10453,-0.4287,0.4609,-0.6426,-9.277,-9.766,5.432,143.860,25.153,-104.200
10463,-0.3833,0.5864,-0.7695,1.831,33.142,17.700,143.893,24.747,-104.145
10473,-0.3423,0.6792,-0.8579,7.751,60.059,23.743,144.020,24.055,-103.964
10483,-0.3193,0.6821,-0.9243,11.719,62.866,21.179,144.218,23.340,-103.749
10493,-0.3394,0.6948,-0.9634,7.507,44.312,13.977,144.355,22.830,-103.590
10503,-0.3784,0.7227,-0.9790,-1.221,15.747,5.249,144.355,22.621,-103.535
10513,-0.3921,0.6802,-0.8955,-6.592,-10.193,-1.953,144.256,22.676,-103.585
10523,-0.4072,0.5723,-0.7700,-2.991,-28.625,-6.653,144.174,22.950,-103.705
10533,-0.4019,0.4932,-0.6855,3.845,-37.781,-8.423,144.146,23.329,-103.876
10543,-0.3936,0.4609,-0.6729,10.071,-35.217,-7.690,144.201,23.681,-104.030
10553,-0.4023,0.4355,-0.6655,15.564,-20.813,-3.967,144.338,23.901,-104.128
10563,-0.4121,0.4272,-0.6724,18.066,-2.563,1.465,144.542,23.945,-104.156
10573,-0.4048,0.4624,-0.7319,17.090,12.939,6.531,144.750,23.818,-104.134
10583,-0.4102,0.5186,-0.8032,12.024,21.484,9.460,144.915,23.582,-104.084
10593,-0.4009,0.5771,-0.8516,5.249,21.790,9.949,144.992,23.329,-104.035
10603,-0.3613,0.5937,-0.8013,0.977,15.442,8.423,144.998,23.121,-104.013
10613,-0.3770,0.5444,-0.7280,0.122,1.526,4.944,144.965,23.071,-104.046
10623,-0.3950,0.5361,-0.7197,0.061,-10.498,1.404,144.921,23.159,-104.123
10633,-0.4111,0.5352,-0.7207,0.977,-15.015,0.244,144.877,23.291,-104.222
10643,-0.4141,0.5435,-0.7671,2.808,-10.437,2.197,144.871,23.368,-104.304
10653,-0.3853,0.5771,-0.8638,4.700,1.953,4.211,144.921,23.297,-104.332
10663,-0.3667,0.6338,-0.9180,2.930,14.526,4.944,144.970,23.104,-104.282
10673,-0.3457,0.6826,-0.9360,0.183,21.179,4.456,144.998,22.841,-104.194
10683,-0.3276,0.6992,-0.9233,-0.427,18.066,1.587,145.009,22.615,-104.095
10693,-0.3472,0.6646,-0.8491,-1.526,6.714,-2.869,144.992,22.527,-104.030
10703,-0.3809,0.6318,-0.7725,-4.150,-7.385,-7.629,144.915,22.615,-104.008
10713,-0.4106,0.5762,-0.6797,-4.639,-17.944,-10.498,144.811,22.841,-104.024
10723,-0.4404,0.4766,-0.5884,-1.282,-22.461,-11.108,144.745,23.159,-104.068
10733,-0.4409,0.4106,-0.5464,2.319,-19.470,-10.254,144.739,23.472,-104.095
10743,-0.4380,0.3818,-0.5391,6.104,-10.132,-7.629,144.800,23.698,-104.090
10753,-0.4336,0.3813,-0.5776,9.888,2.869,-3.296,144.932,23.780,-104.046
10763,-0.4067,0.4224,-0.6895,12.756,15.625,1.526,145.129,23.676,-103.958
10773,-0.3755,0.4810,-0.8223,12.390,25.513,5.676,145.338,23.412,-103.854
10783,-0.3604,0.5635,-0.9258,8.118,30.090,7.812,145.497,23.071,-103.738
10793,-0.3364,0.6274,-1.0010,3.906,29.114,7.385,145.607,22.720,-103.623
10803,-0.3062,0.6514,-1.0181,0.366,22.034,5.005,145.662,22.429,-103.535
10813,-0.3154,0.6426,-0.9995,-1.526,9.277,1.282,145.679,22.269,-103.486
10823,-0.3457,0.6294,-0.9722,-2.258,-4.395,-2.808,145.673,22.264,-103.491
10833,-0.3628,0.5669,-0.8901,-0.916,-14.771,-5.615,145.668,22.385,-103.530
10843,-0.3755,0.4814,-0.7749,1.465,-21.545,-6.714,145.679,22.599,-103.601
10853,-0.3848,0.4292,-0.6880,3.174,-25.024,-6.042,145.695,22.863,-103.700
10863,-0.4136,0.3867,-0.6304,4.700,-24.231,-3.357,145.723,23.143,-103.815
10873,-0.4482,0.3750,-0.6016,5.249,-18.555,-0.061,145.756,23.390,-103.931
10883,-0.4521,0.3916,-0.6035,5.127,-8.728,3.845,145.783,23.527,-104.019
10893,-0.4248,0.4229,-0.6357,4.822,2.136,7.751,145.816,23.522,-104.073
10903,-0.4043,0.4663,-0.7065,4.272,10.559,10.132,145.854,23.401,-104.101
10913,-0.3706,0.5288,-0.8091,1.526,15.442,11.169,145.876,23.187,-104.106
10923,-0.3462,0.6055,-0.8848,-2.808,16.907,11.475,145.849,22.928,-104.106
10933,-0.3394,0.6646,-0.9126,-5.981,15.198,10.864,145.767,22.681,-104.112
10943,-0.3403,0.7065,-0.9063,-6.531,9.888,8.606,145.657,22.495,-104.128
10953,-0.3525,0.7163,-0.8989,-4.333,2.563,4.883,145.563,22.390,-104.156
10963,-0.3696,0.6685,-0.8438,-1.465,-4.761,0.366,145.497,22.390,-104.189
10973,-0.3838,0.6025,-0.7642,-0.305,-11.292,-4.089,145.443,22.500,-104.222
10983,-0.4141,0.5361,-0.7095,-0.061,-14.893,-7.202,145.410,22.687,-104.249
10993,-0.4072,0.4897,-0.6841,-1.038,-14.465,-7.935,145.382,22.879,-104.271
11003,-0.4028,0.4878,-0.6841,-2.625,-10.437,-6.775,145.344,23.033,-104.271
11013,-0.3979,0.5312,-0.7021,-3.174,-3.845,-4.211,145.294,23.099,-104.260
11023,-0.3730,0.5469,-0.7192,0.488,3.296,-1.587,145.283,23.071,-104.222
11033,-0.3721,0.5562,-0.7437,3.906,7.812,-0.549,145.327,23.000,-104.172
11043,-0.3867,0.5503,-0.7715,5.005,9.766,-0.977,145.393,22.917,-104.101
11053,-0.3984,0.5166,-0.7676,2.808,9.644,-1.892,145.459,22.857,-104.024
11063,-0.4082,0.4980,-0.7656,-1.892,7.141,-3.113,145.481,22.824,-103.953
11073,-0.4053,0.4976,-0.7891,-6.226,4.761,-3.540,145.464,22.813,-103.892
11083,-0.3955,0.5186,-0.8354,-7.507,4.578,-2.869,145.437,22.786,-103.837
11093,-0.3809,0.5391,-0.8506,-5.859,5.798,-1.953,145.421,22.725,-103.788
11103,-0.3628,0.5205,-0.7896,-2.625,4.822,-1.465,145.426,22.676,-103.744
11113,-0.3652,0.4849,-0.7212,0.549,-0.122,-1.526,145.443,22.687,-103.733
11123,-0.3853,0.4565,-0.6816,2.380,-5.432,-1.038,145.464,22.764,-103.755
11133,-0.4062,0.4595,-0.6982,3.723,-6.165,0.549,145.497,22.841,-103.799
11143,-0.4150,0.4785,-0.7446,4.395,-1.160,2.930,145.547,22.857,-103.832
11153,-0.3975,0.5176,-0.8130,3.845,6.592,5.005,145.602,22.775,-103.837
11163,-0.3711,0.5786,-0.9082,1.892,13.428,6.042,145.651,22.593,-103.804
11173,-0.3291,0.6431,-0.9722,-1.343,16.724,6.104,145.662,22.352,-103.760
11183,-0.3130,0.6841,-0.9741,-2.563,13.733,4.272,145.646,22.137,-103.711
11193,-0.3242,0.6807,-0.9370,-0.732,5.066,0.916,145.629,22.028,-103.689
11203,-0.3437,0.6182,-0.8638,1.953,-5.676,-3.052,145.635,22.050,-103.700
11213,-0.3740,0.5103,-0.7251,3.357,-15.930,-6.592,145.646,22.225,-103.738
11223,-0.4038,0.4263,-0.6396,3.601,-22.827,-7.996,145.662,22.511,-103.804
11233,-0.4204,0.3877,-0.6001,2.136,-23.437,-6.226,145.668,22.819,-103.892
11244,-0.4175,0.3872,-0.5806,1.099,-17.029,-2.258,145.651,23.049,-103.975
11253,-0.3892,0.4482,-0.6343,1.831,-6.104,1.831,145.640,23.126,-104.030
11263,-0.3711,0.5137,-0.7217,4.883,7.385,5.798,145.673,23.027,-104.035
11273,-0.3804,0.5635,-0.7832,7.507,17.944,8.728,145.745,22.819,-104.002
11283,-0.3818,0.6001,-0.8379,7.812,22.095,9.277,145.833,22.560,-103.953
11293,-0.3740,0.6313,-0.9023,5.676,20.264,7.507,145.898,22.319,-103.898
11303,-0.3613,0.6523,-0.9512,1.404,15.869,4.395,145.931,22.110,-103.843
11313,-0.3560,0.6509,-0.9429,-3.113,8.972,0.732,145.915,21.984,-103.793
11323,-0.3315,0.6270,-0.8872,-6.104,-0.732,-2.930,145.849,21.956,-103.771
11333,-0.3418,0.5562,-0.7842,-7.080,-11.902,-6.348,145.761,22.066,-103.788
11343,-0.3809,0.4941,-0.7017,-5.310,-19.897,-8.972,145.684,22.297,-103.826
11353,-0.4170,0.4497,-0.6489,-2.441,-21.851,-9.094,145.635,22.582,-103.881
11363,-0.4360,0.4287,-0.6235,1.038,-17.273,-6.348,145.629,22.835,-103.925
11373,-0.4360,0.4258,-0.6396,4.883,-7.812,-2.380,145.673,22.978,-103.953
11383,-0.4146,0.4463,-0.6851,7.507,3.601,1.099,145.761,22.983,-103.942
11393,-0.3872,0.4751,-0.7573,7.874,12.878,3.540,145.882,22.863,-103.898
11403,-0.3599,0.5220,-0.8521,4.395,18.250,4.883,145.975,22.654,-103.826
11413,-0.3340,0.5713,-0.9302,-1.709,19.043,4.944,146.014,22.412,-103.755
11423,-0.3218,0.6069,-0.9536,-6.775,14.771,3.601,145.981,22.209,-103.700
11433,-0.3218,0.6118,-0.9385,-9.277,5.615,1.343,145.909,22.094,-103.678
11443,-0.3428,0.6104,-0.9082,-9.399,-5.493,-1.160,145.805,22.099,-103.700
11453,-0.3696,0.5913,-0.8662,-6.653,-13.123,-3.052,145.723,22.192,-103.755
11463,-0.3813,0.5601,-0.8164,-1.770,-15.869,-4.272,145.679,22.335,-103.810
11473,-0.3901,0.5361,-0.7734,3.967,-15.869,-4.822,145.695,22.495,-103.865
11483,-0.3940,0.5049,-0.7402,9.399,-14.709,-4.517,145.767,22.654,-103.914
11493,-0.3843,0.4824,-0.7285,12.146,-12.634,-3.601,145.876,22.786,-103.958
11503,-0.3765,0.4712,-0.7173,11.353,-10.010,-2.563,145.986,22.896,-103.997
11513,-0.3779,0.4712,-0.7114,7.141,-7.874,-1.526,146.047,22.978,-104.030
11523,-0.3857,0.4844,-0.7075,1.770,-6.409,-0.488,146.047,23.044,-104.068
11533,-0.3950,0.5010,-0.7090,-3.479,-4.761,0.427,145.986,23.093,-104.101
11543,-0.4072,0.5117,-0.6978,-7.324,-2.502,0.916,145.882,23.132,-104.123
11553,-0.4170,0.5205,-0.6919,-8.667,0.488,1.221,145.767,23.148,-104.128
11563,-0.4219,0.5176,-0.6904,-8.179,3.235,1.526,145.662,23.143,-104.123
11573,-0.4204,0.5200,-0.6992,-7.019,5.737,1.770,145.574,23.110,-104.106
11583,-0.4102,0.5210,-0.7207,-5.493,7.141,1.770,145.519,23.060,-104.079
11593,-0.3823,0.5361,-0.7661,-4.822,7.019,1.770,145.475,22.983,-104.052
11603,-0.3447,0.5635,-0.8232,-4.883,7.141,1.831,145.437,22.874,-104.024
11613,-0.3306,0.6089,-0.8877,-6.042,7.690,1.709,145.393,22.747,-103.991
11623,-0.3423,0.6396,-0.9106,-7.202,7.996,1.404,145.333,22.615,-103.953
11633,-0.3794,0.6426,-0.8521,-6.592,5.432,0.793,145.250,22.538,-103.925
11643,-0.4146,0.6006,-0.7690,-3.601,-0.793,-0.793,145.184,22.549,-103.925
11653,-0.4351,0.5405,-0.7100,0.427,-7.507,-3.113,145.157,22.665,-103.942
11663,-0.4160,0.4873,-0.6851,3.052,-11.047,-4.517,145.173,22.819,-103.969
11673,-0.3672,0.5044,-0.7715,3.052,-8.118,-3.967,145.212,22.896,-103.986
11683,-0.3467,0.5532,-0.8770,2.563,2.869,-2.136,145.278,22.841,-103.947
11693,-0.3447,0.6025,-0.8892,1.282,14.099,-0.427,145.333,22.676,-103.859
11703,-0.3423,0.6147,-0.8564,0.854,16.113,-0.183,145.366,22.500,-103.755
11713,-0.3745,0.5854,-0.8188,1.221,8.240,-2.380,145.399,22.423,-103.683
11723,-0.4062,0.5298,-0.7529,-0.977,-3.357,-5.371,145.393,22.495,-103.656
11733,-0.4502,0.4150,-0.6172,-3.479,-14.282,-7.751,145.360,22.742,-103.678
11744,-0.4702,0.3677,-0.5439,-5.127,-21.606,-8.728,145.294,23.099,-103.733
11753,-0.4634,0.3340,-0.5303,-2.991,-21.301,-5.676,145.256,23.434,-103.815
11763,-0.4331,0.3413,-0.5845,1.404,-11.292,0.244,145.289,23.621,-103.887
11773,-0.3677,0.3975,-0.6943,5.310,5.981,6.348,145.382,23.544,-103.903
11783,-0.3462,0.4668,-0.8066,7.507,23.376,11.475,145.514,23.258,-103.865
11793,-0.3384,0.5542,-0.9067,5.737,34.180,14.954,145.635,22.841,-103.788
11803,-0.3198,0.6382,-1.0000,2.258,34.973,14.771,145.706,22.396,-103.705
11813,-0.3037,0.6958,-1.0615,-1.953,27.222,11.597,145.723,22.017,-103.645
11823,-0.3091,0.7212,-1.0747,-4.822,14.587,7.385,145.684,21.769,-103.623
11833,-0.3164,0.7202,-1.0444,-6.104,0.061,2.380,145.613,21.682,-103.640
11843,-0.3354,0.6689,-0.9609,-5.676,-13.184,-2.075,145.530,21.742,-103.705
11853,-0.3501,0.6084,-0.8662,-2.686,-22.461,-4.944,145.464,21.918,-103.793
11863,-0.3647,0.5347,-0.7666,1.343,-27.100,-6.287,145.432,22.170,-103.903
11873,-0.3774,0.4678,-0.6621,3.418,-28.198,-6.104,145.415,22.462,-104.024
11883,-0.4033,0.4409,-0.5991,4.456,-26.428,-4.272,145.393,22.758,-104.150
11893,-0.4248,0.4443,-0.5771,5.493,-20.569,-1.282,145.377,23.011,-104.266
11903,-0.4360,0.4487,-0.5811,6.165,-11.414,1.770,145.371,23.170,-104.348
11915,-0.4229,0.4634,-0.6152,5.615,-1.343,3.723,145.388,23.214,-104.392
11923,-0.4160,0.4980,-0.6602,2.991,6.714,4.578,145.393,23.170,-104.392
11933,-0.4131,0.5308,-0.7026,-0.549,12.146,5.676,145.371,23.060,-104.365
11943,-0.4014,0.5635,-0.7466,-4.028,14.893,6.409,145.322,22.906,-104.332
11953,-0.3916,0.6069,-0.7881,-6.714,14.954,5.615,145.245,22.736,-104.288
11963,-0.3848,0.6367,-0.8184,-6.958,13.306,3.662,145.162,22.582,-104.238
11973,-0.3687,0.6431,-0.8369,-5.249,10.803,1.160,145.102,22.456,-104.183
11983,-0.3481,0.6401,-0.8413,-2.625,7.385,-1.709,145.080,22.363,-104.123
11993,-0.3491,0.6187,-0.8223,1.404,2.869,-4.089,145.091,22.330,-104.068
12003,-0.3555,0.5728,-0.7969,6.287,-1.465,-5.310,145.162,22.346,-104.030
12013,-0.3755,0.5298,-0.7764,9.583,-4.028,-5.859,145.272,22.407,-104.002
12023,-0.4004,0.5044,-0.7656,9.399,-3.967,-5.676,145.388,22.484,-103.980
12033,-0.3960,0.5010,-0.7598,6.531,-1.770,-4.517,145.475,22.533,-103.947
12043,-0.3872,0.5176,-0.7593,3.906,0.916,-3.357,145.530,22.544,-103.914
12053,-0.3755,0.5317,-0.7710,3.723,3.174,-2.502,145.580,22.527,-103.870
12063,-0.3711,0.5303,-0.7939,5.249,4.761,-1.953,145.657,22.489,-103.826
12073,-0.3623,0.5146,-0.8149,5.737,6.165,-1.587,145.756,22.429,-103.771
12083,-0.3437,0.4956,-0.8208,2.747,6.226,-1.709,145.833,22.357,-103.722
12093,-0.3452,0.5005,-0.8477,-4.211,4.700,-1.526,145.844,22.297,-103.678
12103,-0.3501,0.5190,-0.8687,-12.878,3.479,-1.099,145.761,22.242,-103.645
12113,-0.3628,0.5552,-0.8638,-20.386,2.991,-1.221,145.585,22.198,-103.618
12123,-0.3672,0.5986,-0.8281,-22.644,1.709,-1.465,145.355,22.165,-103.596
12133,-0.3726,0.6104,-0.7998,-15.991,-0.366,-1.770,145.173,22.159,-103.579
12143,-0.3789,0.5811,-0.7808,-3.357,-1.892,-2.258,145.124,22.181,-103.574
12153,-0.3901,0.5151,-0.7515,8.545,-2.869,-2.686,145.217,22.231,-103.568
12163,-0.3926,0.4541,-0.7114,13.306,-4.639,-2.441,145.371,22.308,-103.574
12173,-0.3960,0.4282,-0.6924,11.230,-6.714,-1.038,145.497,22.407,-103.607
12183,-0.4028,0.4302,-0.6890,7.263,-6.531,1.160,145.574,22.495,-103.656
12193,-0.4023,0.4487,-0.6997,5.371,-3.601,3.418,145.624,22.533,-103.705
12203,-0.3872,0.4873,-0.7148,5.371,0.671,4.944,145.662,22.516,-103.749
12213,-0.3740,0.5073,-0.7300,7.812,3.906,5.737,145.728,22.456,-103.777
12223,-0.3789,0.5103,-0.7515,10.681,5.493,6.042,145.827,22.379,-103.793
12233,-0.3779,0.5190,-0.7876,11.597,6.592,6.409,145.942,22.286,-103.815
12244,-0.3804,0.5278,-0.8403,10.010,8.423,6.714,146.058,22.165,-103.821
12253,-0.3682,0.5464,-0.8735,5.798,9.399,6.592,146.135,22.028,-103.826
12263,-0.3535,0.5767,-0.8994,0.732,7.874,5.798,146.151,21.896,-103.832
12273,-0.3271,0.6094,-0.9048,-3.113,3.967,4.272,146.113,21.786,-103.843
12283,-0.3193,0.6323,-0.8794,-5.310,-1.587,2.319,146.030,21.731,-103.876
12293,-0.3442,0.6338,-0.8511,-4.333,-7.019,-0.122,145.948,21.753,-103.914
12303,-0.3589,0.6128,-0.8081,-2.075,-10.071,-2.319,145.876,21.824,-103.953
12313,-0.3706,0.5664,-0.7695,0.977,-10.254,-3.967,145.854,21.923,-103.980
12323,-0.3843,0.5342,-0.7437,2.686,-8.606,-4.578,145.865,22.028,-103.991
12333,-0.3901,0.5083,-0.7246,2.747,-5.981,-4.089,145.882,22.121,-103.991
12343,-0.4009,0.4814,-0.7100,1.648,-3.357,-3.296,145.898,22.192,-103.986
12353,-0.4053,0.4785,-0.7031,-0.610,-2.075,-2.930,145.898,22.258,-103.969
12363,-0.4058,0.4971,-0.7217,-2.197,-1.465,-2.258,145.876,22.313,-103.958
12373,-0.3936,0.5010,-0.7349,-1.831,-0.061,-1.221,145.860,22.335,-103.947
12383,-0.3818,0.4932,-0.7261,-1.038,1.282,-0.244,145.854,22.335,-103.936
12393,-0.3760,0.5015,-0.7515,0.244,2.441,0.793,145.865,22.313,-103.931
12403,-0.3726,0.5098,-0.7803,1.892,5.127,2.014,145.898,22.258,-103.920
12413,-0.3628,0.5273,-0.8032,2.747,8.179,2.808,145.942,22.159,-103.892
12423,-0.3677,0.5366,-0.8164,2.747,8.972,2.625,145.986,22.055,-103.865
12433,-0.3711,0.5459,-0.8394,1.526,7.629,2.014,146.025,21.962,-103.832
12443,-0.3628,0.5425,-0.8374,-0.854,5.676,1.404,146.030,21.890,-103.810
12453,-0.3584,0.5479,-0.8359,-3.723,3.296,0.732,146.008,21.835,-103.799
12463,-0.3589,0.5654,-0.8359,-5.493,1.282,0.366,145.953,21.802,-103.793
12473,-0.3623,0.5596,-0.8013,-4.395,-0.610,0.305,145.898,21.791,-103.799
12483,-0.3784,0.5337,-0.7769,-0.854,-3.235,-0.366,145.882,21.819,-103.815
12493,-0.3809,0.5132,-0.7842,2.319,-5.127,-0.854,145.904,21.868,-103.843
12503,-0.3726,0.4604,-0.7598,4.272,-5.127,-0.366,145.964,21.923,-103.870
12513,-0.3696,0.4307,-0.7446,3.418,-4.700,0.549,146.025,21.973,-103.903
12523,-0.3633,0.4517,-0.7705,0.305,-2.930,2.625,146.052,21.984,-103.942
12533,-0.3623,0.4995,-0.7896,-3.235,1.221,5.798,146.019,21.934,-103.986
12543,-0.3628,0.5674,-0.8042,-5.798,5.249,8.057,145.931,21.830,-104.030
12553,-0.3687,0.6240,-0.8291,-6.165,7.080,8.301,145.833,21.703,-104.057
12563,-0.3579,0.6523,-0.8408,-5.310,6.348,6.531,145.734,21.583,-104.079
12573,-0.3428,0.6460,-0.8330,-4.883,2.869,3.235,145.646,21.506,-104.090
12583,-0.3462,0.6128,-0.8018,-5.859,-2.075,-0.732,145.558,21.500,-104.095
12593,-0.3618,0.5879,-0.7822,-6.409,-6.470,-3.906,145.470,21.561,-104.101
12603,-0.3779,0.5654,-0.7725,-5.249,-8.118,-5.188,145.399,21.660,-104.106
12613,-0.3882,0.5415,-0.7637,-2.441,-7.080,-5.005,145.366,21.753,-104.101
12623,-0.3940,0.5142,-0.7500,0.488,-4.883,-4.333,145.377,21.835,-104.095
12633,-0.3892,0.4766,-0.7100,2.563,-3.296,-3.479,145.415,21.907,-104.084
12643,-0.3921,0.4521,-0.6885,3.967,-3.601,-2.502,145.464,21.984,-104.084
12653,-0.3916,0.4478,-0.7012,4.761,-3.723,-1.282,145.530,22.055,-104.095
12663,-0.4009,0.4561,-0.7212,4.822,-1.526,0.854,145.591,22.094,-104.112
12673,-0.3950,0.4717,-0.7524,3.906,2.930,3.357,145.646,22.072,-104.123
12683,-0.3628,0.5283,-0.8047,1.709,7.812,4.944,145.679,21.962,-104.123
12693,-0.3228,0.5815,-0.8442,0.061,10.437,5.615,145.679,21.802,-104.106
12703,-0.3252,0.6069,-0.8765,0.610,9.216,5.005,145.684,21.649,-104.095
12713,-0.3447,0.6206,-0.9038,1.404,6.042,3.479,145.701,21.539,-104.090
12723,-0.3647,0.6147,-0.9155,1.526,2.869,1.587,145.723,21.478,-104.084
12733,-0.3706,0.5991,-0.9067,-0.427,-0.183,-0.305,145.728,21.451,-104.084
12744,-0.3618,0.5884,-0.8838,-3.296,-3.906,-2.197,145.701,21.473,-104.090
12753,-0.3545,0.5728,-0.8296,-5.066,-7.812,-3.418,145.640,21.533,-104.106
12763,-0.3579,0.5420,-0.7603,-2.869,-11.841,-4.028,145.585,21.649,-104.145
12773,-0.3716,0.5103,-0.7173,1.526,-14.160,-4.150,145.574,21.797,-104.194
12783,-0.3823,0.4766,-0.6982,5.249,-13.123,-3.601,145.607,21.951,-104.238
12793,-0.3906,0.4507,-0.6978,6.226,-9.766,-2.502,145.673,22.077,-104.277
12803,-0.3862,0.4355,-0.7246,4.578,-5.066,-1.099,145.745,22.148,-104.299
12813,-0.3843,0.4438,-0.7583,0.427,-0.427,0.732,145.783,22.165,-104.310
12823,-0.3789,0.4741,-0.7920,-3.662,2.502,2.930,145.778,22.126,-104.321
12833,-0.3721,0.5112,-0.8267,-5.554,3.601,4.578,145.739,22.061,-104.337
12843,-0.3613,0.5439,-0.8418,-5.310,2.747,5.432,145.690,21.984,-104.370
12853,-0.3467,0.5610,-0.8354,-3.662,0.122,5.493,145.635,21.923,-104.420
12863,-0.3501,0.5596,-0.8213,-1.587,-3.784,4.944,145.596,21.901,-104.485
12873,-0.3569,0.5571,-0.8052,-0.427,-6.836,4.272,145.563,21.918,-104.562
12883,-0.3691,0.5522,-0.7861,-0.671,-7.751,3.845,145.519,21.951,-104.645
12893,-0.3735,0.5601,-0.7754,-1.709,-7.141,3.601,145.459,21.978,-104.722
12903,-0.3843,0.5767,-0.7695,-2.686,-6.165,3.113,145.388,22.011,-104.788
12913,-0.3857,0.6040,-0.7690,-2.747,-5.737,2.441,145.300,22.039,-104.843
12923,-0.3818,0.6333,-0.7661,-1.648,-6.042,1.587,145.217,22.072,-104.892
12933,-0.3755,0.6279,-0.7285,0.732,-7.202,0.305,145.146,22.121,-104.941
12943,-0.3750,0.6060,-0.6963,3.113,-8.911,-1.526,145.102,22.198,-104.980
12953,-0.3887,0.5752,-0.6729,3.967,-8.606,-3.113,145.074,22.302,-105.007
12963,-0.3940,0.5493,-0.6558,3.113,-5.310,-3.601,145.052,22.390,-105.007
12973,-0.4141,0.5371,-0.6562,1.831,0.305,-3.113,145.042,22.440,-104.980
12983,-0.4243,0.5366,-0.6685,1.648,6.287,-2.319,145.042,22.445,-104.919
12993,-0.4150,0.5449,-0.7036,3.235,11.292,-1.770,145.080,22.390,-104.832
13003,-0.4116,0.5420,-0.7285,5.249,14.221,-1.709,145.151,22.302,-104.733
13013,-0.3921,0.5361,-0.7466,5.920,13.916,-2.319,145.239,22.209,-104.623
13023,-0.3804,0.5298,-0.7676,5.310,11.353,-3.479,145.333,22.137,-104.524
13033,-0.3608,0.5166,-0.7935,3.296,9.033,-4.028,145.415,22.072,-104.431
13043,-0.3403,0.5215,-0.8359,0.916,8.850,-3.967,145.486,21.995,-104.343
13053,-0.3452,0.5308,-0.8765,-1.953,10.254,-2.563,145.530,21.890,-104.260
13063,-0.3730,0.5264,-0.8667,-1.831,8.667,-2.441,145.569,21.819,-104.183
13073,-0.3848,0.5215,-0.8594,-0.427,5.554,-2.441,145.618,21.775,-104.128
13083,-0.3770,0.5098,-0.8521,2.014,2.319,-2.197,145.684,21.758,-104.095
13093,-0.3511,0.4897,-0.8330,3.540,0.000,-1.892,145.767,21.753,-104.079
13103,-0.3271,0.4629,-0.8086,3.113,-2.258,-1.526,145.844,21.753,-104.079
13113,-0.3286,0.4771,-0.8042,0.793,-3.906,-0.916,145.876,21.769,-104.090
13123,-0.3428,0.4902,-0.7949,-0.305,-3.845,0.671,145.887,21.780,-104.123
13133,-0.3579,0.5107,-0.7891,0.122,-2.625,2.319,145.887,21.780,-104.156
13143,-0.3726,0.5259,-0.7769,1.038,-1.526,3.540,145.882,21.769,-104.200
13153,-0.3906,0.5347,-0.7612,1.709,-0.732,4.028,145.876,21.764,-104.238
13163,-0.3970,0.5464,-0.7544,0.977,-0.183,3.723,145.854,21.758,-104.271
13173,-0.3960,0.5610,-0.7505,-0.488,0.732,3.174,145.816,21.747,-104.299
13183,-0.3833,0.5605,-0.7485,-1.160,2.014,2.441,145.772,21.720,-104.310
13193,-0.3618,0.5640,-0.7578,-0.977,2.258,1.526,145.739,21.687,-104.310
13203,-0.3569,0.5640,-0.7817,-0.305,1.953,1.099,145.723,21.654,-104.304
13213,-0.3545,0.5820,-0.8062,-0.427,2.258,0.916,145.706,21.610,-104.299
13223,-0.3545,0.6001,-0.8149,-0.183,2.991,0.488,145.690,21.555,-104.288
13233,-0.3613,0.6099,-0.8062,0.732,2.930,-0.549,145.673,21.517,-104.266
13244,-0.3657,0.6079,-0.8047,1.709,2.258,-2.014,145.679,21.495,-104.233
13253,-0.3745,0.5864,-0.8096,2.563,1.709,-3.784,145.701,21.495,-104.189
13263,-0.3779,0.5566,-0.8062,2.014,0.610,-5.554,145.739,21.517,-104.134
13273,-0.3774,0.5205,-0.7954,-0.305,-0.610,-6.836,145.767,21.561,-104.079
13283,-0.3789,0.4980,-0.7896,-2.686,-1.770,-7.080,145.778,21.616,-104.024
13293,-0.3735,0.4771,-0.7886,-3.174,-2.991,-6.592,145.794,21.682,-103.986
13303,-0.3716,0.4644,-0.7871,-1.831,-3.357,-5.249,145.822,21.747,-103.958
13313,-0.3662,0.4741,-0.7876,-1.038,-3.723,-3.906,145.844,21.797,-103.947
13323,-0.3643,0.4761,-0.7930,-0.366,-3.418,-2.136,145.871,21.835,-103.947
13333,-0.3613,0.4771,-0.7998,-0.061,-2.563,-0.427,145.898,21.852,-103.958
13343,-0.3564,0.4819,-0.8013,-0.427,-2.380,0.732,145.920,21.857,-103.980
13353,-0.3599,0.4824,-0.8076,-1.160,-2.686,1.587,145.931,21.863,-104.013
13363,-0.3726,0.4956,-0.8105,-2.563,-2.563,2.197,145.915,21.863,-104.046
13373,-0.3711,0.5127,-0.8110,-3.906,-2.502,3.235,145.882,21.863,-104.090
13383,-0.3701,0.5308,-0.8042,-4.028,-2.930,4.150,145.827,21.852,-104.145
13393,-0.3657,0.5522,-0.7920,-3.357,-3.906,4.333,145.767,21.852,-104.205
13403,-0.3623,0.5649,-0.7671,-1.648,-5.310,3.967,145.701,21.863,-104.277
13413,-0.3755,0.5708,-0.7446,0.122,-6.165,3.357,145.646,21.890,-104.343
13423,-0.3838,0.5708,-0.7319,1.831,-5.371,2.625,145.607,21.929,-104.398
13433,-0.3867,0.5732,-0.7324,3.479,-2.747,1.831,145.591,21.945,-104.431
13443,-0.3833,0.5601,-0.7432,4.028,0.183,1.160,145.602,21.945,-104.442
13453,-0.3765,0.5645,-0.7598,2.380,2.075,0.671,145.607,21.918,-104.431
13463,-0.3770,0.5674,-0.7861,-0.061,2.991,0.610,145.596,21.885,-104.420
13473,-0.3843,0.5757,-0.7959,-2.319,3.540,1.587,145.563,21.841,-104.414
13483,-0.3838,0.5815,-0.8013,-3.296,4.150,3.235,145.514,21.786,-104.414
13493,-0.3794,0.5732,-0.7896,-2.258,4.944,4.761,145.470,21.709,-104.431
13503,-0.3696,0.5518,-0.7744,0.244,5.005,5.432,145.459,21.638,-104.447
13513,-0.3638,0.5312,-0.7705,3.296,4.272,5.066,145.481,21.566,-104.464
13523,-0.3569,0.5229,-0.7842,5.371,2.930,4.272,145.536,21.511,-104.485
13534,-0.3447,0.5225,-0.7930,5.676,0.977,3.174,145.596,21.473,-104.507
13544,-0.3545,0.5127,-0.7876,5.127,-1.038,1.770,145.651,21.462,-104.529
13554,-0.3711,0.5112,-0.7847,3.662,-1.892,0.305,145.695,21.478,-104.546
13564,-0.3794,0.5195,-0.7827,1.953,-1.099,-0.977,145.723,21.495,-104.540
13573,-0.4058,0.5000,-0.7466,0.916,-0.549,-2.136,145.745,21.539,-104.524
13584,-0.4155,0.4756,-0.7144,0.122,-1.892,-3.174,145.756,21.616,-104.507
13593,-0.4082,0.4609,-0.6924,-0.854,-4.333,-3.601,145.756,21.720,-104.502
13604,-0.3965,0.4634,-0.6880,-1.770,-6.165,-3.174,145.739,21.824,-104.513
13613,-0.3857,0.4756,-0.7061,-2.136,-4.761,-1.770,145.717,21.896,-104.524
13624,-0.3662,0.5137,-0.7480,-1.343,-0.183,0.122,145.701,21.901,-104.529
13634,-0.3301,0.5469,-0.8105,1.160,6.470,2.197,145.723,21.802,-104.507
13644,-0.3179,0.5752,-0.8628,3.174,12.024,3.540,145.772,21.638,-104.469
13654,-0.3188,0.6084,-0.8975,3.784,13.672,3.845,145.827,21.451,-104.420
13664,-0.3267,0.6265,-0.9326,3.723,10.254,2.869,145.882,21.297,-104.381
13674,-0.3267,0.6343,-0.9487,1.282,4.456,1.099,145.904,21.204,-104.365
13684,-0.3369,0.6294,-0.9365,-0.244,-2.014,-1.282,145.904,21.182,-104.365
13694,-0.3423,0.6069,-0.9082,-0.977,-8.057,-3.418,145.893,21.226,-104.381
13704,-0.3481,0.5840,-0.8652,-0.916,-13.611,-5.249,145.871,21.341,-104.420
13714,-0.3599,0.5547,-0.8203,0.549,-17.395,-6.531,145.860,21.506,-104.464
13724,-0.3701,0.5229,-0.7676,3.052,-18.127,-7.019,145.871,21.698,-104.513
13734,-0.3809,0.5039,-0.7187,5.066,-15.747,-6.226,145.898,21.879,-104.551
13744,-0.3916,0.4849,-0.6934,6.165,-11.292,-4.822,145.942,22.028,-104.579
13754,-0.3999,0.4687,-0.6787,6.287,-6.165,-3.418,145.992,22.132,-104.584
13764,-0.4033,0.4609,-0.6816,5.737,-1.770,-2.258,146.052,22.198,-104.573
13774,-0.4053,0.4648,-0.6992,3.967,1.099,-0.916,146.102,22.231,-104.557
13784,-0.4019,0.4805,-0.7266,1.099,3.296,0.488,146.124,22.225,-104.546
13794,-0.3887,0.5054,-0.7397,-1.282,5.432,1.648,146.113,22.187,-104.524
13804,-0.3843,0.5308,-0.7607,-2.197,6.836,2.563,146.085,22.121,-104.507
13814,-0.3770,0.5366,-0.7769,-0.671,7.751,2.930,146.080,22.033,-104.485
13824,-0.3726,0.5430,-0.7876,0.793,7.874,2.441,146.091,21.951,-104.464
13834,-0.3662,0.5381,-0.8018,1.282,7.263,1.709,146.113,21.868,-104.436
13844,-0.3491,0.5405,-0.8315,0.244,6.165,0.854,146.135,21.791,-104.403
13854,-0.3462,0.5586,-0.8574,-1.160,4.333,-0.366,146.146,21.725,-104.376
13864,-0.3574,0.5674,-0.8643,-1.404,2.319,-1.404,146.146,21.687,-104.348
13874,-0.3677,0.5645,-0.8633,-0.671,0.061,-2.014,146.151,21.676,-104.332
13884,-0.3730,0.5542,-0.8569,0.000,-1.953,-2.380,146.168,21.687,-104.321
13894,-0.3760,0.5405,-0.8164,0.305,-3.601,-2.563,146.173,21.725,-104.321
13904,-0.3735,0.5195,-0.7632,0.244,-5.920,-2.625,146.168,21.791,-104.332
13916,-0.3735,0.4912,-0.7139,0.732,-8.118,-2.563,146.157,21.890,-104.359
13924,-0.3765,0.4634,-0.6787,1.587,-8.972,-2.380,146.157,22.006,-104.387
13934,-0.3872,0.4517,-0.6743,2.502,-7.324,-1.648,146.168,22.110,-104.420
13944,-0.3955,0.4595,-0.6895,2.136,-2.808,0.366,146.184,22.165,-104.436
13954,-0.3921,0.4858,-0.7275,1.160,4.578,3.174,146.195,22.126,-104.442
13964,-0.3833,0.5542,-0.8008,0.427,12.451,5.066,146.201,21.989,-104.409
13974,-0.3643,0.6172,-0.8765,0.732,19.470,5.737,146.223,21.764,-104.343
13984,-0.3491,0.6440,-0.9111,0.427,23.315,4.883,146.245,21.506,-104.249
13994,-0.3320,0.6279,-0.8940,0.000,20.447,1.587,146.272,21.281,-104.139
14004,-0.3457,0.5869,-0.8452,-1.831,10.132,-2.869,146.272,21.187,-104.057
14014,-0.3799,0.5469,-0.7959,-4.211,-2.136,-5.920,146.239,21.237,-104.013
14024,-0.3799,0.5269,-0.7612,-4.211,-10.193,-6.409,146.184,21.368,-104.019
14034,-0.3813,0.5112,-0.7397,-0.366,-11.292,-4.700,146.168,21.506,-104.046
14044,-0.3818,0.5186,-0.7617,4.517,-6.836,-2.258,146.201,21.583,-104.063
14054,-0.3354,0.5591,-0.8657,9.338,2.747,-0.671,146.310,21.528,-104.041
14064,-0.3213,0.5664,-0.8887,11.597,13.184,0.427,146.464,21.374,-103.969
14074,-0.3389,0.5210,-0.8325,8.484,15.930,0.305,146.596,21.215,-103.876
14084,-0.3516,0.4731,-0.7729,1.648,8.850,-2.136,146.656,21.154,-103.804
14094,-0.3877,0.4341,-0.6963,-6.348,-2.380,-4.761,146.618,21.242,-103.777
14104,-0.4199,0.4053,-0.6353,-9.155,-10.193,-4.944,146.530,21.429,-103.793
14114,-0.4302,0.3955,-0.6187,-6.653,-11.536,-2.380,146.453,21.627,-103.837
14124,-0.4043,0.4126,-0.6636,-0.854,-6.653,1.770,146.442,21.731,-103.892
14134,-0.3652,0.4453,-0.7432,7.324,3.479,5.859,146.530,21.682,-103.925
14144,-0.3330,0.4966,-0.8311,13.306,14.526,9.460,146.689,21.484,-103.925
14154,-0.3110,0.5698,-0.9521,13.733,21.240,11.536,146.854,21.187,-103.903
14164,-0.2949,0.6401,-1.0537,10.498,24.048,11.108,146.992,20.852,-103.859
14174,-0.3018,0.6699,-1.0752,5.493,21.118,8.057,147.074,20.555,-103.810
14184,-0.3125,0.6807,-1.0425,-1.648,11.292,3.601,147.068,20.380,-103.777
14194,-0.3281,0.6343,-0.9453,-8.240,-3.906,-1.404,146.975,20.374,-103.788
14204,-0.3574,0.5854,-0.8086,-12.329,-20.813,-6.897,146.805,20.577,-103.848
14214,-0.3750,0.5142,-0.6763,-10.254,-33.875,-10.376,146.624,20.945,-103.953
14224,-0.3931,0.4351,-0.5933,-3.357,-39.612,-9.888,146.514,21.401,-104.095
14234,-0.3984,0.4102,-0.6016,4.761,-33.997,-7.324,146.503,21.797,-104.233
14244,-0.4028,0.3960,-0.6167,11.414,-17.761,-3.296,146.596,22.028,-104.310
14254,-0.3994,0.4009,-0.6416,13.855,0.610,2.075,146.739,22.072,-104.326
14264,-0.3818,0.4434,-0.7187,10.681,13.550,6.531,146.871,21.945,-104.304
14274,-0.3682,0.5288,-0.8145,2.197,20.447,8.118,146.909,21.720,-104.255
14284,-0.3511,0.6182,-0.8677,-6.226,21.667,6.653,146.849,21.473,-104.189
14294,-0.3442,0.6553,-0.9087,-9.277,17.151,3.479,146.755,21.264,-104.117
14304,-0.3418,0.6538,-0.9326,-9.399,10.315,-0.061,146.667,21.132,-104.057
14314,-0.3384,0.6470,-0.9175,-8.667,3.296,-3.296,146.580,21.083,-104.008
14324,-0.3433,0.6191,-0.8926,-6.836,-2.808,-5.737,146.514,21.099,-103.975
14334,-0.3545,0.5679,-0.8369,-4.150,-6.836,-7.019,146.470,21.176,-103.953
14344,-0.3667,0.5117,-0.7520,-0.732,-9.583,-7.812,146.464,21.308,-103.936
14354,-0.3730,0.4473,-0.6797,3.479,-11.353,-7.507,146.497,21.473,-103.936
14364,-0.3828,0.4028,-0.6318,5.371,-11.597,-5.615,146.558,21.660,-103.958
14374,-0.3936,0.3931,-0.6401,6.287,-8.972,-3.113,146.629,21.808,-103.980
14384,-0.3838,0.4307,-0.7314,6.042,-1.770,-0.549,146.711,21.852,-103.986
14394,-0.3721,0.4844,-0.8027,4.761,8.789,1.892,146.794,21.769,-103.953
14404,-0.3701,0.5449,-0.8525,1.709,16.235,3.967,146.838,21.594,-103.892
14414,-0.3638,0.5781,-0.8784,-0.977,17.639,4.639,146.849,21.396,-103.832
14424,-0.3574,0.5776,-0.8765,-2.563,13.428,3.174,146.843,21.242,-103.782
14434,-0.3511,0.5405,-0.8301,-4.028,5.249,0.610,146.810,21.182,-103.755
14444,-0.3501,0.5127,-0.7788,-5.981,-3.540,-1.526,146.750,21.209,-103.760
14454,-0.3584,0.4990,-0.7461,-6.653,-8.972,-1.892,146.662,21.302,-103.799
14464,-0.3657,0.4966,-0.7539,-3.540,-8.606,-0.854,146.613,21.385,-103.843
14474,-0.3589,0.5322,-0.8174,1.465,-2.319,0.610,146.624,21.390,-103.859
14484,-0.3599,0.5483,-0.8550,6.592,6.470,1.709,146.706,21.308,-103.837
14494,-0.3579,0.5610,-0.8647,8.423,11.536,2.075,146.810,21.176,-103.788
14504,-0.3530,0.5425,-0.8364,6.165,9.949,1.221,146.887,21.072,-103.738
14514,-0.3560,0.5166,-0.7930,1.648,3.296,-0.488,146.915,21.044,-103.716
14524,-0.3691,0.4956,-0.7617,-1.343,-3.906,-1.709,146.898,21.094,-103.727
14534,-0.3745,0.4731,-0.7383,-1.831,-7.202,-0.854,146.871,21.182,-103.760
14544,-0.3696,0.4482,-0.7319,-0.488,-5.920,0.916,146.871,21.248,-103.804
14554,-0.3574,0.4644,-0.7515,0.183,-2.014,2.747,146.871,21.259,-103.837
14564,-0.3418,0.5068,-0.7759,1.038,2.930,4.211,146.876,21.198,-103.859
14574,-0.3555,0.5381,-0.8013,3.601,6.409,5.127,146.898,21.110,-103.870
14584,-0.3545,0.5645,-0.8369,7.019,7.874,5.188,146.959,20.995,-103.870
14594,-0.3452,0.5718,-0.8789,9.827,7.263,4.211,147.057,20.885,-103.865
14604,-0.3340,0.5708,-0.9072,8.789,5.554,2.625,147.156,20.792,-103.854
14614,-0.3428,0.5771,-0.9009,3.723,2.136,0.671,147.195,20.737,-103.848
14624,-0.3530,0.5884,-0.8765,-1.404,-1.648,-1.465,147.173,20.737,-103.843
14634,-0.3574,0.5908,-0.8320,-3.906,-5.005,-3.357,147.112,20.781,-103.843
14644,-0.3643,0.5937,-0.7881,-3.113,-7.629,-4.944,147.036,20.869,-103.843
14654,-0.3706,0.5669,-0.7559,0.671,-8.484,-6.226,147.008,20.978,-103.837
14664,-0.3643,0.5244,-0.7334,4.211,-7.507,-7.202,147.030,21.088,-103.815
14674,-0.3638,0.4863,-0.7139,5.005,-5.737,-7.507,147.079,21.193,-103.782
14684,-0.3789,0.4585,-0.7065,3.601,-3.540,-6.714,147.129,21.292,-103.744
14694,-0.3857,0.4619,-0.7163,1.404,-0.305,-5.066,147.162,21.352,-103.700
14704,-0.3843,0.4917,-0.7334,0.977,3.540,-3.113,147.178,21.357,-103.651
14714,-0.3828,0.5098,-0.7505,3.296,6.287,-1.709,147.217,21.330,-103.596
14724,-0.3755,0.5117,-0.7769,6.287,7.385,-1.404,147.288,21.286,-103.541
14734,-0.3652,0.5005,-0.7944,7.751,7.141,-2.014,147.393,21.237,-103.480
14744,-0.3579,0.4868,-0.8022,6.592,5.798,-2.686,147.491,21.198,-103.425
14754,-0.3584,0.4834,-0.8140,3.601,4.211,-2.991,147.563,21.176,-103.376
14764,-0.3501,0.4805,-0.8413,1.343,3.845,-2.991,147.623,21.143,-103.326
14774,-0.3398,0.4766,-0.8638,0.305,4.456,-2.625,147.678,21.099,-103.277
14784,-0.3394,0.4795,-0.8667,-1.038,4.700,-1.709,147.717,21.050,-103.233
14794,-0.3433,0.4790,-0.8638,-2.502,4.028,-0.732,147.739,21.000,-103.206
14804,-0.3462,0.4795,-0.8584,-3.845,2.930,-0.244,147.733,20.962,-103.184
14814,-0.3525,0.4697,-0.8350,-4.456,1.648,0.000,147.722,20.940,-103.173
14824,-0.3555,0.4678,-0.7998,-4.272,-0.671,0.549,147.700,20.940,-103.184
14834,-0.3599,0.4761,-0.7915,-2.014,-3.052,2.075,147.678,20.962,-103.222
14844,-0.3569,0.4751,-0.7974,2.625,-3.479,4.028,147.700,20.967,-103.277
14854,-0.3550,0.4727,-0.8042,7.324,-2.563,5.493,147.766,20.962,-103.343
14864,-0.3604,0.4707,-0.8101,8.789,-1.587,6.592,147.849,20.940,-103.409
14874,-0.3584,0.4834,-0.8174,6.409,-0.977,7.324,147.903,20.907,-103.480
14884,-0.3540,0.5063,-0.8184,3.052,-0.610,7.690,147.914,20.863,-103.557
14894,-0.3457,0.5303,-0.8223,1.282,-0.305,7.690,147.892,20.814,-103.629
14904,-0.3301,0.5630,-0.8442,1.953,0.061,7.202,147.870,20.748,-103.689
14914,-0.3257,0.5806,-0.8726,4.456,1.099,6.653,147.881,20.665,-103.744
14924,-0.3252,0.5801,-0.8999,6.958,1.526,5.493,147.931,20.588,-103.788
14934,-0.3237,0.5781,-0.9048,6.042,0.000,3.784,147.975,20.528,-103.821
14944,-0.3247,0.5840,-0.8779,1.404,-3.967,1.892,147.958,20.517,-103.859
14954,-0.3413,0.5933,-0.8374,-4.028,-8.179,-0.183,147.870,20.566,-103.903
14964,-0.3628,0.5991,-0.7822,-8.362,-10.681,-2.625,147.722,20.665,-103.942
14974,-0.3833,0.6069,-0.7388,-8.484,-10.986,-4.883,147.557,20.797,-103.958
14984,-0.3931,0.5898,-0.7178,-2.991,-9.277,-6.470,147.458,20.929,-103.953
14994,-0.3916,0.5503,-0.7124,3.784,-6.409,-7.446,147.458,21.050,-103.925
15004,-0.3926,0.5039,-0.7158,7.019,-3.479,-8.057,147.519,21.149,-103.870
15014,-0.3774,0.4687,-0.7173,4.700,-1.465,-8.179,147.585,21.231,-103.804
15024,-0.3794,0.4512,-0.7285,-1.221,-0.366,-7.874,147.601,21.302,-103.738
15034,-0.3853,0.4507,-0.7402,-6.470,0.977,-7.446,147.574,21.363,-103.661
15044,-0.3779,0.4644,-0.7559,-8.484,2.502,-6.653,147.524,21.396,-103.590
15054,-0.3687,0.4868,-0.7822,-7.080,3.723,-5.615,147.486,21.396,-103.519
15064,-0.3677,0.4839,-0.8101,-2.686,4.822,-4.639,147.502,21.379,-103.447
15074,-0.3657,0.4741,-0.8389,1.953,6.165,-4.089,147.579,21.346,-103.376
15084,-0.3472,0.4536,-0.8345,4.333,7.324,-3.296,147.689,21.286,-103.304
15094,-0.3467,0.4375,-0.8218,3.052,7.019,-2.197,147.783,21.231,-103.244
15104,-0.3560,0.4297,-0.8179,0.549,5.981,-1.160,147.849,21.187,-103.200
15114,-0.3579,0.4395,-0.8154,-1.099,4.700,0.000,147.887,21.149,-103.173
15124,-0.3437,0.4810,-0.8423,-1.038,3.174,0.793,147.903,21.099,-103.162
15134,-0.3403,0.5249,-0.8755,1.831,2.014,1.282,147.931,21.050,-103.162
15144,-0.3462,0.5527,-0.8979,5.615,0.854,1.343,147.991,21.006,-103.167
15154,-0.3408,0.5664,-0.9087,7.629,-1.160,0.854,148.063,20.978,-103.184
15164,-0.3301,0.5605,-0.8945,7.263,-3.723,0.000,148.123,20.973,-103.200
15174,-0.3398,0.5269,-0.8604,3.845,-7.324,-1.465,148.156,21.017,-103.233
15184,-0.3623,0.5049,-0.8159,-2.014,-11.353,-3.174,148.123,21.127,-103.266
15194,-0.3716,0.5039,-0.7812,-7.935,-14.221,-4.150,148.019,21.275,-103.310
15204,-0.3774,0.5049,-0.7373,-10.803,-14.893,-3.967,147.870,21.440,-103.359
15214,-0.3838,0.5122,-0.7114,-9.399,-14.526,-3.601,147.722,21.599,-103.409
15224,-0.3833,0.5264,-0.7432,-4.395,-12.756,-3.479,147.634,21.736,-103.447
15234,-0.3652,0.5459,-0.8237,0.671,-9.766,-4.456,147.623,21.830,-103.464
15245,-0.3408,0.5757,-0.8989,0.916,-8.545,-7.629,147.640,21.901,-103.447
15254,-0.3462,0.6069,-0.9546,-1.709,-13.794,-13.916,147.640,22.039,-103.398
15264,-0.3560,0.6157,-0.9360,-8.179,-21.545,-17.822,147.563,22.269,-103.359
15274,-0.3809,0.5986,-0.8545,-15.869,-31.128,-19.287,147.376,22.610,-103.365
15284,-0.4126,0.5732,-0.7534,-20.691,-39.856,-19.592,147.107,23.060,-103.420
15294,-0.4424,0.5322,-0.6641,-18.921,-43.884,-18.433,146.827,23.566,-103.508
15304,-0.4561,0.4702,-0.6157,-10.559,-39.063,-15.564,146.640,24.044,-103.601
15314,-0.4551,0.4082,-0.6040,0.793,-25.146,-11.353,146.624,24.390,-103.645
15324,-0.4385,0.3501,-0.6060,9.644,-6.104,-6.042,146.761,24.554,-103.629
15334,-0.4189,0.3325,-0.6323,12.634,11.597,0.000,146.970,24.516,-103.557
15344,-0.3979,0.3511,-0.6978,10.620,24.353,6.042,147.173,24.302,-103.469
15354,-0.3931,0.4062,-0.7681,6.531,30.823,10.010,147.327,23.994,-103.376
15364,-0.3911,0.4824,-0.8447,2.441,31.921,11.841,147.409,23.643,-103.299
15374,-0.3843,0.5425,-0.8994,-0.488,28.503,11.902,147.442,23.307,-103.239
15384,-0.3789,0.5791,-0.9326,-1.709,21.606,10.071,147.448,23.033,-103.206
15394,-0.3726,0.5923,-0.9556,-1.465,13.367,7.080,147.448,22.835,-103.195
15404,-0.3564,0.5791,-0.9478,-0.793,5.249,3.845,147.448,22.720,-103.195
15414,-0.3516,0.5444,-0.9194,-1.282,-2.502,0.793,147.448,22.692,-103.217
15424,-0.3608,0.5312,-0.8789,-4.150,-8.362,-1.099,147.404,22.736,-103.260
15434,-0.3701,0.5273,-0.8315,-6.348,-11.230,-1.343,147.321,22.813,-103.310
15444,-0.3818,0.5024,-0.7344,-6.653,-11.780,-1.038,147.217,22.923,-103.370
15454,-0.4077,0.4600,-0.6338,-4.395,-13.123,-0.916,147.118,23.082,-103.442
15464,-0.4292,0.4434,-0.5903,-0.854,-12.939,0.000,147.036,23.258,-103.513
15474,-0.4419,0.4360,-0.5845,2.686,-7.996,2.441,146.997,23.395,-103.585
15484,-0.4336,0.4404,-0.6313,5.188,1.160,4.883,147.019,23.417,-103.623
15494,-0.4062,0.4473,-0.7031,5.859,10.803,5.798,147.085,23.324,-103.612
15504,-0.3916,0.4795,-0.7720,2.197,16.602,6.165,147.134,23.148,-103.568
15514,-0.3770,0.5479,-0.8579,-3.845,17.944,6.348,147.118,22.939,-103.524
15524,-0.3555,0.6279,-0.9463,-7.446,16.418,5.432,147.052,22.720,-103.475
15534,-0.3511,0.6812,-0.9980,-7.141,12.695,3.174,146.986,22.527,-103.431
15544,-0.3521,0.6787,-0.9849,-3.967,6.775,0.122,146.948,22.412,-103.392
15554,-0.3574,0.6362,-0.9326,-1.770,-1.099,-3.052,146.926,22.390,-103.370
15564,-0.3691,0.5713,-0.8550,-1.099,-8.850,-6.104,146.909,22.467,-103.365
15574,-0.3794,0.4868,-0.7500,-0.549,-14.648,-7.751,146.898,22.637,-103.381
15584,-0.3906,0.4131,-0.6606,-0.305,-17.700,-7.751,146.893,22.868,-103.414
15594,-0.4043,0.3765,-0.6157,-0.244,-17.334,-5.859,146.887,23.104,-103.464
15604,-0.4331,0.3706,-0.6064,0.732,-11.963,-2.991,146.893,23.302,-103.508
15614,-0.4331,0.3970,-0.6431,2.380,-2.075,0.610,146.926,23.384,-103.530
15624,-0.4131,0.4556,-0.7183,4.761,8.789,4.150,146.986,23.313,-103.513
15634,-0.3921,0.5200,-0.8174,6.165,16.907,6.775,147.068,23.121,-103.475
15644,-0.3735,0.5737,-0.8979,6.653,20.081,7.812,147.156,22.874,-103.425
15654,-0.3535,0.5986,-0.9453,5.493,18.311,6.714,147.233,22.632,-103.381
15664,-0.3452,0.5977,-0.9536,0.671,11.780,3.723,147.261,22.462,-103.348
15674,-0.3569,0.5952,-0.9209,-6.165,2.869,0.183,147.200,22.390,-103.332
15684,-0.3735,0.5830,-0.8589,-11.414,-5.371,-2.747,147.074,22.423,-103.337
15694,-0.3813,0.5635,-0.7837,-11.780,-10.864,-4.822,146.920,22.533,-103.359
15704,-0.3911,0.5312,-0.7314,-6.042,-12.695,-5.737,146.821,22.676,-103.381
15714,-0.3955,0.4897,-0.6885,2.441,-11.597,-5.371,146.816,22.824,-103.398
15724,-0.3960,0.4434,-0.6763,9.338,-7.935,-3.784,146.904,22.945,-103.414
15734,-0.4043,0.4214,-0.6934,11.475,-1.831,-1.526,147.036,23.005,-103.409
15745,-0.4111,0.4253,-0.7202,9.216,4.700,0.854,147.162,22.994,-103.392
15754,-0.3931,0.4590,-0.7568,4.822,9.277,3.052,147.233,22.906,-103.365
15764,-0.3784,0.4946,-0.7764,-0.427,9.521,3.662,147.239,22.802,-103.343
15774,-0.3887,0.5332,-0.7954,-3.845,6.287,2.808,147.195,22.731,-103.332
15784,-0.3901,0.5493,-0.8242,-4.028,3.357,1.770,147.151,22.681,-103.326
15794,-0.3774,0.5645,-0.8677,-2.319,3.418,1.221,147.129,22.621,-103.315
15804,-0.3638,0.5610,-0.8804,-0.488,4.761,0.671,147.134,22.538,-103.293
15814,-0.3613,0.5605,-0.8813,-0.366,3.601,-0.122,147.145,22.478,-103.271
15824,-0.3647,0.5649,-0.8755,-0.488,0.610,-0.916,147.145,22.445,-103.260
15834,-0.3750,0.5459,-0.8364,0.183,-2.319,-1.404,147.140,22.456,-103.260
15844,-0.3872,0.5063,-0.7759,1.160,-4.944,-2.075,147.145,22.505,-103.271
15854,-0.3882,0.4609,-0.7217,1.221,-7.263,-2.747,147.156,22.604,-103.288
15864,-0.4067,0.4219,-0.6895,0.061,-7.446,-2.869,147.162,22.720,-103.310
15874,-0.4160,0.4185,-0.6885,-1.892,-4.395,-1.831,147.156,22.813,-103.315
15884,-0.4014,0.4668,-0.7378,-2.319,1.160,0.427,147.140,22.819,-103.315
15894,-0.3843,0.5303,-0.8125,0.488,7.507,3.052,147.145,22.731,-103.299
15904,-0.3662,0.5859,-0.8989,4.944,12.878,4.517,147.206,22.560,-103.260
15917,-0.3486,0.6050,-0.9292,7.080,15.198,4.517,147.294,22.357,-103.217
15924,-0.3477,0.5688,-0.8984,5.371,11.536,2.197,147.365,22.209,-103.167
15934,-0.3638,0.5288,-0.8525,-0.977,2.747,-1.709,147.376,22.170,-103.134
15944,-0.3838,0.4961,-0.7988,-9.827,-6.348,-4.517,147.288,22.247,-103.129
15954,-0.3931,0.4717,-0.7500,-14.954,-10.986,-4.944,147.140,22.379,-103.151
15964,-0.3857,0.5137,-0.7749,-14.038,-9.216,-3.296,146.986,22.478,-103.173
15974,-0.3750,0.5742,-0.8418,-5.676,-1.160,-0.122,146.915,22.467,-103.178
15984,-0.3540,0.6279,-0.8901,7.141,9.705,3.601,146.975,22.319,-103.156
15994,-0.3359,0.5811,-0.8315,17.273,15.320,5.615,147.140,22.121,-103.118
16004,-0.3652,0.4844,-0.7163,18.250,6.714,2.136,147.316,22.066,-103.096
16014,-0.4224,0.4155,-0.6294,9.277,-9.644,-3.601,147.393,22.236,-103.118
16024,-0.4507,0.3618,-0.5557,-0.793,-21.912,-6.714,147.354,22.571,-103.189
16034,-0.4624,0.3301,-0.5576,-6.958,-24.231,-5.737,147.272,22.934,-103.277
16044,-0.4443,0.4053,-0.6626,-9.399,-14.160,-2.808,147.167,23.137,-103.332
16054,-0.3936,0.5264,-0.7871,-5.127,6.226,2.808,147.112,23.066,-103.321
16064,-0.3555,0.6167,-0.9038,5.493,25.757,8.545,147.184,22.753,-103.250
16074,-0.3179,0.6812,-0.9912,15.503,33.691,10.010,147.360,22.341,-103.140
16084,-0.3071,0.6528,-0.9990,20.630,26.489,5.920,147.596,22.011,-103.041
16094,-0.3354,0.5815,-0.9497,16.968,7.874,-0.305,147.794,21.890,-102.991
16104,-0.3647,0.5283,-0.8750,4.211,-13.000,-6.775,147.838,22.017,-103.008
16114,-0.3955,0.4629,-0.7603,-7.629,-27.466,-10.986,147.750,22.324,-103.063
16124,-0.4209,0.4229,-0.6758,-12.756,-31.860,-10.864,147.596,22.703,-103.145
16134,-0.4243,0.4351,-0.6416,-10.742,-25.513,-8.179,147.442,23.016,-103.222
16144,-0.4097,0.4507,-0.6489,-0.427,-10.925,-3.174,147.404,23.170,-103.255
16154,-0.4033,0.4526,-0.6909,14.221,5.127,2.258,147.541,23.143,-103.244
16164,-0.3872,0.4639,-0.7817,25.208,16.479,5.737,147.827,22.972,-103.200
16174,-0.3545,0.5352,-0.9385,26.794,20.386,6.470,148.140,22.720,-103.145
16184,-0.3340,0.5913,-1.0581,20.630,18.616,5.127,148.392,22.467,-103.085
16194,-0.3281,0.5996,-1.0547,9.521,10.010,1.587,148.519,22.302,-103.041
16204,-0.3452,0.5576,-0.9658,-3.540,-3.906,-2.563,148.502,22.297,-103.041
16214,-0.3696,0.5078,-0.7939,-16.968,-19.104,-7.324,148.310,22.484,-103.079
16224,-0.4233,0.4233,-0.6016,-23.376,-31.189,-10.986,148.013,22.879,-103.156
16234,-0.4580,0.4053,-0.5146,-21.973,-35.461,-10.559,147.689,23.351,-103.266
16245,-0.4580,0.4175,-0.5684,-10.620,-25.024,-6.592,147.513,23.692,-103.348
16254,-0.4277,0.4531,-0.7227,5.981,-1.526,-0.549,147.574,23.741,-103.354
16264,-0.3867,0.5044,-0.8643,17.700,23.254,5.371,147.805,23.489,-103.266
16274,-0.3364,0.5459,-0.9326,19.470,35.156,8.484,148.068,23.088,-103.140
16284,-0.3169,0.5264,-0.9238,14.404,28.809,6.409,148.271,22.747,-103.035
16294,-0.3574,0.5322,-0.8872,3.601,9.949,2.563,148.332,22.615,-103.002
16304,-0.3950,0.4893,-0.7661,-6.653,-8.789,-1.404,148.239,22.703,-103.035
