elapsed_ms,acc_x_g,acc_y_g,acc_z_g,gyro_x_dps,gyro_y_dps,gyro_z_dps,angle_x_deg,angle_y_deg,angle_z_deg
0,-0.4458,0.5947,-0.6895,-3.113,1.465,-11.536,138.582,25.659,-112.681
10,-0.4438,0.5728,-0.6724,-5.615,-2.136,-10.864,138.565,25.752,-112.604
20,-0.4443,0.5640,-0.6602,-6.348,-4.333,-9.155,138.532,25.862,-112.560
30,-0.4434,0.5625,-0.6626,-3.113,-4.578,-7.141,138.521,25.950,-112.533
40,-0.4409,0.5552,-0.6738,3.296,-2.197,-5.127,138.587,26.010,-112.505
50,-0.4355,0.5420,-0.6860,9.460,1.404,-3.113,138.730,26.027,-112.473
60,-0.4287,0.5371,-0.7036,12.756,4.944,-1.282,138.911,25.994,-112.423
70,-0.4194,0.5459,-0.7354,12.634,7.935,0.305,139.109,25.922,-112.368
80,-0.4180,0.5576,-0.7617,10.132,10.071,1.221,139.285,25.818,-112.308
90,-0.4146,0.5732,-0.7695,6.226,10.498,1.160,139.411,25.708,-112.242
100,-0.4150,0.5884,-0.7754,2.197,8.606,0.671,139.493,25.609,-112.181
110,-0.4224,0.6050,-0.7812,-0.977,5.371,0.305,139.526,25.543,-112.148
120,-0.4277,0.6152,-0.7764,-2.380,1.709,0.244,139.526,25.505,-112.137
130,-0.4321,0.6104,-0.7510,-2.441,-2.197,0.305,139.510,25.505,-112.154
140,-0.4312,0.6162,-0.7407,-2.380,-6.287,0.183,139.471,25.538,-112.203
150,-0.4287,0.6123,-0.7334,-2.014,-9.033,0.061,139.433,25.593,-112.269
160,-0.4297,0.6094,-0.7036,-1.404,-10.193,0.183,139.384,25.659,-112.341
170,-0.4351,0.5996,-0.6709,-0.977,-10.620,0.000,139.329,25.741,-112.418
180,-0.4458,0.5757,-0.6406,-1.160,-10.803,-0.183,139.268,25.840,-112.495
190,-0.4546,0.5679,-0.6167,-2.380,-10.681,-0.244,139.197,25.950,-112.571
200,-0.4644,0.5713,-0.6006,-3.723,-9.644,-0.061,139.103,26.054,-112.643
210,-0.4644,0.5967,-0.6143,-3.662,-7.385,0.427,139.005,26.131,-112.698
220,-0.4673,0.6167,-0.6572,-0.916,-2.686,0.732,138.966,26.158,-112.725
230,-0.4722,0.6152,-0.6729,2.502,3.113,0.488,138.983,26.147,-112.703
241,-0.4668,0.6270,-0.6948,3.540,7.141,-0.122,139.032,26.098,-112.654
250,-0.4561,0.6514,-0.7446,2.869,9.460,-0.366,139.087,26.016,-112.582
260,-0.4497,0.6489,-0.7637,0.793,10.010,-0.854,139.136,25.928,-112.500
270,-0.4360,0.6650,-0.7607,-3.601,6.531,-3.296,139.131,25.873,-112.423
280,-0.4282,0.6333,-0.7202,-7.141,-1.892,-7.996,139.081,25.922,-112.368
290,-0.4404,0.5430,-0.6455,-12.085,-17.761,-14.526,138.966,26.164,-112.379
300,-0.4463,0.5156,-0.6401,-18.555,-39.917,-24.109,138.763,26.642,-112.467
310,-0.4517,0.5640,-0.6460,-24.475,-55.420,-29.358,138.450,27.257,-112.632
320,-0.4854,0.6064,-0.6733,-24.353,-58.899,-27.222,138.109,27.883,-112.841
330,-0.5200,0.6470,-0.7036,-18.433,-50.598,-20.447,137.823,28.400,-113.049
340,-0.5215,0.6484,-0.7119,-7.568,-34.058,-12.512,137.675,28.729,-113.203
350,-0.5034,0.6475,-0.7227,4.272,-14.771,-5.371,137.686,28.861,-113.275
360,-0.4844,0.6143,-0.7109,12.024,1.587,-0.122,137.829,28.834,-113.258
370,-0.4687,0.5752,-0.6626,15.198,11.047,2.686,138.021,28.729,-113.198
380,-0.4604,0.5396,-0.6382,14.282,12.695,3.845,138.208,28.614,-113.132
390,-0.4653,0.5181,-0.6274,10.864,9.155,3.418,138.362,28.531,-113.093
400,-0.4810,0.5161,-0.6250,6.042,4.211,2.441,138.444,28.510,-113.082
410,-0.4858,0.5415,-0.6353,1.160,0.916,2.441,138.461,28.504,-113.093
420,-0.4844,0.5767,-0.6592,-0.854,0.671,4.150,138.444,28.471,-113.126
430,-0.4849,0.5952,-0.6748,0.732,3.845,6.470,138.439,28.400,-113.154
440,-0.4883,0.5991,-0.6792,3.113,6.836,8.179,138.461,28.295,-113.170
450,-0.4834,0.6172,-0.6973,4.700,8.240,8.667,138.505,28.169,-113.181
460,-0.4702,0.6328,-0.7090,5.066,8.118,8.118,138.549,28.037,-113.187
470,-0.4775,0.6030,-0.6978,4.456,4.578,5.859,138.593,27.960,-113.203
480,-0.4878,0.5942,-0.6919,0.977,-1.099,2.380,138.593,27.955,-113.231
490,-0.4893,0.5957,-0.6855,-3.662,-6.409,-0.061,138.538,28.004,-113.280
500,-0.4878,0.6094,-0.6787,-6.714,-9.888,-0.977,138.439,28.087,-113.346
510,-0.4839,0.6431,-0.6704,-5.981,-10.254,-1.343,138.329,28.163,-113.412
520,-0.4800,0.6387,-0.6572,-0.854,-8.606,-1.282,138.268,28.229,-113.467
530,-0.4756,0.6230,-0.6421,4.456,-6.653,-1.282,138.268,28.290,-113.505
540,-0.4751,0.6045,-0.6323,7.751,-4.700,-1.343,138.312,28.334,-113.527
550,-0.4751,0.5723,-0.6099,7.751,-3.784,-0.610,138.367,28.378,-113.555
560,-0.4868,0.5566,-0.6021,4.333,-3.235,0.671,138.384,28.422,-113.582
570,-0.4966,0.5625,-0.6201,0.244,-1.465,1.770,138.367,28.444,-113.610
580,-0.5010,0.5771,-0.6328,-2.625,1.587,2.380,138.329,28.433,-113.615
590,-0.5044,0.6230,-0.6646,-4.150,5.249,2.014,138.285,28.389,-113.593
600,-0.5039,0.6685,-0.7007,-2.197,9.583,1.343,138.274,28.301,-113.533
610,-0.4990,0.6821,-0.7251,2.075,14.099,1.282,138.323,28.169,-113.439
620,-0.4868,0.6494,-0.7109,5.554,16.968,0.854,138.428,28.026,-113.318
630,-0.4736,0.5952,-0.6870,6.226,15.625,-0.427,138.549,27.905,-113.198
640,-0.4619,0.5723,-0.6875,2.197,11.475,-1.892,138.636,27.828,-113.093
650,-0.4575,0.5703,-0.6807,-3.418,7.080,-2.563,138.653,27.784,-113.022
660,-0.4570,0.5869,-0.6821,-7.568,3.601,-2.014,138.604,27.762,-112.978
670,-0.4692,0.6211,-0.6992,-7.874,3.479,-1.160,138.538,27.735,-112.939
680,-0.4746,0.6323,-0.6963,-4.211,6.897,-0.122,138.516,27.675,-112.885
690,-0.4751,0.6143,-0.6655,1.038,10.620,0.549,138.549,27.592,-112.813
700,-0.4722,0.5503,-0.6167,6.348,11.841,0.732,138.642,27.521,-112.731
710,-0.4712,0.5000,-0.6001,7.690,9.705,0.488,138.768,27.482,-112.659
720,-0.4702,0.5049,-0.6309,4.639,7.263,0.549,138.862,27.449,-112.615
730,-0.4702,0.5479,-0.6851,0.366,6.836,2.014,138.906,27.394,-112.577
741,-0.4648,0.6211,-0.7500,-0.854,9.888,4.333,138.928,27.274,-112.544
750,-0.4580,0.6733,-0.7842,0.122,14.465,5.798,138.961,27.098,-112.484
760,-0.4487,0.7017,-0.7847,2.441,15.808,4.761,139.010,26.906,-112.407
770,-0.4355,0.6963,-0.7729,5.127,12.085,1.648,139.087,26.763,-112.335
780,-0.4424,0.6226,-0.7119,6.226,3.235,-1.587,139.158,26.735,-112.297
790,-0.4575,0.5493,-0.6543,3.052,-8.850,-4.639,139.186,26.845,-112.324
800,-0.4624,0.5308,-0.6309,-3.662,-19.043,-6.592,139.120,27.054,-112.407
810,-0.4678,0.5361,-0.6196,-8.667,-22.949,-6.165,138.983,27.290,-112.522
820,-0.4736,0.5913,-0.6567,-8.789,-18.005,-3.784,138.840,27.460,-112.621
830,-0.4717,0.6040,-0.6772,-3.784,-6.714,-1.526,138.779,27.521,-112.659
840,-0.4751,0.5962,-0.6699,2.136,3.540,-0.122,138.807,27.499,-112.632
850,-0.4707,0.5806,-0.6655,6.042,9.460,0.061,138.900,27.433,-112.560
860,-0.4736,0.5688,-0.6865,5.920,9.460,0.183,139.005,27.367,-112.495
870,-0.4736,0.5854,-0.7192,1.404,6.958,0.061,139.059,27.312,-112.445
880,-0.4751,0.6050,-0.7163,-3.601,4.639,0.244,139.048,27.268,-112.412
890,-0.4663,0.6206,-0.6968,-6.714,2.258,0.488,138.983,27.246,-112.401
900,-0.4570,0.6187,-0.6875,-5.737,0.000,-0.122,138.917,27.235,-112.396
910,-0.4595,0.6040,-0.6914,-2.014,-1.892,-1.343,138.895,27.252,-112.401
920,-0.4604,0.5923,-0.6958,1.038,-2.563,-2.075,138.911,27.279,-112.401
930,-0.4619,0.5864,-0.6963,2.502,-2.686,-1.709,138.939,27.307,-112.407
940,-0.4644,0.5864,-0.7168,2.197,-2.014,-0.488,138.977,27.318,-112.418
950,-0.4687,0.6074,-0.7305,-0.122,-0.244,0.244,138.988,27.307,-112.423
960,-0.4692,0.6338,-0.7109,-2.869,1.038,0.305,138.955,27.285,-112.418
970,-0.4639,0.6084,-0.6777,-3.296,1.343,0.305,138.917,27.274,-112.407
980,-0.4629,0.5845,-0.6646,-2.808,-0.610,-1.038,138.884,27.285,-112.407
990,-0.4707,0.5928,-0.6689,-3.723,-2.563,-2.441,138.845,27.328,-112.401
1000,-0.4800,0.5693,-0.6377,-3.784,-3.601,-2.563,138.801,27.389,-112.407
1010,-0.4814,0.5464,-0.6133,-2.930,-4.578,-2.014,138.757,27.466,-112.423
1020,-0.4771,0.5479,-0.6230,-1.587,-4.578,-1.160,138.730,27.532,-112.451
1030,-0.4756,0.5640,-0.6558,0.122,-2.930,0.305,138.724,27.565,-112.473
1040,-0.4678,0.6284,-0.7266,1.282,1.953,2.075,138.741,27.521,-112.478
1050,-0.4668,0.6758,-0.7764,3.174,8.850,3.113,138.796,27.405,-112.440
1060,-0.4541,0.7319,-0.8018,3.723,13.733,3.479,138.851,27.235,-112.363
1070,-0.4438,0.7119,-0.7671,3.845,13.672,1.404,138.911,27.081,-112.275
1080,-0.4429,0.6646,-0.7051,2.075,5.737,-3.418,138.944,27.032,-112.203
1090,-0.4629,0.5786,-0.6221,-1.343,-6.165,-8.179,138.922,27.147,-112.181
1100,-0.4839,0.4741,-0.5435,-4.883,-18.860,-10.742,138.851,27.427,-112.231
1110,-0.4922,0.4707,-0.5640,-7.935,-26.611,-11.414,138.741,27.762,-112.330
1120,-0.5020,0.4893,-0.6055,-7.935,-23.010,-7.690,138.636,28.037,-112.434
1130,-0.5000,0.5342,-0.6196,-6.958,-12.146,-2.136,138.538,28.174,-112.505
1140,-0.4824,0.5952,-0.6807,-1.343,2.808,2.808,138.527,28.136,-112.511
1150,-0.4673,0.6455,-0.7456,6.042,17.151,6.042,138.631,27.938,-112.434
1160,-0.4517,0.6787,-0.7710,8.667,24.048,6.042,138.774,27.680,-112.302
1170,-0.4478,0.6523,-0.7505,7.996,21.851,3.357,138.917,27.460,-112.170
1180,-0.4492,0.6147,-0.7139,4.089,10.986,-0.305,138.999,27.361,-112.088
1190,-0.4565,0.6099,-0.7002,-2.502,-2.869,-3.418,138.977,27.389,-112.077
1200,-0.4678,0.6060,-0.6992,-7.507,-13.184,-4.883,138.878,27.515,-112.137
1210,-0.4741,0.6333,-0.7153,-8.667,-16.296,-4.883,138.752,27.658,-112.214
1220,-0.4824,0.6523,-0.7207,-5.249,-12.024,-4.333,138.669,27.762,-112.269
1230,-0.4766,0.6172,-0.6709,0.793,-6.226,-4.028,138.658,27.834,-112.280
1241,-0.4766,0.5347,-0.6099,5.981,-4.333,-4.089,138.719,27.922,-112.275
1250,-0.4756,0.5068,-0.5918,5.981,-6.653,-4.211,138.779,28.032,-112.291
1260,-0.4873,0.4678,-0.5542,3.357,-9.644,-3.113,138.801,28.180,-112.335
1270,-0.4961,0.5020,-0.6089,0.793,-9.949,-1.343,138.796,28.306,-112.401
1280,-0.4902,0.5889,-0.7026,-0.366,-3.723,0.916,138.790,28.323,-112.434
1290,-0.4785,0.6528,-0.7476,0.732,5.188,3.235,138.801,28.240,-112.423
1300,-0.4644,0.7056,-0.8018,2.991,12.817,3.723,138.862,28.070,-112.357
1310,-0.4507,0.7241,-0.8301,2.869,15.869,2.258,138.933,27.883,-112.258
1320,-0.4526,0.6768,-0.7637,-0.183,10.620,-1.099,138.972,27.768,-112.170
1330,-0.4668,0.6006,-0.6841,-5.737,-1.953,-5.310,138.922,27.812,-112.143
1340,-0.4766,0.5513,-0.6201,-12.878,-16.296,-8.240,138.768,28.010,-112.192
1350,-0.4980,0.5337,-0.5933,-15.686,-27.466,-9.155,138.543,28.312,-112.319
1360,-0.4961,0.6050,-0.6694,-13.184,-27.954,-8.118,138.340,28.575,-112.462
1370,-0.4888,0.6221,-0.7065,-5.737,-15.869,-5.615,138.252,28.718,-112.533
1380,-0.4824,0.6279,-0.6782,1.892,-1.953,-3.113,138.268,28.746,-112.522
1390,-0.4771,0.5698,-0.6396,7.202,7.874,-1.343,138.373,28.696,-112.451
1400,-0.4883,0.4883,-0.5728,4.822,6.897,-1.221,138.461,28.696,-112.385
1410,-0.5132,0.4526,-0.5259,-4.028,-1.770,-2.380,138.433,28.806,-112.379
1420,-0.5269,0.4741,-0.5229,-12.573,-9.033,-2.258,138.279,28.965,-112.429
1430,-0.5239,0.5293,-0.5649,-14.465,-10.986,-0.610,138.087,29.103,-112.505
1440,-0.5151,0.6191,-0.6558,-9.033,-4.089,2.014,137.955,29.125,-112.555
1450,-0.4873,0.6880,-0.7373,1.038,8.850,5.066,137.972,28.993,-112.533
1460,-0.4658,0.7026,-0.7788,9.888,19.958,6.409,138.115,28.757,-112.434
1470,-0.4546,0.6758,-0.7681,12.329,23.071,5.249,138.307,28.504,-112.302
1480,-0.4604,0.6011,-0.6997,8.484,14.709,2.380,138.444,28.356,-112.209
1490,-0.4829,0.5615,-0.6543,-0.122,-0.244,-0.671,138.450,28.372,-112.209
1500,-0.4946,0.5645,-0.6440,-8.545,-12.756,-2.625,138.334,28.499,-112.280
1510,-0.5049,0.6064,-0.6670,-11.536,-18.066,-3.113,138.164,28.663,-112.390
1520,-0.4995,0.6694,-0.7256,-7.690,-12.573,-2.502,138.043,28.751,-112.467
1530,-0.4858,0.6514,-0.7314,1.404,-1.587,-1.648,138.060,28.751,-112.462
1540,-0.4722,0.6128,-0.7124,7.874,5.676,-1.709,138.181,28.702,-112.407
1550,-0.4517,0.6094,-0.7217,8.301,6.470,-1.892,138.307,28.636,-112.341
1560,-0.4502,0.6016,-0.7095,3.479,1.465,-1.465,138.367,28.603,-112.319
1570,-0.4683,0.5986,-0.6582,-3.296,-5.371,-1.587,138.318,28.647,-112.346
1580,-0.4922,0.5728,-0.5879,-8.301,-11.230,-2.136,138.175,28.768,-112.412
1590,-0.5273,0.5098,-0.5195,-10.437,-15.381,-2.869,138.005,28.971,-112.505
1600,-0.5386,0.5078,-0.5264,-8.911,-15.076,-3.906,137.856,29.180,-112.588
1610,-0.5342,0.5068,-0.5503,-4.395,-9.521,-2.991,137.785,29.333,-112.632
1620,-0.5254,0.5107,-0.5615,-0.061,-1.953,-0.244,137.774,29.405,-112.648
1630,-0.5098,0.5693,-0.6353,3.601,5.981,2.747,137.823,29.355,-112.621
1640,-0.4824,0.6714,-0.7500,5.310,14.099,5.737,137.911,29.180,-112.566
1650,-0.4702,0.7324,-0.7925,6.287,19.714,7.324,138.010,28.927,-112.473
1660,-0.4590,0.7500,-0.7939,5.798,19.592,5.554,138.104,28.685,-112.374
1670,-0.4478,0.7339,-0.8008,6.287,13.794,0.916,138.203,28.515,-112.275
1680,-0.4536,0.6743,-0.7568,4.700,4.028,-3.845,138.279,28.466,-112.209
1690,-0.4746,0.5864,-0.6787,0.244,-8.850,-7.690,138.290,28.575,-112.214
1700,-0.4834,0.5269,-0.6113,-6.226,-20.691,-9.583,138.203,28.817,-112.291
1710,-0.5020,0.4692,-0.5503,-9.155,-28.015,-9.521,138.065,29.147,-112.423
1720,-0.5225,0.4761,-0.5479,-8.789,-27.771,-7.263,137.917,29.465,-112.571
1730,-0.5264,0.5127,-0.5825,-4.456,-18.494,-3.540,137.823,29.669,-112.681
1741,-0.5098,0.5835,-0.6465,2.991,-2.686,1.343,137.840,29.691,-112.714
1750,-0.4980,0.6401,-0.7104,12.878,14.526,5.127,137.999,29.526,-112.648
1760,-0.4761,0.6685,-0.7344,17.883,26.062,6.653,138.246,29.251,-112.505
1770,-0.4600,0.6387,-0.7173,16.174,25.818,5.127,138.477,28.993,-112.352
1780,-0.4702,0.5850,-0.6812,9.827,15.381,1.892,138.631,28.850,-112.247
1790,-0.4868,0.5591,-0.6606,-1.160,0.000,-1.160,138.636,28.861,-112.242
1800,-0.5093,0.5513,-0.6348,-11.169,-13.428,-2.380,138.494,29.004,-112.319
1810,-0.5190,0.5903,-0.6426,-13.672,-19.836,-1.831,138.279,29.180,-112.456
1820,-0.5234,0.6328,-0.6626,-7.874,-16.113,-0.305,138.126,29.306,-112.577
1830,-0.5054,0.6396,-0.6606,2.869,-6.592,1.282,138.104,29.339,-112.637
1840,-0.4893,0.6177,-0.6548,12.817,3.235,1.770,138.219,29.295,-112.626
1850,-0.4824,0.5767,-0.6479,16.724,8.667,1.343,138.411,29.224,-112.571
1860,-0.4863,0.5557,-0.6392,11.536,8.606,0.977,138.560,29.158,-112.516
1870,-0.4927,0.5537,-0.6201,1.282,5.371,0.244,138.587,29.130,-112.478
1880,-0.5073,0.5537,-0.5996,-8.362,1.343,-0.427,138.499,29.152,-112.462
1890,-0.5161,0.5762,-0.6069,-13.611,-0.977,-0.793,138.345,29.191,-112.462
1900,-0.5205,0.6011,-0.6260,-11.597,0.000,-0.183,138.208,29.207,-112.462
1910,-0.5107,0.6240,-0.6543,-3.723,3.601,1.221,138.159,29.174,-112.445
1920,-0.4966,0.6494,-0.7031,5.676,7.751,2.441,138.224,29.086,-112.407
1930,-0.4800,0.6631,-0.7456,12.878,10.925,2.625,138.384,28.954,-112.346
1940,-0.4727,0.6450,-0.7534,14.709,11.719,1.770,138.576,28.823,-112.275
1950,-0.4663,0.6255,-0.7368,10.193,9.094,0.122,138.719,28.724,-112.203
1960,-0.4707,0.5820,-0.6978,3.174,4.211,-2.258,138.790,28.691,-112.154
1970,-0.4858,0.5371,-0.6533,-4.395,-1.465,-4.211,138.779,28.740,-112.126
1980,-0.4897,0.5298,-0.6260,-10.254,-5.493,-4.761,138.686,28.834,-112.126
1990,-0.4976,0.5518,-0.6265,-11.047,-6.042,-3.357,138.565,28.922,-112.143
2000,-0.5054,0.5693,-0.6484,-5.554,-2.625,-1.282,138.510,28.965,-112.154
2010,-0.5039,0.5581,-0.6626,2.686,2.502,0.061,138.560,28.954,-112.137
2020,-0.4932,0.5518,-0.6738,7.568,6.104,0.732,138.675,28.911,-112.094
2030,-0.4722,0.5664,-0.6978,6.836,7.324,1.587,138.785,28.834,-112.055
2040,-0.4604,0.5791,-0.7153,2.380,7.202,2.319,138.845,28.746,-112.022
2050,-0.4590,0.6123,-0.7285,-3.540,6.470,2.197,138.834,28.652,-111.989
2060,-0.4644,0.6387,-0.7227,-8.423,5.798,1.343,138.763,28.570,-111.956
2070,-0.4814,0.6313,-0.6763,-11.597,3.906,0.305,138.647,28.531,-111.934
2080,-0.5068,0.6147,-0.6304,-12.146,0.122,-1.221,138.499,28.548,-111.923
2090,-0.5068,0.6069,-0.6172,-9.399,-3.540,-1.953,138.373,28.608,-111.929
2100,-0.5049,0.6074,-0.6362,-3.540,-4.272,-1.282,138.307,28.658,-111.951
2110,-0.4878,0.6255,-0.6909,2.991,-0.122,0.061,138.329,28.652,-111.951
2120,-0.4727,0.6143,-0.7236,7.141,6.287,0.671,138.433,28.575,-111.912
2130,-0.4629,0.6372,-0.7490,5.249,10.681,0.061,138.538,28.466,-111.830
2140,-0.4531,0.6348,-0.7373,-0.183,11.169,-0.671,138.587,28.350,-111.742
2150,-0.4702,0.5659,-0.6484,-5.798,5.615,-2.319,138.560,28.328,-111.682
2160,-0.4941,0.5239,-0.5879,-10.620,-3.784,-4.578,138.455,28.422,-111.671
2170,-0.5103,0.5127,-0.5649,-13.245,-10.986,-4.578,138.296,28.586,-111.714
2180,-0.5298,0.5029,-0.5728,-10.376,-11.475,-2.258,138.170,28.751,-111.780
2190,-0.5190,0.5371,-0.6333,-4.395,-3.601,0.671,138.126,28.806,-111.813
2200,-0.4829,0.5908,-0.7080,2.136,8.667,3.662,138.181,28.707,-111.780
2210,-0.4565,0.6401,-0.7642,6.409,18.860,5.859,138.307,28.488,-111.687
2220,-0.4355,0.6670,-0.7861,5.798,22.461,6.531,138.433,28.224,-111.572
2230,-0.4326,0.6631,-0.7676,2.441,18.005,4.517,138.510,28.010,-111.473
2241,-0.4551,0.6328,-0.7085,-2.258,6.897,1.343,138.505,27.922,-111.434
2250,-0.4717,0.6011,-0.6543,-6.836,-6.348,-1.404,138.411,27.982,-111.467
2260,-0.4912,0.5654,-0.5947,-9.216,-16.479,-2.380,138.252,28.147,-111.572
2270,-0.5063,0.5508,-0.5649,-6.104,-20.691,-1.953,138.098,28.356,-111.714
2280,-0.5117,0.5483,-0.5698,0.427,-17.273,0.000,138.021,28.531,-111.841
2290,-0.5015,0.5718,-0.6270,7.996,-8.545,2.747,138.054,28.597,-111.934
2300,-0.4844,0.6265,-0.7173,13.733,4.578,5.066,138.197,28.515,-111.940
2310,-0.4785,0.6455,-0.7500,15.320,15.442,5.554,138.389,28.334,-111.868
2320,-0.4678,0.6499,-0.7476,10.559,18.127,4.578,138.549,28.141,-111.769
2330,-0.4702,0.6621,-0.7314,3.540,12.573,1.953,138.609,28.010,-111.693
2340,-0.4741,0.6436,-0.6763,-2.563,2.319,-0.671,138.576,27.982,-111.671
2350,-0.4790,0.5981,-0.6274,-5.981,-8.606,-3.174,138.477,28.076,-111.709
2360,-0.4810,0.5894,-0.6099,-7.629,-15.625,-4.761,138.340,28.240,-111.786
2370,-0.4849,0.5718,-0.6147,-4.944,-16.113,-4.639,138.241,28.405,-111.868
2380,-0.4912,0.5708,-0.6357,-1.282,-10.315,-2.808,138.203,28.515,-111.923
2390,-0.4878,0.5688,-0.6519,2.380,-2.197,-0.610,138.224,28.548,-111.934
2400,-0.4805,0.5757,-0.6719,5.310,5.005,1.099,138.301,28.504,-111.907
2410,-0.4780,0.5859,-0.6943,7.019,8.667,2.075,138.411,28.416,-111.857
2420,-0.4761,0.5913,-0.7061,7.263,8.301,2.319,138.521,28.328,-111.813
2430,-0.4780,0.5942,-0.7056,5.981,5.371,2.075,138.604,28.268,-111.791
2440,-0.4775,0.5977,-0.7119,3.906,1.526,1.648,138.653,28.235,-111.791
2450,-0.4741,0.6040,-0.7227,1.465,-1.587,1.038,138.675,28.224,-111.813
2460,-0.4668,0.6436,-0.7534,-0.977,-2.563,0.549,138.658,28.207,-111.841
2470,-0.4614,0.6538,-0.7583,-1.099,-1.648,0.000,138.647,28.185,-111.852
2480,-0.4653,0.6406,-0.7358,0.122,-1.587,-0.793,138.653,28.174,-111.857
2490,-0.4717,0.6206,-0.7051,1.465,-3.540,-1.404,138.658,28.196,-111.868
2500,-0.4824,0.5674,-0.6528,2.747,-7.263,-1.953,138.669,28.273,-111.907
2510,-0.4927,0.5229,-0.6069,2.075,-10.925,-2.258,138.669,28.400,-111.973
2520,-0.5020,0.5151,-0.5908,0.000,-12.634,-2.014,138.636,28.553,-112.050
2530,-0.5024,0.5400,-0.6074,-1.587,-10.742,-0.977,138.582,28.669,-112.121
2540,-0.4878,0.6001,-0.6567,-1.648,-4.578,0.366,138.538,28.702,-112.159
2550,-0.4829,0.6294,-0.6699,0.061,2.075,1.282,138.521,28.669,-112.154
2560,-0.4790,0.6357,-0.6685,1.831,5.371,1.282,138.532,28.608,-112.126
2570,-0.4814,0.6084,-0.6514,2.808,4.272,0.488,138.560,28.570,-112.099
2580,-0.4971,0.5698,-0.6201,0.610,-0.549,-0.122,138.554,28.597,-112.099
2590,-0.5068,0.5659,-0.6206,-3.601,-4.333,-0.183,138.494,28.652,-112.132
2600,-0.5093,0.6104,-0.6602,-5.859,-3.357,0.305,138.411,28.685,-112.159
2610,-0.5010,0.6436,-0.6870,-3.601,2.563,0.610,138.367,28.658,-112.143
2620,-0.4858,0.6523,-0.6924,1.709,8.240,-0.061,138.395,28.581,-112.083
2630,-0.4717,0.6279,-0.6958,6.104,9.949,-1.282,138.494,28.499,-111.995
2640,-0.4771,0.5669,-0.6660,6.470,6.104,-2.380,138.598,28.466,-111.929
2650,-0.4902,0.5391,-0.6533,2.258,-0.427,-3.052,138.647,28.504,-111.907
2660,-0.4990,0.5396,-0.6445,-3.418,-4.944,-2.441,138.620,28.581,-111.923
2670,-0.4985,0.5610,-0.6401,-5.493,-5.554,-0.854,138.554,28.647,-111.956
2680,-0.4922,0.5830,-0.6670,-3.174,-2.319,0.427,138.516,28.663,-111.978
2690,-0.4736,0.6064,-0.7012,1.099,2.869,1.038,138.538,28.619,-111.967
2700,-0.4658,0.6084,-0.7168,4.822,6.470,1.282,138.615,28.542,-111.929
2710,-0.4644,0.5972,-0.7144,5.188,6.104,1.221,138.697,28.466,-111.890
2720,-0.4678,0.6035,-0.7041,2.502,2.441,0.854,138.735,28.427,-111.879
2730,-0.4790,0.6108,-0.6831,-0.549,-1.526,0.671,138.719,28.427,-111.896
2741,-0.4888,0.6001,-0.6558,-1.343,-4.028,0.488,138.675,28.455,-111.934
2750,-0.4902,0.5869,-0.6494,-0.610,-4.150,0.061,138.647,28.493,-111.962
2760,-0.4888,0.5811,-0.6650,0.854,-2.014,-0.183,138.647,28.515,-111.978
2770,-0.4834,0.5669,-0.6753,1.892,1.343,-0.061,138.686,28.510,-111.967
2780,-0.4824,0.5669,-0.6772,1.221,3.235,0.061,138.724,28.488,-111.945
2790,-0.4829,0.5693,-0.6812,0.122,2.686,0.549,138.746,28.460,-111.929
2800,-0.4824,0.6025,-0.6948,-0.671,1.221,1.343,138.741,28.438,-111.929
2810,-0.4766,0.6343,-0.7075,0.183,0.610,2.075,138.730,28.400,-111.945
2820,-0.4756,0.6401,-0.7021,2.808,0.916,2.197,138.741,28.361,-111.956
2830,-0.4761,0.6294,-0.6934,4.333,1.038,1.221,138.774,28.334,-111.956
2840,-0.4751,0.6221,-0.6978,3.479,0.183,0.061,138.807,28.317,-111.956
2850,-0.4771,0.6343,-0.7187,1.099,-0.854,-1.282,138.818,28.312,-111.951
2860,-0.4834,0.6279,-0.7144,-0.793,-2.075,-2.502,138.807,28.328,-111.945
2870,-0.4883,0.6157,-0.6924,-1.465,-4.395,-3.662,138.790,28.383,-111.951
2880,-0.4932,0.5835,-0.6475,-1.404,-7.690,-4.456,138.757,28.477,-111.967
2890,-0.5005,0.5396,-0.5859,-1.404,-10.864,-4.333,138.708,28.625,-112.011
2900,-0.5049,0.5239,-0.5552,-0.671,-11.658,-3.418,138.653,28.784,-112.072
2910,-0.5059,0.5312,-0.5571,1.404,-8.362,-1.709,138.620,28.900,-112.121
2920,-0.5039,0.5469,-0.6084,4.456,-0.427,0.793,138.653,28.927,-112.126
2930,-0.4839,0.5830,-0.6836,5.188,9.155,2.686,138.735,28.834,-112.083
2940,-0.4717,0.6274,-0.7539,3.357,16.724,2.930,138.834,28.658,-111.984
2950,-0.4707,0.6582,-0.7773,-1.099,18.799,2.014,138.889,28.466,-111.857
2960,-0.4844,0.6392,-0.7358,-4.700,12.573,-0.061,138.889,28.356,-111.764
2970,-0.4893,0.6270,-0.6899,-6.653,1.648,-2.380,138.829,28.350,-111.731
2980,-0.5078,0.5640,-0.5996,-5.371,-8.972,-3.357,138.735,28.471,-111.769
2990,-0.5195,0.5020,-0.5073,-2.502,-16.785,-3.113,138.631,28.696,-111.868
3000,-0.5200,0.4839,-0.5137,2.075,-17.334,-2.075,138.576,28.916,-111.984
3010,-0.5088,0.5317,-0.5811,5.554,-8.240,1.831,138.587,29.004,-112.061
3020,-0.4858,0.5952,-0.6519,8.362,7.996,5.554,138.664,28.905,-112.044
3030,-0.4697,0.6812,-0.7656,11.658,24.414,7.935,138.834,28.630,-111.929
3040,-0.4443,0.7544,-0.8750,11.963,34.912,8.057,139.048,28.240,-111.736
3050,-0.4355,0.7554,-0.8711,8.301,34.241,4.944,139.230,27.878,-111.528
3060,-0.4404,0.7017,-0.8096,2.686,23.071,-0.671,139.334,27.653,-111.352
3070,-0.4697,0.5532,-0.6748,-4.211,4.028,-5.920,139.345,27.669,-111.270
3080,-0.4917,0.4590,-0.5620,-11.658,-16.724,-10.010,139.224,27.922,-111.308
3090,-0.5068,0.4321,-0.5332,-13.916,-29.419,-10.498,139.043,28.295,-111.434
3100,-0.5010,0.4575,-0.5757,-9.827,-28.320,-7.019,138.900,28.614,-111.583
3110,-0.4790,0.5322,-0.6963,-1.404,-11.963,-2.136,138.889,28.718,-111.654
3120,-0.4712,0.5796,-0.7627,7.629,10.193,2.686,139.032,28.597,-111.605
3130,-0.4448,0.6011,-0.7764,11.108,24.536,5.371,139.235,28.339,-111.467
3140,-0.4429,0.6167,-0.7881,8.789,26.733,5.737,139.422,28.054,-111.319
3150,-0.4561,0.6357,-0.7651,3.601,17.761,4.456,139.510,27.856,-111.226
3160,-0.4697,0.6406,-0.7354,-1.404,3.601,2.075,139.493,27.795,-111.215
3170,-0.4771,0.6333,-0.6973,-3.845,-9.033,-0.549,139.411,27.861,-111.275
3180,-0.4800,0.5903,-0.6372,-3.662,-16.724,-1.709,139.301,28.004,-111.385
3190,-0.4863,0.5679,-0.6187,-1.038,-18.372,-2.258,139.219,28.180,-111.500
3200,-0.4941,0.5635,-0.6221,1.160,-13.977,-1.770,139.175,28.317,-111.588
3210,-0.4932,0.5747,-0.6274,2.441,-6.897,-0.488,139.158,28.389,-111.638
3220,-0.4922,0.5835,-0.6445,4.578,0.610,0.427,139.191,28.394,-111.638
3230,-0.4902,0.6074,-0.6602,5.371,5.737,0.854,139.246,28.350,-111.599
3241,-0.4844,0.6182,-0.6714,5.615,7.446,0.610,139.307,28.284,-111.550
3250,-0.4829,0.6094,-0.6772,5.188,6.104,-0.366,139.367,28.240,-111.500
3260,-0.4829,0.5874,-0.6816,4.028,3.540,-1.587,139.422,28.224,-111.462
3270,-0.4814,0.5635,-0.6855,1.770,0.916,-2.258,139.466,28.235,-111.434
3280,-0.4800,0.5596,-0.7056,-0.977,-0.183,-1.831,139.482,28.246,-111.423
3290,-0.4727,0.5757,-0.7295,-2.930,0.916,-0.977,139.482,28.229,-111.407
3300,-0.4629,0.5908,-0.7334,-2.686,2.563,-0.305,139.482,28.191,-111.385
3310,-0.4658,0.5928,-0.7217,-0.183,2.319,-0.244,139.499,28.158,-111.368
3320,-0.4663,0.5815,-0.7056,2.319,-0.305,-0.427,139.537,28.152,-111.363
3330,-0.4712,0.5728,-0.6948,3.723,-3.052,-0.488,139.570,28.174,-111.385
3340,-0.4731,0.5630,-0.6807,3.601,-4.517,-0.305,139.603,28.213,-111.412
3350,-0.4761,0.5562,-0.6646,2.136,-4.333,-0.122,139.614,28.251,-111.445
3360,-0.4800,0.5483,-0.6577,0.061,-3.357,0.122,139.609,28.284,-111.467
3370,-0.4785,0.5586,-0.6616,-2.502,-2.014,0.610,139.576,28.301,-111.489
3380,-0.4795,0.5796,-0.6807,-3.479,-0.549,1.404,139.532,28.295,-111.506
3390,-0.4780,0.6230,-0.7173,-1.648,1.343,2.197,139.510,28.257,-111.517
3400,-0.4722,0.6440,-0.7422,3.113,2.991,2.686,139.532,28.191,-111.517
3410,-0.4697,0.6484,-0.7368,7.568,2.930,2.136,139.603,28.130,-111.511
3420,-0.4800,0.6001,-0.7026,9.827,-0.488,0.916,139.691,28.120,-111.522
3430,-0.4863,0.5596,-0.6743,7.080,-5.859,-0.427,139.752,28.174,-111.566
3440,-0.4893,0.5410,-0.6650,1.221,-9.705,-1.282,139.746,28.273,-111.627
3450,-0.4937,0.5532,-0.6787,-4.578,-9.766,-1.282,139.680,28.367,-111.687
3460,-0.4902,0.5747,-0.6953,-7.996,-5.432,-1.038,139.598,28.416,-111.714
3470,-0.4854,0.6147,-0.6875,-8.423,-0.916,-0.916,139.499,28.422,-111.714
3480,-0.4761,0.6333,-0.6606,-4.944,0.549,-0.610,139.422,28.411,-111.703
3490,-0.4761,0.6113,-0.6392,1.404,-1.221,-0.366,139.400,28.422,-111.709
3500,-0.4873,0.5864,-0.6265,6.042,-3.479,-0.732,139.427,28.466,-111.731
3510,-0.4995,0.5479,-0.6084,6.897,-4.272,-0.732,139.471,28.531,-111.758
3520,-0.5093,0.5171,-0.6167,4.395,-2.869,-0.488,139.510,28.592,-111.775
3530,-0.5039,0.5288,-0.6455,-0.549,0.549,-0.244,139.521,28.619,-111.764
3540,-0.4946,0.5474,-0.6670,-4.272,4.211,0.244,139.504,28.597,-111.736
3550,-0.4771,0.6143,-0.7183,-5.981,6.958,0.671,139.466,28.521,-111.693
3560,-0.4692,0.6475,-0.7524,-3.662,8.118,1.038,139.449,28.422,-111.643
3570,-0.4639,0.6436,-0.7524,0.183,7.202,0.854,139.471,28.328,-111.594
3580,-0.4653,0.6123,-0.7261,2.380,3.296,-0.366,139.515,28.284,-111.566
3590,-0.4722,0.5732,-0.7026,1.831,-2.563,-1.648,139.543,28.306,-111.572
3600,-0.4785,0.5430,-0.6929,-0.977,-6.409,-2.319,139.543,28.372,-111.599
3610,-0.4863,0.5166,-0.6836,-3.906,-7.385,-2.014,139.521,28.455,-111.638
3620,-0.4780,0.5303,-0.6968,-6.470,-5.615,-1.099,139.477,28.504,-111.671
3630,-0.4731,0.5498,-0.7017,-7.935,-2.502,0.183,139.411,28.515,-111.687
3640,-0.4761,0.6040,-0.6934,-7.324,-0.610,1.648,139.323,28.499,-111.709
3650,-0.4746,0.6348,-0.6953,-2.319,-0.366,3.113,139.268,28.466,-111.736
3660,-0.4829,0.6250,-0.6797,4.639,-1.160,3.479,139.279,28.444,-111.775
3670,-0.5020,0.5376,-0.6255,7.812,-4.700,1.709,139.334,28.493,-111.824
3680,-0.5005,0.5337,-0.6338,1.953,-5.493,1.587,139.334,28.553,-111.879
3690,-0.4961,0.5547,-0.6416,-4.089,-3.784,2.197,139.268,28.581,-111.929
3700,-0.4897,0.6001,-0.6670,-6.348,-0.183,2.563,139.180,28.570,-111.951
3710,-0.4839,0.6533,-0.6895,-4.028,3.662,2.319,139.120,28.510,-111.945
3720,-0.4805,0.6631,-0.6982,1.831,5.554,1.953,139.120,28.438,-111.918
3730,-0.4795,0.6406,-0.6816,6.653,4.822,1.282,139.175,28.378,-111.896
3741,-0.4810,0.6094,-0.6543,7.263,1.648,0.183,139.230,28.367,-111.885
3750,-0.4912,0.5815,-0.6406,4.761,-1.648,-0.671,139.263,28.394,-111.890
3760,-0.4937,0.5713,-0.6514,1.221,-2.441,-1.099,139.263,28.433,-111.896
3770,-0.4927,0.5610,-0.6602,-1.404,-0.244,-1.465,139.257,28.455,-111.885
3780,-0.4839,0.5771,-0.6924,-3.052,3.113,-1.770,139.257,28.444,-111.846
3790,-0.4746,0.6021,-0.7251,-3.906,6.165,-1.892,139.257,28.389,-111.786
3800,-0.4736,0.6021,-0.7217,-3.967,6.592,-2.075,139.257,28.339,-111.720
3810,-0.4795,0.5801,-0.6919,-3.906,3.662,-2.441,139.252,28.323,-111.671
3820,-0.4902,0.5093,-0.6304,-4.089,-1.709,-2.502,139.230,28.378,-111.665
3830,-0.4966,0.4541,-0.5801,-6.897,-6.836,-1.709,139.175,28.499,-111.698
3840,-0.4951,0.4561,-0.5786,-11.719,-8.667,0.305,139.054,28.614,-111.764
3850,-0.4878,0.5269,-0.6406,-14.648,-3.662,3.174,138.895,28.641,-111.819
3860,-0.4771,0.5884,-0.7041,-14.282,6.836,6.042,138.768,28.537,-111.819
3870,-0.4634,0.6426,-0.7427,-12.634,16.541,7.568,138.675,28.334,-111.764
3880,-0.4492,0.6616,-0.7578,-11.902,20.569,7.874,138.598,28.087,-111.676
3890,-0.4565,0.6523,-0.7427,-13.428,16.785,6.348,138.499,27.889,-111.605
3900,-0.4761,0.6143,-0.6968,-16.174,8.362,4.211,138.351,27.790,-111.577
3910,-0.4888,0.5840,-0.6484,-18.188,-1.099,2.625,138.153,27.795,-111.605
3920,-0.4897,0.6001,-0.6475,-17.700,-7.141,2.625,137.933,27.845,-111.682
3930,-0.4702,0.6865,-0.7031,-11.902,-6.653,4.395,137.752,27.839,-111.769
3940,-0.4473,0.7632,-0.7622,0.610,0.305,5.371,137.714,27.751,-111.813
3950,-0.4321,0.8057,-0.7964,14.771,7.874,4.761,137.840,27.592,-111.791
3960,-0.4297,0.7910,-0.8013,23.926,10.864,2.563,138.076,27.427,-111.731
3970,-0.4482,0.6899,-0.7129,24.292,6.226,-0.916,138.323,27.356,-111.676
3980,-0.4834,0.5781,-0.6265,15.991,-5.066,-6.042,138.477,27.455,-111.665
3990,-0.5088,0.5161,-0.5645,3.845,-15.930,-10.254,138.488,27.702,-111.698
4000,-0.5283,0.4429,-0.5068,-4.944,-21.667,-11.902,138.417,28.048,-111.758
4010,-0.5308,0.4224,-0.5112,-9.277,-19.226,-10.803,138.318,28.367,-111.813
4020,-0.5107,0.4893,-0.5806,-9.583,-10.193,-6.714,138.230,28.542,-111.830
4030,-0.4795,0.5596,-0.6538,-1.953,2.869,-1.343,138.241,28.537,-111.797
4040,-0.4727,0.6030,-0.7080,9.216,14.709,3.296,138.384,28.389,-111.714
4050,-0.4585,0.6235,-0.7451,17.761,20.386,6.287,138.625,28.163,-111.616
4060,-0.4531,0.6167,-0.7598,20.020,17.334,6.165,138.884,27.960,-111.539
4070,-0.4531,0.5933,-0.7612,16.785,9.338,4.517,139.092,27.834,-111.506
4080,-0.4575,0.5732,-0.7593,9.155,-0.122,2.258,139.213,27.801,-111.528
4090,-0.4639,0.5493,-0.7349,-0.305,-7.874,-0.244,139.224,27.850,-111.583
4100,-0.4683,0.5513,-0.7031,-8.850,-11.780,-1.404,139.131,27.949,-111.654
4110,-0.4619,0.5781,-0.6899,-12.634,-11.963,-0.977,138.977,28.037,-111.736
4120,-0.4634,0.6289,-0.6733,-9.094,-9.644,0.305,138.829,28.092,-111.813
4130,-0.4795,0.6436,-0.6646,0.549,-6.104,1.892,138.779,28.120,-111.874
4140,-0.4878,0.6294,-0.6475,10.132,-2.869,3.052,138.829,28.120,-111.918
4150,-0.4932,0.6006,-0.6279,15.198,-1.343,3.357,138.933,28.125,-111.956
4160,-0.5005,0.5566,-0.6123,13.184,-1.526,2.808,139.037,28.147,-111.995
4170,-0.4985,0.5552,-0.6274,5.798,-1.953,1.282,139.076,28.180,-112.022
4180,-0.4893,0.5820,-0.6655,-1.953,-1.038,0.244,139.048,28.196,-112.028
4190,-0.4795,0.6401,-0.7109,-6.958,1.465,-0.244,138.977,28.169,-112.017
4200,-0.4702,0.6968,-0.7314,-7.141,3.906,-1.343,138.900,28.120,-111.978
4210,-0.4702,0.6938,-0.7012,-2.441,3.235,-2.563,138.862,28.081,-111.929
4220,-0.4761,0.6528,-0.6641,2.686,-0.488,-3.967,138.867,28.103,-111.901
4230,-0.4937,0.5806,-0.6055,5.615,-5.310,-4.944,138.895,28.196,-111.896
4241,-0.5063,0.5376,-0.5767,4.578,-8.423,-5.005,138.917,28.339,-111.918
4250,-0.5093,0.5137,-0.5981,2.869,-6.409,-4.395,138.944,28.460,-111.929
4260,-0.4971,0.5259,-0.6523,1.831,0.854,-2.808,138.994,28.493,-111.896
4270,-0.4727,0.5532,-0.7095,0.488,9.155,-1.282,139.070,28.427,-111.819
4280,-0.4575,0.6011,-0.7534,-0.671,13.794,-0.671,139.136,28.295,-111.709
4290,-0.4517,0.6182,-0.7598,-0.732,13.367,-0.549,139.197,28.163,-111.605
4300,-0.4517,0.5894,-0.7349,0.122,7.507,-1.160,139.246,28.092,-111.539
4310,-0.4629,0.5669,-0.7158,0.244,0.000,-1.770,139.279,28.092,-111.522
4320,-0.4756,0.5557,-0.6973,-0.061,-4.822,-1.221,139.290,28.136,-111.550
4330,-0.4780,0.5474,-0.6914,0.366,-5.493,0.305,139.296,28.180,-111.594
4340,-0.4731,0.5449,-0.6938,0.854,-2.930,1.343,139.318,28.191,-111.627
4350,-0.4673,0.5605,-0.6987,0.427,0.122,1.709,139.334,28.174,-111.638
4360,-0.4634,0.5908,-0.7061,-0.305,2.075,1.892,139.340,28.130,-111.643
4370,-0.4658,0.6235,-0.7061,0.122,1.953,2.441,139.329,28.081,-111.649
4380,-0.4746,0.6265,-0.6978,3.113,0.427,2.930,139.334,28.048,-111.671
4390,-0.4824,0.6118,-0.6602,6.165,-1.526,2.991,139.356,28.043,-111.703
4400,-0.4941,0.5596,-0.6187,6.836,-4.395,2.563,139.384,28.081,-111.758
4410,-0.4956,0.5586,-0.6182,3.174,-6.226,1.526,139.373,28.147,-111.819
4420,-0.5015,0.5737,-0.6270,-1.404,-5.737,0.916,139.318,28.207,-111.868
4430,-0.4966,0.5962,-0.6426,-3.601,-2.441,0.854,139.252,28.235,-111.896
4440,-0.4844,0.6411,-0.6934,-2.686,2.258,0.671,139.208,28.202,-111.885
4450,-0.4722,0.6738,-0.7354,0.427,7.202,0.366,139.219,28.120,-111.835
4460,-0.4639,0.6699,-0.7505,3.601,9.277,-0.732,139.279,28.021,-111.758
4470,-0.4678,0.6377,-0.7388,3.784,6.470,-2.808,139.351,27.966,-111.687
4480,-0.4712,0.6157,-0.7212,0.305,0.305,-4.883,139.373,27.977,-111.643
4490,-0.4785,0.5986,-0.6934,-4.211,-4.822,-5.737,139.340,28.048,-111.627
4500,-0.4819,0.5767,-0.6611,-6.836,-6.714,-5.554,139.263,28.141,-111.632
4510,-0.4937,0.5371,-0.6274,-5.493,-5.737,-5.066,139.213,28.246,-111.632
4520,-0.4951,0.5103,-0.6299,-2.258,-3.174,-4.272,139.213,28.328,-111.616
4530,-0.4902,0.4966,-0.6401,0.977,-0.061,-2.136,139.263,28.372,-111.599
4540,-0.4839,0.4849,-0.6499,3.845,2.747,0.610,139.345,28.372,-111.583
4550,-0.4771,0.4937,-0.6665,4.517,4.517,2.869,139.438,28.334,-111.577
4560,-0.4624,0.5562,-0.7065,3.540,5.066,4.578,139.493,28.257,-111.577
4570,-0.4526,0.6191,-0.7461,3.662,5.127,5.493,139.532,28.147,-111.588
4580,-0.4575,0.6387,-0.7671,5.249,4.456,5.188,139.587,28.048,-111.599
4590,-0.4600,0.6377,-0.7798,5.249,2.563,3.723,139.647,27.971,-111.610
4600,-0.4653,0.6206,-0.7549,2.197,-1.282,2.197,139.664,27.938,-111.638
4610,-0.4795,0.5830,-0.6919,-2.869,-6.897,0.671,139.609,27.988,-111.698
4620,-0.4883,0.5591,-0.6367,-6.958,-12.268,-0.183,139.493,28.103,-111.786
4630,-0.4971,0.5669,-0.6035,-6.531,-14.038,0.061,139.351,28.235,-111.890
4640,-0.4961,0.5952,-0.6040,-2.197,-10.742,1.343,139.246,28.328,-111.978
4650,-0.4941,0.6123,-0.6211,4.150,-3.784,2.869,139.224,28.350,-112.033
4660,-0.4893,0.6235,-0.6392,8.972,3.906,2.930,139.279,28.306,-112.028
4670,-0.4888,0.6221,-0.6523,9.644,8.728,2.258,139.367,28.229,-111.984
4680,-0.4902,0.5874,-0.6553,6.348,9.827,1.587,139.444,28.152,-111.923
4691,-0.4883,0.5757,-0.6675,0.183,7.202,-0.244,139.471,28.109,-111.868
4700,-0.4863,0.5918,-0.6836,-5.432,3.113,-1.770,139.433,28.098,-111.830
4710,-0.4849,0.6069,-0.7046,-6.592,0.366,-1.892,139.373,28.103,-111.813
4720,-0.4717,0.6167,-0.7227,-3.601,0.671,-1.648,139.351,28.092,-111.791
4730,-0.4639,0.6182,-0.7324,0.427,2.808,-1.465,139.373,28.054,-111.758
4741,-0.4604,0.6011,-0.7285,2.991,4.517,-1.648,139.438,28.010,-111.714
4750,-0.4614,0.5566,-0.6816,2.075,3.662,-2.014,139.488,27.993,-111.671
4760,-0.4790,0.4946,-0.6382,-1.526,0.000,-2.319,139.510,28.037,-111.649
4770,-0.4858,0.4868,-0.6377,-6.531,-2.869,-2.014,139.477,28.103,-111.654
4780,-0.4878,0.5176,-0.6523,-8.728,-2.380,0.122,139.400,28.141,-111.671
4790,-0.4756,0.5693,-0.6997,-5.432,1.648,2.808,139.356,28.109,-111.682
4800,-0.4609,0.6226,-0.7568,0.549,6.287,4.578,139.378,28.004,-111.676
4810,-0.4487,0.6694,-0.8105,5.371,8.972,4.700,139.455,27.856,-111.649
4820,-0.4463,0.6904,-0.8281,6.287,7.629,3.357,139.537,27.724,-111.621
4830,-0.4521,0.6787,-0.7896,3.052,1.709,0.854,139.565,27.664,-111.616
4840,-0.4648,0.6641,-0.7471,-1.404,-6.592,-2.319,139.526,27.697,-111.643
4850,-0.4722,0.6401,-0.7036,-4.333,-12.634,-4.456,139.444,27.812,-111.698
4860,-0.4790,0.5747,-0.6196,-4.211,-14.893,-5.310,139.345,27.971,-111.764
4870,-0.5005,0.4507,-0.5112,-3.052,-15.198,-5.310,139.279,28.207,-111.830
4880,-0.5156,0.4170,-0.4775,-3.479,-14.587,-4.395,139.208,28.455,-111.901
4890,-0.5239,0.4341,-0.4976,-4.333,-10.193,-1.099,139.131,28.636,-111.967
4900,-0.5205,0.5117,-0.5503,-2.747,-1.221,3.662,139.065,28.680,-112.006
4910,-0.5034,0.5908,-0.6313,3.174,9.827,7.080,139.081,28.575,-111.995
4920,-0.4805,0.6558,-0.7124,10.193,18.433,9.155,139.191,28.361,-111.934
4930,-0.4585,0.6880,-0.7759,12.817,21.423,8.789,139.351,28.098,-111.852
4940,-0.4404,0.7207,-0.8237,8.911,18.127,6.348,139.471,27.856,-111.775
4950,-0.4404,0.7158,-0.8335,3.357,11.719,2.136,139.532,27.697,-111.703
4960,-0.4531,0.6680,-0.7852,-2.502,3.113,-2.563,139.526,27.647,-111.660
4970,-0.4751,0.5923,-0.7139,-8.057,-6.226,-6.714,139.460,27.735,-111.649
4980,-0.4824,0.5474,-0.6499,-12.207,-12.390,-8.545,139.340,27.900,-111.665
4990,-0.4888,0.5117,-0.5986,-11.230,-13.550,-7.874,139.213,28.092,-111.698
5000,-0.4946,0.4946,-0.5625,-6.287,-10.681,-5.005,139.131,28.257,-111.736
5010,-0.4917,0.5107,-0.5898,1.465,-4.395,-1.282,139.131,28.339,-111.758
5020,-0.4775,0.5312,-0.6450,8.789,4.272,2.502,139.241,28.306,-111.747
5030,-0.4639,0.5693,-0.7100,12.207,12.451,5.249,139.400,28.163,-111.698
5040,-0.4507,0.6167,-0.7686,9.949,16.907,5.981,139.554,27.966,-111.627
5050,-0.4531,0.6367,-0.7812,2.747,15.381,4.822,139.625,27.779,-111.555
5060,-0.4687,0.6504,-0.7695,-4.456,9.521,2.075,139.609,27.664,-111.500
5071,-0.4790,0.6470,-0.7393,-9.521,2.441,-0.793,139.515,27.636,-111.478
5081,-0.4883,0.6230,-0.6934,-10.986,-3.845,-3.113,139.395,27.686,-111.478
5091,-0.4868,0.5981,-0.6567,-7.996,-6.958,-4.150,139.290,27.773,-111.495
5101,-0.4746,0.5615,-0.6328,-1.404,-7.141,-3.479,139.257,27.867,-111.517
5111,-0.4609,0.5513,-0.6401,5.005,-5.005,-2.075,139.296,27.922,-111.539
5121,-0.4644,0.5508,-0.6572,8.728,-1.587,-0.427,139.389,27.944,-111.544
5131,-0.4663,0.5576,-0.6719,9.094,1.953,1.099,139.488,27.922,-111.539
5141,-0.4717,0.5503,-0.6733,6.836,3.784,1.953,139.576,27.889,-111.528
5151,-0.4766,0.5684,-0.6885,1.831,3.601,1.831,139.603,27.850,-111.517
5161,-0.4834,0.5952,-0.7002,-4.028,2.808,1.038,139.570,27.823,-111.506
5171,-0.5015,0.6001,-0.6982,-7.690,2.197,0.366,139.499,27.812,-111.495
5181,-0.4966,0.6099,-0.7061,-8.423,1.709,-0.549,139.422,27.806,-111.478
5191,-0.4722,0.6328,-0.7217,-6.287,1.526,-0.977,139.362,27.784,-111.456
5201,-0.4492,0.6187,-0.7144,-1.099,1.221,-0.610,139.351,27.751,-111.445
5211,-0.4272,0.6089,-0.7144,3.052,-0.305,-0.305,139.384,27.724,-111.440
5221,-0.4302,0.6162,-0.7158,4.089,-2.502,0.000,139.417,27.713,-111.462
5231,-0.4434,0.6094,-0.7095,3.540,-3.357,-0.061,139.438,27.713,-111.484
5241,-0.4736,0.5957,-0.6992,2.258,-2.869,-0.671,139.455,27.735,-111.500
5251,-0.5015,0.5674,-0.6660,0.916,-2.136,-1.343,139.466,27.779,-111.506
5261,-0.4961,0.5537,-0.6494,-0.305,-2.136,-1.831,139.460,27.834,-111.506
5271,-0.4893,0.5425,-0.6470,-0.916,-2.441,-1.526,139.455,27.883,-111.511
5281,-0.4849,0.5391,-0.6494,-0.793,-1.831,-0.610,139.455,27.922,-111.517
5291,-0.4751,0.5503,-0.6787,-0.427,0.366,0.488,139.466,27.922,-111.517
5301,-0.4639,0.5728,-0.7085,-0.977,3.357,1.587,139.477,27.878,-111.506
5311,-0.4595,0.5933,-0.7271,-1.526,4.822,2.075,139.482,27.812,-111.489
5321,-0.4595,0.6069,-0.7388,-2.014,3.662,2.014,139.477,27.746,-111.478
5331,-0.4736,0.6099,-0.7378,-1.953,0.793,1.770,139.460,27.719,-111.489
5341,-0.4741,0.5850,-0.6992,-1.953,-2.625,1.160,139.433,27.724,-111.517
5351,-0.4785,0.5635,-0.6558,-2.930,-6.165,0.488,139.384,27.779,-111.566
5361,-0.4829,0.5576,-0.6367,-3.418,-7.141,0.305,139.318,27.850,-111.621
5371,-0.4751,0.5532,-0.6221,-2.380,-5.066,1.160,139.263,27.900,-111.671
5381,-0.4780,0.5605,-0.6240,-0.488,-1.099,2.258,139.235,27.911,-111.698
5391,-0.4741,0.5898,-0.6499,1.465,2.747,3.540,139.230,27.872,-111.709
5401,-0.4702,0.6377,-0.6938,3.357,5.859,4.761,139.246,27.784,-111.703
5411,-0.4673,0.6714,-0.7349,5.432,7.568,4.944,139.290,27.669,-111.693
5421,-0.4683,0.6846,-0.7549,6.042,7.080,3.662,139.340,27.565,-111.671
5431,-0.4717,0.6816,-0.7583,4.395,4.456,1.038,139.384,27.499,-111.649
5441,-0.4849,0.6440,-0.7280,1.282,0.488,-1.892,139.395,27.493,-111.627
5451,-0.4917,0.5713,-0.6499,-2.380,-4.333,-4.578,139.367,27.581,-111.621
5461,-0.4917,0.5317,-0.5928,-6.042,-8.606,-6.226,139.290,27.724,-111.632
5471,-0.4873,0.5186,-0.5747,-7.080,-9.033,-6.348,139.202,27.878,-111.643
5481,-0.4751,0.5420,-0.6060,-5.676,-5.249,-4.395,139.136,27.971,-111.643
5491,-0.4531,0.6045,-0.7017,-0.671,2.014,-1.404,139.142,27.944,-111.616
5501,-0.4365,0.6553,-0.7935,5.798,11.108,0.854,139.246,27.806,-111.544
5511,-0.4434,0.6855,-0.8203,7.385,16.235,1.526,139.378,27.625,-111.434
5521,-0.4634,0.6357,-0.7720,4.150,13.306,0.732,139.471,27.493,-111.346
5531,-0.4839,0.5483,-0.6841,-1.526,3.601,-2.686,139.499,27.493,-111.297
5541,-0.4946,0.4707,-0.6016,-9.705,-8.667,-6.165,139.422,27.653,-111.302
5551,-0.4912,0.4468,-0.5679,-14.771,-16.541,-7.385,139.274,27.894,-111.363
5561,-0.4844,0.5103,-0.6177,-14.709,-16.113,-5.432,139.109,28.081,-111.434
5571,-0.4692,0.6167,-0.6963,-7.935,-7.446,-0.916,138.999,28.130,-111.484
5581,-0.4429,0.6880,-0.7324,3.845,3.662,3.052,139.016,28.037,-111.484
5591,-0.4419,0.7139,-0.7568,13.916,8.606,4.272,139.142,27.894,-111.456
5601,-0.4634,0.6904,-0.7534,17.151,4.700,3.052,139.301,27.806,-111.445
5611,-0.4766,0.6377,-0.7163,13.062,-2.319,0.122,139.411,27.806,-111.462
5621,-0.4912,0.5708,-0.6519,4.089,-8.606,-3.723,139.433,27.916,-111.495
5631,-0.5054,0.5034,-0.5854,-4.456,-13.855,-6.653,139.367,28.114,-111.539
5641,-0.5088,0.4429,-0.5444,-9.338,-14.893,-7.263,139.268,28.350,-111.588
5651,-0.5049,0.4316,-0.5415,-12.390,-10.864,-5.371,139.147,28.548,-111.621
5661,-0.4912,0.5068,-0.5840,-13.245,-3.418,-1.648,139.010,28.619,-111.632
5671,-0.4902,0.5762,-0.6362,-6.775,5.371,2.747,138.939,28.575,-111.616
5681,-0.4834,0.6206,-0.7007,3.845,13.367,6.592,138.994,28.422,-111.572
5691,-0.4771,0.6343,-0.7642,12.573,17.700,7.690,139.164,28.207,-111.506
5701,-0.4653,0.6504,-0.8301,13.428,17.151,6.592,139.356,27.993,-111.434
5711,-0.4419,0.6753,-0.8623,7.263,11.292,3.784,139.477,27.823,-111.385
5721,-0.4409,0.6826,-0.8481,0.122,2.075,0.366,139.499,27.751,-111.374
5731,-0.4414,0.6616,-0.7935,-4.211,-7.324,-2.808,139.455,27.773,-111.401
5741,-0.4507,0.5952,-0.6958,-5.676,-15.137,-4.944,139.367,27.905,-111.473
5751,-0.4707,0.5464,-0.6235,-5.432,-19.043,-5.615,139.263,28.103,-111.566
5761,-0.4985,0.5073,-0.5918,-2.869,-16.357,-3.967,139.197,28.295,-111.649
5771,-0.5112,0.5005,-0.5732,-0.732,-8.972,-1.038,139.158,28.427,-111.709
5781,-0.5117,0.5098,-0.5811,2.075,-0.061,1.648,139.164,28.466,-111.725
5791,-0.5024,0.5229,-0.6025,4.883,6.775,4.028,139.219,28.427,-111.709
5801,-0.4897,0.5439,-0.6475,5.920,10.071,5.737,139.301,28.334,-111.682
5811,-0.4756,0.5796,-0.6992,5.188,10.498,6.104,139.373,28.207,-111.660
5821,-0.4580,0.6206,-0.7305,3.357,8.850,5.676,139.417,28.076,-111.643
5831,-0.4585,0.6396,-0.7476,2.075,5.493,4.883,139.438,27.971,-111.643
5841,-0.4634,0.6646,-0.7544,0.549,2.014,3.540,139.427,27.900,-111.660
5851,-0.4639,0.6646,-0.7446,-0.366,-0.244,1.892,139.400,27.861,-111.676
5861,-0.4678,0.6436,-0.7227,-1.099,-1.526,-0.061,139.378,27.856,-111.687
5871,-0.4712,0.6182,-0.6973,-2.686,-2.563,-1.831,139.340,27.872,-111.687
5881,-0.4663,0.5981,-0.6694,-4.395,-3.479,-2.747,139.285,27.916,-111.693
5891,-0.4687,0.5732,-0.6436,-4.883,-4.395,-2.808,139.219,27.971,-111.698
5901,-0.4805,0.5532,-0.6274,-4.517,-4.639,-2.380,139.164,28.043,-111.714
5911,-0.4902,0.5610,-0.6187,-3.540,-3.601,-1.465,139.109,28.103,-111.725
5921,-0.4932,0.5771,-0.6367,-1.099,-1.099,0.183,139.081,28.125,-111.736
5931,-0.4951,0.5806,-0.6562,2.502,2.563,1.465,139.103,28.109,-111.731
5941,-0.4888,0.5835,-0.6899,5.249,5.615,1.831,139.175,28.059,-111.703
5951,-0.4702,0.5977,-0.7339,5.249,6.958,1.587,139.257,27.982,-111.665
5961,-0.4624,0.5991,-0.7554,2.991,6.165,0.977,139.329,27.905,-111.632
5971,-0.4512,0.5903,-0.7446,-0.549,3.357,0.183,139.356,27.856,-111.605
5981,-0.4531,0.5942,-0.7334,-3.601,-0.671,-0.244,139.334,27.839,-111.610
5991,-0.4570,0.6030,-0.7173,-4.456,-3.540,-0.122,139.285,27.845,-111.638
6001,-0.4639,0.6104,-0.6875,-2.380,-4.578,0.305,139.235,27.867,-111.671
6011,-0.4702,0.6079,-0.6738,1.953,-4.333,0.610,139.224,27.894,-111.709
6021,-0.4761,0.5933,-0.6704,6.470,-3.113,0.916,139.268,27.911,-111.742
6031,-0.4844,0.5747,-0.6709,8.301,-1.465,1.038,139.345,27.922,-111.758
6041,-0.4868,0.5444,-0.6665,7.019,-0.549,0.793,139.422,27.938,-111.769
6051,-0.4844,0.5352,-0.6631,3.052,-0.916,0.793,139.460,27.955,-111.786
6061,-0.4858,0.5435,-0.6626,-1.282,-1.526,1.099,139.449,27.977,-111.802
6071,-0.4775,0.5664,-0.6514,-3.662,-1.282,1.709,139.400,27.988,-111.830
6081,-0.4722,0.5879,-0.6392,-3.235,-1.404,2.197,139.334,27.988,-111.857
6091,-0.4780,0.5977,-0.6436,-0.244,-1.221,2.747,139.296,27.982,-111.890
6101,-0.4814,0.5947,-0.6514,2.808,0.244,3.174,139.296,27.971,-111.918
6111,-0.4854,0.5942,-0.6587,3.540,2.319,3.296,139.312,27.938,-111.929
6121,-0.4790,0.6079,-0.6826,2.563,4.272,2.930,139.329,27.883,-111.918
6131,-0.4766,0.6055,-0.6992,1.587,5.249,2.197,139.351,27.823,-111.901
6141,-0.4722,0.6011,-0.7153,0.916,5.188,1.343,139.378,27.768,-111.874
6151,-0.4683,0.5947,-0.7183,-0.061,3.967,0.732,139.400,27.719,-111.852
6161,-0.4692,0.6025,-0.7192,-2.075,2.014,0.183,139.389,27.691,-111.835
6171,-0.4717,0.6108,-0.7095,-3.479,0.549,-0.122,139.356,27.680,-111.835
6181,-0.4712,0.6060,-0.6812,-3.113,-0.427,-0.305,139.318,27.680,-111.835
6191,-0.4741,0.6045,-0.6611,-1.221,-1.160,-0.305,139.285,27.697,-111.841
6201,-0.4731,0.6006,-0.6641,1.648,-0.671,0.183,139.285,27.702,-111.846
6211,-0.4736,0.5928,-0.6772,3.967,1.099,0.610,139.318,27.691,-111.841
6221,-0.4712,0.5889,-0.6929,4.395,2.991,0.610,139.373,27.658,-111.824
6231,-0.4653,0.5933,-0.7085,3.235,3.662,0.549,139.422,27.620,-111.802
6241,-0.4629,0.5962,-0.7085,1.465,3.418,0.488,139.449,27.581,-111.780
6251,-0.4619,0.5933,-0.6968,0.305,2.258,0.244,139.460,27.554,-111.769
6261,-0.4692,0.5923,-0.6914,0.061,0.916,-0.122,139.466,27.543,-111.758
6271,-0.4683,0.5952,-0.6821,0.610,0.427,-0.183,139.466,27.543,-111.758
6281,-0.4678,0.5869,-0.6704,1.953,0.854,0.122,139.482,27.537,-111.753
6291,-0.4707,0.5859,-0.6709,3.235,1.465,0.427,139.510,27.526,-111.742
6301,-0.4712,0.5889,-0.6865,4.883,2.319,0.916,139.565,27.499,-111.736
6311,-0.4678,0.5884,-0.7095,6.836,3.296,1.221,139.647,27.460,-111.720
6321,-0.4551,0.5879,-0.7358,7.996,3.723,0.977,139.752,27.411,-111.703
6331,-0.4497,0.5801,-0.7397,6.775,2.808,0.488,139.845,27.367,-111.687
6341,-0.4468,0.5732,-0.7305,2.747,0.244,0.061,139.894,27.350,-111.687
6351,-0.4517,0.5957,-0.7222,-2.258,-2.808,0.122,139.867,27.356,-111.703
6361,-0.4658,0.6206,-0.7046,-3.296,-4.456,0.671,139.807,27.372,-111.742
6371,-0.4756,0.6113,-0.6860,1.404,-4.272,0.793,139.785,27.400,-111.780
6381,-0.4775,0.5576,-0.6665,7.812,-4.150,0.366,139.850,27.444,-111.813
6391,-0.4678,0.5093,-0.6562,10.437,-4.883,0.061,139.960,27.499,-111.852
6401,-0.4512,0.4746,-0.6245,7.080,-6.042,0.610,140.037,27.565,-111.901
6411,-0.4697,0.4902,-0.6172,0.549,-6.531,1.953,140.026,27.636,-111.967
6421,-0.4976,0.5620,-0.6260,-2.991,-3.906,3.784,139.949,27.669,-112.028
6431,-0.5127,0.6265,-0.6421,-0.244,1.282,5.676,139.889,27.647,-112.066
6441,-0.5098,0.6895,-0.6953,8.179,6.775,5.798,139.922,27.554,-112.066
6451,-0.4946,0.6738,-0.7212,18.372,10.803,4.517,140.092,27.438,-112.028
6461,-0.4761,0.5908,-0.7168,22.339,9.155,1.953,140.339,27.350,-111.978
6471,-0.4692,0.5518,-0.7461,14.343,3.540,-1.099,140.532,27.328,-111.945
6481,-0.4629,0.5479,-0.7539,-1.221,-1.038,-3.052,140.559,27.345,-111.923
6491,-0.4526,0.5874,-0.7344,-16.296,-2.625,-4.333,140.416,27.372,-111.907
6501,-0.4482,0.6577,-0.7148,-23.254,-3.479,-5.066,140.164,27.405,-111.885
6511,-0.4497,0.6709,-0.6899,-16.235,-3.845,-4.761,139.966,27.444,-111.874
6521,-0.4619,0.6079,-0.6768,-0.244,-3.479,-4.150,139.949,27.493,-111.863
6531,-0.4673,0.5571,-0.6880,12.146,-2.686,-3.784,140.087,27.537,-111.846
6541,-0.4727,0.5107,-0.6875,17.334,-1.770,-2.930,140.295,27.587,-111.835
6551,-0.4717,0.4702,-0.6855,14.465,-1.282,-1.709,140.493,27.625,-111.830
6561,-0.4668,0.4951,-0.7134,5.798,-0.977,-0.977,140.598,27.647,-111.830
6571,-0.4624,0.5342,-0.7275,-3.357,0.366,-0.549,140.603,27.642,-111.819
6581,-0.4482,0.5620,-0.7026,-10.498,0.854,-0.488,140.510,27.625,-111.813
6591,-0.4521,0.6128,-0.7056,-14.587,-0.488,-0.732,140.350,27.614,-111.808
6601,-0.4673,0.6382,-0.7031,-13.000,-1.099,-0.366,140.197,27.614,-111.813
6611,-0.4824,0.6338,-0.6880,-7.080,-0.427,-0.183,140.098,27.614,-111.813
6621,-0.4976,0.5908,-0.6611,-1.282,-0.305,-0.488,140.065,27.636,-111.813
6631,-0.4927,0.5532,-0.6440,0.366,-1.343,-0.854,140.059,27.675,-111.813
6641,-0.4839,0.5264,-0.6318,-1.648,-2.258,-1.038,140.043,27.729,-111.824
6651,-0.4790,0.5239,-0.6343,-4.028,-2.502,-0.854,139.999,27.779,-111.835
6661,-0.4692,0.6089,-0.7339,-5.432,0.488,-0.183,139.955,27.757,-111.830
6671,-0.4419,0.7217,-0.8398,-3.906,8.057,1.038,139.933,27.631,-111.780
6681,-0.4385,0.7632,-0.8579,-0.183,14.526,0.793,139.960,27.449,-111.682
6691,-0.4551,0.7686,-0.8315,0.732,13.306,-2.075,139.993,27.307,-111.566
6701,-0.4976,0.5557,-0.5981,0.549,1.709,-6.897,139.999,27.378,-111.495
6711,-0.5366,0.3384,-0.4253,-4.517,-18.250,-12.390,139.960,27.768,-111.517
6721,-0.5459,0.2764,-0.4463,-15.198,-30.273,-14.404,139.845,28.273,-111.616
6731,-0.5254,0.3511,-0.4956,-25.391,-22.217,-8.362,139.603,28.619,-111.703
6741,-0.4922,0.5220,-0.6265,-24.170,0.793,0.244,139.373,28.636,-111.698
6751,-0.4438,0.6924,-0.7886,-10.803,25.818,8.728,139.312,28.328,-111.583
6761,-0.3892,0.8530,-0.9653,2.136,40.344,12.146,139.417,27.834,-111.390
6771,-0.3628,0.9063,-1.0532,13.062,40.894,10.376,139.642,27.328,-111.176
6781,-0.3628,0.8726,-1.0303,17.029,26.489,4.211,139.883,26.977,-111.022
6791,-0.3916,0.7407,-0.9180,13.245,0.793,-4.150,140.043,26.911,-110.978
6801,-0.4326,0.5884,-0.7480,3.601,-25.940,-12.146,140.059,27.164,-111.061
6811,-0.4751,0.4375,-0.5820,-3.845,-44.495,-15.991,139.971,27.658,-111.248
6821,-0.5034,0.3364,-0.4580,-8.728,-50.232,-15.137,139.812,28.279,-111.478
6831,-0.5317,0.3135,-0.3789,-10.620,-41.870,-10.620,139.614,28.850,-111.693
6841,-0.5488,0.3579,-0.3633,-5.066,-23.621,-2.686,139.449,29.229,-111.846
6851,-0.5464,0.4209,-0.4277,5.798,-1.465,5.920,139.438,29.333,-111.907
6861,-0.5273,0.4956,-0.5376,15.747,18.372,11.658,139.587,29.185,-111.874
6871,-0.5068,0.5781,-0.6523,15.930,28.625,14.343,139.779,28.889,-111.786
6881,-0.4756,0.6294,-0.7490,10.437,30.212,14.709,139.927,28.531,-111.693
6891,-0.4580,0.6924,-0.8154,3.357,25.024,12.512,139.993,28.213,-111.616
6901,-0.4458,0.7520,-0.8657,-4.272,16.113,8.240,139.960,27.966,-111.572
6911,-0.4434,0.7739,-0.8633,-9.033,6.531,3.174,139.867,27.828,-111.550
6921,-0.4502,0.7393,-0.8101,-9.033,-2.075,-1.465,139.752,27.795,-111.555
6931,-0.4653,0.6631,-0.7271,-5.249,-9.338,-5.310,139.669,27.878,-111.577
6941,-0.4741,0.5776,-0.6538,0.488,-13.428,-7.812,139.647,28.032,-111.605
6951,-0.4844,0.5020,-0.5957,4.028,-13.916,-8.240,139.675,28.229,-111.638
6961,-0.4883,0.4702,-0.5771,4.761,-10.742,-6.165,139.724,28.400,-111.660
6971,-0.4902,0.4766,-0.5928,4.456,-4.517,-2.991,139.779,28.499,-111.671
6981,-0.4722,0.5122,-0.6392,4.089,2.930,0.305,139.839,28.488,-111.649
6991,-0.4644,0.5483,-0.6870,3.662,8.545,2.869,139.911,28.400,-111.616
7001,-0.4697,0.5864,-0.7314,2.075,10.437,3.845,139.966,28.279,-111.572
7011,-0.4814,0.6021,-0.7554,-0.305,9.521,3.784,139.993,28.163,-111.533
7021,-0.4824,0.6099,-0.7632,-2.380,6.409,2.930,139.993,28.081,-111.511
7031,-0.4727,0.6069,-0.7651,-3.357,2.625,1.648,139.977,28.026,-111.506
7041,-0.4609,0.5874,-0.7397,-2.991,-0.977,0.549,139.960,28.010,-111.517
7051,-0.4502,0.5513,-0.7007,-2.258,-3.906,0.122,139.944,28.026,-111.550
7061,-0.4551,0.5537,-0.6938,-2.319,-5.249,0.366,139.916,28.054,-111.588
7071,-0.4609,0.5645,-0.6924,-1.160,-3.662,1.282,139.894,28.065,-111.627
7081,-0.4644,0.5674,-0.6948,1.892,-0.549,2.319,139.911,28.048,-111.654
7091,-0.4634,0.5776,-0.7090,4.211,1.282,2.930,139.955,28.010,-111.671
7101,-0.4619,0.5791,-0.7065,4.211,0.305,3.357,139.988,27.971,-111.693
7111,-0.4678,0.5649,-0.6855,2.136,-2.625,3.784,139.993,27.966,-111.747
7121,-0.4824,0.5791,-0.6782,-1.465,-4.883,4.028,139.938,27.982,-111.819
7131,-0.4878,0.5986,-0.6782,-3.296,-4.456,4.333,139.861,27.993,-111.885
7141,-0.4785,0.6069,-0.6816,-2.014,-1.770,4.272,139.801,27.977,-111.940
7151,-0.4663,0.6221,-0.6924,-0.244,0.488,3.540,139.768,27.938,-111.962
7161,-0.4668,0.6240,-0.7036,0.793,1.038,2.747,139.757,27.894,-111.978
7171,-0.4683,0.6167,-0.6904,0.610,0.244,1.831,139.741,27.872,-111.995
7181,-0.4771,0.6045,-0.6616,-0.427,-1.648,0.916,139.708,27.878,-112.017
7191,-0.4829,0.5996,-0.6494,-1.282,-2.625,0.244,139.658,27.905,-112.033
7201,-0.4873,0.5928,-0.6353,-0.854,-1.343,0.183,139.620,27.927,-112.050
7211,-0.4907,0.5811,-0.6338,0.427,1.282,0.305,139.603,27.933,-112.039
7221,-0.4873,0.5601,-0.6382,1.282,3.845,0.549,139.620,27.922,-112.017
7231,-0.4771,0.5513,-0.6392,0.732,5.798,0.916,139.642,27.889,-111.984
7241,-0.4697,0.5503,-0.6362,0.549,5.981,1.831,139.653,27.845,-111.956
7251,-0.4731,0.5425,-0.6489,2.563,4.761,3.052,139.686,27.801,-111.945
7261,-0.4707,0.5571,-0.6797,5.005,4.517,4.272,139.746,27.746,-111.951
7271,-0.4707,0.5669,-0.7095,7.202,5.554,5.554,139.828,27.664,-111.956
7281,-0.4492,0.5972,-0.7510,7.202,7.324,6.165,139.916,27.543,-111.956
7291,-0.4214,0.6470,-0.8140,5.188,8.423,5.737,139.988,27.389,-111.945
7301,-0.4150,0.6899,-0.8657,2.319,7.690,4.089,140.037,27.235,-111.923
7311,-0.4214,0.7075,-0.8691,0.183,4.944,1.465,140.054,27.120,-111.901
7321,-0.4453,0.6841,-0.8291,0.000,-0.305,-1.587,140.065,27.087,-111.890
7331,-0.4536,0.6455,-0.7744,-0.122,-7.690,-3.662,140.054,27.142,-111.912
7341,-0.4595,0.5645,-0.6831,0.488,-14.526,-4.761,140.037,27.285,-111.978
7351,-0.4683,0.4683,-0.5576,0.427,-19.531,-5.066,139.993,27.521,-112.077
7361,-0.4912,0.4189,-0.4995,-1.343,-21.912,-3.723,139.922,27.806,-112.203
7371,-0.5044,0.4292,-0.5054,-3.479,-16.663,0.000,139.828,28.026,-112.324
7381,-0.5024,0.4961,-0.5547,-3.967,-4.028,3.906,139.746,28.092,-112.385
7391,-0.4893,0.5981,-0.6636,-1.038,10.315,6.226,139.724,27.977,-112.363
7401,-0.4717,0.6733,-0.7656,2.747,20.752,6.775,139.785,27.746,-112.269
7411,-0.4512,0.7339,-0.8374,2.991,22.644,5.005,139.861,27.488,-112.148
7421,-0.4355,0.7256,-0.8218,0.366,16.052,1.892,139.900,27.296,-112.050
7431,-0.4395,0.6631,-0.7500,-3.662,3.540,-1.770,139.867,27.246,-112.006
7441,-0.4600,0.6006,-0.6670,-9.583,-9.277,-5.188,139.746,27.345,-112.033
7451,-0.4751,0.5522,-0.6021,-12.329,-16.235,-6.653,139.570,27.543,-112.094
7461,-0.4839,0.5327,-0.5898,-10.132,-14.038,-5.920,139.433,27.724,-112.143
7471,-0.4805,0.5410,-0.6089,-4.333,-5.005,-3.418,139.373,27.812,-112.148
7481,-0.4717,0.5425,-0.6323,3.845,5.493,-0.488,139.433,27.790,-112.104
7491,-0.4590,0.5386,-0.6631,10.254,12.268,1.892,139.581,27.691,-112.033
7501,-0.4561,0.5112,-0.6680,10.437,12.451,3.052,139.746,27.581,-111.967
7511,-0.4746,0.5166,-0.6733,3.967,7.690,3.113,139.828,27.521,-111.940
7521,-0.4785,0.5522,-0.6870,-4.517,3.906,3.662,139.796,27.477,-111.940
7531,-0.4707,0.6001,-0.7109,-8.911,3.845,4.517,139.702,27.416,-111.951
7541,-0.4595,0.6787,-0.7764,-7.385,7.080,4.517,139.625,27.296,-111.940
7551,-0.4404,0.7280,-0.8433,-0.183,10.620,3.784,139.636,27.136,-111.896
7561,-0.4263,0.7290,-0.8789,6.836,11.414,2.380,139.741,26.966,-111.830
7571,-0.4092,0.6846,-0.8335,9.033,7.202,0.061,139.861,26.851,-111.780
7581,-0.4233,0.5977,-0.7480,7.812,-2.014,-3.052,139.960,26.856,-111.769
7591,-0.4482,0.5322,-0.6621,1.648,-11.963,-5.249,139.971,26.988,-111.808
7601,-0.4634,0.4888,-0.5864,-5.127,-17.822,-5.432,139.883,27.202,-111.890
7611,-0.4893,0.4658,-0.5542,-8.606,-16.479,-4.150,139.763,27.422,-111.978
7621,-0.4976,0.5142,-0.5776,-8.728,-9.827,-1.526,139.636,27.559,-112.033
7631,-0.4902,0.5488,-0.6143,-3.845,-0.488,1.526,139.576,27.587,-112.050
7641,-0.4824,0.5889,-0.6743,3.296,7.690,3.845,139.614,27.510,-112.028
7651,-0.4653,0.6338,-0.7490,8.362,12.146,4.944,139.719,27.367,-111.984
7661,-0.4512,0.6470,-0.7759,8.423,11.841,4.700,139.828,27.213,-111.934
7671,-0.4414,0.6548,-0.7695,3.052,6.836,2.930,139.867,27.109,-111.912
7681,-0.4219,0.6177,-0.7153,-2.441,0.427,0.183,139.834,27.070,-111.907
7691,-0.4287,0.5229,-0.6094,-7.751,-6.531,-2.197,139.741,27.147,-111.940
7701,-0.4609,0.4819,-0.5391,-13.428,-11.658,-3.113,139.565,27.307,-111.995
7711,-0.4980,0.4878,-0.5303,-14.526,-9.766,-1.404,139.373,27.466,-112.055
7721,-0.5254,0.5444,-0.5630,-11.719,-1.038,1.953,139.213,27.521,-112.077
7731,-0.5137,0.6460,-0.6719,-3.296,10.681,5.371,139.164,27.422,-112.044
7741,-0.4819,0.7241,-0.8096,9.216,20.508,7.080,139.285,27.186,-111.956
7751,-0.4395,0.7598,-0.9067,16.663,23.437,6.287,139.515,26.900,-111.835
7761,-0.3887,0.7227,-0.9219,16.418,17.761,2.991,139.746,26.664,-111.731
7771,-0.3838,0.6743,-0.8833,8.728,5.859,-1.526,139.883,26.554,-111.676
7781,-0.4023,0.6470,-0.8384,-2.869,-6.836,-5.920,139.883,26.587,-111.676
7791,-0.4297,0.5884,-0.7422,-10.193,-15.381,-8.545,139.779,26.735,-111.714
7801,-0.4580,0.5044,-0.6318,-10.376,-18.799,-9.216,139.669,26.966,-111.769
7811,-0.4761,0.4668,-0.5625,-6.958,-19.104,-7.874,139.576,27.219,-111.841
7821,-0.4883,0.4424,-0.5405,-0.854,-15.503,-4.639,139.543,27.444,-111.918
7831,-0.4810,0.4556,-0.5669,5.493,-8.118,-0.183,139.587,27.565,-111.973
7841,-0.4707,0.4951,-0.6226,10.864,0.549,4.272,139.702,27.565,-112.006
7851,-0.4619,0.5542,-0.6924,12.390,7.568,7.141,139.839,27.460,-112.011
7861,-0.4482,0.6069,-0.7485,9.216,10.376,8.240,139.944,27.307,-112.011
7871,-0.4395,0.6357,-0.7656,2.991,8.423,7.690,139.971,27.158,-112.017
7881,-0.4492,0.6567,-0.7666,-3.601,3.723,5.615,139.922,27.065,-112.033
7891,-0.4580,0.6733,-0.7476,-8.057,-1.282,3.235,139.807,27.026,-112.072
7901,-0.4663,0.6616,-0.7153,-8.301,-5.432,0.916,139.675,27.048,-112.121
7911,-0.4639,0.6313,-0.6826,-4.944,-7.446,-0.977,139.581,27.103,-112.165
7921,-0.4580,0.5933,-0.6489,-1.099,-7.935,-1.526,139.532,27.180,-112.209
7931,-0.4624,0.5601,-0.6216,1.770,-7.019,-1.160,139.515,27.257,-112.253
7941,-0.4722,0.5601,-0.6206,2.563,-4.395,-0.244,139.510,27.312,-112.280
7951,-0.4766,0.5811,-0.6421,2.869,-0.244,1.160,139.515,27.323,-112.291
7961,-0.4756,0.5977,-0.6733,3.479,3.845,2.014,139.543,27.285,-112.280
7971,-0.4795,0.6094,-0.7007,3.540,5.737,2.075,139.587,27.230,-112.258
7981,-0.4678,0.6138,-0.7217,2.747,5.493,1.953,139.625,27.164,-112.236
7991,-0.4556,0.6104,-0.7305,1.282,3.845,0.916,139.653,27.114,-112.214
8001,-0.4399,0.5977,-0.7148,-0.610,1.038,-0.671,139.653,27.092,-112.203
8011,-0.4497,0.5791,-0.7007,-1.831,-2.136,-1.831,139.647,27.114,-112.203
8021,-0.4590,0.5747,-0.7012,-2.747,-2.991,-1.709,139.625,27.142,-112.209
8031,-0.4507,0.5806,-0.7061,-2.258,-1.038,-0.732,139.609,27.147,-112.209
8041,-0.4526,0.5864,-0.6992,-0.549,1.160,0.183,139.614,27.131,-112.203
8051,-0.4629,0.5962,-0.7002,2.014,1.953,1.282,139.636,27.103,-112.198
8061,-0.4600,0.5986,-0.7065,5.066,2.075,2.441,139.680,27.065,-112.203
8071,-0.4600,0.5669,-0.6855,7.446,0.854,2.747,139.757,27.043,-112.220
8081,-0.4663,0.5366,-0.6680,6.531,-2.197,2.319,139.818,27.059,-112.258
8091,-0.4687,0.5371,-0.6733,2.502,-4.272,2.197,139.839,27.092,-112.308
8101,-0.4580,0.5669,-0.7036,-1.465,-2.869,2.747,139.818,27.098,-112.352
8111,-0.4448,0.6030,-0.7280,-3.235,1.221,3.235,139.779,27.048,-112.374
8121,-0.4473,0.6226,-0.7290,-2.441,4.578,3.601,139.757,26.971,-112.368
8131,-0.4517,0.6304,-0.7363,-0.671,5.310,3.357,139.752,26.889,-112.357
8141,-0.4551,0.6265,-0.7227,0.061,3.601,2.563,139.746,26.829,-112.357
8151,-0.4629,0.6060,-0.6968,-0.305,0.610,1.160,139.730,26.818,-112.363
8161,-0.4678,0.5757,-0.6660,-1.465,-2.747,-0.610,139.702,26.851,-112.374
8171,-0.4687,0.5605,-0.6436,-2.991,-4.822,-1.587,139.658,26.917,-112.396
8181,-0.4502,0.5557,-0.6274,-3.906,-4.883,-1.160,139.598,26.977,-112.423
8191,-0.4497,0.5703,-0.6436,-2.747,-3.418,-0.244,139.548,27.010,-112.445
8201,-0.4517,0.5991,-0.6719,-0.183,-0.427,0.549,139.526,27.004,-112.451
8211,-0.4624,0.6138,-0.6919,2.319,2.563,1.221,139.543,26.971,-112.445
8221,-0.4653,0.6206,-0.7109,2.930,4.272,1.465,139.576,26.927,-112.429
8231,-0.4683,0.6084,-0.7017,1.526,4.517,0.793,139.598,26.884,-112.401
8241,-0.4785,0.5889,-0.6816,-0.854,2.686,-0.488,139.592,26.878,-112.374
8251,-0.4731,0.5771,-0.6787,-2.441,0.732,-1.221,139.576,26.889,-112.363
8261,-0.4629,0.5635,-0.6689,-2.014,0.549,-1.099,139.565,26.906,-112.346
8271,-0.4438,0.5586,-0.6768,-0.427,0.977,-0.610,139.576,26.900,-112.335
8281,-0.4233,0.5864,-0.7222,1.099,1.160,-0.305,139.609,26.867,-112.324
8291,-0.4253,0.6118,-0.7559,1.892,1.465,-0.122,139.647,26.829,-112.313
8301,-0.4380,0.6284,-0.7778,1.526,1.282,-0.366,139.680,26.790,-112.302
8311,-0.4536,0.6304,-0.7593,0.732,0.366,-0.488,139.697,26.768,-112.291
8321,-0.4585,0.6050,-0.7261,0.854,-1.404,-0.366,139.708,26.768,-112.302
8331,-0.4595,0.5864,-0.7026,1.221,-3.235,-0.549,139.713,26.796,-112.319
8341,-0.4526,0.5620,-0.6733,1.160,-4.150,-0.488,139.719,26.840,-112.346
8351,-0.4541,0.5371,-0.6528,0.366,-4.333,-0.122,139.719,26.884,-112.374
8361,-0.4604,0.5439,-0.6470,-1.648,-3.418,0.732,139.691,26.922,-112.407
8371,-0.4634,0.5581,-0.6514,-2.625,-1.160,2.014,139.647,26.933,-112.434
8381,-0.4658,0.5806,-0.6592,-1.770,1.709,2.747,139.614,26.911,-112.445
8391,-0.4707,0.5903,-0.6597,1.160,2.808,2.930,139.609,26.884,-112.445
8401,-0.4653,0.5928,-0.6777,4.150,1.587,2.625,139.642,26.862,-112.456
8411,-0.4624,0.5967,-0.6963,4.822,0.122,2.136,139.675,26.845,-112.478
8421,-0.4541,0.5996,-0.7065,2.869,0.488,2.319,139.697,26.818,-112.495
8431,-0.4468,0.6279,-0.7251,-0.183,2.563,3.052,139.686,26.763,-112.500
8441,-0.4395,0.6465,-0.7275,-1.770,4.333,2.808,139.658,26.686,-112.495
8451,-0.4512,0.6655,-0.7310,-1.343,3.113,1.282,139.631,26.631,-112.478
8461,-0.4541,0.6733,-0.7480,0.122,0.183,-0.488,139.620,26.609,-112.473
8471,-0.4536,0.6543,-0.7495,2.258,-1.465,-1.770,139.636,26.614,-112.473
8481,-0.4453,0.6226,-0.7314,3.296,-2.258,-2.991,139.675,26.631,-112.462
8491,-0.4375,0.5737,-0.6841,2.686,-3.662,-3.845,139.708,26.680,-112.456
8501,-0.4570,0.5405,-0.6475,0.916,-5.371,-3.784,139.713,26.763,-112.462
8511,-0.4648,0.5298,-0.6421,0.488,-4.517,-2.075,139.719,26.834,-112.478
8521,-0.4683,0.5215,-0.6538,2.136,-1.160,0.000,139.757,26.867,-112.484
8531,-0.4595,0.5415,-0.6724,2.930,1.587,1.587,139.796,26.856,-112.489
8541,-0.4575,0.5889,-0.7329,2.747,3.723,2.380,139.839,26.801,-112.478
8551,-0.4502,0.6406,-0.7832,1.526,6.470,2.502,139.878,26.708,-112.456
8561,-0.4414,0.6680,-0.7788,0.854,7.751,2.014,139.900,26.603,-112.418
8571,-0.4399,0.6221,-0.7227,1.038,4.517,1.038,139.911,26.543,-112.390
8581,-0.4468,0.5742,-0.6836,0.488,-1.465,-0.305,139.916,26.559,-112.401
8591,-0.4619,0.5381,-0.6611,-1.099,-5.676,-1.160,139.900,26.625,-112.434
8601,-0.4609,0.5386,-0.6602,-3.296,-6.165,-0.977,139.861,26.697,-112.467
8611,-0.4619,0.5591,-0.6763,-2.808,-3.052,0.549,139.823,26.730,-112.495
8621,-0.4619,0.5869,-0.6895,-0.122,1.953,2.808,139.818,26.697,-112.505
8631,-0.4546,0.5781,-0.6875,4.028,5.310,4.272,139.861,26.631,-112.500
8641,-0.4541,0.5537,-0.6626,5.432,4.761,4.395,139.916,26.581,-112.505
8651,-0.4678,0.5542,-0.6548,2.625,2.380,3.723,139.933,26.559,-112.522
8661,-0.4541,0.5879,-0.6792,-1.709,2.014,2.869,139.900,26.526,-112.533
8671,-0.4370,0.6436,-0.7437,-3.784,3.845,1.404,139.861,26.466,-112.516
8681,-0.4346,0.6782,-0.7886,-3.418,6.653,0.183,139.845,26.373,-112.467
8691,-0.4272,0.6978,-0.8130,-2.930,7.629,-0.854,139.839,26.274,-112.407
8701,-0.4258,0.6973,-0.8003,-2.441,5.676,-2.563,139.834,26.202,-112.346
8711,-0.4414,0.6313,-0.7310,-1.404,-0.244,-4.944,139.828,26.224,-112.302
8721,-0.4580,0.5581,-0.6606,-1.221,-8.301,-6.714,139.818,26.345,-112.308
8731,-0.4707,0.5010,-0.5947,-1.099,-13.306,-6.470,139.790,26.537,-112.346
8741,-0.4741,0.4390,-0.5454,0.732,-12.817,-4.578,139.785,26.735,-112.401
8751,-0.4858,0.4253,-0.5435,2.197,-7.812,-2.014,139.812,26.895,-112.440
8761,-0.4829,0.4512,-0.5698,2.380,-0.427,1.709,139.845,26.955,-112.456
8771,-0.4731,0.4927,-0.6289,3.479,7.141,5.310,139.905,26.900,-112.451
8781,-0.4590,0.5615,-0.7075,4.089,12.268,7.690,139.971,26.757,-112.429
8791,-0.4434,0.6221,-0.7695,3.723,13.245,8.484,140.026,26.581,-112.407
8801,-0.4263,0.6943,-0.8291,2.075,10.742,8.057,140.054,26.395,-112.396
8811,-0.4141,0.7197,-0.8506,1.038,7.080,6.226,140.059,26.241,-112.401
8821,-0.4023,0.6860,-0.7935,-0.610,1.404,3.357,140.037,26.158,-112.418
8831,-0.4233,0.6445,-0.7314,-3.601,-6.104,0.549,139.966,26.175,-112.467
8841,-0.4482,0.6201,-0.6860,-5.493,-10.376,-1.099,139.861,26.257,-112.533
8851,-0.4673,0.5962,-0.6499,-2.686,-8.972,-1.648,139.790,26.351,-112.582
8861,-0.4756,0.5625,-0.6436,3.601,-4.578,-1.526,139.807,26.422,-112.604
8871,-0.4712,0.5415,-0.6450,8.057,-0.183,-0.427,139.889,26.455,-112.599
8881,-0.4585,0.5483,-0.6592,8.362,2.258,0.854,139.977,26.450,-112.593
8891,-0.4419,0.5923,-0.7075,5.676,3.174,1.648,140.037,26.406,-112.582
8901,-0.4346,0.6440,-0.7485,3.174,4.150,1.892,140.070,26.334,-112.571
8911,-0.4380,0.6689,-0.7710,2.197,4.639,1.526,140.092,26.263,-112.549
8921,-0.4458,0.6553,-0.7759,1.282,3.845,0.366,140.109,26.202,-112.522
8931,-0.4507,0.6138,-0.7510,-1.099,1.221,-2.197,140.120,26.197,-112.495
8941,-0.4536,0.5630,-0.7080,-5.371,-2.625,-4.883,140.087,26.252,-112.473
8951,-0.4541,0.5132,-0.6499,-9.216,-6.104,-6.348,140.021,26.362,-112.462
8961,-0.4492,0.4941,-0.6074,-10.254,-7.935,-6.042,139.922,26.494,-112.467
8971,-0.4609,0.4990,-0.5991,-6.531,-6.958,-3.601,139.850,26.614,-112.489
8981,-0.4556,0.5239,-0.6284,0.061,-1.831,0.244,139.850,26.647,-112.505
8991,-0.4468,0.5479,-0.6606,5.920,4.517,4.089,139.911,26.598,-112.505
9001,-0.4502,0.5781,-0.7046,8.728,7.996,6.104,140.010,26.494,-112.500
9011,-0.4561,0.6191,-0.7554,7.324,8.118,6.226,140.087,26.378,-112.495
9021,-0.4531,0.6499,-0.7896,3.906,6.653,5.249,140.136,26.268,-112.495
9031,-0.4424,0.6514,-0.7949,0.549,4.150,3.235,140.147,26.191,-112.489
9041,-0.4258,0.6255,-0.7549,-2.625,0.061,0.916,140.120,26.158,-112.500
9051,-0.4287,0.5977,-0.7031,-5.310,-4.700,-0.732,140.048,26.186,-112.527
9061,-0.4438,0.5840,-0.6641,-6.531,-6.897,-1.526,139.955,26.252,-112.560
9071,-0.4546,0.5742,-0.6396,-5.127,-5.249,-1.526,139.872,26.318,-112.588
9081,-0.4580,0.5762,-0.6416,-2.258,-1.770,-0.671,139.828,26.351,-112.593
9091,-0.4639,0.5845,-0.6714,1.221,2.258,0.854,139.839,26.340,-112.582
9101,-0.4624,0.5967,-0.6978,4.272,5.920,2.136,139.889,26.285,-112.560
9111,-0.4448,0.6006,-0.7236,5.615,6.958,2.502,139.960,26.208,-112.533
9121,-0.4390,0.6079,-0.7417,4.395,4.761,1.587,140.021,26.147,-112.511
9131,-0.4370,0.6211,-0.7563,0.854,1.648,-0.122,140.037,26.115,-112.500
9141,-0.4346,0.6235,-0.7480,-2.930,-0.732,-1.648,140.015,26.109,-112.489
9151,-0.4258,0.6138,-0.7207,-5.249,-2.686,-2.808,139.960,26.125,-112.484
9161,-0.4399,0.6064,-0.6963,-5.371,-4.517,-3.357,139.894,26.175,-112.489
9171,-0.4531,0.5903,-0.6831,-2.991,-4.700,-2.991,139.856,26.235,-112.495
9181,-0.4541,0.5396,-0.6592,0.061,-3.662,-2.441,139.861,26.296,-112.500
9191,-0.4648,0.5337,-0.6670,0.732,-3.418,-2.197,139.883,26.362,-112.505
9201,-0.4653,0.5532,-0.6870,-0.366,-2.747,-1.526,139.889,26.406,-112.516
9211,-0.4570,0.5806,-0.7051,-0.854,-0.916,-0.549,139.883,26.417,-112.516
9221,-0.4395,0.6240,-0.7383,-0.183,0.366,-0.427,139.883,26.400,-112.511
9231,-0.4263,0.6577,-0.7651,0.854,-0.061,-1.404,139.894,26.373,-112.500
9241,-0.4312,0.6597,-0.7690,1.160,-2.075,-2.869,139.905,26.373,-112.489
9251,-0.4341,0.6465,-0.7568,-0.916,-4.944,-4.761,139.894,26.411,-112.484
9261,-0.4351,0.5874,-0.6841,-3.662,-7.751,-6.531,139.850,26.505,-112.484
9271,-0.4629,0.5083,-0.6235,-6.409,-10.742,-8.057,139.796,26.675,-112.495
9281,-0.4819,0.4902,-0.5991,-10.376,-11.841,-8.728,139.697,26.873,-112.500
9291,-0.4927,0.5044,-0.5962,-12.268,-8.911,-7.324,139.570,27.037,-112.505
9301,-0.4917,0.5488,-0.6108,-10.376,-2.930,-3.845,139.460,27.125,-112.495
9311,-0.4756,0.5942,-0.6445,-3.174,2.869,0.732,139.417,27.114,-112.478
9321,-0.4634,0.6143,-0.6885,6.897,6.897,3.418,139.482,27.032,-112.456
9331,-0.4590,0.6143,-0.7407,12.695,7.385,3.845,139.625,26.938,-112.434
9341,-0.4336,0.6260,-0.7861,10.925,6.409,2.930,139.763,26.834,-112.412
9351,-0.4258,0.6514,-0.8096,3.235,4.578,1.099,139.818,26.746,-112.390
9361,-0.4175,0.6665,-0.8027,-3.540,1.953,-2.075,139.801,26.697,-112.357
9371,-0.4326,0.6606,-0.7832,-7.324,-2.258,-6.287,139.746,26.719,-112.324
9381,-0.4648,0.6318,-0.7505,-7.751,-7.019,-9.644,139.686,26.818,-112.291
9391,-0.4766,0.5791,-0.6782,-7.019,-10.681,-10.315,139.620,26.977,-112.280
9401,-0.4800,0.5264,-0.6040,-5.676,-12.939,-8.179,139.543,27.169,-112.302
9411,-0.4863,0.4946,-0.5732,-2.441,-10.986,-4.395,139.499,27.334,-112.346
9421,-0.4780,0.4932,-0.5796,2.563,-4.456,-0.366,139.510,27.416,-112.374
9431,-0.4653,0.5146,-0.6289,6.226,2.686,2.563,139.581,27.405,-112.379
9441,-0.4502,0.5737,-0.7061,6.897,6.897,4.150,139.669,27.318,-112.363
9451,-0.4463,0.6357,-0.7759,5.981,7.385,3.967,139.752,27.202,-112.341
9461,-0.4580,0.6675,-0.7915,4.700,3.967,2.625,139.801,27.120,-112.335
9471,-0.4600,0.6675,-0.7803,4.456,-1.343,1.099,139.834,27.092,-112.357
9481,-0.4541,0.6401,-0.7539,5.371,-5.371,0.122,139.867,27.109,-112.396
9491,-0.4438,0.5986,-0.7197,6.409,-7.202,-0.488,139.911,27.147,-112.445
9501,-0.4419,0.5654,-0.7095,6.165,-8.240,-1.160,139.966,27.208,-112.495
9511,-0.4497,0.5615,-0.7241,4.822,-7.996,-1.648,140.015,27.268,-112.538
9521,-0.4570,0.5659,-0.7144,3.296,-6.409,-0.732,140.048,27.318,-112.577
9531,-0.4687,0.5688,-0.6924,3.052,-4.883,0.366,140.065,27.350,-112.615
9541,-0.4897,0.5591,-0.6670,3.967,-3.967,0.977,140.087,27.394,-112.654
9551,-0.4995,0.5396,-0.6382,4.211,-3.113,1.404,140.109,27.449,-112.687
9561,-0.4941,0.5190,-0.6138,2.808,-2.441,1.648,140.120,27.499,-112.720
9571,-0.4814,0.5200,-0.6011,0.305,-1.831,2.197,140.098,27.532,-112.753
9581,-0.4644,0.5459,-0.6289,-1.770,-0.427,2.747,140.059,27.537,-112.780
9591,-0.4502,0.5840,-0.6553,-2.319,1.404,3.113,140.010,27.499,-112.797
9601,-0.4531,0.6035,-0.6699,-1.465,2.441,3.479,139.966,27.455,-112.808
9611,-0.4658,0.6299,-0.6924,-0.671,3.174,3.723,139.933,27.394,-112.819
9621,-0.4790,0.6416,-0.6953,0.427,4.272,3.601,139.911,27.334,-112.819
9631,-0.4878,0.6289,-0.6831,1.343,4.395,2.808,139.905,27.285,-112.808
9641,-0.4849,0.6304,-0.6807,0.671,3.357,1.770,139.889,27.252,-112.802
9651,-0.4741,0.6245,-0.6895,0.488,2.502,0.671,139.878,27.230,-112.786
9661,-0.4570,0.6240,-0.7090,1.038,2.075,-0.916,139.883,27.202,-112.764
9671,-0.4390,0.6226,-0.7222,1.404,1.404,-2.380,139.905,27.186,-112.736
9681,-0.4512,0.6074,-0.7266,1.648,-0.305,-3.479,139.938,27.191,-112.709
9691,-0.4600,0.5874,-0.7158,1.648,-2.014,-4.150,139.971,27.224,-112.687
9701,-0.4722,0.5552,-0.6860,1.343,-3.174,-4.456,139.999,27.285,-112.670
9711,-0.4727,0.5273,-0.6592,0.183,-3.418,-3.845,140.021,27.356,-112.659
9721,-0.4761,0.5176,-0.6460,-0.977,-2.380,-2.319,140.026,27.416,-112.659
9731,-0.4741,0.5220,-0.6562,-1.160,0.366,-0.732,140.032,27.438,-112.648
9741,-0.4512,0.5303,-0.6963,-0.427,3.662,0.244,140.065,27.405,-112.626
9751,-0.4395,0.5884,-0.7544,-0.366,5.493,0.671,140.098,27.334,-112.593
9761,-0.4409,0.6274,-0.7827,0.549,5.005,1.343,140.125,27.252,-112.566
9771,-0.4443,0.6240,-0.7646,1.770,2.014,1.282,140.153,27.197,-112.566
9781,-0.4609,0.6177,-0.7397,0.916,-2.197,0.610,140.153,27.191,-112.582
9791,-0.4761,0.6221,-0.7070,-1.892,-3.052,-0.183,140.109,27.213,-112.604
9801,-0.4790,0.6094,-0.6797,-3.967,-1.892,-0.977,140.048,27.241,-112.610
9811,-0.4819,0.5937,-0.6611,-4.150,-1.038,-1.953,139.988,27.274,-112.599
9821,-0.4722,0.5669,-0.6514,-2.563,-1.160,-2.441,139.960,27.312,-112.588
9831,-0.4663,0.5386,-0.6499,-0.732,-1.648,-2.197,139.960,27.350,-112.582
9841,-0.4639,0.5464,-0.6641,0.000,-1.465,-1.526,139.966,27.383,-112.577
9851,-0.4673,0.5732,-0.6875,1.099,-0.366,-0.610,139.982,27.394,-112.577
9861,-0.4736,0.5781,-0.7036,3.662,0.916,-0.305,140.026,27.389,-112.566
9871,-0.4761,0.5459,-0.6836,4.761,0.610,-0.916,140.092,27.400,-112.555
9881,-0.4834,0.5073,-0.6484,1.892,-1.526,-1.465,140.131,27.455,-112.555
9891,-0.4893,0.4727,-0.6187,-3.723,-3.052,-1.221,140.114,27.532,-112.566
9901,-0.4756,0.5254,-0.6558,-9.094,-1.587,-0.122,140.032,27.565,-112.577
9912,-0.4414,0.6553,-0.7876,-8.911,3.967,1.831,139.949,27.477,-112.560
9921,-0.4155,0.7412,-0.8857,-1.892,10.620,3.296,139.955,27.301,-112.511
9931,-0.4072,0.7432,-0.9038,3.784,10.376,2.502,140.026,27.125,-112.462
9941,-0.4136,0.7017,-0.8779,4.822,1.892,-0.610,140.092,27.043,-112.440
9951,-0.4463,0.6187,-0.7788,0.488,-8.911,-4.333,140.103,27.109,-112.467
9961,-0.4751,0.5469,-0.6636,-5.371,-16.846,-6.470,140.021,27.301,-112.533
9971,-0.4893,0.4995,-0.5815,-5.676,-18.677,-6.348,139.922,27.532,-112.615
9981,-0.4897,0.4580,-0.5146,-2.014,-15.137,-4.150,139.850,27.751,-112.687
9991,-0.4985,0.4409,-0.4946,1.648,-9.827,-1.038,139.823,27.927,-112.753
10001,-0.5015,0.4746,-0.5342,4.028,-2.075,2.625,139.834,27.999,-112.786
10011,-0.4985,0.5264,-0.5903,6.348,5.859,5.676,139.878,27.960,-112.797
10021,-0.5000,0.5928,-0.6660,7.629,10.742,7.263,139.944,27.845,-112.780
10031,-0.4888,0.6606,-0.7510,7.080,12.573,7.385,140.015,27.686,-112.753
10041,-0.4634,0.7085,-0.8081,4.761,11.353,5.737,140.065,27.515,-112.720
10051,-0.4448,0.7217,-0.8218,1.770,6.653,2.258,140.081,27.400,-112.692
10061,-0.4395,0.7075,-0.8057,-1.770,0.305,-1.526,140.054,27.356,-112.676
10071,-0.4424,0.6597,-0.7583,-4.150,-4.700,-4.700,140.010,27.383,-112.670
10081,-0.4512,0.5796,-0.6836,-4.333,-7.568,-6.958,139.966,27.482,-112.665
10091,-0.4658,0.5269,-0.6265,-3.479,-8.423,-7.202,139.927,27.614,-112.659
10101,-0.4785,0.4976,-0.6069,-1.099,-5.920,-5.554,139.927,27.729,-112.659
10111,-0.4893,0.4937,-0.6157,1.770,-1.343,-3.052,139.966,27.801,-112.637
10121,-0.4893,0.4990,-0.6387,4.822,2.747,-0.610,140.048,27.817,-112.615
10131,-0.4771,0.5054,-0.6665,6.775,4.395,1.465,140.153,27.790,-112.593
10141,-0.4692,0.5190,-0.7017,6.653,3.845,3.052,140.251,27.746,-112.593
10151,-0.4551,0.5562,-0.7441,4.211,2.991,4.211,140.317,27.680,-112.610
10161,-0.4385,0.5947,-0.7734,1.404,2.808,4.944,140.339,27.598,-112.632
10171,-0.4414,0.6211,-0.7734,-0.671,2.197,4.822,140.328,27.510,-112.659
10181,-0.4507,0.6279,-0.7544,-1.892,0.916,3.967,140.295,27.449,-112.687
10191,-0.4668,0.6245,-0.7349,-2.869,-0.305,2.502,140.251,27.422,-112.709
10201,-0.4805,0.6162,-0.6982,-2.869,-2.258,1.038,140.197,27.433,-112.736
10211,-0.4834,0.6113,-0.6807,-0.671,-4.700,0.366,140.153,27.471,-112.775
10221,-0.4736,0.5908,-0.6714,3.479,-5.676,0.244,140.147,27.515,-112.813
10231,-0.4663,0.5732,-0.6768,6.836,-5.981,0.427,140.191,27.559,-112.863
10241,-0.4595,0.5771,-0.6909,6.958,-5.859,0.671,140.240,27.592,-112.912
10251,-0.4512,0.5977,-0.7114,5.188,-4.395,0.549,140.268,27.609,-112.945
10261,-0.4639,0.5986,-0.7026,3.174,-2.319,0.366,140.284,27.614,-112.967
10271,-0.4839,0.5708,-0.6621,0.793,-1.465,0.427,140.273,27.636,-112.983
10281,-0.5020,0.5220,-0.6079,-2.258,-1.465,0.793,140.235,27.686,-113.000
10291,-0.5137,0.4687,-0.5688,-4.944,-1.465,1.709,140.180,27.757,-113.022
10301,-0.5034,0.4687,-0.5933,-5.676,0.610,4.272,140.120,27.784,-113.055
10311,-0.4702,0.5176,-0.6895,-4.089,5.432,7.446,140.098,27.708,-113.082
10321,-0.4370,0.5830,-0.8037,0.732,9.888,9.827,140.142,27.526,-113.093
10331,-0.4160,0.6479,-0.8911,4.395,11.047,11.780,140.213,27.301,-113.115
10341,-0.4258,0.6729,-0.8257,5.371,-0.488,9.705,140.229,27.191,-113.203
10351,-0.4453,0.6494,-0.7588,4.089,-8.484,6.897,140.208,27.180,-113.324
10361,-0.4580,0.6162,-0.6865,3.052,-12.573,4.089,140.164,27.241,-113.450
10371,-0.4771,0.5664,-0.6128,1.648,-13.062,2.136,140.098,27.350,-113.566
10381,-0.4854,0.5371,-0.5630,-0.366,-11.902,0.916,140.015,27.482,-113.659
10391,-0.4927,0.5435,-0.5444,-2.014,-9.644,0.366,139.911,27.603,-113.730
10401,-0.4941,0.5718,-0.5527,-1.892,-6.042,0.488,139.812,27.691,-113.780
10411,-0.4946,0.6104,-0.5845,0.305,-0.977,1.038,139.746,27.719,-113.796
10421,-0.4946,0.6318,-0.6250,4.150,4.089,1.343,139.746,27.691,-113.774
10431,-0.4912,0.6475,-0.6670,6.287,7.996,0.793,139.790,27.625,-113.725
10441,-0.4805,0.6538,-0.6997,6.042,9.705,-0.549,139.856,27.548,-113.648
10451,-0.4702,0.6504,-0.7324,4.395,9.338,-2.808,139.927,27.477,-113.555
10461,-0.4595,0.6240,-0.7593,2.502,7.446,-5.737,140.010,27.433,-113.456
10471,-0.4497,0.5889,-0.7695,-0.183,3.906,-8.240,140.076,27.427,-113.357
10481,-0.4512,0.5576,-0.7598,-3.296,0.000,-9.399,140.120,27.471,-113.275
10491,-0.4497,0.5249,-0.7344,-5.249,-2.869,-9.399,140.136,27.543,-113.214
10501,-0.4478,0.4946,-0.7095,-5.066,-3.906,-8.423,140.158,27.625,-113.170
10511,-0.4507,0.4624,-0.6797,-3.418,-3.967,-6.775,140.191,27.708,-113.137
10521,-0.4614,0.4497,-0.6714,-1.099,-3.723,-4.333,140.246,27.784,-113.126
10531,-0.4663,0.4541,-0.6841,0.854,-1.953,-1.282,140.317,27.823,-113.132
10541,-0.4639,0.4727,-0.7007,1.465,0.732,1.648,140.383,27.817,-113.137
10551,-0.4575,0.5244,-0.7466,0.366,2.258,3.479,140.427,27.768,-113.154
10561,-0.4492,0.5752,-0.7832,-1.282,2.258,4.333,140.433,27.691,-113.176
10571,-0.4497,0.6099,-0.7856,-3.845,0.610,4.272,140.400,27.631,-113.209
10581,-0.4521,0.6318,-0.7676,-6.714,-2.502,2.747,140.317,27.598,-113.247
10591,-0.4609,0.6445,-0.7310,-8.972,-6.165,0.366,140.186,27.620,-113.297
10601,-0.4712,0.6475,-0.6880,-9.766,-9.277,-1.953,140.032,27.691,-113.346
10611,-0.4795,0.6333,-0.6548,-8.789,-10.803,-3.540,139.883,27.795,-113.395
10621,-0.4902,0.6030,-0.6260,-7.324,-10.986,-4.883,139.757,27.927,-113.434
10631,-0.4985,0.5771,-0.6040,-7.019,-10.437,-6.592,139.642,28.076,-113.450
10641,-0.5024,0.5864,-0.6025,-7.874,-9.033,-6.897,139.521,28.218,-113.461
10651,-0.5049,0.5850,-0.6035,-6.592,-5.371,-5.127,139.422,28.317,-113.456
10661,-0.4976,0.5864,-0.6152,-4.028,-0.244,-3.479,139.367,28.367,-113.428
10671,-0.4849,0.6143,-0.6533,-2.319,5.127,-2.808,139.345,28.345,-113.362
10681,-0.4722,0.6357,-0.6831,-1.038,9.460,-1.465,139.351,28.268,-113.280
10691,-0.4678,0.6401,-0.7046,0.183,11.658,-0.549,139.378,28.163,-113.192
10701,-0.4702,0.6309,-0.7222,0.244,11.353,-0.732,139.422,28.059,-113.099
10711,-0.4648,0.6045,-0.7202,-0.671,9.583,-1.526,139.455,27.982,-113.016
10721,-0.4595,0.5859,-0.7148,-2.014,6.653,-2.441,139.482,27.933,-112.945
10731,-0.4644,0.5649,-0.7104,-2.563,3.784,-2.502,139.499,27.911,-112.896
10741,-0.4595,0.5391,-0.7026,-1.709,2.380,-1.709,139.526,27.900,-112.863
10751,-0.4619,0.5352,-0.6992,-0.732,1.831,-0.427,139.559,27.889,-112.846
10761,-0.4653,0.5400,-0.7012,0.244,2.014,1.404,139.592,27.861,-112.846
10771,-0.4629,0.5479,-0.7095,1.099,2.319,2.869,139.625,27.817,-112.852
10781,-0.4604,0.5659,-0.7251,0.916,2.075,3.479,139.653,27.768,-112.868
10791,-0.4653,0.5903,-0.7344,0.061,1.526,3.601,139.658,27.719,-112.885
10801,-0.4687,0.5986,-0.7319,-0.122,0.671,3.296,139.658,27.680,-112.912
10811,-0.4717,0.6021,-0.7310,-0.183,-0.549,2.441,139.653,27.658,-112.934
10821,-0.4683,0.5981,-0.7139,-0.427,-1.953,1.709,139.642,27.653,-112.967
10831,-0.4634,0.5972,-0.6929,-0.610,-3.052,1.282,139.614,27.658,-113.000
10841,-0.4600,0.5928,-0.6758,-0.305,-3.845,1.282,139.581,27.675,-113.038
10851,-0.4668,0.5801,-0.6548,0.793,-4.089,1.709,139.559,27.697,-113.082
10861,-0.4717,0.5693,-0.6504,2.319,-3.784,2.136,139.554,27.719,-113.126
10871,-0.4800,0.5664,-0.6504,2.869,-2.747,2.502,139.559,27.740,-113.170
10881,-0.4824,0.5708,-0.6567,1.953,-0.977,2.747,139.559,27.740,-113.198
10891,-0.4863,0.5850,-0.6558,0.427,0.977,2.808,139.543,27.729,-113.220
10901,-0.4829,0.5986,-0.6582,0.000,2.502,3.052,139.521,27.697,-113.225
10911,-0.4810,0.5972,-0.6616,1.160,3.479,3.052,139.515,27.658,-113.225
10921,-0.4756,0.5806,-0.6582,2.258,4.333,2.808,139.532,27.614,-113.220
10931,-0.4653,0.5791,-0.6797,1.709,5.066,2.502,139.554,27.559,-113.203
10941,-0.4580,0.6069,-0.7207,0.122,5.432,2.136,139.570,27.488,-113.181
10951,-0.4546,0.6196,-0.7456,-0.427,4.944,1.892,139.581,27.416,-113.159
10961,-0.4502,0.6279,-0.7588,-0.427,3.479,1.282,139.592,27.356,-113.148
10971,-0.4487,0.6323,-0.7544,-0.793,1.221,0.366,139.592,27.312,-113.143
10981,-0.4546,0.6245,-0.7368,-1.526,-1.282,-0.610,139.576,27.307,-113.143
10991,-0.4648,0.6064,-0.7114,-2.686,-2.869,-1.465,139.543,27.328,-113.154
11001,-0.4766,0.5894,-0.6846,-4.150,-2.808,-2.197,139.499,27.367,-113.154
11011,-0.4756,0.5762,-0.6616,-5.127,-2.258,-2.869,139.449,27.416,-113.148
11021,-0.4702,0.5703,-0.6558,-5.188,-1.648,-2.808,139.395,27.455,-113.137
11031,-0.4697,0.5630,-0.6528,-4.089,-0.061,-1.831,139.362,27.482,-113.121
11041,-0.4614,0.5581,-0.6519,-2.686,2.136,-0.366,139.345,27.471,-113.099
11051,-0.4556,0.5801,-0.6636,-1.465,3.906,0.916,139.334,27.438,-113.082
11061,-0.4536,0.5918,-0.6733,0.916,5.432,2.075,139.345,27.378,-113.060
11071,-0.4570,0.5835,-0.6685,2.686,6.287,2.808,139.378,27.312,-113.038
11081,-0.4707,0.5693,-0.6670,2.258,5.371,2.625,139.411,27.263,-113.022
11091,-0.4780,0.5796,-0.6763,-0.244,3.723,2.136,139.411,27.230,-113.011
11101,-0.4785,0.6035,-0.6978,-2.380,2.869,1.953,139.389,27.197,-113.005
11111,-0.4658,0.6553,-0.7446,-2.075,2.869,1.770,139.362,27.147,-113.000
11121,-0.4546,0.6826,-0.7817,1.587,3.052,1.038,139.378,27.081,-112.989
11131,-0.4404,0.6880,-0.8003,5.127,2.258,-0.610,139.438,27.021,-112.967
11141,-0.4282,0.6597,-0.7749,5.554,-0.366,-2.686,139.504,26.999,-112.945
11151,-0.4380,0.6084,-0.7183,2.563,-4.211,-5.005,139.537,27.043,-112.934
11161,-0.4673,0.5444,-0.6484,-2.014,-7.568,-6.714,139.521,27.164,-112.928
11171,-0.4897,0.5122,-0.5981,-6.165,-9.216,-6.897,139.455,27.323,-112.939
11181,-0.4951,0.5093,-0.5806,-6.836,-7.507,-5.676,139.378,27.471,-112.945
11191,-0.5005,0.4922,-0.5718,-2.869,-3.784,-3.601,139.351,27.581,-112.939
11201,-0.4849,0.5171,-0.6147,1.892,-0.305,-1.343,139.378,27.631,-112.934
11211,-0.4541,0.5605,-0.6768,5.615,2.441,0.488,139.449,27.603,-112.917
11221,-0.4487,0.5928,-0.7236,8.667,3.784,2.014,139.554,27.543,-112.906
11231,-0.4438,0.6450,-0.7959,9.399,3.601,3.052,139.664,27.455,-112.906
11241,-0.4341,0.6758,-0.8423,8.484,3.296,2.869,139.763,27.356,-112.906
11251,-0.4385,0.6709,-0.8379,5.798,1.709,0.916,139.834,27.285,-112.906
11261,-0.4531,0.6475,-0.8052,1.770,-2.258,-2.441,139.872,27.285,-112.901
11271,-0.4687,0.5991,-0.7358,-3.784,-7.812,-5.432,139.839,27.367,-112.912
11281,-0.4780,0.5566,-0.6567,-6.775,-12.390,-7.141,139.757,27.526,-112.939
11291,-0.4917,0.5181,-0.6016,-4.395,-13.733,-6.775,139.691,27.713,-112.978
11301,-0.4888,0.4858,-0.5679,0.610,-12.329,-4.272,139.669,27.889,-113.033
11311,-0.4731,0.4775,-0.5864,5.981,-7.996,-1.221,139.719,27.999,-113.082
11321,-0.4712,0.4902,-0.6172,7.751,-2.502,1.770,139.796,28.037,-113.115
11331,-0.4780,0.5210,-0.6489,5.798,1.831,4.333,139.856,28.010,-113.137
11341,-0.4849,0.5654,-0.6807,2.502,4.517,5.859,139.878,27.949,-113.159
11351,-0.4854,0.5908,-0.6904,-0.061,5.493,5.981,139.867,27.867,-113.170
11361,-0.4834,0.6099,-0.7002,-1.831,4.578,4.883,139.834,27.801,-113.176
11371,-0.4824,0.6187,-0.7080,-2.991,3.601,3.540,139.796,27.746,-113.181
11381,-0.4761,0.6143,-0.7017,-3.418,3.052,2.319,139.752,27.697,-113.181
11391,-0.4600,0.6157,-0.7036,-3.357,2.319,1.099,139.713,27.658,-113.170
11401,-0.4512,0.6270,-0.7104,-2.563,0.427,0.366,139.675,27.631,-113.170
11411,-0.4580,0.6333,-0.7080,-0.488,-1.160,0.305,139.653,27.620,-113.181
11421,-0.4663,0.6235,-0.7021,2.197,-1.831,0.122,139.653,27.620,-113.198
11431,-0.4771,0.6074,-0.6909,3.723,-1.831,-0.549,139.675,27.636,-113.209
11441,-0.4805,0.5937,-0.6816,2.991,-1.953,-1.099,139.697,27.664,-113.209
11451,-0.4829,0.5693,-0.6582,0.916,-1.892,-1.343,139.697,27.697,-113.214
11461,-0.4849,0.5410,-0.6367,-1.343,-2.197,-1.526,139.686,27.746,-113.214
11471,-0.4805,0.5322,-0.6323,-2.747,-2.441,-1.343,139.653,27.801,-113.220
11481,-0.4746,0.5469,-0.6558,-2.747,-1.404,-0.610,139.631,27.828,-113.225
11491,-0.4634,0.5981,-0.7075,-1.892,1.709,0.671,139.620,27.795,-113.220
11501,-0.4482,0.6548,-0.7666,-0.305,5.676,1.892,139.625,27.702,-113.198
11511,-0.4399,0.6909,-0.8198,2.441,7.812,1.709,139.669,27.581,-113.154
11521,-0.4473,0.6387,-0.7910,2.319,6.714,-0.183,139.730,27.493,-113.104
11531,-0.4756,0.5127,-0.6885,-5.432,0.793,-3.601,139.730,27.526,-113.066
11541,-0.4868,0.4590,-0.5840,-23.254,-6.470,-6.531,139.526,27.675,-113.055
11551,-0.5151,0.4619,-0.5049,-38.757,-10.071,-6.287,139.114,27.883,-113.077
11561,-0.5273,0.5195,-0.4956,-38.574,-6.775,-4.211,138.669,28.043,-113.088
11571,-0.5181,0.5669,-0.5449,-22.095,2.258,-0.061,138.411,28.081,-113.071
11581,-0.4790,0.6016,-0.6411,0.977,12.146,5.615,138.422,27.960,-113.027
11591,-0.4390,0.6445,-0.7593,18.799,18.555,9.827,138.647,27.713,-112.972
11601,-0.4106,0.6797,-0.8491,24.719,18.555,11.292,138.939,27.433,-112.928
11611,-0.4028,0.6992,-0.9033,21.606,13.794,9.521,139.197,27.191,-112.906
11621,-0.4214,0.6938,-0.8911,13.733,6.470,5.188,139.362,27.037,-112.906
11631,-0.4419,0.6694,-0.8286,3.845,-2.441,-0.183,139.411,27.015,-112.923
11641,-0.4561,0.6440,-0.7622,-4.333,-9.827,-4.089,139.356,27.092,-112.961
11651,-0.4644,0.6011,-0.6929,-7.568,-12.512,-5.798,139.257,27.219,-113.000
11661,-0.4678,0.5547,-0.6367,-5.737,-11.230,-6.287,139.186,27.361,-113.027
11671,-0.4629,0.5273,-0.5937,-2.808,-9.094,-5.066,139.136,27.493,-113.055
11681,-0.4683,0.5151,-0.5786,1.038,-6.897,-2.502,139.125,27.598,-113.082
11691,-0.4800,0.5132,-0.5889,5.188,-3.845,0.854,139.158,27.658,-113.121
11701,-0.4863,0.5156,-0.6064,8.789,0.244,4.028,139.235,27.669,-113.154
11711,-0.4814,0.5308,-0.6367,8.972,3.601,6.042,139.323,27.625,-113.176
11721,-0.4805,0.5723,-0.6899,6.348,5.615,6.287,139.389,27.548,-113.187
11731,-0.4741,0.6235,-0.7261,2.136,6.287,5.371,139.411,27.455,-113.187
11741,-0.4604,0.6621,-0.7456,-0.793,5.188,3.906,139.395,27.367,-113.187
11751,-0.4546,0.6865,-0.7617,-0.732,2.930,2.136,139.378,27.296,-113.181
11761,-0.4536,0.6743,-0.7510,1.648,0.916,0.488,139.378,27.252,-113.181
11771,-0.4521,0.6304,-0.7183,3.601,-1.160,-0.793,139.411,27.246,-113.181
11781,-0.4629,0.5840,-0.6680,2.686,-3.540,-2.014,139.427,27.290,-113.187
11791,-0.4761,0.5464,-0.6265,0.610,-5.249,-2.563,139.417,27.372,-113.203
11801,-0.4814,0.5317,-0.6104,0.183,-4.700,-1.892,139.406,27.455,-113.225
11811,-0.4766,0.5244,-0.6089,1.465,-1.953,-0.122,139.417,27.504,-113.236
11821,-0.4668,0.5415,-0.6436,2.991,1.587,1.831,139.449,27.493,-113.242
11831,-0.4619,0.5937,-0.6987,3.296,5.554,3.418,139.488,27.422,-113.231
11841,-0.4600,0.6289,-0.7373,4.150,8.606,3.967,139.543,27.312,-113.203
11851,-0.4585,0.6450,-0.7607,4.761,8.484,3.235,139.609,27.202,-113.165
11861,-0.4580,0.6318,-0.7568,4.272,5.371,1.526,139.664,27.125,-113.143
11871,-0.4614,0.6191,-0.7373,1.892,1.343,-0.427,139.691,27.103,-113.126
11881,-0.4585,0.5957,-0.7109,-0.549,-1.648,-1.892,139.691,27.120,-113.121
11891,-0.4604,0.5684,-0.6753,-1.770,-3.174,-2.686,139.680,27.169,-113.121
11901,-0.4644,0.5537,-0.6582,-2.136,-3.479,-2.625,139.658,27.224,-113.126
11913,-0.4683,0.5547,-0.6509,-1.465,-1.648,-1.709,139.642,27.263,-113.121
11921,-0.4731,0.5518,-0.6567,0.671,1.709,-0.305,139.658,27.268,-113.110
11931,-0.4746,0.5498,-0.6758,2.869,4.395,0.854,139.713,27.241,-113.082
11941,-0.4687,0.5659,-0.6968,3.357,5.676,1.770,139.768,27.191,-113.055
11951,-0.4634,0.5747,-0.7056,2.319,5.676,2.502,139.812,27.131,-113.038
11961,-0.4619,0.5718,-0.7002,0.549,4.639,2.502,139.834,27.076,-113.027
11971,-0.4590,0.5864,-0.6992,-1.709,3.174,2.014,139.818,27.037,-113.022
11981,-0.4536,0.6035,-0.7114,-3.174,2.625,1.709,139.790,26.993,-113.016
11991,-0.4512,0.6074,-0.7178,-3.296,2.563,1.404,139.757,26.955,-113.011
12001,-0.4473,0.6050,-0.7290,-2.197,1.831,0.854,139.746,26.917,-113.005
12011,-0.4463,0.6074,-0.7397,-1.282,0.488,0.244,139.741,26.895,-113.000
12021,-0.4482,0.5991,-0.7339,-0.488,-1.099,-0.061,139.746,26.884,-113.011
12031,-0.4561,0.5752,-0.7114,-0.366,-2.502,-0.305,139.746,26.900,-113.022
12041,-0.4678,0.5483,-0.6802,-1.343,-3.723,-0.305,139.735,26.944,-113.049
12051,-0.4668,0.5435,-0.6641,-2.441,-4.028,0.427,139.708,26.988,-113.082
12061,-0.4639,0.5513,-0.6558,-2.380,-2.808,1.709,139.669,27.015,-113.115
12071,-0.4590,0.5552,-0.6582,-1.160,-0.732,2.869,139.647,27.010,-113.148
12081,-0.4556,0.5737,-0.6816,-0.366,1.099,3.418,139.636,26.982,-113.170
12091,-0.4497,0.6157,-0.7129,-0.427,2.686,3.784,139.620,26.922,-113.181
12101,-0.4492,0.6382,-0.7344,1.038,3.357,3.906,139.620,26.851,-113.192
12111,-0.4521,0.6538,-0.7529,2.747,2.441,3.296,139.636,26.785,-113.198
12121,-0.4546,0.6602,-0.7568,3.845,0.488,2.197,139.664,26.746,-113.214
12131,-0.4473,0.6611,-0.7471,3.723,-1.526,0.854,139.680,26.724,-113.236
12141,-0.4492,0.6484,-0.7300,2.319,-3.357,-0.793,139.680,26.735,-113.253
12151,-0.4546,0.6357,-0.7085,0.671,-4.944,-2.502,139.664,26.774,-113.264
12161,-0.4561,0.6240,-0.6777,-0.244,-5.310,-3.601,139.636,26.834,-113.275
12171,-0.4648,0.5781,-0.6348,0.244,-4.761,-4.028,139.620,26.911,-113.275
12181,-0.4795,0.5356,-0.6045,0.366,-4.089,-3.723,139.614,27.004,-113.269
12191,-0.4868,0.5127,-0.5977,0.000,-1.892,-2.625,139.614,27.081,-113.264
12201,-0.4893,0.5088,-0.6074,-0.488,2.380,-0.732,139.625,27.114,-113.242
12211,-0.4775,0.5229,-0.6396,-0.671,6.958,1.099,139.647,27.087,-113.198
12221,-0.4629,0.5342,-0.6836,-0.427,9.888,1.953,139.691,27.010,-113.143
12231,-0.4521,0.5479,-0.7231,-1.221,10.742,2.014,139.735,26.911,-113.082
12241,-0.4424,0.5630,-0.7485,-3.845,10.315,1.587,139.763,26.807,-113.022
12251,-0.4385,0.5723,-0.7632,-6.470,9.644,0.732,139.757,26.708,-112.956
12261,-0.4424,0.5752,-0.7593,-9.094,8.911,-0.061,139.730,26.620,-112.890
12271,-0.4429,0.5747,-0.7427,-10.742,8.484,-0.183,139.675,26.543,-112.830
12281,-0.4409,0.5752,-0.7192,-11.108,8.606,0.427,139.609,26.466,-112.769
12291,-0.4365,0.5801,-0.6968,-9.949,8.545,1.099,139.537,26.389,-112.720
12301,-0.4385,0.5879,-0.6880,-7.385,7.263,2.258,139.477,26.312,-112.687
12311,-0.4370,0.5918,-0.6865,-4.028,5.310,3.479,139.438,26.246,-112.676
12321,-0.4312,0.6108,-0.7051,-2.014,3.845,4.028,139.417,26.175,-112.681
12331,-0.4390,0.6294,-0.7153,-1.587,1.709,4.028,139.384,26.125,-112.703
12341,-0.4458,0.6436,-0.7271,-2.441,-1.038,3.906,139.334,26.093,-112.742
12351,-0.4517,0.6660,-0.7354,-3.540,-2.869,3.113,139.263,26.076,-112.791
12361,-0.4502,0.6851,-0.7329,-3.662,-4.028,1.770,139.180,26.076,-112.835
12371,-0.4492,0.6792,-0.7251,-1.892,-5.493,0.061,139.120,26.098,-112.874
12381,-0.4453,0.6636,-0.7061,-0.427,-7.080,-1.526,139.076,26.147,-112.912
12391,-0.4434,0.6372,-0.6685,-0.244,-8.484,-2.808,139.032,26.224,-112.950
12401,-0.4575,0.6250,-0.6387,-0.916,-9.949,-3.845,138.972,26.334,-112.994
12411,-0.4692,0.6187,-0.6216,-0.854,-10.254,-4.333,138.906,26.455,-113.033
12421,-0.4780,0.5933,-0.6177,0.732,-8.850,-4.578,138.873,26.581,-113.060
12431,-0.4756,0.5684,-0.6216,1.892,-6.653,-4.517,138.878,26.686,-113.071
12441,-0.4751,0.5493,-0.6313,1.465,-4.272,-3.723,138.889,26.774,-113.071
12451,-0.4639,0.5596,-0.6509,0.549,-1.343,-2.441,138.906,26.818,-113.060
12461,-0.4653,0.5645,-0.6636,0.671,1.526,-1.221,138.928,26.823,-113.038
12471,-0.4712,0.5693,-0.6758,1.709,2.930,-0.549,138.966,26.818,-113.011
12481,-0.4648,0.5791,-0.6860,2.502,3.052,0.000,139.010,26.801,-112.989
12491,-0.4419,0.5981,-0.7261,2.686,3.113,0.305,139.059,26.763,-112.967
12501,-0.4272,0.6357,-0.7827,2.075,4.395,0.183,139.114,26.686,-112.939
12511,-0.4219,0.6826,-0.8018,0.549,5.188,-0.366,139.142,26.603,-112.896
12521,-0.4258,0.6948,-0.7915,0.000,2.197,-1.282,139.153,26.548,-112.868
12531,-0.4370,0.6753,-0.7612,0.122,-3.540,-3.174,139.142,26.565,-112.868
12541,-0.4678,0.6050,-0.6851,0.366,-8.850,-5.188,139.131,26.669,-112.890
12551,-0.4971,0.5020,-0.5845,-0.244,-12.756,-6.653,139.114,26.867,-112.928
12561,-0.5093,0.4600,-0.5254,-2.502,-14.099,-6.714,139.065,27.109,-112.972
12571,-0.5112,0.4687,-0.5078,-3.357,-10.864,-4.456,138.999,27.312,-113.016
12581,-0.4849,0.4927,-0.5205,-0.916,-2.991,-1.038,138.961,27.411,-113.027
12591,-0.4409,0.5889,-0.6470,3.052,6.042,1.953,138.988,27.345,-113.000
12601,-0.3955,0.7539,-0.8457,6.958,14.648,4.272,139.081,27.131,-112.928
12611,-0.3784,0.8789,-1.0039,11.108,20.142,4.211,139.241,26.840,-112.813
12621,-0.3906,0.9155,-1.0576,11.841,16.174,0.122,139.411,26.603,-112.698
12631,-0.4214,0.8120,-0.9609,8.118,0.366,-7.324,139.521,26.565,-112.632
12641,-0.4736,0.6348,-0.7773,-1.892,-21.484,-17.029,139.510,26.823,-112.643
12651,-0.5112,0.4561,-0.5796,-13.611,-38.086,-24.536,139.367,27.350,-112.714
12661,-0.5234,0.3325,-0.4062,-20.264,-42.480,-25.269,139.136,28.004,-112.808
12671,-0.5239,0.2510,-0.3013,-17.578,-34.668,-19.226,138.933,28.641,-112.901
12681,-0.5269,0.2573,-0.2983,-6.470,-18.799,-9.155,138.840,29.086,-112.961
12691,-0.5112,0.2822,-0.3696,10.803,0.671,2.869,138.977,29.251,-112.983
12701,-0.4917,0.3774,-0.5459,24.841,17.944,12.939,139.296,29.108,-112.961
12711,-0.4702,0.5420,-0.7544,26.917,28.931,19.348,139.636,28.740,-112.912
12721,-0.4463,0.6880,-0.9150,19.958,32.104,21.240,139.894,28.290,-112.857
12731,-0.4302,0.8032,-1.0122,10.071,26.245,18.066,140.026,27.878,-112.824
12741,-0.4150,0.8472,-1.0435,0.977,13.611,10.559,140.048,27.598,-112.819
12751,-0.3984,0.8213,-0.9785,-7.935,-2.075,1.587,139.955,27.499,-112.846
12761,-0.4028,0.6895,-0.8091,-15.625,-16.968,-5.737,139.763,27.598,-112.917
12771,-0.4331,0.5728,-0.6592,-20.203,-26.855,-10.132,139.504,27.856,-113.027
12781,-0.4727,0.5352,-0.5503,-20.203,-27.649,-10.437,139.219,28.169,-113.143
12791,-0.5024,0.5190,-0.4912,-11.414,-19.653,-6.958,139.005,28.427,-113.225
12801,-0.5205,0.4858,-0.4907,3.479,-8.057,-1.953,138.983,28.586,-113.269
12811,-0.5239,0.4790,-0.5430,15.137,1.587,2.808,139.125,28.630,-113.280
12821,-0.5078,0.5088,-0.6187,17.395,7.446,6.104,139.312,28.575,-113.280
12831,-0.4814,0.5625,-0.6914,11.536,9.033,7.324,139.444,28.455,-113.275
12841,-0.4707,0.6206,-0.7393,3.174,7.202,6.287,139.477,28.339,-113.275
12851,-0.4644,0.6675,-0.7690,-3.052,4.028,4.395,139.438,28.240,-113.286
12861,-0.4546,0.6865,-0.7808,-4.883,1.465,2.563,139.378,28.169,-113.297
12871,-0.4512,0.6807,-0.7700,-4.822,-0.244,0.671,139.318,28.120,-113.302
12881,-0.4609,0.6382,-0.7334,-4.089,-1.831,-1.282,139.274,28.114,-113.307
12891,-0.4717,0.6025,-0.6963,-4.517,-4.028,-2.869,139.224,28.152,-113.313
12901,-0.4775,0.5801,-0.6665,-4.944,-4.822,-3.540,139.169,28.213,-113.318
12911,-0.4761,0.5640,-0.6426,-4.028,-3.662,-3.418,139.125,28.273,-113.313
12921,-0.4678,0.5654,-0.6333,-1.709,-2.686,-2.686,139.103,28.317,-113.313
12931,-0.4736,0.5596,-0.6362,2.625,-2.197,-1.038,139.120,28.350,-113.318
12941,-0.4780,0.5454,-0.6484,6.165,-0.977,0.549,139.186,28.361,-113.329
12951,-0.4771,0.5259,-0.6460,6.104,0.610,1.770,139.257,28.361,-113.340
12961,-0.4771,0.5532,-0.6577,1.892,1.831,2.563,139.279,28.339,-113.351
12971,-0.4780,0.6006,-0.6826,-2.319,3.052,2.991,139.246,28.290,-113.351
12981,-0.4790,0.6313,-0.7007,-2.319,4.150,3.052,139.213,28.224,-113.346
12991,-0.4771,0.6323,-0.7192,0.244,4.028,2.258,139.219,28.163,-113.335
13001,-0.4653,0.6294,-0.7319,1.587,2.686,1.221,139.235,28.109,-113.329
13011,-0.4604,0.6182,-0.7285,1.404,1.404,0.305,139.257,28.076,-113.318
13021,-0.4604,0.5981,-0.7104,1.038,0.183,-0.671,139.279,28.059,-113.313
13031,-0.4673,0.5825,-0.7007,1.038,-1.648,-1.282,139.301,28.070,-113.313
13041,-0.4683,0.5728,-0.6929,1.221,-2.747,-1.282,139.318,28.098,-113.324
13051,-0.4687,0.5620,-0.6831,1.038,-2.380,-0.793,139.334,28.114,-113.335
13061,-0.4761,0.5596,-0.6733,-0.183,-1.465,-0.244,139.340,28.136,-113.340
13071,-0.4751,0.5654,-0.6768,-1.404,-0.732,0.488,139.329,28.136,-113.351
13081,-0.4746,0.5718,-0.6807,-1.465,0.366,1.099,139.318,28.125,-113.357
13091,-0.4722,0.5762,-0.6826,-1.282,1.343,1.343,139.307,28.109,-113.362
13101,-0.4624,0.5850,-0.6875,-1.831,1.831,1.465,139.296,28.076,-113.362
13111,-0.4648,0.5840,-0.6919,-2.625,1.648,0.977,139.274,28.048,-113.357
13121,-0.4604,0.5933,-0.7036,-4.150,0.977,0.549,139.241,28.021,-113.351
13131,-0.4580,0.6099,-0.7109,-5.493,-0.183,0.793,139.186,27.999,-113.362
13141,-0.4624,0.6284,-0.7129,-5.127,-1.648,1.038,139.120,27.982,-113.384
13151,-0.4761,0.6230,-0.7017,-2.136,-2.869,1.038,139.076,27.988,-113.412
13161,-0.4878,0.6079,-0.6890,1.404,-3.540,0.671,139.070,28.010,-113.445
13171,-0.4927,0.5850,-0.6675,3.235,-3.906,0.488,139.081,28.043,-113.478
13181,-0.4917,0.5635,-0.6445,3.113,-3.845,0.305,139.098,28.087,-113.511
13191,-0.4868,0.5605,-0.6323,1.648,-3.052,0.305,139.092,28.130,-113.533
13201,-0.4814,0.5669,-0.6338,0.488,-1.465,0.732,139.081,28.147,-113.549
13211,-0.4741,0.5776,-0.6479,0.488,0.488,1.282,139.076,28.141,-113.560
13221,-0.4722,0.6001,-0.6748,1.099,2.075,1.465,139.081,28.114,-113.555
13231,-0.4756,0.6196,-0.7026,1.953,3.052,1.648,139.098,28.065,-113.549
13241,-0.4839,0.6270,-0.7222,3.113,2.930,1.587,139.131,28.021,-113.538
13251,-0.4756,0.6265,-0.7305,3.723,1.526,1.099,139.175,27.988,-113.538
13261,-0.4663,0.6147,-0.7114,3.174,-0.549,0.366,139.202,27.971,-113.544
13271,-0.4644,0.5928,-0.6870,1.526,-2.197,-0.366,139.213,27.982,-113.560
13281,-0.4658,0.5693,-0.6572,-0.549,-2.686,-1.099,139.197,28.010,-113.571
13291,-0.4653,0.5688,-0.6479,-2.197,-1.953,-1.221,139.169,28.037,-113.571
13301,-0.4653,0.5801,-0.6631,-1.770,-0.610,-0.916,139.153,28.048,-113.571
13311,-0.4731,0.5874,-0.6777,0.793,0.854,-0.305,139.164,28.037,-113.560
13321,-0.4795,0.5801,-0.6978,3.479,1.587,0.549,139.213,28.021,-113.555
13331,-0.4766,0.5825,-0.7041,3.967,1.282,1.099,139.263,27.999,-113.555
13341,-0.4707,0.5947,-0.7012,2.136,0.305,1.099,139.285,27.982,-113.560
13351,-0.4712,0.5967,-0.6875,-0.305,-0.366,0.732,139.274,27.977,-113.571
13361,-0.4658,0.5952,-0.6709,-1.770,-0.488,0.244,139.246,27.971,-113.577
13371,-0.4624,0.5903,-0.6655,-1.892,-0.427,-0.061,139.219,27.971,-113.577
13381,-0.4653,0.5957,-0.6743,-1.343,0.366,0.061,139.197,27.960,-113.577
13391,-0.4805,0.5884,-0.6802,0.549,1.770,0.183,139.208,27.949,-113.566
13401,-0.4927,0.5801,-0.6885,2.197,2.136,0.244,139.246,27.938,-113.549
13411,-0.4917,0.5830,-0.6919,2.380,1.465,0.427,139.279,27.927,-113.544
13421,-0.4824,0.5684,-0.6587,1.343,-0.061,0.488,139.290,27.938,-113.549
13431,-0.4761,0.5537,-0.6299,-0.183,-1.587,0.427,139.274,27.966,-113.566
13441,-0.4707,0.5488,-0.6284,-1.038,-0.854,0.793,139.252,27.977,-113.577
13451,-0.4624,0.5591,-0.6484,-0.671,2.502,1.953,139.246,27.949,-113.577
13461,-0.4492,0.6094,-0.7095,0.183,6.836,3.052,139.263,27.856,-113.549
13471,-0.4487,0.6523,-0.7612,2.075,9.216,3.479,139.301,27.729,-113.511
13481,-0.4546,0.6743,-0.7910,3.418,7.751,2.869,139.351,27.609,-113.478
13491,-0.4604,0.6631,-0.7852,2.930,3.418,1.404,139.389,27.543,-113.467
13501,-0.4668,0.6201,-0.7261,0.305,-2.197,-0.793,139.389,27.548,-113.478
13511,-0.4727,0.5825,-0.6646,-3.296,-7.263,-2.808,139.340,27.625,-113.505
13521,-0.4873,0.5498,-0.6255,-4.395,-8.484,-3.540,139.274,27.740,-113.538
13531,-0.4766,0.5317,-0.6025,-2.747,-5.676,-2.686,139.230,27.828,-113.555
13541,-0.4785,0.5308,-0.6035,0.366,-1.343,-0.916,139.230,27.878,-113.560
13551,-0.4717,0.5513,-0.6299,2.808,3.113,1.099,139.257,27.861,-113.544
13561,-0.4751,0.5723,-0.6611,4.883,6.348,2.625,139.318,27.801,-113.522
13571,-0.4868,0.5933,-0.6919,5.981,7.874,3.479,139.389,27.724,-113.494
13581,-0.4756,0.6143,-0.7139,5.371,7.568,3.479,139.455,27.636,-113.467
13591,-0.4707,0.6079,-0.7148,3.357,5.066,2.380,139.493,27.570,-113.450
13601,-0.4702,0.6030,-0.7070,-0.427,2.075,0.854,139.493,27.543,-113.439
13611,-0.4653,0.5918,-0.6929,-3.967,0.427,-0.366,139.460,27.537,-113.434
13621,-0.4541,0.5894,-0.7026,-5.432,0.977,-1.343,139.417,27.526,-113.417
13631,-0.4482,0.6128,-0.7104,-4.639,2.380,-1.282,139.384,27.499,-113.390
13641,-0.4531,0.6260,-0.7212,-0.549,3.113,-0.244,139.389,27.455,-113.362
13651,-0.4570,0.6279,-0.7300,4.333,2.441,0.305,139.433,27.416,-113.346
13661,-0.4565,0.6118,-0.7222,7.202,1.038,0.244,139.510,27.389,-113.340
13671,-0.4644,0.5615,-0.6836,6.226,-0.854,-0.427,139.581,27.400,-113.346
13681,-0.4702,0.5566,-0.6558,0.427,-3.174,-1.343,139.581,27.444,-113.357
13691,-0.4775,0.5723,-0.6387,-5.127,-3.235,-1.343,139.510,27.493,-113.368
13701,-0.4756,0.5835,-0.6367,-5.981,-0.427,-0.916,139.433,27.515,-113.362
13711,-0.4722,0.5820,-0.6479,-2.625,3.296,-0.610,139.411,27.504,-113.335
13721,-0.4736,0.5664,-0.6660,1.343,5.432,-0.427,139.444,27.477,-113.291
13731,-0.4687,0.5796,-0.6997,2.625,5.493,0.244,139.499,27.433,-113.253
13741,-0.4531,0.6089,-0.7275,2.014,5.493,1.099,139.537,27.367,-113.220
13751,-0.4316,0.6470,-0.7627,1.282,5.066,1.282,139.565,27.279,-113.198
13761,-0.4126,0.7100,-0.8174,-0.183,4.333,0.122,139.570,27.180,-113.165
13771,-0.4248,0.7607,-0.8447,-2.686,4.150,-1.770,139.548,27.092,-113.121
13781,-0.4551,0.7344,-0.7983,-5.737,2.075,-4.700,139.493,27.065,-113.066
13791,-0.4810,0.6763,-0.7256,-9.155,-4.272,-8.728,139.400,27.142,-113.022
13801,-0.4976,0.5840,-0.6562,-10.559,-10.681,-12.573,139.296,27.328,-112.994
13811,-0.5039,0.4819,-0.5713,-10.925,-13.733,-13.916,139.202,27.587,-112.972
13821,-0.5059,0.3901,-0.4873,-8.728,-13.062,-12.451,139.142,27.878,-112.961
13831,-0.5161,0.3594,-0.4717,-3.357,-8.545,-8.362,139.147,28.130,-112.956
13841,-0.5059,0.3774,-0.5117,4.700,0.122,-2.197,139.246,28.246,-112.934
13851,-0.4941,0.4180,-0.5864,13.733,11.108,4.028,139.460,28.202,-112.890
13861,-0.4785,0.4775,-0.6919,20.081,19.592,8.667,139.752,28.010,-112.819
13871,-0.4585,0.5703,-0.7925,20.264,22.400,10.315,140.032,27.746,-112.742
13881,-0.4419,0.6504,-0.8672,16.663,20.020,9.216,140.257,27.482,-112.676
13891,-0.4233,0.7031,-0.9111,12.451,14.587,6.531,140.422,27.257,-112.632
13901,-0.4072,0.7095,-0.9058,8.911,7.019,3.113,140.537,27.103,-112.604
13914,-0.4062,0.6875,-0.8535,5.127,-1.465,-0.854,140.592,27.054,-112.610
13921,-0.4214,0.6523,-0.7695,0.793,-8.850,-3.723,140.576,27.103,-112.643
13931,-0.4380,0.6260,-0.6797,-2.380,-12.634,-4.700,140.499,27.208,-112.692
13941,-0.4546,0.5894,-0.6094,-1.953,-12.085,-4.150,140.411,27.339,-112.742
13951,-0.4741,0.5352,-0.5337,1.160,-8.606,-3.174,140.350,27.471,-112.775
13961,-0.4897,0.5044,-0.5078,3.174,-4.700,-1.953,140.323,27.587,-112.791
13971,-0.5044,0.5146,-0.5278,2.380,0.854,0.183,140.301,27.647,-112.786
13981,-0.5098,0.5601,-0.5991,1.709,8.362,2.441,140.306,27.614,-112.747
13991,-0.5063,0.6294,-0.6978,3.113,15.259,3.479,140.350,27.482,-112.670
14001,-0.4814,0.6870,-0.7803,5.798,18.677,2.930,140.438,27.296,-112.560
14011,-0.4492,0.7012,-0.8188,7.446,16.357,1.404,140.548,27.114,-112.456
14021,-0.4248,0.6704,-0.8164,7.385,9.460,-1.343,140.658,26.999,-112.374
14031,-0.4272,0.6255,-0.7881,4.333,2.075,-4.578,140.735,26.971,-112.319
14041,-0.4312,0.5967,-0.7495,-0.854,-2.808,-6.653,140.751,27.004,-112.280
14051,-0.4517,0.5649,-0.7163,-3.052,-3.845,-7.446,140.746,27.076,-112.247
14061,-0.4741,0.5176,-0.6821,-1.648,-2.869,-7.507,140.773,27.164,-112.198
14071,-0.4785,0.4849,-0.6567,0.793,-2.319,-6.348,140.828,27.252,-112.159
14081,-0.4761,0.4663,-0.6567,3.662,-2.075,-3.845,140.911,27.328,-112.143
14091,-0.4683,0.4604,-0.6655,5.554,-0.671,-0.854,141.010,27.367,-112.137
14101,-0.4556,0.4707,-0.6836,5.554,1.038,2.014,141.103,27.356,-112.148
14111,-0.4395,0.5078,-0.7124,3.662,2.686,4.395,141.163,27.301,-112.170
14121,-0.4287,0.5605,-0.7524,1.221,4.456,5.432,141.191,27.208,-112.187
14131,-0.4297,0.5903,-0.7803,0.916,5.188,5.493,141.213,27.098,-112.198
14141,-0.4429,0.6001,-0.7959,1.526,3.723,5.005,141.235,27.010,-112.214
14151,-0.4551,0.5908,-0.7954,0.793,0.793,4.150,141.251,26.949,-112.247
14161,-0.4609,0.5723,-0.7646,-1.892,-2.991,3.113,141.229,26.944,-112.291
14171,-0.4570,0.5596,-0.7207,-5.127,-7.202,2.319,141.158,26.982,-112.363
14181,-0.4575,0.5659,-0.6826,-6.775,-9.583,2.197,141.042,27.043,-112.451
14191,-0.4604,0.5708,-0.6611,-4.517,-8.545,2.808,140.944,27.103,-112.538
14201,-0.4590,0.5601,-0.6494,0.244,-5.615,3.723,140.894,27.131,-112.610
14211,-0.4585,0.5591,-0.6538,3.052,-2.930,4.578,140.883,27.136,-112.670
14221,-0.4595,0.5703,-0.6689,2.686,-0.854,5.066,140.872,27.114,-112.720
14231,-0.4722,0.5796,-0.6851,0.732,0.549,4.822,140.856,27.087,-112.758
14241,-0.4785,0.5840,-0.6963,-1.587,0.977,4.150,140.817,27.059,-112.786
14251,-0.4756,0.5854,-0.7056,-3.540,0.061,3.601,140.762,27.043,-112.819
14261,-0.4707,0.5835,-0.7129,-4.700,-0.793,3.357,140.696,27.026,-112.852
14271,-0.4614,0.5850,-0.7036,-5.127,-0.916,3.540,140.625,27.010,-112.890
14281,-0.4497,0.5869,-0.7012,-5.066,-0.793,3.784,140.554,26.982,-112.928
14291,-0.4385,0.6128,-0.7085,-3.967,-0.610,3.784,140.482,26.944,-112.967
14301,-0.4424,0.6211,-0.7144,-1.099,-0.305,3.479,140.444,26.906,-113.000
14311,-0.4497,0.6147,-0.7119,1.648,-0.061,2.869,140.438,26.873,-113.022
14321,-0.4634,0.6064,-0.7129,2.441,-0.427,2.319,140.444,26.856,-113.044
14331,-0.4771,0.5996,-0.7090,1.770,-0.549,1.648,140.444,26.856,-113.066
14341,-0.4819,0.5986,-0.6973,0.610,-0.427,0.793,140.433,26.862,-113.071
14351,-0.4780,0.6025,-0.6890,-0.183,-0.549,0.366,140.416,26.873,-113.082
14361,-0.4634,0.5937,-0.6831,0.244,-0.183,0.122,140.400,26.873,-113.082
14371,-0.4517,0.5796,-0.6826,0.977,0.671,-0.122,140.405,26.867,-113.077
14381,-0.4463,0.5752,-0.6880,0.427,0.732,-0.488,140.411,26.862,-113.066
14391,-0.4517,0.5767,-0.6963,-0.671,0.366,-0.732,140.411,26.862,-113.060
14401,-0.4517,0.5781,-0.7046,-1.282,0.488,-0.793,140.400,26.856,-113.049
14411,-0.4561,0.5747,-0.7080,-0.916,0.916,-0.488,140.405,26.851,-113.038
14421,-0.4590,0.5820,-0.7231,-0.122,1.221,-0.061,140.416,26.834,-113.027
14431,-0.4624,0.5913,-0.7310,1.160,1.526,0.122,140.438,26.818,-113.016
14441,-0.4575,0.5830,-0.7349,3.113,0.916,0.061,140.482,26.801,-113.011
14451,-0.4507,0.5767,-0.7368,3.967,-0.854,-0.183,140.532,26.801,-113.016
14461,-0.4448,0.5708,-0.7266,3.418,-2.014,-0.122,140.576,26.801,-113.033
14471,-0.4395,0.5674,-0.7144,1.953,-2.136,-0.122,140.598,26.812,-113.044
14481,-0.4409,0.5698,-0.7070,0.427,-1.892,-0.183,140.603,26.818,-113.055
14491,-0.4502,0.5791,-0.7007,-0.427,-1.282,0.000,140.592,26.823,-113.066
14501,-0.4546,0.5845,-0.6982,-0.061,-0.305,0.366,140.581,26.818,-113.071
14511,-0.4604,0.5889,-0.7007,1.221,1.099,0.732,140.587,26.807,-113.071
14521,-0.4644,0.5845,-0.7017,2.441,2.502,0.854,140.614,26.779,-113.060
14531,-0.4609,0.5776,-0.6953,2.808,2.991,0.610,140.647,26.757,-113.044
14541,-0.4561,0.5781,-0.6924,2.258,2.136,-0.061,140.669,26.741,-113.027
14551,-0.4521,0.5806,-0.6978,1.953,1.404,-0.610,140.691,26.735,-113.011
14561,-0.4468,0.5801,-0.7085,2.197,1.160,-0.732,140.718,26.719,-113.000
14571,-0.4473,0.5791,-0.7134,2.380,0.977,-0.427,140.751,26.708,-112.989
14581,-0.4521,0.5835,-0.7173,2.075,0.977,0.061,140.773,26.697,-112.983
14591,-0.4585,0.5786,-0.7158,1.526,1.160,0.122,140.795,26.680,-112.972
14601,-0.4570,0.5684,-0.7095,0.427,1.099,-0.061,140.806,26.675,-112.967
14611,-0.4600,0.5708,-0.7056,-1.343,0.183,-0.488,140.801,26.680,-112.961
14621,-0.4590,0.5723,-0.7031,-1.892,-1.038,-0.610,140.779,26.691,-112.961
14631,-0.4556,0.5679,-0.7012,-1.343,-1.709,-0.488,140.768,26.708,-112.972
14641,-0.4536,0.5625,-0.7026,-0.732,-1.648,-0.244,140.762,26.724,-112.978
14651,-0.4541,0.5581,-0.7036,-0.793,-1.404,0.061,140.757,26.735,-112.989
14661,-0.4604,0.5620,-0.7046,-1.465,-1.038,0.366,140.746,26.746,-113.000
14671,-0.4609,0.5713,-0.6997,-1.404,-0.061,0.671,140.729,26.746,-113.005
14681,-0.4536,0.5771,-0.7036,-0.305,0.671,0.977,140.724,26.730,-113.011
14691,-0.4507,0.5869,-0.7173,0.732,0.854,1.038,140.729,26.708,-113.011
14701,-0.4512,0.5918,-0.7217,0.610,0.977,1.160,140.729,26.686,-113.016
14711,-0.4502,0.5962,-0.7207,-0.183,0.671,0.977,140.724,26.664,-113.022
14721,-0.4580,0.5991,-0.7090,-0.610,-0.122,0.549,140.707,26.658,-113.027
14731,-0.4595,0.5898,-0.6919,-0.122,-1.099,0.366,140.691,26.664,-113.038
14741,-0.4600,0.5771,-0.6787,0.793,-1.770,0.366,140.680,26.680,-113.055
14751,-0.4644,0.5649,-0.6680,1.404,-1.526,0.610,140.674,26.702,-113.066
14761,-0.4653,0.5605,-0.6626,1.404,-0.061,0.977,140.680,26.713,-113.077
14771,-0.4609,0.5630,-0.6655,1.221,1.892,1.160,140.680,26.702,-113.071
14781,-0.4609,0.5576,-0.6631,1.282,2.991,1.160,140.691,26.686,-113.060
14791,-0.4600,0.5522,-0.6758,1.282,3.235,1.160,140.713,26.664,-113.049
14801,-0.4604,0.5464,-0.6860,1.160,3.845,1.343,140.735,26.636,-113.033
14811,-0.4634,0.5513,-0.7031,0.427,4.883,1.831,140.762,26.598,-113.016
14821,-0.4580,0.5786,-0.7236,-0.488,5.920,2.319,140.773,26.532,-112.994
14831,-0.4453,0.6021,-0.7422,-0.610,5.920,2.563,140.779,26.455,-112.972
14841,-0.4370,0.6133,-0.7554,-0.183,4.822,2.319,140.784,26.384,-112.961
14851,-0.4341,0.5947,-0.7358,-0.549,2.502,1.587,140.779,26.334,-112.956
14861,-0.4346,0.5825,-0.7300,-2.075,-0.183,0.488,140.762,26.318,-112.961
14871,-0.4272,0.5991,-0.7510,-3.906,-0.916,-0.061,140.729,26.307,-112.967
14881,-0.4189,0.6392,-0.8003,-3.235,0.916,-0.244,140.707,26.257,-112.961
14891,-0.4287,0.6479,-0.8413,0.427,2.808,-1.099,140.740,26.202,-112.928
14901,-0.4326,0.6265,-0.8359,2.258,1.282,-2.747,140.801,26.169,-112.896
14911,-0.4585,0.5527,-0.7349,-1.526,-4.578,-4.761,140.812,26.241,-112.890
14921,-0.4863,0.4736,-0.5957,-11.292,-13.184,-6.226,140.691,26.444,-112.928
14931,-0.4990,0.4473,-0.4951,-20.386,-18.311,-6.348,140.427,26.724,-113.000
14941,-0.4966,0.4644,-0.4600,-21.729,-15.686,-4.456,140.125,26.977,-113.077
14951,-0.4766,0.5229,-0.5142,-13.550,-5.432,-0.366,139.916,27.081,-113.110
14961,-0.4502,0.5796,-0.6138,1.099,8.911,4.944,139.905,26.993,-113.088
14971,-0.4312,0.6172,-0.7207,14.709,19.653,9.033,140.076,26.763,-113.027
14981,-0.4238,0.6309,-0.8086,20.447,21.667,10.437,140.328,26.488,-112.961
14991,-0.4341,0.6431,-0.8618,17.090,15.869,8.972,140.543,26.268,-112.923
15001,-0.4438,0.6665,-0.8862,8.850,6.714,5.981,140.652,26.131,-112.928
15011,-0.4365,0.6860,-0.8545,0.793,-1.099,2.808,140.652,26.082,-112.956
15021,-0.4277,0.6504,-0.7759,-2.258,-6.409,-0.488,140.609,26.098,-113.000
15031,-0.4292,0.5952,-0.6978,-3.357,-10.315,-3.113,140.543,26.186,-113.044
15041,-0.4355,0.5391,-0.6362,-3.296,-10.864,-4.395,140.482,26.312,-113.082
15051,-0.4536,0.5024,-0.6025,-2.136,-7.812,-3.845,140.449,26.433,-113.110
15061,-0.4707,0.4941,-0.6064,0.122,-2.747,-1.648,140.455,26.510,-113.115
15071,-0.4712,0.5127,-0.6367,2.747,2.014,1.648,140.488,26.521,-113.115
15081,-0.4673,0.5381,-0.6787,4.822,5.310,4.578,140.543,26.472,-113.115
15091,-0.4590,0.5620,-0.7080,4.150,6.470,6.165,140.592,26.384,-113.121
15101,-0.4438,0.6055,-0.7510,2.258,5.676,6.042,140.614,26.285,-113.132
15111,-0.4336,0.6348,-0.7715,1.038,4.578,5.066,140.620,26.191,-113.143
15121,-0.4224,0.6504,-0.7739,0.366,3.296,3.540,140.614,26.109,-113.154
15131,-0.4131,0.6353,-0.7515,-0.427,1.099,1.953,140.598,26.054,-113.159
15141,-0.4209,0.6187,-0.7349,-1.465,-0.610,0.244,140.576,26.038,-113.165
15151,-0.4390,0.6089,-0.7129,-2.563,-0.854,-0.793,140.537,26.038,-113.165
15161,-0.4575,0.5991,-0.7075,-2.930,-0.732,-1.160,140.504,26.054,-113.159
15171,-0.4683,0.5972,-0.7173,-1.648,-0.549,-1.099,140.488,26.071,-113.154
15181,-0.4619,0.5908,-0.7314,0.854,-0.305,-0.610,140.499,26.076,-113.154
15191,-0.4531,0.5874,-0.7378,2.747,-0.183,0.305,140.537,26.071,-113.159
15201,-0.4326,0.5542,-0.7065,3.357,-1.587,0.610,140.576,26.076,-113.176
15211,-0.4429,0.5171,-0.6709,1.831,-3.845,0.610,140.598,26.120,-113.209
15221,-0.4443,0.5156,-0.6455,-1.831,-4.517,1.160,140.570,26.164,-113.247
15231,-0.4429,0.5205,-0.6377,-4.395,-2.258,1.770,140.515,26.191,-113.280
15241,-0.4512,0.5430,-0.6523,-5.066,1.465,2.625,140.455,26.186,-113.291
15251,-0.4536,0.5991,-0.7100,-3.967,5.249,3.906,140.411,26.120,-113.286
15261,-0.4434,0.6938,-0.8340,-0.916,8.606,4.578,140.411,25.983,-113.264
15271,-0.4185,0.7676,-0.9419,2.625,11.169,3.906,140.460,25.807,-113.220
15281,-0.4009,0.7944,-0.9604,2.747,8.972,1.526,140.510,25.648,-113.170
15291,-0.3955,0.7314,-0.8628,-0.305,-1.038,-3.235,140.504,25.609,-113.148
15301,-0.4307,0.5747,-0.6855,-5.676,-15.808,-9.949,140.433,25.796,-113.176
15311,-0.4702,0.4043,-0.4844,-14.221,-28.015,-14.771,140.262,26.213,-113.247
15321,-0.5029,0.3174,-0.3848,-22.034,-31.677,-15.076,140.004,26.741,-113.346
15331,-0.5181,0.3848,-0.3931,-25.024,-20.264,-9.827,139.680,27.120,-113.406
15341,-0.5244,0.4663,-0.4419,-13.611,0.366,-0.854,139.488,27.246,-113.395
15351,-0.5049,0.5234,-0.5610,7.324,18.433,8.057,139.565,27.114,-113.329
15361,-0.4609,0.6147,-0.7461,24.048,27.100,13.367,139.850,26.807,-113.247
15371,-0.4170,0.6694,-0.8931,29.541,26.428,13.916,140.208,26.455,-113.176
15381,-0.3857,0.7026,-0.9722,22.400,18.738,11.169,140.488,26.158,-113.137
15391,-0.3760,0.7339,-0.9971,7.263,7.507,5.737,140.592,25.972,-113.132
15401,-0.3931,0.7344,-0.9546,-6.104,-3.296,-0.793,140.543,25.922,-113.148
15411,-0.4097,0.6797,-0.8628,-11.780,-11.353,-5.920,140.427,25.994,-113.181
15421,-0.4292,0.5850,-0.7393,-11.353,-16.357,-8.728,140.306,26.158,-113.220
15431,-0.4551,0.4927,-0.6055,-8.240,-18.921,-8.850,140.208,26.395,-113.280
15441,-0.4717,0.4404,-0.5161,-3.723,-18.677,-5.981,140.125,26.664,-113.362
15451,-0.4829,0.4141,-0.4819,2.808,-13.489,-1.526,140.109,26.878,-113.445
15461,-0.4761,0.4297,-0.5117,8.789,-5.066,3.357,140.164,26.982,-113.511
15471,-0.4751,0.4785,-0.5874,10.803,3.784,7.446,140.262,26.960,-113.549
15481,-0.4727,0.5459,-0.6650,7.690,10.132,9.888,140.339,26.834,-113.560
15491,-0.4609,0.6177,-0.7476,2.258,12.451,10.376,140.361,26.664,-113.560
15501,-0.4502,0.6782,-0.8086,-2.258,11.169,8.850,140.334,26.483,-113.555
15511,-0.4429,0.7222,-0.8408,-5.371,6.897,5.920,140.273,26.351,-113.560
15521,-0.4336,0.7329,-0.8374,-6.897,1.282,2.380,140.186,26.274,-113.571
15531,-0.4253,0.7139,-0.7983,-6.958,-3.967,-1.221,140.087,26.263,-113.588
15541,-0.4224,0.6758,-0.7314,-5.432,-7.507,-3.967,139.999,26.312,-113.610
15551,-0.4292,0.6123,-0.6655,-1.770,-9.460,-5.188,139.944,26.411,-113.632
15561,-0.4536,0.5542,-0.6182,2.075,-9.033,-5.005,139.933,26.532,-113.654
15571,-0.4717,0.5161,-0.5947,4.456,-5.737,-3.540,139.966,26.642,-113.665
15581,-0.4746,0.5127,-0.5981,4.761,-0.854,-1.343,140.010,26.702,-113.659
15591,-0.4668,0.5332,-0.6162,4.333,3.906,0.732,140.054,26.697,-113.637
15601,-0.4595,0.5762,-0.6470,4.456,6.897,2.197,140.092,26.647,-113.604
15611,-0.4458,0.6094,-0.6948,6.470,8.240,2.869,140.158,26.554,-113.571
15621,-0.4399,0.6167,-0.7407,8.911,8.545,2.563,140.268,26.455,-113.533
15631,-0.4429,0.6069,-0.7773,9.094,7.507,1.709,140.389,26.362,-113.494
15641,-0.4429,0.5981,-0.8018,6.287,5.188,0.793,140.493,26.296,-113.461
15651,-0.4375,0.5923,-0.7979,2.625,2.380,-0.366,140.559,26.252,-113.445
15661,-0.4346,0.5791,-0.7627,-0.427,-0.916,-1.709,140.581,26.252,-113.434
15671,-0.4312,0.5713,-0.7139,-2.808,-4.761,-2.563,140.554,26.296,-113.445
15681,-0.4370,0.5679,-0.6738,-2.747,-6.409,-2.441,140.510,26.362,-113.472
15691,-0.4453,0.5562,-0.6494,-0.244,-4.639,-1.709,140.488,26.417,-113.489
15701,-0.4561,0.5391,-0.6592,2.197,-0.916,-0.977,140.515,26.450,-113.489
15711,-0.4629,0.5488,-0.6919,2.563,2.686,-0.244,140.559,26.439,-113.467
15721,-0.4658,0.5591,-0.7231,2.319,4.700,0.732,140.609,26.406,-113.439
15731,-0.4600,0.5737,-0.7505,1.343,4.639,1.282,140.652,26.356,-113.417
15741,-0.4458,0.5854,-0.7554,-0.427,3.113,1.221,140.669,26.312,-113.406
15751,-0.4277,0.5903,-0.7285,-2.197,1.465,1.160,140.652,26.279,-113.406
15761,-0.4268,0.5815,-0.6870,-2.808,-0.183,1.038,140.609,26.263,-113.417
15771,-0.4385,0.5781,-0.6724,-1.831,-1.282,0.854,140.570,26.268,-113.434
15781,-0.4492,0.5771,-0.6689,0.122,-0.366,1.038,140.554,26.268,-113.445
15791,-0.4570,0.5781,-0.6763,1.465,1.587,1.526,140.559,26.257,-113.445
15801,-0.4570,0.5908,-0.6899,1.343,2.869,1.953,140.559,26.230,-113.439
15811,-0.4536,0.6006,-0.6992,0.488,3.540,1.831,140.559,26.191,-113.434
15821,-0.4463,0.6045,-0.7178,-0.244,4.028,1.221,140.559,26.142,-113.412
15831,-0.4355,0.6118,-0.7358,-0.732,3.418,0.061,140.559,26.104,-113.390
15841,-0.4336,0.6123,-0.7495,-0.732,2.075,-0.854,140.559,26.071,-113.368
15851,-0.4331,0.6025,-0.7563,-0.549,1.221,-1.526,140.576,26.054,-113.346
15861,-0.4307,0.5889,-0.7544,-0.793,0.183,-2.258,140.592,26.049,-113.324
15871,-0.4360,0.5703,-0.7437,-1.953,-1.404,-2.686,140.598,26.065,-113.313
15881,-0.4375,0.5596,-0.7197,-4.150,-3.113,-2.808,140.570,26.098,-113.313
15891,-0.4404,0.5513,-0.6948,-5.798,-4.089,-2.563,140.521,26.153,-113.318
15901,-0.4419,0.5527,-0.6816,-5.310,-3.845,-1.709,140.466,26.197,-113.329
15915,-0.4468,0.5469,-0.6797,-2.014,-2.502,-0.366,140.449,26.230,-113.346
15921,-0.4507,0.5469,-0.6929,1.404,-0.732,1.038,140.466,26.235,-113.357
15931,-0.4478,0.5586,-0.7158,2.686,0.916,2.136,140.504,26.213,-113.373
15941,-0.4487,0.5698,-0.7271,2.014,1.770,2.686,140.532,26.180,-113.379
15951,-0.4473,0.5854,-0.7271,-0.427,1.038,2.625,140.532,26.153,-113.395
15961,-0.4409,0.6069,-0.7187,-2.991,-0.610,2.197,140.482,26.131,-113.417
15971,-0.4395,0.6206,-0.7056,-4.639,-1.282,1.587,140.411,26.120,-113.445
15981,-0.4414,0.6230,-0.6924,-5.676,-0.244,0.854,140.323,26.109,-113.450
15991,-0.4434,0.6099,-0.6841,-5.737,1.343,0.000,140.251,26.098,-113.445
16001,-0.4531,0.5991,-0.6836,-6.531,2.563,-0.793,140.180,26.087,-113.417
16011,-0.4565,0.5977,-0.6875,-7.812,3.296,-1.160,140.109,26.071,-113.384
16021,-0.4556,0.6152,-0.6895,-6.958,3.784,-1.099,140.037,26.054,-113.346
16031,-0.4551,0.6084,-0.6963,-2.441,4.150,-0.671,140.015,26.027,-113.313
16041,-0.4512,0.5864,-0.7012,2.808,4.517,-0.183,140.059,25.999,-113.280
16051,-0.4268,0.5693,-0.7183,5.066,4.211,-0.061,140.136,25.955,-113.247
16061,-0.4214,0.5698,-0.7358,3.479,2.563,-0.488,140.202,25.922,-113.225
16071,-0.4253,0.5762,-0.7490,0.427,0.732,-1.099,140.235,25.906,-113.209
16081,-0.4272,0.5850,-0.7534,-1.526,-0.671,-1.404,140.240,25.906,-113.203
16091,-0.4297,0.5767,-0.7324,-1.404,-1.953,-1.160,140.240,25.917,-113.209
16101,-0.4346,0.5630,-0.7095,-0.244,-3.662,-0.671,140.246,25.944,-113.225
16111,-0.4404,0.5640,-0.7056,0.793,-4.211,-0.122,140.251,25.977,-113.258
16121,-0.4438,0.5669,-0.7109,1.953,-2.625,0.549,140.273,25.994,-113.280
16131,-0.4458,0.5664,-0.7104,2.930,-0.610,1.099,140.306,25.994,-113.291
16141,-0.4434,0.5693,-0.7187,2.625,-0.122,1.587,140.339,25.983,-113.307
16151,-0.4434,0.5791,-0.7271,1.343,-0.732,1.770,140.356,25.972,-113.329
16161,-0.4399,0.6035,-0.7368,-0.244,-1.526,1.526,140.345,25.961,-113.351
16171,-0.4429,0.6147,-0.7451,-0.488,-2.319,0.854,140.334,25.961,-113.373
16181,-0.4336,0.6289,-0.7388,-0.671,-3.174,0.305,140.306,25.966,-113.401
16191,-0.4199,0.6309,-0.7124,-0.793,-4.272,-0.183,140.268,25.977,-113.428
16201,-0.4380,0.5908,-0.6685,-1.099,-5.737,-1.160,140.229,26.027,-113.461
16211,-0.4653,0.5508,-0.6167,-2.930,-7.019,-2.075,140.164,26.131,-113.494
16221,-0.4917,0.5200,-0.5762,-5.310,-6.470,-2.136,140.076,26.252,-113.522
16231,-0.5078,0.4956,-0.5322,-6.226,-3.845,-1.404,139.977,26.378,-113.538
16241,-0.5112,0.4966,-0.5190,-4.028,-0.916,0.122,139.900,26.477,-113.544
16251,-0.4912,0.5229,-0.5591,1.892,3.601,2.930,139.889,26.494,-113.544
16261,-0.4282,0.6279,-0.7222,9.888,11.658,6.287,139.988,26.340,-113.511
16271,-0.3564,0.8188,-1.0176,17.090,22.583,8.301,140.208,26.005,-113.423
16281,-0.3110,0.9795,-1.2075,18.982,30.945,7.385,140.471,25.719,-113.264
16291,-0.2998,0.9888,-1.2183,17.944,25.208,1.587,140.718,25.516,-113.099
16301,-0.3765,0.7651,-0.9995,11.108,0.977,-9.277,140.867,25.565,-113.016
16311,-0.4473,0.4785,-0.6816,-7.629,-32.043,-21.973,140.779,25.955,-113.049
16321,-0.5151,0.3022,-0.4214,-30.701,-54.321,-29.175,140.411,26.559,-113.181
16331,-0.5483,0.2197,-0.2505,-42.480,-52.612,-26.062,139.922,27.131,-113.329
16341,-0.5449,0.2310,-0.1841,-32.959,-30.579,-15.381,139.548,27.466,-113.417
16351,-0.5181,0.2480,-0.2407,-6.958,-2.502,-0.671,139.477,27.488,-113.434
16361,-0.4790,0.2930,-0.3892,19.714,19.287,12.939,139.686,27.257,-113.401
16371,-0.4536,0.4258,-0.6353,31.372,31.372,22.034,140.015,26.873,-113.362
16381,-0.4258,0.6147,-0.8701,26.428,37.598,26.611,140.301,26.417,-113.318
