elapsed_ms,acc_x_g,acc_y_g,acc_z_g,gyro_x_dps,gyro_y_dps,gyro_z_dps,angle_x_deg,angle_y_deg,angle_z_deg
0,-0.6978,0.4507,-0.4790,-1.343,-4.456,0.916,135.621,43.462,-86.951
10,-0.7036,0.4575,-0.4897,-2.319,-4.700,2.014,135.566,43.511,-87.017
20,-0.7109,0.5000,-0.5151,-1.526,-1.099,4.211,135.516,43.500,-87.067
29,-0.7090,0.5181,-0.5410,2.014,5.066,6.775,135.533,43.418,-87.083
39,-0.7056,0.5718,-0.5732,5.676,11.292,8.850,135.599,43.253,-87.061
49,-0.6973,0.6099,-0.6074,10.071,16.724,9.888,135.736,43.022,-87.001
60,-0.6870,0.6504,-0.6567,14.221,18.982,9.460,135.934,42.759,-86.913
69,-0.6777,0.6812,-0.6919,15.991,18.066,6.470,136.159,42.506,-86.803
80,-0.6772,0.6787,-0.7051,15.686,13.550,1.587,136.390,42.325,-86.693
90,-0.6743,0.6665,-0.7017,12.634,6.836,-3.357,136.577,42.220,-86.594
100,-0.6802,0.6436,-0.6904,7.446,-1.282,-8.118,136.703,42.220,-86.528
110,-0.6846,0.6118,-0.6641,0.977,-10.376,-12.268,136.736,42.330,-86.501
120,-0.6855,0.5566,-0.6118,-7.080,-19.592,-15.747,136.653,42.550,-86.528
130,-0.6865,0.4814,-0.5396,-15.442,-28.381,-18.616,136.467,42.891,-86.611
140,-0.6846,0.3940,-0.4639,-24.231,-36.194,-20.447,136.165,43.347,-86.748
150,-0.6885,0.3398,-0.4009,-33.325,-42.847,-20.996,135.731,43.890,-86.946
160,-0.6997,0.3135,-0.3550,-40.039,-46.631,-19.958,135.192,44.478,-87.198
170,-0.7109,0.2993,-0.3174,-42.603,-46.143,-17.395,134.588,45.066,-87.484
180,-0.7261,0.3096,-0.2812,-40.039,-41.931,-13.245,133.962,45.599,-87.775
190,-0.7329,0.3242,-0.2598,-30.884,-32.898,-7.690,133.418,46.027,-88.039
200,-0.7441,0.3242,-0.2563,-16.296,-21.057,-1.038,133.061,46.329,-88.248
210,-0.7422,0.3325,-0.2700,-0.244,-8.057,6.348,132.913,46.472,-88.396
220,-0.7402,0.3521,-0.3008,16.174,5.432,13.855,132.990,46.450,-88.473
230,-0.7407,0.3853,-0.3560,30.151,18.555,20.996,133.275,46.258,-88.484
240,-0.7363,0.4556,-0.4302,39.612,31.494,27.161,133.715,45.879,-88.423
250,-0.7246,0.5439,-0.5234,44.800,43.396,30.579,134.264,45.346,-88.275
260,-0.7153,0.6187,-0.6079,48.401,51.575,30.334,134.907,44.714,-88.050
270,-0.7021,0.6704,-0.6821,50.659,54.932,27.832,135.599,44.055,-87.781
280,-0.6919,0.7139,-0.7437,49.255,53.162,24.048,136.285,43.407,-87.501
290,-0.6816,0.7373,-0.7925,43.762,46.814,18.982,136.901,42.830,-87.248
300,-0.6685,0.7261,-0.8062,34.607,37.048,13.489,137.395,42.358,-87.034
310,-0.6582,0.6787,-0.7769,20.996,23.071,7.935,137.708,42.039,-86.902
320,-0.6587,0.6479,-0.7295,3.906,6.104,1.953,137.774,41.902,-86.869
330,-0.6641,0.6187,-0.6772,-13.611,-9.583,-3.906,137.609,41.940,-86.913
340,-0.6709,0.5684,-0.6138,-27.954,-21.667,-8.179,137.252,42.122,-87.028
350,-0.6782,0.5176,-0.5366,-37.659,-29.785,-10.925,136.758,42.413,-87.193
360,-0.6816,0.4751,-0.4712,-41.931,-33.997,-13.062,136.198,42.775,-87.380
370,-0.6846,0.4282,-0.4043,-41.443,-34.973,-14.038,135.632,43.187,-87.572
380,-0.6943,0.3843,-0.3496,-37.659,-34.119,-13.733,135.093,43.627,-87.764
390,-0.7046,0.3638,-0.3252,-30.945,-31.128,-12.146,134.626,44.044,-87.951
400,-0.7173,0.3926,-0.3437,-21.851,-24.109,-8.667,134.269,44.374,-88.105
410,-0.7305,0.4404,-0.3940,-10.742,-11.047,-2.563,134.083,44.533,-88.187
420,-0.7334,0.4761,-0.4429,1.526,6.042,4.944,134.094,44.495,-88.176
430,-0.7290,0.5288,-0.4951,12.451,23.560,11.902,134.291,44.258,-88.055
440,-0.7148,0.5864,-0.5522,21.240,39.001,17.151,134.643,43.841,-87.830
450,-0.6982,0.6123,-0.6108,28.015,48.950,18.738,135.132,43.319,-87.534
460,-0.6846,0.6172,-0.6465,30.457,51.697,17.761,135.665,42.770,-87.204
470,-0.6660,0.5840,-0.6406,27.344,46.143,14.343,136.159,42.292,-86.902
480,-0.6543,0.5449,-0.6240,18.127,32.532,8.789,136.511,41.962,-86.688
490,-0.6509,0.5107,-0.5947,4.211,14.465,2.625,136.653,41.819,-86.578
500,-0.6538,0.4990,-0.5669,-10.986,-4.150,-2.930,136.560,41.858,-86.589
510,-0.6621,0.4834,-0.5249,-22.522,-18.372,-6.958,136.274,42.045,-86.688
520,-0.6743,0.4590,-0.4829,-28.381,-27.344,-8.606,135.884,42.336,-86.858
530,-0.6895,0.4873,-0.4697,-27.893,-30.396,-8.484,135.450,42.643,-87.061
540,-0.7070,0.5356,-0.4868,-20.508,-25.330,-6.165,135.093,42.880,-87.242
550,-0.7148,0.5728,-0.5103,-7.202,-13.672,-2.258,134.918,42.995,-87.352
560,-0.7065,0.6045,-0.5518,7.812,1.099,2.563,134.956,42.946,-87.369
570,-0.7002,0.6304,-0.6040,20.691,16.235,6.653,135.214,42.742,-87.275
580,-0.6919,0.6162,-0.6411,27.771,27.344,8.545,135.621,42.440,-87.094
590,-0.6797,0.5757,-0.6445,24.902,30.518,7.324,136.038,42.133,-86.880
600,-0.6611,0.4951,-0.5898,13.428,24.414,4.089,136.335,41.918,-86.688
610,-0.6509,0.3784,-0.4961,-3.723,8.606,-1.404,136.423,41.907,-86.594
620,-0.6494,0.3125,-0.4121,-23.560,-13.916,-7.690,136.219,42.155,-86.649
630,-0.6689,0.3486,-0.4282,-41.016,-34.058,-12.573,135.731,42.567,-86.847
640,-0.7002,0.5220,-0.4907,-49.377,-41.382,-12.024,135.027,42.962,-87.122
650,-0.7368,0.7271,-0.5737,-37.781,-31.372,-7.996,134.434,43.193,-87.347
660,-0.7417,0.8271,-0.6206,-6.653,-7.324,-1.465,134.258,43.182,-87.402
670,-0.7192,0.7808,-0.6172,33.508,18.372,5.554,134.615,42.940,-87.275
680,-0.6685,0.6201,-0.5493,68.176,36.133,9.399,135.434,42.583,-87.017
690,-0.6367,0.4009,-0.4824,85.510,36.011,7.263,136.511,42.308,-86.743
700,-0.6226,0.2510,-0.4463,77.454,17.700,3.479,137.505,42.237,-86.611
710,-0.6333,0.1958,-0.4482,49.438,-8.850,-0.183,138.131,42.407,-86.693
720,-0.6787,0.3179,-0.5620,14.832,-30.579,-1.587,138.230,42.682,-86.951
730,-0.7368,0.5103,-0.6929,-14.648,-32.410,1.648,137.933,42.891,-87.264
740,-0.7471,0.6685,-0.7666,-30.457,-15.686,7.385,137.494,42.891,-87.479
750,-0.7334,0.7578,-0.7715,-29.419,7.507,10.681,137.153,42.676,-87.517
760,-0.6963,0.7568,-0.7192,-17.151,28.015,12.207,137.043,42.303,-87.380
770,-0.6426,0.6519,-0.5742,-1.831,32.959,8.362,137.115,41.946,-87.160
780,-0.6138,0.4668,-0.4297,10.986,15.137,-0.854,137.274,41.863,-87.012
790,-0.6240,0.3545,-0.3555,11.658,-15.869,-9.460,137.335,42.138,-87.067
800,-0.6523,0.3149,-0.3452,2.441,-43.701,-13.855,137.186,42.671,-87.325
810,-0.7075,0.4048,-0.4775,-8.057,-58.533,-12.207,136.851,43.237,-87.748
820,-0.7744,0.5786,-0.6543,-16.357,-47.180,-4.211,136.434,43.588,-88.149
830,-0.7847,0.7251,-0.7559,-16.113,-12.390,6.042,136.148,43.572,-88.325
840,-0.7524,0.7354,-0.7251,-7.019,26.428,13.794,136.143,43.209,-88.209
850,-0.6641,0.5869,-0.5444,6.958,49.622,15.259,136.395,42.715,-87.891
860,-0.6206,0.3755,-0.3633,14.038,42.542,7.751,136.730,42.429,-87.567
870,-0.6069,0.2354,-0.2187,7.690,12.878,-1.648,136.857,42.545,-87.429
880,-0.6196,0.1216,-0.1348,-6.958,-23.437,-9.155,136.714,43.088,-87.556
890,-0.6851,0.2349,-0.2949,-21.790,-53.162,-14.099,136.307,43.748,-87.913
900,-0.7715,0.5444,-0.5718,-31.982,-51.819,-8.240,135.709,44.182,-88.330
910,-0.8213,0.7871,-0.7778,-27.527,-16.174,5.676,135.275,44.182,-88.544
920,-0.8042,0.9063,-0.8843,-9.155,29.785,17.761,135.258,43.731,-88.423
930,-0.7266,0.9512,-0.8867,14.771,71.533,25.391,135.687,42.907,-87.979
940,-0.6343,0.8252,-0.7495,35.889,92.407,24.841,136.439,41.946,-87.341
950,-0.5728,0.5537,-0.5293,42.542,78.003,16.357,137.203,41.226,-86.776
960,-0.5645,0.3271,-0.3633,29.236,31.799,3.052,137.670,41.050,-86.517
970,-0.5947,0.2480,-0.2925,2.075,-22.583,-11.353,137.653,41.457,-86.611
980,-0.6372,0.2686,-0.3276,-24.536,-66.467,-21.484,137.186,42.231,-86.995
990,-0.7163,0.4038,-0.4888,-38.635,-86.426,-22.827,136.456,43.077,-87.561
1000,-0.8027,0.6128,-0.6772,-39.307,-71.777,-14.526,135.725,43.676,-88.094
1010,-0.8223,0.7603,-0.7886,-25.757,-26.978,-1.953,135.308,43.808,-88.336
1020,-0.7754,0.7939,-0.7705,-2.869,23.987,8.362,135.368,43.495,-88.187
1030,-0.6733,0.6743,-0.6260,21.729,59.265,13.672,135.857,42.913,-87.742
1040,-0.6045,0.4678,-0.4438,32.837,63.171,10.559,136.494,42.391,-87.248
1050,-0.5781,0.2544,-0.2974,27.161,36.316,2.930,137.000,42.248,-86.940
1060,-0.6021,0.1855,-0.2495,6.531,-4.211,-4.089,137.131,42.506,-86.935
1070,-0.6445,0.2803,-0.3486,-14.160,-37.170,-8.667,136.857,42.962,-87.193
1080,-0.7314,0.5005,-0.5703,-24.048,-48.279,-7.812,136.390,43.374,-87.567
1090,-0.7852,0.6953,-0.7378,-22.217,-31.067,0.244,135.967,43.539,-87.863
1100,-0.7744,0.7627,-0.7705,-6.958,0.854,8.667,135.840,43.396,-87.940
1110,-0.7202,0.7031,-0.7017,10.681,28.503,13.367,136.033,43.028,-87.803
1120,-0.6479,0.5967,-0.5591,21.179,41.809,13.245,136.395,42.589,-87.534
1130,-0.6035,0.3950,-0.3960,19.287,30.762,7.202,136.719,42.369,-87.314
1140,-0.6050,0.2949,-0.3135,6.653,-1.465,-1.343,136.785,42.512,-87.319
1150,-0.6318,0.3511,-0.3521,-13.428,-32.593,-6.958,136.478,42.885,-87.550
1160,-0.7056,0.5361,-0.5312,-26.978,-46.143,-8.362,135.956,43.275,-87.902
1170,-0.7510,0.6924,-0.6694,-27.832,-35.034,-3.601,135.456,43.495,-88.198
1180,-0.7539,0.7334,-0.6997,-13.855,-9.277,2.380,135.225,43.478,-88.314
1190,-0.7231,0.6553,-0.6538,4.944,14.893,5.493,135.335,43.281,-88.220
1200,-0.6807,0.5571,-0.5493,17.212,28.625,6.226,135.643,43.011,-88.006
1210,-0.6489,0.4287,-0.4453,18.372,24.963,3.235,135.967,42.847,-87.803
1220,-0.6377,0.3843,-0.4062,10.864,7.019,-0.977,136.132,42.863,-87.726
1230,-0.6494,0.4243,-0.4385,-0.366,-10.010,-2.991,136.082,42.995,-87.792
1240,-0.6782,0.5073,-0.5229,-8.118,-18.616,-3.174,135.906,43.149,-87.935
1250,-0.7114,0.6265,-0.6304,-8.911,-13.794,0.000,135.720,43.204,-88.066
1260,-0.7148,0.6758,-0.6699,-2.625,0.427,3.662,135.659,43.110,-88.099
1270,-0.7026,0.6504,-0.6592,9.216,12.939,5.493,135.797,42.924,-88.028
1280,-0.6719,0.5693,-0.5767,17.639,18.982,5.493,136.055,42.715,-87.902
1290,-0.6587,0.4663,-0.5044,19.836,12.390,1.648,136.329,42.627,-87.803
1300,-0.6587,0.4639,-0.4941,13.062,-1.648,-2.319,136.467,42.671,-87.792
1310,-0.6665,0.4751,-0.4927,1.526,-12.390,-4.272,136.428,42.803,-87.869
1320,-0.6826,0.4854,-0.5137,-7.996,-20.325,-5.554,136.263,43.000,-88.000
1330,-0.7026,0.5645,-0.5801,-15.381,-19.531,-4.456,136.011,43.149,-88.143
1340,-0.7041,0.6050,-0.6089,-16.113,-7.751,-1.404,135.802,43.176,-88.204
1350,-0.6992,0.5864,-0.6030,-9.949,4.211,0.000,135.731,43.110,-88.165
1360,-0.6875,0.6055,-0.5825,-3.174,12.634,0.977,135.753,42.979,-88.050
1370,-0.6641,0.4756,-0.4707,3.479,15.015,0.732,135.868,42.885,-87.918
1380,-0.6597,0.3672,-0.3921,4.883,3.540,-2.625,135.967,42.957,-87.858
1390,-0.6655,0.3643,-0.3750,-2.808,-9.644,-4.822,135.912,43.149,-87.902
1400,-0.6973,0.4380,-0.4629,-9.766,-16.785,-4.456,135.742,43.341,-88.017
1410,-0.7305,0.6001,-0.5981,-12.695,-11.475,-0.122,135.533,43.401,-88.127
1420,-0.7329,0.7017,-0.6802,-7.751,7.080,5.432,135.450,43.248,-88.110
1430,-0.7114,0.7607,-0.7314,3.540,27.832,9.705,135.588,42.891,-87.940
1440,-0.6655,0.7397,-0.6973,15.320,43.701,11.047,135.928,42.407,-87.627
1450,-0.6304,0.5679,-0.5693,23.254,43.518,7.751,136.373,42.001,-87.292
1460,-0.6143,0.3477,-0.3970,19.714,21.240,1.038,136.714,41.918,-87.105
1470,-0.6294,0.2051,-0.2930,4.089,-12.512,-7.141,136.807,42.242,-87.155
1480,-0.6499,0.1880,-0.2871,-17.639,-41.260,-12.329,136.560,42.819,-87.413
1490,-0.7139,0.3530,-0.4473,-33.081,-53.528,-11.475,136.022,43.369,-87.803
1500,-0.7700,0.6016,-0.6416,-35.522,-35.645,-3.113,135.467,43.621,-88.110
1510,-0.7778,0.7383,-0.7349,-24.109,3.906,8.728,135.192,43.467,-88.160
1520,-0.7256,0.7632,-0.7383,-2.197,43.213,17.944,135.324,42.946,-87.913
1530,-0.6621,0.7183,-0.6758,21.179,71.045,21.973,135.829,42.204,-87.446
1540,-0.6094,0.5459,-0.5557,35.339,76.111,20.325,136.522,41.479,-86.924
1550,-0.6001,0.4175,-0.4800,32.166,55.603,15.991,137.098,40.990,-86.572
1560,-0.6089,0.4111,-0.4702,14.282,24.536,9.644,137.340,40.781,-86.440
1570,-0.6348,0.4404,-0.5039,-3.845,-3.235,3.113,137.280,40.809,-86.501
1580,-0.6621,0.5244,-0.5889,-16.357,-21.240,-0.732,137.010,40.963,-86.682
1590,-0.6831,0.6445,-0.6851,-20.508,-23.071,-0.488,136.670,41.083,-86.891
1600,-0.6802,0.6958,-0.7285,-15.320,-11.230,1.404,136.439,41.083,-87.006
1610,-0.6748,0.6978,-0.7275,-4.578,2.686,2.136,136.395,40.979,-87.001
1620,-0.6416,0.6299,-0.6216,1.648,11.780,2.930,136.445,40.820,-86.918
1630,-0.6235,0.4478,-0.4687,5.005,8.057,0.122,136.538,40.792,-86.847
1640,-0.6182,0.3237,-0.3716,-3.479,-9.277,-4.944,136.505,41.001,-86.885
1650,-0.6226,0.2686,-0.3110,-18.066,-30.212,-9.338,136.230,41.435,-87.072
1660,-0.6631,0.3096,-0.3794,-31.738,-48.157,-12.573,135.753,41.990,-87.396
1670,-0.7080,0.5254,-0.5386,-41.443,-50.476,-9.644,135.088,42.429,-87.775
1680,-0.7485,0.7603,-0.7080,-38.574,-29.785,-0.549,134.500,42.572,-88.055
1690,-0.7397,0.8716,-0.7642,-22.400,4.028,10.864,134.203,42.369,-88.121
1700,-0.6890,0.7788,-0.6821,0.916,34.424,19.409,134.280,41.907,-87.968
1710,-0.6265,0.5894,-0.5122,19.531,46.143,19.897,134.610,41.413,-87.709
1720,-0.6006,0.3765,-0.3633,25.024,31.616,11.597,134.978,41.188,-87.517
1730,-0.6118,0.2534,-0.2744,13.367,1.038,1.526,135.132,41.342,-87.523
1740,-0.6353,0.2822,-0.3408,-8.850,-29.358,-5.798,134.951,41.726,-87.748
1750,-0.6880,0.5488,-0.5469,-30.151,-42.969,-7.812,134.434,42.083,-88.077
1760,-0.7319,0.8032,-0.7153,-35.889,-29.602,-1.587,133.868,42.220,-88.347
1770,-0.7339,0.9277,-0.7778,-21.729,-0.305,7.507,133.566,42.061,-88.423
1780,-0.6968,0.8833,-0.7153,3.113,29.114,15.076,133.649,41.649,-88.275
1790,-0.6245,0.6470,-0.5229,27.710,46.448,16.968,134.066,41.160,-87.984
1800,-0.6074,0.3672,-0.3516,38.086,36.926,9.460,134.615,40.930,-87.720
1810,-0.6123,0.2969,-0.3115,27.710,10.010,-0.244,134.973,41.001,-87.621
1820,-0.6401,0.3706,-0.3857,7.629,-13.062,-7.324,135.022,41.232,-87.676
1830,-0.6860,0.5557,-0.5742,-9.949,-24.170,-9.949,134.846,41.468,-87.808
1840,-0.7090,0.7847,-0.7544,-18.799,-14.893,-5.615,134.594,41.528,-87.896
1851,-0.6973,0.8687,-0.8105,-12.878,9.277,1.404,134.500,41.342,-87.825
1860,-0.6504,0.7563,-0.7065,3.113,30.029,5.493,134.665,41.001,-87.589
1870,-0.6128,0.5200,-0.5215,17.029,32.959,2.502,135.027,40.743,-87.303
1880,-0.6089,0.3149,-0.3511,17.456,14.282,-5.310,135.346,40.792,-87.122
1890,-0.6230,0.1982,-0.2427,5.737,-16.296,-13.306,135.445,41.226,-87.144
1900,-0.6396,0.1680,-0.2217,-10.620,-45.410,-19.775,135.258,41.940,-87.380
1913,-0.6880,0.3315,-0.3789,-25.391,-62.378,-20.203,134.780,42.638,-87.781
1920,-0.7676,0.7329,-0.7021,-31.250,-48.035,-10.254,134.214,42.990,-88.143
1930,-0.7930,1.0342,-0.8999,-22.888,0.549,8.728,133.934,42.924,-88.220
1940,-0.7261,1.0620,-0.9243,5.005,54.504,25.024,134.187,42.363,-87.924
1950,-0.6016,0.9019,-0.7471,39.551,89.966,31.250,134.973,41.512,-87.347
1960,-0.5415,0.4507,-0.4375,63.904,87.646,23.804,136.011,40.726,-86.743
1970,-0.5684,0.1689,-0.2686,55.603,44.617,8.728,136.780,40.342,-86.418
1980,-0.5874,0.1143,-0.1665,17.090,-9.338,-6.226,136.934,40.452,-86.440
1990,-0.6191,0.0815,-0.1567,-21.851,-57.983,-20.081,136.505,41.012,-86.770
2000,-0.6787,0.2505,-0.3418,-48.462,-90.210,-28.809,135.659,41.869,-87.314
2010,-0.7822,0.6367,-0.6543,-60.669,-82.520,-22.400,134.681,42.616,-87.874
2020,-0.8320,0.9346,-0.8569,-48.401,-31.189,-2.869,134.011,42.852,-88.149
2030,-0.7915,0.9858,-0.8896,-11.902,33.203,15.686,134.011,42.512,-87.968
2040,-0.6758,0.9419,-0.8164,31.006,83.862,26.245,134.709,41.737,-87.402
2050,-0.5747,0.7847,-0.6904,62.866,106.995,26.733,135.846,40.798,-86.633
2060,-0.5273,0.5518,-0.5562,69.092,95.825,20.935,136.983,39.963,-85.946
2070,-0.5244,0.3813,-0.4502,45.959,57.251,12.329,137.697,39.457,-85.556
2080,-0.5498,0.2544,-0.3784,10.010,8.545,0.854,137.840,39.391,-85.490
2090,-0.5850,0.2476,-0.4009,-21.729,-37.598,-12.268,137.488,39.754,-85.699
2100,-0.6372,0.3657,-0.5371,-39.185,-68.909,-22.095,136.846,40.408,-86.094
2110,-0.7192,0.6157,-0.7339,-41.443,-72.083,-21.851,136.148,41.083,-86.534
2120,-0.7505,0.7612,-0.8071,-28.870,-47.241,-13.184,135.654,41.517,-86.841
2130,-0.7227,0.7280,-0.7261,-6.714,-14.343,-3.601,135.522,41.644,-86.940
2140,-0.6533,0.5415,-0.5220,14.526,8.484,2.258,135.703,41.567,-86.880
2150,-0.6133,0.3369,-0.3506,20.020,10.986,3.540,135.950,41.462,-86.814
2160,-0.6079,0.3018,-0.3271,11.841,-3.296,1.648,136.038,41.479,-86.858
2170,-0.6318,0.4673,-0.4668,-6.042,-16.052,2.197,135.868,41.578,-87.028
2180,-0.6680,0.6934,-0.6470,-15.808,-15.625,6.165,135.571,41.644,-87.231
2190,-0.6831,0.7988,-0.7378,-13.611,-1.282,11.780,135.352,41.572,-87.358
2200,-0.6675,0.7847,-0.7109,-0.732,16.418,15.259,135.352,41.347,-87.347
2210,-0.6426,0.5737,-0.5562,13.855,25.208,13.611,135.560,41.072,-87.242
2220,-0.6333,0.3955,-0.4419,17.761,15.076,5.859,135.797,40.924,-87.155
2230,-0.6416,0.4204,-0.4360,6.531,-4.517,-2.075,135.846,40.974,-87.177
2240,-0.6567,0.5088,-0.4907,-7.263,-17.822,-5.859,135.703,41.138,-87.286
2250,-0.6724,0.6172,-0.5601,-15.686,-21.606,-5.188,135.445,41.331,-87.440
2260,-0.6694,0.6831,-0.5918,-16.357,-15.320,-1.709,135.198,41.451,-87.567
2270,-0.6567,0.6743,-0.5854,-9.033,-3.235,1.892,135.077,41.462,-87.616
2280,-0.6494,0.6553,-0.5908,1.038,8.484,4.089,135.115,41.375,-87.572
2290,-0.6436,0.5913,-0.5532,9.155,16.968,4.517,135.280,41.221,-87.457
2300,-0.6401,0.4678,-0.4858,13.672,15.015,1.648,135.500,41.105,-87.330
2310,-0.6436,0.4263,-0.4482,10.132,5.188,-2.502,135.648,41.083,-87.259
2320,-0.6479,0.3711,-0.4009,0.793,-5.249,-5.066,135.659,41.155,-87.259
2330,-0.6577,0.4121,-0.4370,-8.728,-15.686,-6.897,135.516,41.320,-87.341
2340,-0.6772,0.6055,-0.5933,-16.357,-15.869,-4.822,135.286,41.462,-87.440
2350,-0.6890,0.8071,-0.7480,-15.381,1.831,2.563,135.126,41.435,-87.451
2360,-0.6685,0.8345,-0.7837,-2.869,26.428,9.827,135.203,41.177,-87.292
2370,-0.6265,0.7256,-0.6699,13.733,42.542,13.000,135.522,40.781,-87.017
2380,-0.5967,0.4424,-0.4541,26.367,37.842,7.874,135.967,40.457,-86.743
2390,-0.6074,0.2373,-0.3188,24.414,9.460,-2.197,136.280,40.408,-86.633
2400,-0.6265,0.2446,-0.3306,5.737,-22.888,-10.376,136.263,40.644,-86.743
2410,-0.6714,0.4160,-0.4922,-13.672,-41.626,-13.489,135.967,41.034,-86.995
2420,-0.7109,0.6592,-0.6924,-24.475,-37.170,-8.362,135.549,41.364,-87.259
2430,-0.7212,0.8779,-0.8521,-20.813,-8.240,1.892,135.275,41.407,-87.352
2440,-0.6812,0.8950,-0.8589,-5.432,30.579,12.085,135.335,41.105,-87.182
2450,-0.6069,0.7759,-0.7256,16.052,59.204,17.029,135.753,40.562,-86.786
2460,-0.5596,0.4487,-0.4731,29.114,59.448,12.085,136.324,40.056,-86.358
2470,-0.5806,0.1924,-0.3086,25.024,25.574,0.305,136.725,39.869,-86.127
2480,-0.6060,0.1890,-0.2686,1.160,-17.090,-9.399,136.692,40.056,-86.193
2490,-0.6406,0.2446,-0.2988,-22.278,-48.401,-14.832,136.285,40.512,-86.484
2500,-0.6792,0.4106,-0.4624,-33.081,-64.575,-14.893,135.665,41.078,-86.929
2510,-0.7285,0.7285,-0.6978,-31.738,-51.270,-5.859,135.071,41.484,-87.352
2520,-0.7383,0.8706,-0.8135,-12.878,-10.254,9.399,134.819,41.495,-87.534
2530,-0.6978,0.9009,-0.8330,12.878,33.264,21.912,134.995,40.990,-87.424
2540,-0.6099,0.8223,-0.7393,38.513,64.758,27.954,135.571,40.221,-87.083
2550,-0.5615,0.5781,-0.5864,51.453,70.068,24.048,136.346,39.496,-86.666
2560,-0.5615,0.4072,-0.4663,40.039,44.128,13.977,136.934,39.111,-86.402
2570,-0.5708,0.3833,-0.4062,8.240,4.944,2.991,137.021,39.122,-86.385
2580,-0.5991,0.4360,-0.4111,-22.888,-31.189,-6.775,136.626,39.452,-86.594
2590,-0.6357,0.5522,-0.4985,-39.490,-56.702,-15.137,135.961,39.974,-86.957
2600,-0.6729,0.6992,-0.6230,-38.086,-62.195,-17.456,135.286,40.496,-87.358
2610,-0.6997,0.7734,-0.7017,-18.616,-46.387,-13.977,134.879,40.853,-87.654
2620,-0.6978,0.7134,-0.6763,9.949,-22.278,-9.399,134.885,41.017,-87.775
2630,-0.6650,0.5488,-0.5498,31.433,-4.578,-6.470,135.209,41.089,-87.759
2640,-0.6460,0.3716,-0.4346,39.673,-1.343,-6.104,135.676,41.215,-87.715
2650,-0.6426,0.3467,-0.4116,27.832,-7.568,-4.395,135.972,41.391,-87.742
2660,-0.6489,0.4204,-0.4541,8.240,-12.634,-1.160,136.000,41.539,-87.847
2670,-0.6606,0.4868,-0.5210,-5.981,-13.123,1.953,135.857,41.633,-87.990
2680,-0.6704,0.5767,-0.5928,-12.268,-5.615,4.883,135.670,41.611,-88.088
2690,-0.6685,0.6357,-0.6514,-11.414,9.399,7.446,135.566,41.440,-88.072
2700,-0.6606,0.6138,-0.6401,-4.028,24.231,8.911,135.626,41.160,-87.929
2710,-0.6514,0.5181,-0.5728,2.563,29.846,7.812,135.807,40.886,-87.726
2720,-0.6436,0.4766,-0.5161,3.723,24.109,3.967,135.978,40.699,-87.545
2730,-0.6445,0.4727,-0.4858,-0.488,12.512,0.732,136.044,40.638,-87.435
2740,-0.6445,0.4946,-0.4971,-6.470,-0.610,-0.488,135.967,40.666,-87.435
2750,-0.6509,0.5830,-0.5703,-11.230,-9.521,-0.610,135.786,40.715,-87.517
2760,-0.6577,0.7222,-0.6943,-12.024,-7.568,2.014,135.593,40.682,-87.605
2770,-0.6499,0.8291,-0.7896,-7.324,6.165,6.226,135.500,40.485,-87.610
2780,-0.6284,0.8110,-0.7759,1.404,22.217,8.972,135.571,40.150,-87.490
2790,-0.5942,0.6772,-0.6489,9.705,27.649,6.958,135.769,39.831,-87.297
2800,-0.5776,0.4209,-0.4443,10.315,15.198,-1.465,135.978,39.765,-87.149
2810,-0.6016,0.2725,-0.3325,-0.732,-14.526,-12.390,136.005,40.100,-87.166
2820,-0.6304,0.3052,-0.3101,-20.691,-42.664,-20.325,135.670,40.699,-87.358
2830,-0.6704,0.3794,-0.3652,-32.776,-59.937,-22.705,135.110,41.391,-87.698
2840,-0.7207,0.5757,-0.5332,-32.837,-58.960,-18.799,134.517,41.951,-88.072
2851,-0.7402,0.7461,-0.6665,-20.203,-31.250,-7.690,134.138,42.166,-88.303
2860,-0.7285,0.7988,-0.7329,-0.183,6.897,5.676,134.127,41.995,-88.286
2870,-0.6738,0.7500,-0.6895,21.790,42.358,16.235,134.500,41.501,-88.033
2880,-0.6226,0.5552,-0.5713,34.851,62.073,19.287,135.126,40.902,-87.621
2890,-0.6011,0.3979,-0.4517,32.227,53.284,13.428,135.720,40.474,-87.248
2900,-0.6099,0.3271,-0.3901,13.184,24.231,4.578,136.011,40.369,-87.072
2910,-0.6265,0.3711,-0.3989,-10.803,-7.446,-2.991,135.890,40.529,-87.111
2920,-0.6504,0.4868,-0.4849,-27.527,-29.419,-8.545,135.483,40.825,-87.297
2930,-0.6768,0.6675,-0.6250,-30.151,-35.461,-9.766,135.011,41.100,-87.534
2940,-0.6846,0.7681,-0.7095,-18.494,-22.644,-6.042,134.703,41.221,-87.693
2950,-0.6777,0.7612,-0.7080,-1.221,-3.784,-1.160,134.654,41.177,-87.715
2960,-0.6484,0.6685,-0.6270,15.564,9.583,1.160,134.846,41.039,-87.638
2970,-0.6255,0.4956,-0.5117,21.118,11.597,0.427,135.137,40.963,-87.528
2980,-0.6240,0.4292,-0.4517,13.733,0.610,-2.991,135.308,41.017,-87.495
2990,-0.6260,0.3999,-0.4004,-0.183,-13.184,-5.676,135.258,41.221,-87.567
3000,-0.6489,0.3589,-0.3911,-10.315,-27.527,-8.911,135.066,41.572,-87.742
3010,-0.6748,0.4458,-0.4609,-17.029,-35.522,-10.193,134.747,41.940,-87.979
3020,-0.7075,0.5967,-0.5894,-15.320,-27.161,-5.981,134.462,42.155,-88.182
3030,-0.7173,0.7329,-0.6978,-6.470,-4.761,2.930,134.341,42.094,-88.253
3040,-0.7036,0.7729,-0.7236,7.812,21.973,11.597,134.473,41.776,-88.154
3050,-0.6577,0.6836,-0.6362,20.752,43.274,16.785,134.830,41.292,-87.896
3060,-0.6196,0.4829,-0.4902,25.635,45.715,14.160,135.286,40.880,-87.599
3070,-0.6060,0.3740,-0.4253,16.968,27.283,6.287,135.615,40.704,-87.402
3080,-0.6167,0.3931,-0.4219,-1.343,3.296,-0.427,135.637,40.748,-87.369
3090,-0.6372,0.4150,-0.4424,-15.442,-15.930,-4.517,135.428,40.952,-87.473
3100,-0.6572,0.4756,-0.5063,-20.630,-27.771,-7.141,135.115,41.221,-87.665
3110,-0.6797,0.6113,-0.6201,-16.479,-23.621,-4.761,134.841,41.385,-87.841
3120,-0.6943,0.7612,-0.7480,-6.470,-4.272,2.686,134.725,41.314,-87.907
3130,-0.6758,0.8076,-0.7793,7.629,20.691,10.803,134.857,40.990,-87.808
3140,-0.6367,0.7280,-0.6831,19.653,39.185,15.747,135.181,40.523,-87.589
3150,-0.6025,0.4922,-0.4712,23.804,38.696,13.489,135.549,40.166,-87.358
3160,-0.6011,0.2969,-0.3286,15.564,13.672,4.761,135.780,40.172,-87.275
3170,-0.6167,0.2827,-0.2974,-4.395,-18.799,-3.357,135.654,40.490,-87.418
3180,-0.6523,0.4126,-0.4033,-21.606,-42.542,-8.240,135.225,40.930,-87.731
3190,-0.6948,0.6914,-0.6396,-26.550,-44.128,-6.836,134.714,41.243,-88.077
3200,-0.7148,0.9019,-0.8052,-16.968,-16.235,2.136,134.401,41.232,-88.253
3210,-0.6919,0.9492,-0.8457,2.991,21.057,11.414,134.467,40.880,-88.154
3220,-0.6309,0.8643,-0.7471,26.062,51.270,16.541,134.901,40.287,-87.825
3230,-0.5937,0.5732,-0.5405,39.001,59.082,13.306,135.544,39.749,-87.402
3240,-0.5903,0.3960,-0.4170,31.738,36.743,4.272,136.055,39.518,-87.105
3250,-0.6016,0.3994,-0.3911,7.690,3.723,-4.578,136.159,39.600,-87.028
3260,-0.6221,0.4058,-0.4023,-13.428,-23.376,-11.719,135.950,39.924,-87.127
3270,-0.6465,0.4238,-0.4243,-25.757,-42.358,-17.395,135.544,40.419,-87.352
3280,-0.6650,0.4565,-0.4702,-26.672,-48.279,-18.799,135.115,40.941,-87.616
3290,-0.6987,0.5269,-0.5615,-18.677,-39.124,-14.832,134.797,41.331,-87.847
3300,-0.7085,0.6230,-0.6382,-4.028,-17.639,-6.714,134.698,41.473,-87.951
3310,-0.7017,0.6318,-0.6411,11.902,6.714,2.319,134.852,41.375,-87.907
3320,-0.6729,0.5679,-0.5659,23.132,24.658,9.277,135.176,41.122,-87.759
3330,-0.6392,0.4634,-0.4785,25.757,30.945,11.780,135.555,40.853,-87.583
3340,-0.6221,0.4316,-0.4663,18.188,23.560,9.888,135.835,40.655,-87.457
3351,-0.6211,0.4731,-0.5151,5.249,11.719,7.690,135.923,40.523,-87.424
3360,-0.6284,0.5552,-0.6045,-4.822,4.517,5.798,135.884,40.424,-87.435
3370,-0.6382,0.6401,-0.6914,-7.202,3.235,4.028,135.818,40.309,-87.446
3380,-0.6382,0.7109,-0.7402,-3.052,6.775,3.296,135.813,40.155,-87.413
3390,-0.6299,0.6572,-0.6943,5.188,9.888,2.502,135.912,40.001,-87.347
3400,-0.6265,0.5356,-0.5830,9.094,5.432,0.549,136.049,39.941,-87.303
3410,-0.6240,0.4453,-0.4858,4.395,-7.996,-3.540,136.082,40.056,-87.341
3420,-0.6274,0.4229,-0.4375,-4.395,-23.987,-6.714,135.939,40.331,-87.495
3430,-0.6421,0.4653,-0.4780,-13.916,-36.621,-7.141,135.626,40.677,-87.764
3440,-0.6768,0.7559,-0.7002,-16.174,-19.897,2.747,135.302,40.726,-87.973
3450,-0.6597,0.7759,-0.6958,-6.287,7.568,8.423,135.203,40.529,-87.979
3460,-0.6387,0.5928,-0.5571,6.714,25.818,9.583,135.346,40.259,-87.830
3470,-0.6279,0.4365,-0.4199,11.230,24.353,3.906,135.560,40.117,-87.643
3480,-0.6338,0.2720,-0.2778,5.127,8.179,-3.052,135.676,40.265,-87.539
3490,-0.6499,0.1968,-0.2544,-7.874,-17.761,-9.155,135.615,40.688,-87.616
3500,-0.6812,0.4365,-0.4565,-22.766,-36.316,-12.390,135.258,41.094,-87.836
3510,-0.7231,0.8091,-0.7524,-29.419,-25.635,-4.150,134.813,41.226,-88.033
3520,-0.7207,1.0396,-0.9214,-20.874,11.902,10.437,134.615,41.067,-88.022
3530,-0.6489,1.0332,-0.9004,-0.610,51.392,20.874,134.797,40.556,-87.731
3540,-0.5654,0.7544,-0.6494,23.621,71.960,21.179,135.346,39.902,-87.253
3550,-0.5601,0.3926,-0.4189,33.569,56.396,9.705,135.950,39.430,-86.825
3560,-0.5791,0.2715,-0.2915,17.578,15.808,-3.601,136.241,39.342,-86.649
3570,-0.6123,0.2598,-0.2617,-6.470,-26.001,-14.099,136.110,39.628,-86.754
3580,-0.6431,0.3022,-0.3188,-23.560,-58.472,-21.606,135.670,40.199,-87.078
3590,-0.6895,0.5229,-0.5405,-31.067,-69.763,-21.179,135.077,40.847,-87.517
3600,-0.7349,0.7983,-0.7549,-27.344,-43.823,-8.972,134.588,41.221,-87.841
3610,-0.7168,0.8501,-0.7910,-7.324,0.671,5.981,134.484,41.171,-87.891
3620,-0.6611,0.7690,-0.7114,20.264,36.377,13.855,134.830,40.820,-87.676
3630,-0.6108,0.5664,-0.5386,39.063,53.040,15.137,135.450,40.336,-87.319
3640,-0.6060,0.4189,-0.4473,39.429,44.434,10.376,136.049,39.946,-87.006
3650,-0.6089,0.4453,-0.4517,21.118,21.606,5.554,136.351,39.754,-86.863
3660,-0.6221,0.5132,-0.5112,0.610,2.258,2.136,136.357,39.721,-86.863
3670,-0.6284,0.5947,-0.6060,-10.193,-7.996,-0.977,136.214,39.787,-86.924
3680,-0.6367,0.6206,-0.6631,-11.597,-8.789,-3.784,136.071,39.875,-86.968
3690,-0.6343,0.5947,-0.6523,-6.165,-5.005,-5.554,136.016,39.952,-86.962
3700,-0.6323,0.5239,-0.6035,1.160,-4.028,-7.019,136.044,40.029,-86.935
3710,-0.6357,0.4556,-0.5474,1.404,-8.118,-7.690,136.060,40.139,-86.935
3720,-0.6431,0.4819,-0.5522,-3.479,-13.855,-6.958,135.983,40.287,-86.995
3730,-0.6509,0.5830,-0.5776,-10.498,-14.526,-3.601,135.813,40.419,-87.094
3740,-0.6489,0.6235,-0.5596,-11.841,-10.132,0.916,135.632,40.485,-87.193
3750,-0.6479,0.5796,-0.5195,-6.775,-5.432,3.723,135.511,40.496,-87.281
3760,-0.6440,0.5244,-0.4888,-2.319,-2.014,3.784,135.450,40.485,-87.336
3770,-0.6504,0.4976,-0.4956,2.808,-1.221,1.709,135.461,40.485,-87.363
3780,-0.6553,0.5449,-0.5562,5.920,-1.526,0.488,135.505,40.490,-87.380
3790,-0.6631,0.6343,-0.6392,6.348,2.747,2.258,135.571,40.457,-87.374
3800,-0.6636,0.6997,-0.7227,4.761,12.512,5.676,135.659,40.325,-87.314
3810,-0.6362,0.7290,-0.6973,-2.991,25.452,8.484,135.731,40.084,-87.160
3820,-0.5981,0.5444,-0.5039,-10.803,27.954,5.615,135.753,39.842,-86.957
3830,-0.6040,0.3413,-0.3286,-18.250,7.568,-4.272,135.643,39.820,-86.847
3840,-0.6313,0.2539,-0.2378,-28.076,-22.278,-13.672,135.313,40.073,-86.924
3851,-0.6855,0.4497,-0.4136,-33.752,-45.166,-17.700,134.813,40.523,-87.177
3860,-0.7266,0.7842,-0.6406,-29.419,-38.269,-11.292,134.352,40.869,-87.429
3870,-0.7090,0.8765,-0.7280,-10.803,-6.836,0.427,134.203,40.913,-87.495
3880,-0.6499,0.7988,-0.6895,13.245,24.109,9.094,134.429,40.682,-87.352
3890,-0.6069,0.6587,-0.5835,30.212,45.105,12.512,134.934,40.276,-87.045
3900,-0.5713,0.4722,-0.4443,32.471,46.692,9.705,135.478,39.880,-86.699
3914,-0.5923,0.3081,-0.3477,21.729,23.926,2.441,135.824,39.688,-86.501
3920,-0.6206,0.3057,-0.3369,4.822,-7.874,-4.761,135.851,39.781,-86.528
3930,-0.6528,0.4243,-0.4570,-7.751,-28.931,-8.362,135.659,40.045,-86.715
3940,-0.6992,0.6787,-0.6738,-12.695,-27.100,-5.127,135.401,40.276,-86.913
3950,-0.6938,0.8486,-0.8140,-6.531,-0.916,3.357,135.313,40.259,-86.951
3960,-0.6572,0.8579,-0.8218,7.568,29.480,9.644,135.505,39.979,-86.770
3970,-0.5981,0.7124,-0.6968,22.156,49.133,10.620,135.950,39.556,-86.418
3980,-0.5786,0.4619,-0.5293,25.269,45.227,4.395,136.439,39.199,-86.056
3990,-0.5879,0.3687,-0.4414,12.329,18.860,-3.967,136.692,39.089,-85.847
4000,-0.6147,0.3975,-0.4385,-8.911,-10.559,-9.888,136.599,39.238,-85.847
4010,-0.6479,0.4922,-0.5156,-24.597,-31.494,-13.977,136.263,39.562,-85.995
4020,-0.6675,0.6406,-0.6426,-29.907,-36.194,-13.794,135.829,39.880,-86.193
4030,-0.6621,0.6826,-0.6846,-24.048,-22.827,-9.277,135.505,40.056,-86.314
4040,-0.6416,0.6084,-0.6646,-6.226,-6.409,-5.859,135.461,40.095,-86.320
4050,-0.6284,0.5596,-0.6396,7.568,6.531,-4.028,135.632,40.040,-86.221
4060,-0.6187,0.5010,-0.5659,10.925,13.123,-2.563,135.862,39.957,-86.078
4070,-0.6206,0.4180,-0.4580,6.165,7.202,-1.709,135.994,39.968,-85.995
4080,-0.6343,0.3618,-0.4111,-1.709,-8.972,-2.380,135.967,40.139,-86.056
4090,-0.6460,0.4512,-0.4741,-11.475,-20.203,-1.343,135.747,40.336,-86.226
4100,-0.6572,0.6099,-0.5991,-15.930,-18.250,2.258,135.456,40.424,-86.413
4110,-0.6523,0.6792,-0.6421,-9.705,-4.639,7.507,135.269,40.353,-86.528
4120,-0.6455,0.6499,-0.6226,3.174,8.179,9.766,135.275,40.177,-86.545
4130,-0.6367,0.6699,-0.6196,13.550,15.503,10.620,135.412,39.941,-86.495
4140,-0.6270,0.5591,-0.5127,17.395,16.846,9.460,135.593,39.754,-86.429
4150,-0.6304,0.4316,-0.4297,15.381,3.723,4.089,135.736,39.760,-86.435
4160,-0.6372,0.3960,-0.3721,4.883,-13.184,-0.549,135.687,39.957,-86.550
4170,-0.6528,0.4370,-0.4521,-4.822,-26.794,-3.479,135.511,40.232,-86.765
4180,-0.6709,0.6890,-0.6689,-10.864,-26.123,-1.038,135.242,40.369,-86.990
4190,-0.6655,0.8916,-0.8042,-7.935,-3.113,6.836,135.071,40.232,-87.083
4200,-0.6353,0.8989,-0.8018,5.615,24.536,12.756,135.165,39.847,-86.979
4210,-0.5947,0.7896,-0.6865,19.958,41.809,13.611,135.483,39.353,-86.715
4220,-0.5752,0.5225,-0.4600,25.208,39.001,7.202,135.873,39.034,-86.429
4230,-0.6011,0.2505,-0.2651,17.761,8.911,-4.333,136.132,39.194,-86.309
4240,-0.6274,0.1548,-0.1758,-3.174,-31.921,-15.381,136.033,39.836,-86.451
4250,-0.6543,0.1191,-0.1787,-22.461,-65.857,-22.766,135.670,40.781,-86.836
4260,-0.7007,0.3970,-0.4604,-30.701,-79.712,-21.912,135.060,41.578,-87.363
4270,-0.7539,0.7437,-0.7163,-26.917,-51.208,-7.446,134.511,41.935,-87.775
4280,-0.7666,0.9414,-0.8867,-9.216,3.296,13.123,134.346,41.710,-87.869
4290,-0.7026,1.0566,-0.9307,16.541,62.378,31.006,134.720,41.050,-87.561
4300,-0.5986,0.9561,-0.8018,43.762,108.582,38.391,135.593,40.012,-86.896
4310,-0.5420,0.6875,-0.5781,60.547,115.234,31.372,136.686,38.969,-86.138
4320,-0.5356,0.3887,-0.3848,49.988,81.604,18.066,137.532,38.254,-85.583
4330,-0.5693,0.2393,-0.2832,18.005,28.564,1.831,137.856,38.029,-85.358
4340,-0.5942,0.2461,-0.3027,-17.761,-22.522,-15.503,137.648,38.298,-85.402
4351,-0.6128,0.3267,-0.4243,-40.344,-60.181,-29.846,137.098,38.947,-85.638
4360,-0.6787,0.5669,-0.6880,-45.654,-72.571,-31.860,136.434,39.694,-85.974
4370,-0.7222,0.8228,-0.8745,-31.006,-48.401,-19.470,135.961,40.177,-86.226
4380,-0.7090,0.8247,-0.8618,1.648,-4.700,-4.517,135.978,40.243,-86.226
4390,-0.6606,0.7183,-0.7388,28.381,27.466,4.578,136.395,40.018,-86.017
4400,-0.5879,0.5239,-0.5288,39.185,40.283,9.216,136.967,39.661,-85.743
4410,-0.5801,0.3613,-0.4160,32.532,27.039,7.568,137.395,39.408,-85.573
4420,-0.5776,0.3672,-0.4146,11.353,1.221,4.700,137.488,39.370,-85.605
4430,-0.5991,0.3960,-0.4673,-8.484,-18.433,2.747,137.285,39.485,-85.798
4440,-0.6274,0.5220,-0.6343,-19.592,-25.208,0.793,136.945,39.666,-86.023
4450,-0.6382,0.6782,-0.7710,-20.569,-14.404,1.953,136.642,39.760,-86.171
4460,-0.6382,0.7451,-0.8062,-10.498,5.920,4.883,136.544,39.683,-86.166
4470,-0.6201,0.6475,-0.6938,0.122,20.508,5.981,136.626,39.490,-86.039
4480,-0.6128,0.5122,-0.5371,3.357,19.043,3.662,136.747,39.331,-85.902
4490,-0.6079,0.4341,-0.4062,-3.723,3.662,-0.244,136.730,39.304,-85.869
4500,-0.6206,0.4189,-0.3657,-12.756,-18.311,-3.235,136.522,39.457,-86.001
4510,-0.6367,0.5000,-0.4453,-19.592,-36.072,-4.822,136.148,39.754,-86.276
4520,-0.6445,0.6646,-0.6182,-19.348,-37.537,-2.747,135.753,40.045,-86.589
4530,-0.6646,0.8301,-0.7827,-10.254,-17.517,4.150,135.522,40.139,-86.786
4540,-0.6489,0.8091,-0.7871,4.822,13.672,10.132,135.593,39.974,-86.754
4550,-0.6206,0.6235,-0.6060,18.433,31.921,10.925,135.901,39.666,-86.567
4560,-0.6216,0.3525,-0.3857,20.935,24.597,4.333,136.225,39.463,-86.385
4570,-0.6299,0.2300,-0.2725,8.423,-2.258,-3.845,136.318,39.501,-86.369
4580,-0.6406,0.3232,-0.3364,-12.024,-29.358,-7.935,136.077,39.771,-86.556
4590,-0.6646,0.6626,-0.6436,-25.391,-36.194,-5.737,135.648,40.073,-86.830
4600,-0.6523,0.8438,-0.7607,-24.902,-12.085,2.258,135.319,40.144,-86.962
4610,-0.6299,0.7905,-0.7187,-8.667,14.160,7.568,135.269,39.990,-86.902
4620,-0.5942,0.7417,-0.6733,9.155,29.236,9.399,135.478,39.716,-86.721
4630,-0.5957,0.6401,-0.6055,18.921,36.255,9.033,135.824,39.391,-86.473
4640,-0.6060,0.5869,-0.5278,15.259,27.588,5.493,136.099,39.155,-86.276
4650,-0.6191,0.5342,-0.4370,7.751,7.690,-0.183,136.225,39.100,-86.204
4660,-0.6255,0.3750,-0.3423,0.671,-12.878,-6.531,136.198,39.238,-86.259
4670,-0.6304,0.3062,-0.3350,-9.644,-32.898,-11.780,135.983,39.562,-86.440
4680,-0.6538,0.3857,-0.4482,-18.311,-43.518,-12.878,135.626,39.963,-86.715
4690,-0.6743,0.6270,-0.6655,-17.517,-32.959,-7.202,135.302,40.248,-86.951
4700,-0.6807,0.8184,-0.7852,-9.094,-0.671,3.906,135.181,40.226,-86.990
4710,-0.6543,0.8208,-0.7603,8.545,33.325,12.512,135.390,39.902,-86.797
4720,-0.6104,0.7437,-0.6582,24.353,52.979,15.564,135.851,39.413,-86.457
4730,-0.6016,0.5112,-0.5049,30.396,51.697,11.475,136.384,38.963,-86.100
4740,-0.6035,0.3657,-0.4414,21.301,28.320,1.587,136.747,38.749,-85.864
4750,-0.6099,0.3608,-0.4321,0.732,0.183,-7.141,136.796,38.793,-85.798
4760,-0.6138,0.3740,-0.4600,-14.404,-21.423,-13.550,136.615,39.045,-85.858
4770,-0.6265,0.4443,-0.5522,-20.569,-33.630,-16.052,136.318,39.397,-86.006
4780,-0.6450,0.5435,-0.6201,-19.653,-29.541,-11.169,136.016,39.688,-86.166
4790,-0.6582,0.5811,-0.6377,-11.536,-14.954,-2.380,135.851,39.787,-86.276
4800,-0.6440,0.6592,-0.6943,-0.488,0.671,5.859,135.818,39.683,-86.325
4810,-0.6328,0.7764,-0.7612,7.935,18.677,14.160,135.906,39.359,-86.287
4821,-0.6143,0.7627,-0.7397,14.038,35.583,19.836,136.115,38.875,-86.149
4831,-0.5742,0.7026,-0.6714,15.747,40.161,18.433,136.362,38.381,-85.963
4840,-0.5532,0.6016,-0.5972,11.108,31.799,11.841,136.560,38.018,-85.792
4851,-0.5679,0.4482,-0.4932,1.404,15.076,3.113,136.648,37.914,-85.693
4860,-0.5908,0.3789,-0.4385,-11.230,-8.545,-7.751,136.560,38.106,-85.693
4871,-0.6162,0.3872,-0.4263,-21.912,-30.762,-16.235,136.285,38.524,-85.814
4881,-0.6494,0.4043,-0.4307,-23.987,-44.617,-19.104,135.917,39.067,-86.028
4890,-0.6704,0.4702,-0.4980,-19.409,-48.218,-16.357,135.560,39.578,-86.309
4900,-0.6782,0.5752,-0.5752,-10.193,-36.743,-8.240,135.291,39.897,-86.567
4911,-0.6738,0.6157,-0.6001,2.197,-15.320,2.258,135.198,39.968,-86.732
4921,-0.6450,0.6460,-0.6177,11.902,3.540,11.292,135.258,39.825,-86.803
4931,-0.6196,0.7891,-0.7295,18.982,20.691,18.494,135.428,39.452,-86.781
4941,-0.5972,0.8804,-0.7896,20.264,41.260,24.841,135.687,38.859,-86.638
4951,-0.5654,0.8496,-0.7412,20.691,53.467,25.085,136.000,38.188,-86.391
4961,-0.5488,0.6616,-0.5737,19.104,46.997,16.296,136.302,37.678,-86.122
4971,-0.5698,0.3437,-0.3809,9.705,19.836,0.366,136.516,37.639,-85.952
4981,-0.6089,0.2246,-0.3027,-11.597,-19.592,-17.029,136.461,38.101,-85.968
4991,-0.6411,0.2866,-0.3130,-35.889,-52.979,-29.175,136.000,38.864,-86.160
5001,-0.6758,0.4028,-0.3853,-44.800,-71.472,-32.654,135.324,39.716,-86.495
5011,-0.7124,0.5771,-0.5234,-39.185,-69.702,-26.062,134.654,40.413,-86.896
5021,-0.7251,0.7119,-0.6274,-21.912,-43.518,-11.658,134.214,40.770,-87.193
5031,-0.7026,0.7007,-0.6357,0.000,-5.798,4.089,134.132,40.737,-87.286
5041,-0.6602,0.6309,-0.5835,20.020,24.292,14.893,134.379,40.430,-87.193
5051,-0.6245,0.5728,-0.5737,32.043,42.358,20.508,134.835,39.968,-86.984
5061,-0.6025,0.6172,-0.6421,30.579,51.086,22.400,135.319,39.391,-86.715
5071,-0.5786,0.6929,-0.6987,20.386,55.115,23.010,135.703,38.754,-86.424
5081,-0.5620,0.7095,-0.7075,9.583,54.260,20.508,135.978,38.134,-86.127
5091,-0.5410,0.6553,-0.6846,-0.305,47.180,12.390,136.159,37.628,-85.825
5101,-0.5347,0.5649,-0.6631,-9.399,29.663,-2.441,136.274,37.375,-85.545
5111,-0.5464,0.5244,-0.6421,-19.287,2.991,-19.287,136.247,37.447,-85.342
5121,-0.5786,0.4663,-0.5786,-28.320,-25.452,-33.752,136.066,37.864,-85.259
5131,-0.6123,0.4043,-0.5269,-34.729,-52.124,-42.908,135.747,38.578,-85.325
5141,-0.6499,0.4399,-0.5161,-41.809,-70.618,-42.786,135.225,39.424,-85.562
5151,-0.6704,0.5728,-0.5493,-45.105,-74.036,-35.156,134.544,40.199,-85.913
5161,-0.6816,0.6973,-0.5728,-39.307,-62.012,-23.010,133.868,40.759,-86.281
5171,-0.6777,0.6963,-0.5601,-19.958,-40.771,-11.536,133.434,41.089,-86.561
5181,-0.6523,0.6152,-0.5039,0.244,-18.677,-2.563,133.297,41.215,-86.721
5191,-0.6426,0.5127,-0.4541,17.456,-2.930,0.671,133.429,41.248,-86.754
5201,-0.6377,0.4565,-0.4312,24.414,2.808,-1.404,133.693,41.281,-86.715
5211,-0.6509,0.4951,-0.4561,22.705,-1.404,-6.531,133.940,41.369,-86.666
5221,-0.6636,0.5986,-0.5078,17.944,-7.629,-10.986,134.099,41.484,-86.638
5231,-0.6807,0.7148,-0.5742,14.343,-10.254,-13.794,134.209,41.605,-86.611
5241,-0.6797,0.7646,-0.6084,16.296,-8.240,-13.611,134.346,41.693,-86.561
5251,-0.6636,0.7212,-0.5845,22.583,-5.920,-11.719,134.550,41.754,-86.506
5261,-0.6567,0.5845,-0.5005,28.259,-9.399,-9.705,134.791,41.874,-86.506
5271,-0.6562,0.4507,-0.4258,28.748,-19.775,-10.010,135.000,42.133,-86.600
5281,-0.6733,0.4097,-0.3989,17.822,-32.288,-9.888,135.027,42.501,-86.814
5291,-0.7026,0.4004,-0.4131,3.845,-39.063,-7.629,134.868,42.913,-87.116
5301,-0.7173,0.4502,-0.4590,-11.414,-34.851,-3.845,134.561,43.237,-87.418
5311,-0.7207,0.5571,-0.5190,-21.362,-20.325,1.160,134.193,43.369,-87.627
5321,-0.7158,0.6919,-0.5874,-22.278,0.610,6.042,133.896,43.270,-87.676
5331,-0.7065,0.7104,-0.5869,-13.367,21.545,9.277,133.808,43.000,-87.556
5341,-0.6743,0.6445,-0.5361,0.549,32.959,8.667,133.934,42.671,-87.308
5351,-0.6401,0.5249,-0.4556,10.498,29.480,4.578,134.176,42.435,-87.067
5361,-0.6416,0.4224,-0.4067,12.024,13.550,-0.916,134.385,42.396,-86.924
5371,-0.6519,0.4121,-0.4048,1.953,-4.700,-4.395,134.401,42.523,-86.929
5381,-0.6665,0.4390,-0.4419,-11.108,-18.372,-5.371,134.214,42.731,-87.056
5391,-0.7065,0.6270,-0.5869,-19.897,-22.705,-2.319,133.874,42.874,-87.253
5401,-0.7373,0.8394,-0.7251,-19.165,-6.958,3.784,133.583,42.803,-87.358
5411,-0.7168,0.8472,-0.7271,-6.836,18.250,8.911,133.550,42.512,-87.264
5421,-0.6689,0.7725,-0.6602,8.850,33.630,10.376,133.764,42.116,-87.028
5431,-0.6396,0.6509,-0.6016,21.362,37.231,6.348,134.165,41.754,-86.726
5441,-0.6323,0.5186,-0.5391,22.339,30.579,-0.977,134.610,41.534,-86.424
5451,-0.6333,0.4209,-0.4780,8.240,14.954,-8.362,134.874,41.523,-86.204
5461,-0.6323,0.3125,-0.3955,-11.963,-4.211,-14.282,134.885,41.748,-86.105
5471,-0.6426,0.2056,-0.3140,-29.175,-23.804,-18.066,134.681,42.226,-86.160
5481,-0.6631,0.2310,-0.2974,-41.138,-38.757,-18.250,134.214,42.803,-86.364
5491,-0.7080,0.4121,-0.4175,-40.771,-40.100,-11.963,133.638,43.242,-86.638
5501,-0.7432,0.6675,-0.6045,-27.466,-20.630,1.038,133.204,43.336,-86.852
5511,-0.7368,0.7920,-0.6973,-3.906,13.062,15.259,133.138,43.055,-86.869
5521,-0.6885,0.8184,-0.7207,22.400,44.250,25.269,133.478,42.468,-86.660
5531,-0.6304,0.7358,-0.6543,42.664,64.575,26.855,134.143,41.732,-86.276
5541,-0.6021,0.5596,-0.5693,49.194,65.186,21.118,134.923,41.089,-85.847
5551,-0.5957,0.4653,-0.5283,35.950,46.387,11.658,135.533,40.671,-85.518
5561,-0.6089,0.4404,-0.5142,12.756,20.142,1.465,135.807,40.534,-85.347
5571,-0.6304,0.4238,-0.5229,-7.935,-3.906,-7.202,135.802,40.638,-85.314
5581,-0.6479,0.4810,-0.5723,-23.315,-20.508,-11.841,135.560,40.869,-85.391
5591,-0.6670,0.6255,-0.6484,-29.297,-24.780,-11.047,135.198,41.078,-85.518
5601,-0.6685,0.7241,-0.6802,-21.179,-16.907,-7.080,134.907,41.171,-85.611
5611,-0.6567,0.7046,-0.6528,-7.141,-6.348,-2.258,134.791,41.166,-85.649
5621,-0.6328,0.6387,-0.5732,4.944,-0.305,-0.305,134.808,41.122,-85.649
5631,-0.6230,0.5322,-0.5088,11.230,-2.869,-2.502,134.907,41.149,-85.649
5641,-0.6343,0.5039,-0.4883,9.277,-13.184,-5.127,134.940,41.287,-85.726
5651,-0.6509,0.4897,-0.4800,3.845,-24.475,-7.690,134.874,41.534,-85.886
5661,-0.6714,0.4565,-0.4668,-0.854,-37.109,-10.437,134.703,41.913,-86.138
5671,-0.6816,0.5405,-0.5220,-2.991,-47.729,-12.085,134.440,42.330,-86.479
5681,-0.6992,0.6489,-0.6030,-0.793,-49.011,-10.498,134.171,42.704,-86.852
5691,-0.7031,0.7021,-0.6431,5.737,-43.213,-5.127,133.956,42.979,-87.226
5701,-0.6855,0.7187,-0.6343,12.085,-34.851,0.000,133.824,43.143,-87.572
5711,-0.6582,0.6099,-0.5430,17.761,-28.870,1.526,133.775,43.286,-87.869
5721,-0.6548,0.4458,-0.4219,16.785,-31.860,0.549,133.720,43.539,-88.193
5731,-0.6738,0.3779,-0.3477,7.446,-40.833,-1.404,133.511,43.918,-88.583
5741,-0.7075,0.3545,-0.3242,-3.357,-46.204,-2.075,133.160,44.368,-89.028
5751,-0.7368,0.3735,-0.3330,-11.475,-42.969,-0.366,132.731,44.775,-89.467
5761,-0.7495,0.4473,-0.3784,-14.160,-30.151,2.930,132.330,45.027,-89.802
5771,-0.7661,0.5762,-0.4741,-8.545,-9.705,7.385,132.100,45.044,-89.978
5781,-0.7505,0.6421,-0.5386,1.709,13.977,13.672,132.105,44.819,-89.962
5791,-0.7241,0.6509,-0.5566,12.146,31.738,18.555,132.319,44.429,-89.802
5801,-0.6836,0.6230,-0.5337,18.066,37.598,18.311,132.632,43.995,-89.588
5811,-0.6597,0.5239,-0.4883,17.883,27.954,12.512,132.924,43.704,-89.418
5821,-0.6621,0.5107,-0.4751,9.338,8.118,6.042,133.033,43.605,-89.390
5831,-0.6763,0.5479,-0.4805,-5.188,-7.996,2.075,132.896,43.638,-89.495
5841,-0.6875,0.5898,-0.5073,-14.771,-17.517,-0.427,132.610,43.737,-89.665
5851,-0.6914,0.6812,-0.5708,-18.860,-19.897,-1.099,132.264,43.819,-89.857
5861,-0.6865,0.7397,-0.6030,-14.404,-13.306,-1.587,132.012,43.841,-89.978
5871,-0.6890,0.6831,-0.5854,-3.418,-2.991,-2.380,131.957,43.813,-89.989
5881,-0.6851,0.6353,-0.5479,4.150,4.089,-3.113,132.034,43.764,-89.918
5891,-0.6816,0.5972,-0.5176,8.240,7.812,-4.822,132.187,43.715,-89.791
5901,-0.6782,0.5400,-0.4775,8.179,7.629,-5.981,132.358,43.704,-89.659
5915,-0.6836,0.4478,-0.4131,4.395,2.991,-6.775,132.468,43.781,-89.566
5921,-0.6924,0.3652,-0.3594,-0.549,-3.235,-7.385,132.506,43.951,-89.528
5931,-0.7041,0.3501,-0.3618,-6.165,-5.432,-6.531,132.484,44.143,-89.522
5941,-0.7168,0.3931,-0.3984,-9.155,-1.709,-3.052,132.429,44.253,-89.511
5951,-0.7114,0.4766,-0.4668,-8.240,6.042,1.770,132.402,44.225,-89.467
5961,-0.7095,0.5625,-0.5264,-3.052,14.343,5.737,132.440,44.072,-89.374
5971,-0.6948,0.6270,-0.5576,4.395,20.264,7.874,132.567,43.835,-89.242
5981,-0.6821,0.6538,-0.5737,11.658,20.874,7.019,132.770,43.588,-89.094
5991,-0.6699,0.6406,-0.5723,16.235,15.137,4.333,133.000,43.396,-88.978
6001,-0.6743,0.6157,-0.5625,16.785,4.822,0.122,133.193,43.319,-88.934
6011,-0.6802,0.5864,-0.5430,13.611,-6.836,-4.700,133.308,43.374,-88.956
6021,-0.6909,0.5645,-0.5220,9.277,-16.663,-8.911,133.336,43.533,-89.039
6031,-0.7002,0.5273,-0.4976,5.127,-22.522,-10.681,133.303,43.770,-89.165
6041,-0.7075,0.4946,-0.4805,1.587,-23.865,-10.376,133.231,44.028,-89.308
6051,-0.7134,0.4771,-0.4604,-0.854,-19.958,-8.484,133.143,44.253,-89.429
6061,-0.7183,0.4678,-0.4409,-1.038,-12.207,-5.920,133.088,44.418,-89.495
6071,-0.7109,0.4487,-0.4146,0.305,-3.357,-2.625,133.083,44.511,-89.506
6081,-0.6860,0.4175,-0.3872,1.587,4.211,0.916,133.121,44.533,-89.467
6091,-0.6938,0.4766,-0.4097,1.892,10.193,4.944,133.154,44.462,-89.412
6101,-0.7051,0.5400,-0.4487,2.502,17.700,9.583,133.204,44.280,-89.324
6111,-0.6968,0.5937,-0.4868,4.395,24.902,12.695,133.303,44.000,-89.193
6121,-0.6865,0.6470,-0.5327,5.615,29.297,11.963,133.445,43.665,-89.011
6131,-0.6826,0.6992,-0.5801,6.470,30.334,9.216,133.621,43.325,-88.792
6141,-0.6738,0.7500,-0.6411,6.042,28.748,6.409,133.802,42.995,-88.566
6151,-0.6592,0.8418,-0.7344,3.357,27.222,3.418,133.967,42.660,-88.330
6161,-0.6475,0.9043,-0.7993,0.366,27.649,-0.366,134.127,42.325,-88.055
6171,-0.6299,0.8413,-0.7466,-1.770,25.940,-5.249,134.286,42.056,-87.753
6181,-0.6255,0.6499,-0.6025,-5.005,15.381,-11.230,134.390,41.957,-87.501
6191,-0.6362,0.5073,-0.4873,-11.963,-4.700,-18.494,134.352,42.122,-87.374
6201,-0.6514,0.4448,-0.4248,-19.165,-25.757,-23.926,134.143,42.517,-87.396
6211,-0.6846,0.4204,-0.4023,-22.339,-43.213,-25.391,133.797,43.066,-87.578
6221,-0.7109,0.3931,-0.3823,-19.714,-52.673,-23.193,133.401,43.687,-87.880
6231,-0.7344,0.3477,-0.3735,-13.184,-50.781,-18.677,133.077,44.280,-88.209
6241,-0.7515,0.3237,-0.3921,-4.028,-39.001,-13.428,132.929,44.758,-88.478
6251,-0.7559,0.3350,-0.4268,5.066,-21.912,-7.751,132.962,45.060,-88.632
6261,-0.7397,0.3828,-0.4717,11.536,-4.639,-1.587,133.132,45.159,-88.665
6271,-0.7197,0.4502,-0.5151,16.479,7.996,3.357,133.385,45.093,-88.616
6281,-0.7036,0.5078,-0.5425,18.616,12.817,5.981,133.660,44.945,-88.539
6291,-0.6914,0.5356,-0.5488,18.555,9.949,7.263,133.885,44.797,-88.511
6301,-0.6865,0.5386,-0.5410,16.479,1.892,7.324,134.022,44.703,-88.561
6311,-0.6851,0.5435,-0.5273,14.893,-7.812,6.531,134.072,44.687,-88.704
6321,-0.6924,0.5352,-0.5425,14.526,-15.320,5.737,134.083,44.725,-88.918
6331,-0.7061,0.5562,-0.5742,11.719,-18.188,6.165,134.044,44.775,-89.160
6341,-0.7148,0.5825,-0.5913,7.446,-14.954,7.629,133.978,44.780,-89.385
6351,-0.7075,0.5859,-0.5796,3.967,-8.362,8.911,133.901,44.736,-89.555
6361,-0.6895,0.5933,-0.5396,0.977,-2.380,8.911,133.819,44.648,-89.670
6371,-0.6792,0.5776,-0.4893,-0.854,0.732,7.935,133.726,44.561,-89.736
6381,-0.6797,0.5566,-0.4458,-0.671,0.854,7.080,133.627,44.495,-89.797
6391,-0.6851,0.5366,-0.4229,0.427,-0.977,6.531,133.528,44.456,-89.874
6401,-0.7021,0.5430,-0.4233,1.892,-2.380,6.470,133.429,44.440,-89.956
6411,-0.7183,0.5542,-0.4414,2.808,-0.916,7.263,133.352,44.401,-90.038
6421,-0.7280,0.5928,-0.4868,3.357,3.357,7.446,133.319,44.319,-90.077
6431,-0.7319,0.6250,-0.5347,3.967,9.827,6.348,133.358,44.182,-90.038
6441,-0.7202,0.6279,-0.5366,2.686,15.381,5.371,133.429,44.006,-89.934
6451,-0.6885,0.5669,-0.4634,0.000,16.418,4.089,133.473,43.857,-89.802
6461,-0.6641,0.4629,-0.3799,-3.052,9.155,1.831,133.456,43.824,-89.731
6471,-0.6821,0.4487,-0.3618,-6.897,-1.038,-0.854,133.341,43.896,-89.731
6481,-0.7017,0.4766,-0.3784,-9.521,-5.493,-0.488,133.160,43.989,-89.786
6491,-0.7129,0.5005,-0.4014,-8.423,-3.662,2.136,132.995,44.039,-89.841
6501,-0.7402,0.5566,-0.4873,-4.150,4.517,4.456,132.940,43.984,-89.835
6511,-0.7476,0.6260,-0.5923,0.854,19.714,5.127,133.055,43.786,-89.687
6521,-0.7197,0.6523,-0.6260,2.380,33.813,5.249,133.286,43.467,-89.390
6531,-0.6787,0.6274,-0.5972,2.502,38.757,3.052,133.561,43.127,-89.033
6541,-0.6597,0.5967,-0.5747,0.305,33.081,-1.526,133.797,42.863,-88.687
6551,-0.6528,0.5708,-0.5576,-5.249,20.813,-6.042,133.929,42.731,-88.429
6561,-0.6577,0.5400,-0.5464,-10.437,7.324,-9.216,133.945,42.726,-88.270
6571,-0.6533,0.5166,-0.5630,-12.939,-2.136,-11.292,133.912,42.797,-88.182
6581,-0.6553,0.5166,-0.5854,-12.085,-4.944,-11.536,133.879,42.885,-88.121
6591,-0.6685,0.5366,-0.6113,-8.850,-3.357,-9.216,133.874,42.940,-88.066
6601,-0.6738,0.5156,-0.6011,-3.479,0.061,-5.920,133.934,42.957,-88.011
6611,-0.6787,0.4600,-0.5601,1.465,2.747,-2.991,134.055,42.962,-87.957
6621,-0.6860,0.4248,-0.5088,2.075,3.113,-0.793,134.160,42.973,-87.918
6631,-0.6968,0.3740,-0.4438,1.038,0.366,0.916,134.225,43.039,-87.924
6641,-0.7017,0.3335,-0.3994,0.183,-4.639,2.625,134.236,43.154,-87.995
6651,-0.7012,0.4043,-0.4458,-0.977,-6.897,4.883,134.187,43.231,-88.110
6661,-0.7065,0.5493,-0.5459,0.061,-3.052,7.446,134.121,43.193,-88.209
6671,-0.7026,0.6890,-0.6318,4.333,5.432,11.108,134.116,43.011,-88.264
6681,-0.6855,0.7251,-0.6299,10.925,14.099,13.062,134.203,42.748,-88.248
6691,-0.6606,0.6074,-0.5396,16.907,15.137,12.085,134.363,42.523,-88.215
6701,-0.6528,0.4985,-0.4336,15.930,4.639,8.728,134.462,42.446,-88.253
6711,-0.6821,0.4458,-0.3394,7.812,-10.681,5.432,134.368,42.567,-88.407
6721,-0.7119,0.4131,-0.2930,1.648,-26.184,4.272,134.094,42.836,-88.704
6731,-0.7417,0.4097,-0.2749,-0.366,-34.302,6.042,133.726,43.165,-89.094
6741,-0.7432,0.4419,-0.3423,4.639,-28.687,10.559,133.451,43.385,-89.478
6751,-0.7319,0.6558,-0.5747,13.123,-9.460,15.686,133.391,43.303,-89.725
6761,-0.7021,0.8037,-0.7812,24.658,19.226,19.531,133.649,42.918,-89.714
6771,-0.6553,0.8569,-0.8589,34.302,41.504,22.400,134.138,42.330,-89.517
6781,-0.5962,0.8467,-0.8623,36.377,49.316,18.860,134.714,41.693,-89.214
6791,-0.5376,0.6743,-0.7222,27.893,38.940,11.047,135.187,41.215,-88.951
6801,-0.5410,0.5376,-0.5654,4.089,9.399,1.953,135.286,41.072,-88.879
6811,-0.5728,0.5229,-0.4409,-28.748,-21.667,-6.653,134.857,41.259,-89.017
6821,-0.6265,0.4932,-0.3779,-49.622,-40.894,-12.756,134.121,41.671,-89.286
6831,-0.6865,0.5039,-0.3501,-56.091,-45.776,-14.404,133.270,42.155,-89.588
6841,-0.7295,0.5176,-0.3721,-46.875,-33.997,-12.634,132.583,42.545,-89.808
6851,-0.7461,0.5654,-0.4463,-27.039,-9.766,-7.935,132.259,42.704,-89.830
6861,-0.7373,0.5815,-0.5391,-2.502,17.456,-2.380,132.369,42.605,-89.632
6871,-0.6992,0.5879,-0.5913,15.259,37.903,2.563,132.792,42.308,-89.275
6881,-0.6543,0.5737,-0.6016,23.376,46.265,4.578,133.336,41.924,-88.863
6891,-0.6309,0.4980,-0.5420,18.677,38.818,3.723,133.792,41.622,-88.517
6901,-0.6406,0.4780,-0.4927,4.395,17.761,2.014,133.951,41.501,-88.363
6911,-0.6514,0.5361,-0.4888,-12.451,-2.075,0.122,133.802,41.517,-88.385
6921,-0.6768,0.5991,-0.5186,-21.057,-13.489,-1.587,133.489,41.611,-88.500
6931,-0.7065,0.7007,-0.6035,-18.738,-15.503,-1.892,133.187,41.688,-88.632
6941,-0.7109,0.7715,-0.6929,-8.301,-4.578,-1.404,133.072,41.655,-88.665
6951,-0.6865,0.6733,-0.6616,5.005,10.010,-1.770,133.209,41.545,-88.550
6961,-0.6543,0.5181,-0.5488,11.597,13.550,-3.662,133.467,41.473,-88.385
6971,-0.6484,0.4277,-0.4692,8.545,6.958,-6.714,133.676,41.517,-88.253
6981,-0.6626,0.4028,-0.4321,0.000,-2.930,-7.141,133.737,41.655,-88.220
6991,-0.6821,0.3740,-0.3911,-7.202,-11.353,-5.066,133.649,41.869,-88.281
7001,-0.7046,0.3770,-0.4053,-8.240,-14.648,-1.587,133.517,42.078,-88.407
7011,-0.7148,0.4756,-0.4990,-5.981,-7.141,2.991,133.423,42.144,-88.506
7021,-0.6987,0.5337,-0.5781,1.282,8.911,8.362,133.478,42.017,-88.495
7031,-0.6660,0.5605,-0.6094,9.644,22.644,13.367,133.682,41.737,-88.396
7041,-0.6372,0.6118,-0.6475,14.099,29.602,15.076,133.945,41.364,-88.253
7051,-0.6255,0.6616,-0.6646,14.526,30.518,14.771,134.203,40.974,-88.094
7061,-0.6187,0.6333,-0.6255,9.705,24.475,13.367,134.374,40.649,-87.984
7071,-0.6187,0.5815,-0.5518,1.953,11.597,9.644,134.396,40.468,-87.968
7081,-0.6245,0.5894,-0.5000,-5.493,-3.418,4.333,134.258,40.446,-88.039
7091,-0.6357,0.5908,-0.4863,-7.812,-14.038,0.671,134.044,40.534,-88.176
7101,-0.6577,0.6250,-0.5342,-5.005,-18.860,-0.305,133.846,40.644,-88.352
7111,-0.6743,0.6426,-0.5796,1.709,-14.526,-0.122,133.753,40.721,-88.489
7121,-0.6704,0.6187,-0.5928,8.484,-4.883,0.305,133.808,40.726,-88.539
7131,-0.6504,0.5830,-0.5625,10.620,2.686,0.488,133.929,40.682,-88.517
7141,-0.6382,0.5415,-0.5195,7.690,5.188,0.122,134.033,40.644,-88.467
7151,-0.6484,0.5366,-0.4814,2.197,2.563,-0.732,134.055,40.644,-88.440
7161,-0.6685,0.5127,-0.4351,-2.869,-1.831,-1.587,133.984,40.710,-88.440
7171,-0.6870,0.4829,-0.3936,-5.798,-5.188,-2.258,133.863,40.831,-88.467
7181,-0.6978,0.4419,-0.3599,-7.141,-5.371,-2.502,133.726,40.984,-88.495
7191,-0.6992,0.4082,-0.3335,-6.226,-3.784,-1.404,133.605,41.144,-88.522
7201,-0.6953,0.3804,-0.3276,-3.723,-1.831,1.953,133.517,41.270,-88.555
7211,-0.6914,0.3789,-0.3442,-0.610,1.099,7.629,133.456,41.331,-88.616
7221,-0.6890,0.4092,-0.3818,2.502,5.676,15.015,133.423,41.281,-88.698
7231,-0.6875,0.4775,-0.4380,5.066,12.756,22.949,133.407,41.083,-88.786
7241,-0.6831,0.5781,-0.5342,7.263,22.339,29.785,133.440,40.715,-88.841
7251,-0.6660,0.7798,-0.7051,8.240,35.217,33.569,133.528,40.150,-88.808
7261,-0.6357,0.9063,-0.8105,9.521,50.842,32.532,133.726,39.446,-88.621
7271,-0.5903,0.9126,-0.8174,12.817,59.387,26.367,134.033,38.716,-88.297
7281,-0.5513,0.8770,-0.7808,14.038,55.847,15.442,134.385,38.084,-87.924
7291,-0.5361,0.7939,-0.7080,12.451,42.419,2.625,134.703,37.661,-87.561
7301,-0.5449,0.7085,-0.6382,5.310,18.555,-10.376,134.885,37.524,-87.303
7311,-0.5576,0.6582,-0.5962,-4.761,-8.728,-21.423,134.879,37.683,-87.188
7321,-0.5801,0.5889,-0.5732,-11.658,-31.677,-28.625,134.736,38.079,-87.215
7331,-0.6035,0.5190,-0.5547,-13.855,-47.119,-31.311,134.533,38.633,-87.363
7341,-0.6265,0.4565,-0.5454,-12.817,-55.054,-30.396,134.319,39.254,-87.594
7351,-0.6421,0.4097,-0.5361,-8.667,-54.688,-27.100,134.154,39.869,-87.852
7361,-0.6499,0.3765,-0.5171,-5.371,-47.424,-22.156,134.044,40.408,-88.094
7371,-0.6602,0.3613,-0.4937,-3.296,-37.048,-16.663,133.984,40.853,-88.292
7381,-0.6655,0.3809,-0.4946,-2.625,-25.024,-10.681,133.951,41.160,-88.434
7391,-0.6758,0.4370,-0.5200,-3.967,-10.254,-3.662,133.929,41.292,-88.495
7401,-0.6865,0.4878,-0.5444,-5.371,6.470,3.601,133.940,41.243,-88.467
7411,-0.6816,0.5337,-0.5708,-6.348,22.766,9.155,133.989,41.017,-88.336
7421,-0.6650,0.6011,-0.6025,-7.446,37.476,12.207,134.088,40.644,-88.088
7431,-0.6382,0.6416,-0.6191,-6.409,49.316,12.268,134.253,40.166,-87.737
7441,-0.6157,0.6733,-0.6411,-4.211,55.725,9.216,134.484,39.650,-87.297
7451,-0.5981,0.7085,-0.6748,-3.296,54.626,2.747,134.747,39.172,-86.814
7461,-0.5977,0.7236,-0.6909,-2.441,47.180,-4.089,135.005,38.787,-86.347
7471,-0.6108,0.7222,-0.6729,-3.540,35.034,-8.301,135.192,38.529,-85.952
7481,-0.6074,0.6675,-0.6113,-4.578,18.555,-11.108,135.286,38.430,-85.688
7491,-0.6064,0.5937,-0.5469,-4.761,-3.662,-12.573,135.264,38.529,-85.605
7501,-0.6133,0.5312,-0.4995,-4.761,-26.794,-12.207,135.115,38.815,-85.737
7511,-0.6245,0.4897,-0.4668,-4.639,-46.509,-9.216,134.846,39.249,-86.072
7521,-0.6396,0.4819,-0.4492,-3.418,-60.425,-4.089,134.467,39.743,-86.589
7531,-0.6621,0.4907,-0.4731,-0.732,-65.186,2.930,134.055,40.221,-87.220
7541,-0.6875,0.5215,-0.5156,3.357,-57.800,11.108,133.682,40.567,-87.863
7551,-0.6978,0.4878,-0.4897,10.986,-39.063,20.325,133.445,40.737,-88.423
7561,-0.6904,0.4023,-0.4302,21.545,-17.761,28.870,133.418,40.737,-88.852
7571,-0.6895,0.3311,-0.3687,27.466,-1.282,35.278,133.522,40.633,-89.187
7581,-0.6943,0.3062,-0.3452,26.794,8.850,40.527,133.654,40.435,-89.467
7591,-0.6987,0.3384,-0.3818,20.569,18.860,45.959,133.753,40.117,-89.709
7601,-0.6924,0.5269,-0.5420,9.888,35.645,52.185,133.781,39.523,-89.841
7611,-0.6631,0.8481,-0.8062,-1.770,63.904,56.274,133.824,38.578,-89.747
7621,-0.5913,1.0796,-0.9482,-8.362,99.121,55.542,134.000,37.496,-89.324
7631,-0.5068,1.0972,-0.8848,-4.395,123.291,50.293,134.368,36.277,-88.649
7641,-0.4678,0.8882,-0.6685,7.874,121.704,37.476,134.896,35.156,-87.896
7651,-0.4746,0.6294,-0.4995,15.625,92.041,15.869,135.434,34.393,-87.237
7661,-0.5117,0.5317,-0.4180,4.578,46.875,-7.812,135.742,34.118,-86.770
7671,-0.5552,0.5117,-0.3867,-17.517,-0.977,-25.330,135.687,34.299,-86.556
7681,-0.6060,0.4961,-0.3906,-34.058,-44.434,-36.438,135.308,34.871,-86.616
7691,-0.6343,0.4849,-0.4702,-37.781,-77.332,-42.358,134.764,35.717,-86.913
7701,-0.6519,0.5562,-0.5811,-32.104,-90.210,-41.504,134.193,36.650,-87.341
7711,-0.6587,0.5630,-0.6294,-16.785,-81.543,-35.767,133.775,37.474,-87.759
7721,-0.6689,0.5562,-0.6489,-0.793,-64.087,-26.611,133.550,38.112,-88.110
7731,-0.6582,0.5542,-0.6440,12.939,-45.044,-17.212,133.517,38.546,-88.374
7741,-0.6431,0.5430,-0.6270,18.555,-28.076,-8.179,133.588,38.798,-88.566
7751,-0.6270,0.5625,-0.6177,15.503,-16.479,-0.488,133.649,38.914,-88.715
7761,-0.6099,0.5801,-0.6084,5.371,-8.545,4.150,133.627,38.941,-88.830
7771,-0.5986,0.5894,-0.5937,-2.991,-4.639,4.761,133.544,38.941,-88.912
7781,-0.5991,0.5815,-0.5703,-8.545,-4.395,2.563,133.418,38.952,-88.978
7791,-0.5967,0.6021,-0.5840,-11.108,-5.737,-0.732,133.281,38.996,-89.022
7801,-0.5942,0.6201,-0.5913,-10.742,-4.761,-3.845,133.165,39.056,-89.033
7811,-0.5879,0.5981,-0.5625,-9.827,-3.540,-5.554,133.077,39.122,-89.022
7821,-0.5933,0.5850,-0.5298,-10.071,-5.188,-5.798,132.979,39.199,-89.017
7831,-0.6079,0.5669,-0.4868,-11.658,-7.690,-3.906,132.836,39.282,-89.055
7841,-0.6284,0.5283,-0.4268,-12.573,-11.597,-1.099,132.649,39.370,-89.154
7851,-0.6436,0.5010,-0.3892,-10.132,-16.479,0.854,132.440,39.474,-89.319
7861,-0.6597,0.4995,-0.3853,-5.432,-19.348,2.563,132.253,39.584,-89.528
7871,-0.6636,0.5527,-0.4546,0.366,-17.883,4.883,132.122,39.672,-89.742
7881,-0.6577,0.6201,-0.5405,6.348,-9.033,7.751,132.089,39.672,-89.896
7891,-0.6470,0.6885,-0.6230,10.559,5.615,10.498,132.171,39.556,-89.934
7901,-0.6323,0.7505,-0.6763,11.230,21.790,12.329,132.347,39.320,-89.830
7911,-0.6201,0.7808,-0.7095,9.277,34.058,10.925,132.583,39.007,-89.599
7921,-0.6162,0.7734,-0.7134,3.845,39.307,6.042,132.825,38.699,-89.280
7931,-0.6245,0.7329,-0.6479,-5.676,35.767,-0.916,132.984,38.463,-88.940
7941,-0.6152,0.6997,-0.6099,-15.747,23.132,-10.132,133.017,38.381,-88.632
7951,-0.6099,0.7251,-0.6201,-25.818,8.179,-18.250,132.902,38.458,-88.396
7961,-0.5991,0.7461,-0.6421,-32.715,-3.906,-22.888,132.676,38.650,-88.237
7971,-0.5850,0.8521,-0.6997,-35.339,-10.620,-24.597,132.396,38.903,-88.121
7981,-0.5703,0.8647,-0.6592,-34.302,-7.568,-23.071,132.133,39.122,-87.995
7991,-0.5859,0.6328,-0.4326,-27.954,-7.263,-22.522,131.929,39.342,-87.869
8001,-0.6343,0.2969,-0.1289,-21.118,-23.865,-27.954,131.726,39.710,-87.858
8011,-0.6860,-0.0146,0.1050,-17.334,-58.167,-36.377,131.396,40.369,-88.105
8021,-0.7207,-0.0601,0.1108,-17.151,-98.267,-40.405,-28.449,41.320,-88.726
8031,-0.7646,0.1826,-0.1533,-18.311,-117.004,-32.715,130.012,40.133,-88.363
8041,-0.8477,0.5396,-0.4697,-15.747,-91.187,-13.184,129.337,40.820,-89.165
8051,-0.8140,0.6807,-0.5874,-5.920,-29.602,10.498,129.023,40.930,-89.555
8061,-0.7388,0.6792,-0.5674,13.367,36.560,26.978,129.254,40.490,-89.407
8071,-0.6592,0.6309,-0.4800,33.142,85.571,32.776,129.974,39.694,-88.808
8081,-0.6172,0.5493,-0.4097,46.326,104.553,28.809,130.952,38.804,-88.006
8091,-0.6108,0.5176,-0.3921,45.288,95.581,20.020,131.880,38.024,-87.248
8101,-0.6128,0.5552,-0.4448,32.104,72.815,10.559,132.567,37.458,-86.649
8111,-0.6035,0.6948,-0.6226,15.625,50.171,3.906,132.990,37.090,-86.221
8121,-0.5889,0.9297,-0.8647,2.563,40.466,1.953,133.226,36.799,-85.864
8131,-0.5591,1.0229,-0.9741,0.183,44.006,0.732,133.467,36.343,-85.468
8141,-0.5288,1.0244,-0.9902,7.080,48.340,-2.197,133.808,35.870,-85.018
8151,-0.4971,0.8892,-0.8730,13.367,47.607,-7.324,134.231,35.458,-84.529
8161,-0.5103,0.7031,-0.7114,13.550,33.508,-15.625,134.621,35.250,-84.100
8171,-0.5625,0.5195,-0.5356,3.601,5.615,-24.231,134.819,35.403,-83.842
8181,-0.6113,0.3662,-0.4048,-12.207,-29.541,-30.762,134.731,35.953,-83.831
8191,-0.6323,0.2896,-0.3384,-27.832,-63.293,-35.156,134.357,36.832,-84.084
8201,-0.6470,0.2505,-0.3237,-36.743,-86.731,-34.790,133.792,37.886,-84.556
8211,-0.6743,0.2495,-0.3452,-35.583,-95.276,-30.273,133.176,38.952,-85.161
8221,-0.7095,0.2734,-0.3916,-24.353,-86.853,-22.888,132.671,39.875,-85.776
8231,-0.7368,0.3018,-0.4292,-10.620,-62.744,-12.939,132.380,40.540,-86.259
8241,-0.7476,0.4033,-0.5283,5.432,-30.029,-0.305,132.352,40.820,-86.550
8251,-0.7285,0.5815,-0.6333,12.695,12.268,17.578,132.506,40.605,-86.583
8261,-0.6978,0.6733,-0.6719,17.700,57.251,36.194,132.852,39.913,-86.353
8271,-0.6416,0.7178,-0.6577,17.578,92.468,49.988,133.303,38.864,-85.913
8281,-0.5835,0.7520,-0.6587,15.076,110.718,54.810,133.775,37.634,-85.358
8291,-0.5356,0.7544,-0.6665,10.742,113.953,51.453,134.214,36.387,-84.771
8301,-0.5288,0.7095,-0.6567,2.930,103.516,42.419,134.555,35.294,-84.216
8311,-0.5420,0.6904,-0.6455,-7.935,82.458,29.114,134.731,34.459,-83.749
8321,-0.5552,0.6782,-0.6104,-19.165,57.251,13.611,134.725,33.937,-83.370
8331,-0.5732,0.6323,-0.5542,-26.611,29.846,-2.014,134.577,33.745,-83.095
8341,-0.5913,0.6143,-0.5151,-30.090,1.709,-14.282,134.308,33.860,-82.963
8351,-0.5967,0.6362,-0.5015,-29.724,-20.325,-20.142,133.951,34.167,-82.969
8361,-0.6060,0.6479,-0.4849,-22.339,-34.058,-19.958,133.583,34.574,-83.095
8371,-0.6157,0.6567,-0.4888,-9.277,-41.504,-15.808,133.292,34.991,-83.331
8381,-0.6250,0.6772,-0.5200,5.371,-41.931,-8.545,133.116,35.349,-83.628
8391,-0.6411,0.6499,-0.5269,19.653,-33.691,0.061,133.099,35.601,-83.930
8401,-0.6543,0.5781,-0.5122,26.855,-21.606,7.935,133.198,35.733,-84.194
8411,-0.6440,0.5107,-0.4888,27.832,-10.010,12.390,133.369,35.777,-84.386
8421,-0.6367,0.4692,-0.4766,21.729,-1.709,12.085,133.533,35.782,-84.507
8431,-0.6260,0.4844,-0.4976,12.451,3.479,9.827,133.649,35.750,-84.556
8441,-0.6118,0.5708,-0.5508,0.854,8.484,8.240,133.665,35.651,-84.551
8451,-0.5942,0.6514,-0.5933,-7.812,13.855,7.141,133.610,35.491,-84.490
8461,-0.5806,0.7197,-0.6172,-10.193,18.921,6.409,133.544,35.277,-84.375
8471,-0.5791,0.7329,-0.6138,-8.057,22.888,5.249,133.522,35.041,-84.216
8481,-0.5776,0.7012,-0.5854,-3.296,24.048,3.052,133.555,34.827,-84.029
8491,-0.5869,0.6465,-0.5474,0.427,20.447,-0.854,133.632,34.695,-83.842
8501,-0.5840,0.5972,-0.5151,1.709,12.512,-5.188,133.709,34.662,-83.688
8511,-0.5903,0.5703,-0.5132,0.977,2.686,-8.606,133.753,34.733,-83.589
8521,-0.6123,0.5991,-0.5527,-1.831,-4.822,-10.071,133.753,34.865,-83.551
8531,-0.6191,0.6611,-0.6089,-3.906,-5.676,-9.583,133.720,34.969,-83.518
8541,-0.6084,0.6816,-0.6348,-3.906,-1.099,-8.423,133.709,35.019,-83.458
8551,-0.5903,0.6924,-0.6479,-3.357,3.357,-8.667,133.726,35.024,-83.353
8561,-0.5815,0.7158,-0.6455,-1.831,6.165,-10.376,133.770,35.019,-83.210
8571,-0.5864,0.6802,-0.6187,1.099,5.920,-12.573,133.857,35.041,-83.051
8581,-0.5869,0.6353,-0.5786,2.441,0.916,-15.381,133.945,35.140,-82.914
8591,-0.5811,0.5967,-0.5439,1.587,-6.409,-18.311,134.000,35.321,-82.815
8601,-0.5737,0.5713,-0.5254,-1.160,-13.428,-20.447,134.006,35.568,-82.760
8611,-0.5864,0.5410,-0.5029,-3.723,-19.287,-21.729,133.967,35.887,-82.744
8621,-0.6094,0.5049,-0.4976,-5.432,-23.010,-21.606,133.912,36.244,-82.766
8631,-0.6436,0.4683,-0.5034,-5.920,-23.254,-20.691,133.863,36.623,-82.793
8641,-0.6606,0.4229,-0.5054,-4.944,-19.836,-19.287,133.874,36.980,-82.804
8651,-0.6597,0.4277,-0.5264,-4.028,-15.198,-17.273,133.907,37.282,-82.793
8661,-0.6572,0.4307,-0.5156,-3.052,-9.705,-13.062,133.956,37.513,-82.766
8671,-0.6582,0.3950,-0.4839,-0.488,-5.554,-7.751,134.033,37.694,-82.749
8681,-0.6528,0.3945,-0.4556,1.587,-3.967,-1.953,134.088,37.831,-82.771
8691,-0.6313,0.4687,-0.4956,3.479,-2.075,4.761,134.110,37.859,-82.831
8701,-0.6172,0.5732,-0.5547,6.409,3.479,12.512,134.121,37.749,-82.908
8711,-0.6143,0.6411,-0.6123,12.878,10.803,19.165,134.203,37.507,-82.980
8721,-0.6064,0.7173,-0.6851,19.104,19.592,23.560,134.368,37.145,-83.007
8731,-0.5869,0.7290,-0.7202,23.437,28.564,23.804,134.632,36.705,-82.963
8741,-0.5718,0.6836,-0.7280,24.231,30.396,18.677,134.956,36.293,-82.853
8751,-0.5576,0.6665,-0.7148,16.846,24.414,10.498,135.214,35.980,-82.733
8761,-0.5654,0.5996,-0.6377,4.150,12.024,1.831,135.324,35.854,-82.645
8771,-0.5864,0.5386,-0.5420,-10.681,-7.935,-6.714,135.209,35.975,-82.656
8781,-0.6133,0.5049,-0.4629,-23.926,-29.480,-13.916,134.868,36.337,-82.787
8791,-0.6436,0.5068,-0.4351,-29.785,-45.837,-18.005,134.390,36.859,-83.035
8801,-0.6631,0.5615,-0.4756,-27.893,-51.453,-17.029,133.885,37.386,-83.348
8811,-0.6528,0.6768,-0.5752,-18.616,-42.114,-11.047,133.495,37.744,-83.633
8821,-0.6357,0.7803,-0.6592,-5.310,-20.142,-1.587,133.308,37.837,-83.804
8831,-0.6123,0.8018,-0.6797,8.972,5.188,7.324,133.352,37.672,-83.820
8841,-0.5918,0.7256,-0.6074,19.897,24.231,12.512,133.588,37.359,-83.705
8852,-0.5898,0.5620,-0.5000,22.827,29.175,10.742,133.896,37.090,-83.529
8861,-0.6240,0.3413,-0.3379,14.587,17.334,3.113,134.127,37.101,-83.403
8871,-0.6748,0.0928,-0.1748,-0.854,-9.583,-8.301,134.291,37.595,-83.414
8881,-0.7002,0.0063,-0.1426,-19.165,-43.030,-19.958,134.401,38.441,-83.628
8891,-0.6973,0.3149,-0.3926,-34.668,-63.965,-22.461,133.890,39.199,-84.012
8901,-0.7168,0.8120,-0.7261,-38.574,-49.377,-7.874,133.248,39.540,-84.402
8911,-0.7129,1.0503,-0.8882,-23.682,-6.836,14.343,132.885,39.479,-84.595
8921,-0.6333,1.1260,-0.9321,4.028,35.461,31.433,132.968,39.007,-84.534
8931,-0.5215,1.1245,-0.8843,34.241,68.970,39.001,133.500,38.254,-84.227
8941,-0.4790,0.9434,-0.7505,55.298,82.336,35.706,134.330,37.425,-83.776
8951,-0.4893,0.6592,-0.5708,51.697,66.650,24.902,135.082,36.782,-83.397
8961,-0.5269,0.4214,-0.4238,26.245,29.358,8.179,135.456,36.519,-83.210
8971,-0.5801,0.3125,-0.3521,-9.277,-12.756,-11.658,135.357,36.689,-83.216
8981,-0.6406,0.3105,-0.3379,-40.466,-46.631,-29.724,134.863,37.233,-83.364
8991,-0.6826,0.3525,-0.3862,-58.777,-66.956,-40.894,134.138,37.996,-83.595
9001,-0.6992,0.4736,-0.4678,-59.021,-71.533,-41.443,133.369,38.787,-83.881
9011,-0.7241,0.5591,-0.5259,-36.865,-58.472,-31.738,132.836,39.419,-84.150
9021,-0.7217,0.6187,-0.5415,-14.343,-34.607,-16.174,132.572,39.776,-84.331
9031,-0.6934,0.6382,-0.5254,7.141,-8.118,0.549,132.594,39.825,-84.413
9041,-0.6562,0.6113,-0.4858,22.034,13.489,15.137,132.808,39.622,-84.419
9051,-0.6201,0.5923,-0.4604,29.114,27.527,25.208,133.127,39.254,-84.380
9061,-0.5903,0.5986,-0.4883,27.344,34.302,27.954,133.445,38.815,-84.304
9071,-0.5840,0.6045,-0.5371,20.874,34.668,24.170,133.726,38.397,-84.194
9081,-0.5928,0.6016,-0.5659,12.817,30.273,16.968,133.934,38.068,-84.067
9091,-0.6084,0.5903,-0.5728,3.540,22.278,8.850,134.050,37.848,-83.941
9101,-0.6240,0.5850,-0.5864,-5.676,11.902,0.916,134.050,37.760,-83.837
9111,-0.6396,0.6729,-0.6450,-14.099,4.089,-4.517,133.956,37.766,-83.760
9121,-0.6421,0.7334,-0.6646,-16.846,3.784,-6.287,133.846,37.782,-83.672
9131,-0.6333,0.7202,-0.6372,-12.939,5.188,-7.080,133.781,37.798,-83.562
9141,-0.6074,0.6572,-0.5806,-7.202,3.723,-8.118,133.775,37.831,-83.458
9151,-0.5850,0.5601,-0.5068,-2.686,-0.549,-9.155,133.792,37.903,-83.381
9161,-0.5854,0.4746,-0.4561,-1.953,-9.094,-9.766,133.775,38.035,-83.381
9171,-0.6035,0.5020,-0.4795,-4.089,-19.409,-9.521,133.676,38.238,-83.474
9181,-0.6289,0.5327,-0.5034,-4.700,-24.475,-6.836,133.528,38.458,-83.639
9191,-0.6489,0.5200,-0.5127,-5.615,-23.865,-2.441,133.347,38.639,-83.837
9201,-0.6582,0.5884,-0.5728,-5.615,-16.602,1.587,133.187,38.738,-84.007
9211,-0.6572,0.6602,-0.6079,-3.906,-0.305,6.287,133.110,38.694,-84.067
9221,-0.6450,0.6304,-0.5806,1.465,16.724,9.644,133.171,38.513,-83.996
9231,-0.6108,0.5840,-0.5171,4.761,26.306,9.705,133.319,38.260,-83.831
9241,-0.5957,0.4546,-0.4185,5.737,25.513,5.615,133.489,38.046,-83.644
9251,-0.6191,0.2915,-0.2998,1.526,11.353,-0.977,133.577,37.974,-83.535
9261,-0.6626,0.1562,-0.2114,-7.263,-10.132,-8.179,133.489,38.101,-83.557
9271,-0.6836,0.1650,-0.2368,-12.634,-26.428,-13.794,133.286,38.386,-83.677
9281,-0.7271,0.2075,-0.2686,-17.395,-28.809,-15.198,133.028,38.694,-83.809
9291,-0.7480,0.3125,-0.4033,-15.747,-17.151,-15.381,132.858,38.925,-83.837
9301,-0.6914,0.6729,-0.7207,-8.972,9.277,-15.869,132.907,38.974,-83.611
9311,-0.6133,1.2261,-1.0542,-1.526,44.312,-11.841,133.220,38.760,-83.090
9321,-0.5542,1.5425,-1.1270,14.282,69.885,-6.775,133.808,38.331,-82.375
9331,-0.4805,1.4194,-0.9370,40.710,69.214,-8.423,134.659,37.914,-81.667
9341,-0.4492,1.0112,-0.6533,55.908,39.001,-18.311,135.533,37.771,-81.151
9352,-0.4917,0.6934,-0.4590,37.109,-9.033,-33.997,136.044,38.073,-80.925
9361,-0.5684,0.5728,-0.3989,-0.732,-51.086,-53.589,136.060,38.809,-80.887
9371,-0.6572,0.4478,-0.3950,-34.363,-75.195,-66.467,135.681,39.814,-80.942
9381,-0.7236,0.3315,-0.3975,-59.265,-82.458,-67.078,135.011,40.875,-81.068
9391,-0.7520,0.2954,-0.3804,-70.679,-77.515,-60.608,134.198,41.847,-81.222
9401,-0.7563,0.3477,-0.3755,-64.270,-62.073,-47.974,133.456,42.627,-81.370
9411,-0.7554,0.4126,-0.3916,-39.368,-36.133,-29.846,133.011,43.094,-81.447
9421,-0.7549,0.4473,-0.3989,-12.390,-8.057,-9.888,132.896,43.220,-81.436
9431,-0.7212,0.5024,-0.4351,14.099,18.860,6.531,133.127,43.044,-81.310
9441,-0.6841,0.5400,-0.4976,32.227,37.598,14.832,133.610,42.676,-81.074
9451,-0.6538,0.5493,-0.5762,38.086,44.312,16.052,134.182,42.253,-80.788
9461,-0.6284,0.5649,-0.6318,30.823,41.870,13.977,134.676,41.863,-80.513
9471,-0.6196,0.6514,-0.7100,17.944,35.217,10.315,135.016,41.545,-80.272
9481,-0.6274,0.7358,-0.7622,6.409,29.297,6.226,135.225,41.292,-80.057
9491,-0.6416,0.7500,-0.7632,-0.305,23.437,2.502,135.352,41.105,-79.860
9501,-0.6479,0.7334,-0.7314,-3.296,16.296,-0.977,135.423,40.995,-79.700
9511,-0.6367,0.6519,-0.6431,-3.845,8.972,-3.967,135.461,40.963,-79.579
9521,-0.6108,0.4683,-0.5176,-3.235,-2.563,-7.019,135.461,41.028,-79.536
9531,-0.6294,0.3428,-0.4243,-7.019,-17.761,-8.789,135.335,41.215,-79.618
9541,-0.6479,0.3140,-0.4053,-13.000,-28.748,-7.019,135.071,41.473,-79.821
9551,-0.7012,0.3711,-0.4639,-15.137,-29.297,-1.953,134.747,41.693,-80.079
9561,-0.7178,0.4609,-0.5283,-13.306,-15.869,6.104,134.478,41.759,-80.288
9571,-0.7241,0.6084,-0.5986,-5.737,5.249,15.625,134.357,41.611,-80.381
9581,-0.6963,0.7690,-0.6606,6.836,27.344,22.278,134.462,41.265,-80.332
9591,-0.6382,0.7563,-0.6294,19.897,38.696,22.705,134.764,40.831,-80.173
9601,-0.5977,0.6548,-0.5527,29.602,32.837,18.555,135.148,40.468,-80.041
9611,-0.5742,0.5103,-0.4487,26.550,16.357,11.230,135.445,40.270,-79.991
9621,-0.5908,0.3457,-0.3809,14.893,-6.226,1.465,135.544,40.303,-80.063
9631,-0.6948,0.4434,-0.4580,-25.696,-41.626,-8.545,135.093,40.660,-80.365
9641,-0.7676,0.7910,-0.7070,-32.715,-32.776,-4.028,134.594,40.924,-80.634
9651,-0.7793,1.0063,-0.8535,-23.682,-0.916,6.531,134.308,40.880,-80.700
9661,-0.7222,0.9912,-0.7871,-3.113,25.452,15.991,134.341,40.589,-80.607
9671,-0.6216,0.7583,-0.6104,23.376,32.227,16.113,134.676,40.248,-80.453
9681,-0.5430,0.4302,-0.3813,37.842,18.738,8.789,135.115,40.056,-80.359
9691,-0.5620,0.1792,-0.2148,27.161,-11.230,-0.549,135.319,40.139,-80.458
9701,-0.6226,0.1479,-0.1880,-0.183,-42.480,-8.179,135.115,40.501,-80.771
9711,-0.6802,0.2124,-0.2466,-24.658,-59.326,-10.376,134.577,40.990,-81.227
9721,-0.7290,0.3472,-0.3872,-35.645,-57.190,-5.554,133.901,41.435,-81.716
9731,-0.7632,0.5752,-0.5229,-33.936,-35.889,6.409,133.292,41.638,-82.117
9741,-0.7451,0.7236,-0.6079,-14.099,-2.319,20.020,133.011,41.506,-82.326
9751,-0.7051,0.8286,-0.6772,11.963,28.076,31.677,133.121,41.083,-82.337
9761,-0.6519,0.8398,-0.6982,37.415,46.143,34.729,133.583,40.512,-82.205
9771,-0.5957,0.7490,-0.6436,50.781,44.373,29.663,134.193,39.996,-82.051
9781,-0.5718,0.6479,-0.5825,44.128,23.193,19.531,134.659,39.694,-82.013
9791,-0.5913,0.6313,-0.5518,18.921,-3.418,7.324,134.786,39.666,-82.112
9801,-0.6289,0.6426,-0.5386,-9.155,-24.048,-4.395,134.577,39.864,-82.293
9811,-0.6636,0.5967,-0.5210,-26.611,-35.583,-14.160,134.182,40.215,-82.496
9821,-0.6963,0.5410,-0.4902,-32.288,-37.537,-19.958,133.748,40.622,-82.667
9831,-0.7153,0.4985,-0.4561,-29.480,-32.654,-20.325,133.374,40.990,-82.793
9841,-0.7168,0.4590,-0.4238,-20.142,-25.146,-17.395,133.116,41.292,-82.875
9852,-0.6792,0.3784,-0.3711,-9.888,-17.700,-12.390,132.979,41.501,-82.936
9861,-0.6758,0.3613,-0.3516,-3.540,-10.559,-5.737,132.913,41.616,-82.985
9871,-0.6938,0.3931,-0.3643,-2.014,-1.465,1.953,132.869,41.611,-83.018
9881,-0.6963,0.4590,-0.4199,1.221,8.118,9.155,132.880,41.490,-83.018
9891,-0.6924,0.5903,-0.5464,3.601,19.958,15.198,132.951,41.243,-82.963
9901,-0.6787,0.7500,-0.6548,5.310,34.973,19.897,133.110,40.858,-82.804
9911,-0.6597,0.8140,-0.6929,10.925,44.617,21.179,133.374,40.397,-82.562
9921,-0.6309,0.7842,-0.6792,17.273,42.786,17.761,133.709,39.974,-82.315
9931,-0.5962,0.7285,-0.6465,17.334,32.043,10.925,134.017,39.677,-82.112
9941,-0.5845,0.6572,-0.5967,8.667,15.686,2.075,134.182,39.551,-81.985
9951,-0.5874,0.6089,-0.5459,-4.700,-3.967,-6.714,134.149,39.628,-81.958
9961,-0.6006,0.5161,-0.4854,-15.015,-20.752,-12.207,133.945,39.858,-82.046
9971,-0.6416,0.4961,-0.4644,-20.630,-31.128,-13.672,133.632,40.177,-82.211
9981,-0.6812,0.4834,-0.4546,-19.714,-30.823,-11.597,133.314,40.474,-82.397
9991,-0.7056,0.4663,-0.4517,-12.146,-22.827,-7.263,133.094,40.682,-82.551
10001,-0.7090,0.4824,-0.4687,-2.747,-10.803,-1.160,133.006,40.765,-82.645
10011,-0.7017,0.4956,-0.4746,4.578,2.930,5.859,133.039,40.699,-82.672
10021,-0.6812,0.5527,-0.4976,10.132,13.794,11.780,133.154,40.518,-82.645
10031,-0.6387,0.6060,-0.5020,10.132,19.531,13.794,133.297,40.287,-82.579
10041,-0.6196,0.5923,-0.4810,9.766,16.418,12.390,133.423,40.084,-82.535
10051,-0.6206,0.5815,-0.4541,5.188,8.423,9.094,133.473,39.957,-82.535
10061,-0.6362,0.5713,-0.4463,-0.183,1.343,5.188,133.451,39.913,-82.568
10071,-0.6587,0.5864,-0.4629,-4.456,-3.723,2.014,133.374,39.924,-82.623
10081,-0.6802,0.6509,-0.5283,-7.263,-4.883,0.244,133.270,39.957,-82.672
10091,-0.6836,0.7583,-0.6206,-7.385,0.732,0.366,133.198,39.946,-82.667
10101,-0.6680,0.8267,-0.6807,-4.028,9.705,0.488,133.215,39.875,-82.579
10111,-0.6357,0.8418,-0.6909,0.977,14.832,-1.343,133.319,39.787,-82.425
10121,-0.5967,0.7363,-0.6338,4.211,11.230,-6.592,133.467,39.754,-82.260
10131,-0.5972,0.5854,-0.5479,2.625,-2.808,-13.489,133.555,39.875,-82.167
10141,-0.6245,0.4907,-0.4595,-7.080,-18.799,-19.043,133.478,40.139,-82.172
10151,-0.6694,0.2451,-0.3135,-15.137,-33.020,-22.888,133.347,40.721,-82.282
10161,-0.7061,0.0693,-0.2290,-22.156,-47.363,-23.254,133.270,41.517,-82.524
10171,-0.7275,0.1353,-0.2695,-29.724,-49.866,-17.761,132.962,42.242,-82.848
10181,-0.7627,0.3408,-0.4165,-28.320,-34.363,-4.944,132.567,42.638,-83.145
10191,-0.7676,0.7261,-0.7100,-17.334,-4.089,12.146,132.308,42.523,-83.293
10201,-0.7207,1.1558,-0.9448,-1.099,36.804,27.344,132.380,42.072,-83.177
10211,-0.6255,1.2573,-0.9307,25.330,70.129,35.461,132.885,41.336,-82.798
10221,-0.5269,1.0386,-0.7539,55.115,77.026,33.386,133.731,40.567,-82.348
10231,-0.4834,0.7534,-0.5737,63.660,60.242,22.400,134.610,39.990,-81.980
10241,-0.5029,0.5571,-0.4204,41.992,28.503,5.676,135.165,39.749,-81.771
10251,-0.5688,0.4077,-0.3096,8.301,-10.315,-13.977,135.269,39.919,-81.733
10261,-0.6436,0.3140,-0.2632,-20.935,-47.180,-27.832,134.951,40.452,-81.909
10271,-0.7007,0.2925,-0.2852,-39.856,-69.336,-32.349,134.324,41.171,-82.255
10281,-0.7573,0.3018,-0.3198,-45.532,-68.909,-27.344,133.605,41.847,-82.656
10291,-0.7705,0.3682,-0.3643,-35.034,-48.218,-14.648,133.033,42.286,-82.985
10301,-0.7642,0.4590,-0.4062,-15.991,-19.775,-0.244,132.742,42.424,-83.183
10311,-0.7314,0.5146,-0.4316,10.498,6.653,13.062,132.814,42.281,-83.232
10321,-0.6997,0.5654,-0.4536,29.968,25.146,23.804,133.132,41.935,-83.205
10331,-0.6685,0.6113,-0.5068,39.978,35.278,28.809,133.588,41.484,-83.123
10341,-0.6387,0.6582,-0.5864,37.659,39.063,28.809,134.039,41.006,-83.013
10352,-0.6133,0.6738,-0.6421,26.184,37.720,24.536,134.390,40.567,-82.875
10361,-0.6133,0.6455,-0.6582,11.414,32.593,17.822,134.594,40.215,-82.733
10371,-0.6240,0.6191,-0.6436,-6.531,25.757,10.193,134.626,39.957,-82.590
10381,-0.6362,0.6675,-0.6338,-23.560,20.203,3.723,134.489,39.792,-82.436
10391,-0.6348,0.7383,-0.6299,-31.921,20.569,1.709,134.280,39.633,-82.260
10401,-0.6113,0.7339,-0.6016,-29.480,24.475,2.808,134.116,39.446,-82.057
10411,-0.5991,0.6987,-0.5571,-20.325,27.100,5.249,134.039,39.216,-81.854
10421,-0.5908,0.6362,-0.5137,-9.338,26.917,6.348,134.072,38.985,-81.661
10431,-0.5894,0.5371,-0.4702,1.343,22.522,5.554,134.182,38.787,-81.502
10441,-0.6069,0.4707,-0.4590,7.629,15.137,4.517,134.319,38.650,-81.403
10451,-0.6294,0.4580,-0.4814,7.996,10.071,4.517,134.434,38.546,-81.348
10461,-0.6494,0.4619,-0.5112,5.798,8.423,5.493,134.511,38.447,-81.321
10471,-0.6406,0.4976,-0.5483,2.197,8.911,7.019,134.544,38.337,-81.304
10481,-0.6338,0.5723,-0.5991,-0.854,11.780,9.033,134.550,38.188,-81.277
10491,-0.6216,0.6875,-0.6650,-2.991,16.052,10.986,134.550,37.996,-81.233
10501,-0.6069,0.7412,-0.6821,0.488,19.226,11.047,134.599,37.787,-81.156
10511,-0.5903,0.7383,-0.6582,6.042,17.517,8.667,134.709,37.601,-81.074
10521,-0.5898,0.7012,-0.6074,9.766,11.230,4.333,134.846,37.491,-81.013
10531,-0.5781,0.6060,-0.5181,9.033,1.099,-1.526,134.951,37.496,-80.991
10541,-0.6143,0.5527,-0.4702,3.479,-13.184,-7.507,134.956,37.639,-81.041
10551,-0.6333,0.5225,-0.4546,-2.686,-25.391,-10.864,134.846,37.897,-81.172
10561,-0.6641,0.5034,-0.4355,-7.568,-33.142,-11.169,134.648,38.210,-81.370
10571,-0.6631,0.4414,-0.4160,-8.606,-35.095,-9.460,134.423,38.524,-81.601
10581,-0.6646,0.4258,-0.4248,-6.470,-30.884,-8.362,134.225,38.798,-81.810
10591,-0.6597,0.4448,-0.4526,-3.662,-22.278,-5.371,134.094,38.990,-81.964
10601,-0.6401,0.5718,-0.5117,-2.380,-11.536,0.244,134.000,39.073,-82.073
10611,-0.6362,0.6899,-0.5615,-0.122,0.854,7.080,133.962,39.012,-82.128
10621,-0.6289,0.7549,-0.5869,4.150,10.986,11.902,134.000,38.853,-82.134
10631,-0.6006,0.8403,-0.6323,6.836,17.700,13.123,134.099,38.633,-82.084
10641,-0.5786,0.8813,-0.6733,8.301,21.606,10.132,134.253,38.414,-81.980
10651,-0.5693,0.8579,-0.6763,8.606,20.935,3.967,134.434,38.238,-81.821
10661,-0.5522,0.7612,-0.6133,5.432,13.123,-4.395,134.588,38.177,-81.667
10671,-0.5693,0.5503,-0.4824,-1.404,-2.991,-13.977,134.632,38.298,-81.568
10681,-0.6138,0.3936,-0.3931,-12.268,-24.170,-23.071,134.500,38.633,-81.579
10691,-0.6514,0.3623,-0.3711,-23.926,-39.124,-27.405,134.193,39.100,-81.689
10701,-0.6841,0.3408,-0.3735,-27.649,-41.077,-22.766,133.808,39.551,-81.865
10711,-0.7085,0.3525,-0.3843,-23.132,-33.264,-13.062,133.489,40.012,-82.057
10721,-0.7129,0.3994,-0.4263,-13.306,-18.860,-1.099,133.286,40.259,-82.227
10731,-0.6855,0.5400,-0.5469,-0.488,0.061,11.169,133.237,40.188,-82.326
10741,-0.6372,0.7314,-0.7026,9.705,20.752,19.958,133.352,39.825,-82.310
10751,-0.6079,0.8652,-0.7822,19.287,34.119,23.682,133.599,39.298,-82.200
10761,-0.5801,0.8628,-0.7739,26.184,36.133,22.095,133.934,38.765,-82.057
10771,-0.5410,0.7754,-0.7134,25.757,28.442,14.648,134.258,38.353,-81.925
10781,-0.5254,0.6650,-0.6313,15.198,12.329,3.662,134.445,38.156,-81.843
10791,-0.5625,0.6089,-0.5586,-1.099,-10.193,-7.019,134.401,38.238,-81.876
10801,-0.6064,0.5684,-0.5083,-14.893,-30.518,-14.038,134.132,38.551,-82.029
10811,-0.6377,0.5376,-0.4731,-21.118,-42.358,-16.357,133.748,38.990,-82.271
10821,-0.6533,0.5093,-0.4399,-19.653,-43.091,-14.221,133.352,39.441,-82.546
10831,-0.6548,0.4673,-0.3784,-12.024,-34.973,-7.629,133.022,39.809,-82.804
10841,-0.6675,0.4194,-0.3457,0.305,-24.109,0.305,132.847,40.084,-83.035
10852,-0.6885,0.4121,-0.3506,9.521,-13.184,7.568,132.792,40.232,-83.232
10861,-0.6978,0.4229,-0.3779,17.639,-1.831,14.038,132.863,40.254,-83.375
10871,-0.6924,0.4707,-0.4346,20.264,9.644,19.287,133.011,40.117,-83.452
10881,-0.6763,0.6040,-0.5498,19.226,19.592,22.400,133.187,39.814,-83.463
10891,-0.6445,0.7720,-0.6733,14.709,29.724,23.193,133.363,39.370,-83.392
10901,-0.6113,0.8638,-0.7241,11.963,36.926,21.484,133.544,38.859,-83.232
10911,-0.5815,0.8555,-0.7114,10.559,37.292,15.625,133.742,38.381,-83.024
10921,-0.5527,0.8193,-0.6792,5.127,30.518,6.592,133.885,38.013,-82.804
10931,-0.5435,0.7822,-0.6318,-4.578,18.005,-2.808,133.907,37.815,-82.612
10941,-0.5557,0.7163,-0.5518,-14.282,1.526,-10.498,133.770,37.815,-82.507
10951,-0.5840,0.6323,-0.4585,-19.653,-15.503,-15.930,133.495,38.024,-82.507
10961,-0.6201,0.5718,-0.4097,-20.447,-27.466,-18.494,133.154,38.381,-82.601
10971,-0.6455,0.5483,-0.4077,-16.602,-30.823,-18.127,132.847,38.771,-82.727
10981,-0.6650,0.5327,-0.4385,-7.141,-25.269,-15.381,132.676,39.100,-82.831
10991,-0.6699,0.5557,-0.4922,1.770,-13.123,-10.620,132.665,39.298,-82.864
11001,-0.6685,0.5767,-0.5488,8.423,2.136,-5.249,132.797,39.331,-82.798
11011,-0.6348,0.6509,-0.6411,9.216,17.090,-0.793,133.017,39.172,-82.628
11021,-0.5977,0.7896,-0.7510,3.601,31.128,1.892,133.231,38.848,-82.354
11031,-0.5762,0.8281,-0.7280,-3.723,40.649,1.953,133.396,38.441,-81.985
11041,-0.5757,0.6953,-0.5581,-10.132,34.851,-3.906,133.473,38.177,-81.628
11051,-0.6104,0.4775,-0.3750,-17.029,13.306,-15.442,133.407,38.271,-81.370
11061,-0.6548,0.2817,-0.2251,-26.917,-14.221,-26.489,133.154,38.787,-81.271
11071,-0.7007,0.1260,-0.1440,-32.959,-38.391,-32.715,132.841,39.644,-81.343
11081,-0.7412,0.0620,-0.1738,-29.480,-51.819,-29.785,132.676,40.573,-81.573
11091,-0.7661,0.1895,-0.3682,-18.738,-44.067,-16.113,132.512,41.193,-81.859
11101,-0.7344,0.4438,-0.6006,-5.066,-13.062,5.432,132.457,41.276,-82.035
11111,-0.6870,0.6304,-0.7373,11.414,24.231,26.672,132.638,40.858,-82.035
11121,-0.6240,0.8481,-0.8408,28.015,50.659,40.283,133.022,40.095,-81.903
11131,-0.5493,1.0024,-0.8711,41.809,61.829,43.274,133.544,39.188,-81.700
11141,-0.4917,0.9902,-0.8359,50.598,56.702,37.354,134.138,38.348,-81.502
11151,-0.4629,0.8936,-0.7695,44.495,36.194,24.841,134.610,37.755,-81.392
11161,-0.4683,0.7983,-0.6763,21.179,7.141,9.094,134.769,37.502,-81.409
11171,-0.5186,0.7217,-0.5747,-7.812,-20.996,-6.042,134.550,37.612,-81.541
11181,-0.5718,0.6206,-0.4751,-29.663,-42.847,-17.334,134.044,38.013,-81.771
11191,-0.6304,0.5146,-0.3901,-38.330,-57.434,-23.865,133.401,38.644,-82.084
11201,-0.6782,0.4492,-0.3398,-34.973,-61.584,-24.414,132.775,39.353,-82.447
11211,-0.7109,0.4199,-0.3237,-23.376,-53.040,-18.799,132.275,39.985,-82.782
11221,-0.7187,0.4604,-0.3594,-7.568,-36.987,-10.437,131.990,40.419,-83.046
11231,-0.7251,0.4731,-0.3853,7.812,-16.724,-0.854,131.940,40.633,-83.205
11241,-0.7134,0.5063,-0.3994,13.977,3.113,9.155,132.006,40.616,-83.254
11251,-0.6836,0.5449,-0.4351,17.273,18.799,15.564,132.177,40.413,-83.205
11261,-0.6206,0.6240,-0.5107,14.404,27.222,16.785,132.363,40.084,-83.090
11271,-0.6040,0.6978,-0.5723,10.620,28.625,14.954,132.534,39.721,-82.947
11281,-0.5986,0.7886,-0.6313,4.272,27.039,12.329,132.632,39.359,-82.793
11291,-0.5820,0.9199,-0.7100,-1.587,25.574,8.240,132.671,39.001,-82.623
11301,-0.5752,0.9360,-0.7187,-3.906,23.621,2.441,132.709,38.694,-82.419
11311,-0.5825,0.8384,-0.6299,-6.226,16.663,-4.211,132.709,38.518,-82.227
11321,-0.6045,0.6519,-0.5039,-8.667,4.272,-11.658,132.660,38.551,-82.084
11331,-0.6401,0.4365,-0.3838,-11.169,-10.681,-17.395,132.567,38.842,-82.035
11341,-0.6650,0.2852,-0.3301,-13.428,-24.963,-18.616,132.457,39.320,-82.112
11352,-0.6826,0.2910,-0.3931,-14.648,-30.762,-15.869,132.325,39.792,-82.266
11361,-0.6987,0.3530,-0.4829,-12.207,-20.935,-8.240,132.237,40.089,-82.397
11371,-0.6846,0.5630,-0.6313,-7.202,-0.366,2.991,132.204,40.062,-82.425
11381,-0.6533,0.8218,-0.7739,0.793,27.710,13.916,132.314,39.677,-82.277
11391,-0.5933,0.8472,-0.7358,10.254,53.589,19.714,132.621,39.056,-81.936
11401,-0.5693,0.6431,-0.5464,17.334,58.777,16.052,133.028,38.496,-81.519
11411,-0.5942,0.3599,-0.3442,12.939,40.771,5.371,133.369,38.293,-81.183
11421,-0.6431,0.1768,-0.2407,-4.272,9.644,-5.127,133.511,38.535,-81.052
11431,-0.6655,0.1450,-0.2529,-23.865,-20.569,-9.705,133.380,39.023,-81.156
11441,-0.6592,0.4453,-0.4917,-32.043,-36.438,-6.470,132.929,39.375,-81.442
11451,-0.6514,0.7358,-0.6787,-24.902,-25.574,5.249,132.501,39.446,-81.727
11461,-0.6265,0.8154,-0.7183,-3.296,-3.662,18.494,132.330,39.243,-81.925
11471,-0.5493,0.9531,-0.8047,18.982,15.564,26.001,132.451,38.793,-82.002
11481,-0.4951,1.0747,-0.8179,29.785,29.846,27.405,132.720,38.205,-81.958
11491,-0.4795,1.0195,-0.6973,35.828,27.649,22.766,133.028,37.683,-81.898
11501,-0.5039,0.8184,-0.5400,29.663,11.108,12.939,133.220,37.414,-81.903
11511,-0.5562,0.6040,-0.3799,8.789,-11.353,-0.427,133.138,37.496,-82.007
11521,-0.6445,0.2852,-0.2002,-15.747,-35.156,-14.282,132.781,38.079,-82.205
11531,-0.7109,0.1123,-0.1182,-34.485,-56.641,-25.574,132.286,39.040,-82.513
11541,-0.7593,0.0981,-0.1416,-42.175,-63.782,-28.198,131.776,40.051,-82.875
11551,-0.7773,0.2305,-0.2710,-32.227,-54.321,-18.677,131.298,40.803,-83.243
11561,-0.7539,0.5156,-0.5259,-10.132,-32.166,-0.732,131.039,41.067,-83.557
11571,-0.7041,0.8384,-0.7778,11.780,2.869,21.179,131.072,40.792,-83.710
11581,-0.6533,1.0313,-0.9019,33.875,37.048,35.889,131.446,40.133,-83.655
11591,-0.5522,1.0518,-0.8877,51.758,53.223,36.377,132.078,39.331,-83.447
11601,-0.4692,0.9585,-0.8032,56.946,44.373,23.865,132.759,38.672,-83.227
11611,-0.4458,0.8442,-0.6982,42.053,16.296,8.118,133.193,38.342,-83.145
11621,-0.4985,0.7383,-0.5688,12.329,-17.578,-7.690,133.204,38.414,-83.243
11631,-0.5669,0.5630,-0.4443,-15.686,-47.668,-23.071,132.847,38.903,-83.485
11641,-0.6289,0.4575,-0.3706,-35.339,-66.406,-31.128,132.242,39.655,-83.837
11651,-0.6890,0.4146,-0.3418,-42.175,-68.970,-29.785,131.539,40.457,-84.243
11661,-0.7002,0.4087,-0.3774,-33.508,-57.617,-22.461,130.984,41.111,-84.611
11671,-0.7075,0.5010,-0.4609,-16.541,-35.522,-11.047,130.666,41.473,-84.869
11681,-0.7021,0.5493,-0.4858,3.601,-7.507,2.563,130.644,41.528,-84.968
11691,-0.6836,0.5640,-0.4878,20.142,16.479,14.221,130.875,41.325,-84.924
11701,-0.6328,0.5767,-0.4766,26.489,30.884,20.569,131.210,40.957,-84.792
11711,-0.6191,0.5547,-0.4751,24.414,32.593,20.386,131.539,40.589,-84.650
11721,-0.6143,0.5913,-0.4951,13.733,25.879,16.663,131.732,40.276,-84.540
11731,-0.6113,0.6699,-0.5610,0.244,18.372,11.230,131.770,40.018,-84.457
11741,-0.6025,0.7754,-0.6416,-10.986,13.123,4.944,131.693,39.803,-84.370
11751,-0.5996,0.8159,-0.6621,-15.930,9.888,-1.038,131.572,39.644,-84.265
11761,-0.5894,0.7744,-0.6074,-15.686,5.066,-6.348,131.451,39.573,-84.161
11771,-0.6040,0.6768,-0.5186,-14.832,-2.502,-10.315,131.303,39.622,-84.100
11781,-0.6362,0.5693,-0.4272,-14.099,-11.169,-13.000,131.122,39.814,-84.095
11791,-0.6592,0.4707,-0.3516,-12.329,-18.799,-13.550,130.913,40.122,-84.166
11801,-0.6855,0.4014,-0.3198,-8.728,-23.437,-10.986,130.715,40.485,-84.304
11811,-0.7002,0.4126,-0.3677,-5.371,-21.667,-5.188,130.562,40.776,-84.474
11821,-0.6924,0.5386,-0.5083,-1.282,-9.766,2.502,130.501,40.847,-84.595
11831,-0.6538,0.7148,-0.6606,2.625,12.329,10.498,130.567,40.616,-84.556
11841,-0.6147,0.7944,-0.6821,6.348,34.363,15.869,130.765,40.177,-84.353
11852,-0.5854,0.7866,-0.6304,9.949,44.861,15.564,131.045,39.666,-84.040
11861,-0.5674,0.7661,-0.5332,9.399,41.260,11.780,131.265,39.227,-83.738
11871,-0.5854,0.7505,-0.4282,10.437,27.039,8.667,131.375,38.936,-83.546
11881,-0.6069,0.6929,-0.3579,22.034,8.606,8.362,131.457,38.809,-83.535
11891,-0.6284,0.5781,-0.3394,42.358,-8.972,10.681,131.655,38.831,-83.710
11901,-0.6367,0.4609,-0.3877,65.063,-22.827,13.123,132.078,38.963,-84.045
11911,-0.6426,0.4292,-0.5171,80.994,-27.649,15.320,132.715,39.078,-84.441
11921,-0.6343,0.5044,-0.6885,83.984,-19.470,18.555,133.440,39.051,-84.787
11931,-0.6274,0.6079,-0.8071,71.716,-1.648,22.583,134.116,38.826,-85.001
11941,-0.6055,0.6484,-0.8208,50.659,15.808,24.353,134.648,38.458,-85.073
11951,-0.5830,0.6406,-0.7529,21.484,25.574,21.362,134.934,38.051,-85.034
11961,-0.5635,0.5303,-0.5688,-12.390,24.231,13.367,134.890,37.766,-84.935
11971,-0.5801,0.4590,-0.4253,-43.945,10.193,0.732,134.489,37.744,-84.847
11981,-0.6196,0.4868,-0.3672,-65.918,-5.066,-9.460,133.781,37.919,-84.809
11991,-0.6494,0.5405,-0.3618,-72.693,-12.939,-12.878,132.962,38.172,-84.814
12001,-0.6636,0.6060,-0.3633,-59.387,-13.489,-11.597,132.237,38.397,-84.842
12011,-0.6650,0.5947,-0.4077,-32.959,-6.165,-5.493,131.825,38.524,-84.853
12021,-0.6533,0.5806,-0.4819,-6.104,6.592,2.563,131.770,38.485,-84.814
12031,-0.6470,0.5635,-0.5366,14.832,17.517,8.911,131.990,38.315,-84.721
12041,-0.6357,0.5566,-0.5815,25.085,21.545,12.695,132.341,38.079,-84.628
12051,-0.6113,0.5718,-0.6172,23.315,18.616,14.099,132.654,37.831,-84.573
12061,-0.5752,0.6299,-0.6606,12.451,13.245,13.733,132.814,37.584,-84.567
12071,-0.5547,0.7124,-0.7056,-2.197,9.949,11.719,132.808,37.348,-84.573
12081,-0.5415,0.7612,-0.7104,-12.878,9.033,7.812,132.693,37.128,-84.556
12091,-0.5420,0.7705,-0.6787,-17.761,7.629,2.747,132.534,36.969,-84.512
12101,-0.5400,0.7588,-0.6528,-19.043,4.883,-2.380,132.363,36.865,-84.446
12112,-0.5420,0.7222,-0.5986,-16.968,0.366,-6.165,132.204,36.837,-84.391
12121,-0.5547,0.6519,-0.5273,-13.123,-5.859,-7.263,132.045,36.898,-84.380
12131,-0.5835,0.5933,-0.4702,-9.155,-12.207,-6.042,131.880,37.029,-84.446
12141,-0.6064,0.5356,-0.4443,-6.042,-16.235,-3.235,131.721,37.200,-84.573
12151,-0.6211,0.4932,-0.4438,-3.296,-16.724,0.427,131.600,37.370,-84.732
12161,-0.6299,0.4668,-0.4521,-1.099,-13.306,4.639,131.512,37.491,-84.897
12171,-0.6377,0.4658,-0.4834,-1.343,-6.531,10.071,131.457,37.518,-85.040
12181,-0.6353,0.4868,-0.5210,-4.456,2.930,15.625,131.407,37.425,-85.144
12191,-0.6250,0.5078,-0.5581,-10.498,12.207,18.921,131.342,37.227,-85.182
12201,-0.6069,0.5342,-0.5864,-20.935,18.616,19.165,131.204,36.964,-85.166
12211,-0.5757,0.5913,-0.5723,-34.485,21.240,17.578,130.924,36.672,-85.111
12221,-0.5649,0.6782,-0.5464,-44.128,19.226,16.418,130.496,36.392,-85.067
12231,-0.5630,0.7773,-0.5249,-44.495,15.381,16.907,129.996,36.112,-85.056
12241,-0.5806,0.8877,-0.5376,-30.823,11.292,18.250,129.578,35.832,-85.095
12251,-0.5718,0.9097,-0.5635,-7.080,8.789,18.494,129.397,35.557,-85.155
12261,-0.5620,0.8516,-0.5635,17.273,6.226,16.724,129.468,35.321,-85.226
12271,-0.5527,0.7583,-0.5469,34.668,1.892,12.939,129.727,35.167,-85.314
12281,-0.5356,0.6367,-0.4897,39.307,-6.592,8.850,130.018,35.123,-85.441
12291,-0.5518,0.5571,-0.4453,31.738,-18.005,6.287,130.193,35.217,-85.660
12301,-0.5840,0.5454,-0.4253,17.761,-24.963,6.287,130.188,35.381,-85.946
12311,-0.6104,0.5752,-0.4282,4.456,-23.437,7.874,130.034,35.519,-86.226
12321,-0.6245,0.5996,-0.4331,-2.747,-14.160,9.155,129.847,35.590,-86.429
12331,-0.6279,0.6133,-0.4424,-4.761,-0.854,10.437,129.705,35.557,-86.523
12341,-0.6294,0.6069,-0.4609,-2.686,11.719,10.986,129.672,35.436,-86.495
12352,-0.6162,0.5879,-0.4883,-0.854,21.179,10.620,129.727,35.255,-86.380
12361,-0.5894,0.6201,-0.5547,-1.892,27.588,9.766,129.836,35.008,-86.199
12371,-0.5571,0.6831,-0.6196,-6.836,31.494,9.399,129.919,34.700,-85.974
12381,-0.5142,0.7417,-0.6494,-11.597,31.189,8.728,129.941,34.365,-85.754
12391,-0.4780,0.8252,-0.6714,-15.198,25.574,7.629,129.880,34.041,-85.573
12401,-0.4736,0.8833,-0.6953,-14.771,17.334,6.104,129.781,33.772,-85.463
12411,-0.4893,0.8696,-0.6875,-9.949,11.230,4.333,129.710,33.569,-85.391
12421,-0.5049,0.8071,-0.6572,-3.662,6.348,2.197,129.688,33.437,-85.347
12431,-0.5220,0.7251,-0.6099,1.465,1.221,0.427,129.710,33.376,-85.342
12441,-0.5352,0.6396,-0.5518,5.554,-3.235,0.610,129.760,33.382,-85.375
12451,-0.5571,0.5283,-0.4834,8.728,-6.958,2.808,129.825,33.453,-85.463
12461,-0.5854,0.4180,-0.4360,8.606,-9.338,6.287,129.902,33.569,-85.594
12471,-0.6084,0.3545,-0.4111,4.333,-7.996,9.949,129.952,33.690,-85.743
12481,-0.6206,0.3286,-0.4067,-3.052,-3.174,13.733,129.963,33.772,-85.880
12491,-0.6108,0.3804,-0.4370,-11.658,3.479,17.700,129.880,33.739,-85.984
12501,-0.5820,0.5396,-0.4971,-18.494,9.888,22.095,129.677,33.558,-86.067
12511,-0.5449,0.7563,-0.5728,-17.395,15.442,27.039,129.446,33.217,-86.127
12521,-0.4990,0.9458,-0.6406,-7.507,19.226,31.128,129.287,32.761,-86.188
12531,-0.4595,1.0825,-0.6934,7.935,18.555,31.738,129.260,32.272,-86.254
12541,-0.4360,1.0815,-0.6919,24.963,13.123,27.588,129.397,31.844,-86.342
12551,-0.4307,0.9546,-0.6138,36.133,1.526,19.043,129.622,31.575,-86.473
12562,-0.4653,0.7544,-0.5005,35.156,-16.174,6.592,129.809,31.586,-86.666
12571,-0.5259,0.5908,-0.4043,22.278,-35.095,-7.446,129.836,31.910,-86.929
12581,-0.5806,0.4912,-0.3745,2.075,-48.584,-19.226,129.677,32.481,-87.220
12591,-0.6230,0.4956,-0.4009,-18.127,-48.828,-23.865,129.353,33.091,-87.484
12601,-0.6309,0.6050,-0.4692,-30.945,-34.485,-21.545,128.947,33.536,-87.643
12612,-0.5967,0.7515,-0.5278,-29.968,-10.620,-13.367,128.611,33.695,-87.638
12621,-0.5571,0.8159,-0.5479,-17.456,10.864,-4.272,128.463,33.624,-87.506
12632,-0.5176,0.8242,-0.5444,-0.977,23.682,0.366,128.524,33.415,-87.286
12642,-0.5103,0.7603,-0.5215,10.925,24.475,-0.854,128.721,33.223,-87.050
12651,-0.5239,0.6846,-0.4932,14.526,15.259,-5.188,128.936,33.157,-86.869
12661,-0.5503,0.6147,-0.4810,8.240,3.174,-9.888,129.062,33.234,-86.765
12671,-0.5786,0.5576,-0.4971,-1.282,-6.531,-13.855,129.100,33.426,-86.721
12681,-0.5918,0.5312,-0.5137,-9.521,-9.277,-14.709,129.067,33.651,-86.699
12691,-0.5972,0.5200,-0.5112,-14.282,-5.798,-12.634,129.007,33.838,-86.655
12701,-0.5771,0.5444,-0.5376,-14.465,-0.061,-8.728,128.952,33.942,-86.589
12711,-0.5278,0.6885,-0.6211,-11.963,9.277,-1.953,128.925,33.854,-86.490
12721,-0.5127,0.7778,-0.6514,-3.967,18.921,4.822,128.974,33.629,-86.347
12732,-0.5049,0.7876,-0.6333,6.470,21.179,7.507,129.111,33.371,-86.204
12741,-0.5044,0.7383,-0.6079,14.465,16.541,6.348,129.315,33.162,-86.100
12752,-0.5073,0.6738,-0.5757,16.113,7.507,2.869,129.512,33.058,-86.050
12761,-0.5278,0.6128,-0.5361,12.695,-3.601,-2.075,129.644,33.096,-86.072
12771,-0.5542,0.5796,-0.5195,7.019,-12.207,-5.432,129.699,33.239,-86.138
12781,-0.5659,0.5811,-0.5234,1.221,-14.465,-4.883,129.683,33.393,-86.237
12791,-0.5654,0.6040,-0.5425,-2.441,-10.498,-2.014,129.639,33.492,-86.320
12802,-0.5625,0.6245,-0.5493,-1.404,-2.747,1.282,129.622,33.503,-86.353
12811,-0.5566,0.6265,-0.5444,1.465,4.700,4.639,129.655,33.442,-86.347
12821,-0.5503,0.6343,-0.5405,3.967,9.521,6.897,129.721,33.327,-86.309
12832,-0.5420,0.6709,-0.5601,3.906,10.803,7.202,129.781,33.190,-86.265
12842,-0.5278,0.7236,-0.5903,1.282,8.728,6.104,129.809,33.052,-86.232
12852,-0.5024,0.8042,-0.6426,-2.686,5.615,4.150,129.781,32.915,-86.210
12861,-0.4893,0.8672,-0.6738,-5.859,3.845,1.465,129.716,32.789,-86.188
12871,-0.4883,0.8335,-0.6333,-5.737,1.282,-2.747,129.650,32.723,-86.155
12882,-0.5068,0.7246,-0.5649,-5.493,-4.333,-7.935,129.589,32.772,-86.133
12891,-0.5342,0.6572,-0.5386,-9.155,-11.230,-13.062,129.496,32.937,-86.138
12901,-0.5571,0.6387,-0.5483,-15.503,-15.625,-15.686,129.342,33.162,-86.166
12911,-0.5630,0.6323,-0.5537,-24.597,-15.076,-15.442,129.106,33.382,-86.188
12922,-0.5527,0.6548,-0.5469,-34.302,-10.803,-13.672,128.771,33.552,-86.182
12932,-0.5483,0.6885,-0.5444,-43.030,-4.517,-11.780,128.370,33.651,-86.138
12942,-0.5337,0.7695,-0.5195,-46.204,1.404,-10.498,127.919,33.690,-86.045
12952,-0.5474,0.7773,-0.4561,-37.292,2.136,-8.850,127.518,33.723,-85.957
12961,-0.5684,0.7134,-0.4004,-20.081,-2.441,-7.507,127.255,33.805,-85.930
12972,-0.5942,0.6401,-0.3813,-1.770,-8.362,-7.202,127.161,33.959,-85.957
12981,-0.6245,0.5415,-0.3765,14.465,-12.695,-6.409,127.238,34.178,-86.028
12992,-0.6255,0.4761,-0.4014,24.536,-14.893,-3.662,127.447,34.409,-86.149
13001,-0.6201,0.4478,-0.4370,25.940,-13.428,1.892,127.689,34.579,-86.292
13011,-0.6152,0.4800,-0.4854,21.057,-7.446,8.057,127.903,34.634,-86.424
13021,-0.5854,0.5767,-0.5449,12.634,2.380,12.878,128.040,34.536,-86.495
13032,-0.5576,0.7051,-0.5742,6.287,13.184,16.052,128.117,34.299,-86.490
13042,-0.5366,0.7944,-0.5908,7.080,21.057,17.700,128.210,33.975,-86.418
13052,-0.5103,0.8647,-0.6348,13.306,23.437,16.541,128.375,33.618,-86.325
13062,-0.4785,0.9336,-0.6841,19.226,19.836,12.207,128.595,33.289,-86.226
13072,-0.4775,0.9141,-0.6758,23.926,11.414,5.737,128.848,33.069,-86.160
13082,-0.4858,0.8350,-0.6372,23.865,0.427,-1.648,129.078,32.997,-86.144
13092,-0.5054,0.7495,-0.5923,16.296,-10.254,-9.338,129.216,33.085,-86.171
13102,-0.5312,0.6772,-0.5464,4.395,-18.799,-15.930,129.232,33.305,-86.226
13112,-0.5630,0.6006,-0.4839,-7.019,-24.048,-20.569,129.122,33.640,-86.292
13122,-0.5874,0.5010,-0.3955,-15.991,-25.635,-22.339,128.914,34.063,-86.364
13132,-0.6221,0.4019,-0.3169,-19.592,-24.658,-20.386,128.672,34.541,-86.440
13142,-0.6650,0.3560,-0.2871,-17.700,-20.691,-14.099,128.447,34.986,-86.528
13152,-0.6802,0.3545,-0.2998,-10.559,-13.123,-4.700,128.309,35.310,-86.616
13162,-0.6729,0.3892,-0.3462,-0.916,-1.343,6.165,128.298,35.442,-86.677
13172,-0.6421,0.4751,-0.4331,8.545,12.634,16.479,128.425,35.332,-86.682
13182,-0.5986,0.6265,-0.5547,14.282,26.123,24.414,128.633,34.986,-86.616
13192,-0.5396,0.7979,-0.6807,16.479,36.316,28.748,128.886,34.459,-86.490
13202,-0.4609,0.9604,-0.7979,16.418,39.551,27.527,129.150,33.860,-86.325
13211,-0.4111,1.0708,-0.8521,13.550,34.973,21.606,129.370,33.305,-86.160
13222,-0.3950,1.0654,-0.8193,8.911,24.170,11.902,129.507,32.893,-86.028
13232,-0.4072,0.9863,-0.7378,2.319,8.850,-0.488,129.551,32.695,-85.946
13242,-0.4502,0.8486,-0.6006,-5.737,-8.850,-12.939,129.463,32.756,-85.930
13252,-0.5093,0.7104,-0.4849,-12.451,-25.391,-21.423,129.249,33.058,-86.001
13262,-0.5688,0.6108,-0.4102,-15.930,-35.095,-23.621,128.958,33.503,-86.144
13272,-0.6099,0.5054,-0.3740,-13.184,-34.973,-20.081,128.705,33.986,-86.320
13282,-0.6450,0.4194,-0.3555,-6.958,-26.672,-13.184,128.568,34.409,-86.473
13292,-0.6509,0.3848,-0.3677,1.160,-11.353,-4.028,128.589,34.673,-86.550
13302,-0.6392,0.3838,-0.3828,6.714,8.728,8.240,128.732,34.706,-86.528
13312,-0.6138,0.4565,-0.4351,12.939,28.442,21.179,128.969,34.459,-86.418
13322,-0.5913,0.5688,-0.5254,19.226,44.189,31.555,129.298,33.970,-86.243
13332,-0.5332,0.7222,-0.6255,25.574,52.490,37.903,129.677,33.305,-86.045
13342,-0.4902,0.8325,-0.6821,30.396,53.223,40.588,130.073,32.569,-85.864
13352,-0.4644,0.8584,-0.7051,33.752,47.546,38.635,130.474,31.877,-85.726
13361,-0.4443,0.8281,-0.6919,31.860,37.842,31.921,130.831,31.295,-85.633
13372,-0.4419,0.7520,-0.6440,24.048,26.245,22.583,131.094,30.883,-85.573
13382,-0.4707,0.6807,-0.5854,11.963,15.503,13.062,131.232,30.652,-85.534
13392,-0.5093,0.6357,-0.5347,-2.319,8.057,6.042,131.204,30.564,-85.512
13402,-0.5400,0.6226,-0.5020,-13.428,4.517,2.502,131.061,30.553,-85.490
13412,-0.5352,0.6367,-0.5010,-18.311,5.615,2.686,130.864,30.526,-85.463
13422,-0.5337,0.6460,-0.5029,-15.625,11.475,5.798,130.710,30.432,-85.408
13432,-0.5430,0.6416,-0.5000,-6.409,17.761,9.766,130.660,30.278,-85.325
13442,-0.5400,0.6440,-0.5083,3.540,22.217,12.817,130.721,30.070,-85.226
13452,-0.5376,0.6362,-0.5210,11.108,24.414,14.221,130.869,29.833,-85.117
13462,-0.5264,0.6113,-0.5186,13.062,24.353,14.465,131.045,29.603,-85.018
13472,-0.5151,0.6006,-0.5327,9.583,23.010,13.550,131.193,29.383,-84.919
13482,-0.4907,0.6631,-0.5923,3.723,23.254,11.780,131.287,29.141,-84.803
13492,-0.4639,0.7417,-0.6592,-1.099,24.109,8.606,131.347,28.878,-84.666
13502,-0.4307,0.8286,-0.7168,-3.296,23.376,3.662,131.396,28.625,-84.490
13512,-0.3896,0.8984,-0.7661,-4.272,20.874,-2.686,131.435,28.405,-84.293
13522,-0.3730,0.9063,-0.7788,-3.967,15.198,-9.583,131.484,28.262,-84.089
13532,-0.3765,0.8682,-0.7422,-3.784,6.775,-14.832,131.517,28.229,-83.919
13542,-0.3994,0.8008,-0.6846,-4.150,-4.211,-18.372,131.512,28.317,-83.820
13552,-0.4390,0.7021,-0.6064,-5.371,-16.418,-20.630,131.462,28.548,-83.804
13562,-0.4907,0.6069,-0.5278,-7.812,-27.161,-21.729,131.347,28.916,-83.870
13572,-0.5283,0.5493,-0.4746,-9.644,-33.081,-20.996,131.188,29.361,-83.996
13582,-0.5615,0.5073,-0.4414,-9.644,-33.264,-18.250,131.017,29.817,-84.144
13592,-0.5820,0.4907,-0.4258,-7.080,-27.405,-14.221,130.880,30.223,-84.276
13602,-0.5894,0.4824,-0.4316,-2.808,-16.968,-9.521,130.825,30.526,-84.353
13612,-0.5879,0.4829,-0.4365,2.686,-6.287,-4.822,130.853,30.718,-84.370
13622,-0.5845,0.4849,-0.4570,8.240,2.075,-0.610,130.974,30.817,-84.348
13632,-0.5693,0.5229,-0.4917,12.146,5.615,2.319,131.133,30.839,-84.315
13642,-0.5396,0.6099,-0.5571,14.771,5.005,4.028,131.298,30.800,-84.304
13652,-0.4961,0.7363,-0.6318,16.113,1.709,4.150,131.440,30.718,-84.320
13662,-0.4741,0.8071,-0.6831,17.578,-1.404,1.953,131.589,30.646,-84.348
13672,-0.4556,0.8296,-0.7202,18.616,-3.723,-2.197,131.759,30.608,-84.364
13682,-0.4316,0.8330,-0.7344,16.663,-4.578,-7.324,131.929,30.597,-84.348
13692,-0.4287,0.7998,-0.7134,11.963,-6.287,-13.672,132.072,30.652,-84.293
13702,-0.4463,0.7622,-0.6714,4.700,-10.254,-19.958,132.144,30.800,-84.227
13712,-0.4653,0.7129,-0.6240,-4.456,-14.099,-25.330,132.133,31.031,-84.150
13722,-0.4878,0.6724,-0.5786,-13.855,-15.564,-27.710,132.023,31.317,-84.067
13732,-0.5151,0.6606,-0.5439,-20.874,-12.878,-25.574,131.836,31.586,-83.979
13742,-0.5410,0.6245,-0.5029,-22.461,-8.057,-21.973,131.633,31.827,-83.881
13752,-0.5601,0.5493,-0.4536,-18.250,-4.150,-18.799,131.490,32.058,-83.771
13762,-0.5723,0.5044,-0.4185,-13.489,-1.099,-15.320,131.396,32.267,-83.661
13772,-0.5889,0.4893,-0.4126,-8.484,2.136,-10.559,131.353,32.437,-83.557
13782,-0.5942,0.4956,-0.4375,-4.028,6.531,-4.822,131.364,32.525,-83.463
13792,-0.5801,0.5332,-0.4854,-0.427,11.780,1.465,131.418,32.498,-83.370
13802,-0.5508,0.6230,-0.5571,2.747,17.944,7.385,131.506,32.333,-83.265
13812,-0.5269,0.6816,-0.6172,7.202,24.109,12.512,131.644,32.058,-83.150
13822,-0.5078,0.7173,-0.6553,11.719,27.649,16.174,131.830,31.712,-83.035
13832,-0.4751,0.7710,-0.7124,15.137,27.893,17.761,132.045,31.322,-82.930
13842,-0.4170,0.8696,-0.8037,15.869,26.184,16.602,132.259,30.910,-82.831
13852,-0.3955,0.9312,-0.8530,15.076,19.897,12.329,132.446,30.553,-82.755
13862,-0.3911,0.9121,-0.8433,13.733,9.949,6.165,132.605,30.311,-82.722
13872,-0.4038,0.8550,-0.8066,10.132,-2.014,-1.404,132.709,30.218,-82.727
13882,-0.4268,0.7915,-0.7544,3.662,-12.939,-10.315,132.742,30.295,-82.755
13892,-0.4629,0.7090,-0.6909,-4.028,-21.973,-19.043,132.698,30.526,-82.793
13902,-0.5049,0.6270,-0.6094,-11.230,-28.687,-25.330,132.578,30.899,-82.837
13912,-0.5444,0.5342,-0.5029,-16.846,-32.776,-28.870,132.391,31.382,-82.892
13922,-0.5737,0.4604,-0.4121,-21.484,-35.339,-28.809,132.133,31.948,-82.969
13932,-0.6030,0.4380,-0.3594,-22.522,-35.583,-23.926,131.819,32.509,-83.090
13942,-0.6240,0.4380,-0.3506,-19.043,-31.067,-15.442,131.517,32.981,-83.243
13952,-0.6274,0.4580,-0.3667,-11.169,-21.545,-5.127,131.298,33.300,-83.397
13962,-0.6201,0.4922,-0.3936,-0.427,-8.667,5.371,131.199,33.431,-83.518
13972,-0.6079,0.5400,-0.4385,11.719,4.822,15.015,131.254,33.365,-83.589
13982,-0.5864,0.5933,-0.4976,23.254,16.296,22.583,131.451,33.129,-83.622
13992,-0.5244,0.6792,-0.5835,28.870,23.621,26.733,131.732,32.745,-83.622
14002,-0.4814,0.7803,-0.6709,27.771,23.987,26.184,132.001,32.316,-83.617
14012,-0.4526,0.8394,-0.7261,22.949,19.897,22.461,132.215,31.921,-83.617
14022,-0.4380,0.8633,-0.7451,15.259,14.282,15.930,132.352,31.597,-83.622
14032,-0.4360,0.8477,-0.7280,5.127,7.385,6.531,132.391,31.399,-83.606
14042,-0.4546,0.7930,-0.6768,-5.310,-0.916,-4.272,132.330,31.355,-83.584
14052,-0.4819,0.7383,-0.6265,-14.038,-9.277,-13.916,132.187,31.470,-83.551
14062,-0.5049,0.6958,-0.5972,-18.738,-13.428,-19.409,132.006,31.679,-83.518
14072,-0.5298,0.6699,-0.5703,-19.104,-13.184,-19.043,131.819,31.899,-83.485
14082,-0.5498,0.6362,-0.5474,-13.672,-9.888,-15.747,131.693,32.097,-83.447
14092,-0.5630,0.5840,-0.5293,-5.798,-5.859,-11.597,131.660,32.250,-83.408
14102,-0.5684,0.5420,-0.5200,0.610,-1.709,-7.141,131.710,32.366,-83.364
14112,-0.5742,0.5068,-0.5171,3.906,1.770,-2.808,131.808,32.437,-83.326
14122,-0.5737,0.4839,-0.5083,4.272,4.700,1.038,131.913,32.465,-83.293
14132,-0.5654,0.4775,-0.4956,2.075,7.812,5.249,131.990,32.443,-83.265
14142,-0.5571,0.5215,-0.5156,-0.183,10.925,9.949,132.023,32.344,-83.249
14152,-0.5444,0.5811,-0.5635,0.732,12.756,13.550,132.056,32.179,-83.243
14162,-0.5127,0.6631,-0.6372,3.967,12.756,16.235,132.100,31.943,-83.260
14172,-0.4673,0.7793,-0.7383,6.531,11.719,17.212,132.160,31.657,-83.293
14182,-0.4390,0.8594,-0.8003,8.057,10.498,16.235,132.231,31.355,-83.331
14192,-0.4395,0.8838,-0.8003,7.019,7.019,12.634,132.281,31.102,-83.370
14202,-0.4468,0.8379,-0.7285,2.625,0.671,5.127,132.275,30.970,-83.403
14212,-0.4795,0.7373,-0.6279,-5.188,-8.179,-5.188,132.193,31.014,-83.436
14222,-0.5186,0.6377,-0.5239,-15.076,-16.479,-14.832,132.001,31.245,-83.463
14232,-0.5444,0.5474,-0.4438,-22.156,-21.057,-21.057,131.743,31.608,-83.480
14242,-0.5737,0.4785,-0.3892,-24.109,-21.973,-22.644,131.468,32.031,-83.496
14252,-0.5942,0.4248,-0.3667,-20.325,-18.555,-18.677,131.254,32.437,-83.513
14262,-0.5894,0.4917,-0.4355,-13.489,-10.803,-10.315,131.111,32.679,-83.529
14272,-0.5630,0.6680,-0.5742,-4.333,2.686,1.587,131.072,32.651,-83.518
14282,-0.5410,0.8013,-0.6748,6.592,18.066,12.085,131.160,32.388,-83.447
14292,-0.5088,0.8784,-0.6987,15.625,26.489,16.724,131.347,32.009,-83.342
14302,-0.4922,0.7744,-0.6304,21.301,23.193,14.709,131.583,31.690,-83.254
14312,-0.4932,0.6582,-0.5664,17.822,11.536,7.507,131.776,31.542,-83.210
14322,-0.5083,0.5937,-0.5332,6.470,-1.282,-1.587,131.841,31.569,-83.210
14332,-0.5322,0.5317,-0.5063,-5.249,-12.634,-8.667,131.781,31.761,-83.249
14342,-0.5679,0.5112,-0.4902,-11.963,-20.691,-11.230,131.638,32.047,-83.342
14352,-0.5864,0.5215,-0.4995,-10.620,-21.606,-8.606,131.490,32.327,-83.469
14362,-0.5879,0.5747,-0.5381,-2.441,-15.259,-2.075,131.418,32.487,-83.584
14372,-0.5674,0.6577,-0.5923,8.179,-4.700,6.470,131.457,32.470,-83.677
14382,-0.5396,0.7227,-0.6367,19.958,5.310,13.245,131.622,32.305,-83.738
14392,-0.4980,0.7539,-0.6753,28.564,9.827,15.747,131.885,32.064,-83.771
14402,-0.4590,0.7515,-0.7056,30.090,7.446,13.855,132.177,31.833,-83.815
14412,-0.4473,0.7334,-0.7080,21.912,0.977,8.667,132.380,31.679,-83.875
14422,-0.4512,0.7207,-0.6963,6.958,-5.371,1.587,132.435,31.630,-83.936
14432,-0.4746,0.7080,-0.6548,-8.545,-10.193,-5.981,132.330,31.685,-83.974
14442,-0.5093,0.6724,-0.5859,-19.104,-13.977,-12.207,132.116,31.849,-84.001
14452,-0.5454,0.6167,-0.5171,-22.278,-15.930,-15.442,131.863,32.091,-84.018
14462,-0.5742,0.5728,-0.4575,-19.653,-15.991,-14.832,131.627,32.366,-84.040
14472,-0.5879,0.5190,-0.4165,-11.719,-14.221,-11.597,131.462,32.635,-84.078
14482,-0.5889,0.4951,-0.4263,-2.686,-10.742,-6.226,131.402,32.849,-84.122
14492,-0.5713,0.5513,-0.5107,4.211,-3.418,0.610,131.440,32.910,-84.161
14502,-0.5469,0.6567,-0.6245,8.179,7.385,7.263,131.545,32.789,-84.150
14512,-0.5107,0.7832,-0.7070,9.033,17.944,12.390,131.677,32.509,-84.089
14522,-0.4839,0.8320,-0.7334,8.423,24.597,14.099,131.814,32.157,-83.979
14532,-0.4795,0.7837,-0.6797,6.897,22.461,10.620,131.929,31.855,-83.870
14542,-0.4995,0.6865,-0.5879,1.953,12.146,3.174,131.979,31.723,-83.787
14552,-0.5391,0.5542,-0.5127,-4.272,-1.831,-5.188,131.957,31.811,-83.760
14562,-0.5571,0.5278,-0.5327,-11.475,-13.245,-10.803,131.863,32.025,-83.793
14572,-0.5107,0.7046,-0.7109,-15.747,-14.099,-10.498,131.721,32.146,-83.831
14582,-0.4209,1.1021,-1.0537,-12.207,-0.061,-3.540,131.611,32.173,-83.804
14591,-0.3301,1.3276,-1.1621,-1.099,24.292,5.798,131.688,31.970,-83.639
14601,-0.3340,1.0596,-0.8994,14.038,31.189,7.446,131.946,31.707,-83.419
14611,-0.4199,0.5615,-0.4971,20.630,13.611,-5.066,132.231,31.652,-83.260
14622,-0.5674,0.1963,-0.1846,5.676,-18.250,-24.231,132.308,31.954,-83.227
14631,-0.7124,0.0112,-0.0078,-21.484,-46.814,-40.161,132.045,32.563,-83.320
14641,-0.8335,-0.1035,0.0430,-41.077,-63.843,-46.082,-67.456,33.338,-83.513
14651,-0.8862,-0.1421,0.0264,-48.767,-63.538,-38.147,-67.654,32.739,-82.985
14661,-0.8271,0.0239,-0.1138,-38.391,-42.053,-15.137,168.118,32.437,-82.595
14672,-0.6919,0.4517,-0.4351,-16.235,-3.296,18.188,167.844,32.437,-82.815
14682,-0.5410,0.8721,-0.7603,13.916,40.527,51.270,167.717,31.932,-83.304
14692,-0.4502,1.2168,-0.9839,40.710,68.237,72.693,167.772,31.108,-83.969
14701,-0.3340,1.4434,-1.0356,65.430,72.693,74.402,168.080,30.240,-84.639
14711,-0.2192,1.3140,-0.9780,87.341,64.819,63.354,168.668,29.476,-85.204
14721,-0.2080,1.0679,-0.8735,76.050,37.170,44.189,169.228,29.026,-85.616
14731,-0.2690,0.9282,-0.7549,29.785,-2.869,15.991,169.431,29.020,-85.803
14741,-0.3608,0.8765,-0.6357,-22.644,-35.339,-17.822,169.266,29.405,-85.677
14752,-0.4600,0.7964,-0.5342,-55.237,-47.974,-46.021,168.920,29.960,-85.259
14762,-0.5742,0.6362,-0.4448,-66.650,-49.316,-60.608,168.541,30.558,-84.683
14772,-0.6455,0.4404,-0.3760,-57.800,-48.401,-63.721,168.278,31.163,-84.067
14782,-0.6924,0.3105,-0.3462,-38.818,-42.114,-55.664,168.168,31.685,-83.535
14792,-0.6978,0.2485,-0.3232,-18.066,-28.137,-39.124,168.184,32.042,-83.150
14802,-0.7026,0.2061,-0.2988,0.977,-11.780,-19.226,168.300,32.195,-82.958
14812,-0.7070,0.2100,-0.2939,13.916,6.348,0.854,168.442,32.135,-82.952
14822,-0.6890,0.2407,-0.3535,22.827,24.536,18.921,168.585,31.855,-83.112
14832,-0.6221,0.4048,-0.5073,21.729,37.231,32.288,168.651,31.426,-83.397
14842,-0.5718,0.5620,-0.6445,21.362,43.884,39.795,168.679,30.916,-83.754
14852,-0.5234,0.6953,-0.7271,20.325,46.326,42.358,168.690,30.383,-84.133
14862,-0.4497,0.8213,-0.8062,18.555,45.715,39.551,168.695,29.855,-84.479
14871,-0.3457,0.9902,-0.8887,14.099,38.757,31.860,168.701,29.410,-84.749
14881,-0.3135,1.0781,-0.8955,7.080,25.330,21.667,168.684,29.119,-84.935
14891,-0.3296,1.0327,-0.8130,-0.183,8.545,9.766,168.635,29.020,-85.029
14902,-0.3862,0.8857,-0.6831,-6.897,-7.507,-2.869,168.574,29.097,-85.012
14912,-0.4536,0.7573,-0.5723,-15.137,-19.470,-13.794,168.475,29.317,-84.902
14922,-0.5166,0.6631,-0.5029,-21.179,-26.672,-21.240,168.354,29.619,-84.727
14932,-0.5854,0.5425,-0.4399,-21.729,-29.419,-24.170,168.234,29.954,-84.518
14942,-0.6377,0.3916,-0.3765,-16.724,-27.527,-23.010,168.168,30.273,-84.326
14952,-0.6567,0.3169,-0.3364,-11.719,-20.264,-16.968,168.124,30.504,-84.183
14962,-0.6743,0.2891,-0.3252,-6.226,-9.338,-7.202,168.091,30.613,-84.122
14972,-0.6606,0.3506,-0.3862,-0.977,2.441,4.456,168.058,30.580,-84.166
14982,-0.5845,0.5732,-0.5259,4.822,17.456,17.395,168.025,30.372,-84.320
14992,-0.5293,0.7695,-0.6665,11.353,33.325,30.090,168.008,29.982,-84.584
15002,-0.4502,0.9648,-0.7949,19.348,41.992,36.438,168.047,29.498,-84.891
15012,-0.3784,1.0493,-0.8735,28.503,42.053,34.790,168.190,29.015,-85.182
15021,-0.3286,1.0220,-0.8643,32.410,34.668,26.794,168.404,28.619,-85.402
15031,-0.3203,0.9292,-0.8047,27.405,19.470,13.855,168.629,28.400,-85.512
15042,-0.3633,0.7871,-0.7109,13.184,-0.061,-2.136,168.772,28.405,-85.490
15052,-0.4331,0.6499,-0.5952,-6.104,-19.104,-18.127,168.783,28.630,-85.331
15062,-0.5054,0.5723,-0.5171,-23.437,-30.762,-29.236,168.673,28.987,-85.073
15072,-0.5684,0.5312,-0.4766,-33.997,-33.081,-33.020,168.475,29.377,-84.776
15082,-0.6045,0.4897,-0.4434,-35.156,-27.710,-30.457,168.261,29.707,-84.496
15092,-0.6196,0.4189,-0.4072,-28.748,-18.311,-24.353,168.091,29.938,-84.265
15102,-0.6250,0.4141,-0.3940,-17.395,-6.042,-14.526,167.992,30.026,-84.117
15112,-0.6406,0.4204,-0.4121,-4.761,8.362,-1.343,167.959,29.949,-84.078
15122,-0.6191,0.4312,-0.4512,6.409,21.484,11.047,167.986,29.713,-84.155
15132,-0.5835,0.4897,-0.5156,14.526,31.189,21.118,168.052,29.366,-84.315
15142,-0.5205,0.6455,-0.6216,17.090,38.391,28.748,168.113,28.932,-84.545
15152,-0.4546,0.8022,-0.7417,19.531,43.884,33.203,168.179,28.433,-84.814
15162,-0.3794,0.9648,-0.8413,19.775,44.434,32.593,168.250,27.933,-85.073
15172,-0.3271,1.0239,-0.8657,20.874,39.734,27.100,168.360,27.488,-85.281
15182,-0.3076,0.9663,-0.8408,19.165,29.358,16.846,168.497,27.164,-85.402
15192,-0.3267,0.8853,-0.7896,10.315,14.282,3.296,168.602,27.021,-85.408
15202,-0.3838,0.8115,-0.7163,-3.357,-1.160,-9.827,168.613,27.048,-85.303
15212,-0.4468,0.7070,-0.6304,-16.174,-13.306,-19.958,168.168,27.202,-85.111
15222,-0.5049,0.5957,-0.5239,-24.902,-20.630,-25.330,167.662,27.504,-84.880
15232,-0.5630,0.4990,-0.4336,-27.405,-22.217,-25.330,167.124,27.900,-84.655
15242,-0.5972,0.4380,-0.3892,-23.560,-17.578,-21.057,166.624,28.295,-84.468
15252,-0.6177,0.4180,-0.3828,-14.465,-9.216,-13.794,166.201,28.608,-84.337
15262,-0.6289,0.4175,-0.4058,-2.441,0.427,-3.784,165.877,28.795,-84.298
15272,-0.6143,0.4409,-0.4399,8.728,9.705,7.019,165.630,28.845,-84.348
15282,-0.5918,0.4624,-0.4844,17.273,16.602,16.541,165.443,28.773,-84.485
15292,-0.5444,0.5405,-0.5522,20.935,20.142,23.315,165.256,28.586,-84.683
15302,-0.4863,0.6792,-0.6646,21.423,20.691,26.794,165.048,28.306,-84.919
15312,-0.4150,0.8516,-0.7876,20.142,20.508,27.710,164.811,27.949,-85.161
15322,-0.3540,0.9814,-0.8794,18.616,20.813,25.513,164.564,27.559,-85.380
15332,-0.3110,1.0449,-0.9097,16.418,21.912,19.409,164.323,27.147,-85.523
15342,-0.3037,0.9985,-0.8613,12.573,19.531,8.362,164.097,26.796,-85.556
15352,-0.3286,0.9038,-0.7568,4.333,9.766,-4.883,163.839,26.603,-85.474
15362,-0.3921,0.7954,-0.6416,-7.080,-4.517,-16.602,163.488,26.636,-85.309
15372,-0.4595,0.6733,-0.5508,-17.761,-16.602,-24.902,163.065,26.878,-85.095
15382,-0.5249,0.5542,-0.4644,-25.940,-23.315,-28.809,162.581,27.274,-84.858
15392,-0.5781,0.4673,-0.3999,-28.992,-22.644,-27.954,162.076,27.729,-84.639
15402,-0.6143,0.3906,-0.3594,-23.926,-15.137,-22.339,161.631,28.152,-84.446
15412,-0.6426,0.3184,-0.3394,-12.146,-5.554,-13.367,161.323,28.510,-84.326
15422,-0.6387,0.3071,-0.3418,0.549,3.357,-1.465,161.109,28.740,-84.298
15432,-0.6221,0.3330,-0.3823,14.038,10.254,11.292,160.988,28.828,-84.380
15442,-0.5820,0.4038,-0.4717,25.757,16.113,23.926,160.928,28.746,-84.578
15452,-0.5283,0.5347,-0.6152,32.715,19.653,33.447,160.900,28.493,-84.864
15462,-0.4570,0.7114,-0.7676,34.180,22.217,38.208,160.845,28.114,-85.193
15472,-0.3965,0.8247,-0.8789,33.813,24.536,37.415,160.796,27.664,-85.507
15482,-0.3516,0.8804,-0.9268,30.457,22.644,31.128,160.741,27.230,-85.754
15492,-0.3232,0.8867,-0.9268,22.522,15.137,20.935,160.642,26.889,-85.919
15502,-0.3081,0.8271,-0.8608,11.108,2.441,8.911,160.466,26.708,-86.001
15512,-0.3198,0.7744,-0.7622,-2.441,-13.306,-2.441,160.175,26.741,-86.028
15522,-0.3643,0.7583,-0.6953,-12.329,-25.146,-9.277,159.774,26.933,-86.023
15532,-0.4106,0.7485,-0.6548,-14.954,-29.968,-11.963,159.346,27.208,-86.017
15542,-0.4487,0.7261,-0.6250,-11.963,-28.748,-12.146,158.950,27.493,-86.001
15552,-0.4771,0.6890,-0.6040,-5.798,-23.499,-10.742,158.621,27.751,-85.984
15562,-0.4927,0.6387,-0.5684,-0.061,-17.700,-8.972,158.362,27.966,-85.963
15572,-0.5039,0.5815,-0.5278,2.563,-13.794,-7.446,158.137,28.169,-85.941
15582,-0.5244,0.5708,-0.5205,1.831,-10.559,-5.920,157.906,28.350,-85.924
15592,-0.5264,0.6035,-0.5400,-2.136,-6.165,-3.479,157.626,28.466,-85.913
15602,-0.5200,0.6294,-0.5718,-3.479,-2.075,-1.343,157.341,28.515,-85.908
15612,-0.5088,0.6460,-0.5840,-4.211,0.610,-0.244,157.050,28.531,-85.902
15622,-0.5015,0.6567,-0.5903,-3.662,1.160,-0.916,156.769,28.537,-85.886
15632,-0.4980,0.6729,-0.5981,-2.808,1.099,-2.747,156.506,28.537,-85.853
15642,-0.4927,0.6724,-0.6030,-1.526,1.221,-4.395,156.270,28.548,-85.803
15652,-0.4829,0.6455,-0.6016,-1.343,0.793,-5.737,156.055,28.564,-85.737
15662,-0.4844,0.6289,-0.6030,-3.479,-1.160,-6.897,155.830,28.608,-85.671
15672,-0.4888,0.6084,-0.6040,-6.287,-5.554,-8.057,155.583,28.702,-85.616
15682,-0.4893,0.6133,-0.6138,-9.094,-12.268,-8.484,155.303,28.856,-85.583
15692,-0.4941,0.6250,-0.6270,-10.193,-18.188,-7.507,154.995,29.053,-85.594
15702,-0.5020,0.6538,-0.6387,-8.484,-21.301,-5.066,154.677,29.262,-85.644
15712,-0.5063,0.6631,-0.6406,-3.357,-20.508,-1.953,154.402,29.449,-85.726
15722,-0.5068,0.6304,-0.6182,3.479,-18.372,0.488,154.188,29.614,-85.820
15732,-0.4897,0.6479,-0.6323,7.690,-16.418,2.075,154.017,29.740,-85.924
15742,-0.4731,0.6792,-0.6641,9.155,-12.390,3.662,153.858,29.800,-86.023
15752,-0.4639,0.7148,-0.6924,8.667,-7.629,4.517,153.704,29.800,-86.111
15762,-0.4175,0.8325,-0.7671,5.249,-3.662,3.906,153.517,29.724,-86.171
15772,-0.4038,0.8853,-0.7861,2.869,-1.648,2.136,153.314,29.619,-86.199
15782,-0.4194,0.8481,-0.7261,1.038,-4.272,-1.953,153.094,29.575,-86.204
15792,-0.4673,0.6938,-0.5732,-1.892,-12.024,-8.789,152.853,29.696,-86.177
15802,-0.5459,0.4390,-0.3755,-7.080,-23.804,-16.724,152.584,30.119,-86.127
15812,-0.6138,0.2949,-0.2490,-16.724,-32.471,-22.156,152.221,30.784,-86.072
15822,-0.6704,0.2622,-0.2139,-23.254,-33.691,-21.057,151.776,31.503,-86.039
15832,-0.6729,0.3169,-0.2744,-20.447,-25.757,-13.245,151.364,32.053,-86.045
15842,-0.6323,0.4927,-0.4219,-9.888,-7.202,1.770,151.024,32.228,-86.105
15852,-0.5552,0.7051,-0.6108,6.592,17.090,19.714,150.831,31.976,-86.210
15862,-0.4507,1.0239,-0.8750,23.437,37.903,33.264,150.798,31.349,-86.336
15872,-0.3320,1.3042,-1.0991,39.246,47.485,36.743,151.133,30.756,-86.440
15882,-0.2568,1.3213,-1.1353,52.429,39.246,29.236,151.622,30.273,-86.517
15891,-0.2251,1.1099,-1.0054,50.537,16.296,13.062,152.106,30.064,-86.561
15902,-0.2856,0.7471,-0.7354,25.513,-16.724,-9.583,152.364,30.256,-86.556
15912,-0.4209,0.4780,-0.4805,-15.747,-48.401,-34.546,152.254,30.850,-86.457
15922,-0.5649,0.3984,-0.3457,-53.101,-61.096,-52.612,151.831,31.635,-86.248
15932,-0.6807,0.3750,-0.2876,-69.214,-57.312,-58.167,151.287,32.415,-85.963
15942,-0.7485,0.3062,-0.2319,-63.721,-44.983,-51.392,150.798,33.052,-85.688
15952,-0.7651,0.2432,-0.1909,-41.443,-24.780,-33.569,150.496,33.437,-85.479
15962,-0.7480,0.1958,-0.1924,-12.207,-0.732,-10.986,150.436,33.497,-85.369
15972,-0.6992,0.2217,-0.2959,17.273,20.630,10.376,150.617,33.267,-85.358
15982,-0.6240,0.3945,-0.4961,35.156,33.630,26.489,150.925,32.844,-85.435
15992,-0.5635,0.5967,-0.6802,41.565,37.781,37.048,151.249,32.333,-85.600
16002,-0.4937,0.7754,-0.8247,39.001,38.025,41.443,151.523,31.800,-85.814
16012,-0.3813,0.9946,-1.0093,29.053,34.973,37.292,151.716,31.311,-86.006
16022,-0.2856,1.1523,-1.1030,16.418,28.992,26.489,151.820,30.932,-86.116
16032,-0.2617,1.1353,-1.0557,4.028,16.479,10.986,151.848,30.734,-86.138
16042,-0.2842,1.0430,-0.9341,-9.094,-1.343,-7.324,151.793,30.784,-86.072
16052,-0.4536,0.6416,-0.4995,-32.898,-35.645,-36.926,151.556,31.273,-85.891
16062,-0.5547,0.5049,-0.3662,-39.185,-43.396,-42.664,151.271,31.855,-85.693
16072,-0.6235,0.4048,-0.2993,-38.879,-39.368,-40.466,150.985,32.393,-85.496
16082,-0.6748,0.2983,-0.2314,-32.959,-28.320,-32.410,150.743,32.800,-85.325
16092,-0.7148,0.2310,-0.1792,-22.156,-13.062,-19.958,150.595,33.014,-85.193
16102,-0.7153,0.2026,-0.1602,-6.042,4.761,-4.822,150.579,32.992,-85.117
16112,-0.7153,0.2256,-0.2051,7.874,20.020,11.536,150.656,32.761,-85.117
16122,-0.6548,0.4062,-0.3906,20.691,33.325,26.611,150.820,32.344,-85.199
16132,-0.5557,0.7227,-0.6899,28.137,46.326,39.001,151.029,31.745,-85.336
16142,-0.4678,1.0278,-0.9517,33.936,56.702,46.875,151.282,31.025,-85.496
16152,-0.3711,1.1982,-1.0928,40.100,60.547,47.058,151.611,30.267,-85.633
16162,-0.2725,1.2202,-1.1431,43.579,56.641,37.903,152.007,29.586,-85.710
16172,-0.2153,1.1470,-1.1196,38.025,45.349,21.912,152.397,29.086,-85.688
16182,-0.2417,0.9492,-0.9521,20.264,23.621,3.235,152.644,28.861,-85.594
16192,-0.3657,0.6772,-0.6729,-8.057,-4.883,-16.113,152.633,28.976,-85.457
16202,-0.5088,0.4487,-0.4214,-38.269,-27.527,-32.043,152.336,29.372,-85.276
16212,-0.6294,0.3228,-0.2803,-57.129,-37.903,-39.368,151.864,29.888,-85.078
16222,-0.7002,0.2495,-0.2192,-57.861,-35.034,-37.415,151.381,30.372,-84.886
16232,-0.7300,0.1714,-0.2012,-41.504,-21.912,-26.001,151.035,30.690,-84.743
16242,-0.7012,0.1660,-0.2109,-15.625,-2.625,-7.446,150.914,30.751,-84.683
16252,-0.6567,0.1938,-0.2852,15.015,18.005,14.587,151.040,30.520,-84.732
16262,-0.5581,0.4170,-0.5151,34.607,35.217,37.048,151.293,30.031,-84.908
16272,-0.4272,0.7808,-0.8442,46.448,45.959,52.856,151.617,29.377,-85.188
