elapsed_ms,acc_x_g,acc_y_g,acc_z_g,gyro_x_dps,gyro_y_dps,gyro_z_dps,angle_x_deg,angle_y_deg,angle_z_deg
0,-0.3516,0.4878,-0.8096,-0.061,2.014,1.404,148.760,20.056,-106.573
9,-0.3540,0.4805,-0.8003,-0.488,2.319,1.465,148.760,20.034,-106.573
19,-0.3564,0.4858,-0.8027,-1.099,2.563,1.221,148.749,20.017,-106.567
29,-0.3535,0.4873,-0.8066,-1.648,3.113,1.221,148.738,19.990,-106.562
39,-0.3657,0.4761,-0.7988,-1.770,3.845,1.343,148.727,19.962,-106.556
49,-0.3564,0.4946,-0.8081,-2.319,4.211,1.526,148.705,19.924,-106.545
59,-0.3569,0.4814,-0.8081,-1.465,4.211,2.197,148.700,19.885,-106.540
69,-0.3496,0.5005,-0.8164,-0.854,4.395,2.869,148.689,19.836,-106.545
79,-0.3496,0.4941,-0.8198,0.427,4.761,3.357,148.694,19.781,-106.551
89,-0.3379,0.5068,-0.8276,0.854,5.127,3.662,148.700,19.715,-106.551
99,-0.3296,0.5142,-0.8354,1.526,5.310,3.784,148.705,19.638,-106.556
109,-0.3276,0.5151,-0.8423,2.014,4.944,3.601,148.722,19.567,-106.562
119,-0.3257,0.5190,-0.8481,1.892,4.089,2.991,148.738,19.501,-106.567
129,-0.3252,0.5171,-0.8501,1.099,3.418,2.258,148.749,19.446,-106.567
139,-0.3267,0.5181,-0.8481,0.671,2.991,1.892,148.755,19.402,-106.573
149,-0.3242,0.5093,-0.8374,0.244,2.197,2.075,148.755,19.358,-106.578
159,-0.3237,0.5049,-0.8267,-0.427,1.465,1.831,148.744,19.330,-106.584
169,-0.3291,0.5034,-0.8237,-1.038,0.732,1.282,148.727,19.308,-106.595
179,-0.3359,0.5015,-0.8213,-0.732,0.183,1.343,148.716,19.303,-106.606
189,-0.3345,0.4941,-0.8174,-0.244,0.305,2.075,148.711,19.286,-106.622
199,-0.3330,0.4854,-0.8174,0.305,1.038,2.747,148.711,19.265,-106.639
209,-0.3281,0.4824,-0.8198,0.854,1.892,3.235,148.722,19.232,-106.661
219,-0.3301,0.4697,-0.8081,1.465,2.747,3.540,148.744,19.193,-106.677
229,-0.3496,0.4360,-0.7905,1.221,2.747,3.540,148.777,19.171,-106.694
239,-0.3545,0.4390,-0.7788,-0.671,2.258,3.540,148.777,19.155,-106.716
249,-0.3545,0.4531,-0.7773,-2.380,1.831,4.395,148.755,19.144,-106.743
259,-0.3452,0.4800,-0.7964,-2.625,2.869,5.859,148.722,19.100,-106.782
269,-0.3203,0.5361,-0.8530,0.000,6.226,7.507,148.700,18.995,-106.815
279,-0.2920,0.5859,-0.9170,6.042,11.841,9.094,148.744,18.809,-106.831
289,-0.2661,0.5957,-0.9653,12.451,17.578,10.071,148.865,18.550,-106.826
299,-0.2563,0.5869,-0.9565,15.564,20.447,10.010,149.019,18.270,-106.804
309,-0.2910,0.5010,-0.8530,13.367,15.015,7.690,149.161,18.083,-106.793
319,-0.3345,0.4229,-0.7510,3.967,0.366,2.808,149.205,18.100,-106.815
329,-0.3774,0.4126,-0.6958,-9.033,-17.212,-2.502,149.095,18.325,-106.886
339,-0.3984,0.4067,-0.6528,-17.639,-30.334,-5.981,148.876,18.704,-106.996
349,-0.4209,0.4302,-0.6255,-21.423,-34.546,-6.653,148.590,19.133,-107.122
359,-0.4272,0.4771,-0.6455,-17.700,-29.541,-3.479,148.321,19.490,-107.254
369,-0.4082,0.5205,-0.7100,-5.676,-15.930,3.540,148.184,19.660,-107.375
379,-0.3643,0.5557,-0.7920,12.329,3.540,12.085,148.239,19.578,-107.468
389,-0.3179,0.5576,-0.8657,32.654,23.987,18.250,148.546,19.259,-107.496
399,-0.2871,0.5322,-0.9131,47.058,37.903,20.569,149.030,18.792,-107.474
409,-0.2812,0.4814,-0.9131,49.866,39.978,18.799,149.568,18.320,-107.424
419,-0.2842,0.4380,-0.9141,42.542,29.358,13.123,150.051,17.979,-107.391
429,-0.2915,0.4204,-0.9277,24.658,11.108,5.981,150.353,17.831,-107.386
439,-0.2949,0.4453,-0.9399,1.953,-6.958,-0.671,150.403,17.875,-107.413
449,-0.2939,0.4907,-0.9478,-18.494,-18.250,-5.920,150.233,18.034,-107.457
459,-0.2915,0.5601,-0.9536,-31.372,-21.179,-9.216,149.908,18.232,-107.479
469,-0.2964,0.5923,-0.9297,-33.447,-17.151,-9.888,149.551,18.397,-107.485
479,-0.3125,0.5640,-0.8394,-28.137,-12.085,-8.362,149.244,18.528,-107.468
489,-0.3320,0.4932,-0.7417,-20.386,-11.047,-7.324,149.013,18.677,-107.463
500,-0.3691,0.4062,-0.6519,-14.954,-16.113,-8.301,148.854,18.929,-107.479
509,-0.3872,0.3555,-0.6191,-15.869,-24.658,-10.071,148.694,19.281,-107.518
519,-0.3535,0.4380,-0.7300,-20.569,-30.273,-10.315,148.469,19.627,-107.595
529,-0.3164,0.5635,-0.8975,-19.592,-23.132,-6.104,148.244,19.819,-107.666
539,-0.2871,0.6660,-1.0088,-10.376,-3.418,1.648,148.112,19.775,-107.699
549,-0.2715,0.6709,-0.9980,3.235,20.203,8.240,148.140,19.495,-107.661
559,-0.3013,0.5820,-0.8838,14.771,33.325,10.010,148.304,19.127,-107.567
569,-0.3408,0.4946,-0.7642,16.724,28.442,4.761,148.491,18.875,-107.452
579,-0.3877,0.4185,-0.6851,10.864,9.705,-2.197,148.623,18.875,-107.375
589,-0.4062,0.4058,-0.6489,1.953,-12.817,-6.531,148.634,19.105,-107.386
599,-0.3955,0.4126,-0.6753,-2.258,-29.785,-7.874,148.579,19.473,-107.479
609,-0.3501,0.5117,-0.8140,-3.113,-31.372,-5.066,148.502,19.770,-107.611
619,-0.2969,0.6123,-0.9683,2.014,-14.404,1.221,148.480,19.830,-107.699
629,-0.2524,0.6533,-1.0391,13.062,14.160,8.057,148.607,19.589,-107.693
639,-0.2305,0.6475,-1.0317,22.888,38.818,12.756,148.859,19.105,-107.595
649,-0.2241,0.5967,-0.9849,28.625,49.744,12.939,149.194,18.539,-107.441
659,-0.2524,0.4995,-0.8950,28.381,43.579,8.484,149.540,18.078,-107.281
669,-0.2969,0.4233,-0.8257,18.921,21.851,0.610,149.793,17.886,-107.172
679,-0.3398,0.4004,-0.7744,4.028,-6.836,-7.019,149.870,18.012,-107.144
689,-0.3696,0.3916,-0.7554,-8.301,-31.921,-12.024,149.799,18.402,-107.205
699,-0.3843,0.4282,-0.7710,-14.343,-44.067,-13.306,149.634,18.896,-107.314
709,-0.3882,0.4575,-0.8062,-12.634,-41.077,-10.559,149.474,19.336,-107.435
719,-0.3765,0.4766,-0.8286,-4.822,-26.123,-4.395,149.403,19.605,-107.540
729,-0.3516,0.4678,-0.8428,6.226,-6.775,1.831,149.458,19.655,-107.589
739,-0.3257,0.4458,-0.8467,15.015,8.667,5.676,149.634,19.545,-107.595
749,-0.3057,0.4229,-0.8530,16.846,15.442,7.019,149.848,19.363,-107.578
759,-0.2979,0.4082,-0.8589,11.536,13.489,6.104,150.013,19.193,-107.562
769,-0.3066,0.4199,-0.8540,1.770,5.554,3.723,150.068,19.116,-107.567
779,-0.3188,0.4570,-0.8584,-8.179,-2.991,1.465,149.996,19.127,-107.595
789,-0.3086,0.5244,-0.9053,-13.977,-7.385,0.854,149.843,19.155,-107.644
799,-0.3076,0.5454,-0.9058,-12.268,-5.615,1.404,149.700,19.171,-107.688
809,-0.3247,0.5146,-0.8447,-6.775,-2.625,1.282,149.612,19.177,-107.710
819,-0.3413,0.4702,-0.7788,-3.113,-3.723,0.366,149.568,19.221,-107.737
829,-0.3721,0.4224,-0.7085,-3.540,-9.766,0.427,149.507,19.352,-107.792
839,-0.3867,0.4224,-0.6860,-6.592,-16.907,1.953,149.398,19.550,-107.902
849,-0.3755,0.4663,-0.7402,-5.981,-18.677,4.395,149.277,19.720,-108.040
859,-0.3579,0.5020,-0.7983,-1.221,-12.268,8.118,149.200,19.797,-108.182
869,-0.3247,0.5430,-0.8770,5.249,0.366,11.108,149.211,19.715,-108.281
879,-0.3013,0.5439,-0.9287,11.780,14.832,11.597,149.321,19.490,-108.309
889,-0.3057,0.5142,-0.8989,12.878,22.705,10.620,149.469,19.210,-108.281
899,-0.3135,0.4844,-0.8735,9.338,20.752,7.935,149.590,18.973,-108.243
909,-0.3306,0.4736,-0.8354,2.625,11.475,4.883,149.628,18.853,-108.226
919,-0.3633,0.4619,-0.7817,-4.761,-2.563,2.930,149.568,18.891,-108.265
929,-0.3623,0.4956,-0.7881,-8.911,-13.916,2.380,149.431,19.023,-108.358
939,-0.3545,0.5146,-0.8188,-6.409,-17.456,2.869,149.310,19.166,-108.479
949,-0.3369,0.5288,-0.8452,-1.221,-11.963,3.906,149.255,19.243,-108.583
959,-0.3242,0.5098,-0.8521,4.272,-2.747,4.700,149.277,19.232,-108.638
969,-0.2949,0.5303,-0.8799,7.263,5.249,5.249,149.337,19.127,-108.660
979,-0.2871,0.5239,-0.8794,8.118,9.277,5.920,149.414,18.984,-108.660
989,-0.3193,0.4790,-0.7920,5.615,6.958,6.104,149.458,18.896,-108.682
1000,-0.3643,0.4365,-0.7275,0.671,-2.136,3.784,149.447,18.935,-108.726
1009,-0.3828,0.4424,-0.7144,-5.676,-12.207,0.549,149.359,19.094,-108.798
1019,-0.3779,0.4736,-0.7544,-9.094,-17.029,-0.977,149.227,19.281,-108.880
1029,-0.3564,0.5254,-0.8198,-7.324,-12.756,0.122,149.112,19.402,-108.951
1039,-0.3315,0.5532,-0.8716,-0.305,-1.221,3.235,149.079,19.380,-108.984
1049,-0.3149,0.5479,-0.8989,8.240,11.353,6.042,149.161,19.226,-108.979
1059,-0.2876,0.5693,-0.9360,14.099,20.203,7.263,149.310,18.968,-108.935
1069,-0.2935,0.5347,-0.9092,15.869,21.301,7.568,149.485,18.715,-108.891
1079,-0.3105,0.4980,-0.8525,12.695,13.062,5.493,149.617,18.567,-108.869
1089,-0.3306,0.4795,-0.8140,6.348,-1.587,1.099,149.672,18.578,-108.885
1099,-0.3452,0.4863,-0.7861,-0.732,-15.442,-1.770,149.628,18.737,-108.951
1109,-0.3398,0.5034,-0.8008,-4.211,-23.437,-3.418,149.540,18.968,-109.050
1119,-0.3374,0.5156,-0.8096,-3.601,-22.095,-3.723,149.458,19.177,-109.133
1129,-0.3179,0.5630,-0.8667,0.061,-13.367,-2.625,149.420,19.286,-109.182
1139,-0.2925,0.5796,-0.9082,6.531,0.916,-0.549,149.469,19.237,-109.171
1149,-0.3071,0.5273,-0.8569,12.146,12.207,0.549,149.595,19.111,-109.111
1159,-0.3340,0.4717,-0.7817,12.146,13.733,-0.793,149.738,19.006,-109.028
1169,-0.3774,0.3853,-0.6816,8.057,4.150,-4.211,149.843,19.061,-108.968
1179,-0.4263,0.3193,-0.5850,-1.648,-13.123,-7.507,149.843,19.341,-108.968
1189,-0.4082,0.3276,-0.6416,-11.780,-27.649,-10.376,149.738,19.731,-109.023
1199,-0.3496,0.4448,-0.8315,-18.311,-26.001,-9.644,149.562,20.012,-109.072
1209,-0.3066,0.5820,-0.9800,-17.517,-7.080,-3.296,149.381,20.039,-109.078
1219,-0.2578,0.6284,-1.0420,-6.531,21.301,5.188,149.337,19.748,-109.012
1229,-0.2461,0.6152,-1.0005,5.066,44.983,11.230,149.425,19.232,-108.869
1239,-0.2603,0.5615,-0.9136,12.512,52.246,10.986,149.595,18.677,-108.688
1249,-0.3047,0.4521,-0.8198,13.794,39.795,4.700,149.804,18.303,-108.517
1259,-0.3398,0.4072,-0.7861,6.775,12.634,-3.052,149.925,18.237,-108.424
1269,-0.3560,0.4395,-0.7891,-2.136,-15.381,-6.897,149.908,18.435,-108.446
1279,-0.3584,0.4512,-0.7920,-4.028,-34.485,-7.507,149.837,18.798,-108.556
1289,-0.3540,0.4780,-0.8232,-0.916,-38.635,-5.005,149.777,19.171,-108.715
1299,-0.3398,0.4878,-0.8765,6.836,-29.236,-0.916,149.810,19.424,-108.864
1309,-0.3066,0.4946,-0.9106,15.015,-11.414,3.052,149.947,19.473,-108.951
1319,-0.2847,0.4849,-0.9248,20.020,5.676,5.432,150.161,19.358,-108.973
1329,-0.2852,0.4731,-0.9033,19.043,15.076,5.981,150.381,19.160,-108.946
1339,-0.3032,0.4507,-0.8628,12.512,13.855,4.944,150.535,19.001,-108.918
1349,-0.3203,0.4507,-0.8354,3.784,4.517,2.319,150.584,18.946,-108.918
1359,-0.3481,0.4502,-0.8076,-3.967,-7.263,-0.305,150.535,19.028,-108.951
1369,-0.3691,0.4663,-0.7939,-8.911,-15.991,-1.465,150.414,19.199,-109.023
1379,-0.3740,0.4795,-0.8003,-8.240,-18.005,-1.465,150.293,19.385,-109.105
1389,-0.3677,0.4985,-0.8232,-3.601,-13.245,-0.366,150.222,19.517,-109.171
1399,-0.3491,0.5166,-0.8545,2.625,-4.578,1.282,150.222,19.550,-109.204
1409,-0.3359,0.5151,-0.8667,8.179,4.089,2.502,150.293,19.490,-109.210
1419,-0.3413,0.4868,-0.8340,10.315,8.240,2.625,150.397,19.407,-109.188
1429,-0.3545,0.4336,-0.7661,7.446,5.371,1.404,150.474,19.380,-109.171
1439,-0.3857,0.3716,-0.6919,0.061,-3.967,-1.465,150.485,19.490,-109.182
1449,-0.3843,0.3965,-0.7114,-10.742,-12.756,-4.211,150.375,19.677,-109.210
1459,-0.3555,0.4604,-0.7983,-17.456,-13.123,-5.066,150.189,19.830,-109.232
1469,-0.3315,0.5308,-0.8789,-17.273,-2.258,-2.563,150.007,19.841,-109.221
1479,-0.2983,0.5703,-0.9434,-9.766,15.503,0.916,149.925,19.655,-109.144
1489,-0.2998,0.5371,-0.8979,-2.136,30.396,3.906,149.941,19.341,-109.017
1500,-0.3437,0.4399,-0.7637,0.488,31.677,3.967,149.991,19.067,-108.885
1509,-0.3765,0.3721,-0.6860,-0.732,18.555,1.038,150.024,18.973,-108.798
1519,-0.3799,0.3853,-0.6973,-5.188,0.061,-0.671,149.985,19.039,-108.792
1529,-0.3667,0.4326,-0.7764,-8.362,-13.062,1.038,149.886,19.182,-108.869
1539,-0.3242,0.5356,-0.9028,-5.432,-10.681,5.615,149.793,19.226,-108.979
1549,-0.2905,0.5752,-0.9668,3.052,4.211,10.681,149.793,19.089,-109.056
1559,-0.2681,0.5806,-0.9702,11.230,20.325,12.817,149.892,18.792,-109.061
1569,-0.2534,0.5615,-0.9761,15.747,28.809,11.963,150.068,18.424,-109.017
1579,-0.2471,0.5332,-0.9683,15.198,27.222,8.606,150.249,18.089,-108.957
1589,-0.2637,0.5044,-0.9419,9.583,16.785,4.150,150.375,17.886,-108.907
1599,-0.2837,0.4985,-0.9063,1.953,1.648,-0.183,150.403,17.847,-108.896
1609,-0.3076,0.4980,-0.8701,-3.357,-12.756,-3.235,150.359,17.963,-108.929
1619,-0.3081,0.5156,-0.8687,-5.859,-22.644,-4.089,150.266,18.166,-109.012
1629,-0.3057,0.5186,-0.8721,-3.967,-24.780,-4.211,150.189,18.386,-109.105
1639,-0.3208,0.4971,-0.8364,-0.916,-21.667,-4.089,150.145,18.594,-109.177
1649,-0.3247,0.4849,-0.8052,0.916,-16.968,-4.639,150.128,18.765,-109.226
1659,-0.3472,0.4448,-0.7407,1.282,-13.550,-5.005,150.123,18.935,-109.254
1669,-0.3789,0.4082,-0.6724,-0.854,-13.367,-5.188,150.090,19.144,-109.276
1679,-0.3965,0.3955,-0.6396,-3.357,-14.771,-5.005,150.029,19.385,-109.308
1689,-0.4238,0.3701,-0.6108,-3.784,-16.235,-3.845,149.963,19.655,-109.358
1699,-0.3994,0.4263,-0.7036,-3.296,-13.672,-1.831,149.897,19.841,-109.413
1709,-0.3555,0.4907,-0.8247,-0.488,-1.953,1.892,149.881,19.858,-109.440
1719,-0.3330,0.5186,-0.8828,2.380,15.686,5.859,149.908,19.677,-109.413
1729,-0.2871,0.5840,-0.9463,3.906,32.349,7.568,149.969,19.308,-109.308
1739,-0.2661,0.5801,-0.9653,6.836,42.969,7.141,150.079,18.842,-109.144
1749,-0.2783,0.5435,-0.9150,6.653,41.809,4.089,150.194,18.424,-108.962
1759,-0.2998,0.5117,-0.8613,3.784,29.297,-1.709,150.276,18.160,-108.792
1769,-0.3496,0.4351,-0.7793,-0.732,8.179,-7.568,150.309,18.160,-108.682
1779,-0.3721,0.4126,-0.7329,-8.423,-14.099,-11.414,150.238,18.397,-108.649
1789,-0.3857,0.3882,-0.7280,-11.658,-28.870,-13.306,150.128,18.776,-108.682
1799,-0.3853,0.4067,-0.7666,-11.963,-31.921,-11.597,150.013,19.160,-108.743
1809,-0.3579,0.4619,-0.8506,-6.775,-21.423,-6.287,149.941,19.385,-108.798
1819,-0.3193,0.4893,-0.9165,3.235,-0.854,1.404,149.985,19.363,-108.814
1829,-0.2681,0.5273,-0.9985,13.184,21.667,7.690,150.156,19.078,-108.770
1839,-0.2217,0.5522,-1.0381,18.555,39.185,11.169,150.386,18.605,-108.666
1849,-0.2183,0.5200,-0.9985,18.250,43.640,10.315,150.634,18.100,-108.534
1859,-0.2412,0.4917,-0.9346,11.719,33.569,4.944,150.804,17.732,-108.408
1869,-0.2866,0.4487,-0.8706,2.441,12.268,-2.502,150.875,17.628,-108.320
1879,-0.3306,0.4346,-0.8140,-9.766,-12.268,-7.996,150.787,17.792,-108.309
1889,-0.3564,0.4346,-0.7852,-18.188,-31.250,-11.108,150.595,18.155,-108.369
1899,-0.3672,0.4663,-0.7969,-19.531,-38.757,-10.742,150.359,18.578,-108.468
1913,-0.3638,0.4863,-0.8174,-13.306,-33.325,-6.958,150.183,18.918,-108.578
1919,-0.3545,0.4731,-0.8149,-2.625,-19.043,-1.587,150.128,19.111,-108.666
1929,-0.3364,0.4434,-0.7866,7.202,-3.235,2.563,150.189,19.138,-108.704
1939,-0.3315,0.4048,-0.7661,12.207,6.653,4.211,150.326,19.078,-108.710
1949,-0.3306,0.3999,-0.7607,10.376,9.460,4.822,150.452,18.990,-108.704
1959,-0.3330,0.4087,-0.7642,5.310,7.263,5.371,150.513,18.924,-108.715
1969,-0.3477,0.4087,-0.7505,0.610,3.967,5.981,150.518,18.891,-108.748
1979,-0.3589,0.4253,-0.7534,-2.625,1.648,6.104,150.480,18.885,-108.798
1989,-0.3457,0.4678,-0.7925,-3.418,2.869,6.592,150.419,18.847,-108.842
2000,-0.3018,0.5361,-0.8936,-0.793,8.972,8.118,150.386,18.699,-108.869
2009,-0.2461,0.6030,-1.0181,4.150,19.958,9.644,150.425,18.413,-108.858
2019,-0.2236,0.6191,-1.0586,7.446,30.701,10.681,150.513,18.018,-108.792
2029,-0.2236,0.6011,-1.0308,7.202,34.302,9.521,150.601,17.600,-108.704
2039,-0.3057,0.4687,-0.8394,-2.014,7.996,-2.380,150.601,17.540,-108.638
2049,-0.3384,0.4531,-0.7808,-11.292,-15.320,-8.850,150.485,17.748,-108.638
2059,-0.3667,0.4360,-0.7476,-16.418,-34.058,-11.780,150.293,18.149,-108.710
2069,-0.3682,0.4575,-0.7661,-16.846,-41.504,-10.864,150.079,18.605,-108.825
2079,-0.3486,0.4858,-0.8384,-11.414,-34.424,-7.446,149.930,18.946,-108.935
2089,-0.3252,0.5024,-0.8745,-3.235,-16.296,-2.502,149.875,19.089,-109.001
2099,-0.3154,0.4771,-0.8486,5.493,3.540,1.099,149.941,19.039,-108.990
2109,-0.3164,0.4326,-0.7979,10.254,15.015,2.136,150.079,18.902,-108.935
2119,-0.3301,0.3911,-0.7573,8.362,13.916,1.465,150.211,18.798,-108.875
2129,-0.3350,0.3999,-0.7607,1.587,4.883,0.793,150.249,18.781,-108.853
2139,-0.3291,0.4473,-0.7925,-5.188,-3.479,1.587,150.189,18.814,-108.885
2149,-0.3257,0.4771,-0.8218,-7.080,-6.531,3.723,150.095,18.853,-108.957
2159,-0.3086,0.5278,-0.8667,-4.028,-3.296,5.432,150.018,18.836,-109.023
2169,-0.2881,0.5571,-0.9106,2.014,3.174,5.981,150.013,18.737,-109.061
2179,-0.2666,0.5605,-0.9409,7.812,9.277,5.310,150.084,18.583,-109.061
2189,-0.2700,0.5352,-0.9312,9.399,11.047,3.479,150.183,18.424,-109.034
2199,-0.2847,0.5093,-0.8931,5.554,7.141,1.282,150.249,18.331,-109.006
2209,-0.3135,0.4707,-0.8369,-0.488,-1.343,-1.038,150.249,18.342,-109.006
2219,-0.3477,0.4360,-0.7729,-7.324,-10.925,-3.296,150.172,18.484,-109.034
2229,-0.3633,0.4355,-0.7378,-12.329,-18.188,-4.700,150.024,18.710,-109.083
2239,-0.3677,0.4419,-0.7451,-11.719,-19.592,-4.639,149.881,18.940,-109.144
2249,-0.3564,0.4727,-0.7856,-7.629,-13.855,-2.197,149.782,19.094,-109.199
2259,-0.3232,0.5073,-0.8506,-0.671,-1.892,1.831,149.760,19.094,-109.226
2269,-0.2925,0.5244,-0.9023,6.653,12.390,5.310,149.832,18.924,-109.210
2279,-0.2725,0.5352,-0.9277,10.010,23.193,7.080,149.952,18.644,-109.149
2289,-0.2744,0.5132,-0.9019,9.277,25.879,6.409,150.073,18.353,-109.072
2299,-0.2930,0.4814,-0.8550,4.700,19.043,2.930,150.145,18.160,-109.001
2309,-0.3228,0.4517,-0.8042,-3.540,4.761,-2.075,150.128,18.138,-108.957
2319,-0.3521,0.4448,-0.7617,-13.367,-10.681,-5.676,149.991,18.292,-108.957
2329,-0.3721,0.4404,-0.7393,-19.348,-21.301,-7.019,149.777,18.561,-109.006
2339,-0.3667,0.4727,-0.7710,-18.555,-22.339,-6.165,149.562,18.820,-109.067
2349,-0.3447,0.5024,-0.8228,-12.817,-13.672,-2.930,149.409,18.957,-109.116
2359,-0.3071,0.5322,-0.8716,-3.906,1.587,1.587,149.365,18.913,-109.122
2369,-0.2783,0.5410,-0.9121,5.737,16.907,4.761,149.436,18.704,-109.072
2379,-0.2661,0.5356,-0.9097,10.437,26.001,6.287,149.562,18.408,-108.990
2389,-0.2822,0.4922,-0.8682,10.193,24.658,5.249,149.700,18.144,-108.907
2399,-0.2993,0.4653,-0.8335,5.005,14.893,1.831,149.782,18.001,-108.847
2409,-0.3188,0.4561,-0.8135,-2.991,1.038,-1.770,149.766,18.007,-108.825
2419,-0.3408,0.4482,-0.7896,-10.315,-10.071,-3.540,149.667,18.138,-108.847
2429,-0.3535,0.4360,-0.7690,-13.306,-14.771,-3.906,149.529,18.320,-108.885
2439,-0.3589,0.4272,-0.7588,-12.268,-12.451,-3.418,149.403,18.484,-108.924
2449,-0.3506,0.4302,-0.7603,-9.399,-6.042,-1.648,149.315,18.578,-108.940
2459,-0.3335,0.4365,-0.7764,-5.310,1.709,1.526,149.277,18.578,-108.946
2469,-0.3101,0.4502,-0.8140,-1.526,9.583,5.005,149.282,18.468,-108.940
2479,-0.2915,0.4624,-0.8521,1.465,15.015,7.446,149.321,18.287,-108.924
2489,-0.2676,0.5029,-0.9053,1.953,17.029,8.118,149.365,18.062,-108.907
2500,-0.2627,0.5229,-0.9351,0.305,14.709,7.324,149.387,17.858,-108.896
2509,-0.2544,0.5693,-0.9702,-2.258,9.888,5.493,149.365,17.693,-108.891
2519,-0.2568,0.5913,-0.9785,-3.174,4.028,3.662,149.326,17.589,-108.902
2529,-0.2637,0.6074,-0.9746,-3.723,-2.197,1.831,149.266,17.551,-108.929
2539,-0.2671,0.6006,-0.9541,-3.052,-7.690,-0.305,149.211,17.578,-108.968
2549,-0.2881,0.5620,-0.8960,-2.625,-13.123,-2.441,149.156,17.677,-109.017
2559,-0.3032,0.5361,-0.8442,-4.028,-18.982,-5.005,149.084,17.858,-109.078
2569,-0.3223,0.4917,-0.7979,-5.005,-23.254,-7.385,149.008,18.100,-109.133
2579,-0.3462,0.4521,-0.7402,-6.592,-26.062,-8.728,148.920,18.408,-109.199
2589,-0.3633,0.4365,-0.7168,-7.812,-25.635,-8.545,148.821,18.715,-109.259
2599,-0.3652,0.4517,-0.7295,-7.568,-20.569,-6.287,148.722,18.968,-109.314
2609,-0.3574,0.4736,-0.7505,-4.883,-11.169,-1.892,148.651,19.100,-109.358
2619,-0.3530,0.4702,-0.7520,0.671,-0.549,2.808,148.640,19.116,-109.385
2629,-0.3320,0.4888,-0.7793,6.287,8.057,5.737,148.694,19.028,-109.396
2639,-0.3066,0.5073,-0.8203,9.705,14.221,7.263,148.788,18.853,-109.385
2649,-0.3091,0.4863,-0.8247,9.766,16.602,7.874,148.898,18.666,-109.363
2659,-0.3008,0.4995,-0.8491,6.165,15.381,6.836,148.975,18.479,-109.341
2669,-0.2983,0.5132,-0.8682,2.136,12.329,4.761,149.008,18.331,-109.319
2679,-0.2983,0.5337,-0.8901,-2.136,8.728,2.747,148.991,18.221,-109.292
2689,-0.2998,0.5552,-0.8926,-4.395,5.554,0.916,148.947,18.149,-109.270
2699,-0.3076,0.5591,-0.8765,-3.479,2.380,-0.244,148.903,18.111,-109.259
2709,-0.3188,0.5381,-0.8530,-0.916,-1.160,-1.038,148.881,18.122,-109.254
2719,-0.3188,0.5190,-0.8472,1.343,-4.578,-1.831,148.892,18.166,-109.265
2729,-0.3081,0.5049,-0.8525,1.892,-6.653,-2.258,148.909,18.226,-109.281
2739,-0.2993,0.5000,-0.8638,0.793,-7.080,-2.747,148.925,18.281,-109.292
2749,-0.2842,0.5215,-0.8892,-1.160,-7.080,-4.089,148.920,18.336,-109.292
2759,-0.2788,0.5430,-0.9165,-3.113,-8.545,-6.775,148.898,18.408,-109.281
2769,-0.2852,0.5508,-0.9150,-4.700,-11.963,-9.766,148.859,18.523,-109.254
2779,-0.3140,0.5239,-0.8555,-5.127,-18.921,-12.512,148.804,18.737,-109.248
2789,-0.3501,0.4800,-0.7793,-5.859,-27.527,-14.160,148.738,19.061,-109.270
2799,-0.3647,0.4585,-0.7446,-7.324,-35.034,-13.916,148.640,19.468,-109.336
2809,-0.3828,0.4463,-0.7285,-6.470,-39.490,-10.559,148.535,19.902,-109.457
2819,-0.3945,0.4448,-0.7480,-2.930,-36.072,-5.066,148.458,20.281,-109.611
2829,-0.3799,0.4458,-0.7529,2.014,-25.635,1.038,148.436,20.522,-109.764
2839,-0.3745,0.4419,-0.7368,7.141,-14.465,5.310,148.469,20.643,-109.896
2849,-0.3730,0.4160,-0.7187,11.414,-3.296,6.653,148.568,20.676,-109.973
2859,-0.3662,0.4077,-0.7178,10.742,5.188,6.958,148.683,20.627,-110.006
2869,-0.3584,0.4277,-0.7432,6.287,10.315,6.897,148.755,20.528,-110.012
2879,-0.3350,0.4883,-0.8013,1.038,13.123,6.897,148.766,20.369,-110.001
2889,-0.3203,0.5381,-0.8516,-1.709,14.160,6.470,148.744,20.187,-109.984
2899,-0.3149,0.5771,-0.8901,-2.869,14.038,5.066,148.711,20.006,-109.951
2909,-0.3096,0.5996,-0.9077,-2.441,12.390,3.296,148.678,19.847,-109.913
2919,-0.3076,0.5972,-0.9131,-0.061,9.216,1.404,148.672,19.720,-109.874
2929,-0.3145,0.5728,-0.8999,0.977,4.517,0.000,148.678,19.649,-109.852
2939,-0.3252,0.5444,-0.8730,-0.549,-1.343,-1.465,148.667,19.644,-109.847
2949,-0.3442,0.5049,-0.8110,-3.357,-6.836,-2.930,148.629,19.720,-109.858
2959,-0.3745,0.4551,-0.7407,-6.470,-11.475,-4.333,148.552,19.874,-109.880
2969,-0.3872,0.4478,-0.7144,-8.118,-12.939,-5.310,148.458,20.061,-109.902
2979,-0.3750,0.4658,-0.7397,-6.775,-9.827,-4.456,148.381,20.198,-109.918
2989,-0.3589,0.4956,-0.7886,-2.258,-2.014,-1.587,148.354,20.231,-109.913
3000,-0.3472,0.4976,-0.8193,4.700,7.568,1.465,148.414,20.160,-109.885
3009,-0.3379,0.5015,-0.8369,10.071,14.954,2.991,148.541,20.006,-109.830
3019,-0.3325,0.4932,-0.8438,11.108,17.761,4.089,148.683,19.819,-109.770
3029,-0.3340,0.4624,-0.8413,8.118,14.954,4.150,148.799,19.666,-109.726
3039,-0.3369,0.4648,-0.8438,1.892,8.911,3.052,148.848,19.572,-109.704
3049,-0.3364,0.4873,-0.8584,-3.296,2.991,1.770,148.832,19.528,-109.704
3059,-0.3252,0.5093,-0.8735,-5.066,-0.061,1.099,148.788,19.506,-109.709
3069,-0.3198,0.5308,-0.8896,-3.357,0.122,0.671,148.760,19.479,-109.715
3079,-0.3091,0.5293,-0.8896,0.916,1.709,0.427,148.777,19.435,-109.709
3089,-0.3027,0.5171,-0.8799,4.395,2.380,0.427,148.826,19.385,-109.704
3099,-0.3052,0.5005,-0.8730,4.761,0.916,0.244,148.892,19.352,-109.698
3109,-0.3130,0.4868,-0.8579,2.258,-2.197,-0.183,148.925,19.352,-109.709
3119,-0.3257,0.4878,-0.8345,-2.014,-5.981,-0.732,148.903,19.402,-109.737
3129,-0.3369,0.4883,-0.8013,-5.005,-9.155,-0.977,148.837,19.484,-109.775
3139,-0.3486,0.4829,-0.7788,-5.737,-11.047,-0.854,148.755,19.600,-109.830
3149,-0.3555,0.4814,-0.7656,-4.456,-10.986,-0.061,148.683,19.709,-109.891
3159,-0.3584,0.4775,-0.7617,-1.892,-8.972,1.343,148.640,19.797,-109.951
3169,-0.3618,0.4668,-0.7568,1.404,-5.676,2.747,148.629,19.858,-110.006
3179,-0.3594,0.4639,-0.7656,3.540,-2.136,3.662,148.651,19.874,-110.056
3189,-0.3516,0.4761,-0.7788,4.333,1.282,4.211,148.683,19.852,-110.083
3199,-0.3569,0.4839,-0.7969,4.456,4.211,4.700,148.722,19.803,-110.105
3209,-0.3477,0.4927,-0.8037,3.967,5.798,4.883,148.755,19.737,-110.116
3219,-0.3447,0.4995,-0.8081,3.235,5.615,4.944,148.777,19.666,-110.132
3229,-0.3481,0.5166,-0.8325,2.258,4.578,4.822,148.788,19.600,-110.149
3239,-0.3203,0.5425,-0.8672,1.648,4.578,4.639,148.788,19.517,-110.165
3249,-0.3149,0.5469,-0.8735,2.563,5.066,4.150,148.804,19.424,-110.176
3259,-0.3359,0.5342,-0.8691,3.479,4.333,2.930,148.832,19.363,-110.176
3269,-0.3306,0.5142,-0.8418,3.662,2.319,1.526,148.865,19.325,-110.182
3279,-0.3530,0.4570,-0.7778,1.770,-2.014,0.610,148.881,19.363,-110.198
3289,-0.3672,0.4370,-0.7554,-2.258,-6.836,-0.183,148.859,19.457,-110.231
3299,-0.3716,0.4458,-0.7500,-6.348,-8.362,0.061,148.788,19.561,-110.281
3309,-0.3774,0.4478,-0.7339,-7.996,-5.493,1.221,148.694,19.644,-110.319
3319,-0.3535,0.5000,-0.7573,-7.202,0.610,2.869,148.590,19.638,-110.341
3329,-0.3262,0.5562,-0.8159,-1.221,8.850,5.310,148.552,19.523,-110.341
3339,-0.3037,0.5684,-0.8589,8.118,16.235,7.812,148.618,19.314,-110.325
3349,-0.2837,0.5713,-0.8999,15.747,20.386,8.850,148.771,19.056,-110.292
3359,-0.2817,0.5640,-0.9326,18.982,19.470,7.935,148.975,18.803,-110.253
3369,-0.2803,0.5610,-0.9360,17.700,14.160,6.226,149.156,18.605,-110.237
3379,-0.3066,0.5332,-0.9385,13.916,5.920,3.296,149.310,18.512,-110.231
3389,-0.3003,0.5229,-0.9175,6.470,-1.953,0.000,149.376,18.501,-110.242
3399,-0.3218,0.4932,-0.8574,-0.427,-9.338,-2.930,149.376,18.589,-110.264
3409,-0.3442,0.4722,-0.8145,-5.249,-14.832,-5.493,149.315,18.759,-110.297
3419,-0.3486,0.4683,-0.8003,-8.606,-15.991,-7.141,149.227,18.951,-110.319
3429,-0.3516,0.4780,-0.7812,-9.094,-12.878,-6.592,149.128,19.116,-110.325
3439,-0.3462,0.4814,-0.7617,-5.371,-7.446,-4.150,149.062,19.221,-110.330
3449,-0.3481,0.4653,-0.7651,1.038,-1.953,-1.465,149.068,19.265,-110.325
3459,-0.3408,0.4507,-0.7744,6.104,2.502,0.732,149.139,19.254,-110.319
3469,-0.3218,0.4395,-0.7852,7.751,4.761,2.258,149.233,19.204,-110.314
3479,-0.3203,0.4360,-0.8164,6.287,5.432,2.625,149.321,19.144,-110.308
3489,-0.3188,0.4507,-0.8403,1.709,5.005,2.319,149.365,19.083,-110.303
3500,-0.3081,0.4824,-0.8477,-2.686,4.578,2.197,149.354,19.017,-110.297
3509,-0.3022,0.5239,-0.8740,-3.357,4.395,2.380,149.315,18.946,-110.297
3519,-0.2949,0.5435,-0.8999,0.427,4.761,3.357,149.315,18.853,-110.303
3529,-0.2969,0.5405,-0.9077,5.859,4.700,4.272,149.365,18.759,-110.314
3539,-0.3018,0.5181,-0.9023,9.644,3.235,4.272,149.464,18.688,-110.336
3549,-0.3110,0.4863,-0.8760,9.583,-0.305,3.540,149.562,18.655,-110.369
3559,-0.3301,0.4468,-0.8394,5.493,-5.493,2.258,149.623,18.699,-110.418
3569,-0.3315,0.4575,-0.8359,-1.465,-9.583,1.038,149.606,18.776,-110.479
3579,-0.3325,0.4707,-0.8291,-6.653,-10.376,0.671,149.529,18.869,-110.544
3589,-0.3369,0.4868,-0.8115,-7.996,-8.118,0.793,149.431,18.940,-110.594
3599,-0.3271,0.5161,-0.8267,-5.432,-4.639,0.916,149.354,18.973,-110.627
3609,-0.3188,0.5278,-0.8398,-0.244,-1.343,1.526,149.326,18.962,-110.649
3619,-0.3306,0.5093,-0.8320,4.089,-0.488,2.136,149.354,18.957,-110.671
3629,-0.3408,0.4976,-0.8223,4.944,-2.380,2.014,149.387,18.968,-110.698
3639,-0.3511,0.4805,-0.7944,2.319,-5.981,1.648,149.387,19.028,-110.748
3649,-0.3623,0.4702,-0.7646,-2.380,-9.277,0.977,149.337,19.133,-110.808
3659,-0.3691,0.4849,-0.7578,-6.409,-10.010,0.427,149.233,19.248,-110.863
3669,-0.3599,0.5073,-0.7739,-7.629,-6.775,0.427,149.123,19.325,-110.907
3679,-0.3403,0.5405,-0.8149,-5.554,0.305,0.610,149.041,19.319,-110.907
3689,-0.3159,0.5620,-0.8667,-1.404,8.179,-0.061,149.019,19.226,-110.863
3699,-0.2969,0.5703,-0.9160,1.221,13.855,-1.709,149.052,19.078,-110.775
3709,-0.3169,0.5225,-0.8545,0.000,14.587,-3.723,149.084,18.957,-110.660
3719,-0.3892,0.3882,-0.7109,-6.470,5.371,-7.202,149.073,19.017,-110.566
3729,-0.4243,0.3467,-0.6196,-19.226,-9.827,-11.719,148.914,19.276,-110.511
3739,-0.4355,0.3350,-0.5981,-30.029,-23.193,-13.794,148.634,19.677,-110.511
3749,-0.4170,0.4346,-0.6870,-33.020,-25.208,-10.803,148.288,20.023,-110.555
3759,-0.3594,0.5601,-0.8462,-22.583,-11.292,-1.953,148.030,20.121,-110.599
3769,-0.2856,0.6294,-0.9810,-1.892,14.648,7.629,148.008,19.896,-110.588
3779,-0.2397,0.6406,-1.0264,17.395,39.307,13.184,148.217,19.407,-110.484
3789,-0.2046,0.6226,-1.0264,28.259,51.697,12.268,148.557,18.809,-110.308
3799,-0.2021,0.5757,-0.9868,30.029,45.654,6.897,148.931,18.303,-110.116
3809,-0.2407,0.5312,-0.9404,22.034,24.719,1.770,149.200,18.029,-110.001
3819,-0.2886,0.5034,-0.8760,8.606,-1.831,-2.197,149.299,18.034,-109.990
3829,-0.3408,0.4790,-0.7944,-3.235,-24.414,-4.639,149.233,18.287,-110.078
3839,-0.3721,0.4736,-0.7593,-8.362,-37.170,-5.676,149.090,18.671,-110.226
3849,-0.3696,0.4995,-0.7754,-7.568,-37.781,-4.395,148.947,19.045,-110.391
3859,-0.3511,0.5093,-0.8130,-1.404,-27.466,-1.953,148.881,19.303,-110.522
3869,-0.3306,0.4893,-0.8267,6.714,-10.803,-0.122,148.931,19.391,-110.583
3879,-0.3193,0.4766,-0.8301,11.841,3.967,0.061,149.068,19.347,-110.561
3889,-0.3164,0.4556,-0.7974,11.597,11.414,0.183,149.216,19.248,-110.500
3899,-0.3350,0.4116,-0.7544,7.202,8.545,0.122,149.321,19.193,-110.457
3914,-0.3481,0.4146,-0.7520,-0.366,0.122,-0.488,149.337,19.221,-110.451
3919,-0.3511,0.4565,-0.7705,-7.019,-6.592,-0.122,149.260,19.303,-110.484
3929,-0.3354,0.5093,-0.8105,-7.935,-6.287,1.648,149.150,19.347,-110.533
3939,-0.3223,0.5352,-0.8418,-2.258,0.244,3.052,149.101,19.314,-110.561
3949,-0.3101,0.5444,-0.8662,5.371,7.385,2.991,149.145,19.210,-110.544
3959,-0.3047,0.5215,-0.8687,10.437,10.376,1.892,149.260,19.089,-110.506
3969,-0.3076,0.4966,-0.8579,9.338,7.812,0.854,149.370,19.001,-110.473
3979,-0.3267,0.4756,-0.8384,2.991,1.404,0.183,149.414,18.984,-110.468
3989,-0.3389,0.4751,-0.8340,-4.089,-4.150,-0.427,149.376,19.028,-110.484
4000,-0.3149,0.5322,-0.8975,-9.155,-4.700,-1.221,149.282,19.050,-110.500
4009,-0.2881,0.6006,-0.9702,-9.521,1.465,-2.136,149.183,19.001,-110.473
4019,-0.2861,0.6206,-0.9849,-5.554,8.545,-4.089,149.145,18.896,-110.391
4029,-0.3140,0.5747,-0.8784,-1.770,9.338,-6.653,149.139,18.831,-110.281
4039,-0.3892,0.4253,-0.6855,0.488,-2.808,-10.437,149.161,18.973,-110.198
4049,-0.4526,0.3223,-0.5303,-1.648,-26.428,-13.611,149.134,19.440,-110.220
4059,-0.4692,0.2969,-0.5371,-5.493,-46.814,-13.672,149.052,20.089,-110.347
4069,-0.4409,0.3936,-0.7227,-7.935,-48.706,-8.301,148.936,20.621,-110.539
4079,-0.3828,0.5151,-0.8833,-6.104,-29.236,0.916,148.821,20.869,-110.709
4089,-0.3271,0.5776,-0.9409,2.502,3.052,8.545,148.821,20.753,-110.770
4099,-0.2832,0.6104,-0.9365,13.611,30.762,10.803,148.964,20.374,-110.698
4109,-0.2568,0.5806,-0.9146,20.020,41.138,6.592,149.205,19.918,-110.533
4119,-0.2803,0.5000,-0.8423,20.203,32.898,2.197,149.458,19.589,-110.374
4129,-0.3198,0.4771,-0.8027,14.832,12.939,-0.854,149.628,19.473,-110.297
4139,-0.3506,0.4614,-0.7778,8.057,-9.949,-2.075,149.694,19.589,-110.330
4149,-0.3682,0.4604,-0.7954,5.371,-24.475,-0.305,149.705,19.819,-110.457
4159,-0.3394,0.5059,-0.8853,6.531,-23.804,3.052,149.727,19.995,-110.616
4169,-0.3120,0.5103,-0.9321,11.719,-10.742,4.944,149.821,20.028,-110.720
4179,-0.3037,0.5024,-0.9209,16.541,4.028,3.662,149.996,19.935,-110.731
4189,-0.2935,0.4922,-0.9121,18.311,12.634,1.099,150.216,19.781,-110.671
4199,-0.3101,0.4409,-0.8745,15.747,11.169,-0.732,150.425,19.666,-110.605
4209,-0.3354,0.3994,-0.8193,8.240,2.075,-1.648,150.551,19.660,-110.583
4219,-0.3652,0.3740,-0.7583,-1.404,-9.644,-1.587,150.557,19.786,-110.616
4229,-0.3862,0.3716,-0.7095,-8.789,-19.165,-0.305,150.452,20.017,-110.715
4239,-0.3911,0.3975,-0.7319,-9.399,-21.362,1.526,150.326,20.242,-110.841
4249,-0.3760,0.4507,-0.7993,-6.104,-15.015,4.578,150.227,20.369,-110.962
4259,-0.3408,0.4917,-0.8672,-0.549,-2.197,7.629,150.200,20.336,-111.044
4269,-0.3203,0.5054,-0.9082,5.432,11.719,8.606,150.255,20.160,-111.061
4279,-0.3145,0.5156,-0.9072,6.714,20.020,7.874,150.331,19.918,-111.028
4289,-0.3208,0.4932,-0.8745,4.578,19.165,5.981,150.392,19.698,-110.984
4299,-0.3198,0.4980,-0.8613,-0.671,10.803,3.601,150.392,19.572,-110.962
4309,-0.3301,0.5093,-0.8486,-6.348,-0.244,1.465,150.309,19.556,-110.973
4319,-0.3511,0.5171,-0.8262,-9.827,-9.033,0.366,150.172,19.633,-111.028
4329,-0.3457,0.5435,-0.8511,-8.972,-11.658,0.122,150.035,19.726,-111.088
4339,-0.3394,0.5474,-0.8716,-4.272,-7.690,-0.061,149.958,19.775,-111.127
4349,-0.3418,0.5322,-0.8477,-0.244,-2.014,-0.793,149.930,19.786,-111.132
4359,-0.3452,0.5107,-0.8208,1.465,0.122,-2.258,149.936,19.797,-111.110
4369,-0.3511,0.4800,-0.7983,0.183,-1.892,-3.479,149.936,19.841,-111.088
4379,-0.3706,0.4453,-0.7476,-4.089,-6.104,-4.395,149.892,19.946,-111.083
4389,-0.3911,0.4272,-0.6885,-8.789,-9.827,-4.761,149.782,20.110,-111.088
4399,-0.3901,0.4561,-0.6831,-9.094,-10.620,-4.089,149.650,20.275,-111.110
4409,-0.3613,0.5176,-0.7739,-4.272,-5.371,-1.709,149.573,20.341,-111.121
4419,-0.3154,0.5801,-0.8994,3.601,7.324,1.343,149.590,20.231,-111.094
4429,-0.3042,0.5952,-0.9180,11.353,21.606,1.770,149.711,19.990,-110.995
4439,-0.3169,0.5776,-0.8276,14.771,26.245,-0.122,149.859,19.742,-110.852
4449,-0.3496,0.4980,-0.7275,16.174,16.235,-4.578,150.024,19.644,-110.726
4459,-0.3936,0.4541,-0.6509,11.230,-4.639,-8.545,150.101,19.792,-110.671
4469,-0.4331,0.4043,-0.6084,6.775,-25.879,-10.864,150.117,20.176,-110.704
4479,-0.4546,0.3877,-0.6372,6.042,-37.292,-10.925,150.134,20.665,-110.803
4489,-0.4302,0.4268,-0.7349,6.653,-33.142,-8.301,150.161,21.050,-110.901
4500,-0.3818,0.4873,-0.8711,10.315,-13.794,-4.211,150.255,21.193,-110.934
4509,-0.3057,0.5469,-1.0220,16.663,14.221,-0.366,150.463,21.006,-110.858
4519,-0.2461,0.5625,-1.0889,19.409,39.063,-0.244,150.754,20.572,-110.649
4529,-0.2290,0.5674,-1.0474,16.479,50.110,-4.089,151.029,20.061,-110.352
4539,-0.2451,0.5098,-0.9736,11.414,42.847,-9.521,151.260,19.666,-110.039
4549,-0.2827,0.4819,-0.9126,3.357,22.827,-12.390,151.381,19.479,-109.808
4559,-0.3271,0.4390,-0.8442,-4.456,-2.258,-13.489,151.386,19.561,-109.693
4569,-0.3716,0.4038,-0.7896,-7.812,-22.278,-13.000,151.326,19.847,-109.688
4579,-0.3960,0.3867,-0.7720,-5.859,-31.250,-11.353,151.271,20.220,-109.742
4589,-0.3950,0.3882,-0.8018,0.000,-29.480,-8.118,151.271,20.550,-109.814
4599,-0.3496,0.4165,-0.9155,7.141,-17.090,-5.005,151.370,20.709,-109.858
4609,-0.3091,0.4209,-0.9893,12.146,2.991,-3.174,151.562,20.654,-109.808
4619,-0.2979,0.4180,-0.9590,10.620,18.005,-2.747,151.760,20.462,-109.693
4629,-0.2900,0.4219,-0.9268,6.836,22.888,-3.113,151.913,20.231,-109.550
4639,-0.3057,0.3960,-0.8647,2.197,15.808,-3.723,152.012,20.083,-109.435
4649,-0.3306,0.3887,-0.8281,-3.906,1.465,-3.540,152.012,20.089,-109.391
4659,-0.3599,0.3882,-0.8037,-8.240,-12.390,-2.136,151.941,20.226,-109.435
4669,-0.3809,0.3867,-0.7832,-8.972,-19.531,0.183,151.837,20.429,-109.534
4679,-0.3916,0.3955,-0.7925,-5.615,-18.311,2.258,151.754,20.610,-109.649
4689,-0.3779,0.4121,-0.8276,-0.671,-11.292,4.089,151.732,20.704,-109.742
4699,-0.3589,0.4150,-0.8477,4.089,-2.380,5.371,151.776,20.704,-109.808
4709,-0.3428,0.4146,-0.8599,7.019,4.333,5.920,151.859,20.627,-109.841
4719,-0.3247,0.4170,-0.8525,6.775,6.165,6.409,151.935,20.528,-109.869
4729,-0.3237,0.4326,-0.8506,4.028,3.418,7.507,151.968,20.446,-109.924
4739,-0.3301,0.4492,-0.8574,1.465,0.122,8.728,151.957,20.385,-110.006
4749,-0.3384,0.4683,-0.8574,0.305,-1.465,9.644,151.919,20.341,-110.105
4759,-0.3374,0.5010,-0.8784,1.526,-0.671,9.888,151.886,20.281,-110.198
4769,-0.3413,0.5103,-0.8916,4.822,1.587,9.583,151.891,20.204,-110.281
4779,-0.3428,0.5098,-0.8823,7.568,3.296,9.033,151.919,20.116,-110.352
4789,-0.3389,0.4902,-0.8853,8.545,3.052,7.996,151.974,20.039,-110.413
4799,-0.3418,0.4712,-0.8789,5.920,1.038,6.348,152.012,19.990,-110.462
4809,-0.3437,0.4634,-0.8589,0.610,-2.075,4.456,152.001,19.979,-110.517
4819,-0.3428,0.4614,-0.8213,-5.005,-5.127,2.930,151.919,20.012,-110.572
4829,-0.3418,0.4707,-0.7935,-9.094,-7.812,2.014,151.782,20.072,-110.627
4839,-0.3462,0.4854,-0.7812,-9.521,-8.911,1.587,151.633,20.149,-110.687
4849,-0.3579,0.4922,-0.7739,-6.226,-7.935,1.892,151.512,20.220,-110.748
4859,-0.3618,0.4844,-0.7827,-1.221,-4.700,2.197,151.452,20.264,-110.792
4869,-0.3643,0.4722,-0.7939,1.892,-0.549,2.075,151.441,20.270,-110.814
4879,-0.3662,0.4619,-0.7998,1.526,2.869,1.587,151.441,20.253,-110.814
4889,-0.3691,0.4634,-0.8062,-0.854,5.127,0.732,151.425,20.220,-110.792
4899,-0.3672,0.4800,-0.8394,-3.296,6.165,-0.305,151.392,20.171,-110.759
4909,-0.3657,0.4922,-0.8701,-3.845,6.897,-1.526,151.364,20.116,-110.709
4919,-0.3618,0.4907,-0.8809,-3.174,6.958,-2.991,151.348,20.067,-110.643
4929,-0.3560,0.4741,-0.8730,-2.380,5.859,-4.211,151.348,20.034,-110.577
4939,-0.3457,0.4614,-0.8706,-2.747,2.930,-4.761,151.348,20.023,-110.517
4949,-0.3315,0.4678,-0.8853,-3.479,-0.610,-4.333,151.337,20.034,-110.479
4959,-0.3276,0.4629,-0.8833,-2.441,-2.869,-3.296,151.326,20.056,-110.462
4969,-0.3315,0.4478,-0.8657,-0.183,-4.089,-2.563,151.337,20.089,-110.462
4979,-0.3394,0.4287,-0.8491,1.953,-4.822,-2.136,151.375,20.138,-110.468
4989,-0.3477,0.4097,-0.8398,2.319,-5.066,-1.465,151.419,20.193,-110.479
5000,-0.3569,0.3960,-0.8311,0.671,-4.822,-1.160,151.452,20.248,-110.490
5009,-0.3657,0.3916,-0.8262,-1.648,-4.395,-1.221,151.463,20.308,-110.500
5019,-0.3628,0.4028,-0.8340,-3.967,-3.906,-0.793,151.447,20.358,-110.517
5029,-0.3398,0.4292,-0.8647,-5.310,-2.502,0.427,151.414,20.369,-110.533
5039,-0.3257,0.4507,-0.8872,-5.249,-0.427,1.831,151.370,20.341,-110.550
5049,-0.3174,0.4683,-0.8926,-4.578,0.305,2.441,151.326,20.297,-110.572
5059,-0.3208,0.4722,-0.8779,-4.272,-1.526,2.441,151.276,20.275,-110.605
5069,-0.3228,0.4795,-0.8687,-5.615,-5.371,2.441,151.205,20.286,-110.654
5079,-0.3389,0.4751,-0.8516,-7.629,-8.850,2.197,151.100,20.341,-110.720
5089,-0.3594,0.4741,-0.8252,-10.254,-10.559,1.648,150.969,20.429,-110.786
5099,-0.3740,0.4653,-0.7988,-11.597,-10.254,0.854,150.820,20.528,-110.852
5109,-0.3931,0.4561,-0.7612,-11.597,-9.338,0.305,150.667,20.643,-110.901
5119,-0.3887,0.4546,-0.7490,-10.193,-7.996,0.610,150.529,20.742,-110.951
5129,-0.3799,0.4517,-0.7485,-7.263,-5.859,1.770,150.425,20.808,-110.995
5139,-0.3633,0.4658,-0.7637,-4.333,-2.319,3.540,150.348,20.825,-111.039
5149,-0.3511,0.4741,-0.7944,-0.977,2.502,4.883,150.315,20.781,-111.072
5159,-0.3467,0.4858,-0.8174,0.610,6.897,5.188,150.309,20.687,-111.083
5169,-0.3633,0.4839,-0.8223,0.366,8.972,4.578,150.304,20.588,-111.083
5179,-0.3691,0.4883,-0.8237,-1.770,7.935,3.784,150.282,20.506,-111.072
5189,-0.3657,0.4990,-0.8364,-4.395,5.554,3.479,150.227,20.446,-111.077
5199,-0.3672,0.5117,-0.8457,-5.249,3.967,3.601,150.156,20.391,-111.088
5209,-0.3462,0.5391,-0.8818,-3.479,4.578,3.601,150.101,20.314,-111.099
5219,-0.3301,0.5386,-0.8936,0.732,6.836,3.174,150.101,20.215,-111.088
5229,-0.3242,0.5244,-0.8794,4.028,7.751,2.319,150.139,20.110,-111.072
5239,-0.3252,0.4961,-0.8633,5.188,5.554,0.549,150.194,20.039,-111.044
5249,-0.3379,0.4727,-0.8423,3.052,0.366,-1.587,150.238,20.034,-111.028
5259,-0.3545,0.4619,-0.8169,-0.732,-5.493,-2.747,150.233,20.105,-111.033
5269,-0.3638,0.4624,-0.8247,-3.296,-8.667,-2.502,150.194,20.198,-111.055
5279,-0.3564,0.4780,-0.8564,-3.052,-6.897,-1.587,150.167,20.264,-111.077
5289,-0.3506,0.4814,-0.8584,-0.305,-1.282,-1.038,150.167,20.275,-111.077
5299,-0.3462,0.4785,-0.8535,2.380,3.113,-0.916,150.205,20.242,-111.050
5309,-0.3369,0.4731,-0.8589,3.357,3.662,-0.793,150.260,20.204,-111.022
5319,-0.3374,0.4678,-0.8462,2.014,0.549,-0.488,150.287,20.193,-111.017
5329,-0.3569,0.4478,-0.8037,-0.549,-4.456,-0.305,150.282,20.242,-111.039
5339,-0.3750,0.4326,-0.7598,-3.174,-9.827,-0.244,150.233,20.358,-111.088
5349,-0.3862,0.4316,-0.7397,-4.517,-12.573,0.122,150.161,20.506,-111.154
5359,-0.3784,0.4541,-0.7607,-3.540,-10.254,1.038,150.095,20.610,-111.220
5369,-0.3516,0.5015,-0.8389,-0.244,-2.258,2.441,150.068,20.610,-111.253
5379,-0.3091,0.5508,-0.9443,3.845,9.644,3.540,150.112,20.462,-111.237
5389,-0.2856,0.5601,-0.9790,6.104,20.142,2.991,150.200,20.215,-111.154
5399,-0.2754,0.5771,-0.9565,4.272,22.949,1.160,150.266,19.946,-111.044
5409,-0.3125,0.5088,-0.8613,1.465,15.625,-1.892,150.304,19.797,-110.945
5419,-0.3525,0.4634,-0.7803,-4.700,-0.610,-6.104,150.266,19.847,-110.891
5429,-0.3887,0.4346,-0.7236,-11.719,-18.250,-8.728,150.134,20.094,-110.907
5439,-0.4136,0.4126,-0.6772,-14.709,-30.212,-8.789,149.947,20.473,-110.984
5449,-0.4312,0.4282,-0.6719,-11.414,-32.288,-5.981,149.766,20.858,-111.105
5459,-0.4312,0.4189,-0.6934,-1.343,-24.231,-1.038,149.705,21.143,-111.226
5469,-0.4067,0.4150,-0.7275,9.766,-8.789,4.333,149.777,21.242,-111.313
5479,-0.3735,0.4170,-0.7764,18.311,8.789,7.507,149.969,21.149,-111.335
5489,-0.3535,0.4326,-0.8228,20.447,22.339,8.850,150.205,20.907,-111.297
5500,-0.3306,0.4668,-0.8638,15.747,28.687,9.216,150.397,20.594,-111.231
5509,-0.3071,0.5044,-0.9175,9.644,28.442,7.996,150.529,20.270,-111.154
5519,-0.2988,0.5449,-0.9551,3.967,24.109,5.371,150.595,19.984,-111.077
5529,-0.3052,0.5645,-0.9575,0.244,16.418,2.319,150.606,19.781,-111.011
5539,-0.3115,0.5610,-0.9497,-1.038,6.897,-0.183,150.595,19.682,-110.973
5549,-0.3110,0.5444,-0.9419,-1.160,-2.441,-1.709,150.579,19.677,-110.973
5559,-0.3208,0.5151,-0.9150,-0.671,-9.460,-2.502,150.562,19.742,-111.000
5569,-0.3340,0.4814,-0.8701,-0.427,-13.489,-3.113,150.551,19.863,-111.039
5579,-0.3462,0.4443,-0.8018,-0.610,-15.503,-3.601,150.535,20.023,-111.088
5589,-0.3599,0.4282,-0.7593,-0.427,-16.541,-3.601,150.513,20.209,-111.138
5599,-0.3687,0.4155,-0.7476,0.549,-15.198,-2.502,150.502,20.380,-111.198
5609,-0.3799,0.4062,-0.7354,1.648,-11.230,-0.549,150.507,20.522,-111.253
5619,-0.3774,0.4102,-0.7329,2.808,-5.310,1.282,150.524,20.599,-111.292
5629,-0.3696,0.4175,-0.7471,4.272,1.404,2.808,150.562,20.599,-111.308
5639,-0.3594,0.4233,-0.7720,4.639,7.385,4.150,150.612,20.533,-111.308
5649,-0.3462,0.4478,-0.8164,3.784,11.780,5.005,150.661,20.402,-111.292
5659,-0.3398,0.4722,-0.8579,2.625,14.160,5.554,150.699,20.242,-111.270
5669,-0.3364,0.4927,-0.8809,1.709,14.587,6.042,150.727,20.067,-111.253
5679,-0.3374,0.5112,-0.8950,2.747,13.000,6.042,150.754,19.907,-111.242
5689,-0.3472,0.5322,-0.9023,6.348,10.498,5.737,150.804,19.775,-111.237
5699,-0.3560,0.5410,-0.8994,13.184,8.179,5.737,150.914,19.666,-111.248
5709,-0.3481,0.5273,-0.8740,22.339,5.371,5.920,151.106,19.583,-111.275
5719,-0.3389,0.4907,-0.8384,27.222,1.526,5.371,151.342,19.539,-111.319
5729,-0.3218,0.4629,-0.8110,29.053,0.122,4.272,151.611,19.512,-111.357
5739,-0.3218,0.4346,-0.7954,26.978,-0.244,3.235,151.864,19.501,-111.390
5749,-0.3159,0.4287,-0.8120,22.095,0.244,2.075,152.078,19.484,-111.407
5759,-0.3174,0.4297,-0.8394,15.930,1.953,1.221,152.243,19.451,-111.407
5769,-0.3232,0.4346,-0.8623,8.362,5.615,0.305,152.347,19.391,-111.385
5779,-0.3301,0.4619,-0.8760,1.587,8.423,-0.549,152.375,19.308,-111.335
5789,-0.3442,0.4834,-0.8813,-2.136,9.277,-1.343,152.358,19.232,-111.281
5799,-0.3574,0.4707,-0.8608,-3.601,8.240,-1.221,152.331,19.171,-111.226
5809,-0.3594,0.4556,-0.8584,-3.601,5.737,-1.587,152.309,19.138,-111.187
5819,-0.3379,0.4585,-0.8877,-2.625,3.174,-2.441,152.298,19.122,-111.149
5829,-0.3179,0.4565,-0.9121,-1.404,1.709,-3.235,152.309,19.100,-111.110
5839,-0.3047,0.4575,-0.9189,-0.854,0.671,-4.028,152.325,19.089,-111.066
5849,-0.2905,0.4653,-0.9224,-1.282,-1.221,-4.944,152.336,19.089,-111.028
5859,-0.2842,0.4805,-0.9121,-1.892,-4.272,-5.432,152.325,19.111,-110.995
5869,-0.3105,0.4497,-0.8535,-1.160,-7.935,-5.310,152.314,19.193,-110.984
5879,-0.3545,0.3877,-0.7759,-0.916,-12.573,-5.249,152.314,19.358,-111.000
5889,-0.3843,0.3462,-0.7173,-2.625,-16.113,-4.883,152.292,19.589,-111.033
5899,-0.4038,0.3428,-0.7031,-6.165,-17.517,-3.967,152.232,19.836,-111.083
5909,-0.3945,0.3672,-0.7373,-8.545,-14.893,-2.258,152.144,20.034,-111.132
5919,-0.3696,0.4121,-0.8032,-6.775,-5.981,0.977,152.073,20.105,-111.171
5929,-0.3364,0.4380,-0.8740,-0.305,7.263,3.784,152.084,20.012,-111.171
5939,-0.3096,0.4487,-0.9102,5.737,18.005,5.066,152.172,19.803,-111.132
5949,-0.2744,0.4644,-0.9526,6.836,23.987,5.127,152.281,19.517,-111.061
5959,-0.2695,0.4712,-0.9658,3.235,22.339,3.845,152.353,19.248,-110.984
5969,-0.2847,0.4927,-0.9609,-3.723,15.198,2.014,152.342,19.061,-110.929
5979,-0.3071,0.4971,-0.9238,-10.254,4.883,-0.244,152.243,18.990,-110.901
5989,-0.3311,0.4917,-0.8638,-14.343,-6.104,-2.441,152.078,19.050,-110.912
6000,-0.3462,0.4668,-0.8394,-14.648,-14.709,-4.150,151.908,19.204,-110.945
6009,-0.4302,0.4385,-0.8311,-10.864,-17.212,-5.005,151.793,19.435,-110.984
6019,-0.3501,0.4575,-0.8281,-8.789,-15.198,-3.357,151.683,19.589,-111.028
6029,-0.3208,0.4570,-0.8374,-2.930,-10.254,-0.305,151.633,19.671,-111.077
6039,-0.3296,0.4399,-0.8491,1.709,-4.211,1.099,151.650,19.693,-111.110
6049,-0.3203,0.4468,-0.8457,2.075,0.244,0.916,151.672,19.677,-111.116
6059,-0.3052,0.4448,-0.8057,0.244,0.732,0.427,151.672,19.655,-111.116
6069,-0.3579,0.4209,-0.7759,-2.319,-3.296,-0.061,151.639,19.709,-111.132
6079,-0.3999,0.4297,-0.7725,-5.371,-6.897,-0.061,151.567,19.814,-111.165
6089,-0.3813,0.4517,-0.7788,-7.202,-7.080,1.343,151.463,19.902,-111.215
6099,-0.3628,0.4658,-0.8242,-4.822,-2.930,2.502,151.397,19.929,-111.253
6109,-0.3564,0.4917,-0.8989,-1.099,5.005,2.380,151.386,19.863,-111.248
6119,-0.2969,0.5161,-0.9185,-0.244,12.024,2.075,151.386,19.709,-111.209
6129,-0.2715,0.5068,-0.8887,-0.366,13.306,1.404,151.392,19.539,-111.154
6139,-0.3174,0.4678,-0.8530,-1.526,7.019,-0.366,151.386,19.462,-111.116
6149,-0.3511,0.4497,-0.8271,-5.371,-2.502,-2.441,151.342,19.506,-111.105
6159,-0.3887,0.4307,-0.7876,-9.827,-10.010,-3.418,151.238,19.649,-111.121
6169,-0.4048,0.4268,-0.7720,-11.719,-12.451,-3.540,151.106,19.825,-111.154
6179,-0.3901,0.4546,-0.8257,-10.376,-8.057,-3.357,151.002,19.935,-111.165
6189,-0.3335,0.5244,-0.9609,-8.362,3.479,-2.563,150.936,19.891,-111.121
6199,-0.2759,0.5645,-1.0601,-6.409,19.958,-2.808,150.930,19.660,-110.995
6209,-0.2559,0.5898,-1.0356,-10.559,32.410,-4.822,150.886,19.330,-110.781
6219,-0.2549,0.5806,-0.9521,-14.282,33.691,-8.789,150.809,19.012,-110.528
6229,-0.2954,0.5415,-0.8496,-17.639,25.085,-13.489,150.683,18.836,-110.270
6239,-0.3613,0.5020,-0.7339,-19.775,8.606,-17.883,150.502,18.880,-110.061
6249,-0.4258,0.4404,-0.6382,-18.555,-7.996,-20.142,150.315,19.149,-109.918
6259,-0.4575,0.4004,-0.5845,-14.404,-17.212,-18.982,150.150,19.528,-109.836
6269,-0.4590,0.3652,-0.5854,-6.042,-16.724,-15.991,150.090,19.891,-109.775
6279,-0.4170,0.3608,-0.6377,2.075,-7.629,-11.475,150.134,20.110,-109.709
6289,-0.3579,0.3809,-0.7358,8.972,7.996,-6.409,150.282,20.105,-109.611
6299,-0.3052,0.4248,-0.8311,12.817,26.306,-1.404,150.491,19.863,-109.457
6309,-0.2661,0.4736,-0.8892,11.902,40.833,2.136,150.688,19.451,-109.265
6319,-0.2529,0.5190,-0.9233,8.118,46.387,3.540,150.837,18.973,-109.056
6329,-0.2607,0.5356,-0.9370,5.310,41.931,1.831,150.947,18.550,-108.858
6339,-0.2715,0.5264,-0.9380,2.319,30.090,-0.854,151.018,18.248,-108.693
6349,-0.2803,0.5142,-0.9385,-1.404,14.404,-3.662,151.040,18.105,-108.589
6359,-0.2798,0.5161,-0.9614,-5.798,-0.732,-5.493,151.002,18.100,-108.539
6369,-0.2773,0.5039,-0.9785,-6.348,-8.911,-6.226,150.963,18.171,-108.528
6379,-0.2803,0.4824,-0.9463,-5.005,-12.268,-5.615,150.930,18.270,-108.539
6389,-0.2891,0.4473,-0.8975,-1.282,-14.343,-4.456,150.930,18.391,-108.572
6399,-0.3042,0.4121,-0.8491,2.686,-16.235,-3.662,150.974,18.545,-108.622
6409,-0.3306,0.3735,-0.7983,3.418,-18.921,-3.479,151.029,18.748,-108.688
6419,-0.3545,0.3618,-0.7583,0.427,-21.729,-3.540,151.040,18.990,-108.765
6429,-0.3755,0.3779,-0.7622,-3.540,-21.973,-2.686,151.007,19.243,-108.853
6439,-0.3496,0.4312,-0.8066,-6.104,-16.846,-0.183,150.925,19.407,-108.935
6449,-0.3501,0.4580,-0.8418,-4.211,-5.493,3.113,150.870,19.446,-108.995
6459,-0.3252,0.4814,-0.8721,-0.305,6.104,5.249,150.864,19.352,-109.012
6469,-0.2896,0.5015,-0.9243,2.991,13.306,5.554,150.908,19.171,-108.995
6479,-0.2788,0.5059,-0.9419,2.014,13.672,4.883,150.941,18.984,-108.968
6489,-0.2954,0.5034,-0.9067,-1.526,7.141,3.784,150.930,18.875,-108.968
6500,-0.3369,0.4790,-0.8364,-4.272,-3.540,2.136,150.864,18.896,-109.006
6509,-0.3760,0.4438,-0.7559,-6.592,-15.686,0.549,150.760,19.078,-109.089
6519,-0.3975,0.4277,-0.7065,-5.981,-25.024,-0.366,150.639,19.358,-109.215
6529,-0.3999,0.4263,-0.7217,-2.563,-28.137,-0.122,150.557,19.666,-109.363
6539,-0.3530,0.5093,-0.8525,0.183,-22.095,2.136,150.496,19.841,-109.495
6549,-0.3018,0.5771,-0.9868,5.005,-4.700,5.310,150.513,19.808,-109.572
6559,-0.2783,0.5933,-1.0103,7.996,14.038,6.409,150.590,19.589,-109.556
6569,-0.2515,0.5937,-0.9897,7.446,23.437,4.456,150.672,19.292,-109.473
6579,-0.2690,0.5420,-0.9136,4.700,18.250,-0.732,150.743,19.089,-109.374
6589,-0.3350,0.4727,-0.8110,-2.197,-0.488,-6.592,150.727,19.133,-109.314
6599,-0.3789,0.4434,-0.7280,-10.803,-21.790,-9.277,150.590,19.413,-109.341
6609,-0.4170,0.3960,-0.6782,-13.062,-37.476,-9.583,150.419,19.869,-109.446
6619,-0.4365,0.3936,-0.6714,-11.536,-44.495,-7.996,150.244,20.385,-109.611
6629,-0.4146,0.4229,-0.7222,-5.249,-38.086,-4.639,150.128,20.792,-109.764
6639,-0.3804,0.4155,-0.7754,4.395,-18.982,-0.061,150.156,20.984,-109.869
6649,-0.3398,0.4307,-0.8198,11.841,2.808,3.479,150.287,20.934,-109.885
6659,-0.3057,0.4604,-0.8823,14.343,19.592,5.005,150.469,20.704,-109.825
6669,-0.3057,0.4834,-0.8916,10.681,26.672,5.859,150.617,20.407,-109.742
6679,-0.3276,0.4956,-0.8628,5.005,23.804,5.432,150.688,20.149,-109.666
6689,-0.3672,0.4893,-0.8135,-0.244,13.000,3.540,150.677,20.034,-109.633
6699,-0.3857,0.4922,-0.7964,-4.150,-1.160,1.160,150.612,20.061,-109.649
6709,-0.3906,0.4897,-0.7910,-4.395,-11.414,-0.122,150.524,20.187,-109.709
6719,-0.3750,0.4922,-0.8242,-0.549,-13.428,-0.427,150.480,20.314,-109.775
6729,-0.3545,0.4922,-0.8540,4.517,-7.996,0.000,150.507,20.380,-109.814
6739,-0.3389,0.4795,-0.8613,8.911,0.183,0.305,150.595,20.363,-109.819
6749,-0.3242,0.4639,-0.8618,11.353,6.226,-0.122,150.732,20.286,-109.786
6759,-0.3242,0.4497,-0.8584,10.498,7.080,-0.732,150.870,20.215,-109.742
6769,-0.3345,0.4419,-0.8501,6.531,3.662,-1.221,150.958,20.176,-109.709
6779,-0.3403,0.4502,-0.8462,2.136,-0.732,-0.916,150.991,20.182,-109.704
6789,-0.3384,0.4546,-0.8452,0.305,-3.296,0.122,150.996,20.204,-109.726
6799,-0.3394,0.4517,-0.8506,1.160,-3.113,1.221,151.007,20.215,-109.753
6809,-0.3315,0.4448,-0.8633,3.174,-1.282,1.831,151.051,20.204,-109.775
6819,-0.3218,0.4443,-0.8774,4.395,0.610,2.258,151.106,20.165,-109.792
6829,-0.3101,0.4482,-0.9043,4.089,1.770,2.747,151.166,20.105,-109.808
6839,-0.3057,0.4590,-0.9312,2.869,2.136,3.052,151.216,20.039,-109.825
6849,-0.3096,0.4653,-0.9307,1.526,1.099,2.930,151.249,19.979,-109.847
6859,-0.3174,0.4687,-0.9136,-0.244,-1.404,2.380,151.249,19.951,-109.880
6869,-0.3252,0.4678,-0.8979,-2.075,-5.005,1.770,151.227,19.968,-109.918
6879,-0.3403,0.4629,-0.8760,-3.235,-8.362,1.282,151.188,20.023,-109.973
6889,-0.3403,0.4814,-0.8726,-3.601,-10.498,1.160,151.128,20.094,-110.039
6899,-0.3364,0.4893,-0.8765,-1.892,-10.437,1.953,151.084,20.160,-110.110
6909,-0.3164,0.5156,-0.9023,0.427,-7.874,3.235,151.051,20.182,-110.182
6919,-0.2998,0.5522,-0.9390,3.418,-2.686,5.188,151.051,20.132,-110.242
6929,-0.2905,0.5669,-0.9580,6.714,4.395,7.507,151.084,20.001,-110.292
6939,-0.2759,0.5898,-0.9756,7.690,11.230,8.484,151.133,19.803,-110.314
6949,-0.2754,0.6016,-0.9546,10.132,16.846,8.057,151.199,19.556,-110.303
6959,-0.3193,0.5093,-0.8643,13.794,17.273,6.409,151.331,19.358,-110.270
6969,-0.3521,0.4316,-0.7832,14.221,10.254,2.136,151.479,19.281,-110.242
6979,-0.3813,0.3799,-0.7378,10.620,0.183,-2.136,151.606,19.341,-110.220
6989,-0.4102,0.3408,-0.7046,3.784,-7.874,-3.723,151.666,19.512,-110.226
7000,-0.4419,0.3130,-0.6680,-4.395,-11.353,-2.930,151.644,19.737,-110.253
7009,-0.4604,0.3022,-0.6328,-12.024,-9.399,-0.793,151.540,19.957,-110.292
7019,-0.4634,0.3027,-0.5845,-17.456,-3.296,2.258,151.364,20.127,-110.330
7029,-0.4795,0.3467,-0.5771,-18.555,5.737,7.263,151.144,20.198,-110.369
7039,-0.4346,0.3984,-0.5952,-13.550,17.700,14.160,150.947,20.089,-110.413
7049,-0.4165,0.4121,-0.6401,-2.930,29.724,20.081,150.870,19.819,-110.446
7059,-0.3994,0.4072,-0.6758,7.446,37.109,22.034,150.919,19.462,-110.457
7069,-0.3682,0.4229,-0.7266,13.489,39.001,20.447,151.046,19.067,-110.446
7079,-0.3369,0.4580,-0.8008,15.442,36.255,17.517,151.199,18.682,-110.424
7089,-0.2993,0.5000,-0.8770,13.489,31.982,14.954,151.331,18.309,-110.396
7099,-0.2627,0.5371,-0.9370,9.766,27.100,12.695,151.425,17.968,-110.380
7109,-0.2456,0.5620,-0.9746,6.287,21.851,9.827,151.474,17.677,-110.358
7119,-0.2095,0.6133,-1.0103,3.845,16.235,6.531,151.496,17.424,-110.336
7129,-0.1841,0.6367,-1.0361,4.822,10.925,4.150,151.518,17.221,-110.319
7139,-0.1880,0.6182,-1.0327,7.751,5.432,1.953,151.573,17.084,-110.314
7149,-0.2285,0.5596,-0.9878,9.521,-1.160,-1.648,151.655,17.045,-110.303
7159,-0.2905,0.4854,-0.9263,7.690,-9.399,-6.470,151.743,17.144,-110.292
7169,-0.3188,0.4429,-0.8774,1.465,-17.761,-10.620,151.776,17.353,-110.281
7179,-0.3354,0.4209,-0.8354,-5.432,-23.804,-12.512,151.738,17.644,-110.281
7189,-0.3540,0.4048,-0.7925,-8.728,-25.085,-12.085,151.655,17.963,-110.297
7199,-0.3672,0.3789,-0.7686,-7.141,-20.874,-9.949,151.606,18.243,-110.308
7209,-0.3608,0.3779,-0.7632,-3.479,-12.329,-6.897,151.589,18.430,-110.308
7219,-0.3437,0.3750,-0.7695,1.526,-1.526,-2.869,151.639,18.490,-110.286
7229,-0.3037,0.4023,-0.8115,5.859,9.094,1.038,151.727,18.408,-110.253
7239,-0.2729,0.4219,-0.8555,8.240,16.296,3.784,151.842,18.221,-110.204
7249,-0.2822,0.4248,-0.8628,6.226,18.250,4.822,151.935,18.023,-110.160
7259,-0.2808,0.4312,-0.8540,0.366,14.038,3.723,151.963,17.864,-110.121
7269,-0.2988,0.4512,-0.8628,-6.775,7.385,1.160,151.908,17.787,-110.099
7279,-0.3091,0.4785,-0.8716,-13.367,2.075,-1.587,151.776,17.770,-110.072
7289,-0.3032,0.5068,-0.8779,-17.456,-0.793,-3.601,151.595,17.781,-110.045
7299,-0.2788,0.5581,-0.9321,-16.235,-0.244,-4.822,151.425,17.776,-110.001
7309,-0.2563,0.5747,-0.9766,-9.583,4.272,-4.517,151.326,17.710,-109.935
7319,-0.2588,0.5488,-0.9727,-1.709,8.972,-3.662,151.326,17.600,-109.858
7329,-0.2729,0.4888,-0.9189,3.967,9.216,-3.967,151.397,17.512,-109.775
7339,-0.3062,0.4189,-0.8467,3.723,2.319,-5.310,151.474,17.523,-109.715
7349,-0.3262,0.3926,-0.8003,-2.747,-7.629,-5.920,151.479,17.639,-109.698
7359,-0.3379,0.3623,-0.7568,-10.803,-15.076,-5.920,151.392,17.842,-109.720
7369,-0.3384,0.3672,-0.7534,-16.479,-18.860,-7.080,151.249,18.083,-109.748
7379,-0.3252,0.4131,-0.7988,-18.738,-15.991,-8.118,151.073,18.276,-109.753
7389,-0.2988,0.4727,-0.8638,-17.334,-6.592,-6.470,150.914,18.353,-109.731
7399,-0.2773,0.5312,-0.9229,-11.475,5.615,-2.441,150.809,18.276,-109.677
7409,-0.2847,0.5347,-0.9434,-3.052,15.564,1.343,150.793,18.100,-109.611
7419,-0.2915,0.5303,-0.9312,2.991,18.311,2.991,150.842,17.897,-109.545
7429,-0.2998,0.4990,-0.8994,5.737,13.123,2.258,150.914,17.759,-109.495
7439,-0.3345,0.4336,-0.8306,3.418,2.075,0.488,150.963,17.759,-109.490
7449,-0.3599,0.3853,-0.7549,-4.395,-10.254,-1.587,150.930,17.908,-109.528
7459,-0.3711,0.3369,-0.7231,-14.099,-19.592,-4.211,150.809,18.166,-109.589
7469,-0.3506,0.3569,-0.7427,-23.682,-21.790,-6.104,150.595,18.435,-109.644
7479,-0.3330,0.4106,-0.7793,-30.273,-14.099,-5.127,150.304,18.600,-109.671
7489,-0.3003,0.4790,-0.8320,-30.640,2.014,-0.854,150.002,18.578,-109.655
7500,-0.2544,0.5894,-0.9258,-25.146,21.057,5.310,149.749,18.314,-109.589
7509,-0.2407,0.6377,-0.9614,-14.893,38.147,11.963,149.595,17.864,-109.495
7519,-0.2598,0.6138,-0.9277,-6.348,45.593,15.198,149.535,17.353,-109.391
7529,-0.2529,0.5796,-0.9077,-2.869,42.114,13.123,149.518,16.886,-109.286
7539,-0.2393,0.5439,-0.8896,-5.554,29.907,8.423,149.474,16.545,-109.204
7549,-0.2495,0.5146,-0.8701,-12.573,15.137,3.235,149.365,16.375,-109.155
7559,-0.2627,0.5122,-0.8530,-18.921,3.906,-0.488,149.183,16.326,-109.127
7569,-0.2749,0.5073,-0.8394,-20.081,-1.160,-1.404,148.980,16.337,-109.122
7579,-0.2822,0.5171,-0.8394,-15.015,-0.916,-0.366,148.826,16.342,-109.122
7589,-0.3032,0.5088,-0.8340,-5.493,2.686,2.136,148.766,16.320,-109.127
7599,-0.3184,0.4736,-0.8213,4.211,6.287,5.066,148.821,16.265,-109.138
7609,-0.3169,0.4517,-0.8218,8.911,7.629,7.263,148.925,16.183,-109.166
7619,-0.2988,0.4458,-0.8267,8.606,6.470,8.118,149.024,16.106,-109.199
7629,-0.2798,0.4502,-0.8311,4.333,2.380,7.507,149.079,16.051,-109.254
7639,-0.2612,0.4717,-0.8452,-1.526,-2.380,5.371,149.068,16.035,-109.314
7649,-0.2524,0.5083,-0.8662,-6.653,-6.042,3.113,148.991,16.051,-109.374
7659,-0.2397,0.5620,-0.8945,-8.972,-7.019,2.014,148.876,16.068,-109.429
7669,-0.2407,0.6035,-0.9077,-7.446,-5.432,2.197,148.760,16.062,-109.479
7679,-0.2627,0.6074,-0.8838,-3.479,-3.723,2.563,148.683,16.062,-109.523
7689,-0.2856,0.5869,-0.8408,0.305,-4.395,1.404,148.640,16.084,-109.561
7699,-0.3052,0.5400,-0.7847,2.380,-7.996,-1.160,148.623,16.177,-109.594
7709,-0.3169,0.4980,-0.7417,0.732,-13.184,-3.967,148.596,16.342,-109.627
7719,-0.3193,0.4727,-0.7363,-3.723,-17.822,-6.592,148.535,16.562,-109.666
7729,-0.2998,0.5186,-0.7944,-7.996,-18.311,-8.118,148.431,16.771,-109.693
7739,-0.2764,0.5723,-0.8721,-7.812,-11.414,-7.324,148.337,16.886,-109.693
7749,-0.2568,0.6040,-0.9155,-2.930,1.099,-4.761,148.304,16.864,-109.644
7759,-0.2637,0.5850,-0.9004,3.723,11.658,-3.113,148.354,16.749,-109.550
7769,-0.2964,0.5176,-0.8125,7.263,13.428,-3.418,148.447,16.655,-109.446
7779,-0.3496,0.4136,-0.7178,6.470,4.517,-6.104,148.552,16.716,-109.369
7789,-0.3735,0.3789,-0.6636,-1.831,-9.033,-8.606,148.557,16.930,-109.341
7799,-0.3892,0.3516,-0.6455,-9.521,-19.226,-9.094,148.486,17.249,-109.363
7809,-0.3613,0.4258,-0.7295,-13.611,-19.714,-7.568,148.348,17.512,-109.407
7819,-0.2910,0.5610,-0.8892,-10.620,-6.226,-2.014,148.233,17.556,-109.424
7829,-0.2051,0.6533,-1.0156,1.709,17.456,6.226,148.255,17.292,-109.380
7839,-0.1743,0.6611,-1.0376,14.771,39.978,12.390,148.425,16.804,-109.270
7849,-0.1763,0.6157,-0.9849,22.400,49.316,12.695,148.689,16.238,-109.116
7859,-0.2227,0.5171,-0.8726,21.851,40.283,6.714,148.953,15.826,-108.957
7869,-0.2886,0.4551,-0.8110,11.719,14.832,-2.075,149.112,15.721,-108.858
7879,-0.3350,0.4458,-0.7886,-2.563,-13.245,-8.484,149.101,15.925,-108.853
7889,-0.3491,0.4380,-0.7812,-12.268,-32.349,-11.292,148.980,16.309,-108.924
7899,-0.3403,0.4741,-0.8032,-15.381,-36.682,-10.559,148.804,16.716,-109.028
7909,-0.2949,0.5200,-0.8599,-9.888,-27.283,-6.226,148.678,16.974,-109.122
7919,-0.2534,0.5420,-0.9004,0.916,-7.935,-0.671,148.678,17.007,-109.155
7929,-0.2290,0.5278,-0.9043,11.963,10.437,3.052,148.815,16.859,-109.127
7939,-0.2251,0.5254,-0.8921,17.029,20.203,4.517,149.013,16.617,-109.056
7949,-0.2617,0.4741,-0.8413,15.747,18.555,4.211,149.200,16.425,-108.995
7959,-0.2969,0.4326,-0.7827,9.277,7.690,2.014,149.321,16.370,-108.973
7969,-0.3188,0.4399,-0.7715,0.427,-6.531,-0.671,149.326,16.463,-109.001
7979,-0.3296,0.4575,-0.7808,-5.859,-16.052,-1.282,149.249,16.639,-109.078
7989,-0.3159,0.4795,-0.8203,-5.981,-15.808,-0.427,149.172,16.793,-109.155
8000,-0.3003,0.5073,-0.8574,-2.014,-7.507,1.099,149.139,16.853,-109.204
8009,-0.2881,0.5078,-0.8765,4.395,3.418,2.869,149.189,16.798,-109.215
8019,-0.2817,0.4985,-0.8774,9.705,11.230,4.089,149.304,16.672,-109.188
8029,-0.2686,0.4971,-0.8696,10.437,12.390,5.066,149.420,16.523,-109.171
8039,-0.2578,0.4961,-0.8530,7.385,7.568,5.188,149.496,16.414,-109.177
8049,-0.2778,0.4956,-0.8247,2.502,-1.160,3.967,149.507,16.403,-109.215
8059,-0.2988,0.5049,-0.7959,-2.747,-9.460,1.892,149.442,16.485,-109.286
8069,-0.3115,0.5059,-0.7808,-6.348,-14.099,0.000,149.332,16.622,-109.358
8079,-0.3394,0.4912,-0.7832,-7.019,-12.878,-1.831,149.233,16.776,-109.413
8089,-0.3179,0.5103,-0.8096,-7.263,-6.714,-2.930,149.145,16.864,-109.424
8099,-0.2925,0.5464,-0.8633,-5.554,3.174,-2.136,149.084,16.842,-109.385
8109,-0.2612,0.5474,-0.8882,-1.526,13.123,-0.427,149.084,16.705,-109.308
8119,-0.3086,0.5234,-0.8965,2.197,19.165,-0.061,149.139,16.540,-109.210
8129,-0.3164,0.4893,-0.8647,2.502,19.531,-1.282,149.211,16.392,-109.089
8139,-0.2749,0.4458,-0.7910,-1.709,14.160,-2.747,149.238,16.293,-108.990
8149,-0.2617,0.3970,-0.7305,-10.254,4.700,-4.333,149.178,16.282,-108.929
8159,-0.2817,0.3940,-0.7471,-22.766,-1.648,-5.493,148.991,16.348,-108.885
8169,-0.2905,0.4727,-0.8301,-34.912,3.906,-4.028,148.678,16.342,-108.831
8179,-0.2573,0.6196,-0.9141,-38.025,20.447,0.977,148.299,16.128,-108.726
8189,-0.2168,0.6982,-0.9756,-27.893,43.335,9.094,148.030,15.661,-108.572
8199,-0.1841,0.6694,-0.9419,-11.414,62.622,16.479,147.931,14.980,-108.375
8209,-0.1616,0.6040,-0.8711,1.709,68.604,18.250,147.980,14.244,-108.155
8219,-0.1855,0.5332,-0.8262,8.484,55.969,12.756,148.101,13.672,-107.963
8229,-0.2539,0.4365,-0.7896,8.667,29.907,3.296,148.250,13.425,-107.825
8239,-0.3101,0.3833,-0.7715,1.343,-0.366,-4.944,148.326,13.519,-107.787
8249,-0.3198,0.4014,-0.7944,-9.033,-25.269,-8.972,148.271,13.843,-107.842
8259,-0.3130,0.4517,-0.8408,-15.259,-38.208,-8.057,148.123,14.249,-107.979
8269,-0.2676,0.5571,-0.9165,-14.771,-36.133,-3.174,147.942,14.562,-108.149
8279,-0.2212,0.6211,-0.9385,-6.348,-22.400,3.357,147.827,14.700,-108.303
8289,-0.2002,0.6211,-0.8984,6.226,-6.775,7.690,147.838,14.672,-108.408
8299,-0.1982,0.5874,-0.8467,15.015,1.831,7.202,147.947,14.584,-108.457
8309,-0.2183,0.5400,-0.8179,14.709,1.404,3.723,148.074,14.529,-108.484
8319,-0.2627,0.4932,-0.8096,6.836,-3.601,-0.305,148.140,14.573,-108.501
8329,-0.3091,0.4746,-0.8110,-2.686,-7.263,-3.723,148.129,14.689,-108.506
8339,-0.3237,0.4927,-0.8130,-8.789,-7.141,-4.761,148.046,14.815,-108.506
8349,-0.3101,0.5283,-0.8149,-8.850,-4.456,-3.601,147.953,14.903,-108.495
8359,-0.2876,0.5420,-0.8164,-1.953,-0.977,-1.282,147.920,14.930,-108.490
8369,-0.2666,0.5317,-0.8188,6.897,1.221,0.854,147.975,14.919,-108.490
8379,-0.2549,0.5083,-0.8198,12.756,1.343,2.197,148.101,14.897,-108.506
8389,-0.2524,0.4897,-0.8135,13.000,-0.122,2.808,148.233,14.881,-108.528
8399,-0.2603,0.4888,-0.8022,8.606,-2.563,3.174,148.310,14.892,-108.572
8409,-0.2764,0.4878,-0.7847,3.479,-5.249,3.174,148.332,14.936,-108.627
8419,-0.2744,0.5059,-0.7988,-0.366,-6.653,2.441,148.304,14.991,-108.688
8429,-0.2578,0.5303,-0.8442,-1.770,-5.127,1.343,148.271,15.024,-108.726
8439,-0.2373,0.5454,-0.8696,-1.404,-0.488,0.488,148.255,15.007,-108.732
8449,-0.2266,0.5474,-0.8784,-0.305,4.333,-0.305,148.255,14.947,-108.704
8459,-0.2197,0.5405,-0.8687,1.343,6.287,-1.221,148.277,14.870,-108.660
8469,-0.2251,0.5317,-0.8564,2.441,4.272,-1.770,148.310,14.821,-108.622
8479,-0.2349,0.5254,-0.8438,2.014,-0.305,-1.892,148.332,14.815,-108.605
8489,-0.2461,0.5225,-0.8442,1.221,-5.310,-2.502,148.343,14.865,-108.616
8500,-0.2671,0.5205,-0.8428,1.770,-10.254,-3.967,148.354,14.974,-108.633
8509,-0.2896,0.4941,-0.8433,3.540,-15.381,-6.042,148.392,15.150,-108.666
8519,-0.2876,0.4917,-0.8540,3.296,-18.555,-7.629,148.436,15.359,-108.699
8529,-0.2856,0.4971,-0.8569,2.014,-19.348,-7.751,148.458,15.568,-108.737
8539,-0.2837,0.4990,-0.8584,0.122,-18.921,-6.104,148.464,15.765,-108.787
8549,-0.2676,0.5215,-0.8613,-0.916,-17.334,-3.601,148.442,15.919,-108.847
8559,-0.2480,0.5425,-0.8589,0.122,-12.512,-0.977,148.420,16.007,-108.907
8569,-0.2490,0.5542,-0.8389,2.014,-6.165,0.732,148.409,16.035,-108.946
8579,-0.2510,0.5635,-0.8374,4.456,0.916,1.099,148.425,16.002,-108.951
8589,-0.2700,0.5371,-0.8311,7.324,7.568,0.916,148.497,15.925,-108.918
8599,-0.3120,0.4604,-0.7939,7.996,11.902,-0.671,148.607,15.859,-108.847
8609,-0.3374,0.4048,-0.7520,3.967,12.451,-3.418,148.705,15.826,-108.748
8619,-0.3110,0.4390,-0.7744,-3.906,10.620,-4.700,148.711,15.798,-108.649
8629,-0.2617,0.5410,-0.8530,-9.155,10.925,-1.587,148.629,15.699,-108.578
8639,-0.2192,0.6279,-0.9321,-6.104,15.747,4.944,148.552,15.496,-108.534
8649,-0.1641,0.7227,-1.0171,4.150,24.414,11.414,148.563,15.150,-108.506
8659,-0.1299,0.7324,-1.0093,17.883,32.349,16.296,148.700,14.700,-108.474
8669,-0.1973,0.5835,-0.8711,27.771,30.457,16.174,148.958,14.321,-108.452
8679,-0.3203,0.3662,-0.6787,25.879,12.573,6.836,149.244,14.260,-108.446
8689,-0.4326,0.2178,-0.5532,8.850,-15.259,-7.263,149.420,14.645,-108.463
8699,-0.4614,0.1885,-0.5273,-14.587,-40.588,-18.005,149.370,15.331,-108.517
8709,-0.4126,0.3149,-0.6348,-32.776,-52.490,-19.775,149.062,16.024,-108.616
8719,-0.2959,0.5825,-0.8662,-35.400,-39.429,-8.545,148.645,16.403,-108.754
8729,-0.1748,0.7471,-1.0630,-16.968,-2.197,7.996,148.414,16.293,-108.836
8739,-0.1074,0.7676,-1.1128,7.080,41.565,21.484,148.464,15.710,-108.798
8749,-0.0522,0.7681,-1.0981,27.039,73.608,24.841,148.749,14.826,-108.616
8759,-0.0620,0.6392,-1.0347,38.757,80.322,16.724,149.200,13.942,-108.336
8769,-0.1533,0.5073,-0.9648,32.104,58.838,3.174,149.612,13.365,-108.051
8779,-0.2266,0.4580,-0.9282,13.733,19.043,-10.742,149.837,13.250,-107.858
8789,-0.2754,0.4487,-0.8672,-7.568,-24.231,-19.836,149.799,13.579,-107.809
8799,-0.3149,0.4175,-0.7866,-20.813,-57.312,-23.071,149.595,14.244,-107.897
8809,-0.3491,0.4307,-0.7300,-23.804,-73.547,-21.606,149.310,15.062,-108.089
8819,-0.3467,0.4438,-0.7061,-16.724,-72.510,-16.724,149.073,15.837,-108.325
8829,-0.3403,0.4375,-0.7085,-2.686,-56.091,-9.460,148.980,16.425,-108.539
8839,-0.3262,0.4175,-0.7290,10.681,-31.006,-0.793,149.052,16.743,-108.699
8849,-0.3135,0.4136,-0.7432,18.433,-5.432,7.385,149.227,16.782,-108.798
8859,-0.3125,0.3882,-0.7471,21.057,15.564,11.902,149.458,16.628,-108.820
8869,-0.3154,0.3877,-0.7466,15.625,26.855,13.000,149.656,16.370,-108.792
8879,-0.3149,0.4019,-0.7573,5.798,28.809,11.536,149.749,16.106,-108.743
8889,-0.3003,0.4531,-0.8013,-3.296,24.170,9.033,149.733,15.875,-108.699
8899,-0.2617,0.5400,-0.8843,-9.277,18.921,7.507,149.639,15.656,-108.666
8909,-0.1958,0.6475,-0.9990,-9.583,16.968,8.240,149.524,15.408,-108.655
8919,-0.1401,0.7173,-1.0654,-4.517,19.226,10.193,149.447,15.101,-108.644
8929,-0.1318,0.7026,-1.0674,2.747,21.545,10.193,149.453,14.777,-108.622
8939,-0.2148,0.5537,-0.9185,9.155,5.737,-0.977,149.546,14.694,-108.583
8949,-0.2759,0.4775,-0.8262,2.014,-12.878,-7.751,149.573,14.859,-108.578
8959,-0.3301,0.4175,-0.7402,-7.629,-30.579,-12.329,149.491,15.244,-108.633
8969,-0.3569,0.3804,-0.6978,-13.062,-40.588,-14.954,149.365,15.754,-108.710
8979,-0.3506,0.3994,-0.7021,-15.381,-40.039,-13.855,149.194,16.243,-108.798
8989,-0.3169,0.4687,-0.7524,-11.963,-28.931,-7.996,149.046,16.567,-108.880
9000,-0.2651,0.5293,-0.8184,-2.197,-7.996,0.061,148.991,16.617,-108.924
9009,-0.2329,0.5410,-0.8574,10.193,15.259,7.568,149.084,16.414,-108.907
9019,-0.2134,0.5557,-0.8745,17.578,31.738,12.329,149.260,16.035,-108.853
9029,-0.2187,0.5273,-0.8794,20.020,36.194,12.146,149.480,15.623,-108.765
9039,-0.2310,0.5039,-0.8896,15.564,30.334,7.629,149.667,15.298,-108.677
9049,-0.2573,0.4893,-0.8950,6.165,18.311,1.343,149.766,15.123,-108.589
9059,-0.2935,0.4580,-0.8716,-4.456,4.028,-3.967,149.760,15.123,-108.534
9069,-0.3013,0.4678,-0.8496,-13.916,-7.935,-7.141,149.645,15.249,-108.512
9079,-0.2969,0.4717,-0.8306,-16.174,-15.564,-7.263,149.485,15.441,-108.528
9089,-0.2915,0.4741,-0.8110,-12.451,-17.517,-5.005,149.354,15.634,-108.578
9099,-0.2842,0.4736,-0.7925,-6.042,-15.442,-1.770,149.271,15.787,-108.644
9109,-0.2710,0.4707,-0.7925,0.977,-10.681,1.953,149.260,15.875,-108.715
9119,-0.2476,0.4727,-0.8223,6.897,-3.845,5.676,149.321,15.864,-108.787
9129,-0.2402,0.4741,-0.8477,9.705,3.357,8.545,149.414,15.776,-108.847
9139,-0.2275,0.4946,-0.8838,8.850,9.583,9.521,149.507,15.612,-108.880
9149,-0.2061,0.5288,-0.9287,5.676,14.221,8.972,149.568,15.397,-108.885
9159,-0.1934,0.5566,-0.9517,1.465,16.663,7.629,149.590,15.167,-108.869
9169,-0.1904,0.5820,-0.9648,-2.380,15.503,4.822,149.568,14.952,-108.831
9179,-0.2085,0.5830,-0.9482,-4.578,9.949,0.977,149.524,14.821,-108.787
9189,-0.2441,0.5591,-0.8989,-6.592,0.000,-2.686,149.453,14.815,-108.759
9199,-0.2856,0.5303,-0.8340,-8.118,-12.024,-5.188,149.348,14.958,-108.776
9209,-0.3071,0.5122,-0.7749,-7.507,-22.095,-5.493,149.227,15.205,-108.847
9219,-0.3247,0.4795,-0.7490,-3.540,-26.550,-4.272,149.145,15.502,-108.946
9229,-0.3198,0.4663,-0.7524,0.061,-24.536,-2.197,149.106,15.765,-109.061
9239,-0.2969,0.4526,-0.7612,3.113,-15.808,-0.305,149.117,15.930,-109.138
9249,-0.2700,0.4561,-0.7896,4.456,-3.418,0.854,149.167,15.958,-109.166
9259,-0.2520,0.4727,-0.8140,3.967,8.789,1.465,149.222,15.864,-109.133
9269,-0.2520,0.4766,-0.8203,2.197,16.724,2.014,149.266,15.705,-109.061
9279,-0.2549,0.4985,-0.8262,-1.038,18.494,2.380,149.277,15.524,-108.984
9289,-0.2637,0.5176,-0.8374,-3.052,15.442,2.502,149.249,15.375,-108.924
9299,-0.2788,0.5337,-0.8496,-3.662,10.437,2.502,149.211,15.276,-108.891
9309,-0.2769,0.5444,-0.8779,-3.052,6.042,2.197,149.172,15.211,-108.880
9319,-0.2563,0.5396,-0.9028,-2.197,4.089,0.916,149.150,15.156,-108.869
9329,-0.2354,0.5327,-0.9189,-2.747,4.395,-1.465,149.145,15.101,-108.831
9339,-0.2183,0.5449,-0.9150,-4.456,4.944,-3.845,149.117,15.040,-108.770
9349,-0.2114,0.5542,-0.9053,-4.883,4.150,-4.639,149.079,14.991,-108.704
9359,-0.2158,0.5493,-0.8867,-2.563,1.892,-4.150,149.057,14.963,-108.660
9369,-0.2354,0.5293,-0.8540,1.343,-1.160,-3.235,149.068,14.974,-108.638
9379,-0.2661,0.4995,-0.8081,5.554,-4.578,-2.075,149.112,15.029,-108.644
9389,-0.2998,0.4590,-0.7744,9.338,-7.446,0.000,149.194,15.128,-108.682
9399,-0.3218,0.4248,-0.7378,12.512,-8.606,3.174,149.310,15.238,-108.754
9409,-0.3179,0.4146,-0.7393,16.113,-6.470,6.958,149.458,15.315,-108.853
9419,-0.2852,0.4390,-0.7847,20.081,-0.427,11.108,149.645,15.282,-108.951
9429,-0.2495,0.4614,-0.8491,24.231,8.545,14.832,149.881,15.128,-109.039
9439,-0.2095,0.4829,-0.9038,26.245,17.700,16.541,150.145,14.859,-109.100
9449,-0.1875,0.5059,-0.9429,22.949,22.766,15.808,150.381,14.535,-109.122
9459,-0.1880,0.5278,-0.9600,16.174,21.118,12.756,150.546,14.244,-109.127
9469,-0.1890,0.5444,-0.9731,8.362,14.404,8.301,150.634,14.035,-109.133
9479,-0.1841,0.5610,-0.9878,0.183,5.554,2.991,150.634,13.925,-109.127
9489,-0.1895,0.5547,-0.9858,-7.141,-3.052,-2.563,150.562,13.920,-109.122
9500,-0.1963,0.5518,-0.9751,-13.916,-9.766,-7.812,150.430,14.002,-109.100
9509,-0.2036,0.5493,-0.9424,-18.921,-14.343,-11.597,150.244,14.145,-109.072
9519,-0.2349,0.5317,-0.8726,-20.508,-18.372,-13.611,150.029,14.359,-109.045
9529,-0.2822,0.5000,-0.7920,-17.578,-22.888,-13.733,149.837,14.645,-109.039
9539,-0.3291,0.4590,-0.7134,-10.803,-26.306,-11.780,149.694,14.996,-109.067
9549,-0.3647,0.4019,-0.6636,-2.808,-26.123,-8.240,149.639,15.364,-109.133
9559,-0.3809,0.3706,-0.6411,2.930,-21.484,-3.845,149.650,15.683,-109.210
9569,-0.3745,0.3535,-0.6455,7.446,-12.634,0.427,149.722,15.903,-109.281
9579,-0.3472,0.3608,-0.6802,10.315,-0.305,4.639,149.837,15.963,-109.325
9589,-0.3096,0.3877,-0.7397,11.414,13.000,8.789,149.974,15.853,-109.336
9599,-0.2554,0.4502,-0.8276,10.010,24.902,12.695,150.090,15.573,-109.319
9609,-0.1938,0.5464,-0.9395,6.775,34.180,16.174,150.161,15.145,-109.286
9619,-0.1401,0.6294,-1.0342,4.883,39.917,17.395,150.211,14.628,-109.237
9629,-0.1245,0.6538,-1.0767,3.784,40.222,15.259,150.249,14.117,-109.171
9639,-0.1240,0.6592,-1.0947,0.854,33.447,8.850,150.266,13.700,-109.078
9649,-0.1289,0.6265,-1.0874,-4.089,18.311,-0.183,150.249,13.469,-108.984
9659,-0.1528,0.5962,-1.0518,-11.841,-0.977,-8.972,150.150,13.458,-108.907
9669,-0.1875,0.5718,-0.9722,-19.104,-20.020,-15.442,149.963,13.667,-108.869
9679,-0.2349,0.5264,-0.8579,-20.813,-35.156,-18.921,149.738,14.057,-108.885
9689,-0.2798,0.5054,-0.7603,-16.907,-43.335,-19.104,149.524,14.551,-108.940
9699,-0.3154,0.4663,-0.7017,-7.935,-42.786,-15.747,149.392,15.057,-109.023
9709,-0.3296,0.3843,-0.6650,3.113,-34.363,-10.681,149.409,15.485,-109.111
9719,-0.3462,0.2910,-0.6499,10.132,-21.606,-6.409,149.557,15.804,-109.166
9729,-0.3535,0.2642,-0.6602,10.498,-7.812,-1.526,149.738,15.985,-109.193
9739,-0.3394,0.3145,-0.7065,7.019,5.371,5.188,149.870,15.991,-109.210
9749,-0.3101,0.3926,-0.7759,4.333,16.846,12.695,149.936,15.820,-109.237
9759,-0.2764,0.4829,-0.8457,3.418,25.330,19.043,149.963,15.507,-109.276
9769,-0.2261,0.5640,-0.9229,5.005,29.236,21.118,149.991,15.117,-109.314
9779,-0.1763,0.6172,-0.9961,6.836,28.931,18.982,150.035,14.705,-109.336
9789,-0.1377,0.6226,-1.0347,6.165,24.109,13.550,150.084,14.354,-109.330
9799,-0.1436,0.5986,-1.0293,1.953,14.832,6.775,150.106,14.117,-109.319
9809,-0.1660,0.5781,-1.0044,-5.188,2.563,0.000,150.057,14.035,-109.303
9819,-0.2012,0.5732,-0.9604,-12.268,-9.155,-4.883,149.925,14.101,-109.308
9829,-0.2383,0.5713,-0.8931,-14.832,-17.212,-6.775,149.744,14.266,-109.336
9839,-0.2935,0.5596,-0.7920,-11.597,-21.545,-6.897,149.568,14.513,-109.385
9849,-0.3320,0.5190,-0.7207,-2.991,-23.621,-5.798,149.469,14.799,-109.457
9859,-0.3403,0.4785,-0.6914,6.226,-22.827,-4.028,149.469,15.090,-109.545
9869,-0.3369,0.4438,-0.6890,11.475,-17.761,-1.892,149.540,15.320,-109.616
9879,-0.3081,0.3901,-0.7202,12.085,-9.094,-0.244,149.667,15.452,-109.666
9889,-0.2749,0.3867,-0.7856,7.874,1.648,0.061,149.788,15.458,-109.655
9899,-0.2598,0.4224,-0.8320,1.038,11.475,1.160,149.843,15.353,-109.605
9909,-0.2471,0.4673,-0.8735,-3.296,18.005,2.991,149.848,15.172,-109.539
9919,-0.2334,0.5044,-0.9033,-5.127,19.775,4.395,149.826,14.958,-109.479
9929,-0.2095,0.5459,-0.9375,-5.432,17.273,4.333,149.782,14.749,-109.424
9939,-0.1787,0.5894,-0.9712,-5.249,12.939,3.357,149.733,14.562,-109.385
9949,-0.1641,0.5908,-0.9912,-3.845,7.812,1.770,149.694,14.420,-109.363
9959,-0.1650,0.5684,-0.9849,-3.357,1.709,-1.221,149.667,14.354,-109.341
9969,-0.1807,0.5220,-0.9468,-4.578,-5.676,-4.944,149.639,14.376,-109.330
9979,-0.2139,0.4805,-0.8921,-7.935,-13.306,-7.629,149.584,14.502,-109.330
9989,-0.2524,0.4565,-0.8398,-10.803,-18.677,-8.301,149.491,14.705,-109.352
10000,-0.2983,0.4673,-0.7744,-11.169,-20.142,-6.775,149.359,14.947,-109.402
10009,-0.3389,0.4966,-0.7261,-6.714,-18.494,-3.418,149.238,15.183,-109.468
10019,-0.3550,0.5078,-0.7100,2.808,-13.184,0.793,149.200,15.364,-109.545
10029,-0.3359,0.4922,-0.7119,12.817,-5.371,3.967,149.271,15.447,-109.605
10039,-0.3018,0.4443,-0.7520,18.555,2.747,4.639,149.447,15.436,-109.633
10049,-0.2749,0.4111,-0.7900,15.564,9.155,3.418,149.639,15.359,-109.616
10059,-0.2593,0.3950,-0.8120,5.615,11.597,0.916,149.749,15.260,-109.561
10069,-0.2686,0.4023,-0.8306,-6.470,9.766,-2.502,149.749,15.200,-109.490
10079,-0.2788,0.4517,-0.8467,-17.151,5.798,-6.226,149.623,15.189,-109.402
10089,-0.2700,0.5195,-0.8701,-22.217,2.563,-8.484,149.425,15.211,-109.314
10099,-0.2480,0.5850,-0.8901,-20.935,1.770,-7.507,149.211,15.211,-109.237
10109,-0.2256,0.6182,-0.9092,-14.465,2.563,-3.723,149.046,15.172,-109.193
10119,-0.1724,0.6606,-0.9746,-5.432,4.761,0.305,148.964,15.062,-109.171
10129,-0.1382,0.6338,-1.0015,3.723,6.409,2.441,148.991,14.908,-109.155
10139,-0.1538,0.5820,-0.9849,8.118,4.578,0.732,149.079,14.793,-109.138
10149,-0.1929,0.5430,-0.9473,5.920,-2.197,-3.052,149.156,14.782,-109.122
10159,-0.2388,0.5181,-0.8911,0.549,-10.925,-6.042,149.167,14.886,-109.127
10169,-0.2949,0.5000,-0.8218,-4.150,-17.883,-7.141,149.112,15.095,-109.160
10179,-0.3301,0.4834,-0.7651,-4.517,-21.057,-7.446,149.041,15.364,-109.204
10189,-0.3271,0.4673,-0.7388,-2.014,-19.897,-6.897,148.997,15.617,-109.248
10199,-0.3174,0.4292,-0.7344,2.014,-14.771,-5.554,149.013,15.820,-109.281
10209,-0.3096,0.4160,-0.7354,4.456,-6.897,-2.869,149.068,15.936,-109.292
10219,-0.2983,0.4180,-0.7524,5.554,1.587,1.282,149.145,15.952,-109.292
10229,-0.2832,0.4487,-0.7808,4.456,8.301,5.493,149.194,15.864,-109.297
10239,-0.2817,0.4917,-0.7979,2.441,12.939,8.179,149.211,15.721,-109.303
10249,-0.2808,0.5347,-0.8149,1.282,16.052,8.789,149.200,15.546,-109.297
10259,-0.2588,0.5513,-0.8589,2.380,18.066,7.812,149.211,15.337,-109.270
10269,-0.2261,0.5630,-0.9189,3.418,18.677,5.310,149.249,15.117,-109.215
10279,-0.2051,0.5781,-0.9629,2.563,16.541,2.441,149.293,14.919,-109.149
10289,-0.1895,0.5908,-0.9834,1.160,11.169,0.122,149.315,14.766,-109.094
10299,-0.1816,0.5972,-0.9741,0.122,3.296,-2.197,149.315,14.694,-109.056
10309,-0.2095,0.5889,-0.9390,-1.343,-5.737,-4.761,149.293,14.727,-109.045
10319,-0.2495,0.5747,-0.8896,-3.296,-13.062,-7.141,149.238,14.859,-109.050
10329,-0.2798,0.5234,-0.8271,-3.723,-17.029,-8.667,149.183,15.057,-109.061
10339,-0.3003,0.4741,-0.7759,-2.686,-17.883,-9.827,149.145,15.293,-109.072
10349,-0.3140,0.4307,-0.7461,-1.587,-16.113,-10.010,149.139,15.529,-109.067
10359,-0.2910,0.4023,-0.7568,-1.160,-11.719,-8.728,149.161,15.705,-109.050
10369,-0.2979,0.3960,-0.7739,-1.831,-5.127,-6.226,149.189,15.809,-109.023
10379,-0.2964,0.4126,-0.7817,-2.930,1.648,-2.747,149.200,15.837,-108.990
10389,-0.2817,0.4438,-0.7847,-1.953,6.592,0.916,149.200,15.793,-108.962
10399,-0.2891,0.4624,-0.7832,1.587,7.935,4.028,149.216,15.721,-108.957
10409,-0.2915,0.4810,-0.8057,5.676,6.592,6.165,149.271,15.650,-108.979
10419,-0.2773,0.4990,-0.8291,8.423,5.310,7.812,149.337,15.568,-109.017
10429,-0.2666,0.5112,-0.8447,9.277,5.249,8.728,149.414,15.474,-109.067
10439,-0.2563,0.5200,-0.8652,8.179,6.042,8.179,149.480,15.370,-109.111
10449,-0.2202,0.5317,-0.9106,5.310,6.897,6.104,149.529,15.244,-109.127
10459,-0.2065,0.5459,-0.9419,1.404,6.958,3.357,149.546,15.123,-109.122
10469,-0.2173,0.5542,-0.9492,-1.587,5.554,1.038,149.540,15.035,-109.100
10479,-0.2256,0.5532,-0.9390,-2.686,2.563,-0.671,149.518,14.980,-109.083
10489,-0.2349,0.5386,-0.9160,-3.113,-1.953,-1.953,149.485,14.980,-109.072
10500,-0.2515,0.5166,-0.8779,-3.601,-7.080,-2.991,149.447,15.046,-109.083
10509,-0.2661,0.5010,-0.8340,-4.089,-11.353,-3.540,149.398,15.161,-109.116
10519,-0.2588,0.5005,-0.8164,-3.174,-13.428,-3.540,149.348,15.293,-109.155
10529,-0.2612,0.4902,-0.8096,-0.916,-12.268,-2.869,149.321,15.414,-109.193
10539,-0.2725,0.4810,-0.8008,1.099,-8.423,-1.892,149.321,15.507,-109.221
10549,-0.2837,0.4634,-0.7969,2.136,-3.906,-1.038,149.343,15.562,-109.232
10559,-0.2783,0.4600,-0.8071,1.160,-1.160,-0.732,149.365,15.584,-109.232
10569,-0.2749,0.4668,-0.8208,-1.404,-0.488,-0.732,149.365,15.601,-109.226
10579,-0.2744,0.5020,-0.8467,-4.028,-0.122,-0.732,149.326,15.606,-109.221
10589,-0.2700,0.5361,-0.8726,-4.700,2.258,-0.366,149.271,15.579,-109.204
10599,-0.2598,0.5596,-0.8862,-2.869,5.493,-0.122,149.238,15.513,-109.177
10609,-0.2417,0.5635,-0.9014,-0.122,6.775,-0.916,149.238,15.436,-109.133
10619,-0.2256,0.5435,-0.9185,1.282,4.578,-2.502,149.260,15.375,-109.083
10629,-0.2324,0.5161,-0.9111,-0.061,-1.038,-4.395,149.282,15.375,-109.050
10639,-0.2510,0.5020,-0.8770,-3.296,-8.179,-5.432,149.260,15.458,-109.045
10649,-0.2866,0.4600,-0.7842,-5.676,-15.625,-5.554,149.200,15.639,-109.078
10659,-0.3325,0.4214,-0.6943,-6.226,-22.461,-5.859,149.117,15.930,-109.149
10669,-0.3643,0.4116,-0.6558,-5.310,-25.391,-6.165,149.030,16.265,-109.226
10679,-0.3662,0.4287,-0.6509,-4.272,-21.973,-3.967,148.942,16.562,-109.308
10689,-0.3193,0.4932,-0.7563,-1.404,-11.597,-0.061,148.887,16.688,-109.369
10699,-0.2051,0.6099,-0.9878,3.052,6.897,4.639,148.909,16.540,-109.374
10709,-0.1250,0.6865,-1.1626,5.066,27.161,7.080,148.991,16.161,-109.292
10719,-0.1069,0.7363,-1.1929,2.930,37.231,4.883,149.057,15.705,-109.138
10729,-0.1284,0.6963,-1.1006,-0.305,28.809,-2.197,149.084,15.370,-108.962
10739,-0.2290,0.5503,-0.9136,-5.310,3.723,-11.841,149.062,15.364,-108.836
10749,-0.3257,0.4492,-0.7539,-13.550,-27.954,-20.081,148.936,15.754,-108.809
10759,-0.3862,0.3711,-0.6631,-18.066,-52.063,-24.292,148.760,16.436,-108.869
10769,-0.4077,0.3457,-0.6147,-18.188,-60.242,-20.691,148.557,17.183,-109.012
10779,-0.3984,0.3462,-0.6060,-9.888,-50.964,-12.695,148.431,17.809,-109.177
10789,-0.3662,0.3550,-0.6392,2.686,-28.320,-3.174,148.442,18.149,-109.303
10799,-0.3276,0.3979,-0.6934,12.512,-1.465,6.104,148.568,18.171,-109.369
10809,-0.2988,0.4585,-0.7886,16.846,20.630,13.062,148.744,17.930,-109.369
10819,-0.2803,0.5161,-0.8740,14.343,33.325,16.541,148.903,17.540,-109.336
10829,-0.2583,0.5688,-0.9272,8.057,35.461,15.198,148.997,17.117,-109.281
10839,-0.2417,0.5942,-0.9614,1.282,29.175,10.559,149.019,16.765,-109.221
10849,-0.2412,0.6011,-0.9814,-4.517,17.029,4.944,148.980,16.545,-109.171
10859,-0.2471,0.6079,-0.9702,-8.911,2.563,-0.366,148.887,16.485,-109.155
10869,-0.2603,0.5977,-0.9287,-9.949,-10.376,-4.089,148.766,16.562,-109.177
10879,-0.2739,0.5430,-0.8540,-6.409,-19.714,-5.859,148.678,16.743,-109.232
10889,-0.2896,0.5000,-0.7954,-0.671,-24.658,-6.531,148.640,16.990,-109.303
10899,-0.3115,0.4639,-0.7612,4.089,-24.414,-5.493,148.656,17.249,-109.391
10909,-0.3301,0.4409,-0.7354,6.409,-18.494,-3.174,148.700,17.457,-109.462
10919,-0.3403,0.4346,-0.7212,7.935,-9.216,-0.732,148.771,17.584,-109.506
10929,-0.3394,0.4390,-0.7261,8.240,0.793,1.465,148.848,17.611,-109.512
10939,-0.3354,0.4492,-0.7437,6.470,8.545,3.357,148.920,17.556,-109.495
10949,-0.3188,0.4731,-0.7827,4.211,12.817,4.944,148.969,17.441,-109.473
10959,-0.2979,0.5068,-0.8374,3.174,14.465,6.409,149.002,17.281,-109.451
10969,-0.2705,0.5488,-0.9014,3.601,14.771,7.385,149.041,17.089,-109.440
10979,-0.2437,0.5742,-0.9556,4.272,13.977,7.507,149.084,16.886,-109.429
10989,-0.2148,0.5737,-0.9785,4.333,11.169,5.981,149.134,16.699,-109.424
11000,-0.2012,0.5674,-0.9854,2.625,5.188,2.258,149.172,16.573,-109.418
11009,-0.2183,0.5669,-0.9702,-1.770,-2.258,-2.380,149.161,16.551,-109.407
11019,-0.2539,0.5562,-0.9302,-6.531,-9.155,-6.165,149.101,16.628,-109.402
11029,-0.2866,0.5415,-0.8657,-10.437,-13.977,-8.789,148.986,16.782,-109.396
11039,-0.3130,0.5117,-0.8032,-9.460,-16.418,-10.315,148.876,16.985,-109.391
11049,-0.3267,0.4678,-0.7534,-5.127,-16.235,-10.254,148.821,17.210,-109.391
11059,-0.3345,0.4146,-0.7187,-1.526,-14.221,-8.545,148.815,17.419,-109.391
11069,-0.3335,0.3667,-0.7061,-0.610,-11.780,-6.287,148.848,17.606,-109.396
11079,-0.3159,0.3691,-0.7397,-3.540,-9.644,-4.700,148.854,17.743,-109.407
11089,-0.2988,0.4390,-0.8037,-9.399,-6.836,-3.418,148.782,17.825,-109.413
11099,-0.2690,0.5537,-0.8818,-15.747,-2.014,-1.465,148.618,17.814,-109.413
11109,-0.2412,0.6587,-0.9316,-17.639,3.601,0.244,148.414,17.721,-109.396
11119,-0.2427,0.6924,-0.9326,-14.587,6.775,-0.732,148.233,17.611,-109.352
11129,-0.2646,0.6787,-0.9092,-10.742,5.981,-3.967,148.096,17.534,-109.281
11139,-0.2974,0.6216,-0.8677,-7.385,1.709,-7.629,148.008,17.540,-109.204
11149,-0.3491,0.5337,-0.7891,-5.676,-6.531,-10.559,147.947,17.677,-109.149
11159,-0.3979,0.4336,-0.7046,-4.272,-13.611,-11.719,147.920,17.935,-109.116
11169,-0.4263,0.3706,-0.6543,-2.075,-16.113,-10.620,147.925,18.243,-109.116
11179,-0.4219,0.3589,-0.6616,0.793,-13.306,-7.141,147.964,18.501,-109.127
11189,-0.3809,0.3940,-0.7090,4.517,-4.883,-1.160,148.035,18.616,-109.144
11199,-0.3384,0.4204,-0.7593,9.827,7.812,4.822,148.162,18.550,-109.144
11209,-0.3022,0.4448,-0.8198,13.000,19.104,8.850,148.332,18.336,-109.116
11219,-0.2573,0.4824,-0.8804,11.414,25.330,10.681,148.491,18.029,-109.072
11229,-0.2246,0.5063,-0.9380,6.592,26.123,10.132,148.601,17.693,-109.017
11239,-0.2173,0.5381,-0.9697,-0.549,22.583,7.996,148.634,17.397,-108.968
11249,-0.2241,0.5684,-0.9800,-7.080,15.991,5.432,148.590,17.172,-108.929
11259,-0.2349,0.5835,-0.9644,-10.315,7.874,3.113,148.497,17.034,-108.913
11269,-0.2495,0.5825,-0.9209,-9.766,-1.160,1.099,148.387,16.996,-108.929
11279,-0.2690,0.5581,-0.8784,-6.042,-9.155,-0.427,148.304,17.051,-108.973
11289,-0.2852,0.5273,-0.8257,-2.197,-15.076,-0.977,148.250,17.177,-109.050
11299,-0.2993,0.4927,-0.7729,0.732,-18.127,-1.099,148.222,17.342,-109.138
11309,-0.3105,0.4980,-0.7563,1.831,-18.005,-0.488,148.200,17.512,-109.232
11319,-0.3149,0.5088,-0.7715,1.709,-13.184,0.793,148.178,17.633,-109.314
11329,-0.3325,0.4990,-0.7563,0.916,-5.188,1.648,148.156,17.693,-109.358
11339,-0.3394,0.5068,-0.7559,-0.366,1.465,1.465,148.129,17.699,-109.363
11349,-0.3311,0.5352,-0.7803,-1.404,5.066,1.160,148.096,17.666,-109.341
11359,-0.3301,0.5430,-0.7891,-1.465,6.470,1.465,148.063,17.622,-109.319
11369,-0.3081,0.5581,-0.8193,-1.282,6.897,1.465,148.035,17.551,-109.297
11379,-0.2808,0.5693,-0.8623,-0.732,7.202,1.160,148.019,17.463,-109.265
11389,-0.2744,0.5571,-0.8770,-0.671,7.263,0.610,148.019,17.369,-109.232
11399,-0.2700,0.5645,-0.8887,-1.587,6.775,-0.732,148.013,17.287,-109.188
11409,-0.2769,0.5503,-0.8794,-2.502,6.348,-2.258,148.002,17.221,-109.133
11419,-0.2964,0.5244,-0.8521,-3.357,3.906,-3.845,147.991,17.205,-109.078
11429,-0.3135,0.5005,-0.8247,-3.723,0.366,-5.310,147.975,17.238,-109.028
11439,-0.3193,0.4658,-0.7754,-4.211,-3.723,-6.287,147.953,17.320,-108.990
11449,-0.3276,0.4316,-0.7305,-5.615,-7.935,-6.287,147.920,17.457,-108.979
11459,-0.3354,0.4146,-0.7275,-7.263,-10.376,-5.432,147.865,17.617,-108.990
11469,-0.3271,0.4336,-0.7588,-8.484,-8.179,-2.808,147.799,17.732,-109.012
11479,-0.2993,0.4883,-0.8262,-8.484,-0.244,1.160,147.728,17.721,-109.023
11489,-0.2656,0.5581,-0.9063,-5.981,11.475,5.249,147.684,17.562,-109.006
11500,-0.2432,0.5703,-0.9570,-2.869,20.874,7.629,147.684,17.292,-108.957
11509,-0.2300,0.5728,-0.9556,-3.174,22.278,7.080,147.684,17.012,-108.891
11519,-0.2510,0.5239,-0.8760,-6.714,15.137,3.723,147.645,16.837,-108.842
11529,-0.3037,0.4766,-0.7798,-12.085,0.366,-1.099,147.541,16.853,-108.831
11539,-0.3335,0.4634,-0.7266,-17.090,-14.343,-5.127,147.360,17.045,-108.864
11549,-0.3433,0.4810,-0.7202,-17.822,-22.095,-6.165,147.151,17.309,-108.935
11559,-0.3213,0.5322,-0.7686,-14.038,-18.127,-2.319,146.970,17.485,-109.017
11569,-0.2861,0.5767,-0.8247,-5.920,-5.310,3.662,146.871,17.496,-109.078
11579,-0.2466,0.6304,-0.9043,2.625,9.033,7.141,146.876,17.331,-109.089
11589,-0.1997,0.6895,-0.9893,6.470,19.165,7.202,146.937,17.056,-109.045
11599,-0.2007,0.6875,-0.9976,5.859,20.996,4.456,147.003,16.782,-108.962
11609,-0.2349,0.6392,-0.9316,1.099,13.245,-0.549,147.025,16.622,-108.885
11619,-0.3110,0.5327,-0.7969,-4.822,-2.075,-6.714,146.981,16.688,-108.836
11629,-0.3960,0.3921,-0.6226,-10.925,-20.813,-13.123,146.882,17.051,-108.842
11639,-0.4341,0.3135,-0.5312,-16.846,-36.011,-16.541,146.722,17.617,-108.902
11649,-0.4385,0.3516,-0.5371,-19.836,-38.757,-12.939,146.492,18.177,-109.012
11659,-0.3887,0.4731,-0.6509,-13.672,-24.597,-3.540,146.299,18.474,-109.122
11669,-0.3145,0.5708,-0.7954,0.854,3.540,8.179,146.272,18.397,-109.171
11679,-0.2285,0.6763,-0.9443,13.794,31.982,17.273,146.398,17.963,-109.138
11689,-0.1230,0.8086,-1.1172,20.508,50.659,18.677,146.618,17.314,-109.006
11699,-0.0933,0.7935,-1.1787,20.996,53.467,12.817,146.882,16.666,-108.809
11709,-0.1440,0.7285,-1.0840,10.498,38.879,1.953,147.036,16.232,-108.605
11719,-0.2402,0.5972,-0.9302,-3.174,10.010,-11.658,147.052,16.172,-108.446
11729,-0.3398,0.4561,-0.7466,-15.808,-23.926,-23.865,146.931,16.551,-108.375
11739,-0.4390,0.3340,-0.6016,-23.499,-51.880,-28.931,146.722,17.298,-108.419
11749,-0.4668,0.3218,-0.5386,-23.376,-65.430,-26.062,146.475,18.171,-108.567
11759,-0.4590,0.3091,-0.5166,-11.414,-59.021,-16.418,146.327,18.940,-108.765
11769,-0.4268,0.3076,-0.5347,5.554,-35.767,-2.319,146.354,19.407,-108.951
11779,-0.3618,0.3638,-0.6250,19.287,-4.150,11.475,146.541,19.446,-109.078
11789,-0.2881,0.4448,-0.7715,26.184,25.879,21.484,146.821,19.100,-109.116
11799,-0.2280,0.5713,-0.9292,24.414,45.654,25.391,147.090,18.512,-109.078
11809,-0.1831,0.6504,-1.0493,18.250,51.758,23.315,147.310,17.858,-108.990
11819,-0.1719,0.6704,-1.0693,8.911,44.861,18.066,147.437,17.287,-108.891
11829,-0.1899,0.6816,-1.0444,-1.770,26.184,9.766,147.431,16.930,-108.831
11839,-0.2207,0.6924,-1.0034,-9.705,2.625,1.038,147.316,16.837,-108.825
11849,-0.2520,0.6665,-0.9360,-10.681,-17.273,-4.272,147.167,16.957,-108.885
11859,-0.2700,0.6123,-0.8667,-5.920,-30.457,-6.287,147.047,17.216,-109.001
11869,-0.2847,0.5649,-0.8159,1.587,-34.546,-6.042,147.003,17.523,-109.149
11879,-0.3066,0.5190,-0.7705,9.277,-30.457,-4.761,147.047,17.809,-109.281
11889,-0.3257,0.4595,-0.7163,13.977,-21.118,-3.662,147.162,18.040,-109.369
11899,-0.3599,0.3872,-0.6577,13.245,-11.841,-2.502,147.305,18.221,-109.413
11909,-0.3779,0.3872,-0.6475,7.202,-5.005,-1.160,147.387,18.353,-109.429
11919,-0.3843,0.4106,-0.6650,0.854,0.732,1.160,147.404,18.419,-109.435
11929,-0.3618,0.4712,-0.7168,-3.113,6.836,3.906,147.365,18.386,-109.435
11939,-0.3154,0.5439,-0.8047,-2.930,13.000,6.348,147.327,18.237,-109.413
11949,-0.2593,0.6138,-0.9087,0.366,18.127,8.484,147.327,17.996,-109.385
11959,-0.2158,0.6567,-0.9834,3.906,20.813,9.521,147.365,17.693,-109.352
11969,-0.2095,0.6606,-0.9951,6.287,18.433,8.057,147.426,17.419,-109.319
11979,-0.2363,0.6162,-0.9414,5.371,9.827,3.540,147.480,17.260,-109.297
11989,-0.3032,0.5200,-0.8374,1.160,-3.906,-3.052,147.502,17.309,-109.292
12000,-0.3516,0.4585,-0.7432,-6.531,-17.517,-9.155,147.437,17.551,-109.308
12009,-0.3735,0.4375,-0.6772,-12.878,-24.353,-11.902,147.299,17.891,-109.341
12019,-0.3740,0.4404,-0.6587,-12.390,-21.301,-9.521,147.156,18.193,-109.380
12029,-0.3394,0.4780,-0.7041,-5.371,-9.460,-2.686,147.079,18.320,-109.407
12039,-0.2930,0.5225,-0.7764,3.967,6.104,3.479,147.107,18.243,-109.402
12049,-0.2485,0.5776,-0.8784,11.292,20.935,8.667,147.228,17.974,-109.363
12059,-0.2163,0.6274,-0.9697,12.878,30.396,11.108,147.376,17.584,-109.286
12069,-0.2310,0.6094,-0.9551,9.521,30.029,8.118,147.502,17.232,-109.188
12079,-0.2764,0.5591,-0.8740,1.648,18.494,1.587,147.546,17.045,-109.100
12089,-0.3296,0.4814,-0.7939,-7.446,0.427,-5.188,147.497,17.095,-109.050
12099,-0.3667,0.4424,-0.7344,-15.442,-15.381,-9.888,147.360,17.336,-109.050
12109,-0.3589,0.4443,-0.7378,-18.127,-21.973,-10.376,147.184,17.628,-109.083
12119,-0.2988,0.5342,-0.8101,-14.404,-15.686,-6.165,147.025,17.787,-109.116
12129,-0.2495,0.5889,-0.8706,-2.930,-0.366,0.183,146.986,17.743,-109.122
12139,-0.2373,0.5981,-0.8838,9.766,13.672,5.188,147.079,17.551,-109.089
12149,-0.2363,0.5669,-0.8599,17.395,18.494,7.141,147.261,17.314,-109.045
12159,-0.2744,0.5000,-0.8228,16.846,12.146,4.883,147.448,17.172,-109.017
12169,-0.3208,0.4707,-0.8008,6.775,0.671,0.488,147.535,17.183,-109.017
12179,-0.3359,0.4746,-0.7935,-6.042,-7.996,-2.502,147.486,17.287,-109.045
12189,-0.3213,0.4927,-0.7983,-13.123,-9.399,-3.967,147.360,17.408,-109.061
12199,-0.3057,0.5220,-0.7944,-13.367,-5.371,-3.784,147.222,17.474,-109.056
12209,-0.2886,0.5576,-0.8076,-7.812,0.488,-2.075,147.134,17.468,-109.034
12219,-0.2656,0.5693,-0.8315,0.793,5.127,0.977,147.129,17.397,-109.017
12229,-0.2612,0.5630,-0.8477,7.507,6.409,3.662,147.200,17.292,-109.012
12239,-0.2607,0.5596,-0.8574,9.888,5.066,4.517,147.294,17.199,-109.023
12249,-0.2661,0.5420,-0.8550,7.690,2.075,3.357,147.365,17.139,-109.039
12259,-0.2778,0.5312,-0.8389,1.831,-1.648,0.671,147.382,17.133,-109.056
12269,-0.3076,0.5112,-0.8188,-3.906,-4.333,-2.380,147.349,17.188,-109.061
12279,-0.3164,0.4995,-0.8193,-7.629,-4.578,-4.883,147.288,17.260,-109.039
12289,-0.3037,0.5166,-0.8159,-9.338,-3.052,-5.737,147.211,17.320,-109.006
12299,-0.3018,0.5352,-0.7998,-7.080,-2.014,-4.028,147.140,17.358,-108.984
12309,-0.2959,0.5469,-0.8018,-0.916,-1.526,-0.610,147.112,17.369,-108.990
12319,-0.2842,0.5513,-0.8271,5.981,-0.427,2.258,147.156,17.347,-109.012
12329,-0.2788,0.5371,-0.8457,9.949,1.587,3.296,147.255,17.298,-109.028
12339,-0.2905,0.5078,-0.8408,8.667,2.441,2.319,147.354,17.260,-109.039
12349,-0.3052,0.4888,-0.8228,2.563,1.282,0.061,147.404,17.249,-109.028
12359,-0.3188,0.4663,-0.7896,-4.150,-1.038,-2.075,147.387,17.292,-109.017
12369,-0.3232,0.4595,-0.7690,-8.972,-2.869,-3.235,147.316,17.358,-109.006
12379,-0.3105,0.4990,-0.7725,-11.230,-2.075,-2.625,147.206,17.402,-108.995
12389,-0.3003,0.5503,-0.7827,-8.179,1.404,0.061,147.107,17.391,-108.984
12399,-0.2715,0.5996,-0.8286,0.122,5.188,3.601,147.074,17.303,-108.990
12409,-0.2568,0.6030,-0.8701,10.315,7.446,6.104,147.156,17.172,-109.001
12419,-0.2656,0.5645,-0.8843,15.747,6.287,5.798,147.310,17.056,-109.017
12429,-0.2783,0.5239,-0.8813,12.695,1.831,3.235,147.453,17.007,-109.034
12439,-0.2925,0.4985,-0.8599,3.418,-2.625,-0.122,147.508,17.023,-109.045
12449,-0.3228,0.4834,-0.8125,-6.104,-5.554,-3.357,147.464,17.106,-109.050
12459,-0.3379,0.4712,-0.7568,-11.719,-6.775,-5.554,147.354,17.227,-109.039
12469,-0.3350,0.5024,-0.6987,-16.113,-6.531,-5.127,147.167,17.347,-109.028
12479,-0.3413,0.5215,-0.6763,-14.465,-3.540,-2.869,146.981,17.441,-109.023
12489,-0.3066,0.5840,-0.7393,-7.568,2.747,-0.366,146.854,17.424,-109.006
12500,-0.2388,0.6577,-0.8828,3.967,12.268,2.197,146.876,17.260,-108.957
12509,-0.1987,0.6875,-1.0034,13.916,22.278,4.944,147.025,16.968,-108.869
12519,-0.1934,0.6709,-1.0122,16.113,26.428,5.127,147.211,16.639,-108.765
12529,-0.2163,0.6152,-0.9575,10.925,20.264,1.038,147.349,16.408,-108.660
12539,-0.2759,0.5469,-0.8716,2.686,5.737,-6.226,147.404,16.381,-108.572
12549,-0.3242,0.4922,-0.7827,-6.470,-10.010,-13.733,147.360,16.567,-108.506
12559,-0.3555,0.4385,-0.6997,-12.634,-20.569,-18.250,147.255,16.902,-108.463
12569,-0.3579,0.4087,-0.6504,-14.526,-24.353,-17.883,147.123,17.281,-108.446
12579,-0.3555,0.4116,-0.6475,-10.315,-20.813,-12.756,147.025,17.600,-108.452
12589,-0.3408,0.4253,-0.6875,-0.610,-12.268,-5.066,147.025,17.781,-108.474
12599,-0.3101,0.4565,-0.7769,10.315,-0.549,2.563,147.140,17.781,-108.501
12609,-0.2852,0.5083,-0.8662,18.555,11.353,8.850,147.349,17.622,-108.512
12619,-0.2603,0.5557,-0.9248,20.569,19.104,11.536,147.568,17.358,-108.506
12629,-0.2383,0.5767,-0.9502,18.250,20.508,9.644,147.772,17.084,-108.479
12639,-0.2290,0.5674,-0.9521,13.062,16.113,4.150,147.931,16.875,-108.424
12649,-0.2383,0.5566,-0.9253,4.761,7.996,-2.197,148.002,16.776,-108.364
12659,-0.2632,0.5342,-0.8770,-4.150,-1.343,-6.592,147.986,16.798,-108.309
12669,-0.2798,0.5190,-0.8281,-11.047,-9.644,-8.179,147.881,16.913,-108.292
12679,-0.2988,0.5190,-0.7993,-12.024,-14.893,-7.324,147.744,17.078,-108.309
12689,-0.3174,0.5273,-0.7778,-7.202,-15.442,-4.700,147.645,17.249,-108.353
12699,-0.3232,0.5459,-0.7759,0.000,-11.475,-1.343,147.601,17.369,-108.408
12709,-0.3159,0.5308,-0.7778,7.263,-4.028,1.526,147.640,17.408,-108.441
12719,-0.3076,0.4985,-0.7861,10.864,3.174,2.380,147.750,17.375,-108.446
12729,-0.2969,0.4810,-0.8120,8.362,7.202,0.854,147.859,17.314,-108.413
12739,-0.2817,0.4937,-0.8462,1.221,8.240,-0.977,147.903,17.238,-108.358
12749,-0.2720,0.5166,-0.8696,-5.737,7.141,-1.892,147.876,17.166,-108.303
12759,-0.2651,0.5381,-0.8740,-9.277,3.967,-2.441,147.805,17.117,-108.259
12769,-0.2671,0.5552,-0.8540,-8.789,-0.793,-2.380,147.711,17.111,-108.243
12779,-0.2803,0.5527,-0.8301,-4.883,-5.249,-1.221,147.645,17.150,-108.259
12789,-0.3057,0.5225,-0.8062,-0.183,-7.446,0.183,147.623,17.216,-108.303
12799,-0.3223,0.4883,-0.7900,2.808,-7.263,0.854,147.645,17.292,-108.353
12809,-0.3159,0.4829,-0.8164,2.686,-4.761,0.793,147.678,17.336,-108.386
12819,-0.3032,0.4858,-0.8354,0.610,-0.854,0.916,147.706,17.342,-108.397
12829,-0.2915,0.4951,-0.8452,-2.380,1.831,0.916,147.700,17.314,-108.397
12839,-0.2754,0.5181,-0.8569,-5.188,1.648,0.427,147.662,17.276,-108.391
12849,-0.2754,0.5322,-0.8516,-7.751,-0.732,-0.427,147.590,17.265,-108.391
12859,-0.2852,0.5425,-0.8335,-9.888,-3.296,-1.099,147.480,17.287,-108.402
12869,-0.2969,0.5718,-0.8062,-10.681,-4.578,-1.221,147.343,17.325,-108.413
12879,-0.3271,0.5776,-0.7700,-6.714,-4.517,0.061,147.228,17.375,-108.441
12889,-0.3428,0.5576,-0.7476,-0.244,-3.174,0.916,147.178,17.424,-108.468
12899,-0.3413,0.5435,-0.7388,4.456,-1.099,1.038,147.178,17.463,-108.484
12909,-0.3242,0.5039,-0.7485,7.141,1.343,0.854,147.239,17.468,-108.484
12919,-0.3130,0.4844,-0.7759,5.859,3.662,0.183,147.310,17.452,-108.463
12929,-0.3091,0.4976,-0.8037,1.404,5.371,-0.183,147.343,17.413,-108.430
12939,-0.2910,0.5283,-0.8301,-1.831,7.263,0.488,147.338,17.342,-108.397
12949,-0.2827,0.5435,-0.8457,-0.854,8.240,1.282,147.338,17.249,-108.358
12959,-0.2759,0.5488,-0.8633,1.221,8.240,1.831,147.365,17.150,-108.331
12969,-0.2734,0.5366,-0.8662,2.441,7.263,2.075,147.404,17.056,-108.309
12979,-0.2788,0.5200,-0.8540,1.343,5.371,1.709,147.431,16.985,-108.292
12989,-0.2847,0.5142,-0.8423,-1.404,2.258,1.099,147.431,16.952,-108.287
13000,-0.2876,0.5078,-0.8330,-3.906,-0.732,0.732,147.404,16.952,-108.298
13009,-0.2832,0.5059,-0.8325,-5.188,-1.770,0.732,147.360,16.952,-108.314
13019,-0.2734,0.5020,-0.8569,-4.883,-0.305,0.427,147.332,16.941,-108.320
13029,-0.2480,0.5288,-0.8936,-4.883,1.709,-0.061,147.305,16.891,-108.309
13039,-0.2437,0.5488,-0.8994,-4.822,1.709,0.549,147.272,16.837,-108.303
13049,-0.2524,0.5566,-0.8853,-4.089,-0.244,1.465,147.233,16.798,-108.320
13059,-0.2705,0.5654,-0.8535,-2.869,-2.930,1.709,147.189,16.793,-108.353
13069,-0.2979,0.5391,-0.7983,-1.587,-5.798,1.282,147.151,16.837,-108.397
13079,-0.3281,0.5161,-0.7520,-1.221,-7.690,-0.061,147.107,16.930,-108.441
13089,-0.3423,0.5122,-0.7222,-2.502,-7.446,-0.610,147.047,17.040,-108.474
13099,-0.3442,0.5063,-0.7202,-2.380,-4.089,0.427,146.997,17.111,-108.501
13109,-0.3315,0.4980,-0.7378,-1.038,1.160,1.099,146.975,17.128,-108.506
13119,-0.3105,0.5181,-0.7666,-0.061,6.348,1.770,146.970,17.084,-108.484
13129,-0.2944,0.5293,-0.8037,1.709,11.963,3.357,146.992,16.963,-108.446
13139,-0.2744,0.5605,-0.8418,2.563,14.526,4.395,147.025,16.804,-108.402
13149,-0.2554,0.5952,-0.8823,3.967,13.611,5.005,147.063,16.628,-108.369
13159,-0.2563,0.5957,-0.8999,7.080,9.827,4.883,147.134,16.490,-108.353
13169,-0.2559,0.5767,-0.9023,9.216,4.333,3.235,147.228,16.403,-108.358
13179,-0.2607,0.5376,-0.8882,8.362,-0.977,1.160,147.321,16.381,-108.375
13189,-0.2729,0.4893,-0.8594,5.188,-4.639,-0.793,147.398,16.419,-108.391
13199,-0.2886,0.4624,-0.8359,0.488,-5.615,-2.319,147.437,16.479,-108.402
13209,-0.2979,0.4580,-0.8193,-2.930,-5.127,-2.808,147.437,16.551,-108.408
13219,-0.2949,0.4502,-0.8086,-3.662,-4.028,-1.892,147.437,16.606,-108.413
13229,-0.2881,0.4707,-0.8066,-3.601,-2.563,0.305,147.415,16.628,-108.430
13239,-0.2666,0.5137,-0.8286,-1.953,-0.793,3.357,147.398,16.606,-108.468
13249,-0.2549,0.5332,-0.8530,1.770,0.854,5.981,147.404,16.540,-108.512
13259,-0.2480,0.5513,-0.8682,4.089,1.526,6.836,147.431,16.463,-108.567
13269,-0.2554,0.5552,-0.8760,4.028,0.732,6.714,147.458,16.392,-108.622
13279,-0.2642,0.5552,-0.8701,1.953,-1.221,5.798,147.464,16.353,-108.677
13289,-0.2710,0.5664,-0.8696,-1.770,-4.089,3.967,147.426,16.348,-108.737
13299,-0.2710,0.5786,-0.8657,-4.944,-6.775,1.221,147.349,16.381,-108.787
13309,-0.2769,0.5854,-0.8457,-6.775,-8.545,-1.526,147.250,16.447,-108.820
13319,-0.2930,0.5977,-0.8018,-7.324,-9.338,-3.540,147.134,16.545,-108.842
13329,-0.3174,0.5889,-0.7603,-4.272,-9.827,-3.601,147.036,16.661,-108.864
13339,-0.3320,0.5640,-0.7310,1.587,-9.705,-2.319,146.997,16.787,-108.902
13349,-0.3418,0.5327,-0.7090,6.897,-8.423,-1.038,147.014,16.902,-108.940
13359,-0.3423,0.4990,-0.6973,8.972,-6.165,-0.244,147.068,17.007,-108.973
13369,-0.3481,0.4551,-0.6958,7.324,-3.235,-0.061,147.129,17.089,-108.990
13379,-0.3433,0.4458,-0.7129,2.197,0.977,-0.671,147.162,17.139,-108.979
13389,-0.3320,0.4644,-0.7407,-2.991,6.348,-0.793,147.156,17.122,-108.935
13399,-0.3184,0.4761,-0.7642,-5.676,11.169,-0.427,147.129,17.056,-108.869
13409,-0.2998,0.5034,-0.8081,-6.287,14.526,0.244,147.096,16.941,-108.787
13419,-0.2627,0.5459,-0.8774,-5.127,16.418,1.404,147.079,16.771,-108.704
13429,-0.2300,0.5801,-0.9409,-2.380,16.479,2.686,147.090,16.567,-108.638
13439,-0.2061,0.6001,-0.9751,-0.366,13.367,2.930,147.112,16.375,-108.589
13449,-0.2002,0.5996,-0.9805,1.404,6.287,1.892,147.145,16.249,-108.567
13459,-0.2144,0.5825,-0.9609,1.831,-2.563,0.305,147.178,16.216,-108.583
13469,-0.2534,0.5479,-0.8892,0.610,-10.864,-1.160,147.178,16.287,-108.638
13480,-0.2939,0.5225,-0.8140,0.061,-17.029,-1.953,147.162,16.441,-108.715
13489,-0.3198,0.5039,-0.7593,1.953,-18.738,-1.953,147.145,16.639,-108.803
13500,-0.3320,0.4971,-0.7231,4.639,-15.686,-0.610,147.151,16.815,-108.885
13509,-0.3320,0.4961,-0.7227,8.362,-9.583,1.526,147.200,16.924,-108.957
13519,-0.3179,0.4985,-0.7441,12.878,-1.770,4.639,147.305,16.941,-109.006
13529,-0.3071,0.5039,-0.7700,16.846,5.188,7.568,147.453,16.870,-109.045
13540,-0.2935,0.5176,-0.8096,19.287,8.911,9.644,147.634,16.749,-109.078
13549,-0.2720,0.5264,-0.8701,18.555,9.216,9.888,147.821,16.600,-109.111
13559,-0.2598,0.5298,-0.8989,13.428,8.057,7.874,147.964,16.463,-109.138
13569,-0.2549,0.5327,-0.9053,4.700,6.470,3.845,148.024,16.364,-109.138
13579,-0.2476,0.5483,-0.9136,-5.981,5.188,-1.099,147.986,16.293,-109.100
13589,-0.2358,0.5723,-0.9209,-15.808,5.066,-5.737,147.854,16.238,-109.017
13599,-0.2407,0.5820,-0.9004,-23.010,5.371,-9.460,147.651,16.210,-108.907
13609,-0.2583,0.5776,-0.8521,-26.611,4.028,-11.841,147.404,16.216,-108.781
13620,-0.2866,0.5913,-0.8018,-25.513,0.061,-12.268,147.140,16.282,-108.671
13630,-0.3174,0.5781,-0.7705,-17.029,-4.883,-9.521,146.948,16.392,-108.616
13640,-0.3354,0.5337,-0.7549,-4.517,-8.057,-5.371,146.882,16.523,-108.616
13650,-0.3394,0.4829,-0.7446,5.066,-8.789,-1.953,146.926,16.650,-108.649
13659,-0.3296,0.4424,-0.7549,9.277,-7.019,-0.061,147.030,16.749,-108.688
13670,-0.3149,0.4331,-0.7700,7.935,-2.808,1.038,147.140,16.793,-108.710
13680,-0.3037,0.4434,-0.7769,4.456,1.709,2.075,147.211,16.787,-108.721
13690,-0.2896,0.4653,-0.7905,2.380,5.310,2.991,147.261,16.738,-108.715
13700,-0.2788,0.5000,-0.8140,1.648,7.874,3.906,147.294,16.644,-108.704
13710,-0.2754,0.5151,-0.8384,1.343,9.094,4.700,147.321,16.534,-108.699
13720,-0.2764,0.5322,-0.8481,-0.244,8.423,4.822,147.321,16.425,-108.693
13729,-0.2695,0.5669,-0.8696,-2.380,6.226,4.822,147.294,16.331,-108.699
13739,-0.2671,0.5845,-0.8955,-1.709,3.906,4.944,147.266,16.249,-108.721
13749,-0.2563,0.5820,-0.9116,0.916,1.831,4.517,147.272,16.177,-108.748
13759,-0.2466,0.5688,-0.9150,2.686,-0.732,2.808,147.299,16.139,-108.776
13769,-0.2412,0.5596,-0.9023,1.526,-3.967,0.549,147.316,16.133,-108.803
13779,-0.2480,0.5605,-0.8721,-1.465,-6.958,-1.770,147.294,16.177,-108.831
13789,-0.2666,0.5654,-0.8325,-3.845,-8.911,-3.418,147.233,16.254,-108.847
13800,-0.2842,0.5625,-0.7969,-3.357,-9.705,-3.967,147.173,16.359,-108.869
13810,-0.3027,0.5513,-0.7642,-0.977,-9.338,-3.601,147.123,16.469,-108.891
13820,-0.3252,0.5166,-0.7344,2.197,-7.874,-2.502,147.118,16.584,-108.913
13830,-0.3379,0.4868,-0.7178,3.906,-5.737,-1.282,147.140,16.683,-108.935
13840,-0.3467,0.4722,-0.7119,3.784,-3.357,0.244,147.162,16.765,-108.957
13850,-0.3442,0.4668,-0.7187,3.723,-0.610,2.502,147.189,16.809,-108.979
13860,-0.3252,0.4712,-0.7500,4.883,2.625,5.005,147.239,16.793,-109.012
13870,-0.3052,0.4922,-0.7900,6.592,5.859,7.019,147.305,16.721,-109.039
13880,-0.2871,0.5103,-0.8271,9.399,8.484,8.484,147.398,16.600,-109.067
13889,-0.2588,0.5381,-0.8833,11.841,9.766,9.644,147.519,16.441,-109.094
13899,-0.2256,0.5762,-0.9443,12.756,9.583,10.254,147.645,16.260,-109.133
13910,-0.2070,0.5947,-0.9775,12.634,8.240,9.766,147.772,16.078,-109.171
13920,-0.2085,0.5898,-0.9707,11.414,4.395,7.629,147.881,15.941,-109.215
13930,-0.2148,0.5796,-0.9561,8.301,-1.404,4.211,147.958,15.881,-109.259
13940,-0.2290,0.5698,-0.9355,4.395,-7.202,0.793,147.997,15.897,-109.308
13950,-0.2529,0.5342,-0.8813,0.305,-11.963,-1.709,147.997,15.985,-109.358
13960,-0.2812,0.5034,-0.8252,-3.601,-15.625,-4.028,147.953,16.139,-109.407
13970,-0.3047,0.4922,-0.7783,-6.775,-16.907,-5.798,147.870,16.337,-109.451
13980,-0.3208,0.4888,-0.7417,-6.897,-15.442,-5.615,147.777,16.529,-109.484
13990,-0.3374,0.4795,-0.7212,-3.784,-11.414,-3.723,147.717,16.694,-109.517
14000,-0.3403,0.4697,-0.7173,-0.061,-6.775,-1.465,147.700,16.804,-109.539
14010,-0.3398,0.4609,-0.7261,1.770,-2.502,0.793,147.711,16.870,-109.561
14020,-0.3433,0.4434,-0.7290,0.977,0.977,2.380,147.728,16.902,-109.578
14030,-0.3423,0.4448,-0.7354,-1.953,3.540,2.991,147.717,16.902,-109.583
14040,-0.3311,0.4629,-0.7539,-4.822,6.348,3.479,147.678,16.870,-109.578
14050,-0.3193,0.4805,-0.7754,-6.226,9.521,4.395,147.629,16.787,-109.567
14060,-0.3062,0.5000,-0.8022,-6.714,12.573,4.944,147.574,16.672,-109.539
14070,-0.2754,0.5303,-0.8447,-7.446,14.832,5.188,147.513,16.507,-109.501
14080,-0.2373,0.5815,-0.8960,-7.812,15.991,5.676,147.442,16.304,-109.462
14090,-0.2217,0.6113,-0.9307,-5.676,15.564,6.531,147.387,16.084,-109.429
14100,-0.2168,0.6172,-0.9468,-2.502,13.000,6.165,147.360,15.892,-109.413
14109,-0.2227,0.6050,-0.9419,-0.061,8.240,4.089,147.360,15.754,-109.402
14120,-0.2388,0.5776,-0.9106,0.244,2.197,1.709,147.365,15.694,-109.407
14130,-0.2554,0.5479,-0.8765,-1.160,-3.845,-0.183,147.354,15.710,-109.424
14140,-0.2700,0.5269,-0.8359,-2.686,-8.179,-1.282,147.327,15.782,-109.462
14150,-0.2842,0.4990,-0.8018,-3.174,-9.399,-1.831,147.288,15.881,-109.495
14160,-0.2964,0.4819,-0.7788,-3.662,-8.179,-1.831,147.255,15.980,-109.528
14170,-0.2983,0.4736,-0.7715,-5.188,-5.737,-1.404,147.211,16.057,-109.545
14180,-0.2964,0.4810,-0.7759,-7.935,-2.319,-1.160,147.140,16.100,-109.550
14190,-0.2905,0.5039,-0.7847,-11.475,1.221,-1.038,147.036,16.106,-109.534
14200,-0.2881,0.5264,-0.8003,-14.587,4.028,-1.221,146.893,16.089,-109.501
14210,-0.2847,0.5493,-0.8213,-17.090,5.859,-1.648,146.733,16.046,-109.451
14220,-0.2705,0.5884,-0.8359,-18.677,6.042,-1.953,146.541,15.996,-109.402
14230,-0.2690,0.6064,-0.8462,-15.503,5.615,-1.465,146.382,15.941,-109.358
14240,-0.2710,0.5967,-0.8521,-9.460,3.235,-0.610,146.277,15.908,-109.330
14250,-0.2759,0.5820,-0.8438,-5.127,-0.793,-0.488,146.217,15.908,-109.330
14260,-0.2744,0.5742,-0.8359,-2.258,-3.784,-1.038,146.184,15.936,-109.347
14270,-0.2725,0.5615,-0.8208,0.000,-5.859,-0.854,146.173,15.985,-109.369
14280,-0.2783,0.5483,-0.7993,1.526,-7.141,-0.427,146.173,16.046,-109.407
14290,-0.2822,0.5371,-0.7949,3.113,-7.263,-0.061,146.190,16.106,-109.451
14300,-0.2905,0.5171,-0.7886,3.967,-6.653,0.549,146.223,16.172,-109.495
14310,-0.2959,0.5088,-0.7856,3.113,-5.493,1.038,146.250,16.221,-109.534
14320,-0.2900,0.5317,-0.7842,1.221,-4.089,1.770,146.245,16.254,-109.572
14330,-0.2852,0.5464,-0.7856,0.732,-0.793,2.441,146.239,16.249,-109.600
14340,-0.2856,0.5532,-0.7944,2.014,3.479,3.052,146.245,16.210,-109.605
14350,-0.2861,0.5537,-0.8091,3.601,6.165,3.235,146.277,16.139,-109.600
14360,-0.2817,0.5439,-0.8315,3.967,7.507,2.869,146.327,16.057,-109.578
14370,-0.2681,0.5435,-0.8462,2.136,7.935,2.075,146.365,15.969,-109.550
14380,-0.2603,0.5449,-0.8608,-0.610,7.141,1.282,146.376,15.886,-109.523
14390,-0.2573,0.5498,-0.8613,-2.441,5.127,0.366,146.371,15.826,-109.495
14400,-0.2568,0.5513,-0.8560,-2.808,2.075,-0.916,146.360,15.798,-109.473
14410,-0.2593,0.5479,-0.8525,-2.441,-1.404,-1.892,146.343,15.804,-109.468
14420,-0.2588,0.5361,-0.8467,-2.441,-4.272,-2.319,146.332,15.842,-109.473
14430,-0.2656,0.5288,-0.8311,-3.174,-5.981,-2.258,146.310,15.897,-109.484
14440,-0.2827,0.5312,-0.8076,-3.723,-6.897,-1.831,146.272,15.963,-109.512
14450,-0.2944,0.5195,-0.7852,-2.625,-7.141,-1.160,146.239,16.046,-109.539
14460,-0.3003,0.5137,-0.7739,-0.977,-6.592,-0.610,146.223,16.122,-109.572
14470,-0.3027,0.5063,-0.7681,0.183,-5.188,-0.122,146.217,16.183,-109.605
14480,-0.3008,0.5078,-0.7617,0.183,-3.052,0.854,146.212,16.227,-109.627
14490,-0.3003,0.5132,-0.7646,-0.610,-0.671,1.831,146.201,16.238,-109.649
14500,-0.3008,0.5278,-0.7710,-1.648,1.709,2.380,146.179,16.227,-109.660
14510,-0.2900,0.5581,-0.7856,-2.136,3.601,2.502,146.140,16.188,-109.660
14520,-0.2837,0.5811,-0.8081,-1.709,4.639,2.197,146.107,16.139,-109.655
14530,-0.2788,0.5869,-0.8320,-1.160,4.517,1.465,146.085,16.084,-109.638
14540,-0.2734,0.5933,-0.8408,-1.709,3.601,0.244,146.063,16.040,-109.622
14550,-0.2681,0.5967,-0.8462,-2.258,2.563,-0.916,146.030,16.007,-109.594
14560,-0.2622,0.6060,-0.8555,-2.686,1.770,-1.953,145.997,15.985,-109.572
14570,-0.2681,0.5908,-0.8555,-2.625,0.977,-2.869,145.975,15.980,-109.539
14580,-0.2690,0.5732,-0.8462,-2.869,-0.183,-4.272,145.953,15.991,-109.506
14590,-0.2725,0.5547,-0.8281,-3.601,-1.648,-5.676,145.931,16.029,-109.462
14600,-0.2710,0.5361,-0.8135,-4.517,-2.930,-6.531,145.904,16.084,-109.424
14610,-0.2695,0.5356,-0.8159,-4.211,-3.601,-6.226,145.882,16.144,-109.391
14620,-0.2686,0.5298,-0.8325,-1.709,-3.418,-4.517,145.887,16.188,-109.374
14630,-0.2607,0.5225,-0.8521,1.526,-2.747,-2.258,145.926,16.205,-109.369
14640,-0.2441,0.5186,-0.8784,3.479,-2.319,-0.427,145.997,16.199,-109.380
14650,-0.2373,0.5181,-0.9063,3.357,-2.136,0.488,146.069,16.183,-109.396
14660,-0.2456,0.5210,-0.9067,0.916,-2.502,0.488,146.113,16.166,-109.413
14670,-0.2720,0.5039,-0.8672,-2.869,-4.822,-0.244,146.113,16.199,-109.440
14680,-0.2979,0.4834,-0.8247,-7.141,-9.216,-1.648,146.063,16.298,-109.479
14690,-0.3135,0.4741,-0.7808,-11.597,-13.245,-2.930,145.964,16.447,-109.534
14700,-0.3179,0.4800,-0.7314,-15.259,-14.587,-2.808,145.805,16.617,-109.594
14710,-0.3237,0.4883,-0.7017,-15.503,-13.245,-1.648,145.624,16.776,-109.655
14720,-0.3320,0.5073,-0.6904,-13.123,-9.521,0.366,145.459,16.897,-109.715
14730,-0.3384,0.5332,-0.6860,-9.888,-4.333,2.930,145.311,16.957,-109.764
14740,-0.3418,0.5532,-0.6797,-6.226,1.770,5.798,145.195,16.957,-109.808
14750,-0.3447,0.5781,-0.6787,-2.563,6.104,8.362,145.102,16.902,-109.841
14760,-0.3403,0.6001,-0.7046,1.404,9.155,10.254,145.052,16.804,-109.874
14770,-0.3213,0.6353,-0.7383,4.944,11.292,11.108,145.036,16.661,-109.902
14780,-0.2998,0.6553,-0.7700,8.484,13.062,10.925,145.063,16.490,-109.918
14790,-0.2842,0.6699,-0.8018,10.254,14.099,9.216,145.113,16.315,-109.913
14800,-0.2539,0.6875,-0.8608,9.521,14.771,6.104,145.184,16.122,-109.874
14810,-0.2051,0.7144,-0.9360,7.202,15.991,2.380,145.250,15.919,-109.803
14820,-0.1816,0.7183,-0.9800,5.188,17.090,-1.221,145.316,15.710,-109.688
14830,-0.1753,0.7075,-1.0029,4.028,16.052,-5.493,145.388,15.535,-109.550
14840,-0.1680,0.6958,-1.0151,3.235,11.658,-10.437,145.464,15.425,-109.391
14850,-0.1812,0.6431,-0.9868,2.869,3.662,-14.709,145.547,15.408,-109.243
14860,-0.2310,0.5474,-0.9121,1.099,-7.751,-18.066,145.618,15.540,-109.133
14870,-0.2856,0.4531,-0.8188,-2.319,-19.653,-20.142,145.668,15.831,-109.078
14880,-0.3477,0.3369,-0.6958,-5.798,-29.114,-20.447,145.695,16.265,-109.072
14890,-0.4053,0.2344,-0.5840,-10.803,-35.767,-19.531,145.701,16.831,-109.111
14900,-0.4307,0.2349,-0.5508,-16.418,-36.987,-17.151,145.629,17.419,-109.182
14910,-0.4165,0.2778,-0.5664,-18.555,-28.687,-10.559,145.503,17.875,-109.259
14920,-0.3643,0.4023,-0.6699,-15.930,-11.841,-1.099,145.366,18.045,-109.325
14930,-0.2808,0.5586,-0.8242,-7.751,10.010,9.827,145.283,17.886,-109.347
14940,-0.2070,0.6958,-0.9741,1.953,29.358,18.188,145.300,17.463,-109.330
14950,-0.1475,0.7832,-1.0737,8.606,37.781,18.677,145.393,16.941,-109.265
14960,-0.1313,0.7915,-1.1016,11.230,32.410,14.282,145.514,16.479,-109.193
14970,-0.1548,0.7925,-1.0776,7.446,15.503,5.798,145.580,16.227,-109.155
14980,-0.1978,0.7642,-1.0176,1.099,-8.118,-3.967,145.563,16.238,-109.166
14990,-0.2490,0.6870,-0.8950,-5.493,-32.104,-13.367,145.453,16.540,-109.243
15000,-0.3062,0.5669,-0.7510,-9.766,-51.758,-21.362,145.300,17.095,-109.363
15010,-0.3633,0.5190,-0.6421,-11.292,-62.927,-25.513,145.102,17.820,-109.517
15020,-0.4043,0.4644,-0.5708,-7.996,-62.683,-24.658,144.926,18.578,-109.682
15030,-0.4351,0.4189,-0.5239,-2.014,-51.392,-20.081,144.827,19.248,-109.819
15040,-0.4521,0.3901,-0.5083,4.272,-32.898,-12.634,144.816,19.748,-109.913
15050,-0.4468,0.3823,-0.5337,9.094,-10.925,-3.784,144.893,20.001,-109.946
15060,-0.4238,0.4019,-0.5962,11.292,10.010,4.822,145.025,20.001,-109.929
15070,-0.3877,0.4453,-0.6689,10.315,26.062,11.108,145.157,19.781,-109.863
15080,-0.3467,0.5093,-0.7515,7.629,35.400,14.404,145.272,19.424,-109.775
15090,-0.3008,0.5698,-0.8403,5.188,38.025,14.404,145.360,19.006,-109.671
15100,-0.2671,0.6309,-0.9126,2.258,35.278,12.329,145.421,18.594,-109.567
15110,-0.2441,0.6577,-0.9507,1.465,29.358,9.644,145.459,18.232,-109.473
15120,-0.2290,0.6792,-0.9834,1.099,21.423,6.470,145.492,17.946,-109.402
15130,-0.2241,0.6821,-0.9805,1.526,12.756,2.991,145.519,17.754,-109.352
15140,-0.2422,0.6445,-0.9468,3.052,3.357,-0.977,145.563,17.677,-109.325
15150,-0.2651,0.5820,-0.8833,3.418,-5.310,-4.333,145.607,17.704,-109.319
15160,-0.2905,0.5210,-0.8145,2.136,-12.268,-6.165,145.640,17.831,-109.336
15170,-0.3174,0.4673,-0.7534,0.549,-15.747,-6.226,145.662,18.012,-109.380
15180,-0.3384,0.4297,-0.7070,-2.502,-15.625,-5.005,145.651,18.210,-109.429
15190,-0.3569,0.4243,-0.6816,-5.066,-12.634,-2.686,145.607,18.386,-109.479
15200,-0.3657,0.4307,-0.6768,-4.883,-6.165,0.916,145.563,18.495,-109.523
15210,-0.3584,0.4614,-0.6880,-2.930,2.380,5.127,145.530,18.495,-109.556
15220,-0.3477,0.5054,-0.7280,0.427,10.986,9.033,145.530,18.386,-109.567
15230,-0.3232,0.5352,-0.7715,3.174,17.090,12.573,145.558,18.182,-109.572
15240,-0.3057,0.5571,-0.8154,4.211,19.165,14.221,145.596,17.935,-109.583
15250,-0.2749,0.5894,-0.8628,0.854,17.639,13.733,145.602,17.682,-109.600
15260,-0.2500,0.6440,-0.9063,-4.761,13.916,11.475,145.541,17.452,-109.616
15270,-0.2432,0.6631,-0.9248,-9.033,9.033,8.606,145.432,17.276,-109.638
15280,-0.2358,0.6641,-0.9272,-12.451,3.845,4.639,145.294,17.166,-109.655
15290,-0.2393,0.6606,-0.8940,-14.893,-1.526,0.000,145.124,17.128,-109.660
15300,-0.2568,0.6396,-0.8525,-15.686,-6.287,-4.333,144.948,17.166,-109.660
15310,-0.2788,0.6108,-0.8086,-15.686,-9.827,-7.202,144.772,17.271,-109.660
15320,-0.3018,0.5659,-0.7524,-14.954,-11.230,-8.240,144.608,17.413,-109.655
15330,-0.3286,0.5269,-0.7114,-13.245,-10.925,-8.179,144.470,17.578,-109.655
15340,-0.3423,0.5059,-0.6982,-11.108,-8.606,-7.202,144.355,17.726,-109.644
15350,-0.3447,0.5063,-0.6968,-9.399,-4.089,-5.127,144.267,17.831,-109.627
15360,-0.3369,0.5210,-0.7207,-7.263,1.953,-2.563,144.201,17.858,-109.594
15370,-0.3076,0.5352,-0.7886,-0.793,12.573,0.549,144.234,17.754,-109.517
15380,-0.2812,0.5659,-0.8276,0.122,15.259,0.916,144.272,17.606,-109.435
15390,-0.2612,0.5947,-0.8550,-0.061,15.381,1.343,144.311,17.441,-109.352
15400,-0.2554,0.6050,-0.8608,-0.549,12.634,1.709,144.327,17.292,-109.286
15410,-0.2607,0.6128,-0.8584,-0.366,7.324,1.038,144.338,17.194,-109.254
15420,-0.2700,0.6099,-0.8467,0.183,1.221,-0.244,144.338,17.155,-109.243
15430,-0.2920,0.5884,-0.8257,1.282,-3.479,-1.160,144.349,17.183,-109.254
15440,-0.3091,0.5527,-0.7988,2.197,-6.348,-1.709,144.377,17.249,-109.276
15450,-0.3149,0.5342,-0.7769,1.953,-7.812,-1.892,144.399,17.331,-109.308
15460,-0.3159,0.5264,-0.7588,1.770,-8.057,-1.526,144.410,17.419,-109.347
15470,-0.3154,0.5278,-0.7495,1.953,-6.775,-0.671,144.426,17.496,-109.380
15480,-0.3022,0.5430,-0.7539,2.930,-4.395,0.732,144.443,17.534,-109.413
15490,-0.2939,0.5518,-0.7671,4.089,-1.892,2.563,144.470,17.529,-109.446
15501,-0.2964,0.5664,-0.7817,4.089,-0.305,3.662,144.498,17.507,-109.479
15510,-0.2993,0.5884,-0.7944,3.174,0.854,3.784,144.509,17.474,-109.506
15520,-0.3018,0.6016,-0.8027,2.930,2.014,3.479,144.520,17.430,-109.523
15530,-0.2979,0.5923,-0.8145,3.174,2.563,2.502,144.547,17.386,-109.528
15540,-0.2915,0.5879,-0.8159,2.197,1.892,0.732,144.564,17.353,-109.528
15550,-0.2920,0.5698,-0.8008,0.366,0.305,-0.977,144.569,17.347,-109.517
15560,-0.2983,0.5640,-0.7866,-2.014,-1.282,-2.197,144.553,17.369,-109.506
15570,-0.2983,0.5654,-0.7798,-4.028,-1.953,-2.625,144.509,17.397,-109.495
15580,-0.2998,0.5640,-0.7637,-4.517,-1.709,-2.136,144.459,17.424,-109.484
15590,-0.3105,0.5474,-0.7490,-3.540,-1.709,-1.526,144.421,17.457,-109.484
15600,-0.2969,0.5767,-0.7832,-1.831,-1.160,-0.854,144.393,17.468,-109.484
15610,-0.2939,0.5879,-0.8057,0.977,0.793,0.793,144.399,17.446,-109.484
15620,-0.2920,0.5991,-0.8213,3.174,3.113,2.014,144.421,17.397,-109.484
15630,-0.2695,0.6050,-0.8579,4.639,4.211,1.709,144.476,17.320,-109.473
15640,-0.2183,0.6533,-0.9644,3.418,5.371,-0.305,144.536,17.210,-109.435
15650,-0.1792,0.7134,-1.0532,-1.099,8.423,-3.723,144.564,17.073,-109.352
15660,-0.1362,0.8306,-1.1128,-9.644,10.254,-7.935,144.492,16.924,-109.226
15670,-0.1406,0.8237,-1.0825,-15.503,8.667,-13.367,144.366,16.820,-109.056
15680,-0.2412,0.6846,-0.8882,-20.813,-1.526,-23.376,144.196,16.919,-108.869
15690,-0.3833,0.4834,-0.6191,-28.015,-22.705,-35.339,143.943,17.397,-108.710
15700,-0.4932,0.2886,-0.3999,-34.119,-47.974,-42.664,143.630,18.303,-108.644
15710,-0.5518,0.2134,-0.2998,-35.461,-65.308,-39.368,143.262,19.440,-108.715
15720,-0.5786,0.2231,-0.2837,-23.926,-62.805,-25.391,142.949,20.473,-108.896
15730,-0.5435,0.2324,-0.3364,1.282,-42.053,-4.944,142.910,21.160,-109.127
15740,-0.4404,0.3057,-0.4937,28.564,-9.216,17.151,143.168,21.292,-109.336
15750,-0.3345,0.4272,-0.7144,49.255,27.100,35.278,143.674,20.874,-109.462
15760,-0.2036,0.6045,-0.9600,55.298,55.542,43.518,144.250,20.067,-109.484
15770,-0.1221,0.7568,-1.1431,49.316,66.711,42.908,144.778,19.133,-109.440
15780,-0.0791,0.8462,-1.2461,37.170,60.303,35.583,145.173,18.281,-109.380
15790,-0.1074,0.8477,-1.2568,22.888,40.161,21.545,145.426,17.693,-109.325
15800,-0.1582,0.8237,-1.2056,5.859,10.681,4.211,145.497,17.468,-109.297
15810,-0.1836,0.7827,-1.0884,-10.437,-20.508,-10.437,145.371,17.595,-109.330
15820,-0.2505,0.6470,-0.8984,-18.433,-45.776,-19.470,145.146,18.029,-109.435
15830,-0.3218,0.5513,-0.7275,-17.883,-62.012,-23.193,144.893,18.677,-109.605
15840,-0.3657,0.4897,-0.6055,-11.108,-66.406,-22.217,144.679,19.407,-109.819
15850,-0.4092,0.4219,-0.5288,0.244,-58.350,-16.724,144.575,20.094,-110.034
15860,-0.4463,0.3716,-0.4951,9.583,-40.955,-8.484,144.597,20.627,-110.209
15870,-0.4658,0.3413,-0.4893,14.526,-18.799,0.061,144.706,20.951,-110.330
15880,-0.4580,0.3462,-0.5073,15.076,1.465,7.202,144.844,21.055,-110.380
15890,-0.4233,0.4058,-0.5869,10.986,17.151,11.597,144.959,20.951,-110.380
15900,-0.3823,0.4834,-0.6743,4.517,28.198,14.404,145.014,20.676,-110.330
15910,-0.3281,0.5654,-0.7710,-0.854,33.997,15.442,145.020,20.297,-110.259
15920,-0.2759,0.6738,-0.8843,-4.211,34.912,14.587,144.987,19.863,-110.171
15930,-0.2456,0.7617,-0.9824,-3.845,34.180,13.550,144.948,19.424,-110.083
15940,-0.2349,0.7861,-1.0190,0.061,31.189,11.536,144.954,19.017,-109.990
15950,-0.2358,0.7368,-0.9902,4.517,23.621,6.897,145.009,18.704,-109.907
15960,-0.2573,0.6509,-0.9302,5.432,10.254,-0.549,145.085,18.561,-109.841
15970,-0.2798,0.5825,-0.8652,2.136,-4.944,-8.057,145.129,18.616,-109.803
15980,-0.3062,0.4961,-0.7642,-4.089,-15.259,-11.841,145.107,18.803,-109.792
15990,-0.3262,0.4360,-0.6743,-8.850,-19.226,-12.634,145.042,19.067,-109.797
16001,-0.3560,0.4409,-0.6450,-9.155,-17.334,-10.559,144.948,19.319,-109.808
16010,-0.3794,0.4653,-0.6436,-5.615,-8.057,-5.737,144.888,19.479,-109.808
16020,-0.3682,0.4956,-0.6826,1.770,6.348,1.038,144.904,19.462,-109.781
16030,-0.3521,0.5000,-0.7397,9.094,19.165,7.019,145.025,19.292,-109.726
16040,-0.3296,0.5259,-0.7832,12.817,26.428,10.864,145.184,19.012,-109.660
16050,-0.3037,0.5332,-0.8232,13.123,28.931,11.963,145.355,18.693,-109.589
16060,-0.2925,0.5225,-0.8350,8.484,26.245,10.620,145.486,18.397,-109.523
16070,-0.2808,0.5366,-0.8540,1.099,18.860,7.751,145.536,18.171,-109.479
16080,-0.2651,0.5752,-0.8765,-4.761,10.071,4.517,145.503,18.023,-109.457
16090,-0.2544,0.6167,-0.8989,-6.531,4.028,2.319,145.443,17.930,-109.451
16100,-0.2451,0.6470,-0.9038,-3.845,0.305,1.526,145.393,17.864,-109.462
16110,-0.2495,0.6313,-0.8901,1.099,-2.625,1.343,145.388,17.825,-109.490
16120,-0.2524,0.5996,-0.8564,4.578,-5.737,0.732,145.415,17.825,-109.528
16130,-0.2671,0.5640,-0.8179,5.066,-10.010,-0.122,145.448,17.880,-109.589
16140,-0.2930,0.5459,-0.7920,2.930,-13.428,-1.282,145.453,17.990,-109.660
16150,-0.3145,0.5269,-0.7739,0.916,-14.343,-1.343,145.443,18.122,-109.731
16160,-0.3213,0.5186,-0.7632,-0.305,-11.719,-0.488,145.426,18.226,-109.797
16170,-0.3184,0.5361,-0.7690,-0.732,-6.836,0.305,145.399,18.287,-109.841
16180,-0.3184,0.5518,-0.7769,-0.061,-2.686,0.916,145.388,18.309,-109.863
16190,-0.3149,0.5605,-0.7896,0.977,-0.183,1.038,145.382,18.298,-109.874
16200,-0.3071,0.5605,-0.8105,1.343,0.916,0.427,145.399,18.281,-109.874
16210,-0.2949,0.5571,-0.8208,-0.061,0.732,-0.427,145.404,18.259,-109.863
16220,-0.2944,0.5537,-0.8184,-2.991,-0.305,-1.282,145.382,18.254,-109.858
16230,-0.2891,0.5679,-0.8120,-5.737,-1.404,-1.709,145.322,18.254,-109.852
16240,-0.2930,0.5771,-0.7969,-6.104,-2.380,-1.587,145.250,18.265,-109.852
16250,-0.3096,0.5703,-0.7837,-3.723,-3.418,-1.160,145.195,18.292,-109.863
16260,-0.3164,0.5610,-0.7729,-0.916,-3.723,-0.793,145.173,18.331,-109.874
