elapsed_ms,acc_x_g,acc_y_g,acc_z_g,gyro_x_dps,gyro_y_dps,gyro_z_dps,angle_x_deg,angle_y_deg,angle_z_deg
0,-0.4844,0.6230,-0.6641,-0.793,-3.357,1.648,138.104,28.218,-84.496
10,-0.4834,0.6245,-0.6592,-1.465,-3.479,0.916,138.060,28.235,-84.534
20,-0.4849,0.6206,-0.6572,-1.770,-3.174,0.305,138.016,28.257,-84.562
30,-0.4863,0.6157,-0.6523,-1.770,-2.869,-0.244,137.972,28.284,-84.578
40,-0.4883,0.6094,-0.6519,-1.526,-2.686,-0.488,137.939,28.312,-84.595
50,-0.4868,0.6050,-0.6484,-1.343,-2.747,-0.610,137.911,28.339,-84.611
60,-0.4883,0.6050,-0.6445,-1.221,-2.991,-0.610,137.878,28.372,-84.628
70,-0.4897,0.6030,-0.6431,-1.160,-3.235,-0.488,137.845,28.405,-84.650
80,-0.4917,0.6035,-0.6382,-1.160,-3.479,-0.366,137.812,28.438,-84.672
90,-0.4937,0.6050,-0.6367,-0.977,-3.418,-0.244,137.780,28.477,-84.699
100,-0.4985,0.6035,-0.6343,-0.549,-2.869,-0.122,137.747,28.510,-84.716
110,-0.5024,0.6011,-0.6313,-0.061,-2.075,0.000,137.725,28.542,-84.732
120,-0.5005,0.6011,-0.6323,0.305,-0.977,0.244,137.714,28.559,-84.743
130,-0.4985,0.6021,-0.6328,0.732,0.000,0.366,137.708,28.570,-84.749
140,-0.5015,0.6040,-0.6343,1.099,0.671,0.427,137.703,28.570,-84.743
150,-0.4990,0.6064,-0.6416,1.343,0.732,0.305,137.708,28.575,-84.743
160,-0.4956,0.6113,-0.6479,1.526,0.488,0.183,137.714,28.575,-84.738
170,-0.4878,0.6157,-0.6479,1.892,-0.061,-0.122,137.719,28.575,-84.738
180,-0.4805,0.6138,-0.6499,2.563,-2.136,-1.648,137.736,28.597,-84.743
190,-0.4800,0.6118,-0.6514,2.686,-6.714,-4.944,137.747,28.680,-84.749
200,-0.4839,0.6113,-0.6533,2.136,-13.367,-9.094,137.747,28.834,-84.776
210,-0.4849,0.6133,-0.6562,1.221,-19.226,-12.085,137.730,29.053,-84.820
220,-0.4883,0.6152,-0.6675,-0.183,-23.071,-13.916,137.692,29.306,-84.880
230,-0.4907,0.6196,-0.6724,-0.854,-25.024,-14.832,137.648,29.575,-84.952
240,-0.4937,0.6177,-0.6743,-0.610,-24.902,-15.381,137.609,29.850,-85.012
250,-0.4946,0.6230,-0.6802,0.122,-22.583,-15.320,137.587,30.097,-85.056
260,-0.4966,0.6138,-0.6821,0.732,-19.043,-14.099,137.587,30.317,-85.084
270,-0.5039,0.6167,-0.6885,0.977,-15.015,-12.146,137.598,30.493,-85.100
280,-0.5127,0.6167,-0.6880,0.854,-10.620,-9.644,137.609,30.619,-85.100
290,-0.5166,0.5972,-0.6812,0.122,-6.409,-6.836,137.626,30.701,-85.089
300,-0.5210,0.5786,-0.6724,-1.587,-2.441,-4.639,137.637,30.745,-85.067
310,-0.5269,0.5698,-0.6562,-3.723,0.244,-3.357,137.631,30.773,-85.040
320,-0.5356,0.5557,-0.6323,-5.554,1.038,-2.625,137.604,30.800,-85.007
330,-0.5337,0.5503,-0.6226,-6.348,0.305,-2.380,137.560,30.833,-84.985
340,-0.5298,0.5684,-0.6221,-6.165,-0.427,-1.770,137.505,30.861,-84.974
350,-0.5278,0.5840,-0.6191,-4.395,-0.610,-0.305,137.450,30.877,-84.974
360,-0.5283,0.5791,-0.6128,-0.793,-0.427,1.587,137.428,30.883,-84.990
370,-0.5273,0.5732,-0.6089,3.662,0.000,3.296,137.439,30.872,-85.018
380,-0.5288,0.5703,-0.6094,7.935,0.183,4.944,137.494,30.855,-85.062
390,-0.5337,0.5386,-0.5977,11.230,-0.244,6.409,137.582,30.839,-85.117
400,-0.5347,0.5132,-0.5903,11.475,-1.221,6.958,137.675,30.839,-85.188
410,-0.5317,0.5146,-0.6040,8.240,-1.831,6.897,137.736,30.833,-85.259
420,-0.5283,0.5420,-0.6377,3.723,-1.160,6.836,137.758,30.811,-85.331
430,-0.5186,0.5903,-0.6738,-0.366,1.831,7.629,137.736,30.740,-85.380
440,-0.4995,0.6553,-0.7148,-1.892,7.080,9.216,137.703,30.591,-85.402
450,-0.4780,0.7202,-0.7617,-0.244,13.184,10.925,137.697,30.361,-85.397
460,-0.4541,0.7993,-0.8120,3.723,18.372,12.207,137.730,30.059,-85.358
470,-0.4463,0.7935,-0.8062,10.620,19.775,11.169,137.840,29.756,-85.298
480,-0.4541,0.7295,-0.7524,15.198,14.526,7.080,137.999,29.537,-85.248
490,-0.4849,0.5947,-0.6567,13.062,0.916,0.000,138.126,29.520,-85.237
500,-0.5166,0.4731,-0.5728,3.296,-19.958,-8.850,138.148,29.784,-85.320
510,-0.5400,0.4038,-0.5259,-11.047,-41.199,-17.090,137.999,30.289,-85.485
520,-0.5464,0.4219,-0.5269,-25.269,-55.420,-21.240,137.659,30.927,-85.732
530,-0.5513,0.5542,-0.5850,-31.189,-56.213,-18.555,137.192,31.498,-86.017
540,-0.5508,0.6846,-0.6382,-22.095,-40.955,-8.728,136.802,31.844,-86.265
550,-0.5601,0.7080,-0.6304,0.732,-17.395,3.601,136.670,31.932,-86.440
560,-0.5645,0.6499,-0.5845,27.161,3.113,13.184,136.846,31.827,-86.528
570,-0.5596,0.5679,-0.5435,50.049,16.541,18.860,137.296,31.619,-86.556
580,-0.5542,0.5010,-0.5420,61.523,20.691,20.203,137.900,31.382,-86.567
590,-0.5386,0.4878,-0.5923,59.570,18.311,19.348,138.499,31.157,-86.589
600,-0.5254,0.5303,-0.6787,48.523,13.000,17.334,138.988,30.948,-86.638
610,-0.5024,0.6187,-0.7944,34.241,9.766,15.015,139.334,30.734,-86.699
620,-0.4771,0.6890,-0.8823,19.653,11.780,13.062,139.537,30.487,-86.721
630,-0.4585,0.7041,-0.8853,6.104,15.747,10.254,139.636,30.218,-86.693
640,-0.4614,0.6846,-0.8286,-5.798,15.808,4.883,139.620,29.998,-86.622
650,-0.4810,0.6118,-0.7246,-16.724,9.033,-2.441,139.504,29.916,-86.528
660,-0.5171,0.5400,-0.6113,-27.649,-5.249,-10.071,139.241,30.042,-86.479
670,-0.5464,0.4658,-0.4971,-36.438,-22.095,-15.686,138.845,30.399,-86.512
680,-0.5669,0.4277,-0.4199,-39.917,-38.391,-18.372,138.340,30.932,-86.644
690,-0.5830,0.4648,-0.4199,-35.339,-47.363,-16.541,137.812,31.514,-86.869
700,-0.5811,0.5234,-0.5005,-20.813,-42.847,-10.071,137.439,31.965,-87.116
710,-0.5542,0.6831,-0.6680,-0.793,-23.010,0.305,137.302,32.113,-87.303
720,-0.5205,0.8174,-0.8228,21.729,10.437,12.939,137.477,31.871,-87.330
730,-0.4854,0.8340,-0.8647,40.955,44.495,23.376,137.950,31.289,-87.182
740,-0.4687,0.7187,-0.7705,51.270,63.171,25.513,138.587,30.586,-86.907
750,-0.4844,0.5137,-0.6328,46.448,57.068,16.846,139.219,30.053,-86.616
760,-0.5054,0.4038,-0.5308,22.156,31.921,3.662,139.576,29.861,-86.407
770,-0.5381,0.3779,-0.4824,-10.193,0.061,-7.568,139.532,30.026,-86.342
780,-0.5610,0.4253,-0.4849,-35.095,-28.625,-15.381,139.136,30.449,-86.418
790,-0.5752,0.5269,-0.5371,-44.006,-45.288,-17.700,138.571,30.970,-86.605
800,-0.5742,0.6704,-0.6582,-34.058,-40.344,-12.817,138.093,31.360,-86.808
810,-0.5454,0.7783,-0.7808,-10.193,-16.479,-2.625,137.906,31.448,-86.913
820,-0.5107,0.7881,-0.8286,18.188,12.268,6.470,138.093,31.240,-86.874
830,-0.4717,0.7441,-0.8115,39.856,35.034,12.024,138.565,30.822,-86.704
840,-0.4556,0.6411,-0.7656,49.805,45.044,12.329,139.197,30.344,-86.462
850,-0.4609,0.5112,-0.6895,41.199,36.926,7.507,139.752,29.998,-86.248
860,-0.4731,0.4326,-0.6318,17.273,15.015,-0.183,140.037,29.905,-86.138
870,-0.4985,0.4116,-0.5947,-10.803,-9.888,-6.897,139.977,30.070,-86.149
880,-0.5249,0.4346,-0.5952,-33.203,-30.457,-12.573,139.631,30.432,-86.265
890,-0.5356,0.5396,-0.6411,-44.128,-39.429,-15.564,139.120,30.855,-86.424
900,-0.5459,0.6201,-0.6895,-39.124,-32.043,-13.794,138.658,31.179,-86.545
910,-0.5386,0.6763,-0.7285,-21.179,-14.709,-8.972,138.417,31.317,-86.578
920,-0.5171,0.7031,-0.7612,-1.160,4.700,-2.441,138.422,31.251,-86.523
930,-0.5010,0.6558,-0.7354,15.381,20.813,3.662,138.642,31.031,-86.391
940,-0.4971,0.5542,-0.6611,21.301,26.917,6.409,138.939,30.778,-86.243
950,-0.5029,0.4639,-0.5845,15.869,18.921,4.028,139.180,30.641,-86.133
960,-0.5244,0.4082,-0.5161,2.014,2.136,0.427,139.230,30.701,-86.116
970,-0.5493,0.4072,-0.4985,-12.939,-14.771,-1.953,139.070,30.927,-86.215
980,-0.5596,0.4873,-0.5527,-21.790,-24.536,-3.174,138.768,31.190,-86.375
990,-0.5576,0.6123,-0.6357,-20.325,-21.240,-0.610,138.461,31.366,-86.534
1000,-0.5444,0.6885,-0.7026,-7.996,-5.737,4.761,138.307,31.349,-86.616
1010,-0.5186,0.7187,-0.7490,7.202,12.817,9.460,138.367,31.146,-86.600
1020,-0.5000,0.6953,-0.7456,19.897,27.954,12.024,138.604,30.811,-86.490
1030,-0.4956,0.6309,-0.7021,24.841,32.776,10.376,138.928,30.471,-86.325
1040,-0.5029,0.5415,-0.6372,20.447,22.827,5.005,139.202,30.273,-86.199
1050,-0.5103,0.5005,-0.6099,7.385,4.700,-0.305,139.312,30.262,-86.160
1060,-0.5137,0.5459,-0.6333,-7.324,-11.414,-3.540,139.208,30.388,-86.215
1070,-0.5220,0.6030,-0.6797,-14.404,-20.874,-5.493,139.005,30.575,-86.325
1080,-0.5146,0.6729,-0.7314,-13.672,-20.386,-4.761,138.796,30.723,-86.435
1090,-0.5083,0.6812,-0.7534,-4.211,-10.376,-2.441,138.713,30.778,-86.495
1100,-0.5063,0.6509,-0.7471,6.836,1.160,-1.526,138.796,30.740,-86.473
1110,-0.4971,0.6079,-0.7109,13.428,8.728,-1.038,138.972,30.652,-86.396
1120,-0.5063,0.5288,-0.6533,14.099,8.728,-0.732,139.169,30.597,-86.325
1130,-0.5151,0.4775,-0.6055,7.690,0.183,-1.831,139.279,30.641,-86.309
1140,-0.5254,0.4736,-0.5942,-1.831,-11.353,-3.418,139.257,30.789,-86.364
1150,-0.5278,0.5283,-0.6294,-9.644,-18.799,-3.967,139.114,30.976,-86.468
1160,-0.5264,0.6001,-0.6797,-11.902,-18.372,-3.052,138.933,31.124,-86.583
1170,-0.5215,0.6523,-0.7134,-7.507,-10.742,-0.977,138.807,31.179,-86.660
1180,-0.5107,0.6636,-0.7266,0.793,-0.610,0.793,138.796,31.141,-86.671
1190,-0.4980,0.6460,-0.7212,8.484,7.324,2.014,138.895,31.036,-86.633
1200,-0.4980,0.6064,-0.6851,12.146,9.949,2.319,139.037,30.921,-86.572
1210,-0.5078,0.5298,-0.6177,10.193,5.310,0.854,139.158,30.888,-86.539
1220,-0.5215,0.4683,-0.5645,2.441,-5.310,-2.075,139.186,30.987,-86.561
1230,-0.5352,0.4697,-0.5483,-7.507,-15.625,-4.578,139.070,31.190,-86.644
1240,-0.5449,0.5073,-0.5840,-14.221,-20.752,-5.310,138.873,31.415,-86.754
1250,-0.5464,0.5967,-0.6523,-15.503,-16.663,-3.113,138.653,31.564,-86.858
1260,-0.5405,0.6436,-0.6978,-9.094,-3.662,1.160,138.532,31.564,-86.896
1270,-0.5269,0.6353,-0.7007,1.160,10.437,4.517,138.554,31.432,-86.852
1280,-0.5127,0.6162,-0.6816,8.484,20.630,6.836,138.686,31.212,-86.754
1290,-0.5195,0.5566,-0.6333,11.719,22.461,6.836,138.862,31.009,-86.638
1300,-0.5317,0.4937,-0.5820,9.094,14.709,4.578,138.994,30.905,-86.567
1310,-0.5425,0.4668,-0.5630,1.404,2.563,1.465,139.026,30.932,-86.561
1320,-0.5415,0.5142,-0.6035,-6.836,-6.714,-0.122,138.939,31.020,-86.611
1330,-0.5239,0.6426,-0.7144,-10.315,-6.836,0.793,138.796,31.042,-86.671
1340,-0.4849,0.8135,-0.8550,-6.653,5.188,4.456,138.708,30.888,-86.671
1350,-0.4570,0.8359,-0.8838,2.625,22.766,7.996,138.763,30.564,-86.561
1360,-0.4531,0.7480,-0.7930,10.620,33.142,7.996,138.944,30.185,-86.380
1370,-0.4917,0.5410,-0.6250,12.512,28.748,1.831,139.169,29.960,-86.177
1380,-0.5674,0.2656,-0.4106,3.662,6.104,-9.766,139.351,30.174,-86.045
1390,-0.6211,0.1333,-0.2798,-16.235,-26.001,-21.118,139.334,30.839,-86.056
1400,-0.6270,0.1914,-0.3359,-36.255,-52.246,-26.489,139.005,31.674,-86.221
1410,-0.5996,0.5200,-0.5830,-43.518,-54.260,-18.250,138.433,32.256,-86.473
1420,-0.5718,0.7979,-0.7954,-29.785,-23.682,2.502,137.994,32.366,-86.682
1430,-0.5244,0.8765,-0.8916,1.160,17.456,21.118,137.955,31.998,-86.732
1440,-0.4473,0.9067,-0.9282,33.447,53.223,31.921,138.334,31.267,-86.589
1450,-0.3916,0.8462,-0.8984,57.373,75.623,32.715,139.043,30.355,-86.287
1460,-0.3818,0.7153,-0.8145,61.157,73.425,24.902,139.812,29.537,-85.946
1470,-0.4014,0.5713,-0.7109,42.725,47.974,12.878,140.372,29.031,-85.704
1480,-0.4434,0.4922,-0.6406,12.878,9.705,0.061,140.554,28.954,-85.633
1490,-0.4819,0.4692,-0.6167,-17.639,-25.940,-10.864,140.356,29.251,-85.726
1500,-0.5117,0.4907,-0.6216,-40.161,-51.025,-18.921,139.872,29.795,-85.935
1510,-0.5312,0.5479,-0.6387,-46.387,-60.364,-22.339,139.285,30.421,-86.188
1520,-0.5664,0.5757,-0.6489,-32.349,-52.612,-20.874,138.845,30.976,-86.402
1530,-0.5869,0.5820,-0.6533,-11.780,-34.302,-15.503,138.658,31.360,-86.528
1540,-0.5566,0.5923,-0.6411,3.967,-12.146,-6.897,138.669,31.509,-86.561
1550,-0.5469,0.5293,-0.5942,16.235,3.540,1.038,138.834,31.509,-86.539
1560,-0.5361,0.4883,-0.5537,18.066,10.498,6.287,139.026,31.432,-86.517
1570,-0.5239,0.4888,-0.5674,12.512,10.254,7.751,139.153,31.339,-86.506
1580,-0.5132,0.5161,-0.6050,4.150,8.728,6.958,139.202,31.245,-86.501
1590,-0.5103,0.5669,-0.6465,-3.540,7.690,5.310,139.169,31.146,-86.490
1600,-0.5029,0.6611,-0.7153,-8.484,8.301,3.723,139.081,31.025,-86.457
1610,-0.5000,0.7070,-0.7612,-8.911,11.230,2.747,139.005,30.866,-86.396
1620,-0.4980,0.7144,-0.7598,-7.996,13.855,1.404,138.950,30.701,-86.303
1630,-0.4912,0.6729,-0.7183,-6.897,14.832,-1.770,138.928,30.564,-86.177
1640,-0.5054,0.5801,-0.6406,-6.958,9.155,-6.470,138.911,30.531,-86.050
1650,-0.5259,0.4941,-0.5688,-9.277,-2.930,-10.681,138.856,30.668,-85.979
1660,-0.5366,0.4727,-0.5527,-13.306,-15.747,-12.146,138.724,30.921,-85.990
1670,-0.5391,0.5122,-0.5952,-15.076,-22.583,-10.742,138.538,31.196,-86.072
1680,-0.5259,0.6040,-0.6851,-12.634,-19.165,-6.042,138.367,31.366,-86.166
1690,-0.4976,0.7012,-0.7734,-5.920,-5.249,0.671,138.279,31.339,-86.215
1700,-0.4863,0.7070,-0.7871,2.869,11.658,5.493,138.323,31.152,-86.171
1710,-0.4849,0.6465,-0.7256,7.568,22.461,6.531,138.461,30.899,-86.050
1720,-0.4961,0.5645,-0.6436,6.042,21.667,2.625,138.598,30.712,-85.908
1730,-0.5293,0.4585,-0.5396,-2.319,9.705,-3.601,138.636,30.723,-85.803
1740,-0.5713,0.3350,-0.4521,-16.724,-10.681,-11.658,138.532,31.025,-85.781
1750,-0.5571,0.4331,-0.5410,-33.447,-31.311,-20.142,138.192,31.470,-85.847
1760,-0.5117,0.7783,-0.7817,-42.175,-34.241,-19.165,137.692,31.783,-85.946
1770,-0.4702,1.0562,-0.9604,-30.823,-14.954,-6.958,137.307,31.800,-86.006
1780,-0.4243,1.1660,-1.0327,-1.831,11.475,4.272,137.313,31.690,-85.952
1790,-0.4233,0.8770,-0.8237,30.579,32.715,8.423,137.719,31.388,-85.765
1800,-0.5034,0.3706,-0.4927,47.180,25.085,-0.244,138.296,31.207,-85.562
1810,-0.5786,0.0898,-0.2852,32.104,-9.094,-14.648,138.647,31.371,-85.507
1820,-0.6479,0.0210,-0.2012,1.648,-46.021,-22.339,138.582,31.866,-85.666
1830,-0.6841,0.0190,-0.2349,-23.132,-71.716,-20.996,138.153,32.542,-86.039
1840,-0.6890,0.2393,-0.4502,-38.391,-73.425,-11.169,137.505,33.162,-86.523
1850,-0.6484,0.6484,-0.7700,-37.292,-37.415,8.057,136.928,33.382,-86.896
1860,-0.5649,0.9224,-0.9644,-15.259,19.348,27.832,136.730,33.052,-86.979
1870,-0.4888,0.9922,-1.0024,17.090,64.392,38.696,137.005,32.316,-86.792
1880,-0.3872,0.9600,-0.9136,41.504,88.867,37.537,137.631,31.415,-86.396
1890,-0.3584,0.7881,-0.7520,48.828,88.196,28.870,138.351,30.569,-85.952
1900,-0.3965,0.6182,-0.6167,29.968,62.256,16.235,138.823,29.993,-85.611
1910,-0.4575,0.5552,-0.5522,-1.526,21.912,1.465,138.884,29.817,-85.457
1920,-0.4985,0.5552,-0.5459,-30.212,-15.808,-11.292,138.571,30.015,-85.479
1930,-0.5347,0.5786,-0.5659,-47.485,-42.175,-19.531,138.021,30.460,-85.633
1940,-0.5503,0.6221,-0.6060,-46.204,-55.420,-24.292,137.450,31.031,-85.853
1950,-0.5649,0.6572,-0.6504,-27.222,-50.781,-24.231,137.076,31.569,-86.045
1960,-0.5786,0.6304,-0.6406,-6.348,-33.447,-19.104,136.961,31.943,-86.149
1970,-0.5835,0.5312,-0.5640,8.545,-16.418,-13.123,137.032,32.157,-86.166
1980,-0.5732,0.4385,-0.4976,12.939,-5.432,-7.996,137.175,32.250,-86.144
1990,-0.5723,0.4121,-0.4775,6.775,1.221,-2.563,137.263,32.256,-86.111
2000,-0.5786,0.4312,-0.4985,-1.770,6.897,1.648,137.263,32.195,-86.067
2010,-0.5488,0.5454,-0.5757,-8.179,12.939,4.639,137.219,32.069,-86.006
2020,-0.5195,0.6709,-0.6738,-6.775,22.034,7.324,137.208,31.860,-85.891
2030,-0.5054,0.7134,-0.7153,-0.061,31.738,9.216,137.302,31.564,-85.721
2040,-0.4932,0.6914,-0.7134,6.836,38.086,8.362,137.488,31.223,-85.490
2050,-0.4971,0.6270,-0.6772,9.888,37.048,4.517,137.719,30.921,-85.232
2060,-0.5181,0.5439,-0.6182,5.981,27.649,-0.122,137.895,30.718,-85.018
2070,-0.5386,0.4829,-0.5679,-2.014,12.512,-4.028,137.939,30.652,-84.886
2080,-0.5532,0.4644,-0.5571,-10.437,-2.075,-5.493,137.851,30.707,-84.853
2090,-0.5337,0.5640,-0.6313,-14.404,-10.193,-4.150,137.686,30.806,-84.897
2100,-0.4990,0.6792,-0.7393,-9.277,-6.714,0.977,137.560,30.850,-84.957
2110,-0.4775,0.7246,-0.8042,1.404,5.981,7.019,137.571,30.762,-84.968
2120,-0.4653,0.7085,-0.7959,10.925,19.592,10.742,137.708,30.542,-84.908
2130,-0.4814,0.6309,-0.7212,15.320,26.062,9.766,137.922,30.284,-84.787
2140,-0.5122,0.5210,-0.6313,13.794,20.752,4.761,138.120,30.097,-84.672
2150,-0.5283,0.4819,-0.5825,3.845,7.935,-0.854,138.197,30.042,-84.600
2160,-0.5405,0.4888,-0.5742,-6.897,-2.991,-3.662,138.131,30.092,-84.589
2170,-0.5356,0.5435,-0.6196,-13.977,-8.362,-3.540,137.972,30.179,-84.628
2180,-0.5132,0.6182,-0.6719,-13.489,-6.287,-0.793,137.818,30.229,-84.666
2190,-0.4912,0.6587,-0.7119,-4.333,0.366,2.502,137.763,30.212,-84.688
2200,-0.4648,0.7090,-0.7549,4.883,7.080,5.371,137.818,30.119,-84.677
2210,-0.4595,0.6992,-0.7524,11.658,12.146,7.019,137.950,29.982,-84.644
2220,-0.4824,0.6533,-0.7061,13.428,10.132,5.920,138.098,29.872,-84.617
2230,-0.5020,0.6104,-0.6465,9.033,1.404,2.380,138.186,29.844,-84.628
2240,-0.5215,0.5581,-0.5815,-0.610,-10.376,-2.441,138.148,29.938,-84.683
2250,-0.5391,0.5386,-0.5415,-10.437,-21.301,-6.958,137.994,30.141,-84.787
2260,-0.5396,0.5674,-0.5654,-16.785,-26.794,-9.827,137.763,30.405,-84.913
2270,-0.5229,0.6357,-0.6401,-16.052,-22.644,-9.033,137.554,30.635,-85.012
2280,-0.5186,0.6357,-0.6709,-8.789,-10.071,-5.798,137.439,30.734,-85.040
2290,-0.5122,0.6123,-0.6509,-0.793,2.258,-3.235,137.450,30.729,-84.996
2300,-0.5034,0.5791,-0.6201,4.211,10.071,-1.770,137.532,30.668,-84.897
2310,-0.5039,0.5425,-0.5996,4.028,11.536,-1.404,137.631,30.608,-84.798
2320,-0.5059,0.5503,-0.5933,-0.916,7.690,-1.038,137.648,30.569,-84.727
2330,-0.5068,0.5962,-0.6255,-5.920,3.845,-0.305,137.593,30.542,-84.694
2340,-0.5029,0.6250,-0.6724,-7.324,3.845,0.549,137.532,30.493,-84.672
2350,-0.4961,0.6392,-0.7065,-4.883,7.751,1.160,137.510,30.399,-84.617
2360,-0.4893,0.6167,-0.7129,-0.610,11.658,1.099,137.560,30.278,-84.534
2370,-0.4902,0.5952,-0.7012,2.075,12.512,0.488,137.653,30.157,-84.441
2380,-0.4932,0.5801,-0.6831,2.136,9.888,-0.061,137.730,30.075,-84.364
2390,-0.4966,0.5913,-0.6802,0.000,4.639,-0.305,137.763,30.031,-84.326
2400,-0.4966,0.6074,-0.6758,-3.479,-0.549,0.244,137.730,30.020,-84.331
2410,-0.4990,0.6187,-0.6626,-5.859,-3.723,0.671,137.642,30.031,-84.370
2420,-0.4971,0.6196,-0.6528,-6.104,-4.944,-0.122,137.554,30.059,-84.408
2430,-0.5049,0.6211,-0.6455,-4.272,-5.920,-1.221,137.477,30.103,-84.441
2440,-0.5142,0.5972,-0.6304,-0.732,-6.348,-1.770,137.444,30.163,-84.474
2450,-0.5298,0.5542,-0.6060,2.502,-6.653,-1.831,137.455,30.251,-84.512
2460,-0.5430,0.5225,-0.5840,3.357,-7.141,-1.221,137.472,30.355,-84.556
2470,-0.5449,0.5244,-0.5781,2.441,-7.080,0.305,137.472,30.454,-84.617
2480,-0.5352,0.5537,-0.5889,0.854,-5.432,2.686,137.439,30.504,-84.683
2490,-0.5146,0.6230,-0.6167,0.061,-0.793,5.859,137.384,30.471,-84.738
2500,-0.4863,0.7051,-0.6675,1.587,6.165,7.996,137.351,30.333,-84.760
2510,-0.4648,0.7397,-0.7036,4.944,11.719,8.057,137.373,30.135,-84.732
2520,-0.4507,0.7422,-0.7349,7.935,14.160,6.104,137.455,29.921,-84.677
2530,-0.4595,0.7056,-0.7324,11.353,11.902,2.014,137.587,29.767,-84.600
2540,-0.4863,0.6182,-0.6934,14.709,2.563,-3.235,137.763,29.751,-84.551
2550,-0.5166,0.5483,-0.6509,14.465,-11.536,-7.568,137.917,29.899,-84.578
2560,-0.5405,0.4976,-0.6069,12.207,-24.536,-9.888,138.016,30.190,-84.683
2570,-0.5508,0.4912,-0.5894,8.240,-31.982,-9.033,138.032,30.542,-84.853
2580,-0.5493,0.5259,-0.6162,5.066,-29.846,-5.188,138.005,30.833,-85.040
2590,-0.5337,0.5723,-0.6504,4.944,-18.005,0.061,137.988,30.970,-85.177
2600,-0.5151,0.5889,-0.6577,6.531,-2.808,4.395,138.021,30.954,-85.237
2610,-0.5015,0.5908,-0.6426,6.714,9.827,6.165,138.093,30.833,-85.215
2620,-0.5034,0.5859,-0.6167,3.540,15.930,5.371,138.153,30.679,-85.139
2630,-0.5269,0.5830,-0.5898,-1.831,16.113,3.357,138.153,30.553,-85.045
2640,-0.5513,0.5908,-0.5840,-8.240,13.916,1.404,138.087,30.471,-84.946
2650,-0.5518,0.6265,-0.6123,-12.207,12.512,-0.183,137.977,30.399,-84.847
2660,-0.5298,0.6685,-0.6699,-10.254,13.916,-0.793,137.906,30.289,-84.732
2670,-0.4922,0.6987,-0.7344,-4.761,17.639,-1.099,137.917,30.125,-84.589
2680,-0.4531,0.7163,-0.7827,-0.122,20.142,-2.136,137.999,29.921,-84.413
2690,-0.4336,0.7183,-0.7915,2.686,18.677,-3.967,138.109,29.729,-84.238
2700,-0.4419,0.6724,-0.7524,1.526,12.573,-6.348,138.203,29.619,-84.084
2710,-0.4697,0.6001,-0.6943,-3.540,2.258,-10.132,138.224,29.647,-83.979
2720,-0.4907,0.5513,-0.6470,-11.841,-7.690,-13.611,138.153,29.795,-83.919
2730,-0.5215,0.4956,-0.6074,-18.188,-13.428,-15.503,138.010,30.037,-83.892
2740,-0.5391,0.4712,-0.5894,-19.836,-14.648,-15.381,137.856,30.300,-83.875
2750,-0.5337,0.5137,-0.6226,-16.296,-10.010,-11.780,137.736,30.482,-83.848
2760,-0.5337,0.4971,-0.6343,-6.836,-2.502,-5.798,137.725,30.569,-83.820
2770,-0.5215,0.5029,-0.6353,3.418,3.479,0.366,137.807,30.564,-83.793
2780,-0.5151,0.4980,-0.6230,10.925,7.446,5.554,137.955,30.493,-83.787
2790,-0.5308,0.4697,-0.5933,13.367,5.981,8.667,138.115,30.438,-83.815
2800,-0.5225,0.5142,-0.6089,8.911,3.601,10.559,138.186,30.372,-83.875
2810,-0.4951,0.6221,-0.6934,3.662,5.310,12.085,138.192,30.229,-83.941
2820,-0.4502,0.7695,-0.8145,0.427,11.047,13.000,138.164,29.976,-83.969
2830,-0.4077,0.8530,-0.8682,0.366,19.531,13.000,138.159,29.636,-83.930
2840,-0.3975,0.8320,-0.8208,3.235,23.621,10.071,138.203,29.284,-83.831
2850,-0.4380,0.6978,-0.6909,3.662,17.090,3.113,138.257,29.086,-83.727
2860,-0.4966,0.5591,-0.5649,-1.038,0.977,-6.226,138.246,29.147,-83.666
2870,-0.5581,0.4570,-0.4761,-10.132,-17.029,-13.611,138.115,29.476,-83.683
2880,-0.6084,0.3687,-0.4263,-18.860,-31.799,-17.212,137.895,29.998,-83.782
2890,-0.6284,0.3247,-0.4165,-23.560,-36.926,-15.320,137.626,30.569,-83.936
2900,-0.6221,0.3955,-0.4912,-21.667,-28.320,-7.996,137.368,30.970,-84.089
2910,-0.5635,0.5713,-0.6470,-10.254,-6.165,4.150,137.236,31.014,-84.172
2920,-0.4990,0.6895,-0.7515,6.165,20.752,16.907,137.307,30.696,-84.150
2930,-0.4492,0.7402,-0.7715,19.409,38.330,23.926,137.538,30.179,-84.056
2940,-0.4194,0.6948,-0.7427,28.076,42.297,22.888,137.878,29.641,-83.919
2950,-0.4277,0.6177,-0.6938,25.208,33.203,16.357,138.192,29.240,-83.804
2960,-0.4585,0.5898,-0.6729,11.108,15.564,7.751,138.329,29.053,-83.749
2970,-0.4814,0.6025,-0.6777,-4.150,-1.038,0.366,138.285,29.048,-83.760
2980,-0.5020,0.5879,-0.6909,-13.245,-12.878,-4.333,138.137,29.169,-83.820
2990,-0.4927,0.6245,-0.7231,-15.808,-17.456,-5.249,137.950,29.312,-83.908
3000,-0.4844,0.6406,-0.7417,-10.864,-14.343,-2.380,137.812,29.405,-84.001
3010,-0.4897,0.6372,-0.7310,-0.061,-8.362,1.892,137.780,29.427,-84.078
3020,-0.4854,0.6304,-0.7153,9.216,-2.991,5.737,137.845,29.388,-84.155
3030,-0.4824,0.6294,-0.6987,13.245,-1.221,7.019,137.944,29.328,-84.221
3040,-0.4790,0.6294,-0.6567,10.803,-3.357,6.775,137.994,29.290,-84.304
3050,-0.4785,0.6255,-0.6138,3.845,-7.324,4.700,137.950,29.306,-84.402
3060,-0.4854,0.6411,-0.6084,-3.723,-10.132,1.404,137.823,29.366,-84.490
3070,-0.4917,0.6675,-0.6343,-7.446,-8.362,-1.160,137.681,29.421,-84.545
3080,-0.4902,0.6650,-0.6523,-5.981,-2.319,-2.441,137.593,29.438,-84.545
3090,-0.4805,0.6890,-0.6797,-3.113,4.089,-2.869,137.560,29.399,-84.485
3100,-0.4795,0.7148,-0.6948,0.977,9.338,-1.709,137.576,29.306,-84.402
3110,-0.4985,0.6685,-0.6587,5.432,10.925,-0.244,137.642,29.213,-84.315
3120,-0.5112,0.6152,-0.6113,6.775,7.080,-0.854,137.714,29.180,-84.254
3130,-0.5352,0.5337,-0.5449,5.615,-0.244,-3.235,137.758,29.262,-84.227
3140,-0.5430,0.4795,-0.5103,1.526,-8.484,-5.981,137.758,29.449,-84.243
3150,-0.5337,0.5127,-0.5483,-4.272,-11.658,-6.592,137.686,29.641,-84.276
3160,-0.5151,0.6021,-0.6318,-6.714,-6.653,-4.028,137.598,29.724,-84.293
3170,-0.4619,0.7622,-0.7490,-4.211,5.981,1.343,137.543,29.608,-84.260
3180,-0.4297,0.8237,-0.8101,6.531,23.193,7.751,137.637,29.295,-84.144
3190,-0.4258,0.7871,-0.7666,18.066,33.997,10.437,137.867,28.894,-83.969
3200,-0.4448,0.6523,-0.6831,27.222,30.273,6.409,138.203,28.592,-83.793
3210,-0.4756,0.5151,-0.6216,27.588,14.343,-1.526,138.554,28.515,-83.666
3220,-0.5078,0.4126,-0.5713,18.860,-5.432,-8.728,138.812,28.685,-83.633
3230,-0.5444,0.3579,-0.5522,7.385,-22.705,-12.024,138.939,29.042,-83.705
3240,-0.5566,0.3799,-0.5845,-2.441,-31.616,-10.010,138.922,29.438,-83.853
3250,-0.5493,0.4580,-0.6357,-5.859,-26.550,-1.892,138.829,29.707,-84.040
3260,-0.5356,0.5273,-0.6719,4.578,-12.024,8.240,138.823,29.767,-84.199
3270,-0.5024,0.5830,-0.7222,18.372,5.798,18.066,138.972,29.592,-84.315
3280,-0.4663,0.6333,-0.7593,30.151,22.095,25.574,139.257,29.218,-84.370
3290,-0.4541,0.6177,-0.7686,38.696,29.236,27.344,139.647,28.779,-84.386
3300,-0.4316,0.6016,-0.7720,38.208,25.513,23.987,140.043,28.383,-84.408
3310,-0.4287,0.5840,-0.7559,29.968,15.198,17.578,140.339,28.114,-84.452
3320,-0.4497,0.5732,-0.7422,16.418,2.869,10.193,140.493,27.999,-84.518
3330,-0.4536,0.6060,-0.7690,1.099,-7.568,3.235,140.477,28.010,-84.600
3340,-0.4604,0.6401,-0.7725,-9.888,-13.977,-1.526,140.339,28.092,-84.688
3350,-0.4624,0.6641,-0.7456,-14.832,-16.235,-4.395,140.136,28.207,-84.765
3360,-0.4478,0.6826,-0.7373,-13.245,-13.977,-5.005,139.944,28.306,-84.825
3370,-0.4487,0.6572,-0.7148,-6.958,-10.315,-4.822,139.834,28.378,-84.858
3380,-0.4785,0.5918,-0.6587,-0.977,-8.911,-4.944,139.796,28.477,-84.880
3390,-0.5166,0.5088,-0.5869,2.136,-10.132,-5.859,139.801,28.641,-84.902
3400,-0.5654,0.4189,-0.5186,0.122,-13.611,-7.141,139.796,28.911,-84.941
3410,-0.5850,0.3745,-0.4971,-6.958,-16.846,-8.362,139.735,29.235,-84.996
3420,-0.5635,0.4199,-0.5581,-16.479,-14.771,-8.545,139.587,29.498,-85.029
3430,-0.5186,0.5171,-0.6626,-23.315,-5.066,-7.935,139.400,29.608,-84.996
3440,-0.4727,0.6504,-0.7666,-27.222,10.437,-7.080,139.197,29.531,-84.858
3450,-0.4238,0.7695,-0.8315,-28.381,26.428,-8.362,139.032,29.295,-84.584
3460,-0.3965,0.7983,-0.8364,-27.832,33.875,-13.916,138.911,29.031,-84.210
3470,-0.4028,0.7593,-0.7744,-29.663,27.832,-22.827,138.779,28.883,-83.804
3480,-0.4512,0.6890,-0.6885,-36.011,13.611,-32.837,138.565,28.954,-83.419
3490,-0.5059,0.6182,-0.5996,-45.044,-2.319,-40.222,138.235,29.251,-83.095
3500,-0.5439,0.5713,-0.5244,-51.025,-17.395,-42.908,137.785,29.724,-82.859
3510,-0.5684,0.5693,-0.4941,-48.279,-27.893,-38.513,137.296,30.256,-82.744
3520,-0.5781,0.6025,-0.5161,-35.278,-29.114,-26.672,136.879,30.701,-82.749
3530,-0.5718,0.5898,-0.5381,-13.733,-20.020,-11.108,136.664,30.970,-82.809
3540,-0.5654,0.5244,-0.5322,9.644,-5.676,3.052,136.708,31.053,-82.881
3550,-0.5571,0.4971,-0.5415,25.757,8.545,11.780,136.956,30.976,-82.914
3560,-0.5547,0.4810,-0.5703,32.166,18.494,14.648,137.313,30.800,-82.892
3570,-0.5342,0.5063,-0.6387,28.198,21.912,13.855,137.664,30.569,-82.837
3580,-0.4927,0.6265,-0.7427,17.029,23.743,12.085,137.895,30.278,-82.755
3590,-0.4536,0.7524,-0.8413,7.812,25.513,9.705,138.032,29.943,-82.639
3600,-0.4160,0.8623,-0.9087,5.371,25.208,6.775,138.137,29.597,-82.507
3610,-0.3755,0.8828,-0.9048,8.789,22.156,2.747,138.274,29.284,-82.359
3620,-0.3555,0.7993,-0.8325,13.550,11.475,-3.174,138.439,29.097,-82.244
3630,-0.3999,0.6665,-0.7314,14.221,-5.859,-10.559,138.598,29.141,-82.200
3641,-0.4692,0.5186,-0.6250,7.202,-23.499,-17.761,138.675,29.443,-82.222
3650,-0.5371,0.3906,-0.5513,-4.822,-37.598,-23.254,138.642,29.965,-82.310
3660,-0.5854,0.3159,-0.4951,-20.142,-44.128,-24.658,138.472,30.602,-82.430
3670,-0.6143,0.3228,-0.4561,-29.663,-41.443,-21.423,138.175,31.223,-82.562
3680,-0.6191,0.3540,-0.4717,-25.879,-28.076,-12.817,137.911,31.663,-82.672
3690,-0.5996,0.4316,-0.5337,-13.428,-7.263,0.305,137.780,31.811,-82.733
3700,-0.5708,0.4990,-0.6147,6.409,15.198,14.099,137.873,31.646,-82.733
3710,-0.5308,0.5791,-0.6841,25.146,32.227,25.085,138.159,31.234,-82.700
3720,-0.4780,0.6543,-0.7598,39.307,40.771,31.006,138.582,30.668,-82.650
3730,-0.4355,0.6919,-0.8228,45.410,41.138,31.982,139.065,30.070,-82.612
3740,-0.4092,0.6963,-0.8521,41.199,34.729,28.137,139.499,29.531,-82.595
3750,-0.3955,0.7080,-0.8706,28.381,24.719,20.996,139.796,29.108,-82.595
3760,-0.4136,0.6816,-0.8467,11.963,11.780,10.925,139.922,28.867,-82.601
3770,-0.4458,0.6338,-0.7812,-5.066,-4.150,0.366,139.867,28.845,-82.639
3780,-0.4712,0.6113,-0.7012,-18.433,-18.250,-6.653,139.636,29.004,-82.711
3790,-0.4863,0.6143,-0.6509,-23.804,-27.161,-8.667,139.312,29.262,-82.837
3800,-0.5020,0.6147,-0.6133,-20.569,-30.090,-6.836,138.983,29.537,-83.002
3810,-0.5229,0.5977,-0.5698,-10.437,-28.381,-2.075,138.730,29.795,-83.199
3820,-0.5405,0.5513,-0.5234,3.357,-23.743,3.113,138.609,30.004,-83.408
3830,-0.5601,0.4897,-0.5000,15.442,-17.822,7.324,138.636,30.179,-83.606
3840,-0.5752,0.4697,-0.5068,22.217,-10.620,10.681,138.752,30.284,-83.782
3850,-0.5781,0.4585,-0.5532,25.085,-0.732,13.367,138.955,30.284,-83.903
3860,-0.5615,0.4702,-0.6089,22.278,10.193,15.625,139.180,30.168,-83.963
3870,-0.5059,0.5620,-0.7119,14.465,20.935,16.541,139.356,29.894,-83.947
3880,-0.4458,0.7065,-0.8135,6.165,30.212,16.357,139.455,29.487,-83.864
3890,-0.4155,0.7695,-0.8384,1.953,34.607,14.465,139.521,29.037,-83.732
3900,-0.4019,0.7803,-0.8218,0.427,31.250,9.827,139.565,28.647,-83.584
3910,-0.4126,0.7485,-0.7715,0.549,20.935,3.601,139.592,28.389,-83.463
3920,-0.4497,0.6455,-0.6934,-0.427,4.517,-4.211,139.592,28.350,-83.392
3930,-0.4922,0.5444,-0.6206,-4.822,-14.954,-13.000,139.537,28.570,-83.392
3940,-0.5312,0.4683,-0.5977,-11.780,-30.579,-21.973,139.427,29.009,-83.425
3950,-0.5596,0.4116,-0.5796,-20.447,-37.903,-29.785,139.268,29.575,-83.447
3960,-0.5718,0.4004,-0.5513,-29.968,-37.415,-35.217,139.032,30.190,-83.425
3970,-0.5835,0.4092,-0.4917,-35.645,-32.166,-37.842,138.735,30.795,-83.337
3980,-0.5903,0.4341,-0.4248,-34.058,-25.757,-36.255,138.411,31.360,-83.216
3990,-0.6079,0.4507,-0.3584,-22.827,-20.020,-27.832,138.131,31.844,-83.128
4000,-0.6094,0.4731,-0.3721,-2.258,-14.343,-15.137,138.021,32.184,-83.106
4010,-0.5625,0.5376,-0.5181,21.423,-4.761,-1.038,138.175,32.272,-83.139
4020,-0.4961,0.6929,-0.7563,41.443,11.902,12.512,138.571,32.036,-83.156
4030,-0.4448,0.8335,-0.9570,53.528,31.494,22.339,139.131,31.531,-83.106
4040,-0.3745,0.9570,-1.1104,60.364,44.250,25.635,139.790,30.861,-82.991
4050,-0.3057,0.9824,-1.1597,60.181,48.218,22.461,140.471,30.350,-82.831
4060,-0.2896,0.8833,-1.0972,49.744,39.551,12.024,141.064,29.965,-82.645
4070,-0.3286,0.7134,-0.9570,28.015,16.968,-3.662,141.422,29.855,-82.491
4080,-0.4004,0.5811,-0.7954,-3.906,-13.367,-20.020,141.427,30.086,-82.408
4090,-0.4746,0.4829,-0.6650,-36.255,-40.955,-32.288,141.059,30.608,-82.408
4100,-0.5312,0.4072,-0.5698,-59.387,-60.608,-38.879,140.422,31.322,-82.502
4110,-0.5830,0.3872,-0.4995,-70.374,-68.481,-37.720,139.631,32.091,-82.672
4120,-0.6357,0.4004,-0.4556,-62.378,-62.378,-31.006,138.900,32.767,-82.870
4130,-0.6665,0.3999,-0.4321,-41.382,-45.471,-20.691,138.395,33.245,-83.040
4140,-0.6670,0.3970,-0.4258,-15.564,-24.536,-8.179,138.170,33.486,-83.161
4150,-0.6538,0.4028,-0.4370,9.094,-4.700,4.395,138.219,33.492,-83.238
4160,-0.6187,0.4771,-0.5103,26.794,12.573,14.465,138.472,33.300,-83.265
4170,-0.5806,0.5493,-0.5977,36.560,25.635,20.813,138.845,32.970,-83.249
4180,-0.5396,0.5781,-0.6646,38.574,32.166,22.644,139.257,32.580,-83.199
4190,-0.5015,0.6187,-0.7422,33.081,32.532,20.264,139.625,32.201,-83.128
4200,-0.4604,0.7007,-0.8467,21.240,30.029,14.282,139.894,31.877,-83.029
4210,-0.4438,0.7446,-0.8955,9.460,24.414,6.714,140.054,31.652,-82.903
4220,-0.4355,0.7451,-0.8813,-2.197,14.160,-0.916,140.092,31.547,-82.787
4230,-0.4351,0.6802,-0.7812,-12.878,-0.732,-8.118,139.999,31.602,-82.722
4240,-0.4692,0.6001,-0.6646,-22.278,-19.714,-14.648,139.768,31.849,-82.738
4250,-0.5127,0.5542,-0.5908,-28.992,-35.645,-18.372,139.422,32.239,-82.842
4260,-0.5493,0.5234,-0.5503,-30.884,-42.847,-18.738,139.026,32.690,-83.007
4270,-0.5845,0.4673,-0.5205,-27.222,-41.260,-16.479,138.658,33.107,-83.177
4280,-0.6211,0.4126,-0.5000,-19.653,-31.677,-12.268,138.389,33.426,-83.320
4290,-0.6372,0.3848,-0.4912,-10.925,-16.785,-6.714,138.235,33.596,-83.392
4300,-0.6309,0.3789,-0.4966,-1.892,-1.099,-0.183,138.214,33.607,-83.403
4310,-0.6060,0.4194,-0.5225,6.409,11.841,7.019,138.296,33.470,-83.370
4320,-0.5811,0.4687,-0.5547,14.526,21.057,14.954,138.461,33.212,-83.337
4330,-0.5444,0.5176,-0.6011,22.217,25.818,21.912,138.686,32.877,-83.326
4340,-0.4951,0.6357,-0.7236,28.381,27.100,26.123,138.961,32.498,-83.348
4350,-0.4678,0.7271,-0.8408,34.302,28.809,28.259,139.290,32.097,-83.375
4360,-0.4482,0.7666,-0.9238,37.964,28.992,27.710,139.653,31.696,-83.397
4370,-0.4160,0.8120,-0.9932,36.011,26.367,22.644,140.015,31.349,-83.403
4380,-0.3931,0.8208,-1.0127,28.137,19.653,13.672,140.306,31.108,-83.375
4390,-0.3838,0.7808,-0.9468,13.184,8.606,2.747,140.460,31.025,-83.337
4400,-0.4185,0.6650,-0.8037,-6.653,-8.240,-9.338,140.405,31.152,-83.315
4410,-0.4727,0.5635,-0.6553,-28.320,-29.297,-20.996,140.109,31.509,-83.342
4420,-0.5215,0.5117,-0.5493,-47.974,-46.082,-28.320,139.581,32.042,-83.436
4430,-0.5547,0.4717,-0.4595,-58.411,-54.871,-31.555,138.922,32.668,-83.573
4440,-0.5977,0.4414,-0.3984,-57.983,-54.932,-29.907,138.257,33.278,-83.732
4450,-0.6421,0.4243,-0.3740,-47.485,-44.983,-23.315,137.697,33.766,-83.881
4460,-0.6763,0.3911,-0.3726,-28.442,-27.771,-13.855,137.357,34.069,-83.985
4470,-0.6851,0.3647,-0.3760,-6.775,-7.507,-3.174,137.274,34.146,-84.018
4480,-0.6753,0.3550,-0.3979,13.306,11.658,7.874,137.417,34.003,-83.990
4490,-0.6504,0.3545,-0.4312,29.358,27.649,18.616,137.747,33.673,-83.930
4500,-0.6133,0.3940,-0.5000,38.330,38.513,27.832,138.164,33.201,-83.870
4510,-0.5659,0.4990,-0.6138,41.565,43.640,34.058,138.604,32.651,-83.826
4520,-0.5156,0.6060,-0.7251,42.236,45.288,37.476,139.037,32.064,-83.804
4530,-0.4512,0.7402,-0.8599,41.199,45.349,38.574,139.455,31.465,-83.793
4540,-0.3975,0.8662,-0.9902,39.734,46.082,36.438,139.867,30.883,-83.765
4550,-0.3574,0.8838,-1.0337,38.330,41.992,28.015,140.273,30.223,-83.699
4560,-0.3359,0.8208,-0.9951,30.884,29.724,15.381,140.625,29.740,-83.617
4570,-0.3462,0.7559,-0.9175,14.954,10.620,0.793,140.806,29.520,-83.551
4580,-0.3906,0.6978,-0.8340,-5.920,-10.315,-12.756,140.757,29.581,-83.507
4590,-0.4419,0.6348,-0.7500,-26.062,-29.114,-23.376,140.488,29.899,-83.513
4600,-0.4829,0.5679,-0.6514,-41.260,-42.908,-29.785,140.043,30.405,-83.562
4610,-0.5269,0.5068,-0.5640,-49.011,-48.523,-31.555,139.493,31.020,-83.644
4620,-0.5801,0.4561,-0.5068,-45.837,-44.495,-29.541,138.988,31.641,-83.721
4630,-0.6240,0.4346,-0.4780,-36.072,-33.081,-23.499,138.593,32.162,-83.765
4641,-0.6494,0.4136,-0.4609,-20.508,-18.188,-14.404,138.378,32.531,-83.782
4650,-0.6499,0.3599,-0.4370,-3.662,-4.150,-3.845,138.362,32.756,-83.776
4660,-0.6392,0.3193,-0.4180,10.742,6.836,6.165,138.516,32.838,-83.782
4670,-0.6240,0.3271,-0.4331,21.118,15.503,15.503,138.757,32.783,-83.798
4680,-0.5889,0.3906,-0.5181,27.588,22.278,22.827,139.059,32.563,-83.826
4690,-0.5469,0.4990,-0.6440,29.663,28.564,28.564,139.367,32.179,-83.859
4700,-0.4971,0.6489,-0.7949,29.236,35.767,32.471,139.658,31.635,-83.875
4710,-0.4438,0.7939,-0.9302,28.748,42.358,32.104,139.960,30.998,-83.842
4720,-0.3877,0.8501,-1.0039,26.978,44.678,27.466,140.273,30.339,-83.749
4730,-0.3496,0.8257,-0.9805,20.142,39.063,17.761,140.532,29.773,-83.617
4740,-0.3555,0.7461,-0.8916,6.592,23.010,4.211,140.658,29.443,-83.491
4750,-0.3931,0.6855,-0.7866,-12.817,-0.427,-9.399,140.554,29.421,-83.408
4760,-0.4517,0.5952,-0.6606,-32.043,-24.048,-18.799,140.208,29.696,-83.419
4770,-0.4980,0.5283,-0.5552,-44.556,-43.030,-22.705,139.669,30.201,-83.535
4780,-0.5498,0.5435,-0.5049,-46.143,-48.462,-19.226,139.048,30.756,-83.727
4790,-0.5908,0.5962,-0.5337,-30.151,-40.344,-11.536,138.576,31.185,-83.930
4800,-0.5854,0.5815,-0.5933,-2.441,-22.827,-2.563,138.439,31.415,-84.089
4810,-0.5596,0.5503,-0.6289,21.851,-0.244,5.615,138.636,31.404,-84.139
4820,-0.5239,0.4844,-0.6338,35.950,16.663,8.667,139.054,31.240,-84.084
4830,-0.5034,0.4097,-0.6348,35.828,22.339,5.798,139.554,31.058,-83.963
4840,-0.5029,0.4351,-0.6533,19.348,19.714,2.075,139.878,30.916,-83.837
4850,-0.5107,0.5083,-0.6743,-3.113,16.296,-0.061,139.944,30.795,-83.710
4860,-0.5229,0.5894,-0.6836,-20.081,12.756,-0.977,139.790,30.696,-83.606
4870,-0.5288,0.6167,-0.6997,-22.156,11.292,-1.160,139.609,30.608,-83.513
4880,-0.5190,0.6240,-0.7041,-15.869,12.512,0.732,139.482,30.493,-83.425
4890,-0.5132,0.6138,-0.6987,-2.686,13.916,3.540,139.482,30.350,-83.348
4900,-0.4980,0.5869,-0.6909,10.437,12.085,6.470,139.609,30.201,-83.315
4910,-0.4888,0.5322,-0.6616,18.433,6.531,9.583,139.790,30.086,-83.353
4920,-0.4927,0.4868,-0.6470,18.005,0.366,11.475,139.949,30.020,-83.452
4930,-0.4902,0.5015,-0.6699,10.132,-3.845,11.353,140.021,29.982,-83.578
4940,-0.4780,0.5591,-0.7017,0.244,-4.700,10.132,139.971,29.932,-83.705
4950,-0.4575,0.6318,-0.7388,-7.080,-3.418,8.179,139.850,29.861,-83.804
4960,-0.4468,0.6924,-0.7637,-8.484,-2.014,5.188,139.713,29.778,-83.864
4970,-0.4473,0.7227,-0.7720,-7.263,-1.709,1.526,139.603,29.713,-83.886
4980,-0.4517,0.7227,-0.7573,-5.981,-2.808,-2.441,139.510,29.685,-83.886
4990,-0.4697,0.6968,-0.7090,-6.958,-5.615,-6.104,139.406,29.724,-83.875
5000,-0.5049,0.6270,-0.6274,-10.132,-10.010,-9.399,139.268,29.861,-83.870
5010,-0.5508,0.4751,-0.5161,-14.893,-15.259,-13.306,139.103,30.141,-83.870
5020,-0.5962,0.3188,-0.4028,-23.926,-21.362,-17.517,138.884,30.608,-83.875
5030,-0.6392,0.2134,-0.3364,-34.851,-26.001,-19.226,138.615,31.201,-83.908
5040,-0.6523,0.2197,-0.3779,-42.297,-24.536,-15.747,138.279,31.734,-83.958
5050,-0.6177,0.3154,-0.5127,-45.288,-12.451,-6.775,137.911,32.014,-83.996
5060,-0.5308,0.5718,-0.6787,-43.884,7.568,4.944,137.505,31.915,-83.979
5070,-0.4775,0.7725,-0.7900,-28.381,28.809,17.822,137.247,31.498,-83.908
5080,-0.4414,0.8198,-0.8447,-3.784,40.527,25.818,137.247,30.921,-83.804
5090,-0.4121,0.7720,-0.8423,18.188,38.940,25.696,137.472,30.355,-83.716
5100,-0.4106,0.6797,-0.8140,29.968,24.353,19.226,137.812,29.954,-83.688
5110,-0.4248,0.6543,-0.8037,26.123,4.883,11.414,138.071,29.767,-83.749
5120,-0.4512,0.6494,-0.7896,13.062,-13.428,4.578,138.153,29.778,-83.892
5130,-0.4644,0.6821,-0.7681,-1.282,-25.879,1.160,138.038,29.905,-84.100
5141,-0.4556,0.7378,-0.7544,-10.132,-27.161,2.197,137.802,30.026,-84.331
5150,-0.4360,0.7324,-0.7041,-7.629,-21.057,4.517,137.587,30.081,-84.534
5160,-0.4429,0.7427,-0.6621,2.014,-14.526,5.493,137.472,30.092,-84.694
5170,-0.4561,0.7539,-0.6533,11.963,-9.338,4.944,137.466,30.070,-84.809
5180,-0.4897,0.6973,-0.6309,16.113,-7.141,1.648,137.538,30.086,-84.875
5190,-0.5215,0.6621,-0.6035,9.155,-7.202,-3.906,137.565,30.168,-84.902
5200,-0.5332,0.6519,-0.6060,-4.578,-7.996,-9.644,137.483,30.295,-84.880
5210,-0.5259,0.6611,-0.6035,-18.799,-8.179,-13.733,137.274,30.449,-84.825
5220,-0.5229,0.6851,-0.5864,-25.696,-6.409,-15.686,136.994,30.597,-84.743
5230,-0.5249,0.6792,-0.5571,-21.667,-2.930,-15.015,136.752,30.723,-84.639
5240,-0.5430,0.5732,-0.4927,-9.827,-0.854,-13.184,136.648,30.872,-84.534
5250,-0.5723,0.4448,-0.4492,1.953,-2.686,-12.146,136.697,31.086,-84.452
5260,-0.5937,0.3848,-0.4727,8.179,-4.272,-10.559,136.846,31.317,-84.397
5270,-0.6006,0.3989,-0.5381,7.935,-2.136,-6.226,137.010,31.481,-84.359
5280,-0.5503,0.5483,-0.7026,4.700,7.385,0.366,137.137,31.426,-84.304
5290,-0.4727,0.7773,-0.9243,2.625,23.804,7.690,137.252,31.102,-84.183
5300,-0.3804,1.0200,-1.0879,4.272,43.274,13.306,137.417,30.696,-83.952
5310,-0.3257,0.9653,-1.0020,11.292,53.833,12.024,137.692,30.218,-83.633
5320,-0.3843,0.6255,-0.7046,15.442,38.147,-0.549,137.999,29.938,-83.331
5330,-0.4604,0.4014,-0.5039,5.432,2.136,-18.372,138.137,30.048,-83.156
5340,-0.5425,0.3022,-0.4258,-12.939,-34.729,-29.236,137.999,30.498,-83.172
5350,-0.6240,0.2407,-0.3984,-24.414,-60.669,-29.297,137.648,31.146,-83.392
5360,-0.6763,0.2383,-0.4141,-26.306,-63.660,-18.494,137.208,31.740,-83.732
5370,-0.6538,0.3428,-0.5000,-18.250,-41.260,-0.183,136.851,32.047,-84.062
5380,-0.5576,0.5249,-0.6304,3.723,-6.348,19.348,136.774,31.959,-84.276
5390,-0.4746,0.6860,-0.7432,32.715,27.405,34.729,137.060,31.520,-84.353
5400,-0.4375,0.7534,-0.7866,51.941,46.387,41.687,137.587,30.899,-84.342
5410,-0.4165,0.7593,-0.7998,58.594,47.485,36.987,138.203,30.300,-84.287
5420,-0.4185,0.7031,-0.7827,48.279,32.898,24.353,138.702,29.888,-84.243
5430,-0.4380,0.6626,-0.7461,23.682,9.888,9.521,138.939,29.751,-84.249
5440,-0.4629,0.6548,-0.7349,-5.676,-11.780,-3.052,138.851,29.861,-84.315
5450,-0.4863,0.6514,-0.7192,-26.001,-26.489,-10.803,138.538,30.130,-84.419
5460,-0.4951,0.7026,-0.7173,-33.691,-30.457,-12.390,138.137,30.443,-84.545
5470,-0.4839,0.7559,-0.7056,-25.574,-24.536,-9.155,137.823,30.685,-84.655
5480,-0.4888,0.7261,-0.6514,-7.874,-16.541,-4.883,137.703,30.844,-84.743
5490,-0.5127,0.6426,-0.5815,8.850,-11.719,-3.052,137.758,30.948,-84.809
5500,-0.5303,0.5181,-0.5054,16.357,-10.620,-4.761,137.900,31.058,-84.853
5510,-0.5640,0.3662,-0.4268,12.939,-12.939,-8.179,138.010,31.212,-84.880
5520,-0.6147,0.2705,-0.3872,0.061,-15.564,-10.620,137.999,31.399,-84.913
5530,-0.6426,0.2656,-0.4126,-16.418,-12.512,-9.399,137.823,31.553,-84.930
5540,-0.6245,0.4902,-0.5493,-28.259,-0.610,-2.258,137.549,31.575,-84.913
5550,-0.5620,0.7090,-0.7378,-22.278,20.874,10.620,137.368,31.349,-84.842
5560,-0.4653,0.9175,-0.9355,-3.540,41.626,21.790,137.406,30.894,-84.699
5570,-0.3452,1.0493,-1.0557,16.785,54.626,24.719,137.686,30.322,-84.479
5580,-0.3076,0.9033,-0.9326,31.555,50.110,17.456,138.120,29.839,-84.238
5590,-0.3643,0.6108,-0.6895,28.198,22.217,-0.244,138.488,29.674,-84.062
5600,-0.4961,0.2939,-0.4111,2.747,-17.761,-20.264,138.538,29.938,-84.023
5610,-0.6289,0.0171,-0.1929,-28.809,-56.885,-36.194,138.186,30.608,-84.144
5620,-0.7432,0.3267,-0.3447,-61.401,-59.448,-21.301,137.433,31.190,-84.424
5630,-0.6807,0.6270,-0.6323,-34.973,-10.620,10.010,136.994,31.201,-84.595
5641,-0.5391,0.9229,-0.9600,13.367,44.922,37.781,137.148,30.613,-84.556
5650,-0.3525,1.2578,-1.2446,50.781,88.135,51.270,137.785,29.619,-84.298
5660,-0.1929,1.2397,-1.2480,81.482,100.647,47.546,138.785,28.553,-83.925
5670,-0.1382,0.9106,-1.0249,85.144,75.989,27.039,139.801,27.806,-83.589
5680,-0.2461,0.5547,-0.7505,47.241,18.982,-3.235,140.350,27.680,-83.419
5690,-0.3955,0.4233,-0.5410,-14.709,-45.471,-30.945,140.175,28.229,-83.480
5700,-0.5396,0.3921,-0.4404,-61.279,-87.280,-46.082,139.455,29.196,-83.710
5710,-0.6562,0.3604,-0.4072,-80.566,-94.238,-45.288,138.499,30.207,-84.018
5720,-0.7158,0.3198,-0.3916,-73.853,-70.801,-31.799,137.626,30.948,-84.287
5730,-0.7046,0.3354,-0.3916,-39.978,-31.250,-12.512,137.153,31.262,-84.424
5740,-0.6255,0.3506,-0.4487,6.409,11.108,8.728,137.225,31.119,-84.413
5750,-0.5537,0.4868,-0.5713,34.363,38.635,25.879,137.609,30.663,-84.326
5760,-0.4912,0.6514,-0.7017,45.532,48.889,33.875,138.115,30.070,-84.232
5770,-0.4561,0.7856,-0.8018,42.358,45.044,34.546,138.565,29.504,-84.183
5780,-0.4131,0.8198,-0.8667,32.471,36.255,27.649,138.906,29.053,-84.144
5790,-0.3813,0.8179,-0.8960,15.320,26.917,14.526,139.098,28.751,-84.067
5800,-0.3838,0.8110,-0.8765,-5.432,14.954,-0.610,139.098,28.641,-83.952
5810,-0.4189,0.7466,-0.8037,-20.264,-1.648,-13.611,138.944,28.746,-83.848
5820,-0.4590,0.6670,-0.6997,-29.541,-16.602,-21.423,138.680,29.009,-83.787
5830,-0.4878,0.5815,-0.5815,-32.043,-25.940,-23.987,138.362,29.366,-83.776
5840,-0.5410,0.4741,-0.4785,-26.123,-30.029,-21.729,138.082,29.734,-83.820
5850,-0.5771,0.4316,-0.4600,-16.846,-27.405,-15.869,137.878,30.042,-83.897
5860,-0.5845,0.4199,-0.4937,-5.615,-16.418,-7.690,137.791,30.218,-83.958
5870,-0.5771,0.4077,-0.5322,4.639,-1.404,0.977,137.829,30.218,-83.974
5880,-0.5430,0.4893,-0.6372,10.742,13.977,8.423,137.950,30.059,-83.941
5890,-0.4878,0.6504,-0.7861,10.986,26.611,13.977,138.104,29.767,-83.853
5900,-0.4517,0.7129,-0.8389,10.803,33.081,16.418,138.268,29.410,-83.738
5910,-0.4399,0.6924,-0.8008,8.545,28.870,14.465,138.400,29.103,-83.644
5920,-0.4478,0.6274,-0.7314,3.357,14.404,8.240,138.455,28.938,-83.606
5930,-0.4673,0.5918,-0.6733,-3.723,-4.822,0.427,138.400,28.971,-83.644
5940,-0.4946,0.5479,-0.6216,-9.094,-21.179,-4.578,138.246,29.163,-83.765
5950,-0.5029,0.5625,-0.6323,-11.230,-29.541,-5.493,138.049,29.416,-83.941
5960,-0.5000,0.6094,-0.6699,-9.888,-25.452,-2.258,137.862,29.625,-84.122
5970,-0.4917,0.6348,-0.6836,-5.188,-13.855,2.686,137.747,29.707,-84.249
5980,-0.4824,0.6533,-0.6777,1.831,-2.869,6.287,137.730,29.685,-84.326
5990,-0.5010,0.6099,-0.6328,8.179,1.099,7.263,137.785,29.630,-84.380
6000,-0.5278,0.5376,-0.5649,9.277,-2.747,5.737,137.840,29.608,-84.446
6010,-0.5566,0.4946,-0.5229,5.127,-10.193,3.357,137.840,29.663,-84.556
6020,-0.5640,0.5063,-0.5220,-1.953,-14.282,3.357,137.752,29.745,-84.694
6030,-0.5459,0.5708,-0.5742,-6.226,-10.559,5.737,137.626,29.784,-84.825
6040,-0.5122,0.6494,-0.6377,-4.456,0.061,9.644,137.538,29.724,-84.908
6050,-0.4854,0.6860,-0.6802,2.686,11.353,13.306,137.554,29.548,-84.930
6060,-0.4614,0.7046,-0.7163,10.437,17.761,14.160,137.670,29.323,-84.913
6070,-0.4478,0.6963,-0.7319,13.672,16.357,11.780,137.818,29.119,-84.886
6080,-0.4609,0.6821,-0.7227,10.376,8.301,7.385,137.922,29.009,-84.886
6090,-0.4824,0.6567,-0.6929,2.380,-0.244,2.319,137.933,28.993,-84.908
6100,-0.4990,0.6230,-0.6440,-6.958,-7.141,-2.136,137.845,29.064,-84.946
6110,-0.4971,0.6143,-0.6162,-12.939,-10.437,-4.700,137.697,29.174,-84.985
6120,-0.5083,0.6089,-0.6016,-13.855,-9.583,-5.188,137.543,29.279,-85.018
6130,-0.5225,0.5864,-0.5937,-10.132,-5.615,-4.517,137.439,29.350,-85.018
6141,-0.5181,0.5728,-0.6001,-5.127,0.000,-3.235,137.406,29.372,-84.996
6150,-0.5112,0.5977,-0.6265,-1.648,4.639,-1.221,137.411,29.344,-84.946
6160,-0.5156,0.6157,-0.6440,0.427,7.690,1.221,137.428,29.290,-84.897
6170,-0.5151,0.6201,-0.6479,0.671,9.216,2.625,137.444,29.207,-84.847
6180,-0.4932,0.6255,-0.6362,-0.610,7.996,2.380,137.439,29.130,-84.803
6190,-0.4839,0.6650,-0.6338,-1.404,3.906,1.404,137.395,29.081,-84.787
6200,-0.4868,0.6631,-0.6445,1.221,0.916,1.038,137.379,29.053,-84.787
6210,-0.4849,0.6431,-0.6655,4.456,0.061,0.122,137.406,29.037,-84.792
6220,-0.4824,0.6270,-0.6992,5.432,0.732,-1.343,137.477,29.026,-84.771
6230,-0.4858,0.5952,-0.6973,3.662,0.977,-2.747,137.549,29.026,-84.743
6240,-0.4927,0.5352,-0.6499,-1.343,-1.587,-4.517,137.576,29.081,-84.716
6250,-0.5044,0.5303,-0.6099,-8.057,-6.775,-6.226,137.510,29.202,-84.716
6260,-0.5161,0.5596,-0.6079,-11.414,-8.362,-5.859,137.390,29.328,-84.732
6270,-0.5132,0.6094,-0.6338,-10.132,-4.456,-3.845,137.274,29.394,-84.732
6280,-0.4668,0.7007,-0.7554,-5.249,3.784,-0.977,137.241,29.323,-84.694
6290,-0.4126,0.8174,-0.9165,0.000,15.320,1.343,137.302,29.097,-84.589
6300,-0.3828,0.8359,-0.9287,2.197,25.757,1.892,137.417,28.773,-84.402
6310,-0.4180,0.6743,-0.7632,0.732,22.949,-3.235,137.538,28.564,-84.199
6320,-0.5029,0.4590,-0.5156,-9.277,1.465,-13.062,137.510,28.718,-84.078
6330,-0.6030,0.2700,-0.2920,-25.452,-29.541,-21.912,137.236,29.361,-84.122
6340,-0.6597,0.2524,-0.2075,-40.405,-55.054,-24.902,136.648,30.267,-84.342
6350,-0.6714,0.4087,-0.3340,-41.382,-54.871,-17.334,136.022,30.998,-84.633
6360,-0.6201,0.6323,-0.5596,-23.804,-19.470,0.610,135.654,31.185,-84.792
6370,-0.5283,0.7476,-0.6948,4.944,28.320,19.287,135.714,30.811,-84.721
6380,-0.4263,0.8101,-0.7764,32.104,58.594,28.809,136.132,30.097,-84.485
6390,-0.3555,0.7939,-0.8022,49.194,59.998,27.405,136.736,29.355,-84.238
6400,-0.3774,0.7217,-0.7773,47.791,36.560,18.372,137.280,28.872,-84.100
6410,-0.4409,0.6953,-0.7422,27.588,4.822,6.714,137.538,28.735,-84.122
6420,-0.4819,0.6396,-0.6787,3.601,-20.142,-3.113,137.505,28.889,-84.249
6430,-0.5190,0.5737,-0.5981,-12.268,-33.447,-9.216,137.285,29.229,-84.430
6440,-0.5376,0.5630,-0.5747,-17.517,-32.593,-9.949,137.010,29.575,-84.600
6450,-0.5278,0.5659,-0.5981,-10.620,-20.142,-6.104,136.851,29.795,-84.705
6460,-0.4858,0.6245,-0.6670,2.075,-2.075,-0.366,136.862,29.795,-84.721
6470,-0.4575,0.6753,-0.7187,14.221,13.428,4.700,137.038,29.614,-84.655
6480,-0.4575,0.6968,-0.7363,18.921,20.142,6.836,137.269,29.372,-84.551
6490,-0.4580,0.6646,-0.7148,16.724,17.700,4.700,137.477,29.169,-84.452
6500,-0.4810,0.5898,-0.6606,8.301,6.775,-0.305,137.593,29.114,-84.397
6510,-0.5142,0.5259,-0.6094,-2.930,-5.493,-5.798,137.587,29.229,-84.391
6520,-0.5361,0.4863,-0.5742,-11.658,-12.085,-8.545,137.483,29.438,-84.413
6530,-0.5342,0.5029,-0.5840,-14.648,-11.047,-7.751,137.346,29.619,-84.435
6540,-0.5059,0.6016,-0.6553,-10.559,-3.174,-2.808,137.241,29.663,-84.435
6550,-0.4771,0.6831,-0.7227,1.038,7.568,4.028,137.258,29.542,-84.408
6560,-0.4575,0.7217,-0.7480,13.428,15.564,8.789,137.401,29.312,-84.364
6570,-0.4531,0.6890,-0.7290,21.240,15.564,9.338,137.626,29.086,-84.320
6580,-0.4775,0.6123,-0.6650,21.179,6.531,5.798,137.829,28.987,-84.320
6590,-0.5225,0.5142,-0.5776,13.062,-5.737,0.671,137.939,29.075,-84.370
6600,-0.5508,0.4380,-0.5171,1.770,-15.991,-3.479,137.933,29.317,-84.463
6610,-0.5464,0.4824,-0.5684,-8.484,-18.860,-4.456,137.812,29.553,-84.567
6620,-0.4775,0.7163,-0.8008,-12.634,-7.507,-0.366,137.664,29.553,-84.622
6630,-0.3760,0.9736,-1.0581,-7.202,18.188,7.141,137.631,29.224,-84.545
6641,-0.2866,1.1064,-1.1104,1.282,43.335,11.047,137.763,28.828,-84.304
6650,-0.2871,0.9604,-0.9204,7.263,46.875,5.249,137.988,28.449,-83.985
6660,-0.3950,0.6782,-0.6079,3.113,20.752,-10.559,138.137,28.367,-83.738
6670,-0.5464,0.3887,-0.3027,-13.550,-22.217,-28.748,138.032,28.724,-83.666
6680,-0.7144,0.1523,-0.0737,-33.508,-59.753,-39.429,137.642,29.427,-83.787
6690,-0.8262,-0.0405,0.0410,-43.762,-75.562,-39.917,-44.654,30.256,-84.034
6700,-0.8423,-0.0537,-0.0376,-41.809,-59.326,-27.466,-44.945,29.641,-83.776
6710,-0.7197,0.2520,-0.3672,-24.353,-9.583,-1.587,145.541,29.564,-83.710
6720,-0.5474,0.5884,-0.6899,4.089,57.190,29.663,145.624,28.922,-83.622
6730,-0.4336,0.8311,-0.8794,31.189,104.004,49.011,146.041,27.790,-83.414
6740,-0.3013,0.9990,-1.0132,47.791,113.037,50.842,146.629,26.565,-83.172
6750,-0.2222,1.0845,-1.0879,51.514,89.172,39.307,147.222,25.604,-82.991
6760,-0.2192,1.0303,-1.0938,40.100,45.593,19.226,147.667,25.120,-82.897
6770,-0.2754,0.9131,-1.0127,13.306,-3.174,-3.723,147.805,25.164,-82.881
6780,-0.3442,0.7593,-0.8643,-16.663,-41.992,-23.193,147.623,25.642,-82.914
6790,-0.4258,0.6138,-0.6890,-38.025,-65.735,-34.668,147.217,26.384,-82.980
6800,-0.5078,0.4634,-0.5161,-45.532,-73.486,-36.621,146.717,27.202,-83.079
6810,-0.5776,0.3530,-0.3994,-38.696,-66.223,-30.090,146.272,27.922,-83.205
6820,-0.6240,0.3257,-0.3696,-20.508,-46.265,-17.822,146.008,28.405,-83.326
6830,-0.6138,0.3813,-0.4263,0.977,-18.127,-2.686,145.975,28.570,-83.419
6840,-0.5791,0.4883,-0.5298,21.057,9.644,11.353,146.168,28.427,-83.463
6850,-0.5332,0.6016,-0.6328,31.677,31.189,21.179,146.481,28.048,-83.463
6860,-0.4917,0.6582,-0.7007,35.339,42.786,23.315,146.860,27.565,-83.419
6870,-0.4580,0.6445,-0.7329,28.503,40.588,18.188,147.178,27.125,-83.342
6880,-0.4419,0.6470,-0.7500,15.564,26.489,8.728,147.371,26.856,-83.260
6890,-0.4492,0.6533,-0.7583,-0.671,8.362,0.000,147.387,26.785,-83.210
6900,-0.4531,0.6577,-0.7529,-11.353,-5.066,-5.432,147.283,26.856,-83.188
6910,-0.4561,0.6675,-0.7397,-14.404,-9.949,-7.141,147.140,26.977,-83.183
6920,-0.4687,0.6460,-0.7124,-10.437,-8.545,-6.165,147.041,27.081,-83.177
6930,-0.4785,0.6045,-0.6772,-2.869,-5.920,-4.395,147.014,27.158,-83.172
6940,-0.4648,0.5503,-0.6475,3.845,-4.761,-2.747,147.052,27.213,-83.172
6950,-0.4702,0.4985,-0.6177,5.798,-7.751,-1.709,147.096,27.285,-83.205
6960,-0.4985,0.4790,-0.6001,4.456,-11.536,-0.183,147.107,27.383,-83.276
6970,-0.5142,0.4839,-0.6216,3.845,-12.146,2.075,147.101,27.471,-83.370
6980,-0.4951,0.5581,-0.6953,1.770,-6.775,5.737,147.074,27.499,-83.463
6990,-0.4790,0.6235,-0.7534,2.380,3.052,9.277,147.068,27.422,-83.535
7000,-0.4595,0.6470,-0.7632,3.784,10.864,10.864,147.090,27.274,-83.568
7010,-0.4478,0.6616,-0.7534,4.578,10.437,10.010,147.118,27.131,-83.600
7020,-0.4536,0.6802,-0.7246,4.883,2.930,8.240,147.140,27.065,-83.661
7030,-0.4648,0.6787,-0.6870,5.676,-6.409,6.836,147.151,27.081,-83.765
7040,-0.4810,0.6309,-0.6255,7.080,-13.733,5.920,147.156,27.164,-83.903
7050,-0.5068,0.5537,-0.5708,7.507,-17.883,4.944,147.162,27.285,-84.056
7060,-0.5210,0.5400,-0.5713,4.211,-17.578,4.028,147.140,27.411,-84.205
7070,-0.5137,0.5723,-0.6050,-0.122,-11.292,4.150,147.085,27.482,-84.315
7080,-0.5044,0.6353,-0.6484,-3.784,-1.587,4.517,147.025,27.471,-84.364
7090,-0.4868,0.6909,-0.6699,-4.456,6.592,4.822,146.981,27.389,-84.370
7100,-0.4849,0.7017,-0.6626,-1.343,10.254,4.333,146.975,27.279,-84.348
7110,-0.4839,0.6992,-0.6538,2.869,8.484,2.930,147.014,27.197,-84.326
7120,-0.4858,0.6685,-0.6509,6.531,4.883,1.587,147.085,27.147,-84.309
7130,-0.4946,0.5874,-0.6289,8.362,1.587,0.122,147.173,27.131,-84.298
7141,-0.5073,0.5146,-0.5947,6.104,-1.587,-1.526,147.239,27.153,-84.298
7150,-0.5205,0.4917,-0.5801,0.305,-3.418,-2.136,147.239,27.191,-84.298
7160,-0.5269,0.4941,-0.5713,-4.150,-1.648,-0.610,147.195,27.208,-84.298
7170,-0.5088,0.5288,-0.5947,-5.127,3.296,2.258,147.145,27.169,-84.304
7180,-0.4824,0.5937,-0.6450,-1.953,9.827,4.883,147.134,27.059,-84.287
7190,-0.4673,0.6475,-0.6904,2.747,15.320,6.897,147.173,26.895,-84.260
7200,-0.4380,0.6870,-0.7480,7.507,17.639,7.202,147.266,26.708,-84.221
7210,-0.4072,0.7319,-0.8071,8.606,17.334,5.676,147.376,26.532,-84.166
7220,-0.4062,0.7358,-0.8057,5.493,13.977,2.563,147.458,26.400,-84.111
7230,-0.4243,0.7051,-0.7803,-0.244,8.057,-2.136,147.486,26.345,-84.040
7240,-0.4551,0.6318,-0.7051,-7.751,0.183,-7.629,147.437,26.384,-83.969
7250,-0.4902,0.5654,-0.6079,-15.320,-8.057,-12.207,147.211,26.554,-83.903
7260,-0.5210,0.5312,-0.5415,-19.714,-14.221,-13.062,146.915,26.823,-83.864
7270,-0.5415,0.5215,-0.5078,-17.212,-14.648,-9.827,146.624,27.098,-83.864
7280,-0.5317,0.5503,-0.5396,-7.812,-8.850,-4.089,146.415,27.268,-83.881
7290,-0.4966,0.5786,-0.5952,4.883,2.197,2.441,146.354,27.274,-83.886
7300,-0.4687,0.5981,-0.6562,15.076,12.268,6.653,146.420,27.142,-83.875
7310,-0.4346,0.6836,-0.7642,17.700,19.104,7.996,146.536,26.900,-83.831
7320,-0.4272,0.7422,-0.8193,14.160,23.071,6.653,146.624,26.614,-83.749
7330,-0.4468,0.7095,-0.7891,7.690,22.278,1.831,146.667,26.384,-83.628
7340,-0.4722,0.6348,-0.7266,-1.770,14.404,-5.432,146.635,26.290,-83.491
7350,-0.4839,0.5840,-0.6567,-11.597,2.747,-11.963,146.492,26.356,-83.359
7360,-0.4824,0.5674,-0.6108,-16.174,-6.409,-13.855,146.277,26.521,-83.271
7370,-0.4609,0.6094,-0.6382,-12.512,-8.362,-10.620,146.074,26.658,-83.227
7380,-0.4434,0.6143,-0.6680,-1.221,-1.770,-4.333,145.986,26.691,-83.194
7390,-0.4321,0.6299,-0.7158,11.475,6.836,1.099,146.041,26.609,-83.161
7400,-0.4209,0.6553,-0.7617,18.982,11.902,4.150,146.179,26.450,-83.128
7410,-0.4473,0.6021,-0.7388,20.691,10.803,3.113,146.349,26.329,-83.090
7420,-0.4932,0.5078,-0.6685,14.099,4.395,-1.526,146.470,26.340,-83.046
7430,-0.5269,0.4434,-0.6001,1.770,-4.822,-6.531,146.470,26.505,-83.018
7440,-0.5298,0.4463,-0.5830,-10.010,-10.620,-8.240,146.338,26.730,-83.007
7450,-0.4854,0.5801,-0.6592,-14.893,-8.667,-4.578,146.107,26.851,-83.018
7460,-0.3896,0.7871,-0.8369,-7.935,3.601,2.808,145.937,26.724,-83.018
7470,-0.3022,0.9600,-0.9932,5.493,21.484,8.789,145.915,26.356,-82.969
7480,-0.2695,0.9741,-1.0088,16.724,32.166,8.362,146.036,25.889,-82.842
7490,-0.3232,0.7832,-0.8604,20.874,24.109,-0.610,146.223,25.593,-82.689
7500,-0.4526,0.5332,-0.6553,10.803,-3.479,-14.221,146.327,25.724,-82.579
7510,-0.5601,0.3198,-0.4800,-8.240,-34.729,-25.452,146.250,26.334,-82.557
7520,-0.6606,0.1484,-0.3374,-26.123,-55.359,-28.870,146.058,27.296,-82.634
7530,-0.7236,0.0254,-0.2529,-33.447,-57.739,-23.193,145.942,28.334,-82.776
7540,-0.7373,0.0210,-0.2490,-29.175,-40.283,-9.338,145.871,29.147,-82.947
7550,-0.6699,0.1958,-0.3765,-14.404,-8.972,10.498,145.717,29.443,-83.106
7560,-0.5317,0.4722,-0.6235,9.277,25.452,32.104,145.712,29.103,-83.243
7570,-0.4282,0.7324,-0.8501,31.921,51.819,47.058,145.909,28.339,-83.353
7580,-0.3369,0.8887,-0.9932,43.213,60.547,49.744,146.223,27.422,-83.436
7590,-0.2837,0.9912,-1.0786,39.856,49.316,40.833,146.497,26.625,-83.513
7600,-0.2593,1.0234,-1.0801,23.743,23.376,24.719,146.591,26.131,-83.595
7610,-0.2900,0.9805,-0.9736,1.648,-8.240,5.920,146.442,26.027,-83.705
7620,-0.3608,0.8413,-0.7925,-18.005,-35.889,-10.803,146.080,26.296,-83.826
7630,-0.4404,0.6885,-0.5947,-31.372,-54.810,-21.912,145.558,26.862,-83.963
7641,-0.5210,0.5991,-0.4619,-34.912,-60.669,-25.024,144.965,27.570,-84.117
7650,-0.5723,0.5181,-0.3799,-24.902,-52.063,-21.118,144.465,28.257,-84.254
7660,-0.5898,0.4395,-0.3472,-9.216,-33.813,-13.489,144.168,28.790,-84.353
7670,-0.5947,0.4121,-0.3740,4.089,-11.841,-5.005,144.075,29.092,-84.386
7680,-0.5854,0.4385,-0.4473,10.559,8.240,2.808,144.108,29.152,-84.359
7690,-0.5630,0.5005,-0.5327,10.559,23.865,8.850,144.174,28.993,-84.282
7700,-0.5396,0.5703,-0.6343,7.996,33.691,11.658,144.250,28.691,-84.161
7710,-0.4814,0.6562,-0.7354,4.883,39.063,10.864,144.311,28.284,-84.001
7720,-0.4351,0.6997,-0.7969,2.197,37.781,8.057,144.360,27.878,-83.826
7730,-0.4194,0.7163,-0.8228,0.916,30.029,4.578,144.388,27.537,-83.672
7740,-0.4121,0.7080,-0.8174,-0.244,19.165,0.793,144.388,27.312,-83.551
7750,-0.4009,0.6768,-0.7920,-1.099,8.362,-2.563,144.366,27.197,-83.474
7760,-0.4053,0.6475,-0.7705,-2.808,0.000,-4.395,144.311,27.169,-83.436
7771,-0.4209,0.6177,-0.7437,-3.784,-4.150,-4.517,144.240,27.197,-83.419
7781,-0.4355,0.5801,-0.7104,-2.808,-4.211,-3.845,144.179,27.230,-83.414
7790,-0.4404,0.5684,-0.6875,-2.258,-2.686,-2.625,144.124,27.257,-83.408
7801,-0.4526,0.5610,-0.6616,-0.488,-1.465,-0.732,144.069,27.279,-83.408
7811,-0.4761,0.5518,-0.6519,2.441,-0.977,1.099,144.047,27.301,-83.425
7821,-0.4854,0.5479,-0.6548,4.639,0.000,2.502,144.042,27.307,-83.452
7831,-0.4873,0.5493,-0.6675,4.639,3.235,3.601,144.047,27.279,-83.463
7841,-0.4756,0.5747,-0.6963,2.991,8.057,4.517,144.047,27.197,-83.447
7851,-0.4497,0.6304,-0.7363,0.610,14.221,6.897,144.020,27.021,-83.419
7861,-0.4482,0.6035,-0.6816,1.587,19.653,11.047,143.992,26.790,-83.386
7871,-0.4805,0.5376,-0.5723,4.700,20.386,15.625,143.965,26.581,-83.397
7881,-0.5498,0.4385,-0.4624,10.132,16.846,20.996,143.954,26.466,-83.474
7891,-0.5986,0.3828,-0.3887,16.235,11.902,26.855,143.959,26.428,-83.639
7901,-0.6011,0.4375,-0.4536,22.095,11.963,33.752,143.998,26.307,-83.864
7911,-0.4585,0.6450,-0.6953,27.649,25.085,39.063,144.119,25.873,-84.051
7920,-0.2734,0.9258,-0.9878,30.518,52.917,41.321,144.338,25.065,-84.078
7930,-0.1704,1.0728,-1.0967,30.762,76.843,36.743,144.717,24.225,-83.914
7940,-0.1133,1.0640,-1.0913,26.062,76.477,22.400,145.091,23.472,-83.633
7950,-0.1606,0.9224,-0.9839,12.817,49.561,2.747,145.333,23.049,-83.348
7960,-0.3101,0.6963,-0.7812,-5.981,6.958,-17.151,145.355,23.093,-83.150
7970,-0.4600,0.4497,-0.5771,-22.583,-33.142,-31.067,145.157,23.538,-83.079
7981,-0.5933,0.2759,-0.4170,-31.311,-59.875,-35.583,144.822,24.236,-83.134
7991,-0.6514,0.1968,-0.3486,-29.114,-65.613,-28.564,144.465,24.933,-83.293
8000,-0.6406,0.1914,-0.3926,-14.709,-49.255,-13.245,144.234,25.411,-83.491
8010,-0.5151,0.3398,-0.6045,7.812,-15.259,4.333,144.250,25.510,-83.628
8020,-0.4131,0.5210,-0.8115,26.428,24.780,19.958,144.509,25.192,-83.644
8030,-0.3301,0.6772,-0.9292,29.907,53.345,27.893,144.849,24.598,-83.551
8040,-0.2612,0.7817,-0.9893,24.841,57.129,25.208,145.151,23.983,-83.419
8050,-0.2109,0.8760,-0.9873,11.292,37.781,16.296,145.300,23.582,-83.331
8060,-0.2383,0.8994,-0.9463,-1.831,7.751,5.554,145.283,23.489,-83.331
8070,-0.2861,0.8574,-0.8701,-9.705,-18.616,-4.639,145.157,23.665,-83.403
8081,-0.3345,0.7539,-0.7856,-10.620,-33.447,-12.756,145.009,24.016,-83.496
8091,-0.3853,0.6445,-0.6934,-8.911,-37.109,-16.968,144.888,24.417,-83.578
8101,-0.4414,0.5029,-0.5723,-8.118,-34.607,-17.456,144.783,24.796,-83.639
8110,-0.4990,0.3926,-0.4805,-9.644,-29.846,-15.564,144.662,25.131,-83.688
8120,-0.5518,0.3740,-0.4561,-10.986,-22.217,-10.925,144.536,25.378,-83.732
8130,-0.5713,0.3921,-0.4707,-9.460,-10.193,-3.845,144.432,25.483,-83.765
8141,-0.5610,0.4019,-0.5029,-2.686,3.845,3.784,144.399,25.428,-83.776
8150,-0.5181,0.4531,-0.5850,4.150,16.113,10.010,144.448,25.241,-83.760
8161,-0.4526,0.5493,-0.7134,8.545,23.315,14.465,144.542,24.966,-83.743
8171,-0.3809,0.6499,-0.8291,10.864,26.428,17.883,144.651,24.648,-83.732
8181,-0.3291,0.7158,-0.8940,11.902,24.536,19.592,144.761,24.335,-83.754
8190,-0.3018,0.7617,-0.9209,11.047,17.578,18.372,144.849,24.082,-83.804
8200,-0.2930,0.7520,-0.8970,9.888,7.751,14.343,144.915,23.939,-83.886
8211,-0.3169,0.6924,-0.8228,7.019,-3.174,8.789,144.948,23.912,-83.985
8221,-0.3662,0.6265,-0.7539,2.136,-13.123,3.967,144.921,24.000,-84.100
8231,-0.4092,0.5649,-0.7139,-1.343,-18.738,1.343,144.855,24.142,-84.232
8241,-0.4370,0.5312,-0.6919,-3.723,-19.592,1.221,144.761,24.296,-84.364
8251,-0.4551,0.5146,-0.6772,-4.822,-16.174,2.502,144.662,24.412,-84.490
8261,-0.4614,0.5273,-0.6396,-5.066,-10.742,4.028,144.569,24.478,-84.595
8271,-0.4707,0.5278,-0.6016,-4.822,-7.202,5.798,144.481,24.505,-84.694
8281,-0.4673,0.5684,-0.6035,-4.639,-5.249,7.507,144.393,24.505,-84.792
8291,-0.4468,0.6123,-0.6392,-1.343,-2.808,9.338,144.338,24.472,-84.897
8301,-0.4263,0.6392,-0.6816,2.197,1.038,11.353,144.322,24.395,-84.990
8311,-0.4165,0.6572,-0.7168,4.395,4.272,11.780,144.333,24.291,-85.067
8321,-0.3975,0.6846,-0.7476,4.211,6.287,10.376,144.349,24.181,-85.122
8331,-0.3970,0.7007,-0.7368,2.930,6.897,7.812,144.371,24.082,-85.144
8341,-0.3984,0.6621,-0.6895,1.404,4.944,4.456,144.382,24.016,-85.155
8351,-0.4087,0.6313,-0.6543,-1.953,0.793,0.549,144.360,24.005,-85.155
8361,-0.4116,0.6289,-0.6514,-5.310,-2.258,-2.502,144.311,24.038,-85.144
8371,-0.3877,0.6626,-0.6992,-6.836,-2.441,-3.906,144.250,24.082,-85.128
8381,-0.3618,0.6846,-0.7559,-5.615,1.465,-3.723,144.212,24.088,-85.084
8391,-0.3525,0.6821,-0.7778,-3.845,5.493,-3.540,144.201,24.066,-85.018
8401,-0.3662,0.6733,-0.7769,-2.563,5.615,-4.089,144.207,24.044,-84.946
8411,-0.3989,0.6279,-0.7388,-1.648,2.258,-5.005,144.212,24.055,-84.886
8421,-0.4316,0.5508,-0.6812,-1.648,-2.808,-6.042,144.212,24.115,-84.847
8431,-0.4526,0.5044,-0.6484,-2.991,-5.676,-6.042,144.190,24.197,-84.831
8441,-0.4458,0.4897,-0.6553,-3.784,-4.272,-4.272,144.146,24.296,-84.820
8451,-0.3994,0.5190,-0.7065,-2.747,0.427,-1.038,144.119,24.302,-84.809
8461,-0.3501,0.6108,-0.7803,-0.488,5.615,3.113,144.097,24.192,-84.803
8471,-0.3232,0.6973,-0.8467,4.028,8.545,6.653,144.097,24.005,-84.803
8481,-0.3242,0.7373,-0.8481,7.874,7.202,7.568,144.119,23.824,-84.825
8491,-0.3564,0.7061,-0.7896,9.277,1.099,4.883,144.135,23.736,-84.864
8501,-0.4019,0.6621,-0.7173,4.822,-6.714,-0.488,144.097,23.780,-84.902
8511,-0.4526,0.5850,-0.6289,-2.441,-12.329,-6.226,143.992,23.956,-84.924
8521,-0.4858,0.5098,-0.5620,-9.521,-14.465,-10.193,143.839,24.214,-84.930
8531,-0.4717,0.5269,-0.5649,-14.709,-12.085,-10.254,143.630,24.445,-84.913
8541,-0.4292,0.5854,-0.6211,-12.512,-3.357,-5.676,143.448,24.527,-84.886
8551,-0.3564,0.7246,-0.7485,-4.944,8.545,0.610,143.344,24.401,-84.836
8561,-0.3066,0.8169,-0.8511,5.615,19.531,5.188,143.361,24.115,-84.754
8571,-0.3169,0.8120,-0.8579,13.245,22.705,4.272,143.470,23.818,-84.644
8581,-0.3872,0.6860,-0.7744,13.550,14.587,-1.953,143.597,23.681,-84.534
8591,-0.4839,0.5034,-0.6411,4.883,-2.625,-11.353,143.663,23.840,-84.446
8601,-0.5532,0.3579,-0.5254,-9.521,-19.043,-19.653,143.608,24.280,-84.397
8611,-0.5786,0.3101,-0.4673,-22.034,-26.306,-21.790,143.427,24.835,-84.380
8621,-0.5400,0.3594,-0.5098,-24.719,-20.691,-15.625,143.196,25.247,-84.375
8631,-0.4268,0.5435,-0.6436,-15.869,-2.869,-2.136,143.004,25.302,-84.375
8641,-0.3467,0.6904,-0.7803,3.052,18.372,13.184,142.993,25.010,-84.370
8651,-0.2754,0.8325,-0.9355,20.386,30.945,22.034,143.152,24.505,-84.359
8661,-0.2275,0.9004,-1.0269,30.396,30.273,21.301,143.416,23.989,-84.348
8671,-0.2407,0.8765,-1.0005,28.687,16.785,12.817,143.652,23.643,-84.348
8681,-0.3145,0.7549,-0.8892,15.930,-4.089,-0.549,143.762,23.593,-84.370
8691,-0.3892,0.6079,-0.7456,-3.174,-24.292,-14.282,143.690,23.857,-84.402
8701,-0.4575,0.4546,-0.5996,-20.264,-37.231,-23.376,143.465,24.362,-84.435
8711,-0.5225,0.3501,-0.5024,-29.785,-39.551,-24.475,143.168,24.983,-84.479
8721,-0.5459,0.3311,-0.4653,-28.748,-30.640,-17.883,142.877,25.521,-84.523
8731,-0.5420,0.3735,-0.4668,-16.602,-15.137,-5.188,142.674,25.840,-84.578
8741,-0.4995,0.4761,-0.5469,1.648,1.343,9.583,142.625,25.856,-84.655
8751,-0.4390,0.6094,-0.6929,20.691,13.977,20.874,142.751,25.620,-84.743
8761,-0.3896,0.7163,-0.8042,32.715,19.958,26.367,142.987,25.247,-84.842
8771,-0.3516,0.7485,-0.8589,35.583,17.456,25.085,143.251,24.879,-84.952
8781,-0.3398,0.7085,-0.8477,26.794,8.911,17.212,143.448,24.626,-85.045
8791,-0.3608,0.6865,-0.7998,8.362,-1.648,5.676,143.465,24.549,-85.106
8801,-0.3779,0.6904,-0.7744,-10.986,-8.301,-3.967,143.295,24.593,-85.122
8811,-0.3765,0.7271,-0.7549,-23.621,-8.423,-8.911,142.998,24.664,-85.100
8821,-0.3745,0.7598,-0.7329,-24.536,-4.211,-9.399,142.690,24.703,-85.045
8831,-0.3887,0.7305,-0.6865,-14.038,-1.282,-7.507,142.482,24.725,-84.990
8841,-0.4204,0.6499,-0.6284,-0.305,-2.197,-5.310,142.405,24.774,-84.957
8851,-0.4722,0.5366,-0.5649,8.606,-6.165,-4.578,142.432,24.911,-84.957
8861,-0.5273,0.4492,-0.5381,9.521,-10.254,-5.066,142.493,25.148,-84.985
8871,-0.5576,0.4043,-0.5376,4.517,-10.498,-4.700,142.531,25.400,-85.012
8881,-0.5454,0.3984,-0.5728,-1.038,-5.676,-1.892,142.537,25.582,-85.034
8891,-0.4829,0.4785,-0.6553,-4.395,3.174,2.991,142.504,25.593,-85.040
8901,-0.3984,0.6265,-0.7749,-2.563,14.282,8.728,142.471,25.389,-85.018
8911,-0.3252,0.7705,-0.8711,4.700,23.132,13.855,142.493,25.027,-84.985
8921,-0.2852,0.8325,-0.9033,13.916,23.926,14.648,142.592,24.631,-84.952
8931,-0.2832,0.8003,-0.8760,19.348,14.038,9.521,142.740,24.351,-84.941
8941,-0.3228,0.7065,-0.8232,17.029,-2.075,1.038,142.866,24.285,-84.963
8951,-0.3823,0.6030,-0.7559,6.836,-16.968,-7.019,142.899,24.434,-85.018
8961,-0.4277,0.5083,-0.6836,-6.592,-24.780,-12.329,142.811,24.725,-85.073
8971,-0.4478,0.4658,-0.6396,-17.517,-23.621,-13.794,142.635,25.043,-85.106
8981,-0.4497,0.4917,-0.6201,-20.386,-15.137,-10.803,142.421,25.269,-85.117
8991,-0.4492,0.5229,-0.6172,-14.404,-4.517,-4.578,142.256,25.373,-85.106
9001,-0.4414,0.5449,-0.6382,-2.136,3.235,2.014,142.207,25.356,-85.100
9011,-0.4351,0.5649,-0.6670,8.484,6.348,6.531,142.262,25.280,-85.117
9021,-0.4312,0.5786,-0.6953,12.939,5.188,8.240,142.355,25.192,-85.150
9031,-0.4243,0.6055,-0.7290,10.925,3.235,7.751,142.421,25.109,-85.199
9041,-0.4116,0.6240,-0.7490,4.578,1.953,5.798,142.427,25.038,-85.237
9051,-0.3984,0.6606,-0.7661,-2.380,1.831,3.174,142.366,24.966,-85.248
9061,-0.3760,0.7344,-0.7886,-6.958,3.052,1.160,142.251,24.879,-85.237
9071,-0.3613,0.7754,-0.7852,-5.432,3.601,0.000,142.136,24.785,-85.215
9081,-0.3667,0.7637,-0.7471,0.488,0.854,-1.404,142.070,24.725,-85.199
9091,-0.3828,0.7056,-0.7002,5.798,-5.615,-3.662,142.053,24.758,-85.204
9101,-0.4155,0.6445,-0.6719,7.324,-12.085,-6.226,142.053,24.879,-85.232
9111,-0.4634,0.5542,-0.6289,5.310,-15.503,-8.179,142.059,25.093,-85.265
9121,-0.5059,0.4800,-0.6006,0.000,-15.686,-9.216,142.042,25.351,-85.292
9131,-0.5376,0.4292,-0.5713,-6.104,-12.817,-8.545,141.987,25.620,-85.303
9142,-0.5513,0.4004,-0.5479,-9.521,-6.836,-5.737,141.910,25.845,-85.303
9151,-0.5391,0.4028,-0.5283,-9.155,0.671,-0.793,141.833,25.977,-85.287
9161,-0.5044,0.4707,-0.5498,-4.395,7.935,5.798,141.768,25.966,-85.287
9171,-0.4570,0.5586,-0.6406,6.165,14.832,12.573,141.795,25.801,-85.292
9181,-0.3765,0.6958,-0.8037,16.724,21.484,17.578,141.932,25.461,-85.298
9191,-0.3057,0.7925,-0.9443,22.583,25.879,18.311,142.147,25.032,-85.281
9201,-0.2754,0.8145,-0.9966,21.545,23.071,13.428,142.361,24.642,-85.243
9211,-0.2822,0.7725,-0.9712,12.146,12.085,3.967,142.493,24.406,-85.199
9221,-0.3398,0.6865,-0.8706,-2.869,-3.174,-6.287,142.471,24.395,-85.161
9231,-0.3999,0.6006,-0.7295,-18.372,-16.663,-13.855,142.273,24.593,-85.155
9241,-0.4678,0.5371,-0.5894,-27.588,-24.048,-16.907,141.949,24.944,-85.166
9251,-0.5142,0.5039,-0.5122,-26.062,-22.949,-14.771,141.614,25.318,-85.193
9261,-0.5132,0.4937,-0.5151,-14.587,-14.221,-8.423,141.405,25.582,-85.221
9271,-0.4663,0.4980,-0.5776,0.916,-1.343,-0.305,141.389,25.653,-85.226
9281,-0.3872,0.5688,-0.7090,11.414,11.169,5.981,141.509,25.505,-85.204
9291,-0.2993,0.7007,-0.8594,12.512,18.982,8.728,141.652,25.203,-85.144
9301,-0.2744,0.8066,-0.9199,7.202,20.325,7.263,141.724,24.873,-85.073
9311,-0.3193,0.8032,-0.8618,-1.526,14.099,1.221,141.696,24.659,-84.985
9321,-0.4224,0.6670,-0.6880,-12.695,0.488,-8.667,141.548,24.697,-84.908
9331,-0.5459,0.4331,-0.4580,-25.146,-16.174,-19.531,141.273,25.109,-84.847
9341,-0.6279,0.3105,-0.3218,-37.109,-27.527,-27.039,140.872,25.779,-84.803
9351,-0.6450,0.2983,-0.3257,-38.330,-24.170,-23.437,140.471,26.411,-84.776
9361,-0.5786,0.4175,-0.4663,-23.926,-4.333,-8.789,140.229,26.664,-84.727
9371,-0.4424,0.6016,-0.7046,-1.038,25.085,11.536,140.251,26.389,-84.650
9381,-0.2998,0.8291,-0.9775,21.301,48.706,27.222,140.504,25.714,-84.534
9391,-0.1533,0.9971,-1.1841,37.537,55.054,30.273,140.938,25.098,-84.402
9401,-0.1030,1.0405,-1.2290,40.894,40.466,21.912,141.383,24.642,-84.309
9411,-0.1436,0.9463,-1.1299,29.724,11.597,6.287,141.691,24.516,-84.287
9421,-0.2788,0.7363,-0.9146,6.897,-20.691,-11.597,141.746,24.747,-84.326
9431,-0.3955,0.5425,-0.7085,-18.555,-43.945,-25.940,141.526,25.252,-84.402
9441,-0.5049,0.4175,-0.5522,-36.560,-51.392,-31.799,141.130,25.856,-84.479
9451,-0.5610,0.3335,-0.4434,-38.574,-42.419,-27.893,140.718,26.362,-84.534
9461,-0.5825,0.2866,-0.3853,-25.940,-25.269,-16.846,140.444,26.664,-84.567
9471,-0.5825,0.2832,-0.4009,-2.991,-7.507,-2.686,140.400,26.735,-84.600
9481,-0.5469,0.3281,-0.4766,14.771,6.714,11.597,140.526,26.609,-84.650
9491,-0.4756,0.4380,-0.5937,24.719,15.137,22.217,140.735,26.351,-84.732
9501,-0.4233,0.5918,-0.7183,25.146,18.250,27.710,140.938,26.038,-84.847
9511,-0.3770,0.7368,-0.8159,21.851,18.372,28.259,141.108,25.714,-84.963
9521,-0.3467,0.8213,-0.8721,16.785,17.090,23.926,141.235,25.433,-85.045
9531,-0.3452,0.8413,-0.8706,10.742,12.817,15.869,141.323,25.236,-85.095
9541,-0.3569,0.8037,-0.8359,3.967,5.249,5.493,141.356,25.159,-85.106
9551,-0.3818,0.7520,-0.7700,-4.639,-4.211,-4.028,141.312,25.214,-85.100
9561,-0.4165,0.6904,-0.6904,-11.658,-11.292,-10.437,141.202,25.367,-85.089
9571,-0.4346,0.6118,-0.6279,-15.137,-13.855,-13.062,141.059,25.560,-85.073
9581,-0.4370,0.5874,-0.5918,-15.991,-12.451,-12.268,140.905,25.735,-85.056
9591,-0.4468,0.5767,-0.5854,-11.353,-7.690,-8.240,140.801,25.845,-85.034
9601,-0.4531,0.5649,-0.6060,-2.869,-0.854,-3.296,140.779,25.873,-85.012
9611,-0.4434,0.5728,-0.6577,5.554,5.798,0.305,140.856,25.823,-84.974
9621,-0.4248,0.5825,-0.7158,9.949,10.559,2.197,140.977,25.730,-84.919
9631,-0.4121,0.5923,-0.7593,9.583,12.695,2.502,141.103,25.615,-84.853
9642,-0.4004,0.6006,-0.7852,4.761,12.634,1.831,141.180,25.505,-84.781
9651,-0.3911,0.6025,-0.7983,-0.671,10.254,0.427,141.202,25.422,-84.716
9661,-0.3882,0.6152,-0.8042,-4.395,6.042,-0.671,141.180,25.378,-84.666
9671,-0.3809,0.6260,-0.7964,-4.883,2.075,-0.977,141.141,25.367,-84.644
9681,-0.3765,0.6172,-0.7598,-1.587,-0.793,-0.244,141.125,25.378,-84.644
9691,-0.3931,0.5928,-0.6987,2.930,-5.432,1.282,141.130,25.411,-84.694
9701,-0.4199,0.5806,-0.6538,7.080,-9.399,2.991,141.163,25.466,-84.787
9711,-0.4395,0.5713,-0.6372,10.925,-9.521,5.005,141.224,25.510,-84.897
9721,-0.4507,0.5474,-0.6396,14.221,-6.592,7.324,141.323,25.516,-85.007
9731,-0.4521,0.5371,-0.6646,15.076,-3.052,8.972,141.427,25.483,-85.106
9741,-0.4331,0.5635,-0.7075,12.939,0.549,9.888,141.520,25.417,-85.188
9751,-0.4062,0.6152,-0.7520,9.705,4.700,10.010,141.597,25.318,-85.237
9761,-0.3862,0.6353,-0.7524,6.348,6.958,9.155,141.647,25.208,-85.270
9771,-0.3862,0.6577,-0.7490,2.747,5.493,6.897,141.663,25.120,-85.292
9781,-0.3833,0.7017,-0.7549,0.000,2.319,3.845,141.658,25.076,-85.309
9791,-0.3906,0.7197,-0.7441,-0.793,-0.122,1.221,141.647,25.071,-85.320
9801,-0.4175,0.6938,-0.7148,-0.793,-2.502,-1.282,141.636,25.098,-85.331
9811,-0.4331,0.6514,-0.6880,-0.793,-4.517,-3.845,141.625,25.159,-85.325
9821,-0.4448,0.5996,-0.6636,-1.526,-5.798,-5.859,141.619,25.241,-85.314
9831,-0.4653,0.5093,-0.6094,-3.113,-6.287,-6.958,141.592,25.334,-85.298
9841,-0.4917,0.4497,-0.5635,-6.348,-6.592,-7.080,141.537,25.428,-85.281
9851,-0.5029,0.4390,-0.5527,-8.301,-4.089,-4.700,141.460,25.488,-85.270
9861,-0.4907,0.4604,-0.5679,-6.653,1.953,0.488,141.394,25.472,-85.259
9871,-0.4512,0.5366,-0.6343,-0.916,10.132,7.080,141.389,25.345,-85.254
9881,-0.4082,0.6255,-0.7295,8.484,17.944,13.062,141.482,25.126,-85.243
9891,-0.3428,0.7187,-0.8530,16.724,23.376,16.235,141.658,24.840,-85.221
9901,-0.2866,0.7656,-0.9390,20.813,23.865,15.015,141.866,24.450,-85.188
9911,-0.2554,0.7861,-0.9761,19.043,17.944,9.888,142.064,24.120,-85.150
9921,-0.2607,0.7520,-0.9585,11.047,7.202,1.770,142.185,23.934,-85.117
9931,-0.3047,0.6963,-0.9019,-1.892,-4.578,-7.019,142.180,23.923,-85.089
9941,-0.3452,0.6655,-0.8281,-15.198,-13.062,-13.916,142.031,24.049,-85.056
9951,-0.3931,0.6191,-0.7197,-22.705,-17.090,-17.212,141.795,24.269,-85.023
9961,-0.4360,0.5718,-0.6191,-23.071,-18.616,-16.785,141.526,24.549,-85.001
9971,-0.4722,0.5298,-0.5420,-16.846,-18.311,-13.550,141.301,24.851,-85.012
9981,-0.5059,0.4644,-0.4854,-6.958,-16.235,-8.423,141.163,25.148,-85.051
9991,-0.5347,0.4248,-0.4604,1.587,-12.329,-2.991,141.114,25.417,-85.111
10001,-0.5439,0.4180,-0.4722,7.019,-5.859,2.197,141.130,25.598,-85.172
10011,-0.5337,0.4365,-0.5083,8.667,2.808,7.141,141.185,25.664,-85.210
10021,-0.4824,0.5112,-0.5991,7.507,12.085,10.864,141.235,25.560,-85.221
10031,-0.4165,0.6313,-0.7187,5.920,20.447,12.756,141.284,25.302,-85.188
10041,-0.3525,0.7432,-0.8296,5.798,25.513,13.000,141.334,24.950,-85.128
10051,-0.2930,0.8457,-0.9424,6.714,25.696,10.742,141.405,24.565,-85.040
10061,-0.2524,0.8916,-1.0049,7.568,21.240,5.432,141.493,24.230,-84.941
10071,-0.2544,0.8574,-0.9736,6.042,11.719,-2.380,141.564,24.022,-84.842
10081,-0.2983,0.7490,-0.8745,0.366,-2.808,-11.230,141.575,24.016,-84.765
10091,-0.3672,0.6284,-0.7534,-9.216,-18.066,-18.433,141.487,24.236,-84.732
10101,-0.4287,0.5303,-0.6538,-17.578,-26.855,-22.461,141.312,24.609,-84.721
10111,-0.4761,0.4673,-0.5894,-21.240,-26.184,-21.606,141.103,25.021,-84.716
10121,-0.5093,0.4136,-0.5552,-17.456,-18.372,-16.113,140.960,25.378,-84.705
10131,-0.5225,0.3799,-0.5518,-7.690,-7.568,-7.874,140.933,25.609,-84.688
10142,-0.5146,0.3652,-0.5811,4.395,2.258,0.671,141.048,25.703,-84.677
10151,-0.4736,0.4048,-0.6401,12.512,8.362,8.240,141.235,25.648,-84.694
10161,-0.4355,0.4648,-0.6895,15.564,10.254,14.038,141.416,25.505,-84.743
10171,-0.4009,0.5400,-0.7476,14.282,9.399,17.212,141.548,25.302,-84.825
10181,-0.3672,0.6294,-0.8105,10.986,8.057,17.639,141.625,25.076,-84.924
10191,-0.3447,0.6885,-0.8442,7.812,7.202,15.930,141.652,24.846,-85.012
10201,-0.3330,0.7222,-0.8555,4.211,5.310,12.207,141.647,24.648,-85.084
10211,-0.3335,0.7339,-0.8501,0.610,1.831,7.202,141.608,24.510,-85.133
10221,-0.3486,0.7251,-0.8252,-2.441,-2.380,2.319,141.542,24.445,-85.166
10231,-0.3633,0.6851,-0.7715,-5.310,-6.714,-1.648,141.443,24.456,-85.199
10241,-0.3862,0.6357,-0.7002,-8.606,-11.230,-4.456,141.306,24.549,-85.237
10251,-0.4165,0.6201,-0.6416,-11.292,-14.343,-5.310,141.119,24.697,-85.292
10261,-0.4409,0.6045,-0.6050,-9.949,-13.245,-4.028,140.938,24.851,-85.347
10271,-0.4668,0.5854,-0.5947,-5.737,-8.362,-1.648,140.806,24.966,-85.391
10281,-0.4785,0.5620,-0.5986,-0.549,-2.197,0.427,140.751,25.032,-85.408
10291,-0.4702,0.5605,-0.6221,2.625,2.930,1.770,140.751,25.043,-85.402
10301,-0.4580,0.5723,-0.6523,3.052,5.981,2.991,140.768,25.005,-85.391
10311,-0.4395,0.5801,-0.6660,1.648,6.897,3.723,140.773,24.944,-85.375
10321,-0.4321,0.5698,-0.6670,-0.061,6.165,3.540,140.768,24.890,-85.358
10331,-0.4209,0.5908,-0.6831,-1.892,5.493,3.357,140.735,24.829,-85.347
10341,-0.4038,0.6074,-0.7012,-1.587,6.897,4.089,140.707,24.736,-85.336
10351,-0.3691,0.6523,-0.7480,0.122,9.949,4.944,140.702,24.587,-85.309
10361,-0.3232,0.7246,-0.8130,2.747,12.573,5.798,140.724,24.373,-85.270
10371,-0.3125,0.7729,-0.8516,5.615,12.939,6.042,140.762,24.142,-85.232
10381,-0.3213,0.7788,-0.8711,6.958,10.315,3.723,140.823,23.950,-85.193
10391,-0.3516,0.7256,-0.8618,5.493,5.249,-1.221,140.889,23.857,-85.144
10401,-0.3867,0.6353,-0.7983,-0.122,-1.831,-7.385,140.911,23.884,-85.095
10411,-0.4155,0.5605,-0.6968,-9.888,-9.888,-12.390,140.834,24.049,-85.062
10421,-0.4785,0.4434,-0.5273,-18.677,-17.334,-14.526,140.641,24.379,-85.056
10431,-0.5215,0.3818,-0.4067,-23.987,-22.461,-13.733,140.350,24.824,-85.095
10441,-0.5454,0.3677,-0.3721,-22.522,-19.592,-8.850,140.048,25.241,-85.161
10451,-0.5127,0.4399,-0.4458,-14.160,-5.249,0.000,139.845,25.422,-85.193
10461,-0.4243,0.5947,-0.6436,0.000,18.616,10.681,139.839,25.219,-85.155
10471,-0.3286,0.7515,-0.8623,15.076,41.626,19.226,140.037,24.692,-85.018
10481,-0.2441,0.8901,-1.0591,24.353,53.406,20.630,140.361,24.005,-84.814
10491,-0.2080,0.9316,-1.1328,25.391,47.974,12.817,140.702,23.401,-84.589
10501,-0.2344,0.8354,-1.0552,15.686,25.269,-0.610,140.938,23.077,-84.408
10511,-0.2964,0.7280,-0.9019,-4.639,-7.263,-14.771,140.922,23.137,-84.331
10521,-0.3584,0.6147,-0.7349,-23.865,-34.851,-25.391,140.669,23.538,-84.359
10531,-0.4390,0.5366,-0.6001,-33.997,-49.011,-29.175,140.273,24.142,-84.452
10541,-0.4951,0.4531,-0.5073,-32.410,-46.448,-25.879,139.889,24.780,-84.556
10551,-0.5327,0.3882,-0.4575,-20.874,-31.494,-18.127,139.647,25.302,-84.628
10561,-0.5425,0.3584,-0.4707,-6.287,-11.475,-8.362,139.614,25.615,-84.639
10571,-0.5229,0.3750,-0.5376,5.249,6.042,1.770,139.730,25.692,-84.611
10581,-0.4902,0.4370,-0.6436,10.864,17.151,9.583,139.916,25.565,-84.573
10591,-0.4346,0.5503,-0.7695,11.108,22.156,14.160,140.087,25.296,-84.534
10601,-0.3721,0.6577,-0.8682,10.010,22.461,15.747,140.229,24.961,-84.507
10611,-0.3159,0.7339,-0.9116,7.874,17.517,14.648,140.312,24.637,-84.507
10621,-0.2891,0.7769,-0.9209,6.287,7.874,11.169,140.356,24.395,-84.545
10631,-0.2876,0.7720,-0.8911,5.066,-2.808,6.592,140.361,24.269,-84.622
10642,-0.3130,0.7251,-0.8213,3.113,-11.841,1.953,140.334,24.263,-84.721
10651,-0.3525,0.6646,-0.7402,-0.122,-18.066,-2.014,140.268,24.368,-84.831
10661,-0.3916,0.6196,-0.6768,-3.967,-20.203,-4.395,140.158,24.532,-84.935
10671,-0.4272,0.5835,-0.6353,-6.104,-18.127,-4.761,140.032,24.719,-85.023
10681,-0.4497,0.5522,-0.6006,-6.104,-13.489,-3.662,139.922,24.890,-85.089
10691,-0.4521,0.5444,-0.5903,-5.005,-8.850,-1.587,139.823,25.010,-85.139
10701,-0.4526,0.5547,-0.6050,-2.197,-4.578,1.038,139.763,25.076,-85.177
10711,-0.4453,0.5718,-0.6328,0.916,-0.427,4.395,139.735,25.076,-85.215
10721,-0.4399,0.5933,-0.6567,4.272,3.296,7.507,139.741,25.016,-85.259
10731,-0.4302,0.6260,-0.6768,6.653,5.859,9.827,139.768,24.911,-85.298
10741,-0.4219,0.6479,-0.6870,9.827,5.981,11.292,139.812,24.785,-85.353
10751,-0.4155,0.6602,-0.6978,12.634,3.601,11.353,139.872,24.670,-85.419
10761,-0.4116,0.6499,-0.7056,14.343,0.854,10.132,139.960,24.587,-85.501
10771,-0.4141,0.6270,-0.7046,13.977,-1.038,8.240,140.048,24.532,-85.578
10781,-0.4106,0.6138,-0.7046,10.742,-1.709,6.104,140.120,24.500,-85.638
10791,-0.4038,0.6162,-0.7095,5.615,-1.404,4.150,140.142,24.472,-85.688
10801,-0.4092,0.6304,-0.7153,0.244,-0.427,2.197,140.120,24.445,-85.704
10811,-0.4092,0.6421,-0.7119,-3.418,0.916,0.305,140.070,24.423,-85.704
10821,-0.4023,0.6572,-0.6982,-5.432,1.526,-1.160,139.988,24.406,-85.682
10831,-0.4077,0.6611,-0.6699,-5.615,0.305,-1.709,139.894,24.401,-85.666
10841,-0.4209,0.6694,-0.6421,-3.967,-2.502,-1.221,139.790,24.428,-85.671
10851,-0.4312,0.6455,-0.6235,-0.916,-4.944,-0.244,139.713,24.483,-85.704
10861,-0.4414,0.5991,-0.6055,1.221,-6.775,0.671,139.658,24.554,-85.759
10871,-0.4575,0.5591,-0.5937,0.427,-8.423,2.075,139.598,24.653,-85.836
10881,-0.4502,0.5508,-0.6001,-2.258,-8.911,4.822,139.515,24.736,-85.941
10891,-0.4248,0.5898,-0.6401,-2.258,-5.310,8.057,139.427,24.736,-86.045
10901,-0.3994,0.6479,-0.6948,3.479,3.601,11.047,139.406,24.615,-86.111
10911,-0.3770,0.6709,-0.7529,12.451,13.245,12.207,139.515,24.395,-86.122
10921,-0.3379,0.6870,-0.8267,18.677,18.860,10.315,139.730,24.120,-86.072
10931,-0.3042,0.6973,-0.9102,18.982,18.921,5.554,139.982,23.851,-85.984
10941,-0.3042,0.6919,-0.9355,12.695,13.916,-0.549,140.180,23.654,-85.880
10951,-0.3091,0.6885,-0.9106,1.648,6.042,-6.836,140.268,23.566,-85.781
10961,-0.3384,0.6533,-0.8457,-8.240,-3.052,-11.597,140.235,23.604,-85.704
10971,-0.3877,0.5903,-0.7754,-13.672,-10.986,-14.771,140.142,23.763,-85.660
10981,-0.4224,0.5361,-0.7202,-15.259,-14.954,-16.296,140.037,23.994,-85.627
10991,-0.4443,0.4897,-0.6743,-13.794,-15.686,-15.076,139.944,24.247,-85.611
11001,-0.4570,0.4512,-0.6377,-10.193,-13.611,-11.536,139.894,24.489,-85.611
11011,-0.4629,0.4370,-0.6240,-6.592,-9.338,-7.263,139.878,24.670,-85.616
11021,-0.4448,0.4282,-0.6128,-4.578,-4.395,-2.869,139.878,24.785,-85.622
11031,-0.4258,0.4468,-0.6162,-4.150,-0.732,1.526,139.872,24.824,-85.638
11041,-0.4175,0.5073,-0.6567,-3.723,3.052,5.554,139.850,24.785,-85.666
11051,-0.3916,0.5947,-0.7241,-1.892,7.996,9.155,139.828,24.642,-85.688
11061,-0.3506,0.6914,-0.7979,1.404,12.695,11.719,139.834,24.412,-85.693
11071,-0.3213,0.7661,-0.8584,4.761,14.893,12.146,139.867,24.131,-85.693
11081,-0.3252,0.7988,-0.8735,5.981,12.207,9.644,139.905,23.890,-85.688
11091,-0.3379,0.8013,-0.8628,4.395,4.211,4.578,139.916,23.752,-85.693
11101,-0.3481,0.7754,-0.8247,0.244,-6.287,-1.648,139.878,23.741,-85.726
11111,-0.3789,0.6948,-0.7510,-5.371,-15.686,-7.507,139.779,23.873,-85.770
11121,-0.4121,0.6113,-0.6660,-12.085,-21.301,-12.329,139.614,24.120,-85.820
11131,-0.4297,0.5542,-0.6084,-18.372,-22.034,-14.832,139.400,24.417,-85.853
11142,-0.4229,0.5586,-0.6021,-21.606,-17.517,-14.038,139.158,24.670,-85.858
11151,-0.4072,0.6006,-0.6348,-19.165,-7.812,-9.888,138.955,24.791,-85.836
11161,-0.4097,0.6260,-0.6626,-11.353,2.563,-4.272,138.845,24.796,-85.781
11171,-0.4531,0.6079,-0.6431,-2.258,8.301,-0.122,138.823,24.758,-85.721
11181,-0.5171,0.5371,-0.5791,3.601,5.188,0.427,138.856,24.802,-85.688
11191,-0.5439,0.4731,-0.5396,3.540,-3.113,-1.648,138.889,24.961,-85.693
11201,-0.5308,0.4336,-0.5381,-1.709,-9.216,-3.662,138.878,25.175,-85.732
11211,-0.4932,0.4917,-0.5913,-8.728,-7.874,-2.808,138.790,25.329,-85.765
11221,-0.4399,0.6074,-0.6646,-10.864,3.296,2.136,138.675,25.296,-85.759
11231,-0.3828,0.7065,-0.7339,-5.371,16.846,8.240,138.615,25.071,-85.704
11241,-0.3335,0.7817,-0.7939,3.723,24.414,11.597,138.658,24.730,-85.622
11251,-0.3145,0.8062,-0.8286,12.268,22.522,10.620,138.779,24.401,-85.545
11261,-0.3442,0.7729,-0.8267,16.846,13.794,6.653,138.950,24.175,-85.501
11271,-0.4248,0.6411,-0.7559,14.771,2.014,0.854,139.103,24.148,-85.496
11281,-0.4707,0.5420,-0.6763,4.456,-8.972,-5.859,139.164,24.296,-85.507
11291,-0.4712,0.4976,-0.6201,-7.507,-15.503,-10.132,139.098,24.543,-85.534
11301,-0.4238,0.4897,-0.6157,-14.282,-15.686,-10.010,138.972,24.763,-85.567
11311,-0.3960,0.5488,-0.6504,-14.038,-9.094,-5.920,138.834,24.868,-85.583
11321,-0.3735,0.6094,-0.6934,-6.531,1.648,0.610,138.768,24.824,-85.578
11331,-0.3638,0.6519,-0.7393,4.150,10.803,5.920,138.823,24.659,-85.545
11341,-0.3545,0.6934,-0.7798,10.864,13.855,8.057,138.939,24.445,-85.512
11351,-0.3413,0.7300,-0.8345,13.000,11.597,6.958,139.076,24.241,-85.485
11361,-0.3359,0.7539,-0.8643,9.277,7.324,3.235,139.175,24.088,-85.463
11371,-0.3364,0.7622,-0.8657,2.136,2.625,-1.831,139.208,24.000,-85.424
11381,-0.3398,0.7524,-0.8364,-4.639,-2.441,-6.958,139.164,23.989,-85.386
11391,-0.3530,0.7183,-0.7827,-9.521,-7.202,-11.414,139.070,24.066,-85.342
11401,-0.3760,0.6284,-0.6797,-12.329,-12.024,-14.709,138.944,24.230,-85.309
11412,-0.4365,0.5244,-0.5723,-14.587,-17.395,-17.151,138.790,24.521,-85.292
11421,-0.4980,0.4775,-0.5083,-16.846,-20.020,-17.090,138.604,24.890,-85.298
11432,-0.5312,0.4565,-0.4702,-15.320,-16.052,-13.245,138.422,25.241,-85.303
11441,-0.5513,0.4326,-0.4541,-10.376,-7.019,-6.775,138.301,25.499,-85.298
11451,-0.5571,0.4233,-0.4844,-3.052,3.418,0.000,138.285,25.626,-85.270
11461,-0.5229,0.4526,-0.5698,3.967,12.695,6.226,138.378,25.593,-85.232
11472,-0.4438,0.5806,-0.7178,8.850,20.386,11.780,138.510,25.362,-85.177
11482,-0.3745,0.7119,-0.8330,12.451,27.283,16.357,138.675,24.988,-85.117
11492,-0.3262,0.7920,-0.8809,14.954,29.114,17.578,138.840,24.560,-85.045
11501,-0.2930,0.7969,-0.8481,14.832,22.095,13.794,138.988,24.203,-85.001
11512,-0.3198,0.6875,-0.7261,10.986,4.822,6.470,139.065,24.060,-85.023
11522,-0.4048,0.5776,-0.6025,1.648,-14.587,-1.343,139.016,24.197,-85.117
11532,-0.4873,0.4854,-0.5244,-8.911,-25.391,-6.165,138.856,24.527,-85.243
11541,-0.5488,0.4346,-0.4995,-15.503,-20.996,-5.554,138.658,24.873,-85.353
11551,-0.5552,0.4194,-0.5083,-15.991,-3.418,-1.282,138.510,25.060,-85.364
11562,-0.5176,0.4692,-0.5713,-9.583,17.151,5.066,138.472,24.999,-85.281
11572,-0.3437,0.6909,-0.8413,13.428,37.720,19.897,138.675,24.510,-85.172
11581,-0.2402,0.8232,-0.9751,24.292,35.950,23.682,138.955,23.950,-85.106
11591,-0.2095,0.8833,-1.0303,30.212,25.146,22.949,139.252,23.461,-85.117
11601,-0.2158,0.8799,-1.0190,28.687,8.972,17.639,139.504,23.137,-85.193
11611,-0.2446,0.8398,-0.9702,21.179,-8.362,9.216,139.658,23.016,-85.331
11621,-0.2964,0.7681,-0.8799,10.071,-21.973,-0.122,139.691,23.099,-85.485
11632,-0.3472,0.6885,-0.7671,-0.916,-29.602,-7.812,139.609,23.324,-85.627
11642,-0.3887,0.6328,-0.6719,-7.996,-30.212,-12.207,139.455,23.626,-85.737
11651,-0.4229,0.6025,-0.6099,-10.071,-25.818,-13.245,139.285,23.934,-85.814
11662,-0.4404,0.5786,-0.5791,-7.019,-19.104,-11.902,139.158,24.197,-85.853
11672,-0.4492,0.5586,-0.5688,-2.136,-11.597,-9.277,139.098,24.395,-85.858
11682,-0.4473,0.5259,-0.5669,2.380,-5.554,-6.409,139.109,24.532,-85.842
11692,-0.4448,0.5029,-0.5630,3.662,-2.075,-3.906,139.142,24.637,-85.825
11702,-0.4497,0.5122,-0.5972,3.174,0.427,-2.014,139.186,24.697,-85.809
11712,-0.4390,0.5518,-0.6592,2.502,5.249,0.122,139.235,24.681,-85.770
11722,-0.4175,0.5937,-0.7314,3.479,11.475,2.014,139.312,24.571,-85.704
11732,-0.3960,0.6348,-0.7983,4.211,15.930,2.869,139.417,24.401,-85.616
11742,-0.3672,0.6660,-0.8315,3.967,16.907,2.197,139.515,24.208,-85.512
11752,-0.3433,0.6636,-0.8135,2.991,12.268,0.366,139.592,24.049,-85.430
11762,-0.3462,0.6504,-0.7817,0.244,2.563,-1.648,139.614,23.989,-85.397
11772,-0.3696,0.6221,-0.7446,-2.319,-6.287,-3.113,139.587,24.027,-85.413
11782,-0.3931,0.5693,-0.7090,-4.333,-10.620,-3.662,139.543,24.120,-85.457
11792,-0.4136,0.5352,-0.6860,-6.775,-10.803,-3.662,139.482,24.241,-85.507
11802,-0.4248,0.5327,-0.6787,-8.911,-7.996,-2.747,139.406,24.340,-85.540
11812,-0.4346,0.5381,-0.6860,-9.583,-4.822,-0.977,139.323,24.401,-85.567
11822,-0.4385,0.5596,-0.7007,-8.728,-2.930,1.221,139.246,24.434,-85.594
11832,-0.4380,0.5747,-0.7192,-5.981,-2.014,3.357,139.191,24.439,-85.638
11842,-0.4263,0.5840,-0.7339,-2.563,-2.197,5.066,139.164,24.423,-85.699
11852,-0.4141,0.5889,-0.7358,0.427,-4.028,6.531,139.153,24.401,-85.781
11862,-0.4097,0.5947,-0.7310,1.953,-7.141,7.874,139.142,24.395,-85.897
11872,-0.4102,0.5898,-0.6938,2.380,-10.071,8.850,139.114,24.412,-86.045
11882,-0.4077,0.5933,-0.6465,1.038,-13.306,9.583,139.032,24.456,-86.215
11892,-0.4185,0.6206,-0.6250,0.732,-14.648,10.376,138.922,24.505,-86.407
11902,-0.4253,0.6353,-0.6226,3.052,-11.597,11.292,138.834,24.527,-86.589
11912,-0.4419,0.6631,-0.6318,6.042,-5.493,12.329,138.785,24.505,-86.726
11922,-0.4341,0.7061,-0.6670,10.193,1.160,13.123,138.790,24.406,-86.830
11932,-0.4111,0.7231,-0.7065,15.381,6.042,13.123,138.873,24.252,-86.891
11942,-0.3916,0.7246,-0.7378,18.188,7.935,11.230,139.005,24.082,-86.929
11952,-0.3804,0.7231,-0.7476,17.456,6.592,8.240,139.136,23.939,-86.951
11962,-0.3721,0.6753,-0.7231,14.099,2.625,4.700,139.246,23.857,-86.968
11972,-0.3813,0.6221,-0.6812,6.897,-2.930,0.549,139.290,23.862,-86.995
11982,-0.3989,0.6152,-0.6504,-1.465,-6.104,-2.869,139.241,23.928,-87.017
11992,-0.4082,0.6147,-0.6470,-6.165,-3.723,-4.272,139.153,23.989,-87.006
12002,-0.4043,0.6343,-0.6616,-6.531,2.991,-4.761,139.087,23.994,-86.946
12012,-0.3916,0.6548,-0.6948,-3.418,10.071,-5.371,139.076,23.939,-86.830
12022,-0.3779,0.6714,-0.7383,2.319,14.526,-6.165,139.147,23.840,-86.671
12032,-0.3623,0.6660,-0.7710,8.667,14.771,-7.507,139.301,23.736,-86.506
12042,-0.3594,0.6519,-0.7983,12.939,12.268,-9.338,139.510,23.659,-86.342
12052,-0.3618,0.6260,-0.8086,14.282,9.827,-10.742,139.741,23.610,-86.182
12062,-0.3809,0.5937,-0.7861,11.902,7.202,-10.681,139.944,23.599,-86.045
12072,-0.4126,0.5371,-0.7383,7.874,3.174,-10.132,140.109,23.648,-85.935
12082,-0.4326,0.5122,-0.6992,2.686,-0.916,-9.521,140.197,23.741,-85.864
12092,-0.4355,0.5073,-0.6606,-1.038,-2.380,-7.629,140.229,23.851,-85.814
12102,-0.4214,0.4990,-0.6309,-0.977,-0.977,-3.967,140.246,23.917,-85.787
12112,-0.4263,0.4985,-0.6284,1.892,1.526,0.671,140.279,23.945,-85.781
12122,-0.4233,0.5020,-0.6621,6.287,5.310,5.066,140.367,23.901,-85.787
12132,-0.4121,0.5259,-0.7021,9.644,9.644,8.362,140.488,23.791,-85.792
12142,-0.3955,0.5596,-0.7515,10.376,12.207,9.827,140.620,23.626,-85.792
12152,-0.3589,0.6089,-0.8232,7.629,13.062,9.155,140.729,23.423,-85.776
12162,-0.3291,0.6733,-0.8613,1.709,12.756,7.568,140.768,23.214,-85.754
12172,-0.3228,0.6914,-0.8306,-4.028,9.827,5.615,140.729,23.038,-85.732
12182,-0.3359,0.6743,-0.7812,-8.179,3.174,2.625,140.636,22.945,-85.732
12192,-0.3437,0.6772,-0.7627,-10.681,-3.967,-0.305,140.493,22.934,-85.759
12202,-0.3594,0.6636,-0.7412,-10.071,-7.324,-1.709,140.361,22.972,-85.792
12212,-0.3862,0.6338,-0.7021,-7.996,-7.751,-2.014,140.240,23.033,-85.831
12222,-0.4097,0.6074,-0.6777,-6.226,-7.385,-2.319,140.147,23.115,-85.864
12232,-0.4326,0.5864,-0.6641,-5.676,-6.226,-2.747,140.065,23.209,-85.880
12242,-0.4365,0.6006,-0.6646,-6.409,-3.784,-2.808,139.977,23.286,-85.886
12252,-0.4053,0.6240,-0.6807,-6.592,-0.305,-2.441,139.894,23.307,-85.869
12262,-0.3706,0.6313,-0.7183,-5.066,2.380,-2.502,139.850,23.286,-85.831
12272,-0.3569,0.6699,-0.7617,-4.395,3.540,-2.991,139.812,23.236,-85.781
12282,-0.3530,0.6978,-0.7856,-3.723,4.272,-3.174,139.785,23.181,-85.726
12292,-0.3613,0.6968,-0.7822,-2.869,3.479,-4.028,139.763,23.137,-85.666
12302,-0.3818,0.6694,-0.7549,-2.991,0.854,-5.920,139.741,23.143,-85.611
12312,-0.4111,0.6177,-0.7114,-4.150,-3.479,-8.301,139.713,23.225,-85.567
12322,-0.4336,0.5693,-0.6758,-6.104,-6.958,-10.132,139.664,23.373,-85.529
12332,-0.4478,0.5449,-0.6548,-8.118,-7.507,-10.376,139.603,23.544,-85.496
12342,-0.4390,0.5308,-0.6528,-8.179,-4.150,-9.277,139.554,23.670,-85.452
12352,-0.4150,0.5259,-0.6582,-6.042,0.732,-7.385,139.537,23.741,-85.386
12362,-0.4121,0.5347,-0.6670,-2.747,4.333,-4.883,139.559,23.758,-85.314
12372,-0.4170,0.5444,-0.6836,1.160,7.385,-2.075,139.614,23.736,-85.243
12382,-0.4131,0.5479,-0.6934,4.028,8.850,0.549,139.702,23.676,-85.182
12392,-0.3960,0.5840,-0.7119,5.066,8.911,2.380,139.779,23.588,-85.144
12402,-0.3857,0.6245,-0.7354,6.226,7.874,3.357,139.850,23.489,-85.117
12412,-0.3657,0.6724,-0.7847,7.751,6.897,3.906,139.927,23.373,-85.100
12422,-0.3437,0.6895,-0.8291,9.521,7.812,3.601,140.032,23.236,-85.073
12432,-0.3428,0.6567,-0.8247,10.498,8.179,1.831,140.169,23.110,-85.029
12442,-0.3584,0.6113,-0.7876,7.935,5.371,-1.648,140.290,23.044,-84.979
12452,-0.3813,0.5566,-0.7109,2.136,-1.038,-5.249,140.339,23.082,-84.946
12462,-0.4326,0.5068,-0.6216,-5.493,-9.216,-7.385,140.290,23.253,-84.946
12472,-0.4766,0.4810,-0.5620,-11.475,-14.404,-7.874,140.153,23.511,-84.979
12482,-0.4795,0.5156,-0.5767,-12.817,-12.634,-5.981,139.993,23.725,-85.018
12492,-0.4385,0.5967,-0.6558,-7.812,-2.075,-0.671,139.889,23.774,-85.029
12502,-0.3926,0.6626,-0.7471,2.869,12.085,5.615,139.916,23.621,-84.990
12512,-0.3433,0.7075,-0.8208,13.000,22.034,9.644,140.070,23.335,-84.913
12522,-0.3052,0.7139,-0.8540,17.761,23.437,9.827,140.279,23.011,-84.831
12532,-0.3081,0.7104,-0.8477,14.832,14.893,6.348,140.438,22.786,-84.781
12542,-0.3320,0.7109,-0.8223,5.615,2.441,1.221,140.488,22.698,-84.776
12552,-0.3638,0.6855,-0.7617,-4.150,-7.996,-3.662,140.411,22.753,-84.798
12562,-0.4219,0.6084,-0.6523,-11.597,-15.076,-7.874,140.246,22.945,-84.836
12572,-0.4556,0.5732,-0.5752,-16.113,-19.165,-10.620,140.021,23.220,-84.886
12582,-0.4727,0.5557,-0.5435,-14.526,-18.494,-10.437,139.801,23.505,-84.924
12592,-0.4844,0.5356,-0.5332,-8.484,-13.000,-7.324,139.658,23.741,-84.957
12602,-0.4897,0.5176,-0.5542,-0.854,-3.784,-3.052,139.620,23.884,-84.957
12612,-0.4424,0.5469,-0.6572,4.761,7.324,0.854,139.691,23.857,-84.913
12622,-0.3813,0.5986,-0.7729,8.118,17.822,3.784,139.834,23.676,-84.820
12632,-0.3447,0.6416,-0.8379,8.789,24.170,5.554,139.999,23.401,-84.694
12642,-0.3311,0.6655,-0.8604,6.836,24.231,4.761,140.142,23.121,-84.562
12652,-0.3218,0.6846,-0.8638,2.930,17.456,1.831,140.224,22.906,-84.457
12662,-0.3237,0.6709,-0.8398,-1.038,6.836,-2.014,140.251,22.808,-84.391
12672,-0.3477,0.6343,-0.7900,-4.150,-3.357,-5.615,140.229,22.830,-84.370
12682,-0.3623,0.6099,-0.7617,-5.493,-9.766,-7.935,140.186,22.928,-84.370
12692,-0.3794,0.5864,-0.7485,-4.517,-10.803,-8.057,140.153,23.049,-84.380
12702,-0.3818,0.5737,-0.7559,-2.502,-7.874,-6.531,140.158,23.143,-84.380
12712,-0.3682,0.5625,-0.7681,0.122,-2.930,-4.639,140.202,23.170,-84.364
12722,-0.3525,0.5474,-0.7671,1.160,-0.244,-2.808,140.262,23.165,-84.342
12732,-0.3237,0.5903,-0.7861,-0.793,-0.732,-1.587,140.284,23.132,-84.331
12742,-0.3022,0.6729,-0.8413,-3.052,-0.671,-0.854,140.268,23.066,-84.331
12752,-0.2808,0.7983,-0.8892,-5.188,2.258,-0.793,140.202,22.956,-84.309
12762,-0.2700,0.8691,-0.8774,-5.310,5.981,-2.441,140.125,22.819,-84.243
12772,-0.3296,0.7764,-0.7534,-4.822,3.967,-7.935,140.054,22.780,-84.150
12782,-0.4351,0.5889,-0.5718,-9.094,-7.751,-16.846,139.938,23.000,-84.067
12792,-0.5679,0.3726,-0.4087,-17.334,-23.132,-25.208,139.763,23.566,-84.018
12802,-0.6572,0.2080,-0.3110,-26.062,-33.691,-28.931,139.570,24.373,-84.012
12812,-0.7090,0.1416,-0.2817,-30.334,-32.715,-23.743,139.395,25.186,-84.045
12822,-0.6846,0.2031,-0.3506,-23.865,-19.043,-9.033,139.235,25.730,-84.111
12832,-0.5581,0.4009,-0.5532,-5.127,6.592,11.963,139.213,25.741,-84.161
12842,-0.3994,0.6489,-0.8267,20.691,35.767,32.776,139.433,25.208,-84.177
12852,-0.2422,0.9102,-1.0610,43.091,56.702,44.556,139.878,24.340,-84.144
12862,-0.1313,1.0225,-1.1841,58.655,58.716,43.457,140.482,23.615,-84.095
12872,-0.1040,0.9858,-1.1792,57.129,39.307,30.762,141.059,23.115,-84.078
12881,-0.1396,0.8999,-1.1006,36.865,6.592,11.230,141.411,22.994,-84.128
12892,-0.2339,0.8057,-0.9570,4.761,-26.733,-8.789,141.416,23.258,-84.238
12902,-0.3262,0.6143,-0.7280,-25.208,-51.758,-24.902,141.108,23.818,-84.375
12912,-0.4346,0.4687,-0.5039,-48.950,-65.369,-35.217,140.559,24.543,-84.523
12922,-0.5244,0.4307,-0.3735,-57.678,-62.622,-36.499,139.927,25.263,-84.655
12932,-0.5815,0.4233,-0.3257,-44.617,-44.983,-27.893,139.444,25.785,-84.738
12942,-0.6050,0.4194,-0.3350,-18.555,-18.066,-11.658,139.246,25.999,-84.771
12952,-0.5713,0.4331,-0.4341,11.353,10.010,5.127,139.373,25.889,-84.738
12962,-0.5024,0.5278,-0.6025,33.936,32.898,17.578,139.752,25.527,-84.650
12972,-0.4312,0.5879,-0.7773,44.861,46.082,23.926,140.257,25.021,-84.523
12982,-0.3477,0.6040,-0.8892,42.847,48.340,23.071,140.746,24.500,-84.375
12992,-0.2939,0.6108,-0.9307,27.222,39.124,16.052,141.075,24.093,-84.243
13002,-0.2817,0.6406,-0.9238,5.066,22.644,6.165,141.169,23.879,-84.139
13012,-0.2998,0.6704,-0.8594,-14.526,5.066,-2.502,141.042,23.857,-84.084
13022,-0.3252,0.7002,-0.8047,-23.193,-7.629,-7.141,140.817,23.961,-84.073
13032,-0.3457,0.7285,-0.7930,-19.104,-11.902,-7.568,140.620,24.099,-84.089
13042,-0.3774,0.6675,-0.7666,-6.287,-8.728,-5.310,140.548,24.203,-84.106
13052,-0.4058,0.5767,-0.7178,5.676,-4.150,-3.601,140.603,24.258,-84.106
13062,-0.4229,0.4731,-0.6611,9.766,-3.784,-2.930,140.702,24.307,-84.106
13072,-0.4482,0.4146,-0.6309,5.371,-7.263,-2.747,140.746,24.379,-84.133
13082,-0.4668,0.4331,-0.6426,-3.845,-8.301,-1.587,140.685,24.450,-84.177
13092,-0.4722,0.4741,-0.6528,-10.986,-3.845,1.465,140.565,24.472,-84.216
13102,-0.4219,0.6006,-0.7153,-11.902,4.333,5.066,140.438,24.406,-84.232
13112,-0.3584,0.7104,-0.7935,-4.395,13.672,8.789,140.400,24.247,-84.210
13122,-0.3315,0.7563,-0.8203,5.981,18.372,11.047,140.477,24.033,-84.172
13132,-0.3286,0.7339,-0.8174,13.367,15.076,9.399,140.620,23.857,-84.150
13142,-0.3423,0.6924,-0.8013,14.526,5.615,5.127,140.762,23.780,-84.155
13152,-0.3652,0.6377,-0.7544,8.911,-4.883,0.732,140.839,23.813,-84.194
13162,-0.3975,0.5557,-0.6929,0.854,-12.573,-2.380,140.817,23.928,-84.260
13172,-0.4243,0.5098,-0.6636,-6.714,-15.015,-3.906,140.724,24.071,-84.331
13182,-0.4385,0.5059,-0.6636,-9.521,-12.085,-3.418,140.603,24.186,-84.386
13192,-0.4434,0.4995,-0.6704,-7.568,-5.005,-1.038,140.521,24.230,-84.413
13202,-0.4214,0.5264,-0.6860,-4.028,1.831,2.136,140.477,24.203,-84.419
13212,-0.3784,0.5908,-0.7393,0.122,5.310,5.493,140.477,24.126,-84.424
13222,-0.3594,0.6377,-0.7871,5.127,5.066,8.667,140.510,24.033,-84.463
13232,-0.3530,0.6587,-0.8096,9.094,2.930,10.254,140.576,23.945,-84.529
13242,-0.3437,0.6675,-0.8101,10.803,-0.305,9.644,140.647,23.884,-84.611
13252,-0.3394,0.6753,-0.7939,10.254,-4.700,7.751,140.713,23.873,-84.710
13262,-0.3496,0.6772,-0.7690,8.362,-8.789,5.371,140.751,23.906,-84.820
13272,-0.3633,0.6475,-0.7236,5.310,-11.414,2.563,140.762,23.978,-84.919
13282,-0.3784,0.5952,-0.6611,0.854,-13.184,-0.732,140.735,24.082,-85.001
13292,-0.4038,0.5771,-0.6367,-3.906,-14.282,-3.784,140.669,24.219,-85.073
13302,-0.4258,0.5718,-0.6475,-6.714,-12.695,-5.188,140.587,24.351,-85.117
13312,-0.4360,0.5649,-0.6670,-6.409,-7.874,-4.578,140.515,24.439,-85.133
13322,-0.4375,0.5659,-0.6948,-4.211,-1.526,-2.747,140.477,24.472,-85.117
13332,-0.4277,0.5742,-0.7275,-0.244,3.113,-0.244,140.488,24.445,-85.095
13342,-0.4146,0.5596,-0.7471,3.723,4.272,2.563,140.526,24.395,-85.089
13352,-0.4082,0.5415,-0.7407,6.287,1.465,4.883,140.576,24.357,-85.117
13362,-0.4116,0.5269,-0.7329,7.202,-2.686,6.531,140.620,24.335,-85.193
13372,-0.4165,0.5278,-0.7363,6.958,-5.005,8.484,140.680,24.324,-85.298
13382,-0.4170,0.5537,-0.7437,5.615,-4.089,10.803,140.713,24.285,-85.419
13392,-0.3999,0.6001,-0.7588,4.211,-0.977,12.207,140.718,24.197,-85.529
13402,-0.3696,0.6523,-0.7861,3.418,1.953,11.780,140.713,24.066,-85.616
13412,-0.3325,0.6987,-0.8066,2.869,1.831,9.705,140.696,23.923,-85.688
13422,-0.3081,0.7324,-0.8188,1.953,-1.099,6.897,140.669,23.807,-85.754
13432,-0.3086,0.7485,-0.8154,0.793,-5.859,3.845,140.614,23.747,-85.825
13442,-0.3286,0.7510,-0.7920,-0.366,-9.766,0.916,140.537,23.747,-85.902
13452,-0.3691,0.7236,-0.7397,-1.526,-12.146,-2.014,140.449,23.807,-85.968
13462,-0.4160,0.6807,-0.6831,-3.235,-13.611,-5.432,140.339,23.945,-86.017
13472,-0.4492,0.6436,-0.6328,-5.859,-13.794,-8.606,140.219,24.126,-86.039
13482,-0.4619,0.5820,-0.5767,-7.751,-12.695,-10.925,140.087,24.346,-86.039
13492,-0.4756,0.5225,-0.5337,-10.071,-11.536,-12.329,139.949,24.593,-86.012
13502,-0.4785,0.5225,-0.5591,-12.024,-8.972,-12.573,139.818,24.813,-85.974
13512,-0.4551,0.5713,-0.6357,-12.146,-3.174,-11.169,139.713,24.944,-85.902
13522,-0.4258,0.6226,-0.7046,-9.827,4.578,-8.911,139.647,24.961,-85.792
13532,-0.4019,0.6626,-0.7568,-6.348,9.460,-7.751,139.631,24.906,-85.660
13542,-0.3750,0.6968,-0.8125,-2.136,9.155,-8.362,139.664,24.835,-85.523
13552,-0.3604,0.6914,-0.8438,1.648,5.737,-9.949,139.741,24.791,-85.402
13562,-0.3677,0.6255,-0.8008,0.732,-1.038,-10.620,139.807,24.818,-85.320
13572,-0.4092,0.5430,-0.7329,-4.150,-10.742,-11.902,139.812,24.966,-85.292
13582,-0.4468,0.4912,-0.6758,-10.254,-18.616,-13.306,139.741,25.225,-85.314
13592,-0.4624,0.4546,-0.6289,-14.954,-21.973,-13.062,139.620,25.532,-85.364
13602,-0.4785,0.4478,-0.5967,-15.625,-19.226,-10.437,139.477,25.812,-85.413
13612,-0.4868,0.4409,-0.5737,-11.902,-11.108,-5.615,139.378,26.016,-85.446
13622,-0.4863,0.4429,-0.5645,-5.859,-0.671,0.305,139.340,26.098,-85.452
13632,-0.4624,0.4634,-0.5898,0.916,8.850,6.042,139.378,26.049,-85.441
13642,-0.4175,0.5342,-0.6660,6.470,15.381,10.254,139.471,25.867,-85.413
13652,-0.3540,0.6777,-0.8076,10.193,20.813,12.573,139.598,25.554,-85.369
13662,-0.2959,0.8032,-0.9297,12.634,26.306,13.184,139.752,25.153,-85.292
13672,-0.2690,0.9038,-0.9863,11.719,27.100,11.169,139.889,24.741,-85.193
13682,-0.2627,0.9561,-0.9795,9.888,20.142,6.042,139.982,24.412,-85.100
13692,-0.2793,0.9033,-0.9185,8.362,5.798,-1.587,140.043,24.252,-85.045
13702,-0.3511,0.7500,-0.7891,3.723,-13.733,-11.047,140.043,24.362,-85.051
13712,-0.4277,0.5996,-0.6650,-6.042,-31.311,-20.386,139.938,24.741,-85.100
13722,-0.4854,0.5088,-0.5786,-16.968,-39.856,-25.269,139.730,25.280,-85.172
13732,-0.5225,0.4341,-0.5000,-24.109,-36.621,-24.109,139.460,25.840,-85.226
13742,-0.5459,0.3779,-0.4307,-25.513,-24.658,-19.409,139.197,26.329,-85.243
13752,-0.5659,0.3843,-0.4053,-20.447,-9.399,-12.390,138.983,26.669,-85.204
13762,-0.5718,0.3970,-0.4312,-7.568,5.920,-2.869,138.922,26.823,-85.139
13772,-0.5610,0.3887,-0.4819,7.812,18.494,7.263,139.054,26.790,-85.062
13782,-0.5269,0.3862,-0.5601,19.165,26.733,14.893,139.340,26.603,-84.990
13792,-0.4707,0.4419,-0.6802,23.926,29.663,18.616,139.675,26.296,-84.935
13802,-0.4058,0.5376,-0.8027,21.606,30.029,20.752,139.971,25.900,-84.891
13812,-0.3350,0.6528,-0.9238,16.907,29.663,21.545,140.202,25.444,-84.864
13822,-0.2583,0.7842,-1.0356,11.963,28.809,20.020,140.361,24.955,-84.831
13832,-0.2026,0.8706,-1.0913,8.850,25.574,16.174,140.477,24.494,-84.787
13842,-0.1841,0.8926,-1.0742,7.874,17.578,10.193,140.565,24.126,-84.754
13852,-0.2046,0.8770,-1.0068,7.629,4.150,2.747,140.630,23.923,-84.749
13862,-0.2681,0.8120,-0.9121,7.263,-10.742,-4.089,140.663,23.917,-84.787
13872,-0.3403,0.6860,-0.7891,5.798,-21.545,-8.789,140.674,24.077,-84.864
13882,-0.4072,0.5571,-0.6641,2.869,-27.954,-12.024,140.658,24.379,-84.952
13892,-0.4668,0.4731,-0.5688,0.305,-29.846,-12.939,140.614,24.763,-85.051
13902,-0.4995,0.4395,-0.5215,0.183,-25.208,-10.437,140.576,25.137,-85.139
13913,-0.5039,0.4478,-0.5137,2.991,-15.686,-5.371,140.559,25.406,-85.204
13922,-0.5005,0.4687,-0.5337,7.385,-4.150,-0.061,140.603,25.538,-85.232
13932,-0.4961,0.4922,-0.5649,10.010,5.920,4.028,140.685,25.543,-85.226
13942,-0.4790,0.5093,-0.6001,10.925,13.123,5.798,140.806,25.466,-85.182
13952,-0.4644,0.5234,-0.6475,8.362,16.724,4.944,140.922,25.345,-85.106
13962,-0.4424,0.5698,-0.7017,2.319,17.273,3.052,140.982,25.197,-85.012
13972,-0.4248,0.6152,-0.7329,-3.784,16.846,1.648,140.982,25.049,-84.908
13982,-0.4121,0.6646,-0.7505,-6.714,15.137,1.282,140.927,24.895,-84.814
13992,-0.3945,0.6948,-0.7666,-4.395,12.512,1.770,140.883,24.747,-84.743
14002,-0.3750,0.6934,-0.7695,0.549,8.606,2.075,140.878,24.620,-84.705
14012,-0.3672,0.6782,-0.7749,5.249,3.662,1.160,140.916,24.532,-84.688
14022,-0.3779,0.6606,-0.7739,7.263,0.488,-0.305,140.977,24.489,-84.683
14032,-0.3857,0.6274,-0.7534,6.287,0.427,-1.953,141.037,24.472,-84.661
14042,-0.3931,0.5908,-0.7305,1.892,1.709,-4.272,141.075,24.467,-84.611
14052,-0.3921,0.5806,-0.7231,-4.089,2.686,-6.409,141.064,24.472,-84.540
14062,-0.3960,0.5757,-0.7207,-8.179,4.089,-6.958,141.026,24.467,-84.452
14072,-0.4126,0.5557,-0.6963,-8.789,5.066,-6.775,140.982,24.478,-84.359
14082,-0.4243,0.5381,-0.6729,-7.568,4.089,-6.165,140.944,24.500,-84.276
14092,-0.4346,0.5332,-0.6748,-5.066,3.296,-5.127,140.927,24.532,-84.210
14102,-0.4399,0.5166,-0.6792,-2.014,3.845,-3.357,140.949,24.549,-84.155
14112,-0.4180,0.5107,-0.6914,0.122,5.066,-2.014,140.999,24.538,-84.106
14122,-0.4023,0.5278,-0.7119,1.160,5.981,-0.488,141.048,24.494,-84.056
14132,-0.3989,0.5601,-0.7456,2.075,8.057,1.709,141.108,24.406,-84.018
14143,-0.3711,0.6035,-0.7988,3.357,11.292,3.357,141.180,24.258,-83.969
14152,-0.3408,0.6499,-0.8608,3.723,13.367,3.662,141.257,24.066,-83.908
14162,-0.3179,0.6704,-0.8950,2.686,12.634,2.502,141.334,23.868,-83.842
14172,-0.3271,0.6689,-0.8862,0.000,8.301,0.000,141.372,23.730,-83.787
14182,-0.3252,0.6523,-0.8452,-3.723,1.160,-3.174,141.356,23.676,-83.749
14192,-0.3437,0.6260,-0.7959,-7.629,-6.958,-6.287,141.290,23.719,-83.743
14202,-0.3682,0.6006,-0.7607,-12.024,-11.841,-9.033,141.174,23.835,-83.749
14212,-0.3848,0.5894,-0.7256,-15.442,-12.085,-10.620,141.021,23.978,-83.743
14222,-0.3994,0.5884,-0.6953,-15.442,-9.583,-9.460,140.861,24.109,-83.727
14232,-0.4224,0.5659,-0.6650,-10.742,-7.080,-6.531,140.746,24.225,-83.721
14242,-0.4321,0.5303,-0.6206,-4.883,-6.897,-3.479,140.674,24.335,-83.738
14252,-0.4434,0.5283,-0.5977,-1.160,-8.240,-0.977,140.620,24.450,-83.787
14262,-0.4546,0.5522,-0.6060,1.587,-8.362,1.221,140.581,24.554,-83.853
14272,-0.4629,0.5776,-0.6250,3.052,-5.859,3.235,140.548,24.615,-83.925
14282,-0.4570,0.6143,-0.6660,3.113,-1.892,4.028,140.526,24.626,-83.974
14292,-0.4170,0.6729,-0.7363,3.479,3.784,3.296,140.532,24.560,-83.974
14302,-0.3838,0.7261,-0.7974,4.395,8.850,2.014,140.565,24.428,-83.930
14312,-0.3633,0.7451,-0.8315,5.493,10.681,0.366,140.625,24.280,-83.859
14322,-0.3589,0.7187,-0.8311,5.615,8.179,-2.136,140.696,24.170,-83.782
14332,-0.3638,0.6611,-0.7812,3.052,1.648,-5.798,140.740,24.148,-83.721
14342,-0.3848,0.6211,-0.7236,-2.258,-7.263,-9.399,140.718,24.241,-83.694
14352,-0.4097,0.6084,-0.6919,-6.409,-12.512,-10.620,140.636,24.401,-83.688
14362,-0.4238,0.5894,-0.6743,-6.470,-11.047,-9.949,140.554,24.554,-83.683
14372,-0.4297,0.5669,-0.6675,-3.906,-5.005,-8.789,140.526,24.664,-83.639
14382,-0.4341,0.5376,-0.6724,-1.038,1.343,-7.751,140.554,24.725,-83.568
14392,-0.4438,0.4917,-0.6641,-0.366,4.700,-6.897,140.620,24.769,-83.474
14402,-0.4497,0.4453,-0.6318,-2.258,5.066,-6.287,140.674,24.824,-83.386
14412,-0.4634,0.4429,-0.6128,-5.188,4.211,-4.333,140.685,24.884,-83.320
14422,-0.4687,0.4590,-0.6221,-5.127,5.371,-0.244,140.680,24.906,-83.282
14432,-0.4507,0.4941,-0.6582,-0.977,9.033,4.761,140.702,24.846,-83.260
14442,-0.4150,0.5771,-0.7378,6.042,13.489,9.521,140.779,24.675,-83.243
14452,-0.3745,0.6646,-0.8291,14.893,16.724,13.245,140.933,24.412,-83.243
14462,-0.3398,0.7139,-0.9053,22.705,16.541,14.771,141.163,24.109,-83.254
14472,-0.3057,0.7324,-0.9443,26.184,11.353,13.367,141.416,23.846,-83.287
14482,-0.2900,0.6626,-0.9282,24.231,1.709,9.644,141.658,23.676,-83.359
14492,-0.3149,0.6289,-0.8848,13.916,-9.338,4.028,141.790,23.648,-83.458
14502,-0.3384,0.6455,-0.8315,0.061,-15.381,-0.549,141.751,23.714,-83.557
14512,-0.3726,0.6221,-0.7407,-9.216,-15.259,-3.052,141.614,23.824,-83.633
14522,-0.4009,0.5830,-0.6328,-13.855,-13.794,-4.578,141.411,23.972,-83.688
14532,-0.4355,0.5820,-0.5674,-12.268,-13.245,-4.456,141.196,24.142,-83.738
14542,-0.4771,0.5708,-0.5508,-3.052,-10.376,-0.427,141.070,24.296,-83.809
14552,-0.4824,0.5381,-0.5869,10.254,-4.211,6.104,141.103,24.357,-83.886
14562,-0.4697,0.4844,-0.6440,22.461,2.625,11.475,141.312,24.324,-83.969
14572,-0.4385,0.4634,-0.6870,25.818,6.470,14.709,141.581,24.219,-84.051
14582,-0.3755,0.5273,-0.7759,20.142,6.287,15.686,141.784,24.049,-84.144
14592,-0.3198,0.6514,-0.8765,9.766,5.554,14.343,141.861,23.840,-84.227
14602,-0.3052,0.7632,-0.9097,-1.404,5.920,10.925,141.806,23.637,-84.282
14612,-0.3110,0.8037,-0.8677,-8.240,4.028,5.066,141.674,23.483,-84.298
14622,-0.3647,0.7256,-0.7593,-9.399,-3.235,-2.258,141.526,23.478,-84.298
14632,-0.4307,0.6113,-0.6411,-9.521,-13.977,-8.606,141.372,23.665,-84.320
14643,-0.4849,0.5029,-0.5425,-9.033,-21.179,-12.634,141.224,24.005,-84.359
14652,-0.5386,0.3516,-0.4595,-7.446,-21.667,-13.062,141.152,24.439,-84.397
14662,-0.5737,0.2842,-0.4468,-7.690,-15.137,-9.644,141.130,24.846,-84.419
14672,-0.5635,0.3081,-0.5005,-6.409,-0.671,-2.563,141.147,25.054,-84.402
14682,-0.5112,0.3765,-0.5962,-2.136,17.212,5.981,141.218,24.994,-84.331
14692,-0.4302,0.5034,-0.7515,2.319,31.372,12.695,141.334,24.681,-84.227
14702,-0.3022,0.7290,-0.9644,5.615,39.307,16.785,141.460,24.164,-84.100
14712,-0.1816,0.9150,-1.1426,10.376,41.382,17.700,141.614,23.566,-83.969
14722,-0.1240,0.9722,-1.2017,13.123,34.912,13.794,141.790,23.203,-83.848
14732,-0.1353,0.9175,-1.1489,11.780,16.541,5.005,141.938,23.044,-83.782
14742,-0.1938,0.8022,-1.0122,5.432,-10.132,-5.737,141.982,23.159,-83.798
14752,-0.2930,0.6006,-0.7881,-3.296,-34.485,-14.587,141.910,23.522,-83.908
14762,-0.4360,0.3970,-0.5464,-14.343,-51.086,-19.836,141.696,24.044,-84.078
14772,-0.5430,0.3389,-0.4238,-22.644,-54.626,-18.982,141.383,24.593,-84.287
14782,-0.5850,0.3115,-0.3872,-17.822,-40.649,-11.475,141.130,24.983,-84.468
14792,-0.5698,0.3496,-0.4624,-4.333,-15.076,-1.831,141.053,25.109,-84.556
14802,-0.5034,0.4658,-0.6162,6.592,11.780,6.653,141.125,24.977,-84.529
14812,-0.4253,0.5815,-0.7710,14.221,30.457,11.902,141.317,24.664,-84.424
14822,-0.3491,0.6523,-0.8647,14.221,35.706,13.306,141.515,24.302,-84.293
14832,-0.3115,0.6909,-0.8774,8.667,26.367,10.559,141.636,24.033,-84.199
14842,-0.3262,0.7197,-0.8501,1.526,8.972,6.348,141.652,23.923,-84.194
14852,-0.3599,0.6968,-0.7925,-0.854,-5.310,3.052,141.619,23.945,-84.260
14862,-0.4019,0.5937,-0.6929,1.343,-12.817,0.488,141.597,24.044,-84.348
14872,-0.4551,0.4849,-0.5977,2.808,-15.076,-1.404,141.586,24.170,-84.441
14882,-0.5156,0.3760,-0.5361,2.563,-13.123,-1.831,141.581,24.280,-84.512
14892,-0.5342,0.3418,-0.5474,-0.244,-6.836,0.488,141.559,24.335,-84.562
14902,-0.4766,0.4033,-0.6338,-2.075,4.883,5.737,141.531,24.258,-84.578
14912,-0.3960,0.5239,-0.7495,0.305,16.907,11.902,141.542,24.055,-84.567
14922,-0.2993,0.7129,-0.8979,3.967,23.682,16.724,141.586,23.763,-84.551
14932,-0.2104,0.8901,-1.0103,7.812,24.231,18.188,141.669,23.461,-84.540
14942,-0.1919,0.9531,-1.0142,10.376,17.395,15.015,141.768,23.231,-84.551
14952,-0.2314,0.9253,-0.9458,9.460,3.113,6.714,141.850,23.165,-84.589
14962,-0.3311,0.7803,-0.7915,5.188,-12.878,-3.906,141.883,23.291,-84.639
14972,-0.4312,0.5884,-0.6138,-2.258,-25.757,-13.306,141.833,23.577,-84.699
14982,-0.5107,0.4829,-0.4980,-10.559,-30.151,-17.700,141.707,23.923,-84.749
14992,-0.5459,0.4189,-0.4453,-12.817,-23.315,-15.564,141.570,24.203,-84.776
15002,-0.5215,0.3735,-0.4424,-9.460,-8.057,-9.644,141.487,24.324,-84.749
15012,-0.4849,0.4292,-0.5239,-3.052,8.789,-2.625,141.493,24.269,-84.666
15022,-0.4351,0.5117,-0.6680,6.042,22.156,4.517,141.597,24.071,-84.551
15032,-0.3770,0.6099,-0.8135,12.878,30.334,9.827,141.773,23.769,-84.430
15042,-0.3276,0.6772,-0.9346,15.503,31.311,11.108,141.976,23.456,-84.315
15052,-0.2930,0.7197,-1.0171,13.428,26.428,8.240,142.152,23.198,-84.205
15062,-0.2705,0.7285,-1.0405,7.446,17.029,2.747,142.262,23.044,-84.117
15072,-0.2705,0.7017,-0.9839,-0.427,4.089,-3.418,142.284,23.033,-84.062
15082,-0.2954,0.6611,-0.9014,-6.775,-9.827,-8.301,142.218,23.165,-84.056
15092,-0.3306,0.5928,-0.8066,-8.972,-19.470,-10.925,142.114,23.384,-84.089
15102,-0.3608,0.4878,-0.6733,-9.338,-24.353,-11.719,141.993,23.648,-84.150
15112,-0.4141,0.4150,-0.5601,-11.169,-27.161,-11.169,141.850,23.934,-84.238
15122,-0.4658,0.4146,-0.5391,-11.597,-24.048,-8.179,141.696,24.170,-84.331
15132,-0.4805,0.4390,-0.5625,-8.545,-12.085,-2.014,141.581,24.280,-84.397
15143,-0.4756,0.4653,-0.6201,-1.892,3.845,4.395,141.559,24.219,-84.408
15152,-0.4526,0.5215,-0.6978,3.967,16.418,8.484,141.614,24.038,-84.370
15162,-0.4077,0.5820,-0.7671,6.958,20.752,10.376,141.707,23.813,-84.315
15172,-0.3691,0.6279,-0.8057,7.690,16.418,10.681,141.790,23.615,-84.298
15182,-0.3574,0.6587,-0.8062,6.287,7.263,9.766,141.839,23.500,-84.331
15192,-0.3540,0.6763,-0.7939,4.883,-0.793,7.996,141.861,23.456,-84.408
15202,-0.3467,0.6689,-0.7817,4.211,-4.822,5.920,141.866,23.456,-84.490
15212,-0.3516,0.6602,-0.7769,3.235,-4.761,3.662,141.877,23.472,-84.551
15222,-0.3662,0.6431,-0.7651,1.892,-2.075,1.587,141.866,23.445,-84.578
15232,-0.3774,0.6338,-0.7607,0.183,0.183,0.122,141.850,23.417,-84.578
15242,-0.3828,0.6172,-0.7554,-0.610,0.671,-0.610,141.833,23.395,-84.567
15252,-0.4004,0.5786,-0.7329,0.061,-0.671,-0.366,141.833,23.401,-84.573
15262,-0.3994,0.5454,-0.7266,1.343,-1.770,0.793,141.855,23.412,-84.589
15272,-0.3828,0.5171,-0.7080,1.404,-0.916,2.625,141.877,23.406,-84.617
15282,-0.3940,0.5205,-0.7080,0.305,0.427,4.089,141.883,23.384,-84.650
15292,-0.3813,0.5610,-0.7524,-0.488,3.967,5.188,141.888,23.313,-84.666
15302,-0.3872,0.5811,-0.7603,0.122,8.545,5.798,141.899,23.198,-84.661
15312,-0.3955,0.5977,-0.7515,0.977,10.376,6.531,141.910,23.066,-84.644
15322,-0.3979,0.5937,-0.7520,3.296,8.301,6.226,141.938,22.961,-84.644
15332,-0.4043,0.5532,-0.7139,5.371,3.357,5.310,141.987,22.912,-84.666
15342,-0.3931,0.5474,-0.6895,5.127,-2.869,4.700,142.009,22.917,-84.727
15352,-0.3628,0.6006,-0.7422,3.967,-4.333,5.066,142.015,22.901,-84.798
15362,-0.3213,0.6602,-0.8101,2.869,0.610,5.127,142.015,22.808,-84.836
15372,-0.2769,0.7383,-0.8818,0.427,6.714,2.869,142.004,22.643,-84.820
15382,-0.2578,0.7905,-0.9185,-2.808,9.766,-1.465,141.982,22.467,-84.743
15392,-0.2920,0.7764,-0.8818,-5.859,7.751,-6.592,141.932,22.363,-84.633
15402,-0.3701,0.6665,-0.7651,-8.301,-0.122,-11.963,141.855,22.412,-84.534
15412,-0.4404,0.5405,-0.6323,-10.315,-11.047,-16.418,141.757,22.654,-84.468
15422,-0.4995,0.4507,-0.5420,-11.597,-18.250,-17.090,141.636,23.027,-84.441
15432,-0.5356,0.3843,-0.4897,-9.705,-17.639,-13.794,141.542,23.428,-84.446
15442,-0.5273,0.3584,-0.4990,-5.554,-9.583,-7.263,141.509,23.719,-84.446
15452,-0.5010,0.3433,-0.5298,-0.183,2.136,0.488,141.570,23.846,-84.435
15462,-0.4458,0.4170,-0.6260,4.211,13.550,7.141,141.669,23.763,-84.408
15472,-0.3589,0.5522,-0.7856,7.385,24.170,12.573,141.801,23.467,-84.348
15482,-0.2920,0.6787,-0.9092,9.277,31.189,15.503,141.938,23.038,-84.271
15492,-0.2183,0.8140,-1.0400,9.277,31.067,14.648,142.059,22.571,-84.188
15502,-0.1562,0.9102,-1.1348,8.301,24.658,9.766,142.163,22.154,-84.111
15512,-0.1455,0.9058,-1.1167,6.348,12.329,1.770,142.240,21.885,-84.045
15522,-0.1895,0.8296,-1.0156,1.404,-5.920,-7.629,142.251,21.841,-84.018
15532,-0.2715,0.6938,-0.8657,-5.371,-25.330,-16.479,142.174,22.061,-84.045
15542,-0.3672,0.5117,-0.6846,-13.000,-39.856,-22.461,142.031,22.516,-84.117
15552,-0.4663,0.4023,-0.5444,-20.874,-46.082,-24.109,141.801,23.143,-84.216
15562,-0.5498,0.3359,-0.4492,-22.766,-40.833,-20.508,141.553,23.802,-84.315
15572,-0.6045,0.2852,-0.3726,-18.250,-26.978,-12.756,141.350,24.373,-84.391
15582,-0.6279,0.2856,-0.3560,-8.667,-10.071,-3.052,141.246,24.769,-84.435
15592,-0.6084,0.2915,-0.3809,3.174,6.531,7.080,141.284,24.944,-84.446
15602,-0.5571,0.3418,-0.4580,12.329,19.409,16.235,141.422,24.884,-84.457
15612,-0.4741,0.4609,-0.6030,17.517,28.748,23.926,141.603,24.587,-84.463
15622,-0.3740,0.6094,-0.7871,19.958,37.109,29.297,141.812,24.077,-84.463
15632,-0.2461,0.7979,-1.0015,19.958,43.640,30.396,142.020,23.423,-84.430
15643,-0.1382,0.9312,-1.1479,17.944,44.556,25.940,142.213,22.736,-84.353
15652,-0.0664,1.0410,-1.2466,13.123,35.522,16.541,142.383,22.352,-84.260
15662,-0.0503,1.0439,-1.2407,7.568,18.005,4.028,142.487,22.187,-84.172
15672,-0.1099,0.9351,-1.1113,-0.427,-5.920,-9.705,142.504,22.291,-84.128
15682,-0.2285,0.7471,-0.9009,-11.047,-31.189,-22.339,142.388,22.676,-84.144
15692,-0.3613,0.5459,-0.6890,-21.301,-50.415,-31.067,142.147,23.264,-84.210
15702,-0.4761,0.4058,-0.5259,-29.053,-59.509,-33.508,141.812,23.939,-84.320
15712,-0.5503,0.3203,-0.4316,-29.053,-54.077,-29.053,141.476,24.543,-84.435
15722,-0.5737,0.2817,-0.3931,-19.897,-35.278,-19.226,141.246,24.939,-84.512
15732,-0.5815,0.2725,-0.3882,-6.714,-11.536,-6.836,141.169,25.071,-84.534
15742,-0.5669,0.2959,-0.4165,5.066,8.118,4.883,141.229,24.977,-84.518
15752,-0.5347,0.3501,-0.4863,11.353,20.630,14.160,141.350,24.730,-84.496
15762,-0.4897,0.4365,-0.5981,13.794,27.466,19.958,141.493,24.390,-84.479
15772,-0.4131,0.5557,-0.7329,12.817,32.593,23.132,141.630,23.989,-84.457
15782,-0.3467,0.6611,-0.8491,11.475,35.706,24.048,141.762,23.560,-84.419
15792,-0.2954,0.7490,-0.9370,9.338,36.072,22.339,141.877,23.137,-84.370
15802,-0.2207,0.8389,-1.0093,6.714,32.715,18.372,141.965,22.769,-84.304
15812,-0.1680,0.8706,-1.0269,4.944,25.635,13.184,142.042,22.484,-84.249
15822,-0.1987,0.8486,-0.9893,2.625,14.160,6.592,142.081,22.335,-84.210
15832,-0.2578,0.7661,-0.8877,-0.244,0.000,-0.854,142.081,22.341,-84.199
15842,-0.3271,0.6597,-0.7822,-3.906,-14.954,-7.690,142.031,22.505,-84.238
15852,-0.3911,0.5659,-0.6909,-8.057,-26.611,-12.024,141.921,22.786,-84.309
15862,-0.4492,0.4790,-0.6133,-10.132,-31.494,-13.306,141.779,23.115,-84.408
15872,-0.4824,0.4268,-0.5737,-9.766,-29.297,-11.902,141.647,23.423,-84.501
15882,-0.4868,0.4355,-0.5869,-5.981,-18.860,-8.118,141.564,23.621,-84.562
15892,-0.4521,0.4814,-0.6445,-0.244,-2.625,-2.441,141.564,23.654,-84.556
15902,-0.3965,0.5469,-0.7041,4.761,11.902,3.052,141.630,23.544,-84.501
15914,-0.3730,0.5845,-0.7441,9.460,18.005,5.554,141.757,23.368,-84.430
15922,-0.3633,0.5874,-0.7505,10.559,14.587,5.249,141.883,23.220,-84.375
15932,-0.3633,0.5967,-0.7529,8.362,4.883,2.991,141.971,23.165,-84.370
15942,-0.3618,0.6045,-0.7700,5.310,-3.906,0.671,142.009,23.192,-84.402
15952,-0.3540,0.6240,-0.8027,2.930,-6.348,-0.671,142.026,23.242,-84.435
15962,-0.3467,0.6294,-0.8232,2.258,-1.648,-1.282,142.048,23.264,-84.435
15972,-0.3340,0.5859,-0.7793,1.587,2.502,-1.648,142.075,23.258,-84.408
15982,-0.3467,0.5605,-0.7197,-1.282,1.160,-2.258,142.075,23.258,-84.380
15992,-0.3662,0.5767,-0.6997,-4.761,-1.953,-2.808,142.031,23.291,-84.370
16002,-0.3906,0.5825,-0.6963,-5.310,-3.479,-2.991,141.976,23.340,-84.364
16012,-0.4194,0.5674,-0.6924,-5.249,-2.686,-2.686,141.927,23.379,-84.359
16022,-0.4341,0.5376,-0.6885,-5.737,-1.526,-2.869,141.877,23.406,-84.348
16032,-0.4312,0.5381,-0.7017,-7.080,-1.648,-2.991,141.812,23.439,-84.331
16042,-0.4048,0.5479,-0.7275,-6.897,-2.502,-1.953,141.740,23.467,-84.331
16052,-0.3574,0.6074,-0.7871,-5.127,-2.686,0.000,141.685,23.489,-84.348
16062,-0.3022,0.6816,-0.8472,-1.404,-2.197,1.526,141.658,23.500,-84.375
16072,-0.2812,0.7109,-0.8496,2.869,-5.005,1.099,141.669,23.533,-84.419
16082,-0.2861,0.7266,-0.8408,4.333,-11.414,-1.526,141.685,23.632,-84.485
16092,-0.2974,0.7129,-0.8286,3.723,-15.747,-5.371,141.702,23.785,-84.545
16102,-0.3521,0.6362,-0.7676,0.854,-16.602,-9.155,141.696,23.972,-84.578
16112,-0.4106,0.5347,-0.6802,-3.662,-15.869,-12.695,141.658,24.175,-84.578
16122,-0.4336,0.5015,-0.6479,-8.423,-14.587,-14.343,141.586,24.379,-84.556
16132,-0.4316,0.4985,-0.6572,-10.437,-12.207,-12.085,141.487,24.549,-84.534
16143,-0.4248,0.5068,-0.6743,-7.812,-9.338,-6.653,141.405,24.664,-84.540
16152,-0.4009,0.5435,-0.7139,-2.747,-6.531,-0.183,141.361,24.719,-84.584
16163,-0.3774,0.5835,-0.7720,4.028,-3.357,5.920,141.389,24.675,-84.655
16173,-0.3647,0.6230,-0.8188,10.254,-1.038,10.498,141.460,24.565,-84.754
16183,-0.3584,0.6230,-0.8286,15.076,0.427,13.000,141.581,24.428,-84.864
16193,-0.3774,0.5732,-0.7788,15.930,-0.793,12.756,141.713,24.324,-84.979
16203,-0.3979,0.5444,-0.7295,12.085,-4.150,10.376,141.801,24.285,-85.095
16213,-0.4082,0.5464,-0.7114,7.141,-6.592,8.789,141.828,24.285,-85.215
16223,-0.4067,0.5537,-0.7021,4.517,-7.690,9.644,141.817,24.285,-85.353
16233,-0.3965,0.5693,-0.7007,5.127,-8.423,12.146,141.795,24.274,-85.512
16243,-0.3848,0.6025,-0.7061,9.216,-8.850,14.526,141.784,24.236,-85.699
16253,-0.3823,0.6235,-0.7241,16.113,-7.996,15.137,141.844,24.181,-85.886
16263,-0.3843,0.6162,-0.7388,21.057,-5.798,13.611,141.971,24.115,-86.039
16273,-0.3906,0.6133,-0.7490,22.217,-2.563,10.010,142.136,24.055,-86.144
16283,-0.3999,0.6118,-0.7603,20.142,3.113,5.920,142.317,23.978,-86.177
16293,-0.4023,0.6108,-0.7695,15.686,9.460,2.930,142.476,23.868,-86.138
16303,-0.3867,0.6128,-0.7803,9.338,13.123,1.160,142.597,23.730,-86.061
16313,-0.3687,0.6079,-0.7739,4.578,12.878,-0.610,142.668,23.604,-85.968
16323,-0.3555,0.6128,-0.7627,1.587,8.606,-2.991,142.701,23.516,-85.886
16333,-0.3530,0.6353,-0.7666,0.183,2.075,-4.578,142.701,23.489,-85.831
16343,-0.3604,0.6396,-0.7710,0.854,-2.441,-5.493,142.701,23.505,-85.798
16353,-0.3589,0.6309,-0.7856,1.831,-3.723,-6.653,142.718,23.533,-85.765
16363,-0.3496,0.6201,-0.7993,1.343,-2.747,-8.179,142.745,23.560,-85.715
