elapsed_ms,acc_x_g,acc_y_g,acc_z_g,gyro_x_dps,gyro_y_dps,gyro_z_dps,angle_x_deg,angle_y_deg,angle_z_deg
0,-0.3354,0.5049,-0.7617,-1.709,-7.568,0.488,147.739,19.281,-101.728
11,-0.3364,0.5068,-0.7510,-2.563,-5.920,0.916,147.684,19.336,-101.766
20,-0.3403,0.5088,-0.7505,-2.991,-4.089,1.221,147.623,19.374,-101.799
30,-0.3452,0.5083,-0.7554,-3.235,-2.197,1.404,147.568,19.402,-101.827
40,-0.3442,0.5103,-0.7725,-4.028,-0.183,1.526,147.513,19.407,-101.843
50,-0.3335,0.5278,-0.8022,-5.493,1.648,1.526,147.448,19.380,-101.843
60,-0.3237,0.5439,-0.8374,-5.737,2.502,1.343,147.387,19.336,-101.843
70,-0.3203,0.5542,-0.8594,-4.639,1.465,0.549,147.338,19.303,-101.838
80,-0.3169,0.5508,-0.8750,-3.723,-1.587,-0.854,147.305,19.297,-101.843
90,-0.3174,0.5425,-0.8853,-3.784,-5.920,-2.686,147.277,19.341,-101.854
100,-0.3184,0.5327,-0.8848,-4.822,-10.864,-5.066,147.239,19.435,-101.871
110,-0.3184,0.5210,-0.8774,-6.287,-16.296,-7.446,147.189,19.589,-101.898
120,-0.3232,0.5166,-0.8638,-7.751,-21.057,-8.911,147.118,19.797,-101.937
130,-0.3252,0.5068,-0.8423,-8.301,-24.658,-9.399,147.036,20.034,-101.997
140,-0.3320,0.4995,-0.8237,-8.179,-27.161,-9.521,146.948,20.303,-102.068
150,-0.3364,0.4873,-0.8052,-7.996,-28.381,-9.888,146.860,20.583,-102.145
160,-0.3467,0.4829,-0.7876,-8.423,-28.748,-10.010,146.766,20.880,-102.222
170,-0.3550,0.4810,-0.7725,-9.033,-27.832,-8.850,146.662,21.160,-102.305
180,-0.3677,0.4834,-0.7666,-9.583,-26.123,-6.836,146.547,21.423,-102.398
190,-0.3750,0.4907,-0.7666,-10.010,-23.743,-4.761,146.420,21.654,-102.497
200,-0.3784,0.5054,-0.7705,-10.315,-20.874,-2.991,146.283,21.852,-102.596
210,-0.3789,0.5171,-0.7686,-10.376,-17.761,-1.465,146.146,22.006,-102.689
220,-0.3784,0.5298,-0.7690,-10.254,-14.954,-0.122,146.003,22.132,-102.777
230,-0.3779,0.5454,-0.7710,-9.766,-12.756,0.916,145.860,22.231,-102.859
240,-0.3809,0.5566,-0.7695,-8.606,-10.742,1.648,145.728,22.302,-102.942
250,-0.3818,0.5649,-0.7671,-7.019,-8.789,2.014,145.613,22.363,-103.013
260,-0.3823,0.5708,-0.7651,-5.920,-6.958,2.258,145.503,22.401,-103.074
270,-0.3838,0.5830,-0.7646,-4.883,-5.310,2.258,145.410,22.423,-103.129
280,-0.3857,0.5845,-0.7622,-3.052,-3.723,2.075,145.333,22.434,-103.173
290,-0.3813,0.5786,-0.7583,-0.549,-2.197,1.526,145.294,22.440,-103.195
300,-0.3853,0.5728,-0.7603,1.282,-0.854,0.732,145.278,22.440,-103.211
310,-0.3823,0.5630,-0.7612,2.136,0.305,-0.122,145.283,22.434,-103.206
320,-0.3770,0.5513,-0.7632,2.136,1.099,-1.099,145.300,22.423,-103.189
330,-0.3799,0.5342,-0.7681,1.343,1.709,-1.953,145.322,22.418,-103.162
340,-0.3838,0.5244,-0.7686,-0.427,2.075,-2.319,145.333,22.412,-103.129
350,-0.3857,0.5176,-0.7681,-2.563,2.563,-2.319,145.327,22.407,-103.090
360,-0.3853,0.5239,-0.7690,-4.456,3.418,-1.892,145.300,22.390,-103.052
370,-0.3857,0.5239,-0.7725,-5.127,4.517,-1.221,145.272,22.363,-103.013
380,-0.3828,0.5215,-0.7729,-5.005,5.493,-0.916,145.245,22.324,-102.975
390,-0.3784,0.5195,-0.7729,-4.700,5.859,-0.854,145.223,22.275,-102.931
400,-0.3779,0.5278,-0.7739,-4.700,5.859,-0.793,145.195,22.231,-102.887
410,-0.3779,0.5386,-0.7788,-4.028,5.432,-0.610,145.173,22.187,-102.849
420,-0.3755,0.5415,-0.7832,-2.197,4.639,-0.366,145.168,22.143,-102.816
430,-0.3765,0.5425,-0.7837,0.305,3.479,-0.061,145.179,22.110,-102.794
440,-0.3794,0.5386,-0.7842,2.014,2.502,0.183,145.206,22.083,-102.777
450,-0.3765,0.5483,-0.7803,2.380,1.831,0.305,145.228,22.061,-102.772
460,-0.3716,0.5596,-0.7773,2.808,1.526,0.488,145.250,22.039,-102.766
470,-0.3677,0.5620,-0.7749,3.418,1.221,0.671,145.272,22.017,-102.766
480,-0.3672,0.5693,-0.7739,3.723,1.160,0.305,145.294,21.995,-102.761
490,-0.3691,0.5684,-0.7700,3.662,1.526,-0.549,145.322,21.973,-102.744
500,-0.3682,0.5654,-0.7705,2.441,2.136,-1.526,145.338,21.956,-102.717
511,-0.3711,0.5649,-0.7715,0.610,2.869,-2.380,145.344,21.940,-102.678
520,-0.3770,0.5615,-0.7739,-0.671,3.845,-2.747,145.338,21.918,-102.634
530,-0.3784,0.5601,-0.7710,-0.854,4.639,-3.052,145.338,21.896,-102.579
540,-0.3789,0.5542,-0.7725,-0.427,5.127,-3.235,145.349,21.868,-102.519
550,-0.3760,0.5464,-0.7710,0.000,5.371,-3.357,145.366,21.846,-102.453
560,-0.3740,0.5376,-0.7676,0.061,5.432,-3.540,145.382,21.819,-102.387
570,-0.3711,0.5371,-0.7729,-0.061,5.371,-3.784,145.404,21.791,-102.321
580,-0.3696,0.5361,-0.7793,0.244,5.310,-3.906,145.432,21.769,-102.255
590,-0.3677,0.5352,-0.7861,1.099,5.432,-3.967,145.475,21.742,-102.189
600,-0.3677,0.5371,-0.7915,2.197,5.554,-3.967,145.525,21.709,-102.118
610,-0.3623,0.5342,-0.7959,3.052,5.615,-3.906,145.585,21.676,-102.052
620,-0.3594,0.5298,-0.7979,3.357,5.371,-3.906,145.651,21.643,-101.981
630,-0.3594,0.5244,-0.8018,3.113,4.822,-4.028,145.717,21.616,-101.920
640,-0.3638,0.5298,-0.8047,2.380,4.211,-3.845,145.772,21.594,-101.860
650,-0.3662,0.5288,-0.8076,1.770,3.601,-3.357,145.816,21.572,-101.805
660,-0.3652,0.5278,-0.8032,1.282,2.991,-2.991,145.854,21.561,-101.761
670,-0.3643,0.5244,-0.7983,0.916,2.319,-2.930,145.887,21.550,-101.722
680,-0.3613,0.5244,-0.7998,0.671,1.465,-3.052,145.915,21.544,-101.684
690,-0.3613,0.5234,-0.8018,0.305,0.488,-2.930,145.937,21.550,-101.656
700,-0.3574,0.5171,-0.8003,-0.061,-0.305,-2.686,145.959,21.555,-101.635
710,-0.3589,0.5264,-0.7949,-0.488,-0.916,-2.441,145.964,21.566,-101.618
720,-0.3599,0.5347,-0.7964,-0.183,-1.099,-2.014,145.970,21.577,-101.607
730,-0.3643,0.5381,-0.7944,1.526,-0.854,-1.648,145.986,21.588,-101.596
740,-0.3677,0.5444,-0.7915,3.662,-0.793,-1.587,146.019,21.594,-101.591
750,-0.3696,0.5327,-0.7954,6.104,-1.160,-1.587,146.085,21.610,-101.580
760,-0.3701,0.5308,-0.8018,7.202,-1.892,-1.709,146.162,21.627,-101.574
770,-0.3696,0.5317,-0.8096,7.263,-2.441,-1.831,146.239,21.649,-101.574
780,-0.3628,0.5278,-0.8164,6.287,-2.930,-1.892,146.310,21.676,-101.574
790,-0.3608,0.5244,-0.8169,4.211,-3.296,-2.319,146.365,21.698,-101.574
800,-0.3613,0.5205,-0.8164,1.404,-3.540,-2.930,146.393,21.731,-101.569
810,-0.3755,0.5215,-0.7847,-1.770,-4.517,-3.479,146.376,21.791,-101.563
820,-0.3975,0.5200,-0.7568,-3.662,-6.592,-4.028,146.327,21.885,-101.569
830,-0.4062,0.5166,-0.7466,-3.235,-7.690,-5.005,146.283,21.995,-101.569
840,-0.3955,0.5161,-0.7520,-1.953,-7.080,-6.226,146.266,22.104,-101.558
850,-0.3701,0.5181,-0.7622,-0.793,-4.333,-7.080,146.266,22.176,-101.519
860,-0.3594,0.5137,-0.7856,-0.854,-0.732,-7.019,146.283,22.209,-101.459
870,-0.3667,0.5396,-0.8184,-2.808,3.357,-6.165,146.288,22.198,-101.382
880,-0.3643,0.5635,-0.8228,-4.822,6.592,-4.761,146.266,22.148,-101.299
890,-0.3589,0.5752,-0.7983,-4.944,7.324,-3.784,146.223,22.088,-101.223
900,-0.3726,0.5801,-0.7715,-2.808,4.333,-3.662,146.184,22.061,-101.168
910,-0.3857,0.5713,-0.7646,1.526,-1.038,-3.967,146.184,22.094,-101.135
920,-0.3989,0.5386,-0.7544,6.287,-5.615,-4.333,146.228,22.176,-101.129
930,-0.4077,0.4766,-0.7183,9.399,-8.545,-5.371,146.321,22.302,-101.135
940,-0.4053,0.4307,-0.6978,9.583,-11.169,-7.446,146.437,22.478,-101.135
950,-0.4023,0.4219,-0.6978,6.897,-13.184,-9.033,146.530,22.676,-101.129
960,-0.3916,0.4556,-0.7568,3.906,-12.512,-8.240,146.596,22.835,-101.129
970,-0.3677,0.5029,-0.8379,2.869,-5.554,-5.005,146.651,22.885,-101.118
980,-0.3672,0.5332,-0.8691,2.502,6.348,-0.427,146.711,22.802,-101.080
990,-0.3726,0.5483,-0.8647,2.441,18.005,2.502,146.777,22.615,-100.992
1000,-0.3535,0.5415,-0.8223,1.953,23.865,3.113,146.838,22.368,-100.882
1011,-0.3574,0.5156,-0.7876,0.671,19.714,0.549,146.887,22.187,-100.767
1020,-0.3696,0.5278,-0.7939,-1.709,9.705,-3.296,146.898,22.115,-100.679
1030,-0.3843,0.5342,-0.7935,-3.235,-0.671,-5.371,146.871,22.148,-100.635
1040,-0.3960,0.5190,-0.7812,-3.113,-7.690,-5.615,146.838,22.247,-100.629
1050,-0.4150,0.5264,-0.7881,-1.465,-10.254,-4.822,146.810,22.374,-100.646
1060,-0.4185,0.5239,-0.8081,2.808,-8.301,-3.601,146.838,22.473,-100.662
1070,-0.4058,0.5205,-0.8257,7.324,-3.723,-1.892,146.915,22.516,-100.668
1080,-0.3794,0.5249,-0.8384,10.437,1.526,-0.183,147.036,22.489,-100.657
1090,-0.3677,0.5278,-0.8369,11.414,4.089,1.099,147.162,22.429,-100.646
1100,-0.3604,0.5410,-0.8364,9.155,3.906,1.648,147.250,22.363,-100.635
1110,-0.3472,0.5312,-0.8096,6.348,1.465,1.160,147.310,22.319,-100.640
1120,-0.3564,0.5073,-0.7739,3.052,-3.174,-0.977,147.332,22.335,-100.646
1130,-0.3745,0.5078,-0.7495,-0.488,-8.240,-3.601,147.305,22.423,-100.662
1140,-0.3950,0.5029,-0.7310,-1.160,-12.085,-4.822,147.266,22.566,-100.690
1150,-0.4092,0.4927,-0.7324,2.075,-12.085,-4.578,147.261,22.714,-100.717
1160,-0.4121,0.4863,-0.7466,6.775,-7.874,-3.662,147.321,22.824,-100.734
1170,-0.4048,0.4893,-0.7715,10.376,-0.549,-1.770,147.431,22.846,-100.717
1180,-0.3940,0.4829,-0.8062,12.268,7.568,0.183,147.585,22.780,-100.679
1190,-0.3809,0.4736,-0.8408,11.047,13.916,1.160,147.755,22.648,-100.607
1200,-0.3662,0.4702,-0.8618,5.249,16.663,1.099,147.876,22.478,-100.519
1210,-0.3569,0.4814,-0.8691,-4.272,15.076,-0.366,147.898,22.330,-100.432
1220,-0.3599,0.5156,-0.8501,-13.733,9.705,-2.686,147.799,22.236,-100.349
1230,-0.3657,0.5532,-0.8364,-17.822,2.075,-4.578,147.629,22.220,-100.294
1240,-0.3691,0.5645,-0.8325,-15.320,-5.127,-5.005,147.469,22.269,-100.278
1250,-0.3726,0.5586,-0.8384,-8.301,-9.460,-4.700,147.371,22.357,-100.294
1260,-0.3662,0.5522,-0.8525,-0.244,-10.620,-3.967,147.354,22.440,-100.316
1270,-0.3462,0.5430,-0.9023,6.165,-8.301,-2.686,147.420,22.478,-100.344
1280,-0.3437,0.5327,-0.9434,7.080,-3.296,-1.587,147.524,22.467,-100.349
1290,-0.3506,0.5381,-0.8828,2.014,0.061,-1.099,147.557,22.434,-100.338
1300,-0.3662,0.4868,-0.7329,-3.540,-2.930,-1.221,147.508,22.467,-100.344
1310,-0.4219,0.4204,-0.5918,-8.789,-14.771,-3.540,147.371,22.687,-100.393
1320,-0.4541,0.4180,-0.5386,-12.695,-28.870,-7.202,147.156,23.077,-100.497
1330,-0.4653,0.4297,-0.5518,-12.268,-35.889,-9.277,146.931,23.533,-100.624
1340,-0.4663,0.4858,-0.6367,-5.798,-32.104,-7.507,146.783,23.906,-100.750
1350,-0.4609,0.5161,-0.7373,5.676,-14.832,-1.709,146.794,24.071,-100.822
1360,-0.4326,0.5532,-0.8281,17.334,8.972,5.066,146.964,23.961,-100.816
1370,-0.3921,0.5767,-0.8950,23.376,31.128,10.376,147.233,23.610,-100.723
1380,-0.3589,0.5693,-0.8965,23.071,44.678,13.245,147.519,23.115,-100.580
1390,-0.3467,0.5254,-0.8008,19.470,43.152,11.414,147.766,22.665,-100.432
1400,-0.3672,0.4546,-0.7129,11.353,25.635,5.432,147.909,22.429,-100.333
1410,-0.4009,0.4360,-0.6885,0.305,0.610,-1.709,147.920,22.473,-100.316
1420,-0.4155,0.4497,-0.7383,-7.263,-20.447,-7.324,147.832,22.714,-100.366
1430,-0.4106,0.5200,-0.8311,-7.874,-27.100,-8.606,147.728,22.983,-100.443
1440,-0.3994,0.5693,-0.9131,-1.709,-18.066,-4.150,147.689,23.132,-100.508
1450,-0.3726,0.5737,-0.9712,8.240,0.549,1.648,147.783,23.071,-100.525
1460,-0.3345,0.5728,-0.9780,14.465,18.616,4.578,147.969,22.824,-100.459
1470,-0.3130,0.5557,-0.9170,13.306,26.245,5.188,148.151,22.511,-100.355
1480,-0.3228,0.5000,-0.8247,8.911,19.287,3.113,148.277,22.291,-100.272
1490,-0.3530,0.4546,-0.7407,0.916,2.197,-1.221,148.293,22.280,-100.250
1500,-0.3877,0.4131,-0.6636,-6.409,-16.296,-5.310,148.211,22.484,-100.294
1511,-0.4106,0.3965,-0.6812,-9.460,-28.198,-7.507,148.101,22.813,-100.382
1520,-0.4316,0.4180,-0.7617,-9.033,-25.757,-5.615,148.008,23.093,-100.481
1530,-0.4434,0.4351,-0.7920,-4.272,-10.864,-0.366,147.975,23.214,-100.536
1540,-0.4238,0.4556,-0.8081,2.625,7.568,4.700,148.024,23.143,-100.536
1550,-0.3945,0.4814,-0.8301,8.179,22.278,9.277,148.140,22.896,-100.497
1560,-0.3760,0.4878,-0.8374,9.766,27.588,11.902,148.271,22.588,-100.448
1570,-0.3589,0.5024,-0.8286,7.263,23.437,11.841,148.359,22.308,-100.421
1580,-0.3496,0.4985,-0.8052,3.418,12.634,9.521,148.387,22.126,-100.437
1590,-0.3535,0.5063,-0.8027,-0.183,-0.610,5.920,148.354,22.088,-100.497
1600,-0.3696,0.5229,-0.8003,-3.296,-11.169,3.235,148.271,22.154,-100.591
1610,-0.3843,0.5273,-0.8037,-2.991,-15.930,1.953,148.189,22.275,-100.695
1620,-0.3911,0.5493,-0.8584,-1.160,-13.916,1.770,148.134,22.368,-100.794
1630,-0.3887,0.5635,-0.8979,1.526,-4.944,1.709,148.129,22.379,-100.838
1640,-0.3887,0.5552,-0.8770,2.808,4.578,0.977,148.156,22.319,-100.822
1650,-0.3813,0.5571,-0.8467,1.099,8.972,0.122,148.173,22.225,-100.772
1660,-0.3716,0.5605,-0.8228,-1.831,6.470,-0.854,148.145,22.159,-100.728
1670,-0.3706,0.5332,-0.7700,-3.967,0.122,-2.319,148.085,22.165,-100.706
1680,-0.3770,0.4980,-0.7158,-4.700,-7.690,-4.456,148.008,22.264,-100.706
1690,-0.3799,0.4644,-0.6660,-4.883,-14.832,-5.981,147.920,22.445,-100.739
1700,-0.3994,0.4409,-0.6367,-2.563,-19.897,-5.920,147.849,22.692,-100.794
1710,-0.4189,0.4385,-0.6626,2.258,-19.958,-3.418,147.827,22.928,-100.882
1720,-0.4287,0.4512,-0.7192,7.202,-13.428,1.465,147.859,23.071,-100.970
1730,-0.4248,0.4634,-0.7705,12.024,-0.366,5.798,147.969,23.066,-101.025
1740,-0.4038,0.4990,-0.8345,14.587,15.625,7.446,148.134,22.896,-101.003
1750,-0.3765,0.5347,-0.8940,14.038,30.151,7.507,148.321,22.571,-100.904
1760,-0.3423,0.5391,-0.9131,10.437,37.903,5.676,148.502,22.176,-100.739
1770,-0.3242,0.5317,-0.8882,3.723,35.400,1.770,148.612,21.819,-100.558
1781,-0.3311,0.5259,-0.8730,-3.662,23.804,-3.113,148.640,21.594,-100.393
1790,-0.3486,0.5342,-0.8643,-10.193,8.362,-6.653,148.574,21.533,-100.283
1800,-0.3740,0.5029,-0.8198,-13.123,-5.920,-7.446,148.453,21.616,-100.250
1810,-0.3911,0.4780,-0.7827,-12.939,-16.968,-7.202,148.315,21.813,-100.278
1820,-0.3970,0.4810,-0.7695,-9.338,-21.851,-6.104,148.195,22.050,-100.349
1831,-0.3979,0.4785,-0.7949,-2.563,-18.921,-4.089,148.151,22.242,-100.415
1841,-0.3828,0.4663,-0.8237,3.174,-8.728,-1.892,148.195,22.319,-100.448
1850,-0.3696,0.4404,-0.8188,6.226,2.869,-1.038,148.299,22.297,-100.426
1860,-0.3550,0.4429,-0.8247,4.456,8.911,-1.831,148.403,22.214,-100.355
1870,-0.3574,0.4468,-0.8413,-1.770,6.653,-4.028,148.453,22.165,-100.283
1880,-0.3779,0.4570,-0.8467,-11.414,-2.502,-6.958,148.387,22.214,-100.234
1890,-0.3955,0.4702,-0.8306,-20.874,-14.771,-9.888,148.206,22.390,-100.223
1900,-0.4058,0.5146,-0.8345,-27.100,-26.245,-10.925,147.920,22.670,-100.272
1910,-0.3984,0.5781,-0.8843,-28.748,-30.090,-8.728,147.590,22.950,-100.366
1920,-0.3799,0.6196,-0.9243,-23.437,-24.292,-4.517,147.305,23.137,-100.464
1930,-0.3525,0.6279,-0.9106,-13.916,-14.587,-1.404,147.118,23.209,-100.541
1940,-0.3306,0.5786,-0.8467,-4.211,-9.277,-2.075,147.052,23.242,-100.574
1950,-0.3437,0.5005,-0.7637,0.122,-10.010,-2.625,147.036,23.313,-100.613
1960,-0.3818,0.4561,-0.6924,-1.343,-14.954,-3.357,146.992,23.472,-100.668
1971,-0.4155,0.4194,-0.6338,-4.395,-21.057,-3.418,146.909,23.719,-100.761
1980,-0.4487,0.4150,-0.5854,-5.005,-25.513,-2.197,146.783,24.022,-100.893
1991,-0.4668,0.4224,-0.5806,-2.380,-25.574,0.305,146.667,24.324,-101.052
2001,-0.4448,0.4238,-0.5972,2.197,-17.761,3.540,146.613,24.521,-101.190
2011,-0.5259,0.4077,-0.6553,8.362,-4.028,6.348,146.678,24.620,-101.272
2020,-0.4512,0.4888,-0.8105,10.498,14.038,9.521,146.805,24.461,-101.277
2030,-0.3833,0.5977,-0.9688,7.629,32.593,12.878,146.926,24.060,-101.195
2040,-0.3247,0.6533,-0.9746,1.465,43.335,13.977,146.986,23.538,-101.069
2050,-0.3379,0.6562,-0.9297,-4.211,40.039,9.094,146.981,23.088,-100.909
2060,-0.3042,0.6543,-0.8486,-10.437,23.621,3.662,146.876,22.802,-100.805
2070,-0.3369,0.6362,-0.7681,-16.418,-1.404,-2.625,146.651,22.786,-100.789
2080,-0.4658,0.5664,-0.6924,-14.221,-23.376,-8.423,146.426,23.071,-100.854
2090,-0.4644,0.5171,-0.6523,-7.568,-35.583,-11.536,146.261,23.489,-100.964
2100,-0.4609,0.4780,-0.6602,1.587,-33.630,-9.827,146.212,23.879,-101.080
2111,-0.4893,0.4224,-0.6987,11.292,-19.043,-6.958,146.327,24.142,-101.129
2121,-0.4209,0.4648,-0.7852,13.733,2.869,-3.235,146.514,24.142,-101.085
2131,-0.3535,0.4756,-0.8159,12.634,21.973,0.610,146.722,23.923,-100.953
2141,-0.3364,0.4678,-0.7925,7.690,30.029,2.930,146.887,23.621,-100.800
2151,-0.3662,0.4736,-0.7700,1.892,25.879,1.526,146.975,23.384,-100.662
2161,-0.4048,0.4805,-0.7285,-3.906,13.306,0.427,146.964,23.286,-100.585
2171,-0.4326,0.4746,-0.7349,-5.249,0.671,1.160,146.909,23.302,-100.591
2181,-0.4482,0.4458,-0.7402,-2.441,-5.371,2.625,146.887,23.373,-100.651
2191,-0.4326,0.4385,-0.7422,1.892,-5.066,4.395,146.904,23.428,-100.717
2201,-0.4058,0.4546,-0.7837,5.066,-1.282,6.531,146.953,23.406,-100.789
2211,-0.3623,0.4897,-0.8730,6.592,6.470,8.301,147.041,23.275,-100.822
2221,-0.3379,0.5254,-0.9072,5.798,14.709,8.667,147.134,23.049,-100.816
2231,-0.3384,0.5591,-0.9092,3.723,17.883,8.362,147.195,22.802,-100.789
2241,-0.3530,0.5640,-0.9092,2.136,14.648,7.812,147.233,22.593,-100.772
2250,-0.3550,0.5889,-0.9453,0.244,8.423,6.531,147.239,22.440,-100.783
2261,-0.3530,0.5957,-0.9678,-0.244,3.052,4.700,147.239,22.335,-100.805
2271,-0.3579,0.5928,-0.9595,-0.610,-1.709,3.174,147.228,22.286,-100.844
2281,-0.3511,0.5708,-0.9233,-0.488,-6.409,2.075,147.211,22.286,-100.904
2291,-0.3447,0.5322,-0.8491,-0.793,-12.146,0.916,147.178,22.352,-100.981
2301,-0.3550,0.4976,-0.7622,-2.441,-19.653,-0.244,147.112,22.505,-101.096
2310,-0.3862,0.4619,-0.6836,-3.540,-26.489,-0.610,147.008,22.753,-101.245
2320,-0.4204,0.4292,-0.6299,-3.174,-29.053,0.000,146.898,23.055,-101.415
2330,-0.4492,0.4219,-0.6016,-2.075,-25.391,1.892,146.794,23.340,-101.585
2341,-0.4600,0.4185,-0.6040,-0.305,-16.174,4.578,146.722,23.538,-101.722
2351,-0.4370,0.4341,-0.6519,2.014,-3.601,7.080,146.700,23.582,-101.810
2360,-0.4121,0.4326,-0.7275,4.456,8.423,8.240,146.761,23.494,-101.832
2371,-0.3794,0.4453,-0.8110,2.747,14.832,8.850,146.838,23.313,-101.827
2381,-0.3550,0.4648,-0.8799,-3.601,12.634,9.460,146.849,23.115,-101.838
2391,-0.3560,0.4995,-0.9243,-11.536,3.906,10.742,146.755,22.983,-101.909
2401,-0.3687,0.5400,-0.9312,-17.395,-6.165,12.329,146.558,22.928,-102.057
2411,-0.3730,0.5776,-0.9058,-19.287,-14.465,13.977,146.294,22.934,-102.272
2421,-0.3691,0.5923,-0.8589,-15.503,-20.081,15.076,146.030,22.978,-102.530
2430,-0.3823,0.5781,-0.8062,-7.629,-20.935,15.442,145.838,23.049,-102.794
2441,-0.3882,0.5630,-0.7573,-0.183,-17.822,14.954,145.717,23.104,-103.041
2451,-0.3877,0.5479,-0.7261,5.737,-12.695,13.367,145.668,23.132,-103.239
2461,-0.3936,0.5405,-0.7085,9.216,-7.385,11.414,145.673,23.137,-103.387
2471,-0.4087,0.5356,-0.7007,9.094,-3.296,10.193,145.684,23.126,-103.497
2481,-0.4219,0.5376,-0.6997,6.409,-0.122,9.644,145.684,23.093,-103.585
2491,-0.4258,0.5493,-0.7124,2.563,0.977,8.972,145.646,23.060,-103.656
2501,-0.4185,0.5771,-0.7324,-0.977,0.366,7.507,145.574,23.027,-103.722
2511,-0.4126,0.6030,-0.7451,-3.296,-1.221,5.859,145.470,23.005,-103.782
2520,-0.3999,0.6177,-0.7544,-3.967,-2.686,4.517,145.360,22.994,-103.843
2531,-0.3911,0.6323,-0.7715,-3.723,-2.930,3.235,145.261,22.983,-103.887
2541,-0.3896,0.6377,-0.7803,-2.808,-1.160,2.197,145.179,22.961,-103.914
2551,-0.3862,0.6338,-0.7793,-0.916,1.892,1.099,145.124,22.923,-103.914
2561,-0.3833,0.6211,-0.7642,0.916,4.517,0.122,145.102,22.868,-103.887
2571,-0.3921,0.6025,-0.7544,2.502,6.042,-0.916,145.107,22.819,-103.837
2581,-0.3931,0.5796,-0.7236,4.150,6.409,-2.441,145.135,22.780,-103.777
2591,-0.3984,0.5459,-0.6978,5.920,4.944,-4.456,145.190,22.780,-103.705
2601,-0.4009,0.5151,-0.6924,7.751,3.479,-6.348,145.278,22.808,-103.629
2611,-0.4116,0.4951,-0.6987,8.545,3.906,-6.592,145.388,22.841,-103.546
2621,-0.4102,0.4868,-0.7202,8.606,6.165,-5.859,145.514,22.852,-103.458
2631,-0.3999,0.4912,-0.7490,8.179,9.277,-4.639,145.646,22.813,-103.359
2641,-0.3877,0.5044,-0.7749,7.446,12.451,-3.418,145.772,22.731,-103.250
2651,-0.3799,0.5234,-0.7964,7.507,15.320,-2.563,145.898,22.610,-103.134
2661,-0.3711,0.5396,-0.8169,8.667,16.846,-2.197,146.036,22.462,-103.013
2671,-0.3604,0.5366,-0.8252,11.047,16.357,-2.502,146.201,22.319,-102.892
2681,-0.3638,0.5181,-0.8164,12.634,13.184,-3.906,146.387,22.214,-102.777
2691,-0.3755,0.5015,-0.8130,12.146,8.301,-5.310,146.563,22.170,-102.678
2701,-0.3809,0.4961,-0.8247,10.071,4.517,-5.798,146.717,22.159,-102.601
2711,-0.3745,0.5107,-0.8408,7.812,3.784,-5.554,146.838,22.143,-102.530
2721,-0.3652,0.5366,-0.8433,7.690,5.676,-4.761,146.953,22.099,-102.453
2731,-0.3623,0.5488,-0.8286,10.559,8.057,-4.089,147.079,22.039,-102.365
2741,-0.3540,0.5591,-0.8281,15.137,8.484,-4.150,147.255,21.962,-102.283
2751,-0.3647,0.5317,-0.8325,19.043,6.897,-5.005,147.475,21.912,-102.195
2761,-0.3774,0.4985,-0.8301,17.700,4.028,-6.226,147.695,21.907,-102.112
2771,-0.3838,0.4663,-0.8101,10.681,0.244,-7.202,147.849,21.951,-102.047
2780,-0.3911,0.4526,-0.7842,0.122,-3.845,-7.629,147.887,22.033,-102.003
2791,-0.3867,0.4883,-0.7837,-9.155,-6.287,-7.568,147.816,22.132,-101.964
2801,-0.3745,0.5278,-0.7808,-11.780,-5.310,-6.775,147.689,22.209,-101.937
2811,-0.3818,0.5225,-0.7729,-7.385,-2.380,-6.042,147.612,22.264,-101.893
2821,-0.3779,0.5166,-0.7788,-0.793,1.343,-6.042,147.618,22.280,-101.832
2831,-0.3804,0.4985,-0.7783,4.395,4.517,-5.554,147.689,22.275,-101.755
2841,-0.3784,0.4854,-0.7847,5.005,6.470,-4.639,147.772,22.242,-101.673
2851,-0.3853,0.4780,-0.7900,1.709,6.714,-4.211,147.832,22.214,-101.596
2861,-0.3877,0.4941,-0.8096,-2.686,6.592,-4.395,147.838,22.181,-101.519
2871,-0.3809,0.5088,-0.8223,-5.432,7.263,-4.211,147.821,22.137,-101.437
2881,-0.3726,0.5171,-0.8174,-5.981,8.179,-4.028,147.794,22.077,-101.354
2891,-0.3691,0.5142,-0.8140,-5.249,7.996,-4.028,147.772,22.022,-101.272
2901,-0.3687,0.5093,-0.8120,-3.662,6.958,-4.028,147.761,21.978,-101.195
2911,-0.3569,0.5195,-0.8174,-1.221,5.798,-3.601,147.772,21.929,-101.129
2921,-0.3491,0.5137,-0.8374,2.808,4.944,-3.052,147.827,21.879,-101.074
2931,-0.3481,0.5039,-0.8535,6.287,4.883,-2.686,147.925,21.830,-101.019
2940,-0.3501,0.5005,-0.8672,7.874,4.761,-2.625,148.046,21.775,-100.970
2951,-0.3501,0.4941,-0.8711,7.446,4.089,-2.563,148.156,21.731,-100.920
2961,-0.3506,0.4971,-0.8696,5.249,1.892,-2.930,148.244,21.703,-100.887
2971,-0.3594,0.4912,-0.8574,2.808,-1.709,-4.089,148.304,21.725,-100.860
2981,-0.3760,0.4692,-0.8296,0.427,-5.188,-4.700,148.332,21.791,-100.844
2991,-0.3853,0.4551,-0.8042,-2.747,-7.141,-4.822,148.332,21.885,-100.838
3001,-0.3911,0.4634,-0.7832,-5.066,-7.507,-4.028,148.288,21.984,-100.844
3011,-0.3950,0.4678,-0.7671,-3.845,-6.409,-2.319,148.250,22.066,-100.860
3021,-0.3931,0.4541,-0.7568,0.732,-4.211,-0.549,148.255,22.121,-100.882
3031,-0.3862,0.4487,-0.7612,5.005,-1.343,0.916,148.310,22.143,-100.893
3041,-0.3794,0.4478,-0.7734,6.714,1.160,2.075,148.392,22.132,-100.909
3051,-0.3682,0.4639,-0.8140,5.249,2.686,2.563,148.458,22.088,-100.915
3061,-0.3599,0.4941,-0.8525,0.977,3.113,2.136,148.480,22.033,-100.920
3071,-0.3726,0.5078,-0.8682,-4.517,1.587,0.671,148.447,22.000,-100.915
3081,-0.3745,0.5229,-0.8896,-9.033,-0.732,-1.526,148.376,21.989,-100.904
3091,-0.3721,0.5254,-0.8970,-11.108,-2.502,-3.479,148.282,22.006,-100.887
3101,-0.3623,0.5366,-0.9067,-12.268,-3.601,-4.089,148.178,22.028,-100.871
3111,-0.3579,0.5449,-0.8711,-12.146,-6.531,-3.723,148.057,22.077,-100.876
3121,-0.3599,0.5396,-0.8306,-11.047,-9.155,-3.845,147.931,22.148,-100.893
3131,-0.3740,0.5132,-0.7866,-9.888,-11.902,-4.150,147.810,22.269,-100.920
3141,-0.3848,0.5015,-0.7451,-10.254,-13.794,-4.456,147.678,22.418,-100.959
3151,-0.3965,0.4756,-0.7002,-11.414,-14.221,-4.456,147.530,22.588,-101.003
3161,-0.4146,0.4648,-0.6602,-12.878,-12.573,-4.028,147.360,22.758,-101.036
3171,-0.4258,0.4653,-0.6353,-12.451,-8.667,-2.930,147.195,22.901,-101.063
3181,-0.4277,0.4673,-0.6313,-9.583,-2.747,-0.854,147.057,22.989,-101.069
3191,-0.4238,0.4639,-0.6431,-5.554,3.662,1.648,146.975,23.000,-101.063
3201,-0.4146,0.4707,-0.6699,-2.625,10.132,4.272,146.937,22.928,-101.041
3211,-0.4058,0.4785,-0.7085,-1.587,15.869,6.409,146.926,22.791,-101.008
3221,-0.3799,0.5083,-0.7539,-2.747,19.897,7.690,146.909,22.582,-100.959
3231,-0.3613,0.5435,-0.8071,-4.211,20.386,7.385,146.876,22.352,-100.904
3241,-0.3555,0.5776,-0.8584,-5.249,17.883,5.920,146.838,22.137,-100.854
3251,-0.3521,0.6030,-0.8823,-5.066,13.733,4.272,146.794,21.962,-100.811
3261,-0.3564,0.6089,-0.8921,-3.113,9.216,2.808,146.761,21.830,-100.783
3271,-0.3535,0.6094,-0.8931,-1.587,4.700,1.099,146.739,21.747,-100.761
3281,-0.3555,0.5996,-0.8823,0.122,0.549,-0.854,146.739,21.714,-100.750
3291,-0.3574,0.5747,-0.8535,1.953,-2.991,-2.625,146.750,21.731,-100.745
3301,-0.3672,0.5449,-0.8203,3.479,-5.920,-3.784,146.783,21.786,-100.750
3311,-0.3779,0.5225,-0.7905,4.150,-7.629,-4.211,146.816,21.874,-100.756
3321,-0.3823,0.5059,-0.7646,4.333,-7.751,-4.089,146.854,21.967,-100.761
3331,-0.3892,0.4878,-0.7456,4.456,-6.409,-3.662,146.898,22.055,-100.767
3341,-0.3984,0.4722,-0.7344,3.662,-3.967,-2.991,146.937,22.126,-100.767
3351,-0.3994,0.4634,-0.7280,2.686,-1.038,-1.953,146.975,22.176,-100.756
3361,-0.3984,0.4580,-0.7227,2.258,1.770,-0.244,147.008,22.192,-100.739
3371,-0.3955,0.4609,-0.7271,2.197,4.028,1.770,147.041,22.170,-100.734
3381,-0.3838,0.4756,-0.7524,2.380,5.920,3.113,147.074,22.115,-100.728
3391,-0.3730,0.4946,-0.7827,2.563,7.324,3.601,147.107,22.033,-100.717
3401,-0.3726,0.5112,-0.8047,2.747,8.423,3.601,147.145,21.940,-100.701
3411,-0.3682,0.5234,-0.8193,2.686,8.789,3.479,147.184,21.835,-100.679
3421,-0.3618,0.5298,-0.8291,2.625,8.301,3.296,147.217,21.731,-100.662
3431,-0.3623,0.5371,-0.8291,2.625,7.690,3.235,147.244,21.638,-100.646
3441,-0.3618,0.5386,-0.8252,3.174,7.080,3.113,147.277,21.544,-100.629
3451,-0.3613,0.5342,-0.8203,3.906,6.592,2.869,147.321,21.462,-100.618
3461,-0.3618,0.5273,-0.8091,4.150,5.798,2.563,147.360,21.390,-100.607
3471,-0.3623,0.5215,-0.8042,3.845,5.005,2.258,147.398,21.330,-100.602
3481,-0.3652,0.5220,-0.8042,2.869,3.967,1.709,147.426,21.281,-100.591
3491,-0.3687,0.5229,-0.8052,1.953,2.563,0.977,147.442,21.253,-100.585
3501,-0.3691,0.5327,-0.8154,1.770,1.526,0.366,147.453,21.237,-100.580
3511,-0.3667,0.5415,-0.8218,2.197,1.404,0.183,147.469,21.215,-100.574
3521,-0.3647,0.5405,-0.8154,2.869,2.075,0.061,147.491,21.187,-100.563
3531,-0.3647,0.5410,-0.8052,3.418,2.747,-0.305,147.519,21.160,-100.547
3541,-0.3618,0.5396,-0.8027,4.333,3.174,-0.732,147.557,21.132,-100.519
3551,-0.3594,0.5293,-0.7979,5.310,2.991,-1.526,147.612,21.110,-100.492
3561,-0.3584,0.5210,-0.7939,5.737,2.441,-2.441,147.673,21.099,-100.453
3571,-0.3579,0.5146,-0.7915,5.066,1.587,-3.174,147.728,21.099,-100.415
3581,-0.3633,0.5103,-0.7910,3.601,1.221,-3.601,147.772,21.105,-100.377
3591,-0.3711,0.5034,-0.7939,2.014,1.648,-3.784,147.805,21.116,-100.333
3601,-0.3623,0.5112,-0.8013,1.038,2.502,-3.967,147.832,21.116,-100.283
3611,-0.3511,0.5161,-0.8105,1.465,2.686,-3.967,147.859,21.105,-100.228
3621,-0.3525,0.5146,-0.8223,3.113,2.075,-3.662,147.909,21.094,-100.184
3631,-0.3491,0.5181,-0.8359,4.883,1.648,-3.357,147.975,21.083,-100.146
3641,-0.3433,0.5352,-0.8550,7.385,1.465,-2.991,148.057,21.061,-100.107
3651,-0.3389,0.5488,-0.8896,10.681,1.526,-2.563,148.178,21.033,-100.080
3661,-0.3306,0.5859,-0.9517,13.733,2.380,-2.319,148.326,20.978,-100.042
3671,-0.3184,0.6250,-1.0225,16.418,4.761,-2.258,148.513,20.891,-99.998
3681,-0.3096,0.6450,-1.0610,18.433,7.385,-2.747,148.716,20.770,-99.932
3691,-0.3013,0.6475,-1.0688,18.311,7.324,-4.761,148.931,20.660,-99.844
3701,-0.3003,0.6348,-1.0313,16.174,2.869,-8.789,149.117,20.616,-99.750
3711,-0.3125,0.5913,-0.9575,11.963,-6.531,-14.099,149.260,20.693,-99.657
3721,-0.3364,0.5396,-0.8838,5.188,-19.043,-19.836,149.332,20.929,-99.580
3731,-0.3662,0.4902,-0.8066,-2.930,-30.273,-24.414,149.321,21.313,-99.520
3741,-0.4131,0.4175,-0.6870,-10.010,-37.598,-26.733,149.227,21.824,-99.476
3751,-0.4521,0.3291,-0.5488,-16.174,-42.114,-27.405,149.073,22.456,-99.454
3761,-0.4858,0.2495,-0.4272,-21.484,-44.006,-27.100,148.870,23.187,-99.448
3771,-0.5166,0.2056,-0.3530,-24.536,-41.748,-25.085,148.634,23.956,-99.448
3781,-0.5337,0.2036,-0.3369,-23.560,-32.410,-19.531,148.403,24.626,-99.454
3791,-0.5327,0.2104,-0.3481,-16.785,-15.930,-9.949,148.244,25.093,-99.448
3801,-0.4966,0.2246,-0.3965,-6.348,3.906,1.160,148.206,25.280,-99.437
3811,-0.4419,0.2603,-0.4966,4.517,23.132,11.230,148.304,25.153,-99.410
3821,-0.4072,0.3423,-0.6406,11.719,38.391,19.104,148.475,24.774,-99.366
3831,-0.3770,0.4541,-0.7983,13.916,48.584,24.170,148.656,24.214,-99.311
3841,-0.3447,0.5459,-0.9541,15.015,53.711,26.733,148.843,23.555,-99.256
3851,-0.2974,0.6172,-1.0796,14.709,53.284,26.001,149.024,22.868,-99.201
3861,-0.2554,0.6699,-1.1626,12.451,46.448,21.484,149.183,22.242,-99.141
3871,-0.2378,0.6914,-1.1899,6.226,34.363,14.282,149.271,21.753,-99.080
3881,-0.2485,0.7017,-1.1685,-2.014,17.822,6.470,149.260,21.456,-99.042
3891,-0.2720,0.6841,-1.1162,-7.568,0.854,-0.488,149.183,21.352,-99.036
3901,-0.2925,0.6353,-1.0146,-9.033,-12.817,-5.554,149.073,21.412,-99.053
3911,-0.3208,0.5586,-0.9019,-8.667,-21.790,-8.667,148.964,21.599,-99.097
3921,-0.3486,0.5054,-0.8311,-8.179,-24.475,-9.216,148.865,21.835,-99.146
3931,-0.3726,0.4644,-0.7773,-6.592,-20.081,-7.507,148.782,22.050,-99.190
3941,-0.3955,0.4351,-0.7261,-4.272,-11.963,-4.822,148.738,22.203,-99.212
3951,-0.4165,0.3926,-0.6533,-2.197,-3.479,-1.343,148.716,22.302,-99.218
3961,-0.4292,0.3389,-0.5884,-2.441,1.709,1.587,148.700,22.385,-99.223
3971,-0.4360,0.3267,-0.5630,-6.287,2.930,3.235,148.645,22.456,-99.234
3981,-0.4375,0.3589,-0.5898,-10.803,6.165,6.104,148.530,22.473,-99.256
3991,-0.4292,0.4150,-0.6567,-12.085,11.475,9.033,148.398,22.390,-99.278
4001,-0.4043,0.4917,-0.7427,-9.338,18.616,11.841,148.282,22.192,-99.278
4011,-0.3682,0.5474,-0.8291,-2.197,25.208,14.099,148.250,21.890,-99.267
4021,-0.3340,0.5688,-0.9087,5.249,29.297,14.526,148.310,21.522,-99.234
4031,-0.3018,0.5610,-0.9688,8.728,29.114,12.451,148.431,21.149,-99.185
4041,-0.2832,0.5557,-0.9883,5.493,25.024,8.972,148.530,20.819,-99.124
4051,-0.2827,0.5645,-0.9702,-2.014,17.822,5.737,148.541,20.572,-99.075
4061,-0.3062,0.5508,-0.9170,-7.629,7.263,3.601,148.469,20.446,-99.069
4071,-0.3169,0.5352,-0.8818,-7.874,-3.662,2.014,148.381,20.429,-99.108
4081,-0.3232,0.4956,-0.8481,-4.517,-10.376,1.404,148.326,20.490,-99.179
4091,-0.3237,0.4551,-0.8315,-1.038,-12.268,1.526,148.315,20.566,-99.261
4101,-0.3223,0.4453,-0.8369,-0.244,-10.071,1.526,148.326,20.627,-99.333
4111,-0.3276,0.4492,-0.8262,-1.892,-5.798,2.014,148.321,20.654,-99.382
4121,-0.3208,0.4600,-0.7861,-5.249,-2.258,2.869,148.271,20.643,-99.421
4131,-0.3354,0.5020,-0.7529,-8.850,-1.648,3.662,148.145,20.638,-99.465
4141,-0.3599,0.5361,-0.7446,-9.460,-1.282,4.395,147.997,20.632,-99.509
4151,-0.3828,0.5415,-0.7388,-7.690,1.404,4.578,147.870,20.616,-99.547
4161,-0.4072,0.5078,-0.7256,-4.822,5.554,3.723,147.794,20.588,-99.547
4171,-0.4048,0.4990,-0.7515,-3.906,8.240,2.441,147.750,20.544,-99.520
4181,-0.3804,0.5122,-0.7954,-4.150,9.583,2.808,147.711,20.462,-99.492
4191,-0.3301,0.5420,-0.8257,-2.686,9.460,4.333,147.678,20.341,-99.476
4201,-0.2778,0.5991,-0.8853,-0.183,8.057,5.493,147.662,20.187,-99.481
4211,-0.2515,0.6528,-0.9575,2.686,7.385,5.127,147.667,20.017,-99.487
4221,-0.2529,0.6821,-0.9897,4.395,7.141,2.563,147.689,19.863,-99.470
4231,-0.2856,0.6846,-0.9790,3.967,4.211,-1.770,147.717,19.775,-99.426
4241,-0.3389,0.6050,-0.8853,2.136,-1.831,-6.531,147.733,19.803,-99.382
4251,-0.3623,0.5225,-0.7998,-0.854,-11.230,-11.292,147.728,19.962,-99.344
4261,-0.3726,0.4526,-0.7598,-2.991,-18.555,-13.306,147.722,20.220,-99.327
4271,-0.3672,0.4224,-0.7217,-4.089,-19.592,-11.414,147.695,20.479,-99.338
4281,-0.3613,0.4111,-0.6934,-3.540,-15.808,-8.545,147.673,20.693,-99.349
4291,-0.3496,0.4438,-0.6982,-2.258,-9.460,-4.639,147.645,20.819,-99.360
4301,-0.3340,0.4873,-0.7402,0.549,-1.831,-0.671,147.640,20.836,-99.366
4311,-0.3442,0.5254,-0.7832,4.089,5.371,1.221,147.673,20.775,-99.344
4321,-0.3472,0.5488,-0.8179,5.981,9.888,0.916,147.733,20.676,-99.300
4331,-0.3560,0.5337,-0.8306,4.822,9.033,-0.916,147.794,20.594,-99.240
4341,-0.3564,0.5371,-0.8530,-0.122,3.601,-3.296,147.810,20.572,-99.190
4351,-0.3472,0.5273,-0.8481,-5.554,-1.648,-4.822,147.772,20.599,-99.152
4361,-0.3325,0.5254,-0.8315,-8.423,-4.944,-5.371,147.695,20.649,-99.135
4371,-0.3330,0.5239,-0.8257,-7.080,-6.104,-4.639,147.629,20.704,-99.124
4381,-0.3403,0.5024,-0.8125,-2.869,-6.042,-3.357,147.601,20.764,-99.130
4391,-0.3491,0.4775,-0.7842,1.160,-5.432,-2.319,147.623,20.819,-99.141
4401,-0.3657,0.4565,-0.7397,3.174,-5.066,-1.099,147.656,20.891,-99.163
4411,-0.3770,0.4502,-0.7319,4.578,-4.883,0.610,147.695,20.956,-99.196
4421,-0.3809,0.4502,-0.7427,6.042,-2.930,2.625,147.750,20.995,-99.234
4431,-0.3721,0.4536,-0.7778,7.385,0.427,4.578,147.832,20.978,-99.272
4441,-0.3467,0.4824,-0.8516,7.202,4.944,5.493,147.920,20.896,-99.294
4451,-0.3247,0.5186,-0.9048,4.578,8.179,5.554,147.986,20.759,-99.300
4461,-0.3130,0.5518,-0.9292,1.038,7.751,4.761,148.008,20.627,-99.300
4471,-0.3076,0.5698,-0.9409,-1.648,3.906,3.296,147.997,20.522,-99.305
4481,-0.3110,0.5898,-0.9126,-3.723,-1.160,1.770,147.947,20.479,-99.327
4491,-0.3188,0.5884,-0.8472,-3.479,-6.592,0.488,147.870,20.500,-99.371
4501,-0.3340,0.5708,-0.7969,-0.610,-11.475,-0.916,147.810,20.583,-99.426
4511,-0.3442,0.5518,-0.7573,3.418,-12.756,-1.953,147.783,20.698,-99.481
4521,-0.3574,0.5278,-0.7285,7.141,-10.925,-2.502,147.805,20.808,-99.520
4531,-0.3628,0.4902,-0.7271,8.423,-6.958,-2.808,147.865,20.901,-99.536
4541,-0.3550,0.4580,-0.7520,6.531,-1.343,-3.601,147.947,20.940,-99.509
4551,-0.3677,0.4600,-0.7695,1.343,3.479,-3.906,147.991,20.945,-99.454
4561,-0.3750,0.4766,-0.7896,-3.906,6.042,-2.686,147.980,20.923,-99.399
4571,-0.3696,0.5015,-0.8281,-7.446,7.019,-1.343,147.936,20.869,-99.344
4581,-0.3501,0.5386,-0.8613,-8.850,7.629,-0.671,147.865,20.792,-99.294
4591,-0.3364,0.5542,-0.8760,-7.080,7.385,-0.549,147.810,20.704,-99.250
4601,-0.3247,0.5571,-0.8887,-3.601,5.005,-1.038,147.788,20.632,-99.212
4611,-0.3232,0.5464,-0.8975,-0.183,1.282,-1.831,147.805,20.594,-99.185
4621,-0.3286,0.5186,-0.8848,2.075,-2.625,-2.502,147.843,20.605,-99.179
4631,-0.3335,0.4927,-0.8608,2.747,-5.615,-2.869,147.892,20.643,-99.185
4641,-0.3403,0.4756,-0.8315,2.136,-7.385,-2.686,147.931,20.709,-99.201
4651,-0.3481,0.4644,-0.7944,1.160,-7.996,-1.953,147.953,20.786,-99.229
4661,-0.3604,0.4492,-0.7559,0.305,-7.996,-0.732,147.953,20.874,-99.267
4671,-0.3701,0.4409,-0.7275,-0.671,-7.019,0.671,147.942,20.956,-99.316
4681,-0.3770,0.4409,-0.7158,-1.221,-4.578,2.075,147.914,21.017,-99.360
4691,-0.3809,0.4502,-0.7129,-2.625,-1.587,3.418,147.876,21.044,-99.399
4701,-0.3804,0.4629,-0.7261,-3.479,1.160,4.333,147.821,21.039,-99.432
4711,-0.3687,0.4873,-0.7529,-4.272,3.540,5.005,147.766,20.995,-99.459
4721,-0.3574,0.5156,-0.7881,-4.089,5.432,5.432,147.706,20.918,-99.476
4731,-0.3516,0.5391,-0.8193,-3.235,5.737,5.493,147.662,20.830,-99.492
4741,-0.3530,0.5542,-0.8394,-2.380,3.784,5.127,147.618,20.759,-99.520
4751,-0.3511,0.5698,-0.8579,-1.709,1.892,4.578,147.579,20.698,-99.547
4761,-0.3413,0.5742,-0.8555,0.000,0.366,3.601,147.552,20.649,-99.580
4771,-0.3437,0.5698,-0.8418,1.587,-1.038,2.319,147.541,20.627,-99.608
4781,-0.3442,0.5601,-0.8262,2.197,-1.831,0.854,147.541,20.621,-99.624
4791,-0.3384,0.5483,-0.8057,2.258,-1.770,-0.549,147.541,20.627,-99.630
4801,-0.3364,0.5308,-0.8008,2.258,-0.977,-1.587,147.557,20.627,-99.619
4811,-0.3374,0.5200,-0.7944,1.587,0.061,-2.014,147.574,20.627,-99.602
4821,-0.3423,0.5176,-0.7915,0.793,1.282,-1.770,147.579,20.621,-99.580
4831,-0.3486,0.5098,-0.7983,0.854,2.625,-1.099,147.596,20.599,-99.553
4841,-0.3467,0.5005,-0.8120,1.343,4.211,-0.183,147.623,20.561,-99.525
4851,-0.3418,0.4946,-0.8184,1.160,5.615,0.793,147.656,20.500,-99.503
4861,-0.3418,0.4893,-0.8145,0.244,5.920,1.465,147.684,20.435,-99.481
4871,-0.3364,0.4932,-0.8159,-0.916,4.883,1.770,147.689,20.374,-99.470
4881,-0.3281,0.5107,-0.8330,-1.221,3.357,1.709,147.684,20.319,-99.465
4891,-0.3286,0.5298,-0.8491,-0.610,2.380,1.343,147.684,20.270,-99.465
4901,-0.3389,0.5479,-0.8560,-0.061,2.197,0.854,147.684,20.231,-99.459
4911,-0.3418,0.5581,-0.8594,0.610,2.014,0.366,147.684,20.193,-99.454
4921,-0.3408,0.5654,-0.8574,1.282,0.977,-0.488,147.689,20.171,-99.443
4931,-0.3413,0.5645,-0.8569,2.380,-0.916,-1.770,147.706,20.171,-99.432
4941,-0.3413,0.5542,-0.8350,3.296,-3.357,-3.357,147.728,20.198,-99.421
4951,-0.3486,0.5396,-0.8096,3.967,-5.554,-4.761,147.755,20.270,-99.410
4961,-0.3521,0.5142,-0.7886,4.639,-6.592,-5.798,147.799,20.358,-99.393
4971,-0.3555,0.4883,-0.7656,4.150,-6.592,-5.981,147.843,20.451,-99.377
4981,-0.3633,0.4761,-0.7510,3.174,-5.981,-5.676,147.876,20.550,-99.360
4991,-0.3696,0.4658,-0.7402,3.418,-4.517,-4.883,147.920,20.638,-99.344
5001,-0.3730,0.4600,-0.7324,4.578,-2.197,-3.784,147.969,20.704,-99.322
5011,-0.3701,0.4697,-0.7363,6.714,0.671,-2.319,148.041,20.731,-99.294
5021,-0.3696,0.4697,-0.7461,9.949,3.357,-0.488,148.145,20.726,-99.272
5031,-0.3667,0.4663,-0.7607,12.390,5.676,1.038,148.277,20.693,-99.250
5041,-0.3652,0.4463,-0.7534,13.123,6.958,2.014,148.425,20.638,-99.229
5051,-0.3740,0.4272,-0.7427,11.536,7.141,2.502,148.563,20.599,-99.212
5061,-0.3779,0.4136,-0.7373,7.996,7.263,3.052,148.667,20.555,-99.196
5071,-0.3706,0.4150,-0.7505,3.784,8.972,4.089,148.733,20.484,-99.185
5081,-0.3433,0.4541,-0.8027,-0.305,12.939,5.371,148.755,20.347,-99.163
5091,-0.3286,0.4932,-0.8643,-2.625,17.578,6.409,148.760,20.143,-99.124
5101,-0.3125,0.5571,-0.9409,-4.333,20.874,6.470,148.744,19.896,-99.069
5111,-0.2788,0.6445,-1.0518,-6.165,22.888,5.554,148.705,19.600,-98.992
5121,-0.2490,0.7085,-1.1372,-7.080,24.109,3.540,148.661,19.286,-98.893
5131,-0.2246,0.7187,-1.1514,-8.667,21.179,-0.244,148.607,19.012,-98.773
5141,-0.2148,0.7085,-1.0942,-12.390,10.498,-6.104,148.508,18.858,-98.657
5151,-0.2378,0.6562,-0.9912,-15.686,-5.737,-12.817,148.359,18.896,-98.575
5161,-0.2891,0.5898,-0.8726,-17.944,-22.095,-18.372,148.167,19.144,-98.531
5171,-0.3364,0.5146,-0.7588,-17.456,-32.166,-20.569,147.975,19.528,-98.525
5181,-0.3726,0.4541,-0.6709,-13.123,-35.217,-20.386,147.821,19.984,-98.542
5191,-0.4131,0.3872,-0.6001,-6.226,-31.433,-18.799,147.750,20.446,-98.553
5201,-0.4395,0.3354,-0.5479,0.427,-22.705,-14.832,147.761,20.858,-98.547
5211,-0.4468,0.2827,-0.4946,5.859,-12.695,-9.216,147.849,21.182,-98.536
5221,-0.4512,0.2285,-0.4507,8.179,-4.456,-2.991,147.986,21.440,-98.531
5231,-0.4551,0.2012,-0.4473,6.836,2.441,2.869,148.123,21.621,-98.547
5241,-0.4463,0.2217,-0.4834,2.197,9.277,8.423,148.211,21.682,-98.569
5251,-0.4121,0.2998,-0.5835,-3.601,19.043,14.343,148.211,21.550,-98.591
5261,-0.3486,0.4336,-0.7573,-6.531,32.532,19.714,148.167,21.176,-98.591
5271,-0.2930,0.5693,-0.9321,-5.615,44.250,22.888,148.134,20.627,-98.547
5281,-0.2534,0.6826,-1.0537,-3.906,49.011,22.949,148.107,20.001,-98.481
5291,-0.2212,0.7480,-1.1421,-0.671,45.349,20.264,148.112,19.407,-98.405
5301,-0.1934,0.7891,-1.2007,2.502,35.156,15.808,148.140,18.907,-98.355
5311,-0.1787,0.8008,-1.2227,4.822,21.912,8.850,148.189,18.561,-98.311
5321,-0.2012,0.7725,-1.1743,4.517,5.737,0.610,148.222,18.402,-98.284
5331,-0.2246,0.7422,-1.1055,2.441,-9.949,-6.531,148.228,18.435,-98.278
5341,-0.2598,0.6587,-0.9619,3.174,-22.644,-11.169,148.228,18.622,-98.306
5351,-0.2998,0.5566,-0.8008,4.028,-30.762,-13.794,148.222,18.940,-98.355
5361,-0.3501,0.4624,-0.6592,4.639,-36.316,-14.099,148.211,19.363,-98.427
5371,-0.3960,0.3916,-0.5723,4.822,-35.278,-12.512,148.206,19.830,-98.514
5381,-0.4351,0.3477,-0.5327,6.653,-27.710,-9.033,148.233,20.253,-98.586
5391,-0.4395,0.3120,-0.5225,7.751,-13.855,-4.028,148.304,20.550,-98.630
5401,-0.4258,0.3071,-0.5518,6.104,0.854,1.221,148.387,20.671,-98.635
5411,-0.3994,0.3398,-0.6128,2.747,14.160,5.005,148.453,20.616,-98.602
5421,-0.3696,0.3745,-0.6914,-1.160,23.621,7.568,148.491,20.424,-98.536
5431,-0.3330,0.4189,-0.7827,-5.676,28.198,8.545,148.497,20.143,-98.459
5441,-0.3047,0.4814,-0.8677,-11.108,29.114,8.728,148.442,19.819,-98.377
5451,-0.2793,0.5439,-0.9370,-14.893,27.405,8.484,148.332,19.490,-98.300
5461,-0.2534,0.6006,-0.9683,-15.442,22.278,8.057,148.195,19.193,-98.245
5471,-0.2402,0.6235,-0.9834,-11.597,14.221,6.958,148.079,18.962,-98.229
5481,-0.2505,0.6216,-0.9897,-5.798,5.920,4.822,148.019,18.820,-98.240
5491,-0.2622,0.6050,-0.9766,-0.610,-0.488,2.380,148.008,18.748,-98.267
5501,-0.2651,0.5791,-0.9502,2.197,-5.127,0.244,148.024,18.737,-98.295
5511,-0.2769,0.5586,-0.9014,2.502,-8.911,-0.916,148.041,18.776,-98.339
5521,-0.2954,0.5371,-0.8574,2.136,-11.719,-1.221,148.041,18.858,-98.394
5531,-0.3120,0.5146,-0.8208,2.136,-13.489,-1.160,148.041,18.962,-98.459
5541,-0.3262,0.4980,-0.7954,2.014,-13.794,-0.977,148.035,19.089,-98.525
5551,-0.3330,0.4858,-0.7769,1.221,-12.634,-0.671,148.030,19.204,-98.591
5561,-0.3345,0.4839,-0.7656,-0.427,-10.681,-0.061,148.002,19.308,-98.652
5571,-0.3325,0.4985,-0.7754,-1.709,-8.362,0.977,147.958,19.380,-98.707
5581,-0.3296,0.5078,-0.7886,-1.587,-5.859,2.258,147.920,19.413,-98.756
5591,-0.3247,0.5161,-0.8042,-0.732,-3.601,3.296,147.887,19.424,-98.811
5601,-0.3218,0.5259,-0.8174,0.000,-2.380,3.540,147.865,19.413,-98.855
5611,-0.3228,0.5293,-0.8271,0.183,-2.075,3.357,147.849,19.402,-98.893
5621,-0.3193,0.5195,-0.8306,0.122,-2.380,2.930,147.838,19.391,-98.937
5631,-0.3091,0.5259,-0.8345,0.183,-2.930,2.563,147.827,19.380,-98.976
5641,-0.3086,0.5254,-0.8374,1.709,-2.930,2.258,147.832,19.374,-99.014
5651,-0.3101,0.5137,-0.8477,3.967,-2.197,2.197,147.870,19.358,-99.042
5661,-0.3076,0.5088,-0.8574,4.578,-1.709,2.319,147.920,19.341,-99.075
5671,-0.3081,0.5137,-0.8584,3.479,-1.770,2.686,147.958,19.319,-99.108
5681,-0.3091,0.5220,-0.8452,1.831,-2.686,3.113,147.964,19.303,-99.152
5691,-0.3145,0.5278,-0.8320,1.404,-3.967,3.357,147.958,19.303,-99.207
5701,-0.3203,0.5283,-0.8179,2.014,-4.761,3.113,147.947,19.319,-99.256
5711,-0.3228,0.5176,-0.7949,2.747,-5.066,2.625,147.947,19.341,-99.311
5721,-0.3276,0.5093,-0.7773,2.747,-4.883,1.892,147.953,19.374,-99.355
5731,-0.3369,0.5063,-0.7656,2.075,-3.723,1.404,147.947,19.402,-99.388
5741,-0.3437,0.5068,-0.7593,1.465,-1.648,1.465,147.936,19.424,-99.410
5751,-0.3574,0.5117,-0.7520,1.160,0.671,1.709,147.920,19.429,-99.421
5761,-0.3589,0.5181,-0.7505,1.282,2.380,1.892,147.909,19.418,-99.426
5771,-0.3511,0.5225,-0.7651,1.892,3.052,1.587,147.903,19.396,-99.421
5781,-0.3408,0.5298,-0.7832,2.197,3.235,1.160,147.909,19.369,-99.415
5791,-0.3281,0.5430,-0.7988,1.465,3.418,0.671,147.909,19.330,-99.404
5801,-0.3179,0.5562,-0.8184,0.366,3.723,0.183,147.898,19.281,-99.382
5811,-0.3145,0.5596,-0.8311,-0.061,4.028,-0.427,147.887,19.232,-99.355
5821,-0.3096,0.5562,-0.8345,-0.244,4.211,-1.343,147.881,19.182,-99.322
5831,-0.3120,0.5366,-0.8257,-0.427,3.723,-2.258,147.881,19.149,-99.278
5841,-0.3213,0.5200,-0.8218,-0.732,2.747,-2.991,147.887,19.133,-99.240
5851,-0.3252,0.5044,-0.8174,-0.610,2.441,-3.296,147.898,19.127,-99.196
5861,-0.3228,0.4897,-0.8145,-0.122,2.808,-3.052,147.920,19.116,-99.152
5871,-0.3184,0.4844,-0.8096,0.305,3.174,-2.625,147.947,19.100,-99.108
5881,-0.3062,0.4932,-0.8203,0.427,3.662,-2.075,147.975,19.061,-99.069
5891,-0.3027,0.5146,-0.8369,1.099,4.089,-1.770,148.002,19.017,-99.031
5901,-0.3047,0.5298,-0.8579,3.113,3.967,-1.587,148.052,18.973,-98.992
5912,-0.3096,0.5308,-0.8853,5.493,3.479,-1.709,148.123,18.929,-98.959
5921,-0.3008,0.5337,-0.8994,6.042,3.540,-2.075,148.211,18.880,-98.921
5931,-0.3091,0.5137,-0.8662,4.700,2.869,-2.197,148.277,18.853,-98.888
5941,-0.3267,0.4702,-0.8037,2.258,-0.427,-2.441,148.321,18.875,-98.866
5951,-0.3369,0.4453,-0.7607,-1.221,-5.249,-2.747,148.321,18.951,-98.871
5961,-0.3442,0.4312,-0.7227,-3.174,-7.812,-1.770,148.288,19.061,-98.899
5971,-0.3481,0.4438,-0.7329,-2.625,-5.859,0.366,148.255,19.138,-98.932
5981,-0.3501,0.4619,-0.7559,0.122,-0.183,2.991,148.250,19.149,-98.965
5991,-0.3281,0.4785,-0.8003,4.517,6.409,4.761,148.304,19.072,-98.970
6001,-0.3032,0.5117,-0.8633,7.690,10.986,5.249,148.392,18.929,-98.954
6011,-0.2866,0.5332,-0.9063,7.690,12.390,5.249,148.486,18.759,-98.932
6021,-0.2852,0.5366,-0.8882,4.456,9.766,4.639,148.541,18.622,-98.921
6031,-0.3003,0.5229,-0.8477,0.244,3.540,2.930,148.535,18.556,-98.926
6041,-0.3242,0.5122,-0.8179,-4.761,-2.441,0.977,148.475,18.572,-98.954
6051,-0.3335,0.5186,-0.8071,-9.460,-4.700,-0.610,148.365,18.622,-98.970
6061,-0.3242,0.5586,-0.8330,-11.414,-2.441,-1.221,148.228,18.638,-98.976
6071,-0.3145,0.5864,-0.8677,-8.240,2.930,-0.549,148.134,18.600,-98.954
6081,-0.2998,0.5869,-0.8901,-1.709,7.446,0.183,148.112,18.506,-98.915
6091,-0.2720,0.5723,-0.8735,3.723,7.812,0.122,148.151,18.402,-98.871
6101,-0.2725,0.5415,-0.8486,5.737,2.747,-1.099,148.206,18.353,-98.844
6111,-0.2944,0.5244,-0.8296,3.784,-4.517,-2.808,148.239,18.386,-98.844
6121,-0.3179,0.5068,-0.8081,0.244,-9.399,-3.784,148.233,18.484,-98.866
6131,-0.3379,0.4771,-0.7480,-2.014,-10.864,-3.906,148.195,18.622,-98.888
6141,-0.3530,0.4624,-0.7109,-2.319,-11.047,-3.723,148.151,18.776,-98.915
6151,-0.3584,0.4521,-0.6968,-1.282,-9.338,-2.869,148.118,18.913,-98.943
6161,-0.3589,0.4424,-0.7036,0.549,-4.639,-1.404,148.118,19.006,-98.959
6171,-0.3437,0.4458,-0.7373,1.709,2.136,0.366,148.145,19.012,-98.948
6181,-0.2905,0.4917,-0.8403,1.038,10.010,2.014,148.184,18.891,-98.910
6191,-0.2598,0.5693,-0.9604,0.305,16.418,3.174,148.217,18.682,-98.849
6201,-0.2412,0.6348,-1.0313,0.366,18.250,3.967,148.244,18.435,-98.784
6211,-0.2388,0.6641,-1.0527,1.404,13.245,3.296,148.266,18.226,-98.740
6221,-0.2412,0.6606,-1.0474,2.869,3.540,0.305,148.293,18.127,-98.723
6231,-0.2485,0.6147,-0.9932,2.930,-7.080,-4.028,148.321,18.144,-98.723
6241,-0.2935,0.5083,-0.8560,0.366,-17.578,-8.972,148.332,18.320,-98.740
6251,-0.3335,0.4473,-0.7705,-4.272,-26.306,-13.367,148.293,18.633,-98.767
6261,-0.3574,0.4277,-0.7227,-7.568,-28.381,-14.282,148.222,18.990,-98.795
6271,-0.3770,0.4106,-0.6743,-6.653,-23.132,-10.803,148.151,19.308,-98.828
6281,-0.3789,0.4165,-0.6372,-2.136,-14.465,-5.737,148.107,19.534,-98.855
6291,-0.3789,0.4175,-0.6230,4.150,-6.104,-0.854,148.118,19.660,-98.882
6301,-0.3745,0.4238,-0.6382,8.789,1.648,3.235,148.184,19.693,-98.904
6311,-0.3618,0.4346,-0.6719,10.071,9.033,5.554,148.271,19.633,-98.904
6321,-0.3472,0.4370,-0.7129,7.568,14.404,5.859,148.359,19.512,-98.877
6331,-0.3374,0.4546,-0.7690,1.770,17.029,5.310,148.403,19.352,-98.828
6341,-0.3286,0.4722,-0.8052,-4.700,17.700,5.005,148.387,19.177,-98.773
6351,-0.3252,0.4922,-0.8350,-9.094,16.846,4.822,148.321,19.006,-98.723
6361,-0.3198,0.5132,-0.8696,-10.681,15.076,4.333,148.244,18.842,-98.679
6371,-0.2983,0.5366,-0.9121,-11.536,13.245,3.601,148.156,18.682,-98.641
6381,-0.2593,0.5654,-0.9604,-12.085,12.146,2.869,148.063,18.506,-98.597
6391,-0.2358,0.5854,-0.9707,-12.817,10.498,2.014,147.953,18.342,-98.558
6401,-0.2344,0.6230,-0.9746,-12.634,6.836,1.160,147.832,18.210,-98.531
6411,-0.2456,0.6318,-0.9624,-8.789,2.136,0.977,147.739,18.122,-98.525
6421,-0.2773,0.5986,-0.9146,-2.747,-2.686,0.671,147.695,18.105,-98.547
6431,-0.3115,0.5596,-0.8569,1.648,-7.385,-0.549,147.689,18.155,-98.580
6441,-0.3340,0.5039,-0.7798,4.150,-10.742,-1.526,147.711,18.270,-98.630
6451,-0.3535,0.4595,-0.7217,5.066,-11.963,-2.075,147.744,18.424,-98.679
6461,-0.3408,0.4473,-0.7148,4.517,-9.888,-1.709,147.777,18.550,-98.718
6471,-0.3262,0.4629,-0.7349,3.235,-4.395,-0.122,147.805,18.611,-98.745
6481,-0.3203,0.5024,-0.7656,1.892,2.686,1.953,147.810,18.583,-98.745
6491,-0.3076,0.5493,-0.8037,1.465,9.033,3.784,147.810,18.479,-98.729
6501,-0.2979,0.5894,-0.8418,0.977,12.268,4.333,147.799,18.331,-98.696
6511,-0.3042,0.6123,-0.8638,0.488,11.902,3.296,147.783,18.188,-98.663
6521,-0.3110,0.5786,-0.8281,-0.305,8.484,0.916,147.766,18.100,-98.619
6531,-0.3213,0.5415,-0.8130,-2.197,2.502,-2.563,147.744,18.094,-98.586
6541,-0.3262,0.5244,-0.8145,-4.211,-1.465,-4.944,147.706,18.138,-98.547
6551,-0.3179,0.5068,-0.8223,-4.517,-1.282,-5.066,147.678,18.177,-98.509
6561,-0.2793,0.5249,-0.8833,-3.113,1.709,-4.028,147.678,18.155,-98.465
6571,-0.2520,0.5649,-0.9492,-0.977,6.348,-2.991,147.706,18.067,-98.405
6581,-0.2598,0.5913,-0.9746,0.916,9.033,-3.052,147.744,17.952,-98.322
6591,-0.2588,0.5889,-0.9380,1.221,6.653,-4.456,147.783,17.875,-98.245
6601,-0.2886,0.5415,-0.8560,0.732,-1.770,-6.592,147.805,17.902,-98.201
6611,-0.3193,0.5029,-0.8076,0.366,-11.108,-8.484,147.816,18.045,-98.185
6621,-0.3359,0.4600,-0.7583,0.732,-15.625,-8.423,147.827,18.248,-98.196
6631,-0.3403,0.4229,-0.7168,1.404,-14.771,-6.226,147.849,18.446,-98.223
6641,-0.3208,0.3945,-0.7075,1.770,-11.353,-3.662,147.887,18.594,-98.256
6651,-0.3198,0.4146,-0.7314,2.136,-5.981,-1.648,147.931,18.671,-98.273
6661,-0.3330,0.4365,-0.7534,4.211,0.061,1.404,147.986,18.688,-98.289
6671,-0.3398,0.4556,-0.7744,7.324,4.761,4.761,148.068,18.644,-98.306
6681,-0.3359,0.4727,-0.8057,9.644,7.446,6.775,148.173,18.556,-98.322
6691,-0.3203,0.4961,-0.8535,9.155,9.277,7.385,148.277,18.435,-98.339
6701,-0.2817,0.5425,-0.9224,5.737,10.681,6.897,148.343,18.270,-98.339
6711,-0.2583,0.5894,-0.9712,1.465,11.292,5.737,148.365,18.094,-98.328
6721,-0.2539,0.6152,-0.9795,-1.465,9.644,3.967,148.354,17.935,-98.311
6731,-0.2539,0.6196,-0.9775,-2.014,5.371,1.404,148.332,17.825,-98.295
6741,-0.2573,0.6133,-0.9570,-1.770,0.427,-1.221,148.310,17.776,-98.284
6751,-0.2725,0.5830,-0.8896,-0.977,-4.700,-2.625,148.282,17.798,-98.284
6761,-0.3037,0.5342,-0.8110,0.549,-11.536,-3.296,148.260,17.908,-98.317
6771,-0.3242,0.4956,-0.7607,2.747,-16.968,-3.540,148.255,18.083,-98.383
6781,-0.3345,0.4634,-0.7129,5.066,-18.066,-3.235,148.271,18.287,-98.448
6791,-0.3506,0.4419,-0.6816,7.507,-16.052,-2.319,148.310,18.484,-98.520
6801,-0.3579,0.4282,-0.6821,8.972,-11.536,-1.160,148.381,18.644,-98.575
6811,-0.3594,0.4336,-0.6934,8.728,-4.822,0.061,148.453,18.737,-98.602
6821,-0.3574,0.4531,-0.7080,7.019,2.075,1.160,148.513,18.754,-98.597
6831,-0.3501,0.4771,-0.7329,4.333,7.568,1.953,148.546,18.710,-98.575
6841,-0.3369,0.5063,-0.7656,1.099,11.963,2.380,148.552,18.611,-98.531
6851,-0.3062,0.5342,-0.8076,-0.977,14.954,2.136,148.541,18.463,-98.465
6861,-0.2954,0.5503,-0.8481,-1.892,14.954,0.977,148.530,18.309,-98.394
6871,-0.2949,0.5640,-0.8857,-1.831,12.207,-0.488,148.524,18.182,-98.322
6881,-0.2852,0.5830,-0.9282,-0.977,8.972,-1.587,148.530,18.078,-98.256
6891,-0.2769,0.6050,-0.9590,0.000,7.324,-2.319,148.541,17.985,-98.196
6901,-0.2822,0.5884,-0.9526,1.404,6.348,-3.662,148.568,17.913,-98.130
6911,-0.2871,0.5488,-0.9160,1.282,3.967,-5.127,148.607,17.880,-98.064
6921,-0.2827,0.4917,-0.8623,0.305,-0.183,-6.409,148.645,17.891,-98.004
6931,-0.2910,0.4199,-0.7988,-0.916,-5.859,-7.019,148.683,17.979,-97.976
6941,-0.3076,0.3555,-0.7593,-1.770,-10.437,-5.676,148.727,18.116,-97.982
6951,-0.3149,0.3379,-0.7437,-1.221,-11.536,-2.136,148.766,18.254,-98.026
6961,-0.3237,0.3481,-0.7539,0.916,-8.423,3.418,148.821,18.342,-98.102
6971,-0.3262,0.3652,-0.7783,3.540,-2.625,9.155,148.881,18.342,-98.196
6981,-0.3188,0.4111,-0.8125,4.517,3.784,13.000,148.942,18.254,-98.295
6991,-0.3086,0.4531,-0.8472,4.578,8.301,14.526,148.991,18.100,-98.383
7001,-0.3022,0.4829,-0.8613,3.113,8.484,14.099,149.013,17.946,-98.459
7011,-0.2920,0.5352,-0.8828,-0.061,5.371,12.817,148.980,17.814,-98.547
7021,-0.2612,0.5942,-0.9165,-2.441,2.625,11.597,148.914,17.688,-98.641
7031,-0.2495,0.6479,-0.9287,-2.930,1.221,9.827,148.821,17.578,-98.718
7041,-0.2603,0.6802,-0.9141,-2.441,-0.916,7.568,148.716,17.501,-98.795
7051,-0.2744,0.6885,-0.8887,-1.587,-4.395,4.822,148.618,17.474,-98.860
7061,-0.2944,0.6860,-0.8682,-0.305,-7.385,1.160,148.530,17.507,-98.910
7071,-0.3237,0.6807,-0.8276,1.892,-8.667,-2.686,148.464,17.584,-98.932
7081,-0.3408,0.6387,-0.7725,5.188,-9.399,-5.981,148.436,17.704,-98.932
7091,-0.3442,0.5957,-0.7407,7.385,-9.583,-9.033,148.442,17.858,-98.904
7101,-0.3452,0.5532,-0.7261,8.301,-7.935,-11.292,148.486,18.012,-98.849
7111,-0.3398,0.5015,-0.7134,8.606,-4.272,-12.512,148.563,18.144,-98.756
7121,-0.3208,0.4336,-0.7051,7.202,-0.427,-12.695,148.667,18.243,-98.646
7131,-0.3120,0.3862,-0.7104,3.662,2.563,-11.536,148.766,18.309,-98.531
7141,-0.3213,0.3706,-0.7271,0.549,5.615,-8.362,148.848,18.336,-98.421
7151,-0.3286,0.3750,-0.7632,-1.282,8.911,-4.395,148.914,18.314,-98.333
7161,-0.3164,0.3867,-0.8105,-1.831,12.024,-0.732,148.975,18.226,-98.262
7171,-0.2939,0.4146,-0.8716,-1.282,14.038,1.770,149.035,18.083,-98.201
7181,-0.2803,0.4492,-0.9346,-0.488,13.550,3.052,149.095,17.924,-98.157
7191,-0.2666,0.4819,-0.9844,0.671,10.864,3.601,149.161,17.770,-98.130
7201,-0.2490,0.5181,-1.0254,1.221,6.714,3.540,149.211,17.639,-98.124
7211,-0.2383,0.5361,-1.0308,2.014,1.709,2.991,149.260,17.551,-98.146
7221,-0.2393,0.5308,-0.9980,2.502,-3.906,1.831,149.299,17.518,-98.179
7231,-0.2456,0.5078,-0.9058,0.854,-10.742,0.305,149.304,17.567,-98.240
7241,-0.2803,0.4932,-0.8105,-2.014,-18.188,-1.038,149.255,17.715,-98.328
7251,-0.3159,0.4893,-0.7495,-3.540,-21.851,-1.648,149.161,17.924,-98.432
7261,-0.3477,0.4858,-0.7021,-2.686,-19.287,-1.465,149.073,18.138,-98.525
7271,-0.3638,0.4829,-0.6841,-0.793,-11.963,-0.610,149.002,18.298,-98.580
7281,-0.3623,0.4819,-0.6929,1.526,-3.357,0.610,148.969,18.375,-98.608
7291,-0.3550,0.4897,-0.7241,2.380,4.333,2.258,148.964,18.364,-98.602
7301,-0.3457,0.5054,-0.7593,1.465,9.094,3.906,148.958,18.287,-98.586
7311,-0.3320,0.5254,-0.8018,-0.732,10.864,4.517,148.936,18.182,-98.569
7321,-0.3140,0.5459,-0.8740,-2.625,10.986,3.479,148.909,18.056,-98.542
7331,-0.3013,0.5674,-0.9360,-4.395,10.071,1.526,148.876,17.941,-98.503
7341,-0.2886,0.5742,-0.9702,-5.249,7.812,-0.061,148.843,17.836,-98.459
7351,-0.2754,0.5649,-0.9790,-5.127,3.418,-1.404,148.815,17.776,-98.427
7361,-0.2676,0.5493,-0.9717,-4.456,-1.953,-2.869,148.788,17.759,-98.410
7371,-0.2593,0.5225,-0.9214,-3.479,-7.263,-4.395,148.771,17.803,-98.410
7381,-0.2607,0.4980,-0.8550,-2.991,-11.780,-5.127,148.749,17.902,-98.432
7391,-0.2817,0.4668,-0.8047,-1.770,-14.282,-5.005,148.733,18.040,-98.465
7401,-0.3071,0.4482,-0.7622,0.732,-13.489,-3.906,148.733,18.182,-98.503
7411,-0.3276,0.4312,-0.7324,3.784,-9.766,-2.014,148.771,18.303,-98.536
7421,-0.3394,0.4243,-0.7173,4.700,-5.066,0.244,148.810,18.386,-98.564
7431,-0.3423,0.4395,-0.7305,3.601,-0.854,2.197,148.843,18.413,-98.591
7441,-0.3437,0.4692,-0.7593,1.953,2.930,3.601,148.848,18.397,-98.608
7451,-0.3345,0.5015,-0.7886,0.549,6.042,4.272,148.843,18.336,-98.613
7461,-0.3218,0.5312,-0.8237,-0.366,8.606,4.456,148.821,18.243,-98.608
7471,-0.3154,0.5483,-0.8462,-1.099,9.766,4.150,148.799,18.127,-98.591
7481,-0.3086,0.5581,-0.8564,-1.648,9.399,3.113,148.771,18.018,-98.569
7491,-0.2974,0.5605,-0.8569,-2.258,7.690,1.465,148.738,17.930,-98.536
7501,-0.2808,0.5645,-0.8423,-2.625,4.639,-0.305,148.694,17.869,-98.509
7511,-0.2827,0.5737,-0.8452,-1.282,1.038,-1.526,148.661,17.842,-98.492
7521,-0.2915,0.5684,-0.8423,1.953,-0.916,-1.953,148.656,17.842,-98.476
7531,-0.2998,0.5527,-0.8398,5.188,-0.854,-2.441,148.694,17.847,-98.459
7541,-0.3057,0.5352,-0.8511,6.409,0.488,-3.113,148.755,17.853,-98.432
7551,-0.3169,0.5059,-0.8389,4.883,2.075,-3.967,148.821,17.853,-98.383
7561,-0.3198,0.4897,-0.8340,1.282,2.258,-4.883,148.859,17.864,-98.328
7571,-0.3125,0.4927,-0.8413,-2.075,1.953,-5.249,148.865,17.875,-98.267
7581,-0.3125,0.4805,-0.8408,-3.235,1.648,-5.066,148.859,17.886,-98.212
7591,-0.3086,0.4736,-0.8374,-3.540,1.099,-4.944,148.859,17.902,-98.163
7601,-0.2969,0.4687,-0.8315,-3.540,0.000,-4.578,148.854,17.919,-98.124
7611,-0.2881,0.4644,-0.8403,-2.869,-0.977,-3.784,148.854,17.935,-98.097
7621,-0.2905,0.4624,-0.8423,-1.648,-0.854,-2.869,148.870,17.946,-98.075
7631,-0.2935,0.4526,-0.8267,-0.610,0.122,-2.136,148.892,17.946,-98.053
7641,-0.2998,0.4380,-0.8154,-0.671,0.977,-1.282,148.920,17.946,-98.036
7651,-0.3086,0.4404,-0.8359,-1.953,2.441,-0.488,148.942,17.930,-98.020
7661,-0.3105,0.4556,-0.8438,-3.723,4.333,0.610,148.936,17.891,-98.004
7671,-0.3057,0.4790,-0.8403,-4.700,4.822,1.892,148.903,17.836,-97.993
7681,-0.3032,0.5181,-0.8418,-4.395,3.601,3.174,148.854,17.781,-98.004
7691,-0.3008,0.5488,-0.8599,-1.343,1.709,4.272,148.815,17.732,-98.031
7701,-0.2930,0.5518,-0.8691,2.747,-0.488,4.333,148.821,17.693,-98.069
7711,-0.2939,0.5498,-0.8779,5.066,-2.563,3.357,148.848,17.682,-98.113
7721,-0.2954,0.5444,-0.8740,4.700,-3.662,1.953,148.876,17.688,-98.152
7731,-0.2905,0.5405,-0.8550,2.441,-3.662,0.671,148.881,17.699,-98.179
7741,-0.2915,0.5322,-0.8315,0.183,-3.723,-0.916,148.865,17.721,-98.190
7751,-0.3052,0.5229,-0.8037,-0.977,-3.906,-2.197,148.832,17.765,-98.190
7761,-0.3198,0.5215,-0.7822,-0.854,-3.418,-2.747,148.804,17.820,-98.185
7771,-0.3218,0.5083,-0.7695,0.366,-2.014,-2.441,148.788,17.864,-98.174
7781,-0.3213,0.4932,-0.7671,1.770,-0.061,-2.197,148.793,17.891,-98.157
7791,-0.3218,0.4849,-0.7744,2.197,1.831,-1.831,148.815,17.897,-98.130
7801,-0.3164,0.4863,-0.7876,1.709,3.906,-0.977,148.837,17.880,-98.097
7811,-0.3057,0.4985,-0.8140,0.916,5.310,-0.061,148.854,17.831,-98.069
7821,-0.2954,0.5054,-0.8423,0.977,5.615,0.122,148.870,17.776,-98.042
7831,-0.2949,0.5146,-0.8687,0.977,4.822,-0.488,148.898,17.721,-98.009
7841,-0.2925,0.5156,-0.8848,0.122,3.174,-1.099,148.914,17.682,-97.982
7851,-0.2910,0.5229,-0.8779,-0.977,1.343,-1.465,148.914,17.661,-97.965
7861,-0.2964,0.5249,-0.8638,-1.160,0.000,-1.648,148.903,17.655,-97.949
7871,-0.2993,0.5142,-0.8496,0.000,-0.366,-1.953,148.909,17.661,-97.932
7881,-0.2998,0.5029,-0.8394,2.075,-0.061,-2.441,148.936,17.666,-97.910
7891,-0.2998,0.4941,-0.8320,3.662,0.427,-2.563,148.986,17.672,-97.883
7901,-0.2959,0.4893,-0.8320,4.150,0.793,-2.380,149.041,17.672,-97.861
7913,-0.2944,0.4917,-0.8418,3.601,0.916,-2.014,149.090,17.666,-97.839
7921,-0.2920,0.4966,-0.8545,2.808,1.282,-1.648,149.128,17.650,-97.817
7931,-0.3032,0.4956,-0.8403,2.014,1.038,-1.404,149.156,17.644,-97.795
7941,-0.3130,0.4937,-0.8247,1.526,-0.549,-0.916,149.172,17.655,-97.789
7951,-0.3159,0.4858,-0.8091,2.319,-2.136,-0.305,149.194,17.688,-97.800
7961,-0.3291,0.4766,-0.7734,4.028,-2.686,0.549,149.216,17.726,-97.817
7971,-0.3384,0.4712,-0.7300,7.019,-2.441,1.892,149.260,17.776,-97.850
7981,-0.3389,0.4834,-0.7114,12.451,-1.282,3.784,149.337,17.803,-97.888
7991,-0.3408,0.4839,-0.7041,22.339,1.160,6.287,149.502,17.803,-97.943
8001,-0.3389,0.4453,-0.7417,33.936,4.578,8.179,149.821,17.759,-97.993
8011,-0.3081,0.4448,-0.8418,38.757,9.277,8.240,150.216,17.639,-98.015
8021,-0.2817,0.4639,-0.9170,34.058,14.160,7.324,150.584,17.457,-98.009
8031,-0.2749,0.4819,-0.9448,23.743,15.686,5.920,150.853,17.265,-97.982
8041,-0.2510,0.5312,-0.9717,10.681,12.268,3.601,150.974,17.095,-97.954
8051,-0.2412,0.5806,-0.9785,-0.488,6.104,0.549,150.958,16.990,-97.927
8061,-0.2563,0.5972,-0.9531,-6.714,-1.038,-2.869,150.870,16.974,-97.905
8071,-0.2720,0.5796,-0.9243,-8.118,-7.324,-6.226,150.765,17.034,-97.888
8081,-0.2803,0.5215,-0.8848,-6.348,-10.620,-9.033,150.694,17.155,-97.861
8091,-0.2871,0.4595,-0.8506,-3.479,-10.559,-10.437,150.683,17.287,-97.817
8101,-0.3008,0.4116,-0.8208,-1.892,-8.484,-9.094,150.705,17.413,-97.778
8111,-0.3008,0.3789,-0.8047,-1.343,-5.432,-5.981,150.738,17.501,-97.751
8121,-0.3081,0.3682,-0.8013,-0.977,-2.197,-2.869,150.776,17.551,-97.734
8131,-0.3066,0.3818,-0.8115,-1.221,0.977,-0.549,150.809,17.562,-97.723
8141,-0.3003,0.4102,-0.8320,-1.038,3.601,1.648,150.831,17.523,-97.723
8151,-0.2993,0.4307,-0.8623,0.366,5.127,3.296,150.859,17.463,-97.729
8161,-0.2910,0.4463,-0.8940,1.160,5.615,3.845,150.892,17.380,-97.734
8171,-0.2822,0.4609,-0.9136,0.366,5.371,3.784,150.919,17.298,-97.740
8181,-0.2773,0.4736,-0.9199,-1.953,4.639,3.784,150.914,17.216,-97.751
8191,-0.2773,0.4941,-0.9180,-5.188,2.808,3.845,150.864,17.150,-97.773
8201,-0.2808,0.5176,-0.9189,-6.714,0.122,3.784,150.787,17.111,-97.806
8211,-0.2842,0.5293,-0.9141,-5.310,-3.113,3.357,150.710,17.100,-97.855
8221,-0.2842,0.5327,-0.9067,-2.319,-6.165,2.441,150.661,17.122,-97.905
8231,-0.2876,0.5190,-0.8804,0.549,-8.545,1.709,150.639,17.172,-97.965
8241,-0.2920,0.4912,-0.8306,2.686,-10.498,1.282,150.634,17.254,-98.031
8251,-0.3032,0.4497,-0.7505,3.479,-12.451,0.916,150.628,17.375,-98.102
8261,-0.3291,0.4297,-0.7007,2.625,-13.428,0.854,150.612,17.534,-98.179
8271,-0.3491,0.4326,-0.6875,0.488,-10.620,1.587,150.568,17.672,-98.251
8281,-0.3599,0.4463,-0.6772,-0.183,-3.235,2.869,150.513,17.748,-98.295
8291,-0.3740,0.4375,-0.6675,2.686,5.005,4.150,150.502,17.759,-98.306
8301,-0.3711,0.4224,-0.6807,7.568,11.414,5.615,150.551,17.704,-98.295
8311,-0.3462,0.4165,-0.7241,11.475,16.052,7.751,150.667,17.578,-98.284
8321,-0.3081,0.4297,-0.7944,11.292,19.653,10.132,150.787,17.369,-98.278
8331,-0.2764,0.4868,-0.8989,6.897,21.484,10.986,150.870,17.111,-98.267
8341,-0.2329,0.5742,-1.0117,1.099,22.949,10.437,150.881,16.804,-98.245
8351,-0.1973,0.6343,-1.0728,-1.953,23.804,8.240,150.859,16.479,-98.201
8361,-0.2031,0.6377,-1.0518,-2.136,20.142,4.089,150.837,16.216,-98.135
8371,-0.2295,0.5649,-0.9868,-1.526,10.071,-1.465,150.831,16.084,-98.069
8381,-0.2715,0.4639,-0.9121,-3.235,-1.892,-7.202,150.837,16.128,-98.015
8391,-0.3032,0.3999,-0.8198,-8.667,-10.620,-10.742,150.798,16.293,-97.971
8401,-0.3081,0.3921,-0.7739,-14.587,-14.709,-9.155,150.677,16.496,-97.965
8411,-0.2603,0.4810,-0.8740,-15.503,-11.292,-4.578,150.524,16.595,-97.976
8421,-0.2358,0.5396,-0.9502,-7.996,0.305,-0.427,150.447,16.551,-97.971
8431,-0.2324,0.5410,-0.9756,1.587,10.254,1.648,150.474,16.408,-97.938
8441,-0.2266,0.5293,-0.9854,5.249,10.193,0.610,150.557,16.265,-97.888
8451,-0.2480,0.5034,-0.9619,2.563,2.686,-1.709,150.606,16.216,-97.861
8461,-0.2812,0.4824,-0.9199,-2.563,-7.202,-3.784,150.595,16.287,-97.861
8471,-0.2959,0.4658,-0.8584,-5.371,-14.893,-4.089,150.540,16.441,-97.899
8481,-0.3057,0.4365,-0.8018,-2.502,-18.738,-2.991,150.507,16.639,-97.971
8491,-0.3115,0.4082,-0.7690,1.587,-19.287,-1.221,150.513,16.842,-98.058
8501,-0.3145,0.3896,-0.7573,3.601,-17.212,0.610,150.546,17.023,-98.152
8512,-0.3125,0.3901,-0.7554,3.174,-12.512,2.441,150.573,17.150,-98.240
8521,-0.3003,0.4102,-0.7656,1.831,-6.653,4.517,150.579,17.205,-98.311
8531,-0.2944,0.4390,-0.8062,1.831,-1.404,6.775,150.590,17.188,-98.383
8541,-0.2803,0.4619,-0.8608,3.052,2.686,8.362,150.612,17.111,-98.443
8551,-0.2676,0.4863,-0.9072,2.625,5.005,8.850,150.634,17.001,-98.498
8561,-0.2549,0.5361,-0.9380,-0.610,4.517,8.484,150.606,16.886,-98.553
8571,-0.2559,0.5801,-0.9360,-3.967,1.465,7.141,150.529,16.798,-98.613
8581,-0.2754,0.5811,-0.8862,-3.967,-3.418,4.639,150.436,16.782,-98.674
8591,-0.3052,0.5415,-0.7935,-2.075,-9.827,1.404,150.348,16.870,-98.734
8601,-0.3291,0.4946,-0.7222,-0.061,-14.709,-1.160,150.282,17.040,-98.800
8611,-0.3379,0.4702,-0.7153,1.709,-13.794,-1.892,150.244,17.210,-98.855
8621,-0.3252,0.4722,-0.7559,2.014,-5.432,-0.366,150.238,17.287,-98.882
8631,-0.3130,0.4941,-0.8257,2.625,6.470,1.648,150.255,17.232,-98.860
8641,-0.3047,0.5220,-0.8921,4.333,15.503,3.784,150.304,17.073,-98.817
8651,-0.2974,0.5312,-0.9292,7.507,17.334,6.348,150.392,16.875,-98.784
8661,-0.2969,0.5005,-0.8848,11.658,10.742,9.094,150.496,16.732,-98.811
8671,-0.2979,0.4541,-0.8364,14.038,-1.587,12.207,150.612,16.694,-98.932
8681,-0.2842,0.4165,-0.8091,13.611,-13.000,14.709,150.710,16.743,-99.130
8691,-0.2676,0.4160,-0.8252,10.132,-14.404,14.954,150.776,16.787,-99.338
8701,-0.2607,0.4365,-0.8628,5.859,-2.991,13.123,150.820,16.732,-99.476
8711,-0.2485,0.4653,-0.8862,1.160,12.573,11.353,150.837,16.540,-99.514
8721,-0.2466,0.4956,-0.9058,-3.845,23.987,9.949,150.809,16.254,-99.481
8731,-0.2544,0.5210,-0.9292,-7.446,28.137,7.263,150.760,15.947,-99.404
8741,-0.2739,0.5444,-0.9404,-8.545,24.841,3.845,150.688,15.699,-99.316
8751,-0.2876,0.5483,-0.9312,-6.836,17.639,1.221,150.634,15.529,-99.234
8761,-0.2837,0.5308,-0.9131,-3.479,10.315,-0.732,150.606,15.441,-99.179
8771,-0.2651,0.4985,-0.8701,-0.977,3.784,-2.563,150.601,15.414,-99.135
8781,-0.2544,0.4580,-0.8086,-0.671,-2.991,-4.639,150.601,15.463,-99.108
8791,-0.2700,0.4385,-0.7705,-2.014,-9.033,-5.981,150.584,15.584,-99.097
8801,-0.2856,0.4321,-0.7593,-3.113,-11.353,-5.981,150.546,15.738,-99.102
8811,-0.3008,0.4492,-0.7598,-2.563,-9.216,-4.211,150.507,15.864,-99.113
8821,-0.3135,0.4604,-0.7656,0.183,-4.700,-1.831,150.491,15.952,-99.119
8831,-0.3096,0.4736,-0.7881,2.747,0.122,0.061,150.507,15.974,-99.119
8841,-0.2949,0.4971,-0.8198,3.784,3.845,1.099,150.529,15.947,-99.108
8851,-0.2681,0.5332,-0.8765,3.540,5.981,1.160,150.551,15.881,-99.091
8861,-0.2417,0.5527,-0.9258,3.174,5.615,-0.305,150.573,15.798,-99.058
8871,-0.2314,0.5605,-0.9453,1.221,1.892,-2.380,150.584,15.754,-99.025
8881,-0.2334,0.5635,-0.9478,-1.648,-4.333,-4.089,150.557,15.776,-99.014
8891,-0.2349,0.5483,-0.9316,-3.540,-10.742,-5.432,150.513,15.859,-99.020
8901,-0.2583,0.5166,-0.8960,-3.235,-16.907,-6.592,150.469,16.018,-99.047
8911,-0.2861,0.4805,-0.8638,-2.136,-20.264,-6.714,150.436,16.227,-99.086
8921,-0.3042,0.4570,-0.8247,-0.732,-19.104,-6.226,150.425,16.436,-99.130
8931,-0.3169,0.4331,-0.7881,1.404,-14.832,-5.371,150.441,16.622,-99.157
8941,-0.3174,0.4194,-0.7681,2.991,-9.888,-4.333,150.474,16.760,-99.168
8951,-0.3125,0.4102,-0.7690,3.845,-4.700,-3.052,150.529,16.848,-99.163
8961,-0.2920,0.4023,-0.7827,2.930,-0.183,-2.075,150.584,16.875,-99.146
8971,-0.2778,0.4214,-0.8120,-1.038,1.953,-1.465,150.601,16.864,-99.124
8981,-0.2788,0.4409,-0.8350,-5.737,2.563,-0.427,150.568,16.837,-99.108
8991,-0.2852,0.4736,-0.8530,-9.216,3.296,1.404,150.480,16.798,-99.102
9001,-0.2954,0.4941,-0.8584,-8.667,3.418,2.686,150.386,16.754,-99.108
9012,-0.3027,0.4917,-0.8623,-4.211,3.174,3.296,150.342,16.710,-99.124
9021,-0.2988,0.4775,-0.8652,0.366,2.563,3.418,150.348,16.677,-99.141
9031,-0.2832,0.4883,-0.8877,2.136,1.648,2.991,150.370,16.633,-99.157
9041,-0.2754,0.5020,-0.9087,2.258,0.977,2.136,150.397,16.600,-99.174
9051,-0.2690,0.5171,-0.9116,1.404,-0.488,0.854,150.408,16.578,-99.185
9061,-0.2451,0.5229,-0.9155,0.183,-2.075,-0.549,150.408,16.562,-99.190
9071,-0.2324,0.5156,-0.9063,-1.648,-2.563,-2.502,150.392,16.556,-99.179
9081,-0.2622,0.5078,-0.8726,-4.944,-2.686,-4.517,150.348,16.584,-99.152
9091,-0.2881,0.4844,-0.8291,-8.301,-3.784,-5.493,150.266,16.644,-99.124
9101,-0.3091,0.4692,-0.7905,-9.705,-4.639,-5.676,150.167,16.732,-99.097
9111,-0.3267,0.4551,-0.7764,-7.874,-3.906,-4.944,150.090,16.820,-99.069
9121,-0.3184,0.4766,-0.8193,-5.005,-0.183,-2.991,150.046,16.853,-99.047
9131,-0.2827,0.5068,-0.8911,-1.831,5.737,-0.671,150.040,16.793,-99.009
9141,-0.2617,0.5337,-0.9346,0.061,9.827,0.427,150.057,16.677,-98.959
9151,-0.2480,0.5532,-0.9419,-0.671,8.362,-0.061,150.057,16.567,-98.915
9161,-0.2476,0.5425,-0.9224,-0.366,2.258,-2.075,150.057,16.523,-98.888
9171,-0.2778,0.4922,-0.8564,0.061,-5.493,-4.272,150.062,16.584,-98.877
9181,-0.3164,0.4126,-0.7593,0.122,-12.451,-5.432,150.073,16.749,-98.893
9191,-0.3408,0.3735,-0.6943,-0.488,-16.418,-5.127,150.073,16.985,-98.932
9201,-0.3560,0.3682,-0.6855,-0.122,-14.282,-3.052,150.079,17.199,-98.976
9211,-0.3403,0.4082,-0.7334,0.977,-5.737,0.610,150.084,17.292,-99.014
9221,-0.2974,0.4595,-0.8213,3.601,6.042,4.211,150.123,17.221,-99.020
9231,-0.2578,0.5283,-0.9302,4.700,15.381,5.493,150.183,17.023,-98.992
9241,-0.2329,0.5869,-1.0049,2.136,17.944,4.272,150.216,16.793,-98.937
9251,-0.2314,0.6045,-1.0269,-1.587,13.916,1.465,150.211,16.606,-98.877
9261,-0.2446,0.5815,-0.9907,-6.287,5.005,-1.831,150.150,16.529,-98.833
9271,-0.2842,0.5259,-0.8936,-10.742,-6.226,-5.127,150.046,16.595,-98.822
9281,-0.3130,0.4810,-0.7910,-12.207,-15.808,-7.507,149.903,16.787,-98.833
9291,-0.3237,0.4487,-0.7310,-9.033,-19.775,-7.263,149.793,17.034,-98.871
9301,-0.3213,0.4214,-0.7095,-3.113,-16.418,-4.761,149.744,17.238,-98.915
9311,-0.3174,0.4209,-0.7256,3.296,-7.141,-2.075,149.771,17.347,-98.937
9321,-0.3062,0.4375,-0.7681,7.385,3.662,0.427,149.854,17.331,-98.921
9331,-0.2915,0.4575,-0.8223,7.874,11.230,2.441,149.952,17.221,-98.882
9341,-0.2974,0.4844,-0.8564,3.967,13.306,2.686,150.013,17.089,-98.839
9351,-0.2954,0.5220,-0.8945,-1.282,10.620,1.587,150.007,16.979,-98.795
9361,-0.2949,0.5347,-0.9038,-4.761,6.714,0.366,149.963,16.908,-98.762
9371,-0.2954,0.5303,-0.8882,-6.226,2.686,-0.916,149.903,16.880,-98.740
9381,-0.2847,0.5259,-0.8823,-6.042,-0.305,-1.770,149.837,16.875,-98.729
9391,-0.2739,0.5088,-0.8579,-4.089,-1.404,-1.953,149.793,16.880,-98.718
9401,-0.2671,0.4878,-0.8403,-1.831,-1.465,-1.770,149.782,16.891,-98.707
9411,-0.2720,0.4722,-0.8267,-0.366,-0.671,-1.404,149.782,16.891,-98.701
9421,-0.2812,0.4746,-0.8296,0.427,0.977,-0.977,149.799,16.886,-98.685
9431,-0.2812,0.4819,-0.8481,1.465,3.052,-0.305,149.821,16.853,-98.668
9441,-0.2861,0.4785,-0.8550,2.808,3.418,-0.122,149.865,16.815,-98.646
9451,-0.2910,0.4819,-0.8604,3.235,1.587,0.000,149.908,16.798,-98.641
9461,-0.2954,0.4795,-0.8657,2.747,-0.122,0.488,149.947,16.798,-98.646
9471,-0.2959,0.4775,-0.8584,1.343,-0.854,0.793,149.963,16.798,-98.657
9481,-0.2925,0.4771,-0.8550,-0.061,-0.916,0.916,149.969,16.804,-98.668
9491,-0.2852,0.4756,-0.8628,-1.343,-0.610,0.977,149.963,16.793,-98.679
9501,-0.2817,0.4707,-0.8652,-2.319,-0.183,1.221,149.952,16.782,-98.696
9512,-0.2798,0.4736,-0.8638,-3.052,0.183,1.404,149.930,16.765,-98.707
9521,-0.2783,0.4746,-0.8628,-3.052,0.366,1.770,149.908,16.743,-98.718
9531,-0.2764,0.4751,-0.8657,-2.197,0.427,2.380,149.897,16.716,-98.740
9541,-0.2734,0.4805,-0.8682,-1.282,0.488,2.991,149.886,16.683,-98.762
9551,-0.2705,0.4956,-0.8750,-0.366,0.671,3.601,149.881,16.644,-98.795
9561,-0.2725,0.5034,-0.8809,0.427,0.916,4.089,149.881,16.600,-98.822
9571,-0.2725,0.5083,-0.8809,0.488,0.793,4.333,149.875,16.556,-98.860
9581,-0.2749,0.5146,-0.8784,-0.427,0.488,4.150,149.859,16.518,-98.893
9591,-0.2778,0.5229,-0.8594,-1.709,-0.244,3.601,149.821,16.490,-98.926
9601,-0.2837,0.5308,-0.8457,-2.075,-1.709,2.563,149.771,16.485,-98.959
9611,-0.2866,0.5312,-0.8403,-1.282,-3.296,1.099,149.733,16.501,-98.987
9621,-0.2876,0.5273,-0.8340,-0.549,-4.150,-0.061,149.700,16.540,-99.009
9631,-0.2900,0.5107,-0.8135,-0.305,-4.333,-0.977,149.678,16.584,-99.020
9641,-0.2979,0.5024,-0.7930,-0.793,-4.456,-1.648,149.645,16.639,-99.031
9651,-0.3047,0.4971,-0.7852,-1.038,-3.967,-2.075,149.612,16.699,-99.031
9661,-0.3071,0.4912,-0.7896,-0.549,-2.441,-2.014,149.595,16.743,-99.025
9671,-0.3071,0.4927,-0.7949,0.305,0.183,-1.709,149.590,16.765,-99.009
9681,-0.3052,0.4897,-0.8013,1.099,2.686,-1.282,149.595,16.760,-98.987
9691,-0.3018,0.4917,-0.8081,0.793,4.517,-0.977,149.606,16.738,-98.954
9701,-0.2988,0.4976,-0.8203,0.305,5.859,-0.732,149.612,16.699,-98.915
9711,-0.2998,0.4951,-0.8257,0.549,6.653,-0.732,149.623,16.650,-98.871
9721,-0.2954,0.4849,-0.8345,0.977,6.958,-0.854,149.645,16.600,-98.828
9731,-0.2856,0.4775,-0.8481,1.221,6.836,-0.977,149.678,16.540,-98.784
9741,-0.2793,0.4658,-0.8599,0.854,4.456,-0.427,149.716,16.501,-98.756
9751,-0.2739,0.4692,-0.8633,0.549,2.747,0.305,149.744,16.469,-98.745
9761,-0.2729,0.4761,-0.8643,1.221,1.282,1.404,149.766,16.436,-98.751
9771,-0.2793,0.4785,-0.8672,2.686,0.061,2.319,149.799,16.419,-98.773
9781,-0.2764,0.4800,-0.8706,3.784,-0.671,2.808,149.843,16.403,-98.800
9791,-0.2681,0.4785,-0.8735,3.845,-1.221,2.808,149.886,16.386,-98.833
9801,-0.2686,0.4844,-0.8779,2.625,-1.526,2.563,149.914,16.370,-98.866
9811,-0.2720,0.4922,-0.8838,0.732,-1.587,1.953,149.925,16.364,-98.888
9821,-0.2622,0.5024,-0.8916,-1.221,-1.587,0.977,149.914,16.353,-98.904
9831,-0.2612,0.5156,-0.8906,-2.869,-1.831,-0.305,149.886,16.348,-98.915
9841,-0.2695,0.5288,-0.8950,-3.540,-2.136,-1.587,149.848,16.353,-98.910
9851,-0.2690,0.5396,-0.8892,-2.502,-1.648,-2.991,149.815,16.364,-98.893
9861,-0.2700,0.5464,-0.8657,0.366,-1.404,-5.249,149.810,16.386,-98.849
9871,-0.2783,0.5420,-0.8491,5.127,-2.441,-8.789,149.854,16.441,-98.784
9881,-0.2881,0.5273,-0.8208,9.338,-5.188,-12.878,149.947,16.551,-98.696
9891,-0.3042,0.4922,-0.7808,11.475,-10.437,-17.151,150.068,16.743,-98.597
9901,-0.3237,0.4717,-0.7593,10.742,-16.235,-20.996,150.183,17.018,-98.492
9914,-0.3452,0.4673,-0.7549,8.667,-18.677,-22.278,150.282,17.331,-98.388
9921,-0.3618,0.4609,-0.7495,7.568,-16.785,-20.447,150.364,17.628,-98.289
9931,-0.3564,0.4561,-0.7563,7.507,-11.414,-16.113,150.452,17.847,-98.201
9941,-0.3477,0.4360,-0.7686,7.446,-3.113,-10.803,150.551,17.963,-98.119
9951,-0.3330,0.4390,-0.7778,6.165,5.798,-6.409,150.639,17.968,-98.026
9961,-0.3140,0.4570,-0.7866,4.211,12.207,-3.601,150.705,17.891,-97.932
9971,-0.3105,0.4570,-0.7915,3.235,13.977,-1.282,150.754,17.787,-97.850
9981,-0.3027,0.4590,-0.8174,4.028,12.573,0.793,150.809,17.672,-97.789
9991,-0.2935,0.4497,-0.8545,5.493,10.986,2.441,150.886,17.562,-97.756
10001,-0.2783,0.4448,-0.8779,5.554,10.620,3.479,150.974,17.435,-97.734
10012,-0.2695,0.4468,-0.8872,4.089,11.353,3.357,151.046,17.298,-97.707
10021,-0.2607,0.4619,-0.9004,1.160,12.512,2.808,151.084,17.144,-97.668
10031,-0.2476,0.4878,-0.9277,-1.343,14.099,2.686,151.095,16.974,-97.625
10041,-0.2344,0.5234,-0.9741,-2.380,15.747,2.563,151.095,16.776,-97.570
10051,-0.2197,0.5493,-1.0166,-1.892,17.334,2.075,151.100,16.551,-97.498
10061,-0.2163,0.5547,-1.0342,-1.465,17.212,1.221,151.117,16.337,-97.421
10071,-0.2139,0.5518,-1.0278,-2.319,13.306,-0.305,151.117,16.166,-97.355
10081,-0.2295,0.5244,-0.9810,-3.723,4.761,-2.441,151.100,16.089,-97.306
10091,-0.2529,0.4951,-0.9307,-5.005,-5.920,-5.127,151.068,16.139,-97.289
10101,-0.2764,0.4824,-0.8784,-6.409,-14.221,-6.653,151.002,16.287,-97.300
10111,-0.3081,0.4648,-0.8101,-5.676,-17.639,-6.226,150.925,16.490,-97.333
10121,-0.3364,0.4375,-0.7441,-2.197,-16.785,-4.761,150.881,16.705,-97.377
10131,-0.3384,0.4048,-0.6870,1.648,-13.428,-3.113,150.870,16.897,-97.416
10141,-0.3340,0.3765,-0.6567,3.784,-9.521,-1.343,150.892,17.056,-97.454
10151,-0.3403,0.3657,-0.6460,3.540,-5.310,0.854,150.914,17.177,-97.487
10161,-0.3501,0.3770,-0.6714,1.892,-0.183,3.052,150.919,17.232,-97.515
10171,-0.3481,0.4048,-0.7153,0.183,6.470,5.066,150.914,17.210,-97.531
10181,-0.3315,0.4648,-0.8003,-0.793,13.672,6.714,150.897,17.084,-97.520
10191,-0.3032,0.5269,-0.8970,-0.305,20.691,7.874,150.892,16.859,-97.487
10201,-0.2646,0.5757,-0.9907,0.671,25.208,7.935,150.903,16.567,-97.432
10211,-0.2207,0.6196,-1.0708,-0.488,24.902,5.615,150.908,16.260,-97.355
10221,-0.1934,0.6328,-1.0923,-1.831,20.081,2.014,150.903,16.002,-97.273
10231,-0.2021,0.5962,-1.0444,-3.052,8.972,-2.197,150.886,15.870,-97.207
10241,-0.2241,0.5532,-0.9688,-4.822,-5.737,-6.409,150.842,15.903,-97.180
10251,-0.2642,0.4883,-0.8638,-4.456,-18.982,-9.155,150.787,16.100,-97.191
10261,-0.3110,0.4033,-0.7622,-1.038,-26.978,-9.888,150.776,16.419,-97.240
10271,-0.3325,0.3584,-0.7114,1.404,-28.259,-8.179,150.798,16.765,-97.306
10281,-0.3350,0.3599,-0.7183,3.784,-21.240,-4.761,150.842,17.029,-97.372
10291,-0.3208,0.3608,-0.7422,7.019,-7.751,-0.671,150.936,17.144,-97.405
10301,-0.2896,0.3774,-0.7881,7.996,5.493,3.052,151.051,17.095,-97.405
10311,-0.2729,0.3960,-0.8296,5.432,13.000,5.371,151.144,16.952,-97.388
10321,-0.2690,0.4272,-0.8760,0.854,13.367,5.615,151.183,16.793,-97.372
10331,-0.2769,0.4624,-0.9009,-4.456,8.972,5.249,151.155,16.672,-97.377
10341,-0.2832,0.4810,-0.9028,-7.751,3.235,5.188,151.078,16.611,-97.410
10351,-0.2832,0.4971,-0.9067,-7.690,-1.221,5.066,150.991,16.584,-97.460
10361,-0.2759,0.5068,-0.9189,-4.883,-3.296,4.761,150.925,16.567,-97.520
10371,-0.2637,0.5146,-0.9170,-2.136,-3.296,4.700,150.886,16.551,-97.581
10381,-0.2559,0.5112,-0.9097,0.732,-2.075,4.761,150.875,16.518,-97.635
10391,-0.2568,0.5093,-0.8926,2.991,-1.526,4.578,150.886,16.485,-97.685
10401,-0.2612,0.5132,-0.8755,4.028,-2.380,4.028,150.897,16.463,-97.734
10411,-0.2798,0.5098,-0.8369,3.601,-4.395,3.296,150.897,16.479,-97.784
10421,-0.3013,0.5063,-0.8013,2.625,-6.042,2.441,150.875,16.534,-97.839
10431,-0.3062,0.5103,-0.7944,1.831,-6.104,1.526,150.842,16.595,-97.883
10441,-0.3110,0.5000,-0.7910,1.648,-4.211,0.366,150.820,16.644,-97.905
10451,-0.3140,0.4956,-0.8022,1.099,-1.343,-0.732,150.809,16.677,-97.905
10461,-0.2861,0.5103,-0.8511,-0.244,1.709,-1.343,150.793,16.666,-97.888
10471,-0.2593,0.5317,-0.9014,-0.977,4.395,-1.343,150.782,16.606,-97.850
10481,-0.2583,0.5464,-0.9268,-0.549,5.310,-1.465,150.776,16.534,-97.811
10491,-0.2573,0.5522,-0.9331,0.610,4.211,-2.136,150.776,16.479,-97.767
10501,-0.2788,0.5220,-0.8853,1.770,1.526,-3.479,150.793,16.469,-97.729
10512,-0.3047,0.4668,-0.8218,1.587,-2.869,-5.737,150.815,16.534,-97.690
10521,-0.3169,0.4302,-0.7827,-0.610,-6.165,-7.690,150.826,16.655,-97.652
10531,-0.3315,0.3921,-0.7539,-2.197,-5.859,-7.690,150.831,16.793,-97.614
10541,-0.3271,0.3838,-0.7681,-1.770,-2.258,-5.798,150.853,16.880,-97.575
10551,-0.3052,0.3770,-0.7861,0.061,3.052,-2.686,150.897,16.891,-97.531
10561,-0.2817,0.3945,-0.8257,2.075,7.202,0.305,150.963,16.826,-97.498
10571,-0.2563,0.4438,-0.8940,3.296,9.705,2.747,151.029,16.705,-97.476
10581,-0.2427,0.4858,-0.9355,3.113,10.864,4.578,151.078,16.551,-97.460
10591,-0.2427,0.5200,-0.9619,1.282,9.521,4.517,151.100,16.408,-97.454
10601,-0.2373,0.5361,-0.9883,-1.221,6.165,2.075,151.095,16.298,-97.443
10611,-0.2466,0.5298,-0.9780,-4.333,1.770,-1.404,151.062,16.254,-97.421
10621,-0.2612,0.5142,-0.9380,-7.507,-3.540,-3.906,150.996,16.276,-97.405
10631,-0.2710,0.5005,-0.8911,-9.338,-8.545,-4.639,150.897,16.359,-97.405
10641,-0.2827,0.4868,-0.8457,-7.019,-11.597,-4.211,150.815,16.479,-97.427
10651,-0.3003,0.4639,-0.7881,-1.099,-12.207,-3.174,150.782,16.617,-97.460
10661,-0.3130,0.4419,-0.7476,4.395,-11.414,-1.709,150.798,16.754,-97.498
10671,-0.3130,0.4346,-0.7515,7.263,-8.789,-0.427,150.853,16.864,-97.542
10681,-0.3022,0.4424,-0.8032,6.897,-3.418,0.427,150.919,16.902,-97.564
10691,-0.2920,0.4595,-0.8501,4.333,3.296,0.549,150.969,16.875,-97.553
10701,-0.2827,0.4937,-0.8887,0.122,7.507,0.610,150.980,16.793,-97.520
10711,-0.2720,0.5146,-0.9033,-3.418,7.690,0.732,150.952,16.699,-97.487
10721,-0.2729,0.5161,-0.8896,-4.883,4.028,-0.061,150.897,16.650,-97.465
10731,-0.2822,0.4956,-0.8569,-4.333,-1.221,-1.709,150.848,16.661,-97.454
10741,-0.2925,0.4800,-0.8252,-3.418,-5.676,-2.991,150.804,16.727,-97.460
10751,-0.2939,0.4717,-0.8184,-1.953,-7.202,-3.235,150.776,16.809,-97.465
10761,-0.2939,0.4648,-0.8203,0.244,-5.310,-2.991,150.771,16.875,-97.465
10771,-0.2803,0.4658,-0.8477,1.953,-1.282,-2.502,150.804,16.891,-97.449
10781,-0.2734,0.4771,-0.8760,2.502,2.991,-1.526,150.842,16.859,-97.421
10791,-0.2734,0.4863,-0.8950,2.075,5.493,-0.793,150.875,16.793,-97.383
10801,-0.2817,0.4927,-0.8848,0.854,4.578,-0.854,150.897,16.749,-97.350
10811,-0.3066,0.4819,-0.8511,0.305,0.244,-1.465,150.897,16.760,-97.339
10821,-0.3179,0.4624,-0.8345,1.282,-4.333,-1.770,150.908,16.820,-97.344
10831,-0.3154,0.4419,-0.8057,2.441,-5.920,-1.465,150.936,16.902,-97.361
10841,-0.3018,0.4360,-0.8052,3.296,-4.700,-0.671,150.969,16.957,-97.377
10851,-0.2871,0.4458,-0.8389,3.662,-0.671,0.427,151.013,16.963,-97.383
10861,-0.2778,0.4585,-0.8545,3.357,4.822,1.282,151.057,16.902,-97.372
10871,-0.2720,0.4780,-0.8726,2.258,7.935,1.343,151.089,16.809,-97.344
10881,-0.2681,0.5039,-0.8955,0.671,7.507,0.793,151.100,16.721,-97.311
10891,-0.2773,0.5200,-0.9082,-0.244,4.700,-0.244,151.095,16.661,-97.289
10901,-0.2866,0.5244,-0.9028,-0.183,0.977,-1.526,151.089,16.650,-97.267
10911,-0.2856,0.5117,-0.8921,0.549,-2.563,-2.747,151.084,16.672,-97.256
10921,-0.2866,0.4878,-0.8652,1.099,-5.127,-3.601,151.095,16.727,-97.251
10931,-0.2905,0.4507,-0.8296,0.854,-6.958,-4.089,151.106,16.809,-97.245
10941,-0.2915,0.4272,-0.8242,-0.183,-7.324,-4.089,151.122,16.902,-97.245
10951,-0.2944,0.4180,-0.8257,-1.099,-5.127,-3.113,151.128,16.968,-97.245
10961,-0.2935,0.4268,-0.8359,-0.793,-0.793,-1.282,151.144,16.985,-97.234
10971,-0.2808,0.4497,-0.8545,0.793,3.174,0.488,151.166,16.946,-97.224
10981,-0.2739,0.4541,-0.8599,2.869,5.066,1.526,151.205,16.886,-97.213
10991,-0.2832,0.4497,-0.8672,3.784,4.456,1.648,151.260,16.831,-97.207
11001,-0.2827,0.4507,-0.8701,2.319,2.563,1.282,151.298,16.793,-97.207
11012,-0.2856,0.4565,-0.8794,-0.183,1.038,1.282,151.304,16.771,-97.213
11021,-0.2812,0.4795,-0.8955,-2.075,0.732,1.526,151.287,16.749,-97.224
11031,-0.2710,0.4966,-0.8936,-1.892,0.366,2.136,151.260,16.716,-97.240
11041,-0.2617,0.5156,-0.9097,0.244,-0.977,2.502,151.249,16.683,-97.267
11051,-0.2627,0.5288,-0.9155,2.380,-2.869,2.441,151.249,16.672,-97.306
11061,-0.2783,0.5283,-0.9092,3.967,-4.456,1.770,151.260,16.683,-97.344
11071,-0.2837,0.5269,-0.9004,4.089,-5.554,0.244,151.276,16.716,-97.372
11081,-0.2856,0.5298,-0.8877,3.052,-6.653,-1.892,151.282,16.765,-97.388
11091,-0.2896,0.5298,-0.8687,1.709,-7.568,-3.967,151.271,16.842,-97.388
11101,-0.2915,0.5195,-0.8481,0.549,-8.118,-5.493,151.254,16.935,-97.383
11111,-0.2988,0.4941,-0.8179,0.366,-8.301,-6.592,151.238,17.045,-97.361
11121,-0.3242,0.4302,-0.7559,0.000,-8.972,-7.385,151.238,17.188,-97.339
11131,-0.3447,0.3872,-0.7109,-2.502,-9.827,-7.507,151.216,17.369,-97.322
11141,-0.3516,0.3696,-0.6855,-5.249,-8.423,-5.676,151.172,17.540,-97.311
11151,-0.3530,0.3682,-0.6821,-5.066,-3.113,-2.502,151.128,17.650,-97.306
11161,-0.3457,0.3804,-0.7036,-1.709,4.456,0.977,151.122,17.661,-97.289
11171,-0.3242,0.4004,-0.7446,2.319,11.780,3.845,151.161,17.573,-97.267
11181,-0.3032,0.4248,-0.8076,5.310,17.334,6.042,151.232,17.402,-97.234
11191,-0.2866,0.4438,-0.8652,5.737,20.630,7.263,151.315,17.177,-97.196
11201,-0.2734,0.4561,-0.9199,3.723,20.935,7.019,151.386,16.941,-97.158
11211,-0.2544,0.4756,-0.9663,0.366,18.372,5.798,151.425,16.716,-97.119
11221,-0.2412,0.5005,-1.0024,-2.930,14.038,4.456,151.425,16.529,-97.086
11231,-0.2300,0.5229,-1.0220,-4.517,9.705,3.235,151.403,16.375,-97.070
11241,-0.2241,0.5308,-1.0166,-4.089,5.371,2.258,151.375,16.265,-97.064
11251,-0.2256,0.5249,-0.9956,-2.502,0.305,1.282,151.353,16.210,-97.075
11261,-0.2354,0.5146,-0.9639,-1.160,-5.188,0.244,151.342,16.210,-97.103
11271,-0.2534,0.5044,-0.9243,-0.488,-9.766,-0.427,151.320,16.271,-97.147
11281,-0.2661,0.4956,-0.8838,0.061,-12.146,-0.732,151.304,16.364,-97.202
11291,-0.2817,0.4766,-0.8379,0.854,-12.512,-1.099,151.287,16.479,-97.251
11301,-0.3008,0.4590,-0.8042,1.404,-11.597,-1.831,151.276,16.606,-97.295
11311,-0.3091,0.4424,-0.7876,0.977,-9.277,-2.319,151.276,16.716,-97.317
11321,-0.3145,0.4292,-0.7773,-0.671,-6.104,-2.258,151.265,16.809,-97.328
11331,-0.3184,0.4316,-0.7725,-2.747,-3.296,-1.892,151.232,16.875,-97.328
11341,-0.3120,0.4512,-0.7856,-4.150,-1.221,-1.099,151.183,16.913,-97.322
11351,-0.2935,0.4863,-0.8228,-4.028,0.671,-0.122,151.128,16.908,-97.322
11361,-0.2822,0.5127,-0.8623,-2.563,2.136,0.549,151.084,16.875,-97.317
11371,-0.2827,0.5259,-0.8960,-1.038,2.686,0.549,151.062,16.837,-97.306
11381,-0.2803,0.5337,-0.9233,-0.610,1.892,-0.366,151.046,16.798,-97.295
11391,-0.2754,0.5469,-0.9482,-1.282,-0.122,-1.953,151.029,16.782,-97.273
11401,-0.2671,0.5479,-0.9629,-1.343,-2.625,-3.357,151.013,16.787,-97.256
11411,-0.2632,0.5332,-0.9468,-0.549,-5.981,-5.005,151.007,16.831,-97.240
11421,-0.2725,0.5098,-0.8955,0.122,-10.742,-6.714,151.007,16.941,-97.234
11431,-0.2969,0.4810,-0.8423,0.366,-15.503,-7.935,151.002,17.111,-97.240
11441,-0.3188,0.4580,-0.7905,0.122,-17.273,-8.484,150.985,17.325,-97.251
11451,-0.3374,0.4365,-0.7466,0.183,-15.320,-8.301,150.974,17.534,-97.251
11461,-0.3511,0.4189,-0.7187,0.671,-11.292,-7.385,150.974,17.721,-97.245
11471,-0.3545,0.4053,-0.7041,1.648,-6.714,-5.432,150.985,17.864,-97.229
11481,-0.3560,0.3838,-0.6812,3.052,-2.258,-2.808,151.018,17.963,-97.213
11491,-0.3501,0.3735,-0.6851,4.089,1.953,-0.122,151.062,18.012,-97.202
11501,-0.3447,0.3677,-0.7065,4.761,6.775,2.502,151.128,17.996,-97.191
11512,-0.3296,0.3799,-0.7476,4.578,12.512,5.005,151.199,17.897,-97.174
11521,-0.2881,0.4312,-0.8438,3.479,18.738,7.080,151.260,17.688,-97.141
11531,-0.2456,0.5063,-0.9785,1.526,25.940,8.484,151.304,17.375,-97.092
11541,-0.2104,0.5830,-1.1021,-2.136,32.104,8.850,151.315,16.974,-97.009
11551,-0.1880,0.6372,-1.1694,-6.348,33.020,6.836,151.282,16.567,-96.910
11561,-0.1758,0.6460,-1.1797,-8.423,25.024,1.465,151.232,16.249,-96.795
11571,-0.1758,0.6387,-1.1440,-10.437,9.399,-4.578,151.150,16.106,-96.707
11581,-0.2085,0.6016,-1.0732,-11.475,-9.155,-9.644,151.040,16.166,-96.663
11591,-0.2451,0.5503,-0.9629,-8.972,-25.146,-13.550,150.947,16.408,-96.669
11601,-0.2852,0.4653,-0.8311,-1.953,-35.400,-14.893,150.908,16.793,-96.713
11611,-0.3193,0.3779,-0.7295,5.737,-39.307,-13.916,150.963,17.243,-96.784
11621,-0.3564,0.3013,-0.6328,10.315,-37.354,-11.719,151.078,17.721,-96.866
11631,-0.3994,0.2344,-0.5430,11.475,-31.250,-8.728,151.221,18.193,-96.943
11641,-0.4253,0.2051,-0.4946,10.437,-21.851,-4.517,151.370,18.611,-97.015
11651,-0.4268,0.2173,-0.4980,7.935,-9.583,2.075,151.474,18.880,-97.081
11661,-0.4185,0.2393,-0.5366,6.470,4.395,9.827,151.562,18.957,-97.152
11671,-0.3838,0.2998,-0.6289,4.883,18.555,16.357,151.622,18.820,-97.207
11681,-0.3232,0.4038,-0.7939,3.296,30.701,20.569,151.655,18.468,-97.245
11691,-0.2544,0.5308,-0.9805,0.427,39.917,22.522,151.655,17.957,-97.256
11701,-0.2012,0.6299,-1.1128,-1.831,43.274,21.301,151.633,17.391,-97.234
11711,-0.1538,0.6890,-1.1982,-3.662,38.391,17.029,151.589,16.864,-97.202
11721,-0.1338,0.7109,-1.2314,-6.042,24.963,10.925,151.523,16.479,-97.180
11731,-0.1621,0.7051,-1.1865,-8.667,6.226,3.174,151.414,16.315,-97.180
11741,-0.2139,0.6626,-1.0854,-9.705,-13.000,-4.517,151.282,16.381,-97.202
11751,-0.2441,0.5894,-0.9727,-8.667,-27.283,-10.071,151.161,16.622,-97.245
11761,-0.2788,0.5122,-0.8574,-4.578,-34.180,-13.123,151.078,16.968,-97.295
11771,-0.3091,0.4478,-0.7607,-0.793,-34.729,-13.184,151.040,17.358,-97.350
11781,-0.3223,0.4136,-0.7012,2.075,-30.518,-11.414,151.029,17.721,-97.405
11791,-0.3345,0.4004,-0.6870,4.517,-21.912,-8.911,151.057,18.001,-97.432
11801,-0.3428,0.3916,-0.6899,5.005,-11.902,-6.226,151.095,18.188,-97.438
11811,-0.3467,0.4023,-0.7129,2.014,-4.089,-4.578,151.117,18.292,-97.416
11821,-0.3491,0.4082,-0.7085,-4.150,-0.916,-4.883,151.078,18.375,-97.372
11831,-0.3647,0.4072,-0.6997,-11.841,-2.625,-7.019,150.963,18.490,-97.322
11841,-0.3755,0.4438,-0.7080,-19.653,-5.249,-9.155,150.754,18.638,-97.267
11851,-0.3667,0.4839,-0.7559,-21.240,-4.333,-8.972,150.535,18.754,-97.207
11861,-0.3408,0.5195,-0.8301,-14.832,1.770,-6.104,150.381,18.770,-97.141
11871,-0.3091,0.5327,-0.8926,-4.395,10.498,-2.136,150.348,18.671,-97.064
11881,-0.2651,0.5405,-0.9507,3.845,16.418,0.977,150.408,18.474,-96.987
11891,-0.2534,0.5469,-0.9790,8.057,16.296,1.953,150.518,18.265,-96.921
11901,-0.2568,0.5366,-0.9800,9.705,11.536,0.305,150.639,18.111,-96.866
11915,-0.2793,0.5117,-0.9448,7.996,3.113,-2.869,150.738,18.062,-96.823
11921,-0.3008,0.4746,-0.8921,4.578,-6.042,-5.798,150.804,18.127,-96.801
11931,-0.3198,0.4478,-0.8442,2.441,-12.878,-7.202,150.842,18.281,-96.801
11941,-0.3369,0.4067,-0.8027,3.235,-14.771,-6.653,150.892,18.463,-96.812
11951,-0.3398,0.3604,-0.7544,4.211,-12.207,-4.822,150.963,18.627,-96.833
11961,-0.3359,0.3433,-0.7261,3.845,-8.362,-2.686,151.029,18.754,-96.850
11971,-0.3345,0.3516,-0.7397,3.601,-2.686,0.305,151.095,18.809,-96.866
11981,-0.3350,0.3618,-0.7588,4.028,4.822,4.150,151.166,18.776,-96.883
11991,-0.3179,0.3960,-0.8115,4.333,11.963,7.935,151.232,18.644,-96.894
12001,-0.2822,0.4521,-0.8945,4.028,17.151,10.803,151.287,18.413,-96.905
12012,-0.2583,0.5127,-0.9683,2.686,19.348,11.841,151.320,18.138,-96.916
12021,-0.2461,0.5625,-1.0098,-0.061,17.578,10.559,151.315,17.875,-96.927
12031,-0.2373,0.5918,-1.0181,-1.648,12.451,7.446,151.282,17.666,-96.932
12041,-0.2422,0.5918,-0.9966,-1.831,4.700,3.784,151.238,17.545,-96.943
12051,-0.2539,0.5737,-0.9653,-1.099,-3.540,0.183,151.205,17.529,-96.965
12061,-0.2803,0.5337,-0.9116,-0.183,-9.949,-2.686,151.177,17.600,-96.987
12071,-0.3008,0.4873,-0.8457,0.122,-13.855,-4.395,151.161,17.737,-97.020
12081,-0.3218,0.4541,-0.8018,0.122,-15.564,-4.761,151.144,17.908,-97.053
12091,-0.3394,0.4321,-0.7715,0.183,-13.977,-4.333,151.128,18.083,-97.086
12101,-0.3423,0.4209,-0.7539,-0.183,-9.766,-3.174,151.117,18.215,-97.103
12111,-0.3359,0.4224,-0.7407,-0.061,-4.761,-1.709,151.106,18.298,-97.114
12121,-0.3301,0.4351,-0.7432,0.488,-0.305,0.061,151.095,18.331,-97.114
12131,-0.3232,0.4502,-0.7612,1.770,3.357,1.831,151.100,18.309,-97.114
12141,-0.3145,0.4600,-0.7856,3.174,6.409,2.991,151.117,18.248,-97.108
12151,-0.2964,0.4790,-0.8345,3.662,8.972,3.540,151.144,18.138,-97.097
12161,-0.2739,0.5181,-0.8979,3.052,11.597,3.723,151.172,17.990,-97.070
12171,-0.2632,0.5425,-0.9414,3.357,13.916,3.662,151.205,17.809,-97.037
12181,-0.2607,0.5483,-0.9648,4.028,13.672,2.686,151.254,17.628,-96.993
12191,-0.2651,0.5371,-0.9727,4.395,10.437,0.488,151.309,17.496,-96.943
12201,-0.2695,0.5161,-0.9683,3.540,5.188,-2.197,151.364,17.424,-96.894
12211,-0.2812,0.4976,-0.9497,1.099,-0.427,-4.089,151.397,17.419,-96.861
12221,-0.2832,0.4854,-0.9282,-0.916,-5.249,-5.005,151.403,17.468,-96.839
12231,-0.2808,0.4629,-0.8809,-1.526,-8.362,-5.371,151.397,17.545,-96.833
12241,-0.2881,0.4272,-0.8032,-1.587,-11.353,-5.493,151.386,17.672,-96.839
12251,-0.3101,0.4072,-0.7534,-1.526,-13.855,-4.822,151.364,17.836,-96.866
12261,-0.3350,0.3848,-0.7256,-0.549,-12.756,-3.113,151.353,18.007,-96.899
12271,-0.3516,0.3662,-0.7144,0.671,-7.507,-0.854,151.370,18.133,-96.932
12281,-0.3496,0.3677,-0.7217,0.671,-0.854,1.465,151.386,18.182,-96.949
12291,-0.3442,0.3804,-0.7456,0.000,5.493,3.601,151.403,18.160,-96.954
12301,-0.3398,0.3960,-0.7866,-0.610,10.986,5.310,151.414,18.073,-96.949
12311,-0.3257,0.4131,-0.8394,-1.221,15.076,6.531,151.430,17.919,-96.932
12321,-0.3018,0.4395,-0.9023,-1.770,17.517,7.751,151.447,17.721,-96.916
12331,-0.2671,0.4761,-0.9653,-2.502,18.188,9.033,151.447,17.479,-96.910
12341,-0.2397,0.5127,-1.0068,-2.930,16.052,9.583,151.430,17.243,-96.916
12351,-0.2256,0.5518,-1.0234,-2.686,10.498,8.789,151.397,17.045,-96.943
12361,-0.2319,0.5737,-1.0127,-2.075,2.991,6.897,151.353,16.930,-96.993
12371,-0.2524,0.5806,-0.9810,-1.648,-4.578,4.150,151.298,16.902,-97.053
12381,-0.2715,0.5859,-0.9404,-1.831,-10.315,1.099,151.232,16.957,-97.114
12391,-0.2900,0.5869,-0.8882,-1.831,-13.489,-1.587,151.150,17.067,-97.169
12401,-0.3105,0.5698,-0.8301,-1.160,-14.526,-4.211,151.073,17.210,-97.202
12411,-0.3149,0.5430,-0.7837,-0.671,-14.465,-6.775,151.007,17.380,-97.213
12421,-0.3213,0.5073,-0.7515,-0.977,-13.672,-9.094,150.947,17.562,-97.202
12431,-0.3198,0.4692,-0.7246,-2.563,-11.780,-10.132,150.897,17.743,-97.169
12441,-0.3203,0.4282,-0.6958,-4.456,-9.827,-9.644,150.837,17.908,-97.130
12451,-0.3267,0.4014,-0.6895,-6.775,-7.874,-7.690,150.771,18.056,-97.097
12461,-0.3306,0.3926,-0.7017,-8.789,-5.920,-4.456,150.683,18.171,-97.086
12471,-0.3379,0.4028,-0.7271,-8.911,-3.479,-0.549,150.595,18.248,-97.103
12481,-0.3389,0.4185,-0.7642,-6.226,0.610,3.540,150.535,18.254,-97.130
12491,-0.3306,0.4224,-0.8135,-0.916,6.287,6.470,150.535,18.182,-97.158
12501,-0.3159,0.4287,-0.8604,4.211,11.780,7.751,150.606,18.045,-97.169
12512,-0.2979,0.4331,-0.9028,8.118,16.968,7.874,150.727,17.847,-97.152
12521,-0.2769,0.4365,-0.9297,9.949,20.691,7.690,150.875,17.600,-97.114
12531,-0.2622,0.4302,-0.9463,9.338,21.362,7.568,151.029,17.347,-97.075
12541,-0.2529,0.4297,-0.9526,6.531,18.250,7.202,151.150,17.117,-97.048
12551,-0.2485,0.4409,-0.9590,3.113,12.573,6.653,151.221,16.935,-97.048
12561,-0.2559,0.4663,-0.9512,0.183,6.348,6.531,151.243,16.815,-97.075
12571,-0.2588,0.4951,-0.9414,-0.732,0.793,7.019,151.227,16.743,-97.136
12581,-0.2607,0.5088,-0.9341,0.977,-3.174,7.202,151.216,16.710,-97.218
12591,-0.2520,0.5190,-0.9214,3.845,-5.188,6.348,151.221,16.688,-97.300
12601,-0.2515,0.5166,-0.9102,6.287,-5.676,5.066,151.254,16.683,-97.377
12611,-0.2500,0.5088,-0.8921,6.592,-5.432,3.723,151.293,16.683,-97.438
12621,-0.2505,0.5024,-0.8667,4.517,-5.432,2.380,151.309,16.694,-97.487
12631,-0.2598,0.4888,-0.8359,1.160,-6.409,0.977,151.293,16.727,-97.526
12641,-0.2856,0.4834,-0.8120,-2.380,-7.751,-0.305,151.238,16.798,-97.564
12651,-0.3071,0.4780,-0.8022,-4.517,-7.996,-0.854,151.166,16.886,-97.597
12661,-0.3208,0.4775,-0.7876,-5.066,-6.531,-0.671,151.084,16.968,-97.625
12671,-0.3354,0.4795,-0.7725,-4.211,-4.395,0.000,151.007,17.040,-97.646
12681,-0.3413,0.4819,-0.7632,-2.502,-2.319,0.793,150.941,17.089,-97.663
12691,-0.3418,0.4839,-0.7593,-0.916,-0.671,1.282,150.897,17.128,-97.679
12701,-0.3315,0.4873,-0.7656,0.061,1.099,1.343,150.859,17.144,-97.685
12711,-0.3188,0.4902,-0.7778,-0.061,3.479,1.160,150.831,17.128,-97.679
12721,-0.3057,0.4863,-0.7959,-0.671,6.531,0.549,150.809,17.078,-97.652
12731,-0.2944,0.4805,-0.8203,-1.404,9.521,-0.244,150.798,16.996,-97.603
12741,-0.2866,0.4727,-0.8433,-2.136,11.719,-0.977,150.798,16.897,-97.531
12751,-0.2710,0.4668,-0.8667,-3.174,12.817,-1.404,150.798,16.776,-97.454
12761,-0.2627,0.4717,-0.8867,-3.784,12.634,-1.038,150.793,16.650,-97.377
12771,-0.2588,0.4731,-0.9077,-2.197,12.146,0.305,150.804,16.518,-97.322
12781,-0.2568,0.4619,-0.9253,1.404,11.658,2.441,150.853,16.381,-97.284
12791,-0.2559,0.4458,-0.9360,5.432,10.803,4.517,150.952,16.243,-97.267
12801,-0.2515,0.4390,-0.9521,8.484,8.972,6.104,151.073,16.106,-97.278
12811,-0.2412,0.4438,-0.9580,10.193,5.859,7.446,151.205,15.991,-97.317
12821,-0.2290,0.4482,-0.9600,10.681,1.282,8.301,151.331,15.897,-97.388
12831,-0.2231,0.4517,-0.9531,10.132,-4.089,8.240,151.436,15.859,-97.482
12841,-0.2261,0.4648,-0.9429,8.423,-8.850,8.057,151.512,15.859,-97.603
12851,-0.2383,0.4717,-0.9380,6.470,-11.780,8.240,151.556,15.892,-97.734
12861,-0.2427,0.4795,-0.9346,5.371,-12.695,7.935,151.589,15.936,-97.872
12871,-0.2437,0.4829,-0.9204,4.761,-12.817,6.592,151.606,15.991,-97.993
12881,-0.2441,0.4717,-0.8887,4.211,-13.123,4.700,151.622,16.057,-98.102
12891,-0.2588,0.4707,-0.8613,2.563,-14.465,3.113,151.617,16.155,-98.201
12901,-0.2803,0.4697,-0.8384,0.366,-16.052,2.747,151.584,16.282,-98.306
12911,-0.2983,0.4717,-0.8071,-1.282,-16.846,3.235,151.523,16.430,-98.421
12921,-0.3086,0.4863,-0.7949,-0.610,-16.418,3.845,151.452,16.573,-98.536
12931,-0.3198,0.5059,-0.7876,3.601,-14.526,4.822,151.414,16.699,-98.652
12941,-0.3364,0.5010,-0.7822,12.207,-12.207,6.104,151.463,16.809,-98.767
12951,-0.3315,0.4897,-0.7954,22.827,-9.888,7.019,151.622,16.886,-98.882
12961,-0.3242,0.4756,-0.8247,31.555,-7.629,7.324,151.891,16.941,-98.987
12971,-0.3086,0.4346,-0.8179,34.180,-5.676,6.409,152.205,16.974,-99.075
12981,-0.3125,0.4009,-0.8071,28.076,-7.690,3.906,152.474,17.045,-99.152
12991,-0.3145,0.4082,-0.8135,15.381,-12.085,0.366,152.617,17.172,-99.212
13001,-0.3022,0.4458,-0.8213,1.953,-15.686,-2.625,152.611,17.325,-99.261
13012,-0.3062,0.4834,-0.8174,-7.568,-16.541,-3.967,152.490,17.496,-99.305
13021,-0.3164,0.5068,-0.8257,-11.047,-14.709,-4.089,152.331,17.650,-99.338
13031,-0.3262,0.5176,-0.8291,-9.705,-10.193,-3.479,152.188,17.765,-99.355
13041,-0.3545,0.4673,-0.7930,-5.066,-5.188,-2.869,152.111,17.853,-99.355
13051,-0.3638,0.4189,-0.7725,-1.709,-3.357,-3.296,152.095,17.946,-99.338
13061,-0.3496,0.3867,-0.7778,-1.221,-4.517,-3.845,152.100,18.045,-99.327
13071,-0.3359,0.3682,-0.7944,-2.869,-5.676,-3.357,152.100,18.138,-99.322
13081,-0.3032,0.4258,-0.8496,-5.615,-4.517,-1.404,152.056,18.182,-99.333
13091,-0.2715,0.4956,-0.9258,-4.333,1.587,2.319,152.007,18.116,-99.344
13101,-0.2510,0.5376,-0.9834,2.869,10.376,5.920,152.029,17.946,-99.349
13111,-0.2324,0.5503,-1.0059,11.475,16.602,6.897,152.139,17.704,-99.333
13121,-0.2246,0.5454,-1.0166,17.090,16.907,5.127,152.314,17.463,-99.294
13131,-0.2290,0.5449,-1.0298,18.738,11.047,1.404,152.512,17.298,-99.256
13141,-0.2466,0.5400,-1.0298,15.869,1.587,-2.136,152.677,17.238,-99.229
13151,-0.2710,0.5088,-0.9780,9.644,-8.972,-4.883,152.770,17.309,-99.229
13161,-0.2979,0.4741,-0.9106,1.465,-19.043,-7.568,152.776,17.496,-99.245
13171,-0.3140,0.4751,-0.8584,-5.859,-27.649,-10.559,152.688,17.792,-99.283
13181,-0.3267,0.4790,-0.8223,-10.132,-33.081,-13.062,152.551,18.155,-99.316
13191,-0.3374,0.4746,-0.7905,-8.850,-34.119,-14.221,152.413,18.539,-99.349
13201,-0.3437,0.4644,-0.7690,-3.601,-29.907,-13.855,152.342,18.885,-99.366
13211,-0.3452,0.4492,-0.7617,2.991,-22.156,-12.512,152.342,19.166,-99.360
13221,-0.3408,0.4316,-0.7686,8.301,-13.245,-10.498,152.419,19.347,-99.327
13231,-0.3369,0.4097,-0.7798,11.414,-5.066,-8.301,152.551,19.446,-99.272
13241,-0.3311,0.3950,-0.7925,12.329,1.099,-5.920,152.699,19.473,-99.212
13251,-0.3281,0.3833,-0.7939,11.047,4.578,-3.662,152.842,19.462,-99.157
13261,-0.3359,0.3745,-0.7969,7.751,5.188,-1.709,152.952,19.435,-99.113
13271,-0.3423,0.3774,-0.8110,3.967,4.761,-0.366,153.023,19.413,-99.086
13281,-0.3437,0.3853,-0.8413,1.892,5.127,0.671,153.073,19.374,-99.069
13292,-0.3447,0.3911,-0.8711,1.709,6.897,1.831,153.122,19.308,-99.053
13301,-0.3394,0.3877,-0.8950,2.686,9.399,3.235,153.188,19.210,-99.036
13311,-0.3237,0.3950,-0.9194,3.479,11.230,4.211,153.259,19.078,-99.025
13321,-0.3086,0.3940,-0.9375,3.845,10.986,4.578,153.342,18.940,-99.014
13331,-0.2964,0.3965,-0.9473,2.625,8.240,4.211,153.408,18.820,-99.014
13341,-0.2920,0.4004,-0.9482,0.305,4.028,3.662,153.441,18.737,-99.031
13351,-0.2896,0.4155,-0.9443,-2.197,-0.305,3.357,153.435,18.693,-99.064
13361,-0.2876,0.4268,-0.9390,-3.235,-3.601,3.662,153.408,18.677,-99.119
13371,-0.2905,0.4336,-0.9287,-2.014,-5.737,3.906,153.386,18.682,-99.179
13381,-0.2896,0.4404,-0.9199,0.183,-7.019,3.784,153.375,18.699,-99.250
13392,-0.2964,0.4380,-0.9106,2.197,-7.629,3.479,153.386,18.732,-99.316
13401,-0.3066,0.4321,-0.9023,3.052,-7.629,3.479,153.402,18.765,-99.388
13412,-0.3149,0.4253,-0.8843,2.014,-7.690,3.662,153.408,18.809,-99.459
13422,-0.3188,0.4277,-0.8677,-0.366,-7.874,3.967,153.386,18.853,-99.531
13432,-0.3262,0.4346,-0.8516,-2.808,-8.301,4.089,153.331,18.907,-99.613
13442,-0.3291,0.4409,-0.8359,-5.127,-8.728,3.784,153.243,18.973,-99.690
13451,-0.3359,0.4526,-0.8247,-6.775,-8.667,3.174,153.133,19.039,-99.761
13462,-0.3428,0.4653,-0.8110,-7.385,-7.874,2.747,153.007,19.111,-99.822
13472,-0.3472,0.4746,-0.8057,-5.981,-6.531,2.625,152.897,19.166,-99.877
13482,-0.3496,0.4731,-0.8008,-3.235,-4.333,2.686,152.814,19.210,-99.926
13492,-0.3491,0.4702,-0.8008,-0.671,-1.953,2.380,152.765,19.226,-99.959
13502,-0.3472,0.4668,-0.7988,1.038,0.427,1.404,152.743,19.232,-99.970
13512,-0.3447,0.4629,-0.7979,1.343,1.831,0.244,152.726,19.226,-99.965
13522,-0.3257,0.4624,-0.7920,0.244,2.136,-0.610,152.704,19.215,-99.948
13532,-0.3179,0.4775,-0.7959,-0.793,1.526,-1.404,152.666,19.204,-99.926
13542,-0.3989,0.4839,-0.8052,0.244,1.953,-2.380,152.644,19.237,-99.893
13552,-0.3682,0.5098,-0.8013,1.343,4.211,-2.625,152.622,19.232,-99.849
13562,-0.3135,0.5166,-0.8145,4.822,6.714,-2.197,152.633,19.171,-99.794
13572,-0.3550,0.5015,-0.8286,9.399,8.667,-2.930,152.715,19.116,-99.723
13582,-0.3345,0.5034,-0.8350,10.376,9.399,-4.456,152.803,19.050,-99.635
13592,-0.2842,0.5088,-0.8403,9.766,8.362,-5.493,152.891,18.973,-99.547
13602,-0.2954,0.4902,-0.8472,9.583,6.409,-6.958,152.990,18.929,-99.448
13612,-0.3091,0.4712,-0.8540,8.240,4.822,-8.911,153.083,18.913,-99.344
13622,-0.3174,0.4531,-0.8647,6.775,4.395,-10.376,153.182,18.907,-99.223
13631,-0.3413,0.4263,-0.8750,6.470,5.249,-11.169,153.298,18.918,-99.091
13642,-0.3442,0.4072,-0.8789,6.653,6.348,-11.108,153.424,18.918,-98.959
13652,-0.3281,0.3887,-0.8833,7.629,7.019,-10.498,153.572,18.902,-98.828
13662,-0.3135,0.3716,-0.8945,8.667,6.897,-9.827,153.737,18.875,-98.701
13672,-0.3125,0.3511,-0.8994,9.155,5.920,-9.216,153.913,18.853,-98.586
13682,-0.3057,0.3330,-0.9019,8.606,4.211,-8.423,154.089,18.836,-98.487
13692,-0.3096,0.3208,-0.9087,7.263,2.014,-7.324,154.248,18.842,-98.405
13702,-0.3257,0.3125,-0.9097,5.676,0.366,-5.615,154.391,18.864,-98.350
13712,-0.3345,0.3130,-0.9121,3.967,0.061,-3.174,154.506,18.875,-98.322
13722,-0.3291,0.3232,-0.9092,3.113,0.610,-0.244,154.600,18.875,-98.317
13732,-0.3169,0.3379,-0.9063,3.601,1.160,2.441,154.677,18.847,-98.333
13742,-0.3071,0.3516,-0.9028,4.272,0.732,4.333,154.748,18.809,-98.372
13752,-0.2998,0.3682,-0.8970,4.211,-0.488,5.188,154.803,18.776,-98.421
13762,-0.2988,0.3765,-0.9077,3.906,-1.892,5.615,154.847,18.748,-98.487
13772,-0.2979,0.3789,-0.9214,3.540,-2.136,5.798,154.891,18.721,-98.553
13782,-0.2993,0.3833,-0.9292,2.197,-1.343,5.920,154.918,18.688,-98.613
13792,-0.3032,0.3901,-0.9297,-0.061,-0.427,6.287,154.924,18.644,-98.674
13802,-0.3013,0.3975,-0.9258,-2.563,-0.183,6.958,154.896,18.600,-98.745
13811,-0.2964,0.4121,-0.9229,-4.456,-1.099,7.507,154.836,18.556,-98.822
13822,-0.2979,0.4214,-0.9131,-5.737,-3.296,7.751,154.753,18.528,-98.910
13832,-0.2998,0.4282,-0.8945,-6.714,-5.920,7.690,154.655,18.534,-99.009
13842,-0.3101,0.4336,-0.8789,-7.324,-8.057,7.507,154.539,18.561,-99.119
13852,-0.3257,0.4399,-0.8652,-7.507,-8.911,7.324,154.413,18.611,-99.229
13862,-0.3311,0.4414,-0.8535,-7.019,-8.240,6.958,154.297,18.660,-99.327
13872,-0.3345,0.4434,-0.8398,-5.981,-6.836,6.531,154.188,18.699,-99.421
13882,-0.3291,0.4453,-0.8281,-5.371,-5.249,5.981,154.083,18.726,-99.503
13891,-0.3257,0.4448,-0.8086,-4.944,-4.456,5.371,153.979,18.754,-99.575
13902,-0.3228,0.4312,-0.7861,-5.554,-5.127,4.333,153.880,18.787,-99.641
13916,-0.3247,0.4360,-0.7871,-7.446,-3.845,3.601,153.759,18.820,-99.695
13922,-0.3340,0.4360,-0.7739,-9.155,-1.404,3.174,153.627,18.836,-99.728
13932,-0.3330,0.4160,-0.7280,-11.108,0.854,3.235,153.474,18.842,-99.756
13942,-0.3311,0.4131,-0.7178,-14.099,1.587,2.991,153.292,18.842,-99.778
13952,-0.3369,0.4185,-0.7397,-17.212,3.113,2.747,153.089,18.831,-99.789
13962,-0.3257,0.4624,-0.7939,-20.569,7.751,3.052,152.858,18.754,-99.778
13972,-0.3208,0.5405,-0.8794,-20.691,16.541,3.967,152.622,18.578,-99.739
13982,-0.3242,0.6104,-0.9556,-13.794,27.527,4.639,152.463,18.287,-99.646
13991,-0.3008,0.7026,-1.0303,-2.319,36.072,4.028,152.413,17.908,-99.509
14001,-0.2827,0.7227,-1.1011,13.367,38.391,-0.061,152.545,17.512,-99.322
14012,-0.2808,0.6426,-1.0815,25.330,32.410,-8.118,152.831,17.216,-99.091
14022,-0.2944,0.4536,-0.9072,26.917,13.428,-16.846,153.171,17.161,-98.866
14032,-0.3154,0.3179,-0.7583,14.099,-17.090,-25.085,153.397,17.463,-98.718
14042,-0.3398,0.2627,-0.6963,-4.211,-45.898,-29.053,153.430,18.067,-98.657
14052,-0.3706,0.2974,-0.6904,-19.409,-58.594,-23.865,153.254,18.776,-98.707
14062,-0.3467,0.4136,-0.7515,-22.400,-47.668,-13.733,152.979,19.292,-98.806
14072,-0.3232,0.5181,-0.8052,-6.897,-16.235,-3.052,152.842,19.440,-98.855
14082,-0.3066,0.5610,-0.8267,24.231,20.142,5.371,153.023,19.215,-98.811
14092,-0.2798,0.5171,-0.8867,58.655,45.959,8.179,153.622,18.732,-98.663
14101,-0.2734,0.4282,-0.9819,78.857,55.359,3.723,154.501,18.182,-98.443
14111,-0.2881,0.3560,-1.0591,75.867,45.288,-4.395,155.396,17.759,-98.196
14121,-0.2979,0.3218,-1.0654,53.528,22.583,-11.292,156.066,17.573,-97.987
14132,-0.3174,0.3066,-1.0200,22.034,-2.441,-15.686,156.401,17.650,-97.850
14142,-0.3271,0.3408,-0.9634,-8.606,-21.179,-16.968,156.379,17.908,-97.773
14152,-0.3394,0.3745,-0.8970,-28.076,-26.917,-15.381,156.121,18.226,-97.740
14162,-0.3384,0.4199,-0.8281,-34.241,-20.386,-12.634,155.759,18.479,-97.701
14172,-0.3159,0.4263,-0.7725,-25.513,-7.202,-8.911,155.479,18.594,-97.646
14182,-0.3008,0.3745,-0.7368,-8.850,6.470,-4.272,155.391,18.567,-97.581
14192,-0.2935,0.3198,-0.7344,6.226,16.663,-0.305,155.484,18.435,-97.504
14202,-0.2993,0.2749,-0.7573,12.512,23.437,2.563,155.682,18.232,-97.427
14212,-0.3013,0.2603,-0.8047,9.094,26.550,4.639,155.858,17.990,-97.355
14222,-0.2939,0.2788,-0.8662,0.305,27.466,6.104,155.940,17.715,-97.295
14232,-0.2964,0.3223,-0.9248,-7.019,27.832,6.897,155.934,17.424,-97.240
14242,-0.2949,0.3789,-0.9668,-10.437,28.259,7.690,155.874,17.122,-97.196
14251,-0.2856,0.4136,-0.9937,-8.667,27.588,8.667,155.814,16.815,-97.158
14261,-0.2671,0.4224,-1.0107,-3.601,23.926,9.277,155.797,16.534,-97.147
14271,-0.2441,0.4277,-1.0288,1.282,17.029,8.545,155.819,16.304,-97.152
14281,-0.2212,0.4375,-1.0513,3.174,6.836,6.165,155.858,16.161,-97.185
14291,-0.2153,0.4502,-1.0620,0.977,-5.127,3.662,155.869,16.139,-97.240
14301,-0.2207,0.4487,-1.0479,-2.319,-16.785,1.831,155.830,16.232,-97.328
14312,-0.2334,0.4380,-1.0117,-4.883,-25.330,1.038,155.753,16.414,-97.449
14322,-0.2583,0.4370,-0.9497,-6.836,-29.602,1.160,155.643,16.650,-97.586
14332,-0.2866,0.4312,-0.8809,-6.897,-29.419,1.831,155.517,16.902,-97.729
14342,-0.3101,0.4175,-0.8247,-4.944,-25.818,2.258,155.407,17.144,-97.861
14352,-0.3242,0.4072,-0.7822,-2.563,-20.325,2.014,155.319,17.347,-97.971
14362,-0.3374,0.4028,-0.7539,-0.549,-13.855,1.343,155.259,17.507,-98.042
14372,-0.3530,0.3979,-0.7397,0.366,-7.080,0.916,155.215,17.622,-98.080
14382,-0.3604,0.3853,-0.7407,0.061,-0.854,0.916,155.187,17.682,-98.097
14392,-0.3564,0.3818,-0.7529,-1.648,4.333,1.221,155.149,17.693,-98.086
14402,-0.3481,0.3955,-0.7720,-3.235,7.874,1.770,155.099,17.655,-98.069
14412,-0.3389,0.4077,-0.7964,-3.052,9.766,2.502,155.056,17.589,-98.053
14422,-0.3213,0.4297,-0.8286,-1.770,10.803,3.357,155.017,17.490,-98.036
14432,-0.3042,0.4414,-0.8584,0.061,12.268,4.333,155.001,17.364,-98.020
14442,-0.2832,0.4565,-0.8906,1.282,13.855,4.639,154.995,17.205,-98.004
14452,-0.2651,0.4722,-0.9253,1.465,15.137,4.333,154.995,17.023,-97.982
14462,-0.2544,0.4771,-0.9517,1.709,16.235,3.418,155.012,16.826,-97.938
14472,-0.2490,0.4731,-0.9717,1.770,16.113,1.831,155.034,16.633,-97.888
14482,-0.2354,0.4683,-0.9888,1.038,14.221,-0.305,155.056,16.463,-97.822
14492,-0.2427,0.4502,-0.9805,0.122,9.827,-2.380,155.078,16.348,-97.756
14502,-0.2495,0.4326,-0.9629,-1.343,3.052,-4.578,155.089,16.309,-97.696
14512,-0.2646,0.4087,-0.9395,-3.723,-4.150,-5.981,155.078,16.353,-97.657
14522,-0.2910,0.3789,-0.8867,-6.531,-9.644,-6.287,155.034,16.469,-97.641
14532,-0.3091,0.3672,-0.8379,-8.057,-12.634,-5.554,154.968,16.628,-97.646
14542,-0.3193,0.3643,-0.8154,-6.409,-12.268,-3.723,154.907,16.782,-97.663
14552,-0.3169,0.3677,-0.8115,-2.380,-7.812,-1.221,154.885,16.886,-97.685
14562,-0.3140,0.3750,-0.8198,2.563,-0.916,1.099,154.913,16.913,-97.701
14572,-0.3027,0.3862,-0.8389,7.202,6.042,2.869,154.984,16.859,-97.701
14582,-0.2876,0.3999,-0.8638,9.949,11.414,4.150,155.089,16.738,-97.690
14592,-0.2773,0.4180,-0.8833,10.254,14.709,4.883,155.193,16.578,-97.674
14602,-0.2778,0.4282,-0.8931,8.667,15.442,4.761,155.275,16.408,-97.652
14612,-0.2739,0.4385,-0.9004,5.737,14.343,3.784,155.330,16.254,-97.625
14622,-0.2642,0.4419,-0.9028,2.625,11.719,1.709,155.352,16.128,-97.592
14632,-0.2676,0.4429,-0.8999,-0.427,7.202,-0.916,155.341,16.057,-97.548
14642,-0.2744,0.4492,-0.9053,-2.686,2.441,-2.808,155.308,16.035,-97.509
14652,-0.2646,0.4644,-0.9170,-3.357,-0.061,-3.601,155.264,16.035,-97.476
14662,-0.2559,0.4819,-0.9307,-1.648,0.061,-3.723,155.231,16.029,-97.443
14672,-0.2559,0.4805,-0.9360,2.502,0.488,-3.906,155.242,16.013,-97.405
14682,-0.2617,0.4707,-0.9355,6.348,-0.061,-4.883,155.297,16.018,-97.355
14692,-0.2676,0.4565,-0.9277,7.751,-1.465,-6.042,155.374,16.040,-97.306
14702,-0.2778,0.4443,-0.9126,6.714,-3.418,-7.080,155.440,16.089,-97.256
14712,-0.2886,0.4121,-0.8945,5.554,-5.310,-8.118,155.506,16.177,-97.202
14722,-0.2876,0.3921,-0.8823,4.761,-6.775,-9.155,155.577,16.276,-97.141
14732,-0.2886,0.3618,-0.8662,4.883,-7.141,-9.033,155.654,16.386,-97.086
14742,-0.2852,0.3320,-0.8501,4.456,-6.409,-7.996,155.742,16.485,-97.042
14752,-0.2896,0.3140,-0.8359,2.441,-5.188,-6.653,155.819,16.578,-96.998
14762,-0.2920,0.3154,-0.8306,-0.427,-3.601,-5.188,155.858,16.644,-96.965
14772,-0.2983,0.3345,-0.8315,-1.465,-0.977,-3.235,155.869,16.683,-96.938
14782,-0.3008,0.3364,-0.8403,1.343,2.136,-0.671,155.912,16.688,-96.921
14792,-0.3013,0.3315,-0.8613,6.226,4.761,1.709,156.006,16.650,-96.921
14802,-0.2915,0.3193,-0.8853,10.071,6.348,3.784,156.143,16.584,-96.927
14812,-0.2847,0.3130,-0.9087,10.742,6.897,5.432,156.292,16.496,-96.949
14822,-0.2808,0.3271,-0.9233,8.240,6.226,6.653,156.407,16.408,-96.987
14832,-0.2656,0.3589,-0.9370,5.737,4.395,7.568,156.473,16.326,-97.042
14842,-0.2578,0.3843,-0.9404,5.432,2.441,8.240,156.522,16.249,-97.108
14852,-0.2544,0.3984,-0.9414,5.920,0.916,8.240,156.566,16.183,-97.185
14862,-0.2554,0.4102,-0.9434,5.188,0.244,7.568,156.594,16.128,-97.256
14872,-0.2607,0.4146,-0.9380,2.563,0.488,6.531,156.599,16.084,-97.317
14882,-0.2598,0.4180,-0.9253,-1.038,0.427,5.188,156.566,16.040,-97.366
14892,-0.2642,0.4233,-0.9126,-3.784,-1.282,3.723,156.506,16.024,-97.405
14902,-0.2725,0.4336,-0.9077,-4.639,-3.662,2.808,156.423,16.040,-97.449
14912,-0.2778,0.4487,-0.9038,-3.357,-5.249,2.502,156.352,16.068,-97.493
14922,-0.3062,0.4253,-0.8477,-0.549,-6.409,2.258,156.302,16.139,-97.542
14932,-0.3364,0.3857,-0.7656,1.648,-9.705,0.671,156.275,16.276,-97.592
14942,-0.3608,0.3623,-0.6846,2.136,-14.954,-2.625,156.248,16.507,-97.625
14952,-0.3491,0.3203,-0.6357,-0.183,-22.522,-7.385,156.209,16.837,-97.652
14962,-0.3257,0.3389,-0.7529,-6.836,-26.306,-12.329,156.138,17.172,-97.641
14972,-0.2607,0.4561,-0.9780,-14.343,-18.066,-15.930,156.006,17.364,-97.570
14982,-0.2192,0.5708,-1.1216,-17.578,-1.099,-16.113,155.847,17.364,-97.416
14992,-0.2168,0.5874,-1.1289,-12.939,10.742,-15.198,155.742,17.249,-97.229
15002,-0.2476,0.5649,-1.0586,-6.592,10.559,-13.062,155.687,17.155,-97.059
15012,-0.3037,0.4990,-0.9639,-1.953,1.892,-8.972,155.665,17.155,-96.965
15022,-0.3501,0.4487,-0.8823,-0.488,-5.676,-5.310,155.643,17.254,-96.938
15032,-0.3447,0.4067,-0.8340,0.916,-6.165,-2.808,155.632,17.353,-96.938
15042,-0.3018,0.3486,-0.8184,5.249,2.380,-1.099,155.704,17.347,-96.916
15052,-0.2642,0.3174,-0.8296,8.545,15.259,-0.366,155.841,17.205,-96.844
15062,-0.2339,0.3271,-0.8589,8.362,25.208,-0.610,155.995,16.952,-96.735
15072,-0.2300,0.3462,-0.9067,7.202,27.771,-1.587,156.132,16.666,-96.597
15082,-0.2417,0.3682,-0.9604,6.104,24.597,-2.625,156.259,16.425,-96.471
15092,-0.2573,0.3940,-0.9995,4.456,19.531,-2.319,156.357,16.227,-96.367
15102,-0.2773,0.3936,-0.9883,1.587,14.465,-0.916,156.407,16.084,-96.295
15112,-0.2954,0.3838,-0.9619,-3.113,8.362,-0.671,156.407,16.007,-96.257
15122,-0.2900,0.3857,-0.9429,-8.301,3.479,-2.075,156.346,15.980,-96.224
15132,-0.2778,0.3779,-0.9204,-11.047,1.221,-3.357,156.264,15.980,-96.185
15142,-0.2690,0.3794,-0.8955,-11.414,0.977,-3.784,156.171,15.980,-96.147
15152,-0.2710,0.3652,-0.8618,-8.362,1.221,-2.930,156.105,15.985,-96.114
15162,-0.2764,0.3442,-0.8325,-3.174,1.282,-1.404,156.094,15.991,-96.092
15172,-0.2852,0.3384,-0.8149,0.916,2.197,1.221,156.116,15.985,-96.097
15182,-0.2964,0.3584,-0.8140,3.723,3.906,4.456,156.143,15.952,-96.119
15192,-0.3018,0.3770,-0.8306,6.104,6.897,7.324,156.187,15.886,-96.163
15202,-0.2896,0.4004,-0.8560,7.812,11.414,9.521,156.242,15.754,-96.202
15212,-0.2681,0.4106,-0.8936,9.399,15.442,9.888,156.319,15.573,-96.235
15222,-0.2549,0.4146,-0.9331,8.545,14.648,6.958,156.396,15.397,-96.240
15232,-0.2461,0.4233,-0.9688,4.089,8.850,2.686,156.440,15.282,-96.229
15242,-0.2397,0.4297,-0.9907,-2.136,2.502,-0.183,156.423,15.233,-96.218
15252,-0.2368,0.4399,-0.9990,-7.202,-1.465,-1.587,156.352,15.222,-96.207
15262,-0.2275,0.4268,-0.9780,-8.728,-3.601,-2.563,156.270,15.233,-96.196
15272,-0.2383,0.4067,-0.9448,-7.751,-6.714,-3.540,156.198,15.287,-96.191
15282,-0.2544,0.3872,-0.9126,-6.409,-10.193,-3.723,156.143,15.386,-96.196
15292,-0.2729,0.3682,-0.8701,-4.822,-12.390,-2.563,156.094,15.513,-96.229
15302,-0.2915,0.3389,-0.8335,-1.953,-12.817,-0.854,156.083,15.656,-96.273
15312,-0.3003,0.3213,-0.8125,0.122,-11.780,0.793,156.094,15.793,-96.328
15322,-0.2998,0.3154,-0.8076,0.671,-9.521,2.502,156.105,15.903,-96.394
15332,-0.2974,0.3213,-0.8184,-0.244,-5.737,4.456,156.110,15.963,-96.460
15342,-0.2871,0.3418,-0.8379,-2.136,-1.343,5.737,156.088,15.969,-96.520
15352,-0.2695,0.3823,-0.8745,-4.089,1.648,6.042,156.039,15.930,-96.570
15362,-0.2583,0.4233,-0.9111,-5.371,2.502,5.676,155.962,15.870,-96.614
15372,-0.2534,0.4629,-0.9409,-6.042,2.258,5.005,155.874,15.804,-96.652
15382,-0.2461,0.5054,-0.9707,-6.470,1.587,4.333,155.764,15.743,-96.685
15392,-0.2441,0.5156,-0.9819,-4.822,0.671,3.418,155.676,15.688,-96.718
15402,-0.2461,0.5142,-0.9731,-2.991,-1.404,1.526,155.605,15.667,-96.735
15412,-0.2534,0.4922,-0.9478,-1.892,-4.639,-1.160,155.555,15.688,-96.746
15422,-0.2598,0.4619,-0.9150,-2.258,-7.690,-3.540,155.506,15.760,-96.746
15432,-0.2710,0.4395,-0.8828,-3.723,-10.132,-5.249,155.451,15.864,-96.740
15442,-0.2827,0.4263,-0.8555,-4.639,-11.353,-6.226,155.391,16.002,-96.729
15452,-0.2930,0.4097,-0.8428,-4.822,-10.620,-6.592,155.336,16.139,-96.713
15462,-0.2979,0.3960,-0.8345,-5.493,-8.362,-6.653,155.281,16.254,-96.685
15472,-0.3042,0.3804,-0.8306,-7.080,-5.371,-6.592,155.220,16.353,-96.647
15482,-0.3081,0.3755,-0.8237,-8.362,-2.197,-5.920,155.154,16.425,-96.603
15492,-0.3052,0.3647,-0.8223,-7.446,1.282,-4.150,155.099,16.452,-96.553
15502,-0.3003,0.3545,-0.8345,-4.578,4.883,-1.831,155.089,16.436,-96.515
15512,-0.2837,0.3550,-0.8623,-2.319,7.874,0.305,155.099,16.370,-96.487
15522,-0.2700,0.3779,-0.8999,-1.587,9.766,2.380,155.110,16.260,-96.465
15532,-0.2627,0.3975,-0.9399,-0.977,10.742,4.272,155.121,16.128,-96.460
15542,-0.2515,0.4072,-0.9614,0.610,10.071,5.676,155.143,15.991,-96.465
15552,-0.2480,0.4199,-0.9697,2.258,7.446,6.531,155.171,15.864,-96.498
15562,-0.2422,0.4233,-0.9766,3.723,3.723,7.141,155.209,15.771,-96.548
15572,-0.2427,0.4229,-0.9756,3.601,0.061,7.751,155.237,15.710,-96.619
15582,-0.2412,0.4175,-0.9653,1.648,-2.930,8.240,155.242,15.677,-96.713
15592,-0.2388,0.4170,-0.9634,-2.258,-4.578,8.423,155.209,15.650,-96.812
15602,-0.2471,0.4209,-0.9561,-7.019,-4.272,7.629,155.127,15.634,-96.899
15612,-0.2524,0.4341,-0.9253,-11.841,-2.930,6.287,154.984,15.617,-96.971
15622,-0.2563,0.4497,-0.8921,-14.587,-2.197,4.883,154.808,15.606,-97.031
15632,-0.2725,0.4604,-0.8540,-14.038,-2.869,3.784,154.627,15.617,-97.075
15642,-0.2935,0.4541,-0.8213,-10.437,-4.333,3.174,154.473,15.661,-97.125
15652,-0.3110,0.4351,-0.7910,-5.737,-5.432,3.052,154.369,15.727,-97.180
15662,-0.3262,0.4053,-0.7617,-1.526,-5.676,3.235,154.314,15.815,-97.234
15672,-0.3369,0.3833,-0.7314,1.404,-5.188,3.845,154.292,15.908,-97.295
15682,-0.3418,0.3726,-0.7271,3.784,-3.174,5.127,154.303,15.980,-97.355
15692,-0.3262,0.3857,-0.7607,5.920,2.014,6.531,154.336,15.985,-97.410
15702,-0.3022,0.3965,-0.7905,7.996,10.071,7.385,154.396,15.892,-97.432
15712,-0.2876,0.4067,-0.8149,8.484,17.456,7.141,154.473,15.721,-97.421
15722,-0.2642,0.4434,-0.8706,6.287,21.423,6.104,154.534,15.502,-97.383
15732,-0.2505,0.4634,-0.9165,3.723,21.484,3.967,154.572,15.271,-97.322
15742,-0.2642,0.4502,-0.9165,1.587,18.250,0.427,154.600,15.101,-97.245
15752,-0.2729,0.4297,-0.9033,-1.953,11.963,-3.479,154.600,15.007,-97.163
15762,-0.2856,0.3853,-0.8652,-6.287,5.249,-6.653,154.578,15.007,-97.075
15772,-0.3037,0.3457,-0.8096,-10.254,-0.244,-9.338,154.517,15.090,-96.987
15782,-0.3096,0.3379,-0.7808,-12.695,-1.038,-10.742,154.440,15.194,-96.894
15792,-0.2666,0.3921,-0.8267,-11.475,5.676,-9.094,154.358,15.194,-96.784
15802,-0.2187,0.4463,-0.9043,-4.395,17.456,-5.310,154.341,15.029,-96.652
15812,-0.1758,0.5015,-1.0083,5.188,28.687,-1.587,154.418,14.722,-96.509
15822,-0.1274,0.5557,-1.1338,13.916,35.828,0.305,154.594,14.310,-96.356
15832,-0.1069,0.5620,-1.2090,18.799,36.072,-0.916,154.825,13.892,-96.185
15842,-0.1328,0.5078,-1.1729,17.151,25.146,-4.333,155.045,13.607,-96.037
15852,-0.1738,0.4678,-1.0918,8.545,5.432,-8.484,155.171,13.541,-95.933
15862,-0.2275,0.4224,-0.9634,-2.441,-15.076,-11.414,155.171,13.711,-95.889
15872,-0.2891,0.3560,-0.8110,-9.766,-30.090,-12.085,155.083,14.073,-95.911
15882,-0.3213,0.3140,-0.6978,-11.414,-36.316,-10.620,154.962,14.529,-95.966
15892,-0.3315,0.3008,-0.6436,-8.606,-32.349,-6.409,154.852,14.952,-96.048
15902,-0.3140,0.3140,-0.6685,-2.991,-17.578,-0.549,154.808,15.194,-96.119
15912,-0.2666,0.3516,-0.7637,3.235,4.150,4.761,154.836,15.161,-96.147
15922,-0.2314,0.3994,-0.8677,8.118,22.949,7.935,154.929,14.908,-96.119
15932,-0.2075,0.4580,-0.9648,8.972,33.936,9.460,155.028,14.524,-96.059
15942,-0.1885,0.4922,-1.0366,7.568,34.912,8.667,155.116,14.123,-95.988
15952,-0.1836,0.5234,-1.0791,4.272,28.809,6.042,155.165,13.782,-95.922
15962,-0.1929,0.5391,-1.0781,1.953,18.188,2.869,155.182,13.563,-95.867
15972,-0.2075,0.5347,-1.0601,1.404,5.188,0.305,155.182,13.475,-95.850
15982,-0.2100,0.5142,-1.0278,1.892,-5.554,-1.953,155.176,13.502,-95.856
15992,-0.2183,0.4741,-0.9707,2.991,-11.963,-3.967,155.193,13.607,-95.872
16002,-0.2285,0.4214,-0.8945,3.235,-15.198,-5.493,155.220,13.760,-95.883
16012,-0.2490,0.3721,-0.8145,2.258,-16.602,-6.104,155.237,13.953,-95.900
16022,-0.2822,0.3154,-0.7402,1.038,-16.357,-5.493,155.259,14.178,-95.916
16032,-0.3125,0.2930,-0.6909,-2.319,-9.949,-1.648,155.248,14.359,-95.944
16042,-0.2993,0.3330,-0.7354,-2.808,-1.160,1.709,155.220,14.420,-95.966
16052,-0.2612,0.4014,-0.8208,-1.038,9.705,5.127,155.193,14.326,-95.971
16062,-0.2305,0.4565,-0.9063,3.235,19.226,7.507,155.209,14.106,-95.960
16072,-0.2080,0.4795,-0.9648,6.409,23.621,7.935,155.264,13.832,-95.933
16082,-0.2021,0.4727,-0.9902,6.165,21.301,6.348,155.325,13.579,-95.900
16092,-0.2148,0.4551,-0.9897,2.747,14.343,3.296,155.358,13.414,-95.867
16102,-0.2251,0.4473,-0.9854,-2.380,6.165,0.549,155.341,13.337,-95.845
16112,-0.2295,0.4438,-0.9644,-6.104,-0.244,-1.038,155.286,13.332,-95.839
16122,-0.2358,0.4502,-0.9414,-5.493,-3.479,-1.404,155.220,13.365,-95.839
16132,-0.2417,0.4321,-0.9048,-0.122,-4.211,-0.916,155.209,13.409,-95.850
16142,-0.2305,0.4092,-0.8882,6.409,-3.967,-0.244,155.270,13.442,-95.867
16152,-0.2100,0.3882,-0.8862,9.888,-2.869,0.671,155.374,13.453,-95.883
16162,-0.2061,0.3696,-0.8809,9.033,-1.160,1.526,155.479,13.447,-95.905
16172,-0.2163,0.3794,-0.8843,4.578,0.549,1.648,155.533,13.425,-95.916
16182,-0.2275,0.3940,-0.8813,-0.183,2.258,1.526,155.533,13.398,-95.922
16192,-0.2622,0.3774,-0.8428,-3.235,2.808,1.282,155.506,13.392,-95.922
16202,-0.2852,0.3579,-0.8296,-3.906,2.380,0.977,155.479,13.409,-95.922
16212,-0.2905,0.3579,-0.8335,-3.235,2.869,1.465,155.462,13.420,-95.922
16222,-0.2773,0.3574,-0.8428,-1.709,4.944,3.174,155.457,13.398,-95.927
16232,-0.2485,0.3735,-0.8696,-0.549,7.507,4.822,155.462,13.321,-95.944
16242,-0.1836,0.4253,-0.9614,0.549,10.132,5.371,155.473,13.173,-95.949
16252,-0.1289,0.4839,-1.0684,2.380,12.146,5.127,155.495,12.975,-95.944
16262,-0.1172,0.5171,-1.1157,3.723,10.803,4.761,155.533,12.783,-95.944
16272,-0.1221,0.5190,-1.1187,3.662,4.456,3.357,155.561,12.656,-95.955
16282,-0.1514,0.5151,-1.0962,2.014,-4.272,0.732,155.566,12.640,-95.982
16292,-0.1865,0.4971,-1.0415,-0.610,-12.024,-1.648,155.544,12.717,-96.015
16302,-0.2178,0.4551,-0.9487,-2.625,-17.334,-3.357,155.495,12.876,-96.059
16312,-0.2524,0.3945,-0.8286,-4.028,-21.118,-5.005,155.435,13.112,-96.103
16322,-0.2803,0.3604,-0.7500,-5.066,-23.499,-5.493,155.363,13.403,-96.152
16332,-0.2969,0.3369,-0.7163,-4.517,-21.729,-3.662,155.303,13.683,-96.213
16342,-0.3076,0.3135,-0.6968,-2.014,-14.587,-0.854,155.275,13.903,-96.262
16352,-0.3003,0.3145,-0.7178,0.977,-4.761,1.343,155.286,14.008,-96.295
16362,-0.2729,0.3413,-0.7793,2.808,4.761,3.296,155.319,13.991,-96.306
16372,-0.2451,0.3750,-0.8477,3.418,13.123,4.700,155.369,13.865,-96.295
16382,-0.2241,0.4204,-0.9106,3.052,19.653,4.822,155.407,13.651,-96.257
16392,-0.2026,0.4585,-0.9697,2.014,23.071,3.235,155.435,13.403,-96.185
16402,-0.1958,0.4800,-1.0068,0.244,23.499,0.854,155.446,13.151,-96.097
16412,-0.1973,0.4849,-1.0039,-1.770,21.362,-1.770,155.440,12.936,-95.988
16422,-0.2026,0.4751,-0.9839,-3.357,17.029,-3.723,155.418,12.772,-95.883
16432,-0.2144,0.4399,-0.9365,-4.028,11.719,-4.944,155.396,12.678,-95.784
16442,-0.2261,0.4136,-0.8940,-4.028,5.676,-5.676,155.369,12.651,-95.707
16452,-0.2310,0.3950,-0.8682,-4.211,0.671,-5.066,155.341,12.678,-95.658
16462,-0.2314,0.3911,-0.8613,-4.272,-1.648,-3.296,155.308,12.717,-95.636
16472,-0.2290,0.3931,-0.8618,-3.479,-1.648,-0.854,155.275,12.744,-95.630
16482,-0.2314,0.3979,-0.8667,-1.160,0.183,1.160,155.259,12.744,-95.641
16492,-0.2236,0.4028,-0.8809,0.977,2.319,2.319,155.270,12.717,-95.652
16502,-0.2129,0.4106,-0.9131,1.953,4.089,2.625,155.292,12.662,-95.663
16513,-0.2139,0.4126,-0.9194,1.099,4.272,2.502,155.308,12.607,-95.669
