elapsed_ms,acc_x_g,acc_y_g,acc_z_g,gyro_x_dps,gyro_y_dps,gyro_z_dps,angle_x_deg,angle_y_deg,angle_z_deg
0,-0.3315,0.6040,-0.7681,-1.465,-1.404,1.770,141.641,19.380,-108.122
10,-0.3345,0.6060,-0.7705,-2.197,-2.075,1.343,141.614,19.385,-108.149
20,-0.3354,0.6079,-0.7676,-2.686,-2.625,1.099,141.575,19.391,-108.177
30,-0.3389,0.6099,-0.7578,-2.686,-2.869,0.977,141.537,19.407,-108.199
40,-0.3398,0.6094,-0.7485,-2.441,-2.930,0.916,141.498,19.424,-108.226
50,-0.3447,0.6025,-0.7446,-1.953,-3.235,0.732,141.465,19.451,-108.254
60,-0.3477,0.5986,-0.7427,-1.587,-3.296,0.549,141.438,19.479,-108.281
70,-0.3477,0.5991,-0.7393,-1.526,-3.052,0.671,141.405,19.501,-108.309
80,-0.3491,0.5977,-0.7393,-1.526,-2.502,0.916,141.383,19.523,-108.331
90,-0.3501,0.5981,-0.7363,-1.587,-1.770,0.977,141.356,19.539,-108.353
100,-0.3481,0.5996,-0.7349,-1.343,-1.282,0.854,141.328,19.550,-108.369
110,-0.3437,0.5986,-0.7329,-1.038,-0.977,0.793,141.312,19.556,-108.380
120,-0.3389,0.6006,-0.7334,-0.916,-0.610,0.916,141.290,19.556,-108.391
130,-0.3408,0.6040,-0.7368,-1.038,-0.122,1.160,141.268,19.550,-108.402
140,-0.3418,0.6079,-0.7378,-0.916,0.366,1.343,141.251,19.539,-108.413
150,-0.3418,0.6108,-0.7402,-0.610,0.610,1.343,141.235,19.528,-108.419
160,-0.3442,0.6118,-0.7441,-0.244,0.671,1.160,141.224,19.517,-108.424
170,-0.3413,0.6152,-0.7446,-0.244,0.671,0.977,141.213,19.506,-108.430
180,-0.3428,0.6187,-0.7441,-0.366,0.732,0.671,141.196,19.495,-108.430
190,-0.3447,0.6201,-0.7422,-0.305,1.038,0.488,141.185,19.484,-108.424
200,-0.3457,0.6157,-0.7407,-0.122,1.526,0.305,141.180,19.473,-108.419
211,-0.3447,0.6138,-0.7397,0.183,2.014,0.244,141.174,19.462,-108.408
220,-0.3433,0.6138,-0.7407,0.366,2.380,0.000,141.174,19.446,-108.391
230,-0.3413,0.6118,-0.7437,0.427,2.319,-0.366,141.180,19.429,-108.369
240,-0.3403,0.6104,-0.7456,0.366,2.075,-0.732,141.185,19.418,-108.353
250,-0.3379,0.6060,-0.7495,-0.122,1.770,-1.038,141.191,19.407,-108.331
260,-0.3350,0.6025,-0.7539,-0.732,1.587,-1.282,141.191,19.402,-108.309
270,-0.3354,0.6021,-0.7573,-0.977,1.770,-1.404,141.191,19.396,-108.287
280,-0.3354,0.5972,-0.7544,-0.977,2.197,-1.587,141.196,19.385,-108.259
290,-0.3364,0.5884,-0.7500,-0.916,2.319,-1.648,141.202,19.380,-108.232
300,-0.3408,0.5928,-0.7510,-1.038,2.258,-1.709,141.207,19.374,-108.199
310,-0.3408,0.5937,-0.7573,-1.099,2.441,-1.343,141.213,19.363,-108.171
320,-0.3384,0.5933,-0.7578,-0.488,3.113,-0.732,141.224,19.347,-108.149
330,-0.3384,0.5898,-0.7554,0.183,3.357,-0.366,141.240,19.325,-108.122
340,-0.3364,0.5903,-0.7573,0.610,3.052,-0.183,141.262,19.303,-108.100
350,-0.3369,0.5952,-0.7603,0.732,2.380,0.122,141.284,19.281,-108.083
360,-0.3374,0.5933,-0.7603,0.549,1.709,0.671,141.295,19.265,-108.078
370,-0.3389,0.5918,-0.7593,0.305,1.343,1.038,141.306,19.248,-108.078
380,-0.3379,0.5947,-0.7583,0.305,1.221,1.160,141.317,19.232,-108.078
390,-0.3359,0.5967,-0.7627,0.305,1.221,1.221,141.323,19.215,-108.083
400,-0.3330,0.5967,-0.7607,0.366,1.160,1.404,141.334,19.193,-108.089
410,-0.3301,0.5962,-0.7568,0.488,1.099,1.587,141.339,19.171,-108.094
420,-0.3281,0.5967,-0.7529,0.610,0.977,1.648,141.345,19.155,-108.100
430,-0.3276,0.5981,-0.7544,0.671,0.854,1.648,141.350,19.133,-108.105
440,-0.3281,0.6006,-0.7554,0.732,0.977,1.831,141.361,19.111,-108.116
450,-0.3291,0.6006,-0.7549,0.854,1.160,1.953,141.367,19.083,-108.127
460,-0.3320,0.6021,-0.7559,0.854,1.404,2.014,141.372,19.061,-108.133
470,-0.3320,0.6055,-0.7544,0.610,1.465,2.075,141.378,19.034,-108.138
480,-0.3330,0.6064,-0.7593,0.549,1.404,2.075,141.378,19.012,-108.149
490,-0.3320,0.6069,-0.7598,0.671,1.221,2.075,141.383,18.990,-108.155
500,-0.3267,0.6064,-0.7607,0.793,0.854,1.892,141.389,18.962,-108.166
510,-0.3252,0.6074,-0.7632,0.732,0.549,1.648,141.394,18.946,-108.177
520,-0.3257,0.6079,-0.7671,0.549,0.366,1.465,141.394,18.929,-108.188
530,-0.3276,0.6074,-0.7666,0.183,0.244,1.343,141.400,18.913,-108.193
540,-0.3291,0.6104,-0.7690,-0.122,0.061,1.221,141.394,18.902,-108.204
550,-0.3276,0.6099,-0.7734,-0.183,-0.305,1.038,141.394,18.891,-108.215
560,-0.3271,0.6084,-0.7710,-0.061,-0.793,0.732,141.394,18.891,-108.226
570,-0.3262,0.6055,-0.7676,-0.061,-1.404,0.488,141.389,18.891,-108.243
580,-0.3247,0.6006,-0.7666,-0.183,-2.014,0.366,141.389,18.902,-108.259
590,-0.3276,0.5957,-0.7603,-0.366,-2.502,0.366,141.383,18.918,-108.276
600,-0.3340,0.5933,-0.7563,-0.427,-2.686,0.488,141.378,18.940,-108.298
610,-0.3364,0.5918,-0.7500,-0.244,-2.319,0.610,141.372,18.957,-108.320
620,-0.3389,0.5903,-0.7456,0.122,-1.709,0.916,141.372,18.973,-108.336
630,-0.3418,0.5869,-0.7432,0.244,-1.038,1.282,141.372,18.979,-108.353
640,-0.3398,0.5859,-0.7446,0.122,-0.671,1.587,141.372,18.984,-108.375
650,-0.3398,0.5894,-0.7456,-0.244,-0.671,1.770,141.367,18.984,-108.391
660,-0.3369,0.5962,-0.7471,-0.549,-0.854,1.953,141.350,18.984,-108.413
670,-0.3320,0.6035,-0.7466,-0.488,-1.038,2.136,141.339,18.979,-108.435
680,-0.3281,0.6099,-0.7520,-0.183,-1.038,2.258,141.323,18.968,-108.463
690,-0.3315,0.6123,-0.7573,0.122,-0.732,2.136,141.312,18.962,-108.484
700,-0.3276,0.6216,-0.7656,0.244,-0.366,2.014,141.306,18.946,-108.506
711,-0.3198,0.6309,-0.7744,0.183,0.061,1.648,141.301,18.924,-108.517
720,-0.3198,0.6299,-0.7793,-0.305,0.244,0.610,141.295,18.907,-108.523
730,-0.3345,0.5962,-0.7300,-2.625,-0.610,-1.465,141.262,18.924,-108.512
740,-0.3486,0.5542,-0.6812,-8.545,-3.479,-4.272,141.180,19.006,-108.501
750,-0.3638,0.5542,-0.6665,-17.517,-4.395,-6.836,141.004,19.122,-108.474
760,-0.3696,0.5952,-0.6602,-24.109,-1.343,-7.935,140.757,19.215,-108.419
770,-0.3804,0.6338,-0.6646,-22.278,4.700,-6.531,140.515,19.254,-108.331
780,-0.3896,0.6670,-0.6479,-11.658,9.766,-1.587,140.367,19.221,-108.254
790,-0.4038,0.6768,-0.6235,5.615,11.719,5.188,140.356,19.144,-108.215
800,-0.4321,0.6274,-0.5947,26.245,9.216,11.475,140.537,19.078,-108.248
810,-0.4321,0.5381,-0.5762,44.006,4.333,14.893,140.905,19.045,-108.342
820,-0.3823,0.4785,-0.6304,52.979,-0.061,14.038,141.411,19.028,-108.457
830,-0.3105,0.4868,-0.7412,51.819,-0.061,11.292,141.949,18.957,-108.550
840,-0.2500,0.5337,-0.8574,42.542,6.104,10.193,142.416,18.798,-108.594
850,-0.2163,0.6025,-0.9365,28.809,16.235,10.498,142.756,18.528,-108.578
860,-0.2021,0.6743,-0.9814,14.648,24.658,10.498,142.949,18.182,-108.506
870,-0.1953,0.7280,-0.9873,2.441,27.954,8.240,143.015,17.825,-108.402
880,-0.2051,0.7339,-0.9565,-4.456,24.963,2.625,143.004,17.529,-108.265
890,-0.2505,0.6997,-0.8618,-9.277,14.160,-4.089,142.927,17.391,-108.144
900,-0.3066,0.6660,-0.7822,-10.010,-1.160,-8.850,142.817,17.446,-108.073
910,-0.3384,0.6323,-0.7407,-6.042,-13.733,-10.376,142.723,17.633,-108.078
920,-0.3462,0.5913,-0.7183,2.258,-18.982,-9.521,142.712,17.869,-108.116
930,-0.3369,0.5518,-0.7402,12.207,-16.174,-8.118,142.828,18.067,-108.149
940,-0.3369,0.5112,-0.7632,18.311,-7.751,-6.470,143.042,18.188,-108.149
950,-0.3403,0.4834,-0.7734,18.860,1.648,-4.456,143.295,18.221,-108.100
960,-0.3218,0.5005,-0.7881,13.184,7.324,-2.380,143.487,18.188,-108.034
970,-0.3003,0.5537,-0.7974,5.005,9.338,-0.916,143.575,18.111,-107.968
980,-0.3022,0.6099,-0.8042,0.000,8.423,0.061,143.586,18.029,-107.913
990,-0.3062,0.6294,-0.8018,0.488,5.310,0.427,143.580,17.968,-107.886
1000,-0.3042,0.6187,-0.8105,4.150,1.526,-0.244,143.613,17.946,-107.875
1010,-0.3145,0.5806,-0.8247,5.859,-0.671,-2.258,143.690,17.957,-107.858
1020,-0.3159,0.5469,-0.8345,2.197,-0.671,-4.822,143.756,17.985,-107.820
1030,-0.3047,0.5430,-0.8335,-5.249,0.366,-6.775,143.751,18.012,-107.759
1040,-0.3105,0.5459,-0.8120,-11.658,1.587,-7.629,143.685,18.040,-107.688
1050,-0.3169,0.5762,-0.7964,-12.878,2.319,-7.507,143.586,18.067,-107.611
1060,-0.3467,0.5503,-0.7310,-7.080,1.953,-5.981,143.525,18.111,-107.545
1070,-0.3843,0.4834,-0.6519,2.258,-0.793,-3.845,143.558,18.215,-107.518
1080,-0.3965,0.4380,-0.6201,10.010,-3.906,-1.099,143.663,18.342,-107.534
1090,-0.3950,0.4146,-0.6240,14.648,-4.395,2.991,143.822,18.457,-107.589
1100,-0.3667,0.4385,-0.6802,15.808,-0.671,7.507,143.987,18.479,-107.655
1110,-0.3159,0.5005,-0.7891,14.343,7.568,11.597,144.152,18.353,-107.704
1120,-0.2485,0.6030,-0.9243,11.475,18.860,14.893,144.289,18.056,-107.715
1130,-0.1875,0.7026,-1.0244,8.667,29.419,16.907,144.399,17.628,-107.682
1140,-0.1592,0.7593,-1.0547,8.057,33.875,16.052,144.498,17.155,-107.611
1150,-0.1567,0.7773,-1.0444,9.033,28.564,12.146,144.597,16.754,-107.540
1160,-0.1846,0.7422,-0.9937,10.559,14.221,6.165,144.695,16.518,-107.507
1170,-0.2295,0.6689,-0.9360,10.376,-5.188,-1.221,144.789,16.518,-107.529
1180,-0.2690,0.5908,-0.8691,6.287,-23.254,-8.179,144.844,16.732,-107.600
1190,-0.3076,0.5005,-0.7886,0.793,-35.950,-12.878,144.849,17.111,-107.704
1200,-0.3359,0.4448,-0.7153,-6.042,-41.565,-14.526,144.783,17.573,-107.831
1211,-0.3555,0.4326,-0.6646,-11.902,-40.161,-13.611,144.651,18.045,-107.957
1220,-0.3696,0.4458,-0.6284,-13.672,-31.677,-10.010,144.481,18.435,-108.062
1230,-0.3774,0.4604,-0.6064,-9.705,-19.104,-4.272,144.344,18.688,-108.144
1240,-0.3784,0.4600,-0.6050,-2.136,-6.287,2.075,144.289,18.809,-108.199
1250,-0.3687,0.4668,-0.6396,4.639,4.028,7.324,144.316,18.792,-108.237
1260,-0.3462,0.5015,-0.7061,7.263,11.658,11.169,144.388,18.666,-108.265
1270,-0.3257,0.5425,-0.7622,5.798,16.174,13.672,144.437,18.463,-108.281
1280,-0.3096,0.5811,-0.8052,2.930,17.151,14.221,144.459,18.232,-108.298
1290,-0.2959,0.6240,-0.8423,0.244,15.564,12.512,144.448,18.007,-108.309
1300,-0.2832,0.6538,-0.8779,-2.136,12.573,9.644,144.415,17.814,-108.314
1310,-0.2861,0.6606,-0.8955,-4.089,8.728,6.348,144.366,17.677,-108.314
1320,-0.2964,0.6460,-0.8774,-6.165,4.089,2.747,144.300,17.600,-108.314
1330,-0.3066,0.6323,-0.8481,-8.362,-2.014,-0.854,144.201,17.611,-108.320
1340,-0.3081,0.6333,-0.8335,-9.399,-8.118,-3.479,144.091,17.682,-108.342
1350,-0.2954,0.6460,-0.8267,-7.507,-11.719,-4.272,143.981,17.781,-108.375
1360,-0.2964,0.6270,-0.8081,-2.441,-12.634,-3.845,143.926,17.891,-108.419
1370,-0.2900,0.6274,-0.7979,2.014,-12.146,-3.296,143.910,17.985,-108.468
1380,-0.3145,0.5654,-0.7373,4.517,-11.902,-3.052,143.926,18.105,-108.517
1390,-0.3711,0.4897,-0.6553,2.258,-13.794,-4.395,143.926,18.303,-108.561
1400,-0.4067,0.4580,-0.6016,-3.662,-16.907,-6.775,143.866,18.578,-108.611
1410,-0.4390,0.4351,-0.5586,-10.010,-17.639,-7.935,143.734,18.902,-108.655
1420,-0.4385,0.4600,-0.5698,-13.977,-12.878,-6.714,143.564,19.160,-108.677
1430,-0.3916,0.5508,-0.6621,-12.146,-1.343,-2.502,143.416,19.243,-108.666
1440,-0.3203,0.6484,-0.7754,-3.174,16.541,4.578,143.372,19.067,-108.600
1450,-0.2651,0.7002,-0.8525,9.949,33.936,11.230,143.481,18.671,-108.479
1460,-0.2251,0.7183,-0.9038,20.203,42.419,14.099,143.707,18.177,-108.331
1470,-0.2163,0.6816,-0.9146,23.865,37.231,11.047,143.981,17.743,-108.193
1480,-0.2559,0.6167,-0.9092,18.433,21.057,3.113,144.212,17.507,-108.089
1490,-0.2969,0.5801,-0.8823,5.005,1.160,-5.676,144.305,17.512,-108.034
1500,-0.3193,0.5571,-0.8379,-9.827,-14.832,-12.390,144.234,17.704,-108.023
1510,-0.3335,0.5469,-0.7949,-18.616,-21.912,-15.076,144.058,17.979,-108.029
1520,-0.3306,0.5742,-0.7808,-17.883,-19.897,-13.855,143.877,18.232,-108.034
1530,-0.3179,0.5693,-0.7720,-6.836,-11.536,-9.644,143.811,18.380,-108.023
1540,-0.2993,0.5503,-0.7754,7.507,-1.587,-4.822,143.899,18.413,-107.990
1550,-0.2910,0.5366,-0.7959,16.846,4.944,-0.977,144.102,18.364,-107.952
1560,-0.2896,0.5469,-0.8115,16.296,6.592,0.977,144.294,18.287,-107.919
1570,-0.3101,0.5508,-0.7822,8.240,3.845,0.916,144.382,18.243,-107.902
1580,-0.3325,0.5620,-0.7632,-2.075,-1.282,-1.526,144.360,18.276,-107.897
1590,-0.3403,0.5815,-0.7505,-10.742,-4.822,-4.944,144.234,18.358,-107.886
1600,-0.3374,0.6006,-0.7656,-14.648,-4.333,-7.507,144.075,18.441,-107.847
1610,-0.2891,0.6455,-0.8408,-13.733,1.282,-8.728,143.954,18.452,-107.765
1620,-0.2573,0.6724,-0.8984,-7.629,8.789,-8.362,143.910,18.375,-107.639
1630,-0.2759,0.6328,-0.8574,0.793,12.634,-6.897,143.954,18.276,-107.501
1640,-0.3555,0.4849,-0.6846,6.775,5.737,-6.470,144.058,18.314,-107.413
1650,-0.4580,0.3145,-0.4775,7.019,-12.451,-8.728,144.152,18.666,-107.413
1661,-0.4927,0.2246,-0.3809,2.441,-32.593,-11.108,144.196,19.286,-107.518
1671,-0.4092,0.3657,-0.6123,-3.723,-37.476,-8.423,144.157,19.742,-107.682
1680,-0.2500,0.6621,-1.0146,-4.761,-10.010,1.160,144.113,19.737,-107.754
1690,-0.1592,0.8525,-1.2163,1.282,39.734,12.939,144.179,19.204,-107.617
1700,-0.0986,0.9272,-1.2031,10.132,76.294,18.555,144.382,18.479,-107.303
1711,-0.1011,0.8452,-1.0601,15.686,79.102,14.343,144.657,17.754,-106.941
1720,-0.2051,0.7002,-0.9014,12.329,45.959,0.977,144.860,17.375,-106.672
1730,-0.3193,0.5947,-0.7666,1.709,-5.249,-15.259,144.910,17.501,-106.573
1740,-0.4346,0.4814,-0.6382,-7.751,-52.307,-25.757,144.800,18.078,-106.666
1750,-0.4819,0.3965,-0.5518,-10.620,-82.153,-28.137,144.613,18.913,-106.919
1760,-0.4956,0.3604,-0.5156,-7.812,-85.083,-23.132,144.432,19.742,-107.243
1770,-0.4468,0.3745,-0.5439,1.160,-60.852,-12.207,144.355,20.308,-107.512
1780,-0.3862,0.3984,-0.6045,13.977,-20.264,-0.061,144.448,20.473,-107.639
1790,-0.3311,0.4531,-0.7231,25.452,20.081,9.338,144.717,20.253,-107.595
1800,-0.2861,0.5454,-0.8315,26.917,47.302,15.259,145.042,19.781,-107.435
1810,-0.2476,0.6094,-0.9067,21.973,57.190,16.846,145.333,19.215,-107.232
1820,-0.2310,0.6475,-0.9717,14.343,50.659,13.550,145.536,18.721,-107.045
1830,-0.2275,0.6646,-1.0034,4.211,32.166,6.531,145.624,18.419,-106.913
1840,-0.2495,0.6562,-0.9951,-6.653,9.277,-2.136,145.580,18.353,-106.837
1850,-0.2793,0.6216,-0.9502,-17.090,-10.864,-10.254,145.415,18.501,-106.815
1860,-0.2886,0.5933,-0.9194,-23.865,-25.269,-16.174,145.173,18.803,-106.826
1870,-0.2832,0.5913,-0.8940,-25.208,-30.151,-18.127,144.915,19.155,-106.848
1880,-0.3125,0.5889,-0.8091,-19.958,-28.381,-16.541,144.706,19.479,-106.880
1890,-0.3413,0.5767,-0.7407,-8.118,-23.682,-12.329,144.608,19.742,-106.919
1900,-0.3682,0.5015,-0.6528,5.127,-19.165,-7.812,144.646,19.946,-106.968
1910,-0.4312,0.3701,-0.5156,12.817,-18.799,-5.432,144.750,20.132,-107.034
1920,-0.4609,0.3018,-0.4687,11.169,-21.423,-4.639,144.827,20.330,-107.128
1930,-0.4810,0.2754,-0.4697,4.517,-20.508,-1.953,144.838,20.511,-107.238
1940,-0.4609,0.3247,-0.5571,-3.601,-10.559,3.235,144.767,20.577,-107.331
1950,-0.3691,0.4976,-0.7466,-9.399,10.925,10.071,144.668,20.429,-107.347
1960,-0.2451,0.7339,-1.0059,-8.911,37.476,17.212,144.608,20.028,-107.271
1970,-0.1333,0.9438,-1.2031,-3.357,62.500,21.606,144.641,19.391,-107.073
1980,-0.1123,0.9507,-1.1909,6.470,71.411,18.982,144.794,18.699,-106.798
1990,-0.1724,0.7617,-0.9878,10.559,54.871,8.606,144.987,18.199,-106.540
2000,-0.3027,0.5059,-0.7520,2.258,13.306,-7.751,145.052,18.138,-106.392
2010,-0.3955,0.3555,-0.5923,-17.822,-35.522,-22.827,144.871,18.556,-106.408
2020,-0.4736,0.2627,-0.4917,-34.546,-73.181,-30.029,144.465,19.330,-106.595
2030,-0.5015,0.3281,-0.5132,-39.368,-83.435,-26.550,143.976,20.165,-106.875
2040,-0.4790,0.4380,-0.6030,-26.855,-56.946,-12.329,143.624,20.698,-107.128
2050,-0.4043,0.5332,-0.6992,-4.517,-10.559,6.409,143.536,20.742,-107.249
2060,-0.3066,0.6221,-0.8320,17.456,36.987,21.423,143.729,20.319,-107.199
2070,-0.2251,0.7061,-0.9507,30.884,65.857,27.100,144.097,19.627,-107.018
2080,-0.1807,0.7266,-1.0244,33.203,70.007,25.085,144.503,18.913,-106.798
2090,-0.1816,0.7187,-1.0439,25.513,51.270,16.602,144.816,18.397,-106.622
2100,-0.2256,0.7007,-1.0015,9.583,19.104,5.188,144.932,18.215,-106.551
2110,-0.3042,0.6528,-0.8770,-7.446,-15.991,-5.371,144.844,18.375,-106.606
2120,-0.3745,0.5713,-0.7251,-16.602,-43.579,-12.939,144.630,18.803,-106.754
2130,-0.4067,0.5278,-0.6260,-17.090,-58.716,-16.174,144.388,19.380,-106.974
2140,-0.4155,0.5366,-0.6035,-8.301,-56.763,-13.977,144.229,19.924,-107.205
2150,-0.3857,0.5547,-0.6802,6.775,-37.415,-7.690,144.240,20.270,-107.375
2160,-0.3364,0.5474,-0.7354,20.508,-6.714,-0.793,144.432,20.330,-107.408
2170,-0.3057,0.5303,-0.7529,25.574,19.470,3.723,144.717,20.149,-107.320
2180,-0.2739,0.5229,-0.7739,19.775,31.189,5.188,144.970,19.863,-107.172
2190,-0.3003,0.5171,-0.7754,8.728,28.137,2.686,145.107,19.616,-107.023
2200,-0.3662,0.5024,-0.7417,-4.333,16.785,-1.587,145.102,19.490,-106.908
2211,-0.4360,0.4829,-0.6978,-15.930,1.770,-5.493,144.959,19.506,-106.848
2220,-0.4360,0.5112,-0.7212,-22.095,-7.690,-7.446,144.745,19.611,-106.831
2230,-0.4062,0.5527,-0.7617,-19.653,-6.104,-6.348,144.558,19.698,-106.815
2240,-0.3213,0.6270,-0.8618,-10.132,4.761,-2.625,144.470,19.677,-106.760
2250,-0.2070,0.6992,-1.0195,2.625,20.813,1.404,144.536,19.495,-106.644
2260,-0.1777,0.7422,-1.0610,10.559,34.180,3.784,144.701,19.199,-106.469
2270,-0.2026,0.6597,-0.9517,12.695,34.241,1.526,144.893,18.907,-106.271
2280,-0.2886,0.4932,-0.7769,7.874,16.235,-5.127,145.020,18.803,-106.128
2290,-0.3672,0.3984,-0.6494,-5.493,-11.536,-12.146,144.976,18.968,-106.095
2300,-0.4297,0.3433,-0.5752,-17.456,-35.095,-14.221,144.772,19.341,-106.183
2310,-0.4517,0.3652,-0.5483,-21.301,-43.884,-10.437,144.498,19.759,-106.359
2320,-0.4058,0.4697,-0.6592,-13.062,-32.532,-1.953,144.305,20.034,-106.545
2330,-0.3228,0.5962,-0.8228,2.991,-2.563,9.094,144.305,20.001,-106.639
2340,-0.2568,0.6753,-0.9414,20.203,30.701,17.212,144.520,19.649,-106.600
2350,-0.2173,0.6914,-0.9927,28.809,49.011,17.883,144.860,19.149,-106.452
2360,-0.2407,0.6392,-0.9644,26.611,45.044,12.451,145.179,18.710,-106.282
2370,-0.3018,0.5918,-0.8853,13.367,22.766,3.296,145.349,18.501,-106.177
2380,-0.3662,0.4961,-0.7446,-5.310,-7.996,-6.104,145.294,18.605,-106.172
2390,-0.4077,0.4214,-0.6118,-22.400,-35.217,-12.817,145.042,18.968,-106.271
2400,-0.4150,0.4482,-0.5674,-31.616,-49.988,-14.343,144.668,19.457,-106.447
2410,-0.3770,0.5605,-0.6577,-26.184,-43.701,-8.972,144.338,19.869,-106.639
2420,-0.3101,0.6357,-0.7666,-7.996,-16.663,1.282,144.223,19.995,-106.754
2430,-0.2720,0.6519,-0.8306,13.062,15.076,9.888,144.355,19.814,-106.743
2440,-0.2568,0.6455,-0.8955,24.597,35.461,12.451,144.641,19.451,-106.633
2450,-0.2573,0.6333,-0.9209,23.193,37.415,9.705,144.921,19.094,-106.485
2460,-0.2944,0.5674,-0.8838,12.817,23.621,3.662,145.085,18.880,-106.375
2470,-0.3472,0.5215,-0.8354,-2.808,2.319,-4.150,145.074,18.880,-106.326
2480,-0.3774,0.4751,-0.7720,-17.639,-15.442,-9.705,144.926,19.100,-106.337
2490,-0.3926,0.4502,-0.6992,-25.208,-25.696,-11.536,144.684,19.435,-106.392
2500,-0.3730,0.4736,-0.6968,-23.254,-25.513,-8.728,144.437,19.737,-106.474
2510,-0.3320,0.5249,-0.7578,-12.146,-14.465,-2.258,144.300,19.869,-106.540
2520,-0.2705,0.6089,-0.8662,2.930,2.686,5.554,144.327,19.759,-106.573
2530,-0.2310,0.6558,-0.9395,15.808,18.433,12.085,144.492,19.457,-106.562
2540,-0.2187,0.6475,-0.9517,20.386,23.804,13.550,144.717,19.100,-106.534
2550,-0.2446,0.5947,-0.9106,16.113,16.479,9.583,144.904,18.847,-106.518
2561,-0.3091,0.5269,-0.8379,4.578,0.183,2.563,144.976,18.814,-106.534
2570,-0.3677,0.4600,-0.7402,-11.841,-17.761,-4.578,144.866,19.028,-106.606
2581,-0.4092,0.4180,-0.6411,-25.696,-31.372,-8.850,144.597,19.424,-106.721
2590,-0.4229,0.4810,-0.6128,-31.616,-36.255,-7.507,144.201,19.847,-106.875
2601,-0.3975,0.5864,-0.6763,-23.926,-27.283,-0.244,143.860,20.110,-107.045
2611,-0.3643,0.6230,-0.7168,-4.822,-7.141,8.728,143.723,20.127,-107.166
2621,-0.3350,0.6206,-0.7427,13.855,12.390,14.526,143.806,19.929,-107.210
2630,-0.2959,0.6221,-0.7871,21.912,21.118,15.137,144.003,19.638,-107.210
2640,-0.3228,0.5850,-0.7822,17.761,17.822,11.719,144.174,19.413,-107.199
2650,-0.3511,0.5752,-0.7690,3.906,7.874,5.615,144.201,19.325,-107.199
2660,-0.3711,0.5664,-0.7319,-11.841,-1.709,-0.916,144.064,19.369,-107.199
2670,-0.4048,0.5254,-0.6562,-22.949,-8.179,-5.432,143.811,19.528,-107.205
2681,-0.3628,0.6201,-0.7349,-25.696,-9.094,-6.653,143.514,19.655,-107.205
2690,-0.2910,0.7349,-0.8574,-18.372,-0.122,-2.441,143.300,19.616,-107.183
2700,-0.2207,0.8311,-0.9941,-2.075,13.916,2.502,143.267,19.391,-107.117
2711,-0.1758,0.8848,-1.0757,15.015,26.306,5.310,143.432,19.028,-106.996
2720,-0.2065,0.7964,-0.9907,24.902,26.367,3.052,143.701,18.704,-106.853
2730,-0.3086,0.5781,-0.8184,24.292,10.376,-5.920,143.987,18.638,-106.738
2740,-0.4102,0.3945,-0.6577,8.667,-15.015,-17.761,144.141,18.957,-106.683
2751,-0.4814,0.2808,-0.5332,-12.634,-37.231,-26.611,144.097,19.605,-106.683
2761,-0.5103,0.2314,-0.4443,-28.564,-48.218,-28.320,143.877,20.418,-106.743
2770,-0.5010,0.2729,-0.4468,-33.264,-41.748,-21.301,143.569,21.110,-106.820
2780,-0.4131,0.4194,-0.5825,-23.987,-17.456,-6.775,143.322,21.374,-106.875
2790,-0.3120,0.5327,-0.7471,-3.235,17.273,10.132,143.311,21.154,-106.848
2800,-0.2222,0.6455,-0.9082,17.334,47.668,22.522,143.531,20.544,-106.738
2810,-0.1650,0.7012,-1.0215,28.992,58.899,26.123,143.893,19.792,-106.589
2820,-0.1548,0.7065,-1.0791,28.931,49.377,22.156,144.245,19.138,-106.469
2830,-0.1768,0.7026,-1.0786,17.273,25.635,12.939,144.459,18.743,-106.419
2840,-0.2246,0.6909,-1.0288,0.183,-2.747,1.831,144.470,18.671,-106.452
2850,-0.2891,0.6479,-0.9116,-14.343,-25.146,-7.141,144.300,18.875,-106.545
2861,-0.3501,0.5562,-0.7637,-20.264,-38.696,-13.062,144.053,19.276,-106.672
2870,-0.3726,0.5171,-0.6558,-19.836,-43.884,-14.404,143.784,19.759,-106.826
2880,-0.3965,0.4897,-0.5874,-11.902,-39.551,-10.864,143.580,20.215,-106.979
2891,-0.4141,0.4707,-0.5708,0.183,-27.710,-3.723,143.503,20.544,-107.122
2901,-0.4004,0.4644,-0.5957,11.414,-10.925,4.333,143.564,20.682,-107.227
2910,-0.3857,0.4873,-0.6392,16.846,3.479,10.986,143.696,20.638,-107.298
2920,-0.3564,0.5488,-0.7178,15.625,13.916,14.954,143.822,20.446,-107.342
2931,-0.3394,0.5952,-0.7891,13.977,18.311,15.381,143.948,20.198,-107.358
2941,-0.3198,0.6294,-0.8350,9.094,18.494,12.756,144.031,19.940,-107.353
2951,-0.3145,0.6440,-0.8711,3.113,15.747,8.545,144.064,19.731,-107.325
2960,-0.3037,0.6660,-0.8838,-2.930,10.864,3.845,144.036,19.578,-107.292
2971,-0.3003,0.6479,-0.8691,-5.920,5.005,-0.305,143.981,19.495,-107.260
2980,-0.3057,0.6338,-0.8340,-8.667,-2.930,-3.357,143.888,19.506,-107.249
2991,-0.3228,0.6050,-0.7964,-8.179,-8.789,-4.944,143.789,19.589,-107.260
3000,-0.3315,0.5601,-0.7705,-4.578,-11.475,-4.944,143.740,19.709,-107.292
3010,-0.3389,0.5278,-0.7476,-2.197,-11.841,-3.845,143.712,19.830,-107.331
3020,-0.3486,0.5078,-0.7344,-0.427,-10.742,-2.441,143.707,19.946,-107.380
3030,-0.3472,0.5083,-0.7314,-0.122,-8.606,-0.793,143.707,20.034,-107.424
3040,-0.3359,0.5220,-0.7598,-0.793,-4.822,0.854,143.707,20.067,-107.463
3051,-0.3154,0.5518,-0.8008,-2.380,0.061,1.831,143.690,20.034,-107.479
3061,-0.3154,0.5933,-0.8271,-3.906,3.906,2.075,143.663,19.962,-107.474
3071,-0.3169,0.6240,-0.8286,-4.883,4.761,1.953,143.613,19.885,-107.457
3081,-0.3350,0.6323,-0.8198,-4.028,0.610,1.282,143.558,19.852,-107.468
3091,-0.4043,0.6021,-0.7637,-2.075,-4.578,-0.427,143.509,19.918,-107.490
3100,-0.3550,0.5986,-0.7056,-2.991,-10.071,-0.977,143.427,20.012,-107.545
3110,-0.3779,0.5776,-0.7114,-0.061,-12.207,-1.099,143.377,20.143,-107.617
3121,-0.3560,0.5913,-0.7339,1.892,-7.263,-1.587,143.361,20.215,-107.650
3131,-0.3589,0.5679,-0.7124,2.563,0.977,-1.892,143.377,20.231,-107.628
3140,-0.3760,0.5405,-0.6675,0.366,6.714,-2.991,143.377,20.231,-107.556
3150,-0.3857,0.5376,-0.6411,-4.822,7.324,-3.601,143.322,20.237,-107.479
3160,-0.3921,0.5259,-0.6133,-7.568,5.859,-2.869,143.229,20.264,-107.419
3171,-0.3760,0.5400,-0.6411,-5.920,6.470,-0.793,143.152,20.259,-107.369
3180,-0.3584,0.5737,-0.7319,0.977,10.986,2.686,143.168,20.160,-107.320
3190,-0.2764,0.6733,-0.8994,10.010,18.982,7.019,143.289,19.907,-107.260
3200,-0.1768,0.7808,-1.0786,16.602,28.259,10.010,143.492,19.501,-107.166
3211,-0.1514,0.8262,-1.1465,18.555,33.447,8.179,143.729,19.050,-107.023
3220,-0.1895,0.7632,-1.0806,16.296,28.442,1.099,143.954,18.710,-106.859
3230,-0.2593,0.6216,-0.9292,7.202,9.094,-9.827,144.097,18.638,-106.716
3240,-0.3418,0.5098,-0.7803,-8.789,-17.944,-21.301,144.058,18.918,-106.644
3251,-0.4102,0.4077,-0.6445,-23.132,-41.260,-28.442,143.860,19.506,-106.655
3261,-0.4399,0.3765,-0.5537,-30.457,-52.734,-28.564,143.547,20.237,-106.743
3271,-0.4668,0.3711,-0.5059,-24.597,-48.828,-21.912,143.267,20.918,-106.864
3281,-0.4600,0.3672,-0.5156,-8.362,-30.884,-9.705,143.157,21.368,-106.979
3291,-0.4077,0.3696,-0.5640,10.132,-5.066,4.089,143.267,21.484,-107.045
3300,-0.3579,0.3979,-0.6401,23.437,17.456,14.832,143.542,21.297,-107.062
3311,-0.3125,0.4863,-0.7617,26.245,30.579,21.057,143.849,20.907,-107.051
3321,-0.2803,0.5718,-0.8726,21.729,34.302,22.461,144.097,20.446,-107.029
3330,-0.2490,0.6543,-0.9580,12.634,30.640,19.836,144.245,20.001,-107.007
3340,-0.2559,0.7002,-0.9971,2.441,21.301,13.611,144.283,19.666,-106.990
3350,-0.2627,0.7383,-0.9995,-7.568,8.789,5.676,144.201,19.490,-106.985
3360,-0.2856,0.7456,-0.9492,-13.855,-4.395,-0.977,144.036,19.468,-107.007
3370,-0.2969,0.7002,-0.8608,-14.099,-16.174,-5.615,143.844,19.583,-107.056
3380,-0.3252,0.6279,-0.7744,-9.583,-24.902,-8.301,143.696,19.814,-107.144
3391,-0.3496,0.5674,-0.7021,-3.906,-28.259,-8.484,143.597,20.105,-107.249
3400,-0.3652,0.5298,-0.6602,0.305,-25.269,-6.714,143.542,20.380,-107.347
3411,-0.3726,0.5015,-0.6392,2.808,-16.724,-4.150,143.525,20.577,-107.419
3421,-0.3979,0.4624,-0.6128,3.540,-6.409,-1.465,143.547,20.704,-107.446
3431,-0.4082,0.4600,-0.6182,1.160,1.953,0.916,143.558,20.759,-107.441
3441,-0.4155,0.4819,-0.6333,-2.136,7.629,3.357,143.536,20.748,-107.424
3451,-0.4136,0.4888,-0.6646,-2.808,11.597,5.798,143.514,20.676,-107.402
3461,-0.3696,0.5547,-0.7529,-2.075,15.076,7.629,143.509,20.522,-107.369
3470,-0.3018,0.6309,-0.8560,0.366,18.494,9.583,143.525,20.270,-107.336
3480,-0.2598,0.6958,-0.9302,3.601,20.264,11.230,143.569,19.968,-107.303
3490,-0.2334,0.7217,-0.9688,6.653,18.433,10.803,143.641,19.666,-107.276
3500,-0.2378,0.6963,-0.9463,7.751,12.634,7.446,143.723,19.440,-107.265
3510,-0.2720,0.6440,-0.8960,6.042,3.723,1.892,143.789,19.341,-107.254
3521,-0.3159,0.5815,-0.8286,1.526,-6.226,-3.418,143.811,19.391,-107.265
3530,-0.3530,0.5244,-0.7559,-3.540,-12.878,-6.958,143.784,19.550,-107.287
3540,-0.3784,0.4785,-0.6929,-7.507,-14.465,-8.118,143.718,19.764,-107.309
3550,-0.3892,0.4629,-0.6587,-8.972,-11.719,-6.775,143.635,19.957,-107.325
3561,-0.3745,0.4893,-0.6675,-7.202,-5.737,-3.113,143.564,20.061,-107.331
3570,-0.3555,0.5044,-0.6997,-1.282,1.831,1.953,143.553,20.061,-107.336
3580,-0.3433,0.5068,-0.7368,5.127,8.362,6.592,143.624,19.968,-107.342
3591,-0.3257,0.5298,-0.7915,7.568,11.658,9.399,143.723,19.808,-107.347
3601,-0.3164,0.5532,-0.8350,5.310,11.414,10.681,143.795,19.627,-107.369
3611,-0.3032,0.5869,-0.8560,1.221,9.521,10.132,143.817,19.462,-107.397
3621,-0.2905,0.6211,-0.8657,-2.441,6.836,8.118,143.789,19.319,-107.419
3630,-0.2871,0.6494,-0.8652,-4.333,3.723,5.432,143.734,19.210,-107.446
3640,-0.2793,0.6650,-0.8550,-4.333,0.244,2.991,143.663,19.144,-107.468
3650,-0.2798,0.6567,-0.8286,-2.991,-3.357,1.038,143.602,19.122,-107.501
3661,-0.2886,0.6357,-0.8042,-1.404,-6.531,-0.366,143.558,19.144,-107.534
3671,-0.3066,0.6245,-0.7856,-0.793,-8.545,-1.282,143.520,19.193,-107.578
3681,-0.3281,0.6201,-0.7666,-0.793,-9.460,-1.526,143.470,19.270,-107.628
3691,-0.3418,0.6162,-0.7529,-0.488,-9.216,-1.221,143.421,19.352,-107.672
3701,-0.3472,0.6079,-0.7476,0.549,-8.545,-1.099,143.388,19.435,-107.721
3711,-0.3477,0.5981,-0.7476,1.221,-7.690,-1.526,143.366,19.506,-107.754
3721,-0.3442,0.5952,-0.7476,1.221,-6.592,-1.953,143.350,19.572,-107.781
3731,-0.3437,0.5894,-0.7412,1.038,-5.249,-2.197,143.339,19.633,-107.792
3741,-0.3447,0.5850,-0.7397,0.916,-3.845,-2.686,143.328,19.682,-107.792
3751,-0.3462,0.5786,-0.7402,0.732,-2.380,-3.235,143.328,19.726,-107.781
3761,-0.3442,0.5737,-0.7412,0.427,-0.977,-3.357,143.328,19.759,-107.759
3771,-0.3442,0.5664,-0.7451,-0.122,0.427,-3.235,143.333,19.781,-107.732
3781,-0.3496,0.5581,-0.7476,-1.343,1.465,-3.479,143.333,19.797,-107.693
3791,-0.3506,0.5537,-0.7461,-2.869,1.892,-3.784,143.317,19.814,-107.644
3801,-0.3447,0.5498,-0.7466,-3.479,1.648,-3.662,143.300,19.825,-107.606
3811,-0.3428,0.5425,-0.7466,-3.113,1.221,-3.052,143.289,19.841,-107.573
3821,-0.3433,0.5249,-0.7471,-2.197,1.404,-2.380,143.295,19.852,-107.540
3831,-0.3345,0.5146,-0.7568,-1.709,2.075,-1.526,143.311,19.847,-107.518
3841,-0.3281,0.5156,-0.7681,-1.587,2.686,-0.488,143.328,19.825,-107.496
3851,-0.3242,0.5161,-0.7754,-1.404,2.869,1.221,143.350,19.786,-107.485
3861,-0.3228,0.5146,-0.7837,-0.916,2.441,3.052,143.372,19.742,-107.496
3871,-0.3174,0.5210,-0.8008,-0.610,2.197,4.700,143.388,19.682,-107.523
3881,-0.3218,0.5322,-0.8096,-0.671,2.563,5.981,143.405,19.616,-107.556
3891,-0.3325,0.5518,-0.8042,-1.038,2.991,6.836,143.405,19.545,-107.600
3901,-0.3389,0.5659,-0.7954,-0.916,2.502,7.446,143.388,19.473,-107.644
3911,-0.3325,0.5757,-0.7739,-0.427,1.099,7.507,143.366,19.418,-107.704
3921,-0.3276,0.5767,-0.7612,0.427,-0.854,7.202,143.344,19.380,-107.770
3931,-0.3301,0.5747,-0.7524,1.587,-1.709,7.080,143.328,19.347,-107.842
3941,-0.3145,0.5942,-0.7666,2.747,-0.732,7.507,143.322,19.297,-107.908
3951,-0.3184,0.6216,-0.7920,4.883,2.319,8.423,143.339,19.210,-107.963
3961,-0.3335,0.6782,-0.8022,7.690,6.165,8.789,143.366,19.094,-108.001
3971,-0.3330,0.7373,-0.8047,12.634,8.118,9.521,143.421,18.951,-108.029
3981,-0.3413,0.7207,-0.7798,20.508,7.507,9.766,143.553,18.820,-108.067
3991,-0.3428,0.6577,-0.7388,26.245,4.761,6.714,143.751,18.748,-108.094
4001,-0.3345,0.6001,-0.7251,24.353,0.366,1.160,143.959,18.748,-108.100
4011,-0.3135,0.5889,-0.7480,14.893,-2.136,-3.845,144.091,18.781,-108.083
4021,-0.2866,0.6235,-0.8120,3.235,0.366,-6.714,144.124,18.787,-108.023
4030,-0.2202,0.7646,-0.9678,-4.028,8.606,-7.629,144.097,18.671,-107.902
4040,-0.1743,0.8774,-1.1045,-1.343,20.752,-6.714,144.119,18.430,-107.715
4050,-0.2021,0.8623,-1.0586,7.690,30.518,-5.981,144.234,18.122,-107.479
4060,-0.2622,0.7036,-0.8936,17.883,26.062,-9.766,144.465,17.913,-107.232
4071,-0.3315,0.4800,-0.7354,18.738,4.089,-18.677,144.728,18.018,-107.051
4080,-0.4116,0.3086,-0.5874,7.874,-25.818,-28.748,144.910,18.528,-106.957
4091,-0.4692,0.1772,-0.4741,-8.057,-51.392,-34.851,144.970,19.385,-106.968
4101,-0.4912,0.1245,-0.4321,-23.682,-62.378,-34.485,144.899,20.369,-107.051
4111,-0.5044,0.1553,-0.4229,-33.508,-52.673,-26.367,144.684,21.226,-107.144
4121,-0.4712,0.2993,-0.4961,-31.006,-23.743,-10.803,144.404,21.660,-107.194
4131,-0.3828,0.4678,-0.6377,-13.123,16.235,9.094,144.272,21.517,-107.172
4141,-0.3252,0.5645,-0.7690,14.648,53.223,26.733,144.448,20.907,-107.073
4150,-0.2651,0.6465,-0.8872,37.231,75.012,35.217,144.871,20.028,-106.913
4160,-0.2085,0.6714,-1.0063,50.293,74.463,34.119,145.437,19.127,-106.754
4170,-0.1689,0.6880,-1.1094,47.913,55.359,25.818,145.975,18.413,-106.644
4180,-0.1704,0.6978,-1.1489,32.166,26.794,13.977,146.332,18.007,-106.611
4190,-0.1851,0.7139,-1.1206,8.118,-2.319,1.709,146.415,17.913,-106.639
4200,-0.2178,0.6968,-1.0542,-13.184,-24.780,-9.644,146.266,18.089,-106.699
4211,-0.2524,0.6870,-0.9683,-29.114,-38.330,-18.433,145.942,18.446,-106.760
4220,-0.2881,0.6523,-0.8711,-34.668,-43.335,-23.743,145.558,18.896,-106.809
4231,-0.3281,0.6396,-0.7603,-30.945,-42.786,-24.292,145.179,19.374,-106.853
4240,-0.3857,0.5625,-0.6377,-17.151,-38.635,-19.531,144.921,19.852,-106.919
4251,-0.4194,0.4453,-0.5527,0.977,-34.119,-12.634,144.860,20.308,-107.018
4261,-0.4336,0.3608,-0.5200,13.428,-29.480,-6.104,144.954,20.720,-107.144
4271,-0.4414,0.3208,-0.5303,19.470,-22.217,-0.183,145.140,21.050,-107.276
4281,-0.4434,0.3032,-0.5659,21.362,-10.437,5.615,145.377,21.237,-107.391
4291,-0.4272,0.3223,-0.6118,18.250,3.784,11.414,145.596,21.248,-107.468
4301,-0.3994,0.3643,-0.6675,12.024,17.578,15.747,145.761,21.083,-107.501
4311,-0.3389,0.4565,-0.7651,4.944,29.358,17.456,145.854,20.742,-107.479
4321,-0.2852,0.5630,-0.8726,-1.282,37.231,16.846,145.882,20.286,-107.408
4330,-0.2461,0.6670,-0.9688,-6.592,40.039,15.076,145.849,19.792,-107.298
4340,-0.2085,0.7432,-1.0503,-10.193,38.086,12.329,145.778,19.303,-107.183
4350,-0.1958,0.7695,-1.0713,-12.573,30.518,8.057,145.673,18.902,-107.067
4360,-0.2017,0.7554,-1.0459,-14.038,17.517,1.648,145.547,18.649,-106.979
4370,-0.2241,0.7197,-1.0054,-15.991,0.610,-5.920,145.393,18.594,-106.924
4380,-0.2534,0.6816,-0.9414,-19.409,-16.418,-12.756,145.195,18.737,-106.913
4391,-0.2935,0.6128,-0.8481,-21.301,-29.419,-17.822,144.965,19.045,-106.935
4401,-0.3320,0.5518,-0.7539,-23.071,-36.316,-20.996,144.712,19.462,-106.974
4411,-0.3750,0.5020,-0.6616,-24.353,-36.926,-22.095,144.443,19.940,-107.007
4421,-0.4175,0.4907,-0.5815,-22.766,-32.654,-20.081,144.157,20.407,-107.034
4431,-0.4482,0.4590,-0.5259,-16.174,-24.841,-14.648,143.937,20.814,-107.067
4440,-0.4585,0.4268,-0.5063,-6.470,-14.526,-7.629,143.822,21.110,-107.089
4451,-0.4546,0.4082,-0.5190,3.052,-2.625,0.122,143.828,21.264,-107.106
4461,-0.4375,0.3984,-0.5522,11.292,9.033,8.301,143.937,21.259,-107.122
4471,-0.4121,0.3916,-0.5991,17.029,18.677,15.808,144.130,21.105,-107.144
4481,-0.3706,0.4282,-0.6709,18.372,25.391,21.545,144.333,20.814,-107.172
4491,-0.3311,0.4844,-0.7534,18.005,29.602,25.024,144.531,20.429,-107.205
4501,-0.2817,0.5664,-0.8540,15.747,32.410,26.611,144.695,19.962,-107.232
4510,-0.2314,0.6616,-0.9580,12.817,34.302,26.123,144.822,19.451,-107.249
4520,-0.2031,0.7314,-1.0381,10.864,34.119,23.071,144.932,18.940,-107.243
4530,-0.1689,0.7998,-1.1138,8.667,30.701,17.456,145.025,18.468,-107.205
4540,-0.1338,0.8320,-1.1553,5.066,23.254,9.460,145.085,18.100,-107.144
4550,-0.1484,0.8237,-1.1338,-0.427,10.010,-0.732,145.091,17.902,-107.078
4560,-0.1821,0.7964,-1.0654,-7.629,-6.592,-10.986,145.014,17.913,-107.023
4570,-0.2388,0.7178,-0.9370,-13.794,-24.475,-19.958,144.860,18.160,-107.001
4581,-0.3003,0.6216,-0.8066,-18.372,-39.001,-27.100,144.651,18.616,-107.001
4591,-0.3521,0.5366,-0.6982,-21.790,-47.852,-30.884,144.404,19.210,-107.029
4601,-0.4033,0.4780,-0.5947,-22.034,-50.171,-30.701,144.141,19.874,-107.073
4611,-0.4595,0.4272,-0.5181,-15.259,-45.349,-25.635,143.932,20.533,-107.133
4621,-0.4795,0.3828,-0.4795,-3.845,-35.217,-16.418,143.839,21.088,-107.216
4631,-0.4771,0.3271,-0.4517,9.094,-21.973,-5.981,143.899,21.489,-107.303
4641,-0.4717,0.2612,-0.4351,19.592,-7.874,3.235,144.119,21.753,-107.380
4651,-0.4580,0.2397,-0.4580,23.621,5.188,10.681,144.415,21.846,-107.441
4661,-0.4355,0.2715,-0.5293,22.522,16.602,17.456,144.701,21.753,-107.490
4671,-0.3701,0.3911,-0.6699,18.616,27.954,24.048,144.921,21.429,-107.529
4681,-0.2969,0.5469,-0.8418,14.343,39.246,28.992,145.080,20.896,-107.540
4691,-0.2358,0.7002,-0.9922,11.902,47.546,29.907,145.206,20.242,-107.512
4700,-0.1875,0.7886,-1.1069,11.597,49.561,25.513,145.338,19.572,-107.435
4711,-0.1523,0.8408,-1.1611,9.399,43.091,16.968,145.459,18.990,-107.320
4720,-0.1660,0.8159,-1.1294,5.249,26.245,5.737,145.530,18.622,-107.216
4731,-0.2241,0.7344,-1.0073,-2.441,1.831,-4.944,145.508,18.550,-107.161
4741,-0.2891,0.6021,-0.8403,-11.963,-24.841,-13.672,145.371,18.798,-107.188
4751,-0.3350,0.5083,-0.7183,-22.461,-46.570,-19.348,145.107,19.308,-107.298
4761,-0.3809,0.4878,-0.6426,-28.259,-55.664,-20.203,144.750,19.935,-107.463
4771,-0.4189,0.4746,-0.5811,-23.926,-47.913,-15.930,144.421,20.506,-107.617
4781,-0.4219,0.4868,-0.5654,-13.000,-27.161,-7.812,144.207,20.858,-107.721
4791,-0.3843,0.4917,-0.5898,1.282,-2.930,1.343,144.168,20.934,-107.748
4801,-0.3672,0.4980,-0.6309,14.038,15.503,8.423,144.289,20.797,-107.726
4811,-0.3560,0.5166,-0.7085,20.752,23.437,12.024,144.503,20.550,-107.682
4821,-0.3501,0.5298,-0.7666,18.433,23.926,12.634,144.712,20.286,-107.644
4831,-0.3594,0.5195,-0.7988,9.827,19.958,10.742,144.838,20.067,-107.617
4841,-0.3496,0.5469,-0.8301,-0.916,14.771,6.836,144.860,19.902,-107.584
4851,-0.3145,0.5825,-0.8496,-10.071,11.292,2.991,144.783,19.764,-107.540
4861,-0.2358,0.6572,-0.8965,-15.442,10.498,0.061,144.641,19.600,-107.479
4870,-0.1987,0.7236,-0.9419,-14.526,11.353,-0.488,144.498,19.407,-107.402
4881,-0.2100,0.7339,-0.9536,-6.775,11.292,-0.183,144.432,19.226,-107.331
4891,-0.2515,0.6504,-0.8906,1.831,7.446,-1.282,144.465,19.111,-107.276
4901,-0.2993,0.5674,-0.8164,4.150,0.427,-4.272,144.525,19.105,-107.238
4911,-0.3237,0.5146,-0.7627,0.610,-6.531,-6.165,144.553,19.199,-107.221
4921,-0.3569,0.4590,-0.6914,-3.418,-11.414,-6.470,144.531,19.369,-107.238
4931,-0.3750,0.4199,-0.6543,-6.348,-14.038,-6.409,144.487,19.583,-107.271
4941,-0.3682,0.4551,-0.6714,-7.996,-10.376,-4.883,144.415,19.742,-107.292
4951,-0.3564,0.5054,-0.7104,-6.409,-1.343,-1.038,144.349,19.781,-107.287
4961,-0.3013,0.5967,-0.8027,-2.808,10.559,3.906,144.322,19.644,-107.260
4971,-0.2559,0.6851,-0.9023,2.319,21.667,8.179,144.355,19.352,-107.194
4981,-0.2368,0.7300,-0.9604,7.812,27.466,10.193,144.443,18.990,-107.111
4991,-0.2417,0.7021,-0.9390,11.047,22.827,8.362,144.558,18.688,-107.045
5001,-0.2798,0.5825,-0.8521,9.338,7.751,2.686,144.673,18.572,-107.018
5011,-0.3203,0.4956,-0.7949,-0.366,-9.827,-4.761,144.695,18.682,-107.040
5021,-0.3511,0.4746,-0.7627,-12.634,-20.996,-10.498,144.591,18.940,-107.078
5031,-0.3672,0.4771,-0.7334,-19.897,-21.729,-12.268,144.410,19.226,-107.106
5041,-0.3516,0.5156,-0.7051,-20.325,-15.564,-10.315,144.201,19.435,-107.111
5051,-0.3125,0.5889,-0.7231,-12.634,-6.165,-4.333,144.042,19.501,-107.111
5061,-0.2959,0.5991,-0.7559,0.488,3.052,2.808,144.020,19.435,-107.117
5071,-0.2729,0.6187,-0.8472,10.254,9.705,6.287,144.124,19.270,-107.111
5081,-0.2490,0.6597,-0.9341,10.742,12.512,5.798,144.245,19.067,-107.084
5091,-0.2544,0.6768,-0.9482,4.578,10.498,3.235,144.305,18.896,-107.045
5101,-0.2690,0.6885,-0.9282,-2.930,3.235,-1.221,144.278,18.820,-107.012
5111,-0.2905,0.6621,-0.8696,-7.812,-6.531,-5.554,144.185,18.869,-107.007
5121,-0.3286,0.5723,-0.7500,-8.728,-15.686,-9.094,144.080,19.050,-107.029
5131,-0.3696,0.4888,-0.6348,-7.935,-22.095,-11.475,143.970,19.352,-107.067
5141,-0.4072,0.4473,-0.5664,-6.958,-22.827,-11.047,143.860,19.698,-107.111
5151,-0.4287,0.4253,-0.5322,-4.333,-16.663,-7.202,143.784,19.995,-107.155
5161,-0.4209,0.4263,-0.5562,0.244,-5.188,-1.892,143.767,20.160,-107.172
5171,-0.3833,0.4683,-0.6357,4.822,8.301,4.089,143.817,20.127,-107.155
5181,-0.3218,0.5557,-0.7803,8.545,20.142,8.911,143.926,19.896,-107.106
5191,-0.2549,0.6802,-0.9443,9.155,27.832,11.353,144.047,19.534,-107.029
5201,-0.2192,0.7607,-1.0293,8.057,29.480,10.986,144.152,19.138,-106.941
5211,-0.2095,0.7671,-1.0190,6.592,22.827,7.263,144.229,18.814,-106.859
5221,-0.2324,0.7451,-0.9678,3.296,8.484,0.488,144.261,18.660,-106.809
5231,-0.2666,0.7144,-0.9180,-0.977,-7.080,-7.446,144.234,18.704,-106.793
5241,-0.3105,0.6147,-0.8174,-2.625,-17.517,-13.611,144.201,18.907,-106.782
5251,-0.3496,0.5054,-0.7183,-2.441,-22.522,-16.968,144.185,19.215,-106.776
5261,-0.3691,0.4497,-0.6655,-1.770,-22.461,-16.235,144.185,19.539,-106.776
5271,-0.3701,0.4097,-0.6431,0.977,-16.785,-12.207,144.229,19.808,-106.776
5281,-0.3647,0.3960,-0.6440,4.944,-8.179,-6.104,144.316,19.973,-106.771
5291,-0.3403,0.4189,-0.6938,8.179,-0.061,0.610,144.443,19.995,-106.782
5301,-0.3257,0.4507,-0.7476,10.620,5.798,6.226,144.586,19.918,-106.798
5311,-0.3203,0.4834,-0.7832,10.071,9.033,9.827,144.712,19.781,-106.826
5321,-0.3188,0.5156,-0.7944,7.263,10.315,11.230,144.800,19.622,-106.859
5331,-0.3184,0.5356,-0.8159,3.418,10.315,10.986,144.838,19.462,-106.891
5341,-0.3228,0.5444,-0.8232,-0.305,9.460,9.583,144.844,19.314,-106.919
5351,-0.3145,0.5605,-0.8408,-2.869,8.362,7.935,144.827,19.182,-106.935
5361,-0.2871,0.5913,-0.8765,-3.845,7.141,6.958,144.794,19.045,-106.952
5371,-0.2588,0.6362,-0.9136,-3.052,4.395,6.287,144.756,18.913,-106.979
5381,-0.2393,0.6719,-0.9243,-0.671,-0.366,5.920,144.728,18.814,-107.034
5391,-0.2300,0.7085,-0.9199,2.441,-6.348,5.676,144.701,18.754,-107.122
5401,-0.2520,0.7158,-0.8911,6.104,-11.169,4.944,144.690,18.754,-107.232
5411,-0.3008,0.6670,-0.8057,8.301,-15.015,2.563,144.695,18.836,-107.347
5421,-0.3516,0.6025,-0.7187,6.165,-18.982,-1.465,144.673,19.012,-107.446
5431,-0.3867,0.5415,-0.6519,1.038,-21.423,-5.676,144.613,19.276,-107.529
5441,-0.4180,0.4692,-0.6006,-4.272,-20.569,-8.545,144.531,19.583,-107.584
5451,-0.4243,0.4351,-0.5786,-10.376,-15.930,-9.460,144.404,19.874,-107.600
5461,-0.4146,0.4492,-0.5776,-14.648,-8.545,-7.812,144.245,20.083,-107.584
5471,-0.3853,0.5234,-0.6260,-13.184,0.793,-3.052,144.080,20.149,-107.556
5481,-0.3521,0.5776,-0.7021,-3.906,10.315,3.418,144.020,20.056,-107.518
5491,-0.3228,0.6294,-0.7852,7.751,17.273,8.606,144.080,19.841,-107.485
5501,-0.2764,0.6694,-0.8853,16.541,20.996,10.742,144.245,19.556,-107.446
5511,-0.2603,0.6602,-0.9360,19.653,19.775,9.460,144.459,19.276,-107.408
5521,-0.2676,0.6084,-0.9272,16.052,13.062,4.822,144.651,19.083,-107.364
5531,-0.2788,0.5640,-0.9023,6.836,3.113,-1.587,144.767,19.023,-107.331
5541,-0.2930,0.5479,-0.8691,-4.944,-5.066,-7.324,144.756,19.078,-107.303
5551,-0.3037,0.5430,-0.8335,-12.878,-8.179,-10.437,144.662,19.182,-107.260
5561,-0.3013,0.5840,-0.8022,-14.893,-7.141,-10.010,144.525,19.270,-107.216
5571,-0.3125,0.5923,-0.7812,-8.179,-4.211,-6.348,144.432,19.325,-107.188
5581,-0.3237,0.5703,-0.7651,2.869,-1.709,-2.502,144.454,19.347,-107.177
5591,-0.3320,0.5107,-0.7373,11.963,-0.977,-0.122,144.580,19.369,-107.183
5601,-0.3452,0.4351,-0.7124,12.878,-2.563,0.549,144.739,19.418,-107.205
5611,-0.3618,0.4180,-0.7104,5.066,-3.906,0.366,144.833,19.490,-107.232
5621,-0.3604,0.4414,-0.7158,-4.089,-2.319,0.793,144.816,19.539,-107.254
5631,-0.3374,0.4961,-0.7505,-9.094,2.136,2.258,144.745,19.517,-107.260
5641,-0.2983,0.5796,-0.8154,-8.545,7.874,3.906,144.662,19.402,-107.243
5651,-0.2773,0.6245,-0.8691,-3.479,12.451,5.371,144.635,19.226,-107.216
5661,-0.2705,0.6396,-0.9014,0.183,13.550,5.432,144.646,19.028,-107.177
5671,-0.2803,0.6338,-0.9116,0.183,10.681,3.479,144.668,18.875,-107.144
5681,-0.2925,0.6104,-0.8945,-2.808,5.310,0.427,144.657,18.792,-107.111
5691,-0.2969,0.5933,-0.8696,-7.202,-1.831,-2.380,144.597,18.792,-107.106
5701,-0.3022,0.5815,-0.8467,-10.254,-8.484,-3.784,144.503,18.858,-107.122
5711,-0.3047,0.5659,-0.8203,-10.010,-12.756,-3.845,144.393,18.962,-107.172
5721,-0.3110,0.5425,-0.7939,-7.568,-14.343,-3.235,144.316,19.083,-107.232
5731,-0.3130,0.5283,-0.7632,-5.981,-14.771,-2.197,144.240,19.215,-107.303
5741,-0.3188,0.5166,-0.7378,-5.493,-14.221,-0.732,144.168,19.336,-107.386
5751,-0.3335,0.5303,-0.7290,-5.310,-11.658,1.099,144.086,19.429,-107.463
5761,-0.3477,0.5547,-0.7295,-3.052,-7.141,3.601,144.020,19.479,-107.540
5771,-0.3555,0.5586,-0.7373,1.465,-2.625,6.104,143.998,19.484,-107.611
5781,-0.3584,0.5679,-0.7480,5.188,0.427,7.629,144.014,19.446,-107.672
5791,-0.3481,0.5791,-0.7495,6.287,1.404,8.240,144.042,19.396,-107.732
5801,-0.3413,0.5913,-0.7480,5.676,0.916,7.751,144.053,19.347,-107.792
5811,-0.3384,0.6104,-0.7466,4.395,-0.305,6.470,144.047,19.314,-107.853
5821,-0.3350,0.6167,-0.7388,4.028,-0.732,4.822,144.031,19.286,-107.897
5831,-0.3345,0.6162,-0.7349,4.028,0.061,3.113,144.020,19.270,-107.924
5841,-0.3330,0.6172,-0.7466,3.357,1.953,1.282,144.020,19.243,-107.924
5851,-0.3354,0.6167,-0.7559,1.648,4.150,-0.610,144.014,19.210,-107.891
5861,-0.3423,0.6187,-0.7593,-0.671,5.737,-2.380,143.992,19.177,-107.836
5871,-0.3403,0.6172,-0.7603,-2.686,6.287,-3.906,143.959,19.149,-107.765
5881,-0.3394,0.5967,-0.7471,-3.906,5.981,-5.554,143.921,19.138,-107.677
5891,-0.3442,0.5742,-0.7339,-4.883,4.883,-7.263,143.888,19.155,-107.589
5901,-0.3359,0.5479,-0.7456,-4.761,4.150,-7.751,143.866,19.177,-107.496
5912,-0.3188,0.5396,-0.7803,-3.174,4.395,-6.653,143.877,19.171,-107.408
5921,-0.3003,0.5410,-0.8208,-0.793,5.066,-4.395,143.921,19.138,-107.342
5931,-0.2861,0.5327,-0.8438,2.014,5.188,-1.831,143.992,19.072,-107.292
5941,-0.2827,0.5288,-0.8569,3.235,4.578,-0.122,144.075,19.006,-107.265
5951,-0.2910,0.5415,-0.8511,2.441,3.113,0.549,144.141,18.946,-107.249
5961,-0.3101,0.5444,-0.8198,1.831,1.038,1.038,144.179,18.918,-107.249
5971,-0.3320,0.5176,-0.7764,1.892,-0.977,1.038,144.218,18.924,-107.265
5981,-0.3442,0.5132,-0.7451,0.977,-2.014,0.793,144.234,18.957,-107.287
5991,-0.3452,0.5127,-0.7319,0.183,-0.732,1.648,144.234,18.973,-107.303
6001,-0.3364,0.5190,-0.7271,0.427,2.563,3.601,144.240,18.951,-107.320
6011,-0.3281,0.5337,-0.7256,2.014,6.226,5.554,144.250,18.880,-107.325
6021,-0.3179,0.5571,-0.7407,4.700,9.338,7.446,144.278,18.759,-107.336
6031,-0.3047,0.5889,-0.7793,7.263,12.756,9.460,144.338,18.589,-107.336
6041,-0.2993,0.6172,-0.7983,8.545,15.930,10.437,144.404,18.380,-107.331
6051,-0.2964,0.6489,-0.8223,8.423,17.944,9.827,144.470,18.155,-107.303
6061,-0.2876,0.6602,-0.8457,8.057,18.860,7.446,144.542,17.930,-107.249
6071,-0.2739,0.6548,-0.8530,7.446,18.555,3.296,144.619,17.721,-107.166
6081,-0.2676,0.6406,-0.8623,5.066,16.052,-1.465,144.690,17.562,-107.056
6091,-0.2578,0.6289,-0.8779,1.770,11.841,-5.371,144.739,17.457,-106.935
6101,-0.2632,0.6108,-0.8726,-1.709,6.653,-7.996,144.756,17.413,-106.831
6111,-0.2764,0.5972,-0.8599,-4.395,1.404,-9.644,144.745,17.430,-106.738
6121,-0.2842,0.5962,-0.8506,-5.249,-2.869,-10.071,144.717,17.490,-106.672
6131,-0.3081,0.5503,-0.7993,-3.296,-5.371,-9.399,144.706,17.589,-106.622
6141,-0.3418,0.4717,-0.7305,-0.916,-7.751,-8.850,144.728,17.743,-106.595
6151,-0.3491,0.4224,-0.6909,-1.343,-9.644,-8.484,144.761,17.924,-106.578
6161,-0.3501,0.4067,-0.6831,-3.601,-9.399,-6.531,144.767,18.094,-106.578
6171,-0.3477,0.4189,-0.6860,-5.493,-5.798,-2.869,144.750,18.210,-106.589
6181,-0.3418,0.4575,-0.6909,-4.822,0.244,1.709,144.712,18.243,-106.606
6191,-0.3433,0.4883,-0.6895,-0.366,6.104,6.897,144.701,18.193,-106.628
6201,-0.3467,0.5137,-0.6924,5.920,9.949,11.597,144.739,18.083,-106.666
6211,-0.3247,0.5591,-0.7412,11.719,12.268,14.954,144.816,17.908,-106.716
6221,-0.2769,0.6318,-0.8408,15.137,14.893,16.846,144.937,17.661,-106.771
6231,-0.2046,0.7422,-0.9878,15.991,18.555,16.724,145.063,17.331,-106.804
6241,-0.1611,0.8213,-1.0898,15.869,20.569,14.038,145.201,16.979,-106.804
6251,-0.1567,0.8232,-1.1128,15.747,16.663,7.507,145.349,16.699,-106.765
6261,-0.1885,0.7725,-1.0586,11.902,5.676,-2.197,145.470,16.578,-106.716
6271,-0.2583,0.6694,-0.9360,2.258,-10.681,-13.306,145.497,16.699,-106.661
6281,-0.3306,0.5513,-0.7686,-12.146,-28.076,-23.804,145.377,17.089,-106.622
6291,-0.4033,0.4429,-0.5435,-31.494,-42.847,-31.311,145.020,17.743,-106.611
6301,-0.4160,0.4438,-0.5083,-24.353,-32.410,-24.597,144.723,18.287,-106.595
6311,-0.4097,0.4175,-0.5176,-7.446,-13.916,-12.634,144.624,18.605,-106.567
6321,-0.3706,0.3916,-0.5796,10.620,5.615,-0.732,144.756,18.655,-106.529
6331,-0.3320,0.3921,-0.6738,22.461,19.897,7.935,145.042,18.490,-106.474
6341,-0.3076,0.4307,-0.7773,22.705,26.123,12.634,145.344,18.215,-106.425
6351,-0.2842,0.5059,-0.8750,16.052,26.550,13.855,145.558,17.897,-106.386
6361,-0.2607,0.5859,-0.9507,7.629,23.682,11.841,145.673,17.589,-106.348
6371,-0.2476,0.6484,-0.9912,0.732,18.494,7.507,145.706,17.336,-106.304
6381,-0.2407,0.6792,-0.9990,-3.784,11.414,2.319,145.684,17.172,-106.260
6391,-0.2358,0.6733,-0.9609,-5.981,2.869,-2.502,145.629,17.106,-106.221
6401,-0.2466,0.6377,-0.9097,-5.798,-5.859,-5.920,145.569,17.139,-106.205
6411,-0.2710,0.5781,-0.8472,-3.479,-12.146,-7.385,145.536,17.254,-106.210
6421,-0.3057,0.5112,-0.7856,-1.648,-15.381,-7.202,145.525,17.430,-106.238
6431,-0.3271,0.4780,-0.7485,-1.648,-15.808,-6.104,145.514,17.622,-106.282
6441,-0.3384,0.4678,-0.7192,-2.563,-13.184,-3.845,145.492,17.787,-106.326
6451,-0.3564,0.4575,-0.6982,-3.235,-8.728,-1.099,145.459,17.919,-106.370
6461,-0.3604,0.4687,-0.7017,-3.601,-3.296,1.709,145.421,17.990,-106.403
6471,-0.3433,0.4980,-0.7246,-3.174,2.441,4.761,145.382,17.974,-106.430
6481,-0.3042,0.5474,-0.7671,-1.465,6.531,7.507,145.349,17.880,-106.458
6491,-0.2510,0.6152,-0.8491,1.343,8.667,9.705,145.338,17.710,-106.490
6501,-0.2139,0.6787,-0.9346,4.578,10.376,10.803,145.360,17.490,-106.518
6511,-0.2139,0.7236,-0.9771,6.287,11.292,10.010,145.399,17.271,-106.540
6521,-0.2363,0.7319,-0.9736,5.676,9.277,6.653,145.432,17.095,-106.540
6531,-0.2700,0.6909,-0.9160,3.174,3.479,0.977,145.443,17.018,-106.529
6541,-0.3130,0.6055,-0.8247,-1.831,-5.371,-6.470,145.415,17.100,-106.507
6551,-0.3418,0.5298,-0.7314,-9.033,-13.977,-13.611,145.322,17.325,-106.469
6561,-0.3672,0.4761,-0.6602,-15.686,-17.395,-16.968,145.168,17.633,-106.430
6571,-0.3809,0.4468,-0.6099,-18.188,-15.869,-15.686,144.987,17.941,-106.386
6581,-0.3672,0.4673,-0.6167,-14.282,-9.216,-10.071,144.833,18.149,-106.359
6591,-0.3481,0.4785,-0.6606,-3.723,0.977,-1.831,144.794,18.199,-106.337
6601,-0.3291,0.4800,-0.7256,8.057,11.353,5.493,144.899,18.105,-106.315
6611,-0.3203,0.4829,-0.7715,14.709,18.677,10.315,145.080,17.908,-106.287
6621,-0.3267,0.4551,-0.7803,14.709,20.142,12.329,145.278,17.693,-106.276
6631,-0.3345,0.4355,-0.7793,8.728,15.747,11.047,145.421,17.529,-106.276
6641,-0.3267,0.4561,-0.7900,-1.038,8.606,8.606,145.448,17.435,-106.298
6651,-0.2954,0.5264,-0.8276,-9.583,4.272,7.385,145.366,17.353,-106.337
6661,-0.2324,0.6455,-0.9141,-11.658,5.615,8.179,145.228,17.205,-106.375
6671,-0.1807,0.7461,-1.0034,-5.737,9.705,9.766,145.146,16.979,-106.403
6681,-0.1660,0.7671,-1.0371,3.357,10.071,9.399,145.157,16.749,-106.419
6691,-0.1719,0.7441,-1.0229,7.507,3.784,6.409,145.212,16.589,-106.452
6701,-0.1982,0.7056,-0.9893,7.263,-6.531,1.282,145.261,16.562,-106.501
6711,-0.2510,0.6602,-0.9165,2.808,-17.273,-3.845,145.261,16.683,-106.573
6721,-0.3047,0.5996,-0.8198,-2.380,-24.475,-8.057,145.201,16.930,-106.650
6731,-0.3555,0.5142,-0.7007,-4.395,-26.611,-11.292,145.124,17.265,-106.710
6741,-0.3940,0.4312,-0.6055,-5.737,-25.879,-13.428,145.052,17.655,-106.749
6751,-0.4165,0.4009,-0.5625,-8.057,-22.644,-13.428,144.959,18.051,-106.771
6761,-0.4282,0.4014,-0.5552,-8.484,-15.442,-9.888,144.866,18.369,-106.782
6771,-0.4209,0.4106,-0.5640,-5.615,-4.700,-2.930,144.800,18.556,-106.782
6781,-0.3994,0.4272,-0.5923,-0.305,6.226,5.188,144.789,18.572,-106.787
6791,-0.3618,0.4536,-0.6460,4.944,14.465,11.902,144.833,18.452,-106.804
6801,-0.3174,0.5034,-0.7256,7.568,19.592,15.991,144.904,18.215,-106.820
6811,-0.2788,0.5649,-0.8159,6.287,21.545,17.639,144.965,17.913,-106.842
6821,-0.2358,0.6357,-0.9038,2.991,21.790,16.907,144.992,17.584,-106.859
6831,-0.2183,0.6890,-0.9644,0.610,20.203,14.893,144.987,17.265,-106.864
6841,-0.2109,0.7139,-0.9956,-0.549,15.808,11.536,144.976,16.996,-106.870
6851,-0.2104,0.7139,-0.9863,-2.136,8.484,6.470,144.943,16.815,-106.875
6861,-0.2236,0.6865,-0.9512,-4.150,-0.549,0.244,144.893,16.760,-106.880
6871,-0.2490,0.6519,-0.8955,-6.531,-10.010,-5.371,144.816,16.831,-106.891
6881,-0.2666,0.6201,-0.8345,-8.240,-16.724,-8.789,144.712,16.990,-106.919
6891,-0.2837,0.5889,-0.7910,-7.568,-19.348,-9.583,144.613,17.194,-106.952
6901,-0.3052,0.5625,-0.7612,-5.066,-18.188,-8.179,144.542,17.391,-106.996
6911,-0.3208,0.5273,-0.7349,-1.343,-14.709,-6.104,144.514,17.567,-107.029
6921,-0.3345,0.5049,-0.7129,1.221,-10.437,-4.272,144.520,17.710,-107.056
6931,-0.3521,0.4912,-0.6943,1.587,-6.653,-2.869,144.531,17.831,-107.073
6941,-0.3574,0.4937,-0.6865,0.366,-3.540,-1.282,144.531,17.913,-107.084
6951,-0.3486,0.5059,-0.6919,-0.610,-0.366,0.549,144.514,17.957,-107.089
6961,-0.3311,0.5166,-0.7090,-0.061,3.418,2.380,144.509,17.946,-107.089
6971,-0.3149,0.5264,-0.7344,1.221,7.263,4.211,144.525,17.875,-107.084
6981,-0.2993,0.5415,-0.7637,2.441,9.766,6.226,144.553,17.759,-107.078
6991,-0.2915,0.5586,-0.7905,3.784,10.193,8.179,144.586,17.617,-107.084
7001,-0.2954,0.5718,-0.8115,5.554,9.155,9.399,144.635,17.479,-107.111
7011,-0.2939,0.5913,-0.8306,7.568,7.690,9.644,144.701,17.347,-107.144
7021,-0.2759,0.6133,-0.8633,9.521,7.080,9.399,144.783,17.210,-107.183
7031,-0.2583,0.6318,-0.8999,10.925,7.568,8.484,144.882,17.062,-107.210
7041,-0.2505,0.6436,-0.9185,11.292,7.141,6.653,144.992,16.919,-107.221
7051,-0.2515,0.6484,-0.9165,10.376,3.357,3.906,145.091,16.826,-107.238
7061,-0.2656,0.6377,-0.8940,9.094,-3.418,0.793,145.168,16.820,-107.265
7071,-0.2866,0.6187,-0.8486,7.629,-11.108,-1.709,145.212,16.902,-107.314
7081,-0.3140,0.5830,-0.7871,7.996,-18.250,-3.479,145.250,17.078,-107.397
7091,-0.3408,0.5439,-0.7305,10.132,-23.437,-4.700,145.305,17.331,-107.496
7101,-0.3481,0.5015,-0.6826,11.963,-26.062,-4.883,145.371,17.622,-107.606
7111,-0.3481,0.4771,-0.6626,12.512,-25.146,-4.272,145.453,17.908,-107.721
7121,-0.3418,0.4683,-0.6670,11.719,-19.775,-2.991,145.536,18.133,-107.814
7131,-0.3208,0.4707,-0.6812,9.399,-11.047,-1.038,145.607,18.259,-107.869
7141,-0.3047,0.4780,-0.6924,6.531,-2.136,0.732,145.668,18.287,-107.886
7151,-0.2974,0.4990,-0.7402,3.174,5.005,1.526,145.706,18.243,-107.869
7161,-0.2671,0.6045,-0.8667,-0.732,11.780,1.831,145.706,18.094,-107.820
7171,-0.2373,0.7056,-0.9912,-1.343,19.409,2.502,145.712,17.847,-107.726
7181,-0.2734,0.6841,-0.9805,2.258,22.583,1.587,145.767,17.606,-107.606
7191,-0.3159,0.6011,-0.8755,2.197,13.916,-2.319,145.816,17.496,-107.501
7201,-0.3545,0.5000,-0.7539,-3.845,-4.517,-7.996,145.794,17.617,-107.457
7211,-0.3594,0.4312,-0.6826,-13.062,-21.667,-13.916,145.684,17.935,-107.468
7221,-0.3472,0.4448,-0.6958,-21.667,-26.794,-16.296,145.481,18.292,-107.485
7231,-0.3096,0.5273,-0.7637,-22.522,-16.357,-12.390,145.261,18.495,-107.474
7241,-0.2866,0.5874,-0.8311,-12.085,4.700,-3.967,145.157,18.452,-107.413
7251,-0.2705,0.6147,-0.8989,1.892,24.109,4.272,145.212,18.188,-107.303
7261,-0.2412,0.6558,-0.9688,10.010,32.776,7.751,145.360,17.814,-107.172
7271,-0.2441,0.6357,-0.9883,12.024,26.550,4.028,145.536,17.512,-107.051
7281,-0.2676,0.5933,-0.9546,6.042,9.216,-2.869,145.646,17.413,-106.968
7291,-0.2983,0.5649,-0.8931,-6.653,-12.512,-9.705,145.602,17.551,-106.957
7301,-0.3271,0.5337,-0.8076,-18.433,-29.419,-15.198,145.415,17.891,-107.001
7311,-0.3452,0.5015,-0.7324,-24.475,-34.668,-17.761,145.157,18.303,-107.056
7321,-0.3501,0.4980,-0.6758,-23.315,-29.602,-16.602,144.904,18.682,-107.089
7331,-0.3564,0.5093,-0.6284,-14.282,-18.433,-11.597,144.717,18.951,-107.100
7341,-0.3608,0.4844,-0.6011,0.061,-6.104,-3.723,144.679,19.083,-107.106
7351,-0.3486,0.4619,-0.6309,12.939,3.967,3.845,144.794,19.078,-107.117
7361,-0.3164,0.4819,-0.7290,19.592,11.902,8.911,145.009,18.940,-107.122
7371,-0.2720,0.5356,-0.8525,17.883,17.944,11.108,145.217,18.693,-107.106
7381,-0.2651,0.5786,-0.9082,9.277,19.592,9.827,145.344,18.430,-107.073
7391,-0.2827,0.6240,-0.9131,-2.563,15.442,5.615,145.333,18.232,-107.029
7401,-0.3237,0.6616,-0.8687,-13.245,6.592,0.122,145.184,18.160,-106.990
7411,-0.3633,0.6553,-0.7910,-18.066,-3.357,-4.944,144.965,18.226,-106.968
7421,-0.3809,0.6021,-0.7148,-15.015,-9.460,-8.179,144.772,18.391,-106.957
7431,-0.3721,0.5557,-0.6836,-9.033,-10.193,-8.911,144.646,18.567,-106.941
7441,-0.3140,0.5566,-0.7271,-2.808,-4.639,-6.653,144.608,18.649,-106.913
7451,-0.2783,0.5640,-0.7642,1.953,4.700,-3.235,144.635,18.605,-106.859
7461,-0.2715,0.5835,-0.8032,3.296,11.963,-0.610,144.684,18.479,-106.776
7471,-0.2788,0.6069,-0.8364,2.136,13.855,0.854,144.723,18.325,-106.699
7481,-0.3115,0.5928,-0.8325,0.244,11.353,-0.244,144.750,18.226,-106.628
7491,-0.3389,0.5679,-0.8149,-3.967,5.859,-3.845,144.734,18.204,-106.562
7501,-0.3652,0.5322,-0.7925,-9.766,0.183,-7.874,144.673,18.276,-106.490
7511,-0.3560,0.5386,-0.7944,-13.977,-2.319,-10.376,144.569,18.375,-106.419
7521,-0.3237,0.5605,-0.8115,-12.573,-1.221,-9.949,144.476,18.441,-106.342
7531,-0.2866,0.5732,-0.8257,-5.188,0.977,-7.080,144.454,18.446,-106.271
7541,-0.2627,0.5728,-0.8398,4.639,1.831,-3.540,144.525,18.413,-106.232
7551,-0.2598,0.5625,-0.8428,12.085,0.610,-0.305,144.662,18.369,-106.227
7561,-0.2886,0.5254,-0.8120,14.954,-1.709,1.648,144.827,18.358,-106.249
7571,-0.3281,0.4819,-0.7549,13.489,-4.639,1.709,144.976,18.402,-106.293
7581,-0.3530,0.4590,-0.7168,8.545,-6.470,0.549,145.069,18.490,-106.337
7591,-0.3667,0.4424,-0.6914,3.235,-4.944,-0.183,145.118,18.589,-106.364
7601,-0.3486,0.4644,-0.7061,-1.160,-0.122,0.000,145.118,18.627,-106.364
7611,-0.3149,0.5229,-0.7422,-3.235,5.371,1.709,145.091,18.578,-106.348
7621,-0.2944,0.5708,-0.7964,-1.038,9.460,4.700,145.080,18.457,-106.331
7631,-0.2734,0.6240,-0.8638,3.845,10.925,7.324,145.107,18.287,-106.331
7641,-0.2612,0.6680,-0.9199,8.545,10.315,8.850,145.179,18.100,-106.342
7651,-0.2783,0.6733,-0.9180,11.719,7.568,8.972,145.267,17.946,-106.375
7661,-0.3081,0.6250,-0.8857,12.573,2.258,6.775,145.377,17.869,-106.419
7671,-0.3213,0.5625,-0.8394,9.399,-3.845,1.648,145.464,17.886,-106.458
7681,-0.3232,0.5117,-0.7871,2.625,-8.789,-4.211,145.503,17.996,-106.474
7691,-0.3213,0.4761,-0.7490,-5.554,-10.742,-8.240,145.470,18.144,-106.469
7701,-0.3066,0.4951,-0.7495,-12.146,-8.911,-9.521,145.366,18.281,-106.436
7711,-0.2822,0.5698,-0.7949,-13.306,-3.967,-6.958,145.239,18.331,-106.403
7721,-0.2764,0.6079,-0.8213,-5.371,1.770,-1.770,145.173,18.292,-106.375
7731,-0.2920,0.5806,-0.8169,6.104,4.578,2.747,145.234,18.221,-106.370
7741,-0.3276,0.5215,-0.7988,12.573,2.380,4.456,145.366,18.182,-106.397
7751,-0.3779,0.4341,-0.7295,9.888,-3.052,3.845,145.486,18.243,-106.447
7761,-0.4092,0.3970,-0.6719,-0.183,-8.057,2.136,145.503,18.391,-106.512
7771,-0.3970,0.4238,-0.6807,-9.949,-8.667,1.343,145.410,18.534,-106.578
7781,-0.3232,0.5591,-0.7979,-13.245,-1.404,2.747,145.267,18.528,-106.606
7791,-0.2334,0.7207,-0.9556,-7.080,12.329,6.042,145.179,18.320,-106.584
7801,-0.2026,0.7622,-0.9971,3.113,23.315,8.667,145.201,17.990,-106.523
7811,-0.2339,0.6812,-0.9150,8.911,20.325,5.920,145.294,17.726,-106.452
7821,-0.3403,0.4800,-0.7051,5.615,2.625,-0.977,145.360,17.748,-106.425
7831,-0.4736,0.2437,-0.4453,-9.094,-20.996,-9.888,145.322,18.232,-106.469
7841,-0.5566,0.1196,-0.2876,-30.029,-38.574,-16.785,145.118,19.067,-106.551
7851,-0.5181,0.2510,-0.3784,-44.556,-34.668,-13.611,144.657,19.720,-106.644
7861,-0.3984,0.5264,-0.6182,-39.673,-2.747,1.709,144.207,19.797,-106.677
7871,-0.2505,0.7349,-0.8638,-16.235,41.077,20.630,144.025,19.276,-106.600
7881,-0.0835,0.9570,-1.1646,7.263,73.669,32.654,144.119,18.331,-106.419
7891,0.0249,1.0684,-1.3779,24.048,80.139,33.264,144.426,17.490,-106.210
7901,0.0127,1.0054,-1.3862,28.503,60.852,22.583,144.767,16.864,-106.029
7913,-0.1128,0.8086,-1.2168,17.761,20.386,3.052,144.970,16.677,-105.936
7921,-0.2544,0.6025,-0.9565,-5.981,-27.771,-19.043,144.910,17.018,-105.936
7931,-0.3643,0.4941,-0.7446,-27.527,-65.125,-34.851,144.608,17.748,-106.029
7941,-0.4292,0.4321,-0.5723,-33.142,-79.285,-38.330,144.229,18.616,-106.183
7951,-0.4512,0.3306,-0.4375,-19.958,-67.871,-30.884,143.981,19.347,-106.337
7961,-0.4370,0.2588,-0.3848,0.061,-39.368,-16.846,143.948,19.764,-106.441
7971,-0.4043,0.2510,-0.4282,16.174,-6.836,-1.099,144.097,19.825,-106.474
7981,-0.3569,0.3218,-0.5625,23.865,20.325,12.878,144.344,19.589,-106.458
7991,-0.3066,0.4658,-0.7441,22.278,37.903,22.583,144.580,19.149,-106.419
8001,-0.2637,0.6064,-0.9106,14.954,43.640,25.391,144.745,18.644,-106.370
8011,-0.2402,0.7271,-1.0151,6.226,40.039,23.254,144.822,18.182,-106.326
8021,-0.2329,0.8008,-1.0557,-1.282,29.053,17.273,144.816,17.847,-106.298
8031,-0.2324,0.8149,-1.0503,-5.554,13.733,8.423,144.761,17.688,-106.287
8041,-0.2422,0.7788,-0.9902,-7.812,-2.747,-1.831,144.684,17.721,-106.287
8051,-0.2676,0.7046,-0.8960,-6.836,-16.663,-9.949,144.613,17.913,-106.304
8061,-0.2905,0.6191,-0.7983,-3.052,-24.231,-13.306,144.569,18.188,-106.337
8071,-0.3120,0.5303,-0.7070,1.404,-25.635,-13.428,144.575,18.474,-106.375
8081,-0.3335,0.4541,-0.6465,4.089,-21.606,-11.719,144.602,18.715,-106.408
8091,-0.3516,0.4194,-0.6201,4.272,-13.550,-8.179,144.641,18.875,-106.419
8101,-0.3730,0.3936,-0.5962,4.150,-3.967,-3.235,144.684,18.924,-106.419
8111,-0.3857,0.3926,-0.5937,3.601,4.028,1.709,144.723,18.885,-106.408
8121,-0.3735,0.4243,-0.6362,2.136,9.338,5.920,144.745,18.776,-106.403
8131,-0.3291,0.4927,-0.7339,1.099,13.794,9.583,144.756,18.605,-106.403
8141,-0.2832,0.5728,-0.8481,1.038,18.494,12.512,144.772,18.380,-106.397
8151,-0.2549,0.6353,-0.9326,1.892,21.484,13.733,144.794,18.127,-106.386
8161,-0.2090,0.7065,-1.0205,1.282,20.813,12.634,144.811,17.886,-106.364
8171,-0.1943,0.7383,-1.0537,-0.305,16.174,9.338,144.816,17.699,-106.348
8181,-0.2183,0.7178,-1.0088,-1.465,8.179,4.028,144.805,17.611,-106.331
8191,-0.2515,0.6787,-0.9409,-3.357,-2.869,-2.563,144.772,17.644,-106.331
8201,-0.2778,0.6211,-0.8477,-5.676,-13.855,-8.240,144.712,17.809,-106.342
8211,-0.3218,0.5146,-0.7187,-6.531,-21.362,-11.780,144.635,18.051,-106.370
8221,-0.3481,0.4458,-0.6387,-7.568,-24.292,-12.695,144.547,18.320,-106.408
8231,-0.3594,0.4121,-0.6069,-7.507,-22.217,-10.376,144.459,18.561,-106.458
8241,-0.3706,0.4082,-0.5947,-5.127,-15.076,-5.249,144.393,18.715,-106.501
8251,-0.3730,0.4331,-0.6211,-0.732,-4.639,2.319,144.371,18.743,-106.551
8261,-0.3516,0.4756,-0.6797,5.127,6.592,10.193,144.404,18.627,-106.600
8271,-0.3208,0.5439,-0.7598,10.071,16.968,15.442,144.498,18.397,-106.628
8281,-0.2832,0.6294,-0.8535,12.024,22.827,16.846,144.619,18.116,-106.633
8291,-0.2422,0.6973,-0.9292,10.498,22.522,14.648,144.723,17.847,-106.622
8301,-0.2153,0.7441,-0.9854,7.080,17.273,10.071,144.800,17.650,-106.600
8311,-0.1904,0.7559,-1.0083,2.869,9.766,3.845,144.838,17.545,-106.578
8321,-0.1992,0.7471,-0.9868,-1.892,1.160,-3.479,144.833,17.556,-106.540
8331,-0.2261,0.7241,-0.9404,-6.592,-7.751,-9.705,144.778,17.677,-106.501
8341,-0.2681,0.6665,-0.8521,-7.690,-15.686,-13.550,144.706,17.880,-106.479
8351,-0.3184,0.5591,-0.7437,-5.554,-20.996,-15.503,144.651,18.144,-106.474
8361,-0.3594,0.4707,-0.6621,-3.662,-23.560,-16.296,144.613,18.430,-106.479
8371,-0.3877,0.4155,-0.6187,-3.174,-22.034,-15.076,144.580,18.699,-106.485
8381,-0.4058,0.3853,-0.5923,-3.601,-16.113,-10.864,144.542,18.891,-106.490
8391,-0.4116,0.3740,-0.5801,-2.014,-7.324,-5.310,144.525,18.979,-106.490
8401,-0.3901,0.3916,-0.6064,1.587,2.380,1.099,144.564,19.050,-106.485
8411,-0.3613,0.4312,-0.6562,6.592,11.780,7.568,144.657,18.968,-106.479
8421,-0.3325,0.4678,-0.7153,11.292,19.653,13.123,144.789,18.759,-106.469
8431,-0.2993,0.5151,-0.7847,12.939,23.804,16.724,144.937,18.457,-106.469
8441,-0.2627,0.5869,-0.8633,11.963,24.109,18.066,145.063,18.116,-106.479
8451,-0.2354,0.6465,-0.9204,10.559,21.729,17.517,145.157,17.776,-106.501
8461,-0.2271,0.6724,-0.9473,8.362,16.907,14.771,145.228,17.490,-106.523
8471,-0.2334,0.6660,-0.9492,4.517,9.521,10.193,145.261,17.292,-106.556
8481,-0.2378,0.6724,-0.9395,-1.099,1.526,4.822,145.234,17.199,-106.589
8491,-0.2393,0.6821,-0.9126,-5.066,-5.005,0.610,145.151,17.183,-106.622
8501,-0.2495,0.6631,-0.8745,-4.822,-9.033,-2.686,145.069,17.227,-106.655
8511,-0.2705,0.6270,-0.8428,-2.380,-10.681,-6.409,145.031,17.320,-106.661
8521,-0.2822,0.5996,-0.8237,-1.770,-11.475,-9.827,145.003,17.452,-106.650
8531,-0.2930,0.5879,-0.8003,-3.235,-11.719,-11.353,144.970,17.600,-106.622
8541,-0.3076,0.5723,-0.7700,-4.761,-11.475,-10.742,144.910,17.759,-106.600
8551,-0.3291,0.5439,-0.7354,-3.906,-10.681,-9.216,144.866,17.919,-106.584
8561,-0.3594,0.5000,-0.7036,-1.038,-9.155,-7.507,144.855,18.078,-106.573
8571,-0.3687,0.4639,-0.6836,1.160,-6.226,-5.554,144.877,18.221,-106.562
8581,-0.3647,0.4355,-0.6675,1.648,-2.502,-2.991,144.915,18.325,-106.551
8591,-0.3555,0.4194,-0.6709,1.282,1.526,-0.122,144.965,18.369,-106.545
8601,-0.3389,0.4331,-0.6934,1.282,5.432,3.052,145.009,18.353,-106.534
8611,-0.3193,0.4570,-0.7290,3.235,8.362,6.714,145.069,18.265,-106.545
8621,-0.3076,0.4995,-0.7798,6.226,10.315,10.010,145.146,18.127,-106.567
8631,-0.2764,0.5557,-0.8516,8.789,11.719,13.000,145.234,17.930,-106.611
8641,-0.2485,0.5918,-0.9106,10.864,12.512,14.343,145.344,17.693,-106.661
8651,-0.2251,0.6357,-0.9688,9.644,11.292,13.367,145.443,17.463,-106.705
8661,-0.1943,0.6846,-1.0156,6.226,8.179,10.986,145.492,17.249,-106.754
8671,-0.1909,0.6846,-1.0142,2.869,3.113,6.653,145.514,17.100,-106.793
8681,-0.1987,0.6846,-0.9878,-2.014,-5.066,0.427,145.486,17.062,-106.826
8691,-0.2095,0.6885,-0.9453,-7.446,-14.893,-4.883,145.382,17.144,-106.870
8701,-0.2520,0.6621,-0.8628,-9.705,-22.766,-8.301,145.239,17.331,-106.935
8712,-0.3105,0.6006,-0.7769,-8.118,-26.917,-10.864,145.107,17.617,-107.001
8721,-0.3584,0.5459,-0.6992,-5.920,-27.161,-12.207,145.003,17.952,-107.062
8731,-0.3838,0.4932,-0.6318,-3.784,-24.231,-11.719,144.921,18.287,-107.106
8741,-0.4043,0.4385,-0.5791,-2.625,-18.860,-9.521,144.866,18.605,-107.139
8751,-0.4150,0.3955,-0.5449,-2.625,-12.451,-6.287,144.822,18.869,-107.161
8761,-0.4126,0.3838,-0.5386,-3.052,-5.371,-2.319,144.783,19.061,-107.172
8771,-0.3975,0.3975,-0.5562,-2.563,2.441,2.747,144.756,19.133,-107.183
8781,-0.3828,0.4321,-0.5923,-0.977,10.193,8.240,144.734,19.089,-107.188
8791,-0.3437,0.5020,-0.6772,2.319,17.883,13.611,144.739,18.896,-107.199
8801,-0.3013,0.5688,-0.7944,7.080,25.696,17.822,144.805,18.572,-107.194
8811,-0.2651,0.6333,-0.9038,9.583,31.921,19.165,144.915,18.155,-107.166
8821,-0.2319,0.6694,-0.9829,8.728,32.898,16.785,145.025,17.721,-107.111
8831,-0.1680,0.7222,-1.0601,2.869,28.259,10.498,145.085,17.331,-107.034
8841,-0.1494,0.7490,-1.0776,-5.188,18.982,1.709,145.063,17.056,-106.935
8851,-0.1772,0.7407,-1.0171,-13.611,6.470,-7.263,144.948,16.952,-106.831
8861,-0.2144,0.7256,-0.9233,-20.142,-7.751,-14.282,144.739,17.034,-106.754
8871,-0.2646,0.6909,-0.8276,-21.240,-19.470,-18.433,144.492,17.265,-106.716
8881,-0.3267,0.6382,-0.7466,-16.846,-23.743,-19.592,144.283,17.578,-106.694
8891,-0.4009,0.5327,-0.6636,-9.338,-21.301,-18.433,144.168,17.930,-106.666
8901,-0.4229,0.4561,-0.6265,-3.418,-15.442,-16.357,144.146,18.259,-106.622
8911,-0.4033,0.4185,-0.6250,-1.282,-8.240,-12.878,144.174,18.501,-106.562
8921,-0.3516,0.4419,-0.6763,-1.038,-1.099,-8.301,144.207,18.605,-106.501
8931,-0.2979,0.5068,-0.7676,0.183,5.188,-3.296,144.250,18.578,-106.441
8941,-0.2637,0.5698,-0.8506,4.089,9.583,1.526,144.327,18.452,-106.392
8951,-0.2441,0.6001,-0.8901,9.216,11.108,4.700,144.443,18.276,-106.364
8961,-0.2456,0.5850,-0.8813,11.963,8.972,5.615,144.586,18.122,-106.359
8971,-0.2622,0.5547,-0.8687,11.108,4.150,3.906,144.717,18.023,-106.364
8981,-0.2808,0.5391,-0.8452,5.859,-0.793,1.526,144.800,18.001,-106.386
8991,-0.2920,0.5356,-0.8149,0.122,-3.357,0.000,144.811,18.012,-106.403
9001,-0.2715,0.5459,-0.8042,-2.930,-3.418,-0.793,144.789,18.023,-106.419
9011,-0.2646,0.5547,-0.7969,-2.380,-2.869,-0.916,144.767,18.023,-106.430
9021,-0.2900,0.5469,-0.7910,1.038,-3.784,-0.061,144.778,18.040,-106.452
9031,-0.3188,0.5312,-0.7827,3.906,-5.371,1.709,144.811,18.078,-106.496
9041,-0.3276,0.5254,-0.7920,4.395,-6.042,3.296,144.849,18.122,-106.562
9051,-0.3232,0.5312,-0.8018,2.197,-5.005,3.540,144.871,18.144,-106.622
9061,-0.3003,0.5923,-0.8516,-3.113,-2.869,2.319,144.833,18.133,-106.661
9071,-0.2788,0.6592,-0.8877,-9.033,0.244,0.183,144.728,18.094,-106.661
9081,-0.2749,0.7139,-0.8853,-12.573,1.648,-2.258,144.575,18.045,-106.633
9091,-0.2866,0.6943,-0.8311,-11.780,-0.916,-4.456,144.426,18.045,-106.600
9101,-0.3398,0.5742,-0.6973,-8.179,-8.057,-7.385,144.311,18.182,-106.584
9111,-0.3916,0.4639,-0.5898,-5.981,-16.296,-9.644,144.218,18.463,-106.600
9121,-0.4185,0.3955,-0.5430,-4.883,-18.799,-7.751,144.152,18.792,-106.655
9131,-0.4136,0.3975,-0.5576,-2.563,-12.512,-1.892,144.113,19.028,-106.716
9141,-0.3647,0.4521,-0.6426,2.502,0.793,4.883,144.130,19.050,-106.749
9151,-0.3076,0.5425,-0.7759,8.728,15.503,10.559,144.229,18.853,-106.743
9161,-0.2300,0.6885,-0.9570,11.963,26.611,13.733,144.360,18.484,-106.699
9171,-0.1665,0.7910,-1.0918,11.963,32.043,12.939,144.503,18.034,-106.611
9181,-0.1646,0.8062,-1.1069,9.583,27.771,8.179,144.624,17.655,-106.512
9191,-0.1948,0.7578,-1.0532,3.906,12.268,0.305,144.679,17.463,-106.441
9201,-0.2593,0.6421,-0.9209,-3.601,-8.667,-9.094,144.657,17.540,-106.414
9212,-0.3394,0.4878,-0.7407,-10.559,-27.161,-17.334,144.569,17.891,-106.430
9221,-0.3931,0.3901,-0.6162,-15.076,-37.598,-20.691,144.432,18.419,-106.485
9231,-0.4062,0.3481,-0.5459,-14.282,-35.950,-17.578,144.300,18.946,-106.556
9241,-0.4111,0.3530,-0.5225,-6.348,-23.560,-9.766,144.234,19.330,-106.617
9251,-0.3726,0.3994,-0.5762,4.883,-5.066,1.465,144.278,19.451,-106.661
9261,-0.3315,0.4502,-0.6606,15.869,12.817,12.085,144.443,19.308,-106.683
9271,-0.3013,0.5288,-0.7817,21.484,24.414,18.188,144.668,18.990,-106.688
9281,-0.2617,0.5957,-0.9014,20.142,27.405,18.982,144.888,18.611,-106.688
9291,-0.2373,0.6426,-0.9751,12.390,23.132,15.991,145.031,18.259,-106.683
9301,-0.2207,0.6846,-1.0117,1.526,13.733,10.559,145.047,18.007,-106.694
9311,-0.2231,0.7163,-0.9995,-8.545,2.075,3.967,144.954,17.891,-106.716
9321,-0.2539,0.7104,-0.9346,-13.306,-8.606,-2.136,144.789,17.919,-106.749
9331,-0.2861,0.6396,-0.8374,-11.841,-15.747,-6.958,144.635,18.056,-106.782
9341,-0.3213,0.5552,-0.7363,-8.606,-20.081,-10.193,144.525,18.287,-106.820
9351,-0.3477,0.5020,-0.6753,-5.859,-20.508,-10.071,144.443,18.550,-106.859
9361,-0.3604,0.4780,-0.6509,-3.113,-15.503,-6.775,144.393,18.770,-106.891
9371,-0.3589,0.4766,-0.6489,0.427,-6.714,-2.075,144.382,18.891,-106.919
9381,-0.3452,0.4927,-0.6816,4.639,1.709,3.174,144.421,18.891,-106.935
9391,-0.3262,0.5132,-0.7344,7.812,7.751,7.202,144.503,18.798,-106.946
9401,-0.3159,0.5391,-0.7764,7.568,11.292,9.338,144.580,18.649,-106.957
9411,-0.3159,0.5542,-0.7832,4.883,12.024,9.644,144.624,18.495,-106.968
9421,-0.3335,0.5688,-0.7847,0.977,9.644,8.606,144.624,18.375,-106.985
9431,-0.3301,0.5767,-0.7896,-1.587,6.531,6.836,144.597,18.287,-107.001
9441,-0.2935,0.6104,-0.8408,-2.502,5.371,5.066,144.564,18.188,-107.012
9451,-0.2363,0.6616,-0.9165,-1.465,7.507,3.784,144.547,18.040,-107.001
9461,-0.2100,0.6938,-0.9570,0.488,9.399,2.625,144.558,17.869,-106.963
9471,-0.2056,0.7021,-0.9712,1.465,6.287,0.427,144.580,17.737,-106.930
9481,-0.2144,0.7012,-0.9526,1.404,-0.916,-3.052,144.591,17.688,-106.908
9491,-0.2495,0.6592,-0.8818,0.549,-9.460,-6.348,144.580,17.748,-106.913
9501,-0.3013,0.6021,-0.8047,-0.854,-17.029,-9.399,144.553,17.930,-106.935
9511,-0.3379,0.5557,-0.7383,-1.709,-21.057,-11.597,144.509,18.188,-106.968
9521,-0.3750,0.4717,-0.6479,-2.075,-21.790,-12.268,144.476,18.501,-106.996
9531,-0.4233,0.3804,-0.5635,-3.845,-21.362,-12.573,144.443,18.880,-107.018
9541,-0.4370,0.3760,-0.5474,-6.592,-18.250,-10.559,144.382,19.232,-107.040
9551,-0.4287,0.3823,-0.5537,-5.005,-8.545,-3.784,144.338,19.457,-107.056
9561,-0.4121,0.3818,-0.5635,0.488,5.188,4.883,144.355,19.506,-107.067
9571,-0.3760,0.4292,-0.6226,7.751,17.395,13.000,144.443,19.358,-107.073
9581,-0.3232,0.5005,-0.7231,14.587,25.757,20.264,144.586,19.045,-107.089
9591,-0.2700,0.5786,-0.8472,19.165,30.151,24.719,144.778,18.616,-107.117
9601,-0.2173,0.6514,-0.9775,20.508,31.006,25.269,144.987,18.138,-107.144
9611,-0.1885,0.6875,-1.0576,18.066,27.954,21.301,145.184,17.693,-107.161
9621,-0.1763,0.6953,-1.0933,10.864,20.203,14.221,145.316,17.353,-107.161
9631,-0.1567,0.7271,-1.1016,-1.038,8.301,5.432,145.316,17.150,-107.161
9641,-0.1777,0.7373,-1.0439,-12.207,-4.700,-3.357,145.190,17.111,-107.161
9651,-0.2217,0.7266,-0.9609,-16.846,-15.808,-10.254,144.998,17.232,-107.166
9661,-0.2642,0.6729,-0.8569,-14.587,-23.376,-14.099,144.816,17.463,-107.183
9671,-0.2935,0.5913,-0.7495,-9.338,-27.466,-15.503,144.684,17.770,-107.216
9681,-0.3374,0.5088,-0.6631,-5.066,-28.503,-15.381,144.602,18.133,-107.260
9691,-0.3716,0.4556,-0.6191,-3.845,-24.841,-13.733,144.542,18.490,-107.292
9701,-0.3877,0.4253,-0.5952,-4.150,-16.663,-10.742,144.498,18.781,-107.303
9712,-0.4102,0.4004,-0.5581,-4.822,-7.935,-7.141,144.454,19.006,-107.287
9721,-0.4175,0.4341,-0.5728,-4.944,-1.526,-2.808,144.393,19.144,-107.276
9731,-0.4033,0.4683,-0.6201,-1.648,4.517,2.380,144.360,19.177,-107.265
9741,-0.3809,0.4932,-0.6694,3.967,11.292,6.775,144.399,19.100,-107.254
9751,-0.3462,0.5166,-0.7339,8.484,16.418,9.827,144.492,18.935,-107.238
9761,-0.2915,0.5605,-0.8179,9.644,18.860,11.841,144.602,18.688,-107.227
9771,-0.2544,0.6143,-0.8979,8.057,19.897,12.512,144.695,18.402,-107.210
9781,-0.2134,0.6665,-0.9839,5.188,19.531,10.986,144.767,18.094,-107.188
9791,-0.1846,0.7100,-1.0386,2.075,15.991,7.019,144.811,17.831,-107.150
9801,-0.1968,0.7075,-1.0366,-0.244,8.362,1.831,144.827,17.661,-107.117
9811,-0.2178,0.6704,-0.9956,-2.930,-1.892,-3.601,144.816,17.622,-107.095
9821,-0.2368,0.6260,-0.9341,-7.080,-11.719,-8.179,144.756,17.710,-107.095
9831,-0.2661,0.5859,-0.8530,-10.437,-18.311,-11.292,144.657,17.886,-107.111
9841,-0.3032,0.5298,-0.7505,-10.986,-21.729,-12.268,144.542,18.138,-107.139
9851,-0.3374,0.4771,-0.6675,-9.277,-22.583,-11.414,144.437,18.430,-107.177
9861,-0.3647,0.4521,-0.6299,-6.897,-19.775,-9.216,144.355,18.710,-107.221
9871,-0.3857,0.4468,-0.6230,-4.333,-12.878,-5.249,144.300,18.924,-107.254
9881,-0.3804,0.4683,-0.6431,-2.136,-3.967,-0.305,144.267,19.023,-107.276
9891,-0.3535,0.5063,-0.6914,-0.061,3.601,4.028,144.261,19.006,-107.287
9901,-0.3389,0.5537,-0.7505,1.587,8.728,6.592,144.267,18.907,-107.292
9914,-0.3286,0.6104,-0.7959,3.113,11.047,7.935,144.283,18.765,-107.292
9921,-0.3257,0.6191,-0.8042,5.554,10.803,8.484,144.316,18.616,-107.298
9931,-0.3120,0.5937,-0.8208,7.507,9.216,6.775,144.388,18.490,-107.298
9941,-0.2939,0.6133,-0.8301,5.920,7.751,3.723,144.443,18.380,-107.281
9951,-0.2778,0.6523,-0.8311,5.127,6.104,2.686,144.470,18.276,-107.271
9961,-0.2456,0.6772,-0.8462,10.071,4.333,3.296,144.542,18.171,-107.271
9971,-0.2485,0.6689,-0.8496,18.860,1.770,3.784,144.690,18.083,-107.292
9981,-0.2720,0.6309,-0.8408,26.550,-0.916,4.272,144.926,18.029,-107.336
9991,-0.3018,0.5659,-0.8174,29.480,-3.662,4.456,145.201,18.023,-107.397
10001,-0.3301,0.4976,-0.7954,27.161,-6.958,3.601,145.475,18.073,-107.468
10011,-0.3369,0.4678,-0.7812,18.921,-9.888,1.404,145.679,18.166,-107.540
10021,-0.3311,0.4814,-0.7769,8.911,-9.338,-0.671,145.778,18.265,-107.589
10031,-0.2969,0.5332,-0.7856,3.418,-7.507,-0.610,145.800,18.320,-107.628
10041,-0.2705,0.5620,-0.8188,3.845,-5.371,0.916,145.822,18.325,-107.666
10051,-0.2695,0.5649,-0.8555,7.507,-4.333,1.892,145.893,18.314,-107.710
10061,-0.2769,0.5620,-0.8691,9.949,-4.883,2.014,145.986,18.314,-107.754
10071,-0.3018,0.5308,-0.8330,7.324,-6.897,1.282,146.058,18.347,-107.809
10081,-0.3374,0.4814,-0.7852,1.160,-9.216,-1.404,146.080,18.452,-107.847
10091,-0.3481,0.4551,-0.7549,-7.202,-10.010,-4.395,146.030,18.589,-107.869
10101,-0.3437,0.4648,-0.7358,-15.015,-7.324,-5.981,145.904,18.710,-107.858
10111,-0.3315,0.5386,-0.7578,-17.700,-1.709,-4.822,145.723,18.759,-107.831
10121,-0.3164,0.5874,-0.7876,-11.536,5.310,-1.160,145.602,18.715,-107.787
10131,-0.2959,0.5962,-0.8247,-1.526,10.498,2.136,145.585,18.589,-107.743
10141,-0.2896,0.5937,-0.8501,5.310,11.047,3.357,145.640,18.452,-107.704
10151,-0.3057,0.5586,-0.8340,5.920,6.958,2.869,145.712,18.364,-107.688
10161,-0.3276,0.5103,-0.7832,0.793,0.793,0.916,145.728,18.364,-107.693
10171,-0.3418,0.5020,-0.7456,-6.592,-3.113,-1.038,145.668,18.419,-107.704
10181,-0.3413,0.4941,-0.7212,-10.437,-2.197,-1.648,145.563,18.474,-107.699
10191,-0.3193,0.5293,-0.7461,-10.010,2.808,-1.343,145.464,18.468,-107.672
10201,-0.2856,0.5737,-0.7988,-5.615,8.911,0.366,145.410,18.369,-107.622
10212,-0.2710,0.5884,-0.8486,0.427,12.695,2.625,145.432,18.215,-107.567
10221,-0.2661,0.5913,-0.8848,4.028,12.573,3.479,145.492,18.051,-107.523
10231,-0.2725,0.5972,-0.8945,3.052,8.911,2.502,145.541,17.924,-107.496
10241,-0.2852,0.5942,-0.8652,-1.221,3.723,0.122,145.536,17.869,-107.474
10251,-0.3086,0.5742,-0.8198,-5.127,-2.014,-2.502,145.481,17.891,-107.463
10261,-0.3291,0.5278,-0.7637,-6.958,-6.714,-4.578,145.410,17.985,-107.463
10271,-0.3247,0.5151,-0.7427,-7.751,-9.216,-5.615,145.333,18.111,-107.468
10281,-0.3188,0.5132,-0.7544,-6.958,-8.118,-5.005,145.267,18.215,-107.474
10291,-0.3091,0.5366,-0.7788,-5.188,-3.967,-3.235,145.217,18.265,-107.468
10301,-0.2905,0.5796,-0.8301,-2.441,0.549,-1.221,145.195,18.248,-107.457
10311,-0.2910,0.5933,-0.8574,1.404,3.113,0.244,145.217,18.193,-107.441
10321,-0.2998,0.5840,-0.8647,3.601,2.258,0.305,145.261,18.149,-107.430
10331,-0.3013,0.5669,-0.8628,2.686,-0.671,-0.671,145.305,18.144,-107.424
10341,-0.2964,0.5410,-0.8379,-0.244,-3.174,-2.136,145.316,18.166,-107.430
10351,-0.3105,0.5054,-0.7803,-3.906,-6.104,-3.845,145.294,18.237,-107.430
10361,-0.3262,0.4971,-0.7437,-7.751,-8.789,-5.005,145.228,18.358,-107.441
10371,-0.3311,0.4951,-0.7197,-9.094,-9.033,-4.700,145.135,18.479,-107.452
10381,-0.3462,0.5015,-0.6958,-7.324,-6.714,-2.625,145.047,18.583,-107.474
10391,-0.3530,0.4985,-0.6958,-3.235,-2.502,0.732,145.003,18.638,-107.490
10401,-0.3633,0.4873,-0.6953,1.038,3.113,4.211,145.009,18.633,-107.512
10411,-0.3667,0.4712,-0.7002,2.991,8.545,6.714,145.042,18.578,-107.518
10421,-0.3530,0.4771,-0.7178,1.770,12.512,8.362,145.074,18.463,-107.512
10431,-0.3320,0.4946,-0.7319,-0.488,15.259,10.071,145.080,18.303,-107.507
10441,-0.2944,0.5342,-0.7705,-1.343,16.785,11.902,145.069,18.094,-107.512
10451,-0.2295,0.6387,-0.8960,-0.366,18.677,13.245,145.058,17.803,-107.512
10461,-0.1406,0.8218,-1.0942,1.892,21.729,13.733,145.063,17.430,-107.501
10471,-0.0796,0.9556,-1.2612,7.080,22.644,11.475,145.146,17.177,-107.463
10481,-0.0327,1.0376,-1.3721,11.658,17.883,6.104,145.278,16.996,-107.408
10491,-0.0547,0.9546,-1.2964,12.512,5.188,-3.357,145.421,16.974,-107.347
10501,-0.1494,0.7681,-1.0908,5.798,-18.555,-18.433,145.492,17.232,-107.298
10511,-0.2627,0.6094,-0.8770,-9.094,-45.898,-33.691,145.404,17.798,-107.281
10521,-0.3745,0.4878,-0.6719,-22.095,-64.453,-43.091,145.184,18.572,-107.292
10531,-0.4453,0.3740,-0.4966,-26.062,-67.993,-44.250,144.915,19.385,-107.320
10541,-0.4868,0.2969,-0.3735,-20.325,-59.204,-37.659,144.701,20.089,-107.353
10551,-0.5112,0.2290,-0.3042,-8.362,-41.992,-26.123,144.602,20.577,-107.386
10561,-0.5225,0.1553,-0.2788,5.066,-19.714,-13.123,144.651,20.819,-107.391
10571,-0.5273,0.1255,-0.3120,12.451,0.793,-1.038,144.783,20.814,-107.380
10581,-0.5034,0.1724,-0.3994,12.024,17.212,10.193,144.910,20.616,-107.358
10591,-0.4556,0.2637,-0.5361,8.301,30.518,20.569,144.992,20.248,-107.353
10601,-0.3799,0.4277,-0.7280,3.662,41.870,27.893,145.036,19.748,-107.342
10611,-0.3032,0.6040,-0.8975,1.160,49.255,30.701,145.058,19.166,-107.309
10621,-0.2441,0.7061,-1.0156,2.075,48.523,28.748,145.091,18.605,-107.265
10631,-0.1987,0.7534,-1.0825,2.563,38.025,22.827,145.129,18.160,-107.232
10641,-0.1758,0.7627,-1.0977,0.061,21.362,14.404,145.129,17.902,-107.227
10651,-0.1729,0.7500,-1.0718,-5.066,4.578,6.470,145.069,17.831,-107.254
10661,-0.1968,0.7080,-0.9897,-9.033,-8.484,0.671,144.965,17.897,-107.314
10671,-0.2451,0.6484,-0.8906,-10.254,-16.235,-2.747,144.838,18.045,-107.386
10681,-0.2896,0.6021,-0.7949,-9.644,-18.677,-4.578,144.717,18.221,-107.463
10691,-0.3276,0.5571,-0.7095,-5.981,-17.090,-4.883,144.641,18.391,-107.523
10701,-0.3638,0.5088,-0.6484,0.305,-13.550,-3.113,144.624,18.517,-107.578
10711,-0.3794,0.4785,-0.6284,3.906,-8.545,-0.427,144.646,18.589,-107.628
10721,-0.3794,0.4687,-0.6265,4.639,-1.648,2.502,144.684,18.589,-107.661
10731,-0.3794,0.4751,-0.6431,4.272,5.493,5.493,144.723,18.512,-107.672
10741,-0.3579,0.5195,-0.6987,2.197,11.292,7.629,144.745,18.375,-107.672
10751,-0.3281,0.5664,-0.7783,0.793,16.907,8.484,144.761,18.188,-107.639
10761,-0.2837,0.6372,-0.8711,-0.549,20.691,8.667,144.772,17.974,-107.589
10771,-0.2510,0.6855,-0.9395,-1.404,20.813,8.118,144.778,17.754,-107.534
10781,-0.2354,0.7051,-0.9648,-0.916,16.418,5.493,144.783,17.589,-107.479
10791,-0.2329,0.6929,-0.9512,-0.610,9.460,0.916,144.794,17.507,-107.430
10801,-0.2476,0.6460,-0.9102,-2.136,1.160,-3.906,144.783,17.518,-107.391
10811,-0.2822,0.5981,-0.8574,-5.005,-6.775,-7.935,144.739,17.622,-107.364
10821,-0.3032,0.5552,-0.8169,-6.409,-10.193,-10.132,144.684,17.759,-107.336
10831,-0.3105,0.5259,-0.7759,-6.165,-9.583,-10.681,144.635,17.902,-107.303
10841,-0.3091,0.5117,-0.7383,-4.395,-7.080,-9.338,144.602,18.012,-107.265
10851,-0.3149,0.4985,-0.7100,-0.916,-4.395,-6.104,144.602,18.083,-107.243
10861,-0.3188,0.4883,-0.7041,3.418,-1.465,-1.953,144.635,18.105,-107.232
10871,-0.3237,0.4785,-0.6904,6.897,1.160,1.892,144.701,18.089,-107.243
10881,-0.3257,0.4888,-0.7046,8.118,3.845,4.883,144.778,18.029,-107.260
10891,-0.3179,0.5327,-0.7432,7.019,7.935,7.019,144.844,17.924,-107.276
10901,-0.3105,0.5703,-0.7856,4.517,12.451,7.935,144.893,17.776,-107.265
10911,-0.2915,0.6260,-0.8608,1.465,14.893,6.958,144.915,17.611,-107.238
10921,-0.2612,0.6899,-0.9395,-0.244,15.381,4.578,144.932,17.463,-107.183
10931,-0.2559,0.6943,-0.9478,-0.366,13.062,1.038,144.948,17.347,-107.111
10941,-0.2603,0.6606,-0.9106,-0.977,6.409,-3.845,144.959,17.320,-107.040
10951,-0.2666,0.6216,-0.8613,-2.747,-3.418,-8.118,144.948,17.391,-106.990
10961,-0.2930,0.5669,-0.7998,-3.906,-11.047,-10.010,144.910,17.540,-106.974
10971,-0.3110,0.5078,-0.7520,-4.211,-13.367,-10.315,144.871,17.710,-106.963
10981,-0.2930,0.5083,-0.7573,-4.272,-10.376,-9.583,144.838,17.847,-106.946
10991,-0.2690,0.5278,-0.7930,-3.235,-3.052,-7.446,144.833,17.897,-106.902
11001,-0.2783,0.5225,-0.8027,-1.770,3.357,-5.188,144.855,17.880,-106.837
11011,-0.3062,0.5176,-0.7793,-2.747,4.395,-4.089,144.866,17.869,-106.771
11021,-0.3584,0.4565,-0.6973,-5.188,-0.427,-4.150,144.838,17.952,-106.738
11031,-0.4116,0.4141,-0.6108,-9.583,-7.019,-4.578,144.756,18.149,-106.743
11041,-0.4424,0.3926,-0.5469,-12.756,-10.071,-2.930,144.613,18.397,-106.782
11051,-0.4053,0.4414,-0.5874,-11.230,-4.883,1.343,144.476,18.534,-106.820
11061,-0.2837,0.5898,-0.7744,-4.517,9.766,7.996,144.410,18.386,-106.831
11071,-0.1763,0.7539,-1.0073,6.958,28.931,14.771,144.481,17.963,-106.776
11081,-0.1050,0.8721,-1.1606,16.724,41.809,17.883,144.662,17.386,-106.677
11091,-0.0898,0.8589,-1.1509,22.888,37.476,12.268,144.915,16.875,-106.556
11101,-0.1948,0.6895,-0.9922,19.775,14.648,-0.549,145.140,16.683,-106.463
11111,-0.3477,0.5103,-0.7705,4.395,-18.066,-16.296,145.206,16.963,-106.430
11121,-0.4551,0.3569,-0.5786,-15.198,-44.678,-28.076,145.080,17.650,-106.458
11131,-0.5068,0.3242,-0.4727,-28.870,-52.124,-30.518,144.783,18.484,-106.507
11141,-0.4795,0.3457,-0.4478,-26.917,-37.598,-22.217,144.481,19.133,-106.545
11151,-0.4023,0.4209,-0.5142,-12.268,-8.118,-7.019,144.322,19.363,-106.534
11161,-0.2788,0.5186,-0.6992,8.362,23.193,8.789,144.421,19.111,-106.463
11171,-0.1743,0.6636,-0.9375,23.132,44.067,19.775,144.684,18.534,-106.364
11181,-0.1245,0.7554,-1.1089,28.259,49.072,23.743,145.003,17.869,-106.271
11191,-0.1064,0.7773,-1.1958,24.475,38.574,19.836,145.283,17.309,-106.205
11201,-0.1338,0.7842,-1.2163,12.817,16.296,9.155,145.437,17.001,-106.188
11212,-0.1875,0.7822,-1.1519,-1.831,-9.216,-3.479,145.415,17.007,-106.216
11221,-0.2534,0.6938,-0.9766,-10.559,-29.297,-14.099,145.289,17.271,-106.265
11231,-0.3120,0.5483,-0.7764,-11.597,-41.687,-20.630,145.146,17.737,-106.337
11241,-0.3584,0.4585,-0.6274,-8.789,-45.166,-22.400,145.020,18.303,-106.414
11251,-0.3770,0.3896,-0.5220,-1.343,-39.307,-19.226,144.970,18.847,-106.485
11261,-0.3867,0.3218,-0.4321,6.653,-27.405,-12.329,144.998,19.308,-106.545
11271,-0.4155,0.2939,-0.4199,10.803,-13.977,-3.296,145.085,19.638,-106.600
11281,-0.4238,0.3296,-0.4858,10.254,0.183,5.615,145.179,19.764,-106.650
11291,-0.4058,0.4336,-0.6289,7.080,16.052,11.841,145.250,19.649,-106.655
11301,-0.3931,0.5410,-0.7622,1.831,27.832,14.404,145.278,19.374,-106.611
11311,-0.3560,0.6196,-0.8701,-1.770,32.227,13.000,145.278,19.028,-106.529
11321,-0.3081,0.6807,-0.9360,-5.676,28.870,9.155,145.239,18.699,-106.436
11331,-0.2520,0.7114,-0.9570,-10.193,20.447,4.517,145.146,18.441,-106.353
11341,-0.2275,0.7153,-0.9707,-12.085,9.094,0.244,145.031,18.287,-106.298
11351,-0.2314,0.6851,-0.9473,-9.888,0.732,-3.113,144.932,18.232,-106.271
11361,-0.2432,0.6187,-0.8853,-6.104,-5.127,-5.310,144.877,18.248,-106.254
11371,-0.2461,0.5586,-0.8320,-3.906,-9.399,-6.775,144.849,18.314,-106.254
11381,-0.2676,0.4966,-0.7891,-2.808,-10.437,-7.568,144.855,18.419,-106.249
11391,-0.3008,0.4526,-0.7373,-2.991,-8.179,-6.897,144.866,18.534,-106.243
11401,-0.3496,0.3975,-0.6729,-3.296,-4.822,-4.639,144.882,18.655,-106.232
11411,-0.3892,0.3770,-0.6299,-4.333,-2.197,-1.526,144.877,18.776,-106.232
11421,-0.4014,0.3657,-0.6162,-4.822,0.061,2.380,144.871,18.864,-106.249
11431,-0.3491,0.4399,-0.7061,-5.127,4.395,6.653,144.838,18.831,-106.282
11441,-0.2817,0.5610,-0.8379,-4.089,13.489,11.230,144.811,18.627,-106.298
11451,-0.2095,0.6978,-0.9819,-1.587,22.644,14.465,144.794,18.270,-106.282
11461,-0.0981,0.8682,-1.1558,0.671,26.550,15.198,144.794,17.825,-106.254
11471,-0.0679,0.9521,-1.2358,3.723,22.461,12.268,144.838,17.573,-106.221
11481,-0.1157,0.9214,-1.1821,6.653,9.644,5.249,144.910,17.463,-106.210
11491,-0.2231,0.7495,-0.9849,7.141,-11.536,-5.798,144.976,17.589,-106.227
11501,-0.3931,0.4370,-0.6357,0.366,-36.926,-18.433,144.959,18.001,-106.293
11511,-0.5112,0.2334,-0.4131,-10.803,-55.359,-28.198,144.827,18.616,-106.386
11521,-0.5425,0.1865,-0.3306,-20.020,-53.528,-28.320,144.597,19.215,-106.469
11531,-0.5337,0.1948,-0.3042,-18.738,-29.602,-17.822,144.404,19.561,-106.496
11541,-0.4561,0.2910,-0.3833,-9.155,2.991,-1.648,144.322,19.545,-106.463
11551,-0.3267,0.4609,-0.6147,5.249,31.067,14.771,144.393,19.204,-106.397
11561,-0.2080,0.6738,-0.9033,15.625,49.438,26.611,144.575,18.649,-106.320
11571,-0.1299,0.8247,-1.1426,22.095,54.932,30.884,144.822,18.023,-106.249
11581,-0.0957,0.8926,-1.2710,19.897,46.082,26.001,145.036,17.496,-106.194
11591,-0.1118,0.8877,-1.2744,8.911,26.001,13.245,145.140,17.210,-106.150
11601,-0.1675,0.8271,-1.1611,-4.822,-1.526,-2.747,145.096,17.238,-106.139
11611,-0.2363,0.6602,-0.9302,-14.282,-26.917,-16.785,144.948,17.551,-106.155
11621,-0.3154,0.5122,-0.7178,-18.555,-43.030,-25.269,144.750,18.051,-106.199
11631,-0.3691,0.4229,-0.5693,-14.282,-45.105,-25.696,144.591,18.567,-106.249
11641,-0.3940,0.3701,-0.4800,-1.282,-32.898,-17.334,144.558,18.935,-106.304
11651,-0.4043,0.3169,-0.4541,13.794,-14.099,-5.127,144.684,19.078,-106.342
11661,-0.4106,0.3057,-0.5063,22.522,3.845,6.470,144.899,19.012,-106.375
11671,-0.3999,0.3750,-0.6230,22.034,16.968,14.771,145.113,18.787,-106.403
11681,-0.3711,0.4512,-0.7476,14.160,24.353,18.982,145.245,18.479,-106.419
11691,-0.3281,0.5518,-0.8516,5.249,26.306,17.944,145.300,18.160,-106.414
11701,-0.2627,0.6582,-0.9497,-2.808,24.231,13.367,145.283,17.886,-106.386
11711,-0.1982,0.7451,-0.9980,-9.521,18.433,7.996,145.201,17.688,-106.348
11721,-0.1797,0.7803,-0.9873,-12.146,9.216,2.258,145.085,17.600,-106.309
11731,-0.2031,0.7568,-0.9497,-10.193,-1.648,-2.930,144.992,17.628,-106.293
11741,-0.2373,0.6846,-0.8867,-6.409,-10.254,-7.202,144.926,17.754,-106.293
11751,-0.2900,0.5840,-0.7944,-2.808,-14.709,-9.521,144.899,17.930,-106.298
11761,-0.3306,0.4971,-0.7227,-0.366,-15.686,-9.277,144.888,18.111,-106.315
11771,-0.3477,0.4556,-0.6885,1.709,-12.634,-7.202,144.899,18.259,-106.331
11781,-0.3521,0.4385,-0.6660,4.395,-5.676,-3.601,144.943,18.325,-106.331
11791,-0.3413,0.4395,-0.6655,7.446,2.258,0.549,145.020,18.303,-106.326
11801,-0.3081,0.4727,-0.7212,8.240,8.118,4.272,145.107,18.210,-106.315
11811,-0.2905,0.5190,-0.7925,5.981,10.986,6.531,145.168,18.083,-106.304
11821,-0.2886,0.5664,-0.8452,1.160,12.268,7.080,145.184,17.941,-106.293
11831,-0.2783,0.6147,-0.8804,-2.686,11.902,6.165,145.162,17.809,-106.271
11841,-0.2534,0.6689,-0.9277,-5.432,9.216,4.150,145.118,17.710,-106.254
11851,-0.2397,0.6978,-0.9502,-6.409,5.188,1.526,145.058,17.661,-106.232
11861,-0.2510,0.6777,-0.9282,-4.150,0.000,-1.343,145.020,17.666,-106.221
11871,-0.2646,0.6172,-0.8809,-1.282,-6.226,-4.150,145.009,17.743,-106.227
11881,-0.2842,0.5430,-0.8052,-0.366,-11.719,-6.348,144.998,17.875,-106.243
11891,-0.3110,0.4834,-0.7217,-1.770,-14.954,-6.836,144.970,18.034,-106.271
11901,-0.3389,0.4355,-0.6450,-2.441,-13.672,-5.798,144.937,18.182,-106.304
11915,-0.3569,0.4375,-0.6216,-1.709,-7.751,-3.662,144.915,18.265,-106.320
11921,-0.3550,0.4707,-0.6475,0.244,0.854,0.305,144.915,18.254,-106.315
11931,-0.3315,0.5161,-0.7119,2.869,9.277,4.639,144.948,18.155,-106.304
11941,-0.2954,0.5698,-0.8174,4.333,14.893,6.836,145.003,17.990,-106.271
11951,-0.2754,0.6069,-0.8970,2.869,17.029,6.714,145.047,17.814,-106.227
11961,-0.2578,0.6313,-0.9380,-1.404,14.832,4.700,145.047,17.666,-106.177
11971,-0.2383,0.6675,-0.9336,-6.531,8.728,2.136,144.992,17.584,-106.144
11981,-0.2490,0.6558,-0.8838,-6.531,0.488,-0.061,144.926,17.578,-106.139
11991,-0.2734,0.6143,-0.8311,-1.953,-6.287,-1.709,144.904,17.639,-106.161
12001,-0.2905,0.5601,-0.7852,2.991,-8.179,-2.625,144.921,17.721,-106.188
12011,-0.2896,0.5171,-0.7593,5.371,-6.287,-2.502,144.970,17.787,-106.205
12021,-0.2793,0.5190,-0.7671,3.479,-3.479,-1.831,145.003,17.825,-106.210
12031,-0.2891,0.5381,-0.7871,1.099,-0.488,-0.916,145.020,17.836,-106.205
12041,-0.2979,0.5547,-0.8027,-0.061,1.831,-0.366,145.020,17.825,-106.194
12051,-0.3081,0.5698,-0.7783,-0.854,2.014,0.122,145.014,17.803,-106.183
12061,-0.3237,0.5708,-0.7480,0.000,-1.038,1.282,145.009,17.809,-106.199
12071,-0.3271,0.5645,-0.7349,2.991,-3.540,1.892,145.031,17.825,-106.238
12081,-0.3291,0.5562,-0.7305,4.883,-2.747,2.075,145.069,17.836,-106.271
12091,-0.3262,0.5503,-0.7285,5.005,0.122,2.197,145.091,17.842,-106.287
12101,-0.3096,0.5444,-0.7358,4.150,3.296,2.014,145.118,17.809,-106.287
12111,-0.2939,0.5391,-0.7656,2.563,5.737,0.854,145.146,17.754,-106.260
12121,-0.2827,0.5522,-0.8052,0.183,7.202,-0.244,145.168,17.682,-106.210
12131,-0.2812,0.5664,-0.8389,-1.587,7.690,-0.610,145.173,17.600,-106.161
12141,-0.2632,0.5840,-0.8618,-2.869,7.690,-0.488,145.168,17.507,-106.111
12151,-0.2539,0.6030,-0.8716,-3.601,6.775,0.000,145.146,17.413,-106.073
12161,-0.2603,0.5923,-0.8618,-2.808,5.371,0.549,145.129,17.331,-106.046
12171,-0.2642,0.5713,-0.8506,-1.648,3.357,0.183,145.129,17.276,-106.024
12181,-0.2642,0.5542,-0.8481,-1.465,0.854,-0.549,145.135,17.243,-106.013
12191,-0.2666,0.5361,-0.8525,-1.892,-2.197,-0.732,145.140,17.243,-106.024
12201,-0.2705,0.5269,-0.8452,-2.380,-4.883,-0.427,145.140,17.265,-106.046
12212,-0.2744,0.5259,-0.8276,-2.930,-6.531,0.061,145.124,17.298,-106.089
12221,-0.2817,0.5376,-0.8071,-2.869,-6.042,0.916,145.091,17.331,-106.133
12231,-0.2842,0.5410,-0.7861,-1.160,-4.150,2.014,145.074,17.347,-106.172
12241,-0.2930,0.5356,-0.7603,0.671,-2.075,3.357,145.063,17.347,-106.216
12251,-0.3037,0.5298,-0.7412,1.160,-0.854,4.822,145.058,17.336,-106.260
12261,-0.3091,0.5396,-0.7480,0.854,0.488,6.042,145.042,17.309,-106.309
12271,-0.3105,0.5532,-0.7578,0.183,2.197,6.653,145.020,17.265,-106.353
12281,-0.3042,0.5737,-0.7827,-0.793,4.150,6.836,144.987,17.194,-106.386
12291,-0.2935,0.6167,-0.8159,-1.526,5.554,6.409,144.948,17.100,-106.408
12301,-0.2900,0.6372,-0.8330,-0.610,4.395,5.005,144.910,17.023,-106.425
12311,-0.2808,0.6416,-0.8389,0.427,1.465,3.113,144.888,16.968,-106.441
12321,-0.2700,0.6333,-0.8359,0.793,-1.770,0.427,144.871,16.957,-106.458
12331,-0.2686,0.6191,-0.8257,0.549,-3.662,-2.258,144.860,16.974,-106.463
12341,-0.2749,0.5986,-0.8057,0.183,-3.601,-4.089,144.849,17.012,-106.447
12351,-0.2852,0.5742,-0.7866,-0.061,-2.441,-4.822,144.849,17.051,-106.419
12361,-0.2905,0.5449,-0.7729,-0.122,-1.160,-4.944,144.855,17.089,-106.386
12371,-0.2949,0.5269,-0.7690,-0.488,0.366,-4.517,144.871,17.117,-106.342
12381,-0.3008,0.5083,-0.7637,-1.404,2.258,-3.723,144.882,17.128,-106.298
12391,-0.3057,0.4976,-0.7593,-3.296,4.456,-2.625,144.882,17.122,-106.249
12401,-0.3037,0.5132,-0.7593,-4.761,6.226,-1.160,144.860,17.095,-106.205
12411,-0.2959,0.5264,-0.7769,-3.113,6.897,0.854,144.849,17.034,-106.166
12421,-0.2935,0.5278,-0.7954,-0.061,6.470,2.502,144.871,16.968,-106.150
12431,-0.2866,0.5249,-0.8032,1.343,5.188,3.479,144.904,16.902,-106.150
12441,-0.2827,0.5195,-0.8052,0.305,3.296,4.028,144.926,16.848,-106.166
12451,-0.2842,0.5166,-0.8022,-1.831,1.587,4.395,144.921,16.809,-106.194
12461,-0.2847,0.5210,-0.7954,-3.906,0.244,4.517,144.893,16.782,-106.227
12471,-0.2759,0.5308,-0.7959,-5.066,-0.305,4.822,144.844,16.749,-106.271
12481,-0.2656,0.5596,-0.8062,-4.944,-0.122,5.615,144.783,16.699,-106.320
12491,-0.2544,0.5874,-0.8203,-2.747,0.305,6.653,144.739,16.633,-106.375
12501,-0.2485,0.6094,-0.8403,0.000,-0.061,7.263,144.712,16.562,-106.436
12511,-0.2393,0.6450,-0.8652,2.258,-1.648,7.446,144.701,16.490,-106.512
12521,-0.2354,0.6665,-0.8779,4.456,-2.625,7.690,144.701,16.425,-106.595
12531,-0.2383,0.6670,-0.8750,6.470,-2.747,6.836,144.728,16.364,-106.666
12541,-0.2461,0.6514,-0.8633,7.629,-3.174,4.456,144.767,16.331,-106.727
12551,-0.2505,0.6289,-0.8594,6.165,-4.333,1.038,144.811,16.331,-106.760
12561,-0.2627,0.6260,-0.8521,1.770,-6.042,-2.686,144.811,16.370,-106.771
12571,-0.2798,0.6328,-0.8359,-2.441,-8.057,-5.371,144.767,16.452,-106.776
12581,-0.2959,0.6328,-0.8091,-3.418,-9.888,-6.714,144.706,16.567,-106.776
12591,-0.2993,0.6152,-0.7837,-0.549,-10.925,-7.324,144.668,16.699,-106.782
12601,-0.2998,0.5693,-0.7563,3.540,-10.742,-7.446,144.690,16.837,-106.782
12611,-0.3179,0.5034,-0.7256,4.944,-9.216,-7.446,144.745,16.985,-106.776
12621,-0.3359,0.4487,-0.6958,2.014,-7.080,-7.324,144.794,17.133,-106.754
12631,-0.3374,0.4355,-0.6958,-3.052,-4.272,-6.531,144.805,17.254,-106.727
12641,-0.3369,0.4570,-0.7046,-6.348,-0.427,-4.639,144.778,17.331,-106.688
12651,-0.3262,0.5132,-0.7344,-4.761,3.784,-0.977,144.739,17.336,-106.655
12661,-0.3037,0.5522,-0.7788,2.441,8.240,3.845,144.767,17.249,-106.639
12671,-0.2710,0.5747,-0.8228,10.742,12.390,7.507,144.882,17.084,-106.628
12681,-0.2476,0.5913,-0.8696,15.259,14.099,8.911,145.042,16.880,-106.622
12691,-0.2441,0.6055,-0.9058,14.709,12.329,7.385,145.206,16.699,-106.611
12701,-0.2246,0.6357,-0.9526,9.521,7.935,3.967,145.311,16.556,-106.595
12711,-0.2095,0.6763,-0.9780,2.502,3.052,-0.427,145.344,16.469,-106.573
12721,-0.2266,0.6665,-0.9404,-3.418,-2.075,-5.066,145.311,16.458,-106.545
12731,-0.2568,0.6372,-0.8765,-8.423,-8.362,-10.254,145.228,16.551,-106.507
12741,-0.3027,0.5835,-0.7744,-12.512,-14.526,-14.343,145.091,16.760,-106.469
12751,-0.3467,0.5200,-0.6738,-13.611,-18.494,-15.991,144.937,17.056,-106.441
12761,-0.3770,0.4673,-0.6040,-11.963,-18.372,-15.137,144.794,17.380,-106.425
12771,-0.3862,0.4429,-0.5654,-9.033,-14.221,-11.963,144.684,17.672,-106.408
12781,-0.3804,0.4390,-0.5684,-4.822,-6.714,-6.836,144.619,17.869,-106.386
12791,-0.3647,0.4429,-0.6060,0.244,3.052,-1.099,144.619,17.930,-106.359
12801,-0.3511,0.4443,-0.6562,3.723,11.414,3.357,144.684,17.880,-106.320
12811,-0.3242,0.4746,-0.7417,3.418,16.357,5.859,144.756,17.737,-106.271
12821,-0.2808,0.5420,-0.8389,0.000,18.982,7.324,144.800,17.523,-106.221
12831,-0.2422,0.6152,-0.9292,-2.441,19.897,8.423,144.805,17.260,-106.172
12841,-0.2095,0.6689,-1.0068,-1.709,18.494,8.362,144.816,16.990,-106.128
12851,-0.1782,0.7007,-1.0527,0.793,13.733,6.470,144.849,16.749,-106.100
12861,-0.1714,0.6821,-1.0542,3.174,5.432,3.174,144.904,16.600,-106.095
12871,-0.1841,0.6396,-1.0103,2.563,-5.432,-1.099,144.948,16.573,-106.122
12881,-0.2070,0.6025,-0.9409,-2.014,-16.052,-5.615,144.937,16.672,-106.166
12891,-0.2397,0.5752,-0.8667,-6.714,-23.315,-8.606,144.871,16.875,-106.238
12901,-0.2769,0.5396,-0.7910,-8.240,-25.085,-9.583,144.778,17.122,-106.304
12911,-0.3071,0.4985,-0.7295,-7.263,-22.522,-9.460,144.695,17.380,-106.359
12921,-0.3276,0.4722,-0.6924,-6.958,-18.616,-8.301,144.624,17.617,-106.403
12931,-0.3423,0.4746,-0.6777,-8.240,-14.648,-6.042,144.536,17.820,-106.436
12941,-0.3511,0.4883,-0.6782,-8.362,-10.010,-2.319,144.437,17.963,-106.479
12951,-0.3516,0.5005,-0.6963,-6.958,-5.371,1.770,144.355,18.040,-106.529
12961,-0.3428,0.5215,-0.7227,-5.493,-1.526,4.883,144.283,18.051,-106.578
12971,-0.3301,0.5444,-0.7495,-5.066,1.038,6.714,144.212,18.023,-106.628
12981,-0.3179,0.5703,-0.7720,-6.287,2.380,7.568,144.130,17.963,-106.677
12991,-0.3125,0.6001,-0.7900,-7.690,2.991,7.141,144.025,17.891,-106.721
13001,-0.3110,0.6245,-0.7974,-8.301,2.869,5.737,143.915,17.825,-106.754
13011,-0.3145,0.6309,-0.7935,-7.874,1.709,4.089,143.806,17.781,-106.776
13021,-0.3154,0.6309,-0.7788,-7.019,0.244,2.563,143.701,17.765,-106.798
13031,-0.3174,0.6230,-0.7588,-6.348,-0.732,1.343,143.602,17.765,-106.815
13041,-0.3228,0.6118,-0.7378,-6.042,-1.038,0.427,143.503,17.776,-106.826
13051,-0.3267,0.6006,-0.7139,-5.859,-0.793,-0.122,143.410,17.798,-106.826
13061,-0.3291,0.5869,-0.7070,-5.066,0.061,-0.183,143.328,17.820,-106.826
13071,-0.3242,0.5713,-0.7134,-3.662,1.587,-0.061,143.278,17.825,-106.815
13081,-0.3184,0.5698,-0.7275,-2.136,3.601,0.305,143.251,17.803,-106.793
13091,-0.3110,0.5698,-0.7480,-0.427,5.432,0.916,143.245,17.759,-106.771
13101,-0.3096,0.5718,-0.7642,0.916,6.592,1.587,143.262,17.704,-106.738
13111,-0.3013,0.5723,-0.7817,2.441,7.324,2.136,143.300,17.628,-106.710
13121,-0.2866,0.5747,-0.7939,2.991,7.629,2.380,143.350,17.540,-106.683
13131,-0.2847,0.5703,-0.7974,2.869,7.507,2.380,143.394,17.452,-106.655
13141,-0.2822,0.5684,-0.8008,2.136,7.446,2.136,143.437,17.364,-106.628
13151,-0.2832,0.5640,-0.8003,0.671,7.751,2.014,143.465,17.281,-106.595
13161,-0.2822,0.5718,-0.7993,-1.343,7.996,1.831,143.470,17.194,-106.562
13171,-0.2832,0.6079,-0.8101,-1.648,8.179,2.686,143.459,17.095,-106.534
13181,-0.2803,0.6177,-0.8110,0.610,8.240,3.418,143.465,16.996,-106.512
13191,-0.2769,0.6104,-0.8057,2.747,7.874,3.662,143.492,16.891,-106.496
13201,-0.2710,0.6099,-0.8120,3.540,7.202,3.174,143.531,16.798,-106.474
13211,-0.2734,0.6025,-0.8184,3.479,6.409,1.953,143.569,16.716,-106.452
13221,-0.2764,0.5957,-0.8296,1.648,5.249,0.305,143.602,16.661,-106.425
13231,-0.2808,0.5962,-0.8311,-1.343,3.235,-1.282,143.608,16.628,-106.392
13241,-0.2856,0.6025,-0.8276,-4.089,0.732,-2.563,143.575,16.628,-106.364
13251,-0.2876,0.6025,-0.8193,-5.493,-1.282,-3.601,143.531,16.650,-106.342
13261,-0.2866,0.5981,-0.8096,-5.615,-2.808,-4.211,143.481,16.688,-106.326
13271,-0.2827,0.5928,-0.8042,-4.944,-3.662,-4.395,143.437,16.732,-106.309
13281,-0.2764,0.5835,-0.7969,-4.211,-3.723,-4.272,143.399,16.776,-106.298
13291,-0.2646,0.5815,-0.7964,-3.784,-2.747,-4.150,143.372,16.809,-106.282
13301,-0.2578,0.5825,-0.8018,-2.747,-0.732,-4.089,143.361,16.815,-106.249
13311,-0.2529,0.5820,-0.7998,-1.404,1.038,-3.967,143.366,16.804,-106.210
13321,-0.2490,0.5815,-0.8071,-0.732,1.526,-3.906,143.377,16.787,-106.166
13331,-0.2471,0.5840,-0.8169,-1.099,0.916,-3.601,143.388,16.771,-106.133
13341,-0.2417,0.5864,-0.8218,-1.831,-0.305,-3.296,143.388,16.760,-106.106
13351,-0.2388,0.5801,-0.8188,-2.441,-2.075,-3.174,143.383,16.765,-106.095
13361,-0.2295,0.5757,-0.8076,-3.113,-4.395,-3.296,143.361,16.782,-106.095
13371,-0.2324,0.5615,-0.8145,-3.784,-6.897,-3.357,143.339,16.820,-106.106
13381,-0.2988,0.5405,-0.8237,-4.272,-7.629,-3.052,143.322,16.897,-106.128
13391,-0.3091,0.5474,-0.8032,-6.531,-7.080,-1.770,143.278,16.974,-106.161
13401,-0.2915,0.5615,-0.7861,-6.958,-6.897,0.427,143.207,17.023,-106.205
13411,-0.3110,0.5664,-0.7783,-4.822,-6.714,1.831,143.146,17.073,-106.265
13421,-0.3262,0.5757,-0.7598,-2.380,-6.226,2.319,143.102,17.128,-106.320
13431,-0.3301,0.5771,-0.7393,0.061,-5.798,3.052,143.075,17.177,-106.386
13441,-0.3311,0.5645,-0.7280,2.075,-5.310,3.662,143.069,17.227,-106.447
13451,-0.3433,0.5659,-0.7158,2.563,-4.150,3.662,143.064,17.271,-106.507
13461,-0.3437,0.5815,-0.6958,2.075,-2.258,3.845,143.042,17.298,-106.551
13471,-0.3506,0.5854,-0.6938,2.502,-0.183,4.089,143.026,17.314,-106.589
13481,-0.4033,0.5820,-0.6963,3.418,2.686,3.967,143.026,17.336,-106.600
13491,-0.3828,0.6177,-0.6846,2.197,5.066,4.333,142.993,17.325,-106.606
13501,-0.3545,0.6460,-0.6982,3.296,6.653,5.371,142.965,17.271,-106.611
13511,-0.3345,0.6685,-0.7187,6.165,8.423,5.188,142.971,17.188,-106.600
13521,-0.3125,0.6738,-0.7324,8.911,9.521,3.479,143.015,17.095,-106.567
13531,-0.2896,0.6753,-0.7427,10.071,9.460,1.221,143.075,17.001,-106.518
13541,-0.2720,0.6782,-0.7686,9.766,9.094,-0.916,143.146,16.913,-106.458
13551,-0.2661,0.6758,-0.7988,9.827,9.888,-2.930,143.234,16.826,-106.370
13561,-0.2534,0.6782,-0.8291,10.620,12.146,-5.371,143.350,16.727,-106.249
13571,-0.2549,0.6709,-0.8628,11.597,13.672,-7.935,143.492,16.628,-106.095
13581,-0.2578,0.6606,-0.8916,12.451,13.855,-10.437,143.668,16.545,-105.925
13591,-0.2495,0.6230,-0.8608,11.597,12.024,-12.451,143.839,16.490,-105.743
13601,-0.2427,0.5532,-0.8301,9.583,6.653,-15.259,144.003,16.496,-105.573
13611,-0.1851,0.5542,-0.8716,4.883,1.709,-18.616,144.135,16.529,-105.408
13621,-0.1523,0.5732,-0.9038,0.000,0.610,-19.226,144.218,16.551,-105.238
13631,-0.1885,0.5835,-0.8779,-0.366,1.465,-16.968,144.278,16.573,-105.090
13641,-0.2534,0.5552,-0.7944,4.395,0.244,-12.512,144.360,16.622,-104.980
13651,-0.3564,0.3955,-0.6372,12.573,-5.371,-8.789,144.531,16.804,-104.941
13661,-0.4106,0.2734,-0.5273,16.296,-13.611,-8.606,144.772,17.144,-104.947
13671,-0.4355,0.2026,-0.4805,14.343,-20.142,-7.385,145.020,17.578,-105.007
13681,-0.4258,0.1929,-0.5137,11.414,-17.822,-2.258,145.250,17.935,-105.095
13691,-0.3442,0.2812,-0.6611,9.277,-1.831,6.897,145.437,17.990,-105.167
13701,-0.2485,0.4116,-0.8335,10.071,24.963,18.738,145.618,17.650,-105.178
13711,-0.1621,0.5845,-1.0034,11.597,51.453,28.687,145.789,16.974,-105.123
13721,-0.1045,0.7515,-1.1479,14.465,64.392,34.058,145.970,16.128,-105.040
13731,-0.1104,0.8145,-1.2002,18.616,58.472,33.325,146.168,15.348,-104.985
13741,-0.1626,0.8135,-1.1670,18.005,35.645,25.391,146.332,14.826,-104.996
13751,-0.2183,0.7808,-1.1235,11.780,5.615,11.719,146.420,14.656,-105.068
13761,-0.2583,0.7168,-1.0234,2.380,-21.423,-2.197,146.404,14.815,-105.172
13771,-0.2974,0.6226,-0.8862,-7.141,-39.368,-12.878,146.288,15.216,-105.282
13781,-0.3374,0.5581,-0.7505,-14.282,-46.997,-18.921,146.091,15.754,-105.392
13791,-0.3516,0.5298,-0.6353,-16.357,-42.969,-19.714,145.844,16.287,-105.469
13801,-0.3726,0.4946,-0.5366,-11.719,-30.701,-15.076,145.629,16.732,-105.518
13811,-0.3809,0.4561,-0.4902,-2.563,-15.625,-8.545,145.514,17.034,-105.540
13821,-0.3862,0.4346,-0.4873,7.690,-0.549,-2.136,145.525,17.188,-105.524
13831,-0.3652,0.4219,-0.5635,15.625,14.832,3.723,145.668,17.150,-105.469
13841,-0.3296,0.4194,-0.6987,17.822,27.405,6.714,145.909,16.935,-105.364
13851,-0.2920,0.4468,-0.8315,13.367,34.729,5.310,146.146,16.622,-105.205
13861,-0.2412,0.5063,-0.9380,3.723,34.058,2.136,146.288,16.293,-105.029
13871,-0.2173,0.6191,-1.0273,-5.615,26.672,0.122,146.305,16.013,-104.875
13881,-0.1416,0.7241,-1.0913,-7.874,17.578,-0.183,146.255,15.771,-104.771
13891,-0.1357,0.7422,-1.0933,-1.831,8.179,-0.488,146.245,15.606,-104.722
13901,-0.1318,0.6792,-1.0542,6.165,-0.732,-1.282,146.316,15.524,-104.711
13911,-0.1436,0.5835,-0.9761,8.850,-10.620,-2.686,146.426,15.540,-104.749
13921,-0.1675,0.4800,-0.8779,4.883,-19.043,-4.211,146.503,15.661,-104.821
13931,-0.2075,0.4102,-0.7866,-2.869,-23.926,-5.005,146.508,15.864,-104.919
13941,-0.2554,0.3750,-0.7202,-9.338,-23.315,-3.418,146.448,16.089,-105.018
13951,-0.2974,0.3789,-0.6753,-11.475,-15.869,0.793,146.349,16.265,-105.117
13961,-0.3145,0.3931,-0.6582,-9.277,-5.676,7.507,146.255,16.331,-105.216
13971,-0.3335,0.4126,-0.6548,-3.967,4.272,14.404,146.206,16.287,-105.315
13981,-0.3306,0.4551,-0.6963,2.197,13.123,20.142,146.206,16.122,-105.414
13991,-0.3149,0.4893,-0.7583,7.690,16.724,23.499,146.261,15.886,-105.524
14001,-0.2852,0.5298,-0.8252,8.545,15.137,24.414,146.327,15.628,-105.645
14011,-0.2686,0.5752,-0.8633,4.456,9.705,23.254,146.332,15.414,-105.793
14021,-0.2549,0.6338,-0.8872,-1.892,3.784,20.264,146.250,15.249,-105.947
14031,-0.2368,0.6870,-0.9058,-6.592,0.061,15.747,146.118,15.123,-106.078
14041,-0.2310,0.7056,-0.8975,-7.446,-1.892,10.742,145.975,15.046,-106.183
14051,-0.2432,0.7002,-0.8657,-6.653,-4.517,6.287,145.838,15.018,-106.265
14061,-0.2573,0.6938,-0.8276,-5.859,-7.507,3.235,145.706,15.046,-106.337
14071,-0.2642,0.6748,-0.7954,-3.723,-9.644,1.099,145.591,15.112,-106.397
14081,-0.2725,0.6392,-0.7637,-1.343,-11.047,-0.977,145.508,15.211,-106.458
14091,-0.2832,0.6060,-0.7471,0.427,-12.085,-2.930,145.453,15.337,-106.501
14101,-0.2891,0.5815,-0.7383,0.244,-11.902,-4.089,145.410,15.474,-106.534
14111,-0.2910,0.5635,-0.7368,-0.977,-10.315,-4.822,145.366,15.606,-106.556
14121,-0.2925,0.5518,-0.7485,-2.136,-8.057,-5.005,145.327,15.716,-106.562
14131,-0.2891,0.5449,-0.7651,-2.502,-5.066,-4.333,145.294,15.798,-106.556
14141,-0.2827,0.5332,-0.7891,-1.404,-2.319,-2.686,145.289,15.837,-106.545
14151,-0.2720,0.5161,-0.8184,-0.488,0.061,-1.038,145.311,15.842,-106.534
14161,-0.2598,0.5078,-0.8452,-0.732,1.770,0.305,145.344,15.815,-106.529
14171,-0.2510,0.5000,-0.8643,-2.075,2.075,1.526,145.371,15.771,-106.529
14181,-0.2466,0.4956,-0.8672,-3.845,0.854,2.625,145.377,15.732,-106.545
14191,-0.2446,0.4971,-0.8584,-5.432,-1.099,3.357,145.360,15.705,-106.584
14201,-0.2397,0.5137,-0.8540,-5.798,-3.357,3.479,145.322,15.688,-106.633
14211,-0.2393,0.5259,-0.8555,-4.761,-5.310,3.723,145.289,15.688,-106.694
14221,-0.2500,0.5317,-0.8511,-3.052,-7.141,4.089,145.267,15.705,-106.771
14231,-0.2651,0.5342,-0.8433,-2.014,-8.789,4.456,145.245,15.743,-106.864
14241,-0.2656,0.5332,-0.8364,-2.563,-10.376,4.456,145.217,15.798,-106.963
14251,-0.2769,0.5400,-0.8140,-4.089,-12.512,4.089,145.157,15.875,-107.067
14261,-0.2700,0.5522,-0.8013,-5.798,-14.221,3.357,145.074,15.969,-107.183
14271,-0.2642,0.5698,-0.7866,-6.653,-14.282,2.625,144.970,16.062,-107.292
14281,-0.2700,0.6055,-0.7778,-7.080,-11.780,2.319,144.844,16.133,-107.380
14291,-0.2656,0.6216,-0.7769,-5.798,-8.911,2.258,144.734,16.183,-107.452
14301,-0.2573,0.6279,-0.7744,-4.089,-6.897,2.563,144.635,16.205,-107.518
14311,-0.2593,0.6294,-0.7764,-2.991,-5.615,2.686,144.553,16.221,-107.573
14321,-0.2612,0.6309,-0.7759,-2.869,-5.066,2.014,144.476,16.232,-107.622
14331,-0.2671,0.6377,-0.7778,-3.296,-5.249,0.732,144.393,16.260,-107.661
14341,-0.2695,0.6387,-0.7793,-3.662,-6.531,-0.916,144.311,16.304,-107.688
14351,-0.2788,0.6396,-0.7837,-2.869,-6.958,-2.747,144.245,16.364,-107.710
14361,-0.2944,0.6372,-0.7891,-1.526,-5.493,-4.578,144.201,16.436,-107.704
14371,-0.3018,0.6265,-0.7944,-0.488,-3.906,-6.226,144.179,16.507,-107.677
14381,-0.3022,0.6182,-0.7944,-0.061,-2.991,-7.141,144.168,16.573,-107.633
14391,-0.2993,0.6074,-0.7925,0.549,-1.526,-6.897,144.174,16.628,-107.584
14401,-0.2959,0.5928,-0.7837,1.526,0.549,-6.226,144.190,16.661,-107.529
14411,-0.2935,0.5752,-0.7798,2.441,2.136,-5.676,144.223,16.677,-107.468
14421,-0.2915,0.5586,-0.7866,2.625,2.930,-5.554,144.272,16.688,-107.402
14431,-0.2891,0.5479,-0.7856,1.953,3.052,-5.615,144.322,16.694,-107.336
14441,-0.2871,0.5415,-0.7891,0.854,2.869,-5.493,144.360,16.705,-107.271
14451,-0.2861,0.5312,-0.7900,0.061,2.625,-4.944,144.393,16.710,-107.216
14461,-0.2847,0.5254,-0.7944,-0.488,2.563,-4.272,144.426,16.716,-107.161
14471,-0.2808,0.5229,-0.7998,-1.038,2.502,-3.418,144.448,16.710,-107.117
14481,-0.2754,0.5273,-0.8086,-1.282,2.502,-2.441,144.470,16.699,-107.084
14491,-0.2695,0.5298,-0.8213,-1.221,2.686,-1.221,144.492,16.672,-107.056
14501,-0.2681,0.5273,-0.8281,-0.732,2.808,0.244,144.520,16.633,-107.040
14511,-0.2676,0.5273,-0.8345,-0.427,2.319,1.465,144.547,16.589,-107.040
14521,-0.2690,0.5352,-0.8379,-0.122,1.282,2.441,144.575,16.551,-107.051
14531,-0.2646,0.5522,-0.8477,0.427,0.122,3.174,144.597,16.512,-107.078
14541,-0.2710,0.5664,-0.8525,1.648,-0.854,3.967,144.619,16.479,-107.117
14551,-0.2847,0.5815,-0.8511,3.174,-1.465,4.639,144.646,16.458,-107.166
14561,-0.3003,0.5996,-0.8354,4.639,-2.563,5.066,144.673,16.447,-107.227
14571,-0.3052,0.6123,-0.8223,6.165,-3.906,4.700,144.701,16.452,-107.287
14581,-0.3013,0.6157,-0.8047,7.629,-5.066,3.601,144.739,16.474,-107.347
14591,-0.2935,0.6094,-0.7832,8.423,-6.104,1.892,144.783,16.512,-107.402
14601,-0.3003,0.5923,-0.7593,7.996,-7.141,0.061,144.822,16.578,-107.446
14611,-0.3115,0.5913,-0.7393,5.981,-7.568,-1.465,144.838,16.661,-107.479
14621,-0.3140,0.5869,-0.7202,4.333,-6.531,-2.319,144.833,16.749,-107.496
14631,-0.3115,0.5859,-0.7075,3.906,-3.967,-2.563,144.827,16.815,-107.501
14641,-0.3066,0.5859,-0.7051,4.883,-0.488,-2.563,144.833,16.853,-107.479
14651,-0.2969,0.5830,-0.7168,6.287,2.625,-2.625,144.866,16.853,-107.441
14661,-0.2876,0.5820,-0.7354,7.446,5.066,-2.563,144.926,16.831,-107.391
14671,-0.2876,0.5806,-0.7627,8.179,6.836,-2.380,145.003,16.787,-107.331
14681,-0.2798,0.5864,-0.7881,9.338,7.874,-2.075,145.096,16.727,-107.265
14691,-0.2734,0.5908,-0.8174,12.512,8.423,-1.709,145.228,16.650,-107.199
14701,-0.2690,0.5776,-0.8511,16.602,8.423,-1.099,145.415,16.567,-107.139
14711,-0.2627,0.5581,-0.8765,19.592,8.362,-1.099,145.646,16.485,-107.078
14721,-0.2603,0.5483,-0.8931,19.897,8.179,-2.075,145.893,16.403,-107.012
14731,-0.2637,0.5298,-0.8911,17.151,7.324,-3.784,146.113,16.342,-106.941
14741,-0.2734,0.5166,-0.8843,11.475,5.371,-6.104,146.288,16.320,-106.853
14751,-0.2773,0.5239,-0.8730,4.211,2.747,-8.362,146.382,16.331,-106.765
14761,-0.2720,0.5415,-0.8662,-1.831,0.244,-9.644,146.404,16.370,-106.683
14771,-0.2700,0.5493,-0.8555,-5.615,-1.648,-10.193,146.376,16.419,-106.600
14781,-0.2788,0.5498,-0.8311,-7.385,-3.113,-10.315,146.327,16.496,-106.529
14791,-0.2935,0.5386,-0.7959,-7.874,-4.944,-10.193,146.261,16.595,-106.469
14801,-0.3052,0.5176,-0.7695,-7.446,-6.409,-9.827,146.201,16.721,-106.425
14811,-0.3135,0.4961,-0.7485,-6.592,-6.775,-9.155,146.151,16.853,-106.381
14821,-0.3232,0.4780,-0.7231,-5.676,-5.859,-7.935,146.107,16.979,-106.348
14831,-0.3257,0.4629,-0.7134,-4.761,-3.784,-6.287,146.080,17.084,-106.315
14841,-0.3188,0.4644,-0.7217,-4.150,-0.549,-4.211,146.058,17.144,-106.282
14851,-0.3110,0.4731,-0.7373,-2.991,3.845,-1.587,146.052,17.150,-106.243
14861,-0.3003,0.4746,-0.7549,-0.916,8.179,1.099,146.069,17.089,-106.205
14871,-0.2944,0.4751,-0.7803,0.488,11.169,3.235,146.113,16.985,-106.172
14881,-0.2896,0.4893,-0.8149,0.366,12.573,4.761,146.157,16.859,-106.139
14891,-0.2749,0.5093,-0.8555,-0.366,12.939,5.737,146.190,16.705,-106.111
14901,-0.2524,0.5322,-0.8936,-1.038,12.268,6.287,146.212,16.540,-106.095
14911,-0.2319,0.5562,-0.9316,-1.160,10.193,6.409,146.234,16.375,-106.095
14921,-0.2207,0.5791,-0.9600,-1.160,6.653,6.042,146.245,16.232,-106.106
14931,-0.2197,0.5898,-0.9668,-1.160,1.831,5.493,146.245,16.139,-106.144
14941,-0.2266,0.5913,-0.9561,-1.831,-3.845,4.517,146.234,16.095,-106.205
14951,-0.2388,0.5815,-0.9263,-3.113,-9.644,3.052,146.195,16.122,-106.287
14961,-0.2568,0.5674,-0.8823,-4.700,-14.832,1.343,146.129,16.210,-106.386
14971,-0.2744,0.5591,-0.8379,-6.104,-18.677,0.000,146.041,16.353,-106.490
14981,-0.2866,0.5566,-0.7993,-6.714,-20.325,-0.671,145.937,16.529,-106.606
14991,-0.3013,0.5537,-0.7656,-6.653,-19.653,-0.732,145.822,16.705,-106.716
15001,-0.3130,0.5493,-0.7466,-5.676,-17.395,-0.305,145.717,16.870,-106.815
15011,-0.3237,0.5449,-0.7295,-4.639,-14.221,0.305,145.618,17.007,-106.897
15021,-0.3237,0.5454,-0.7090,-4.639,-11.169,0.977,145.519,17.122,-106.974
15031,-0.3223,0.5527,-0.6978,-5.493,-8.179,1.343,145.410,17.210,-107.034
15041,-0.3276,0.5713,-0.6953,-6.104,-4.883,1.404,145.289,17.271,-107.073
15051,-0.3296,0.5864,-0.6982,-5.432,-0.854,1.587,145.179,17.292,-107.095
15061,-0.3218,0.5933,-0.7051,-3.357,3.540,1.770,145.091,17.276,-107.089
15071,-0.3174,0.5933,-0.7251,-0.671,7.446,1.892,145.052,17.221,-107.062
15081,-0.3154,0.5874,-0.7510,1.526,10.071,1.770,145.047,17.139,-107.012
15091,-0.3086,0.5815,-0.7769,2.380,11.292,1.160,145.069,17.045,-106.957
15101,-0.3018,0.5830,-0.8047,1.648,11.230,0.122,145.096,16.952,-106.891
15111,-0.2964,0.5869,-0.8296,0.427,10.437,-1.038,145.118,16.864,-106.820
15121,-0.2905,0.5923,-0.8564,-0.549,9.094,-2.380,145.135,16.793,-106.743
15131,-0.2891,0.6001,-0.8774,-0.854,7.568,-3.601,145.151,16.738,-106.666
15141,-0.2837,0.5996,-0.8804,-0.366,5.493,-4.639,145.173,16.699,-106.595
15151,-0.2822,0.5903,-0.8765,0.000,2.869,-5.676,145.201,16.688,-106.529
15161,-0.2812,0.5776,-0.8613,0.061,0.000,-6.653,145.228,16.710,-106.474
15171,-0.2822,0.5601,-0.8359,-0.183,-2.441,-7.568,145.250,16.765,-106.425
15181,-0.2871,0.5410,-0.8105,-0.610,-3.906,-8.179,145.267,16.837,-106.375
15191,-0.2905,0.5249,-0.7920,-1.343,-4.517,-8.362,145.278,16.924,-106.331
15201,-0.2896,0.5142,-0.7754,-2.075,-4.211,-7.935,145.283,17.007,-106.287
15212,-0.2871,0.5083,-0.7646,-2.441,-3.052,-6.897,145.283,17.073,-106.249
15221,-0.2896,0.5015,-0.7607,-2.441,-1.160,-5.493,145.283,17.122,-106.205
15231,-0.2925,0.5024,-0.7637,-2.014,1.099,-3.784,145.289,17.139,-106.166
15241,-0.2920,0.5137,-0.7734,-1.160,3.540,-1.648,145.300,17.122,-106.133
15251,-0.2847,0.5190,-0.7866,0.854,5.737,0.793,145.327,17.067,-106.106
15261,-0.2798,0.5186,-0.8022,3.235,7.202,2.869,145.382,16.985,-106.084
15271,-0.2778,0.5166,-0.8184,4.761,7.629,4.272,145.453,16.891,-106.078
15281,-0.2749,0.5205,-0.8330,4.700,7.019,5.188,145.525,16.793,-106.078
15291,-0.2642,0.5386,-0.8584,3.906,5.554,5.615,145.585,16.694,-106.095
15301,-0.2612,0.5566,-0.8867,3.357,3.479,5.554,145.635,16.606,-106.122
15311,-0.2632,0.5649,-0.8984,3.540,1.099,5.188,145.679,16.540,-106.161
15321,-0.2690,0.5654,-0.8940,3.174,-1.526,4.517,145.717,16.507,-106.210
15331,-0.2744,0.5654,-0.8804,1.587,-4.578,3.540,145.734,16.507,-106.265
15341,-0.2861,0.5664,-0.8618,-0.427,-7.446,2.319,145.723,16.545,-106.331
15351,-0.2949,0.5708,-0.8354,-2.075,-9.094,0.977,145.684,16.611,-106.392
15361,-0.2998,0.5713,-0.8047,-2.686,-9.583,-0.061,145.629,16.694,-106.447
15371,-0.3047,0.5679,-0.7700,-2.625,-9.460,-0.732,145.569,16.782,-106.496
15381,-0.3071,0.5610,-0.7446,-2.075,-8.667,-0.977,145.508,16.875,-106.540
15391,-0.3105,0.5562,-0.7266,-1.587,-7.202,-1.038,145.453,16.957,-106.573
15401,-0.3125,0.5547,-0.7168,-1.160,-5.005,-0.671,145.404,17.023,-106.600
15411,-0.3120,0.5571,-0.7187,-0.793,-2.258,-0.183,145.360,17.062,-106.611
15421,-0.3096,0.5625,-0.7300,-0.366,0.793,0.488,145.327,17.067,-106.611
15431,-0.3057,0.5674,-0.7461,0.183,3.723,0.977,145.311,17.040,-106.595
15441,-0.3027,0.5728,-0.7671,0.549,5.859,1.160,145.300,16.990,-106.573
15451,-0.2910,0.5811,-0.7910,0.671,6.958,1.038,145.300,16.924,-106.540
15461,-0.2793,0.5815,-0.8174,0.488,7.202,0.671,145.311,16.848,-106.501
15471,-0.2725,0.5806,-0.8403,0.000,6.836,0.000,145.322,16.776,-106.463
15481,-0.2720,0.5776,-0.8545,-0.366,6.042,-0.732,145.333,16.710,-106.419
15491,-0.2729,0.5718,-0.8599,-0.488,4.822,-1.404,145.355,16.661,-106.375
15501,-0.2720,0.5659,-0.8618,-0.610,3.174,-2.014,145.371,16.622,-106.342
15511,-0.2764,0.5557,-0.8594,-0.793,1.343,-2.625,145.388,16.611,-106.309
15521,-0.2803,0.5493,-0.8462,-1.160,-0.793,-2.991,145.399,16.628,-106.293
15531,-0.2866,0.5381,-0.8306,-1.770,-2.747,-3.174,145.399,16.661,-106.282
15541,-0.2944,0.5298,-0.8164,-2.197,-4.028,-2.930,145.399,16.710,-106.276
15551,-0.3037,0.5308,-0.8027,-2.014,-4.333,-2.319,145.388,16.771,-106.282
15561,-0.3066,0.5264,-0.7876,-1.221,-3.967,-1.404,145.377,16.820,-106.293
15571,-0.3110,0.5190,-0.7749,-0.305,-3.357,-0.427,145.377,16.870,-106.309
15581,-0.3154,0.5225,-0.7686,0.183,-2.502,0.488,145.382,16.902,-106.331
15591,-0.3149,0.5308,-0.7646,0.671,-1.282,1.404,145.377,16.924,-106.348
15601,-0.3076,0.5400,-0.7666,1.648,0.305,2.441,145.382,16.919,-106.370
15611,-0.2939,0.5552,-0.7764,2.930,2.075,3.296,145.399,16.886,-106.386
15621,-0.2842,0.5688,-0.7944,4.333,3.418,4.028,145.426,16.831,-106.397
15631,-0.2729,0.5864,-0.8076,6.042,3.723,4.578,145.470,16.760,-106.419
15641,-0.2637,0.5952,-0.8262,8.850,3.235,5.310,145.536,16.677,-106.441
15651,-0.2515,0.5933,-0.8481,12.207,2.441,5.798,145.640,16.595,-106.479
15661,-0.2505,0.5859,-0.8691,14.832,1.160,5.676,145.783,16.523,-106.523
15671,-0.2466,0.5791,-0.8804,15.808,-0.732,4.944,145.931,16.469,-106.567
15681,-0.2451,0.5630,-0.8916,13.977,-2.930,3.601,146.074,16.441,-106.617
15691,-0.2466,0.5532,-0.8960,9.155,-4.700,1.221,146.179,16.441,-106.655
15701,-0.2700,0.5464,-0.8804,2.136,-5.737,-2.136,146.217,16.479,-106.666
15712,-0.2939,0.5435,-0.8433,-5.615,-6.897,-5.310,146.173,16.562,-106.661
15721,-0.3184,0.5352,-0.8027,-12.268,-8.179,-7.996,146.058,16.694,-106.639
15731,-0.3389,0.5264,-0.7627,-16.663,-8.972,-10.071,145.893,16.853,-106.606
15741,-0.3564,0.5103,-0.7212,-18.555,-8.667,-10.864,145.712,17.040,-106.562
15751,-0.3740,0.5049,-0.6792,-18.311,-7.568,-9.949,145.519,17.221,-106.523
15761,-0.3735,0.5215,-0.6567,-14.771,-5.859,-6.836,145.338,17.375,-106.496
15771,-0.3618,0.5449,-0.6611,-5.981,-2.563,-1.587,145.234,17.463,-106.501
15781,-0.3691,0.5459,-0.6533,7.019,2.502,4.395,145.245,17.479,-106.523
15791,-0.3838,0.5044,-0.6299,19.836,7.568,9.155,145.393,17.441,-106.556
15801,-0.3843,0.4482,-0.6094,25.818,10.559,10.437,145.624,17.391,-106.584
15811,-0.3623,0.4316,-0.6436,21.057,12.451,7.812,145.838,17.325,-106.578
15821,-0.3154,0.4775,-0.7290,7.935,16.113,3.296,145.942,17.199,-106.512
15831,-0.2686,0.5762,-0.8193,-6.409,22.278,0.122,145.909,16.996,-106.381
15841,-0.2197,0.7056,-0.9321,-14.954,29.175,0.000,145.778,16.694,-106.210
15851,-0.1675,0.8110,-1.0361,-12.329,34.485,2.258,145.673,16.304,-106.029
15861,-0.1470,0.8301,-1.0640,-0.671,35.156,3.967,145.673,15.892,-105.853
15871,-0.1543,0.7607,-1.0425,11.536,28.442,2.319,145.811,15.557,-105.705
15881,-0.1934,0.6401,-0.9819,18.738,13.428,-2.014,146.036,15.397,-105.612
15891,-0.2310,0.5264,-0.9087,18.433,-5.188,-7.812,146.266,15.452,-105.573
15901,-0.2729,0.4341,-0.8335,12.085,-20.447,-14.038,146.448,15.705,-105.573
15911,-0.3101,0.3857,-0.7715,3.235,-26.672,-17.700,146.547,16.062,-105.573
15921,-0.3242,0.3779,-0.7256,-4.822,-23.682,-17.517,146.563,16.408,-105.557
15931,-0.3345,0.3945,-0.6978,-9.155,-13.428,-13.916,146.525,16.661,-105.513
15941,-0.3350,0.4233,-0.6943,-8.545,0.610,-7.812,146.481,16.754,-105.441
15951,-0.3320,0.4458,-0.7207,-3.418,13.123,-0.549,146.492,16.694,-105.359
15961,-0.3208,0.4546,-0.7563,3.052,21.484,6.714,146.563,16.512,-105.293
15971,-0.3027,0.4595,-0.8013,7.263,24.414,11.780,146.684,16.265,-105.255
15981,-0.2769,0.4829,-0.8408,6.042,22.339,14.160,146.777,15.996,-105.249
15991,-0.2397,0.5151,-0.8896,2.380,17.090,13.550,146.827,15.754,-105.271
16001,-0.2090,0.5522,-0.9360,-1.221,10.559,10.681,146.832,15.562,-105.304
16011,-0.1831,0.6152,-0.9751,-4.272,5.920,7.019,146.794,15.408,-105.331
16021,-0.1738,0.6714,-0.9922,-5.371,2.380,4.150,146.722,15.293,-105.353
16031,-0.1880,0.6816,-0.9634,-1.282,-0.488,2.869,146.684,15.222,-105.381
16041,-0.2026,0.6567,-0.9336,6.653,-3.418,2.075,146.722,15.183,-105.419
16051,-0.2280,0.5732,-0.8560,13.184,-7.629,1.221,146.832,15.216,-105.474
16061,-0.2979,0.3984,-0.6904,14.343,-15.320,-0.732,146.986,15.397,-105.557
16071,-0.3545,0.2905,-0.5845,6.409,-27.161,-4.333,147.085,15.776,-105.672
16081,-0.3740,0.2329,-0.5679,-6.409,-35.522,-7.019,147.090,16.265,-105.809
16091,-0.3228,0.3706,-0.7095,-21.240,-30.212,-5.859,146.898,16.606,-105.930
16101,-0.2500,0.6094,-0.9023,-27.954,-6.226,2.380,146.596,16.611,-105.985
16111,-0.1948,0.7607,-1.0107,-19.714,24.658,14.160,146.371,16.249,-105.969
16121,-0.1880,0.8237,-1.0190,-5.310,45.837,21.790,146.288,15.672,-105.892
16131,-0.2153,0.7773,-0.9624,9.216,44.800,20.325,146.349,15.134,-105.809
16141,-0.2446,0.6670,-0.8931,16.235,24.597,11.414,146.492,14.843,-105.765
16151,-0.2856,0.5605,-0.8149,11.658,-4.456,-0.549,146.591,14.892,-105.787
16161,-0.3262,0.4951,-0.7456,-0.122,-28.931,-10.254,146.569,15.238,-105.864
16171,-0.3452,0.4644,-0.6934,-8.362,-39.673,-13.855,146.453,15.716,-105.969
16181,-0.3340,0.4980,-0.6743,-10.864,-34.851,-11.963,146.288,16.128,-106.068
16191,-0.3203,0.5317,-0.6738,-5.493,-18.005,-5.981,146.173,16.353,-106.117
16201,-0.3096,0.5259,-0.6841,5.981,2.380,1.282,146.201,16.359,-106.117
16212,-0.2969,0.5210,-0.7183,16.174,17.090,6.592,146.349,16.205,-106.073
16221,-0.2671,0.5156,-0.7744,20.264,22.522,9.216,146.563,15.969,-106.024
16231,-0.2402,0.5249,-0.8452,16.785,21.362,9.155,146.755,15.716,-105.980
