elapsed_ms,acc_x_g,acc_y_g,acc_z_g,gyro_x_dps,gyro_y_dps,gyro_z_dps,angle_x_deg,angle_y_deg,angle_z_deg
0,-0.3716,0.5283,-0.8281,0.977,0.427,0.610,147.865,22.390,-76.141
10,-0.3726,0.5249,-0.8247,0.366,-0.488,-0.122,147.865,22.379,-76.141
20,-0.3750,0.5195,-0.8208,-0.305,-1.648,-0.793,147.859,22.385,-76.141
30,-0.3779,0.5137,-0.8135,-0.977,-2.869,-1.465,147.849,22.407,-76.146
40,-0.3843,0.5063,-0.8062,-1.526,-3.906,-1.953,147.832,22.445,-76.152
50,-0.3906,0.5010,-0.7974,-2.075,-4.700,-2.136,147.810,22.495,-76.157
60,-0.3970,0.4956,-0.7896,-2.014,-5.066,-2.014,147.783,22.555,-76.168
70,-0.4009,0.4917,-0.7837,-1.343,-5.005,-1.831,147.766,22.615,-76.179
80,-0.4062,0.4927,-0.7837,-0.549,-4.639,-1.526,147.761,22.670,-76.196
90,-0.4053,0.4897,-0.7827,0.244,-4.211,-1.099,147.755,22.725,-76.207
100,-0.4067,0.4902,-0.7812,0.671,-4.150,-0.610,147.755,22.775,-76.229
110,-0.4067,0.4912,-0.7837,0.916,-4.700,-0.183,147.761,22.824,-76.251
120,-0.4023,0.4917,-0.7832,1.038,-5.493,0.183,147.755,22.874,-76.284
130,-0.4038,0.4888,-0.7812,1.038,-6.042,0.549,147.755,22.928,-76.328
140,-0.4009,0.4893,-0.7817,1.038,-5.981,0.854,147.750,22.983,-76.366
150,-0.4004,0.4917,-0.7852,0.977,-5.432,1.099,147.744,23.027,-76.410
160,-0.4014,0.4917,-0.7871,0.916,-4.272,1.465,147.744,23.055,-76.448
170,-0.4009,0.4937,-0.7896,0.854,-2.625,1.831,147.739,23.071,-76.481
180,-0.4004,0.5000,-0.7876,0.977,-0.977,2.319,147.739,23.071,-76.509
190,-0.4028,0.4961,-0.7871,1.465,0.366,2.686,147.744,23.055,-76.531
200,-0.3960,0.4985,-0.7954,1.892,1.343,2.808,147.761,23.027,-76.547
210,-0.3789,0.5171,-0.8154,2.625,2.319,2.808,147.777,22.978,-76.558
220,-0.3574,0.5547,-0.8491,2.930,3.662,3.296,147.794,22.896,-76.569
230,-0.3506,0.5630,-0.8735,3.662,5.676,3.479,147.827,22.786,-76.569
240,-0.3672,0.5508,-0.8672,2.930,6.287,2.197,147.859,22.692,-76.553
250,-0.3955,0.5059,-0.8149,-0.305,3.479,-0.549,147.865,22.659,-76.525
260,-0.4175,0.4609,-0.7622,-5.798,-3.967,-4.150,147.827,22.742,-76.514
270,-0.4448,0.4243,-0.7158,-12.329,-13.245,-6.714,147.711,22.939,-76.525
280,-0.4658,0.4116,-0.6646,-17.700,-21.667,-7.141,147.519,23.236,-76.586
290,-0.5010,0.3916,-0.6177,-18.799,-26.184,-5.188,147.294,23.599,-76.690
300,-0.5137,0.3774,-0.5869,-15.198,-28.137,-2.014,147.085,23.967,-76.838
310,-0.4956,0.3994,-0.6201,-6.775,-26.123,1.648,146.948,24.274,-77.009
320,-0.4414,0.5034,-0.7290,5.676,-18.982,7.263,146.915,24.417,-77.190
330,-0.3623,0.6138,-0.8647,22.217,-3.601,16.357,147.041,24.302,-77.360
339,-0.3022,0.6499,-0.9668,39.795,17.029,25.818,147.371,23.923,-77.498
349,-0.2739,0.6289,-0.9863,51.147,36.377,30.273,147.854,23.351,-77.563
360,-0.3027,0.5591,-0.9229,53.162,44.495,28.625,148.387,22.753,-77.569
370,-0.3545,0.4731,-0.8589,46.509,37.170,21.484,148.881,22.297,-77.558
380,-0.3926,0.4199,-0.8188,31.982,16.541,13.245,149.227,22.099,-77.585
390,-0.4106,0.4131,-0.8052,12.268,-6.531,8.118,149.343,22.137,-77.695
400,-0.3906,0.4810,-0.8379,-5.249,-23.315,4.578,149.233,22.313,-77.871
410,-0.3477,0.5532,-0.8872,-14.221,-28.687,2.319,149.013,22.505,-78.047
420,-0.3140,0.6250,-0.9258,-13.733,-22.522,2.563,148.788,22.615,-78.201
430,-0.3057,0.6465,-0.9229,-4.700,-9.827,3.662,148.672,22.604,-78.289
440,-0.3354,0.5610,-0.8662,7.507,0.061,3.479,148.716,22.538,-78.322
450,-0.3960,0.4771,-0.7734,12.939,0.061,2.258,148.832,22.538,-78.338
460,-0.4609,0.3618,-0.6929,12.024,-8.362,-0.366,148.975,22.692,-78.382
470,-0.5049,0.3042,-0.6387,3.235,-21.362,-2.014,149.024,23.011,-78.486
480,-0.4873,0.3491,-0.6704,-7.996,-32.349,-2.258,148.914,23.395,-78.646
490,-0.4463,0.4341,-0.7593,-14.160,-32.593,-0.427,148.716,23.708,-78.821
500,-0.3896,0.5347,-0.8506,-13.977,-20.447,3.174,148.513,23.840,-78.970
510,-0.3418,0.6011,-0.9082,-6.409,-1.221,7.019,148.398,23.752,-79.041
520,-0.3252,0.5840,-0.9170,5.249,17.761,8.789,148.453,23.483,-79.019
530,-0.3618,0.5225,-0.8438,10.986,27.832,8.057,148.590,23.176,-78.937
540,-0.4229,0.4326,-0.7378,9.521,23.437,3.540,148.733,22.989,-78.838
550,-0.4702,0.3789,-0.6743,0.793,7.141,-1.587,148.782,23.022,-78.783
560,-0.4951,0.3809,-0.6401,-10.254,-12.390,-3.357,148.672,23.247,-78.821
570,-0.4678,0.4429,-0.6821,-15.259,-27.283,-2.686,148.453,23.560,-78.948
580,-0.4077,0.5498,-0.7964,-12.329,-29.114,1.831,148.228,23.785,-79.135
590,-0.3286,0.6724,-0.9414,0.183,-15.320,8.850,148.123,23.791,-79.305
600,-0.2632,0.7158,-1.0410,18.372,8.789,14.465,148.244,23.522,-79.387
610,-0.2471,0.6704,-1.0386,31.555,30.762,16.541,148.557,23.055,-79.365
620,-0.2979,0.5820,-0.9214,34.607,39.001,13.672,148.925,22.577,-79.272
630,-0.3906,0.4287,-0.7886,27.466,27.588,5.432,149.266,22.324,-79.167
640,-0.4683,0.3262,-0.6885,7.568,-0.061,-3.906,149.409,22.440,-79.129
650,-0.5024,0.3550,-0.6445,-16.235,-28.809,-10.193,149.238,22.852,-79.195
660,-0.4771,0.4175,-0.6914,-28.625,-48.279,-14.160,148.898,23.412,-79.332
670,-0.4375,0.5059,-0.7808,-30.212,-51.147,-11.902,148.513,23.923,-79.508
680,-0.4072,0.5659,-0.8320,-20.020,-36.865,-6.042,148.222,24.247,-79.662
690,-0.3892,0.5605,-0.8291,-3.723,-14.954,-0.671,148.134,24.346,-79.739
700,-0.4072,0.4966,-0.7817,10.864,3.845,2.930,148.233,24.296,-79.744
710,-0.4268,0.4458,-0.7388,17.761,14.221,4.028,148.431,24.175,-79.700
720,-0.4312,0.4307,-0.7368,16.663,14.160,3.845,148.629,24.060,-79.656
730,-0.4326,0.4316,-0.7510,11.108,8.545,3.601,148.760,23.994,-79.640
740,-0.4160,0.4707,-0.7930,3.174,2.625,3.174,148.788,23.961,-79.656
750,-0.3760,0.5503,-0.8647,-3.418,1.465,2.502,148.738,23.895,-79.673
760,-0.3530,0.5791,-0.9004,-5.127,4.944,1.343,148.678,23.791,-79.656
770,-0.3535,0.5737,-0.8955,-4.089,8.423,-1.099,148.651,23.670,-79.596
780,-0.3647,0.5630,-0.8701,-2.930,9.338,-3.906,148.640,23.571,-79.508
790,-0.4150,0.4790,-0.7896,-3.113,4.211,-7.019,148.645,23.577,-79.420
800,-0.4731,0.3818,-0.6846,-8.240,-8.972,-10.132,148.601,23.780,-79.376
810,-0.4980,0.3735,-0.6416,-16.235,-24.292,-11.902,148.442,24.148,-79.404
820,-0.4644,0.4253,-0.6982,-19.470,-31.921,-11.536,148.222,24.532,-79.475
830,-0.3901,0.5210,-0.8057,-16.846,-27.039,-7.507,148.008,24.774,-79.563
840,-0.3979,0.5903,-0.8789,-7.690,-11.230,-0.977,147.887,24.829,-79.618
850,-0.3545,0.5786,-0.8760,5.066,9.033,4.150,147.931,24.670,-79.607
860,-0.3975,0.5112,-0.8267,14.099,23.315,5.737,148.107,24.423,-79.525
870,-0.4258,0.4546,-0.7617,14.893,25.513,3.357,148.315,24.203,-79.409
880,-0.4634,0.3906,-0.7178,9.583,14.954,-1.465,148.480,24.137,-79.305
890,-0.4604,0.4087,-0.7129,-2.136,0.244,-3.540,148.491,24.203,-79.272
900,-0.4185,0.4922,-0.7764,-10.864,-9.094,-3.174,148.365,24.302,-79.294
910,-0.3823,0.5498,-0.8525,-10.315,-10.803,-1.282,148.233,24.362,-79.343
920,-0.3628,0.5835,-0.8760,-4.822,-3.723,1.343,148.151,24.335,-79.382
930,-0.3882,0.5107,-0.8267,3.357,3.906,1.831,148.189,24.263,-79.376
940,-0.4272,0.4634,-0.7837,6.958,4.700,0.061,148.282,24.236,-79.349
950,-0.4512,0.4404,-0.7539,6.409,0.488,-1.648,148.365,24.269,-79.327
960,-0.4585,0.4287,-0.7319,2.747,-7.263,-1.343,148.392,24.379,-79.360
970,-0.4380,0.4785,-0.7642,-2.197,-12.207,0.427,148.337,24.494,-79.431
980,-0.3955,0.5371,-0.8276,-2.808,-10.132,2.319,148.260,24.543,-79.514
990,-0.3652,0.5732,-0.8711,-0.793,-1.892,3.601,148.222,24.489,-79.557
1000,-0.3735,0.5405,-0.8447,3.418,7.446,2.625,148.255,24.368,-79.541
1010,-0.4121,0.4746,-0.7876,5.737,10.071,-0.305,148.343,24.285,-79.475
1020,-0.4404,0.4448,-0.7617,3.479,4.822,-3.662,148.414,24.285,-79.415
1030,-0.4375,0.4600,-0.7749,-1.221,-3.174,-4.578,148.420,24.351,-79.393
1040,-0.4243,0.4897,-0.7979,-5.798,-7.874,-2.930,148.359,24.434,-79.409
1050,-0.4004,0.5234,-0.8247,-7.324,-6.958,-0.732,148.266,24.478,-79.442
1060,-0.3745,0.5547,-0.8555,-4.883,-1.587,0.122,148.200,24.445,-79.453
1070,-0.3530,0.5898,-0.8823,0.000,4.944,-0.061,148.189,24.340,-79.426
1080,-0.3682,0.5308,-0.8472,5.188,8.972,-0.916,148.266,24.230,-79.365
1090,-0.4185,0.4624,-0.7798,5.188,5.676,-2.930,148.348,24.203,-79.305
1100,-0.4780,0.3804,-0.7031,0.305,-4.395,-6.042,148.398,24.340,-79.272
1110,-0.5088,0.3530,-0.6621,-8.545,-17.700,-7.874,148.337,24.626,-79.299
1120,-0.4800,0.4258,-0.7061,-14.343,-26.489,-7.263,148.167,24.944,-79.387
1130,-0.4438,0.4751,-0.7749,-12.329,-23.132,-3.479,148.008,25.170,-79.486
1140,-0.3945,0.5435,-0.8447,-5.310,-10.620,1.892,147.909,25.208,-79.568
1150,-0.3589,0.5732,-0.8853,5.554,6.287,5.981,147.947,25.060,-79.585
1160,-0.3662,0.5264,-0.8657,15.015,19.958,7.812,148.123,24.802,-79.541
1170,-0.3906,0.5029,-0.8262,16.418,23.499,7.324,148.321,24.538,-79.475
1180,-0.4390,0.4316,-0.7642,13.062,16.357,4.456,148.491,24.395,-79.420
1190,-0.4697,0.3970,-0.7207,3.296,0.122,0.732,148.552,24.445,-79.426
1200,-0.4697,0.4268,-0.7192,-8.118,-14.343,-0.916,148.447,24.620,-79.503
1210,-0.4468,0.4761,-0.7656,-13.794,-21.729,-1.160,148.260,24.829,-79.612
1220,-0.4116,0.5366,-0.8228,-13.184,-20.325,0.488,148.068,24.972,-79.739
1230,-0.3931,0.5586,-0.8398,-6.470,-10.376,2.747,147.947,25.010,-79.821
1240,-0.3872,0.5459,-0.8369,2.258,0.732,3.906,147.947,24.944,-79.854
1250,-0.3975,0.5195,-0.8125,8.118,7.690,3.723,148.024,24.835,-79.843
1260,-0.4346,0.4756,-0.7593,8.484,7.202,2.808,148.118,24.769,-79.832
1270,-0.4639,0.4517,-0.7129,3.723,-0.305,1.404,148.140,24.807,-79.843
1280,-0.4863,0.4277,-0.6763,-2.808,-9.460,0.488,148.085,24.950,-79.904
1290,-0.4839,0.4448,-0.6841,-8.484,-16.479,0.061,147.947,25.142,-80.002
1300,-0.4414,0.5166,-0.7642,-9.460,-15.869,0.427,147.794,25.280,-80.096
1310,-0.4023,0.5693,-0.8418,-3.967,-5.737,2.380,147.711,25.280,-80.156
1320,-0.3765,0.5923,-0.8735,3.662,8.240,4.517,147.733,25.131,-80.145
1330,-0.3540,0.5933,-0.8960,10.193,20.203,5.066,147.854,24.862,-80.074
1340,-0.3726,0.5474,-0.8623,12.207,25.696,3.967,148.019,24.582,-79.964
1350,-0.4302,0.4741,-0.7720,7.568,19.409,0.793,148.140,24.423,-79.854
1360,-0.4771,0.4097,-0.6929,-2.380,2.930,-4.395,148.151,24.483,-79.799
1370,-0.5063,0.3994,-0.6382,-13.794,-15.747,-7.507,148.008,24.747,-79.821
1380,-0.4961,0.4448,-0.6616,-20.630,-28.687,-8.057,147.744,25.104,-79.915
1390,-0.4399,0.5391,-0.7651,-18.005,-30.029,-5.310,147.480,25.384,-80.041
1400,-0.3950,0.5986,-0.8530,-5.920,-16.113,0.427,147.354,25.466,-80.140
1410,-0.3760,0.5967,-0.8755,8.789,3.662,4.761,147.420,25.351,-80.162
1420,-0.3765,0.5464,-0.8438,19.775,18.677,6.104,147.634,25.115,-80.107
1430,-0.4111,0.4844,-0.7871,22.522,25.024,4.944,147.909,24.868,-80.008
1440,-0.4453,0.4268,-0.7437,16.724,18.066,1.404,148.134,24.736,-79.915
1450,-0.4570,0.4287,-0.7349,4.639,4.456,-1.709,148.211,24.741,-79.871
1460,-0.4595,0.4419,-0.7358,-6.775,-5.859,-3.113,148.151,24.840,-79.876
1470,-0.4404,0.4810,-0.7661,-14.038,-12.024,-3.662,147.997,24.972,-79.909
1480,-0.3989,0.5513,-0.8364,-13.916,-9.583,-2.930,147.832,25.038,-79.942
1490,-0.3701,0.5874,-0.8789,-5.432,0.366,-1.404,147.766,24.983,-79.926
1500,-0.3608,0.5796,-0.8848,4.272,9.705,-0.305,147.827,24.846,-79.865
1510,-0.3677,0.5508,-0.8613,10.803,15.381,-0.244,147.964,24.664,-79.772
1520,-0.3965,0.5020,-0.8198,11.841,13.428,-1.404,148.129,24.538,-79.678
1530,-0.4312,0.4536,-0.7720,6.592,3.601,-3.357,148.228,24.538,-79.629
1540,-0.4785,0.3901,-0.7041,-2.197,-9.460,-5.554,148.233,24.708,-79.629
1550,-0.5103,0.3604,-0.6577,-11.597,-22.278,-7.507,148.123,25.027,-79.689
1560,-0.4985,0.3906,-0.6797,-17.151,-29.907,-8.179,147.931,25.395,-79.788
1570,-0.4561,0.4629,-0.7651,-15.930,-26.733,-5.798,147.739,25.670,-79.893
1580,-0.3975,0.5684,-0.8594,-7.812,-11.658,0.183,147.623,25.719,-79.964
1590,-0.3657,0.5942,-0.8936,5.249,9.460,5.981,147.662,25.538,-79.958
1600,-0.3652,0.5586,-0.8662,15.991,26.611,9.338,147.843,25.208,-79.893
1610,-0.3950,0.5088,-0.8066,19.043,33.081,9.033,148.079,24.857,-79.783
1620,-0.4365,0.4419,-0.7500,15.625,25.024,4.272,148.293,24.642,-79.673
1630,-0.4658,0.4038,-0.7148,4.639,7.446,-0.061,148.376,24.626,-79.629
1640,-0.4766,0.4160,-0.7124,-8.118,-7.507,-2.258,148.299,24.758,-79.651
1650,-0.4536,0.4712,-0.7612,-15.686,-16.968,-3.479,148.118,24.939,-79.717
1660,-0.4219,0.5229,-0.8125,-16.113,-17.517,-2.563,147.914,25.087,-79.799
1670,-0.3867,0.5747,-0.8618,-9.521,-8.118,0.000,147.788,25.109,-79.843
1680,-0.3716,0.5811,-0.8750,0.854,4.517,2.197,147.783,24.999,-79.838
1690,-0.3945,0.5195,-0.8335,8.728,12.451,2.747,147.892,24.851,-79.794
1700,-0.4180,0.4834,-0.7803,9.399,12.390,1.526,148.013,24.736,-79.733
1710,-0.4468,0.4448,-0.7388,5.188,4.333,-0.610,148.085,24.730,-79.700
1720,-0.4756,0.4111,-0.6948,-2.930,-7.507,-1.953,148.063,24.862,-79.728
1730,-0.4761,0.4346,-0.6938,-10.864,-16.541,-2.441,147.920,25.065,-79.799
1740,-0.4565,0.4746,-0.7393,-12.878,-18.555,-1.892,147.750,25.258,-79.893
1750,-0.4160,0.5454,-0.8101,-9.277,-11.902,0.671,147.607,25.329,-79.969
1760,-0.3760,0.6040,-0.8706,0.061,2.441,3.723,147.574,25.230,-79.986
1770,-0.3618,0.5820,-0.8813,10.437,16.724,5.310,147.689,24.999,-79.937
1780,-0.3740,0.5532,-0.8467,14.282,24.414,5.066,147.865,24.725,-79.843
1790,-0.4238,0.4839,-0.7725,12.329,21.362,2.014,148.030,24.532,-79.739
1800,-0.4712,0.4136,-0.7095,3.479,6.653,-2.747,148.107,24.549,-79.673
1810,-0.4888,0.4165,-0.6748,-9.399,-10.986,-5.859,148.013,24.741,-79.678
1820,-0.4761,0.4644,-0.7046,-17.273,-21.606,-6.775,147.805,25.005,-79.744
1830,-0.4380,0.5288,-0.7769,-16.907,-23.010,-5.127,147.579,25.225,-79.832
1840,-0.4038,0.5791,-0.8271,-8.911,-13.306,-0.916,147.437,25.307,-79.904
1850,-0.3877,0.5728,-0.8511,4.028,1.831,2.319,147.458,25.230,-79.915
1860,-0.3926,0.5210,-0.8325,14.099,13.062,3.113,147.623,25.071,-79.865
1871,-0.4082,0.4902,-0.7974,16.235,17.151,2.075,147.827,24.901,-79.783
1880,-0.4351,0.4492,-0.7588,12.268,12.268,-0.061,147.991,24.813,-79.711
1890,-0.4600,0.4233,-0.7231,3.357,0.977,-1.587,148.052,24.851,-79.689
1900,-0.4595,0.4478,-0.7251,-6.165,-8.972,-2.441,147.980,24.977,-79.717
1911,-0.4243,0.5200,-0.7959,-10.742,-12.878,-2.136,147.838,25.087,-79.772
1920,-0.3882,0.5747,-0.8633,-7.751,-7.202,-0.671,147.733,25.104,-79.810
1930,-0.3774,0.5776,-0.8774,-0.122,3.662,0.305,147.728,25.021,-79.788
1940,-0.3862,0.5337,-0.8418,6.470,11.292,-0.488,147.821,24.890,-79.717
1950,-0.4370,0.4512,-0.7637,7.812,11.902,-2.747,147.953,24.818,-79.623
1960,-0.4907,0.3604,-0.6807,1.709,1.770,-5.676,148.041,24.911,-79.563
1970,-0.5176,0.3569,-0.6353,-9.277,-12.939,-6.958,147.969,25.159,-79.568
1980,-0.5068,0.4004,-0.6528,-16.357,-23.010,-5.798,147.777,25.466,-79.651
1990,-0.4663,0.4751,-0.7319,-16.418,-22.949,-1.648,147.557,25.692,-79.772
2000,-0.4023,0.5771,-0.8354,-8.423,-10.132,4.028,147.409,25.714,-79.871
2010,-0.3579,0.6235,-0.9043,6.531,10.620,8.667,147.448,25.505,-79.887
2020,-0.3433,0.5894,-0.9111,19.104,28.870,10.803,147.662,25.126,-79.816
2030,-0.3687,0.5371,-0.8555,23.621,37.598,9.644,147.953,24.708,-79.684
2040,-0.4209,0.4556,-0.7812,19.653,31.128,4.395,148.222,24.428,-79.541
2050,-0.4473,0.4185,-0.7383,6.104,12.085,-0.916,148.337,24.368,-79.464
2060,-0.4580,0.4434,-0.7310,-8.667,-5.798,-3.113,148.255,24.467,-79.470
2070,-0.4424,0.4956,-0.7686,-17.029,-18.433,-3.967,148.046,24.659,-79.536
2080,-0.4072,0.5610,-0.8257,-16.663,-22.095,-2.625,147.816,24.835,-79.640
2090,-0.3794,0.6006,-0.8721,-6.958,-13.611,0.000,147.689,24.895,-79.722
2100,-0.3584,0.5898,-0.8979,6.226,-1.282,1.465,147.733,24.835,-79.744
2110,-0.3501,0.5630,-0.8906,15.381,7.385,1.343,147.898,24.703,-79.711
2120,-0.3662,0.5347,-0.8638,17.883,11.414,0.366,148.107,24.554,-79.651
2130,-0.4131,0.4551,-0.7998,12.939,6.409,-1.770,148.277,24.505,-79.596
2140,-0.4580,0.4077,-0.7358,0.610,-6.104,-4.944,148.315,24.626,-79.585
2150,-0.4771,0.4028,-0.7007,-12.573,-17.578,-7.996,148.200,24.873,-79.612
2160,-0.4922,0.4106,-0.6855,-20.874,-25.452,-9.644,147.975,25.203,-79.667
2170,-0.4829,0.4419,-0.7036,-22.034,-27.466,-8.972,147.728,25.532,-79.744
2180,-0.4687,0.4761,-0.7363,-15.442,-20.386,-5.371,147.535,25.757,-79.816
2190,-0.4512,0.4854,-0.7646,-4.639,-8.057,-0.671,147.475,25.834,-79.860
2200,-0.4233,0.5059,-0.7900,5.676,4.395,3.479,147.524,25.763,-79.865
2210,-0.4062,0.5073,-0.8101,13.855,15.320,6.958,147.678,25.571,-79.838
2220,-0.4033,0.5078,-0.8115,16.052,21.179,9.277,147.854,25.318,-79.799
2230,-0.4097,0.5024,-0.7993,13.245,20.569,9.399,148.002,25.076,-79.766
2240,-0.4312,0.4741,-0.7734,7.202,14.526,6.836,148.085,24.922,-79.744
2250,-0.4521,0.4561,-0.7476,-1.526,4.089,2.441,148.079,24.901,-79.744
2260,-0.4624,0.4585,-0.7363,-9.705,-5.615,-1.221,147.969,24.988,-79.766
2270,-0.4512,0.4917,-0.7539,-14.099,-11.963,-3.174,147.805,25.120,-79.805
2280,-0.4155,0.5527,-0.8096,-12.878,-11.414,-2.563,147.640,25.208,-79.849
2290,-0.3950,0.5850,-0.8384,-5.859,-3.784,0.244,147.546,25.197,-79.876
2300,-0.3682,0.6064,-0.8604,3.235,4.822,2.808,147.552,25.082,-79.871
2310,-0.3691,0.5820,-0.8535,12.085,11.536,3.906,147.662,24.911,-79.838
2320,-0.4092,0.5156,-0.8013,15.198,11.108,2.869,147.827,24.785,-79.799
2330,-0.4507,0.4580,-0.7466,10.986,2.930,-0.305,147.947,24.785,-79.783
2340,-0.5000,0.3799,-0.6777,1.831,-9.094,-4.089,147.991,24.966,-79.794
2350,-0.5322,0.3550,-0.6265,-10.803,-21.790,-7.202,147.881,25.302,-79.854
2360,-0.5093,0.4019,-0.6582,-19.836,-29.480,-8.606,147.656,25.675,-79.948
2371,-0.4419,0.5190,-0.7783,-20.203,-23.743,-6.042,147.404,25.900,-80.030
2380,-0.3691,0.6499,-0.9038,-10.498,-2.930,0.488,147.261,25.851,-80.057
2390,-0.3130,0.6899,-0.9668,5.188,22.644,5.493,147.321,25.521,-79.969
2400,-0.3184,0.6377,-0.9180,17.822,42.725,8.057,147.552,25.027,-79.788
2410,-0.4072,0.5054,-0.7808,22.217,45.105,4.578,147.859,24.609,-79.563
2420,-0.5044,0.3359,-0.6421,14.038,24.719,-3.662,148.118,24.521,-79.387
2430,-0.5874,0.2456,-0.5166,-5.493,-6.348,-9.521,148.151,24.840,-79.332
2440,-0.6079,0.2373,-0.4888,-24.780,-35.706,-13.062,147.931,25.444,-79.420
2450,-0.5000,0.3984,-0.6689,-35.339,-50.842,-12.573,147.513,26.005,-79.601
2460,-0.3911,0.6548,-0.8960,-31.494,-35.034,-2.869,147.085,26.246,-79.783
2470,-0.3081,0.7969,-1.0547,-10.620,3.845,8.362,146.915,26.043,-79.838
2480,-0.2441,0.7905,-1.0928,13.245,40.344,13.977,147.068,25.472,-79.722
2490,-0.2588,0.7266,-0.9966,31.250,64.575,14.160,147.458,24.725,-79.464
2500,-0.3457,0.5337,-0.8398,37.903,65.186,6.287,147.969,24.093,-79.140
2510,-0.4556,0.3882,-0.7021,24.658,37.598,-3.906,148.348,23.851,-78.882
2520,-0.5132,0.3223,-0.6152,0.671,-0.244,-11.841,148.436,24.038,-78.777
2530,-0.5322,0.3457,-0.5981,-19.836,-31.555,-15.625,148.244,24.521,-78.810
2540,-0.4907,0.4072,-0.6826,-30.273,-52.063,-15.991,147.887,25.115,-78.964
2550,-0.4209,0.5581,-0.8369,-27.771,-52.490,-10.315,147.508,25.587,-79.173
2560,-0.3721,0.6299,-0.9429,-10.986,-28.992,-3.296,147.327,25.774,-79.316
2570,-0.3604,0.6011,-0.9551,7.080,-1.892,0.671,147.393,25.703,-79.332
2580,-0.3999,0.4814,-0.8374,18.250,15.442,1.099,147.640,25.538,-79.250
2590,-0.4517,0.3784,-0.7124,16.724,19.226,-1.465,147.903,25.422,-79.124
2600,-0.4927,0.3330,-0.6440,6.226,8.179,-3.357,148.046,25.455,-79.041
2610,-0.5244,0.3267,-0.6040,-6.226,-7.080,-2.258,148.008,25.648,-79.063
2620,-0.4995,0.3994,-0.6519,-14.038,-17.334,-0.305,147.832,25.873,-79.162
2630,-0.4292,0.5063,-0.7817,-12.817,-16.418,2.808,147.645,25.983,-79.288
2640,-0.3730,0.6152,-0.8999,-3.967,-1.282,7.629,147.552,25.884,-79.365
2650,-0.3325,0.6377,-0.9766,6.958,18.372,9.888,147.623,25.576,-79.349
2660,-0.3311,0.5957,-0.9585,12.573,32.593,9.399,147.794,25.159,-79.244
2670,-0.3857,0.5186,-0.8535,10.925,34.485,5.188,147.980,24.807,-79.091
2680,-0.4351,0.4424,-0.7544,2.563,20.752,-1.709,148.079,24.653,-78.953
2690,-0.4687,0.4194,-0.6899,-10.071,-1.038,-5.798,148.002,24.752,-78.904
2700,-0.4844,0.4204,-0.6567,-20.813,-20.630,-6.958,147.766,25.032,-78.959
2710,-0.4600,0.4712,-0.7153,-23.437,-34.058,-6.714,147.464,25.384,-79.096
2720,-0.4165,0.5586,-0.8164,-18.372,-33.142,-2.930,147.195,25.648,-79.266
2730,-0.3872,0.6167,-0.8936,-6.409,-17.578,1.831,147.057,25.724,-79.387
2740,-0.3794,0.5713,-0.8970,6.958,-0.244,4.089,147.118,25.648,-79.431
2750,-0.4053,0.4888,-0.8252,13.794,10.315,3.784,147.288,25.510,-79.404
2760,-0.4556,0.4106,-0.7295,11.597,11.169,1.465,147.458,25.439,-79.349
2770,-0.5029,0.3389,-0.6416,2.686,-1.404,-0.793,147.530,25.549,-79.349
2780,-0.5269,0.3335,-0.5903,-9.216,-17.456,-0.732,147.426,25.823,-79.448
2790,-0.4810,0.4385,-0.6689,-15.808,-27.039,0.977,147.189,26.098,-79.618
2800,-0.4116,0.5830,-0.8091,-12.451,-21.973,6.287,146.953,26.208,-79.810
2810,-0.3662,0.6680,-0.9082,-0.732,-3.662,12.756,146.854,26.087,-79.953
2820,-0.3291,0.6729,-0.9585,12.390,15.930,15.564,146.937,25.768,-79.997
2830,-0.3354,0.6367,-0.9355,20.752,31.311,15.137,147.151,25.334,-79.948
2840,-0.3774,0.5620,-0.8467,22.888,33.508,9.705,147.415,24.950,-79.838
2850,-0.4365,0.4790,-0.7432,14.526,18.494,2.808,147.590,24.796,-79.755
2860,-0.4927,0.4131,-0.6479,-1.282,-4.639,-2.625,147.579,24.928,-79.755
2871,-0.5117,0.4258,-0.6011,-15.930,-26.733,-5.920,147.349,25.280,-79.860
2880,-0.4922,0.4717,-0.6411,-21.790,-41.565,-7.019,147.019,25.730,-80.041
2890,-0.4570,0.5576,-0.7407,-17.700,-42.297,-3.601,146.706,26.104,-80.266
2900,-0.4287,0.6099,-0.8252,-5.493,-25.940,1.648,146.547,26.279,-80.442
2910,-0.4092,0.6167,-0.8594,9.766,-2.930,5.188,146.591,26.224,-80.508
2920,-0.4092,0.5664,-0.8306,20.691,15.991,6.592,146.805,26.016,-80.469
2930,-0.4380,0.5098,-0.7593,23.743,25.330,5.798,147.074,25.768,-80.370
2940,-0.4604,0.4497,-0.7051,19.287,19.653,2.258,147.310,25.626,-80.272
2950,-0.4692,0.4399,-0.6885,8.789,6.653,-0.122,147.420,25.609,-80.228
2960,-0.4717,0.4575,-0.7021,-1.953,-3.479,-1.709,147.393,25.686,-80.233
2970,-0.4429,0.5044,-0.7607,-7.507,-9.338,-2.686,147.294,25.779,-80.266
2980,-0.4160,0.5439,-0.8223,-6.653,-7.507,-2.136,147.211,25.823,-80.288
2990,-0.4009,0.5591,-0.8643,-1.587,1.648,-1.404,147.200,25.774,-80.266
3000,-0.3804,0.5635,-0.8818,3.479,9.766,-1.709,147.272,25.642,-80.195
3010,-0.3799,0.5376,-0.8584,6.287,15.015,-2.075,147.387,25.477,-80.085
3020,-0.3994,0.4985,-0.8071,5.493,13.977,-2.991,147.497,25.351,-79.969
3030,-0.4121,0.4619,-0.7559,0.854,4.822,-4.578,147.546,25.334,-79.904
3040,-0.4404,0.4282,-0.7261,-5.676,-7.812,-6.104,147.513,25.455,-79.893
3050,-0.4917,0.4326,-0.7241,-11.353,-16.418,-6.287,147.404,25.670,-79.931
3060,-0.4536,0.4858,-0.7622,-13.977,-18.738,-5.066,147.239,25.862,-79.991
3070,-0.4395,0.5156,-0.7993,-9.277,-13.123,-2.136,147.118,25.972,-80.052
3080,-0.4106,0.5425,-0.8320,-2.197,-2.258,0.366,147.090,25.955,-80.068
3090,-0.4097,0.5254,-0.8291,5.981,7.874,1.343,147.167,25.851,-80.035
3100,-0.4341,0.4561,-0.7534,9.216,12.329,1.282,147.305,25.746,-79.975
3110,-0.4795,0.3872,-0.6826,5.493,6.653,-0.244,147.404,25.746,-79.931
3120,-0.5166,0.3584,-0.6357,-3.052,-4.272,-1.404,147.404,25.884,-79.942
3130,-0.5264,0.3564,-0.6157,-12.207,-13.977,-1.221,147.277,26.115,-80.013
3140,-0.5039,0.4272,-0.6812,-17.273,-18.066,0.244,147.063,26.323,-80.123
3150,-0.4395,0.5630,-0.8091,-15.198,-8.606,4.456,146.854,26.351,-80.222
3160,-0.3301,0.7334,-0.9629,-4.517,13.184,10.437,146.761,26.071,-80.239
3170,-0.2734,0.7378,-1.0107,10.315,38.879,14.648,146.876,25.532,-80.134
3180,-0.3130,0.6523,-0.9175,20.996,52.063,13.550,147.140,24.928,-79.948
3190,-0.4043,0.5103,-0.7778,23.010,43.884,5.493,147.453,24.521,-79.733
3200,-0.4922,0.3799,-0.6592,11.353,18.738,-3.357,147.651,24.467,-79.590
3210,-0.5415,0.3423,-0.5806,-8.362,-11.414,-8.423,147.590,24.747,-79.579
3220,-0.5273,0.3853,-0.6035,-22.949,-36.255,-10.803,147.316,25.225,-79.695
3230,-0.4478,0.5322,-0.7559,-27.100,-44.861,-7.751,146.937,25.648,-79.893
3240,-0.3633,0.7012,-0.9258,-18.616,-27.832,0.366,146.640,25.790,-80.063
3250,-0.3096,0.7271,-0.9985,0.610,1.587,6.531,146.596,25.626,-80.112
3260,-0.3086,0.6465,-0.9434,18.311,23.437,7.751,146.799,25.285,-80.041
3270,-0.3755,0.5312,-0.8149,26.367,33.752,4.822,147.129,24.939,-79.882
3280,-0.4443,0.4180,-0.7153,22.827,26.062,-1.648,147.453,24.763,-79.711
3290,-0.4893,0.3872,-0.6602,8.301,5.127,-5.188,147.590,24.824,-79.634
3300,-0.5215,0.3716,-0.6201,-6.226,-14.465,-5.676,147.530,25.087,-79.667
3310,-0.5264,0.3716,-0.6177,-14.771,-28.381,-5.066,147.343,25.461,-79.788
3320,-0.4766,0.4517,-0.7119,-15.503,-33.447,-2.197,147.118,25.790,-79.964
3330,-0.4102,0.5728,-0.8594,-6.836,-20.325,2.625,146.981,25.906,-80.112
3340,-0.3682,0.6021,-0.9395,7.141,3.357,6.714,147.036,25.763,-80.156
3350,-0.3574,0.5557,-0.9146,16.663,19.836,8.118,147.233,25.483,-80.112
3360,-0.3608,0.5444,-0.8535,19.531,28.931,7.812,147.475,25.142,-80.008
3371,-0.3770,0.5093,-0.8237,17.700,28.687,5.188,147.706,24.835,-79.887
3380,-0.3984,0.4951,-0.7954,9.460,17.090,3.479,147.832,24.659,-79.821
3390,-0.4287,0.4814,-0.7554,-0.488,2.258,1.465,147.827,24.642,-79.821
3400,-0.4697,0.4292,-0.7080,-7.507,-10.315,-1.343,147.739,24.785,-79.871
3410,-0.5005,0.3979,-0.6689,-14.160,-22.461,-4.089,147.579,25.071,-79.964
3420,-0.4980,0.3979,-0.6729,-17.700,-30.212,-5.676,147.365,25.428,-80.090
3430,-0.4590,0.4873,-0.7554,-16.174,-28.748,-3.601,147.145,25.703,-80.228
3440,-0.4155,0.5791,-0.8325,-8.789,-15.930,1.709,146.992,25.796,-80.338
3450,-0.3804,0.6123,-0.8696,2.991,1.587,6.409,146.981,25.686,-80.387
3460,-0.3604,0.5947,-0.8521,13.367,15.808,9.155,147.096,25.439,-80.376
3470,-0.3765,0.5552,-0.8135,18.066,23.499,9.155,147.283,25.148,-80.321
3480,-0.4106,0.4966,-0.7656,16.663,19.470,5.798,147.475,24.944,-80.261
3490,-0.4434,0.4595,-0.7295,8.789,6.836,1.953,147.574,24.901,-80.239
3500,-0.4541,0.4736,-0.7236,-1.404,-4.822,-0.549,147.541,24.972,-80.261
3510,-0.4502,0.4976,-0.7520,-7.996,-11.963,-1.709,147.431,25.098,-80.316
3520,-0.4312,0.5352,-0.7944,-8.850,-13.733,-1.099,147.299,25.208,-80.387
3530,-0.4102,0.5586,-0.8301,-4.517,-6.775,-0.122,147.222,25.236,-80.425
3541,-0.4048,0.5298,-0.8218,1.404,1.465,-0.244,147.244,25.197,-80.414
3550,-0.4180,0.4922,-0.7729,3.723,4.456,-1.038,147.299,25.159,-80.381
3560,-0.4438,0.4575,-0.7349,2.319,2.625,-2.258,147.343,25.170,-80.343
3571,-0.4771,0.4097,-0.6904,-2.197,-3.967,-2.991,147.343,25.274,-80.338
3580,-0.5298,0.3564,-0.6309,-9.583,-11.475,-3.418,147.266,25.499,-80.376
3590,-0.5781,0.2954,-0.5879,-16.174,-17.151,-5.005,147.140,25.823,-80.431
3601,-0.5747,0.2910,-0.6157,-22.705,-19.104,-6.714,146.970,26.164,-80.486
3611,-0.5093,0.3833,-0.7158,-27.771,-12.085,-5.371,146.733,26.351,-80.508
3621,-0.4121,0.5220,-0.8315,-27.771,4.517,0.549,146.481,26.279,-80.486
3630,-0.3193,0.6709,-0.9326,-16.296,26.611,7.996,146.332,25.906,-80.392
3640,-0.2485,0.7393,-0.9888,1.404,45.837,14.160,146.382,25.307,-80.244
3650,-0.2378,0.7319,-0.9751,16.113,56.824,17.944,146.585,24.598,-80.063
3660,-0.2734,0.6475,-0.9116,24.353,51.758,15.442,146.882,23.978,-79.887
3671,-0.3345,0.5508,-0.8423,20.874,30.762,9.521,147.123,23.615,-79.794
3681,-0.3813,0.5117,-0.8096,7.141,4.395,3.357,147.200,23.538,-79.799
3691,-0.4043,0.5186,-0.7993,-7.446,-17.212,-1.587,147.090,23.687,-79.882
3701,-0.4023,0.5273,-0.7998,-17.517,-34.180,-4.517,146.849,23.983,-80.046
3711,-0.3931,0.5737,-0.8120,-21.545,-40.405,-3.845,146.530,24.318,-80.250
3721,-0.3906,0.6011,-0.8237,-17.700,-34.851,-1.953,146.250,24.582,-80.447
3731,-0.3960,0.5796,-0.8081,-7.446,-25.269,-0.671,146.096,24.763,-80.596
3741,-0.4155,0.5332,-0.7607,2.502,-16.174,0.549,146.063,24.890,-80.700
3751,-0.4419,0.4771,-0.7241,8.850,-9.033,1.221,146.129,24.977,-80.766
3761,-0.4810,0.4048,-0.6729,8.362,-8.118,1.160,146.217,25.104,-80.826
3771,-0.4932,0.3975,-0.6528,1.221,-12.085,1.099,146.217,25.274,-80.909
3781,-0.4844,0.4502,-0.6709,-5.493,-13.672,2.319,146.118,25.428,-81.013
3791,-0.4658,0.4927,-0.7144,-7.935,-11.169,5.005,145.981,25.521,-81.129
3801,-0.4170,0.5991,-0.7861,-6.226,-4.456,8.484,145.844,25.483,-81.233
3811,-0.3833,0.6299,-0.8301,3.479,6.653,10.437,145.822,25.318,-81.288
3821,-0.3784,0.6133,-0.8252,11.963,14.465,10.864,145.915,25.087,-81.299
3831,-0.3960,0.5830,-0.7920,14.709,16.174,9.094,146.047,24.873,-81.282
3841,-0.4487,0.4858,-0.7227,13.000,9.521,4.883,146.179,24.791,-81.266
3851,-0.4819,0.4355,-0.6675,2.869,-4.639,0.183,146.201,24.895,-81.299
3861,-0.4863,0.4629,-0.6699,-8.667,-15.320,-2.014,146.074,25.093,-81.376
3871,-0.4541,0.5288,-0.7432,-13.000,-18.494,-2.197,145.893,25.269,-81.469
3881,-0.4194,0.5981,-0.8027,-10.803,-11.475,0.671,145.728,25.334,-81.546
3891,-0.3730,0.6494,-0.8574,-2.136,1.709,3.113,145.668,25.241,-81.563
3901,-0.3384,0.6470,-0.8887,8.545,14.587,4.028,145.761,25.016,-81.508
3912,-0.3579,0.5947,-0.8486,14.404,22.522,3.418,145.942,24.752,-81.398
3921,-0.4253,0.4844,-0.7349,13.245,18.372,-0.183,146.124,24.615,-81.282
3931,-0.5000,0.3638,-0.6255,3.967,1.282,-5.188,146.223,24.736,-81.227
3941,-0.5396,0.3428,-0.5684,-10.315,-17.151,-8.179,146.135,25.065,-81.260
3951,-0.5122,0.4019,-0.6211,-19.897,-29.236,-9.033,145.909,25.450,-81.354
3961,-0.4365,0.5571,-0.7788,-20.325,-26.550,-4.639,145.640,25.686,-81.480
3971,-0.3896,0.6611,-0.8809,-10.193,-5.676,2.441,145.492,25.653,-81.535
3981,-0.3628,0.6353,-0.9019,5.798,16.541,6.531,145.558,25.411,-81.491
3991,-0.3794,0.5713,-0.8423,16.113,31.006,7.446,145.778,25.065,-81.365
4001,-0.4160,0.4810,-0.7725,19.897,34.058,2.869,146.074,24.763,-81.183
4011,-0.4507,0.4224,-0.7158,13.367,21.545,-2.014,146.299,24.637,-81.030
4021,-0.4702,0.4336,-0.6816,0.793,3.967,-3.479,146.343,24.675,-80.975
4031,-0.4673,0.4570,-0.6772,-7.812,-10.071,-2.686,146.250,24.829,-81.013
4041,-0.4316,0.5078,-0.7329,-10.010,-18.555,-0.366,146.096,24.994,-81.123
4051,-0.3789,0.5981,-0.8223,-6.531,-15.320,3.723,145.953,25.049,-81.249
4061,-0.3389,0.6445,-0.9072,4.333,-2.014,6.653,145.953,24.950,-81.321
4071,-0.3237,0.6240,-0.9307,15.137,10.376,6.836,146.107,24.741,-81.321
4081,-0.3398,0.5884,-0.8950,18.677,17.334,4.883,146.321,24.500,-81.260
4091,-0.3828,0.5273,-0.8286,15.198,16.235,1.221,146.519,24.324,-81.172
4101,-0.4463,0.4277,-0.7334,5.615,4.272,-3.174,146.629,24.340,-81.118
4111,-0.4912,0.3916,-0.6567,-8.972,-12.207,-6.531,146.563,24.560,-81.129
4121,-0.4990,0.4189,-0.6406,-20.264,-23.926,-7.812,146.332,24.890,-81.205
4131,-0.4639,0.4868,-0.6924,-22.217,-28.870,-6.226,146.052,25.197,-81.321
4141,-0.4248,0.5674,-0.7671,-15.625,-22.400,-1.099,145.816,25.378,-81.453
4151,-0.3911,0.6016,-0.8232,-1.465,-6.775,3.967,145.750,25.367,-81.530
4161,-0.3735,0.5825,-0.8340,13.000,7.812,7.019,145.865,25.208,-81.546
4171,-0.3872,0.5439,-0.8066,20.813,16.663,7.874,146.085,24.994,-81.513
4181,-0.4185,0.4912,-0.7676,20.569,16.907,6.042,146.321,24.818,-81.464
4191,-0.4468,0.4604,-0.7358,12.512,7.935,3.479,146.470,24.758,-81.447
4201,-0.4624,0.4614,-0.7109,0.610,-2.014,1.404,146.470,24.807,-81.475
4211,-0.4736,0.4609,-0.6987,-9.094,-9.033,-0.061,146.360,24.928,-81.530
4221,-0.4526,0.5059,-0.7227,-14.587,-13.428,-0.671,146.168,25.065,-81.606
4231,-0.4126,0.5723,-0.7822,-12.085,-9.827,0.732,145.997,25.120,-81.672
4241,-0.3740,0.6294,-0.8491,-2.319,1.160,3.296,145.937,25.038,-81.694
4251,-0.3511,0.6333,-0.8770,9.399,11.658,5.127,146.025,24.846,-81.667
4261,-0.3481,0.6099,-0.8701,17.700,18.250,5.737,146.212,24.593,-81.606
4271,-0.3613,0.5728,-0.8477,19.470,18.799,3.967,146.437,24.368,-81.530
4281,-0.3853,0.5410,-0.8184,14.587,10.376,0.854,146.607,24.247,-81.475
4291,-0.4146,0.5000,-0.7769,5.432,-2.136,-2.380,146.667,24.280,-81.464
4301,-0.4399,0.4766,-0.7471,-5.127,-12.756,-5.371,146.613,24.434,-81.497
4311,-0.4634,0.4565,-0.7202,-13.123,-20.264,-7.751,146.475,24.686,-81.546
4321,-0.4712,0.4443,-0.6948,-16.907,-24.475,-8.667,146.288,24.983,-81.612
4331,-0.4785,0.4448,-0.6865,-15.381,-23.499,-7.507,146.113,25.274,-81.689
4341,-0.4717,0.4634,-0.6987,-9.827,-17.822,-4.517,145.986,25.483,-81.760
4351,-0.4556,0.4790,-0.7217,-2.075,-8.850,-0.244,145.948,25.582,-81.810
4361,-0.4326,0.4902,-0.7417,5.676,1.038,4.150,145.997,25.554,-81.843
4371,-0.4150,0.5093,-0.7661,11.536,9.827,7.751,146.113,25.417,-81.854
4381,-0.4077,0.5186,-0.7856,14.465,15.808,9.460,146.266,25.214,-81.843
4391,-0.4053,0.5293,-0.7939,13.794,18.250,9.888,146.409,24.988,-81.821
4401,-0.4092,0.5347,-0.7915,11.414,17.029,8.789,146.530,24.780,-81.799
4411,-0.4165,0.5239,-0.7856,8.118,12.634,6.897,146.613,24.631,-81.782
4421,-0.4248,0.5181,-0.7803,3.784,7.019,4.700,146.646,24.543,-81.788
4431,-0.4365,0.5034,-0.7676,-0.244,1.526,2.625,146.640,24.527,-81.799
4441,-0.4404,0.4883,-0.7520,-2.930,-2.686,1.221,146.602,24.560,-81.826
4451,-0.4399,0.4790,-0.7397,-4.211,-5.188,0.793,146.552,24.615,-81.865
4461,-0.4443,0.4727,-0.7324,-3.418,-5.859,1.465,146.503,24.681,-81.914
4471,-0.4429,0.4771,-0.7329,-0.793,-5.066,2.869,146.475,24.730,-81.974
4481,-0.4360,0.4873,-0.7505,3.296,-2.563,4.944,146.486,24.736,-82.035
4491,-0.4082,0.5205,-0.7827,8.301,0.671,7.202,146.541,24.681,-82.095
4501,-0.3657,0.5708,-0.8477,14.221,4.578,9.399,146.656,24.538,-82.156
4511,-0.3311,0.6016,-0.9023,20.081,8.423,10.681,146.832,24.335,-82.200
4521,-0.3184,0.6045,-0.9263,23.071,10.132,9.949,147.047,24.115,-82.233
4531,-0.3198,0.5908,-0.9233,21.118,7.324,7.324,147.250,23.939,-82.255
4541,-0.3511,0.5415,-0.8804,14.587,-0.488,3.662,147.393,23.868,-82.293
4551,-0.3911,0.4932,-0.8159,2.441,-11.597,-0.610,147.404,23.956,-82.354
4561,-0.4248,0.4917,-0.7671,-11.597,-21.545,-4.639,147.255,24.170,-82.436
4571,-0.4478,0.4932,-0.7363,-20.935,-28.320,-7.690,146.997,24.472,-82.535
4581,-0.4604,0.5059,-0.7168,-23.987,-30.701,-8.179,146.695,24.802,-82.645
4591,-0.4502,0.5264,-0.7095,-20.569,-27.344,-6.409,146.415,25.087,-82.749
4601,-0.4263,0.5562,-0.7266,-11.902,-18.799,-3.052,146.223,25.258,-82.837
4611,-0.4028,0.5718,-0.7622,-0.732,-7.446,0.732,146.162,25.291,-82.892
4621,-0.4062,0.5547,-0.7793,8.972,2.808,3.540,146.228,25.225,-82.903
4631,-0.4253,0.5386,-0.7754,13.306,10.010,4.578,146.354,25.109,-82.886
4641,-0.4873,0.4526,-0.7075,11.719,11.597,3.601,146.497,25.043,-82.848
4651,-0.5493,0.3589,-0.6201,3.052,4.211,0.244,146.574,25.131,-82.826
4661,-0.5679,0.3379,-0.5718,-10.010,-5.981,-2.991,146.497,25.351,-82.831
4671,-0.5571,0.3564,-0.5713,-20.020,-12.756,-3.967,146.299,25.620,-82.875
4681,-0.4849,0.4824,-0.6724,-23.499,-13.428,-1.404,146.014,25.785,-82.941
4691,-0.3994,0.6499,-0.8101,-16.174,-0.122,5.188,145.789,25.714,-82.991
4701,-0.3340,0.7012,-0.9111,2.319,21.240,10.315,145.794,25.384,-82.952
4711,-0.3037,0.6807,-0.9341,18.127,38.879,13.123,146.003,24.890,-82.831
4721,-0.2725,0.6792,-0.9468,27.832,48.401,10.437,146.349,24.313,-82.628
4731,-0.2607,0.6377,-0.9604,30.579,47.485,4.028,146.755,23.785,-82.375
4741,-0.2886,0.6167,-0.9434,20.874,35.400,-1.099,147.052,23.406,-82.156
4751,-0.3560,0.5566,-0.8730,5.676,16.968,-6.165,147.173,23.253,-81.996
4761,-0.4297,0.4771,-0.7705,-10.681,-6.104,-11.780,147.107,23.390,-81.925
4771,-0.4800,0.4346,-0.6875,-25.757,-26.917,-16.235,146.854,23.769,-81.936
4781,-0.5063,0.4214,-0.6504,-33.020,-41.748,-17.639,146.492,24.307,-82.024
4791,-0.5171,0.4375,-0.6460,-31.433,-48.401,-15.076,146.113,24.879,-82.183
4801,-0.5044,0.4541,-0.6641,-22.400,-44.250,-10.376,145.811,25.373,-82.359
4811,-0.4858,0.4448,-0.6836,-7.690,-30.823,-4.333,145.684,25.703,-82.513
4821,-0.4512,0.4487,-0.7090,5.798,-13.245,1.770,145.717,25.829,-82.612
4831,-0.4077,0.4878,-0.7656,16.174,5.676,7.019,145.882,25.724,-82.639
4841,-0.3789,0.5161,-0.8232,22.400,23.193,10.803,146.146,25.433,-82.595
4851,-0.3682,0.5386,-0.8447,21.851,35.950,12.634,146.420,25.016,-82.485
4861,-0.3667,0.5366,-0.8457,17.334,40.894,11.169,146.662,24.565,-82.343
4871,-0.3755,0.5332,-0.8428,11.292,38.513,8.118,146.849,24.164,-82.183
4881,-0.3877,0.5444,-0.8384,4.272,30.396,4.761,146.953,23.857,-82.046
4891,-0.3965,0.5562,-0.8262,-0.183,18.616,1.953,146.975,23.670,-81.953
4901,-0.4048,0.5625,-0.8071,0.061,5.493,0.610,146.970,23.610,-81.925
4911,-0.4097,0.5601,-0.7788,5.371,-6.531,1.526,146.975,23.648,-81.974
4921,-0.4136,0.5420,-0.7593,14.709,-15.503,4.578,147.041,23.758,-82.112
4931,-0.4180,0.5142,-0.7490,26.123,-20.630,8.606,147.206,23.890,-82.310
4941,-0.4204,0.4990,-0.7563,37.354,-21.912,12.390,147.469,24.016,-82.557
4951,-0.4175,0.4829,-0.7681,46.509,-19.714,15.869,147.832,24.104,-82.820
4961,-0.4136,0.4692,-0.7778,52.307,-15.198,18.616,148.255,24.137,-83.079
4971,-0.4160,0.4556,-0.7876,54.260,-9.766,19.592,148.711,24.120,-83.320
4981,-0.4185,0.4546,-0.7954,53.101,-5.310,18.921,149.167,24.071,-83.524
4991,-0.4189,0.4507,-0.8042,49.683,-2.625,17.517,149.601,24.011,-83.705
5001,-0.4146,0.4453,-0.8115,45.044,-1.587,16.052,150.002,23.945,-83.864
5011,-0.4116,0.4429,-0.8164,40.710,-1.709,14.404,150.359,23.890,-84.012
5021,-0.4038,0.4502,-0.8223,37.292,-2.869,12.878,150.683,23.846,-84.150
5031,-0.3926,0.4531,-0.8369,35.034,-4.395,11.414,150.985,23.813,-84.282
5041,-0.3828,0.4517,-0.8506,32.593,-5.066,10.132,151.271,23.785,-84.408
5051,-0.3813,0.4517,-0.8584,28.259,-5.493,9.399,151.512,23.763,-84.523
5061,-0.3770,0.4497,-0.8716,22.339,-5.066,8.301,151.699,23.741,-84.633
5071,-0.3701,0.4438,-0.8833,14.221,-3.540,6.592,151.826,23.708,-84.710
5081,-0.3701,0.4414,-0.8828,4.517,-1.770,3.906,151.870,23.676,-84.760
5091,-0.3794,0.4507,-0.8618,-5.249,-0.671,0.427,151.820,23.659,-84.765
5101,-0.3921,0.4590,-0.8335,-13.306,-1.526,-2.380,151.688,23.670,-84.754
5111,-0.4092,0.4619,-0.8110,-18.738,-3.418,-4.028,151.496,23.719,-84.732
5121,-0.4185,0.4702,-0.7852,-20.935,-5.371,-4.578,151.271,23.796,-84.716
5131,-0.4307,0.4736,-0.7656,-18.433,-6.653,-3.662,151.057,23.890,-84.716
5141,-0.4443,0.4600,-0.7495,-12.268,-7.202,-1.587,150.903,23.989,-84.738
5151,-0.4502,0.4546,-0.7456,-4.761,-7.019,0.854,150.815,24.077,-84.781
5161,-0.4419,0.4590,-0.7583,2.075,-5.676,3.418,150.787,24.131,-84.847
5171,-0.4326,0.4517,-0.7778,7.812,-3.052,5.554,150.826,24.148,-84.913
5181,-0.4282,0.4399,-0.7900,10.437,0.183,6.592,150.908,24.126,-84.979
5191,-0.4248,0.4355,-0.7974,9.521,3.052,5.920,150.991,24.082,-85.018
5201,-0.4272,0.4351,-0.7993,5.859,4.822,4.272,151.046,24.027,-85.034
5211,-0.4243,0.4395,-0.7988,0.916,5.554,2.380,151.057,23.978,-85.029
5221,-0.4219,0.4502,-0.7974,-3.662,5.737,0.793,151.029,23.934,-85.007
5231,-0.4204,0.4585,-0.7954,-6.775,5.859,-0.061,150.963,23.890,-84.974
5241,-0.4155,0.4604,-0.7954,-8.118,5.981,-0.671,150.886,23.846,-84.935
5251,-0.4009,0.4731,-0.8140,-7.935,6.531,-0.977,150.815,23.785,-84.891
5261,-0.3853,0.4819,-0.8403,-6.592,8.179,-1.160,150.765,23.698,-84.836
5271,-0.3677,0.4990,-0.8647,-5.615,9.949,-1.343,150.727,23.588,-84.771
5281,-0.3569,0.5015,-0.8853,-5.676,10.925,-1.892,150.699,23.456,-84.694
5291,-0.3579,0.5000,-0.8950,-7.812,10.498,-2.991,150.656,23.340,-84.611
5301,-0.3784,0.4932,-0.8735,-12.024,7.996,-4.822,150.573,23.269,-84.518
5311,-0.4180,0.4512,-0.8027,-16.968,2.075,-7.080,150.436,23.297,-84.441
5321,-0.4287,0.4551,-0.7808,-22.278,-5.859,-9.338,150.233,23.412,-84.386
5331,-0.4238,0.4692,-0.7998,-23.804,-10.254,-10.193,150.002,23.560,-84.342
5341,-0.4180,0.4780,-0.7930,-23.804,-10.681,-9.216,149.771,23.708,-84.315
5351,-0.4038,0.4907,-0.7764,-22.644,-6.653,-7.812,149.540,23.802,-84.276
5361,-0.3804,0.5386,-0.8022,-17.639,-1.526,-6.958,149.354,23.829,-84.221
5371,-0.3613,0.5552,-0.8525,-9.094,5.249,-6.104,149.271,23.769,-84.133
5381,-0.3516,0.5293,-0.8750,-1.770,12.146,-5.432,149.299,23.648,-84.018
5391,-0.3701,0.4634,-0.8442,0.061,15.625,-6.348,149.376,23.522,-83.870
5401,-0.4102,0.4121,-0.7974,-5.493,11.414,-8.301,149.409,23.478,-83.727
5411,-0.4531,0.3843,-0.7554,-15.625,1.831,-10.193,149.337,23.560,-83.622
5421,-0.4834,0.3843,-0.7173,-25.269,-8.850,-10.681,149.128,23.758,-83.573
5431,-0.4893,0.4160,-0.6855,-30.090,-17.944,-8.728,148.821,24.033,-83.589
5441,-0.4814,0.4351,-0.6802,-26.245,-21.179,-5.066,148.519,24.307,-83.661
5451,-0.4351,0.4883,-0.7349,-15.259,-17.700,-0.305,148.304,24.478,-83.760
5461,-0.3506,0.5923,-0.8604,2.014,-5.920,4.822,148.266,24.439,-83.842
5471,-0.3057,0.6245,-0.9609,20.142,11.475,8.728,148.442,24.203,-83.853
5481,-0.2896,0.5977,-0.9941,29.541,26.794,10.071,148.766,23.824,-83.798
5491,-0.3032,0.5669,-0.9653,28.870,33.203,8.850,149.101,23.412,-83.688
5501,-0.3335,0.4951,-0.9111,20.935,28.748,3.479,149.381,23.093,-83.562
5511,-0.3691,0.4658,-0.8623,5.493,14.771,-2.625,149.502,22.956,-83.458
5521,-0.4019,0.4644,-0.8188,-11.108,-2.258,-8.484,149.425,23.022,-83.386
5531,-0.4312,0.4502,-0.7549,-23.132,-18.066,-12.207,149.200,23.264,-83.375
5541,-0.4634,0.4253,-0.6987,-27.771,-31.006,-12.756,148.898,23.659,-83.430
5551,-0.4897,0.4131,-0.6787,-24.719,-37.415,-11.292,148.612,24.109,-83.535
5561,-0.5044,0.3975,-0.6753,-15.930,-36.438,-8.423,148.409,24.549,-83.661
5571,-0.5073,0.3745,-0.6753,-5.127,-30.273,-3.784,148.326,24.911,-83.804
5581,-0.4810,0.3872,-0.7026,4.517,-19.958,1.709,148.343,25.131,-83.936
5591,-0.4429,0.4292,-0.7544,11.902,-5.920,7.324,148.442,25.164,-84.034
5601,-0.4170,0.4541,-0.8022,16.724,8.728,11.841,148.601,25.021,-84.095
5611,-0.3804,0.5015,-0.8511,17.639,20.996,14.526,148.777,24.730,-84.111
5621,-0.3608,0.5356,-0.8823,16.907,29.968,15.259,148.958,24.340,-84.084
5631,-0.3516,0.5391,-0.8911,14.832,33.264,13.367,149.128,23.934,-84.023
5641,-0.3657,0.5205,-0.8696,5.249,21.606,5.371,149.205,23.681,-83.952
5651,-0.3779,0.5205,-0.8530,-2.136,9.277,1.038,149.194,23.566,-83.908
5661,-0.3931,0.5112,-0.8267,-8.118,-4.272,-2.502,149.106,23.604,-83.908
5671,-0.4087,0.5073,-0.7979,-12.756,-15.442,-4.578,148.947,23.752,-83.952
5681,-0.4146,0.5024,-0.7749,-14.343,-22.278,-5.127,148.755,23.972,-84.034
5691,-0.4155,0.4971,-0.7749,-11.353,-24.536,-4.578,148.590,24.208,-84.128
5701,-0.4087,0.5029,-0.7910,-5.920,-21.667,-2.869,148.480,24.401,-84.227
5711,-0.4121,0.4888,-0.7832,0.244,-14.832,-0.549,148.447,24.521,-84.304
5721,-0.4253,0.4580,-0.7573,4.089,-8.118,1.160,148.469,24.598,-84.364
5731,-0.4404,0.4424,-0.7383,4.333,-3.540,1.953,148.502,24.642,-84.402
5741,-0.4536,0.4404,-0.7378,2.380,-0.671,2.014,148.519,24.670,-84.424
5751,-0.4585,0.4492,-0.7354,-1.221,1.099,2.136,148.502,24.681,-84.435
5761,-0.4502,0.4775,-0.7485,-4.028,2.808,2.380,148.453,24.670,-84.446
5771,-0.4224,0.5024,-0.7778,-4.089,5.371,2.686,148.398,24.609,-84.441
5781,-0.3799,0.5439,-0.8257,-2.197,8.606,3.052,148.370,24.483,-84.419
5791,-0.3564,0.5610,-0.8662,1.343,13.489,3.479,148.387,24.296,-84.370
5801,-0.3730,0.5249,-0.8438,3.601,16.846,3.601,148.447,24.099,-84.309
5811,-0.4072,0.4834,-0.7837,2.441,14.771,2.625,148.491,23.961,-84.249
5821,-0.4546,0.4224,-0.7241,-0.122,7.324,0.427,148.519,23.939,-84.210
5831,-0.4678,0.4097,-0.7036,-5.798,-3.662,-1.099,148.469,24.038,-84.221
5841,-0.4473,0.4546,-0.7334,-11.292,-10.010,-0.488,148.337,24.159,-84.276
5851,-0.4058,0.5078,-0.7959,-10.620,-8.301,2.014,148.195,24.208,-84.342
5861,-0.3784,0.5288,-0.8311,-4.150,0.183,5.676,148.123,24.142,-84.391
5872,-0.3779,0.5005,-0.8164,4.883,8.911,7.935,148.167,24.000,-84.413
5881,-0.3857,0.4570,-0.8047,12.146,13.367,8.240,148.310,23.835,-84.413
5891,-0.3857,0.4404,-0.8213,13.672,12.451,7.446,148.480,23.676,-84.413
5901,-0.3545,0.4780,-0.8691,9.460,9.521,7.385,148.596,23.516,-84.424
5913,-0.3281,0.5342,-0.9243,4.150,8.667,8.118,148.640,23.340,-84.452
5921,-0.3315,0.5474,-0.9263,0.610,9.399,8.301,148.645,23.154,-84.479
5931,-0.3462,0.5391,-0.8989,-2.686,8.301,6.775,148.618,23.000,-84.490
5941,-0.3545,0.5371,-0.8794,-3.967,3.723,3.418,148.574,22.912,-84.501
5951,-0.3643,0.5356,-0.8672,-4.211,-3.052,0.244,148.524,22.901,-84.523
5961,-0.3794,0.5273,-0.8481,-4.333,-9.705,-1.587,148.458,22.972,-84.562
5971,-0.3945,0.5156,-0.8159,-4.639,-14.832,-2.197,148.381,23.099,-84.628
5981,-0.4097,0.5005,-0.7837,-5.188,-18.555,-2.197,148.288,23.275,-84.710
5991,-0.4199,0.4858,-0.7534,-5.920,-20.752,-2.197,148.178,23.478,-84.809
6001,-0.4355,0.4673,-0.7241,-6.531,-21.545,-2.136,148.063,23.703,-84.913
6011,-0.4419,0.4531,-0.7021,-6.653,-21.240,-2.197,147.947,23.939,-85.018
6021,-0.4546,0.4399,-0.6914,-6.592,-19.226,-1.953,147.843,24.159,-85.111
6031,-0.4595,0.4385,-0.6890,-6.958,-14.832,-1.343,147.739,24.346,-85.182
6041,-0.4521,0.4595,-0.7080,-6.714,-9.033,0.000,147.645,24.456,-85.237
6051,-0.4355,0.4956,-0.7505,-4.944,-1.099,1.770,147.574,24.472,-85.259
6061,-0.4199,0.5249,-0.7881,-1.648,8.118,3.296,147.552,24.379,-85.243
6071,-0.4043,0.5371,-0.8120,1.892,15.442,3.845,147.585,24.214,-85.188
6081,-0.3955,0.5410,-0.8218,3.784,18.799,3.296,147.645,24.016,-85.106
6091,-0.3833,0.5420,-0.8281,3.418,17.334,1.892,147.706,23.829,-85.023
6101,-0.3745,0.5439,-0.8359,1.160,12.085,0.244,147.733,23.698,-84.957
6111,-0.3711,0.5435,-0.8403,-2.075,5.188,-1.465,147.722,23.626,-84.913
6121,-0.3765,0.5371,-0.8291,-4.883,-1.221,-3.296,147.678,23.626,-84.891
6131,-0.3906,0.5166,-0.8145,-7.019,-6.104,-4.944,147.612,23.687,-84.880
6141,-0.3867,0.5132,-0.8164,-8.484,-8.728,-5.981,147.535,23.774,-84.875
6151,-0.3804,0.5161,-0.8340,-8.911,-7.629,-6.470,147.458,23.846,-84.858
6161,-0.3730,0.5205,-0.8462,-9.033,-3.967,-6.714,147.393,23.884,-84.820
6171,-0.3711,0.5220,-0.8477,-8.789,-0.244,-6.958,147.343,23.890,-84.760
6181,-0.3872,0.5073,-0.8325,-8.545,1.282,-7.446,147.299,23.895,-84.683
6191,-0.4219,0.4834,-0.7788,-9.644,-1.343,-7.996,147.239,23.956,-84.617
6201,-0.4565,0.4463,-0.7158,-11.841,-8.118,-8.057,147.140,24.115,-84.589
6211,-0.4819,0.4253,-0.6719,-13.794,-15.503,-7.324,146.997,24.351,-84.617
6221,-0.5034,0.4126,-0.6450,-13.794,-21.118,-5.554,146.838,24.648,-84.688
6231,-0.4976,0.4268,-0.6426,-11.353,-22.888,-2.930,146.673,24.933,-84.803
6241,-0.4727,0.4692,-0.6880,-5.615,-18.066,0.854,146.558,25.126,-84.919
6251,-0.4082,0.5400,-0.7778,1.953,-6.348,5.432,146.530,25.131,-85.007
6261,-0.3643,0.5898,-0.8516,10.925,10.132,10.071,146.613,24.933,-85.040
6271,-0.3550,0.5762,-0.8721,18.188,25.513,12.390,146.805,24.593,-84.996
6281,-0.3774,0.5464,-0.8330,19.348,33.936,11.536,147.041,24.214,-84.902
6291,-0.4434,0.4687,-0.7451,15.076,29.846,7.019,147.244,23.950,-84.787
6301,-0.4814,0.4170,-0.6816,3.784,13.306,1.038,147.321,23.906,-84.716
6311,-0.4849,0.4360,-0.6621,-10.193,-3.418,-2.319,147.211,24.022,-84.716
6321,-0.4341,0.5317,-0.7354,-18.005,-13.550,-3.418,146.986,24.170,-84.765
6331,-0.3521,0.6553,-0.8691,-15.808,-11.292,-0.977,146.766,24.208,-84.825
6341,-0.2915,0.7314,-0.9668,-4.761,4.883,2.625,146.678,24.044,-84.820
6351,-0.2700,0.7031,-0.9824,8.606,20.447,3.235,146.783,23.741,-84.727
6361,-0.2925,0.6538,-0.9355,15.503,28.687,0.793,146.981,23.406,-84.562
6372,-0.3359,0.5688,-0.8687,16.174,25.818,-5.493,147.222,23.170,-84.359
6381,-0.4023,0.4800,-0.7886,6.897,10.559,-11.902,147.371,23.148,-84.188
6391,-0.4727,0.4077,-0.6870,-8.972,-9.644,-16.296,147.338,23.390,-84.095
6401,-0.5210,0.3682,-0.6133,-22.400,-28.687,-19.165,147.134,23.857,-84.084
6411,-0.5337,0.3481,-0.5937,-31.189,-42.236,-19.470,146.821,24.456,-84.155
6421,-0.5156,0.4077,-0.6240,-32.104,-45.166,-15.198,146.448,25.010,-84.287
6431,-0.4536,0.4951,-0.7178,-22.705,-34.180,-8.057,146.157,25.362,-84.424
6441,-0.3823,0.5820,-0.8403,-3.845,-10.071,0.549,146.085,25.395,-84.490
6451,-0.3394,0.5874,-0.9023,16.663,17.517,7.080,146.272,25.131,-84.446
6461,-0.3262,0.5703,-0.8979,28.259,38.452,10.254,146.629,24.681,-84.304
6471,-0.3340,0.5527,-0.8770,30.945,48.523,8.789,147.036,24.164,-84.095
6481,-0.3569,0.5137,-0.8594,25.757,44.373,4.456,147.398,23.725,-83.870
6491,-0.3867,0.4937,-0.8257,12.390,29.053,-0.305,147.607,23.467,-83.694
6501,-0.4268,0.4600,-0.7812,-2.136,8.972,-4.822,147.645,23.434,-83.600
6511,-0.4443,0.4565,-0.7544,-14.221,-10.620,-8.362,147.519,23.599,-83.584
6521,-0.4355,0.4692,-0.7720,-20.569,-24.353,-9.338,147.305,23.873,-83.639
6531,-0.4136,0.4980,-0.8052,-18.311,-27.893,-7.690,147.096,24.142,-83.732
6541,-0.3560,0.5728,-0.8813,-11.536,-21.545,-4.700,146.948,24.296,-83.820
6551,-0.2539,0.6875,-1.0249,-1.587,-6.042,-0.977,146.915,24.225,-83.848
6561,-0.1733,0.7529,-1.1313,5.981,16.357,1.831,146.997,23.906,-83.765
6571,-0.1758,0.7490,-1.1074,5.432,33.569,1.648,147.118,23.456,-83.578
6581,-0.2139,0.6816,-1.0254,-3.906,36.865,-5.859,147.178,23.044,-83.309
6591,-0.2817,0.6094,-0.9282,-23.193,26.733,-16.907,147.063,22.824,-82.996
6601,-0.3818,0.5220,-0.8135,-50.781,6.165,-28.015,146.678,22.912,-82.705
6611,-0.4502,0.4707,-0.7021,-79.712,-20.386,-38.452,145.970,23.340,-82.480
6621,-0.5020,0.4614,-0.6060,-98.267,-45.349,-43.579,145.009,24.055,-82.359
6631,-0.5503,0.4531,-0.5366,-99.487,-61.218,-40.894,143.965,24.922,-82.381
6641,-0.5903,0.4180,-0.4834,-84.167,-67.200,-33.142,143.026,25.834,-82.518
6651,-0.6279,0.3770,-0.4448,-57.800,-65.491,-23.010,142.322,26.702,-82.755
6661,-0.6484,0.3354,-0.4316,-26.733,-57.129,-12.085,141.927,27.455,-83.035
6671,-0.6489,0.3066,-0.4536,1.343,-43.274,-0.732,141.844,28.021,-83.331
6681,-0.6226,0.3101,-0.5088,20.935,-26.123,10.071,141.993,28.345,-83.600
6691,-0.5840,0.3501,-0.5854,32.166,-7.507,19.287,142.278,28.411,-83.826
6701,-0.5405,0.3979,-0.6455,36.987,11.414,26.123,142.630,28.229,-83.985
6711,-0.5039,0.4385,-0.6968,34.180,27.222,30.396,142.982,27.867,-84.073
6721,-0.4409,0.5083,-0.7686,27.283,39.551,31.616,143.278,27.345,-84.089
6731,-0.3867,0.5752,-0.8335,19.226,46.875,29.114,143.514,26.735,-84.034
6741,-0.3564,0.6108,-0.8628,11.353,46.631,23.376,143.685,26.142,-83.936
6751,-0.3462,0.6382,-0.8643,3.906,39.978,15.686,143.773,25.653,-83.809
6761,-0.3433,0.6553,-0.8579,-1.648,29.358,8.057,143.800,25.291,-83.688
6771,-0.3604,0.6499,-0.8335,-6.226,16.113,1.831,143.756,25.087,-83.600
6781,-0.3813,0.6431,-0.7959,-9.094,1.465,-2.380,143.652,25.043,-83.573
6791,-0.4019,0.6221,-0.7690,-8.240,-10.315,-4.456,143.536,25.120,-83.600
6801,-0.4053,0.5972,-0.7607,-4.395,-17.944,-5.066,143.443,25.269,-83.672
6811,-0.4199,0.5703,-0.7593,0.977,-20.386,-4.761,143.410,25.444,-83.765
6821,-0.4321,0.5298,-0.7388,5.737,-19.409,-3.845,143.437,25.620,-83.859
6831,-0.4487,0.5015,-0.7095,6.958,-17.883,-3.296,143.481,25.801,-83.947
6841,-0.4692,0.4829,-0.6885,6.592,-16.174,-3.845,143.531,25.983,-84.018
6851,-0.4868,0.4707,-0.6821,4.822,-13.428,-4.456,143.575,26.164,-84.067
6861,-0.4985,0.4478,-0.6753,2.563,-10.376,-5.493,143.619,26.334,-84.089
6872,-0.4966,0.4424,-0.6890,-0.427,-9.827,-9.033,143.657,26.510,-84.073
6881,-0.4771,0.4819,-0.7437,-5.676,-13.123,-17.700,143.668,26.741,-83.996
6891,-0.4507,0.5454,-0.8047,-11.963,-19.592,-32.349,143.646,27.065,-83.837
6901,-0.4331,0.5542,-0.8037,-19.409,-30.457,-51.208,143.586,27.576,-83.578
6911,-0.4458,0.5630,-0.7656,-29.724,-39.001,-65.918,143.448,28.251,-83.238
6921,-0.4912,0.5342,-0.6934,-37.842,-42.908,-70.679,143.229,29.020,-82.886
6931,-0.5435,0.4678,-0.5928,-40.771,-49.133,-63.110,142.927,29.850,-82.645
6941,-0.5610,0.4248,-0.5278,-42.114,-57.251,-48.767,142.520,30.690,-82.590
6951,-0.5439,0.4731,-0.5493,-39.551,-61.890,-30.029,142.015,31.421,-82.755
6961,-0.5156,0.6011,-0.6484,-24.170,-53.345,-10.864,141.575,31.893,-83.035
6971,-0.5078,0.6685,-0.7075,-2.197,-34.119,4.639,141.356,32.086,-83.331
6981,-0.4863,0.6704,-0.7397,16.479,-9.399,12.573,141.383,32.020,-83.513
6991,-0.4663,0.6523,-0.7534,29.053,10.193,12.756,141.625,31.794,-83.557
7001,-0.4780,0.5591,-0.7368,36.255,21.484,7.446,142.042,31.536,-83.469
7011,-0.5049,0.5054,-0.7109,31.189,24.902,0.732,142.465,31.322,-83.298
7021,-0.5205,0.4780,-0.6709,15.625,22.461,-4.883,142.745,31.185,-83.090
7031,-0.5557,0.4604,-0.6035,-0.305,11.536,-8.850,142.828,31.196,-82.925
7041,-0.5698,0.4785,-0.5840,-12.634,-2.808,-9.033,142.712,31.333,-82.864
7051,-0.5698,0.5244,-0.5977,-15.686,-13.367,-5.188,142.493,31.509,-82.908
7061,-0.5542,0.5552,-0.6401,-7.385,-16.968,0.061,142.322,31.663,-83.029
7071,-0.4897,0.6831,-0.7808,7.385,-12.024,4.150,142.300,31.668,-83.156
7081,-0.4268,0.7808,-0.9224,25.574,3.418,7.812,142.498,31.470,-83.205
7091,-0.3945,0.7861,-0.9644,37.598,19.348,10.071,142.877,31.119,-83.161
7101,-0.3896,0.6914,-0.8960,40.222,26.062,7.446,143.328,30.745,-83.046
7111,-0.4312,0.5205,-0.7563,33.630,18.372,0.916,143.745,30.536,-82.925
7121,-0.4893,0.4395,-0.6650,17.090,-0.183,-6.470,143.970,30.586,-82.864
7131,-0.5327,0.4253,-0.6250,-1.587,-17.334,-10.498,143.965,30.833,-82.886
7141,-0.5728,0.3975,-0.6152,-12.756,-30.701,-10.742,143.817,31.212,-82.996
7151,-0.5615,0.4761,-0.6987,-17.761,-35.828,-8.850,143.575,31.575,-83.161
7161,-0.5337,0.5806,-0.7896,-14.404,-25.879,-4.150,143.361,31.778,-83.298
7171,-0.4932,0.6494,-0.8506,-4.517,-8.484,1.587,143.267,31.767,-83.375
7181,-0.4561,0.6826,-0.8867,7.080,9.705,5.554,143.339,31.558,-83.359
7191,-0.4468,0.6514,-0.8452,16.541,22.583,6.104,143.542,31.256,-83.260
7201,-0.4863,0.5044,-0.7026,19.836,22.034,2.991,143.811,31.042,-83.134
7211,-0.5464,0.3657,-0.5649,12.451,6.470,-2.686,144.003,31.086,-83.062
7221,-0.5928,0.3135,-0.5005,0.549,-13.367,-7.446,144.036,31.377,-83.084
7231,-0.6162,0.3413,-0.5103,-9.033,-28.503,-7.568,143.904,31.789,-83.210
7241,-0.5845,0.4766,-0.6367,-13.123,-31.677,-3.235,143.668,32.108,-83.397
7251,-0.5273,0.6133,-0.7812,-8.240,-15.198,4.395,143.492,32.157,-83.546
7261,-0.4863,0.6504,-0.8369,2.014,10.437,11.902,143.476,31.932,-83.584
7271,-0.4526,0.6504,-0.8174,12.695,30.334,15.930,143.619,31.509,-83.524
7281,-0.4585,0.5791,-0.7612,23.499,39.063,14.221,143.910,31.058,-83.386
7291,-0.4946,0.4927,-0.6904,23.804,33.264,10.315,144.218,30.723,-83.254
7301,-0.5337,0.4453,-0.6382,14.893,17.639,6.348,144.404,30.580,-83.194
7311,-0.5527,0.4292,-0.6245,5.188,-0.122,2.808,144.454,30.624,-83.221
7321,-0.5518,0.4609,-0.6475,-1.709,-12.634,2.014,144.388,30.756,-83.326
7331,-0.5220,0.5454,-0.7344,-4.089,-15.625,3.418,144.267,30.850,-83.463
7341,-0.4863,0.5913,-0.8027,0.427,-8.179,5.493,144.212,30.833,-83.573
7351,-0.4722,0.5996,-0.8071,7.507,2.136,7.507,144.245,30.718,-83.628
7361,-0.4717,0.5806,-0.7720,15.503,10.620,9.460,144.382,30.531,-83.644
7372,-0.4902,0.5010,-0.7085,21.790,12.634,8.972,144.602,30.366,-83.644
7381,-0.5186,0.4512,-0.6655,19.714,7.019,6.653,144.800,30.295,-83.661
7391,-0.5386,0.4316,-0.6499,13.611,-0.488,3.906,144.932,30.322,-83.699
7401,-0.5498,0.4160,-0.6421,6.836,-6.409,1.831,144.987,30.416,-83.760
7411,-0.5420,0.4419,-0.6611,-0.305,-8.911,0.977,144.965,30.520,-83.831
7421,-0.5332,0.4863,-0.6899,-4.639,-6.287,1.831,144.888,30.580,-83.892
7431,-0.5278,0.5176,-0.7119,-4.517,0.122,3.479,144.816,30.564,-83.919
7441,-0.5024,0.5674,-0.7461,-1.465,6.897,4.578,144.783,30.460,-83.919
7451,-0.4712,0.6001,-0.7910,3.540,12.573,5.310,144.816,30.273,-83.886
7461,-0.4590,0.5981,-0.8081,7.080,14.587,4.639,144.899,30.075,-83.831
7471,-0.4658,0.5786,-0.7959,6.470,12.573,2.258,144.987,29.910,-83.771
7481,-0.4834,0.5283,-0.7500,3.357,7.202,-1.160,145.047,29.839,-83.710
7491,-0.5039,0.4990,-0.7070,-1.831,-1.160,-4.395,145.042,29.877,-83.677
7501,-0.5186,0.4956,-0.6816,-6.470,-8.667,-5.859,144.965,29.998,-83.677
7511,-0.5308,0.4883,-0.6670,-7.324,-13.367,-5.188,144.860,30.163,-83.716
7521,-0.5293,0.5054,-0.6846,-5.737,-13.733,-3.601,144.761,30.311,-83.776
7531,-0.5098,0.5293,-0.7261,-0.916,-8.240,-1.648,144.728,30.383,-83.815
7541,-0.4990,0.5308,-0.7490,5.615,0.977,0.000,144.783,30.355,-83.809
7551,-0.4907,0.5210,-0.7520,9.827,8.423,0.854,144.910,30.262,-83.760
7561,-0.4868,0.4937,-0.7334,11.414,12.756,1.099,145.074,30.135,-83.683
7571,-0.5005,0.4487,-0.7031,9.338,12.024,0.488,145.228,30.042,-83.611
7581,-0.5117,0.4419,-0.7017,3.784,7.751,-0.793,145.316,30.004,-83.551
7591,-0.5215,0.4561,-0.7124,-2.136,4.211,-1.282,145.338,29.993,-83.513
7601,-0.5176,0.4844,-0.7183,-6.653,3.113,-0.732,145.289,29.976,-83.485
7611,-0.4971,0.5381,-0.7515,-7.690,4.456,-0.061,145.223,29.927,-83.458
7621,-0.4644,0.5889,-0.7993,-3.174,7.080,0.732,145.195,29.817,-83.414
7631,-0.4463,0.5859,-0.8159,3.296,9.094,1.526,145.239,29.674,-83.370
7641,-0.4541,0.5522,-0.7954,7.812,8.667,1.099,145.338,29.553,-83.326
7651,-0.4761,0.5220,-0.7666,8.545,4.517,-0.854,145.448,29.498,-83.287
7661,-0.4990,0.4888,-0.7466,5.249,-0.977,-2.930,145.525,29.520,-83.265
7671,-0.5093,0.4814,-0.7363,-1.465,-5.676,-4.761,145.525,29.597,-83.254
7681,-0.5015,0.5117,-0.7632,-8.362,-7.141,-6.348,145.453,29.680,-83.243
7691,-0.4561,0.5884,-0.8535,-14.343,-3.357,-7.446,145.338,29.691,-83.194
7701,-0.3818,0.7051,-0.9956,-19.592,7.202,-8.484,145.201,29.559,-83.068
7711,-0.3394,0.7305,-1.0005,-24.475,21.057,-10.742,145.058,29.306,-82.826
7721,-0.3994,0.5874,-0.8228,-29.541,24.414,-15.991,144.910,29.119,-82.518
7731,-0.5015,0.4033,-0.6069,-35.706,10.986,-24.536,144.717,29.224,-82.216
7741,-0.6118,0.2671,-0.4355,-43.152,-12.695,-31.738,144.432,29.718,-82.002
7751,-0.6982,0.1934,-0.3281,-49.438,-38.025,-34.302,144.025,30.536,-81.936
7761,-0.7222,0.1978,-0.3013,-47.607,-57.678,-28.992,143.520,31.498,-82.057
7771,-0.7119,0.3188,-0.4019,-33.264,-57.800,-15.991,143.042,32.278,-82.310
7781,-0.6338,0.4736,-0.5884,-8.423,-34.546,2.319,142.800,32.618,-82.573
7791,-0.5400,0.5947,-0.7734,18.005,1.709,19.348,142.883,32.454,-82.744
7801,-0.4395,0.6768,-0.8760,38.147,37.231,30.579,143.240,31.866,-82.771
7811,-0.3740,0.6899,-0.9111,50.110,60.059,33.630,143.789,31.053,-82.661
7821,-0.3789,0.6353,-0.8662,46.814,62.134,28.870,144.333,30.273,-82.507
7831,-0.4175,0.5825,-0.8013,28.809,44.556,19.714,144.673,29.724,-82.392
7841,-0.4653,0.5664,-0.7510,5.920,18.921,9.705,144.728,29.482,-82.354
7851,-0.5107,0.5439,-0.7036,-12.024,-6.042,0.305,144.564,29.537,-82.397
7861,-0.5303,0.5464,-0.6846,-20.630,-25.757,-6.470,144.278,29.795,-82.507
7872,-0.5122,0.5830,-0.7222,-18.250,-34.973,-9.521,143.992,30.125,-82.656
7881,-0.4644,0.6636,-0.8394,-6.287,-30.029,-8.118,143.844,30.344,-82.782
7891,-0.4160,0.6865,-0.9165,6.958,-13.245,-4.089,143.877,30.372,-82.837
7901,-0.4121,0.6470,-0.8706,15.015,2.197,-1.343,144.036,30.267,-82.809
7914,-0.4399,0.5601,-0.7827,16.113,10.498,-0.610,144.240,30.130,-82.733
7921,-0.5044,0.4277,-0.6646,10.864,7.507,-3.052,144.415,30.108,-82.650
7931,-0.5728,0.3433,-0.5635,-0.427,-6.287,-7.202,144.465,30.311,-82.628
7941,-0.6021,0.3354,-0.5322,-11.108,-18.921,-9.827,144.371,30.652,-82.661
7951,-0.6191,0.3486,-0.5347,-15.015,-25.574,-9.033,144.201,31.047,-82.749
7961,-0.6211,0.3530,-0.5298,-14.038,-23.865,-5.554,144.031,31.404,-82.859
7971,-0.5835,0.3960,-0.5781,-8.606,-14.282,-0.793,143.910,31.602,-82.952
7981,-0.5400,0.4814,-0.6802,0.244,2.441,5.493,143.904,31.569,-82.985
7991,-0.5098,0.5449,-0.7549,10.132,20.630,12.024,144.020,31.306,-82.958
8001,-0.4570,0.6196,-0.8179,17.151,33.875,16.968,144.218,30.861,-82.886
8011,-0.4023,0.6978,-0.9141,19.836,42.236,17.639,144.459,30.300,-82.766
8021,-0.3896,0.6953,-0.9297,17.090,42.542,13.672,144.695,29.762,-82.606
8031,-0.4004,0.6748,-0.8794,7.141,33.691,6.958,144.822,29.355,-82.447
8041,-0.4365,0.5996,-0.7954,-3.906,18.677,-1.831,144.833,29.158,-82.310
8051,-0.4854,0.5322,-0.7065,-14.709,-1.953,-10.376,144.712,29.229,-82.222
8061,-0.5273,0.4941,-0.6489,-21.606,-20.874,-14.587,144.476,29.515,-82.227
8071,-0.5493,0.4692,-0.6348,-20.813,-34.119,-14.587,144.212,29.927,-82.315
8081,-0.5381,0.4976,-0.6812,-14.160,-36.194,-10.925,143.998,30.306,-82.458
8091,-0.5283,0.4707,-0.7075,-3.418,-25.391,-4.883,143.926,30.553,-82.584
8101,-0.5234,0.4316,-0.6997,5.493,-10.315,0.610,143.987,30.652,-82.661
8111,-0.5195,0.4043,-0.6938,9.705,4.639,4.517,144.135,30.613,-82.672
8121,-0.5356,0.3730,-0.6650,8.362,15.442,7.202,144.300,30.493,-82.634
8131,-0.5439,0.3789,-0.6387,1.587,19.348,9.460,144.388,30.339,-82.595
8141,-0.5400,0.3911,-0.6421,-4.944,20.203,10.315,144.404,30.168,-82.551
8151,-0.5576,0.3774,-0.6338,-11.047,20.386,9.399,144.366,30.020,-82.507
8161,-0.5278,0.4429,-0.6851,-19.470,20.691,7.446,144.234,29.839,-82.436
8171,-0.4702,0.5356,-0.7681,-25.757,24.170,5.493,144.042,29.581,-82.326
8181,-0.4268,0.6431,-0.8306,-29.846,27.100,5.066,143.795,29.262,-82.189
8191,-0.3706,0.7939,-0.8950,-29.602,28.809,5.676,143.520,28.878,-82.046
8201,-0.3501,0.8340,-0.8965,-20.691,29.968,6.531,143.317,28.471,-81.903
8211,-0.3779,0.7764,-0.8223,-9.399,23.437,5.981,143.207,28.152,-81.799
8221,-0.4346,0.6479,-0.7236,0.244,9.094,2.563,143.179,28.021,-81.760
8231,-0.5010,0.5049,-0.6377,6.104,-8.972,-1.892,143.201,28.141,-81.804
8241,-0.5386,0.4243,-0.5937,5.188,-24.963,-4.578,143.207,28.449,-81.931
8251,-0.5498,0.3999,-0.5898,0.732,-34.729,-3.418,143.141,28.839,-82.134
8261,-0.5215,0.4746,-0.6577,-2.563,-33.691,-0.488,143.020,29.147,-82.365
8271,-0.4819,0.5679,-0.7432,-2.258,-19.470,4.089,142.910,29.257,-82.535
8281,-0.4502,0.6250,-0.7930,3.906,0.122,8.423,142.899,29.152,-82.612
8291,-0.4312,0.6372,-0.7900,10.498,15.259,10.376,142.993,28.911,-82.601
8301,-0.4482,0.5854,-0.7500,15.320,21.912,8.972,143.168,28.647,-82.529
8311,-0.4771,0.5361,-0.7139,13.916,17.273,5.310,143.339,28.471,-82.463
8321,-0.4956,0.5098,-0.6973,7.080,6.531,1.526,143.427,28.427,-82.430
8331,-0.5049,0.4951,-0.6899,0.366,-4.700,-1.160,143.427,28.493,-82.452
8341,-0.4951,0.5107,-0.7036,-4.211,-12.329,-1.831,143.361,28.614,-82.518
8351,-0.4766,0.5493,-0.7368,-5.554,-13.550,-0.671,143.267,28.713,-82.606
8361,-0.4624,0.5669,-0.7476,-2.625,-10.803,1.282,143.196,28.768,-82.689
8372,-0.4492,0.5874,-0.7466,2.686,-7.019,3.357,143.168,28.768,-82.771
8381,-0.4575,0.5947,-0.7339,10.620,-3.540,5.920,143.218,28.729,-82.848
8391,-0.4751,0.5620,-0.7148,17.944,-2.441,8.179,143.333,28.691,-82.941
8401,-0.4946,0.5225,-0.7017,21.118,-3.845,8.911,143.492,28.674,-83.046
8411,-0.5010,0.4893,-0.7036,19.470,-5.432,7.812,143.652,28.691,-83.156
8421,-0.5068,0.4644,-0.7002,12.451,-5.981,5.432,143.762,28.729,-83.243
8431,-0.5000,0.4878,-0.7173,2.808,-4.578,3.113,143.778,28.762,-83.304
8441,-0.4819,0.5425,-0.7466,-5.005,0.000,2.197,143.723,28.735,-83.326
8451,-0.4678,0.5791,-0.7505,-7.874,5.554,2.197,143.641,28.652,-83.309
8461,-0.4531,0.6055,-0.7441,-6.714,8.667,2.197,143.564,28.537,-83.271
8471,-0.4497,0.5986,-0.7324,-1.953,8.057,1.160,143.536,28.438,-83.227
8481,-0.4663,0.5737,-0.7124,2.930,3.662,-0.305,143.553,28.394,-83.199
8491,-0.4941,0.5278,-0.6870,5.859,-2.136,-1.770,143.602,28.433,-83.194
8501,-0.5186,0.4619,-0.6562,5.676,-7.568,-2.991,143.657,28.559,-83.221
8511,-0.5288,0.4355,-0.6460,1.465,-10.437,-3.662,143.679,28.718,-83.254
8521,-0.5210,0.4517,-0.6616,-3.845,-8.118,-2.808,143.646,28.845,-83.287
8531,-0.4858,0.5615,-0.7324,-7.385,-0.793,-0.793,143.564,28.845,-83.282
8541,-0.4424,0.6440,-0.7983,-5.005,9.033,1.404,143.514,28.707,-83.238
8551,-0.4214,0.6680,-0.8213,0.671,16.785,2.808,143.536,28.488,-83.145
8561,-0.3989,0.6733,-0.8369,5.554,20.508,1.709,143.624,28.235,-83.024
8571,-0.4258,0.5981,-0.7969,8.301,18.127,-2.441,143.773,28.054,-82.881
8581,-0.4868,0.4810,-0.7124,4.089,7.751,-8.484,143.893,28.054,-82.749
8591,-0.5718,0.3223,-0.5591,-7.019,-7.080,-13.977,143.921,28.328,-82.672
8601,-0.7212,0.0166,-0.2920,-19.409,-27.893,-20.264,144.058,29.064,-82.672
8611,-0.7529,-0.0859,-0.2036,-34.485,-50.964,-26.184,-157.115,30.070,-82.771
8621,-0.6533,0.2139,-0.4155,-46.021,-49.988,-22.827,152.765,30.685,-82.304
8631,-0.5391,0.5864,-0.7671,-40.833,-22.034,-10.315,152.254,30.910,-82.315
8641,-0.3721,0.9756,-1.0957,-26.489,22.766,4.578,151.891,30.520,-82.238
8651,-0.2300,1.1870,-1.2207,-3.357,71.594,15.137,151.974,29.817,-82.002
8661,-0.1479,1.1436,-1.1738,27.405,100.403,14.526,152.446,28.867,-81.606
8671,-0.1489,0.9775,-1.0640,41.382,99.854,4.517,153.094,27.960,-81.123
8681,-0.2505,0.7476,-0.9419,30.884,67.932,-10.315,153.616,27.400,-80.673
8691,-0.3975,0.5425,-0.7910,2.808,17.090,-24.841,153.798,27.356,-80.332
8701,-0.5078,0.3970,-0.6523,-30.029,-35.034,-35.461,153.583,27.828,-80.151
8711,-0.5649,0.3276,-0.5562,-54.016,-76.111,-40.100,153.051,28.685,-80.129
8721,-0.6094,0.3008,-0.4995,-57.251,-99.304,-37.476,152.413,29.740,-80.261
8731,-0.6396,0.3081,-0.4976,-42.969,-99.731,-27.893,151.864,30.756,-80.508
8741,-0.6357,0.3325,-0.5454,-13.855,-78.796,-13.916,151.578,31.514,-80.793
8751,-0.5937,0.3960,-0.6060,11.414,-42.786,3.601,151.545,31.877,-81.074
8761,-0.5420,0.4775,-0.6860,32.593,-2.930,19.836,151.754,31.805,-81.293
8771,-0.4941,0.5371,-0.7275,38.513,29.297,31.311,152.056,31.399,-81.453
8781,-0.4663,0.5469,-0.7383,38.086,44.678,33.875,152.380,30.844,-81.563
8791,-0.4546,0.5576,-0.7476,29.480,43.945,28.687,152.644,30.322,-81.617
8801,-0.4531,0.5776,-0.7607,14.404,32.349,20.386,152.770,29.943,-81.656
8811,-0.4507,0.6406,-0.8027,-2.075,16.541,11.597,152.732,29.745,-81.689
8821,-0.4448,0.7002,-0.8345,-14.160,1.221,4.089,152.573,29.713,-81.722
8831,-0.4316,0.7314,-0.8320,-16.663,-10.010,-0.549,152.386,29.806,-81.771
8841,-0.4429,0.7031,-0.7930,-10.986,-16.235,-3.418,152.249,29.965,-81.821
8851,-0.4697,0.6147,-0.6997,-2.441,-20.386,-5.188,152.199,30.168,-81.881
8861,-0.5200,0.4878,-0.5894,3.784,-25.879,-5.676,152.194,30.427,-81.964
8872,-0.5625,0.4131,-0.5273,4.639,-32.288,-4.639,152.177,30.734,-82.090
8881,-0.5923,0.3945,-0.5039,1.892,-34.790,-1.221,152.106,31.047,-82.266
8891,-0.6113,0.3999,-0.5293,0.732,-29.663,3.052,152.012,31.295,-82.458
8901,-0.5879,0.4639,-0.5986,-0.305,-15.381,7.385,151.924,31.393,-82.617
8911,-0.5527,0.5054,-0.6597,2.930,4.517,10.559,151.913,31.306,-82.705
8921,-0.4863,0.6030,-0.7349,3.601,23.682,12.939,151.946,31.036,-82.705
8931,-0.4287,0.7051,-0.8115,4.517,37.781,14.160,152.023,30.635,-82.645
8941,-0.4033,0.7202,-0.8315,7.690,43.335,13.428,152.150,30.190,-82.546
8951,-0.4116,0.7007,-0.8110,7.996,38.086,10.315,152.281,29.806,-82.447
8961,-0.4507,0.6245,-0.7534,6.836,25.574,5.371,152.391,29.553,-82.365
8971,-0.4941,0.5396,-0.6938,2.258,6.897,-1.709,152.441,29.498,-82.310
8981,-0.5112,0.5034,-0.6719,-4.822,-11.536,-7.935,152.397,29.641,-82.288
8991,-0.5229,0.4844,-0.6714,-9.644,-23.193,-10.254,152.292,29.894,-82.310
9001,-0.5264,0.4824,-0.6553,-11.658,-26.184,-9.094,152.155,30.163,-82.359
9011,-0.5068,0.5171,-0.6870,-8.972,-20.386,-6.592,152.040,30.377,-82.397
9021,-0.4790,0.5435,-0.7271,-2.441,-7.385,-3.113,152.012,30.454,-82.408
9031,-0.4697,0.5386,-0.7334,4.517,4.944,-0.122,152.073,30.416,-82.381
9041,-0.4717,0.5298,-0.7256,8.606,13.367,1.831,152.188,30.289,-82.326
9051,-0.5000,0.4868,-0.6934,9.155,15.564,2.441,152.309,30.135,-82.266
9061,-0.5352,0.4243,-0.6362,5.371,10.010,1.770,152.380,30.042,-82.233
9071,-0.5493,0.4214,-0.6167,-1.770,2.075,1.038,152.364,30.020,-82.233
9081,-0.5552,0.4307,-0.6206,-5.676,-3.052,2.014,152.287,30.037,-82.266
9091,-0.5264,0.4858,-0.6665,-6.104,-2.502,4.395,152.194,30.037,-82.326
9101,-0.4756,0.5747,-0.7412,-1.648,3.296,7.324,152.150,29.976,-82.381
9111,-0.4385,0.6265,-0.7964,6.348,10.132,10.132,152.188,29.839,-82.430
9121,-0.4062,0.6509,-0.8242,12.390,12.512,11.169,152.292,29.674,-82.480
9131,-0.3721,0.7095,-0.8721,14.038,11.414,10.559,152.408,29.526,-82.524
9141,-0.3843,0.7119,-0.8604,13.550,7.690,8.850,152.518,29.416,-82.573
9151,-0.4229,0.6753,-0.8149,10.620,0.610,5.371,152.600,29.383,-82.623
9161,-0.4707,0.6084,-0.7544,6.592,-7.202,0.366,152.529,29.410,-82.667
9171,-0.5161,0.5244,-0.6895,0.916,-14.404,-4.761,152.430,29.575,-82.694
9181,-0.5312,0.4761,-0.6367,-5.859,-19.165,-8.118,152.271,29.822,-82.716
9191,-0.5415,0.4487,-0.6006,-10.437,-21.118,-9.216,152.067,30.108,-82.733
9201,-0.5376,0.4458,-0.5879,-11.841,-20.142,-8.484,151.848,30.383,-82.755
9211,-0.5176,0.5088,-0.6235,-10.193,-15.015,-5.371,151.622,30.564,-82.782
9221,-0.5083,0.5513,-0.6602,-3.540,-5.798,0.000,151.452,30.613,-82.815
9231,-0.5088,0.5469,-0.6875,5.432,2.869,4.395,151.392,30.564,-82.842
9241,-0.5020,0.5283,-0.7070,11.841,8.667,6.226,151.419,30.449,-82.859
9251,-0.5034,0.5015,-0.7241,13.672,10.559,5.859,151.496,30.322,-82.859
9261,-0.5000,0.4805,-0.7183,11.353,7.263,4.395,151.551,30.234,-82.864
9271,-0.4951,0.4683,-0.7192,7.141,0.793,2.991,151.562,30.212,-82.892
9281,-0.4971,0.4478,-0.7222,4.089,-7.874,1.587,151.540,30.273,-82.952
9291,-0.5005,0.4395,-0.7217,2.258,-16.541,1.648,151.479,30.416,-83.057
9301,-0.4858,0.4712,-0.7422,1.648,-22.095,3.540,151.381,30.575,-83.216
9311,-0.4771,0.5020,-0.7617,3.418,-22.034,7.324,151.265,30.701,-83.414
9321,-0.4683,0.5259,-0.7705,7.080,-19.287,10.681,151.172,30.778,-83.633
9331,-0.4463,0.5649,-0.7871,11.047,-16.907,12.207,151.100,30.806,-83.848
9341,-0.4341,0.5894,-0.7954,12.817,-16.968,12.085,151.040,30.822,-84.067
9351,-0.4424,0.6084,-0.7773,10.010,-20.447,11.292,150.930,30.883,-84.298
9361,-0.4580,0.6240,-0.7544,4.333,-24.902,10.132,150.743,30.987,-84.545
9372,-0.4883,0.6104,-0.7256,-0.793,-28.931,7.874,150.502,31.163,-84.787
9381,-0.5103,0.6055,-0.6978,-6.226,-30.701,4.517,150.211,31.382,-85.012
9391,-0.5166,0.6226,-0.6763,-9.827,-29.785,1.587,149.892,31.613,-85.199
9401,-0.5220,0.6616,-0.6675,-8.484,-26.428,0.427,149.579,31.811,-85.358
9411,-0.5249,0.6514,-0.6445,-1.282,-22.400,0.854,149.343,31.976,-85.501
9421,-0.5308,0.5937,-0.6006,7.202,-20.142,1.404,149.200,32.141,-85.638
9431,-0.5566,0.5200,-0.5518,11.963,-19.409,1.343,149.123,32.344,-85.770
9441,-0.5815,0.4810,-0.5283,11.169,-17.212,0.916,149.062,32.552,-85.880
9451,-0.5898,0.4971,-0.5547,7.202,-11.902,1.221,148.980,32.706,-85.968
9461,-0.5767,0.5454,-0.6187,3.662,-3.113,2.686,148.887,32.739,-86.012
9471,-0.5161,0.6611,-0.7476,1.465,8.667,4.578,148.799,32.591,-86.006
9481,-0.4189,0.8511,-0.9575,1.770,22.400,6.287,148.749,32.223,-85.935
9491,-0.3281,1.0117,-1.1304,3.967,34.302,5.798,148.870,31.899,-85.781
9501,-0.2847,0.9893,-1.1138,5.432,35.156,0.427,149.041,31.597,-85.573
9511,-0.3354,0.7476,-0.9097,2.075,16.785,-10.803,149.167,31.509,-85.364
9521,-0.4492,0.5186,-0.6650,-14.282,-14.648,-25.452,149.112,31.767,-85.193
9531,-0.5698,0.3730,-0.4687,-35.278,-44.128,-37.720,148.821,32.338,-85.078
9541,-0.6743,0.2603,-0.3286,-46.082,-64.087,-44.922,148.392,33.118,-85.018
9551,-0.7310,0.1841,-0.2612,-43.274,-68.726,-43.945,147.969,33.931,-85.001
9561,-0.7412,0.1680,-0.2847,-29.480,-54.321,-34.424,147.678,34.579,-84.996
9571,-0.7021,0.2344,-0.3999,-11.047,-26.428,-17.334,147.568,34.893,-84.990
9581,-0.6245,0.3857,-0.5732,10.620,7.751,2.319,147.695,34.816,-84.963
9591,-0.5591,0.5000,-0.6919,28.748,40.466,20.813,148.008,34.360,-84.913
9601,-0.5117,0.5708,-0.7725,41.992,58.228,31.311,148.458,33.701,-84.864
9611,-0.4844,0.5903,-0.8154,48.035,56.396,31.433,148.958,33.058,-84.831
9621,-0.4736,0.5913,-0.8188,40.894,40.344,26.489,149.354,32.574,-84.853
9631,-0.4854,0.5820,-0.8091,23.987,17.822,18.127,149.551,32.327,-84.930
9641,-0.5166,0.5537,-0.7788,5.981,-3.601,7.874,149.557,32.322,-85.029
9651,-0.5225,0.5444,-0.7588,-7.019,-18.616,-1.892,149.436,32.492,-85.122
9661,-0.5176,0.5557,-0.7598,-12.817,-21.912,-8.057,149.282,32.717,-85.172
9671,-0.5117,0.5610,-0.7500,-11.353,-15.259,-9.888,149.172,32.904,-85.166
9681,-0.5049,0.5562,-0.7334,-3.479,-5.371,-8.484,149.167,32.992,-85.111
9691,-0.5049,0.5186,-0.7021,3.418,2.380,-5.310,149.238,32.997,-85.040
9701,-0.5273,0.4497,-0.6318,5.859,5.737,-2.075,149.326,32.959,-84.985
9711,-0.5674,0.3867,-0.5659,3.113,2.686,-0.671,149.370,32.937,-84.963
9721,-0.6099,0.3467,-0.5205,-0.671,-2.625,-0.244,149.359,32.964,-84.974
9731,-0.6172,0.3633,-0.5190,-4.700,-4.028,1.343,149.288,32.992,-85.012
9741,-0.6050,0.4546,-0.5859,-3.723,1.160,5.432,149.227,32.953,-85.062
9751,-0.5532,0.5654,-0.7207,3.052,12.634,11.292,149.238,32.789,-85.100
9761,-0.4585,0.7300,-0.9102,10.498,28.442,16.663,149.343,32.459,-85.100
9771,-0.3984,0.7900,-0.9883,16.479,42.236,18.799,149.540,31.998,-85.034
9781,-0.3706,0.7363,-0.9414,17.212,41.748,14.465,149.766,31.564,-84.930
9791,-0.4067,0.6470,-0.8218,7.629,26.428,7.141,149.886,31.300,-84.847
9801,-0.4902,0.5537,-0.7036,-7.202,3.967,-0.366,149.832,31.267,-84.820
9811,-0.5713,0.4502,-0.5820,-22.034,-19.226,-6.104,149.584,31.465,-84.875
9821,-0.6284,0.3691,-0.4780,-32.410,-34.912,-6.653,149.183,31.800,-85.012
9831,-0.6382,0.3589,-0.4517,-34.058,-37.231,-2.563,148.738,32.135,-85.210
9841,-0.6099,0.4238,-0.5234,-24.109,-26.367,4.883,148.387,32.333,-85.424
9851,-0.5386,0.5601,-0.6743,-7.324,-4.395,15.869,148.211,32.289,-85.611
9861,-0.4678,0.6421,-0.7837,11.536,23.560,28.381,148.255,31.937,-85.748
9872,-0.4321,0.6470,-0.8237,24.353,43.030,35.645,148.453,31.382,-85.836
9881,-0.4087,0.6436,-0.8237,26.672,47.180,34.363,148.689,30.800,-85.891
9891,-0.4297,0.6074,-0.7847,18.433,33.630,27.710,148.837,30.372,-85.963
9901,-0.4644,0.5728,-0.7202,3.052,9.949,19.592,148.799,30.185,-86.100
9915,-0.5151,0.5093,-0.6377,-10.742,-12.573,11.108,148.601,30.234,-86.287
9921,-0.5703,0.4248,-0.5366,-17.944,-28.076,3.784,148.315,30.454,-86.490
9931,-0.6128,0.3916,-0.4697,-17.822,-33.325,-0.977,148.041,30.745,-86.682
9941,-0.6304,0.3711,-0.4546,-9.155,-27.771,-2.258,147.870,30.992,-86.836
9951,-0.5957,0.4404,-0.5576,2.930,-16.052,0.671,147.849,31.124,-86.940
9961,-0.4922,0.6147,-0.7720,13.977,5.066,8.667,147.958,31.036,-86.995
9971,-0.4121,0.7158,-0.9121,23.621,29.968,17.761,148.200,30.685,-86.984
9981,-0.3779,0.7373,-0.9170,27.405,42.358,21.973,148.497,30.212,-86.940
9991,-0.3682,0.6890,-0.8804,24.841,40.527,18.433,148.705,29.652,-86.880
10001,-0.3765,0.6533,-0.8403,13.794,28.259,10.864,148.810,29.257,-86.814
10011,-0.3955,0.6582,-0.8096,-3.357,11.108,2.625,148.716,29.064,-86.776
10021,-0.4248,0.6528,-0.7725,-14.954,-4.333,-4.822,148.486,29.064,-86.754
10031,-0.4595,0.6123,-0.7217,-18.799,-13.062,-9.827,148.222,29.191,-86.737
10041,-0.4927,0.5601,-0.6655,-16.479,-15.442,-12.573,147.991,29.388,-86.710
10051,-0.5151,0.5122,-0.6265,-10.559,-13.855,-13.489,147.838,29.608,-86.660
10061,-0.5342,0.4727,-0.6055,-4.822,-9.644,-11.536,147.755,29.800,-86.605
10071,-0.5361,0.4727,-0.6265,-0.488,-3.967,-7.019,147.728,29.916,-86.561
10081,-0.5327,0.4834,-0.6567,3.235,2.625,-2.136,147.733,29.938,-86.528
10091,-0.5264,0.4966,-0.6689,5.371,7.629,1.099,147.761,29.894,-86.490
10101,-0.5166,0.5107,-0.6860,5.981,10.986,2.502,147.799,29.800,-86.446
10111,-0.4995,0.5288,-0.7070,5.249,12.024,2.502,147.827,29.685,-86.396
10121,-0.4883,0.5522,-0.7168,3.845,10.010,2.197,147.832,29.575,-86.358
10131,-0.4814,0.5679,-0.7212,2.563,6.531,2.136,147.805,29.493,-86.336
10141,-0.4766,0.5708,-0.7207,1.892,2.808,1.953,147.761,29.438,-86.342
10151,-0.4766,0.5527,-0.7065,2.197,0.366,1.343,147.722,29.410,-86.353
10161,-0.4780,0.5439,-0.6992,2.991,-1.404,0.549,147.689,29.410,-86.364
10171,-0.4771,0.5449,-0.7036,4.456,-2.075,0.244,147.667,29.416,-86.380
10181,-0.4673,0.5640,-0.7432,6.348,-1.709,0.427,147.678,29.399,-86.396
10191,-0.4277,0.6284,-0.8267,7.812,-0.549,0.061,147.706,29.333,-86.396
10201,-0.4033,0.6836,-0.8833,8.606,-0.610,-1.099,147.739,29.246,-86.391
10211,-0.4004,0.6997,-0.8833,7.874,-6.958,-5.005,147.755,29.235,-86.385
10221,-0.4141,0.6733,-0.8423,4.150,-19.348,-10.437,147.728,29.372,-86.402
10231,-0.4502,0.6138,-0.7637,-2.075,-34.241,-15.747,147.612,29.696,-86.462
10241,-0.5005,0.5269,-0.6602,-9.705,-48.523,-20.325,147.404,30.218,-86.561
10251,-0.5503,0.4653,-0.5659,-15.381,-57.983,-22.888,147.112,30.888,-86.699
10261,-0.5928,0.4185,-0.5068,-15.381,-58.594,-22.766,146.821,31.613,-86.847
10271,-0.6147,0.3774,-0.4858,-9.949,-50.903,-19.287,146.602,32.272,-86.984
10281,-0.6138,0.3613,-0.5029,-2.380,-38.025,-12.695,146.492,32.778,-87.105
10291,-0.5908,0.3813,-0.5610,5.859,-20.630,-4.578,146.497,33.058,-87.198
10301,-0.5664,0.4150,-0.6216,12.085,-2.380,3.296,146.585,33.102,-87.248
10311,-0.5371,0.4834,-0.6855,13.977,13.123,9.155,146.706,32.937,-87.253
10321,-0.5068,0.5659,-0.7446,14.282,25.024,12.207,146.827,32.618,-87.209
10331,-0.4756,0.6348,-0.7993,13.672,32.654,13.062,146.953,32.201,-87.127
10341,-0.4507,0.6934,-0.8481,11.902,33.203,11.108,147.068,31.767,-87.023
10351,-0.4414,0.6826,-0.8530,9.949,27.405,7.202,147.162,31.404,-86.918
10361,-0.4399,0.6548,-0.8350,6.042,17.395,2.258,147.217,31.157,-86.830
10372,-0.4458,0.6274,-0.8130,1.282,5.554,-3.113,147.211,31.053,-86.765
10381,-0.4604,0.6084,-0.7754,-5.310,-6.653,-6.592,147.118,31.080,-86.743
10391,-0.4878,0.5728,-0.7178,-10.620,-14.221,-7.812,146.948,31.212,-86.754
10401,-0.5220,0.5381,-0.6543,-11.230,-18.982,-8.179,146.750,31.415,-86.797
10411,-0.5527,0.5078,-0.6069,-6.531,-20.203,-7.324,146.591,31.657,-86.852
10421,-0.5874,0.4473,-0.5542,0.793,-17.761,-5.371,146.514,31.915,-86.918
10431,-0.6030,0.4019,-0.5327,6.165,-13.428,-2.502,146.503,32.141,-86.979
10441,-0.5933,0.4131,-0.5630,8.911,-7.507,1.831,146.530,32.272,-87.045
10451,-0.5664,0.4619,-0.6353,10.742,0.854,6.958,146.580,32.267,-87.111
10461,-0.5386,0.5195,-0.7041,11.169,10.498,12.146,146.629,32.108,-87.160
10471,-0.5044,0.5869,-0.7563,8.667,19.348,17.700,146.646,31.805,-87.209
10481,-0.4819,0.6152,-0.7817,6.653,23.560,23.010,146.624,31.426,-87.281
10491,-0.4775,0.6094,-0.7690,4.517,21.729,26.855,146.558,31.047,-87.407
10501,-0.4883,0.5620,-0.7144,1.831,15.320,28.442,146.437,30.734,-87.583
10511,-0.5044,0.5195,-0.6567,-1.770,6.714,28.320,146.255,30.531,-87.814
10521,-0.5137,0.5161,-0.6328,-5.066,-0.793,28.870,146.003,30.394,-88.099
10531,-0.4985,0.5684,-0.6826,-4.517,-2.625,29.846,145.750,30.240,-88.401
10541,-0.4692,0.6138,-0.7500,1.343,3.662,31.372,145.574,29.987,-88.682
10551,-0.4438,0.6426,-0.7939,7.996,13.184,32.227,145.497,29.636,-88.901
10561,-0.4219,0.6675,-0.8057,13.550,20.142,31.250,145.503,29.218,-89.066
10571,-0.4272,0.6519,-0.7769,15.015,19.592,29.297,145.525,28.834,-89.214
10581,-0.4585,0.6113,-0.7173,12.207,11.414,26.245,145.503,28.564,-89.390
10591,-0.5132,0.5229,-0.6211,6.165,-2.319,22.034,145.404,28.499,-89.610
10601,-0.5430,0.4814,-0.5474,-1.343,-15.564,17.395,145.195,28.608,-89.874
10611,-0.5586,0.4810,-0.5400,-6.104,-19.592,13.733,144.948,28.779,-90.132
10621,-0.5288,0.5605,-0.6309,-5.005,-13.367,12.146,144.734,28.850,-90.330
10631,-0.4937,0.6021,-0.7080,2.808,1.526,12.512,144.662,28.762,-90.439
10641,-0.4653,0.5967,-0.7324,12.268,14.771,13.550,144.728,28.537,-90.467
10651,-0.4575,0.5576,-0.7041,17.395,21.484,13.245,144.882,28.273,-90.450
10661,-0.4902,0.4756,-0.6470,15.930,17.090,9.155,145.036,28.114,-90.423
10671,-0.5220,0.4434,-0.6001,6.409,6.531,3.235,145.091,28.109,-90.406
10681,-0.5381,0.4575,-0.6035,-5.920,-1.770,-2.258,145.014,28.213,-90.401
10691,-0.5039,0.5483,-0.6963,-12.756,-4.395,-8.301,144.877,28.306,-90.352
10701,-0.4609,0.6250,-0.7974,-12.085,0.793,-12.756,144.789,28.334,-90.225
10711,-0.4058,0.6855,-0.8721,-7.507,8.423,-15.259,144.778,28.273,-90.027
10721,-0.3584,0.7085,-0.8999,-1.221,14.038,-17.761,144.855,28.152,-89.775
10731,-0.3545,0.6641,-0.8628,2.136,12.939,-20.142,144.981,28.059,-89.500
10741,-0.3867,0.6016,-0.7861,0.732,4.883,-20.752,145.063,28.070,-89.280
10751,-0.4438,0.5342,-0.6919,-5.432,-6.958,-18.616,145.047,28.224,-89.149
10761,-0.4834,0.4917,-0.6235,-10.864,-17.944,-15.015,144.915,28.482,-89.127
10771,-0.5190,0.4746,-0.5942,-11.719,-24.231,-10.376,144.734,28.795,-89.187
10781,-0.5312,0.4976,-0.6123,-7.446,-21.545,-5.859,144.580,29.059,-89.275
10791,-0.5278,0.5107,-0.6611,1.465,-8.606,-2.258,144.553,29.174,-89.313
10801,-0.5112,0.5176,-0.7036,10.620,6.409,0.732,144.668,29.130,-89.275
10811,-0.4736,0.5332,-0.7471,16.724,17.395,2.136,144.877,28.954,-89.182
10821,-0.4478,0.5420,-0.7832,17.639,21.057,1.526,145.118,28.740,-89.055
10831,-0.4370,0.5562,-0.7949,12.573,17.761,0.183,145.294,28.548,-88.945
10841,-0.4341,0.5698,-0.7852,3.845,10.620,-1.282,145.360,28.427,-88.863
10851,-0.4536,0.5474,-0.7485,-3.967,1.709,-3.418,145.322,28.405,-88.819
10861,-0.4673,0.5454,-0.7158,-9.827,-6.836,-6.531,145.206,28.493,-88.802
10872,-0.4746,0.5352,-0.7051,-10.315,-9.827,-10.559,145.096,28.625,-88.770
10881,-0.4819,0.5234,-0.7026,-7.874,-6.836,-14.099,145.042,28.762,-88.682
10891,-0.4683,0.5400,-0.7368,-6.775,1.160,-13.123,145.025,28.812,-88.550
10901,-0.4473,0.5703,-0.7759,-4.456,12.512,-9.521,145.052,28.729,-88.380
10911,-0.4404,0.5605,-0.7935,-1.160,20.691,-6.287,145.129,28.553,-88.187
10921,-0.4404,0.5435,-0.7769,-0.977,21.851,-4.761,145.206,28.367,-88.000
10931,-0.4600,0.5107,-0.7339,-1.099,16.296,-5.493,145.267,28.251,-87.841
10941,-0.4883,0.4966,-0.6836,-2.258,7.385,-7.874,145.289,28.251,-87.720
10951,-0.5093,0.5039,-0.6538,-3.662,1.282,-11.902,145.278,28.345,-87.599
10961,-0.5264,0.4888,-0.6377,-1.892,-1.282,-18.494,145.311,28.510,-87.435
10971,-0.5254,0.4927,-0.6562,-0.366,-0.732,-26.794,145.404,28.707,-87.193
10981,-0.5186,0.5171,-0.6777,-2.441,4.578,-29.297,145.497,28.861,-86.885
10991,-0.4946,0.5640,-0.7051,-5.981,11.597,-24.536,145.541,28.900,-86.578
11001,-0.4521,0.6318,-0.7427,-7.812,17.151,-14.282,145.519,28.801,-86.336
11011,-0.4365,0.6685,-0.7612,-6.165,20.203,-2.747,145.464,28.597,-86.177
11021,-0.4341,0.6558,-0.7451,0.061,20.203,4.517,145.443,28.356,-86.089
11031,-0.4448,0.6328,-0.7310,4.578,17.639,6.287,145.448,28.141,-86.034
11041,-0.4604,0.5879,-0.7144,6.348,14.587,3.906,145.486,27.982,-85.979
11051,-0.4893,0.5435,-0.6909,5.310,8.606,0.916,145.525,27.922,-85.930
11061,-0.5024,0.5430,-0.6743,1.953,0.488,0.183,145.503,27.938,-85.930
11071,-0.5068,0.5415,-0.6724,1.648,-6.714,1.831,145.448,28.004,-85.990
11081,-0.4937,0.5620,-0.6890,2.808,-9.949,4.272,145.382,28.076,-86.094
11091,-0.4551,0.5742,-0.7373,6.775,-6.775,5.554,145.371,28.076,-86.188
11101,-0.4375,0.5640,-0.7759,10.620,-0.488,5.249,145.437,28.015,-86.243
11111,-0.4268,0.5557,-0.7861,11.047,4.944,4.211,145.536,27.911,-86.248
11121,-0.4185,0.5566,-0.7974,9.583,7.812,2.686,145.640,27.784,-86.226
11131,-0.4243,0.5415,-0.7939,5.371,6.042,0.977,145.706,27.691,-86.193
11141,-0.4507,0.5381,-0.7676,-1.160,0.916,-0.854,145.695,27.669,-86.182
11151,-0.4907,0.5249,-0.7305,-6.042,-3.662,-2.991,145.624,27.724,-86.177
11161,-0.5249,0.4912,-0.6821,-8.240,-6.653,-5.432,145.530,27.850,-86.166
11171,-0.5356,0.4800,-0.6602,-8.240,-6.958,-7.202,145.443,28.004,-86.144
11181,-0.5205,0.4683,-0.6567,-6.470,-4.822,-7.080,145.388,28.130,-86.111
11191,-0.4980,0.4702,-0.6807,-3.845,-1.221,-5.188,145.366,28.196,-86.067
11201,-0.4546,0.5093,-0.7349,-1.404,3.845,-2.258,145.371,28.169,-86.023
11211,-0.4233,0.5576,-0.7793,1.343,9.338,0.610,145.404,28.043,-85.968
11221,-0.4214,0.5937,-0.7783,2.563,11.475,2.441,145.426,27.889,-85.919
11231,-0.4302,0.6118,-0.7739,3.052,9.949,2.808,145.437,27.751,-85.880
11241,-0.4424,0.6069,-0.7695,3.296,5.676,1.343,145.443,27.664,-85.858
11251,-0.4712,0.5601,-0.7324,2.014,-0.061,-1.526,145.437,27.664,-85.842
11261,-0.4932,0.5146,-0.6870,-1.709,-5.798,-4.700,145.404,27.762,-85.836
11271,-0.5000,0.4961,-0.6733,-5.676,-9.277,-6.531,145.327,27.905,-85.836
11281,-0.4849,0.5142,-0.6948,-7.996,-8.850,-5.859,145.228,28.021,-85.836
11291,-0.4668,0.5557,-0.7236,-6.958,-3.174,-2.563,145.135,28.054,-85.836
11301,-0.4639,0.5493,-0.7100,-2.319,3.601,0.977,145.091,28.010,-85.820
11311,-0.4771,0.5215,-0.6758,2.258,7.019,3.052,145.091,27.949,-85.803
11321,-0.5068,0.4961,-0.6431,4.822,6.470,3.235,145.118,27.922,-85.792
11331,-0.5474,0.4243,-0.5918,5.371,2.747,2.502,145.162,27.971,-85.798
11341,-0.5464,0.4321,-0.6108,2.441,0.122,1.953,145.173,28.043,-85.814
11351,-0.5049,0.5000,-0.7012,0.793,3.784,2.930,145.173,28.021,-85.814
11361,-0.4390,0.6206,-0.8159,1.526,12.085,5.737,145.173,27.839,-85.792
11372,-0.3579,0.7607,-0.9365,4.944,22.217,8.179,145.212,27.499,-85.726
11381,-0.3184,0.8154,-0.9893,10.925,28.748,8.606,145.322,27.081,-85.616
11391,-0.3252,0.7554,-0.9395,14.709,25.452,4.700,145.481,26.730,-85.501
11401,-0.3706,0.6421,-0.8276,12.756,11.719,-2.502,145.618,26.576,-85.402
11411,-0.4263,0.5337,-0.7402,5.066,-5.798,-10.132,145.679,26.664,-85.347
11421,-0.4956,0.4429,-0.6558,-5.737,-20.081,-15.625,145.635,26.966,-85.325
11431,-0.5596,0.3564,-0.5791,-15.320,-29.419,-18.616,145.503,27.438,-85.342
11441,-0.5718,0.3291,-0.5566,-21.240,-28.076,-17.944,145.327,27.911,-85.353
11451,-0.5532,0.3633,-0.5947,-21.362,-15.625,-12.329,145.151,28.213,-85.342
11461,-0.5063,0.4492,-0.6724,-14.954,1.953,-2.869,145.036,28.251,-85.298
11471,-0.4409,0.5513,-0.7671,-3.662,19.714,7.751,145.014,28.015,-85.243
11481,-0.3960,0.6367,-0.8315,10.071,33.813,16.418,145.124,27.570,-85.177
11491,-0.3828,0.6489,-0.8535,21.729,36.438,18.921,145.344,27.092,-85.117
11501,-0.3945,0.6113,-0.8267,24.902,26.978,15.503,145.585,26.724,-85.089
11511,-0.4243,0.5425,-0.7803,19.653,9.216,8.240,145.767,26.576,-85.106
11521,-0.4404,0.5269,-0.7695,6.775,-7.141,0.732,145.811,26.614,-85.155
11531,-0.4487,0.5366,-0.7715,-6.042,-18.127,-5.005,145.712,26.779,-85.226
11541,-0.4312,0.5562,-0.7886,-13.062,-20.874,-7.507,145.547,26.966,-85.287
11551,-0.4282,0.5723,-0.7920,-14.954,-15.259,-6.714,145.371,27.098,-85.320
11561,-0.4312,0.5728,-0.7754,-11.353,-7.751,-4.639,145.234,27.158,-85.331
11571,-0.4360,0.5581,-0.7559,-5.066,-2.014,-2.441,145.173,27.164,-85.320
11581,-0.4443,0.5488,-0.7417,0.732,0.244,-0.916,145.168,27.153,-85.309
11591,-0.4780,0.5068,-0.6948,4.578,-1.648,-0.305,145.195,27.186,-85.314
11601,-0.5493,0.4014,-0.5869,4.150,-8.911,-1.099,145.223,27.372,-85.364
11611,-0.5830,0.3521,-0.5210,-0.977,-16.052,-2.380,145.179,27.669,-85.446
11621,-0.5864,0.3584,-0.5259,-5.249,-17.517,-2.075,145.091,27.971,-85.540
11631,-0.5713,0.4126,-0.5747,-6.104,-11.780,1.465,144.981,28.169,-85.627
11641,-0.5010,0.5322,-0.6924,-2.686,1.892,7.568,144.904,28.130,-85.688
11651,-0.3950,0.6826,-0.8569,5.249,20.691,14.099,144.921,27.795,-85.682
11661,-0.3296,0.7637,-0.9458,13.306,36.072,18.982,145.042,27.268,-85.622
11671,-0.2969,0.7700,-0.9629,18.677,38.513,17.761,145.228,26.719,-85.540
11681,-0.2998,0.7334,-0.9458,19.531,27.588,10.864,145.426,26.307,-85.463
11691,-0.3437,0.6855,-0.8979,10.742,7.202,1.892,145.519,26.142,-85.435
11701,-0.4268,0.5937,-0.7935,-2.380,-14.282,-6.653,145.459,26.268,-85.463
11711,-0.5049,0.5005,-0.6836,-13.916,-32.288,-14.343,145.272,26.658,-85.534
11721,-0.5645,0.4263,-0.5820,-19.104,-40.894,-20.020,145.031,27.219,-85.611
11731,-0.6016,0.3516,-0.5244,-18.677,-37.537,-21.729,144.838,27.812,-85.655
11741,-0.5854,0.3364,-0.5410,-15.808,-24.170,-18.311,144.723,28.257,-85.644
11751,-0.5312,0.3872,-0.5962,-10.315,-5.127,-9.277,144.668,28.438,-85.589
11761,-0.4746,0.4731,-0.6675,-0.427,13.855,2.808,144.695,28.328,-85.523
11771,-0.4634,0.5234,-0.6978,10.498,28.015,15.015,144.805,28.010,-85.479
11781,-0.4907,0.4985,-0.6636,18.677,30.029,21.545,144.970,27.669,-85.485
11791,-0.5239,0.4312,-0.6147,20.569,18.982,20.203,145.146,27.477,-85.545
11801,-0.5308,0.4155,-0.6362,14.465,5.920,15.503,145.256,27.416,-85.655
11811,-0.4854,0.5005,-0.7539,5.249,-0.610,11.108,145.272,27.367,-85.759
11821,-0.4160,0.6118,-0.8828,1.038,2.075,9.094,145.250,27.235,-85.831
11831,-0.3306,0.7227,-1.0034,0.793,10.376,8.606,145.239,26.977,-85.842
11841,-0.2500,0.7847,-1.0654,0.854,18.555,7.446,145.256,26.625,-85.792
11851,-0.2310,0.7764,-1.0132,-0.916,18.433,4.272,145.256,26.285,-85.715
11861,-0.2817,0.7285,-0.8970,-4.700,6.042,-1.648,145.190,26.120,-85.660
11872,-0.3857,0.6465,-0.7539,-9.827,-11.536,-8.057,145.031,26.208,-85.660
11881,-0.4946,0.5327,-0.6196,-13.062,-26.794,-13.184,144.822,26.554,-85.710
11891,-0.5430,0.4863,-0.5596,-15.869,-34.546,-15.991,144.575,27.021,-85.787
11901,-0.5737,0.4385,-0.5454,-12.695,-30.762,-15.137,144.388,27.477,-85.853
11916,-0.5786,0.3960,-0.5718,-7.324,-18.494,-11.536,144.316,27.817,-85.864
11921,-0.5439,0.4141,-0.6401,-1.953,-1.709,-6.348,144.344,27.944,-85.820
11931,-0.4858,0.4800,-0.7261,2.258,14.526,-0.488,144.437,27.839,-85.721
11941,-0.4399,0.5547,-0.7759,5.310,24.841,4.883,144.547,27.581,-85.600
11951,-0.4102,0.6274,-0.8208,7.263,26.001,7.996,144.641,27.268,-85.501
11961,-0.4058,0.6543,-0.8262,8.789,19.287,7.996,144.723,27.004,-85.452
11971,-0.4209,0.6196,-0.7886,9.033,7.690,4.639,144.783,26.873,-85.446
11981,-0.4287,0.5903,-0.7676,6.592,-2.869,-0.977,144.822,26.873,-85.452
11991,-0.4478,0.5479,-0.7520,2.747,-9.705,-6.409,144.838,26.977,-85.457
12001,-0.4556,0.5068,-0.7324,-1.160,-12.085,-10.437,144.838,27.136,-85.441
12011,-0.4585,0.4697,-0.7168,-5.737,-9.277,-11.902,144.827,27.285,-85.391
12021,-0.4424,0.5020,-0.7393,-10.071,-3.357,-10.681,144.772,27.367,-85.314
12031,-0.4331,0.5454,-0.7622,-10.498,4.822,-7.263,144.706,27.345,-85.215
12041,-0.4536,0.5317,-0.7378,-6.836,10.620,-3.601,144.679,27.268,-85.111
12051,-0.4678,0.5352,-0.7139,-3.235,12.634,-1.343,144.679,27.180,-85.018
12061,-0.4766,0.5557,-0.7065,0.916,11.292,-0.610,144.695,27.098,-84.941
12071,-0.4692,0.5889,-0.7139,5.615,9.094,0.183,144.734,27.021,-84.880
12081,-0.4312,0.6362,-0.7651,10.559,10.254,1.221,144.816,26.895,-84.825
12091,-0.3926,0.6763,-0.8252,14.648,16.785,2.075,144.959,26.680,-84.738
12101,-0.3643,0.6841,-0.8550,16.785,24.841,1.892,145.151,26.389,-84.595
12111,-0.3433,0.6714,-0.8560,15.625,29.602,-0.305,145.360,26.060,-84.402
12121,-0.3569,0.6343,-0.8203,10.742,28.503,-4.822,145.536,25.785,-84.177
12131,-0.4263,0.5435,-0.7290,3.418,19.897,-11.597,145.646,25.681,-83.947
12141,-0.4990,0.4526,-0.6440,-4.395,7.507,-18.494,145.684,25.790,-83.732
12151,-0.5571,0.3979,-0.5908,-12.207,-1.404,-22.522,145.651,26.049,-83.535
12161,-0.6104,0.3281,-0.5376,-16.846,-4.395,-22.522,145.596,26.389,-83.353
12171,-0.6313,0.2686,-0.4976,-17.090,-2.808,-19.287,145.558,26.741,-83.194
12181,-0.6113,0.2710,-0.5151,-11.414,4.395,-12.573,145.574,26.971,-83.051
12191,-0.5518,0.3164,-0.6118,-0.427,15.991,-3.479,145.701,26.977,-82.919
12201,-0.4380,0.4404,-0.7793,10.864,27.405,5.859,145.909,26.713,-82.798
12211,-0.3579,0.5547,-0.9077,18.616,35.461,15.015,146.157,26.257,-82.716
12221,-0.3208,0.6235,-0.9668,22.400,36.804,20.813,146.404,25.730,-82.678
12231,-0.3394,0.5937,-0.9395,22.278,28.076,20.386,146.635,25.302,-82.694
12241,-0.3535,0.5586,-0.9028,16.113,11.414,14.648,146.783,25.060,-82.760
12251,-0.3906,0.5371,-0.8486,-6.104,-18.250,0.793,146.678,25.164,-82.881
12261,-0.3892,0.5449,-0.8252,-12.024,-24.048,-3.601,146.514,25.351,-82.991
12271,-0.3633,0.5630,-0.8374,-11.536,-20.813,-6.042,146.365,25.499,-83.062
12281,-0.3467,0.6123,-0.8574,-12.085,-12.817,-5.798,146.212,25.565,-83.090
12291,-0.3345,0.6606,-0.8701,-8.423,-5.188,-4.333,146.102,25.543,-83.079
12301,-0.3594,0.6602,-0.8496,-0.977,-3.052,-3.235,146.052,25.516,-83.068
12311,-0.3921,0.6396,-0.8052,4.333,-5.005,-3.357,146.052,25.527,-83.068
12321,-0.4229,0.6094,-0.7671,6.348,-8.911,-5.066,146.069,25.609,-83.079
12331,-0.4565,0.5630,-0.7197,5.005,-14.099,-7.507,146.069,25.774,-83.095
12341,-0.4956,0.5049,-0.6514,1.221,-17.456,-10.254,146.036,26.027,-83.112
12351,-0.5327,0.4395,-0.5835,-4.211,-16.296,-12.634,145.970,26.334,-83.095
12361,-0.5684,0.3774,-0.5161,-9.766,-12.024,-13.916,145.876,26.664,-83.040
12372,-0.5928,0.3447,-0.4839,-13.733,-5.798,-13.367,145.767,26.966,-82.952
12381,-0.6035,0.3462,-0.4893,-15.015,2.380,-10.071,145.651,27.186,-82.842
12391,-0.6035,0.3491,-0.5181,-11.902,11.841,-4.333,145.591,27.279,-82.727
12401,-0.5786,0.3730,-0.5698,-4.700,21.118,2.502,145.607,27.224,-82.617
12411,-0.5337,0.4077,-0.6367,4.028,27.893,9.949,145.706,27.021,-82.535
12421,-0.4800,0.4478,-0.7285,10.925,31.128,16.541,145.860,26.697,-82.491
12431,-0.4204,0.4980,-0.8213,14.099,31.677,20.691,146.030,26.290,-82.485
12441,-0.3384,0.5933,-0.9473,13.733,31.250,21.606,146.184,25.823,-82.491
12451,-0.2607,0.6719,-1.0581,11.169,29.602,19.470,146.310,25.329,-82.485
12461,-0.2192,0.6958,-1.0903,10.010,23.804,13.611,146.431,24.901,-82.463
12471,-0.2119,0.6738,-1.0776,4.517,11.963,5.676,146.497,24.620,-82.441
12481,-0.2104,0.6782,-1.0513,-5.249,0.488,-2.380,146.464,24.478,-82.419
12491,-0.2363,0.6782,-1.0044,-15.503,-10.681,-8.240,146.310,24.478,-82.408
12501,-0.2910,0.6416,-0.9243,-18.860,-20.569,-11.597,146.102,24.609,-82.425
12511,-0.3604,0.5640,-0.8271,-15.991,-25.757,-13.855,145.926,24.851,-82.458
12521,-0.4321,0.4624,-0.7100,-12.573,-27.710,-15.198,145.800,25.181,-82.491
12531,-0.4976,0.4185,-0.6162,-12.146,-29.602,-13.855,145.657,25.587,-82.546
12541,-0.5444,0.4009,-0.5674,-10.498,-28.198,-9.033,145.503,25.994,-82.645
12551,-0.5796,0.3691,-0.5381,-5.371,-23.010,-2.625,145.399,26.351,-82.766
12561,-0.5923,0.3701,-0.5312,0.000,-14.526,3.540,145.338,26.614,-82.886
12571,-0.5742,0.3994,-0.5571,5.493,-2.869,8.972,145.338,26.719,-82.991
12581,-0.5366,0.4482,-0.6196,10.315,7.385,13.489,145.393,26.664,-83.068
12591,-0.4692,0.5215,-0.7231,13.611,15.991,15.869,145.497,26.455,-83.112
12601,-0.4067,0.5977,-0.8252,14.404,21.851,15.747,145.624,26.142,-83.117
12611,-0.3589,0.6602,-0.8843,11.841,22.400,12.939,145.728,25.807,-83.095
12621,-0.3369,0.6792,-0.8755,5.981,16.479,8.728,145.761,25.532,-83.073
12631,-0.3423,0.6943,-0.8452,-1.404,5.615,3.845,145.695,25.384,-83.073
12641,-0.3677,0.6807,-0.8062,-6.531,-5.249,-1.282,145.563,25.373,-83.095
12651,-0.3970,0.6289,-0.7666,-5.371,-11.963,-5.798,145.453,25.466,-83.117
12661,-0.4194,0.5776,-0.7437,-3.601,-13.855,-8.362,145.377,25.615,-83.128
12671,-0.4399,0.5259,-0.7295,-3.052,-9.216,-7.935,145.344,25.735,-83.112
12681,-0.4507,0.4912,-0.7192,-1.404,-3.418,-6.165,145.344,25.818,-83.079
12691,-0.4595,0.4761,-0.7129,0.183,1.221,-4.700,145.377,25.856,-83.024
12701,-0.4609,0.4702,-0.7178,1.709,5.127,-3.601,145.437,25.862,-82.963
12711,-0.4507,0.4800,-0.7241,2.014,7.141,-2.563,145.497,25.829,-82.892
12721,-0.4507,0.4863,-0.7256,1.587,5.981,-0.610,145.541,25.801,-82.848
12731,-0.4473,0.4937,-0.7310,2.808,4.578,1.587,145.574,25.763,-82.837
12741,-0.4375,0.4971,-0.7461,4.395,4.822,3.113,145.629,25.714,-82.831
12751,-0.4233,0.4932,-0.7666,4.700,5.676,3.113,145.695,25.637,-82.826
12761,-0.4141,0.4951,-0.7915,2.625,6.470,2.441,145.750,25.554,-82.809
12771,-0.4116,0.5078,-0.8057,-0.305,6.470,1.831,145.778,25.472,-82.782
12781,-0.4189,0.5132,-0.8042,-2.136,5.859,0.916,145.789,25.400,-82.755
12791,-0.4131,0.5332,-0.8086,-5.127,5.188,-0.549,145.761,25.340,-82.722
12801,-0.4033,0.5488,-0.8135,-7.996,5.310,-2.014,145.706,25.274,-82.667
12811,-0.4038,0.5469,-0.8032,-9.766,4.700,-3.296,145.635,25.230,-82.606
12821,-0.3979,0.5317,-0.7793,-10.925,4.456,-4.150,145.552,25.192,-82.540
12831,-0.3984,0.5259,-0.7490,-13.306,4.639,-5.249,145.448,25.164,-82.463
12841,-0.4111,0.5239,-0.7207,-16.541,4.211,-7.324,145.311,25.170,-82.370
12851,-0.4263,0.5205,-0.7056,-20.691,3.479,-11.536,145.140,25.214,-82.244
12861,-0.4419,0.5210,-0.6987,-27.100,2.686,-17.822,144.926,25.307,-82.068
12872,-0.4692,0.5195,-0.6826,-34.729,2.502,-25.024,144.662,25.466,-81.826
12881,-0.4932,0.5000,-0.6504,-41.870,2.747,-31.982,144.360,25.681,-81.519
12891,-0.5039,0.5161,-0.6323,-47.180,3.296,-37.354,144.009,25.933,-81.161
12901,-0.5083,0.5435,-0.6279,-47.119,5.554,-39.246,143.663,26.169,-80.771
12911,-0.4961,0.6064,-0.6465,-39.795,9.216,-34.973,143.366,26.334,-80.398
12921,-0.4712,0.6548,-0.6782,-25.635,12.085,-26.794,143.179,26.395,-80.074
12931,-0.4443,0.6504,-0.6997,-7.141,14.221,-17.273,143.157,26.373,-79.827
12941,-0.4258,0.6289,-0.7290,8.606,14.587,-7.935,143.273,26.279,-79.656
12951,-0.4048,0.6138,-0.7725,18.372,13.367,-1.648,143.487,26.142,-79.552
12961,-0.3984,0.5703,-0.7979,21.545,11.292,1.404,143.734,26.005,-79.492
12971,-0.3877,0.5552,-0.8340,17.761,7.874,1.221,143.954,25.884,-79.448
12981,-0.3828,0.5557,-0.8555,10.742,5.554,-0.916,144.113,25.796,-79.404
12991,-0.3931,0.5327,-0.8262,3.723,4.456,-3.174,144.201,25.735,-79.349
13001,-0.4180,0.4971,-0.7690,-1.709,1.404,-5.859,144.240,25.746,-79.288
13011,-0.4380,0.4985,-0.7334,-2.563,-4.333,-8.301,144.250,25.834,-79.239
13021,-0.4517,0.4917,-0.7207,1.160,-9.766,-7.751,144.283,25.972,-79.233
13031,-0.4624,0.4829,-0.7227,7.202,-12.756,-4.944,144.355,26.125,-79.272
13041,-0.4585,0.4883,-0.7617,13.672,-10.193,-1.587,144.498,26.224,-79.321
13051,-0.4116,0.5303,-0.8403,17.700,-2.991,1.038,144.695,26.202,-79.354
13061,-0.3701,0.5630,-0.8755,18.494,5.859,3.540,144.904,26.071,-79.349
13071,-0.3462,0.5684,-0.8735,15.991,11.780,4.333,145.096,25.873,-79.310
13081,-0.3364,0.5620,-0.8608,9.888,11.536,1.831,145.239,25.692,-79.255
13091,-0.3525,0.5723,-0.8281,0.244,4.333,-2.380,145.261,25.609,-79.206
13101,-0.3853,0.6021,-0.7900,-9.521,-5.615,-5.737,145.151,25.642,-79.189
13111,-0.4331,0.6191,-0.7339,-14.526,-14.038,-6.531,144.943,25.779,-79.217
13121,-0.4741,0.5928,-0.6860,-13.184,-19.836,-6.714,144.723,25.994,-79.283
13131,-0.4946,0.5620,-0.6558,-8.545,-22.278,-7.385,144.553,26.257,-79.360
13141,-0.5005,0.5176,-0.6421,-2.625,-21.912,-8.545,144.465,26.532,-79.426
13151,-0.5068,0.4653,-0.6348,2.258,-20.447,-9.827,144.459,26.818,-79.464
13161,-0.5117,0.4404,-0.6396,4.211,-17.456,-10.803,144.509,27.081,-79.481
13171,-0.5054,0.4585,-0.6523,2.563,-13.367,-10.498,144.542,27.307,-79.475
13181,-0.4863,0.5044,-0.6890,0.854,-9.460,-9.155,144.553,27.455,-79.453
13191,-0.4697,0.5439,-0.7217,0.549,-4.639,-6.775,144.553,27.532,-79.420
13201,-0.4692,0.5732,-0.7446,1.648,-0.061,-4.456,144.569,27.548,-79.376
13211,-0.4546,0.6235,-0.7949,4.761,3.418,-3.418,144.613,27.510,-79.327
13221,-0.4375,0.6387,-0.8281,7.812,5.737,-3.723,144.701,27.438,-79.255
13231,-0.4116,0.6465,-0.8521,7.751,5.615,-5.310,144.800,27.356,-79.167
13241,-0.3906,0.6572,-0.8848,6.409,3.845,-7.507,144.888,27.290,-79.074
13251,-0.3828,0.6406,-0.8823,4.089,1.160,-9.949,144.965,27.257,-78.975
13261,-0.4058,0.5703,-0.7944,0.488,-3.296,-13.000,145.009,27.312,-78.876
13271,-0.4683,0.4424,-0.6553,-3.235,-10.681,-16.296,145.025,27.526,-78.794
13281,-0.5283,0.3398,-0.5742,-5.432,-17.517,-18.799,145.042,27.883,-78.734
13291,-0.5615,0.3179,-0.5552,-7.141,-19.531,-17.517,145.042,28.273,-78.701
13301,-0.5737,0.3184,-0.5586,-6.714,-15.381,-11.597,145.031,28.597,-78.690
13311,-0.5483,0.3560,-0.6416,-2.563,-4.578,-2.869,145.063,28.735,-78.695
13321,-0.4766,0.4829,-0.7847,1.770,11.597,6.653,145.118,28.586,-78.679
13331,-0.4058,0.5928,-0.8877,5.737,27.527,15.137,145.206,28.202,-78.640
13341,-0.3682,0.6597,-0.9287,9.216,35.767,20.325,145.311,27.691,-78.602
13351,-0.3525,0.7051,-0.9482,11.963,33.447,19.958,145.421,27.197,-78.569
13361,-0.3452,0.7197,-0.9268,13.062,21.973,15.991,145.514,26.818,-78.580
13372,-0.3760,0.6597,-0.8677,11.841,4.944,9.827,145.580,26.647,-78.640
13381,-0.4341,0.5503,-0.7891,8.606,-13.000,1.404,145.618,26.724,-78.734
13391,-0.4854,0.4658,-0.7256,2.808,-25.085,-7.141,145.618,26.993,-78.827
13401,-0.5229,0.4121,-0.6699,-2.991,-30.029,-13.306,145.591,27.378,-78.893
13411,-0.5303,0.3867,-0.6445,-6.897,-28.381,-14.832,145.536,27.773,-78.937
13421,-0.5142,0.4175,-0.6675,-7.324,-20.447,-11.414,145.475,28.059,-78.959
13431,-0.4907,0.4556,-0.6895,-4.089,-8.301,-4.700,145.443,28.180,-78.970
13441,-0.4668,0.4829,-0.7100,1.221,2.686,2.502,145.453,28.147,-78.975
13451,-0.4438,0.5181,-0.7422,6.592,10.559,8.179,145.514,27.993,-78.986
13461,-0.4463,0.5171,-0.7563,10.803,14.771,11.597,145.613,27.790,-78.997
13471,-0.4619,0.4873,-0.7451,11.475,13.794,11.169,145.734,27.609,-79.014
13481,-0.4746,0.4795,-0.7466,7.202,9.888,8.118,145.811,27.488,-79.025
13491,-0.4673,0.4912,-0.7705,0.854,5.920,4.456,145.838,27.411,-79.030
13501,-0.4453,0.5220,-0.8042,-5.066,4.028,1.770,145.800,27.345,-79.019
13511,-0.4321,0.5596,-0.8174,-9.155,5.066,0.427,145.723,27.263,-78.992
13521,-0.4180,0.5854,-0.8086,-9.888,6.775,0.366,145.624,27.158,-78.953
13531,-0.3975,0.6240,-0.8149,-7.629,7.690,1.343,145.536,27.026,-78.915
13541,-0.4014,0.6211,-0.7935,-3.235,6.042,1.770,145.475,26.917,-78.893
13551,-0.4414,0.5562,-0.7329,0.427,-0.671,0.916,145.448,26.906,-78.909
13561,-0.4980,0.4805,-0.6738,1.221,-8.545,-1.038,145.432,27.021,-78.953
13571,-0.5479,0.3877,-0.6143,-1.465,-15.320,-2.869,145.410,27.263,-79.025
13581,-0.5771,0.3301,-0.5776,-6.592,-18.799,-3.906,145.355,27.576,-79.107
13591,-0.5610,0.3691,-0.6113,-10.559,-14.954,-2.625,145.250,27.817,-79.178
13601,-0.5078,0.4766,-0.6924,-10.010,-3.479,2.075,145.135,27.867,-79.222
13611,-0.4204,0.6450,-0.8428,-3.967,12.817,8.484,145.074,27.653,-79.217
13621,-0.3320,0.7896,-0.9741,3.723,30.029,14.709,145.096,27.197,-79.156
13631,-0.2988,0.8262,-0.9756,11.169,39.001,16.968,145.195,26.642,-79.063
13641,-0.3555,0.6641,-0.8311,16.174,32.654,13.428,145.355,26.219,-78.981
13651,-0.4814,0.4297,-0.6426,13.062,11.841,3.479,145.514,26.158,-78.937
13661,-0.5918,0.2480,-0.4902,-1.526,-14.526,-8.240,145.563,26.537,-78.953
13671,-0.6704,0.1597,-0.4106,-16.663,-35.706,-15.747,145.497,27.219,-79.030
13681,-0.6401,0.2661,-0.5195,-25.391,-39.368,-15.747,145.272,27.828,-79.140
13691,-0.4849,0.6123,-0.8286,-24.109,-15.503,-5.005,144.992,27.960,-79.189
13701,-0.2788,0.9771,-1.1460,-10.376,26.306,12.024,144.915,27.675,-79.129
13711,-0.1255,1.2036,-1.2725,7.751,64.331,26.062,145.074,26.999,-78.953
13721,-0.0854,1.0884,-1.1274,30.029,72.937,27.954,145.470,26.241,-78.745
13731,-0.2183,0.7427,-0.8730,40.771,47.852,13.611,145.959,25.768,-78.563
13741,-0.4302,0.4331,-0.6387,21.545,-0.916,-8.606,146.206,25.823,-78.492
13751,-0.5762,0.2466,-0.4663,-9.521,-51.392,-27.283,146.080,26.406,-78.558
13761,-0.6909,0.1528,-0.3511,-35.034,-85.876,-36.926,145.646,27.323,-78.750
13771,-0.7334,0.1353,-0.3052,-42.175,-93.079,-37.598,145.113,28.301,-78.992
13781,-0.7065,0.1709,-0.3765,-30.701,-71.960,-29.663,144.712,29.064,-79.184
13791,-0.5859,0.3184,-0.5449,-8.118,-30.090,-12.329,144.591,29.377,-79.266
13801,-0.4805,0.4648,-0.7207,18.250,16.479,10.132,144.783,29.185,-79.255
13811,-0.4067,0.5786,-0.8633,36.743,53.284,28.625,145.190,28.586,-79.167
13821,-0.3525,0.6470,-0.9639,47.180,67.993,35.461,145.717,27.823,-79.058
13831,-0.3223,0.6514,-1.0083,43.701,61.096,32.654,146.190,27.136,-78.975
13841,-0.3242,0.6147,-0.9810,24.109,39.307,22.705,146.448,26.686,-78.942
13851,-0.3560,0.6001,-0.9302,-1.648,9.766,7.385,146.426,26.559,-78.948
13861,-0.3896,0.6045,-0.8726,-22.461,-16.846,-6.348,146.184,26.735,-78.992
13872,-0.4146,0.6035,-0.8218,-29.053,-34.912,-15.808,145.860,27.114,-79.063
13881,-0.4204,0.5859,-0.8037,-21.606,-39.856,-18.738,145.607,27.548,-79.140
13891,-0.4399,0.5259,-0.7744,-7.324,-32.898,-16.235,145.508,27.911,-79.200
13901,-0.4609,0.4575,-0.7231,5.981,-21.484,-10.498,145.552,28.147,-79.239
13911,-0.4800,0.4038,-0.6768,13.184,-12.207,-3.784,145.662,28.273,-79.283
13921,-0.5088,0.3730,-0.6338,13.000,-6.653,2.380,145.761,28.312,-79.349
13931,-0.5493,0.3604,-0.5884,7.874,-4.211,6.897,145.794,28.312,-79.437
13941,-0.5767,0.3530,-0.5679,4.272,-2.686,9.460,145.789,28.279,-79.547
13951,-0.5718,0.3794,-0.6064,2.502,0.916,10.498,145.772,28.213,-79.640
13961,-0.5190,0.4712,-0.7065,2.502,7.996,11.597,145.767,28.081,-79.695
13971,-0.4399,0.6104,-0.8467,5.371,16.968,13.794,145.811,27.861,-79.717
13981,-0.3574,0.7358,-0.9453,8.484,24.475,15.991,145.898,27.570,-79.711
13991,-0.3145,0.7676,-0.9634,11.597,26.062,14.709,146.030,27.274,-79.684
14001,-0.3223,0.7573,-0.9258,10.986,18.677,8.301,146.157,27.070,-79.645
14011,-0.3618,0.6841,-0.8462,6.531,4.700,-0.854,146.239,27.037,-79.607
14021,-0.4370,0.5625,-0.7256,-1.160,-11.169,-10.376,146.239,27.186,-79.579
14031,-0.5054,0.4473,-0.6226,-10.437,-22.217,-17.883,146.146,27.471,-79.552
14041,-0.5566,0.3726,-0.5581,-17.761,-26.184,-21.545,145.986,27.806,-79.514
14051,-0.5811,0.3325,-0.5288,-19.775,-20.996,-19.653,145.816,28.092,-79.464
14061,-0.5757,0.3555,-0.5537,-16.235,-8.667,-12.756,145.684,28.235,-79.398
14071,-0.5254,0.4346,-0.6499,-6.042,7.629,-3.113,145.657,28.191,-79.321
14081,-0.4902,0.4844,-0.7114,6.226,23.499,6.836,145.761,27.960,-79.233
14091,-0.4580,0.5200,-0.7617,16.052,34.912,13.672,145.964,27.592,-79.140
14101,-0.4111,0.5693,-0.8286,21.362,37.903,14.771,146.228,27.197,-79.036
14111,-0.3838,0.5859,-0.8491,19.836,35.095,12.268,146.475,26.834,-78.931
14121,-0.3789,0.5796,-0.8501,14.343,28.748,6.592,146.667,26.559,-78.816
14131,-0.3853,0.5825,-0.8643,5.798,21.057,-1.038,146.788,26.389,-78.679
14141,-0.3833,0.5815,-0.8442,-3.845,14.160,-7.690,146.821,26.312,-78.519
14151,-0.4062,0.5825,-0.8071,-9.521,8.484,-11.169,146.794,26.301,-78.365
14161,-0.4272,0.5596,-0.7754,-8.057,3.540,-10.681,146.766,26.334,-78.239
14171,-0.4585,0.4937,-0.7261,-1.221,-0.732,-7.629,146.783,26.378,-78.173
14181,-0.5005,0.4146,-0.6685,6.531,-3.967,-3.967,146.854,26.433,-78.162
14191,-0.5225,0.3516,-0.6362,11.475,-5.920,-0.427,146.959,26.488,-78.195
14201,-0.5220,0.3159,-0.6294,12.451,-6.470,2.930,147.052,26.526,-78.261
14211,-0.4785,0.3677,-0.7183,9.521,-3.662,6.287,147.112,26.521,-78.344
14221,-0.4048,0.5088,-0.8545,3.723,4.578,9.460,147.140,26.389,-78.404
14231,-0.3330,0.6436,-0.9546,-0.305,14.160,11.597,147.118,26.104,-78.426
14241,-0.2983,0.7173,-1.0049,-0.916,19.409,11.292,147.085,25.757,-78.415
14251,-0.2954,0.7290,-0.9956,0.244,16.296,7.324,147.068,25.461,-78.382
14261,-0.3296,0.6812,-0.9272,1.038,5.188,0.916,147.057,25.318,-78.360
14271,-0.3911,0.5791,-0.8257,-0.122,-10.254,-5.981,147.030,25.395,-78.365
14281,-0.4473,0.4819,-0.7280,-5.493,-23.987,-11.047,146.953,25.670,-78.409
14291,-0.4893,0.3955,-0.6587,-11.780,-31.738,-13.245,146.827,26.076,-78.481
14301,-0.5195,0.3267,-0.6084,-15.564,-31.067,-11.658,146.689,26.505,-78.558
14311,-0.5371,0.3032,-0.5762,-15.686,-23.071,-6.775,146.552,26.862,-78.640
14321,-0.5449,0.3125,-0.5645,-10.254,-11.353,1.099,146.459,27.081,-78.717
14331,-0.5156,0.3906,-0.6343,0.000,1.038,10.559,146.437,27.092,-78.810
14341,-0.4780,0.4731,-0.7261,11.475,12.329,19.043,146.508,26.906,-78.915
14351,-0.4272,0.5713,-0.8184,19.287,19.470,24.475,146.640,26.570,-79.019
14361,-0.3545,0.7051,-0.9487,22.095,21.667,26.062,146.777,26.153,-79.129
14372,-0.3164,0.7495,-1.0073,20.874,18.921,22.034,146.909,25.757,-79.222
14381,-0.2944,0.7295,-0.9814,15.198,11.841,12.695,147.003,25.466,-79.266
14391,-0.3154,0.6509,-0.9189,6.226,1.221,0.793,147.041,25.356,-79.266
14401,-0.3652,0.5591,-0.8354,-5.798,-11.230,-10.864,146.992,25.455,-79.233
14411,-0.4312,0.5088,-0.7603,-18.799,-20.142,-18.066,146.816,25.714,-79.189
14421,-0.5010,0.4341,-0.6548,-25.940,-24.109,-19.958,146.574,26.093,-79.151
14431,-0.5205,0.4058,-0.6055,-25.940,-23.254,-17.151,146.321,26.472,-79.129
14441,-0.4912,0.4712,-0.6582,-19.470,-15.747,-9.399,146.102,26.702,-79.140
14451,-0.3760,0.6646,-0.8853,-6.958,-2.380,0.488,145.997,26.636,-79.162
14461,-0.1694,1.0020,-1.2588,5.798,21.790,10.681,146.069,26.400,-79.124
14471,-0.0815,1.0664,-1.2979,14.893,46.265,15.076,146.283,25.928,-78.975
14481,-0.1855,0.8228,-1.0200,14.709,42.969,4.883,146.530,25.543,-78.755
14491,-0.3848,0.5151,-0.6982,1.587,14.404,-16.235,146.646,25.516,-78.519
14501,-0.6294,0.1729,-0.3745,-22.461,-27.710,-38.818,146.503,25.961,-78.327
14511,-0.8604,-0.1665,-0.0776,-48.462,-69.824,-56.335,-114.994,26.851,-78.234
14521,-0.9790,-0.3418,0.0737,-64.270,-93.628,-61.768,-115.076,26.686,-76.987
14531,-1.0015,-0.3765,0.0928,-60.547,-86.121,-47.363,-115.192,26.625,-75.894
14541,-0.9175,-0.2046,-0.0615,-36.987,-50.354,-13.794,-115.302,26.713,-75.317
14551,-0.6841,0.1250,-0.4072,-0.061,5.859,31.616,162.933,26.977,-75.526
14561,-0.4561,0.5532,-0.8481,37.415,63.721,70.801,163.059,26.158,-76.075
14571,-0.2681,1.0161,-1.2192,66.528,102.356,89.417,163.449,24.917,-76.696
14581,-0.0381,1.2788,-1.4604,92.407,111.511,88.806,164.125,23.599,-77.283
14591,0.1211,1.2539,-1.5552,98.755,94.177,68.604,164.938,22.500,-77.723
14601,0.1494,1.0762,-1.5024,70.679,53.528,34.302,165.564,21.896,-77.932
14611,0.0205,0.9395,-1.3447,15.198,-1.465,-2.075,165.723,21.918,-77.915
14621,-0.1411,0.8052,-1.1001,-34.973,-51.208,-33.813,165.454,22.495,-77.695
14631,-0.3101,0.6304,-0.8262,-62.988,-83.740,-54.382,164.954,23.445,-77.355
14641,-0.4712,0.4683,-0.5933,-68.970,-95.459,-60.730,164.410,24.521,-76.987
14651,-0.5879,0.3281,-0.4575,-53.284,-90.088,-54.504,164.009,25.538,-76.674
14661,-0.6582,0.1968,-0.3799,-25.208,-73.181,-38.879,163.839,26.345,-76.487
14671,-0.6860,0.1182,-0.3398,1.587,-47.058,-19.165,163.883,26.851,-76.426
14681,-0.7075,0.0850,-0.3457,22.949,-18.005,-0.122,164.086,27.026,-76.481
14691,-0.6899,0.1089,-0.4102,33.386,8.972,14.954,164.361,26.900,-76.613
14701,-0.6348,0.2002,-0.5332,26.917,27.161,23.926,164.548,26.570,-76.789
14711,-0.5464,0.3594,-0.6890,11.963,37.048,27.527,164.586,26.142,-76.976
14721,-0.4482,0.5225,-0.8354,-2.808,39.368,27.100,164.482,25.692,-77.151
14731,-0.3623,0.6987,-0.9390,-12.207,37.598,24.597,164.290,25.263,-77.300
14741,-0.3062,0.8062,-0.9722,-8.850,32.349,19.775,164.158,24.895,-77.415
14751,-0.2915,0.8120,-0.9746,0.854,20.813,13.062,164.130,24.664,-77.492
14761,-0.3149,0.7607,-0.9380,5.981,5.310,5.371,164.174,24.598,-77.531
14771,-0.3652,0.6523,-0.8667,5.005,-9.094,-2.441,164.224,24.692,-77.536
14781,-0.4146,0.5479,-0.7822,-1.709,-21.423,-9.399,164.224,24.922,-77.498
14791,-0.4785,0.4321,-0.6758,-10.864,-29.053,-13.855,164.136,25.241,-77.437
14801,-0.5308,0.3525,-0.5742,-18.738,-30.945,-15.442,163.982,25.576,-77.366
14811,-0.5908,0.3311,-0.5044,-19.348,-27.405,-12.207,163.806,25.878,-77.322
14821,-0.6289,0.2993,-0.4590,-11.475,-19.836,-5.432,163.691,26.082,-77.327
14831,-0.5937,0.3652,-0.5181,-0.671,-7.996,3.479,163.658,26.147,-77.388
14841,-0.4893,0.5210,-0.7275,11.230,11.475,13.245,163.724,25.999,-77.492
14851,-0.4009,0.6616,-0.8960,18.433,30.457,20.691,163.850,25.653,-77.618
14861,-0.3384,0.7368,-0.9834,21.912,40.710,22.583,164.020,25.197,-77.734
14872,-0.2754,0.8076,-1.0361,19.226,37.720,17.822,164.180,24.785,-77.811
14881,-0.2681,0.8052,-0.9956,13.672,23.132,8.240,164.312,24.538,-77.827
14891,-0.3286,0.7573,-0.9082,4.883,2.319,-3.235,164.377,24.527,-77.783
14901,-0.3960,0.6729,-0.8066,-5.005,-16.968,-14.526,164.372,24.730,-77.684
14911,-0.4800,0.5176,-0.6855,-13.550,-29.846,-23.437,164.301,25.082,-77.520
14921,-0.5474,0.3296,-0.5562,-19.592,-35.217,-29.236,164.191,25.499,-77.316
14931,-0.6045,0.2314,-0.4834,-21.729,-30.762,-28.076,164.064,25.873,-77.108
14941,-0.6367,0.1963,-0.4648,-16.602,-18.311,-19.897,163.965,26.104,-76.954
14951,-0.6445,0.1787,-0.4717,-7.080,-2.441,-6.897,163.927,26.142,-76.888
14961,-0.6128,0.1772,-0.4932,4.395,13.611,6.653,163.954,25.994,-76.915
14971,-0.5508,0.2529,-0.5581,11.597,26.306,18.433,164.020,25.692,-77.031
14981,-0.4751,0.3960,-0.6865,15.991,34.424,27.527,164.097,25.285,-77.223
14991,-0.3833,0.5757,-0.8535,19.104,37.231,32.227,164.191,24.840,-77.448
15001,-0.3076,0.7456,-1.0078,21.240,37.476,32.837,164.306,24.390,-77.684
15011,-0.2305,0.8618,-1.1338,22.217,35.278,28.625,164.443,23.972,-77.882
15021,-0.1699,0.9375,-1.2095,19.348,28.259,19.043,164.592,23.648,-78.003
15031,-0.1631,0.9204,-1.1606,12.085,15.015,6.531,164.702,23.483,-78.025
15041,-0.2344,0.8394,-1.0186,1.099,-4.944,-6.653,164.734,23.549,-77.970
15051,-0.3418,0.7178,-0.8623,-10.376,-26.001,-18.127,164.680,23.851,-77.855
15061,-0.4385,0.5610,-0.7075,-18.555,-40.833,-26.306,164.559,24.313,-77.695
15071,-0.5278,0.4155,-0.5762,-22.949,-46.570,-29.480,164.399,24.840,-77.520
15081,-0.5908,0.3242,-0.5010,-22.156,-41.992,-27.100,164.246,25.318,-77.355
15091,-0.6177,0.2686,-0.4683,-15.442,-28.870,-20.508,164.147,25.653,-77.223
15101,-0.6152,0.2627,-0.4736,-7.141,-11.230,-10.559,164.114,25.785,-77.146
15111,-0.5937,0.2715,-0.5000,2.625,6.470,0.488,164.147,25.724,-77.130
15121,-0.5674,0.2915,-0.5430,9.399,20.447,10.498,164.218,25.499,-77.184
15131,-0.5308,0.3525,-0.6367,12.939,30.151,17.090,164.306,25.164,-77.272
15141,-0.4517,0.4800,-0.7954,13.855,36.133,19.897,164.399,24.758,-77.377
15151,-0.3887,0.5859,-0.9175,13.000,38.208,20.203,164.487,24.340,-77.476
15161,-0.3423,0.6484,-0.9844,11.169,35.583,18.555,164.564,23.945,-77.569
15171,-0.2949,0.7036,-1.0176,7.751,27.710,14.465,164.608,23.637,-77.640
15181,-0.2612,0.7642,-1.0449,4.089,17.517,9.460,164.630,23.445,-77.690
15191,-0.2690,0.7686,-1.0283,2.686,7.080,3.784,164.652,23.368,-77.712
15201,-0.3042,0.7026,-0.9507,1.953,-2.991,-2.686,164.680,23.401,-77.690
15211,-0.3696,0.5186,-0.7905,-1.465,-13.977,-9.521,164.685,23.566,-77.629
15221,-0.4536,0.3804,-0.6528,-8.789,-24.902,-15.686,164.636,23.846,-77.536
15231,-0.5205,0.3311,-0.5786,-15.930,-29.724,-16.968,164.515,24.175,-77.443
15241,-0.5732,0.3159,-0.5181,-17.029,-25.208,-11.658,164.366,24.450,-77.393
15251,-0.5981,0.3242,-0.5195,-10.559,-12.512,-2.808,164.257,24.576,-77.404
15261,-0.5776,0.3545,-0.5752,0.061,4.272,6.531,164.235,24.521,-77.459
15271,-0.5010,0.4565,-0.6963,9.644,18.860,14.221,164.290,24.302,-77.552
15281,-0.3760,0.6382,-0.9170,16.907,29.480,19.043,164.416,23.967,-77.668
15291,-0.2871,0.7500,-1.0625,20.752,34.363,19.897,164.575,23.582,-77.778
15301,-0.2456,0.7759,-1.0835,18.494,29.480,15.320,164.729,23.253,-77.849
15311,-0.2383,0.7456,-1.0386,11.353,15.991,5.737,164.839,23.088,-77.866
15321,-0.2988,0.6353,-0.8984,0.061,-3.113,-5.859,164.861,23.132,-77.811
15331,-0.3999,0.4917,-0.7212,-12.146,-24.048,-16.052,164.778,23.406,-77.712
15341,-0.4868,0.4165,-0.6118,-20.386,-38.635,-21.301,164.619,23.835,-77.596
15351,-0.5498,0.3657,-0.5469,-21.545,-42.358,-19.531,164.438,24.296,-77.514
15361,-0.5830,0.3232,-0.5122,-16.052,-34.058,-12.329,164.290,24.653,-77.487
15372,-0.5913,0.2935,-0.4971,-7.324,-16.846,-2.991,164.207,24.824,-77.503
15381,-0.5757,0.2891,-0.5054,0.671,3.113,6.104,164.191,24.780,-77.558
15391,-0.5371,0.3467,-0.5835,7.202,18.250,13.184,164.229,24.565,-77.646
15401,-0.4658,0.4766,-0.7334,11.536,27.100,18.555,164.295,24.258,-77.761
15411,-0.3975,0.6035,-0.8906,14.343,30.762,21.118,164.383,23.901,-77.893
15421,-0.3179,0.7119,-1.0146,14.038,30.029,19.836,164.476,23.560,-78.014
15431,-0.2632,0.7783,-1.0703,9.766,25.208,14.404,164.542,23.280,-78.091
15441,-0.2485,0.7954,-1.0557,3.235,15.747,5.371,164.570,23.115,-78.102
15451,-0.2754,0.7646,-0.9878,-4.333,2.075,-5.127,164.553,23.104,-78.041
15461,-0.3335,0.6758,-0.8672,-10.681,-11.841,-13.977,164.487,23.258,-77.932
15471,-0.4082,0.5635,-0.7261,-14.587,-21.973,-19.592,164.399,23.522,-77.789
15481,-0.4751,0.4585,-0.6338,-15.442,-27.039,-20.996,164.301,23.840,-77.646
15491,-0.5166,0.3730,-0.5884,-13.123,-26.062,-17.822,164.213,24.137,-77.536
15501,-0.5386,0.3140,-0.5825,-8.179,-19.836,-11.841,164.158,24.362,-77.470
15511,-0.5537,0.2939,-0.5786,-2.319,-11.047,-4.272,164.141,24.478,-77.459
15521,-0.5483,0.3237,-0.6021,3.723,-1.831,3.723,164.037,24.631,-77.503
15531,-0.5181,0.3931,-0.6597,9.583,6.653,10.620,163.943,24.631,-77.596
15541,-0.4712,0.4873,-0.7432,13.550,13.123,14.832,163.856,24.500,-77.712
15551,-0.4019,0.5991,-0.8491,14.343,17.578,15.808,163.762,24.252,-77.827
15561,-0.3267,0.7056,-0.9595,13.184,20.630,14.526,163.658,23.928,-77.915
15571,-0.2524,0.7842,-1.0449,10.986,21.118,10.742,163.542,23.566,-77.964
15581,-0.2261,0.7871,-1.0547,8.301,16.174,4.272,163.422,23.264,-77.959
15591,-0.2534,0.7319,-0.9961,3.540,3.723,-3.967,163.279,23.121,-77.904
15601,-0.3408,0.6309,-0.8818,-2.686,-13.367,-11.719,163.098,23.225,-77.822
15611,-0.4404,0.5200,-0.7490,-8.728,-28.931,-16.724,162.861,23.577,-77.739
15621,-0.5308,0.4082,-0.6079,-12.573,-39.063,-18.799,162.598,24.120,-77.673
15631,-0.6016,0.2983,-0.4863,-12.878,-42.480,-18.188,162.350,24.802,-77.618
15641,-0.6426,0.2427,-0.4312,-10.681,-37.659,-14.404,162.136,25.477,-77.596
15651,-0.6523,0.2139,-0.4150,-5.737,-24.048,-7.263,161.988,26.016,-77.602
15661,-0.6172,0.2231,-0.4492,1.099,-3.723,1.465,161.900,26.296,-77.629
15671,-0.5591,0.3184,-0.5415,5.859,15.442,9.583,161.812,26.274,-77.673
15681,-0.4902,0.4526,-0.6733,8.911,30.823,17.151,161.713,25.977,-77.750
15691,-0.4053,0.6196,-0.8213,10.620,40.955,22.766,161.587,25.477,-77.849
15701,-0.3330,0.7573,-0.9380,11.047,44.739,24.353,161.450,24.884,-77.948
15711,-0.2793,0.8262,-1.0171,10.925,41.931,19.958,161.329,24.296,-78.008
15721,-0.2393,0.8511,-1.0737,9.338,33.325,10.925,161.224,23.807,-78.003
15731,-0.2275,0.8086,-1.0737,5.920,20.020,-0.183,161.125,23.478,-77.932
15741,-0.2544,0.7202,-1.0098,0.000,3.540,-11.292,161.010,23.362,-77.805
15751,-0.3188,0.6055,-0.8960,-7.996,-11.658,-19.043,160.845,23.461,-77.651
15761,-0.3989,0.4927,-0.7705,-14.893,-22.400,-23.254,160.626,23.747,-77.492
15771,-0.4746,0.4053,-0.6548,-18.372,-27.222,-23.254,160.373,24.159,-77.349
15781,-0.5376,0.3447,-0.5879,-16.541,-25.085,-19.348,160.148,24.598,-77.239
15791,-0.5781,0.3003,-0.5483,-10.254,-16.907,-12.939,159.988,24.983,-77.173
15801,-0.5898,0.2593,-0.5327,-2.075,-5.798,-5.859,159.922,25.252,-77.130
15811,-0.5767,0.2603,-0.5586,4.211,5.737,1.282,159.917,25.373,-77.124
15821,-0.5371,0.2930,-0.6104,7.141,15.930,7.751,159.928,25.329,-77.146
15831,-0.4829,0.3740,-0.6963,7.874,23.621,13.184,159.901,25.126,-77.190
15841,-0.4165,0.4883,-0.8003,7.996,28.809,17.578,159.835,24.785,-77.261
15851,-0.3623,0.6035,-0.8892,8.850,31.006,20.569,159.747,24.368,-77.360
15861,-0.3169,0.6821,-0.9590,10.864,29.602,20.691,159.659,23.928,-77.459
15872,-0.2798,0.7261,-1.0078,12.085,23.071,16.724,159.593,23.544,-77.542
15881,-0.2632,0.7241,-1.0176,10.620,12.695,9.583,159.527,23.280,-77.591
15891,-0.2886,0.6772,-0.9702,5.676,0.061,1.099,159.434,23.176,-77.602
15901,-0.3301,0.6182,-0.9004,-2.014,-11.780,-6.226,159.280,23.247,-77.585
15911,-0.3740,0.5479,-0.8232,-8.423,-20.264,-10.132,159.082,23.445,-77.558
15921,-0.4185,0.4761,-0.7476,-11.780,-24.414,-10.437,158.851,23.725,-77.547
15931,-0.4619,0.4209,-0.6904,-10.742,-23.865,-7.812,158.637,24.033,-77.563
15941,-0.4873,0.3887,-0.6606,-6.226,-19.348,-3.113,158.467,24.307,-77.607
15951,-0.5005,0.3696,-0.6357,0.549,-12.756,2.502,158.351,24.516,-77.684
15961,-0.5020,0.3691,-0.6392,6.592,-5.615,7.935,158.291,24.631,-77.789
15971,-0.4897,0.3770,-0.6587,10.437,1.404,12.817,158.264,24.653,-77.915
15981,-0.4731,0.3906,-0.6846,10.803,7.629,16.113,158.236,24.587,-78.047
15991,-0.4492,0.4360,-0.7344,8.118,11.719,16.907,158.176,24.450,-78.173
16001,-0.4268,0.5083,-0.7788,4.028,13.611,15.869,158.060,24.269,-78.278
16011,-0.3882,0.6123,-0.8223,1.221,14.160,14.771,157.885,24.049,-78.371
16021,-0.3472,0.6948,-0.8584,2.075,13.672,13.794,157.703,23.807,-78.453
16031,-0.3271,0.7275,-0.8677,6.165,11.963,12.329,157.560,23.577,-78.530
16041,-0.3345,0.7104,-0.8564,10.864,8.179,9.155,157.473,23.395,-78.591
16051,-0.3379,0.6587,-0.8408,12.634,2.563,4.395,157.429,23.297,-78.624
16061,-0.3477,0.6006,-0.8076,8.179,-3.540,-1.709,157.368,23.297,-78.618
16071,-0.3853,0.5747,-0.7646,-1.038,-7.202,-7.080,157.231,23.373,-78.580
16081,-0.4253,0.5610,-0.7324,-8.606,-6.531,-10.437,157.028,23.489,-78.503
16091,-0.4541,0.5430,-0.7046,-12.573,-2.747,-12.207,156.802,23.593,-78.393
16101,-0.4663,0.5234,-0.6938,-13.000,1.953,-12.878,156.588,23.676,-78.256
16111,-0.4707,0.5083,-0.6938,-10.986,6.226,-12.817,156.412,23.719,-78.096
16121,-0.4731,0.4863,-0.7104,-6.775,10.315,-11.475,156.302,23.719,-77.937
16131,-0.4644,0.4409,-0.7207,-1.587,13.000,-9.460,156.270,23.692,-77.789
16141,-0.4468,0.4116,-0.7422,1.526,13.184,-7.202,156.286,23.643,-77.657
16151,-0.4277,0.4058,-0.7715,2.075,12.756,-4.578,156.302,23.571,-77.552
16161,-0.4058,0.4116,-0.7974,0.916,12.573,-2.075,156.308,23.472,-77.481
16171,-0.3809,0.4160,-0.8154,-1.892,12.634,-0.488,156.281,23.351,-77.421
16181,-0.3750,0.4365,-0.8403,-5.676,12.573,-0.427,156.209,23.220,-77.360
16191,-0.3706,0.4785,-0.8501,-8.850,12.512,-0.732,156.088,23.082,-77.300
16201,-0.3730,0.5103,-0.8413,-8.179,11.597,0.305,155.956,22.956,-77.250
16211,-0.3735,0.5142,-0.8311,-3.296,8.728,2.563,155.847,22.846,-77.234
16221,-0.3730,0.5059,-0.8262,2.197,4.700,5.005,155.786,22.764,-77.267
16231,-0.3682,0.4946,-0.8257,5.981,0.916,6.714,155.753,22.714,-77.327
16241,-0.3545,0.5098,-0.8306,6.042,-2.319,7.935,155.709,22.676,-77.415
16251,-0.3643,0.5327,-0.8301,3.540,-3.418,8.301,155.621,22.648,-77.514
16261,-0.3682,0.5513,-0.8311,-0.122,-2.441,7.507,155.495,22.615,-77.596
16271,-0.3652,0.5596,-0.8247,-5.188,-0.916,4.761,155.330,22.577,-77.651
16281,-0.3828,0.5493,-0.8115,-12.512,-0.366,0.305,155.110,22.566,-77.651
16291,-0.3989,0.5586,-0.7793,-22.949,-0.366,-5.676,154.797,22.593,-77.602
16301,-0.4102,0.6011,-0.7368,-31.921,-1.038,-10.437,154.374,22.654,-77.503
16311,-0.4136,0.6313,-0.6987,-33.142,-1.587,-11.597,153.924,22.731,-77.399
16321,-0.4185,0.6870,-0.6587,-24.292,-2.136,-8.423,153.506,22.797,-77.322
16331,-0.4248,0.6851,-0.6567,-2.625,-3.784,-0.305,153.281,22.846,-77.338
16341,-0.4258,0.6216,-0.6943,25.574,-6.470,9.155,153.336,22.879,-77.459
16351,-0.4312,0.5342,-0.7393,49.316,-8.789,16.052,153.655,22.906,-77.657
16361,-0.4214,0.4570,-0.7910,59.021,-10.254,19.043,154.111,22.934,-77.893
16372,-0.4053,0.4160,-0.8364,52.917,-10.254,17.517,154.545,22.956,-78.113
