elapsed_ms,acc_x_g,acc_y_g,acc_z_g,gyro_x_dps,gyro_y_dps,gyro_z_dps,angle_x_deg,angle_y_deg,angle_z_deg
0,-0.2988,0.5356,-0.8486,0.244,2.563,1.465,147.453,18.463,-95.378
10,-0.2964,0.5312,-0.8457,-0.366,2.319,0.793,147.453,18.419,-95.372
20,-0.2964,0.5239,-0.8384,-1.160,2.014,0.122,147.453,18.386,-95.361
30,-0.2983,0.5166,-0.8374,-2.197,1.709,-0.671,147.442,18.358,-95.350
40,-0.3018,0.5161,-0.8354,-3.235,1.404,-1.038,147.426,18.342,-95.328
50,-0.3022,0.5146,-0.8354,-3.540,1.404,-0.916,147.404,18.320,-95.317
60,-0.2944,0.5132,-0.8350,-2.869,1.587,-0.610,147.393,18.298,-95.301
69,-0.2905,0.5093,-0.8350,-1.282,2.075,-0.488,147.398,18.265,-95.284
79,-0.2896,0.5020,-0.8345,0.427,2.686,-0.671,147.426,18.226,-95.262
90,-0.2871,0.4961,-0.8438,1.526,3.113,-0.793,147.469,18.188,-95.240
99,-0.2881,0.4902,-0.8491,1.648,2.869,-0.610,147.513,18.149,-95.219
110,-0.2930,0.4824,-0.8496,1.160,2.258,-0.183,147.557,18.116,-95.202
120,-0.2896,0.4844,-0.8540,0.244,1.831,0.366,147.596,18.083,-95.197
130,-0.2915,0.4863,-0.8545,-0.610,1.465,0.671,147.618,18.051,-95.191
140,-0.2983,0.4873,-0.8545,-1.282,1.038,1.099,147.629,18.023,-95.197
150,-0.3037,0.4897,-0.8535,-1.709,0.427,1.526,147.634,18.001,-95.208
160,-0.3003,0.4937,-0.8486,-1.892,-0.244,1.831,147.629,17.985,-95.224
170,-0.3081,0.5010,-0.8433,-1.770,-0.977,2.258,147.623,17.979,-95.251
180,-0.3125,0.5103,-0.8369,-1.526,-1.770,2.686,147.607,17.974,-95.284
190,-0.3130,0.5137,-0.8291,-0.488,-2.380,3.052,147.596,17.974,-95.323
200,-0.3130,0.5195,-0.8262,0.916,-3.052,3.052,147.596,17.985,-95.372
210,-0.3096,0.5215,-0.8237,2.319,-3.479,2.991,147.601,17.996,-95.416
220,-0.3052,0.5234,-0.8213,3.906,-3.235,2.747,147.629,18.001,-95.460
229,-0.2998,0.5303,-0.8345,5.127,-2.319,2.441,147.667,17.996,-95.493
240,-0.2930,0.5332,-0.8379,5.432,-0.977,2.075,147.711,17.974,-95.515
249,-0.2944,0.5215,-0.8301,4.700,0.000,1.404,147.755,17.957,-95.532
260,-0.2925,0.5190,-0.8374,2.563,0.305,-0.244,147.788,17.941,-95.526
270,-0.3042,0.5205,-0.8394,0.000,0.610,-2.014,147.799,17.941,-95.504
280,-0.3140,0.5146,-0.8154,-2.197,0.122,-2.991,147.783,17.952,-95.477
289,-0.3169,0.5112,-0.7954,-2.380,-1.099,-3.113,147.761,17.985,-95.455
299,-0.3164,0.5107,-0.7778,-0.427,-2.808,-2.258,147.750,18.029,-95.449
309,-0.3276,0.4873,-0.7407,2.808,-5.066,-0.610,147.761,18.094,-95.477
320,-0.3408,0.4404,-0.6841,6.104,-8.545,0.610,147.799,18.210,-95.526
330,-0.3647,0.3916,-0.6357,8.118,-13.489,0.977,147.859,18.397,-95.614
340,-0.3623,0.3945,-0.6650,8.240,-18.127,1.160,147.920,18.611,-95.724
350,-0.3315,0.4624,-0.7842,9.460,-17.395,2.441,147.991,18.759,-95.845
359,-0.2944,0.5649,-0.9663,13.306,-5.371,6.409,148.112,18.732,-95.933
369,-0.2612,0.6216,-1.1001,19.043,18.250,12.085,148.321,18.441,-95.938
379,-0.2187,0.6206,-1.0918,21.545,42.297,15.869,148.585,17.919,-95.845
389,-0.2095,0.5513,-0.9727,21.118,56.091,15.076,148.865,17.292,-95.674
399,-0.2422,0.4473,-0.8599,14.648,51.636,9.155,149.101,16.776,-95.477
410,-0.2637,0.4150,-0.8140,1.038,31.128,0.916,149.200,16.501,-95.317
420,-0.2812,0.4409,-0.8159,-13.245,4.822,-5.127,149.112,16.490,-95.246
430,-0.2998,0.4722,-0.8066,-21.545,-18.372,-6.409,148.892,16.688,-95.284
440,-0.3135,0.5249,-0.8237,-19.287,-31.860,-4.456,148.651,16.996,-95.416
450,-0.3125,0.5630,-0.8628,-7.874,-31.616,0.183,148.502,17.260,-95.592
460,-0.3013,0.5547,-0.9087,8.057,-23.193,4.150,148.535,17.419,-95.757
469,-0.2671,0.5337,-0.9434,21.240,-10.437,6.226,148.733,17.441,-95.867
479,-0.2520,0.4966,-0.9502,28.015,3.235,6.958,149.035,17.336,-95.916
489,-0.2524,0.4692,-0.9019,24.170,10.864,6.592,149.304,17.177,-95.916
500,-0.2720,0.4077,-0.8027,13.672,7.690,4.395,149.480,17.084,-95.911
510,-0.2969,0.3657,-0.7275,-1.038,-4.883,-0.122,149.502,17.155,-95.938
520,-0.3096,0.3950,-0.7109,-15.198,-18.982,-4.456,149.348,17.375,-95.999
530,-0.3208,0.4604,-0.7598,-21.118,-27.832,-6.165,149.106,17.672,-96.092
540,-0.3105,0.5425,-0.8599,-18.494,-24.719,-2.747,148.876,17.886,-96.202
549,-0.2900,0.5972,-0.9473,-8.057,-8.484,3.174,148.760,17.908,-96.273
559,-0.2734,0.5801,-0.9663,3.723,11.780,6.409,148.804,17.732,-96.268
569,-0.2725,0.5366,-0.9072,8.423,25.452,7.507,148.914,17.446,-96.196
580,-0.2788,0.4634,-0.8169,7.324,28.076,4.944,149.035,17.172,-96.092
590,-0.3042,0.3960,-0.7446,-0.549,17.273,-0.122,149.084,17.056,-95.993
600,-0.3169,0.4160,-0.7300,-11.963,-0.061,-4.333,148.991,17.111,-95.955
610,-0.3125,0.4590,-0.7788,-17.517,-13.977,-5.676,148.815,17.281,-95.982
620,-0.2998,0.5366,-0.8613,-15.259,-17.944,-3.601,148.640,17.441,-96.048
630,-0.2969,0.5874,-0.9038,-5.127,-8.911,1.099,148.552,17.490,-96.103
639,-0.2852,0.5859,-0.9009,7.996,4.456,5.188,148.612,17.402,-96.125
649,-0.2710,0.5596,-0.8799,18.066,15.991,7.080,148.782,17.199,-96.103
660,-0.2778,0.4990,-0.8506,22.156,19.958,6.104,149.030,16.985,-96.048
670,-0.2886,0.4531,-0.8257,17.334,14.526,2.686,149.238,16.848,-95.993
680,-0.2925,0.4443,-0.8232,6.775,4.700,-1.343,149.337,16.820,-95.960
690,-0.3008,0.4521,-0.8237,-3.906,-4.639,-3.906,149.321,16.891,-95.949
700,-0.3027,0.4766,-0.8286,-10.315,-9.583,-4.333,149.222,17.001,-95.960
710,-0.2988,0.5093,-0.8389,-10.071,-8.789,-3.296,149.117,17.089,-95.977
720,-0.2900,0.5376,-0.8584,-4.089,-3.418,-1.221,149.062,17.117,-95.982
730,-0.2847,0.5479,-0.8799,4.211,3.479,0.549,149.095,17.067,-95.971
739,-0.2725,0.5498,-0.9087,11.780,9.216,1.282,149.222,16.952,-95.933
749,-0.2632,0.5327,-0.9146,15.808,12.207,1.465,149.398,16.815,-95.878
759,-0.2593,0.5010,-0.8931,14.648,10.437,0.427,149.573,16.694,-95.828
769,-0.2573,0.4785,-0.8789,9.460,4.822,-2.136,149.694,16.644,-95.784
780,-0.2671,0.4634,-0.8569,2.930,-2.686,-5.188,149.755,16.677,-95.751
790,-0.2842,0.4565,-0.8354,-2.930,-9.277,-7.324,149.744,16.793,-95.735
800,-0.2988,0.4595,-0.8271,-6.348,-12.695,-7.751,149.694,16.946,-95.729
810,-0.3003,0.4697,-0.8389,-5.981,-12.207,-6.653,149.645,17.089,-95.735
820,-0.2939,0.4878,-0.8569,-3.601,-8.240,-4.333,149.617,17.177,-95.740
830,-0.2852,0.4956,-0.8545,0.183,-3.113,-2.136,149.623,17.205,-95.735
840,-0.2832,0.4956,-0.8530,3.845,0.549,-1.099,149.667,17.194,-95.724
850,-0.2842,0.4834,-0.8472,5.859,1.953,-1.221,149.738,17.172,-95.702
860,-0.2964,0.4443,-0.8218,5.127,-0.122,-1.953,149.810,17.188,-95.685
870,-0.2939,0.4302,-0.8062,1.526,-4.150,-3.052,149.848,17.243,-95.680
880,-0.2964,0.4316,-0.8071,-2.563,-7.507,-3.601,149.843,17.331,-95.685
890,-0.3027,0.4360,-0.7935,-5.127,-8.545,-2.747,149.799,17.430,-95.707
900,-0.3047,0.4604,-0.8037,-4.578,-6.958,-1.221,149.749,17.507,-95.735
910,-0.2979,0.4829,-0.8223,-1.221,-1.831,0.916,149.727,17.518,-95.751
920,-0.3091,0.4600,-0.8130,3.113,3.967,2.869,149.766,17.474,-95.757
930,-0.3071,0.4561,-0.8159,4.761,8.179,3.662,149.826,17.391,-95.746
939,-0.3047,0.4214,-0.7910,3.784,9.888,3.479,149.892,17.303,-95.724
950,-0.3335,0.3516,-0.7261,-3.113,6.348,2.502,149.908,17.292,-95.713
960,-0.3398,0.3555,-0.6909,-15.320,0.732,0.732,149.782,17.342,-95.718
970,-0.3584,0.3574,-0.6611,-24.048,-4.944,-0.122,149.557,17.468,-95.740
980,-0.3477,0.4331,-0.7354,-26.855,-6.042,1.343,149.277,17.562,-95.784
990,-0.3125,0.5366,-0.8604,-21.118,2.930,6.165,149.041,17.501,-95.828
999,-0.2729,0.6152,-0.9990,-8.240,20.203,13.245,148.953,17.216,-95.834
1009,-0.2046,0.7095,-1.1396,4.395,44.006,18.738,149.008,16.661,-95.768
1019,-0.1567,0.7168,-1.1714,14.832,64.941,21.606,149.194,15.897,-95.609
1029,-0.1533,0.6030,-1.0596,20.264,68.848,18.616,149.458,15.134,-95.411
1039,-0.1680,0.5332,-0.9404,14.465,50.964,9.766,149.661,14.584,-95.229
1049,-0.2026,0.4976,-0.8765,1.831,18.738,-1.099,149.711,14.398,-95.120
1059,-0.2461,0.5073,-0.8423,-10.742,-17.273,-9.521,149.595,14.590,-95.125
1070,-0.2734,0.5176,-0.8384,-16.602,-46.875,-14.648,149.392,15.073,-95.240
1080,-0.2881,0.5596,-0.8882,-15.564,-60.242,-14.709,149.172,15.661,-95.427
1090,-0.3008,0.5723,-0.9233,-7.141,-54.504,-11.292,149.041,16.183,-95.620
1100,-0.3003,0.5620,-0.8955,3.784,-36.316,-7.141,149.030,16.523,-95.746
1110,-0.3110,0.4580,-0.7783,13.672,-16.724,-4.333,149.156,16.710,-95.801
1120,-0.3223,0.3486,-0.6499,15.381,-6.958,-4.089,149.337,16.864,-95.801
1130,-0.3223,0.3154,-0.6055,7.874,-8.850,-5.554,149.447,17.051,-95.795
1140,-0.3179,0.3437,-0.6440,-0.610,-13.916,-6.104,149.458,17.265,-95.817
1150,-0.3145,0.4038,-0.7065,-5.676,-15.564,-3.113,149.392,17.452,-95.872
1160,-0.3135,0.4858,-0.7900,-4.700,-9.155,2.319,149.315,17.529,-95.938
1170,-0.3018,0.5454,-0.8633,2.869,6.042,7.996,149.315,17.424,-95.982
1179,-0.2842,0.5698,-0.9233,12.085,24.353,12.390,149.431,17.128,-95.960
1189,-0.2622,0.5684,-0.9448,17.334,40.161,15.137,149.623,16.672,-95.883
1199,-0.2480,0.5293,-0.9243,18.555,46.448,13.794,149.848,16.172,-95.762
1209,-0.2339,0.5234,-0.9150,13.062,41.565,8.911,150.018,15.732,-95.625
1220,-0.2339,0.5083,-0.8955,3.357,28.992,3.723,150.084,15.436,-95.510
1229,-0.2520,0.4941,-0.8657,-6.470,11.719,-1.221,150.040,15.331,-95.438
1239,-0.2671,0.5171,-0.8604,-13.062,-3.784,-5.249,149.908,15.386,-95.411
1249,-0.2705,0.5405,-0.8677,-13.428,-12.634,-6.775,149.755,15.524,-95.416
1259,-0.2632,0.5532,-0.8823,-7.874,-13.000,-5.920,149.656,15.650,-95.427
1269,-0.2603,0.5459,-0.8911,-0.122,-6.958,-3.906,149.645,15.710,-95.433
1279,-0.2500,0.5347,-0.8853,5.737,0.244,-2.686,149.700,15.699,-95.405
1289,-0.2363,0.5405,-0.8931,8.240,5.005,-2.930,149.788,15.645,-95.356
1299,-0.2358,0.5225,-0.8838,7.507,6.775,-3.967,149.875,15.579,-95.284
1309,-0.2461,0.4980,-0.8608,4.028,4.883,-6.104,149.936,15.551,-95.202
1319,-0.2583,0.4863,-0.8486,-0.732,0.061,-8.850,149.952,15.584,-95.125
1330,-0.2827,0.4473,-0.8062,-3.845,-4.944,-10.620,149.947,15.694,-95.054
1340,-0.3130,0.3911,-0.7466,-6.104,-10.681,-11.719,149.919,15.892,-95.004
1350,-0.3252,0.3711,-0.7266,-6.836,-15.076,-12.634,149.892,16.144,-94.966
1360,-0.3130,0.4033,-0.7612,-6.104,-16.052,-11.719,149.859,16.375,-94.944
1370,-0.3057,0.4629,-0.8257,-4.150,-11.475,-7.690,149.832,16.529,-94.938
1380,-0.3037,0.5254,-0.8755,0.488,-1.465,-1.587,149.832,16.551,-94.933
1390,-0.2974,0.5474,-0.8931,6.714,10.559,3.662,149.892,16.436,-94.905
1400,-0.2930,0.5073,-0.8687,10.437,19.287,5.188,150.007,16.238,-94.856
1410,-0.2998,0.4731,-0.8350,9.399,21.484,2.686,150.128,16.057,-94.768
1420,-0.2891,0.4619,-0.8267,3.784,16.968,-2.747,150.205,15.930,-94.653
1430,-0.2812,0.4678,-0.8188,-3.601,8.057,-7.263,150.200,15.903,-94.548
1440,-0.2734,0.4697,-0.7959,-9.033,-1.343,-9.094,150.123,15.969,-94.471
1450,-0.2715,0.4648,-0.7861,-9.521,-8.240,-9.460,150.029,16.089,-94.427
1460,-0.2637,0.4609,-0.7925,-6.531,-10.864,-8.362,149.969,16.221,-94.411
1469,-0.2495,0.4771,-0.8433,-1.099,-8.423,-6.104,149.969,16.309,-94.400
1479,-0.2227,0.5220,-0.9321,4.700,0.427,-2.197,150.029,16.271,-94.378
1489,-0.2163,0.5278,-0.9844,10.132,12.634,2.441,150.156,16.095,-94.334
1499,-0.2075,0.5225,-1.0024,12.024,23.010,5.188,150.320,15.815,-94.263
1509,-0.2036,0.5142,-1.0020,10.986,28.748,5.432,150.480,15.485,-94.164
1519,-0.2065,0.4980,-0.9814,8.301,26.855,2.747,150.617,15.194,-94.048
1529,-0.2246,0.4712,-0.9419,4.578,18.127,-1.282,150.716,15.013,-93.944
1539,-0.2495,0.4438,-0.8989,0.854,4.333,-5.127,150.776,14.991,-93.878
1549,-0.2617,0.4355,-0.8794,-1.831,-9.094,-7.324,150.787,15.101,-93.856
1560,-0.2744,0.4326,-0.8687,-1.892,-18.738,-7.568,150.793,15.309,-93.884
1570,-0.2764,0.4419,-0.8662,-0.061,-22.339,-5.798,150.798,15.535,-93.944
1580,-0.2686,0.4434,-0.8604,2.747,-20.508,-2.380,150.820,15.721,-94.026
1590,-0.2603,0.4385,-0.8594,5.493,-15.015,1.160,150.875,15.842,-94.114
1599,-0.2505,0.4336,-0.8618,7.141,-7.996,3.357,150.952,15.881,-94.186
1609,-0.2451,0.4307,-0.8599,6.409,-1.953,3.784,151.024,15.864,-94.230
1619,-0.2456,0.4351,-0.8511,3.479,1.282,3.174,151.073,15.820,-94.252
1630,-0.2559,0.4409,-0.8428,-0.610,1.648,2.686,151.078,15.787,-94.268
1640,-0.2603,0.4531,-0.8345,-4.272,0.061,2.930,151.029,15.771,-94.290
1649,-0.2598,0.4727,-0.8501,-6.104,-1.404,3.662,150.958,15.754,-94.334
1659,-0.2568,0.5029,-0.8652,-5.554,-1.526,4.578,150.881,15.732,-94.384
1669,-0.2676,0.5078,-0.8623,-2.747,-0.977,5.737,150.820,15.705,-94.438
1680,-0.2705,0.5107,-0.8584,0.671,-0.366,6.531,150.798,15.672,-94.499
1690,-0.2681,0.5088,-0.8555,3.479,-0.183,6.775,150.798,15.634,-94.565
1700,-0.2788,0.4805,-0.8198,4.639,-1.465,6.348,150.815,15.623,-94.625
1710,-0.2944,0.4702,-0.8081,3.113,-4.333,5.127,150.820,15.656,-94.697
1720,-0.3037,0.4814,-0.8159,0.366,-6.165,4.272,150.787,15.710,-94.768
1729,-0.3145,0.4878,-0.8120,-1.526,-5.737,4.395,150.738,15.765,-94.834
1739,-0.3062,0.4741,-0.7949,-2.075,-3.784,4.761,150.688,15.798,-94.900
1750,-0.2798,0.4868,-0.7983,-2.441,-1.099,4.272,150.628,15.798,-94.944
1760,-0.2915,0.4990,-0.8174,-2.747,2.686,3.296,150.579,15.771,-94.960
1769,-0.2720,0.5649,-0.8711,-3.540,8.057,2.808,150.513,15.677,-94.944
1779,-0.2461,0.6143,-0.9458,-0.488,15.686,3.418,150.485,15.491,-94.894
1789,-0.2490,0.6182,-0.9634,3.906,22.949,4.456,150.513,15.238,-94.818
1799,-0.2676,0.5781,-0.8647,6.775,24.231,3.845,150.557,15.002,-94.724
1809,-0.3232,0.4355,-0.7227,8.057,13.977,0.000,150.639,14.941,-94.658
1820,-0.3560,0.2974,-0.6689,0.549,-5.737,-7.935,150.710,15.139,-94.614
1829,-0.3564,0.2822,-0.6821,-14.465,-21.912,-15.991,150.645,15.513,-94.581
1839,-0.3242,0.3770,-0.7578,-30.518,-27.405,-18.127,150.375,15.892,-94.554
1849,-0.2715,0.5303,-0.8779,-37.415,-18.921,-11.230,149.991,16.100,-94.548
1859,-0.2368,0.6416,-0.9624,-29.358,2.808,-0.427,149.672,16.029,-94.532
1869,-0.1831,0.6870,-0.9976,-12.878,27.222,8.179,149.518,15.683,-94.460
1879,-0.1392,0.6890,-0.9927,3.357,47.791,12.512,149.546,15.123,-94.323
1889,-0.1367,0.6167,-0.9609,17.151,55.908,9.583,149.749,14.513,-94.114
1899,-0.1709,0.4961,-0.8838,23.560,48.584,3.540,150.046,14.030,-93.895
1909,-0.2256,0.3906,-0.8145,19.165,26.672,-4.395,150.320,13.826,-93.719
1920,-0.2456,0.3867,-0.8018,8.179,-0.122,-10.559,150.463,13.892,-93.625
1930,-0.2573,0.4136,-0.8452,0.122,-22.644,-12.268,150.496,14.161,-93.631
1939,-0.2593,0.4604,-0.9092,-1.953,-31.311,-9.094,150.485,14.474,-93.708
1949,-0.2666,0.4849,-0.9302,1.282,-26.367,-3.418,150.496,14.716,-93.807
1959,-0.2690,0.4824,-0.9121,7.568,-14.160,1.099,150.562,14.832,-93.889
1969,-0.2544,0.4663,-0.8882,14.771,-0.732,3.723,150.721,14.815,-93.928
1979,-0.2373,0.4526,-0.8701,18.372,7.263,4.395,150.919,14.722,-93.933
1989,-0.2412,0.4414,-0.8545,16.113,7.996,3.723,151.095,14.628,-93.928
1999,-0.2490,0.4326,-0.8442,9.094,4.761,1.953,151.205,14.579,-93.917
2010,-0.2593,0.4316,-0.8403,0.977,-0.427,0.000,151.232,14.590,-93.922
2019,-0.2573,0.4619,-0.8628,-4.028,-3.784,-1.343,151.194,14.628,-93.928
2029,-0.2651,0.4854,-0.8721,-4.211,-3.723,-1.221,151.150,14.672,-93.933
2039,-0.2607,0.5015,-0.8765,0.000,-1.526,-0.061,151.139,14.683,-93.944
2049,-0.2539,0.5107,-0.8848,5.798,0.366,1.648,151.183,14.661,-93.955
2059,-0.2446,0.5137,-0.8872,11.597,0.488,3.174,151.276,14.634,-93.983
2069,-0.2480,0.4839,-0.8721,14.343,-1.648,3.723,151.403,14.623,-94.021
2079,-0.2476,0.4678,-0.8579,12.268,-5.371,2.808,151.512,14.650,-94.076
2089,-0.2461,0.4600,-0.8516,7.263,-9.094,1.221,151.573,14.722,-94.131
2099,-0.2544,0.4575,-0.8472,1.160,-11.169,0.000,151.573,14.821,-94.186
2109,-0.2559,0.4800,-0.8516,-4.028,-10.132,-0.854,151.512,14.908,-94.230
2119,-0.2476,0.4990,-0.8657,-5.432,-5.676,-1.526,151.436,14.958,-94.241
2129,-0.2432,0.5122,-0.8818,-2.991,0.610,-2.014,151.397,14.947,-94.219
2139,-0.2368,0.5112,-0.8921,1.526,6.287,-2.380,151.414,14.881,-94.169
2149,-0.2432,0.4727,-0.8662,5.554,8.484,-2.808,151.485,14.810,-94.103
2159,-0.2495,0.4448,-0.8516,6.531,6.470,-3.174,151.573,14.766,-94.043
2170,-0.2554,0.4194,-0.8369,5.066,1.526,-3.052,151.655,14.771,-94.005
2180,-0.2651,0.4185,-0.8257,1.526,-3.845,-2.197,151.683,14.826,-94.005
2189,-0.2305,0.4736,-0.9092,-1.709,-5.432,-0.977,151.672,14.859,-94.021
2199,-0.1895,0.5474,-1.0571,-2.563,0.977,-0.122,151.655,14.793,-94.016
2209,-0.1460,0.6523,-1.2251,-3.906,15.259,-0.732,151.639,14.573,-93.933
2220,-0.1113,0.6992,-1.2300,-5.981,32.227,-2.136,151.611,14.205,-93.757
2229,-0.1416,0.5986,-1.0630,-8.545,37.903,-9.033,151.584,13.843,-93.488
2239,-0.1963,0.4199,-0.7686,-15.869,19.653,-22.522,151.496,13.766,-93.186
2250,-0.3232,0.2251,-0.4561,-27.649,-22.034,-33.997,151.293,14.304,-92.988
2260,-0.4048,0.1426,-0.3428,-41.748,-70.313,-41.138,150.941,15.441,-92.966
2270,-0.4150,0.2026,-0.4102,-46.814,-105.530,-39.734,150.463,16.815,-93.137
2280,-0.4370,0.3530,-0.6260,-35.706,-112.915,-26.001,150.013,18.056,-93.483
2290,-0.4424,0.4956,-0.8540,-13.489,-85.632,-6.470,149.755,18.885,-93.873
2300,-0.3950,0.5747,-1.0220,11.230,-32.898,12.939,149.782,19.100,-94.164
2309,-0.3164,0.6030,-1.1050,29.358,26.855,26.306,150.057,18.688,-94.263
2319,-0.2241,0.6396,-1.0986,36.255,75.378,31.067,150.452,17.803,-94.153
2329,-0.1489,0.5874,-0.9834,35.950,94.849,26.611,150.870,16.749,-93.900
2339,-0.1489,0.5020,-0.8496,25.635,83.252,17.700,151.183,15.864,-93.642
2349,-0.1963,0.4790,-0.7808,7.874,51.453,7.751,151.282,15.342,-93.455
2359,-0.2705,0.4839,-0.7588,-6.226,10.376,-2.747,151.205,15.276,-93.378
2369,-0.3154,0.4863,-0.7783,-11.963,-28.442,-10.132,151.040,15.612,-93.428
2380,-0.3159,0.5132,-0.8809,-10.193,-46.448,-10.925,150.892,16.084,-93.560
2390,-0.3096,0.5620,-1.0010,-1.038,-41.870,-7.935,150.842,16.474,-93.702
2399,-0.3071,0.5586,-1.0254,8.728,-21.912,-4.150,150.914,16.666,-93.774
2409,-0.2568,0.5239,-0.9429,15.137,-1.587,-0.488,151.062,16.650,-93.779
2420,-0.2471,0.4336,-0.7920,16.846,9.827,2.136,151.238,16.540,-93.746
2430,-0.2666,0.3623,-0.6885,9.644,5.310,-0.061,151.353,16.518,-93.719
2440,-0.2866,0.3340,-0.6489,-1.526,-7.874,-4.395,151.353,16.655,-93.719
2449,-0.3154,0.3477,-0.6768,-9.155,-18.372,-7.568,151.271,16.908,-93.741
2459,-0.3291,0.3877,-0.7603,-12.817,-21.057,-8.362,151.150,17.172,-93.774
2469,-0.3110,0.4595,-0.8647,-12.573,-10.376,-5.249,151.035,17.292,-93.774
2479,-0.2842,0.5166,-0.9575,-6.104,9.277,-1.160,150.996,17.194,-93.719
2489,-0.2485,0.5303,-0.9995,-0.183,28.442,1.892,151.040,16.891,-93.593
2499,-0.2222,0.5327,-0.9985,2.258,38.757,0.671,151.128,16.490,-93.400
2509,-0.2217,0.4995,-0.9614,1.038,33.630,-6.897,151.216,16.183,-93.170
2519,-0.2412,0.4341,-0.8970,-6.104,11.841,-15.503,151.243,16.128,-92.966
2529,-0.2529,0.4175,-0.8569,-16.907,-18.311,-23.621,151.133,16.386,-92.845
2540,-0.2773,0.4512,-0.8589,-25.696,-46.570,-29.114,150.903,16.924,-92.813
2550,-0.3008,0.5059,-0.8892,-27.649,-65.002,-28.870,150.606,17.622,-92.878
2560,-0.3379,0.5337,-0.9009,-20.081,-66.956,-22.095,150.348,18.309,-93.021
2570,-0.3452,0.5259,-0.9043,-5.615,-55.237,-12.695,150.233,18.847,-93.192
2580,-0.3408,0.4863,-0.8765,8.240,-35.156,-3.845,150.276,19.166,-93.345
2590,-0.3418,0.4468,-0.8062,14.954,-14.893,2.625,150.397,19.292,-93.444
2600,-0.3281,0.4019,-0.7065,15.686,-1.709,5.188,150.535,19.308,-93.505
2610,-0.3345,0.3784,-0.6450,10.986,2.136,5.920,150.623,19.314,-93.543
2620,-0.3516,0.4033,-0.6416,2.686,2.563,6.042,150.606,19.314,-93.587
2630,-0.3540,0.4473,-0.6797,-3.540,5.005,5.737,150.524,19.286,-93.615
2640,-0.3350,0.5083,-0.7671,-4.822,8.362,5.249,150.430,19.199,-93.620
2650,-0.3105,0.5801,-0.8896,-1.465,15.442,4.578,150.392,19.012,-93.582
2659,-0.2954,0.6060,-0.9678,2.808,24.292,3.967,150.425,18.737,-93.494
2669,-0.2744,0.6143,-0.9937,5.676,28.748,3.052,150.502,18.419,-93.367
2679,-0.2578,0.5996,-0.9951,6.470,26.611,0.549,150.590,18.127,-93.235
2689,-0.2563,0.5640,-0.9814,4.700,18.311,-2.808,150.667,17.930,-93.115
2699,-0.2593,0.5225,-0.9224,-0.183,5.859,-6.287,150.694,17.869,-93.027
2710,-0.2729,0.4712,-0.8252,-5.554,-8.728,-8.972,150.645,17.968,-92.988
2720,-0.3027,0.4399,-0.7603,-8.240,-20.935,-10.376,150.551,18.210,-93.005
2729,-0.3315,0.4214,-0.7451,-6.592,-26.733,-10.010,150.474,18.523,-93.049
2740,-0.3516,0.4131,-0.7476,-1.587,-23.621,-7.019,150.441,18.798,-93.109
2750,-0.3638,0.3970,-0.7588,5.371,-13.611,-3.174,150.502,18.973,-93.148
2760,-0.3608,0.3760,-0.7681,10.681,-0.732,0.366,150.639,19.017,-93.159
2770,-0.3491,0.3677,-0.7930,12.451,11.414,3.723,150.815,18.924,-93.131
2780,-0.3296,0.3911,-0.8325,10.254,20.447,6.775,150.974,18.726,-93.087
2790,-0.3071,0.4243,-0.8721,5.493,24.719,8.972,151.073,18.457,-93.043
2800,-0.2954,0.4658,-0.9111,0.610,24.780,9.644,151.106,18.171,-93.010
2809,-0.2773,0.5024,-0.9375,-2.686,21.667,8.850,151.095,17.908,-92.977
2819,-0.2671,0.5303,-0.9453,-3.296,16.724,7.446,151.068,17.682,-92.961
2829,-0.2690,0.5317,-0.9453,-1.343,10.559,6.042,151.046,17.529,-92.966
2839,-0.2739,0.5225,-0.9268,0.977,3.235,4.456,151.046,17.446,-92.988
2849,-0.2759,0.5127,-0.8984,1.831,-4.150,2.747,151.040,17.446,-93.038
2860,-0.2827,0.5015,-0.8633,2.075,-10.254,1.770,151.029,17.507,-93.104
2870,-0.2939,0.4888,-0.8320,2.197,-13.977,1.587,151.013,17.617,-93.192
2880,-0.2974,0.4790,-0.8145,1.892,-15.442,1.282,150.991,17.743,-93.279
2890,-0.2988,0.4814,-0.8057,1.953,-14.221,0.977,150.963,17.858,-93.362
2900,-0.2998,0.4595,-0.7886,2.502,-10.498,0.977,150.958,17.952,-93.422
2910,-0.3115,0.4399,-0.7754,2.136,-6.470,1.099,150.963,18.012,-93.466
2920,-0.3140,0.4468,-0.7778,0.793,-2.319,1.404,150.952,18.040,-93.494
2930,-0.3062,0.4702,-0.7979,-0.122,1.709,2.258,150.936,18.018,-93.505
2940,-0.2993,0.4814,-0.8271,0.977,5.798,3.174,150.930,17.946,-93.505
2950,-0.2935,0.4902,-0.8525,2.930,8.911,3.540,150.958,17.836,-93.488
2960,-0.2847,0.4932,-0.8633,3.845,10.681,3.418,150.996,17.710,-93.466
2970,-0.2729,0.4810,-0.8916,3.052,10.315,2.075,151.040,17.584,-93.433
2979,-0.2705,0.4775,-0.9385,-0.671,9.155,-0.427,151.068,17.474,-93.384
2989,-0.2725,0.4956,-0.9556,-7.507,7.751,-2.563,151.029,17.386,-93.323
2999,-0.2681,0.5474,-0.9536,-13.916,6.165,-3.296,150.903,17.314,-93.257
3010,-0.2979,0.5293,-0.8867,-14.832,3.967,-2.686,150.749,17.281,-93.214
3020,-0.3252,0.4829,-0.7979,-11.475,-1.343,-3.174,150.623,17.325,-93.192
3030,-0.3198,0.4648,-0.7393,-6.104,-7.629,-3.906,150.535,17.441,-93.197
3039,-0.3228,0.4150,-0.7187,0.183,-13.000,-3.052,150.518,17.606,-93.235
3050,-0.3096,0.4082,-0.7739,4.150,-14.038,-1.404,150.557,17.748,-93.296
3060,-0.3071,0.4277,-0.8066,4.822,-7.996,0.793,150.606,17.825,-93.345
3070,-0.3218,0.4331,-0.8071,4.883,1.648,2.808,150.661,17.809,-93.362
3080,-0.3145,0.4448,-0.8257,4.333,10.864,4.089,150.721,17.704,-93.340
3090,-0.3003,0.5054,-0.8857,2.625,17.700,5.066,150.754,17.512,-93.296
3100,-0.2979,0.5493,-0.9243,2.441,21.790,6.287,150.782,17.276,-93.241
3109,-0.2910,0.5562,-0.9355,5.005,22.644,6.409,150.831,17.029,-93.186
3119,-0.2769,0.5430,-0.9160,7.874,19.653,4.822,150.914,16.809,-93.131
3129,-0.2671,0.5054,-0.8823,9.460,12.695,2.136,151.013,16.666,-93.087
3140,-0.2710,0.4741,-0.8599,8.118,3.418,-0.366,151.100,16.628,-93.065
3150,-0.2676,0.4653,-0.8623,4.272,-4.761,-1.831,151.144,16.666,-93.071
3160,-0.2749,0.4619,-0.8604,1.465,-9.216,-2.502,151.155,16.749,-93.093
3170,-0.2837,0.4658,-0.8516,0.183,-9.460,-2.563,151.155,16.837,-93.120
3180,-0.2788,0.4805,-0.8486,0.549,-6.348,-1.770,151.150,16.891,-93.137
3190,-0.2808,0.4761,-0.8516,2.930,-1.404,-0.916,151.172,16.897,-93.137
3200,-0.2812,0.4624,-0.8560,5.371,2.747,-0.488,151.238,16.870,-93.115
3210,-0.2798,0.4521,-0.8716,6.104,5.798,-0.244,151.320,16.809,-93.082
3220,-0.2749,0.4321,-0.8730,4.517,7.446,0.061,151.397,16.738,-93.049
3230,-0.2798,0.4272,-0.8687,0.610,6.714,0.610,151.436,16.666,-93.021
3240,-0.2725,0.4365,-0.8696,-3.479,3.967,0.732,151.425,16.622,-93.005
3250,-0.2666,0.4463,-0.8613,-5.798,0.000,0.732,151.375,16.606,-93.016
3260,-0.2769,0.4580,-0.8535,-6.104,-3.662,0.549,151.315,16.628,-93.038
3270,-0.2764,0.4692,-0.8574,-4.578,-5.188,0.732,151.260,16.661,-93.071
3280,-0.2808,0.4687,-0.8662,-1.953,-4.456,1.465,151.232,16.683,-93.104
3290,-0.2861,0.4707,-0.8730,0.183,-2.258,2.136,151.232,16.688,-93.137
3300,-0.2856,0.4814,-0.8779,0.854,0.183,2.747,151.232,16.666,-93.159
3310,-0.2837,0.4976,-0.8774,0.549,1.465,3.296,151.221,16.628,-93.181
3320,-0.2754,0.5137,-0.8721,0.366,1.404,3.418,151.205,16.584,-93.208
3330,-0.2788,0.5176,-0.8643,0.305,-0.122,2.563,151.177,16.562,-93.230
3340,-0.2808,0.5166,-0.8599,-0.183,-2.380,0.977,151.150,16.567,-93.252
3350,-0.2793,0.5166,-0.8574,-0.916,-3.906,-0.793,151.117,16.595,-93.263
3360,-0.2920,0.5137,-0.8555,-2.136,-4.028,-2.136,151.073,16.639,-93.263
3370,-0.2959,0.5122,-0.8491,-3.540,-3.052,-3.113,151.018,16.683,-93.252
3380,-0.2939,0.5254,-0.8354,-4.456,-2.075,-3.601,150.947,16.716,-93.230
3390,-0.2954,0.5347,-0.8281,-3.601,-1.709,-3.784,150.881,16.749,-93.203
3400,-0.2920,0.5322,-0.8223,-1.221,-1.770,-3.784,150.842,16.782,-93.181
3410,-0.2910,0.5151,-0.8169,1.404,-1.587,-3.723,150.831,16.809,-93.153
3420,-0.2910,0.4824,-0.8154,2.686,-0.854,-3.662,150.853,16.837,-93.126
3430,-0.2900,0.4678,-0.8174,2.197,-0.061,-3.784,150.875,16.859,-93.087
3440,-0.2852,0.4687,-0.8262,1.282,0.488,-4.150,150.897,16.875,-93.049
3450,-0.2822,0.4663,-0.8350,2.075,1.099,-4.028,150.930,16.880,-93.005
3460,-0.2773,0.4551,-0.8511,3.235,1.892,-3.174,150.980,16.870,-92.966
3470,-0.2749,0.4521,-0.8491,3.479,2.441,-2.014,151.035,16.848,-92.939
3480,-0.2715,0.4424,-0.8340,3.174,2.136,-1.404,151.084,16.831,-92.911
3490,-0.2764,0.4331,-0.8320,3.235,1.709,-1.160,151.133,16.815,-92.895
3500,-0.2856,0.4287,-0.8398,3.296,2.563,-1.038,151.188,16.798,-92.873
3510,-0.2959,0.4268,-0.8623,3.357,5.310,-0.977,151.260,16.760,-92.834
3520,-0.2959,0.4297,-0.8813,3.357,8.728,-0.854,151.337,16.688,-92.785
3530,-0.2876,0.4380,-0.8921,2.686,10.742,-0.183,151.403,16.589,-92.730
3540,-0.2744,0.4463,-0.9019,1.831,10.742,0.610,151.458,16.485,-92.681
3550,-0.2632,0.4644,-0.9146,1.038,8.972,0.977,151.490,16.381,-92.648
3560,-0.2637,0.4746,-0.9263,0.793,6.226,0.793,151.523,16.298,-92.620
3570,-0.2656,0.4805,-0.9282,0.671,3.418,0.305,151.545,16.249,-92.609
3580,-0.2686,0.4751,-0.9194,0.427,0.793,-0.244,151.562,16.227,-92.604
3590,-0.2651,0.4590,-0.8999,-0.549,-1.709,-0.977,151.567,16.227,-92.598
3600,-0.2642,0.4512,-0.8804,-2.441,-4.761,-1.831,151.556,16.265,-92.609
3610,-0.2646,0.4453,-0.8643,-4.150,-7.690,-2.258,151.523,16.331,-92.626
3620,-0.2773,0.4404,-0.8457,-5.066,-9.399,-1.953,151.474,16.425,-92.653
3630,-0.2852,0.4438,-0.8315,-5.249,-8.972,-1.221,151.414,16.512,-92.686
3640,-0.2959,0.4463,-0.8169,-4.944,-7.568,-0.488,151.359,16.589,-92.719
3650,-0.3027,0.4600,-0.8145,-4.517,-5.493,0.183,151.298,16.650,-92.752
3660,-0.2988,0.4902,-0.8291,-3.906,-2.380,0.793,151.232,16.672,-92.769
3670,-0.3008,0.5088,-0.8413,-2.563,1.465,1.038,151.183,16.661,-92.769
3680,-0.2983,0.5181,-0.8481,-1.343,4.395,0.427,151.150,16.622,-92.752
3690,-0.2822,0.5142,-0.8530,-0.671,5.310,-0.793,151.128,16.567,-92.719
3700,-0.2744,0.5083,-0.8618,-1.526,3.906,-2.258,151.111,16.534,-92.681
3710,-0.2803,0.5215,-0.8691,-3.967,1.770,-3.479,151.062,16.523,-92.637
3720,-0.2871,0.5332,-0.8428,-5.615,-0.366,-3.601,150.980,16.540,-92.609
3730,-0.2944,0.5205,-0.8071,-4.333,-2.930,-3.052,150.903,16.584,-92.593
3740,-0.2979,0.4951,-0.7969,-0.183,-4.883,-3.113,150.875,16.655,-92.593
3750,-0.3018,0.4668,-0.7983,3.967,-5.249,-3.662,150.903,16.732,-92.582
3760,-0.2979,0.4478,-0.8223,6.897,-2.991,-3.845,150.985,16.782,-92.565
3770,-0.2905,0.4194,-0.8501,8.484,1.282,-3.479,151.106,16.793,-92.527
3780,-0.2808,0.4028,-0.8657,6.836,5.188,-2.563,151.227,16.754,-92.477
3790,-0.2725,0.3950,-0.8760,3.235,7.263,-1.587,151.320,16.688,-92.422
3800,-0.2646,0.3960,-0.8862,-0.977,7.324,-0.549,151.364,16.617,-92.384
3810,-0.2632,0.4023,-0.8916,-3.967,6.348,0.549,151.381,16.540,-92.357
3820,-0.2549,0.4219,-0.8955,-5.127,5.005,1.526,151.364,16.469,-92.346
3830,-0.2529,0.4404,-0.9009,-4.028,3.723,2.808,151.348,16.403,-92.351
3840,-0.2559,0.4453,-0.9023,-1.648,2.869,4.028,151.348,16.337,-92.373
3850,-0.2661,0.4473,-0.9087,0.183,2.014,4.883,151.364,16.282,-92.411
3860,-0.2734,0.4468,-0.9116,1.221,0.610,5.432,151.392,16.238,-92.455
3870,-0.2729,0.4458,-0.9131,1.892,-1.648,5.920,151.419,16.210,-92.516
3880,-0.2734,0.4404,-0.8970,0.305,-4.211,6.531,151.425,16.205,-92.598
3890,-0.2725,0.4814,-0.8711,-6.836,-6.958,6.409,151.326,16.227,-92.692
3900,-0.2710,0.5029,-0.8652,-7.019,-6.958,6.165,151.216,16.249,-92.785
3910,-0.2715,0.5259,-0.8569,-5.310,-7.263,5.798,151.111,16.271,-92.873
3920,-0.2764,0.5337,-0.8555,-2.686,-7.812,5.737,151.029,16.304,-92.966
3930,-0.2847,0.5322,-0.8657,0.000,-7.751,5.798,150.974,16.337,-93.054
3940,-0.2900,0.5151,-0.8530,1.465,-7.507,5.676,150.947,16.375,-93.148
3950,-0.2925,0.5010,-0.8374,1.160,-8.118,5.249,150.914,16.419,-93.235
3960,-0.2954,0.4932,-0.8179,0.183,-9.521,4.700,150.870,16.490,-93.323
3970,-0.3037,0.4897,-0.8110,-0.488,-10.681,4.517,150.820,16.573,-93.422
3980,-0.3062,0.4907,-0.8120,-0.916,-10.620,4.761,150.760,16.655,-93.521
3990,-0.3018,0.4922,-0.8149,-0.427,-8.850,5.005,150.710,16.716,-93.609
4000,-0.2920,0.5137,-0.8257,0.671,-5.310,4.333,150.672,16.743,-93.675
4010,-0.2930,0.5239,-0.8320,3.296,-0.916,3.540,150.667,16.732,-93.713
4020,-0.2993,0.5112,-0.8408,5.981,3.113,2.686,150.705,16.694,-93.719
4030,-0.2979,0.4995,-0.8359,6.104,5.798,1.648,150.754,16.639,-93.708
4040,-0.2944,0.4805,-0.8145,3.845,6.348,0.671,150.787,16.584,-93.680
4050,-0.3022,0.4648,-0.7773,0.671,4.089,0.183,150.782,16.567,-93.664
4060,-0.3203,0.4521,-0.7583,-0.916,0.549,0.549,150.754,16.595,-93.664
4070,-0.3076,0.4639,-0.7817,0.183,-0.366,1.648,150.738,16.611,-93.680
4080,-0.2866,0.4937,-0.8223,4.333,3.662,3.418,150.760,16.562,-93.691
4090,-0.2725,0.4868,-0.8501,11.536,10.498,5.066,150.870,16.436,-93.686
4100,-0.2715,0.4575,-0.8521,17.029,15.869,5.554,151.057,16.265,-93.653
4110,-0.2803,0.4053,-0.8130,16.724,17.029,5.371,151.260,16.100,-93.620
4120,-0.2944,0.3481,-0.7583,11.169,13.123,4.517,151.414,16.002,-93.593
4130,-0.3179,0.3066,-0.7070,1.709,6.287,3.906,151.485,15.991,-93.598
4140,-0.3086,0.3530,-0.7598,-7.019,1.099,4.578,151.441,16.002,-93.636
4150,-0.2656,0.4746,-0.8813,-9.155,4.578,8.240,151.337,15.914,-93.686
4160,-0.2075,0.6270,-1.0435,-1.343,17.639,14.038,151.287,15.628,-93.730
4170,-0.1392,0.7280,-1.2139,14.160,34.546,19.409,151.408,15.134,-93.730
4179,-0.0854,0.7725,-1.2983,29.541,49.316,22.522,151.710,14.595,-93.691
4189,-0.0850,0.6973,-1.2461,40.039,53.223,20.020,152.133,14.030,-93.615
4199,-0.1631,0.5273,-1.0737,39.673,38.696,11.597,152.551,13.634,-93.532
4209,-0.2319,0.4082,-0.9097,24.048,8.606,0.305,152.798,13.557,-93.494
4220,-0.2964,0.3477,-0.7456,1.953,-26.062,-8.972,152.809,13.832,-93.538
4229,-0.3770,0.2373,-0.5508,-15.747,-58.533,-14.771,152.617,14.420,-93.675
4240,-0.3936,0.2427,-0.4805,-26.917,-77.576,-15.869,152.292,15.183,-93.900
4249,-0.3984,0.3311,-0.5220,-26.611,-73.792,-12.329,151.963,15.892,-94.142
4259,-0.3604,0.4658,-0.6880,-14.343,-44.922,-5.005,151.771,16.309,-94.312
4270,-0.2920,0.5859,-0.8726,2.625,-0.183,5.371,151.782,16.287,-94.367
4279,-0.2183,0.6143,-0.9468,17.334,42.236,14.587,151.979,15.848,-94.290
4289,-0.1782,0.6216,-0.9819,26.855,71.106,17.517,152.298,15.134,-94.103
4299,-0.1558,0.5381,-0.9775,30.945,77.209,12.634,152.672,14.392,-93.851
4309,-0.1797,0.4585,-0.9565,23.804,62.073,6.165,152.968,13.815,-93.609
4319,-0.2061,0.4624,-0.9619,7.690,33.691,-0.916,153.089,13.519,-93.444
4329,-0.2192,0.5034,-0.9722,-6.042,3.052,-7.324,153.045,13.524,-93.362
4339,-0.2280,0.5161,-0.9663,-8.728,-19.653,-9.583,152.957,13.744,-93.367
4349,-0.2217,0.5054,-0.9614,-2.563,-28.748,-9.399,152.919,14.041,-93.417
4359,-0.2275,0.4902,-0.9546,6.653,-28.259,-8.423,152.974,14.332,-93.472
4369,-0.2114,0.4580,-0.9399,14.648,-21.179,-7.019,153.111,14.551,-93.505
4379,-0.2046,0.4053,-0.9092,19.104,-11.780,-5.737,153.303,14.683,-93.510
4389,-0.2153,0.3467,-0.8579,16.724,-5.493,-5.249,153.474,14.755,-93.483
4399,-0.2407,0.3047,-0.8003,8.057,-5.493,-5.737,153.561,14.832,-93.455
4409,-0.2725,0.2988,-0.7520,-4.578,-8.972,-5.371,153.517,14.936,-93.450
4419,-0.2935,0.3149,-0.7310,-14.038,-10.803,-3.235,153.375,15.046,-93.466
4429,-0.3003,0.3501,-0.7500,-16.479,-7.446,0.427,153.199,15.112,-93.505
4439,-0.3037,0.4004,-0.7993,-12.573,0.305,4.089,153.062,15.090,-93.543
4449,-0.2856,0.4380,-0.8579,-4.211,9.644,7.812,153.012,14.969,-93.571
4459,-0.2588,0.4668,-0.9307,5.127,19.470,11.597,153.062,14.744,-93.587
4469,-0.2354,0.4785,-0.9800,10.559,26.794,13.855,153.166,14.442,-93.587
4479,-0.2222,0.4751,-0.9780,10.803,28.320,13.550,153.276,14.128,-93.582
4489,-0.2290,0.4526,-0.9346,6.897,22.705,11.047,153.347,13.876,-93.576
4499,-0.2373,0.4390,-0.8882,0.793,11.414,8.240,153.347,13.733,-93.598
4509,-0.2524,0.4424,-0.8467,-4.517,-0.854,7.324,153.287,13.711,-93.669
4519,-0.2671,0.4526,-0.8105,-5.371,-10.315,10.437,153.199,13.755,-93.818
4530,-0.2705,0.4712,-0.8071,0.427,-14.160,17.212,153.149,13.804,-94.037
4540,-0.2725,0.4819,-0.8311,10.925,-11.230,24.841,153.193,13.793,-94.318
4549,-0.2603,0.4961,-0.8701,23.193,-3.052,29.724,153.358,13.683,-94.609
4559,-0.2422,0.4844,-0.8999,32.776,7.935,31.311,153.622,13.475,-94.861
4569,-0.2158,0.4854,-0.9141,35.645,17.944,29.785,153.935,13.178,-95.054
4579,-0.1836,0.4614,-0.9185,32.471,23.437,25.085,154.232,12.859,-95.175
4589,-0.1870,0.4316,-0.9048,22.705,21.606,17.761,154.446,12.590,-95.246
4599,-0.1880,0.4443,-0.8979,9.277,14.465,10.193,154.528,12.415,-95.273
4609,-0.1938,0.4702,-0.8945,-2.808,6.531,5.615,154.495,12.332,-95.295
4619,-0.1973,0.5034,-0.9033,-9.277,1.282,5.554,154.396,12.294,-95.345
4629,-0.1875,0.5146,-0.9243,-6.836,0.671,8.179,154.308,12.255,-95.416
4639,-0.1821,0.5015,-0.9341,1.038,3.723,9.827,154.303,12.178,-95.488
4649,-0.1748,0.4736,-0.9575,9.216,7.812,8.545,154.385,12.068,-95.537
4659,-0.1631,0.4365,-0.9741,13.123,10.010,4.517,154.517,11.959,-95.532
4669,-0.1572,0.4072,-0.9824,10.193,9.033,-0.671,154.633,11.882,-95.488
4680,-0.1558,0.3877,-0.9844,2.258,5.005,-5.432,154.709,11.827,-95.416
4690,-0.1689,0.3857,-0.9814,-8.057,-0.366,-9.033,154.682,11.838,-95.334
4700,-0.1816,0.4053,-0.9614,-17.517,-5.005,-10.986,154.550,11.909,-95.251
4710,-0.2173,0.4312,-0.8975,-20.752,-9.277,-10.986,154.352,12.047,-95.191
4720,-0.2363,0.4380,-0.8628,-14.709,-13.123,-9.460,154.204,12.217,-95.164
4730,-0.2485,0.4150,-0.8628,-3.906,-16.174,-7.812,154.166,12.420,-95.164
4739,-0.2471,0.3877,-0.8599,5.005,-18.494,-6.104,154.226,12.634,-95.191
4750,-0.2295,0.3799,-0.8672,8.911,-18.982,-4.333,154.325,12.832,-95.235
4760,-0.2212,0.3770,-0.8896,8.545,-17.700,-2.319,154.424,13.002,-95.290
4770,-0.2158,0.3838,-0.8940,5.005,-15.198,-0.488,154.484,13.134,-95.356
4780,-0.2197,0.4019,-0.8853,0.549,-12.634,0.488,154.484,13.239,-95.416
4790,-0.2222,0.4307,-0.8770,-3.418,-10.437,0.549,154.435,13.326,-95.466
4800,-0.2256,0.4580,-0.8789,-5.798,-8.789,-0.061,154.347,13.398,-95.504
4810,-0.2339,0.4751,-0.8838,-6.653,-7.568,-1.099,154.248,13.469,-95.526
4820,-0.2407,0.4775,-0.8760,-6.653,-7.019,-2.563,154.155,13.546,-95.537
4830,-0.2480,0.4741,-0.8701,-6.470,-7.507,-3.906,154.061,13.634,-95.532
4840,-0.2476,0.4780,-0.8770,-5.432,-8.606,-4.578,153.984,13.733,-95.526
4850,-0.2388,0.4644,-0.8872,-2.991,-9.521,-4.456,153.935,13.832,-95.532
4860,-0.2349,0.4526,-0.8936,-0.916,-9.827,-4.028,153.918,13.931,-95.537
4870,-0.2280,0.4468,-0.9009,0.366,-9.216,-3.540,153.918,14.019,-95.548
4880,-0.2241,0.4395,-0.9023,0.732,-7.690,-3.113,153.924,14.084,-95.554
4890,-0.2231,0.4336,-0.9028,0.488,-5.554,-3.113,153.935,14.134,-95.548
4900,-0.2261,0.4248,-0.8970,0.122,-2.808,-3.540,153.946,14.161,-95.532
4910,-0.2319,0.4097,-0.8823,-0.977,-0.244,-3.906,153.957,14.172,-95.493
4920,-0.2402,0.3984,-0.8784,-2.991,1.709,-3.601,153.951,14.172,-95.455
4930,-0.2456,0.3940,-0.8784,-4.883,3.235,-2.563,153.935,14.156,-95.416
4940,-0.2451,0.3931,-0.8936,-5.737,4.272,-1.221,153.907,14.123,-95.383
4950,-0.2451,0.4019,-0.9043,-5.737,4.700,0.122,153.875,14.079,-95.361
4960,-0.2485,0.4072,-0.9102,-5.371,4.578,1.221,153.847,14.030,-95.356
4970,-0.2373,0.4062,-0.9175,-5.249,4.150,1.953,153.820,13.975,-95.356
4980,-0.2241,0.4028,-0.9243,-6.165,2.991,2.075,153.781,13.925,-95.361
4990,-0.2324,0.4072,-0.9263,-8.179,0.977,2.075,153.721,13.898,-95.372
5000,-0.2393,0.4160,-0.9248,-10.681,-1.526,2.441,153.627,13.898,-95.405
5010,-0.2373,0.4336,-0.9189,-12.939,-3.601,3.418,153.501,13.903,-95.449
5020,-0.2349,0.4541,-0.9009,-13.245,-5.737,4.150,153.353,13.931,-95.515
5030,-0.2334,0.4707,-0.8833,-11.292,-7.324,5.005,153.204,13.964,-95.598
5040,-0.2388,0.4775,-0.8633,-7.385,-8.545,5.615,153.089,14.013,-95.685
5050,-0.2363,0.4849,-0.8413,-2.808,-9.460,5.981,153.007,14.063,-95.784
5060,-0.2432,0.4902,-0.8237,2.502,-10.193,6.531,152.968,14.128,-95.894
5070,-0.2598,0.4897,-0.8096,8.423,-10.254,7.446,152.985,14.194,-96.010
5080,-0.2773,0.4863,-0.7964,14.954,-9.094,8.911,153.056,14.260,-96.136
5090,-0.2847,0.5142,-0.7847,23.315,-7.385,10.864,153.193,14.304,-96.268
5100,-0.2881,0.4902,-0.7822,33.569,-4.700,12.817,153.435,14.315,-96.411
5110,-0.2739,0.4771,-0.7910,40.344,-2.136,13.977,153.759,14.299,-96.548
5120,-0.2651,0.4678,-0.8037,43.335,0.549,13.733,154.116,14.249,-96.674
5130,-0.2534,0.4697,-0.8252,43.335,3.479,13.062,154.484,14.167,-96.779
5140,-0.2363,0.4668,-0.8560,42.114,7.202,12.573,154.847,14.046,-96.861
5150,-0.2173,0.4624,-0.8794,39.429,11.353,12.207,155.198,13.876,-96.927
5160,-0.2070,0.4736,-0.9023,37.354,15.625,11.963,155.528,13.661,-96.971
5170,-0.2046,0.4644,-0.9248,38.330,19.653,12.634,155.874,13.403,-97.004
5180,-0.1997,0.4385,-0.9453,40.527,22.522,13.733,156.264,13.123,-97.042
5190,-0.1963,0.3960,-0.9614,42.236,23.804,13.672,156.687,12.827,-97.070
5200,-0.1875,0.3584,-0.9912,39.917,22.888,11.536,157.115,12.546,-97.086
5210,-0.1812,0.3315,-1.0151,31.860,19.287,7.629,157.478,12.310,-97.081
5220,-0.1821,0.3252,-1.0239,19.409,13.916,3.235,157.725,12.145,-97.059
5230,-0.1787,0.3286,-1.0200,6.470,7.812,-0.305,157.841,12.047,-97.026
5240,-0.1865,0.3467,-1.0073,-3.113,2.136,-1.831,157.846,12.014,-96.998
5250,-0.1982,0.3550,-0.9829,-6.958,-1.892,-1.587,157.802,12.025,-96.993
5260,-0.2129,0.3604,-0.9551,-5.249,-3.967,-0.427,157.764,12.057,-97.004
5270,-0.2148,0.3569,-0.9277,-0.793,-5.066,1.160,157.758,12.101,-97.031
5280,-0.2217,0.3403,-0.9038,4.395,-5.859,2.686,157.808,12.156,-97.081
5290,-0.2236,0.3179,-0.8896,7.385,-6.653,4.028,157.896,12.211,-97.147
5300,-0.2217,0.3052,-0.8857,6.775,-7.507,5.005,157.978,12.272,-97.224
5310,-0.2241,0.2979,-0.8745,3.784,-7.385,5.615,158.027,12.332,-97.300
5320,-0.2417,0.3018,-0.8618,0.122,-5.737,6.042,158.038,12.393,-97.383
5330,-0.2495,0.3184,-0.8555,-2.502,-2.197,6.409,158.016,12.415,-97.449
5340,-0.2432,0.3618,-0.8491,-3.357,1.892,7.202,157.956,12.393,-97.515
5350,-0.2412,0.3921,-0.8701,-0.366,5.432,7.935,157.923,12.332,-97.570
5360,-0.2354,0.3999,-0.9077,4.456,8.484,7.629,157.939,12.239,-97.608
5370,-0.2109,0.4209,-0.9390,5.859,10.620,6.592,157.972,12.107,-97.630
5380,-0.1709,0.4370,-0.9878,4.028,11.475,5.066,157.994,11.953,-97.630
5390,-0.1514,0.4307,-1.0269,-1.099,10.498,2.869,157.978,11.805,-97.619
5400,-0.1523,0.4282,-1.0234,-9.338,7.385,-0.366,157.885,11.700,-97.586
5410,-0.1904,0.4209,-0.9404,-17.517,1.160,-3.906,157.698,11.689,-97.548
5420,-0.2808,0.3613,-0.8042,-21.667,-9.216,-6.592,157.473,11.860,-97.520
5430,-0.3491,0.3008,-0.6729,-19.775,-22.461,-8.667,157.258,12.233,-97.526
5440,-0.3174,0.2988,-0.6753,-13.855,-36.377,-8.911,157.099,12.711,-97.586
5450,-0.2334,0.3867,-0.8433,-4.700,-39.795,-5.127,157.011,13.107,-97.696
5460,-0.1265,0.4761,-1.1367,10.132,-19.836,1.526,157.094,13.206,-97.789
5470,-0.0601,0.4971,-1.3091,22.034,14.221,7.141,157.330,12.942,-97.800
5480,-0.0254,0.5308,-1.2983,25.757,39.612,7.507,157.604,12.431,-97.712
5490,-0.0610,0.4644,-1.1567,24.292,46.021,1.648,157.885,11.909,-97.553
5500,-0.1641,0.3779,-0.9722,13.611,30.396,-5.615,158.066,11.624,-97.383
5510,-0.2690,0.3330,-0.7935,-4.272,-2.380,-10.620,158.033,11.739,-97.289
5520,-0.3252,0.3125,-0.6753,-17.334,-39.124,-12.146,157.824,12.261,-97.322
5530,-0.3369,0.3281,-0.6401,-20.508,-68.298,-10.315,157.538,13.057,-97.493
5540,-0.3115,0.3252,-0.6895,-13.367,-78.369,-6.104,157.324,13.887,-97.740
5550,-0.2500,0.3115,-0.8057,-1.099,-64.331,-1.709,157.269,14.507,-97.976
5560,-0.2178,0.3418,-0.9229,7.812,-32.471,2.502,157.335,14.771,-98.130
5570,-0.2046,0.3643,-0.9785,11.230,3.296,5.859,157.456,14.683,-98.174
5580,-0.1997,0.3540,-0.9639,10.437,31.921,8.972,157.593,14.321,-98.135
5590,-0.2148,0.3589,-0.9321,5.798,42.358,9.583,157.681,13.876,-98.058
5600,-0.2246,0.3823,-0.9258,-1.038,33.752,6.592,157.687,13.530,-97.987
5610,-0.2275,0.4180,-0.9473,-7.568,17.700,3.357,157.604,13.343,-97.954
5620,-0.2354,0.4600,-0.9644,-9.888,1.221,1.892,157.473,13.315,-97.965
5630,-0.2339,0.4683,-0.9780,-5.615,-10.742,1.404,157.374,13.398,-98.020
5640,-0.2163,0.4600,-0.9858,2.686,-15.808,0.977,157.363,13.513,-98.091
5650,-0.1992,0.4473,-0.9932,8.911,-14.221,0.244,157.418,13.612,-98.152
5660,-0.1885,0.4233,-0.9829,10.864,-9.460,-0.854,157.511,13.667,-98.179
5670,-0.1938,0.4038,-0.9468,8.118,-5.554,-2.075,157.588,13.694,-98.185
5680,-0.2144,0.3945,-0.9087,2.747,-4.333,-3.357,157.610,13.733,-98.168
5690,-0.2451,0.3843,-0.8511,-3.357,-4.761,-4.517,157.560,13.804,-98.146
5700,-0.2734,0.3911,-0.7949,-6.653,-6.165,-5.127,157.462,13.914,-98.119
5710,-0.2910,0.3804,-0.7729,-4.517,-5.981,-4.456,157.385,14.030,-98.102
5720,-0.2905,0.3687,-0.7881,0.000,-2.502,-2.686,157.363,14.106,-98.086
5730,-0.2900,0.3462,-0.8110,3.662,2.136,-1.038,157.401,14.134,-98.064
5740,-0.2671,0.3398,-0.8560,4.822,8.728,-0.061,157.467,14.073,-98.031
5750,-0.2388,0.3525,-0.9121,4.028,15.747,0.244,157.533,13.925,-97.971
5760,-0.2144,0.3672,-0.9624,2.136,20.691,0.732,157.588,13.711,-97.899
5770,-0.1772,0.4102,-1.0283,-0.427,23.926,1.099,157.610,13.442,-97.811
5780,-0.1553,0.4385,-1.0693,-1.038,25.085,0.671,157.621,13.151,-97.723
5790,-0.1572,0.4438,-1.0596,-0.793,22.522,-0.671,157.632,12.898,-97.625
5800,-0.1924,0.4116,-1.0059,-0.671,14.954,-2.808,157.648,12.739,-97.542
5810,-0.2183,0.3828,-0.9653,-1.343,3.662,-5.432,157.654,12.717,-97.476
5820,-0.2368,0.3564,-0.9346,-2.808,-7.019,-6.775,157.648,12.816,-97.438
5830,-0.2505,0.3467,-0.8950,-3.906,-14.282,-5.615,157.621,12.986,-97.443
5840,-0.2480,0.3472,-0.8716,-1.404,-15.808,-2.991,157.610,13.162,-97.476
5850,-0.2358,0.3389,-0.8828,4.211,-10.620,-0.916,157.654,13.266,-97.509
5860,-0.2178,0.3384,-0.8936,8.301,-2.747,0.061,157.753,13.288,-97.520
5870,-0.2104,0.3364,-0.8872,9.766,5.188,0.549,157.868,13.233,-97.504
5880,-0.2207,0.3267,-0.8735,8.240,11.169,0.854,157.972,13.129,-97.471
5890,-0.2383,0.3271,-0.8647,3.479,14.282,1.038,158.027,13.002,-97.427
5900,-0.2563,0.3398,-0.8740,-2.136,14.465,1.160,158.027,12.892,-97.377
5910,-0.2637,0.3623,-0.8872,-5.615,13.611,1.526,157.978,12.783,-97.344
5920,-0.2529,0.3784,-0.9063,-5.005,12.878,2.502,157.923,12.673,-97.317
5930,-0.2236,0.3843,-0.9312,-0.793,12.817,3.845,157.917,12.541,-97.306
5940,-0.1909,0.3857,-0.9678,3.418,12.817,5.005,157.956,12.382,-97.300
5950,-0.1616,0.3838,-0.9966,5.554,12.085,5.615,158.016,12.211,-97.306
5960,-0.1411,0.3779,-1.0054,4.883,9.827,5.615,158.077,12.057,-97.322
5970,-0.1426,0.3799,-0.9995,2.014,6.165,4.822,158.104,11.937,-97.344
5980,-0.1636,0.3911,-0.9790,-1.587,2.197,3.662,158.082,11.871,-97.372
5990,-0.1875,0.3940,-0.9502,-3.845,-2.136,2.319,158.033,11.865,-97.405
6000,-0.2012,0.3882,-0.9253,-4.578,-6.409,0.916,157.972,11.915,-97.438
6010,-0.2095,0.3799,-0.9058,-4.578,-9.521,-0.183,157.912,12.008,-97.471
6020,-0.2183,0.3726,-0.8896,-4.211,-10.742,-0.732,157.857,12.112,-97.504
6030,-0.2285,0.3647,-0.8862,-3.113,-9.827,-0.061,157.819,12.217,-97.542
6040,-0.2285,0.3618,-0.8960,-1.892,-6.958,1.343,157.791,12.288,-97.581
6050,-0.2207,0.3555,-0.8984,-1.282,-3.296,2.747,157.780,12.316,-97.619
6060,-0.2129,0.3623,-0.9033,-1.587,-0.061,3.540,157.758,12.299,-97.652
6070,-0.2061,0.3882,-0.9116,-1.343,2.319,4.517,157.731,12.255,-97.690
6080,-0.2012,0.3975,-0.9189,0.977,4.089,6.042,157.720,12.189,-97.729
6090,-0.2036,0.3931,-0.9175,3.967,4.883,7.263,157.742,12.112,-97.778
6100,-0.2041,0.3892,-0.9185,5.920,4.761,7.629,157.780,12.030,-97.833
6110,-0.2095,0.3906,-0.9194,6.348,4.211,7.080,157.824,11.964,-97.883
6120,-0.2056,0.3936,-0.9268,5.737,3.296,5.981,157.863,11.909,-97.927
6130,-0.2090,0.3843,-0.9414,5.188,2.258,4.272,157.906,11.871,-97.960
6140,-0.2070,0.3843,-0.9526,3.540,0.916,2.197,157.939,11.849,-97.976
6150,-0.1973,0.3784,-0.9575,1.343,-0.305,0.488,157.956,11.838,-97.982
6160,-0.1914,0.3750,-0.9570,-1.465,-1.526,-0.671,157.950,11.843,-97.982
6170,-0.1851,0.3862,-0.9570,-4.456,-2.380,-1.465,157.906,11.854,-97.976
6180,-0.1768,0.4072,-0.9517,-5.737,-3.296,-1.343,157.841,11.865,-97.976
6190,-0.1826,0.4009,-0.9399,-4.089,-4.761,-0.671,157.786,11.893,-97.987
6200,-0.1924,0.3911,-0.9370,-1.709,-6.531,-0.427,157.764,11.942,-98.009
6210,-0.2046,0.3843,-0.9238,-0.244,-8.057,-0.671,157.753,12.019,-98.036
6220,-0.2227,0.3857,-0.8945,0.488,-9.338,-0.610,157.736,12.112,-98.064
6230,-0.2334,0.3901,-0.8706,2.502,-10.010,0.488,157.736,12.222,-98.108
6240,-0.2407,0.3828,-0.8560,6.226,-9.338,1.892,157.769,12.321,-98.163
6250,-0.2446,0.3726,-0.8511,9.888,-7.202,2.502,157.841,12.404,-98.218
6260,-0.2412,0.3574,-0.8496,11.658,-4.150,2.319,157.939,12.453,-98.251
6270,-0.2339,0.3437,-0.8569,10.132,-0.610,1.648,158.038,12.469,-98.273
6280,-0.2295,0.3291,-0.8716,5.554,3.174,0.793,158.110,12.453,-98.267
6290,-0.2207,0.3311,-0.8872,-1.282,7.080,-0.183,158.115,12.393,-98.240
6300,-0.2202,0.3423,-0.8989,-8.240,10.559,-0.977,158.055,12.305,-98.190
6310,-0.2119,0.3604,-0.9175,-13.733,13.794,-1.465,157.939,12.184,-98.119
6320,-0.1904,0.3872,-0.9395,-16.602,16.663,-1.831,157.786,12.019,-98.042
6330,-0.1719,0.4087,-0.9727,-16.357,19.409,-2.075,157.637,11.821,-97.943
6340,-0.1631,0.4165,-0.9917,-13.489,20.081,-1.770,157.522,11.613,-97.850
6350,-0.1543,0.4175,-0.9985,-9.705,17.334,-1.282,157.440,11.426,-97.773
6360,-0.1709,0.4204,-0.9927,-5.676,10.681,-0.793,157.390,11.305,-97.723
6370,-0.1880,0.4141,-0.9839,-1.465,2.380,-0.366,157.374,11.272,-97.707
6380,-0.1958,0.4004,-0.9722,2.563,-4.333,0.122,157.396,11.305,-97.729
6390,-0.1953,0.3857,-0.9556,4.944,-8.484,0.305,157.445,11.376,-97.762
6400,-0.1914,0.3716,-0.9365,5.005,-9.888,-0.427,157.500,11.459,-97.800
6410,-0.1870,0.3677,-0.9199,3.174,-8.911,-1.709,157.533,11.541,-97.817
6420,-0.1885,0.3677,-0.9082,0.427,-6.226,-2.563,157.538,11.602,-97.817
6430,-0.1919,0.3662,-0.8984,-2.258,-3.052,-2.991,157.522,11.635,-97.800
6440,-0.1992,0.3657,-0.8931,-5.066,-0.183,-3.113,157.484,11.651,-97.773
6450,-0.2085,0.3730,-0.8975,-8.728,2.136,-3.052,157.401,11.646,-97.734
6460,-0.2095,0.3867,-0.9058,-11.292,4.089,-2.563,157.291,11.624,-97.696
6470,-0.1997,0.3975,-0.9194,-12.146,5.371,-1.770,157.176,11.580,-97.657
6480,-0.1875,0.4048,-0.9365,-12.085,5.615,-1.404,157.055,11.519,-97.619
6490,-0.1821,0.4062,-0.9424,-11.536,4.944,-1.648,156.945,11.464,-97.586
6500,-0.1763,0.4121,-0.9487,-11.292,3.479,-2.258,156.835,11.426,-97.553
6510,-0.1802,0.4102,-0.9487,-10.925,1.587,-2.991,156.731,11.409,-97.515
6520,-0.1870,0.4038,-0.9453,-10.864,-0.305,-3.662,156.632,11.415,-97.482
6530,-0.2021,0.3926,-0.9419,-11.169,-1.465,-4.333,156.539,11.442,-97.449
6540,-0.2075,0.3887,-0.9390,-12.634,-1.709,-4.944,156.429,11.475,-97.410
6550,-0.2031,0.3809,-0.9253,-15.564,-1.648,-5.249,156.297,11.514,-97.366
6560,-0.1934,0.3989,-0.9121,-18.982,-1.770,-5.371,156.116,11.547,-97.322
6570,-0.1948,0.4180,-0.8970,-19.836,-2.258,-4.700,155.918,11.580,-97.289
6580,-0.2012,0.4209,-0.8857,-16.907,-2.686,-3.418,155.737,11.618,-97.267
6590,-0.2075,0.4160,-0.8765,-12.146,-2.747,-2.319,155.610,11.656,-97.256
6600,-0.2114,0.3994,-0.8711,-7.812,-2.258,-1.892,155.533,11.695,-97.251
6610,-0.2246,0.3955,-0.8716,-5.371,-1.404,-1.526,155.479,11.728,-97.240
6620,-0.2241,0.4097,-0.8657,-3.784,-0.488,-0.488,155.435,11.750,-97.240
6630,-0.2197,0.4248,-0.8623,-0.854,0.549,1.160,155.407,11.750,-97.251
6640,-0.2212,0.4312,-0.8721,3.906,1.709,2.930,155.424,11.733,-97.267
6650,-0.2109,0.4272,-0.8818,9.644,2.991,4.333,155.500,11.695,-97.295
6660,-0.2100,0.4160,-0.8911,14.282,4.211,5.127,155.632,11.640,-97.328
6670,-0.1978,0.4087,-0.9014,15.869,5.066,5.615,155.786,11.563,-97.355
6680,-0.1880,0.4155,-0.9033,15.259,5.554,5.798,155.923,11.481,-97.388
6690,-0.1885,0.4341,-0.9043,14.832,5.493,6.042,156.050,11.398,-97.421
6700,-0.1851,0.4458,-0.9087,17.273,5.371,6.653,156.187,11.316,-97.460
6710,-0.1841,0.4536,-0.9126,22.705,5.432,7.080,156.379,11.228,-97.504
6721,-0.1841,0.4565,-0.9165,30.396,5.676,8.301,156.643,11.135,-97.559
6730,-0.1724,0.4526,-0.9292,40.161,6.104,10.193,157.000,11.019,-97.630
6740,-0.1714,0.4321,-0.9390,50.415,5.737,12.024,157.467,10.904,-97.718
6750,-0.1772,0.3950,-0.9526,59.448,4.333,13.489,158.033,10.805,-97.828
6760,-0.1704,0.3506,-0.9639,64.514,2.502,14.221,158.670,10.712,-97.954
6770,-0.1855,0.3091,-0.9668,63.599,0.122,13.733,159.307,10.657,-98.086
6780,-0.1699,0.2798,-0.9692,56.702,-2.747,12.085,159.895,10.629,-98.207
6790,-0.1699,0.2676,-0.9702,45.776,-5.310,10.071,160.373,10.635,-98.322
6800,-0.1777,0.2661,-0.9678,33.630,-6.531,8.423,160.730,10.662,-98.427
6810,-0.1729,0.2705,-0.9639,21.729,-6.714,7.019,160.966,10.695,-98.514
6820,-0.1714,0.2959,-0.9590,11.353,-6.042,5.676,161.082,10.723,-98.591
6830,-0.1865,0.3071,-0.9556,4.761,-3.662,4.639,161.131,10.739,-98.646
6840,-0.1958,0.3101,-0.9595,1.831,-0.671,4.089,161.147,10.734,-98.690
6850,-0.1880,0.3091,-0.9678,0.732,1.404,3.845,161.164,10.706,-98.723
6860,-0.1802,0.2974,-0.9766,0.000,2.441,3.357,161.175,10.668,-98.745
6870,-0.1699,0.2891,-0.9780,-2.625,2.014,2.258,161.169,10.629,-98.762
6880,-0.1680,0.2900,-0.9771,-7.751,0.427,0.977,161.115,10.607,-98.767
6890,-0.1650,0.2964,-0.9771,-13.733,-1.648,-0.183,160.999,10.613,-98.773
6900,-0.1714,0.3110,-0.9688,-18.921,-3.418,-1.343,160.823,10.635,-98.773
6910,-0.1841,0.3350,-0.9624,-22.400,-4.639,-2.380,160.604,10.684,-98.762
6920,-0.1948,0.3579,-0.9551,-23.499,-5.310,-2.930,160.362,10.745,-98.756
6930,-0.2007,0.3730,-0.9502,-22.522,-5.493,-2.808,160.120,10.811,-98.745
6940,-0.1934,0.3838,-0.9448,-20.386,-5.676,-2.563,159.901,10.871,-98.740
6950,-0.1846,0.3867,-0.9380,-18.250,-6.042,-2.686,159.697,10.931,-98.734
6960,-0.1855,0.3853,-0.9341,-17.212,-6.592,-3.357,159.505,10.997,-98.729
6970,-0.1929,0.3867,-0.9272,-17.151,-7.141,-4.272,159.318,11.074,-98.712
6980,-0.1963,0.3857,-0.9199,-16.907,-7.690,-4.822,159.131,11.162,-98.696
6990,-0.1934,0.3872,-0.9097,-15.869,-7.935,-4.700,158.956,11.255,-98.679
7000,-0.2012,0.3896,-0.9009,-14.038,-7.690,-4.456,158.796,11.343,-98.663
7010,-0.2051,0.3945,-0.9028,-11.414,-6.775,-4.150,158.665,11.426,-98.652
7020,-0.2065,0.3931,-0.8970,-8.057,-5.371,-3.845,158.566,11.492,-98.635
7030,-0.2017,0.3828,-0.8940,-4.761,-3.967,-3.723,158.505,11.547,-98.613
7040,-0.2070,0.3667,-0.8892,-3.357,-2.930,-3.906,158.467,11.591,-98.586
7050,-0.2095,0.3560,-0.8887,-4.456,-2.258,-4.395,158.423,11.640,-98.553
7060,-0.2134,0.3608,-0.8833,-7.202,-1.526,-4.761,158.357,11.678,-98.514
7070,-0.2271,0.3730,-0.8833,-8.545,-0.305,-4.578,158.269,11.717,-98.470
7080,-0.2329,0.3730,-0.8818,-6.714,1.282,-3.906,158.198,11.739,-98.427
7090,-0.2310,0.3545,-0.8716,-3.418,1.709,-3.601,158.170,11.755,-98.388
7100,-0.2280,0.3379,-0.8789,-0.916,1.221,-3.845,158.176,11.777,-98.350
7110,-0.2168,0.3286,-0.8936,-1.099,0.061,-4.211,158.187,11.799,-98.306
7120,-0.1963,0.3496,-0.9341,-3.601,0.183,-3.967,158.176,11.810,-98.267
7130,-0.1846,0.3745,-0.9839,-5.432,2.625,-2.808,158.137,11.777,-98.234
7140,-0.1870,0.3921,-1.0234,-4.639,6.958,-1.526,158.110,11.695,-98.190
7150,-0.1987,0.3945,-1.0049,-2.136,10.376,-1.282,158.104,11.591,-98.141
7160,-0.2300,0.3711,-0.9004,0.244,8.057,-2.197,158.110,11.547,-98.086
7170,-0.2744,0.3262,-0.7764,1.282,-1.709,-3.601,158.121,11.640,-98.058
7180,-0.2764,0.3296,-0.7700,0.610,-13.977,-4.822,158.110,11.849,-98.069
7190,-0.2109,0.3359,-0.9072,0.916,-18.005,-5.737,158.132,12.041,-98.080
7200,-0.1401,0.3823,-1.0776,-1.709,-7.324,-5.554,158.143,12.079,-98.058
7210,-0.1113,0.4697,-1.1172,-7.141,11.658,-3.052,158.077,11.915,-97.982
7221,-0.1445,0.4463,-0.9834,-7.996,25.452,-0.549,157.994,11.640,-97.883
7230,-0.2183,0.3813,-0.8125,-6.592,25.269,-1.160,157.923,11.431,-97.773
7240,-0.2769,0.3320,-0.7065,-4.028,10.559,-4.761,157.868,11.437,-97.690
7250,-0.3188,0.2871,-0.6338,-1.770,-9.277,-5.920,157.830,11.673,-97.668
7260,-0.3066,0.2896,-0.6675,2.747,-24.658,-2.441,157.830,12.019,-97.740
7270,-0.2466,0.2910,-0.8154,12.817,-24.902,5.310,157.950,12.266,-97.888
7280,-0.1626,0.3281,-1.0195,23.499,-7.263,14.404,158.192,12.244,-98.053
7290,-0.0732,0.3755,-1.1963,30.945,22.339,19.043,158.522,11.882,-98.146
7300,-0.0088,0.3813,-1.2539,28.870,53.284,21.790,158.851,11.195,-98.157
7310,-0.0215,0.3618,-1.1851,16.663,71.594,19.897,159.071,10.360,-98.080
7320,-0.1011,0.3237,-1.0410,-1.831,69.092,13.977,159.115,9.624,-97.965
7330,-0.1685,0.3442,-0.8984,-23.743,48.889,5.920,158.895,9.152,-97.844
7340,-0.2061,0.4092,-0.8408,-38.086,18.677,0.000,158.483,9.014,-97.773
7350,-0.2202,0.4482,-0.8403,-37.537,-7.629,-0.977,158.044,9.124,-97.795
7360,-0.2119,0.4634,-0.9077,-25.269,-20.142,2.075,157.725,9.327,-97.888
7370,-0.1699,0.4585,-1.0176,-6.714,-16.968,5.005,157.621,9.459,-98.004
7380,-0.1377,0.4380,-1.0747,7.202,-3.296,6.165,157.681,9.437,-98.069
7390,-0.1211,0.4180,-1.0674,10.254,10.071,5.066,157.791,9.294,-98.080
7400,-0.1191,0.4028,-0.9937,5.920,15.747,2.258,157.857,9.113,-98.042
7410,-0.1265,0.4082,-0.9282,-2.319,11.353,-1.221,157.830,8.992,-97.987
7420,-0.1553,0.4146,-0.8760,-8.911,1.709,-4.150,157.714,8.992,-97.943
7430,-0.1807,0.3999,-0.8379,-10.925,-8.057,-6.042,157.577,9.108,-97.916
7440,-0.1924,0.3931,-0.8286,-8.362,-13.611,-7.202,157.467,9.289,-97.899
7450,-0.1860,0.3916,-0.8569,-2.625,-13.367,-7.141,157.423,9.459,-97.883
7460,-0.1753,0.3774,-0.9116,3.967,-7.751,-6.104,157.467,9.558,-97.861
7470,-0.1519,0.3745,-0.9741,6.714,0.732,-4.822,157.560,9.558,-97.811
7480,-0.1216,0.3887,-1.0249,4.517,8.972,-3.723,157.632,9.454,-97.740
7490,-0.1064,0.3936,-1.0537,0.793,13.489,-3.296,157.670,9.305,-97.657
7500,-0.0957,0.4014,-1.0415,-3.540,13.977,-3.967,157.665,9.146,-97.564
7510,-0.1162,0.3823,-0.9761,-6.287,9.094,-5.371,157.626,9.058,-97.482
7520,-0.1387,0.3755,-0.9229,-6.653,-0.488,-6.226,157.571,9.075,-97.427
7530,-0.1709,0.3599,-0.8901,-4.089,-10.559,-5.798,157.538,9.201,-97.410
7540,-0.2012,0.3315,-0.8657,-0.854,-17.639,-3.906,157.538,9.410,-97.443
7550,-0.2158,0.3218,-0.8643,0.671,-19.287,-1.709,157.555,9.630,-97.504
7560,-0.2178,0.3398,-0.8784,2.502,-14.709,0.793,157.582,9.794,-97.564
7570,-0.2041,0.3491,-0.8887,5.005,-7.019,3.235,157.632,9.871,-97.625
7580,-0.1904,0.3550,-0.8911,6.775,-0.244,4.578,157.698,9.866,-97.668
7590,-0.1763,0.3662,-0.9043,7.080,4.333,4.578,157.764,9.816,-97.696
7600,-0.1533,0.3765,-0.9302,5.127,6.714,3.845,157.819,9.728,-97.707
7610,-0.1499,0.4019,-0.9536,1.404,7.812,3.052,157.824,9.630,-97.701
7620,-0.1465,0.4136,-0.9644,-1.038,7.568,2.502,157.802,9.536,-97.696
7630,-0.1499,0.4175,-0.9780,-1.221,6.104,1.587,157.786,9.454,-97.690
7640,-0.1445,0.4141,-0.9805,-0.305,3.784,0.488,157.775,9.404,-97.679
7650,-0.1528,0.3970,-0.9678,0.427,0.244,-0.610,157.780,9.393,-97.674
7660,-0.1401,0.3784,-0.9429,-0.244,-4.456,-1.587,157.780,9.421,-97.674
7670,-0.1558,0.3662,-0.9102,-2.136,-9.216,-2.197,157.758,9.514,-97.690
7680,-0.1470,0.3647,-0.8848,-3.967,-13.000,-1.892,157.714,9.630,-97.723
7690,-0.1772,0.3608,-0.8750,-3.540,-14.771,-0.916,157.670,9.778,-97.767
7700,-0.2051,0.3682,-0.8955,-1.343,-13.184,0.061,157.648,9.921,-97.822
7710,-0.1860,0.3774,-0.9194,1.587,-7.690,1.221,157.659,9.992,-97.861
7721,-0.1665,0.3765,-0.9233,3.845,-0.916,2.075,157.692,9.987,-97.883
7730,-0.1611,0.3755,-0.9312,4.333,4.150,1.831,157.736,9.937,-97.888
7740,-0.1479,0.3877,-0.9468,2.075,5.981,0.854,157.764,9.860,-97.872
7750,-0.1392,0.3979,-0.9541,-1.343,4.822,-0.366,157.747,9.794,-97.850
7760,-0.1528,0.4023,-0.9531,-4.211,1.892,-1.526,157.703,9.772,-97.828
7770,-0.1704,0.4053,-0.9541,-5.798,-1.160,-2.686,157.643,9.789,-97.806
7780,-0.1733,0.4062,-0.9546,-6.348,-2.991,-3.357,157.577,9.822,-97.789
7790,-0.1758,0.4062,-0.9502,-5.859,-3.723,-3.296,157.516,9.866,-97.773
7800,-0.1777,0.4019,-0.9438,-4.700,-4.028,-3.113,157.462,9.915,-97.756
7810,-0.1665,0.4004,-0.9307,-3.784,-4.883,-2.991,157.423,9.965,-97.751
7820,-0.1626,0.4004,-0.9180,-2.808,-6.042,-2.808,157.385,10.025,-97.745
7830,-0.1763,0.3911,-0.9048,-0.916,-6.897,-2.441,157.368,10.096,-97.751
7840,-0.1797,0.3794,-0.9009,0.916,-6.958,-2.014,157.374,10.173,-97.756
7850,-0.1855,0.3647,-0.8975,2.258,-5.920,-1.709,157.396,10.239,-97.767
7860,-0.1943,0.3584,-0.8999,2.625,-3.906,-1.465,157.434,10.294,-97.767
7870,-0.1948,0.3496,-0.9019,1.587,-1.465,-1.343,157.462,10.322,-97.762
7880,-0.1880,0.3535,-0.9048,-0.610,0.488,-1.099,157.473,10.327,-97.745
7890,-0.1797,0.3589,-0.9185,-2.625,1.587,-0.854,157.462,10.316,-97.734
7900,-0.1748,0.3604,-0.9292,-3.845,1.648,-0.610,157.434,10.300,-97.723
7911,-0.1714,0.3618,-0.9355,-4.395,1.404,-0.366,157.407,10.283,-97.712
7920,-0.1650,0.3672,-0.9385,-4.333,1.526,0.000,157.379,10.261,-97.707
7930,-0.1641,0.3701,-0.9453,-3.113,1.465,0.305,157.363,10.234,-97.701
7940,-0.1641,0.3647,-0.9492,-1.648,0.854,0.671,157.363,10.212,-97.707
7950,-0.1641,0.3613,-0.9497,-1.160,0.671,1.221,157.368,10.190,-97.712
7960,-0.1665,0.3613,-0.9478,-1.892,0.793,1.648,157.363,10.168,-97.729
7970,-0.1670,0.3633,-0.9434,-3.479,0.916,1.892,157.341,10.146,-97.740
7980,-0.1689,0.3716,-0.9370,-5.249,0.427,2.136,157.297,10.129,-97.762
7990,-0.1714,0.3794,-0.9331,-6.226,-0.244,2.563,157.236,10.113,-97.784
8000,-0.1719,0.3848,-0.9331,-6.165,-0.793,3.235,157.170,10.107,-97.817
8010,-0.1719,0.3867,-0.9272,-5.798,-1.526,3.845,157.110,10.102,-97.861
8020,-0.1699,0.3892,-0.9189,-5.981,-2.319,4.272,157.044,10.102,-97.910
8030,-0.1694,0.4038,-0.9082,-6.653,-3.113,4.639,156.956,10.107,-97.965
8040,-0.1733,0.4248,-0.9048,-6.104,-3.662,5.188,156.863,10.118,-98.026
8050,-0.1704,0.4399,-0.9102,-3.418,-3.723,5.920,156.791,10.124,-98.097
8060,-0.1724,0.4429,-0.9141,0.366,-3.296,6.287,156.753,10.124,-98.168
8070,-0.1729,0.4424,-0.9170,3.357,-3.113,5.859,156.753,10.124,-98.240
8080,-0.1787,0.4404,-0.9170,4.456,-3.296,4.822,156.764,10.135,-98.295
8090,-0.1836,0.4380,-0.9146,3.113,-3.662,3.540,156.758,10.157,-98.344
8100,-0.1875,0.4443,-0.9155,0.549,-4.089,2.136,156.731,10.184,-98.377
8110,-0.1904,0.4492,-0.9160,-1.587,-4.272,0.549,156.687,10.228,-98.405
8120,-0.1875,0.4526,-0.9146,-2.747,-4.150,-1.099,156.627,10.272,-98.410
8130,-0.1860,0.4482,-0.9141,-2.808,-3.784,-2.686,156.572,10.316,-98.399
8140,-0.1885,0.4390,-0.9146,-2.502,-3.113,-4.089,156.533,10.366,-98.372
8150,-0.1924,0.4268,-0.9082,-2.258,-2.319,-5.066,156.500,10.410,-98.333
8160,-0.1924,0.4136,-0.9028,-2.319,-1.953,-5.737,156.473,10.453,-98.289
8170,-0.1904,0.4019,-0.9004,-3.052,-1.831,-6.287,156.445,10.503,-98.240
8180,-0.1860,0.3975,-0.8970,-3.723,-1.770,-6.653,156.418,10.547,-98.185
8190,-0.1831,0.3936,-0.8960,-3.235,-1.465,-6.409,156.390,10.585,-98.130
8200,-0.1816,0.3813,-0.8955,-2.014,-0.977,-5.920,156.385,10.618,-98.080
8210,-0.1802,0.3657,-0.9009,-0.854,-0.122,-5.493,156.401,10.640,-98.026
8221,-0.1816,0.3574,-0.9092,-0.732,1.343,-5.310,156.429,10.646,-97.971
8230,-0.1836,0.3496,-0.9146,-1.953,3.235,-4.944,156.445,10.635,-97.916
8240,-0.1855,0.3481,-0.9180,-3.906,4.822,-4.395,156.445,10.613,-97.855
8250,-0.1831,0.3516,-0.9185,-6.165,5.798,-3.540,156.418,10.574,-97.795
8260,-0.1821,0.3843,-0.9282,-7.141,5.981,-2.441,156.368,10.525,-97.751
8270,-0.1812,0.3975,-0.9399,-4.395,6.042,-0.793,156.341,10.470,-97.718
8280,-0.1724,0.3984,-0.9458,-0.183,5.493,0.671,156.346,10.404,-97.701
8290,-0.1636,0.3921,-0.9526,2.991,4.272,1.343,156.390,10.349,-97.696
8300,-0.1606,0.3911,-0.9541,3.845,2.441,1.404,156.440,10.305,-97.701
8310,-0.1597,0.3936,-0.9551,2.502,0.183,1.404,156.478,10.283,-97.712
8320,-0.1567,0.4023,-0.9531,0.061,-2.014,1.404,156.478,10.278,-97.734
8330,-0.1528,0.4126,-0.9463,-1.953,-3.540,0.977,156.456,10.289,-97.756
8340,-0.1611,0.4189,-0.9380,-2.625,-3.906,0.305,156.418,10.311,-97.773
8350,-0.1685,0.4170,-0.9297,-2.441,-3.418,-0.427,156.390,10.333,-97.784
8360,-0.1680,0.4155,-0.9189,-2.380,-2.808,-0.977,156.357,10.355,-97.789
8370,-0.1753,0.4082,-0.9116,-2.686,-2.502,-1.221,156.324,10.377,-97.784
8380,-0.1851,0.4072,-0.9033,-3.418,-2.441,-1.221,156.286,10.404,-97.784
8390,-0.1846,0.4092,-0.9019,-4.272,-2.319,-1.221,156.237,10.432,-97.784
8400,-0.1855,0.4106,-0.8965,-4.272,-1.709,-0.977,156.187,10.453,-97.778
8410,-0.1890,0.4058,-0.8950,-3.418,-0.793,-0.732,156.149,10.470,-97.778
8420,-0.1841,0.4077,-0.8960,-2.441,0.244,-0.671,156.121,10.470,-97.767
8430,-0.1807,0.4082,-0.9009,-1.465,1.221,-0.488,156.099,10.459,-97.762
8440,-0.1831,0.4072,-0.9077,-0.793,1.770,-0.305,156.094,10.448,-97.751
8450,-0.1855,0.4062,-0.9160,-0.549,1.831,-0.244,156.088,10.432,-97.740
8460,-0.1885,0.4038,-0.9219,-0.793,1.526,-0.305,156.083,10.421,-97.729
8470,-0.1846,0.4038,-0.9253,-1.526,1.282,-0.549,156.077,10.410,-97.723
8480,-0.1782,0.4062,-0.9248,-2.319,1.282,-0.671,156.055,10.399,-97.707
8490,-0.1753,0.4121,-0.9277,-2.808,1.343,-0.549,156.033,10.382,-97.701
8500,-0.1768,0.4087,-0.9258,-3.052,1.038,-0.549,156.006,10.371,-97.690
8510,-0.1768,0.4023,-0.9189,-3.540,0.549,-0.854,155.973,10.366,-97.679
8520,-0.1758,0.4067,-0.9194,-4.639,0.061,-1.343,155.934,10.366,-97.668
8530,-0.1807,0.4121,-0.9229,-5.249,-0.244,-1.526,155.885,10.371,-97.652
8540,-0.1797,0.4111,-0.9214,-4.333,-0.244,-1.343,155.841,10.377,-97.641
8550,-0.1724,0.4082,-0.9253,-2.502,-0.183,-1.099,155.825,10.377,-97.630
8560,-0.1665,0.4014,-0.9272,-0.732,-0.305,-0.916,155.825,10.371,-97.625
8570,-0.1704,0.3926,-0.9229,0.183,-0.732,-0.671,155.836,10.371,-97.625
8580,-0.1763,0.3867,-0.9219,-0.061,-1.343,-0.427,155.852,10.382,-97.625
8590,-0.1787,0.3940,-0.9136,-0.916,-2.014,-0.061,155.847,10.399,-97.630
8600,-0.1831,0.4053,-0.9053,-0.793,-2.380,0.610,155.841,10.421,-97.646
8610,-0.1870,0.4297,-0.8975,1.343,-2.502,1.709,155.830,10.437,-97.674
8620,-0.1943,0.4409,-0.8901,6.775,-2.136,3.235,155.869,10.448,-97.712
8630,-0.1968,0.4370,-0.8906,14.038,-1.404,4.639,155.978,10.448,-97.762
8640,-0.1958,0.4194,-0.8975,20.203,-0.244,5.249,156.160,10.437,-97.811
8650,-0.1934,0.4028,-0.9077,22.461,1.221,4.944,156.374,10.415,-97.850
8660,-0.1860,0.3911,-0.9180,19.958,2.625,4.028,156.572,10.377,-97.877
8670,-0.1880,0.3867,-0.9238,13.306,3.784,2.136,156.714,10.333,-97.883
8680,-0.1826,0.3940,-0.9155,4.578,4.517,-0.854,156.764,10.300,-97.855
8690,-0.1812,0.3984,-0.9077,-3.845,4.578,-4.211,156.731,10.272,-97.800
8700,-0.1782,0.3994,-0.9131,-10.620,5.737,-7.812,156.638,10.250,-97.701
8710,-0.1763,0.3999,-0.9097,-16.357,8.789,-11.108,156.495,10.212,-97.564
8721,-0.1753,0.4009,-0.9014,-21.423,12.695,-13.733,156.313,10.151,-97.383
8730,-0.1797,0.3853,-0.8765,-26.062,15.747,-15.930,156.088,10.074,-97.174
8740,-0.1953,0.3818,-0.8384,-32.471,17.273,-17.456,155.803,10.009,-96.938
8750,-0.2002,0.3877,-0.8315,-36.743,16.846,-17.822,155.473,9.954,-96.702
8760,-0.2012,0.3833,-0.8320,-36.438,15.808,-16.846,155.149,9.904,-96.482
8770,-0.1909,0.4214,-0.8384,-33.630,15.076,-13.550,154.830,9.838,-96.295
8780,-0.1782,0.4487,-0.8540,-23.315,16.113,-7.446,154.594,9.734,-96.152
8790,-0.1904,0.4136,-0.8662,-9.827,16.968,-0.549,154.512,9.597,-96.075
8800,-0.1812,0.3916,-0.8975,1.160,17.151,3.967,154.545,9.437,-96.037
8810,-0.1387,0.4014,-0.9556,6.165,17.395,5.920,154.638,9.240,-96.015
8820,-0.1064,0.4238,-1.0435,4.089,17.700,5.676,154.715,9.014,-95.993
8830,-0.0781,0.4678,-1.1182,-1.892,19.409,3.723,154.731,8.773,-95.944
8840,-0.0571,0.5044,-1.1191,-9.827,20.691,0.977,154.655,8.525,-95.861
8850,-0.0566,0.5239,-1.0752,-16.479,17.822,-2.136,154.501,8.317,-95.762
8860,-0.0854,0.5396,-1.0200,-17.883,9.277,-5.554,154.314,8.218,-95.674
8870,-0.1074,0.5415,-0.9751,-14.465,-2.136,-7.507,154.144,8.240,-95.614
8880,-0.1294,0.5166,-0.9287,-7.385,-13.428,-7.202,154.039,8.377,-95.609
8890,-0.1572,0.4673,-0.8687,1.282,-22.400,-5.676,154.023,8.608,-95.658
8900,-0.1807,0.4141,-0.8247,8.362,-29.358,-4.456,154.083,8.915,-95.746
8910,-0.1938,0.3774,-0.8096,10.498,-33.264,-3.601,154.177,9.256,-95.861
8920,-0.2017,0.3613,-0.8135,8.728,-33.020,-2.808,154.265,9.602,-95.982
8930,-0.2017,0.3667,-0.8252,5.371,-27.832,-1.770,154.319,9.888,-96.086
8940,-0.1997,0.3789,-0.8394,2.502,-18.188,-0.305,154.341,10.074,-96.163
8950,-0.1958,0.3916,-0.8589,0.854,-6.714,1.160,154.358,10.146,-96.202
8960,-0.1758,0.4102,-0.8838,1.099,4.028,2.197,154.374,10.102,-96.207
8970,-0.1597,0.4189,-0.9155,2.136,11.963,2.502,154.413,9.970,-96.174
8980,-0.1460,0.4253,-0.9438,0.977,15.625,2.625,154.440,9.800,-96.130
8990,-0.1387,0.4292,-0.9619,-1.160,15.442,2.563,154.451,9.630,-96.086
9000,-0.1421,0.4326,-0.9746,-3.784,12.390,2.319,154.435,9.487,-96.053
9010,-0.1377,0.4492,-0.9858,-6.348,7.874,1.953,154.385,9.388,-96.037
9020,-0.1294,0.4717,-0.9902,-7.507,3.479,1.587,154.314,9.322,-96.037
9030,-0.1265,0.4829,-0.9893,-6.775,-1.038,1.343,154.243,9.300,-96.053
9040,-0.1274,0.4854,-0.9854,-4.639,-4.944,0.732,154.188,9.311,-96.081
9050,-0.1265,0.4902,-0.9790,-1.526,-7.935,-0.305,154.160,9.355,-96.114
9060,-0.1294,0.4858,-0.9707,0.916,-10.254,-1.404,154.155,9.426,-96.147
9070,-0.1436,0.4722,-0.9590,1.160,-12.329,-2.441,154.155,9.531,-96.180
9080,-0.1479,0.4595,-0.9419,-0.732,-13.855,-3.662,154.144,9.657,-96.207
9090,-0.1514,0.4541,-0.9238,-3.601,-14.465,-4.944,154.100,9.794,-96.224
9100,-0.1582,0.4521,-0.9116,-6.531,-14.648,-5.798,154.028,9.937,-96.240
9110,-0.1719,0.4453,-0.9009,-8.362,-14.282,-6.226,153.940,10.091,-96.246
9120,-0.1855,0.4395,-0.8882,-9.338,-13.550,-6.531,153.847,10.245,-96.246
9130,-0.1855,0.4399,-0.8779,-9.460,-12.634,-6.592,153.748,10.393,-96.240
9140,-0.1963,0.4429,-0.8643,-8.179,-11.963,-6.104,153.660,10.536,-96.240
9150,-0.2100,0.4404,-0.8535,-5.371,-11.475,-4.944,153.594,10.673,-96.246
9160,-0.2104,0.4331,-0.8413,-1.648,-10.925,-3.418,153.567,10.805,-96.268
9170,-0.2080,0.4165,-0.8267,2.075,-10.132,-2.136,153.583,10.926,-96.290
9180,-0.2144,0.4019,-0.8218,4.211,-9.521,-1.282,153.622,11.036,-96.323
9190,-0.2222,0.3916,-0.8164,4.272,-8.606,-0.732,153.666,11.146,-96.356
9200,-0.2339,0.3906,-0.8184,2.869,-6.775,-0.061,153.693,11.239,-96.383
9210,-0.2378,0.3960,-0.8218,1.038,-3.906,0.977,153.704,11.299,-96.411
9221,-0.2388,0.4023,-0.8271,-0.183,-0.610,2.075,153.704,11.332,-96.432
9230,-0.2300,0.4175,-0.8389,-0.793,2.686,3.052,153.693,11.316,-96.449
9240,-0.2217,0.4282,-0.8521,-0.610,5.371,3.662,153.677,11.272,-96.460
9250,-0.2148,0.4375,-0.8579,-0.366,7.141,3.784,153.666,11.206,-96.460
9260,-0.2061,0.4380,-0.8623,-0.488,7.568,3.418,153.660,11.129,-96.460
9270,-0.1973,0.4453,-0.8677,-1.282,6.836,2.808,153.638,11.063,-96.454
9280,-0.1885,0.4668,-0.8745,-2.380,5.859,2.319,153.600,10.997,-96.449
9290,-0.1797,0.4824,-0.8892,-1.892,5.005,2.197,153.561,10.931,-96.443
9300,-0.1821,0.4829,-0.9063,0.000,4.639,2.258,153.545,10.871,-96.443
9310,-0.1743,0.4844,-0.9194,2.075,4.944,1.831,153.550,10.805,-96.438
9320,-0.1699,0.4805,-0.9326,3.113,4.761,0.793,153.578,10.745,-96.422
9330,-0.1689,0.4780,-0.9399,2.197,4.028,-0.427,153.594,10.695,-96.400
9340,-0.1650,0.4849,-0.9453,0.183,2.686,-1.648,153.594,10.662,-96.372
9350,-0.1519,0.4937,-0.9629,-1.404,1.526,-2.808,153.583,10.629,-96.345
9360,-0.1426,0.4917,-0.9873,-2.197,0.732,-4.211,153.567,10.613,-96.301
9370,-0.1396,0.4839,-0.9922,-2.991,0.000,-6.287,153.550,10.607,-96.246
9380,-0.1470,0.4795,-0.9722,-4.395,-1.465,-8.179,153.523,10.624,-96.174
9390,-0.1792,0.4526,-0.9150,-5.798,-4.883,-9.216,153.479,10.701,-96.114
9400,-0.2173,0.4160,-0.8306,-5.981,-10.132,-9.766,153.424,10.860,-96.070
9410,-0.2661,0.3843,-0.7236,-4.211,-16.907,-10.132,153.375,11.124,-96.053
9420,-0.2939,0.3682,-0.6675,0.732,-22.400,-10.071,153.353,11.470,-96.064
9430,-0.2993,0.3301,-0.6514,6.775,-22.644,-9.155,153.419,11.816,-96.086
9440,-0.2915,0.3291,-0.6929,10.010,-15.991,-6.897,153.523,12.079,-96.097
9450,-0.2559,0.3696,-0.7949,12.634,0.366,-2.014,153.671,12.129,-96.075
9460,-0.2061,0.4438,-0.9038,15.381,24.536,5.310,153.836,11.882,-96.015
9470,-0.1523,0.4980,-0.9854,17.151,47.729,11.414,154.023,11.365,-95.905
9480,-0.0913,0.5640,-1.0674,16.724,65.857,14.709,154.199,10.646,-95.746
9490,-0.0591,0.5552,-1.0962,14.709,74.341,11.292,154.374,9.855,-95.521
9500,-0.0493,0.5376,-1.0713,6.775,67.139,3.052,154.479,9.168,-95.251
9510,-0.0752,0.5103,-1.0195,-3.418,46.204,-7.019,154.473,8.734,-94.988
9520,-0.1191,0.4863,-0.9756,-11.719,19.348,-14.709,154.385,8.597,-94.768
9530,-0.1426,0.4751,-0.9448,-16.479,-6.409,-17.517,154.226,8.718,-94.636
9540,-0.1621,0.4448,-0.8989,-13.306,-24.597,-16.174,154.100,9.014,-94.598
9550,-0.1890,0.4102,-0.8384,-5.554,-35.156,-12.085,154.034,9.404,-94.642
9560,-0.2002,0.3809,-0.8120,4.639,-36.438,-6.958,154.072,9.789,-94.741
9570,-0.2075,0.3516,-0.8057,13.916,-29.724,-2.319,154.215,10.096,-94.850
9580,-0.2085,0.3296,-0.8179,19.287,-17.883,1.465,154.429,10.283,-94.944
9590,-0.2007,0.3140,-0.8442,20.508,-3.723,3.906,154.671,10.322,-94.993
9600,-0.1772,0.3203,-0.8984,16.479,9.583,4.333,154.896,10.223,-94.993
9610,-0.1592,0.3442,-0.9580,7.568,19.897,2.930,155.034,10.020,-94.933
9620,-0.1357,0.3887,-1.0029,-3.479,26.123,0.916,155.056,9.750,-94.828
9630,-0.1143,0.4351,-1.0317,-12.085,27.954,-0.610,154.973,9.465,-94.708
9640,-0.1030,0.4707,-1.0430,-15.442,25.574,-1.465,154.852,9.196,-94.581
9650,-0.1030,0.4839,-1.0415,-14.954,19.409,-1.526,154.720,8.987,-94.482
9660,-0.1016,0.4883,-1.0317,-12.268,9.766,-1.404,154.605,8.866,-94.427
9670,-0.1113,0.4702,-1.0161,-7.568,-1.526,-1.221,154.539,8.855,-94.427
9680,-0.1226,0.4502,-0.9946,-3.906,-12.024,-0.916,154.506,8.943,-94.471
9690,-0.1284,0.4297,-0.9624,-1.953,-19.775,-0.488,154.484,9.102,-94.548
9700,-0.1387,0.4214,-0.9302,-1.587,-24.048,0.122,154.468,9.300,-94.658
9710,-0.1548,0.4248,-0.9038,-1.099,-24.841,0.854,154.440,9.514,-94.774
9721,-0.1709,0.4268,-0.8848,-0.061,-22.766,1.648,154.418,9.712,-94.889
9730,-0.1787,0.4287,-0.8760,1.404,-18.799,2.441,154.407,9.877,-94.993
9740,-0.1880,0.4219,-0.8643,2.625,-14.221,2.930,154.418,10.003,-95.081
9750,-0.1938,0.4194,-0.8589,2.686,-10.071,3.052,154.424,10.096,-95.153
9760,-0.1914,0.4194,-0.8574,0.610,-6.775,3.113,154.418,10.157,-95.213
9770,-0.1870,0.4307,-0.8584,-2.686,-4.089,3.296,154.369,10.184,-95.262
9780,-0.1895,0.4473,-0.8628,-4.639,-2.136,3.906,154.297,10.195,-95.306
9790,-0.1890,0.4556,-0.8647,-3.784,-1.160,4.883,154.232,10.195,-95.356
9800,-0.1904,0.4580,-0.8687,-1.221,-0.916,5.554,154.188,10.184,-95.411
9810,-0.1924,0.4580,-0.8687,1.465,-0.793,5.615,154.177,10.179,-95.466
9820,-0.1929,0.4551,-0.8647,3.052,-0.977,5.371,154.177,10.173,-95.521
9830,-0.1987,0.4551,-0.8594,3.296,-1.160,4.883,154.182,10.179,-95.570
9840,-0.1987,0.4541,-0.8569,2.808,-0.977,4.150,154.177,10.184,-95.609
9850,-0.1973,0.4565,-0.8574,1.587,-0.244,3.357,154.166,10.184,-95.641
9860,-0.1943,0.4629,-0.8613,-0.061,1.038,2.625,154.138,10.173,-95.663
9870,-0.1914,0.4687,-0.8745,-1.038,2.747,2.136,154.105,10.146,-95.669
9880,-0.1802,0.4687,-0.8862,-1.709,4.517,1.770,154.067,10.096,-95.663
9890,-0.1797,0.4648,-0.8911,-2.686,5.920,1.038,154.028,10.042,-95.647
9900,-0.1699,0.4687,-0.9014,-4.211,6.409,-0.122,153.979,9.981,-95.620
9912,-0.1587,0.4741,-0.9126,-5.981,6.470,-1.526,153.913,9.915,-95.576
9920,-0.1548,0.4761,-0.9209,-7.141,5.920,-2.869,153.836,9.860,-95.526
9930,-0.1479,0.4854,-0.9248,-7.202,5.066,-3.967,153.759,9.816,-95.466
9940,-0.1445,0.4912,-0.9238,-5.432,3.784,-4.272,153.699,9.783,-95.411
9950,-0.1436,0.4951,-0.9282,-1.770,1.770,-3.845,153.671,9.761,-95.367
9960,-0.1426,0.4824,-0.9355,3.296,-0.610,-3.235,153.699,9.761,-95.339
9970,-0.1421,0.4634,-0.9404,7.874,-2.808,-2.991,153.776,9.778,-95.323
9980,-0.1421,0.4487,-0.9443,10.010,-4.272,-3.052,153.885,9.811,-95.317
9990,-0.1484,0.4336,-0.9448,10.132,-4.517,-3.235,154.001,9.849,-95.306
10000,-0.1514,0.4292,-0.9375,8.850,-3.784,-3.601,154.105,9.882,-95.290
10010,-0.1597,0.4263,-0.9307,7.263,-3.052,-4.211,154.199,9.915,-95.268
10020,-0.1704,0.4229,-0.9170,6.104,-2.747,-4.700,154.270,9.959,-95.235
10030,-0.1729,0.4131,-0.9038,5.188,-3.113,-4.883,154.341,10.009,-95.202
10040,-0.1748,0.4053,-0.8950,3.906,-3.906,-4.578,154.396,10.063,-95.180
10050,-0.1807,0.3999,-0.8755,2.502,-4.456,-3.967,154.435,10.124,-95.164
10060,-0.1890,0.4048,-0.8677,1.831,-4.944,-2.747,154.457,10.190,-95.158
10070,-0.1934,0.4009,-0.8633,3.296,-4.639,-0.854,154.495,10.250,-95.169
10080,-0.1943,0.3960,-0.8584,6.165,-3.662,1.221,154.561,10.289,-95.197
10090,-0.1987,0.3809,-0.8623,9.155,-2.258,2.869,154.660,10.316,-95.235
10100,-0.1943,0.3789,-0.8779,10.986,-0.488,3.662,154.781,10.316,-95.268
10110,-0.1914,0.3760,-0.8940,11.108,1.709,3.906,154.913,10.294,-95.301
10120,-0.1841,0.3784,-0.9063,9.216,3.906,3.723,155.023,10.245,-95.317
10130,-0.1724,0.3921,-0.9141,6.348,5.188,3.357,155.105,10.179,-95.323
10140,-0.1650,0.4038,-0.9224,4.089,5.249,3.418,155.154,10.107,-95.334
10150,-0.1606,0.4146,-0.9302,2.869,4.272,3.784,155.187,10.042,-95.350
10160,-0.1602,0.4194,-0.9312,2.625,2.808,4.028,155.215,9.992,-95.378
10170,-0.1626,0.4243,-0.9390,3.052,1.038,4.211,155.242,9.954,-95.411
10180,-0.1665,0.4258,-0.9453,3.418,-0.549,4.333,155.275,9.932,-95.455
10190,-0.1646,0.4307,-0.9312,2.258,-2.563,3.662,155.292,9.932,-95.499
10200,-0.1704,0.4341,-0.9189,1.282,-3.174,3.174,155.286,9.943,-95.543
10210,-0.1772,0.4370,-0.9063,0.305,-3.723,2.563,155.275,9.965,-95.581
10221,-0.1821,0.4365,-0.8882,-0.244,-3.906,1.953,155.253,9.998,-95.614
10230,-0.1855,0.4419,-0.8745,-0.427,-3.784,1.465,155.220,10.036,-95.641
10240,-0.1870,0.4414,-0.8696,0.305,-2.930,1.465,155.198,10.063,-95.669
10250,-0.1870,0.4365,-0.8696,1.648,-1.343,1.709,155.193,10.074,-95.691
10260,-0.1821,0.4292,-0.8735,2.747,0.671,1.831,155.204,10.069,-95.707
10270,-0.1768,0.4243,-0.8896,3.113,2.563,1.587,155.226,10.036,-95.707
10280,-0.1709,0.4180,-0.9053,2.441,4.150,1.282,155.253,9.992,-95.702
10290,-0.1680,0.4175,-0.9194,1.221,5.188,0.977,155.270,9.937,-95.691
10300,-0.1631,0.4204,-0.9238,0.000,5.493,0.732,155.275,9.877,-95.674
10310,-0.1631,0.4272,-0.9346,-0.610,5.066,0.671,155.275,9.816,-95.658
10320,-0.1650,0.4258,-0.9385,-0.305,4.089,0.916,155.275,9.772,-95.647
10330,-0.1606,0.4263,-0.9390,0.488,2.869,0.916,155.286,9.734,-95.647
10340,-0.1538,0.4302,-0.9321,1.465,1.343,0.854,155.297,9.706,-95.647
10350,-0.1577,0.4287,-0.9277,2.625,-0.366,0.977,155.319,9.695,-95.658
10360,-0.1655,0.4263,-0.9292,3.540,-1.526,0.977,155.352,9.701,-95.674
10370,-0.1665,0.4233,-0.9248,3.784,-1.831,0.916,155.391,9.706,-95.691
10380,-0.1699,0.4224,-0.9189,3.357,-1.343,0.671,155.418,9.717,-95.702
10390,-0.1631,0.4233,-0.9126,2.380,-0.732,0.244,155.440,9.717,-95.707
10400,-0.1631,0.4253,-0.9082,1.343,-0.183,-0.183,155.446,9.712,-95.707
10410,-0.1636,0.4243,-0.9033,0.244,0.122,-0.793,155.446,9.712,-95.696
10420,-0.1602,0.4199,-0.8965,-0.793,0.305,-1.282,155.435,9.706,-95.685
10430,-0.1592,0.4204,-0.8901,-1.465,0.488,-1.465,155.413,9.706,-95.669
10440,-0.1660,0.4214,-0.8955,-1.465,0.916,-1.221,155.396,9.701,-95.652
10450,-0.1709,0.4165,-0.9038,-0.305,1.953,-0.671,155.396,9.684,-95.641
10460,-0.1689,0.4116,-0.9092,1.160,3.174,-0.305,155.413,9.657,-95.625
10470,-0.1675,0.4082,-0.9126,2.014,3.906,-0.183,155.440,9.624,-95.603
10480,-0.1636,0.4058,-0.9233,1.587,4.028,-0.244,155.468,9.580,-95.587
10490,-0.1562,0.4067,-0.9326,0.061,3.723,-0.488,155.479,9.542,-95.565
10500,-0.1562,0.4077,-0.9355,-1.709,3.052,-0.732,155.473,9.509,-95.548
10510,-0.1538,0.4136,-0.9360,-2.930,2.075,-0.977,155.457,9.487,-95.532
10520,-0.1528,0.4199,-0.9365,-3.296,1.099,-0.916,155.429,9.470,-95.515
10530,-0.1523,0.4194,-0.9355,-2.258,0.549,-0.549,155.413,9.454,-95.510
10540,-0.1519,0.4180,-0.9360,-0.610,0.366,-0.061,155.413,9.443,-95.504
10550,-0.1489,0.4126,-0.9390,0.793,0.122,0.305,155.429,9.426,-95.510
10560,-0.1494,0.4038,-0.9351,1.282,-0.244,0.549,155.451,9.415,-95.515
10570,-0.1548,0.3970,-0.9365,0.610,-0.854,0.732,155.473,9.415,-95.526
10580,-0.1582,0.3989,-0.9336,-0.732,-1.526,0.854,155.479,9.421,-95.537
10590,-0.1597,0.4004,-0.9316,-1.648,-2.380,1.099,155.468,9.432,-95.559
10600,-0.1636,0.4048,-0.9272,-2.014,-3.113,1.404,155.457,9.454,-95.587
10610,-0.1641,0.4067,-0.9229,-1.709,-3.662,1.770,155.440,9.476,-95.620
10620,-0.1650,0.4062,-0.9194,-1.465,-4.028,2.197,155.429,9.503,-95.652
10630,-0.1621,0.4082,-0.9150,-1.709,-4.333,2.441,155.407,9.525,-95.696
10640,-0.1680,0.4087,-0.9092,-2.502,-4.395,2.563,155.380,9.558,-95.735
10650,-0.1758,0.4146,-0.9072,-3.418,-4.517,2.625,155.341,9.591,-95.779
10660,-0.1753,0.4238,-0.8984,-4.211,-4.333,2.686,155.286,9.624,-95.823
10670,-0.1758,0.4365,-0.8887,-4.395,-4.028,2.930,155.220,9.651,-95.867
10680,-0.1768,0.4355,-0.8823,-3.601,-3.540,3.113,155.160,9.673,-95.911
10690,-0.1821,0.4395,-0.8760,-2.441,-2.991,2.930,155.116,9.695,-95.949
10700,-0.1812,0.4458,-0.8687,-1.465,-2.380,2.930,155.072,9.717,-95.988
10710,-0.1807,0.4497,-0.8652,-0.061,-1.709,2.991,155.039,9.728,-96.026
10721,-0.1802,0.4536,-0.8696,1.038,-0.671,2.686,155.017,9.728,-96.053
10730,-0.1655,0.4565,-0.8784,1.343,0.671,1.953,155.006,9.712,-96.064
10740,-0.1772,0.4565,-0.8853,1.038,2.319,1.038,154.990,9.690,-96.064
10750,-0.1733,0.4648,-0.8931,-0.061,3.845,0.061,154.968,9.657,-96.048
10760,-0.1470,0.4751,-0.9023,-1.038,4.822,-0.793,154.935,9.602,-96.021
10770,-0.1514,0.4751,-0.9155,-0.732,5.493,-1.953,154.913,9.547,-95.982
10780,-0.1592,0.4712,-0.9219,-0.427,5.615,-3.174,154.896,9.503,-95.927
10790,-0.1548,0.4531,-0.9224,-0.183,5.066,-4.150,154.896,9.465,-95.867
10800,-0.1504,0.4424,-0.9253,-0.916,3.479,-5.249,154.891,9.443,-95.806
10810,-0.1426,0.4360,-0.9375,-1.953,2.197,-5.981,154.885,9.432,-95.740
10820,-0.1406,0.4326,-0.9482,-2.563,2.014,-5.981,154.874,9.426,-95.674
10830,-0.1392,0.4224,-0.9502,-2.258,2.380,-5.920,154.874,9.410,-95.614
10840,-0.1445,0.4116,-0.9526,-1.648,2.319,-6.042,154.885,9.399,-95.548
10850,-0.1484,0.4067,-0.9507,-1.648,1.526,-5.859,154.896,9.399,-95.488
10860,-0.1489,0.3994,-0.9492,-2.014,0.305,-5.249,154.907,9.404,-95.438
10870,-0.1504,0.3970,-0.9453,-2.441,-1.221,-4.456,154.913,9.426,-95.400
10880,-0.1514,0.3931,-0.9385,-2.625,-2.808,-3.845,154.913,9.454,-95.378
10890,-0.1533,0.3916,-0.9321,-2.380,-4.028,-3.296,154.918,9.498,-95.367
10900,-0.1562,0.3862,-0.9229,-2.197,-4.700,-2.625,154.918,9.547,-95.361
10910,-0.1655,0.3838,-0.9136,-2.502,-4.883,-1.953,154.918,9.597,-95.361
10920,-0.1748,0.3833,-0.9106,-3.235,-4.761,-1.038,154.907,9.646,-95.372
10930,-0.1851,0.3892,-0.9048,-3.540,-4.150,-0.061,154.885,9.695,-95.394
10940,-0.1816,0.3989,-0.8955,-3.601,-3.540,0.916,154.858,9.728,-95.416
10950,-0.1772,0.4102,-0.8877,-3.296,-2.991,1.648,154.825,9.756,-95.444
10960,-0.1709,0.4199,-0.8896,-3.052,-2.563,2.197,154.786,9.772,-95.477
10970,-0.1689,0.4282,-0.8921,-2.930,-2.075,2.686,154.748,9.778,-95.510
10980,-0.1724,0.4326,-0.8989,-3.174,-1.343,2.747,154.709,9.778,-95.537
10990,-0.1699,0.4375,-0.9087,-3.784,-0.427,2.319,154.660,9.772,-95.565
11000,-0.1626,0.4419,-0.9146,-4.517,0.305,1.709,154.611,9.756,-95.576
11010,-0.1616,0.4487,-0.9199,-5.005,0.549,1.282,154.550,9.734,-95.587
11020,-0.1655,0.4507,-0.9229,-4.944,-0.122,0.916,154.495,9.728,-95.598
11030,-0.1694,0.4507,-0.9238,-4.272,-1.282,0.671,154.446,9.734,-95.609
11040,-0.1787,0.4434,-0.9204,-3.418,-2.502,0.244,154.407,9.756,-95.620
11050,-0.1914,0.4346,-0.9160,-3.235,-3.418,-0.183,154.374,9.794,-95.630
11060,-0.1880,0.4312,-0.9116,-3.662,-4.028,-0.488,154.341,9.838,-95.647
11070,-0.1885,0.4272,-0.9033,-4.150,-4.272,-0.366,154.303,9.888,-95.663
11080,-0.1895,0.4297,-0.8960,-4.272,-4.272,0.000,154.259,9.937,-95.680
11090,-0.1841,0.4268,-0.8848,-3.784,-4.028,0.488,154.215,9.976,-95.702
11100,-0.1655,0.4263,-0.8696,-3.113,-3.662,0.977,154.177,10.003,-95.729
11110,-0.1860,0.4326,-0.8682,-2.441,-3.418,1.526,154.138,10.036,-95.757
11120,-0.1958,0.4399,-0.8638,-1.709,-2.625,2.197,154.105,10.063,-95.790
11130,-0.1782,0.4473,-0.8545,-0.671,-1.343,2.930,154.078,10.063,-95.823
11140,-0.1880,0.4502,-0.8579,0.854,0.061,3.052,154.061,10.063,-95.850
11150,-0.1948,0.4570,-0.8628,1.770,1.587,2.747,154.056,10.047,-95.867
11160,-0.1870,0.4604,-0.8638,1.648,2.869,2.625,154.050,10.020,-95.878
11170,-0.1821,0.4609,-0.8564,0.854,3.723,2.441,154.034,9.981,-95.883
11180,-0.1733,0.4722,-0.8589,-0.610,3.967,1.770,154.001,9.937,-95.883
11191,-0.1616,0.4810,-0.8716,-1.831,4.333,1.221,153.957,9.888,-95.872
11201,-0.1523,0.4902,-0.8887,-1.892,5.493,0.610,153.913,9.822,-95.856
11211,-0.1509,0.4951,-0.9058,-1.038,7.324,-0.366,153.880,9.745,-95.817
11221,-0.1484,0.4888,-0.9180,-0.061,8.972,-1.648,153.869,9.657,-95.762
11230,-0.1445,0.4790,-0.9424,0.732,9.521,-3.113,153.880,9.564,-95.691
11240,-0.1445,0.4614,-0.9658,0.732,8.911,-4.578,153.907,9.487,-95.614
11250,-0.1372,0.4507,-0.9780,-0.244,7.629,-5.798,153.935,9.421,-95.526
11260,-0.1343,0.4395,-0.9829,-1.526,5.737,-6.409,153.951,9.377,-95.444
11270,-0.1362,0.4458,-0.9780,-2.441,3.174,-6.348,153.957,9.355,-95.367
11280,-0.1406,0.4321,-0.9712,-1.709,0.305,-5.859,153.968,9.360,-95.317
11290,-0.1499,0.4204,-0.9614,-0.549,-2.625,-5.554,153.990,9.393,-95.273
11300,-0.1504,0.4067,-0.9478,0.061,-5.310,-5.188,154.023,9.454,-95.251
11311,-0.1606,0.3960,-0.9297,-0.183,-7.141,-4.456,154.050,9.531,-95.246
11320,-0.1694,0.3862,-0.9126,-1.099,-7.935,-3.540,154.072,9.619,-95.246
11330,-0.1758,0.3848,-0.8950,-2.319,-7.812,-2.563,154.072,9.706,-95.257
11340,-0.1826,0.3872,-0.8774,-3.174,-7.263,-1.587,154.061,9.789,-95.273
11350,-0.1807,0.3999,-0.8682,-3.845,-6.165,-0.183,154.028,9.855,-95.301
11360,-0.1831,0.4136,-0.8608,-3.357,-4.517,1.465,153.995,9.899,-95.334
11370,-0.1885,0.4243,-0.8555,-1.953,-2.747,2.808,153.962,9.921,-95.372
11380,-0.1899,0.4331,-0.8555,-0.427,-1.160,3.540,153.946,9.926,-95.411
11390,-0.1880,0.4375,-0.8579,0.366,0.183,3.784,153.935,9.921,-95.444
11400,-0.1851,0.4434,-0.8613,-0.183,1.343,3.601,153.913,9.904,-95.471
11410,-0.1821,0.4565,-0.8667,-1.526,2.563,3.235,153.880,9.871,-95.488
11421,-0.1787,0.4722,-0.8716,-2.441,3.784,2.930,153.831,9.827,-95.499
11431,-0.1733,0.4849,-0.8760,-2.075,4.761,2.563,153.781,9.778,-95.499
11441,-0.1719,0.4907,-0.8843,-0.916,5.249,2.075,153.748,9.717,-95.493
11451,-0.1709,0.4941,-0.8926,0.427,5.249,1.343,153.726,9.662,-95.482
11461,-0.1714,0.4937,-0.8975,0.916,4.700,0.488,153.710,9.619,-95.466
11471,-0.1694,0.4941,-0.9019,0.366,3.967,-0.671,153.693,9.586,-95.444
11481,-0.1724,0.4922,-0.9048,-0.610,3.479,-1.953,153.671,9.564,-95.411
11491,-0.1641,0.4927,-0.9058,-1.526,3.418,-3.296,153.644,9.542,-95.367
11501,-0.1533,0.4883,-0.9087,-2.014,3.662,-4.395,153.611,9.514,-95.306
11511,-0.1465,0.4849,-0.9131,-2.014,3.784,-5.432,153.589,9.492,-95.240
11521,-0.1431,0.4771,-0.9194,-1.465,3.540,-6.104,153.572,9.470,-95.169
11531,-0.1426,0.4653,-0.9287,-0.610,3.113,-6.531,153.578,9.454,-95.098
11541,-0.1436,0.4526,-0.9297,0.000,2.563,-6.836,153.594,9.448,-95.026
11551,-0.1445,0.4395,-0.9302,0.122,2.014,-7.019,153.622,9.448,-94.949
11561,-0.1450,0.4272,-0.9341,-0.305,1.404,-7.019,153.644,9.448,-94.878
11571,-0.1431,0.4199,-0.9395,-0.732,0.854,-6.592,153.671,9.454,-94.818
11581,-0.1479,0.4092,-0.9399,-0.488,0.244,-5.798,153.704,9.465,-94.763
11591,-0.1528,0.3999,-0.9424,0.000,-0.732,-4.883,153.743,9.487,-94.724
11601,-0.1553,0.3911,-0.9429,0.305,-2.014,-3.967,153.787,9.514,-94.697
11611,-0.1611,0.3853,-0.9424,-0.061,-3.296,-2.991,153.831,9.547,-94.680
11621,-0.1655,0.3809,-0.9370,-1.038,-4.395,-1.953,153.858,9.597,-94.686
11631,-0.1685,0.3809,-0.9292,-2.197,-5.249,-0.916,153.875,9.646,-94.702
11641,-0.1724,0.3872,-0.9180,-3.357,-6.104,0.244,153.869,9.701,-94.730
11651,-0.1709,0.3970,-0.9043,-3.967,-6.836,1.465,153.847,9.756,-94.774
11661,-0.1768,0.4023,-0.8921,-3.723,-7.202,2.563,153.820,9.811,-94.828
11671,-0.1782,0.4111,-0.8853,-3.357,-7.141,3.479,153.787,9.866,-94.894
11681,-0.1685,0.4194,-0.8813,-2.563,-6.470,4.456,153.759,9.904,-94.960
11691,-0.1714,0.4277,-0.8774,-1.709,-5.127,5.432,153.732,9.926,-95.032
11701,-0.1748,0.4346,-0.8828,-1.038,-3.540,6.226,153.710,9.932,-95.109
11711,-0.1768,0.4487,-0.8896,-0.610,-1.953,6.653,153.688,9.921,-95.175
11721,-0.1816,0.4653,-0.8965,-0.061,-0.671,6.836,153.660,9.899,-95.240
11731,-0.1846,0.4717,-0.9023,0.916,-0.244,6.531,153.649,9.877,-95.301
11741,-0.1807,0.4771,-0.9028,1.648,-0.793,5.737,153.638,9.860,-95.356
11751,-0.1812,0.4751,-0.9028,1.526,-2.075,4.578,153.633,9.860,-95.411
11761,-0.1841,0.4766,-0.8989,0.488,-3.418,3.540,153.616,9.877,-95.455
11771,-0.1909,0.4780,-0.8916,-0.977,-4.333,2.747,153.578,9.915,-95.499
11781,-0.1899,0.4839,-0.8799,-1.709,-4.639,2.136,153.528,9.954,-95.543
11791,-0.1870,0.4868,-0.8682,-1.038,-4.639,1.831,153.484,9.992,-95.581
11801,-0.1851,0.4790,-0.8584,0.732,-4.272,1.648,153.463,10.031,-95.614
11811,-0.1860,0.4731,-0.8496,2.380,-3.784,1.465,153.452,10.063,-95.641
11821,-0.1851,0.4658,-0.8472,3.296,-2.930,1.282,153.457,10.091,-95.669
11831,-0.1855,0.4604,-0.8438,3.235,-1.526,1.038,153.468,10.113,-95.685
11841,-0.1885,0.4644,-0.8477,2.563,0.366,0.732,153.468,10.113,-95.691
11851,-0.1802,0.4673,-0.8486,2.014,2.686,0.305,153.468,10.091,-95.680
11861,-0.1768,0.4683,-0.8599,1.831,4.761,-0.061,153.468,10.052,-95.658
11871,-0.1670,0.4834,-0.8716,2.014,6.470,-0.488,153.474,9.992,-95.625
11881,-0.1597,0.4819,-0.8848,2.686,7.507,-0.916,153.484,9.921,-95.581
11891,-0.1577,0.4844,-0.9004,3.296,7.874,-1.587,153.506,9.844,-95.532
11901,-0.1572,0.4810,-0.9180,4.089,7.874,-2.380,153.545,9.772,-95.477
11913,-0.1606,0.4761,-0.9321,4.089,7.446,-3.235,153.589,9.712,-95.411
11921,-0.1553,0.4697,-0.9458,3.662,6.958,-4.028,153.638,9.651,-95.345
11931,-0.1499,0.4629,-0.9512,2.808,5.981,-4.700,153.682,9.608,-95.273
11941,-0.1509,0.4570,-0.9487,1.953,4.395,-5.310,153.721,9.575,-95.208
11951,-0.1484,0.4482,-0.9424,1.404,2.319,-5.859,153.754,9.564,-95.142
11961,-0.1577,0.4370,-0.9331,1.160,0.183,-6.165,153.787,9.580,-95.087
11971,-0.1641,0.4287,-0.9282,1.099,-1.526,-5.981,153.820,9.619,-95.037
11981,-0.1660,0.4194,-0.9160,1.526,-2.563,-5.432,153.853,9.662,-94.999
11991,-0.1685,0.4102,-0.9067,2.136,-2.869,-4.700,153.896,9.706,-94.971
12001,-0.1738,0.3975,-0.9023,2.625,-2.747,-4.028,153.951,9.750,-94.944
12011,-0.1738,0.3887,-0.9023,2.502,-2.014,-3.418,154.006,9.789,-94.922
12021,-0.1729,0.3843,-0.8999,1.465,-0.977,-2.747,154.056,9.811,-94.900
12031,-0.1719,0.3838,-0.9004,0.061,-0.061,-1.953,154.089,9.822,-94.883
12041,-0.1738,0.3838,-0.9019,-1.343,0.427,-0.916,154.105,9.822,-94.872
12051,-0.1655,0.3833,-0.9063,-2.502,0.610,0.183,154.111,9.816,-94.872
12061,-0.1611,0.3926,-0.9136,-2.991,0.854,1.282,154.105,9.794,-94.883
12071,-0.1587,0.3975,-0.9238,-2.869,1.221,2.319,154.100,9.767,-94.900
12081,-0.1562,0.4009,-0.9263,-2.380,1.343,3.296,154.094,9.728,-94.922
12091,-0.1553,0.4067,-0.9282,-2.197,0.732,4.211,154.089,9.695,-94.955
12101,-0.1558,0.4111,-0.9292,-2.380,-0.671,4.944,154.078,9.668,-95.004
12111,-0.1631,0.4189,-0.9316,-3.235,-2.258,5.371,154.056,9.662,-95.065
12121,-0.1680,0.4360,-0.9302,-4.089,-3.540,5.676,154.012,9.662,-95.131
12131,-0.1650,0.4521,-0.9263,-4.578,-4.150,5.798,153.957,9.668,-95.202
12141,-0.1660,0.4639,-0.9180,-4.456,-4.333,5.676,153.891,9.679,-95.273
12151,-0.1714,0.4780,-0.9106,-4.089,-4.517,5.188,153.825,9.695,-95.339
12161,-0.1704,0.4868,-0.8979,-3.479,-5.188,4.395,153.754,9.717,-95.405
12171,-0.1748,0.4946,-0.8896,-3.235,-6.104,3.479,153.682,9.756,-95.466
12181,-0.1709,0.4971,-0.8779,-2.991,-6.470,2.441,153.616,9.805,-95.515
12191,-0.1753,0.4976,-0.8721,-2.869,-6.226,1.282,153.545,9.855,-95.554
12201,-0.1792,0.4980,-0.8696,-2.808,-5.127,0.122,153.479,9.904,-95.581
12211,-0.1777,0.4961,-0.8652,-2.869,-3.479,-0.854,153.419,9.937,-95.587
12221,-0.1772,0.4971,-0.8604,-2.930,-1.709,-1.709,153.358,9.965,-95.581
12231,-0.1729,0.4956,-0.8638,-2.441,-0.305,-2.380,153.303,9.976,-95.559
12241,-0.1694,0.4893,-0.8677,-1.526,0.549,-3.052,153.265,9.981,-95.526
12251,-0.1680,0.4790,-0.8730,-0.610,0.977,-3.601,153.248,9.981,-95.493
12261,-0.1665,0.4687,-0.8765,-0.488,1.160,-4.028,153.237,9.987,-95.449
12271,-0.1719,0.4595,-0.8799,-1.099,1.221,-4.089,153.221,9.992,-95.405
12281,-0.1772,0.4526,-0.8867,-1.953,1.404,-3.967,153.210,9.998,-95.367
12291,-0.1758,0.4517,-0.8936,-2.380,1.831,-3.784,153.193,9.998,-95.323
12301,-0.1768,0.4492,-0.8950,-2.075,2.319,-3.723,153.182,9.998,-95.279
12311,-0.1733,0.4448,-0.8999,-1.587,2.686,-3.662,153.177,9.987,-95.229
12321,-0.1724,0.4414,-0.9043,-1.282,2.808,-3.723,153.182,9.976,-95.186
12331,-0.1763,0.4370,-0.9048,-1.099,2.747,-3.662,153.188,9.965,-95.142
12341,-0.1841,0.4331,-0.9063,-1.221,2.441,-3.601,153.199,9.965,-95.098
12351,-0.1812,0.4360,-0.9038,-1.587,1.892,-3.418,153.199,9.965,-95.054
12361,-0.1841,0.4434,-0.8989,-1.831,1.404,-2.991,153.193,9.970,-95.021
12371,-0.1860,0.4521,-0.8936,-1.526,0.854,-2.380,153.182,9.981,-94.999
12381,-0.1855,0.4590,-0.8857,-0.610,0.427,-1.770,153.171,9.992,-94.977
12391,-0.1831,0.4648,-0.8809,0.671,0.366,-1.404,153.171,9.998,-94.966
12401,-0.1782,0.4697,-0.8779,1.953,0.488,-1.282,153.177,10.003,-94.949
12411,-0.1777,0.4683,-0.8770,3.113,1.038,-1.343,153.199,9.998,-94.933
12421,-0.1738,0.4683,-0.8750,3.662,1.648,-1.709,153.226,9.992,-94.911
12431,-0.1665,0.4692,-0.8760,3.723,2.319,-2.136,153.254,9.976,-94.883
12441,-0.1641,0.4707,-0.8809,3.784,3.174,-2.441,153.287,9.954,-94.845
12451,-0.1694,0.4692,-0.8862,3.662,4.089,-2.869,153.314,9.926,-94.801
12461,-0.1670,0.4687,-0.8979,3.479,5.127,-3.235,153.353,9.888,-94.746
12471,-0.1606,0.4673,-0.9009,3.662,5.737,-3.601,153.391,9.844,-94.686
12481,-0.1592,0.4644,-0.9097,3.723,5.798,-3.906,153.435,9.800,-94.625
12491,-0.1577,0.4575,-0.9194,3.662,5.188,-4.089,153.479,9.761,-94.565
12501,-0.1572,0.4526,-0.9287,3.418,4.333,-4.272,153.528,9.734,-94.510
12511,-0.1543,0.4468,-0.9341,3.113,3.479,-4.456,153.578,9.706,-94.449
12521,-0.1533,0.4424,-0.9390,2.686,2.808,-4.639,153.627,9.690,-94.395
12531,-0.1494,0.4355,-0.9365,2.136,2.014,-4.761,153.671,9.679,-94.345
12541,-0.1504,0.4312,-0.9346,1.587,0.854,-4.822,153.710,9.679,-94.296
12551,-0.1528,0.4238,-0.9307,1.099,-0.427,-4.761,153.743,9.690,-94.257
12561,-0.1572,0.4170,-0.9263,0.305,-1.526,-4.578,153.776,9.717,-94.219
12571,-0.1631,0.4126,-0.9199,-0.610,-2.197,-4.272,153.792,9.750,-94.191
12581,-0.1670,0.4136,-0.9116,-1.343,-2.625,-3.723,153.803,9.783,-94.169
12591,-0.1733,0.4160,-0.9072,-1.465,-2.991,-3.052,153.803,9.827,-94.153
12601,-0.1758,0.4146,-0.9004,-0.916,-3.174,-2.136,153.814,9.866,-94.147
12611,-0.1753,0.4175,-0.8984,-0.183,-2.991,-1.160,153.825,9.899,-94.153
12621,-0.1714,0.4229,-0.8989,0.610,-2.441,-0.122,153.836,9.921,-94.164
12631,-0.1694,0.4258,-0.8970,1.709,-1.892,0.854,153.858,9.932,-94.180
12641,-0.1724,0.4238,-0.8970,2.563,-1.404,1.526,153.891,9.937,-94.197
12651,-0.1772,0.4233,-0.8945,2.930,-1.160,1.831,153.924,9.943,-94.219
12661,-0.1787,0.4253,-0.8950,2.563,-0.977,1.892,153.951,9.943,-94.241
12671,-0.1807,0.4302,-0.8916,1.709,-0.671,1.770,153.968,9.948,-94.263
12681,-0.1846,0.4370,-0.8911,0.732,-0.488,1.648,153.968,9.948,-94.279
12691,-0.1890,0.4424,-0.8862,0.122,-0.122,1.587,153.962,9.954,-94.296
12701,-0.1885,0.4487,-0.8818,-0.122,0.183,1.709,153.951,9.954,-94.307
12711,-0.1816,0.4541,-0.8794,0.305,0.488,1.770,153.940,9.943,-94.323
12721,-0.1758,0.4595,-0.8843,1.038,0.732,1.709,153.935,9.932,-94.334
12731,-0.1689,0.4648,-0.8916,1.648,1.099,1.587,153.935,9.910,-94.345
12741,-0.1665,0.4673,-0.8975,2.197,1.648,1.404,153.940,9.882,-94.351
12751,-0.1631,0.4639,-0.9087,2.441,2.197,0.977,153.951,9.849,-94.351
12761,-0.1602,0.4609,-0.9165,2.441,2.686,0.183,153.973,9.816,-94.340
12771,-0.1558,0.4619,-0.9282,1.953,2.747,-0.671,153.990,9.783,-94.318
12781,-0.1499,0.4570,-0.9297,1.221,2.319,-1.282,154.006,9.750,-94.296
12791,-0.1455,0.4526,-0.9341,0.427,1.221,-1.709,154.012,9.734,-94.279
12801,-0.1455,0.4507,-0.9331,-0.305,-0.305,-2.197,154.017,9.728,-94.257
12811,-0.1475,0.4468,-0.9316,-0.793,-1.709,-2.686,154.017,9.739,-94.241
12821,-0.1548,0.4395,-0.9268,-1.160,-2.686,-2.869,154.012,9.761,-94.224
12831,-0.1587,0.4336,-0.9214,-1.282,-3.296,-2.747,154.012,9.794,-94.219
12841,-0.1655,0.4233,-0.9141,-1.038,-3.723,-2.380,154.012,9.833,-94.213
12851,-0.1704,0.4150,-0.9038,-0.916,-3.906,-2.014,154.017,9.877,-94.208
12861,-0.1685,0.4058,-0.8862,-1.038,-4.089,-1.465,154.017,9.915,-94.213
12871,-0.1875,0.4038,-0.9019,-1.343,-4.333,-0.916,154.023,9.970,-94.224
12881,-0.2227,0.3872,-0.8789,-1.343,-2.686,-0.305,154.028,10.025,-94.235
12891,-0.1802,0.4019,-0.8784,-2.625,-1.587,0.916,154.012,10.042,-94.252
12901,-0.1763,0.4019,-0.8916,-1.465,-0.977,1.770,154.012,10.042,-94.274
12911,-0.2134,0.4009,-0.8828,-1.038,-0.122,2.014,154.017,10.058,-94.290
12921,-0.1855,0.4189,-0.8906,-1.709,-0.305,3.235,154.001,10.052,-94.323
12931,-0.1660,0.4194,-0.8960,-0.793,-0.549,4.578,153.995,10.031,-94.367
12941,-0.1924,0.4238,-0.8955,-0.366,-0.549,5.005,153.990,10.025,-94.411
12951,-0.1797,0.4380,-0.9028,-1.282,-0.610,5.249,153.968,10.009,-94.466
12961,-0.1797,0.4507,-0.9092,-1.709,-0.366,5.493,153.940,9.992,-94.515
12971,-0.1826,0.4604,-0.9160,-1.648,-0.244,5.371,153.907,9.970,-94.565
12981,-0.1724,0.4673,-0.9170,-1.404,-0.488,5.005,153.880,9.948,-94.614
12991,-0.1670,0.4707,-0.9180,-0.977,-1.038,4.333,153.853,9.932,-94.658
13001,-0.1680,0.4722,-0.9165,-1.038,-1.587,3.418,153.820,9.921,-94.697
13011,-0.1724,0.4731,-0.9106,-1.587,-2.136,2.563,153.787,9.926,-94.730
13021,-0.1670,0.4756,-0.9028,-2.380,-2.808,1.892,153.743,9.937,-94.757
13031,-0.1689,0.4800,-0.8936,-2.930,-3.418,1.343,153.688,9.954,-94.785
13041,-0.1733,0.4854,-0.8848,-2.930,-3.784,1.038,153.633,9.981,-94.812
13051,-0.1777,0.4878,-0.8799,-2.197,-3.662,0.732,153.578,10.014,-94.834
13061,-0.1777,0.4878,-0.8799,-0.977,-2.808,0.244,153.539,10.036,-94.850
13071,-0.1777,0.4854,-0.8848,-0.183,-1.526,-0.549,153.517,10.052,-94.850
13081,-0.1821,0.4800,-0.8887,-0.183,-0.244,-1.587,153.501,10.063,-94.839
13091,-0.1831,0.4751,-0.8926,-0.916,0.793,-2.625,153.479,10.069,-94.812
13101,-0.1792,0.4756,-0.9009,-1.953,1.526,-3.601,153.452,10.069,-94.774
13111,-0.1694,0.4741,-0.9072,-2.808,1.953,-4.395,153.424,10.069,-94.724
13121,-0.1636,0.4712,-0.9082,-3.296,1.648,-5.066,153.391,10.063,-94.669
13131,-0.1499,0.4785,-0.9048,-3.662,0.610,-5.554,153.353,10.069,-94.614
13141,-0.1416,0.4790,-0.9106,-2.991,-0.549,-5.798,153.320,10.074,-94.565
13151,-0.1445,0.4761,-0.9131,-1.831,-1.343,-6.165,153.303,10.091,-94.515
13161,-0.1514,0.4707,-0.9106,-0.732,-1.587,-6.653,153.298,10.118,-94.466
13171,-0.1611,0.4668,-0.9097,-0.061,-1.282,-7.080,153.303,10.151,-94.406
13181,-0.1733,0.4609,-0.9087,0.244,-1.038,-7.324,153.314,10.190,-94.345
13191,-0.1792,0.4570,-0.9063,0.427,-1.221,-7.385,153.325,10.228,-94.285
13201,-0.1807,0.4556,-0.9048,0.916,-1.831,-7.446,153.347,10.278,-94.224
13211,-0.1812,0.4497,-0.8975,1.526,-2.625,-7.324,153.369,10.333,-94.169
13221,-0.1846,0.4424,-0.8867,2.014,-3.235,-7.202,153.402,10.393,-94.120
13231,-0.1816,0.4302,-0.8755,2.014,-3.479,-7.019,153.435,10.459,-94.070
13241,-0.1855,0.4180,-0.8716,1.831,-3.174,-6.653,153.468,10.519,-94.021
13251,-0.1929,0.4067,-0.8682,1.526,-2.075,-5.981,153.506,10.574,-93.977
13261,-0.1987,0.3945,-0.8638,1.160,-0.854,-4.700,153.545,10.613,-93.939
13271,-0.2080,0.3940,-0.8594,1.160,0.488,-3.052,153.583,10.640,-93.911
13281,-0.2129,0.3887,-0.8589,1.526,1.587,-1.343,153.622,10.657,-93.889
13291,-0.2129,0.3857,-0.8623,2.441,2.747,0.366,153.671,10.651,-93.884
13301,-0.2090,0.3882,-0.8721,3.418,4.028,1.770,153.726,10.624,-93.878
13311,-0.1997,0.3926,-0.8804,4.272,5.371,3.174,153.792,10.574,-93.884
13321,-0.1919,0.3970,-0.8857,5.005,6.592,4.822,153.858,10.497,-93.900
13331,-0.1836,0.4087,-0.8989,5.920,7.507,6.348,153.929,10.404,-93.922
13341,-0.1699,0.4224,-0.9155,6.836,8.118,7.690,154.006,10.289,-93.955
13351,-0.1562,0.4360,-0.9399,7.568,8.240,8.606,154.083,10.162,-93.999
13361,-0.1426,0.4487,-0.9619,7.690,7.935,8.850,154.160,10.031,-94.043
13371,-0.1333,0.4663,-0.9868,6.958,6.775,8.118,154.226,9.904,-94.087
13381,-0.1353,0.4824,-0.9990,5.554,4.639,6.897,154.276,9.800,-94.131
13391,-0.1416,0.4917,-0.9951,3.967,1.343,5.066,154.303,9.745,-94.169
13401,-0.1567,0.4912,-0.9785,2.563,-2.991,2.869,154.308,9.739,-94.213
13411,-0.1855,0.4717,-0.9419,1.221,-7.812,0.610,154.308,9.811,-94.252
13421,-0.2056,0.4521,-0.9014,-0.549,-12.268,-1.465,154.286,9.943,-94.290
13431,-0.2134,0.4307,-0.8604,-2.441,-15.076,-2.930,154.243,10.118,-94.329
13441,-0.2168,0.4180,-0.8228,-3.784,-15.991,-3.601,154.188,10.305,-94.367
13451,-0.2144,0.4087,-0.7993,-3.723,-14.587,-3.296,154.133,10.481,-94.406
13461,-0.2056,0.4102,-0.7930,-2.197,-11.108,-1.709,154.089,10.613,-94.438
13471,-0.1992,0.4136,-0.7998,1.038,-5.676,0.977,154.078,10.679,-94.471
13481,-0.1875,0.4189,-0.8223,5.005,1.160,3.784,154.111,10.657,-94.499
13491,-0.1826,0.4146,-0.8364,8.484,7.812,5.554,154.188,10.569,-94.515
13501,-0.1841,0.3999,-0.8516,9.521,11.841,5.676,154.292,10.443,-94.515
13511,-0.1777,0.4033,-0.8794,7.446,13.184,4.517,154.380,10.305,-94.499
13521,-0.1641,0.4170,-0.9170,3.479,13.367,3.601,154.429,10.162,-94.471
13531,-0.1475,0.4385,-0.9619,-0.549,14.099,3.113,154.440,9.998,-94.438
13541,-0.1431,0.4634,-0.9941,-3.296,15.503,2.563,154.418,9.827,-94.395
13551,-0.1362,0.4927,-0.9941,-4.578,15.686,2.075,154.374,9.646,-94.345
13561,-0.1489,0.4985,-0.9551,-3.662,12.512,1.892,154.325,9.509,-94.307
13571,-0.1729,0.4868,-0.9229,-1.099,5.554,1.465,154.297,9.454,-94.296
13581,-0.1831,0.4771,-0.9048,1.221,-2.441,0.977,154.281,9.476,-94.318
13591,-0.1797,0.4678,-0.8896,3.235,-7.751,0.671,154.286,9.553,-94.356
13601,-0.1938,0.4443,-0.8706,5.005,-9.521,0.244,154.319,9.651,-94.400
13611,-0.1924,0.4346,-0.8687,5.493,-8.423,-0.610,154.358,9.745,-94.433
13621,-0.1694,0.4360,-0.8779,5.066,-5.066,-1.404,154.396,9.794,-94.444
13631,-0.1548,0.4268,-0.8940,4.028,-0.244,-1.404,154.440,9.794,-94.433
13641,-0.1499,0.4268,-0.9150,1.587,4.517,-1.648,154.468,9.750,-94.395
13651,-0.1445,0.4541,-0.9253,-1.892,8.179,-1.953,154.451,9.668,-94.340
13661,-0.1616,0.4644,-0.9165,-3.662,9.399,-1.892,154.413,9.580,-94.285
13671,-0.1685,0.4692,-0.9170,-3.235,8.362,-2.380,154.374,9.514,-94.224
13681,-0.1504,0.4697,-0.9243,-1.404,6.348,-3.357,154.358,9.459,-94.164
13691,-0.1377,0.4624,-0.9180,0.854,4.211,-3.662,154.363,9.421,-94.114
13701,-0.1328,0.4424,-0.9229,3.174,2.197,-3.296,154.402,9.393,-94.076
13711,-0.1411,0.4160,-0.9302,4.395,0.549,-2.869,154.468,9.388,-94.048
13721,-0.1460,0.4092,-0.9297,4.089,-0.122,-2.563,154.528,9.388,-94.021
13731,-0.1475,0.3916,-0.9214,3.662,0.000,-2.136,154.589,9.388,-94.005
13741,-0.1436,0.3848,-0.9390,2.686,0.183,-1.953,154.649,9.377,-93.983
13751,-0.1421,0.4009,-0.9580,0.610,1.465,-1.709,154.687,9.355,-93.961
13761,-0.1455,0.4199,-0.9521,-1.404,3.113,-0.732,154.693,9.316,-93.944
13771,-0.1494,0.4326,-0.9541,-1.465,3.418,0.427,154.687,9.272,-93.933
13781,-0.1528,0.4268,-0.9526,0.427,1.648,0.916,154.704,9.245,-93.933
13791,-0.1499,0.4165,-0.9512,2.136,-1.831,0.916,154.737,9.250,-93.950
13801,-0.1426,0.4038,-0.9531,2.686,-4.883,0.916,154.786,9.272,-93.977
13811,-0.1504,0.3950,-0.9409,0.916,-7.324,1.343,154.808,9.327,-94.021
13821,-0.1538,0.4033,-0.9302,-1.831,-8.606,1.709,154.803,9.388,-94.076
13831,-0.1509,0.4277,-0.9180,-3.479,-9.155,2.258,154.759,9.454,-94.136
13841,-0.1523,0.4463,-0.9175,-2.441,-8.667,2.991,154.720,9.509,-94.202
13851,-0.1631,0.4448,-0.9067,0.366,-7.751,3.479,154.704,9.558,-94.268
13861,-0.1802,0.4307,-0.8838,2.563,-7.568,3.235,154.709,9.619,-94.329
13871,-0.1973,0.4136,-0.8550,2.502,-8.545,2.747,154.720,9.706,-94.389
13881,-0.2056,0.4062,-0.8291,0.183,-10.437,2.686,154.704,9.816,-94.460
13891,-0.2012,0.4165,-0.8301,-2.197,-11.292,3.296,154.655,9.926,-94.537
13901,-0.1865,0.4409,-0.8560,-2.747,-9.155,4.211,154.594,10.003,-94.620
13914,-0.1577,0.4844,-0.9150,-0.977,-3.113,5.005,154.550,9.998,-94.680
13921,-0.1421,0.5063,-0.9629,2.930,5.432,5.066,154.550,9.899,-94.702
13931,-0.1499,0.5029,-0.9727,5.676,11.719,3.540,154.589,9.761,-94.680
13941,-0.1465,0.5088,-0.9609,5.371,11.719,0.977,154.627,9.630,-94.642
13951,-0.1660,0.4888,-0.9170,3.723,5.249,-1.221,154.644,9.580,-94.603
13961,-0.1904,0.4687,-0.8730,1.343,-5.432,-2.991,154.627,9.657,-94.603
13971,-0.2217,0.4194,-0.7988,0.000,-15.991,-4.333,154.600,9.860,-94.631
13981,-0.2241,0.4004,-0.7964,-0.183,-22.888,-5.005,154.578,10.129,-94.686
13991,-0.2012,0.4053,-0.8521,1.343,-20.447,-4.333,154.578,10.349,-94.735
14001,-0.1831,0.4263,-0.8936,2.747,-8.850,-1.953,154.600,10.437,-94.757
14011,-0.1465,0.4629,-0.9507,5.310,7.385,0.427,154.655,10.344,-94.730
14021,-0.1338,0.4761,-0.9839,8.240,21.484,1.221,154.748,10.113,-94.647
14031,-0.1396,0.4736,-0.9658,8.606,27.100,0.000,154.841,9.844,-94.526
14041,-0.1699,0.4375,-0.9126,7.202,22.339,-3.235,154.929,9.651,-94.400
14051,-0.2183,0.3760,-0.8384,2.625,8.362,-6.714,154.984,9.641,-94.307
14061,-0.2329,0.3413,-0.8013,-3.967,-9.216,-8.606,154.968,9.816,-94.263
14071,-0.2187,0.3408,-0.8276,-8.606,-20.996,-7.935,154.907,10.074,-94.279
14081,-0.1841,0.3784,-0.8877,-9.094,-21.057,-4.639,154.830,10.289,-94.329
14091,-0.1445,0.4238,-0.9692,-4.456,-8.667,-0.061,154.792,10.344,-94.367
14101,-0.1323,0.4277,-0.9976,2.808,9.705,3.174,154.841,10.212,-94.356
14111,-0.1299,0.4297,-0.9849,7.141,23.743,3.418,154.940,9.948,-94.285
14121,-0.1567,0.3877,-0.9360,6.348,26.001,1.038,155.050,9.701,-94.180
14131,-0.1870,0.3647,-0.9019,-1.282,16.602,-2.747,155.083,9.575,-94.081
14141,-0.1958,0.3687,-0.8955,-11.841,3.296,-5.493,155.001,9.586,-94.021
14151,-0.2246,0.3418,-0.8315,-21.729,-8.423,-5.798,154.814,9.728,-94.005
14161,-0.2466,0.3203,-0.7603,-28.076,-17.029,-5.371,154.556,9.976,-94.026
14171,-0.2354,0.3437,-0.7798,-28.992,-19.653,-4.700,154.276,10.223,-94.070
14181,-0.1865,0.4004,-0.8647,-27.100,-12.878,-1.831,154.012,10.355,-94.109
14191,-0.1128,0.4985,-0.9946,-21.667,5.249,3.296,153.787,10.250,-94.114
14201,-0.0581,0.5688,-1.0864,-12.451,28.259,8.789,153.660,9.888,-94.070
14211,-0.0347,0.6074,-1.1016,-3.052,45.532,12.390,153.622,9.344,-93.977
14221,-0.0591,0.5605,-1.0322,6.226,48.462,10.925,153.677,8.800,-93.856
14231,-0.1343,0.4854,-0.9204,8.850,32.654,4.822,153.770,8.476,-93.757
14241,-0.1919,0.4292,-0.8350,4.211,3.845,-2.014,153.803,8.481,-93.719
14251,-0.2222,0.4150,-0.8091,-2.991,-25.757,-5.127,153.754,8.784,-93.790
14261,-0.2241,0.4209,-0.8320,-4.761,-43.884,-3.723,153.677,9.240,-93.950
14271,-0.1631,0.4727,-0.9326,-2.563,-45.044,1.160,153.611,9.630,-94.164
14281,-0.1118,0.5015,-1.0088,3.357,-28.503,6.165,153.616,9.816,-94.351
14291,-0.0933,0.5146,-1.0190,9.644,-4.700,7.996,153.693,9.772,-94.444
14301,-0.0859,0.5146,-0.9966,13.855,14.954,6.714,153.820,9.553,-94.433
14311,-0.1250,0.4624,-0.9224,13.367,20.447,3.174,153.957,9.333,-94.373
14321,-0.1992,0.4048,-0.8169,5.676,10.864,-2.014,154.023,9.272,-94.307
14331,-0.2451,0.3633,-0.7505,-5.432,-8.240,-6.592,153.973,9.448,-94.285
14341,-0.2500,0.3911,-0.7573,-15.198,-25.635,-7.751,153.803,9.778,-94.329
14351,-0.2075,0.4600,-0.8628,-17.944,-31.067,-4.639,153.589,10.096,-94.422
14361,-0.1504,0.5132,-0.9697,-11.108,-19.165,0.977,153.446,10.239,-94.521
14371,-0.1274,0.5200,-0.9951,0.061,1.831,4.700,153.430,10.162,-94.554
14381,-0.1255,0.5029,-0.9644,9.399,19.104,4.944,153.523,9.937,-94.510
14391,-0.1523,0.4487,-0.8979,13.184,23.132,2.136,153.666,9.712,-94.427
14401,-0.2036,0.3911,-0.8237,9.338,13.123,-2.197,153.781,9.630,-94.345
14411,-0.2290,0.3701,-0.7866,-0.305,-3.845,-5.432,153.792,9.739,-94.312
14421,-0.2163,0.3901,-0.8130,-9.338,-17.944,-5.737,153.704,9.965,-94.345
14431,-0.1851,0.4336,-0.8857,-12.207,-21.118,-3.662,153.572,10.173,-94.406
14441,-0.1479,0.4912,-0.9565,-9.277,-11.780,-0.427,153.468,10.256,-94.455
14451,-0.1064,0.5288,-1.0308,-1.465,5.127,2.075,153.446,10.151,-94.449
14461,-0.1025,0.5234,-1.0308,5.249,20.508,2.380,153.506,9.910,-94.378
14471,-0.1426,0.4829,-0.9487,5.798,24.719,0.305,153.578,9.662,-94.268
14481,-0.1865,0.4146,-0.8711,0.977,15.442,-4.395,153.616,9.558,-94.158
14491,-0.2280,0.3770,-0.7925,-9.094,-1.892,-9.216,153.545,9.668,-94.081
14501,-0.2417,0.3789,-0.7686,-19.409,-19.409,-10.925,153.358,9.948,-94.070
14511,-0.2275,0.4092,-0.8115,-22.888,-27.161,-9.583,153.122,10.272,-94.109
14521,-0.2017,0.4761,-0.8662,-18.860,-22.705,-5.066,152.908,10.508,-94.169
14531,-0.1733,0.5039,-0.9038,-6.226,-7.812,0.732,152.820,10.563,-94.208
14541,-0.1733,0.4868,-0.9038,8.667,8.118,4.578,152.891,10.464,-94.213
14551,-0.1587,0.4766,-0.9072,18.005,17.517,5.310,153.073,10.267,-94.180
14561,-0.1636,0.4517,-0.9014,19.653,17.578,4.700,153.276,10.080,-94.142
14571,-0.1895,0.4058,-0.8608,14.221,9.644,3.357,153.435,9.992,-94.131
14581,-0.1670,0.4214,-0.8906,4.822,-0.732,1.221,153.490,9.992,-94.142
14591,-0.1479,0.4443,-0.9282,-3.784,-6.653,-0.488,153.457,10.031,-94.169
14601,-0.1245,0.5005,-0.9707,-8.911,-5.676,-1.160,153.358,10.052,-94.186
14611,-0.1060,0.5405,-1.0073,-6.104,1.160,-1.282,153.287,10.003,-94.169
14621,-0.1157,0.5259,-0.9951,0.549,7.568,-1.709,153.287,9.899,-94.120
14631,-0.1538,0.4980,-0.9375,5.249,7.874,-2.808,153.336,9.827,-94.054
14641,-0.2051,0.4287,-0.8599,6.714,0.427,-4.150,153.413,9.860,-94.016
14651,-0.2559,0.3643,-0.7627,3.296,-12.146,-5.005,153.457,10.063,-94.026
14661,-0.2617,0.3506,-0.7305,-1.343,-24.109,-5.066,153.441,10.377,-94.087
14671,-0.2148,0.3906,-0.8228,-2.808,-27.466,-3.601,153.408,10.662,-94.180
14681,-0.1587,0.4336,-0.9307,-2.197,-17.334,-0.305,153.386,10.800,-94.257
14691,-0.1382,0.4731,-0.9746,-0.305,1.587,2.808,153.391,10.739,-94.274
14701,-0.1084,0.4976,-1.0098,2.747,20.508,3.784,153.430,10.486,-94.219
14711,-0.1196,0.4834,-0.9751,3.174,30.396,2.686,153.484,10.168,-94.103
14721,-0.1562,0.4526,-0.9077,0.488,27.161,-0.549,153.512,9.915,-93.977
14731,-0.2158,0.4053,-0.8271,-5.249,12.024,-4.150,153.479,9.855,-93.884
14741,-0.2471,0.3877,-0.7759,-11.963,-8.179,-5.676,153.364,10.014,-93.867
14751,-0.2378,0.3955,-0.7949,-14.282,-23.987,-4.578,153.210,10.300,-93.939
14761,-0.1958,0.4468,-0.8877,-10.193,-26.917,-0.854,153.089,10.547,-94.054
14771,-0.1304,0.5112,-1.0103,-1.038,-14.526,4.700,153.062,10.613,-94.164
14781,-0.0674,0.5537,-1.1177,9.460,7.874,9.033,153.155,10.432,-94.208
14791,-0.0439,0.5503,-1.1211,15.381,28.442,9.155,153.320,10.052,-94.158
14801,-0.0918,0.4868,-0.9927,13.611,34.607,4.150,153.479,9.673,-94.037
14811,-0.2090,0.3813,-0.7930,3.357,20.325,-3.967,153.545,9.553,-93.911
14821,-0.2983,0.3281,-0.6396,-11.963,-8.911,-11.108,153.430,9.811,-93.851
14831,-0.3267,0.3174,-0.5957,-23.193,-38.208,-13.245,153.177,10.366,-93.906
14841,-0.3066,0.3843,-0.6714,-24.536,-55.725,-8.972,152.869,11.008,-94.076
14851,-0.2197,0.4834,-0.8799,-15.015,-47.668,0.793,152.666,11.442,-94.307
14861,-0.1499,0.5347,-1.0166,1.648,-13.428,11.414,152.644,11.464,-94.471
14871,-0.0996,0.5557,-1.0576,16.907,26.733,17.517,152.798,11.085,-94.504
14881,-0.0488,0.5376,-1.0791,25.513,56.458,16.663,153.083,10.426,-94.395
14891,-0.0747,0.4771,-1.0186,23.560,64.331,9.827,153.369,9.745,-94.186
14901,-0.1592,0.4028,-0.8853,10.803,48.279,0.916,153.534,9.311,-93.977
14911,-0.2173,0.3799,-0.7856,-7.629,14.893,-6.714,153.484,9.256,-93.851
14921,-0.2344,0.4004,-0.7476,-22.888,-21.362,-10.071,153.243,9.553,-93.851
14931,-0.2344,0.4487,-0.7871,-26.123,-45.044,-8.911,152.935,10.036,-93.977
14941,-0.1948,0.5044,-0.8911,-17.395,-46.326,-3.296,152.704,10.470,-94.164
14951,-0.1572,0.5234,-0.9639,-1.099,-29.907,4.150,152.650,10.690,-94.340
14961,-0.1084,0.5234,-1.0317,14.404,-3.662,9.399,152.776,10.624,-94.444
14971,-0.0781,0.5146,-1.0679,22.644,21.973,10.254,153.018,10.316,-94.433
14981,-0.0762,0.5049,-1.0347,19.165,35.461,6.897,153.237,9.910,-94.329
14991,-0.1484,0.4272,-0.8989,8.057,31.921,1.282,153.353,9.608,-94.197
15001,-0.2275,0.3555,-0.7651,-7.446,10.864,-5.798,153.314,9.591,-94.092
15011,-0.2451,0.3882,-0.7358,-21.790,-14.648,-11.230,153.089,9.838,-94.059
15021,-0.2593,0.4209,-0.7461,-26.550,-33.203,-11.353,152.792,10.250,-94.109
15031,-0.2358,0.4927,-0.8384,-20.996,-35.706,-5.615,152.534,10.624,-94.224
15041,-0.1982,0.5093,-0.9229,-4.089,-20.752,2.258,152.457,10.800,-94.345
15051,-0.1709,0.4863,-0.9473,13.489,0.732,8.240,152.584,10.739,-94.411
15061,-0.1074,0.5015,-1.0137,22.949,19.836,11.047,152.820,10.459,-94.422
15071,-0.0576,0.5063,-1.0635,23.071,31.311,10.193,153.073,10.063,-94.367
15081,-0.0781,0.4907,-1.0269,13.733,31.494,6.226,153.237,9.695,-94.279
15091,-0.1089,0.4785,-0.9619,0.427,21.484,0.549,153.259,9.465,-94.186
15101,-0.1665,0.4463,-0.8584,-11.108,3.723,-5.432,153.155,9.459,-94.120
15111,-0.2363,0.4199,-0.7524,-18.066,-17.761,-10.437,152.957,9.717,-94.103
15121,-0.2661,0.4077,-0.7163,-17.883,-35.339,-11.658,152.743,10.162,-94.164
15131,-0.2632,0.4116,-0.7344,-10.803,-42.542,-7.324,152.595,10.646,-94.296
15141,-0.2539,0.4082,-0.7710,0.793,-36.621,0.244,152.562,11.019,-94.471
15151,-0.2119,0.4199,-0.8345,12.268,-20.386,7.446,152.661,11.184,-94.631
15161,-0.1504,0.4438,-0.9380,19.104,2.197,12.268,152.853,11.080,-94.735
15171,-0.1157,0.4678,-0.9927,18.066,24.231,13.672,153.045,10.756,-94.746
15181,-0.1084,0.4824,-0.9839,10.132,36.804,10.620,153.171,10.333,-94.669
15191,-0.1240,0.4712,-0.9341,-0.244,36.560,4.395,153.188,9.954,-94.543
15201,-0.1699,0.4722,-0.8755,-11.719,23.254,-2.441,153.083,9.756,-94.417
15211,-0.2017,0.5029,-0.8452,-19.958,4.272,-6.958,152.858,9.767,-94.334
15221,-0.2168,0.5190,-0.8564,-19.043,-11.536,-7.874,152.633,9.926,-94.312
15231,-0.2158,0.5122,-0.8813,-10.864,-19.226,-5.615,152.490,10.140,-94.351
15241,-0.1963,0.4941,-0.9126,0.000,-17.944,-2.197,152.468,10.316,-94.417
15251,-0.1523,0.4868,-0.9565,8.423,-10.620,0.427,152.551,10.388,-94.471
15261,-0.1016,0.4966,-1.0298,11.719,0.549,1.465,152.682,10.322,-94.482
15271,-0.0479,0.5283,-1.0967,8.606,11.230,0.427,152.792,10.140,-94.433
15281,-0.0469,0.5391,-1.0762,1.709,17.151,-2.197,152.831,9.921,-94.334
15291,-0.0840,0.5044,-0.9971,-4.700,14.099,-6.836,152.809,9.767,-94.208
15301,-0.1338,0.4595,-0.9316,-10.559,1.892,-13.428,152.737,9.789,-94.076
15311,-0.1890,0.4487,-0.8770,-16.785,-13.977,-18.127,152.589,10.003,-93.977
15321,-0.2241,0.4497,-0.8384,-18.188,-27.344,-18.127,152.408,10.360,-93.944
15331,-0.2510,0.4351,-0.8047,-12.085,-34.912,-14.038,152.271,10.783,-93.983
15341,-0.2476,0.4238,-0.7920,-0.427,-36.133,-8.118,152.243,11.179,-94.076
15351,-0.2422,0.3911,-0.7754,13.916,-31.921,-2.258,152.369,11.514,-94.208
15361,-0.2568,0.3232,-0.7354,25.574,-25.146,2.563,152.633,11.788,-94.351
15371,-0.2661,0.2842,-0.7187,29.053,-19.104,5.798,152.946,12.003,-94.493
15381,-0.2588,0.2866,-0.7520,25.452,-11.597,8.301,153.237,12.123,-94.625
15391,-0.2378,0.3013,-0.8071,17.456,-1.892,10.254,153.452,12.129,-94.724
15401,-0.2100,0.3389,-0.8569,5.981,9.094,10.742,153.545,12.008,-94.785
15411,-0.1753,0.4136,-0.9194,-6.409,18.799,9.644,153.506,11.777,-94.785
15421,-0.1187,0.5283,-1.0146,-14.343,26.794,9.033,153.358,11.442,-94.746
15431,-0.0884,0.5854,-1.0815,-12.634,33.325,9.705,153.232,11.030,-94.680
15441,-0.1011,0.5835,-1.0718,-7.690,34.729,9.705,153.149,10.613,-94.609
15451,-0.1177,0.5718,-1.0195,-3.662,27.039,7.324,153.100,10.294,-94.554
15461,-0.1680,0.5205,-0.9370,-0.854,9.705,4.028,153.073,10.179,-94.543
15471,-0.2153,0.4673,-0.8545,-1.587,-13.428,0.671,153.029,10.316,-94.614
15481,-0.2202,0.4512,-0.8379,-4.822,-33.569,-2.502,152.941,10.651,-94.746
15491,-0.1982,0.4565,-0.8765,-6.409,-42.786,-4.150,152.842,11.052,-94.905
15501,-0.1958,0.4780,-0.8882,-6.714,-38.757,-3.235,152.737,11.409,-95.054
15511,-0.1978,0.4858,-0.8740,-4.089,-25.879,-1.404,152.661,11.640,-95.164
15521,-0.2012,0.4731,-0.8408,0.427,-10.315,-0.183,152.633,11.733,-95.213
15531,-0.2202,0.4468,-0.7920,4.333,0.671,0.122,152.655,11.744,-95.208
15541,-0.2476,0.4102,-0.7441,5.005,3.357,-0.244,152.693,11.761,-95.191
15551,-0.2573,0.4004,-0.7373,1.831,1.038,-0.244,152.699,11.805,-95.186
15561,-0.2549,0.4033,-0.7607,-2.502,-1.038,0.977,152.666,11.860,-95.197
15571,-0.2163,0.4404,-0.8418,-5.615,1.404,2.808,152.606,11.843,-95.219
15581,-0.1587,0.4995,-0.9502,-5.676,10.254,4.395,152.545,11.700,-95.208
15591,-0.1177,0.5508,-1.0342,-3.357,21.729,4.944,152.518,11.426,-95.153
15601,-0.1060,0.5649,-1.0527,-1.831,30.273,4.028,152.512,11.080,-95.043
15611,-0.1152,0.5566,-1.0137,-0.610,30.640,1.099,152.523,10.750,-94.911
15621,-0.1509,0.5083,-0.9487,-1.038,21.545,-3.174,152.529,10.547,-94.779
15631,-0.1851,0.4692,-0.8896,-4.272,4.578,-6.958,152.496,10.536,-94.697
15641,-0.2192,0.4253,-0.8179,-8.057,-13.733,-8.789,152.419,10.728,-94.680
15651,-0.2417,0.3887,-0.7749,-10.315,-27.344,-9.277,152.320,11.058,-94.730
15661,-0.2549,0.3804,-0.7524,-10.559,-32.349,-8.545,152.210,11.437,-94.801
15671,-0.2612,0.3716,-0.7402,-7.935,-28.748,-7.019,152.128,11.783,-94.878
15681,-0.2632,0.3550,-0.7368,-3.967,-19.226,-5.493,152.100,12.036,-94.916
15691,-0.2642,0.3306,-0.7446,-2.258,-7.507,-4.517,152.117,12.184,-94.916
15701,-0.2407,0.3296,-0.7954,-5.127,4.150,-3.540,152.133,12.200,-94.861
15711,-0.2012,0.3408,-0.8613,-13.000,13.855,-3.845,152.089,12.096,-94.763
15721,-0.1812,0.3848,-0.9233,-25.513,16.724,-7.263,151.919,11.964,-94.614
15731,-0.1260,0.4971,-1.0210,-36.743,12.085,-13.672,151.611,11.865,-94.433
15741,-0.0898,0.6128,-1.1011,-42.175,4.517,-19.897,151.227,11.843,-94.235
15751,-0.0879,0.6992,-1.1401,-40.710,-4.395,-22.278,150.837,11.904,-94.054
15761,-0.0864,0.7529,-1.1650,-31.006,-14.038,-21.240,150.518,12.047,-93.933
15771,-0.1138,0.7251,-1.1143,-19.226,-24.841,-19.775,150.298,12.283,-93.884
15781,-0.1592,0.6582,-1.0078,-9.766,-39.734,-20.264,150.167,12.678,-93.906
15791,-0.2007,0.5937,-0.9014,-4.089,-53.284,-20.569,150.068,13.217,-93.994
15801,-0.2480,0.5244,-0.8027,-1.343,-64.026,-20.813,149.991,13.881,-94.136
15811,-0.2866,0.4687,-0.7363,0.793,-70.740,-21.240,149.930,14.634,-94.312
15821,-0.3086,0.4458,-0.6982,1.709,-69.275,-20.508,149.881,15.386,-94.488
15831,-0.3271,0.4390,-0.6772,2.686,-58.167,-17.578,149.843,16.040,-94.631
15841,-0.3369,0.4404,-0.6870,5.188,-40.649,-12.878,149.843,16.518,-94.730
15851,-0.3325,0.4600,-0.7114,8.484,-18.555,-7.141,149.886,16.760,-94.763
15861,-0.3140,0.4580,-0.7378,10.925,4.578,-1.221,149.991,16.760,-94.730
15871,-0.3120,0.4458,-0.7554,10.254,22.217,3.174,150.112,16.578,-94.642
15881,-0.2847,0.4521,-0.7949,6.714,33.325,5.066,150.216,16.276,-94.510
15891,-0.2520,0.4668,-0.8384,2.502,37.292,4.211,150.287,15.919,-94.356
15901,-0.2373,0.4941,-0.8784,-1.282,35.339,2.563,150.326,15.579,-94.197
15915,-0.2261,0.5259,-0.9238,-2.380,29.602,1.709,150.337,15.276,-94.059
15921,-0.2212,0.5591,-0.9766,-1.160,23.804,1.648,150.353,15.024,-93.955
15931,-0.2173,0.5835,-1.0161,1.465,19.043,2.380,150.386,14.804,-93.878
15941,-0.2187,0.5723,-0.9995,5.005,14.709,3.113,150.441,14.623,-93.829
15951,-0.2197,0.5425,-0.9541,8.301,9.033,2.014,150.535,14.502,-93.801
15961,-0.2290,0.4951,-0.8950,9.277,0.732,-1.038,150.634,14.480,-93.790
15971,-0.2568,0.4297,-0.8174,6.531,-9.888,-4.578,150.710,14.601,-93.801
15981,-0.2764,0.3906,-0.7524,1.038,-20.264,-6.714,150.727,14.843,-93.840
15991,-0.2881,0.3804,-0.7300,-2.625,-25.024,-5.737,150.699,15.128,-93.917
16001,-0.2930,0.4131,-0.7534,-2.197,-21.667,-1.465,150.661,15.359,-94.010
16011,-0.2832,0.4497,-0.7983,3.113,-10.498,3.296,150.672,15.452,-94.098
16021,-0.2739,0.4424,-0.8159,10.864,3.357,7.263,150.771,15.397,-94.142
16031,-0.2485,0.4648,-0.8613,16.663,17.151,10.132,150.947,15.189,-94.147
16041,-0.2310,0.4761,-0.9009,18.677,27.100,11.475,151.150,14.875,-94.114
16051,-0.2349,0.4590,-0.8965,15.320,29.236,11.047,151.331,14.551,-94.070
16061,-0.2295,0.4644,-0.8926,7.080,24.170,8.728,151.425,14.282,-94.032
16071,-0.2119,0.4971,-0.9170,-1.465,15.625,5.554,151.414,14.095,-94.005
16081,-0.1982,0.5488,-0.9595,-7.019,7.385,2.991,151.337,13.975,-93.994
16091,-0.1968,0.5937,-0.9775,-6.775,1.770,2.014,151.243,13.909,-94.005
16101,-0.2051,0.6021,-0.9546,-0.854,-0.977,3.540,151.188,13.865,-94.037
16111,-0.2354,0.5435,-0.8853,8.057,-3.235,7.568,151.221,13.843,-94.125
16121,-0.2617,0.4668,-0.8145,15.015,-7.874,11.902,151.326,13.876,-94.268
16131,-0.2710,0.4155,-0.7695,16.296,-15.198,15.320,151.441,13.969,-94.482
16141,-0.2456,0.4023,-0.8047,12.939,-22.217,16.296,151.523,14.095,-94.741
16151,-0.2144,0.4312,-0.8926,8.484,-25.085,14.282,151.578,14.227,-94.993
16161,-0.2041,0.4829,-0.9717,4.028,-20.996,11.047,151.584,14.321,-95.197
16171,-0.1899,0.5488,-0.9976,1.160,-12.146,6.775,151.562,14.348,-95.317
16181,-0.2021,0.5596,-0.9624,0.977,-1.160,1.892,151.551,14.310,-95.339
16191,-0.2456,0.5352,-0.8667,1.221,6.592,-3.235,151.545,14.260,-95.279
16201,-0.2876,0.4971,-0.7695,0.916,8.362,-7.263,151.534,14.255,-95.175
16211,-0.3389,0.4141,-0.6675,1.099,5.493,-9.155,151.540,14.337,-95.065
16222,-0.3662,0.3369,-0.6045,0.610,3.052,-8.423,151.562,14.485,-94.971
16231,-0.3608,0.3203,-0.6157,0.061,5.188,-5.615,151.589,14.601,-94.894
16241,-0.3081,0.3579,-0.7227,0.183,10.925,-1.770,151.633,14.573,-94.823
16251,-0.1968,0.4526,-0.9238,1.648,21.118,2.075,151.694,14.343,-94.741
16261,-0.1309,0.5513,-1.0762,2.930,32.288,4.333,151.760,13.958,-94.620
16271,-0.1113,0.5962,-1.1211,3.784,35.339,3.052,151.837,13.546,-94.477
16281,-0.1323,0.5532,-1.0498,3.418,27.161,0.427,151.902,13.239,-94.351
16291,-0.1992,0.4907,-0.9468,-0.366,9.705,-2.258,151.919,13.134,-94.279
16301,-0.2417,0.4482,-0.8804,-4.883,-10.193,-4.639,151.880,13.255,-94.290
16311,-0.2651,0.4082,-0.8340,-6.592,-24.902,-4.333,151.820,13.519,-94.373
16321,-0.2432,0.4229,-0.8491,-4.578,-29.541,-1.709,151.760,13.793,-94.499
16331,-0.2065,0.4253,-0.8936,1.526,-23.071,1.038,151.776,13.969,-94.620
16341,-0.2109,0.4160,-0.8857,5.249,-12.085,2.136,151.837,14.046,-94.697
16351,-0.2168,0.4155,-0.8721,5.737,-1.770,2.625,151.913,14.035,-94.730
16361,-0.2305,0.4229,-0.8638,4.395,2.869,2.747,151.974,13.991,-94.741
16371,-0.2637,0.4419,-0.8330,0.549,2.441,3.418,151.979,13.969,-94.763
16381,-0.2891,0.4658,-0.8145,-1.282,-0.549,4.211,151.935,13.986,-94.801
16391,-0.2744,0.4800,-0.8276,0.000,-2.014,4.700,151.902,14.002,-94.856
16401,-0.2520,0.4839,-0.8350,1.953,-1.038,4.578,151.891,13.997,-94.900
16411,-0.2427,0.4795,-0.8374,3.296,1.648,3.845,151.902,13.964,-94.927
16421,-0.2344,0.4780,-0.8481,2.747,3.906,2.686,151.913,13.914,-94.933
16431,-0.2236,0.4907,-0.8687,0.977,5.737,1.953,151.913,13.843,-94.922
16441,-0.2017,0.5283,-0.9263,0.061,7.996,1.953,151.902,13.733,-94.900
16451,-0.1909,0.5527,-0.9629,0.305,9.888,1.831,151.897,13.601,-94.872
16461,-0.1914,0.5532,-0.9658,1.221,10.132,1.099,151.897,13.464,-94.834
16471,-0.1934,0.5342,-0.9521,2.441,8.118,-0.732,151.924,13.365,-94.785
16481,-0.2065,0.5083,-0.9316,2.197,3.235,-3.601,151.952,13.332,-94.735
16491,-0.2227,0.4912,-0.9077,-0.610,-3.174,-5.981,151.946,13.376,-94.697
16501,-0.2539,0.4429,-0.8545,-4.517,-9.644,-7.629,151.913,13.508,-94.675
16511,-0.2637,0.4185,-0.8145,-8.667,-14.099,-8.972,151.842,13.700,-94.664
16521,-0.2612,0.4180,-0.7910,-9.949,-14.526,-8.789,151.749,13.892,-94.653
16531,-0.2632,0.4243,-0.7866,-6.653,-10.559,-6.287,151.683,14.041,-94.647
16541,-0.2437,0.4443,-0.8237,-0.366,-3.357,-2.869,151.683,14.084,-94.636
16551,-0.2339,0.4395,-0.8354,5.737,4.395,0.244,151.749,14.046,-94.620
16561,-0.2354,0.4277,-0.8491,8.545,9.644,2.258,151.853,13.947,-94.592
16571,-0.2329,0.4414,-0.8833,7.141,12.024,3.296,151.946,13.821,-94.565
16581,-0.2378,0.4487,-0.8857,2.441,11.230,3.235,151.990,13.705,-94.537
16591,-0.2349,0.4736,-0.9092,-2.441,8.850,2.075,151.974,13.612,-94.515
