elapsed_ms,acc_x_g,acc_y_g,acc_z_g,gyro_x_dps,gyro_y_dps,gyro_z_dps,angle_x_deg,angle_y_deg,angle_z_deg
0,-0.5142,0.5249,-0.7114,-4.517,5.615,-0.366,145.833,29.449,-109.946
10,-0.5010,0.4878,-0.6543,3.845,6.409,-0.244,145.865,29.416,-109.902
20,-0.4858,0.3955,-0.5674,11.292,0.671,0.061,145.970,29.465,-109.896
30,-0.4780,0.3403,-0.5229,13.550,-9.399,0.061,146.085,29.625,-109.957
40,-0.4766,0.3164,-0.5425,12.024,-18.799,0.366,146.179,29.850,-110.083
50,-0.4941,0.3525,-0.6025,7.324,-22.095,3.235,146.201,30.070,-110.259
60,-0.5205,0.4209,-0.6860,2.258,-14.648,7.751,146.162,30.174,-110.424
70,-0.5308,0.5176,-0.7769,-0.488,3.052,13.123,146.107,30.075,-110.533
80,-0.5386,0.6045,-0.8691,1.648,26.001,16.785,146.118,29.734,-110.522
90,-0.5312,0.6675,-0.9292,7.996,49.316,18.005,146.250,29.185,-110.380
100,-0.5044,0.6655,-0.9370,16.357,65.674,16.907,146.519,28.493,-110.121
110,-0.4761,0.6147,-0.8975,23.010,67.139,13.672,146.876,27.817,-109.830
120,-0.4448,0.5449,-0.8701,24.231,51.819,8.118,147.239,27.301,-109.589
130,-0.4355,0.5034,-0.8774,18.738,26.489,2.136,147.519,27.026,-109.446
140,-0.4448,0.4937,-0.9004,9.705,0.244,-2.136,147.662,26.999,-109.424
150,-0.4600,0.5225,-0.9204,-0.061,-19.043,-3.479,147.651,27.142,-109.506
160,-0.4766,0.5532,-0.9126,-5.920,-28.015,-2.930,147.541,27.361,-109.649
170,-0.4863,0.5771,-0.8662,-7.263,-27.710,-1.465,147.387,27.581,-109.803
180,-0.4678,0.5308,-0.7197,-4.456,-22.827,-0.610,147.244,27.773,-109.935
190,-0.4419,0.4233,-0.5376,-0.427,-24.353,-0.916,147.118,28.032,-110.072
200,-0.4463,0.3853,-0.4639,0.793,-31.860,-2.319,146.981,28.394,-110.248
210,-0.4697,0.3643,-0.4858,2.441,-35.828,-3.113,146.876,28.801,-110.440
220,-0.4956,0.4023,-0.6172,3.235,-29.846,-2.075,146.827,29.114,-110.605
230,-0.5322,0.4985,-0.7729,6.165,-9.338,-0.061,146.865,29.196,-110.665
240,-0.5532,0.5361,-0.8608,11.841,19.592,2.991,147.036,29.015,-110.572
250,-0.5342,0.5601,-0.8550,15.503,44.495,6.958,147.288,28.592,-110.363
260,-0.4761,0.5181,-0.7510,15.564,56.274,8.484,147.552,28.070,-110.094
270,-0.4370,0.4531,-0.6841,11.597,48.950,6.287,147.766,27.625,-109.858
280,-0.4360,0.4653,-0.7061,1.648,28.259,2.075,147.838,27.372,-109.709
290,-0.4473,0.5015,-0.7432,-7.690,6.775,-1.404,147.772,27.318,-109.655
300,-0.4673,0.5454,-0.8218,-11.292,-10.498,-3.418,147.629,27.405,-109.682
310,-0.4961,0.5840,-0.9160,-6.653,-14.526,-4.822,147.541,27.521,-109.726
320,-0.5083,0.5610,-0.9375,0.610,-7.446,-4.700,147.563,27.581,-109.726
330,-0.4990,0.5259,-0.9185,3.723,0.916,-3.540,147.645,27.570,-109.688
340,-0.4673,0.5010,-0.8872,2.869,7.812,-2.808,147.739,27.493,-109.611
350,-0.4443,0.4751,-0.8516,-0.244,8.362,-2.441,147.799,27.405,-109.539
360,-0.4404,0.4629,-0.8145,-5.920,1.465,-2.625,147.783,27.383,-109.506
370,-0.4331,0.4009,-0.7290,-12.390,-9.338,-3.418,147.684,27.482,-109.528
380,-0.4453,0.3564,-0.6567,-19.104,-22.400,-4.089,147.486,27.724,-109.627
390,-0.4707,0.3740,-0.6440,-23.315,-31.372,-5.188,147.217,28.059,-109.764
400,-0.4966,0.4146,-0.6904,-19.531,-30.762,-5.188,146.975,28.378,-109.907
410,-0.5063,0.4595,-0.7490,-12.146,-19.714,-2.808,146.827,28.575,-110.001
420,-0.5029,0.4736,-0.7759,-3.967,-2.930,1.099,146.788,28.597,-110.028
430,-0.4844,0.4888,-0.7798,1.404,11.902,5.249,146.827,28.460,-110.006
440,-0.4634,0.5249,-0.7710,1.282,20.813,10.071,146.843,28.213,-109.973
450,-0.4507,0.5342,-0.7822,-1.892,20.630,14.648,146.810,27.933,-109.984
460,-0.4468,0.5425,-0.7896,-9.521,13.062,17.456,146.662,27.702,-110.067
470,-0.4609,0.5786,-0.7998,-17.456,2.136,16.663,146.398,27.565,-110.209
480,-0.4849,0.6133,-0.8193,-18.677,-6.653,12.146,146.107,27.532,-110.369
490,-0.4971,0.6099,-0.8208,-13.855,-10.803,6.226,145.887,27.570,-110.495
500,-0.4883,0.6021,-0.7891,-6.958,-12.268,0.793,145.750,27.653,-110.577
510,-0.4663,0.5693,-0.7266,0.488,-11.902,-3.357,145.695,27.762,-110.621
520,-0.4556,0.5029,-0.6680,5.737,-12.268,-4.944,145.706,27.900,-110.654
530,-0.4609,0.4331,-0.5957,4.761,-14.404,-4.272,145.717,28.081,-110.709
540,-0.4707,0.3247,-0.5054,-1.648,-18.860,-2.197,145.668,28.350,-110.808
550,-0.4834,0.2881,-0.4663,-11.230,-24.475,-0.305,145.508,28.680,-110.962
560,-0.5098,0.3394,-0.5181,-17.822,-24.536,2.014,145.261,28.976,-111.138
570,-0.5371,0.4312,-0.6567,-17.517,-13.062,5.798,145.036,29.103,-111.275
580,-0.5513,0.5635,-0.8442,-11.108,10.376,9.460,144.926,28.960,-111.297
590,-0.5430,0.6689,-0.9590,-1.831,38.086,13.000,144.976,28.537,-111.171
600,-0.4858,0.7046,-0.9761,6.653,57.617,14.282,145.146,27.922,-110.923
610,-0.4170,0.6606,-0.8901,12.268,58.899,11.353,145.377,27.307,-110.649
620,-0.3774,0.5542,-0.8174,12.817,38.025,5.127,145.602,26.906,-110.457
630,-0.3940,0.5049,-0.7905,3.723,5.432,-2.319,145.679,26.834,-110.402
640,-0.4316,0.4824,-0.7812,-8.179,-23.437,-8.179,145.591,27.054,-110.473
650,-0.4888,0.4795,-0.7607,-13.672,-43.457,-12.146,145.404,27.493,-110.632
660,-0.5239,0.4878,-0.7319,-12.939,-49.988,-13.000,145.195,28.004,-110.836
670,-0.5381,0.5005,-0.7119,-6.470,-42.358,-10.498,145.047,28.444,-111.011
680,-0.5220,0.4893,-0.6709,1.282,-25.452,-5.127,144.992,28.718,-111.127
690,-0.5005,0.4556,-0.6143,6.958,-8.667,0.427,145.014,28.834,-111.187
700,-0.4800,0.4404,-0.5913,9.399,3.723,3.967,145.085,28.823,-111.204
710,-0.4595,0.4453,-0.6133,8.362,10.498,4.395,145.173,28.735,-111.176
720,-0.4443,0.4536,-0.6782,4.639,9.766,3.479,145.245,28.636,-111.143
730,-0.4365,0.4746,-0.7788,1.160,6.042,1.343,145.300,28.548,-111.116
740,-0.4531,0.5044,-0.8398,-2.563,2.258,0.366,145.316,28.488,-111.105
750,-0.4771,0.5298,-0.8325,-4.944,-0.977,2.319,145.278,28.460,-111.132
760,-0.4990,0.5786,-0.8198,-4.028,-3.052,5.676,145.201,28.433,-111.204
770,-0.4980,0.6064,-0.7812,1.770,-3.113,8.789,145.135,28.389,-111.308
780,-0.4849,0.5674,-0.7144,10.315,-4.639,10.925,145.140,28.361,-111.440
790,-0.4697,0.5483,-0.6826,15.747,-7.812,11.658,145.184,28.356,-111.599
800,-0.4683,0.5479,-0.7358,17.639,-7.812,10.559,145.267,28.350,-111.747
810,-0.4707,0.5205,-0.7915,16.968,-3.296,8.057,145.404,28.312,-111.846
820,-0.4868,0.5132,-0.7959,10.742,2.197,5.432,145.514,28.251,-111.885
830,-0.4946,0.5176,-0.7505,2.441,6.714,3.845,145.541,28.174,-111.874
840,-0.5000,0.4878,-0.6475,-2.502,6.348,2.747,145.497,28.147,-111.863
850,-0.5103,0.4600,-0.5952,-1.831,1.038,0.916,145.443,28.191,-111.863
860,-0.5098,0.4775,-0.6304,2.075,-2.075,0.610,145.432,28.251,-111.879
870,-0.4854,0.5225,-0.7441,6.470,0.183,2.380,145.481,28.235,-111.901
880,-0.4712,0.5342,-0.8179,9.521,8.240,3.784,145.596,28.120,-111.885
890,-0.4585,0.5269,-0.8379,8.118,14.160,4.456,145.723,27.949,-111.835
900,-0.4512,0.4790,-0.7896,2.441,14.771,3.540,145.805,27.790,-111.775
910,-0.4565,0.3862,-0.6987,-8.789,7.324,0.854,145.789,27.746,-111.736
920,-0.4653,0.3696,-0.5996,-22.827,-5.737,-2.319,145.580,27.861,-111.753
930,-0.4775,0.3428,-0.4722,-29.663,-19.165,-4.761,145.234,28.158,-111.830
940,-0.5137,0.3804,-0.4653,-23.437,-28.564,-4.028,144.888,28.537,-111.978
950,-0.5444,0.4946,-0.6436,-8.911,-20.630,-0.122,144.712,28.757,-112.110
960,-0.5464,0.6968,-1.0405,6.409,9.644,6.958,144.789,28.586,-112.110
970,-0.5049,0.9023,-1.3188,11.719,51.697,14.587,145.003,28.081,-111.907
980,-0.4175,0.9878,-1.2710,13.184,75.012,15.930,145.300,27.378,-111.566
990,-0.3374,0.7192,-0.9321,18.799,61.951,8.301,145.635,26.818,-111.248
1000,-0.3452,0.3750,-0.5874,11.658,15.320,-3.357,145.805,26.713,-111.121
1010,-0.3999,0.3091,-0.4692,-11.353,-37.537,-14.282,145.646,27.103,-111.226
1020,-0.4570,0.3569,-0.4814,-27.893,-69.397,-22.217,145.261,27.801,-111.456
1030,-0.5283,0.3750,-0.5610,-22.644,-75.195,-24.048,144.915,28.553,-111.720
1040,-0.5869,0.4106,-0.6260,-6.592,-60.120,-18.127,144.739,29.152,-111.945
1050,-0.5737,0.4312,-0.6416,6.714,-28.503,-6.348,144.745,29.421,-112.072
1060,-0.5317,0.4321,-0.6377,15.686,4.028,5.432,144.888,29.355,-112.094
1070,-0.4771,0.4482,-0.6602,21.057,33.691,13.733,145.146,29.004,-112.000
1080,-0.4409,0.4854,-0.7417,21.484,49.744,15.808,145.448,28.504,-111.824
1090,-0.4199,0.5356,-0.8320,13.367,48.706,14.099,145.668,28.021,-111.643
1100,-0.4062,0.5737,-0.8765,1.709,36.255,9.949,145.750,27.669,-111.506
1110,-0.4072,0.5869,-0.8945,-8.728,17.944,4.700,145.695,27.493,-111.434
1120,-0.4346,0.6006,-0.8877,-15.625,0.305,0.061,145.536,27.488,-111.434
1130,-0.4746,0.6470,-0.8994,-16.724,-12.634,-3.662,145.349,27.614,-111.478
1140,-0.5166,0.6592,-0.8887,-12.146,-17.639,-5.676,145.201,27.790,-111.539
1150,-0.5278,0.6035,-0.8110,-5.554,-17.029,-5.798,145.118,27.966,-111.599
1160,-0.4990,0.4971,-0.6670,-0.732,-17.578,-6.042,145.085,28.141,-111.654
1170,-0.4692,0.4229,-0.5630,0.305,-20.325,-6.653,145.052,28.350,-111.725
1180,-0.4668,0.4229,-0.5488,-0.549,-19.897,-7.019,145.020,28.553,-111.786
1190,-0.4766,0.4204,-0.5913,-1.770,-14.099,-5.920,144.981,28.702,-111.824
1200,-0.4854,0.4551,-0.6758,-1.526,-2.930,-3.845,144.976,28.746,-111.808
1210,-0.4761,0.5029,-0.7285,-0.122,10.559,-1.282,145.014,28.669,-111.725
1220,-0.4746,0.5249,-0.7490,3.235,18.921,1.465,145.096,28.504,-111.616
1230,-0.4683,0.5088,-0.7437,4.822,21.179,3.723,145.195,28.312,-111.517
1240,-0.4810,0.4634,-0.7187,4.578,15.991,4.639,145.272,28.152,-111.456
1250,-0.4873,0.4888,-0.7773,0.183,7.690,4.333,145.278,28.065,-111.445
1260,-0.4902,0.5952,-0.9458,-5.737,5.005,4.089,145.217,27.999,-111.451
1270,-0.4844,0.6909,-1.0322,-11.108,9.277,4.517,145.113,27.900,-111.434
1280,-0.4546,0.7085,-0.9736,-13.428,13.123,4.333,145.003,27.768,-111.390
1290,-0.4160,0.5630,-0.7607,-8.911,8.606,0.549,144.937,27.691,-111.335
1300,-0.4180,0.4150,-0.5801,-4.578,-8.972,-5.249,144.882,27.795,-111.346
1310,-0.4355,0.3359,-0.4351,-2.014,-30.396,-7.874,144.805,28.087,-111.473
1320,-0.4863,0.3428,-0.4268,6.653,-47.729,-5.432,144.750,28.510,-111.731
1330,-0.5483,0.4482,-0.6299,20.142,-45.227,1.953,144.800,28.867,-112.050
1340,-0.5723,0.5610,-0.8330,31.982,-18.066,12.024,145.009,28.949,-112.280
1350,-0.5112,0.6167,-0.8911,37.109,14.648,20.325,145.333,28.713,-112.374
1360,-0.4346,0.6064,-0.8521,36.560,36.133,22.217,145.712,28.284,-112.346
1370,-0.3926,0.4839,-0.7656,29.846,40.527,17.334,146.058,27.856,-112.253
1380,-0.3945,0.3784,-0.6782,11.841,26.855,10.315,146.212,27.576,-112.176
1390,-0.4248,0.3364,-0.5723,-13.916,5.493,3.540,146.069,27.510,-112.176
1400,-0.4561,0.3779,-0.5215,-30.457,-14.160,-1.465,145.734,27.636,-112.253
1410,-0.4971,0.4819,-0.5894,-31.067,-23.926,-4.211,145.371,27.856,-112.363
1420,-0.5288,0.5923,-0.7705,-18.616,-16.907,-2.136,145.140,28.010,-112.456
1430,-0.5376,0.7168,-1.0010,-3.235,4.150,3.418,145.107,27.955,-112.462
1440,-0.5195,0.7676,-1.0811,7.446,27.954,8.362,145.228,27.675,-112.357
1450,-0.4673,0.7456,-1.0249,13.977,39.429,9.338,145.448,27.301,-112.187
1460,-0.4082,0.6548,-0.9258,15.259,32.715,5.066,145.673,26.999,-112.028
1470,-0.3887,0.5903,-0.8496,6.592,11.353,-2.502,145.783,26.922,-111.929
1480,-0.4121,0.5293,-0.7485,-5.371,-13.855,-10.681,145.723,27.065,-111.918
1490,-0.4556,0.4082,-0.5918,-13.428,-36.499,-16.907,145.552,27.515,-111.995
1500,-0.4741,0.3232,-0.4883,-14.954,-51.392,-19.592,145.349,28.158,-112.137
1510,-0.4956,0.3066,-0.4673,-11.536,-51.147,-17.822,145.173,28.806,-112.302
1520,-0.5229,0.3428,-0.5015,-4.211,-36.499,-11.414,145.074,29.290,-112.434
1530,-0.5391,0.3843,-0.5894,4.639,-13.000,-2.075,145.107,29.487,-112.500
1540,-0.5312,0.4360,-0.7021,11.841,14.587,7.935,145.261,29.355,-112.478
1550,-0.4951,0.5190,-0.8003,14.160,37.781,14.709,145.475,28.949,-112.368
1560,-0.4048,0.5293,-0.8267,9.033,41.016,13.062,145.651,28.477,-112.225
1570,-0.3999,0.5439,-0.8599,0.366,25.879,8.057,145.717,28.147,-112.137
1580,-0.4253,0.5942,-0.8906,-8.606,12.024,2.991,145.662,27.966,-112.088
1590,-0.4556,0.6548,-0.9399,-12.695,0.244,-0.610,145.530,27.905,-112.083
1600,-0.4697,0.7534,-1.0508,-10.376,-4.822,-2.563,145.415,27.878,-112.088
1610,-0.4766,0.7954,-1.1045,-2.625,-1.648,-3.906,145.388,27.828,-112.061
1620,-0.4497,0.6987,-0.9399,3.967,-1.343,-4.822,145.426,27.801,-112.028
1630,-0.4077,0.4595,-0.6392,6.714,-13.733,-8.728,145.475,27.955,-112.033
1640,-0.4048,0.2456,-0.3721,-0.183,-36.682,-13.000,145.432,28.471,-112.148
1650,-0.4404,0.1890,-0.2832,-11.963,-57.922,-14.709,145.212,29.262,-112.385
1660,-0.5049,0.1851,-0.3315,-18.250,-60.059,-13.062,144.959,30.064,-112.654
1670,-0.5825,0.3213,-0.5664,-14.954,-39.185,-7.324,144.767,30.542,-112.841
1680,-0.6162,0.4902,-0.7925,-8.850,0.732,2.319,144.706,30.553,-112.863
1690,-0.5854,0.6924,-0.9839,-3.479,38.757,14.343,144.739,30.114,-112.736
1700,-0.4849,0.8569,-1.0220,3.418,67.505,20.569,144.849,29.344,-112.478
1711,-0.3994,0.7588,-0.8677,18.494,70.801,17.334,145.124,28.570,-112.176
1720,-0.3530,0.5278,-0.7100,25.452,44.189,9.216,145.453,28.092,-111.973
1730,-0.3721,0.4346,-0.6533,14.221,5.615,-1.709,145.624,28.032,-111.923
1740,-0.4204,0.4321,-0.6650,-1.648,-25.208,-10.498,145.596,28.295,-111.984
1750,-0.4956,0.4155,-0.6943,-7.568,-44.495,-14.526,145.486,28.768,-112.132
1760,-0.5391,0.4170,-0.7031,-9.094,-48.401,-12.207,145.338,29.279,-112.330
1770,-0.5483,0.4634,-0.6875,-7.751,-36.560,-6.165,145.179,29.652,-112.511
1780,-0.5190,0.5049,-0.6870,-1.709,-14.832,0.366,145.102,29.789,-112.615
1790,-0.4868,0.5142,-0.6865,3.723,6.531,5.310,145.113,29.707,-112.621
1800,-0.4590,0.5234,-0.7056,6.104,22.278,7.629,145.195,29.460,-112.544
1810,-0.4448,0.5298,-0.7549,6.226,28.076,6.653,145.311,29.158,-112.423
1820,-0.4341,0.5176,-0.7915,2.686,25.024,5.066,145.410,28.878,-112.308
1830,-0.4473,0.5259,-0.8052,-4.028,15.381,3.235,145.415,28.696,-112.242
1840,-0.4707,0.5415,-0.8262,-9.644,5.615,0.732,145.349,28.614,-112.209
1850,-0.4897,0.5620,-0.8301,-11.536,-1.831,-0.793,145.239,28.608,-112.214
1860,-0.4917,0.5635,-0.8110,-8.362,-6.958,-1.282,145.140,28.652,-112.247
1870,-0.4829,0.5811,-0.8130,-2.747,-8.606,-0.732,145.080,28.696,-112.297
1880,-0.4595,0.5796,-0.7988,3.296,-7.019,-0.183,145.080,28.718,-112.341
1890,-0.4526,0.5503,-0.7539,7.385,-6.348,0.183,145.124,28.740,-112.385
1900,-0.4482,0.5034,-0.6924,7.935,-6.348,-0.488,145.173,28.784,-112.423
1912,-0.4316,0.4038,-0.6211,5.981,-7.141,-2.441,145.239,28.867,-112.445
1920,-0.4312,0.3086,-0.5649,-1.282,-11.658,-4.333,145.272,29.037,-112.478
1930,-0.4663,0.3257,-0.5728,-12.390,-16.663,-4.211,145.168,29.257,-112.549
1940,-0.5151,0.4321,-0.6572,-20.691,-14.404,-0.793,144.932,29.421,-112.637
1950,-0.5557,0.5952,-0.7749,-20.691,-1.953,4.944,144.673,29.410,-112.698
1960,-0.5659,0.7036,-0.8638,-9.583,15.442,9.583,144.547,29.207,-112.681
1970,-0.5205,0.7310,-0.9038,4.761,30.823,11.597,144.608,28.839,-112.588
1980,-0.4370,0.6782,-0.8975,15.137,35.156,7.935,144.816,28.433,-112.429
1990,-0.3789,0.5859,-0.8521,16.663,24.170,1.343,145.058,28.147,-112.280
2000,-0.3823,0.5107,-0.7710,7.629,3.235,-4.761,145.173,28.092,-112.214
2010,-0.4150,0.4150,-0.6904,-5.066,-18.433,-8.606,145.146,28.284,-112.253
2020,-0.4619,0.3892,-0.6562,-14.526,-35.278,-9.888,144.981,28.652,-112.390
2030,-0.5112,0.4487,-0.6621,-19.409,-39.429,-7.446,144.706,29.053,-112.582
2040,-0.5547,0.5620,-0.7363,-14.771,-27.344,-2.563,144.465,29.312,-112.736
2050,-0.5562,0.5942,-0.7798,-1.343,-4.822,2.686,144.404,29.333,-112.797
2060,-0.5225,0.5840,-0.7510,12.024,14.771,6.897,144.520,29.169,-112.758
2070,-0.4648,0.5396,-0.7197,19.470,25.330,6.531,144.750,28.911,-112.654
2080,-0.4189,0.4531,-0.6855,18.250,23.315,3.052,145.009,28.685,-112.527
2090,-0.4243,0.4282,-0.6865,6.287,10.071,-0.488,145.135,28.597,-112.456
2100,-0.4438,0.4336,-0.6846,-7.812,-3.113,-2.441,145.085,28.636,-112.456
2110,-0.4658,0.4648,-0.6816,-16.907,-12.878,-1.465,144.888,28.757,-112.522
2120,-0.4883,0.5425,-0.7134,-16.602,-16.113,1.099,144.646,28.883,-112.643
2130,-0.4961,0.5796,-0.7480,-6.042,-8.911,4.395,144.514,28.916,-112.742
2140,-0.5024,0.5811,-0.7720,7.080,1.282,7.446,144.542,28.850,-112.802
2150,-0.4858,0.6299,-0.8340,16.235,11.658,8.301,144.684,28.669,-112.802
2160,-0.4526,0.6177,-0.8638,20.569,19.226,6.775,144.915,28.416,-112.736
2170,-0.4282,0.5688,-0.8428,17.151,17.517,4.456,145.135,28.196,-112.665
2180,-0.4185,0.5303,-0.8140,8.423,9.827,0.732,145.261,28.059,-112.610
2190,-0.4141,0.4590,-0.7485,-4.639,-1.221,-3.418,145.256,28.065,-112.582
2200,-0.4443,0.4165,-0.6694,-17.883,-13.550,-5.554,145.091,28.218,-112.621
2211,-0.4780,0.4341,-0.6167,-24.231,-21.240,-5.920,144.811,28.466,-112.703
2220,-0.5107,0.4888,-0.5791,-17.029,-22.888,-3.845,144.542,28.729,-112.819
2230,-0.5352,0.5303,-0.5435,5.005,-19.775,0.549,144.437,28.949,-112.950
2240,-0.5259,0.5356,-0.5562,36.499,-12.268,6.653,144.646,29.064,-113.093
2250,-0.4961,0.5117,-0.6040,67.810,-2.014,11.902,145.206,29.042,-113.220
2260,-0.4775,0.4463,-0.6528,89.783,4.883,15.320,146.047,28.932,-113.335
2270,-0.4687,0.4136,-0.7231,95.642,7.690,16.663,146.981,28.784,-113.439
2280,-0.4678,0.4004,-0.8018,85.144,9.888,15.991,147.849,28.603,-113.533
2290,-0.4775,0.4141,-0.8984,61.890,11.719,14.282,148.502,28.400,-113.599
2300,-0.4854,0.4429,-0.9766,28.992,15.137,12.756,148.843,28.169,-113.632
2310,-0.4639,0.5093,-0.9756,-7.629,17.578,10.986,148.804,27.911,-113.637
2320,-0.4580,0.7119,-0.9688,-32.837,14.709,6.531,148.436,27.680,-113.615
2330,-0.4443,0.8125,-0.9722,-36.011,12.146,0.732,148.030,27.493,-113.549
2340,-0.4209,0.7881,-0.9189,-25.757,5.188,-4.639,147.722,27.389,-113.472
2350,-0.4097,0.6763,-0.8276,-12.085,-7.812,-11.230,147.557,27.449,-113.412
2360,-0.4238,0.5146,-0.7388,-1.465,-22.644,-18.005,147.535,27.713,-113.379
2370,-0.4585,0.3608,-0.6841,1.526,-35.583,-21.667,147.590,28.152,-113.390
2380,-0.5078,0.2671,-0.6392,-3.052,-40.955,-20.874,147.634,28.685,-113.439
2390,-0.5352,0.2422,-0.5972,-10.376,-35.889,-16.724,147.607,29.185,-113.494
2400,-0.5352,0.2964,-0.5728,-14.526,-23.926,-10.254,147.491,29.548,-113.544
2410,-0.5215,0.3516,-0.5625,-13.428,-8.484,-2.930,147.354,29.718,-113.566
2420,-0.5063,0.3999,-0.5869,-7.202,7.751,3.296,147.272,29.696,-113.549
2430,-0.4790,0.4687,-0.7095,0.061,23.560,7.263,147.305,29.454,-113.472
2440,-0.4551,0.5303,-0.8804,5.310,36.316,7.141,147.448,29.059,-113.318
2450,-0.4277,0.5454,-0.9424,4.639,39.917,6.348,147.607,28.619,-113.132
2460,-0.4268,0.5420,-0.9258,-1.526,29.846,5.066,147.678,28.273,-113.000
2470,-0.4438,0.5400,-0.8984,-9.705,13.367,3.052,147.618,28.092,-112.950
2480,-0.4810,0.5293,-0.8389,-17.883,-3.357,0.671,147.431,28.092,-112.978
2490,-0.4990,0.5166,-0.7637,-23.071,-17.395,-1.953,147.145,28.251,-113.060
2500,-0.5044,0.5000,-0.6875,-22.583,-23.926,-4.028,146.838,28.499,-113.170
2510,-0.4780,0.4727,-0.6392,-17.944,-23.315,-4.578,146.580,28.740,-113.275
2520,-0.4653,0.4692,-0.6401,-9.094,-17.456,-4.395,146.431,28.922,-113.340
2530,-0.4736,0.4624,-0.6606,1.770,-6.165,-2.686,146.426,29.004,-113.357
2540,-0.4790,0.4478,-0.6787,9.155,3.723,0.732,146.530,28.987,-113.340
2550,-0.4775,0.4390,-0.7056,12.329,10.132,4.089,146.678,28.889,-113.313
2560,-0.4834,0.4727,-0.7388,11.169,13.184,6.042,146.805,28.746,-113.286
2570,-0.4951,0.4844,-0.7568,7.080,12.634,6.714,146.887,28.608,-113.275
2580,-0.4956,0.4946,-0.7964,1.770,11.597,6.042,146.926,28.471,-113.258
2590,-0.4756,0.5063,-0.8438,-4.089,12.634,4.272,146.926,28.317,-113.220
2600,-0.4478,0.5122,-0.8677,-10.376,12.573,2.136,146.876,28.158,-113.165
2610,-0.4336,0.5273,-0.8711,-16.357,9.094,0.610,146.755,28.026,-113.115
2620,-0.4331,0.5483,-0.8726,-19.043,2.747,-0.183,146.585,27.955,-113.093
2630,-0.4409,0.5757,-0.8599,-17.090,-5.005,-0.122,146.398,27.944,-113.126
2640,-0.4551,0.5840,-0.8228,-10.925,-12.878,0.854,146.234,28.010,-113.214
2650,-0.4668,0.5557,-0.7656,-2.502,-20.142,1.648,146.118,28.152,-113.357
2660,-0.4849,0.4951,-0.7100,4.089,-24.902,1.465,146.069,28.356,-113.527
2670,-0.4854,0.4380,-0.6636,7.385,-22.766,0.610,146.080,28.570,-113.676
2680,-0.4707,0.3892,-0.6499,6.042,-16.418,0.122,146.118,28.740,-113.780
2690,-0.4717,0.3750,-0.6455,-1.404,-8.850,-0.793,146.118,28.850,-113.829
2700,-0.4834,0.4243,-0.6406,-11.169,-1.282,-0.305,146.008,28.900,-113.835
2711,-0.4902,0.5303,-0.6548,-16.541,4.639,1.038,145.805,28.867,-113.818
2720,-0.4863,0.6069,-0.6631,-10.010,9.521,3.174,145.635,28.768,-113.785
2730,-0.4766,0.6060,-0.6772,4.333,12.329,5.493,145.618,28.625,-113.758
2740,-0.4766,0.5693,-0.6978,17.334,12.085,6.958,145.750,28.477,-113.747
2750,-0.4941,0.5278,-0.7310,23.865,10.254,7.263,145.964,28.356,-113.747
2760,-0.5039,0.4902,-0.7847,21.729,10.437,6.287,146.206,28.240,-113.741
2770,-0.4893,0.4893,-0.8486,13.000,12.512,4.395,146.387,28.092,-113.703
2780,-0.4736,0.5098,-0.8784,0.916,13.489,2.441,146.464,27.938,-113.643
2790,-0.4463,0.5303,-0.8691,-11.047,11.169,0.610,146.404,27.801,-113.577
2800,-0.4492,0.5723,-0.8208,-18.860,4.700,-1.343,146.223,27.735,-113.533
2810,-0.4497,0.6040,-0.7744,-20.386,-1.038,-2.319,145.986,27.724,-113.522
2820,-0.4526,0.5781,-0.7100,-16.052,-6.104,-3.052,145.772,27.773,-113.533
2830,-0.4644,0.5273,-0.6611,-9.521,-10.620,-4.333,145.624,27.900,-113.555
2840,-0.4775,0.4609,-0.6460,-3.906,-11.902,-5.798,145.563,28.059,-113.577
2850,-0.4995,0.3999,-0.6592,-1.465,-9.705,-5.920,145.574,28.218,-113.588
2860,-0.5078,0.3901,-0.7041,-3.174,-4.517,-4.456,145.607,28.323,-113.571
2870,-0.4971,0.4185,-0.7319,-5.920,3.479,-1.709,145.613,28.323,-113.533
2880,-0.4883,0.4521,-0.7397,-6.592,10.620,0.793,145.602,28.246,-113.472
2890,-0.4619,0.5249,-0.7642,-3.845,14.771,2.502,145.596,28.092,-113.401
2900,-0.4380,0.5767,-0.7842,4.333,15.747,2.747,145.657,27.911,-113.329
2910,-0.4370,0.5732,-0.7939,14.221,12.451,1.892,145.811,27.757,-113.264
2920,-0.4399,0.5454,-0.8188,18.982,6.897,0.183,146.025,27.664,-113.225
2930,-0.4448,0.5010,-0.8438,18.066,3.601,-1.099,146.250,27.609,-113.192
2940,-0.4556,0.4580,-0.8218,10.193,1.404,-1.221,146.409,27.587,-113.170
2950,-0.4673,0.4321,-0.7783,-1.526,-1.404,-1.038,146.437,27.603,-113.170
2960,-0.4580,0.4521,-0.7378,-13.123,-3.723,-0.488,146.321,27.642,-113.187
2970,-0.4507,0.5376,-0.7075,-19.592,-5.127,0.183,146.074,27.675,-113.220
2980,-0.4663,0.6021,-0.6929,-16.418,-3.906,0.854,145.827,27.697,-113.253
2990,-0.4751,0.6377,-0.7505,-6.958,0.305,0.732,145.695,27.669,-113.258
3000,-0.4771,0.6528,-0.9028,2.563,10.193,-1.099,145.739,27.548,-113.187
3010,-0.4702,0.6743,-0.9756,4.211,22.522,-3.113,145.854,27.318,-113.011
3020,-0.4404,0.6064,-0.8677,-1.160,25.635,-5.920,145.931,27.098,-112.797
3030,-0.4131,0.4287,-0.6289,-8.362,11.353,-10.010,145.920,27.070,-112.632
3040,-0.4253,0.2471,-0.3740,-19.409,-17.151,-13.977,145.745,27.455,-112.610
3050,-0.4683,0.2129,-0.2729,-26.917,-41.748,-15.808,145.388,28.147,-112.725
3060,-0.5137,0.2588,-0.3760,-24.475,-45.654,-10.925,145.058,28.779,-112.917
3070,-0.5645,0.4658,-0.7759,-12.573,-20.508,-0.854,144.915,28.982,-113.044
3080,-0.5767,0.7129,-1.1611,1.404,29.175,11.292,145.003,28.625,-112.956
3090,-0.5044,0.8608,-1.2188,11.169,65.186,20.691,145.228,27.971,-112.725
3100,-0.3994,0.8770,-1.1172,24.658,69.946,17.151,145.613,27.296,-112.434
3110,-0.3076,0.6631,-0.9556,32.959,52.673,3.113,146.080,26.845,-112.126
3120,-0.3174,0.4839,-0.8359,17.944,11.841,-10.254,146.338,26.807,-111.956
3130,-0.3716,0.4321,-0.7354,-7.751,-31.860,-19.897,146.255,27.180,-111.973
3140,-0.4321,0.3970,-0.6221,-23.560,-63.477,-23.926,145.937,27.839,-112.143
3150,-0.4893,0.3379,-0.5244,-24.292,-79.529,-21.057,145.552,28.619,-112.451
3160,-0.5376,0.3154,-0.4722,-16.968,-73.242,-13.367,145.217,29.295,-112.797
3170,-0.5425,0.2993,-0.4692,-6.042,-46.265,-3.784,145.025,29.702,-113.060
3180,-0.5503,0.3169,-0.5200,4.150,-13.428,6.226,144.998,29.773,-113.209
3190,-0.5415,0.4053,-0.5864,8.850,18.616,14.404,145.074,29.537,-113.225
3200,-0.5044,0.4932,-0.6714,13.611,43.274,19.043,145.267,29.075,-113.115
3211,-0.4683,0.5840,-0.7993,16.418,51.880,18.555,145.508,28.542,-112.956
3220,-0.4258,0.6445,-0.8984,14.771,46.692,14.282,145.739,28.076,-112.786
3230,-0.4072,0.6548,-0.9390,8.911,32.349,9.033,145.882,27.757,-112.665
3240,-0.4009,0.6641,-0.9521,0.061,15.320,3.906,145.909,27.609,-112.604
3250,-0.4229,0.6479,-0.9507,-7.751,-1.038,-1.343,145.838,27.625,-112.599
3260,-0.4521,0.6211,-0.9019,-13.611,-14.709,-5.249,145.679,27.779,-112.643
3270,-0.4727,0.5854,-0.8271,-14.526,-23.926,-6.775,145.492,28.015,-112.731
3280,-0.4814,0.5435,-0.7529,-11.353,-27.100,-6.958,145.327,28.273,-112.841
3290,-0.4810,0.4756,-0.6797,-5.127,-24.780,-6.714,145.234,28.515,-112.939
3300,-0.4751,0.4194,-0.6128,-0.244,-20.081,-6.042,145.195,28.718,-113.011
3310,-0.4717,0.3784,-0.5684,2.930,-14.465,-4.395,145.195,28.861,-113.066
3320,-0.4819,0.3560,-0.5654,4.944,-8.606,-1.587,145.228,28.938,-113.104
3330,-0.4941,0.3828,-0.5859,6.409,-1.892,2.014,145.278,28.943,-113.137
3340,-0.5054,0.4478,-0.6357,12.146,4.150,5.493,145.388,28.878,-113.165
3350,-0.5063,0.5142,-0.7148,21.790,10.071,7.629,145.602,28.751,-113.170
3360,-0.4922,0.5679,-0.7793,34.363,13.428,8.789,145.948,28.592,-113.165
3370,-0.4775,0.6001,-0.8286,43.884,12.024,9.949,146.376,28.438,-113.181
3380,-0.4546,0.6016,-0.8896,51.086,6.531,8.301,146.871,28.339,-113.220
3390,-0.4541,0.5474,-0.9121,55.725,-3.052,4.333,147.398,28.339,-113.280
3400,-0.4409,0.4736,-0.8921,49.377,-13.428,1.282,147.849,28.444,-113.373
3410,-0.4438,0.4180,-0.8545,32.715,-19.836,0.488,148.112,28.608,-113.500
3420,-0.4600,0.3940,-0.8115,11.169,-22.217,1.831,148.156,28.790,-113.648
3430,-0.4761,0.4370,-0.7563,-8.118,-22.278,2.625,147.997,28.965,-113.807
3440,-0.4932,0.4858,-0.7104,-17.090,-19.592,2.808,147.755,29.114,-113.956
3450,-0.4951,0.4971,-0.6523,-16.418,-14.160,3.845,147.530,29.213,-114.082
3460,-0.4858,0.4868,-0.6318,-11.230,-8.606,5.371,147.365,29.257,-114.186
3470,-0.4829,0.4712,-0.6572,-6.470,-3.479,5.676,147.266,29.257,-114.263
3480,-0.4868,0.4805,-0.7153,-6.348,1.465,5.554,147.178,29.213,-114.307
3490,-0.4746,0.5088,-0.7861,-8.423,6.226,5.432,147.090,29.136,-114.318
3500,-0.4653,0.5425,-0.8345,-12.268,10.437,5.493,146.970,29.015,-114.307
3510,-0.4648,0.5762,-0.8472,-15.625,11.902,5.371,146.827,28.889,-114.285
3520,-0.4692,0.5986,-0.8389,-16.479,10.315,4.150,146.673,28.779,-114.258
3530,-0.4785,0.5991,-0.8105,-14.526,6.042,1.709,146.541,28.718,-114.236
3540,-0.4795,0.5552,-0.7373,-10.254,0.061,-1.587,146.442,28.724,-114.219
3550,-0.4790,0.5181,-0.6650,-4.761,-7.080,-4.822,146.398,28.812,-114.219
3560,-0.4741,0.4766,-0.6504,0.793,-10.681,-6.653,146.404,28.938,-114.225
3570,-0.4819,0.4429,-0.6777,4.395,-8.606,-6.348,146.448,29.042,-114.219
3580,-0.4800,0.4414,-0.7314,4.395,-1.404,-4.089,146.508,29.081,-114.186
3590,-0.4687,0.4551,-0.7778,0.793,7.874,-0.854,146.574,29.004,-114.131
3600,-0.4702,0.4810,-0.7856,-5.432,14.343,1.465,146.580,28.856,-114.055
3610,-0.4761,0.4839,-0.7485,-11.047,16.235,1.892,146.514,28.702,-113.972
3620,-0.4932,0.4780,-0.7095,-13.550,13.000,0.854,146.409,28.603,-113.895
3630,-0.5068,0.4736,-0.6904,-13.428,8.606,-0.488,146.294,28.564,-113.840
3640,-0.5127,0.4692,-0.6836,-10.132,6.348,-1.221,146.212,28.548,-113.785
3650,-0.5054,0.4771,-0.7002,-4.578,7.202,-0.793,146.190,28.515,-113.736
3660,-0.4897,0.5039,-0.7407,1.770,11.169,0.427,146.234,28.422,-113.665
3670,-0.4629,0.5400,-0.7861,7.080,16.724,1.831,146.338,28.251,-113.577
3680,-0.4321,0.5596,-0.7979,8.789,20.325,2.625,146.459,28.026,-113.478
3690,-0.4272,0.5601,-0.7861,7.874,19.714,2.014,146.563,27.812,-113.373
3700,-0.4360,0.5469,-0.7695,4.211,15.320,0.183,146.629,27.653,-113.275
3711,-0.4614,0.5190,-0.7466,-0.793,8.972,-2.136,146.646,27.581,-113.203
3720,-0.4766,0.4897,-0.7295,-4.883,2.869,-3.845,146.613,27.587,-113.148
3730,-0.4951,0.4512,-0.7271,-6.226,-0.061,-4.395,146.585,27.636,-113.104
3740,-0.5020,0.4087,-0.7285,-5.066,0.732,-3.418,146.596,27.686,-113.071
3750,-0.4883,0.3809,-0.7437,-2.625,4.883,-1.526,146.651,27.680,-113.027
3760,-0.4478,0.3931,-0.8042,0.244,10.498,1.343,146.750,27.576,-112.972
3770,-0.4062,0.4458,-0.8682,2.258,16.113,5.005,146.860,27.361,-112.917
3780,-0.3843,0.5229,-0.8970,1.526,17.822,9.705,146.909,27.092,-112.901
3790,-0.3828,0.6025,-0.9111,-0.732,15.381,12.451,146.893,26.818,-112.923
3800,-0.3945,0.6367,-0.8975,-1.282,9.277,10.681,146.838,26.614,-112.967
3810,-0.4194,0.5903,-0.8228,-2.808,-0.977,5.188,146.761,26.554,-113.022
3820,-0.4390,0.5347,-0.7427,-6.775,-12.451,-1.404,146.640,26.653,-113.088
3830,-0.4604,0.4854,-0.7031,-12.024,-20.447,-6.958,146.481,26.878,-113.148
3840,-0.4741,0.4546,-0.6890,-14.954,-22.949,-9.583,146.310,27.153,-113.198
3850,-0.4678,0.4517,-0.6758,-14.465,-18.005,-8.179,146.151,27.372,-113.236
3860,-0.4614,0.4556,-0.6699,-10.010,-7.690,-3.296,146.041,27.477,-113.253
3870,-0.4551,0.5283,-0.7051,-4.150,3.540,2.197,145.970,27.433,-113.253
3880,-0.4458,0.5869,-0.7373,3.052,13.428,6.287,145.964,27.268,-113.225
3890,-0.4434,0.5947,-0.7363,9.460,17.273,7.507,146.030,27.059,-113.187
3900,-0.4634,0.5645,-0.7466,12.207,14.343,5.005,146.140,26.911,-113.143
3913,-0.4854,0.5215,-0.7676,9.644,8.972,0.061,146.255,26.840,-113.088
3920,-0.4912,0.5044,-0.7847,1.892,3.662,-4.150,146.310,26.845,-113.027
3930,-0.4844,0.4951,-0.7778,-5.615,-0.061,-5.676,146.294,26.884,-112.972
3940,-0.4697,0.5400,-0.8037,-8.667,-1.038,-5.310,146.223,26.911,-112.928
3950,-0.4512,0.6001,-0.8472,-5.554,2.014,-4.395,146.179,26.884,-112.874
3960,-0.4316,0.6138,-0.8438,1.465,5.371,-2.563,146.195,26.812,-112.819
3970,-0.4185,0.5776,-0.8091,7.812,5.798,-1.587,146.277,26.735,-112.769
3980,-0.4141,0.4863,-0.7510,11.414,1.770,-3.052,146.415,26.713,-112.731
3990,-0.4292,0.3516,-0.6694,8.606,-8.301,-5.676,146.563,26.845,-112.725
4000,-0.4590,0.3042,-0.6724,-0.549,-18.433,-7.141,146.624,27.087,-112.775
4010,-0.4937,0.4551,-0.8789,-9.155,-18.494,-5.615,146.569,27.263,-112.835
4021,-0.5049,0.6592,-1.1138,-11.597,0.549,-1.099,146.486,27.208,-112.824
4030,-0.4541,0.7944,-1.0957,-8.789,22.827,3.967,146.420,26.911,-112.720
4040,-0.3628,0.7637,-0.8853,0.305,29.175,3.357,146.420,26.554,-112.566
4050,-0.3159,0.4873,-0.5708,9.216,13.916,-3.601,146.497,26.422,-112.451
4060,-0.3818,0.2603,-0.3247,2.991,-23.071,-11.902,146.459,26.840,-112.478
4070,-0.4927,0.0371,-0.1367,-9.949,-56.152,-16.357,146.272,27.394,-112.676
4080,-0.6040,-0.1553,-0.0479,-17.761,-71.228,-13.550,-107.128,28.065,-112.994
4090,-0.6309,0.0098,-0.2178,-22.461,-56.519,-2.625,177.429,28.207,-112.374
4100,-0.6084,0.3281,-0.5884,-14.648,-6.653,16.968,177.193,28.262,-112.566
4110,-0.5278,0.6396,-0.9253,1.953,53.650,38.025,177.023,27.708,-112.967
4120,-0.4380,0.9375,-1.1113,20.325,92.712,47.119,177.001,26.757,-113.445
4130,-0.3159,1.0269,-1.2368,42.114,103.699,37.598,177.259,25.703,-113.807
4140,-0.2495,0.9512,-1.3188,50.354,86.487,18.005,177.698,24.829,-113.961
4150,-0.2637,0.8687,-1.3276,37.537,45.654,-1.221,178.088,24.373,-113.928
4160,-0.2954,0.7666,-1.2129,12.207,-3.113,-13.672,178.270,24.412,-113.780
4170,-0.3789,0.6094,-0.9990,-12.695,-48.279,-19.897,178.226,24.901,-113.577
4180,-0.4424,0.5103,-0.7593,-28.931,-77.026,-22.034,178.028,25.675,-113.357
4190,-0.4580,0.4092,-0.5640,-28.503,-83.252,-21.790,177.836,26.516,-113.148
4200,-0.4785,0.2974,-0.4272,-14.954,-72.571,-19.592,177.770,27.246,-112.961
4211,-0.4976,0.2495,-0.3999,0.000,-50.232,-15.198,177.836,27.757,-112.813
4220,-0.5234,0.2329,-0.4341,11.902,-21.423,-8.118,177.995,27.971,-112.731
4230,-0.5127,0.2656,-0.5356,14.771,6.775,1.160,178.138,27.905,-112.742
4240,-0.4795,0.3906,-0.6904,10.681,29.358,8.728,178.204,27.609,-112.830
4250,-0.4565,0.5005,-0.8057,6.104,41.138,12.939,178.204,27.197,-112.961
4260,-0.4346,0.5527,-0.8530,2.197,43.091,13.733,178.160,26.757,-113.099
4270,-0.4316,0.5469,-0.8491,-0.671,35.095,10.986,178.105,26.406,-113.209
4280,-0.4307,0.5552,-0.8574,-4.456,20.203,7.080,178.028,26.202,-113.280
4290,-0.4434,0.5513,-0.8574,-7.629,3.601,3.601,177.935,26.164,-113.318
4300,-0.4590,0.5093,-0.8457,-6.775,-11.292,1.526,177.858,26.274,-113.340
4311,-0.4614,0.4878,-0.8208,-3.296,-19.165,0.366,177.819,26.466,-113.351
4321,-0.4609,0.4736,-0.7759,-0.793,-21.118,1.343,177.803,26.680,-113.373
4330,-0.4355,0.4902,-0.7441,0.671,-18.616,2.930,177.792,26.862,-113.417
4340,-0.4238,0.5093,-0.7187,2.625,-13.184,3.723,177.797,26.993,-113.467
4350,-0.4375,0.5190,-0.7012,4.944,-7.263,4.333,177.819,27.065,-113.516
4360,-0.4604,0.5293,-0.6924,6.958,-1.282,4.456,177.869,27.076,-113.566
4370,-0.4697,0.5283,-0.7046,7.263,4.395,4.700,177.918,27.032,-113.615
4380,-0.4751,0.5288,-0.7466,5.005,8.423,4.517,177.946,26.944,-113.665
4390,-0.4663,0.5312,-0.7778,0.854,10.437,4.333,177.935,26.840,-113.708
4401,-0.4536,0.5166,-0.7656,-4.517,9.277,3.784,177.869,26.741,-113.747
4411,-0.4429,0.5254,-0.7793,-9.277,5.798,2.075,177.770,26.686,-113.769
4421,-0.4453,0.5732,-0.8022,-11.536,3.601,-0.305,177.654,26.647,-113.763
4431,-0.4487,0.5737,-0.8076,-8.972,2.869,-1.282,177.572,26.620,-113.747
4441,-0.4521,0.5679,-0.8149,-3.967,1.953,-1.892,177.545,26.603,-113.725
4451,-0.4438,0.5439,-0.7949,0.671,-0.061,-2.502,177.561,26.603,-113.698
4461,-0.4380,0.5083,-0.7607,3.479,-3.662,-2.808,177.610,26.642,-113.670
4471,-0.4409,0.4492,-0.7085,4.089,-7.874,-2.747,177.665,26.719,-113.643
4481,-0.4492,0.3916,-0.6636,2.197,-12.451,-2.136,177.693,26.845,-113.621
4491,-0.4683,0.3589,-0.6455,-2.686,-12.634,-0.488,177.665,26.971,-113.621
4501,-0.4834,0.3599,-0.6626,-8.057,-5.676,2.258,177.572,27.026,-113.654
4511,-0.4756,0.4292,-0.7378,-10.132,6.226,5.188,177.446,26.966,-113.708
4521,-0.4565,0.4595,-0.7803,-7.751,18.738,8.179,177.330,26.774,-113.791
4531,-0.4263,0.5391,-0.8462,-5.249,26.428,10.132,177.237,26.505,-113.890
4541,-0.3882,0.5391,-0.8267,-3.540,28.870,9.338,177.160,26.213,-113.978
4551,-0.4150,0.4053,-0.6650,-7.202,17.151,7.080,177.056,26.038,-114.044
4561,-0.4331,0.3672,-0.5698,-20.874,-1.953,4.822,176.825,26.054,-114.099
4571,-0.4810,0.3198,-0.5112,-31.799,-15.442,4.700,176.479,26.208,-114.164
4581,-0.5254,0.4438,-0.6382,-35.950,-14.343,8.667,176.072,26.345,-114.269
4591,-0.5098,0.6812,-0.8960,-27.893,9.949,15.259,175.721,26.235,-114.434
4601,-0.4512,0.8340,-1.0269,-9.216,39.917,21.545,175.540,25.818,-114.637
4610,-0.3569,0.9746,-1.1304,8.972,53.772,20.874,175.551,25.269,-114.824
4620,-0.2607,1.0518,-1.2070,22.095,50.537,11.841,175.732,24.752,-114.911
4630,-0.2495,0.9346,-1.0688,23.621,27.466,-1.221,175.984,24.483,-114.873
4641,-0.3286,0.6978,-0.8423,14.404,-9.033,-13.977,176.188,24.582,-114.725
4651,-0.4341,0.4492,-0.6104,-1.892,-44.678,-23.804,176.265,25.043,-114.500
4661,-0.5117,0.2744,-0.4331,-16.113,-68.115,-27.954,176.215,25.741,-114.241
4671,-0.5591,0.1475,-0.3423,-22.766,-70.496,-25.085,176.083,26.461,-114.016
4681,-0.5601,0.1255,-0.3232,-21.423,-51.270,-16.846,175.935,26.982,-113.862
4691,-0.5161,0.1958,-0.3965,-12.207,-18.005,-5.310,175.836,27.169,-113.818
4701,-0.4731,0.3203,-0.5537,3.357,16.296,6.897,175.836,26.999,-113.884
4711,-0.4287,0.5088,-0.7417,16.663,40.833,15.991,175.941,26.581,-114.027
4721,-0.3892,0.6421,-0.9258,25.635,51.758,19.470,176.116,26.049,-114.208
4731,-0.3716,0.7056,-1.0474,27.405,49.988,18.005,176.320,25.538,-114.368
4741,-0.3618,0.6782,-1.0850,24.231,39.063,12.329,176.512,25.142,-114.478
4751,-0.3628,0.6323,-1.0811,12.939,20.691,5.615,176.622,24.933,-114.527
4761,-0.3862,0.5923,-1.0400,-4.150,-1.282,0.061,176.583,24.944,-114.527
4771,-0.4155,0.5737,-0.9443,-19.836,-18.677,-3.540,176.396,25.131,-114.500
4781,-0.4175,0.5620,-0.8252,-25.635,-27.344,-5.127,176.155,25.411,-114.461
4791,-0.4004,0.5366,-0.7383,-18.616,-30.029,-4.761,175.979,25.714,-114.434
4801,-0.4087,0.5059,-0.6963,-5.371,-27.832,-1.709,175.924,25.994,-114.434
4811,-0.4302,0.4912,-0.6665,5.371,-22.034,2.380,175.963,26.208,-114.478
4821,-0.4517,0.4453,-0.6035,11.353,-15.259,5.371,176.039,26.356,-114.549
4831,-0.4741,0.4058,-0.5615,11.169,-10.193,6.836,176.116,26.455,-114.631
4841,-0.4829,0.4062,-0.5527,5.798,-4.028,6.470,176.138,26.488,-114.708
4851,-0.4907,0.4033,-0.5771,-0.122,3.296,5.371,176.116,26.455,-114.769
4861,-0.4775,0.4492,-0.6440,-6.165,10.559,4.517,176.034,26.345,-114.807
4871,-0.4609,0.5435,-0.7500,-8.911,15.930,4.395,175.930,26.186,-114.846
4881,-0.4297,0.6592,-0.8501,-6.775,20.569,5.676,175.842,25.977,-114.895
4891,-0.4028,0.7261,-0.8813,-1.038,23.315,6.958,175.803,25.735,-114.950
4901,-0.3867,0.7358,-0.8672,5.188,21.912,6.409,175.831,25.516,-115.005
4911,-0.3940,0.6743,-0.8164,9.888,15.625,3.052,175.924,25.356,-115.027
4921,-0.4116,0.5757,-0.7539,10.010,7.324,-1.770,176.034,25.285,-114.999
4931,-0.4346,0.4995,-0.7197,7.874,1.587,-6.836,176.144,25.274,-114.922
4941,-0.4434,0.4609,-0.7300,2.686,-1.343,-9.216,176.215,25.291,-114.824
4951,-0.4390,0.4810,-0.7646,-3.113,-1.587,-8.423,176.221,25.312,-114.730
4961,-0.4302,0.5698,-0.8608,-4.150,1.099,-6.226,176.210,25.307,-114.659
4971,-0.4033,0.6880,-0.9756,-0.122,8.728,-4.395,176.232,25.225,-114.604
4981,-0.3818,0.7148,-0.9180,3.906,15.259,-4.211,176.298,25.071,-114.549
4991,-0.3926,0.6143,-0.7642,7.141,10.071,-6.714,176.402,24.977,-114.467
5001,-0.4150,0.4541,-0.6270,4.089,-6.104,-10.742,176.490,25.043,-114.351
5011,-0.4409,0.3271,-0.5303,-4.822,-22.644,-13.977,176.501,25.280,-114.214
5021,-0.4702,0.2534,-0.5244,-12.634,-33.020,-13.672,176.429,25.615,-114.088
5031,-0.4824,0.3257,-0.6265,-17.822,-29.907,-7.874,176.281,25.922,-114.022
5041,-0.4604,0.5195,-0.8101,-13.977,-11.475,0.732,176.133,26.032,-114.038
5051,-0.4185,0.6582,-0.8926,-0.916,11.719,7.446,176.094,25.911,-114.109
5061,-0.3779,0.6768,-0.8457,13.550,23.682,8.911,176.193,25.670,-114.192
5071,-0.3862,0.5488,-0.6982,20.569,17.334,4.700,176.380,25.494,-114.230
5081,-0.4336,0.4155,-0.5884,13.550,0.366,-0.854,176.523,25.494,-114.219
5091,-0.4863,0.3159,-0.5654,-1.465,-16.357,-3.967,176.523,25.659,-114.186
5101,-0.5176,0.3286,-0.6616,-14.465,-22.339,-2.136,176.380,25.878,-114.181
5111,-0.4990,0.5190,-0.8711,-21.851,-12.085,2.380,176.144,25.999,-114.214
5121,-0.4502,0.7124,-1.0366,-18.372,8.362,7.629,175.622,25.851,-114.291
5131,-0.3740,0.8789,-1.2505,-7.507,25.513,10.193,175.507,25.587,-114.384
5141,-0.2993,0.9810,-1.3223,2.197,34.790,6.653,175.512,25.236,-114.428
5151,-0.2832,0.8472,-1.0781,7.507,20.508,-1.892,175.605,25.032,-114.390
5161,-0.3174,0.5249,-0.7119,5.371,-16.785,-11.658,175.704,25.208,-114.274
5171,-0.3896,0.2842,-0.4482,-10.498,-58.105,-19.836,175.671,25.801,-114.104
5181,-0.4868,0.1694,-0.3120,-25.452,-83.069,-22.278,175.496,26.647,-113.928
5191,-0.5679,0.1309,-0.2710,-32.166,-80.261,-15.930,175.221,27.460,-113.818
5201,-0.6050,0.1997,-0.3667,-26.855,-52.490,-4.944,174.957,27.988,-113.813
5211,-0.5420,0.3599,-0.5400,-14.526,-7.324,7.935,174.765,28.054,-113.912
5221,-0.4658,0.5522,-0.7109,0.732,34.241,18.005,174.694,27.697,-114.077
5231,-0.3979,0.7275,-0.8403,12.451,56.030,20.142,174.743,27.120,-114.247
5241,-0.3745,0.8223,-0.9185,21.484,55.359,15.015,174.902,26.554,-114.357
5251,-0.3711,0.8203,-0.9678,24.597,38.757,8.789,175.122,26.158,-114.417
5261,-0.3877,0.7217,-0.9648,19.592,12.573,2.808,175.309,26.032,-114.434
5271,-0.4106,0.5767,-0.8691,6.287,-15.015,-3.052,175.386,26.186,-114.417
5281,-0.4253,0.4644,-0.7178,-9.583,-32.898,-7.446,175.309,26.521,-114.362
5291,-0.4639,0.4082,-0.6138,-18.494,-37.720,-9.338,175.155,26.906,-114.291
5301,-0.5049,0.4111,-0.5815,-17.212,-29.114,-7.629,175.012,27.197,-114.236
5311,-0.5107,0.4341,-0.6182,-9.338,-10.681,-2.380,174.924,27.307,-114.219
5321,-0.4814,0.5107,-0.6714,-0.671,9.705,3.540,174.902,27.208,-114.247
5331,-0.4434,0.5820,-0.7212,6.836,23.560,7.141,174.946,26.966,-114.307
5341,-0.4253,0.6133,-0.8076,12.329,26.306,6.348,175.051,26.697,-114.351
5351,-0.4395,0.5967,-0.8560,12.756,19.226,2.869,175.172,26.505,-114.362
5361,-0.4541,0.5308,-0.8486,7.385,6.897,-1.099,175.254,26.439,-114.346
5371,-0.4614,0.4951,-0.8398,-2.258,-4.883,-5.127,175.254,26.488,-114.291
5381,-0.4478,0.4614,-0.7695,-13.306,-12.329,-6.897,175.150,26.620,-114.225
5391,-0.4390,0.4604,-0.7041,-20.386,-15.991,-5.493,174.968,26.785,-114.181
5401,-0.4492,0.4946,-0.6958,-17.883,-11.719,-2.136,174.792,26.900,-114.170
5411,-0.4487,0.5361,-0.7080,-8.057,-1.221,2.014,174.705,26.911,-114.192
5421,-0.4121,0.6118,-0.7661,2.502,9.827,5.737,174.705,26.807,-114.247
5431,-0.3979,0.6274,-0.7988,9.399,17.517,6.836,174.771,26.631,-114.302
5441,-0.4238,0.6094,-0.7778,8.179,18.188,5.310,174.836,26.444,-114.346
5451,-0.4438,0.5430,-0.7241,2.808,13.733,1.709,174.858,26.301,-114.351
5461,-0.4609,0.4731,-0.6523,-5.981,3.418,-1.831,174.809,26.274,-114.324
5471,-0.4800,0.4731,-0.6401,-15.442,-6.042,-2.747,174.666,26.334,-114.302
5481,-0.4863,0.5420,-0.6978,-17.578,-5.676,-1.343,174.496,26.389,-114.291
5491,-0.4771,0.5942,-0.7471,-10.620,3.052,1.099,174.386,26.362,-114.302
5501,-0.4360,0.6133,-0.7925,0.183,13.489,2.563,174.380,26.224,-114.313
5511,-0.3999,0.5947,-0.7935,7.568,19.531,2.136,174.457,26.027,-114.318
5521,-0.3975,0.5410,-0.7642,8.362,17.212,0.854,174.545,25.856,-114.307
5531,-0.4272,0.4829,-0.7192,3.113,9.155,-0.732,174.584,25.763,-114.291
5541,-0.4526,0.4077,-0.6338,-5.249,-0.610,-0.671,174.534,25.774,-114.285
5551,-0.4673,0.3569,-0.5625,-12.329,-8.728,1.160,174.402,25.856,-114.307
5561,-0.4824,0.3462,-0.5762,-15.381,-11.047,4.822,174.216,25.961,-114.373
5571,-0.4648,0.4014,-0.7026,-17.517,-2.869,10.437,173.990,25.983,-114.489
5581,-0.4248,0.5845,-0.9341,-18.372,15.015,16.479,173.732,25.812,-114.653
5591,-0.3901,0.7490,-1.0796,-17.395,34.607,21.057,173.480,25.444,-114.846
5601,-0.3169,0.8940,-1.1226,-15.564,41.687,21.667,173.243,25.010,-115.032
5611,-0.2944,0.8521,-0.9985,-11.414,29.907,16.968,173.068,24.692,-115.181
5621,-0.3486,0.7222,-0.8140,-10.132,2.869,7.751,172.930,24.653,-115.258
5631,-0.3916,0.5127,-0.5728,-12.390,-26.917,-1.404,172.798,24.922,-115.280
5641,-0.4687,0.2754,-0.3413,-16.663,-52.673,-5.737,172.310,25.664,-115.291
5651,-0.5332,0.2075,-0.2910,-20.142,-62.744,-3.784,171.815,26.592,-115.340
5661,-0.5479,0.2881,-0.4399,-17.212,-47.668,4.150,171.337,27.252,-115.466
5671,-0.5127,0.5200,-0.6743,-7.996,-10.925,13.489,170.892,27.372,-115.631
5681,-0.4634,0.7466,-0.8545,7.385,28.992,19.653,170.568,27.010,-115.801
5691,-0.3857,0.9624,-1.0327,20.386,53.772,20.203,170.381,26.334,-115.922
5701,-0.2979,1.0317,-1.0703,28.320,55.847,12.573,170.299,25.620,-115.961
5712,-0.2822,0.9375,-0.9912,28.564,33.081,-0.427,170.277,25.159,-115.889
5721,-0.3437,0.7261,-0.8345,15.503,-3.601,-13.489,170.173,25.137,-115.752
5731,-0.4150,0.5640,-0.6812,-7.446,-39.185,-22.705,169.876,25.554,-115.576
5741,-0.4844,0.4316,-0.5659,-24.292,-60.364,-24.963,169.431,26.274,-115.422
5751,-0.5303,0.3320,-0.4722,-28.198,-58.655,-20.630,168.953,27.048,-115.318
5761,-0.5151,0.2734,-0.3965,-20.569,-39.978,-13.489,168.541,27.658,-115.252
5771,-0.5020,0.2715,-0.3828,-4.456,-13.367,-5.188,168.272,27.993,-115.225
5781,-0.4780,0.3027,-0.4536,13.428,13.428,4.822,168.173,27.982,-115.252
5791,-0.4395,0.3984,-0.6113,27.222,33.508,13.062,168.201,27.664,-115.318
5801,-0.4009,0.5083,-0.7915,32.532,45.410,17.761,168.272,27.142,-115.406
5811,-0.3843,0.6157,-0.9438,30.090,47.119,18.738,168.311,26.565,-115.505
5821,-0.3613,0.7368,-1.1416,22.156,42.358,16.296,168.278,26.005,-115.587
5831,-0.3408,0.7954,-1.2354,9.949,32.715,11.108,168.146,25.538,-115.637
5841,-0.3442,0.7764,-1.1704,-2.808,16.113,3.967,167.899,25.252,-115.642
5851,-0.3481,0.7231,-1.0103,-14.282,-4.456,-3.723,167.536,25.208,-115.615
5861,-0.3677,0.6050,-0.7759,-20.203,-25.757,-9.460,167.097,25.428,-115.571
5871,-0.4087,0.5332,-0.5947,-20.386,-43.030,-11.353,166.613,25.889,-115.554
5881,-0.4453,0.4878,-0.4912,-13.916,-50.049,-8.972,166.146,26.461,-115.587
5891,-0.4717,0.4360,-0.4434,-2.319,-43.457,-4.272,165.789,26.993,-115.659
5901,-0.4932,0.4233,-0.4414,7.568,-24.902,0.488,165.531,27.350,-115.730
5914,-0.4922,0.4502,-0.5044,14.038,-1.282,4.822,165.372,27.438,-115.790
5921,-0.4639,0.5063,-0.5918,16.541,19.531,8.789,165.262,27.263,-115.829
5931,-0.4453,0.5415,-0.6636,15.869,31.494,10.376,165.163,26.938,-115.851
5941,-0.4443,0.5732,-0.7187,11.169,33.264,9.338,165.031,26.581,-115.856
5951,-0.4258,0.6309,-0.7827,3.174,27.588,7.812,164.822,26.263,-115.862
5961,-0.4165,0.6826,-0.8467,-3.113,19.165,5.920,164.553,26.010,-115.867
5971,-0.3960,0.7397,-0.9360,-4.578,13.245,3.784,164.279,25.801,-115.873
5981,-0.3628,0.7544,-0.9888,-1.465,11.230,0.977,164.059,25.593,-115.845
5991,-0.3638,0.7114,-0.9712,1.709,8.850,-2.136,163.894,25.428,-115.796
6001,-0.3574,0.6372,-0.9077,1.465,3.662,-5.554,163.746,25.334,-115.724
6011,-0.3823,0.5088,-0.7905,-0.854,-6.042,-8.911,163.603,25.384,-115.653
6021,-0.4312,0.4268,-0.6885,-6.165,-17.761,-11.292,163.416,25.609,-115.587
6031,-0.4512,0.3965,-0.6094,-10.193,-25.879,-10.620,163.163,25.950,-115.554
6041,-0.4346,0.3892,-0.5205,-8.484,-27.283,-6.714,162.872,26.301,-115.571
6051,-0.4248,0.4209,-0.5059,-0.916,-22.339,-0.610,162.609,26.581,-115.637
6061,-0.4478,0.4551,-0.5552,8.545,-10.376,6.042,162.433,26.713,-115.735
6071,-0.4487,0.4985,-0.6689,15.747,7.812,10.071,162.361,26.625,-115.818
6081,-0.4204,0.5508,-0.7881,15.381,25.452,11.292,162.323,26.323,-115.851
6091,-0.4053,0.6011,-0.8696,6.409,32.166,10.193,162.219,25.933,-115.851
6101,-0.4102,0.6880,-0.9370,-6.165,28.503,7.751,161.977,25.576,-115.840
6111,-0.4185,0.7314,-0.9224,-14.282,17.212,3.906,161.642,25.345,-115.818
6121,-0.4028,0.7129,-0.8325,-16.724,0.610,-1.099,161.257,25.291,-115.807
6131,-0.3721,0.6670,-0.7280,-14.526,-15.930,-5.920,160.878,25.411,-115.801
6141,-0.4043,0.6147,-0.6777,-7.324,-26.367,-9.216,160.576,25.675,-115.801
6151,-0.4341,0.5605,-0.6387,0.854,-24.536,-9.033,160.367,25.944,-115.796
6161,-0.4277,0.5425,-0.6875,6.348,-14.099,-7.080,160.252,26.104,-115.774
6171,-0.4189,0.5728,-0.7964,6.653,1.953,-5.127,160.186,26.071,-115.714
6181,-0.4243,0.6250,-0.8452,0.732,14.954,-4.578,160.071,25.906,-115.609
6191,-0.4214,0.6318,-0.8252,-6.287,18.066,-5.859,159.890,25.719,-115.477
6201,-0.4355,0.5791,-0.7378,-10.193,9.460,-9.033,159.664,25.653,-115.351
6212,-0.4482,0.5044,-0.6357,-11.841,-5.554,-11.719,159.412,25.779,-115.247
6221,-0.4351,0.3740,-0.5000,-10.193,-19.287,-11.841,159.170,26.093,-115.203
6231,-0.4390,0.2944,-0.4971,-7.263,-27.466,-9.338,158.994,26.488,-115.214
6241,-0.4653,0.3672,-0.6069,-5.676,-19.592,-3.418,158.818,26.752,-115.258
6251,-0.4663,0.4648,-0.6826,-1.770,0.977,5.066,158.648,26.752,-115.307
6261,-0.4224,0.6685,-0.9209,3.601,23.621,11.963,158.522,26.422,-115.334
6271,-0.3652,0.8955,-1.1641,7.874,44.067,13.245,158.456,25.845,-115.291
6281,-0.3364,0.9590,-1.1646,12.085,48.096,8.179,158.626,25.367,-115.181
6291,-0.3257,0.8633,-1.0630,12.756,31.250,-2.197,158.818,25.087,-115.032
6301,-0.3218,0.6816,-0.8452,5.615,-0.610,-13.611,158.934,25.142,-114.890
6311,-0.3506,0.3994,-0.5269,-7.446,-41.077,-21.057,158.884,25.598,-114.840
6321,-0.4707,0.2485,-0.3701,-18.188,-71.899,-22.339,158.676,26.351,-114.895
6331,-0.5518,0.1855,-0.3228,-21.484,-73.547,-14.587,158.395,27.087,-115.043
6341,-0.5884,0.1826,-0.3018,-15.137,-49.194,-2.380,158.165,27.554,-115.219
6351,-0.5508,0.2803,-0.3853,-1.892,-9.766,8.545,158.082,27.614,-115.351
6361,-0.4771,0.4487,-0.5908,14.160,29.358,16.052,158.203,27.279,-115.395
6371,-0.4307,0.6431,-0.8398,24.536,54.810,18.921,158.467,26.702,-115.362
6381,-0.3853,0.8130,-1.0542,28.198,61.035,17.822,158.774,26.071,-115.296
6391,-0.3223,0.9121,-1.1597,23.743,49.561,13.428,159.038,25.560,-115.236
6401,-0.3003,0.8828,-1.1147,12.451,23.315,5.188,159.181,25.323,-115.197
6411,-0.3335,0.8027,-1.0015,-4.333,-8.423,-5.371,159.148,25.422,-115.175
6421,-0.3823,0.6855,-0.8452,-20.813,-34.424,-14.038,158.945,25.790,-115.170
6431,-0.4419,0.5298,-0.6548,-29.175,-48.462,-18.188,158.648,26.312,-115.170
6441,-0.4761,0.4102,-0.5122,-27.649,-47.363,-17.334,158.368,26.812,-115.186
6451,-0.5039,0.3433,-0.4487,-16.907,-34.851,-12.695,158.192,27.186,-115.197
6461,-0.4961,0.3262,-0.4292,-2.625,-14.282,-5.737,158.165,27.339,-115.197
6471,-0.4824,0.3677,-0.4922,11.047,7.202,2.014,158.280,27.263,-115.186
6481,-0.4448,0.4697,-0.6299,19.653,25.391,8.911,158.483,26.993,-115.175
6491,-0.4277,0.5391,-0.7222,21.667,34.668,12.695,158.703,26.625,-115.164
6501,-0.4258,0.6021,-0.8330,17.517,34.790,12.817,158.884,26.257,-115.159
6511,-0.4033,0.6743,-0.9473,8.545,31.128,9.827,158.978,25.928,-115.131
6521,-0.3877,0.6577,-0.9253,-2.502,22.583,5.127,158.972,25.703,-115.098
6531,-0.3965,0.6318,-0.8735,-14.038,8.850,0.671,158.840,25.615,-115.071
6541,-0.4077,0.6318,-0.8384,-21.667,-4.639,-2.441,158.626,25.670,-115.060
6551,-0.4224,0.6147,-0.7803,-19.287,-13.062,-3.357,158.428,25.801,-115.082
6561,-0.4180,0.5972,-0.7490,-9.583,-16.663,-3.174,158.318,25.966,-115.115
6571,-0.4043,0.6074,-0.7651,1.282,-15.442,-2.625,158.313,26.120,-115.153
6581,-0.4033,0.5781,-0.7148,8.545,-11.780,-2.258,158.390,26.241,-115.175
6591,-0.4136,0.5381,-0.6504,9.399,-10.742,-2.258,158.472,26.345,-115.197
6601,-0.4302,0.5073,-0.6147,4.395,-11.108,-2.380,158.505,26.461,-115.219
6611,-0.4482,0.4687,-0.5850,-2.136,-10.315,-3.235,158.483,26.565,-115.225
6621,-0.4687,0.4595,-0.5879,-8.240,-7.935,-3.113,158.401,26.653,-115.225
6631,-0.4614,0.4863,-0.6436,-11.780,-3.479,-1.404,158.280,26.691,-115.225
6641,-0.4492,0.5269,-0.6968,-12.878,2.197,0.793,158.154,26.669,-115.225
6651,-0.4438,0.5742,-0.7358,-11.902,6.653,3.052,158.033,26.592,-115.230
6661,-0.4233,0.6182,-0.7705,-7.996,8.118,4.517,157.945,26.499,-115.241
6671,-0.4077,0.6123,-0.7573,-3.662,5.310,4.761,157.901,26.433,-115.269
6681,-0.4233,0.6074,-0.7568,-0.183,0.916,4.150,157.879,26.411,-115.307
6691,-0.4419,0.6045,-0.7959,1.953,-0.122,3.296,157.885,26.400,-115.345
6701,-0.4390,0.6025,-0.8335,2.258,2.808,2.747,157.901,26.362,-115.362
6712,-0.4214,0.5977,-0.8350,-0.122,6.226,1.526,157.901,26.301,-115.351
6721,-0.4116,0.5952,-0.8164,-4.639,5.981,-0.305,157.868,26.246,-115.323
6731,-0.4097,0.6064,-0.7588,-8.606,1.282,-2.014,157.797,26.241,-115.296
6741,-0.4121,0.6021,-0.7026,-7.874,-5.737,-2.502,157.714,26.301,-115.291
6751,-0.4346,0.5703,-0.6543,-2.686,-10.071,-1.526,157.676,26.400,-115.318
6761,-0.4424,0.5430,-0.6323,2.747,-9.888,0.183,157.687,26.494,-115.362
6771,-0.4375,0.5298,-0.6504,6.958,-5.005,1.648,157.736,26.532,-115.400
6781,-0.4370,0.5801,-0.7603,8.057,2.747,2.869,157.659,26.477,-115.422
6791,-0.4155,0.7397,-1.0103,5.615,14.099,3.479,157.588,26.252,-115.395
6801,-0.3999,0.8315,-1.0674,0.793,26.367,2.258,157.478,25.906,-115.307
6811,-0.3804,0.7305,-0.8345,-5.188,22.705,-2.869,157.297,25.642,-115.181
6821,-0.3950,0.3706,-0.4233,-12.146,-4.761,-12.573,157.033,25.823,-115.071
6831,-0.4771,0.2432,-0.2021,-26.306,-43.335,-21.362,156.517,26.609,-115.043
6841,-0.5293,0.2603,-0.2114,-34.363,-63.171,-19.287,155.863,27.570,-115.126
6851,-0.5283,0.4614,-0.5928,-23.804,-44.006,-5.859,155.424,28.065,-115.269
6861,-0.4829,0.7539,-0.9185,-5.676,11.597,8.789,155.204,27.867,-115.307
6871,-0.4199,0.8940,-0.9492,17.700,60.059,18.066,155.242,27.153,-115.203
6881,-0.3501,0.8555,-0.9751,40.039,74.280,16.296,155.555,26.296,-115.021
6891,-0.2817,0.7817,-1.0654,49.316,62.866,4.883,156.028,25.565,-114.780
6901,-0.3335,0.6685,-1.0972,38.330,29.297,-9.277,156.434,25.230,-114.554
6911,-0.4023,0.5977,-1.0063,12.390,-9.888,-17.151,156.539,25.323,-114.423
6921,-0.4180,0.5225,-0.8379,-11.597,-40.894,-18.738,156.341,25.746,-114.417
6931,-0.3994,0.4390,-0.6304,-22.156,-60.181,-17.029,155.973,26.378,-114.510
6941,-0.4185,0.3511,-0.4595,-22.278,-66.101,-12.939,155.544,27.120,-114.681
6951,-0.4678,0.2891,-0.3726,-13.733,-56.030,-7.629,155.193,27.834,-114.862
6961,-0.5127,0.2158,-0.3149,0.916,-35.706,-1.160,155.028,28.416,-115.021
6971,-0.5396,0.2607,-0.3398,11.414,-12.878,6.897,154.957,28.735,-115.153
6981,-0.5322,0.3569,-0.4253,17.578,10.376,15.503,154.929,28.724,-115.263
6991,-0.5176,0.5200,-0.6182,20.264,30.518,22.583,154.940,28.394,-115.345
7001,-0.4526,0.7476,-0.9067,17.761,48.889,26.184,154.951,27.773,-115.384
7011,-0.3984,0.8882,-1.0552,13.123,58.350,22.705,154.951,27.043,-115.334
7021,-0.3564,0.9004,-1.0767,8.240,53.589,13.550,154.940,26.373,-115.219
7031,-0.3437,0.8633,-1.0430,-0.916,33.813,2.502,154.841,25.939,-115.082
7041,-0.3350,0.7876,-0.9150,-12.085,6.836,-7.263,154.616,25.807,-114.977
7051,-0.3779,0.6494,-0.7334,-17.517,-19.531,-13.916,154.297,25.994,-114.933
7061,-0.4434,0.5430,-0.6172,-15.564,-36.621,-15.930,153.979,26.411,-114.950
7071,-0.4717,0.4692,-0.5532,-7.202,-39.307,-13.000,153.743,26.884,-115.010
7081,-0.4775,0.3921,-0.5059,3.418,-29.602,-8.057,153.627,27.279,-115.076
7091,-0.4604,0.3442,-0.4800,11.292,-12.512,-3.174,153.633,27.510,-115.109
7101,-0.4531,0.3330,-0.5161,16.479,4.028,1.038,153.737,27.559,-115.098
7111,-0.4692,0.3521,-0.6030,17.517,16.479,5.371,153.885,27.455,-115.071
7121,-0.4600,0.4277,-0.7471,14.343,25.574,9.827,154.001,27.191,-115.043
7131,-0.4180,0.5444,-0.9092,8.362,30.579,12.878,154.045,26.807,-115.021
7141,-0.3838,0.6548,-1.0107,1.038,30.334,13.916,153.990,26.384,-115.010
7151,-0.3496,0.7285,-1.0410,-5.249,24.109,12.146,153.847,26.005,-115.016
7161,-0.3208,0.7266,-0.9956,-9.888,11.719,7.202,153.638,25.757,-115.032
7171,-0.3320,0.6606,-0.8901,-14.099,-4.761,0.366,153.386,25.708,-115.060
7181,-0.3828,0.5840,-0.7764,-18.311,-19.775,-5.615,153.083,25.867,-115.098
7191,-0.4282,0.5371,-0.6763,-21.301,-28.259,-7.996,152.732,26.153,-115.164
7201,-0.4570,0.4922,-0.6021,-20.325,-27.466,-7.629,152.380,26.472,-115.230
7212,-0.4692,0.4438,-0.5586,-18.799,-19.714,-6.592,152.073,26.746,-115.263
7221,-0.4878,0.4233,-0.5527,-20.020,-7.629,-4.700,151.782,26.917,-115.258
7231,-0.4956,0.4248,-0.5620,-25.146,5.066,-1.526,151.463,26.960,-115.219
7241,-0.5054,0.4316,-0.5581,-31.128,15.503,2.869,151.084,26.900,-115.164
7251,-0.4966,0.5083,-0.5596,-34.546,21.729,7.385,150.634,26.741,-115.115
7261,-0.4824,0.5674,-0.6016,-28.381,24.414,12.146,150.216,26.505,-115.104
7271,-0.4346,0.7168,-0.7524,-15.808,27.405,17.822,149.914,26.147,-115.120
7281,-0.3813,0.8550,-0.8794,1.648,30.457,21.057,149.777,25.692,-115.153
7291,-0.3608,0.8535,-0.9233,21.057,29.297,20.935,149.843,25.241,-115.192
7301,-0.3203,0.8315,-0.9673,32.593,21.973,17.151,150.040,24.857,-115.236
7311,-0.2700,0.8052,-1.0122,33.936,11.658,10.498,150.276,24.571,-115.269
7321,-0.2822,0.7510,-0.9800,26.855,-0.610,3.113,150.452,24.445,-115.302
7331,-0.3535,0.6738,-0.8760,14.771,-12.085,-4.333,150.507,24.505,-115.329
7341,-0.4297,0.5786,-0.7246,0.854,-21.790,-10.193,150.414,24.747,-115.345
7351,-0.4653,0.5034,-0.5859,-10.559,-29.907,-14.099,150.189,25.137,-115.373
7361,-0.4746,0.4619,-0.4902,-15.320,-32.776,-14.832,149.886,25.587,-115.411
7371,-0.4707,0.3711,-0.3906,-12.024,-30.396,-12.146,149.612,26.065,-115.466
7381,-0.4741,0.3242,-0.3477,-4.700,-21.973,-7.507,149.414,26.477,-115.516
7391,-0.4858,0.3140,-0.3633,2.991,-6.226,-0.793,149.332,26.724,-115.543
7401,-0.4746,0.3486,-0.4370,8.545,12.939,7.324,149.337,26.713,-115.543
7411,-0.4326,0.4780,-0.6021,10.315,31.677,15.259,149.376,26.395,-115.505
7421,-0.3975,0.6289,-0.7700,9.949,47.119,19.958,149.425,25.845,-115.433
7431,-0.3735,0.7349,-0.8828,9.705,53.833,19.470,149.480,25.214,-115.313
7441,-0.3472,0.8003,-0.9751,8.301,50.354,14.832,149.529,24.609,-115.170
7451,-0.3223,0.8696,-1.0664,5.310,38.879,7.324,149.557,24.126,-115.027
7461,-0.3086,0.8662,-1.0757,3.845,22.400,-1.038,149.568,23.824,-114.890
7471,-0.3081,0.7773,-1.0029,2.563,1.953,-8.911,149.557,23.752,-114.796
7481,-0.3232,0.6719,-0.9189,-0.061,-19.775,-15.747,149.513,23.917,-114.758
7491,-0.3574,0.5742,-0.8281,-2.747,-36.926,-18.860,149.431,24.285,-114.785
7501,-0.4214,0.4482,-0.6519,-1.526,-42.725,-15.320,149.337,24.763,-114.879
7511,-0.4424,0.4150,-0.5977,2.747,-35.461,-10.986,149.288,25.186,-114.972
7521,-0.4497,0.4043,-0.5889,7.141,-23.987,-5.798,149.288,25.494,-115.054
7531,-0.4424,0.4043,-0.5898,9.766,-10.559,-0.549,149.321,25.648,-115.109
7541,-0.4321,0.4038,-0.5977,9.888,1.160,4.517,149.370,25.664,-115.142
7551,-0.4297,0.4355,-0.6460,6.897,9.888,8.362,149.398,25.571,-115.170
7561,-0.4243,0.4819,-0.6948,1.648,15.198,11.597,149.359,25.395,-115.192
7571,-0.4131,0.5522,-0.7417,-3.723,17.700,14.099,149.249,25.159,-115.225
7581,-0.3838,0.6553,-0.7827,-7.507,18.250,15.747,149.062,24.879,-115.274
7591,-0.3721,0.7344,-0.8174,-7.446,17.578,16.235,148.854,24.587,-115.329
7601,-0.3799,0.7729,-0.8330,-4.333,16.113,13.428,148.683,24.318,-115.362
7611,-0.3853,0.7671,-0.8369,-1.465,13.916,7.874,148.557,24.104,-115.356
7622,-0.3872,0.7388,-0.8188,-0.854,9.521,1.282,148.458,23.972,-115.313
7632,-0.3926,0.6865,-0.7861,-2.380,2.563,-4.395,148.365,23.939,-115.258
7642,-0.3955,0.6104,-0.7319,-4.883,-5.432,-7.874,148.250,24.011,-115.219
7651,-0.4136,0.5566,-0.6875,-7.751,-12.573,-9.155,148.107,24.175,-115.203
7662,-0.4248,0.5322,-0.6489,-8.911,-16.357,-8.606,147.936,24.384,-115.219
7672,-0.4302,0.5317,-0.6299,-6.775,-15.564,-6.714,147.777,24.582,-115.247
7682,-0.4277,0.5557,-0.6597,-1.282,-9.583,-4.150,147.678,24.703,-115.263
7692,-0.4189,0.5605,-0.6973,6.165,0.122,-2.136,147.684,24.714,-115.241
7702,-0.4048,0.5273,-0.7046,11.414,8.789,-1.221,147.777,24.648,-115.181
7712,-0.3970,0.5034,-0.7275,11.475,12.390,-1.343,147.903,24.549,-115.093
7721,-0.4028,0.4878,-0.7437,5.920,11.353,-1.953,147.980,24.461,-115.010
7732,-0.4180,0.4780,-0.7295,-2.441,7.385,-2.380,147.975,24.423,-114.944
7742,-0.4229,0.4893,-0.7065,-10.132,1.648,-2.441,147.859,24.439,-114.911
7752,-0.4116,0.5005,-0.6587,-15.076,-4.395,-1.892,147.656,24.505,-114.922
7762,-0.3931,0.5742,-0.6582,-16.602,-8.240,-0.732,147.387,24.576,-114.961
7772,-0.3784,0.6895,-0.7251,-12.573,-4.272,1.404,147.134,24.565,-114.999
7781,-0.3735,0.7754,-0.8047,-3.540,6.958,3.418,146.997,24.428,-114.994
7792,-0.3813,0.7637,-0.8320,6.531,18.982,3.296,146.997,24.197,-114.906
7802,-0.3848,0.7222,-0.8213,11.536,24.231,0.366,147.085,23.945,-114.769
7812,-0.3882,0.6597,-0.7993,11.658,20.081,-3.662,147.195,23.763,-114.615
7822,-0.4028,0.5752,-0.7563,8.423,8.789,-6.897,147.283,23.719,-114.500
7832,-0.4126,0.5239,-0.7173,3.296,-4.272,-7.629,147.299,23.807,-114.456
7842,-0.4053,0.4736,-0.6729,1.099,-14.465,-5.859,147.272,23.983,-114.483
7852,-0.4019,0.4585,-0.6665,3.601,-20.508,-2.747,147.250,24.192,-114.582
7862,-0.4028,0.4834,-0.6997,9.399,-19.775,1.282,147.272,24.362,-114.708
7872,-0.3970,0.5557,-0.7920,16.724,-12.573,6.165,147.360,24.417,-114.840
7882,-0.3882,0.7222,-0.9751,21.240,1.831,9.216,147.502,24.285,-114.917
7892,-0.3706,0.8198,-1.0332,21.729,20.813,8.728,147.673,23.978,-114.873
7902,-0.3574,0.8037,-0.9468,16.052,28.320,3.784,147.805,23.643,-114.741
7915,-0.3608,0.6655,-0.8071,6.531,18.860,-5.066,147.859,23.461,-114.587
7922,-0.3926,0.5225,-0.6685,-8.423,-4.089,-15.137,147.766,23.593,-114.472
7932,-0.4307,0.4604,-0.5757,-23.621,-27.588,-20.813,147.480,24.000,-114.439
7942,-0.4624,0.4175,-0.5127,-27.283,-41.443,-19.287,147.118,24.560,-114.505
7952,-0.4521,0.3867,-0.4736,-18.799,-42.725,-13.062,146.810,25.104,-114.642
7962,-0.4409,0.3794,-0.4902,-2.197,-32.532,-4.395,146.678,25.499,-114.796
7972,-0.4312,0.4331,-0.5620,16.541,-12.878,4.761,146.744,25.637,-114.917
7982,-0.4263,0.5078,-0.6753,33.691,10.986,12.024,147.025,25.494,-114.961
7992,-0.4165,0.5869,-0.7910,43.396,31.006,16.052,147.431,25.126,-114.922
8002,-0.3984,0.6367,-0.8701,43.579,40.283,15.930,147.865,24.653,-114.835
8012,-0.3896,0.6533,-0.9165,36.926,38.147,11.353,148.250,24.219,-114.714
8022,-0.3901,0.6489,-0.9409,23.560,26.489,4.517,148.497,23.917,-114.604
8032,-0.3853,0.6450,-0.9243,6.470,9.460,-1.526,148.557,23.796,-114.538
8042,-0.3706,0.6108,-0.8599,-7.874,-6.470,-5.493,148.442,23.835,-114.521
8052,-0.3667,0.5962,-0.7900,-15.381,-17.883,-7.568,148.222,23.989,-114.554
8062,-0.3853,0.6011,-0.7549,-13.184,-22.461,-7.629,148.002,24.197,-114.615
8072,-0.4023,0.5703,-0.7295,-2.747,-18.860,-5.920,147.892,24.379,-114.670
8082,-0.3940,0.5107,-0.6748,8.362,-11.047,-4.456,147.914,24.500,-114.692
8092,-0.4009,0.4502,-0.6353,14.648,-4.456,-3.662,148.030,24.587,-114.681
8102,-0.4199,0.4126,-0.6440,14.587,-0.061,-2.441,148.178,24.642,-114.659
8112,-0.4434,0.3975,-0.6694,9.827,4.456,0.061,148.299,24.653,-114.637
8122,-0.4478,0.3867,-0.6904,3.174,9.338,3.296,148.365,24.604,-114.609
8132,-0.4272,0.4146,-0.7222,-4.333,13.489,6.287,148.343,24.483,-114.593
8142,-0.3989,0.4888,-0.7695,-10.254,15.869,8.728,148.239,24.296,-114.582
8152,-0.3770,0.5864,-0.8105,-11.475,16.357,10.803,148.085,24.066,-114.587
8162,-0.3477,0.7246,-0.8677,-6.653,15.137,11.963,147.925,23.807,-114.615
8172,-0.3374,0.7603,-0.8711,3.967,12.085,10.742,147.865,23.577,-114.642
8182,-0.3486,0.7383,-0.8521,12.512,5.371,6.592,147.887,23.428,-114.670
8192,-0.3794,0.6733,-0.8398,15.259,-2.930,0.793,147.964,23.412,-114.697
8202,-0.4082,0.6084,-0.8115,10.681,-9.644,-4.700,148.019,23.500,-114.708
8212,-0.4351,0.5430,-0.7681,1.526,-13.184,-8.728,148.002,23.670,-114.703
8222,-0.4419,0.5220,-0.7520,-8.667,-13.550,-10.315,147.892,23.862,-114.686
8232,-0.4219,0.5537,-0.7720,-16.541,-9.644,-10.193,147.711,23.994,-114.648
8242,-0.4058,0.6011,-0.7681,-19.043,-3.418,-9.644,147.491,24.060,-114.582
8252,-0.3818,0.6670,-0.7769,-15.869,1.343,-8.972,147.288,24.060,-114.489
8262,-0.3784,0.6509,-0.7544,-8.911,2.930,-8.850,147.162,24.049,-114.390
8272,-0.3945,0.5854,-0.6826,-4.578,-0.488,-10.620,147.074,24.109,-114.296
8282,-0.4199,0.4766,-0.6255,-5.920,-6.470,-13.062,147.008,24.274,-114.214
8292,-0.4600,0.3691,-0.5728,-13.550,-10.437,-13.916,146.904,24.532,-114.148
8302,-0.4756,0.3213,-0.5610,-23.071,-10.315,-12.329,146.728,24.802,-114.099
8312,-0.4663,0.3877,-0.6274,-28.992,-2.502,-7.446,146.481,24.939,-114.044
8322,-0.4253,0.5288,-0.7505,-24.963,12.268,-0.488,146.250,24.840,-113.961
8332,-0.3745,0.7041,-0.9150,-10.681,29.297,6.653,146.151,24.494,-113.846
8342,-0.3247,0.7974,-0.9551,6.897,39.917,9.827,146.223,24.011,-113.692
8352,-0.3027,0.7568,-0.9170,23.071,32.593,6.775,146.448,23.610,-113.555
8362,-0.3198,0.6465,-0.8550,28.687,11.353,-0.183,146.728,23.445,-113.483
8372,-0.3848,0.5078,-0.7314,20.996,-15.625,-8.301,146.915,23.621,-113.500
8382,-0.4434,0.3906,-0.6143,7.202,-39.307,-14.099,146.948,24.099,-113.604
8392,-0.4844,0.2905,-0.5342,-4.272,-50.354,-13.977,146.882,24.736,-113.780
8402,-0.5044,0.2480,-0.4985,-12.573,-45.776,-7.385,146.739,25.334,-113.989
8412,-0.4893,0.3384,-0.5737,-15.015,-26.367,1.770,146.541,25.648,-114.164
8422,-0.4399,0.5562,-0.7700,-7.874,3.967,11.719,146.404,25.543,-114.247
8432,-0.3896,0.7153,-0.9141,8.789,34.912,18.372,146.464,25.087,-114.203
8442,-0.3467,0.7681,-0.9678,23.743,48.950,18.799,146.706,24.489,-114.077
8452,-0.3076,0.7539,-1.0122,32.227,42.297,12.329,147.047,23.961,-113.934
8462,-0.3022,0.7388,-1.0269,27.893,19.714,3.479,147.332,23.676,-113.851
8472,-0.3408,0.7095,-0.9897,15.564,-8.301,-3.967,147.448,23.681,-113.862
8482,-0.3804,0.6523,-0.8989,0.793,-32.104,-9.705,147.382,23.956,-113.961
8492,-0.4116,0.5776,-0.7681,-10.376,-47.729,-13.794,147.173,24.417,-114.115
8502,-0.4341,0.4844,-0.6406,-15.381,-52.734,-15.686,146.909,24.983,-114.285
8512,-0.4658,0.4014,-0.5483,-14.648,-48.035,-15.503,146.673,25.560,-114.428
8522,-0.4873,0.3403,-0.4946,-8.850,-35.156,-12.146,146.530,26.049,-114.532
8532,-0.4976,0.3047,-0.4819,-0.793,-18.372,-6.165,146.508,26.389,-114.587
8542,-0.4893,0.3008,-0.4995,4.883,-0.916,1.892,146.574,26.521,-114.609
8552,-0.4609,0.3145,-0.5303,7.385,13.916,10.132,146.667,26.455,-114.620
8562,-0.4351,0.3960,-0.6235,6.836,24.292,16.968,146.744,26.202,-114.631
8572,-0.4131,0.4990,-0.7490,6.775,32.288,21.851,146.805,25.801,-114.637
8582,-0.3940,0.5996,-0.8721,7.812,37.048,24.048,146.865,25.307,-114.631
8592,-0.3662,0.6958,-0.9751,7.935,37.170,23.315,146.926,24.791,-114.626
8602,-0.3511,0.7598,-1.0215,6.470,31.677,19.409,146.959,24.329,-114.615
8612,-0.3345,0.7876,-1.0166,3.845,20.020,13.306,146.948,23.994,-114.615
8622,-0.3408,0.7856,-0.9688,0.305,3.052,6.287,146.876,23.846,-114.653
8632,-0.3638,0.7378,-0.8843,-2.625,-14.160,-0.732,146.750,23.906,-114.736
8642,-0.3809,0.6592,-0.7803,-4.944,-28.687,-6.348,146.585,24.142,-114.846
8652,-0.3979,0.5835,-0.6870,-5.432,-36.194,-9.583,146.409,24.494,-114.977
8662,-0.4331,0.5269,-0.6392,-4.822,-33.813,-10.193,146.261,24.857,-115.093
8672,-0.4595,0.4990,-0.6245,-3.113,-22.705,-9.460,146.157,25.148,-115.142
8682,-0.4702,0.4687,-0.6240,-1.831,-7.263,-7.629,146.118,25.307,-115.120
8692,-0.4619,0.5249,-0.7217,-2.380,7.385,-5.127,146.113,25.296,-115.027
8702,-0.4224,0.6816,-0.8979,-5.981,22.034,-2.441,146.085,25.082,-114.868
8712,-0.3589,0.8120,-0.9888,-9.460,33.203,-2.319,146.036,24.725,-114.642
8722,-0.3296,0.8203,-0.9209,-10.010,30.518,-7.080,145.964,24.417,-114.390
8732,-0.3354,0.7202,-0.8535,-10.254,12.390,-14.526,145.882,24.318,-114.181
8742,-0.3740,0.5918,-0.7754,-13.184,-11.292,-22.827,145.778,24.505,-114.044
8752,-0.4458,0.4126,-0.6294,-17.517,-31.799,-28.870,145.640,24.988,-113.978
8762,-0.5181,0.2114,-0.4351,-19.714,-45.288,-30.396,145.530,25.746,-113.983
8772,-0.5571,0.0298,-0.2266,-17.334,-51.392,-26.001,145.591,26.730,-114.066
8782,-0.5596,-0.0293,-0.1807,-12.573,-47.607,-14.404,-170.788,27.653,-114.236
8792,-0.5435,0.1792,-0.4136,-4.028,-23.804,3.235,156.572,28.120,-114.230
8802,-0.4507,0.5049,-0.7627,7.935,20.996,21.301,156.489,27.828,-114.357
8812,-0.3711,0.7695,-1.0088,20.935,62.988,32.532,156.533,27.010,-114.406
8822,-0.3125,0.8921,-1.1152,30.579,82.947,31.311,156.703,25.988,-114.362
8832,-0.2778,0.8994,-1.1572,30.396,76.782,19.836,156.918,25.060,-114.225
8842,-0.3110,0.8452,-1.1089,14.709,47.241,4.211,156.989,24.489,-114.066
8852,-0.3633,0.7471,-0.9629,-8.118,4.761,-8.728,156.808,24.401,-113.956
8862,-0.4141,0.6626,-0.7900,-27.283,-33.936,-15.808,156.374,24.747,-113.939
8872,-0.4287,0.5645,-0.6133,-32.104,-59.753,-18.372,155.836,25.384,-114.022
8882,-0.4253,0.4121,-0.4478,-21.912,-69.153,-15.503,155.363,26.169,-114.175
8892,-0.4375,0.3125,-0.3853,-6.592,-60.852,-10.803,155.083,26.911,-114.351
8902,-0.4844,0.2778,-0.3945,8.362,-35.889,-5.249,155.012,27.438,-114.467
8912,-0.5146,0.2959,-0.4448,18.982,-3.601,1.953,155.094,27.625,-114.505
8922,-0.4917,0.4121,-0.6060,22.522,26.123,10.437,155.231,27.411,-114.483
8932,-0.4434,0.5581,-0.7876,20.996,45.410,15.137,155.363,26.911,-114.428
8942,-0.4175,0.6719,-0.9048,17.212,50.720,15.808,155.446,26.323,-114.351
8952,-0.3970,0.7280,-0.9814,13.794,44.922,13.184,155.495,25.785,-114.274
8962,-0.3691,0.7432,-1.0337,9.949,31.433,8.179,155.506,25.373,-114.214
8972,-0.3354,0.7373,-1.0469,4.883,14.160,1.648,155.468,25.131,-114.164
8982,-0.3452,0.6694,-0.9888,0.671,-3.601,-4.089,155.391,25.087,-114.142
8992,-0.3701,0.5923,-0.9058,-2.075,-17.761,-7.446,155.281,25.219,-114.148
9002,-0.3857,0.5073,-0.8057,-1.282,-24.841,-8.545,155.182,25.444,-114.175
9012,-0.4131,0.4302,-0.7183,0.061,-26.123,-7.935,155.105,25.719,-114.219
9022,-0.4438,0.3916,-0.6597,-2.502,-22.705,-5.310,155.001,25.988,-114.269
9032,-0.4556,0.3677,-0.6040,-5.859,-14.282,-1.465,154.852,26.191,-114.324
9042,-0.4375,0.4067,-0.5688,-9.888,-5.005,2.136,154.633,26.285,-114.368
9052,-0.4321,0.4990,-0.5918,-9.583,1.343,4.883,154.369,26.285,-114.412
9062,-0.4243,0.5659,-0.6704,-2.197,6.348,7.690,154.182,26.186,-114.456
9072,-0.4028,0.6514,-0.8042,7.141,11.108,8.850,154.105,26.005,-114.494
9082,-0.3833,0.6714,-0.8853,14.221,14.893,8.850,154.127,25.763,-114.510
9092,-0.3901,0.6245,-0.8950,15.381,14.160,7.446,154.188,25.543,-114.516
9102,-0.4092,0.5869,-0.8657,8.484,7.996,4.700,154.188,25.411,-114.521
9112,-0.4258,0.5308,-0.7832,-3.723,-0.610,1.648,154.056,25.395,-114.543
9122,-0.4351,0.4722,-0.6782,-17.456,-9.644,-0.977,153.781,25.510,-114.582
9132,-0.4263,0.5312,-0.6665,-27.405,-15.015,-1.953,153.364,25.664,-114.631
9142,-0.3960,0.6865,-0.8418,-25.940,-9.888,-0.610,152.963,25.697,-114.675
9152,-0.3452,0.8711,-1.0942,-15.381,10.498,1.770,152.710,25.477,-114.642
9162,-0.3032,0.9199,-1.0664,-4.395,32.654,3.906,152.584,25.038,-114.516
9172,-0.3535,0.7319,-0.8511,5.676,29.480,-0.366,152.573,24.708,-114.362
9182,-0.4463,0.5107,-0.5728,4.028,3.357,-10.193,152.518,24.780,-114.241
9192,-0.5532,0.2412,-0.2339,-7.935,-32.471,-18.066,152.260,25.483,-114.230
9202,-0.5967,0.0205,-0.0137,-19.287,-61.951,-20.386,151.732,26.746,-114.351
9212,-0.6294,-0.0723,-0.0308,-21.790,-66.772,-13.489,-113.055,27.955,-114.571
9222,-0.5884,0.0977,-0.3145,-16.541,-33.508,2.563,162.746,28.438,-114.236
9232,-0.4658,0.4165,-0.6963,-5.798,24.780,21.912,162.477,28.152,-114.390
9242,-0.3584,0.7627,-1.0107,7.202,74.463,34.119,162.301,27.224,-114.505
9252,-0.2524,1.0210,-1.2090,19.348,95.825,34.180,162.477,26.208,-114.543
9262,-0.1948,1.0957,-1.3237,29.419,88.928,24.963,162.784,25.285,-114.510
9272,-0.2031,1.0156,-1.3462,27.405,57.495,10.010,163.092,24.703,-114.428
9282,-0.2446,0.8667,-1.2207,11.658,9.949,-5.432,163.246,24.626,-114.340
9292,-0.2964,0.6582,-0.9497,-8.301,-38.757,-16.479,163.185,25.043,-114.285
9302,-0.3525,0.4775,-0.6831,-21.606,-76.782,-21.729,162.966,25.840,-114.302
9312,-0.4463,0.3721,-0.5005,-23.376,-91.553,-19.165,162.691,26.774,-114.395
9322,-0.4897,0.2871,-0.3823,-11.169,-79.163,-12.390,162.515,27.565,-114.527
9332,-0.5210,0.2441,-0.3379,6.958,-49.622,-4.333,162.532,28.054,-114.648
9342,-0.5215,0.2651,-0.3818,24.231,-11.719,3.967,162.735,28.152,-114.736
9352,-0.5000,0.3574,-0.4990,33.447,22.644,12.451,163.043,27.900,-114.791
9362,-0.4512,0.4873,-0.6646,31.799,44.312,18.860,163.334,27.422,-114.851
9372,-0.4072,0.6313,-0.8022,24.475,50.598,20.325,163.553,26.878,-114.906
9382,-0.3608,0.7280,-0.8799,14.587,44.617,17.578,163.674,26.400,-114.955
9392,-0.3354,0.7705,-0.9141,4.456,29.053,11.719,163.707,26.087,-114.988
9402,-0.3618,0.7510,-0.9248,-4.578,10.315,3.906,163.658,25.977,-114.999
9412,-0.3970,0.7163,-0.9136,-10.620,-3.723,-3.967,163.564,26.027,-114.966
9422,-0.4233,0.6655,-0.8862,-12.085,-9.338,-8.972,163.471,26.142,-114.901
9432,-0.4146,0.6167,-0.8647,-9.277,-7.385,-10.681,163.416,26.241,-114.807
9442,-0.3901,0.5620,-0.8071,-4.883,-3.601,-11.047,163.416,26.307,-114.703
9452,-0.3765,0.5015,-0.7129,-1.831,-3.479,-10.681,163.444,26.373,-114.598
9462,-0.3853,0.4424,-0.6270,1.404,-8.362,-8.850,163.488,26.477,-114.532
9472,-0.4146,0.4336,-0.6196,5.371,-12.817,-5.798,163.553,26.614,-114.510
9482,-0.4341,0.4404,-0.6548,10.254,-12.390,-1.953,163.647,26.741,-114.527
9492,-0.4438,0.4336,-0.6899,12.817,-6.226,1.770,163.757,26.796,-114.565
9502,-0.4399,0.4644,-0.7720,9.888,3.845,4.578,163.839,26.746,-114.604
9512,-0.4160,0.5103,-0.8438,2.808,15.625,6.104,163.861,26.576,-114.620
9522,-0.3740,0.5679,-0.8735,-7.385,23.254,5.615,163.790,26.340,-114.609
9532,-0.3447,0.6343,-0.8828,-16.846,21.973,2.502,163.641,26.120,-114.565
9542,-0.3647,0.6909,-0.8560,-20.630,12.878,-1.465,163.460,25.999,-114.510
9552,-0.3911,0.6831,-0.7715,-18.311,-1.099,-3.845,163.290,26.021,-114.472
9562,-0.4126,0.6099,-0.6816,-10.498,-15.930,-5.127,163.191,26.191,-114.472
9572,-0.4302,0.5132,-0.6348,-1.587,-27.649,-5.066,163.158,26.472,-114.505
9582,-0.4448,0.4575,-0.6704,4.211,-28.748,-2.625,163.169,26.752,-114.571
9592,-0.4297,0.5117,-0.7915,6.714,-15.564,0.427,163.213,26.900,-114.626
9602,-0.3745,0.6714,-1.0107,6.836,7.263,2.808,163.279,26.823,-114.631
9612,-0.3340,0.8105,-1.0249,3.174,30.579,3.174,163.339,26.521,-114.565
9622,-0.3550,0.7300,-0.8628,0.000,33.020,-1.343,163.394,26.208,-114.450
9632,-0.3916,0.5557,-0.6123,-6.714,13.428,-9.521,163.389,26.109,-114.302
9642,-0.4951,0.2544,-0.2925,-16.541,-20.508,-17.761,163.279,26.356,-114.181
9652,-0.5708,0.0962,-0.1528,-26.978,-51.819,-19.958,163.032,26.906,-114.131
9662,-0.5874,0.1548,-0.3125,-29.175,-57.373,-11.414,162.708,27.488,-114.197
9672,-0.5015,0.4541,-0.7573,-18.921,-21.301,6.470,162.455,27.675,-114.340
9682,-0.3677,0.7656,-1.0737,-0.732,38.025,22.095,162.394,27.246,-114.445
9692,-0.2900,0.8989,-1.1304,18.616,77.698,25.513,162.576,26.428,-114.456
9702,-0.2329,0.9043,-1.1538,31.738,82.092,17.090,162.938,25.593,-114.362
9712,-0.2539,0.8374,-1.1182,29.663,57.007,2.930,163.301,25.038,-114.208
9722,-0.3413,0.7026,-0.9902,15.503,12.939,-9.705,163.515,24.944,-114.066
9732,-0.4038,0.5513,-0.7827,-2.625,-28.870,-15.442,163.521,25.263,-113.994
9742,-0.3970,0.3613,-0.5449,-12.573,-59.875,-15.991,163.389,25.884,-114.011
9752,-0.4468,0.2197,-0.3994,-14.282,-75.867,-11.597,163.191,26.642,-114.126
9762,-0.4883,0.2183,-0.3721,-10.254,-64.575,-3.906,163.015,27.274,-114.296
9772,-0.5015,0.2974,-0.4419,3.662,-31.250,5.310,162.812,27.713,-114.456
9782,-0.4707,0.4561,-0.6094,19.165,8.362,15.625,162.740,27.631,-114.598
9792,-0.4019,0.6348,-0.7939,28.748,43.701,24.231,162.757,27.081,-114.708
9802,-0.3662,0.7573,-0.8965,28.809,61.157,24.902,162.784,26.334,-114.774
9812,-0.3594,0.8047,-0.9521,21.179,58.167,17.334,162.768,25.631,-114.769
9822,-0.3164,0.7495,-0.9370,5.676,38.147,5.859,162.636,25.142,-114.703
9832,-0.3403,0.7163,-0.9043,-13.123,8.911,-4.822,162.328,24.988,-114.626
9842,-0.3999,0.6709,-0.8447,-25.513,-17.517,-10.376,161.889,25.137,-114.571
9852,-0.4253,0.6079,-0.7769,-24.109,-32.166,-11.902,161.455,25.461,-114.560
9862,-0.4209,0.5532,-0.6958,-11.658,-30.945,-9.583,161.142,25.779,-114.565
9872,-0.4370,0.4541,-0.6377,5.981,-21.179,-6.348,161.027,26.032,-114.576
9882,-0.4512,0.3789,-0.6299,18.738,-7.141,-3.479,161.098,26.164,-114.565
9892,-0.4478,0.3667,-0.6553,22.949,7.507,-0.244,161.235,26.142,-114.538
9902,-0.4058,0.3882,-0.6934,19.287,17.578,3.113,161.334,25.977,-114.505
9916,-0.3423,0.4424,-0.7383,10.681,18.921,5.005,161.323,25.741,-114.489
9922,-0.3213,0.5615,-0.8188,0.671,14.038,5.920,161.169,25.510,-114.505
9932,-0.3481,0.6621,-0.8779,-4.822,7.690,6.958,160.917,25.340,-114.549
9942,-0.4087,0.6973,-0.8818,-4.883,2.930,6.958,160.653,25.236,-114.609
9952,-0.4438,0.6763,-0.8862,-3.479,0.671,4.883,160.417,25.175,-114.659
9962,-0.4404,0.6289,-0.8828,-4.089,-0.244,0.610,160.214,25.148,-114.664
9972,-0.4170,0.5693,-0.8320,-7.812,-0.732,-3.906,160.005,25.137,-114.631
9982,-0.3711,0.5146,-0.7812,-13.245,-2.502,-7.385,159.769,25.153,-114.560
9992,-0.3418,0.5234,-0.7642,-19.226,-4.517,-9.460,159.472,25.175,-114.483
10002,-0.3418,0.5547,-0.7339,-22.461,-4.578,-9.216,159.115,25.203,-114.401
10012,-0.3716,0.5986,-0.6777,-19.287,-4.822,-6.958,158.741,25.247,-114.351
10022,-0.4062,0.5674,-0.6123,-8.118,-6.592,-3.479,158.450,25.323,-114.340
10032,-0.4521,0.4800,-0.5669,3.906,-9.460,-1.282,158.291,25.477,-114.368
10042,-0.4824,0.4092,-0.5713,10.498,-11.658,0.427,158.236,25.675,-114.417
10052,-0.4736,0.4111,-0.6816,10.437,-8.057,3.357,158.214,25.785,-114.489
10062,-0.4087,0.5454,-0.8994,4.761,4.761,6.775,158.143,25.670,-114.538
10072,-0.3179,0.7334,-1.1143,-2.808,24.780,8.728,158.005,25.291,-114.521
10082,-0.2676,0.7954,-1.0977,-8.484,36.987,6.653,157.819,24.785,-114.439
10092,-0.2754,0.7275,-0.9014,-13.794,26.184,0.061,157.560,24.428,-114.329
10102,-0.3579,0.5894,-0.6519,-20.264,-4.395,-7.935,157.187,24.478,-114.269
10112,-0.4707,0.4053,-0.4351,-24.109,-37.354,-12.878,156.736,25.005,-114.296
10122,-0.5435,0.3037,-0.3579,-22.705,-55.359,-12.268,156.292,25.801,-114.412
10132,-0.5767,0.2773,-0.4243,-14.038,-47.974,-5.859,155.995,26.488,-114.571
10142,-0.4946,0.4175,-0.6328,-1.648,-14.771,4.272,155.836,26.669,-114.681
10152,-0.3945,0.6587,-0.9189,8.667,28.198,13.489,155.803,26.285,-114.686
10162,-0.3218,0.8325,-1.0405,13.550,56.702,15.137,155.836,25.587,-114.582
10172,-0.2759,0.8682,-1.0352,13.062,56.213,8.301,155.880,24.901,-114.412
10182,-0.2866,0.8315,-0.9419,3.967,30.212,-1.404,155.808,24.516,-114.263
10192,-0.3696,0.7300,-0.8052,-9.155,-7.080,-10.193,155.566,24.565,-114.192
10202,-0.4468,0.5332,-0.6274,-17.456,-35.889,-15.625,155.231,24.988,-114.197
10213,-0.4824,0.3921,-0.5005,-20.081,-48.645,-16.113,154.874,25.615,-114.263
10222,-0.5059,0.3135,-0.4463,-15.381,-42.603,-11.292,154.583,26.219,-114.346
10232,-0.4897,0.3105,-0.4521,-5.676,-20.142,-3.540,154.413,26.570,-114.412
10242,-0.4497,0.3555,-0.5176,5.859,8.240,4.517,154.380,26.565,-114.417
10252,-0.3979,0.4653,-0.6499,15.320,30.090,11.047,154.446,26.252,-114.379
10262,-0.3579,0.5918,-0.7896,19.409,40.405,14.709,154.545,25.763,-114.335
10272,-0.3540,0.6924,-0.9141,18.494,40.222,15.076,154.627,25.252,-114.291
10282,-0.3491,0.7334,-0.9897,13.611,33.020,12.024,154.666,24.813,-114.258
10292,-0.3579,0.7280,-1.0112,5.432,20.691,6.958,154.627,24.510,-114.230
10302,-0.3657,0.6924,-0.9834,-3.235,7.874,1.526,154.506,24.357,-114.208
10312,-0.3701,0.6182,-0.9048,-9.766,-3.601,-2.625,154.325,24.346,-114.197
10322,-0.3677,0.5518,-0.8076,-12.207,-10.681,-5.066,154.116,24.423,-114.197
10332,-0.3813,0.5015,-0.7227,-10.010,-12.878,-5.737,153.929,24.554,-114.203
10342,-0.4058,0.4678,-0.6699,-4.639,-11.292,-4.700,153.792,24.692,-114.214
10352,-0.4077,0.4663,-0.6475,0.366,-6.531,-2.197,153.693,24.785,-114.219
10362,-0.3970,0.4619,-0.6504,3.601,1.160,1.160,153.638,24.785,-114.230
10372,-0.3896,0.4722,-0.6699,4.395,10.437,4.517,153.594,24.681,-114.219
10382,-0.3940,0.5029,-0.7012,3.235,17.761,7.202,153.539,24.489,-114.203
10392,-0.3862,0.5288,-0.7363,0.916,21.851,9.338,153.463,24.241,-114.192
10402,-0.3906,0.5571,-0.7622,-2.625,23.376,11.353,153.342,23.967,-114.186
10412,-0.3765,0.5825,-0.7690,-5.737,22.766,12.268,153.177,23.681,-114.197
10422,-0.3765,0.5908,-0.7583,-7.324,16.907,11.475,152.985,23.461,-114.225
10432,-0.3906,0.6133,-0.7549,-8.484,10.010,9.583,152.759,23.313,-114.269
10442,-0.3896,0.6270,-0.7480,-7.385,6.226,7.690,152.545,23.209,-114.313
10452,-0.3789,0.6577,-0.7705,-5.371,4.517,6.409,152.342,23.110,-114.351
10462,-0.3560,0.6797,-0.7954,-2.136,4.089,4.517,152.188,23.011,-114.373
10472,-0.3530,0.6865,-0.8032,1.221,4.883,2.258,152.073,22.912,-114.368
10482,-0.3369,0.6772,-0.8003,3.662,6.348,0.061,151.996,22.808,-114.340
10492,-0.3379,0.6382,-0.7700,4.639,4.883,-1.709,151.941,22.731,-114.296
10502,-0.3633,0.5962,-0.7446,3.418,0.916,-2.747,151.880,22.714,-114.263
10512,-0.3794,0.5728,-0.7314,0.916,-2.441,-3.418,151.798,22.747,-114.247
10522,-0.3896,0.5674,-0.7124,-1.465,-4.578,-3.906,151.688,22.808,-114.230
10532,-0.3862,0.5513,-0.7036,-2.563,-5.737,-3.784,151.567,22.885,-114.225
10542,-0.3760,0.5347,-0.7310,-2.441,-5.188,-3.601,151.469,22.945,-114.219
10552,-0.3672,0.5342,-0.7891,-2.563,-2.075,-3.235,151.392,22.956,-114.197
10562,-0.3584,0.5513,-0.8174,-3.784,1.770,-3.113,151.320,22.928,-114.159
10572,-0.3618,0.5757,-0.8208,-4.700,2.441,-3.296,151.227,22.890,-114.115
10582,-0.3608,0.6172,-0.8120,-4.822,0.061,-4.456,151.111,22.879,-114.071
10592,-0.3667,0.6382,-0.7681,-4.517,-4.517,-7.202,150.974,22.923,-114.027
10602,-0.3730,0.6064,-0.7305,-3.174,-10.376,-10.925,150.853,23.049,-113.978
10612,-0.3867,0.5464,-0.7275,-2.441,-15.076,-14.038,150.771,23.247,-113.923
10622,-0.3760,0.5063,-0.7446,-4.639,-15.930,-15.625,150.699,23.456,-113.862
10632,-0.3540,0.5088,-0.7910,-8.972,-12.573,-15.381,150.612,23.610,-113.780
10642,-0.3335,0.5630,-0.8389,-11.841,-5.615,-11.780,150.480,23.665,-113.698
10652,-0.3394,0.5967,-0.8379,-10.315,0.061,-6.104,150.342,23.637,-113.643
10662,-0.3638,0.6152,-0.7969,-5.127,0.671,-1.953,150.222,23.604,-113.621
10672,-0.3882,0.5620,-0.6802,-0.244,-4.761,-0.977,150.112,23.654,-113.637
10682,-0.4360,0.4165,-0.5127,0.061,-14.099,-2.136,149.996,23.879,-113.692
10692,-0.4766,0.3691,-0.4258,-6.226,-21.545,-3.845,149.793,24.247,-113.774
10702,-0.4819,0.4277,-0.4829,-13.306,-19.287,-2.258,149.518,24.549,-113.857
10713,-0.4131,0.6343,-0.7310,-15.198,-1.587,3.235,149.244,24.532,-113.901
10722,-0.3032,0.9409,-1.0801,-7.874,26.001,8.545,149.090,24.142,-113.835
10732,-0.2510,1.0864,-1.2119,3.723,45.349,9.705,149.194,23.703,-113.670
10742,-0.2490,1.0225,-1.1475,14.282,42.603,2.625,149.425,23.324,-113.456
10752,-0.2866,0.7764,-0.9365,13.489,20.020,-9.521,149.639,23.198,-113.253
10762,-0.3936,0.5132,-0.6680,-1.587,-14.709,-23.071,149.678,23.445,-113.121
10772,-0.4722,0.4023,-0.5117,-19.165,-41.138,-30.701,149.507,23.956,-113.055
10782,-0.5303,0.3198,-0.4199,-23.193,-49.255,-27.283,149.271,24.516,-113.071
10792,-0.5244,0.2563,-0.3691,-12.451,-37.537,-16.296,149.123,24.922,-113.132
10802,-0.4819,0.2217,-0.3901,4.578,-14.099,-4.333,149.150,25.065,-113.170
10812,-0.3936,0.2373,-0.4683,16.724,10.437,4.578,149.326,24.955,-113.154
10822,-0.3623,0.3481,-0.6279,21.179,26.001,11.169,149.551,24.670,-113.110
10832,-0.3564,0.5332,-0.8438,17.883,35.095,17.944,149.744,24.280,-113.088
10842,-0.3462,0.7212,-1.0049,12.024,36.804,23.254,149.859,23.846,-113.104
10852,-0.3340,0.8394,-1.0649,7.874,31.433,23.682,149.914,23.450,-113.154
10862,-0.3105,0.8623,-1.0386,4.456,21.118,18.188,149.936,23.181,-113.214
10872,-0.3169,0.8066,-0.9561,0.916,8.789,9.033,149.930,23.060,-113.247
10882,-0.3384,0.7090,-0.8462,-3.357,-2.502,-0.427,149.892,23.082,-113.258
10892,-0.3579,0.5879,-0.7295,-4.944,-8.484,-6.348,149.848,23.187,-113.247
10902,-0.3774,0.4937,-0.6343,-4.761,-10.193,-8.362,149.810,23.318,-113.220
10912,-0.4097,0.4692,-0.5991,-1.648,-9.094,-6.836,149.799,23.428,-113.209
10922,-0.4282,0.4727,-0.6040,4.761,-5.432,-2.686,149.848,23.489,-113.214
10932,-0.4219,0.4951,-0.6182,12.268,0.671,2.319,149.963,23.472,-113.231
10942,-0.4038,0.5513,-0.6709,17.822,6.958,6.348,150.134,23.379,-113.253
10952,-0.3892,0.5864,-0.7407,19.714,12.085,8.484,150.320,23.236,-113.269
10962,-0.3784,0.6245,-0.7827,16.602,15.991,8.118,150.491,23.055,-113.258
10972,-0.3677,0.6113,-0.8257,10.437,17.944,5.249,150.617,22.874,-113.209
10982,-0.3511,0.5981,-0.8584,1.038,17.273,0.488,150.661,22.720,-113.121
10992,-0.3525,0.5967,-0.8667,-9.155,12.756,-3.723,150.606,22.626,-113.022
11002,-0.3662,0.5869,-0.8555,-15.686,7.263,-5.920,150.485,22.593,-112.928
11012,-0.3701,0.5728,-0.8042,-17.029,2.075,-6.470,150.342,22.604,-112.852
11022,-0.3618,0.5454,-0.7119,-12.512,-2.625,-4.822,150.233,22.654,-112.824
11032,-0.3662,0.4961,-0.6665,-4.395,-6.165,-1.099,150.178,22.714,-112.846
11042,-0.3770,0.4614,-0.6753,3.113,-3.845,3.601,150.189,22.725,-112.901
11052,-0.3755,0.4854,-0.7246,7.263,2.014,8.057,150.238,22.670,-112.967
11062,-0.3550,0.5337,-0.8154,9.216,8.484,11.047,150.304,22.544,-113.022
11072,-0.3330,0.5933,-0.8872,7.568,13.733,11.536,150.370,22.363,-113.060
11082,-0.3247,0.6465,-0.9014,2.869,16.174,9.644,150.397,22.176,-113.060
11092,-0.3228,0.6621,-0.8457,-3.906,12.451,5.798,150.359,22.039,-113.049
11102,-0.3550,0.6543,-0.7695,-11.353,3.845,1.648,150.249,22.000,-113.044
11112,-0.3877,0.6309,-0.7041,-16.663,-3.479,-1.526,150.079,22.039,-113.049
11122,-0.3999,0.5610,-0.6494,-16.785,-6.470,-3.662,149.914,22.110,-113.049
11132,-0.4058,0.5181,-0.6235,-14.709,-5.005,-3.540,149.766,22.170,-113.044
11142,-0.3828,0.5410,-0.6670,-11.292,0.244,-1.099,149.661,22.176,-113.033
11152,-0.3594,0.5854,-0.7397,-5.737,5.981,2.319,149.606,22.110,-113.022
11162,-0.3452,0.6323,-0.8081,-0.122,9.949,5.127,149.606,22.000,-113.016
11172,-0.3408,0.6509,-0.8237,4.272,11.780,5.127,149.656,21.874,-113.000
11182,-0.3521,0.6235,-0.7754,4.761,8.118,2.380,149.711,21.791,-112.978
11192,-0.3730,0.5757,-0.7207,2.014,1.648,-1.343,149.738,21.780,-112.956
11202,-0.3784,0.5254,-0.7026,-1.892,-2.441,-3.967,149.733,21.824,-112.928
11213,-0.3545,0.5088,-0.7256,-4.822,-1.343,-4.456,149.694,21.857,-112.896
11222,-0.3374,0.5386,-0.7671,-6.042,3.296,-2.380,149.650,21.841,-112.857
11232,-0.3281,0.5825,-0.8213,-3.662,7.996,0.977,149.623,21.769,-112.824
11243,-0.3394,0.6304,-0.8496,0.916,9.949,3.235,149.579,21.627,-112.797
11253,-0.3437,0.6597,-0.8267,4.456,8.362,3.662,149.546,21.500,-112.786
11263,-0.3726,0.6587,-0.7769,6.531,3.052,2.197,149.513,21.451,-112.791
11273,-0.3584,0.6240,-0.7290,5.310,-3.662,-0.549,149.458,21.473,-112.808
11282,-0.3437,0.5576,-0.7002,2.808,-8.423,-3.845,149.403,21.561,-112.813
11293,-0.3472,0.5410,-0.6997,-1.526,-8.911,-4.944,149.315,21.660,-112.819
11303,-0.3311,0.5435,-0.7109,-3.967,-5.005,-2.991,149.211,21.703,-112.819
11313,-0.3613,0.5776,-0.7568,-2.441,-0.061,-0.427,149.123,21.698,-112.813
11323,-0.3584,0.6196,-0.7773,1.465,3.296,1.343,149.062,21.643,-112.808
11332,-0.3608,0.5903,-0.7354,6.836,1.831,1.587,149.046,21.616,-112.813
11342,-0.3882,0.5410,-0.6968,8.728,-2.502,0.671,149.057,21.654,-112.835
11353,-0.3931,0.5234,-0.6709,6.165,-5.432,0.427,149.035,21.725,-112.868
11363,-0.3765,0.4868,-0.6562,3.296,-5.310,1.465,148.997,21.797,-112.912
11373,-0.3506,0.5068,-0.7314,0.793,-0.244,2.869,148.958,21.780,-112.939
11383,-0.3086,0.6147,-0.8657,-1.770,9.216,4.211,148.903,21.627,-112.928
11392,-0.2627,0.7607,-0.9956,-1.953,17.334,5.066,148.837,21.352,-112.879
11402,-0.2627,0.8281,-1.0332,1.282,17.212,3.479,148.799,21.088,-112.813
11412,-0.3013,0.7915,-0.9448,5.249,7.507,-0.427,148.777,20.956,-112.769
11423,-0.3530,0.6470,-0.7891,5.981,-9.216,-6.897,148.760,21.050,-112.753
11433,-0.3921,0.5181,-0.6733,0.244,-24.841,-13.306,148.694,21.363,-112.769
11443,-0.4243,0.3730,-0.5918,-5.798,-31.677,-16.174,148.618,21.813,-112.802
11453,-0.4180,0.3301,-0.5547,-11.536,-26.001,-13.306,148.502,22.214,-112.824
11463,-0.3872,0.3945,-0.5977,-11.230,-10.742,-5.798,148.365,22.396,-112.830
11473,-0.3760,0.5234,-0.7178,-2.930,8.545,3.296,148.299,22.313,-112.813
11483,-0.3262,0.6528,-0.8521,7.446,24.658,10.376,148.332,22.000,-112.769
11492,-0.2881,0.7588,-0.9512,15.381,29.175,11.902,148.436,21.605,-112.714
11502,-0.3115,0.7036,-0.9292,17.273,20.325,7.690,148.568,21.324,-112.670
11513,-0.3540,0.5615,-0.8022,7.812,-0.610,-0.366,148.612,21.319,-112.670
11523,-0.3794,0.5103,-0.7236,-10.071,-20.447,-7.690,148.458,21.550,-112.714
11533,-0.3740,0.5132,-0.6772,-21.729,-29.663,-9.888,148.156,21.874,-112.786
11543,-0.3687,0.5557,-0.6440,-20.935,-25.208,-6.226,147.827,22.132,-112.874
11553,-0.3716,0.5562,-0.6294,-5.859,-10.681,0.366,147.656,22.236,-112.939
11563,-0.3940,0.5547,-0.6523,13.611,5.615,5.798,147.700,22.187,-112.961
11573,-0.4053,0.5591,-0.6943,26.550,16.968,8.728,147.903,22.022,-112.939
11583,-0.3867,0.5596,-0.7515,27.283,18.372,8.972,148.140,21.824,-112.917
11593,-0.3740,0.5991,-0.8145,18.066,12.817,7.202,148.277,21.660,-112.912
11603,-0.3633,0.6401,-0.8486,7.202,7.019,4.639,148.293,21.550,-112.912
11613,-0.3267,0.6479,-0.8438,-0.244,3.479,1.953,148.233,21.467,-112.912
11623,-0.2935,0.6504,-0.8486,-2.747,1.526,-0.977,148.156,21.396,-112.896
11633,-0.3057,0.6226,-0.8364,-1.099,-0.916,-3.479,148.107,21.374,-112.868
11643,-0.3286,0.5894,-0.8169,0.793,-3.662,-4.700,148.079,21.396,-112.846
11653,-0.3428,0.5474,-0.7871,1.953,-5.432,-4.639,148.074,21.445,-112.835
11663,-0.3535,0.5259,-0.7671,2.563,-6.165,-3.113,148.074,21.511,-112.841
11673,-0.3555,0.4644,-0.7148,3.296,-6.042,-0.916,148.085,21.577,-112.868
11683,-0.3789,0.3540,-0.6357,1.648,-7.080,0.427,148.112,21.693,-112.912
11693,-0.4102,0.3638,-0.6309,-4.517,-7.751,2.075,148.068,21.824,-112.972
11703,-0.4131,0.4243,-0.6597,-7.690,-3.601,5.737,147.953,21.885,-113.049
11713,-0.3921,0.5483,-0.7222,-4.761,4.333,10.315,147.832,21.808,-113.115
11723,-0.3628,0.6855,-0.8154,3.967,12.451,14.160,147.772,21.599,-113.176
11733,-0.3325,0.7744,-0.8955,14.282,17.700,14.893,147.810,21.313,-113.209
11743,-0.2764,0.7773,-0.9160,17.944,15.930,10.986,147.903,21.039,-113.220
11753,-0.2656,0.7163,-0.8945,11.963,7.507,4.150,147.958,20.874,-113.214
11763,-0.3071,0.6841,-0.8545,-0.732,-2.563,-2.502,147.887,20.858,-113.203
11773,-0.3599,0.6504,-0.7998,-11.169,-8.911,-6.226,147.711,20.945,-113.198
11783,-0.4092,0.5879,-0.6968,-14.648,-11.292,-8.057,147.491,21.116,-113.192
11793,-0.4448,0.5190,-0.5977,-9.827,-11.108,-8.789,147.310,21.341,-113.176
11803,-0.4351,0.4795,-0.5552,-1.343,-7.690,-7.019,147.228,21.533,-113.154
11813,-0.3955,0.4126,-0.5728,8.057,-1.099,-3.296,147.283,21.638,-113.132
11823,-0.3564,0.4214,-0.7085,13.855,7.629,0.000,147.458,21.594,-113.088
11833,-0.3071,0.5474,-0.8950,12.695,17.273,3.601,147.618,21.374,-113.022
11843,-0.2588,0.7144,-1.0840,8.911,23.315,6.470,147.722,21.044,-112.945
11852,-0.2026,0.8936,-1.2202,3.784,22.522,5.615,147.788,20.825,-112.868
11862,-0.1982,0.9092,-1.1606,-0.183,14.771,0.671,147.816,20.698,-112.791
11872,-0.2681,0.7383,-0.9214,-4.944,-2.563,-8.789,147.788,20.764,-112.725
11883,-0.3950,0.3569,-0.5122,-15.137,-27.527,-19.592,147.645,21.105,-112.703
11893,-0.5200,0.1069,-0.2305,-29.541,-50.110,-26.367,147.332,21.665,-112.753
11903,-0.5688,0.0552,-0.1475,-37.903,-53.040,-20.203,146.904,22.225,-112.879
11917,-0.5625,0.1572,-0.2236,-27.039,-30.212,-3.723,146.580,22.495,-113.022
11923,-0.4487,0.3853,-0.5063,-1.221,9.094,14.954,146.536,22.341,-113.104
11933,-0.3232,0.7104,-0.8970,25.940,47.791,29.541,146.805,21.775,-113.082
11942,-0.2070,0.9653,-1.2163,42.114,67.383,33.875,147.261,21.028,-112.994
11952,-0.1279,1.0337,-1.3701,44.556,61.462,26.306,147.750,20.369,-112.874
11962,-0.1377,0.9893,-1.3599,29.846,33.081,10.010,148.079,20.034,-112.775
11972,-0.2114,0.8359,-1.1509,3.845,-6.714,-7.996,148.129,20.132,-112.742
11983,-0.2988,0.4834,-0.7480,-21.912,-44.128,-21.667,147.892,20.621,-112.791
11993,-0.4209,0.3198,-0.4746,-43.091,-65.979,-26.794,147.415,21.324,-112.923
12003,-0.5000,0.2954,-0.3472,-42.419,-60.120,-20.874,146.937,21.945,-113.082
12013,-0.5244,0.3330,-0.3140,-19.775,-30.884,-8.240,146.695,22.247,-113.192
12023,-0.4565,0.3711,-0.4165,11.780,4.944,6.042,146.805,22.170,-113.214
12033,-0.3926,0.4888,-0.6318,35.828,28.748,15.259,147.173,21.846,-113.187
12043,-0.2983,0.6333,-0.9048,44.128,38.086,18.372,147.640,21.429,-113.126
12052,-0.2451,0.7178,-1.0825,35.156,35.339,15.930,148.008,21.044,-113.071
12062,-0.2471,0.7559,-1.1538,16.296,24.231,8.850,148.195,20.792,-113.011
12072,-0.2808,0.7603,-1.1162,-5.676,7.507,-0.366,148.151,20.731,-112.967
12083,-0.3218,0.6719,-0.9175,-22.644,-10.681,-8.423,147.931,20.869,-112.950
12093,-0.3701,0.5679,-0.7026,-29.297,-25.513,-13.977,147.634,21.154,-112.967
12103,-0.4136,0.5195,-0.5962,-25.574,-31.494,-14.709,147.360,21.500,-113.016
12113,-0.4116,0.4624,-0.5347,-10.864,-23.865,-10.254,147.233,21.758,-113.060
12123,-0.3843,0.3911,-0.5293,5.554,-8.789,-4.333,147.288,21.857,-113.071
12133,-0.3735,0.3872,-0.5962,14.282,5.798,0.854,147.437,21.802,-113.049
12143,-0.3618,0.4380,-0.6782,13.062,16.907,5.859,147.585,21.627,-113.005
12153,-0.3408,0.5366,-0.7646,5.737,22.217,9.644,147.656,21.390,-112.961
12163,-0.3350,0.6475,-0.8525,1.038,23.315,10.864,147.684,21.132,-112.928
12173,-0.3511,0.7153,-0.9023,0.610,21.423,9.583,147.700,20.901,-112.890
12183,-0.3638,0.7217,-0.9199,1.282,17.822,6.104,147.728,20.720,-112.846
12193,-0.3364,0.6807,-0.9077,0.122,11.475,0.122,147.755,20.621,-112.780
12203,-0.3184,0.6099,-0.8442,-4.761,1.831,-6.104,147.728,20.638,-112.714
12213,-0.3154,0.5078,-0.7417,-11.230,-8.789,-9.949,147.629,20.764,-112.676
12223,-0.3193,0.4761,-0.6865,-16.357,-15.320,-10.010,147.469,20.945,-112.670
12233,-0.3467,0.5151,-0.6763,-15.259,-14.282,-5.859,147.305,21.099,-112.703
12243,-0.3711,0.5767,-0.6909,-5.554,-6.104,0.854,147.233,21.149,-112.742
12253,-0.3882,0.6206,-0.7334,9.583,4.456,6.104,147.321,21.077,-112.775
12263,-0.3857,0.6221,-0.7905,23.499,12.756,7.751,147.557,20.929,-112.769
12273,-0.3740,0.5288,-0.8081,28.992,14.160,5.432,147.859,20.775,-112.736
12283,-0.3530,0.4214,-0.7773,20.691,7.935,0.488,148.079,20.709,-112.698
12293,-0.3574,0.3848,-0.7637,1.343,-1.770,-3.357,148.101,20.742,-112.676
12303,-0.3345,0.4697,-0.7861,-17.517,-6.287,-2.869,147.920,20.808,-112.687
12312,-0.2793,0.7163,-0.9102,-22.949,-3.418,1.709,147.678,20.830,-112.720
12323,-0.2290,0.8838,-1.0132,-9.277,5.981,7.568,147.574,20.737,-112.753
12332,-0.2363,0.9058,-1.0093,10.986,11.902,8.301,147.684,20.594,-112.764
12343,-0.2964,0.7168,-0.9072,22.705,5.310,2.075,147.914,20.539,-112.747
12353,-0.3569,0.5337,-0.7686,16.052,-8.484,-7.507,148.079,20.649,-112.731
12363,-0.4131,0.3711,-0.5903,-0.366,-19.897,-13.733,148.079,20.891,-112.720
12373,-0.4668,0.2085,-0.3896,-14.404,-22.583,-14.099,147.936,21.154,-112.720
12383,-0.4819,0.1382,-0.2715,-22.705,-19.470,-9.460,147.700,21.374,-112.742
12393,-0.4590,0.2822,-0.3540,-21.545,-8.179,0.183,147.469,21.440,-112.791
12403,-0.3911,0.5430,-0.6426,-5.737,14.526,13.489,147.398,21.248,-112.830
12413,-0.2539,0.9604,-1.1665,16.602,43.884,24.170,147.574,20.748,-112.797
12423,-0.1445,1.2114,-1.4956,33.936,65.247,25.024,147.969,20.061,-112.648
12433,-0.0942,1.1582,-1.4912,38.086,58.289,12.573,148.420,19.501,-112.429
12443,-0.1475,0.7344,-1.1411,20.691,19.104,-9.033,148.689,19.385,-112.242
12453,-0.3130,0.3745,-0.7300,-19.592,-40.100,-33.203,148.524,19.896,-112.165
12463,-0.4805,0.2739,-0.4761,-56.763,-82.031,-44.617,147.936,20.830,-112.214
12473,-0.5591,0.2417,-0.2993,-58.777,-84.778,-35.889,147.294,21.742,-112.368
12483,-0.5386,0.1685,-0.1689,-25.940,-52.734,-15.503,146.975,22.269,-112.533
12493,-0.4570,0.1069,-0.1782,16.052,-8.301,5.249,147.096,22.308,-112.632
12503,-0.4014,0.2344,-0.4282,42.725,26.855,19.714,147.513,21.978,-112.654
12513,-0.3242,0.5234,-0.8496,46.265,49.866,28.198,147.991,21.407,-112.621
12523,-0.2627,0.8101,-1.1841,37.964,59.387,29.663,148.392,20.742,-112.555
12533,-0.2090,0.9766,-1.3579,25.208,52.246,23.560,148.672,20.176,-112.473
12543,-0.1519,0.9814,-1.3315,6.775,27.649,11.536,148.760,19.880,-112.429
12553,-0.1963,0.8687,-1.1401,-15.381,-8.118,-4.211,148.601,19.968,-112.434
12563,-0.2847,0.6812,-0.8613,-32.532,-38.452,-18.677,148.260,20.396,-112.478
12573,-0.3843,0.5317,-0.6133,-38.696,-52.307,-24.780,147.854,20.973,-112.544
12583,-0.4546,0.4097,-0.4487,-28.748,-46.509,-20.935,147.535,21.478,-112.621
12593,-0.4697,0.3032,-0.3848,-5.615,-27.039,-12.207,147.464,21.769,-112.665
12603,-0.4438,0.2827,-0.4473,16.357,-2.014,-1.770,147.629,21.797,-112.659
12613,-0.4043,0.3613,-0.5928,26.489,18.799,8.118,147.909,21.594,-112.626
12623,-0.3335,0.4805,-0.7549,24.902,29.663,14.160,148.173,21.270,-112.588
12633,-0.2944,0.5952,-0.8857,18.738,28.748,14.343,148.370,20.945,-112.555
12643,-0.2939,0.7041,-0.9751,10.376,21.362,11.292,148.480,20.704,-112.538
12653,-0.3188,0.7485,-1.0083,2.625,12.390,6.897,148.508,20.566,-112.533
12663,-0.3252,0.7153,-0.9956,-4.150,4.272,1.709,148.469,20.517,-112.522
12673,-0.3301,0.6479,-0.9238,-10.010,-2.319,-4.150,148.381,20.561,-112.500
12683,-0.3276,0.5581,-0.8184,-14.893,-7.751,-8.606,148.244,20.671,-112.462
12693,-0.3247,0.4858,-0.7275,-18.799,-11.475,-10.620,148.068,20.825,-112.429
12703,-0.3335,0.4941,-0.6855,-17.212,-12.146,-9.338,147.898,20.978,-112.418
12713,-0.3604,0.4849,-0.6377,-8.240,-10.315,-4.333,147.810,21.088,-112.434
12723,-0.3882,0.4785,-0.6167,3.906,-6.653,1.221,147.832,21.138,-112.484
12733,-0.3945,0.4907,-0.6421,12.085,-1.526,5.920,147.931,21.121,-112.544
12743,-0.3940,0.4800,-0.6670,15.625,6.042,8.484,148.068,21.022,-112.588
12753,-0.3887,0.5010,-0.7319,13.977,12.756,8.728,148.206,20.869,-112.593
12763,-0.3296,0.5723,-0.8491,8.179,16.724,7.690,148.299,20.687,-112.571
12773,-0.2856,0.6396,-0.9268,1.099,17.273,5.859,148.326,20.506,-112.527
12783,-0.2793,0.7153,-0.9712,-6.592,12.512,2.930,148.271,20.385,-112.484
12793,-0.2930,0.7778,-0.9434,-11.536,3.845,0.305,148.167,20.352,-112.467
12803,-0.3218,0.7178,-0.8267,-11.353,-5.859,-2.258,148.046,20.413,-112.478
12813,-0.3716,0.5679,-0.6504,-9.644,-13.916,-5.737,147.942,20.561,-112.505
12823,-0.4136,0.4209,-0.5327,-9.399,-18.250,-8.179,147.838,20.759,-112.533
12833,-0.4141,0.3970,-0.5649,-9.399,-13.306,-7.141,147.739,20.912,-112.544
12843,-0.3882,0.4619,-0.7026,-5.005,2.319,-2.502,147.700,20.907,-112.511
12853,-0.3262,0.5947,-0.8804,1.770,20.142,2.014,147.755,20.726,-112.412
12863,-0.2749,0.7148,-1.0122,8.667,29.419,4.028,147.887,20.451,-112.280
12873,-0.2603,0.6919,-0.9561,13.000,24.658,2.014,148.057,20.231,-112.159
12883,-0.3052,0.5894,-0.8135,10.315,6.287,-2.258,148.184,20.193,-112.104
12893,-0.3569,0.5229,-0.7271,1.465,-11.719,-5.127,148.189,20.319,-112.121
12903,-0.4092,0.4082,-0.6450,-2.930,-18.311,-4.028,148.140,20.495,-112.187
12913,-0.4087,0.3677,-0.6489,-4.211,-13.611,-0.061,148.068,20.610,-112.264
12923,-0.3594,0.4458,-0.7456,-3.967,-0.427,4.700,148.013,20.588,-112.308
12933,-0.2993,0.6074,-0.9063,-0.671,13.489,8.606,148.008,20.429,-112.313
12943,-0.1914,0.8608,-1.1719,3.113,21.545,9.644,148.052,20.198,-112.275
12953,-0.1465,1.0142,-1.2480,7.812,23.010,6.470,148.151,19.968,-112.209
12963,-0.2109,0.8896,-1.0713,10.071,9.094,-1.831,148.277,19.902,-112.137
12973,-0.3032,0.6440,-0.7661,1.404,-18.372,-13.855,148.299,20.127,-112.115
12983,-0.4126,0.4023,-0.4634,-14.160,-44.922,-22.766,148.140,20.632,-112.159
12993,-0.5186,0.2334,-0.2803,-22.827,-53.833,-22.766,147.876,21.209,-112.258
13003,-0.5635,0.1753,-0.2280,-17.578,-38.574,-14.526,147.673,21.610,-112.346
13013,-0.5146,0.1748,-0.2632,-1.648,-8.240,-2.258,147.645,21.693,-112.374
13023,-0.4189,0.2900,-0.4453,14.038,20.996,9.888,147.794,21.462,-112.341
13033,-0.3447,0.4893,-0.7368,23.621,39.368,17.944,148.057,21.033,-112.280
13043,-0.2910,0.7109,-1.0376,25.391,46.814,21.362,148.332,20.522,-112.209
13053,-0.2285,0.8594,-1.2407,20.874,43.640,19.104,148.568,20.056,-112.137
13063,-0.1919,0.8608,-1.2837,11.963,28.687,11.169,148.705,19.748,-112.083
13073,-0.2124,0.7754,-1.2148,-1.892,5.615,0.427,148.700,19.698,-112.055
13083,-0.2603,0.6353,-1.0474,-15.198,-18.494,-9.521,148.541,19.907,-112.066
13093,-0.3101,0.4976,-0.8438,-22.522,-33.447,-14.771,148.299,20.270,-112.121
13103,-0.3472,0.4106,-0.6680,-19.287,-36.133,-13.489,148.079,20.649,-112.198
13113,-0.3535,0.3281,-0.5205,-6.226,-29.724,-7.446,147.980,20.940,-112.302
13123,-0.3652,0.2949,-0.4829,8.606,-18.372,0.610,148.024,21.094,-112.412
13133,-0.3882,0.3364,-0.5376,17.273,-3.845,9.644,148.162,21.072,-112.522
13143,-0.3945,0.4395,-0.6309,19.348,11.169,17.883,148.315,20.885,-112.621
13153,-0.3662,0.5786,-0.7710,17.456,20.142,22.217,148.458,20.594,-112.709
13163,-0.3506,0.7026,-0.8979,13.794,20.325,20.081,148.574,20.319,-112.780
13173,-0.3408,0.7856,-0.9746,7.996,13.855,14.465,148.634,20.127,-112.835
13183,-0.3252,0.8066,-0.9907,-0.122,4.211,7.385,148.618,20.050,-112.874
13193,-0.2871,0.7837,-0.9185,-8.362,-5.737,0.122,148.524,20.099,-112.906
13203,-0.2725,0.7041,-0.7637,-13.245,-14.648,-5.676,148.381,20.253,-112.939
13213,-0.3311,0.6113,-0.6416,-14.221,-18.860,-9.094,148.233,20.462,-112.961
13223,-0.3862,0.5088,-0.5591,-10.376,-14.709,-10.010,148.129,20.638,-112.956
13233,-0.4321,0.4551,-0.5371,-3.784,-5.615,-8.362,148.107,20.731,-112.912
13243,-0.4360,0.4600,-0.5894,3.906,5.127,-3.723,148.167,20.709,-112.846
13253,-0.4058,0.5249,-0.7295,12.573,15.625,1.038,148.321,20.566,-112.769
13263,-0.3491,0.6055,-0.8999,18.250,22.217,3.357,148.535,20.363,-112.676
13273,-0.2876,0.6440,-1.0098,20.020,22.888,2.502,148.777,20.154,-112.571
13283,-0.2285,0.6045,-0.9990,15.503,16.663,-0.854,148.964,20.017,-112.467
13293,-0.2441,0.5649,-0.9429,3.357,4.456,-5.188,149.024,20.006,-112.396
13303,-0.2808,0.5059,-0.8364,-10.071,-5.615,-7.874,148.936,20.094,-112.357
13313,-0.3286,0.4136,-0.6787,-19.470,-11.108,-8.728,148.749,20.231,-112.341
13323,-0.3867,0.3916,-0.6060,-23.865,-11.292,-7.874,148.513,20.369,-112.330
13333,-0.4092,0.4395,-0.6274,-20.081,-3.967,-3.723,148.315,20.424,-112.319
13343,-0.3726,0.5239,-0.7544,-7.080,8.301,2.686,148.250,20.341,-112.297
13353,-0.3120,0.6416,-0.9600,8.240,18.677,7.874,148.348,20.138,-112.264
13363,-0.2539,0.7295,-1.1108,18.127,22.034,9.949,148.541,19.896,-112.231
13373,-0.1919,0.7827,-1.1729,18.494,15.381,8.057,148.727,19.726,-112.214
13383,-0.2012,0.7202,-1.0430,8.972,-0.244,1.953,148.810,19.715,-112.236
13393,-0.3223,0.4365,-0.6191,-7.507,-23.682,-7.019,148.711,19.957,-112.302
13403,-0.4976,0.1040,-0.1577,-27.527,-49.194,-15.503,148.392,20.457,-112.434
13413,-0.6069,0.0425,0.0293,-44.312,-58.228,-15.381,147.887,21.033,-112.621
13423,-0.5942,0.1938,-0.1216,-36.804,-31.433,-2.747,147.464,21.313,-112.775
13433,-0.4463,0.5059,-0.5649,-7.996,23.560,17.334,147.376,21.022,-112.791
13443,-0.1094,1.1343,-1.4312,35.095,86.548,31.921,147.799,20.121,-112.582
13453,-0.0225,1.2114,-1.6094,30.029,64.148,19.043,148.167,19.479,-112.390
13463,-0.0200,1.1826,-1.5610,10.071,17.700,-2.197,148.310,19.341,-112.269
13473,-0.1333,0.9785,-1.2764,-10.376,-30.884,-22.705,148.217,19.720,-112.236
13483,-0.2729,0.6035,-0.8286,-21.851,-64.941,-36.560,147.986,20.468,-112.269
13493,-0.4053,0.2446,-0.4312,-25.696,-81.970,-41.016,147.695,21.379,-112.363
13503,-0.4912,0.0601,-0.2300,-18.250,-73.792,-36.011,147.480,22.192,-112.462
13513,-0.5293,-0.0093,-0.1772,-1.709,-42.419,-21.484,-177.001,22.665,-112.511
13523,-0.5063,0.0151,-0.2363,15.015,-3.479,-2.136,176.331,22.703,-112.484
13533,-0.4551,0.1816,-0.4277,26.733,28.320,15.259,176.545,22.407,-112.632
13543,-0.3813,0.4126,-0.7124,31.250,46.570,26.672,176.759,21.929,-112.890
13553,-0.3057,0.6704,-1.0083,27.161,48.462,30.457,176.918,21.429,-113.187
13563,-0.2388,0.8516,-1.2021,20.020,40.039,27.771,177.017,21.011,-113.461
13573,-0.1982,0.9038,-1.2544,9.521,24.414,19.226,177.045,20.759,-113.654
13583,-0.2163,0.8530,-1.1729,-5.493,3.662,6.897,176.962,20.720,-113.725
13593,-0.2637,0.7129,-0.9771,-22.705,-16.663,-5.188,176.754,20.885,-113.681
13603,-0.3218,0.5693,-0.7559,-33.020,-28.076,-13.855,176.468,21.176,-113.549
13613,-0.3911,0.4819,-0.5918,-32.654,-29.968,-16.418,176.199,21.484,-113.390
13623,-0.4141,0.4604,-0.4800,-20.874,-22.705,-12.512,176.034,21.720,-113.275
13633,-0.4028,0.4263,-0.4404,-0.610,-11.597,-4.639,176.045,21.841,-113.231
13643,-0.4067,0.4229,-0.5054,18.860,0.977,3.662,176.215,21.824,-113.275
13653,-0.4033,0.4766,-0.6084,28.564,13.062,10.071,176.468,21.687,-113.373
13663,-0.3770,0.5449,-0.7407,28.076,21.545,13.855,176.699,21.467,-113.505
13673,-0.3315,0.6089,-0.8735,21.851,25.574,12.329,176.874,21.204,-113.621
13683,-0.2925,0.6348,-0.9351,10.803,22.888,7.690,176.957,20.973,-113.692
13693,-0.2773,0.6494,-0.9712,-1.953,15.503,2.197,176.929,20.814,-113.703
13703,-0.2793,0.6621,-0.9814,-11.230,8.423,-2.014,176.830,20.731,-113.681
13713,-0.2837,0.6499,-0.9463,-14.282,3.235,-4.089,176.704,20.704,-113.632
13723,-0.2954,0.6079,-0.8887,-10.498,-1.404,-5.127,176.616,20.720,-113.582
13733,-0.3042,0.5498,-0.8276,-4.761,-6.226,-5.432,176.589,20.786,-113.527
13743,-0.3281,0.4541,-0.7510,1.953,-10.071,-5.188,176.622,20.885,-113.478
13753,-0.3647,0.3745,-0.6997,4.333,-12.573,-4.028,176.682,21.017,-113.439
13763,-0.3823,0.3579,-0.6943,2.136,-11.169,-1.587,176.704,21.127,-113.434
13773,-0.3843,0.4023,-0.7139,-1.892,-5.493,2.319,176.677,21.182,-113.461
13783,-0.3569,0.4912,-0.7534,-2.991,2.014,6.592,176.622,21.160,-113.527
13793,-0.3140,0.5820,-0.8101,0.488,7.263,9.827,176.589,21.077,-113.632
13803,-0.2744,0.6357,-0.8472,4.700,7.690,10.681,176.600,20.995,-113.741
13813,-0.2715,0.6401,-0.8633,5.066,3.418,9.338,176.611,20.956,-113.835
13823,-0.3027,0.6401,-0.8696,0.549,-1.953,6.897,176.594,20.973,-113.912
13833,-0.3423,0.6182,-0.8408,-5.371,-5.127,4.150,176.523,21.022,-113.961
13843,-0.3682,0.6045,-0.7969,-10.193,-7.080,1.709,176.413,21.088,-113.983
13853,-0.3643,0.6118,-0.7676,-10.986,-7.568,0.061,176.298,21.165,-113.989
13863,-0.3613,0.6123,-0.7520,-7.263,-6.042,-0.610,176.226,21.226,-113.983
13873,-0.3350,0.6074,-0.7368,-0.244,-2.808,-0.793,176.226,21.253,-113.978
13883,-0.3169,0.5854,-0.7139,5.920,-1.099,-0.671,176.287,21.264,-113.972
13893,-0.3218,0.5483,-0.6821,8.362,-0.854,-0.610,176.375,21.275,-113.967
13903,-0.3389,0.5029,-0.6826,6.287,-0.793,-0.732,176.440,21.281,-113.961
13913,-0.3691,0.4985,-0.6929,0.549,0.000,-0.549,176.446,21.286,-113.956
13923,-0.3887,0.5220,-0.7134,-4.822,2.136,0.732,176.396,21.264,-113.961
13933,-0.3740,0.5825,-0.7832,-7.202,6.348,1.587,176.320,21.198,-113.972
13943,-0.3281,0.6450,-0.8462,-4.150,11.963,1.770,176.276,21.077,-113.983
13953,-0.2998,0.6465,-0.8701,2.136,14.160,1.526,176.292,20.934,-113.989
13963,-0.2686,0.6743,-0.9160,5.554,10.864,-0.183,176.353,20.825,-113.978
13973,-0.2388,0.6860,-0.9380,6.165,5.127,-2.258,176.424,20.775,-113.950
13983,-0.2656,0.6304,-0.8828,5.127,-2.136,-4.517,176.490,20.803,-113.906
13993,-0.3140,0.5347,-0.7852,1.343,-10.681,-7.202,176.528,20.912,-113.835
14003,-0.3735,0.3843,-0.6255,-4.150,-17.334,-9.216,176.517,21.088,-113.747
14013,-0.4351,0.2856,-0.5137,-10.376,-18.860,-9.644,176.451,21.286,-113.659
14023,-0.4585,0.2949,-0.4756,-12.817,-11.841,-5.249,176.336,21.407,-113.610
14033,-0.4263,0.3789,-0.5317,-5.005,3.235,4.456,176.270,21.368,-113.654
14043,-0.3437,0.4946,-0.6924,11.047,20.935,14.771,176.331,21.154,-113.796
14053,-0.2554,0.6387,-0.9097,24.658,33.325,21.118,176.501,20.808,-114.000
14063,-0.1904,0.7642,-1.0986,27.771,35.339,21.545,176.710,20.440,-114.208
14073,-0.1792,0.7969,-1.1455,19.714,26.489,16.174,176.534,20.039,-114.368
14083,-0.2183,0.7490,-1.0610,3.906,9.827,6.348,176.232,19.830,-114.428
14093,-0.2900,0.5776,-0.8496,-13.489,-9.155,-4.517,175.809,19.885,-114.384
14103,-0.3696,0.4214,-0.6533,-29.968,-23.193,-12.878,175.265,20.176,-114.263
14113,-0.4146,0.3926,-0.5508,-37.964,-24.841,-13.611,174.622,20.550,-114.142
14123,-0.4116,0.4106,-0.5347,-27.893,-11.841,-5.920,174.045,20.781,-114.093
14133,-0.3530,0.4722,-0.6382,-4.150,7.202,4.883,173.683,20.737,-114.137
14143,-0.2832,0.5840,-0.8286,19.409,22.461,13.611,173.546,20.446,-114.252
14153,-0.2256,0.7109,-1.0112,30.273,28.076,17.456,173.507,20.050,-114.406
14163,-0.2017,0.8018,-1.1035,26.245,23.010,15.259,173.425,19.693,-114.538
14173,-0.2183,0.8262,-1.0938,13.062,9.705,6.958,173.227,19.484,-114.604
14183,-0.2690,0.8154,-1.0171,-3.357,-6.104,-4.028,172.886,19.468,-114.565
14193,-0.3149,0.7168,-0.8652,-14.709,-17.273,-13.367,172.458,19.616,-114.450
14203,-0.3540,0.5293,-0.6543,-19.226,-22.644,-19.653,172.007,19.896,-114.274
14214,-0.3940,0.4238,-0.5371,-20.081,-23.743,-21.423,171.573,20.259,-114.082
14223,-0.4038,0.3828,-0.5054,-13.306,-17.029,-17.029,171.205,20.572,-113.928
14233,-0.3931,0.3931,-0.5312,-1.038,-4.517,-8.484,170.947,20.731,-113.846
14243,-0.3657,0.4497,-0.6270,11.963,8.057,-0.488,170.804,20.698,-113.829
14253,-0.3364,0.5210,-0.7622,20.996,17.273,4.578,170.755,20.517,-113.846
14263,-0.3008,0.5698,-0.8965,21.851,21.301,6.653,170.728,20.253,-113.879
14273,-0.2744,0.5806,-0.9712,15.869,20.020,5.371,170.662,19.979,-113.901
14283,-0.2715,0.5601,-0.9731,5.127,12.817,1.831,170.508,19.786,-113.901
14293,-0.2842,0.5220,-0.9282,-6.897,2.625,-1.953,170.250,19.720,-113.873
14303,-0.2979,0.4961,-0.8550,-16.357,-5.066,-4.395,169.898,19.748,-113.840
14313,-0.3130,0.4990,-0.7891,-20.386,-8.484,-4.272,169.481,19.825,-113.807
14323,-0.3071,0.5483,-0.7539,-16.418,-7.263,-1.648,169.063,19.880,-113.807
14333,-0.3018,0.5874,-0.7310,-5.432,-3.479,1.892,168.723,19.891,-113.835
14343,-0.3096,0.5854,-0.7310,7.019,0.183,4.211,168.503,19.863,-113.879
14353,-0.3340,0.5493,-0.7354,12.573,2.014,4.211,168.360,19.841,-113.917
14363,-0.3643,0.4824,-0.6938,7.996,1.221,2.991,168.201,19.858,-113.945
14373,-0.4043,0.3945,-0.6084,-3.235,-2.014,1.587,167.948,19.962,-113.967
14383,-0.4077,0.3975,-0.5864,-15.564,-4.700,1.282,167.569,20.105,-113.989
14393,-0.3896,0.4644,-0.6265,-20.569,-1.221,4.272,167.108,20.176,-114.038
14403,-0.3389,0.5986,-0.7349,-15.564,10.071,9.949,166.663,20.050,-114.115
14413,-0.2505,0.7432,-0.9014,-4.333,23.193,14.526,166.328,19.715,-114.208
14423,-0.1729,0.8311,-1.0117,2.930,28.992,14.343,166.075,19.281,-114.285
14433,-0.1865,0.8208,-1.0229,-1.038,22.583,8.301,165.806,18.929,-114.313
14443,-0.2651,0.6719,-0.8882,-15.015,8.545,-1.831,165.438,18.798,-114.274
14453,-0.3594,0.5396,-0.7168,-35.889,-6.836,-12.573,164.894,18.924,-114.159
14463,-0.4067,0.5024,-0.6240,-49.683,-13.367,-17.334,164.213,19.177,-114.022
14473,-0.4087,0.5059,-0.5664,-46.448,-7.874,-14.038,163.531,19.380,-113.901
14483,-0.3882,0.5049,-0.5737,-24.902,3.540,-5.859,163.059,19.440,-113.829
14493,-0.3467,0.4687,-0.6401,3.784,14.832,2.991,162.911,19.330,-113.813
14503,-0.2974,0.4556,-0.7593,21.851,22.095,9.399,162.977,19.089,-113.840
14513,-0.2280,0.5195,-0.9082,22.766,25.085,12.817,163.059,18.748,-113.895
14523,-0.1782,0.6255,-1.0347,13.123,24.109,13.489,163.026,18.375,-113.956
14533,-0.1816,0.7285,-1.1108,2.502,18.860,12.024,162.867,18.056,-114.016
14543,-0.2021,0.7734,-1.1416,-3.113,11.230,8.789,162.653,17.825,-114.071
14553,-0.2290,0.7661,-1.0801,-3.662,3.601,3.967,162.427,17.699,-114.099
14563,-0.2534,0.6899,-0.9336,-2.869,-5.859,-1.282,162.208,17.704,-114.104
14573,-0.2925,0.6123,-0.8105,-2.441,-14.954,-5.310,161.993,17.847,-114.104
14583,-0.3179,0.5322,-0.7007,-0.244,-18.127,-6.775,161.801,18.056,-114.093
14593,-0.3257,0.4478,-0.6294,4.150,-16.479,-5.981,161.669,18.281,-114.088
14603,-0.3218,0.4351,-0.6304,6.409,-12.329,-3.235,161.570,18.452,-114.093
14613,-0.3174,0.4624,-0.6606,6.836,-7.080,1.038,161.461,18.545,-114.131
14623,-0.3091,0.5054,-0.6958,6.348,-2.563,5.127,161.329,18.567,-114.192
14633,-0.2935,0.5410,-0.7080,5.554,-0.183,7.324,161.175,18.539,-114.263
14643,-0.2925,0.5928,-0.7280,4.700,0.610,8.362,160.994,18.495,-114.346
14653,-0.2959,0.6138,-0.7593,5.127,2.075,9.216,160.818,18.430,-114.428
14663,-0.2998,0.6172,-0.7900,5.188,4.395,9.216,160.653,18.342,-114.505
14673,-0.2905,0.6069,-0.8145,3.906,5.737,7.996,160.505,18.237,-114.565
14683,-0.2764,0.6001,-0.8413,0.732,5.554,6.165,160.334,18.133,-114.609
14693,-0.2632,0.6191,-0.8750,-2.930,3.723,3.906,160.142,18.040,-114.631
14703,-0.2769,0.6309,-0.8760,-5.920,-0.488,1.587,159.922,18.007,-114.648
14714,-0.2988,0.6299,-0.8462,-7.141,-5.920,-0.427,159.681,18.040,-114.670
14723,-0.3110,0.6255,-0.7900,-6.958,-10.803,-1.831,159.423,18.138,-114.686
14733,-0.3325,0.6201,-0.7261,-4.700,-13.123,-2.502,159.170,18.276,-114.714
14743,-0.3545,0.6108,-0.6660,-0.488,-11.719,-1.892,158.939,18.424,-114.736
14753,-0.3618,0.6089,-0.6455,4.639,-7.080,-0.793,158.758,18.528,-114.758
14763,-0.3516,0.6108,-0.6523,8.484,-1.160,-0.122,158.621,18.572,-114.758
14773,-0.3237,0.6055,-0.6611,9.338,3.845,0.305,158.505,18.545,-114.747
14783,-0.2866,0.6055,-0.6812,7.019,6.775,-0.061,158.384,18.474,-114.719
14793,-0.2617,0.6221,-0.7222,2.563,8.179,-1.282,158.231,18.375,-114.675
14803,-0.2417,0.6499,-0.7788,-1.099,9.827,-2.563,158.060,18.243,-114.615
14813,-0.2402,0.6758,-0.8384,-2.441,12.329,-4.028,157.896,18.089,-114.527
14823,-0.2339,0.6768,-0.8809,-1.770,13.977,-5.493,157.753,17.919,-114.417
14833,-0.2300,0.6309,-0.8901,-0.427,13.000,-7.141,157.654,17.765,-114.296
14843,-0.2520,0.5483,-0.8745,-0.488,9.094,-9.216,157.593,17.677,-114.170
14853,-0.2852,0.4946,-0.8623,-3.357,3.967,-10.559,157.522,17.661,-114.049
14863,-0.3286,0.4556,-0.8433,-5.981,0.244,-9.216,157.429,17.704,-113.961
14873,-0.3481,0.4419,-0.8052,-5.310,-1.221,-6.104,157.330,17.770,-113.906
14883,-0.3408,0.4502,-0.7690,-1.587,-1.831,-2.014,157.242,17.831,-113.895
14893,-0.3311,0.4692,-0.7412,3.662,-0.977,1.709,157.176,17.858,-113.917
14903,-0.3091,0.4922,-0.7070,7.507,1.526,4.822,157.115,17.847,-113.956
14913,-0.2686,0.5493,-0.7090,7.507,3.906,7.141,157.028,17.770,-114.011
14923,-0.2490,0.6089,-0.7402,4.517,6.042,8.179,156.890,17.650,-114.066
14933,-0.2456,0.6724,-0.7920,-0.427,8.179,7.568,156.703,17.507,-114.104
14943,-0.2632,0.7300,-0.8423,-5.310,9.155,5.249,156.473,17.358,-114.115
14953,-0.3037,0.7129,-0.8472,-7.446,7.507,1.160,156.237,17.265,-114.093
14963,-0.3125,0.6489,-0.8110,-9.338,2.808,-4.089,156.011,17.249,-114.044
14973,-0.3096,0.5371,-0.6978,-13.428,-3.235,-8.789,155.764,17.336,-113.972
14983,-0.3311,0.4390,-0.5972,-18.982,-8.423,-11.780,155.479,17.529,-113.895
14993,-0.3267,0.4697,-0.6021,-23.254,-7.019,-10.376,155.132,17.688,-113.829
15003,-0.3521,0.4224,-0.5937,-20.447,2.686,-4.517,154.841,17.765,-113.774
15013,-0.3691,0.4263,-0.6450,-15.869,13.916,0.244,154.616,17.715,-113.714
15023,-0.3213,0.5444,-0.7559,-13.306,23.254,5.188,154.402,17.501,-113.659
15033,-0.3018,0.5645,-0.7910,-7.385,28.076,10.437,154.237,17.205,-113.632
15043,-0.2666,0.6416,-0.8901,-4.333,27.100,11.719,154.094,16.875,-113.615
15053,-0.2070,0.7422,-1.0186,-1.648,25.146,10.315,153.984,16.534,-113.599
15063,-0.1440,0.8384,-1.1523,1.587,23.254,8.057,153.907,16.183,-113.571
15073,-0.0493,0.9521,-1.2739,2.808,19.714,4.395,153.951,15.985,-113.522
15083,-0.0474,0.9307,-1.2344,4.272,9.399,-1.831,154.006,15.908,-113.461
15093,-0.1265,0.8228,-1.0977,3.235,-10.010,-10.193,154.056,16.046,-113.412
15103,-0.2456,0.5747,-0.7915,0.488,-31.067,-17.883,154.067,16.403,-113.384
15113,-0.4346,0.1953,-0.3921,-5.310,-50.232,-22.888,154.012,16.952,-113.401
15123,-0.5137,0.1099,-0.2114,-15.442,-58.411,-21.729,153.836,17.573,-113.461
15133,-0.5293,0.1484,-0.1846,-13.794,-43.091,-8.484,153.660,17.996,-113.582
15143,-0.4863,0.2446,-0.2729,1.160,-7.996,8.789,153.638,18.029,-113.703
15153,-0.3120,0.5122,-0.6084,17.822,28.320,22.278,153.792,17.677,-113.780
15163,-0.1479,0.8218,-0.9849,27.039,51.880,29.419,154.050,17.084,-113.813
15173,-0.0542,1.0088,-1.2368,27.466,56.335,28.320,154.325,16.452,-113.824
15183,-0.0483,1.0610,-1.3237,17.822,40.771,18.433,154.506,16.007,-113.813
15193,-0.1079,1.0376,-1.2866,1.160,11.353,3.052,154.523,15.892,-113.791
15203,-0.2168,0.8853,-1.0938,-15.442,-18.799,-13.184,154.380,16.117,-113.752
15213,-0.3193,0.6367,-0.8115,-25.024,-38.757,-25.391,154.144,16.573,-113.687
15223,-0.3784,0.4526,-0.5728,-26.428,-48.035,-30.151,153.902,17.139,-113.621
15233,-0.3877,0.3208,-0.4419,-15.381,-43.274,-26.184,153.759,17.644,-113.577
15243,-0.3672,0.2334,-0.3745,2.441,-27.405,-16.357,153.792,17.963,-113.549
15253,-0.3447,0.2397,-0.4019,18.433,-6.592,-3.723,153.979,18.034,-113.544
15263,-0.3359,0.3184,-0.5249,29.114,13.428,8.972,154.265,17.875,-113.566
15273,-0.3223,0.4575,-0.6875,30.212,28.198,19.348,154.545,17.540,-113.621
15283,-0.2852,0.6035,-0.8647,25.513,34.119,23.437,154.781,17.128,-113.692
15293,-0.2520,0.7124,-0.9917,16.968,31.372,21.179,154.935,16.754,-113.752
15303,-0.2197,0.7827,-1.0542,5.493,22.461,14.587,154.979,16.490,-113.791
15313,-0.2007,0.8076,-1.0508,-6.714,9.644,6.226,154.907,16.375,-113.807
15323,-0.2056,0.7773,-0.9868,-16.846,-2.380,-2.014,154.737,16.408,-113.796
15333,-0.2173,0.6973,-0.8877,-18.921,-10.986,-8.301,154.561,16.540,-113.769
15343,-0.2422,0.6196,-0.7607,-16.113,-15.869,-11.047,154.407,16.732,-113.736
15353,-0.2808,0.5381,-0.6538,-8.789,-16.235,-9.521,154.325,16.919,-113.719
15363,-0.3179,0.4849,-0.6089,0.000,-12.756,-5.554,154.319,17.056,-113.725
15373,-0.3433,0.4614,-0.6123,8.118,-5.615,-0.793,154.396,17.111,-113.741
15383,-0.3599,0.4395,-0.6348,13.550,2.686,3.357,154.528,17.073,-113.763
15393,-0.3481,0.4580,-0.6807,13.306,7.996,5.676,154.655,16.979,-113.780
15403,-0.3203,0.5054,-0.7310,9.399,9.216,7.507,154.742,16.864,-113.807
15413,-0.2959,0.5449,-0.7832,5.676,8.301,8.850,154.786,16.749,-113.857
15423,-0.2793,0.5757,-0.8311,2.136,6.897,9.521,154.786,16.644,-113.917
15433,-0.2412,0.6367,-0.8906,-1.282,6.531,9.644,154.759,16.545,-113.978
15443,-0.1992,0.6777,-0.9165,-3.662,6.226,8.301,154.709,16.452,-114.027
15453,-0.2017,0.6973,-0.9165,-4.517,3.052,4.395,154.655,16.408,-114.055
15463,-0.2100,0.7056,-0.9111,-6.714,-2.380,-0.244,154.583,16.430,-114.066
15473,-0.2163,0.6914,-0.8813,-8.423,-6.897,-4.089,154.501,16.512,-114.055
15483,-0.2388,0.6470,-0.8208,-8.667,-10.010,-6.714,154.418,16.628,-114.038
15493,-0.2612,0.6001,-0.7578,-8.301,-12.268,-7.996,154.341,16.776,-114.016
15503,-0.2686,0.5664,-0.6973,-6.775,-12.695,-7.446,154.281,16.919,-114.005
15513,-0.2900,0.5728,-0.6880,-3.174,-10.010,-5.127,154.248,17.034,-114.000
15523,-0.3003,0.5786,-0.7036,2.930,-3.967,-2.014,154.276,17.078,-114.000
15533,-0.3047,0.5864,-0.7280,8.423,2.197,0.061,154.363,17.056,-113.994
15543,-0.3057,0.5996,-0.7778,9.766,5.981,0.671,154.468,17.001,-113.972
15553,-0.3032,0.6128,-0.8262,6.409,7.141,0.061,154.545,16.935,-113.939
15563,-0.2969,0.6172,-0.8398,1.282,5.981,-1.526,154.567,16.891,-113.895
15573,-0.2935,0.6123,-0.8354,-2.441,2.869,-3.174,154.556,16.875,-113.857
15583,-0.2866,0.5879,-0.8135,-4.150,-0.977,-4.272,154.523,16.902,-113.818
15593,-0.2896,0.5366,-0.7476,-4.028,-3.906,-4.761,154.490,16.957,-113.791
15603,-0.3042,0.5039,-0.6958,-3.235,-5.005,-4.272,154.462,17.023,-113.774
15613,-0.3135,0.4912,-0.6724,-0.793,-2.563,-2.014,154.457,17.056,-113.769
15623,-0.3154,0.4971,-0.6753,3.418,2.625,1.343,154.495,17.023,-113.769
15633,-0.3149,0.5073,-0.7026,7.446,7.690,4.333,154.567,16.935,-113.774
15643,-0.2949,0.5459,-0.7739,8.789,11.780,6.531,154.649,16.804,-113.780
15653,-0.2476,0.6318,-0.8711,7.263,14.893,7.629,154.720,16.633,-113.785
15663,-0.2168,0.6938,-0.9312,5.676,15.198,7.568,154.775,16.469,-113.791
15673,-0.2129,0.7144,-0.9585,4.578,11.108,5.432,154.825,16.342,-113.791
15683,-0.2173,0.6899,-0.9409,2.808,3.906,1.770,154.852,16.298,-113.791
15693,-0.2144,0.6558,-0.8857,-1.099,-3.845,-2.197,154.726,16.293,-113.791
15703,-0.2275,0.6445,-0.8267,-6.348,-9.094,-5.249,154.539,16.353,-113.780
15714,-0.2598,0.6348,-0.7798,-8.850,-9.338,-7.019,154.325,16.447,-113.758
15723,-0.2856,0.6104,-0.7441,-7.202,-6.470,-8.118,154.127,16.540,-113.708
15733,-0.3169,0.5293,-0.6904,-3.357,-4.089,-8.667,153.995,16.650,-113.648
15743,-0.3369,0.4814,-0.6582,-1.404,-3.479,-8.240,153.896,16.776,-113.582
15753,-0.3447,0.4644,-0.6553,0.244,-2.319,-4.822,153.820,16.880,-113.549
15763,-0.3491,0.4541,-0.6606,3.723,0.793,0.122,153.770,16.941,-113.549
15773,-0.3379,0.4697,-0.6699,8.240,3.845,4.517,153.759,16.941,-113.571
15783,-0.3071,0.5337,-0.7148,13.489,5.676,8.240,153.770,16.875,-113.621
15793,-0.2778,0.5874,-0.7744,20.935,7.751,10.010,153.853,16.754,-113.681
15803,-0.2407,0.6587,-0.8599,27.283,9.094,8.362,154.001,16.595,-113.719
15813,-0.2070,0.7085,-0.9390,29.968,7.690,4.944,154.182,16.436,-113.730
15823,-0.1875,0.7300,-0.9902,27.527,4.028,0.610,154.352,16.320,-113.714
15833,-0.1880,0.7319,-1.0088,21.667,-0.793,-5.188,154.479,16.276,-113.670
15843,-0.1963,0.7344,-0.9951,14.160,-5.493,-11.597,154.534,16.298,-113.588
15853,-0.2236,0.6748,-0.9185,8.362,-10.071,-16.113,154.534,16.408,-113.483
15863,-0.2681,0.5771,-0.8237,3.418,-13.855,-19.043,154.506,16.595,-113.362
15873,-0.3174,0.4702,-0.6948,-2.075,-16.174,-20.630,154.435,16.870,-113.242
15883,-0.3584,0.3955,-0.5791,-6.104,-17.090,-19.165,154.314,17.205,-113.137
15893,-0.3823,0.3706,-0.5273,-5.737,-14.893,-13.367,154.182,17.534,-113.082
15903,-0.3833,0.3716,-0.5376,-0.061,-7.202,-4.944,154.100,17.748,-113.066
15913,-0.3516,0.4043,-0.6030,8.484,4.517,3.357,154.100,17.770,-113.077
15923,-0.3125,0.4531,-0.7085,15.259,14.893,10.254,154.177,17.622,-113.104
15933,-0.2593,0.5625,-0.8716,17.761,21.606,14.282,154.270,17.331,-113.143
15943,-0.1948,0.6929,-1.0586,15.625,26.367,15.076,154.341,16.946,-113.165
15953,-0.1685,0.7417,-1.1392,10.498,27.954,11.414,154.380,16.551,-113.143
15963,-0.1909,0.7183,-1.1079,0.305,20.569,2.808,154.325,16.271,-113.077
15973,-0.2588,0.6108,-0.9673,-13.794,3.967,-8.057,154.149,16.232,-112.983
15983,-0.3242,0.4824,-0.7720,-28.748,-15.381,-16.846,153.825,16.479,-112.896
15993,-0.3691,0.4341,-0.6304,-37.720,-28.442,-18.982,153.386,16.902,-112.852
16003,-0.3721,0.4214,-0.5684,-32.532,-28.870,-13.550,152.957,17.331,-112.857
16013,-0.3237,0.4634,-0.5967,-14.465,-17.517,-3.906,152.693,17.562,-112.906
16023,-0.2598,0.5049,-0.7007,8.484,-0.244,5.615,152.677,17.529,-112.961
16033,-0.2334,0.5386,-0.8042,23.010,13.733,11.719,152.825,17.314,-113.000
16043,-0.2349,0.5728,-0.8799,22.278,17.578,13.733,152.979,17.051,-113.044
16053,-0.2573,0.6187,-0.9165,11.719,13.245,12.329,153.007,16.837,-113.099
16063,-0.2900,0.6279,-0.9043,0.793,5.981,8.484,152.924,16.727,-113.148
16073,-0.2910,0.6064,-0.8677,-5.859,-1.465,3.662,152.776,16.710,-113.192
16083,-0.2822,0.5898,-0.8364,-9.216,-6.775,0.061,152.595,16.754,-113.225
16093,-0.2769,0.5728,-0.8037,-9.705,-7.629,-1.160,152.408,16.820,-113.247
16103,-0.2739,0.5596,-0.7910,-8.118,-5.676,-1.038,152.249,16.864,-113.269
16113,-0.2407,0.5952,-0.8188,-5.432,-2.502,-0.305,152.111,16.853,-113.275
16123,-0.1948,0.6206,-0.8545,-0.732,-0.793,0.977,152.018,16.787,-113.291
16133,-0.1973,0.6533,-0.9033,1.892,-1.221,2.075,151.952,16.721,-113.313
16143,-0.2412,0.6118,-0.8838,2.014,-2.930,1.709,151.891,16.699,-113.346
