elapsed_ms,acc_x_g,acc_y_g,acc_z_g,gyro_x_dps,gyro_y_dps,gyro_z_dps,angle_x_deg,angle_y_deg,angle_z_deg
0,0.1040,1.0444,-0.1230,-23.682,15.503,2.319,90.247,-5.158,117.015
10,0.0845,0.9902,-0.0732,-21.973,2.502,2.075,90.066,-5.175,117.043
20,0.0811,1.0146,0.0205,-27.100,-15.320,0.183,89.802,-5.169,116.889
30,0.0957,1.0879,0.1196,-32.288,-31.555,0.122,89.451,-5.175,116.570
40,0.1074,1.1685,0.1934,-30.029,-39.917,2.014,89.099,-5.197,116.169
50,0.1001,1.1943,0.2192,-19.836,-32.166,4.150,88.835,-5.235,115.851
60,0.0576,1.1143,0.1680,-7.751,-5.920,3.296,88.693,-5.246,115.790
70,0.0273,0.9956,0.0767,-1.892,27.710,-2.319,88.616,-5.180,116.065
80,0.0552,0.9248,0.0117,-6.165,56.396,-7.751,88.511,-5.076,116.631
90,0.1172,0.9233,-0.0195,-14.832,68.298,-9.827,88.330,-4.982,117.318
100,0.1626,0.9756,0.0000,-19.348,57.800,-9.766,88.105,-4.911,117.894
110,0.1694,1.0225,0.0391,-15.320,32.349,-6.714,87.924,-4.878,118.213
120,0.1221,1.0278,0.0747,-3.967,6.226,-1.892,87.858,-4.878,118.273
130,0.0894,1.0405,0.0996,10.437,-11.841,1.831,87.940,-4.900,118.158
140,0.0767,1.0605,0.0913,23.743,-16.296,5.432,88.160,-4.955,117.999
150,0.0718,1.0210,0.0366,31.128,-2.075,8.118,88.467,-5.026,117.977
160,0.0605,0.9048,-0.0400,28.198,22.156,5.066,88.770,-5.054,118.202
170,0.0664,0.8418,-0.1001,11.719,46.570,-3.296,88.923,-5.010,118.669
180,0.1270,0.9102,-0.0986,-11.780,61.890,-11.047,88.824,-4.916,119.290
190,0.1880,1.0156,-0.0474,-27.222,58.105,-13.672,88.544,-4.823,119.866
200,0.1846,1.0586,0.0098,-25.818,37.048,-9.155,88.270,-4.774,120.240
210,0.0791,0.9741,0.0557,-8.728,10.132,-0.916,88.160,-4.763,120.339
220,0.0044,0.9053,0.0752,11.475,-8.972,6.104,88.248,-4.779,120.251
230,0.0298,0.9277,0.0796,23.560,-16.418,13.000,88.462,-4.883,120.092
240,0.0864,0.9844,0.0557,28.381,-13.489,19.775,88.737,-5.087,119.960
250,0.1338,1.0215,0.0015,28.259,1.343,22.766,89.028,-5.334,119.976
260,0.1509,1.0039,-0.0640,22.766,20.203,17.822,89.280,-5.537,120.185
271,0.1694,1.0142,-0.0693,8.911,33.203,6.287,89.385,-5.636,120.520
280,0.1260,0.9756,-0.0728,-4.578,34.790,-4.578,89.352,-5.603,120.866
290,0.0566,0.9033,-0.0781,-12.817,26.855,-10.620,89.258,-5.477,121.135
300,0.0449,0.9419,-0.0513,-16.296,13.916,-9.460,89.121,-5.350,121.273
310,0.0464,1.0112,-0.0151,-9.766,-0.977,0.244,89.044,-5.328,121.267
320,0.0718,1.0747,0.0186,4.944,-14.343,11.658,89.105,-5.433,121.124
330,0.1108,1.1396,0.0649,19.226,-23.499,19.287,89.291,-5.625,120.888
340,0.1064,1.1006,0.0791,29.358,-21.667,20.752,89.572,-5.834,120.674
350,0.0649,1.0181,0.0581,30.396,-7.751,14.771,89.852,-5.960,120.597
360,0.0596,0.9922,0.0483,20.264,10.132,5.432,90.016,-5.988,120.701
370,0.0518,0.9492,0.0161,7.812,23.743,-2.380,90.055,-5.933,120.938
380,0.0649,0.9390,-0.0312,-3.235,29.419,-9.033,90.011,-5.823,121.234
390,0.0781,0.9727,-0.0542,-10.620,24.841,-12.268,89.912,-5.691,121.487
400,0.0908,1.0405,-0.0391,-9.583,12.695,-9.460,89.830,-5.592,121.613
410,0.0830,1.0703,-0.0073,2.136,-2.380,-2.502,89.857,-5.554,121.586
420,0.0737,1.0762,0.0366,21.423,-15.930,3.662,90.066,-5.576,121.426
430,0.0767,1.0967,0.0854,44.067,-19.043,6.958,90.478,-5.625,121.234
440,0.0723,1.0488,0.0518,66.162,-4.639,6.409,91.104,-5.674,121.190
450,0.0723,0.9878,-0.0337,75.623,20.447,1.282,91.840,-5.674,121.393
460,0.0552,0.8877,-0.1245,68.970,44.495,-5.554,92.543,-5.614,121.844
470,0.0503,0.8169,-0.1997,49.438,58.716,-12.207,93.087,-5.493,122.437
480,0.0796,0.8594,-0.2153,20.996,58.228,-13.489,93.345,-5.389,123.030
490,0.0937,0.9756,-0.1460,-0.793,38.818,-7.263,93.351,-5.339,123.420
500,0.1025,1.0762,-0.0361,-2.869,9.155,2.563,93.301,-5.372,123.514
510,0.1045,1.0820,0.0610,11.597,-20.386,12.939,93.373,-5.488,123.300
520,0.1104,1.0723,0.1104,29.175,-45.288,20.020,93.615,-5.663,122.833
530,0.1196,1.1426,0.1235,41.626,-52.429,23.499,93.977,-5.867,122.294
540,0.1143,1.1338,0.0737,50.842,-35.034,21.973,94.444,-6.059,121.926
550,0.1133,1.0879,-0.0171,49.805,-1.221,11.475,94.900,-6.169,121.904
560,0.0635,1.0225,-0.1162,32.776,32.837,-2.991,95.208,-6.141,122.239
570,0.0010,0.9009,-0.2124,2.808,56.152,-15.930,95.257,-5.977,122.816
580,-0.0020,0.8950,-0.2441,-34.058,62.866,-23.499,94.949,-5.740,123.464
590,0.0239,1.0078,-0.2075,-57.068,50.537,-22.034,94.400,-5.521,123.992
600,0.0396,1.0527,-0.1626,-47.363,23.071,-13.428,93.950,-5.372,124.233
610,0.0571,1.0532,-0.0957,-18.555,-6.531,-2.014,93.785,-5.323,124.167
620,0.0850,1.0635,-0.0137,9.583,-32.410,8.606,93.884,-5.383,123.838
630,0.1050,1.0947,0.0728,30.640,-52.795,16.602,94.158,-5.510,123.300
640,0.1187,1.1201,0.1123,45.898,-54.382,20.935,94.565,-5.685,122.739
650,0.1440,1.1001,0.0786,53.955,-32.227,18.738,95.048,-5.861,122.399
660,0.1382,1.0234,-0.0039,47.668,1.221,8.118,95.471,-5.960,122.404
670,0.0625,0.9180,-0.0991,25.818,31.677,-5.798,95.702,-5.911,122.728
680,0.0312,0.8311,-0.1753,-7.019,53.284,-16.846,95.636,-5.757,123.278
690,0.0601,0.8613,-0.2104,-39.490,60.486,-21.362,95.262,-5.587,123.904
700,0.1250,0.9932,-0.2153,-50.110,47.729,-18.372,94.790,-5.466,124.398
710,0.1538,1.0679,-0.1709,-31.982,17.151,-8.545,94.499,-5.422,124.579
720,0.1567,1.0928,-0.1118,0.549,-17.334,4.211,94.537,-5.477,124.398
730,0.1270,1.0708,-0.0562,32.837,-51.208,13.611,94.894,-5.581,123.876
740,0.0630,1.0532,0.0249,57.922,-70.801,16.479,95.477,-5.663,123.151
750,0.0371,1.0342,0.0557,69.946,-57.678,13.184,96.141,-5.702,122.563
760,0.0342,1.0190,0.0430,65.430,-23.132,3.540,96.724,-5.674,122.327
771,0.0073,0.9624,-0.0020,45.959,15.198,-10.437,97.097,-5.537,122.492
780,0.0151,0.9434,-0.0513,12.634,47.485,-21.729,97.136,-5.339,122.992
790,0.0630,0.9629,-0.1035,-23.193,66.956,-26.184,96.828,-5.147,123.695
800,0.1260,1.0405,-0.1484,-44.067,65.247,-25.085,96.345,-4.993,124.376
810,0.1274,1.0806,-0.1777,-41.138,43.091,-20.020,95.933,-4.861,124.827
820,0.0854,1.0845,-0.1792,-22.949,12.878,-12.695,95.724,-4.746,124.969
830,0.0396,1.0386,-0.1465,0.732,-20.203,-4.639,95.773,-4.653,124.772
840,0.0117,0.9932,-0.0674,19.226,-52.185,4.944,95.988,-4.609,124.244
851,0.0044,1.0010,0.0073,29.297,-64.087,13.794,96.262,-4.636,123.591
860,0.0347,1.0581,0.0303,31.860,-46.997,15.625,96.537,-4.713,123.107
871,0.0981,1.0923,0.0024,26.855,-12.512,9.521,96.751,-4.796,122.970
881,0.1157,1.0742,-0.0513,13.855,20.691,0.549,96.828,-4.839,123.173
891,0.1094,0.9927,-0.1338,-3.296,45.288,-8.240,96.768,-4.823,123.635
900,0.0996,0.9409,-0.2017,-22.888,56.030,-15.259,96.548,-4.752,124.211
911,0.0933,0.9326,-0.2588,-35.095,50.842,-17.578,96.246,-4.642,124.739
921,0.0937,0.9575,-0.2808,-34.546,33.142,-14.343,95.977,-4.543,125.085
931,0.0923,0.9697,-0.2393,-23.499,10.376,-7.690,95.812,-4.488,125.195
941,0.0801,0.9922,-0.1426,-4.028,-8.911,-1.526,95.801,-4.460,125.112
951,0.0664,1.0156,-0.0337,19.836,-18.494,1.648,95.977,-4.455,124.926
961,0.0723,1.0166,0.0708,42.480,-13.916,2.441,96.306,-4.460,124.783
971,0.0991,0.9863,0.1055,56.946,3.052,3.235,96.746,-4.504,124.810
981,0.1089,0.9194,0.0483,57.495,27.100,2.075,97.196,-4.581,125.079
991,0.1108,0.8569,-0.0728,44.434,51.697,-3.296,97.570,-4.642,125.596
1001,0.1230,0.8306,-0.1992,22.034,69.275,-8.362,97.789,-4.686,126.293
1011,0.1348,0.8325,-0.3159,-0.305,76.355,-8.484,97.855,-4.741,127.068
1021,0.1636,0.9097,-0.3901,-15.686,69.763,-5.249,97.795,-4.834,127.766
1031,0.1733,0.9771,-0.3652,-19.409,46.326,-0.183,97.696,-4.938,128.227
1041,0.1567,0.9883,-0.2974,-11.597,16.235,7.019,97.657,-5.065,128.381
1051,0.1548,1.0332,-0.2026,-1.648,-13.611,14.526,97.690,-5.224,128.227
1061,0.1416,1.0835,-0.0977,10.864,-39.185,21.057,97.806,-5.400,127.804
1071,0.1230,1.1177,-0.0200,24.353,-43.579,24.353,98.026,-5.592,127.337
1081,0.1294,1.1196,-0.0171,30.151,-22.522,21.912,98.278,-5.784,127.084
1091,0.1240,1.0771,-0.0698,25.024,8.118,13.062,98.470,-5.933,127.145
1101,0.1206,1.0103,-0.1313,6.042,36.804,0.732,98.481,-5.999,127.513
1111,0.1206,0.9614,-0.1807,-23.804,56.335,-10.376,98.212,-5.993,128.090
1121,0.1235,0.9629,-0.2354,-50.903,62.805,-17.578,97.696,-5.916,128.738
1131,0.1211,1.0166,-0.2808,-61.584,55.237,-19.165,97.103,-5.812,129.315
1141,0.1138,1.0459,-0.2979,-49.683,34.973,-14.832,96.663,-5.707,129.683
1151,0.0835,1.0278,-0.2749,-23.499,8.240,-5.981,96.504,-5.647,129.771
1161,0.0518,0.9917,-0.2104,2.014,-17.822,3.540,96.597,-5.636,129.589
1171,0.0322,0.9688,-0.1089,18.494,-41.992,11.292,96.817,-5.658,129.155
1181,0.0288,0.9927,-0.0054,24.780,-54.199,17.029,97.053,-5.724,128.595
1191,0.0601,1.0479,0.0337,27.039,-43.762,19.470,97.278,-5.839,128.134
1201,0.1123,1.0747,0.0127,25.879,-17.029,16.968,97.476,-5.982,127.941
1211,0.1592,1.0708,-0.0293,18.799,10.437,8.789,97.592,-6.108,128.035
1221,0.1509,0.9775,-0.1040,4.883,29.358,-1.221,97.592,-6.163,128.331
1231,0.1460,0.9351,-0.1655,-18.127,39.490,-10.376,97.394,-6.136,128.738
1241,0.1318,0.9385,-0.2207,-36.072,37.048,-16.357,97.053,-6.037,129.128
1251,0.1055,0.9468,-0.2612,-40.344,21.301,-17.761,96.718,-5.894,129.364
1261,0.0903,0.9907,-0.2358,-31.555,-2.258,-14.282,96.471,-5.740,129.359
1271,0.0698,0.9937,-0.1646,-14.221,-27.588,-6.775,96.383,-5.625,129.089
1281,0.0557,1.0063,-0.0537,3.967,-47.974,1.404,96.438,-5.559,128.606
1291,0.0342,1.0088,0.0366,20.142,-50.537,7.568,96.603,-5.543,128.095
1301,0.0371,0.9966,0.0591,29.419,-32.532,9.521,96.823,-5.565,127.760
1311,0.0640,0.9858,0.0420,27.893,-3.967,5.737,97.015,-5.598,127.711
1321,0.0820,0.9814,-0.0132,15.442,23.926,-2.869,97.081,-5.592,127.952
1331,0.0801,0.9297,-0.0908,-4.089,45.166,-11.658,96.982,-5.526,128.419
1341,0.0879,0.9438,-0.1465,-28.381,54.443,-18.372,96.663,-5.405,128.985
1351,0.1152,1.0107,-0.1753,-43.640,47.302,-21.667,96.218,-5.257,129.485
1361,0.1201,1.0488,-0.1665,-41.138,25.269,-18.677,95.812,-5.114,129.754
1371,0.0815,1.0190,-0.1440,-24.170,-2.136,-10.925,95.598,-4.999,129.743
1381,0.0327,0.9834,-0.0728,-1.526,-31.799,-4.333,95.592,-4.894,129.430
1391,-0.0098,0.9644,0.0249,20.752,-50.171,1.038,95.773,-4.801,128.930
1401,-0.0088,0.9453,0.0684,37.842,-45.898,4.883,96.086,-4.752,128.469
1411,0.0127,0.9565,0.0645,44.373,-23.682,4.395,96.443,-4.730,128.227
1421,0.0435,0.9868,0.0312,37.354,6.348,-2.197,96.729,-4.691,128.293
1431,0.0688,1.0078,-0.0132,18.005,35.156,-11.902,96.817,-4.609,128.655
1441,0.0937,0.9810,-0.0962,-5.249,55.481,-21.179,96.707,-4.471,129.232
1451,0.1191,0.9946,-0.1846,-25.940,59.937,-27.588,96.438,-4.296,129.864
1461,0.1172,1.0073,-0.2661,-32.837,47.241,-27.405,96.158,-4.098,130.364
1471,0.1021,1.0259,-0.3208,-24.475,24.109,-20.691,96.010,-3.933,130.627
1481,0.0752,1.0405,-0.3398,-4.883,-3.418,-10.925,96.086,-3.823,130.605
1491,0.0508,1.0166,-0.3062,15.625,-31.799,-0.671,96.367,-3.774,130.287
1501,0.0347,1.0137,-0.1914,23.499,-52.856,7.568,96.680,-3.768,129.754
1511,0.0312,1.0547,-0.0664,21.301,-54.138,10.132,96.894,-3.785,129.205
1521,0.0493,1.1050,0.0195,13.916,-35.645,6.592,96.976,-3.796,128.842
1531,0.0742,1.1426,0.0542,4.883,-9.460,-0.671,96.932,-3.779,128.749
1541,0.0752,1.0947,0.0117,-4.883,15.076,-9.338,96.801,-3.702,128.908
1551,0.0688,1.0200,-0.0752,-17.212,33.569,-16.907,96.581,-3.582,129.260
1561,0.0581,0.9888,-0.1499,-29.785,42.786,-19.104,96.279,-3.439,129.710
1571,0.0596,0.9858,-0.2173,-32.715,39.795,-15.442,95.993,-3.329,130.122
1581,0.0688,0.9990,-0.2549,-22.888,25.513,-8.911,95.834,-3.274,130.386
1591,0.0728,1.0166,-0.2534,-6.348,6.287,-1.282,95.850,-3.274,130.452
1601,0.0776,1.0361,-0.2129,10.925,-13.672,5.737,96.021,-3.323,130.309
1611,0.0659,1.0127,-0.1479,23.682,-30.823,11.169,96.295,-3.406,129.990
1621,0.0439,0.9761,-0.0791,27.222,-37.354,13.428,96.575,-3.488,129.600
1631,0.0322,0.9536,-0.0337,19.470,-29.480,11.841,96.740,-3.554,129.298
1641,0.0449,0.9697,-0.0322,4.944,-12.085,7.019,96.746,-3.604,129.166
1651,0.0610,0.9731,-0.0767,-8.667,6.104,1.709,96.636,-3.625,129.227
1661,0.0923,0.9819,-0.1338,-19.897,19.104,-2.441,96.438,-3.642,129.419
1671,0.1011,0.9722,-0.1958,-26.367,23.010,-5.005,96.213,-3.636,129.655
1681,0.1055,0.9692,-0.2349,-27.283,17.578,-4.944,96.004,-3.631,129.836
1691,0.1069,0.9888,-0.2310,-23.315,6.409,-1.404,95.839,-3.647,129.897
1701,0.0996,1.0151,-0.1792,-14.343,-7.690,4.211,95.746,-3.702,129.820
1711,0.0786,1.0405,-0.0835,-3.235,-21.790,9.460,95.718,-3.779,129.589
1721,0.0522,1.0605,0.0425,6.531,-32.166,13.977,95.724,-3.878,129.254
1731,0.0229,1.0601,0.1426,13.245,-30.884,17.090,95.740,-3.988,128.930
1741,0.0146,1.0332,0.1572,16.235,-16.663,16.907,95.768,-4.103,128.749
1751,0.0278,1.0034,0.1011,14.771,2.380,13.916,95.801,-4.219,128.760
1761,0.0435,0.9624,0.0073,12.085,20.264,10.071,95.845,-4.323,128.952
1772,0.0703,0.9385,-0.0864,3.784,34.424,5.676,95.850,-4.411,129.287
1781,0.1001,0.9292,-0.1582,-7.629,38.757,0.000,95.784,-4.466,129.677
1791,0.1240,0.9404,-0.1924,-17.883,30.457,-5.310,95.641,-4.477,129.985
1801,0.1250,0.9717,-0.1743,-23.926,13.062,-9.033,95.438,-4.427,130.122
1811,0.1001,0.9951,-0.1318,-23.499,-6.714,-10.193,95.229,-4.334,130.067
1821,0.0610,1.0195,-0.0625,-16.907,-23.254,-9.521,95.065,-4.208,129.842
1831,0.0332,1.0215,0.0146,-5.737,-31.555,-7.935,94.971,-4.081,129.534
1841,0.0293,1.0117,0.0796,3.784,-32.471,-8.057,94.933,-3.950,129.216
1851,0.0356,0.9824,0.1138,8.118,-29.663,-13.184,94.922,-3.774,128.930
1861,0.0371,0.9595,0.1108,6.836,-26.123,-22.766,94.889,-3.510,128.688
1871,0.0449,0.9497,0.0483,1.404,-21.729,-34.668,94.834,-3.142,128.502
1881,0.0688,0.9561,-0.0747,-5.676,-15.869,-46.509,94.779,-2.681,128.386
1891,0.0762,0.9604,-0.1943,-14.954,-9.216,-55.908,94.702,-2.137,128.337
1901,0.0771,0.9951,-0.2676,-23.987,-5.737,-61.890,94.570,-1.544,128.331
1911,0.0640,1.0259,-0.3042,-30.396,-8.179,-62.988,94.389,-0.934,128.304
1921,0.0376,1.0161,-0.3262,-33.691,-14.954,-59.509,94.191,-0.346,128.199
1931,0.0103,0.9844,-0.3232,-34.851,-24.841,-52.429,93.988,0.181,127.991
1941,-0.0181,0.9995,-0.2432,-36.194,-36.987,-40.405,93.724,0.615,127.650
1951,-0.0322,1.0142,-0.1401,-32.349,-46.631,-26.855,93.439,0.923,127.200
1961,-0.0356,1.0581,-0.0391,-24.902,-48.889,-12.634,93.170,1.082,126.722
1971,-0.0410,1.1211,0.0508,-15.686,-41.992,1.343,92.950,1.104,126.299
1981,-0.0400,1.1621,0.0723,-0.793,-28.442,12.085,92.873,1.011,126.008
1991,-0.0327,1.1504,0.0449,13.672,-10.010,18.921,92.955,0.835,125.898
2001,-0.0107,1.0767,-0.0205,22.339,9.827,20.691,93.159,0.621,125.986
2011,-0.0034,0.9619,-0.1001,20.813,24.536,15.747,93.395,0.445,126.222
2021,0.0088,0.9263,-0.1387,5.371,31.494,6.348,93.505,0.357,126.535
2031,0.0229,0.9780,-0.1206,-16.968,29.419,-1.709,93.373,0.341,126.826
2041,0.0142,1.0439,-0.0640,-31.250,18.982,-4.211,93.065,0.357,127.018
2051,-0.0181,1.0420,-0.0308,-28.198,5.249,-0.488,92.774,0.368,127.073
2061,-0.0483,1.0127,-0.0444,0.305,-8.667,14.221,92.774,0.253,126.980
2071,-0.0254,1.0151,-0.0801,14.526,-6.897,20.569,92.933,0.066,126.903
2081,0.0151,0.9790,-0.1294,22.705,-1.404,23.987,93.203,-0.176,126.876
2091,0.0649,0.9556,-0.1709,20.569,4.700,21.606,93.477,-0.428,126.909
2101,0.0986,1.0010,-0.1558,5.798,6.042,14.221,93.587,-0.626,126.964
2111,0.0962,1.0630,-0.0908,-12.268,0.427,5.859,93.477,-0.725,126.964
2121,0.0542,1.0850,0.0088,-25.391,-10.620,-1.465,93.186,-0.731,126.859
2131,0.0044,1.0498,0.0986,-29.541,-22.766,-6.836,92.813,-0.643,126.634
2141,-0.0483,1.0000,0.1641,-25.818,-31.677,-8.972,92.439,-0.505,126.321
2151,-0.0898,0.9580,0.1680,-16.479,-31.616,-6.531,92.153,-0.368,126.008
2161,-0.0903,0.9771,0.1289,-5.249,-17.273,1.465,92.010,-0.319,125.832
2171,-0.0347,1.0239,0.0562,7.202,8.545,10.376,92.027,-0.406,125.914
2181,0.0273,1.0308,-0.0322,19.287,33.020,16.235,92.214,-0.588,126.238
2191,0.0649,1.0073,-0.0928,22.888,47.607,16.357,92.466,-0.797,126.711
2201,0.0654,0.9609,-0.1201,14.160,49.316,9.888,92.648,-0.950,127.200
2211,0.0293,0.9136,-0.1309,-1.953,39.001,-0.244,92.675,-0.972,127.590
2221,0.0063,0.9351,-0.1128,-20.630,23.254,-8.728,92.510,-0.890,127.826
2231,0.0083,1.0166,-0.0811,-31.738,8.240,-11.658,92.214,-0.775,127.914
2241,0.0195,1.1011,-0.0659,-28.748,-4.089,-8.362,91.939,-0.692,127.875
2251,0.0415,1.1372,-0.0635,-14.648,-10.498,-1.099,91.813,-0.692,127.771
2261,0.0317,1.0757,-0.0518,0.977,-10.071,5.371,91.829,-0.753,127.667
2272,0.0132,0.9731,-0.0386,6.897,-2.441,7.080,91.906,-0.824,127.639
2281,0.0068,0.8867,-0.0171,-0.488,6.409,3.540,91.890,-0.857,127.705
2291,0.0103,0.8906,0.0171,-15.686,10.864,-2.502,91.703,-0.829,127.815
2301,0.0420,0.9932,0.0474,-29.297,9.460,-7.751,91.368,-0.775,127.908
2311,0.0405,1.0757,0.0488,-31.067,3.296,-9.216,91.022,-0.698,127.947
2321,0.0288,1.0991,0.0444,-21.179,-2.380,-6.226,90.775,-0.643,127.925
2331,0.0156,1.1060,0.0557,-5.676,-6.042,-0.916,90.687,-0.637,127.864
2341,-0.0044,1.0498,0.0381,13.000,-8.789,4.822,90.786,-0.670,127.776
2351,-0.0273,0.9629,-0.0083,28.503,-8.789,9.705,91.066,-0.747,127.683
2361,-0.0210,0.9482,-0.0537,32.471,-4.089,12.268,91.412,-0.846,127.639
2371,0.0132,0.9814,-0.1069,27.588,3.357,13.184,91.730,-0.978,127.672
2381,0.0430,0.9683,-0.1724,18.494,10.864,12.878,91.994,-1.121,127.776
2391,0.0732,0.9805,-0.2017,4.211,15.625,9.521,92.131,-1.252,127.930
2401,0.0757,0.9766,-0.2041,-12.756,15.076,3.784,92.098,-1.324,128.079
2411,0.0420,0.9604,-0.1763,-23.987,6.958,-2.441,91.945,-1.313,128.150
2421,0.0034,0.9912,-0.0967,-29.663,-7.263,-5.188,91.686,-1.252,128.079
2432,0.0049,1.0820,0.0112,-25.940,-23.621,-1.526,91.412,-1.219,127.842
2441,0.0054,1.1177,0.0894,-10.132,-36.316,8.240,91.258,-1.280,127.480
2451,0.0029,1.1274,0.1240,10.315,-35.950,18.372,91.296,-1.445,127.112
2461,0.0259,1.1348,0.1191,27.161,-22.217,23.743,91.494,-1.670,126.887
2471,0.0439,1.0938,0.0728,36.011,-2.380,23.804,91.802,-1.912,126.854
2481,0.0435,1.0073,-0.0044,34.485,17.578,17.883,92.120,-2.104,127.024
2491,0.0347,0.9038,-0.0835,19.836,32.410,7.324,92.335,-2.186,127.348
2501,0.0112,0.8599,-0.1143,-4.089,38.025,-5.310,92.335,-2.137,127.733
2511,0.0073,0.9185,-0.0845,-28.992,33.081,-14.954,92.065,-1.983,128.068
2522,-0.0005,0.9946,-0.0278,-41.443,19.226,-15.930,91.642,-1.813,128.265
2532,-0.0029,1.0806,0.0498,-35.278,1.892,-7.446,91.247,-1.719,128.287
2542,0.0068,1.1157,0.1006,-12.207,-13.123,5.066,91.071,-1.752,128.156
2551,0.0190,1.0952,0.0981,17.761,-22.156,16.357,91.192,-1.906,127.930
2562,0.0337,1.0420,0.0200,43.335,-19.226,22.827,91.604,-2.126,127.733
2572,0.0688,0.9775,-0.0791,54.382,-6.104,23.376,92.175,-2.373,127.667
2581,0.0879,0.8901,-0.1636,47.058,9.033,18.738,92.719,-2.593,127.749
2591,0.0859,0.8457,-0.2012,23.499,19.714,9.277,93.049,-2.725,127.941
2601,0.0796,0.8770,-0.1646,-9.399,21.057,-1.404,93.021,-2.747,128.150
2612,0.0679,0.9824,-0.0615,-38.391,11.841,-9.155,92.642,-2.675,128.276
2622,0.0532,1.0781,0.0322,-49.011,-4.578,-9.705,92.115,-2.576,128.232
2632,0.0352,1.1221,0.0820,-38.208,-19.653,-3.418,91.681,-2.527,128.040
2642,0.0239,1.1035,0.0835,-12.207,-28.381,5.066,91.511,-2.560,127.755
2652,0.0093,1.0381,0.0483,17.700,-28.076,12.512,91.659,-2.653,127.469
2662,0.0166,0.9346,-0.0156,36.133,-15.930,16.541,92.016,-2.796,127.304
2672,0.0361,0.8823,-0.0703,36.133,1.160,15.442,92.401,-2.944,127.310
2682,0.0767,0.9326,-0.0781,19.043,15.991,11.658,92.604,-3.087,127.463
2692,0.1211,1.0659,-0.0464,-4.944,20.691,5.005,92.543,-3.175,127.672
2702,0.1377,1.1924,-0.0220,-23.376,13.123,-3.723,92.291,-3.181,127.804
2712,0.1274,1.2578,-0.0127,-29.846,-0.122,-10.986,91.978,-3.098,127.804
2722,0.0806,1.2534,-0.0039,-26.733,-11.780,-12.939,91.703,-2.972,127.694
2732,0.0117,1.1255,-0.0107,-14.465,-19.653,-11.658,91.555,-2.829,127.502
2742,-0.0439,0.9902,0.0054,-4.028,-24.170,-9.827,91.511,-2.670,127.260
2752,-0.0664,0.9082,0.0405,-4.028,-24.170,-6.897,91.439,-2.527,127.018
2762,-0.0449,0.9106,0.0522,-11.536,-18.738,-4.822,91.285,-2.422,126.832
2772,0.0088,0.9761,0.0444,-23.193,-9.705,-5.920,91.022,-2.340,126.738
2782,0.0654,1.0698,0.0366,-36.133,0.000,-10.010,90.632,-2.252,126.738
2792,0.0703,1.0962,0.0332,-42.175,5.798,-14.832,90.192,-2.120,126.799
2802,0.0015,0.9790,-0.0186,-37.170,6.775,-19.653,89.830,-1.906,126.870
2812,-0.0732,0.8936,-0.0435,-31.433,6.409,-22.034,89.544,-1.620,126.931
2822,-0.0928,0.8481,-0.0493,-22.705,4.150,-18.860,89.357,-1.357,126.969
2832,-0.0684,0.8721,-0.0610,-8.301,1.038,-9.338,89.319,-1.203,126.980
2842,0.0269,0.9648,-0.0669,7.263,-1.282,3.235,89.440,-1.241,126.969
2852,0.1353,1.0840,-0.0718,22.400,-3.601,13.123,89.703,-1.428,126.936
2862,0.1997,1.1831,-0.0791,32.715,-5.554,16.663,90.071,-1.675,126.881
2872,0.2012,1.1782,-0.0913,34.058,-7.324,13.306,90.456,-1.890,126.804
2882,0.1523,1.0938,-0.0879,21.790,-8.789,3.113,90.714,-1.978,126.716
2892,0.0464,0.9883,-0.0693,-2.319,-8.789,-10.498,90.725,-1.879,126.628
2902,-0.0708,0.8740,-0.0410,-29.480,-5.859,-21.606,90.456,-1.599,126.573
2912,-0.1279,0.8379,0.0200,-51.880,-1.465,-26.672,89.923,-1.236,126.563
2922,-0.1113,0.9194,0.1011,-62.622,1.038,-23.437,89.242,-0.923,126.573
2932,-0.0605,1.0225,0.1338,-52.124,2.319,-11.597,88.660,-0.764,126.595
2942,0.0269,1.1089,0.1338,-24.414,2.991,3.174,88.363,-0.802,126.623
2952,0.0972,1.1104,0.1006,9.644,2.808,14.099,88.423,-0.978,126.656
2962,0.1299,1.0610,0.0435,35.034,3.052,17.334,88.759,-1.208,126.694
2972,0.1284,0.9971,-0.0156,43.396,1.892,12.573,89.209,-1.395,126.716
2982,0.0796,0.9063,-0.0679,34.851,0.427,3.967,89.604,-1.472,126.716
2992,0.0317,0.8691,-0.0806,11.169,0.061,-5.005,89.775,-1.428,126.716
3002,-0.0146,0.8589,-0.0713,-14.893,0.305,-10.803,89.676,-1.296,126.722
3012,-0.0166,0.9453,-0.0220,-35.156,0.000,-12.390,89.346,-1.154,126.722
3022,0.0054,1.0566,0.0308,-37.842,-2.747,-7.935,88.962,-1.066,126.694
3032,0.0386,1.1260,0.0566,-18.616,-6.287,2.502,88.759,-1.099,126.628
3042,0.0708,1.1128,0.0459,13.245,-8.728,13.611,88.879,-1.263,126.546
3052,0.0864,1.0430,0.0127,43.091,-9.827,20.691,89.313,-1.500,126.453
3062,0.1045,0.9785,-0.0220,56.030,-10.193,21.423,89.890,-1.763,126.354
3072,0.0981,0.9375,-0.0400,47.729,-10.864,17.029,90.390,-1.972,126.244
3082,0.0557,0.9165,-0.0430,24.902,-10.559,8.667,90.665,-2.071,126.140
3092,0.0005,0.8828,-0.0547,-3.357,-7.751,-0.427,90.665,-2.049,126.063
3102,-0.0249,0.9189,-0.0376,-30.396,-2.686,-7.080,90.379,-1.939,126.035
3112,-0.0137,1.0078,0.0112,-45.715,0.183,-9.094,89.918,-1.824,126.035
3122,0.0210,1.0986,0.0464,-40.649,-1.892,-4.211,89.489,-1.774,126.019
3132,0.0659,1.1479,0.0674,-15.991,-9.094,5.371,89.308,-1.846,125.925
3142,0.1016,1.1455,0.0693,14.832,-16.724,14.221,89.434,-2.016,125.760
3152,0.1089,1.0889,0.0391,38.086,-21.851,18.433,89.802,-2.241,125.546
3162,0.0840,1.0088,-0.0112,44.006,-21.545,16.479,90.253,-2.428,125.332
3172,0.0469,0.9365,-0.0439,32.166,-14.832,8.728,90.604,-2.521,125.178
3182,0.0059,0.8931,-0.0566,10.010,-5.432,-1.526,90.736,-2.483,125.129
3192,-0.0151,0.8940,-0.0454,-17.578,2.991,-9.216,90.582,-2.357,125.156
3202,-0.0200,0.9233,-0.0166,-37.964,8.057,-14.038,90.209,-2.181,125.239
3212,-0.0039,0.9976,0.0200,-42.664,7.263,-12.817,89.769,-2.032,125.310
3222,0.0376,1.0786,0.0483,-29.419,0.427,-4.150,89.451,-1.989,125.316
3232,0.0835,1.1372,0.0562,-0.732,-9.094,7.507,89.429,-2.087,125.228
3242,0.1108,1.1230,0.0239,31.372,-18.005,15.015,89.736,-2.274,125.046
3252,0.1187,1.0815,-0.0190,51.025,-23.987,17.090,90.264,-2.483,124.810
3262,0.1055,1.0288,-0.0430,50.964,-24.475,13.733,90.802,-2.653,124.563
3272,0.0605,0.9663,-0.0391,33.630,-19.226,5.859,91.159,-2.714,124.371
3282,0.0186,0.9570,0.0054,6.775,-11.597,-3.113,91.214,-2.664,124.255
3292,0.0088,0.9844,0.0596,-15.320,-5.066,-7.874,91.016,-2.565,124.206
3302,0.0146,1.0430,0.0991,-23.315,-0.977,-7.812,90.725,-2.472,124.195
3312,0.0347,1.0923,0.0986,-14.282,0.183,-3.845,90.522,-2.428,124.200
3322,0.0522,1.0776,0.0493,10.132,-1.282,2.441,90.593,-2.455,124.184
3332,0.0605,1.0195,-0.0107,35.645,-4.272,7.751,90.945,-2.538,124.140
3342,0.0615,0.9663,-0.0610,47.729,-8.423,9.888,91.450,-2.648,124.058
3352,0.0552,0.9116,-0.0840,44.800,-11.780,8.240,91.939,-2.736,123.937
3362,0.0400,0.9023,-0.0273,27.893,-13.184,3.784,92.219,-2.763,123.805
3372,0.0142,0.9121,0.0557,5.981,-11.963,-0.549,92.225,-2.736,123.684
3382,-0.0029,0.9497,0.1235,-8.301,-7.812,-2.869,92.049,-2.675,123.607
3392,0.0068,0.9873,0.1279,-9.583,-1.099,-2.808,91.862,-2.626,123.596
3402,0.0444,1.0078,0.0781,-0.122,6.470,-0.305,91.796,-2.620,123.662
3412,0.0820,0.9766,-0.0220,14.893,11.963,2.502,91.934,-2.675,123.783
3422,0.1118,0.9351,-0.1255,23.376,13.123,3.662,92.214,-2.752,123.909
3432,0.1274,0.8809,-0.1968,18.738,10.986,2.991,92.499,-2.840,124.019
3442,0.1099,0.8350,-0.2397,2.441,8.118,0.427,92.653,-2.889,124.102
3452,0.0864,0.8779,-0.1958,-21.118,4.333,-3.479,92.543,-2.884,124.146
3462,0.0752,0.9624,-0.1191,-38.269,-1.648,-7.385,92.208,-2.829,124.135
3472,0.0576,1.0591,-0.0298,-41.077,-10.132,-8.545,91.802,-2.741,124.036
3482,0.0444,1.1089,0.0425,-32.593,-16.541,-4.944,91.445,-2.681,123.871
3492,0.0474,1.1187,0.0625,-18.005,-16.418,0.122,91.230,-2.675,123.706
3502,0.0586,1.0781,0.0303,-2.930,-10.132,2.686,91.176,-2.708,123.602
3512,0.0576,1.0205,-0.0244,5.615,-1.526,2.075,91.236,-2.730,123.591
3522,0.0586,0.9868,-0.0718,2.502,7.324,-0.854,91.285,-2.730,123.662
3532,0.0391,0.9307,-0.1221,-7.141,12.939,-5.493,91.269,-2.675,123.794
3542,0.0293,0.9541,-0.1230,-22.217,12.695,-9.888,91.104,-2.571,123.920
3552,0.0264,1.0679,-0.0605,-34.668,3.174,-10.803,90.780,-2.455,123.953
3562,0.0083,1.1377,0.0288,-32.410,-12.817,-6.226,90.445,-2.373,123.827
3572,0.0024,1.1479,0.1245,-15.076,-27.649,0.793,90.242,-2.351,123.552
3582,-0.0391,1.1362,0.2017,10.010,-31.677,8.484,90.247,-2.395,123.234
3592,-0.0420,1.1118,0.2124,34.729,-18.860,15.625,90.489,-2.499,123.047
3602,0.0005,1.0313,0.1421,54.016,5.676,17.883,90.939,-2.653,123.102
3612,0.0259,0.9834,0.0391,56.274,32.898,14.954,91.450,-2.796,123.426
3622,0.0635,0.9756,-0.0562,44.067,53.040,8.240,91.879,-2.900,123.953
3632,0.0962,0.9712,-0.1631,25.452,59.753,0.549,92.175,-2.950,124.552
3642,0.1089,0.9883,-0.2393,3.662,53.894,-5.981,92.296,-2.944,125.096
3652,0.1084,1.0225,-0.2305,-15.076,37.109,-8.545,92.236,-2.906,125.469
3662,0.0752,1.0444,-0.1592,-20.508,13.000,-5.005,92.087,-2.873,125.601
3672,0.0186,1.0688,-0.0498,-14.160,-11.230,2.319,91.961,-2.873,125.486
3682,-0.0098,1.0503,0.0449,4.883,-34.363,10.925,91.983,-2.933,125.140
3692,-0.0273,0.9673,0.1104,27.588,-45.898,18.372,92.192,-3.054,124.673
3702,-0.0259,0.9097,0.1172,41.260,-35.217,21.912,92.527,-3.214,124.316
3712,0.0029,0.9380,0.0762,40.894,-10.193,20.935,92.867,-3.384,124.200
3722,0.0527,0.9741,0.0146,32.715,15.686,17.883,93.142,-3.565,124.349
3732,0.0942,0.9751,-0.0557,18.921,34.119,12.939,93.312,-3.730,124.684
3742,0.1152,1.0361,-0.1011,-1.038,40.710,6.287,93.296,-3.845,125.090
3752,0.1162,1.1172,-0.1216,-15.137,35.034,1.343,93.153,-3.895,125.436
3762,0.0991,1.1421,-0.1162,-15.869,20.569,1.343,93.010,-3.933,125.645
3773,0.0508,1.0952,-0.0791,-6.592,3.418,3.540,92.950,-3.955,125.678
3782,-0.0088,1.0371,-0.0308,6.042,-13.000,5.432,93.010,-3.961,125.541
3792,-0.0391,0.9707,0.0244,17.090,-27.283,7.874,93.153,-3.961,125.266
3802,-0.0244,0.9150,0.0654,20.386,-28.625,11.108,93.301,-3.999,124.975
3812,0.0039,0.9160,0.0493,16.296,-12.756,11.475,93.411,-4.065,124.838
3822,0.0664,1.0195,0.0156,6.531,11.658,8.301,93.422,-4.153,124.953
3832,0.1440,1.1440,-0.0122,-4.822,33.386,3.235,93.323,-4.235,125.283
3842,0.1875,1.1899,-0.0625,-10.132,43.945,-2.380,93.186,-4.285,125.722
3852,0.1782,1.1143,-0.1304,-10.010,39.856,-8.972,93.093,-4.263,126.129
3862,0.1372,1.0166,-0.1836,-11.963,25.696,-15.747,93.027,-4.153,126.392
3872,0.0757,0.9365,-0.2031,-15.503,5.493,-20.142,92.961,-3.961,126.458
3882,0.0088,0.8984,-0.1729,-15.808,-17.578,-20.813,92.895,-3.713,126.293
3892,-0.0273,0.8950,-0.0825,-11.292,-42.175,-16.052,92.834,-3.477,125.881
3902,-0.0391,0.9023,0.0483,-1.465,-58.594,-5.371,92.796,-3.340,125.299
3912,-0.0200,0.9219,0.1567,11.902,-55.176,6.226,92.818,-3.329,124.744
3922,0.0449,0.9893,0.1948,22.583,-32.593,13.672,92.922,-3.439,124.409
3932,0.1372,1.0674,0.1504,28.748,-1.465,15.259,93.098,-3.625,124.387
3942,0.1904,1.0771,0.0630,29.846,24.658,10.315,93.318,-3.807,124.629
3952,0.1812,1.0000,-0.0635,22.400,40.955,0.366,93.516,-3.895,125.035
3962,0.1440,0.9375,-0.1914,3.662,46.692,-11.169,93.598,-3.862,125.513
3972,0.1230,0.9619,-0.2852,-17.639,41.138,-19.592,93.527,-3.724,125.936
3982,0.1113,1.0264,-0.3149,-27.893,23.437,-21.912,93.367,-3.543,126.183
3992,0.1016,1.0894,-0.2847,-23.071,-1.038,-17.700,93.252,-3.384,126.183
4002,0.0742,1.0967,-0.2158,-7.446,-26.489,-9.827,93.274,-3.279,125.925
4012,0.0361,1.0640,-0.1089,9.460,-49.255,-1.282,93.417,-3.224,125.431
4022,-0.0049,1.0400,0.0088,18.738,-59.021,5.859,93.598,-3.214,124.838
4032,-0.0186,1.0195,0.0801,21.851,-49.133,9.583,93.763,-3.235,124.343
4042,0.0107,0.9985,0.0752,20.813,-25.879,8.118,93.900,-3.268,124.080
4052,0.0381,1.0161,0.0332,16.846,-0.732,3.967,94.010,-3.296,124.069
4062,0.0713,1.0542,-0.0176,11.475,20.081,1.038,94.081,-3.329,124.266
4072,0.1108,1.0884,-0.0894,6.653,31.982,-0.488,94.136,-3.367,124.585
4082,0.1455,1.1499,-0.1484,3.601,30.457,-2.869,94.186,-3.400,124.893
4092,0.1592,1.1807,-0.1948,5.981,18.555,-5.371,94.285,-3.406,125.085
4102,0.1567,1.1846,-0.2173,12.817,3.357,-6.714,94.471,-3.378,125.123
4112,0.1289,1.1431,-0.2524,23.071,-9.766,-7.324,94.785,-3.329,125.030
4123,0.0840,1.0596,-0.2915,34.241,-20.996,-7.629,95.240,-3.246,124.827
4133,0.0562,0.9941,-0.3027,40.222,-29.480,-7.446,95.773,-3.142,124.541
4143,0.0352,0.9624,-0.2803,39.124,-35.156,-5.737,96.284,-3.043,124.195
4152,0.0283,0.9878,-0.1978,34.241,-38.818,-2.502,96.691,-2.961,123.810
4162,0.0352,1.0649,-0.0991,33.630,-40.344,2.075,97.031,-2.922,123.409
4172,0.0430,1.1084,-0.0366,45.532,-40.527,7.202,97.454,-2.939,122.997
4183,0.0469,1.0996,-0.0034,67.688,-40.955,11.902,98.069,-2.999,122.574
4192,0.0371,0.9644,-0.0234,93.811,-40.649,16.052,98.954,-3.093,122.146
4202,0.0254,0.8374,-0.0625,108.948,-38.452,18.372,100.009,-3.197,121.740
4212,0.0342,0.8096,-0.0791,101.563,-35.400,19.836,100.992,-3.323,121.355
4222,0.0454,0.8384,-0.0869,78.308,-31.128,20.081,101.739,-3.455,121.009
4232,0.0479,0.9204,-0.0645,49.072,-23.682,17.761,102.162,-3.576,120.740
4243,0.0591,1.0220,-0.0127,24.048,-12.573,12.085,102.294,-3.664,120.591
4253,0.0591,1.0625,0.0034,12.512,0.488,4.150,102.294,-3.702,120.591
4263,0.0308,1.0400,-0.0396,13.245,13.977,-2.136,102.316,-3.686,120.729
4273,0.0005,0.9341,-0.1499,25.146,29.175,-4.944,102.513,-3.664,121.025
4283,-0.0039,0.8018,-0.2764,36.987,41.016,-5.310,102.914,-3.664,121.437
4293,0.0073,0.6865,-0.4019,39.124,43.213,-4.700,103.453,-3.680,121.871
4303,0.0244,0.6499,-0.4863,25.024,35.095,-3.967,103.909,-3.702,122.223
4313,0.0752,0.6963,-0.5151,-5.005,20.386,-2.991,104.073,-3.735,122.432
4323,0.1484,0.8940,-0.4121,-46.204,1.282,-1.038,103.722,-3.779,122.443
4333,0.1855,1.1719,-0.1943,-77.209,-21.851,1.831,102.925,-3.796,122.228
4343,0.1646,1.3169,0.0059,-74.524,-40.649,8.118,102.085,-3.818,121.811
4353,0.1055,1.2764,0.1035,-42.847,-42.725,14.587,101.525,-3.878,121.360
4363,0.0498,1.1050,0.0830,-5.005,-25.574,14.709,101.332,-3.961,121.080
4373,0.0063,0.9028,-0.0156,20.081,1.099,7.202,101.431,-3.994,121.080
4383,0.0068,0.7886,-0.1255,18.066,26.428,-3.052,101.569,-3.983,121.344
4393,0.0488,0.7446,-0.2446,-6.287,44.006,-12.146,101.541,-3.950,121.800
4403,0.1006,0.8071,-0.3354,-39.307,48.828,-18.738,101.228,-3.889,122.316
4413,0.1616,1.0166,-0.3389,-63.599,39.734,-18.494,100.640,-3.834,122.745
4423,0.1689,1.1904,-0.2759,-59.204,18.127,-8.545,100.063,-3.823,122.937
4433,0.1401,1.1733,-0.2090,-30.457,-7.141,5.066,99.767,-3.889,122.860
4443,0.0718,1.0825,-0.1357,1.282,-28.625,15.137,99.778,-3.988,122.552
4453,0.0078,0.9800,-0.0898,23.254,-36.743,18.860,99.987,-4.076,122.157
4463,-0.0073,0.9155,-0.0864,31.494,-28.564,17.944,100.278,-4.153,121.844
4473,0.0142,0.9038,-0.1240,25.635,-8.423,12.146,100.514,-4.224,121.740
4483,0.0508,0.9390,-0.1685,10.681,14.404,4.700,100.607,-4.285,121.871
4493,0.1021,1.0112,-0.2026,-11.658,33.508,-2.991,100.470,-4.329,122.206
4503,0.1416,1.0659,-0.2300,-33.630,43.335,-10.803,100.124,-4.334,122.657
4513,0.1431,1.0996,-0.2397,-45.593,40.039,-15.320,99.662,-4.285,123.074
4523,0.1104,1.0889,-0.2280,-42.053,24.536,-13.794,99.245,-4.202,123.344
4533,0.0669,1.0371,-0.2021,-26.306,5.249,-7.263,98.998,-4.136,123.404
4543,0.0527,1.0127,-0.1865,-7.019,-11.169,-0.854,98.954,-4.098,123.294
4553,0.0557,0.9844,-0.1777,9.644,-24.963,4.639,99.080,-4.092,123.041
4563,0.0654,0.9995,-0.1729,19.226,-28.564,8.301,99.294,-4.125,122.745
4573,0.0937,1.0361,-0.1880,20.325,-17.334,8.362,99.520,-4.191,122.563
4583,0.1157,1.0640,-0.2109,12.695,0.366,4.150,99.662,-4.252,122.558
4593,0.1040,1.0586,-0.2402,-0.427,16.357,-3.052,99.679,-4.263,122.723
4603,0.0688,0.9937,-0.3135,-15.381,24.963,-10.925,99.586,-4.191,122.992
4613,0.0210,0.9312,-0.4263,-28.625,23.560,-17.334,99.432,-4.032,123.250
4623,-0.0020,0.9087,-0.5122,-35.889,12.024,-20.142,99.267,-3.812,123.404
4633,-0.0015,0.9297,-0.4678,-36.743,-9.277,-17.029,99.080,-3.593,123.338
4643,0.0210,1.0083,-0.3062,-28.809,-36.743,-8.057,98.899,-3.433,122.986
4653,0.0620,1.0698,-0.0747,-10.437,-65.735,4.333,98.784,-3.373,122.333
4663,0.0825,1.1250,0.1904,13.062,-82.336,17.517,98.778,-3.428,121.492
4673,0.0937,1.1382,0.3506,34.180,-67.322,24.963,98.899,-3.582,120.784
4683,0.0981,1.1069,0.3159,45.471,-29.236,20.935,99.119,-3.752,120.465
4693,0.0752,1.0645,0.1777,43.457,12.878,8.118,99.355,-3.856,120.575
4703,0.0391,0.9458,-0.0278,29.480,48.462,-6.348,99.542,-3.856,121.069
4713,0.0640,0.8667,-0.2114,1.587,71.228,-18.860,99.547,-3.790,121.800
4723,0.1113,0.8774,-0.3608,-26.672,74.158,-25.513,99.360,-3.691,122.580
4733,0.1343,0.9106,-0.4458,-38.269,56.641,-23.743,99.113,-3.587,123.179
4743,0.1528,0.9404,-0.4541,-32.654,26.794,-14.954,98.937,-3.532,123.464
4753,0.1436,0.9761,-0.3726,-15.808,-7.324,-3.174,98.904,-3.532,123.398
4763,0.1235,0.9922,-0.2256,6.897,-45.654,8.057,99.042,-3.576,122.932
4773,0.0625,0.9897,-0.0503,28.076,-80.139,18.494,99.305,-3.631,122.113
4783,0.0146,0.9956,0.0957,39.307,-86.792,26.123,99.602,-3.719,121.212
4793,0.0029,1.0151,0.1426,39.063,-64.209,26.367,99.860,-3.834,120.531
4803,0.0444,1.0522,0.0986,32.898,-28.625,18.738,100.052,-3.955,120.218
4813,0.0874,1.0571,0.0117,23.376,5.249,8.850,100.173,-4.059,120.256
4823,0.1182,1.0156,-0.0918,8.911,32.043,0.610,100.190,-4.147,120.569
4833,0.1255,0.9292,-0.2046,-8.667,48.096,-7.507,100.091,-4.191,121.058
4843,0.1211,0.8696,-0.3076,-29.053,52.002,-15.381,99.860,-4.164,121.597
4853,0.1123,0.8823,-0.3555,-44.739,42.969,-19.958,99.503,-4.070,122.058
4863,0.0977,0.9204,-0.3481,-47.241,23.376,-18.982,99.130,-3.939,122.316
4873,0.0811,0.9497,-0.3008,-35.828,-0.916,-12.756,98.860,-3.818,122.327
4883,0.0723,0.9995,-0.1831,-16.602,-23.682,-3.845,98.723,-3.746,122.102
4893,0.0439,1.0059,-0.0439,6.836,-42.175,6.165,98.756,-3.730,121.674
4903,0.0205,1.0137,0.0991,24.475,-48.157,15.991,98.888,-3.790,121.174
4913,0.0107,1.0420,0.1597,31.738,-35.583,22.095,99.053,-3.922,120.784
4923,0.0503,1.0361,0.0874,33.325,-8.423,20.386,99.250,-4.092,120.668
4933,0.0771,1.0112,-0.0522,29.663,18.982,12.329,99.470,-4.246,120.839
4943,0.0757,0.9756,-0.2119,19.897,40.161,2.258,99.668,-4.334,121.234
4953,0.0752,0.9409,-0.3379,1.038,51.819,-7.446,99.739,-4.351,121.756
4963,0.0737,0.9419,-0.3906,-22.339,49.683,-15.442,99.608,-4.279,122.272
4973,0.0571,1.0146,-0.3457,-40.649,33.447,-18.494,99.267,-4.142,122.635
4983,0.0278,1.0669,-0.2417,-42.542,9.766,-14.160,98.877,-3.994,122.756
4993,0.0264,1.0693,-0.1431,-27.039,-12.695,-5.615,98.602,-3.889,122.640
5003,0.0195,1.0737,-0.0527,-3.662,-30.884,3.357,98.531,-3.851,122.327
5013,0.0142,1.0366,-0.0015,18.433,-37.415,10.925,98.652,-3.873,121.943
5023,0.0146,1.0244,0.0337,29.663,-30.212,15.015,98.860,-3.944,121.619
5033,0.0498,1.0269,0.0352,26.794,-13.062,14.587,99.031,-4.054,121.465
5043,0.1016,1.0596,-0.0073,14.221,8.118,9.766,99.080,-4.175,121.531
5053,0.1274,1.0928,-0.0825,-1.892,27.710,1.038,98.992,-4.257,121.805
5063,0.1118,1.0874,-0.1362,-14.648,39.185,-8.179,98.800,-4.252,122.206
5073,0.0898,1.0059,-0.1987,-19.531,41.931,-14.587,98.597,-4.180,122.640
5083,0.0698,0.9209,-0.2803,-20.325,37.598,-16.968,98.454,-4.070,123.041
5093,0.0415,0.8511,-0.3618,-16.174,28.259,-14.954,98.416,-3.950,123.344
5103,0.0200,0.8218,-0.4224,-6.958,16.296,-8.972,98.525,-3.856,123.519
5113,0.0308,0.8384,-0.4141,4.822,2.808,-0.305,98.745,-3.840,123.547
5123,0.0723,0.9063,-0.3247,14.832,-12.451,9.460,99.014,-3.917,123.409
5133,0.1260,1.0146,-0.2070,21.790,-26.855,18.616,99.272,-4.087,123.113
5143,0.1704,1.1382,-0.0781,26.306,-32.349,24.231,99.509,-4.318,122.756
5153,0.2090,1.2202,-0.0029,30.579,-24.475,23.987,99.734,-4.565,122.470
5163,0.2251,1.2021,-0.0200,34.607,-8.240,17.395,99.998,-4.779,122.360
5173,0.1978,1.0864,-0.0957,32.593,9.460,6.042,100.267,-4.911,122.443
5183,0.1353,0.9419,-0.1968,20.508,23.621,-5.920,100.464,-4.927,122.690
5193,0.1113,0.8589,-0.3022,1.587,32.898,-13.123,100.541,-4.878,123.036
5203,0.1138,0.8174,-0.3984,-13.550,31.372,-13.306,100.530,-4.828,123.371
5213,0.1279,0.8369,-0.4272,-18.494,17.029,-7.507,100.497,-4.812,123.552
5223,0.1367,0.9033,-0.3784,-13.611,-4.395,3.906,100.492,-4.878,123.503
5233,0.1445,0.9585,-0.2773,-1.587,-27.527,17.639,100.558,-5.032,123.201
5243,0.1367,1.0015,-0.1631,15.625,-47.791,27.161,100.745,-5.235,122.679
5253,0.1216,1.0386,-0.0518,31.616,-55.664,28.748,101.030,-5.427,122.075
5263,0.1001,1.0630,0.0161,42.175,-46.692,24.231,101.376,-5.576,121.569
5274,0.0981,1.0737,-0.0024,45.227,-26.306,15.686,101.739,-5.669,121.278
5283,0.1050,1.0562,-0.0850,39.795,-5.371,5.249,102.068,-5.713,121.212
5293,0.1108,1.0107,-0.1846,27.588,11.230,-3.113,102.316,-5.707,121.328
5303,0.1128,0.9131,-0.2861,11.414,22.644,-7.996,102.453,-5.691,121.569
5313,0.1108,0.8667,-0.3706,-5.737,26.672,-9.338,102.475,-5.663,121.849
5323,0.1177,0.8794,-0.4141,-17.517,21.729,-6.775,102.409,-5.658,122.080
5333,0.1357,0.9224,-0.4160,-20.752,8.118,-1.404,102.316,-5.680,122.162
5343,0.1401,0.9893,-0.3657,-15.320,-10.315,4.456,102.250,-5.724,122.053
5353,0.1069,1.0205,-0.2871,-2.991,-30.090,10.376,102.288,-5.762,121.734
5363,0.0571,1.0356,-0.1616,8.301,-44.189,13.794,102.382,-5.773,121.267
5373,0.0078,1.0542,-0.0288,15.259,-45.532,12.817,102.475,-5.746,120.795
5383,-0.0098,1.0610,0.0566,17.517,-30.884,9.277,102.524,-5.707,120.471
5393,0.0010,1.0234,0.0654,14.832,-7.263,4.395,102.513,-5.680,120.394
5403,0.0044,0.9810,0.0073,8.301,15.808,-1.587,102.453,-5.641,120.547
5413,0.0352,0.9482,-0.0908,-2.197,34.058,-7.141,102.327,-5.614,120.899
5423,0.0996,0.9580,-0.1787,-16.541,44.128,-10.193,102.101,-5.609,121.355
5433,0.1587,1.0020,-0.2583,-27.466,42.236,-10.193,101.810,-5.630,121.789
5443,0.1992,1.0708,-0.2920,-30.396,27.283,-8.240,101.519,-5.647,122.075
5453,0.1953,1.1016,-0.2964,-24.719,6.531,-4.639,101.299,-5.658,122.151
5463,0.1592,1.0664,-0.2876,-16.235,-13.062,-2.075,101.190,-5.636,122.025
5473,0.1079,0.9961,-0.2388,-13.000,-29.419,-2.258,101.113,-5.565,121.740
5483,0.0649,0.9131,-0.1802,-20.081,-35.034,-4.272,100.948,-5.438,121.404
5493,0.0513,0.9150,-0.1045,-37.598,-27.222,-7.812,100.552,-5.290,121.146
5503,0.0581,0.9297,-0.0854,-53.650,-10.437,-12.207,99.976,-5.136,121.069
5513,0.0742,0.9312,-0.1216,-64.514,6.958,-16.174,99.305,-4.982,121.163
5523,0.0908,0.8936,-0.1890,-71.899,20.996,-19.409,98.597,-4.834,121.404
5533,0.0967,0.8281,-0.2583,-81.726,29.419,-22.156,97.850,-4.675,121.729
5543,0.1147,0.8203,-0.2749,-97.900,27.344,-26.672,96.960,-4.482,122.036
5553,0.1401,0.9487,-0.1919,-108.398,8.911,-31.372,95.922,-4.219,122.162
5563,0.1299,1.0474,-0.0962,-91.797,-19.897,-27.405,95.021,-3.955,121.998
5573,0.1074,1.1206,-0.0078,-53.528,-45.654,-16.113,94.471,-3.774,121.553
5583,0.0640,1.0991,0.0664,-4.761,-64.026,-3.967,94.389,-3.680,120.916
5593,0.0225,1.0244,0.1104,31.433,-68.359,6.165,94.636,-3.664,120.229
5603,0.0322,1.0132,0.1274,39.795,-50.110,10.925,94.944,-3.713,119.718
5613,0.0610,1.0396,0.0986,27.832,-21.057,7.202,95.131,-3.763,119.504
5623,0.0684,1.0459,0.0112,6.409,9.094,-2.319,95.131,-3.752,119.597
5633,0.0796,1.0410,-0.0923,-17.456,34.485,-13.733,94.933,-3.653,119.954
5643,0.0850,1.0527,-0.1733,-39.185,48.889,-20.813,94.559,-3.494,120.460
5653,0.1050,1.1094,-0.2124,-49.194,49.194,-20.386,94.103,-3.351,120.965
5663,0.0908,1.1245,-0.2222,-37.476,34.485,-11.963,93.785,-3.268,121.317
5673,0.0557,1.0903,-0.1895,-13.123,13.672,0.793,93.708,-3.285,121.454
5683,0.0112,1.0083,-0.1538,13.672,-5.493,12.085,93.895,-3.373,121.393
5693,-0.0073,0.9453,-0.1191,28.870,-19.775,19.165,94.224,-3.510,121.179
5703,-0.0049,0.9194,-0.0630,31.067,-29.358,20.325,94.548,-3.653,120.872
5713,-0.0127,0.9053,-0.0054,23.437,-32.166,18.921,94.763,-3.768,120.536
5723,0.0288,0.9775,0.0342,10.498,-21.362,17.151,94.812,-3.900,120.311
5733,0.1084,1.0972,0.0454,0.610,-3.601,15.137,94.752,-4.059,120.262
5743,0.1714,1.1538,0.0059,0.488,10.925,12.939,94.697,-4.241,120.361
5753,0.1772,1.1025,-0.0425,5.737,18.433,8.911,94.719,-4.395,120.536
5763,0.1201,0.9956,-0.0977,5.554,19.592,3.296,94.763,-4.466,120.729
5774,0.0483,0.8848,-0.1499,-0.244,16.113,-1.892,94.801,-4.449,120.894
5783,0.0205,0.8198,-0.1895,-8.057,9.827,-4.944,94.796,-4.378,120.992
5793,0.0439,0.8535,-0.1821,-17.395,3.113,-4.517,94.691,-4.318,121.031
5803,0.1196,0.9795,-0.1167,-24.048,-4.517,-0.488,94.477,-4.340,120.987
5813,0.1914,1.0884,-0.0518,-24.414,-12.939,4.150,94.230,-4.422,120.850
5823,0.2310,1.1099,0.0029,-21.118,-17.944,5.920,93.988,-4.543,120.668
5833,0.2217,1.0444,0.0405,-20.691,-20.813,3.845,93.741,-4.642,120.460
5843,0.1494,0.9292,0.0728,-29.114,-21.912,-0.671,93.384,-4.664,120.240
5853,0.0488,0.8228,0.0864,-44.739,-21.606,-4.883,92.867,-4.592,120.026
5863,-0.0205,0.7578,0.0542,-60.059,-19.043,-6.653,92.219,-4.455,119.839
5873,-0.0288,0.7441,0.0015,-69.946,-15.137,-5.432,91.511,-4.329,119.685
5883,-0.0083,0.7427,-0.0557,-74.158,-12.817,-1.526,90.813,-4.263,119.559
5893,0.0215,0.8062,-0.0718,-76.477,-15.320,2.563,90.110,-4.257,119.405
5904,0.0591,0.9268,-0.0386,-75.195,-25.635,6.897,89.412,-4.318,119.147
5914,0.0908,1.0449,0.0186,-64.636,-43.091,13.672,88.797,-4.466,118.718
5923,0.1133,1.1489,0.1099,-44.678,-63.538,21.362,88.363,-4.702,118.087
5933,0.1040,1.2114,0.1533,-16.418,-70.862,26.367,88.198,-4.982,117.383
5944,0.1030,1.2017,0.1123,9.338,-57.739,26.917,88.308,-5.268,116.812
5953,0.0835,1.1489,0.0366,22.034,-32.837,21.606,88.550,-5.477,116.488
5964,0.0752,1.1143,-0.0415,18.738,-3.845,10.864,88.775,-5.570,116.450
5974,0.0801,1.0703,-0.1172,4.639,20.020,-0.732,88.879,-5.548,116.653
5984,0.1260,1.0776,-0.1606,-17.395,34.668,-8.667,88.770,-5.466,116.999
5994,0.1797,1.1621,-0.1279,-38.391,36.133,-9.949,88.429,-5.389,117.361
6004,0.1982,1.2656,-0.0420,-40.955,23.437,-3.296,88.039,-5.389,117.592
6014,0.1729,1.2603,0.0410,-23.376,4.822,9.705,87.803,-5.504,117.647
6024,0.1079,1.1729,0.1060,1.343,-12.451,21.118,87.797,-5.718,117.532
6034,0.0332,1.0645,0.1255,22.461,-22.461,25.024,87.995,-5.933,117.312
6044,0.0029,0.9995,0.1035,33.386,-17.822,21.973,88.303,-6.097,117.142
6054,0.0298,0.9932,0.0591,34.912,0.854,14.832,88.632,-6.202,117.153
6064,0.0825,1.0107,0.0088,29.968,23.499,8.545,88.912,-6.262,117.394
6074,0.1475,1.0493,-0.0151,20.630,40.955,4.028,89.088,-6.312,117.806
6084,0.1870,1.0679,-0.0083,7.812,47.913,-0.610,89.127,-6.339,118.290
6094,0.1685,1.0518,0.0093,-0.244,43.030,-5.981,89.083,-6.301,118.718
6104,0.1147,0.9961,0.0264,-4.211,31.677,-9.888,89.000,-6.196,119.037
6114,0.0493,0.9556,0.0469,-4.578,19.226,-10.376,88.918,-6.059,119.229
6124,0.0205,0.9351,0.0513,1.038,9.460,-7.019,88.896,-5.938,119.323
6134,0.0381,0.9341,0.0317,9.094,2.991,-1.343,88.973,-5.889,119.350
6144,0.0913,0.9829,0.0098,15.625,0.854,3.784,89.132,-5.922,119.361
6154,0.1592,1.0269,-0.0068,19.958,3.784,6.775,89.341,-6.015,119.399
6164,0.2134,1.0825,-0.0049,17.639,10.681,6.775,89.511,-6.136,119.509
6174,0.2056,1.0469,0.0059,10.010,13.672,1.465,89.599,-6.196,119.647
6184,0.1440,0.9731,0.0249,-3.296,11.780,-8.545,89.544,-6.136,119.762
6194,0.0674,0.9321,0.0527,-20.447,8.423,-17.456,89.302,-5.944,119.850
6204,0.0244,0.9243,0.0581,-31.677,5.859,-20.691,88.956,-5.691,119.905
6214,0.0391,0.9839,0.0459,-33.020,5.920,-17.273,88.605,-5.488,119.960
6224,0.0928,1.0625,0.0283,-25.085,7.690,-9.521,88.347,-5.383,120.037
6234,0.1538,1.1309,0.0269,-13.489,8.484,-2.747,88.209,-5.378,120.119
6244,0.2002,1.1699,0.0269,-5.188,6.836,-0.183,88.160,-5.416,120.190
6254,0.2202,1.1592,0.0269,-5.981,3.784,-1.892,88.099,-5.449,120.223
6264,0.1890,1.0962,0.0112,-17.700,1.404,-9.033,87.935,-5.405,120.234
6274,0.1040,0.9727,-0.0200,-36.926,1.831,-20.142,87.605,-5.213,120.245
6284,0.0396,0.8979,-0.0352,-62.012,5.005,-30.884,87.034,-4.878,120.284
6294,0.0063,0.8965,-0.0244,-83.618,6.653,-36.499,86.243,-4.466,120.333
6304,-0.0063,0.9624,0.0176,-89.539,2.441,-35.156,85.386,-4.070,120.333
6314,-0.0015,1.0308,0.0532,-71.472,-10.559,-27.832,84.705,-3.763,120.207
6324,0.0107,1.0527,0.0771,-33.203,-28.992,-13.977,84.408,-3.620,119.905
6334,0.0317,1.0088,0.0835,10.925,-46.570,2.502,84.551,-3.669,119.443
6344,0.0552,0.9590,0.0835,47.119,-56.946,16.785,85.056,-3.884,118.889
6354,0.0928,0.9355,0.0825,63.599,-55.786,25.146,85.721,-4.197,118.356
6364,0.1289,0.9507,0.0815,62.134,-44.250,23.865,86.364,-4.504,117.927
6374,0.1416,0.9824,0.0874,47.302,-26.001,15.625,86.836,-4.708,117.680
6384,0.1323,0.9834,0.0791,25.024,-4.700,4.150,87.072,-4.785,117.636
6394,0.1167,0.9795,0.0815,-0.061,13.428,-7.324,87.045,-4.724,117.768
6404,0.0850,0.9556,0.0957,-21.240,25.330,-16.174,86.786,-4.554,118.010
6414,0.0508,0.9316,0.1221,-32.959,31.128,-20.813,86.391,-4.318,118.312
6424,0.0146,0.9180,0.1406,-35.461,32.288,-20.081,85.968,-4.065,118.619
6434,0.0054,0.9331,0.1460,-27.222,30.457,-14.832,85.627,-3.856,118.916
6444,0.0200,0.9639,0.1304,-10.071,26.550,-6.409,85.479,-3.746,119.174
6454,0.0400,0.9858,0.0952,9.033,22.278,2.930,85.540,-3.746,119.399
6464,0.0732,0.9893,0.0464,24.109,19.775,9.888,85.787,-3.834,119.608
6474,0.1050,0.9736,-0.0063,31.372,17.883,12.390,86.127,-3.966,119.795
6484,0.1235,0.9497,-0.0464,29.358,14.709,10.498,86.473,-4.092,119.949
6494,0.1274,0.9331,-0.0654,18.311,8.911,5.554,86.726,-4.180,120.042
6504,0.1187,0.9370,-0.0522,1.160,0.732,0.427,86.803,-4.213,120.048
6514,0.1099,0.9712,-0.0054,-15.442,-9.766,-2.808,86.693,-4.213,119.949
6524,0.1011,1.0122,0.0649,-25.940,-21.790,-4.089,86.446,-4.202,119.729
6534,0.0771,1.0410,0.1460,-28.015,-33.386,-4.150,86.149,-4.180,119.394
6544,0.0396,1.0586,0.2183,-21.973,-38.696,-2.930,85.880,-4.153,119.004
6554,0.0278,1.0522,0.2578,-11.536,-30.579,-0.244,85.693,-4.147,118.696
6564,0.0415,1.0068,0.2344,-0.549,-11.963,1.221,85.611,-4.153,118.575
6574,0.0557,0.9590,0.1621,7.568,9.827,0.061,85.622,-4.136,118.674
6584,0.0767,0.9307,0.0820,7.019,30.823,-2.625,85.666,-4.092,118.982
6594,0.1040,0.9189,0.0249,-3.784,47.119,-5.737,85.622,-4.021,119.449
6604,0.1221,0.9497,0.0059,-19.714,52.917,-9.399,85.430,-3.922,119.971
6614,0.1196,0.9927,0.0186,-29.602,46.448,-11.719,85.144,-3.801,120.427
6624,0.0967,1.0371,0.0576,-28.320,30.029,-9.399,84.858,-3.697,120.718
6634,0.0435,1.0249,0.0698,-15.869,9.827,-3.418,84.710,-3.642,120.811
6644,0.0244,1.0166,0.0596,-1.709,-5.920,2.930,84.716,-3.653,120.756
6654,0.0410,1.0020,0.0479,6.653,-15.930,8.179,84.814,-3.735,120.602
6664,0.0542,0.9961,0.0332,7.568,-17.578,11.108,84.935,-3.856,120.438
6674,0.0762,1.0015,0.0317,0.244,-9.583,9.277,84.974,-3.961,120.350
6684,0.1113,1.0952,0.0947,-15.564,-0.977,4.211,84.820,-4.021,120.344
6694,0.1055,1.1602,0.1616,-26.855,1.648,-0.977,84.529,-4.021,120.361
6704,0.0674,1.1450,0.2061,-25.391,-0.366,-5.249,84.227,-3.961,120.355
6714,0.0083,1.1094,0.2241,-15.076,-3.052,-7.507,84.023,-3.856,120.317
6724,-0.0430,1.0298,0.2007,2.869,-2.808,-6.470,84.007,-3.735,120.278
6733,0.0000,0.9575,0.0684,34.180,7.446,3.113,84.359,-3.719,120.355
6744,0.0635,0.9673,0.0190,41.199,12.207,8.606,84.803,-3.790,120.487
6754,0.1260,1.0020,-0.0093,40.100,14.160,11.719,85.248,-3.928,120.641
6764,0.1675,1.0234,-0.0200,32.471,12.817,11.230,85.616,-4.081,120.778
6775,0.1675,0.9980,-0.0146,20.264,8.545,6.042,85.864,-4.191,120.866
6784,0.1304,0.9634,0.0137,5.432,2.136,-2.686,85.952,-4.197,120.888
6794,0.0898,0.9380,0.0571,-7.996,-5.005,-9.216,85.880,-4.120,120.828
6804,0.0493,0.9126,0.1040,-15.076,-12.268,-11.108,85.715,-4.010,120.701
6814,0.0239,0.9082,0.1294,-14.221,-16.602,-9.399,85.551,-3.906,120.526
6824,0.0405,0.9434,0.1294,-7.751,-15.808,-4.395,85.452,-3.856,120.366
6834,0.0806,0.9922,0.1167,2.319,-9.888,2.319,85.457,-3.895,120.267
6844,0.1230,1.0264,0.0981,11.353,0.244,7.324,85.562,-3.999,120.278
6854,0.1465,1.0376,0.0791,15.076,10.376,8.423,85.704,-4.114,120.388
6864,0.1387,1.0347,0.0698,12.817,16.968,5.798,85.820,-4.191,120.558
6874,0.1064,1.0112,0.0679,6.714,18.799,0.732,85.880,-4.202,120.751
6884,0.0522,0.9751,0.0630,-1.587,17.273,-4.211,85.853,-4.142,120.921
6894,0.0034,0.9512,0.0464,-8.240,14.771,-6.897,85.776,-4.021,121.064
6904,-0.0034,0.9678,0.0244,-9.949,13.794,-5.859,85.699,-3.911,121.196
6914,0.0264,0.9937,0.0034,-7.446,13.794,-1.221,85.655,-3.867,121.333
6924,0.0601,1.0054,-0.0044,-2.625,12.268,4.456,85.666,-3.895,121.459
6934,0.0840,1.0342,0.0332,1.282,8.667,8.240,85.699,-3.977,121.553
6944,0.0771,1.0396,0.1069,4.578,2.808,8.484,85.726,-4.059,121.586
6954,0.0396,1.0317,0.2114,7.141,-5.371,6.653,85.726,-4.114,121.536
6964,-0.0068,1.0083,0.2822,10.986,-13.000,4.395,85.732,-4.120,121.410
6974,-0.0215,0.9844,0.2773,17.639,-15.381,3.296,85.798,-4.109,121.256
6984,0.0049,0.9766,0.1943,22.827,-6.531,5.310,85.963,-4.131,121.196
6994,0.0596,1.0029,0.0801,25.269,12.512,9.033,86.193,-4.202,121.328
7004,0.1177,1.0483,-0.0161,24.536,32.898,12.939,86.462,-4.329,121.668
7014,0.1592,1.0503,-0.0977,20.996,47.302,14.038,86.721,-4.482,122.146
7024,0.1611,1.0166,-0.1587,13.611,49.316,10.071,86.940,-4.598,122.646
7034,0.1392,0.9863,-0.1875,2.747,37.415,2.136,87.072,-4.636,123.025
7044,0.0952,0.9531,-0.1611,-9.094,13.733,-6.226,87.100,-4.576,123.157
7054,0.0615,0.9551,-0.0825,-18.799,-13.916,-10.620,87.001,-4.466,123.014
7064,0.0571,0.9971,0.0347,-23.865,-38.025,-9.583,86.808,-4.384,122.629
7074,0.0513,1.0439,0.1733,-22.644,-50.842,-3.235,86.556,-4.362,122.119
7084,0.0522,1.0928,0.2754,-16.785,-45.044,4.517,86.320,-4.417,121.668
7094,0.0781,1.1372,0.3188,-9.827,-23.926,8.789,86.122,-4.510,121.437
7104,0.0942,1.1406,0.2993,-2.686,5.371,8.850,85.979,-4.598,121.492
7114,0.0933,1.0625,0.2212,3.418,34.546,4.944,85.908,-4.625,121.844
7124,0.0654,0.9614,0.1260,4.456,56.213,-2.625,85.875,-4.548,122.404
7134,0.0435,0.8960,0.0386,-2.686,67.993,-10.315,85.809,-4.384,123.080
7144,0.0356,0.8843,-0.0249,-9.583,68.115,-14.587,85.726,-4.169,123.750
7154,0.0532,0.9487,-0.0493,-12.451,56.274,-12.573,85.633,-3.994,124.299
7164,0.0698,1.0293,-0.0391,-6.775,34.363,-4.822,85.605,-3.917,124.640
7174,0.0859,1.0830,-0.0239,5.615,10.986,5.066,85.710,-3.966,124.755
7184,0.1011,1.0903,0.0195,18.127,-7.568,12.207,85.930,-4.103,124.689
7194,0.0869,1.0562,0.0522,26.489,-16.663,15.259,86.215,-4.274,124.530
7204,0.0718,1.0122,0.0806,26.733,-11.047,11.597,86.479,-4.395,124.431
7214,0.0615,0.9746,0.0903,17.822,4.761,3.113,86.633,-4.411,124.481
7224,0.0576,0.9771,0.1011,3.052,22.095,-5.554,86.622,-4.334,124.695
7234,0.0698,1.0024,0.1182,-10.315,35.339,-11.536,86.462,-4.197,125.046
7244,0.0698,1.0059,0.1284,-15.869,40.955,-12.329,86.237,-4.048,125.447
7254,0.0767,1.0220,0.1440,-13.367,41.504,-8.118,86.034,-3.944,125.854
7264,0.0854,1.0688,0.1758,-1.892,38.818,-0.183,85.935,-3.917,126.244
7275,0.0801,1.0625,0.1851,21.179,34.973,9.216,86.061,-3.988,126.601
7284,0.0649,0.9927,0.1636,47.791,34.851,15.808,86.457,-4.120,126.958
7294,0.0630,0.9336,0.1235,63.843,39.795,17.151,87.017,-4.263,127.370
7304,0.0688,0.9014,0.0688,66.467,47.852,13.245,87.627,-4.367,127.853
7314,0.0835,0.8931,0.0103,56.824,56.885,7.019,88.165,-4.422,128.430
7324,0.0957,0.9146,-0.0366,38.940,63.293,1.648,88.544,-4.433,129.062
7334,0.0928,0.9512,-0.0542,19.958,63.721,-0.977,88.737,-4.422,129.699
7344,0.0723,0.9746,-0.0654,8.850,57.983,-0.183,88.830,-4.406,130.281
7354,0.0454,0.9805,-0.0742,8.850,46.448,3.601,88.940,-4.411,130.748
7364,0.0347,0.9834,-0.0864,14.343,32.104,8.911,89.116,-4.471,131.072
7374,0.0400,0.9644,-0.1191,21.606,17.395,14.038,89.396,-4.587,131.248
7384,0.0620,0.9546,-0.1211,22.705,3.784,16.968,89.698,-4.746,131.287
7394,0.0972,0.9795,-0.0908,17.944,-8.057,16.907,89.940,-4.922,131.210
7404,0.1304,1.0308,-0.0474,10.193,-14.038,15.320,90.077,-5.098,131.067
7414,0.1538,1.0981,-0.0068,3.113,-14.343,13.611,90.121,-5.262,130.924
7424,0.1777,1.1445,0.0122,1.038,-10.193,11.719,90.137,-5.411,130.820
7434,0.1802,1.1655,0.0005,3.235,-4.456,9.338,90.170,-5.537,130.776
7444,0.1641,1.1084,-0.0396,8.301,-0.305,4.456,90.269,-5.609,130.776
7454,0.1318,1.0000,-0.0996,10.071,-1.099,-3.967,90.428,-5.592,130.765
7464,0.1147,0.9600,-0.1157,2.747,-6.470,-13.367,90.522,-5.466,130.699
7474,0.1157,0.9482,-0.0952,-7.019,-17.151,-19.836,90.522,-5.284,130.529
7484,0.1064,0.9907,-0.0205,-9.766,-33.813,-20.691,90.461,-5.087,130.188
7494,0.0942,1.0586,0.0723,1.221,-56.702,-15.808,90.483,-4.922,129.622
7504,0.0928,1.0718,0.1289,29.541,-83.313,-9.277,90.769,-4.823,128.787
7514,0.0928,1.0381,0.1328,64.514,-108.643,-6.348,91.423,-4.752,127.700
7524,0.0991,0.9741,0.0732,97.046,-128.479,-9.583,92.428,-4.636,126.414
7534,0.1011,0.8984,-0.0137,117.920,-141.113,-17.883,93.691,-4.417,125.002
7544,0.1021,0.8462,-0.0952,120.117,-146.240,-28.381,95.021,-4.065,123.558
7554,0.1030,0.8247,-0.1045,103.271,-148.804,-37.964,96.169,-3.593,122.108
7564,0.0952,0.8438,-0.0498,73.120,-150.269,-43.945,96.954,-3.027,120.657
7574,0.0840,0.9199,0.0737,37.415,-147.644,-46.204,97.284,-2.422,119.246
7584,0.0435,1.0332,0.1904,13.855,-139.465,-47.607,97.295,-1.774,117.922
7594,-0.0283,1.0830,0.1592,13.550,-117.981,-47.668,97.311,-1.126,116.812
7604,-0.0815,1.0723,0.0225,20.874,-77.576,-44.495,97.443,-0.538,116.098
7615,-0.1157,0.9863,-0.1367,21.790,-23.926,-37.720,97.668,-0.066,115.911
7625,-0.1260,0.8975,-0.2905,13.794,26.917,-31.921,97.905,0.286,116.219
7635,-0.0884,0.7871,-0.4429,-3.906,59.387,-29.968,98.086,0.549,116.851
7645,-0.0269,0.7852,-0.4951,-31.921,65.308,-29.602,98.015,0.758,117.537
7655,0.0186,0.9170,-0.4419,-59.753,46.326,-25.452,97.608,0.928,118.032
7665,0.0366,1.0679,-0.3398,-70.618,12.268,-12.817,97.009,1.011,118.169
7675,0.0396,1.1660,-0.2168,-60.974,-24.414,4.883,96.438,0.961,117.922
7685,0.0034,1.1680,-0.0825,-37.781,-55.237,21.606,96.031,0.797,117.350
7695,-0.0522,1.1128,0.0205,-12.939,-64.758,32.715,95.823,0.560,116.669
7705,-0.0703,1.0649,0.0879,-2.930,-49.622,35.767,95.685,0.291,116.142
7715,-0.0654,1.0835,0.0957,-6.958,-18.005,30.884,95.504,0.038,115.928
7725,-0.0269,1.1309,0.0527,-13.794,19.714,21.851,95.290,-0.176,116.104
7735,0.0195,1.1504,0.0039,-20.813,52.124,12.878,95.026,-0.363,116.614
7745,0.0391,1.1152,-0.0498,-24.475,70.862,3.723,94.752,-0.472,117.318
7755,0.0493,1.0327,-0.1123,-29.175,79.895,-3.479,94.471,-0.527,118.114
7765,0.0718,0.9775,-0.1709,-33.997,77.759,-9.155,94.186,-0.533,118.894
7775,0.0532,0.9478,-0.1719,-32.898,58.838,-12.695,93.911,-0.478,119.493
7785,0.0259,0.9541,-0.1108,-25.024,29.297,-10.498,93.691,-0.406,119.789
7795,0.0244,0.9771,-0.0229,-11.780,-0.427,-2.136,93.549,-0.396,119.789
7805,0.0034,0.9692,0.0405,7.935,-24.475,9.338,93.571,-0.467,119.537
7815,-0.0293,0.9756,0.0522,28.931,-29.846,21.973,93.796,-0.648,119.229
7825,-0.0225,0.9927,0.0044,43.518,-8.118,30.273,94.186,-0.917,119.125
7835,0.0010,1.0146,-0.0674,48.462,26.550,30.823,94.658,-1.236,119.366
7845,0.0234,0.9863,-0.1514,42.297,54.993,25.696,95.103,-1.533,119.894
7855,0.0439,0.9087,-0.2427,25.818,69.519,16.663,95.444,-1.769,120.575
7865,0.0659,0.9028,-0.2520,-2.869,69.702,5.676,95.493,-1.917,121.262
7875,0.0928,0.9575,-0.2100,-31.860,58.167,-3.418,95.229,-1.972,121.844
7885,0.1089,1.0215,-0.1509,-44.800,37.292,-7.263,94.801,-1.972,122.223
7895,0.0894,1.0649,-0.0742,-41.199,12.695,-4.639,94.384,-1.967,122.355
7905,0.0640,1.0869,0.0112,-26.123,-8.484,1.587,94.076,-1.989,122.267
7915,0.0298,1.0552,0.0552,-5.676,-19.409,8.972,93.955,-2.060,122.069
7925,0.0005,1.0151,0.0640,10.681,-14.160,16.296,93.994,-2.192,121.915
7935,-0.0059,0.9849,0.0161,23.376,5.310,18.799,94.175,-2.357,121.954
7945,-0.0215,0.9253,-0.0640,29.907,29.602,17.761,94.455,-2.516,122.239
7955,-0.0386,0.9009,-0.1455,26.733,50.720,15.076,94.746,-2.653,122.734
7965,-0.0679,0.8701,-0.1943,15.625,64.514,13.794,94.949,-2.774,123.365
7975,-0.0913,0.8188,-0.1919,3.662,69.153,13.489,95.037,-2.873,124.041
7985,-0.0376,0.9658,-0.0840,-7.263,63.416,16.174,94.933,-3.038,124.662
7995,0.0044,1.1411,0.0542,1.160,48.035,26.550,94.845,-3.312,125.118
8005,0.0234,1.1895,0.1450,36.133,33.630,41.931,95.065,-3.735,125.420
8015,0.0332,1.1338,0.1479,78.186,31.372,56.152,95.696,-4.296,125.684
8025,0.0654,1.0376,0.0498,109.863,47.180,64.697,96.669,-4.971,126.085
8035,0.1460,1.0137,-0.0986,119.202,76.294,66.101,97.778,-5.740,126.771
8045,0.2280,0.9922,-0.2744,106.934,106.628,60.364,98.822,-6.542,127.749
8055,0.2764,0.9404,-0.3989,77.698,124.939,45.166,99.597,-7.262,128.925
8065,0.3018,0.9570,-0.4272,32.288,123.657,21.545,99.915,-7.762,130.117
8075,0.3076,1.0396,-0.3872,-16.724,103.455,-1.709,99.712,-7.998,131.149
8085,0.2539,1.0444,-0.3413,-47.058,70.557,-16.357,99.234,-8.009,131.880
8095,0.2100,1.0474,-0.2935,-61.523,37.292,-20.508,98.630,-7.894,132.281
8105,0.1719,1.0566,-0.2388,-60.242,7.568,-16.968,98.064,-7.751,132.385
8115,0.1465,1.0269,-0.1846,-44.495,-19.409,-8.423,97.668,-7.646,132.204
8125,0.1411,0.9771,-0.0996,-25.879,-39.795,0.183,97.443,-7.603,131.803
8135,0.1372,0.9771,0.0186,-12.939,-46.448,7.446,97.295,-7.619,131.331
8145,0.0894,0.9336,0.0991,-1.160,-40.100,10.681,97.202,-7.652,130.913
8155,0.0806,0.9854,0.1597,4.211,-26.306,9.949,97.119,-7.685,130.638
8165,0.1123,1.1001,0.1860,8.850,-12.085,9.949,97.053,-7.751,130.507
8175,0.1079,1.1245,0.1353,21.667,1.160,14.038,97.130,-7.866,130.501
8185,0.0908,1.0376,0.0137,35.400,16.602,18.433,97.383,-8.036,130.644
8195,0.0840,0.9067,-0.1270,38.635,34.119,18.372,97.729,-8.234,130.963
8205,0.0806,0.7847,-0.2671,27.954,50.110,12.634,98.047,-8.399,131.446
8215,0.1260,0.7207,-0.3862,3.601,59.570,3.418,98.196,-8.514,132.034
8225,0.1860,0.7378,-0.4473,-27.893,59.143,-6.592,98.064,-8.569,132.638
8235,0.2495,0.9536,-0.3730,-56.885,43.884,-12.756,97.564,-8.558,133.094
8245,0.2607,1.1582,-0.2520,-60.364,8.179,-8.545,97.004,-8.525,133.187
8255,0.2344,1.2461,-0.1309,-35.767,-37.476,4.211,96.691,-8.542,132.808
8265,0.1890,1.2544,-0.0059,-1.221,-81.360,17.639,96.740,-8.619,131.968
8275,0.1421,1.1978,0.0659,32.043,-108.765,25.391,97.125,-8.723,130.847
8285,0.0986,1.0981,0.0542,52.612,-104.065,26.123,97.707,-8.817,129.771
8295,0.0684,0.9727,-0.0425,52.368,-69.641,17.517,98.284,-8.849,129.045
8305,0.0786,0.9053,-0.1431,33.569,-24.719,0.671,98.663,-8.784,128.798
8315,0.1133,0.8682,-0.2031,2.686,14.221,-17.090,98.707,-8.619,128.969
8325,0.1685,0.9312,-0.1924,-35.706,39.124,-29.846,98.317,-8.399,129.402
8335,0.1826,0.9961,-0.1250,-61.890,45.471,-32.471,97.625,-8.168,129.908
8345,0.1372,1.0186,-0.0586,-66.040,36.987,-22.888,96.866,-7.987,130.309
8355,0.0791,1.0210,-0.0259,-48.767,21.912,-7.080,96.301,-7.905,130.534
8365,0.0649,1.0103,-0.0479,-15.625,6.592,8.850,96.103,-7.960,130.589
8375,0.1060,0.9883,-0.1089,18.616,-3.418,22.278,96.295,-8.157,130.534
8385,0.1855,0.9785,-0.1816,41.260,-3.845,29.114,96.757,-8.459,130.463
8395,0.2583,0.9297,-0.2471,46.143,2.563,26.245,97.295,-8.789,130.457
8405,0.2910,0.9199,-0.2500,28.198,11.597,14.526,97.641,-9.025,130.556
8415,0.2520,0.9839,-0.1714,-1.648,14.648,-1.953,97.619,-9.080,130.704
8425,0.1519,1.0327,-0.0479,-29.358,6.531,-14.832,97.267,-8.937,130.792
8435,0.0605,1.0469,0.0537,-47.852,-5.615,-20.386,96.696,-8.674,130.759
8445,-0.0083,1.0171,0.0737,-48.218,-13.123,-18.066,96.125,-8.388,130.649
8455,-0.0244,0.9810,0.0044,-33.203,-9.094,-9.338,95.746,-8.190,130.567
8465,0.0444,0.9526,-0.0937,-8.301,3.357,1.831,95.658,-8.152,130.600
8475,0.1738,0.9727,-0.1831,13.428,16.235,12.512,95.823,-8.311,130.748
8485,0.2832,0.9790,-0.2661,26.428,22.217,17.944,96.147,-8.580,130.957
8495,0.3096,0.9321,-0.3286,25.330,15.747,12.390,96.509,-8.811,131.100
8505,0.2900,0.9497,-0.3159,5.005,-2.625,-2.869,96.680,-8.849,131.078
8515,0.2124,0.9746,-0.2363,-21.606,-31.860,-19.714,96.581,-8.652,130.781
8525,0.1357,1.0415,-0.1045,-44.067,-62.500,-29.297,96.224,-8.278,130.188
8535,0.0576,1.0527,0.0161,-52.612,-82.458,-24.902,95.746,-7.894,129.386
8545,0.0068,1.0430,0.0723,-42.419,-80.627,-9.705,95.339,-7.646,128.584
8555,0.0557,1.0933,0.0884,-22.156,-58.533,6.531,95.098,-7.608,127.991
8565,0.1504,1.0776,0.0381,7.080,-26.062,16.541,95.136,-7.751,127.716
8575,0.2383,1.0088,-0.0503,28.442,6.836,18.127,95.383,-7.993,127.766
8585,0.2710,0.9326,-0.1201,28.809,29.419,11.108,95.652,-8.207,128.051
8595,0.2480,0.9170,-0.1299,7.568,39.185,-1.953,95.691,-8.295,128.447
8605,0.1387,0.8779,-0.1094,-22.705,34.973,-15.076,95.433,-8.190,128.815
8615,0.0410,0.9097,-0.0562,-50.964,24.658,-24.292,94.867,-7.916,129.084
8625,-0.0063,0.9829,-0.0151,-62.012,12.573,-24.109,94.197,-7.603,129.232
8635,-0.0029,1.0532,-0.0317,-47.668,2.319,-12.024,93.691,-7.410,129.265
8645,0.0898,1.1392,-0.0864,-15.320,-2.319,7.019,93.554,-7.449,129.238
8655,0.1919,1.1587,-0.1577,24.353,-2.686,25.696,93.840,-7.718,129.194
8665,0.2778,1.1602,-0.2100,54.199,2.686,34.241,94.438,-8.113,129.199
8675,0.3262,1.1045,-0.2290,61.462,10.132,28.381,95.109,-8.481,129.276
8685,0.2612,0.8623,-0.2261,44.556,12.573,11.292,95.630,-8.685,129.391
8695,0.1411,0.7422,-0.1699,0.427,11.414,-12.268,95.691,-8.591,129.523
8705,0.0527,0.7969,-0.0439,-53.528,6.592,-30.701,95.120,-8.251,129.617
8715,0.0220,0.9204,0.0645,-83.313,-1.343,-35.767,94.202,-7.828,129.639
8725,0.0244,1.0684,0.1201,-80.017,-10.376,-24.902,93.312,-7.509,129.551
8735,0.0425,1.1655,0.1133,-42.236,-17.944,-2.869,92.829,-7.416,129.370
8745,0.0815,1.1704,0.0786,14.709,-19.409,20.569,92.933,-7.575,129.166
8755,0.1528,1.1646,0.0317,60.547,-12.817,35.278,93.510,-7.916,129.018
8765,0.2266,1.1016,-0.0396,80.627,-1.526,35.645,94.296,-8.306,128.979
8776,0.1963,0.8979,-0.1426,74.219,7.812,21.118,95.070,-8.558,129.045
8785,0.1338,0.7354,-0.1904,38.391,13.611,-2.625,95.526,-8.558,129.183
8795,0.0986,0.7061,-0.1738,-15.198,15.930,-24.414,95.433,-8.322,129.370
8805,0.0942,0.8643,-0.0801,-63.232,13.184,-35.767,94.779,-7.960,129.534
8815,0.0986,1.1084,0.0396,-80.322,4.089,-29.419,93.906,-7.646,129.600
8825,0.0962,1.2290,0.0850,-56.824,-9.033,-9.155,93.274,-7.520,129.518
8835,0.0933,1.2314,0.0522,-4.944,-19.531,14.221,93.197,-7.614,129.309
8845,0.1157,1.1855,-0.0127,46.509,-21.545,29.358,93.664,-7.872,129.078
8855,0.1655,1.0366,-0.1284,72.998,-17.029,30.701,94.444,-8.179,128.886
8865,0.1860,0.8555,-0.2280,69.153,-12.268,18.188,95.251,-8.383,128.749
8875,0.1729,0.7720,-0.2710,33.203,-6.104,-1.099,95.729,-8.405,128.688
8885,0.1772,0.8320,-0.2324,-23.193,1.221,-17.700,95.598,-8.262,128.716
8895,0.1797,1.0005,-0.1201,-64.575,2.808,-27.527,94.960,-8.015,128.771
8905,0.1445,1.1318,0.0005,-73.669,-2.380,-25.696,94.180,-7.751,128.771
8915,0.0967,1.1421,0.0469,-53.650,-10.498,-12.817,93.598,-7.586,128.677
8925,0.0703,1.1348,0.0356,-13.000,-17.395,4.150,93.439,-7.575,128.496
8935,0.0913,1.1011,-0.0166,30.823,-17.822,20.142,93.746,-7.734,128.304
8945,0.1426,1.0088,-0.1055,61.218,-13.489,28.748,94.395,-8.015,128.150
8955,0.2197,0.9375,-0.1636,65.063,-8.240,25.085,95.109,-8.306,128.051
8965,0.2422,0.8853,-0.1748,44.861,-3.418,12.207,95.620,-8.487,128.002
8975,0.2187,0.8657,-0.1494,8.118,1.038,-2.502,95.740,-8.520,128.018
8985,0.2012,0.9590,-0.0688,-29.602,2.747,-15.076,95.422,-8.410,128.062
8995,0.1646,1.0249,0.0015,-50.232,2.319,-22.766,94.861,-8.190,128.106
9005,0.1187,1.0459,0.0264,-54.138,0.183,-24.475,94.263,-7.932,128.128
9015,0.0747,1.0298,0.0078,-40.894,-2.380,-19.531,93.812,-7.701,128.117
9025,0.0439,0.9824,-0.0366,-17.212,0.000,-10.193,93.620,-7.548,128.123
9035,0.0410,0.9355,-0.0898,4.211,4.761,-0.488,93.675,-7.498,128.172
9045,0.0830,0.9131,-0.1318,18.250,5.981,6.836,93.895,-7.548,128.227
9055,0.1548,0.9282,-0.1504,23.376,2.625,10.071,94.175,-7.663,128.249
9065,0.2261,1.0190,-0.1460,15.503,-2.869,8.667,94.373,-7.795,128.216
9075,0.2891,1.1343,-0.1235,2.869,-8.423,3.784,94.433,-7.888,128.128
9085,0.2754,1.1768,-0.0801,-4.395,-14.343,-3.540,94.406,-7.899,127.985
9095,0.1802,1.0962,-0.0293,-10.193,-18.799,-10.559,94.301,-7.795,127.804
9105,0.0518,0.9595,0.0215,-16.785,-18.555,-15.015,94.098,-7.586,127.628
9115,-0.0610,0.8584,0.0479,-22.705,-12.207,-13.977,93.818,-7.322,127.513
9125,-0.0703,0.8691,0.0542,-22.461,-2.197,-7.202,93.521,-7.130,127.496
9135,0.0278,0.9463,0.0215,-11.841,7.263,2.808,93.351,-7.108,127.568
9145,0.1685,1.0361,-0.0522,5.554,12.695,10.986,93.384,-7.245,127.689
9156,0.2983,1.0981,-0.1299,22.583,13.367,13.306,93.625,-7.460,127.815
9166,0.3564,1.0854,-0.1934,31.189,9.033,9.644,93.988,-7.668,127.903
9176,0.3140,0.9961,-0.2007,24.841,0.061,1.160,94.307,-7.773,127.903
9185,0.1855,0.8755,-0.1548,4.700,-11.902,-8.606,94.427,-7.718,127.787
9195,0.0376,0.7983,-0.0742,-21.790,-23.193,-15.381,94.252,-7.498,127.568
9205,-0.0366,0.8682,0.0381,-44.373,-28.259,-14.893,93.779,-7.234,127.293
9215,-0.0234,0.9980,0.0977,-47.974,-22.339,-6.348,93.235,-7.070,127.073
9225,0.1045,1.1597,0.1133,-34.241,-7.568,2.808,92.818,-7.075,126.996
9235,0.2520,1.3003,0.0806,-12.146,10.193,7.324,92.626,-7.191,127.095
9245,0.3472,1.3511,0.0308,8.789,25.940,5.432,92.637,-7.328,127.354
9255,0.2754,1.1660,-0.0498,21.301,33.081,-4.150,92.807,-7.361,127.689
9266,0.0591,0.8232,-0.1279,15.747,30.090,-19.592,92.983,-7.147,128.002
9276,-0.1348,0.5972,-0.1318,-11.719,19.775,-33.630,92.933,-6.630,128.216
9286,-0.2051,0.6050,-0.0781,-47.974,3.540,-36.682,92.499,-6.015,128.271
9296,-0.1436,0.7847,-0.0391,-63.354,-15.686,-25.940,91.890,-5.592,128.128
9306,0.0166,1.0542,0.0127,-53.833,-32.654,-6.226,91.362,-5.471,127.798
9316,0.1675,1.3062,0.0508,-25.208,-37.109,12.451,91.110,-5.603,127.425
9326,0.3066,1.4634,0.0449,9.888,-20.996,21.301,91.203,-5.872,127.211
9336,0.3882,1.4243,-0.0449,44.861,3.662,19.165,91.648,-6.158,127.244
9346,0.3555,1.2285,-0.1504,62.744,21.851,6.958,92.302,-6.328,127.458
9356,0.2070,0.8608,-0.2603,55.054,29.785,-10.681,92.955,-6.301,127.766
9366,0.1006,0.6611,-0.2969,17.151,31.189,-27.039,93.301,-6.070,128.090
9376,0.0708,0.6519,-0.2627,-28.137,23.987,-33.936,93.186,-5.740,128.353
9386,0.0679,0.7373,-0.1885,-53.467,9.216,-28.442,92.752,-5.460,128.458
9396,0.1260,0.9390,-0.0728,-56.763,-7.751,-13.977,92.214,-5.339,128.386
9406,0.1738,1.0977,0.0488,-35.095,-27.405,5.615,91.846,-5.422,128.112
9416,0.1802,1.2065,0.1553,8.850,-43.762,23.437,91.884,-5.669,127.667
9426,0.1758,1.2070,0.1929,52.368,-43.945,33.203,92.340,-6.010,127.211
9436,0.1665,1.0767,0.1382,74.280,-29.663,31.372,93.010,-6.334,126.903
9446,0.1040,0.8628,0.0264,67.139,-11.780,16.235,93.642,-6.493,126.777
9456,0.0308,0.7178,-0.0527,29.846,5.127,-5.737,93.933,-6.400,126.832
9466,-0.0005,0.6953,-0.0933,-21.179,19.409,-22.217,93.741,-6.130,127.040
9476,0.0205,0.8481,-0.0747,-61.768,27.893,-27.283,93.109,-5.828,127.337
9486,0.0703,1.0737,-0.0264,-74.280,25.391,-19.592,92.329,-5.630,127.601
9496,0.1030,1.1885,0.0049,-49.744,11.353,-2.625,91.802,-5.603,127.716
9506,0.0996,1.1802,0.0146,-6.287,-4.150,14.099,91.719,-5.729,127.672
9516,0.0854,1.1226,-0.0176,32.715,-15.625,24.902,92.049,-5.960,127.507
9526,0.1182,1.0571,-0.0923,54.871,-20.386,27.527,92.642,-6.229,127.293
9536,0.1509,0.9990,-0.1504,52.246,-18.738,21.240,93.241,-6.454,127.095
9546,0.1523,0.9302,-0.1826,28.748,-12.329,8.484,93.620,-6.559,126.964
9556,0.1313,0.9116,-0.1626,-11.047,-4.761,-6.592,93.582,-6.504,126.920
9566,0.1211,0.9795,-0.0723,-48.462,0.000,-18.616,93.104,-6.323,126.936
9576,0.1167,1.0518,0.0215,-67.993,-0.061,-23.193,92.390,-6.097,126.947
9586,0.0913,1.1245,0.1235,-66.650,-5.249,-19.592,91.648,-5.883,126.903
9596,0.0430,1.1113,0.1680,-37.292,-13.672,-7.324,91.187,-5.773,126.766
9606,0.0239,1.0781,0.1489,6.775,-17.761,9.827,91.181,-5.823,126.584
9616,0.0620,1.0205,0.0586,48.584,-16.235,25.208,91.637,-6.042,126.420
9626,0.1465,0.9888,-0.0518,69.275,-11.719,30.640,92.346,-6.367,126.288
9636,0.2183,0.9800,-0.1387,63.904,-4.395,22.522,93.043,-6.647,126.238
9646,0.2129,0.9106,-0.1943,31.555,4.089,6.042,93.444,-6.773,126.277
9656,0.1592,0.8896,-0.1665,-17.883,11.353,-13.062,93.323,-6.680,126.398
9666,0.0972,0.9160,-0.0977,-60.486,15.320,-27.283,92.730,-6.416,126.568
9676,0.0684,1.0093,-0.0151,-85.571,14.099,-31.677,91.846,-6.081,126.722
9686,0.0630,1.1367,0.0708,-78.796,3.052,-23.499,91.011,-5.823,126.760
9696,0.0503,1.1606,0.0947,-35.767,-12.024,-5.005,90.610,-5.735,126.639
9706,0.0605,1.1421,0.0752,22.095,-23.132,16.418,90.807,-5.872,126.409
9716,0.1025,1.0371,-0.0112,71.838,-28.564,31.677,91.549,-6.174,126.118
9726,0.1670,0.9404,-0.0957,89.478,-27.100,32.898,92.505,-6.531,125.837
9736,0.1895,0.8848,-0.1265,69.580,-18.738,20.691,93.274,-6.784,125.640
9746,0.1851,0.8745,-0.1255,25.085,-4.822,3.174,93.576,-6.861,125.585
9756,0.1631,0.9351,-0.0767,-21.729,7.874,-11.780,93.362,-6.784,125.673
9766,0.1265,1.0044,-0.0059,-56.274,17.639,-21.362,92.752,-6.586,125.865
9776,0.1094,1.0796,0.0615,-71.533,19.287,-25.146,91.961,-6.339,126.068
9786,0.0815,1.1094,0.1104,-57.129,8.118,-22.095,91.307,-6.103,126.161
9796,0.0518,1.0898,0.1299,-22.278,-6.287,-10.742,91.016,-5.960,126.096
9806,0.0376,1.0254,0.0879,18.188,-16.541,4.639,91.154,-5.960,125.931
9816,0.0547,0.9126,-0.0151,51.941,-22.339,17.151,91.686,-6.103,125.706
9826,0.1001,0.8481,-0.0947,64.331,-21.301,20.874,92.395,-6.306,125.480
9836,0.1567,0.8613,-0.1357,50.049,-12.817,15.991,92.972,-6.498,125.349
9846,0.1997,0.9443,-0.1221,20.691,-1.404,6.958,93.219,-6.625,125.327
9856,0.2080,1.0195,-0.0850,-5.737,7.874,-1.587,93.170,-6.658,125.409
9866,0.1753,1.0576,-0.0381,-27.039,12.695,-9.155,92.878,-6.603,125.541
9876,0.1260,1.0586,0.0005,-38.757,13.062,-14.526,92.450,-6.465,125.678
9886,0.0742,1.0156,0.0127,-36.804,11.047,-15.198,92.038,-6.301,125.799
9896,0.0513,0.9629,0.0029,-26.489,8.789,-11.169,91.747,-6.158,125.892
9906,0.0654,0.9175,-0.0308,-15.564,4.578,-5.615,91.588,-6.086,125.936
9916,0.1143,0.9346,-0.0615,-12.390,-2.625,-2.075,91.489,-6.070,125.914
9926,0.1680,0.9893,-0.0601,-14.404,-8.972,-0.732,91.373,-6.097,125.821
9936,0.2036,1.0552,-0.0366,-20.508,-8.423,-1.465,91.187,-6.130,125.739
9946,0.1885,1.1060,0.0107,-25.085,2.563,-4.578,90.917,-6.119,125.766
9956,0.1245,1.0806,0.0601,-21.545,16.296,-8.057,90.648,-6.048,125.931
9966,0.0469,1.0127,0.0669,-14.771,26.733,-8.911,90.428,-5.927,126.200
9976,-0.0200,0.9268,0.0239,-5.737,31.128,-5.310,90.319,-5.806,126.513
9986,-0.0122,0.8662,-0.0513,2.380,30.090,1.221,90.346,-5.751,126.815
9996,0.0527,0.8618,-0.1240,4.578,22.522,7.446,90.445,-5.806,127.040
10006,0.1782,0.9990,-0.1460,1.526,10.498,11.963,90.527,-5.966,127.145
10016,0.2939,1.1387,-0.1421,1.099,-6.470,14.709,90.610,-6.196,127.079
10026,0.3257,1.1909,-0.1074,6.897,-27.710,14.099,90.758,-6.422,126.799
10036,0.2700,1.1978,-0.0103,13.000,-43.213,9.521,90.928,-6.575,126.365
10046,0.1479,1.1294,0.1143,14.954,-43.945,4.089,91.060,-6.619,125.920
10056,0.0034,0.9971,0.1904,12.451,-32.532,-1.526,91.104,-6.531,125.596
10066,-0.0830,0.9092,0.1870,2.380,-12.146,-7.141,91.011,-6.345,125.475
10076,-0.0669,0.8984,0.1279,-9.583,9.338,-10.254,90.818,-6.136,125.568
10086,0.0342,0.9575,0.0181,-15.747,24.841,-9.155,90.615,-6.010,125.821
10096,0.1450,1.0327,-0.1045,-12.329,29.602,-5.066,90.516,-5.982,126.118
10106,0.2144,1.0278,-0.2065,0.061,21.423,-0.244,90.599,-6.037,126.332
10116,0.2202,0.9819,-0.2314,10.620,3.540,3.296,90.829,-6.130,126.370
10126,0.1919,0.9873,-0.1523,12.451,-16.907,5.188,91.049,-6.229,126.200
10136,0.1274,0.9609,-0.0254,11.353,-32.898,7.019,91.203,-6.306,125.865
10146,0.0742,0.9858,0.1206,5.249,-35.767,5.188,91.214,-6.328,125.502
10156,0.0293,1.0229,0.2236,-3.845,-24.719,0.977,91.066,-6.284,125.255
10166,0.0078,1.0244,0.2314,-9.216,-3.296,-2.563,90.840,-6.202,125.222
10176,0.0127,0.9966,0.1611,-13.733,20.996,-4.944,90.582,-6.103,125.436
10186,0.0400,0.9375,0.0298,-15.381,40.894,-6.470,90.363,-6.004,125.848
10196,0.1250,0.9727,-0.0835,-13.123,47.913,-4.822,90.225,-5.971,126.326
10206,0.1978,0.9805,-0.1743,-2.258,35.706,2.014,90.264,-6.048,126.689
10216,0.2422,0.9922,-0.2065,11.719,10.742,9.705,90.483,-6.218,126.793
10226,0.2393,0.9907,-0.1992,21.973,-17.090,14.282,90.829,-6.427,126.623
10236,0.1836,0.9775,-0.1108,22.766,-43.579,14.587,91.159,-6.608,126.183
10246,0.1245,1.0332,0.0522,11.780,-52.002,11.108,91.296,-6.707,125.656
10256,0.0703,1.0879,0.2056,-1.465,-36.743,6.592,91.203,-6.735,125.283
10266,0.0283,1.0977,0.2661,-8.301,-7.324,1.953,90.983,-6.702,125.211
10277,0.0391,1.1025,0.2349,-10.559,25.146,-2.380,90.720,-6.636,125.464
10286,0.0542,1.0332,0.1050,-7.629,50.476,-5.188,90.522,-6.553,125.975
10296,0.0928,0.9434,-0.0850,-3.174,63.110,-6.470,90.461,-6.482,126.606
10306,0.1450,0.8989,-0.2495,-1.099,56.946,-6.287,90.538,-6.449,127.183
10316,0.1978,0.8867,-0.3379,-0.671,33.020,-3.723,90.698,-6.471,127.513
10326,0.2446,0.9570,-0.3257,-0.366,-0.305,0.977,90.873,-6.548,127.513
10336,0.2500,1.0249,-0.2549,6.897,-38.513,6.775,91.121,-6.680,127.123
10346,0.2017,1.0322,-0.0967,19.043,-75.378,13.672,91.439,-6.844,126.359
10356,0.1138,1.0381,0.1055,23.560,-84.656,18.921,91.697,-7.004,125.502
10366,0.0522,1.0620,0.3032,18.188,-62.561,17.334,91.780,-7.114,124.871
10376,0.0273,1.0728,0.4180,10.132,-24.719,11.719,91.681,-7.163,124.618
10386,0.0283,1.0552,0.3999,4.700,19.775,6.409,91.478,-7.174,124.816
10396,0.0635,1.0425,0.2598,1.343,59.570,1.831,91.263,-7.174,125.414
10406,0.1396,1.0571,0.0405,0.793,81.299,-3.662,91.137,-7.158,126.233
10416,0.1978,1.0586,-0.1626,2.258,78.552,-8.118,91.137,-7.125,127.024
10426,0.1973,0.9819,-0.2876,2.136,56.030,-9.705,91.236,-7.075,127.595
10436,0.1714,0.9512,-0.3208,-2.869,25.146,-9.399,91.351,-7.015,127.848
10446,0.1187,0.9434,-0.2812,-4.700,-7.751,-6.287,91.467,-6.949,127.771
10456,0.0361,0.8833,-0.1250,1.709,-40.222,0.977,91.599,-6.905,127.365
10466,-0.0195,0.8848,0.0654,7.874,-52.185,10.620,91.681,-6.910,126.837
10476,0.0083,0.9644,0.1899,12.878,-34.546,16.663,91.725,-7.004,126.486
10486,0.1177,1.1011,0.2139,18.860,-3.662,17.395,91.785,-7.163,126.442
10496,0.2144,1.1997,0.1484,24.902,28.503,14.587,91.912,-7.344,126.727
10506,0.2651,1.1729,0.0020,27.100,51.392,6.958,92.093,-7.487,127.244
10516,0.2529,1.0640,-0.1406,20.630,53.406,-6.042,92.285,-7.504,127.782
10526,0.1870,0.9180,-0.2329,4.395,38.086,-18.005,92.395,-7.377,128.172
10536,0.1406,0.8789,-0.2378,-17.212,16.663,-21.790,92.329,-7.180,128.348
10546,0.1113,0.8555,-0.2158,-27.161,-5.676,-16.235,92.186,-7.020,128.298
10556,0.0986,0.8613,-0.1592,-21.851,-29.541,-5.615,92.087,-6.949,128.002
10566,0.1084,0.9238,-0.0859,-8.789,-44.739,5.615,92.087,-6.982,127.551
10576,0.1245,1.0249,-0.0024,6.531,-42.053,13.733,92.186,-7.103,127.123
10586,0.1646,1.1187,0.0835,18.860,-26.855,16.113,92.340,-7.267,126.848
10596,0.1821,1.1338,0.1235,24.963,-9.460,14.038,92.516,-7.416,126.744
10606,0.1616,1.0874,0.0913,21.912,7.324,7.507,92.648,-7.504,126.815
10616,0.1279,0.9941,0.0083,9.644,21.545,-2.747,92.686,-7.487,127.035
10626,0.1309,0.9492,-0.0796,-6.836,27.283,-12.695,92.604,-7.377,127.315
10636,0.1450,0.9414,-0.1436,-17.883,21.362,-16.174,92.455,-7.240,127.540
10646,0.1504,0.9370,-0.1841,-17.944,6.104,-13.123,92.357,-7.130,127.606
10656,0.1650,0.9595,-0.1855,-12.024,-11.475,-7.141,92.340,-7.081,127.491
10666,0.1514,1.0005,-0.1094,-3.967,-28.625,-0.061,92.373,-7.081,127.205
10676,0.1138,1.0024,0.0264,3.967,-37.415,6.165,92.422,-7.119,126.826
10686,0.0796,1.0029,0.1504,7.629,-31.189,9.216,92.422,-7.174,126.508
10696,0.0806,1.0371,0.2100,7.935,-15.015,7.812,92.384,-7.213,126.354
10706,0.1113,1.0615,0.1553,9.277,5.310,4.456,92.362,-7.251,126.403
10716,0.1367,1.0249,0.0400,10.681,23.804,0.977,92.390,-7.273,126.645
10726,0.1699,0.9956,-0.0835,6.226,34.973,-3.784,92.433,-7.273,126.996
10736,0.1768,0.9507,-0.1948,-0.977,32.288,-8.179,92.472,-7.234,127.326
10746,0.1504,0.9004,-0.2451,-8.240,18.188,-9.338,92.494,-7.169,127.513
10756,0.1255,0.9067,-0.2197,-14.771,0.427,-6.165,92.461,-7.114,127.518
10766,0.1089,0.9478,-0.1245,-15.503,-16.113,1.221,92.379,-7.114,127.359
10777,0.0942,1.0127,0.0063,-9.399,-25.269,10.132,92.291,-7.185,127.101
10786,0.0947,1.0898,0.1357,3.235,-21.667,16.418,92.252,-7.317,126.876
10796,0.0991,1.1138,0.2505,18.005,-6.470,19.348,92.291,-7.482,126.799
10806,0.1162,1.1055,0.2964,27.832,16.052,18.494,92.373,-7.652,126.958
10816,0.1304,1.0874,0.2241,30.457,39.490,13.550,92.483,-7.795,127.348
10826,0.1636,1.0625,0.0444,28.015,57.007,5.371,92.637,-7.883,127.919
10836,0.1899,1.0039,-0.1519,19.531,59.937,-4.517,92.807,-7.894,128.529
10846,0.1807,0.9097,-0.3193,6.409,49.133,-12.939,92.966,-7.817,129.029
10857,0.1792,0.9058,-0.3745,-12.451,31.189,-16.785,92.994,-7.690,129.353
10867,0.1743,0.9346,-0.3545,-25.330,8.423,-14.038,92.911,-7.581,129.446
10876,0.1626,0.9375,-0.2871,-25.330,-17.273,-6.836,92.823,-7.520,129.276
10886,0.1372,0.9795,-0.1406,-18.677,-39.734,2.441,92.741,-7.531,128.870
10896,0.1055,1.0342,0.0249,-4.822,-46.631,12.207,92.719,-7.608,128.397
10906,0.0854,1.0498,0.1465,13.428,-37.292,18.921,92.796,-7.751,128.013
10916,0.0991,1.0684,0.1997,24.353,-19.104,19.287,92.928,-7.905,127.809
10926,0.1216,1.0659,0.1685,25.879,0.793,13.794,93.065,-8.026,127.809
10936,0.1431,1.0454,0.0801,19.287,17.761,5.493,93.159,-8.091,127.985
10946,0.1631,0.9912,-0.0400,8.179,26.550,-3.418,93.192,-8.080,128.254
10956,0.1777,0.9434,-0.1357,-4.272,23.437,-11.047,93.164,-8.009,128.496
10966,0.1797,0.9404,-0.1987,-13.184,12.695,-13.367,93.104,-7.910,128.633
10976,0.1724,0.9316,-0.2295,-13.245,1.099,-8.789,93.076,-7.850,128.650
10986,0.1680,0.9336,-0.2231,-6.592,-10.254,-1.770,93.131,-7.844,128.546
10996,0.1621,0.9458,-0.1787,0.549,-21.545,4.700,93.241,-7.899,128.326
11006,0.1489,0.9785,-0.0933,3.357,-29.785,9.155,93.340,-7.976,128.024
11016,0.1289,1.0132,0.0273,1.282,-29.541,10.315,93.345,-8.058,127.716
11027,0.1245,1.0479,0.1211,-3.052,-19.348,7.874,93.241,-8.108,127.518
11037,0.1323,1.0625,0.1357,-5.127,-4.578,3.845,93.093,-8.135,127.469
11047,0.1519,1.0703,0.0801,-5.249,7.202,0.061,92.955,-8.135,127.546
11057,0.1738,1.0400,-0.0312,-2.686,12.268,-3.662,92.900,-8.119,127.667
11067,0.1689,0.9648,-0.1465,-2.075,8.789,-7.751,92.922,-8.064,127.760
11076,0.1445,0.9116,-0.2134,-7.812,0.000,-9.827,92.950,-7.976,127.766
11087,0.1211,0.9160,-0.1899,-16.357,-10.132,-8.484,92.889,-7.883,127.667
11097,0.1025,0.9487,-0.0850,-22.705,-19.470,-4.517,92.714,-7.811,127.474
11107,0.1094,1.0298,0.0752,-22.461,-24.963,0.366,92.455,-7.784,127.222
11117,0.1294,1.1123,0.2080,-14.282,-21.912,5.188,92.214,-7.811,127.002
11127,0.1553,1.1470,0.2197,0.671,-7.019,6.958,92.098,-7.877,126.925
11137,0.1689,1.1108,0.1313,14.526,11.108,2.930,92.137,-7.916,127.035
11147,0.1494,1.0059,0.0127,17.273,21.667,-6.104,92.252,-7.872,127.260
11157,0.0854,0.8184,-0.1128,2.869,21.057,-16.235,92.307,-7.696,127.474
11167,-0.0312,0.5942,-0.2153,-25.085,12.146,-24.719,92.214,-7.350,127.612
11177,-0.0786,0.6191,-0.2178,-57.739,0.977,-26.550,91.813,-6.949,127.628
11187,0.0454,0.9575,-0.1162,-72.693,-13.184,-13.306,91.159,-6.768,127.502
11197,0.1699,1.2212,-0.0103,-43.274,-28.870,13.672,90.758,-6.910,127.205
11207,0.2690,1.3979,0.1060,13.916,-35.400,36.926,90.890,-7.311,126.848
11217,0.3374,1.4302,0.1699,65.125,-26.550,43.457,91.489,-7.795,126.573
11227,0.3545,1.3643,0.1821,82.397,-8.484,30.518,92.230,-8.163,126.480
11237,0.2900,1.1938,0.1260,60.547,11.414,2.869,92.730,-8.251,126.590
11247,0.1484,0.9209,0.0449,10.925,26.794,-28.320,92.741,-7.993,126.876
11257,0.0269,0.7607,-0.0151,-50.781,35.583,-54.016,92.170,-7.416,127.260
11267,-0.0200,0.7842,-0.0566,-93.018,35.828,-61.890,91.219,-6.729,127.645
11277,0.0132,0.8804,-0.0718,-92.224,25.024,-46.692,90.308,-6.213,127.908
11287,0.0635,0.9004,-0.1001,-53.711,7.751,-16.602,89.830,-6.026,127.985
11297,0.1035,0.9307,-0.1226,2.136,-11.597,13.062,89.940,-6.158,127.870
11307,0.1333,0.9487,-0.1304,55.054,-25.085,34.485,90.593,-6.515,127.617
11317,0.2051,0.9751,-0.1177,84.473,-27.283,43.945,91.522,-7.004,127.337
11327,0.2681,1.0313,-0.0957,84.229,-19.531,38.330,92.417,-7.449,127.134
11337,0.2837,1.0601,-0.0937,57.556,-7.263,21.301,93.027,-7.734,127.051
11347,0.2476,1.0742,-0.0762,21.851,4.700,0.854,93.246,-7.795,127.095
11357,0.1875,1.0269,-0.0693,-12.207,14.099,-16.357,93.109,-7.668,127.249
11367,0.1143,0.9512,-0.0835,-41.809,17.761,-28.137,92.692,-7.388,127.441
11377,0.0454,0.8896,-0.1108,-54.688,13.916,-28.992,92.175,-7.064,127.595
11387,0.0625,0.9199,-0.0249,-30.579,-8.240,-0.671,91.873,-7.026,127.513
11397,0.0898,0.9805,0.0361,-7.202,-17.212,15.137,91.785,-7.152,127.337
11407,0.1421,1.0986,0.0889,15.869,-19.409,23.254,91.901,-7.377,127.134
11417,0.2104,1.1982,0.1079,32.288,-13.611,23.499,92.170,-7.630,126.985
11427,0.2568,1.2471,0.0879,33.020,-2.380,15.625,92.439,-7.822,126.958
11437,0.1948,1.0962,0.0137,22.583,10.132,1.343,92.615,-7.861,127.062
11447,0.0552,0.8628,-0.0776,-0.549,21.973,-15.686,92.604,-7.674,127.288
11457,-0.0039,0.7993,-0.1182,-35.156,27.832,-27.710,92.274,-7.333,127.584
11467,-0.0151,0.8184,-0.1284,-56.519,21.179,-25.574,91.758,-7.004,127.804
11477,0.0371,0.8882,-0.1147,-50.720,6.226,-10.864,91.302,-6.855,127.870
11487,0.1226,1.0342,-0.0454,-23.254,-12.390,8.911,91.099,-6.938,127.744
11497,0.1890,1.1641,0.0425,18.677,-30.518,26.794,91.291,-7.224,127.430
11507,0.2261,1.1743,0.1089,54.688,-37.109,35.767,91.813,-7.603,127.051
11517,0.2544,1.1733,0.1396,61.401,-28.259,29.358,92.373,-7.932,126.755
11527,0.2725,1.2002,0.1519,41.626,-10.681,10.620,92.703,-8.080,126.645
11537,0.1831,1.0562,0.1001,13.672,8.179,-9.338,92.747,-8.009,126.733
11547,0.0557,0.8462,0.0049,-18.311,26.611,-26.855,92.494,-7.712,127.013
11557,0.0127,0.7783,-0.0801,-49.133,36.926,-38.330,91.989,-7.278,127.403
11567,0.0269,0.8247,-0.1245,-62.622,30.334,-34.119,91.395,-6.899,127.716
11577,0.0688,0.8765,-0.1284,-48.828,12.817,-15.259,90.967,-6.729,127.853
11587,0.1270,0.9927,-0.0903,-13.367,-7.996,7.996,90.884,-6.812,127.771
11597,0.1621,1.0610,-0.0503,30.762,-28.442,28.015,91.241,-7.103,127.480
11607,0.1787,1.0532,-0.0298,63.293,-40.833,38.574,91.923,-7.498,127.057
11617,0.2183,1.0894,0.0093,66.650,-36.621,33.875,92.609,-7.861,126.678
11627,0.2422,1.1313,0.0171,45.593,-20.203,18.005,93.054,-8.069,126.464
11637,0.2183,1.1138,0.0166,18.188,-0.488,0.000,93.197,-8.102,126.464
11647,0.1309,0.9922,-0.0127,-10.315,18.311,-15.259,93.043,-7.954,126.656
11657,0.0859,0.9219,-0.0527,-39.001,32.410,-27.344,92.615,-7.674,126.996
11667,0.0845,0.9434,-0.0835,-55.481,31.555,-29.846,92.043,-7.366,127.326
11677,0.1035,0.9814,-0.0889,-47.607,17.639,-19.653,91.582,-7.169,127.513
11687,0.1235,0.9805,-0.0742,-22.644,1.221,-3.845,91.384,-7.130,127.524
11697,0.1240,0.9746,-0.0562,7.202,-12.878,10.437,91.489,-7.229,127.392
11707,0.1187,0.9556,-0.0366,35.156,-23.804,20.752,91.873,-7.427,127.150
11717,0.1294,0.9502,-0.0117,48.035,-27.344,25.208,92.373,-7.674,126.865
11727,0.1543,1.0059,0.0366,38.940,-21.240,22.644,92.747,-7.899,126.639
11737,0.1689,1.0972,0.0742,24.963,-9.521,14.160,92.939,-8.042,126.541
11747,0.1831,1.1191,0.0708,11.169,3.784,4.456,92.977,-8.102,126.573
11757,0.1494,1.0576,0.0332,-6.531,14.832,-5.676,92.845,-8.053,126.727
11767,0.1392,1.0386,-0.0049,-24.963,20.142,-14.954,92.543,-7.910,126.936
11778,0.1499,1.0532,-0.0366,-34.790,16.602,-18.372,92.170,-7.734,127.112
11787,0.1187,0.9897,-0.0889,-26.306,7.507,-14.038,91.928,-7.592,127.194
11797,0.0918,0.9189,-0.1318,-10.193,-1.221,-6.714,91.890,-7.504,127.183
11807,0.0762,0.9014,-0.1372,5.432,-10.681,0.732,92.027,-7.482,127.073
11817,0.0830,0.8994,-0.1030,16.113,-20.081,7.996,92.258,-7.531,126.870
11827,0.1089,0.9346,-0.0449,15.747,-23.193,11.780,92.450,-7.630,126.634
11837,0.1431,1.0337,0.0332,11.108,-18.860,10.254,92.543,-7.723,126.436
11847,0.1870,1.1255,0.0952,6.226,-9.155,6.287,92.543,-7.800,126.343
11857,0.2090,1.1548,0.1084,3.418,0.610,1.587,92.494,-7.839,126.348
11867,0.1978,1.0991,0.0605,1.099,8.972,-3.723,92.439,-7.828,126.442
11877,0.1421,0.9819,-0.0176,-2.747,12.817,-9.033,92.379,-7.751,126.573
11887,0.0894,0.8838,-0.0835,-8.301,10.803,-11.536,92.313,-7.619,126.689
11897,0.0542,0.8384,-0.1240,-13.123,3.723,-9.277,92.236,-7.493,126.727
11907,0.0557,0.8564,-0.1406,-13.733,-5.066,-3.357,92.181,-7.416,126.678
11917,0.1064,0.9414,-0.0942,-11.597,-14.160,3.418,92.115,-7.438,126.535
11927,0.1860,1.0942,0.0034,-12.817,-19.775,8.179,91.994,-7.531,126.332
11937,0.2383,1.2549,0.1313,-17.395,-15.015,6.958,91.763,-7.625,126.178
11947,0.2402,1.3276,0.2183,-20.203,-2.502,-1.160,91.456,-7.641,126.156
11957,0.1406,1.2085,0.1958,-17.090,10.376,-11.108,91.165,-7.520,126.260
11967,0.0015,0.9751,0.0791,-14.893,22.888,-18.982,90.928,-7.262,126.497
11977,-0.1221,0.7393,-0.1123,-15.320,30.518,-22.034,90.813,-6.883,126.810
11987,-0.1396,0.5728,-0.2935,-14.648,26.672,-17.822,90.901,-6.520,127.079
11997,-0.0562,0.5312,-0.3789,-12.024,10.559,-5.737,91.115,-6.350,127.183
12007,0.1206,0.7153,-0.3418,-4.639,-14.221,11.963,91.329,-6.493,127.040
12017,0.3071,0.9922,-0.2075,14.465,-44.617,31.311,91.626,-6.894,126.584
12027,0.4243,1.2070,0.0254,35.461,-67.993,44.800,92.032,-7.443,125.887
12037,0.4683,1.3350,0.3213,42.664,-69.641,46.509,92.395,-7.993,125.167
12047,0.4272,1.3789,0.5630,35.828,-49.622,33.325,92.823,-8.306,124.651
12057,0.3340,1.3398,0.6396,21.484,-16.418,11.780,93.065,-8.416,124.481
12067,0.1743,1.1260,0.4878,10.376,22.217,-10.315,93.131,-8.322,124.711
12077,0.0015,0.8105,0.1865,-2.441,57.495,-27.893,93.021,-8.075,125.305
12087,-0.0459,0.6440,-0.1475,-18.982,76.721,-36.621,92.719,-7.751,126.101
12097,0.0107,0.6836,-0.3872,-27.344,71.167,-28.748,92.351,-7.498,126.832
12107,0.1250,0.7524,-0.5190,-16.785,47.485,-6.653,92.120,-7.449,127.315
12117,0.2173,0.8477,-0.5581,12.451,13.306,17.578,92.225,-7.630,127.441
12127,0.2417,0.8872,-0.5747,49.377,-25.330,35.217,92.758,-7.971,127.172
12137,0.2446,0.9263,-0.4648,65.063,-58.655,43.823,93.494,-8.383,126.557
12147,0.2690,1.0625,-0.2661,50.232,-68.542,41.870,94.098,-8.756,125.843
12157,0.2769,1.2056,-0.0181,17.578,-57.861,29.846,94.367,-9.014,125.233
12167,0.2441,1.3027,0.2173,-16.052,-36.438,12.390,94.263,-9.108,124.860
12177,0.1558,1.2871,0.3506,-35.278,-11.658,-3.418,93.928,-9.069,124.744
12187,0.0625,1.1987,0.3354,-39.185,11.047,-13.428,93.521,-8.943,124.865
12197,0.0537,1.1084,0.2031,-29.419,27.222,-16.113,93.181,-8.795,125.151
12207,0.0918,1.0073,0.0435,-9.521,29.358,-12.146,93.038,-8.690,125.453
12217,0.1450,0.9258,-0.0850,6.897,21.118,-5.188,93.076,-8.652,125.667
12227,0.1904,0.8926,-0.1836,14.160,9.583,0.305,93.203,-8.657,125.766
12237,0.1904,0.8564,-0.2563,17.090,-2.014,3.235,93.378,-8.690,125.744
12247,0.1812,0.8594,-0.2529,11.475,-12.390,4.395,93.510,-8.729,125.618
12257,0.1855,0.9233,-0.1602,-1.953,-19.592,4.883,93.521,-8.762,125.414
12267,0.1689,0.9912,-0.0171,-11.841,-20.935,4.272,93.433,-8.795,125.200
12278,0.1133,1.0127,0.1162,-15.259,-15.930,2.686,93.307,-8.811,125.035
12287,0.0845,1.0215,0.1777,-13.733,-5.920,1.892,93.181,-8.828,124.975
12297,0.0977,1.0107,0.1514,-6.836,4.822,3.357,93.104,-8.860,125.024
12307,0.1445,0.9937,0.0371,2.563,13.123,5.798,93.109,-8.926,125.151
12317,0.1992,0.9873,-0.1118,9.644,13.977,6.287,93.186,-8.998,125.288
12327,0.2397,0.9629,-0.2373,11.230,7.935,4.639,93.285,-9.047,125.370
12337,0.2437,0.9595,-0.2793,4.089,-1.953,2.197,93.329,-9.069,125.349
12347,0.2412,1.0142,-0.2227,-7.568,-13.367,0.488,93.274,-9.069,125.211
12357,0.2100,1.0601,-0.0928,-15.076,-25.208,0.671,93.164,-9.058,124.958
12367,0.1572,1.0913,0.0854,-16.724,-32.471,1.892,93.049,-9.058,124.629
12377,0.1089,1.0981,0.2505,-12.390,-28.931,2.502,92.972,-9.069,124.332
12387,0.0688,1.0776,0.3291,-5.371,-14.709,2.014,92.944,-9.080,124.184
12397,0.0620,1.0283,0.2695,2.014,5.188,0.000,92.955,-9.086,124.233
12407,0.0859,0.9707,0.1118,4.272,24.231,-2.686,92.955,-9.069,124.481
12417,0.1426,0.9561,-0.0684,-0.061,37.354,-5.432,92.895,-9.036,124.865
12427,0.1846,0.9194,-0.2329,-3.906,37.354,-6.470,92.796,-8.992,125.244
12437,0.2148,0.9121,-0.3271,-6.042,24.292,-6.287,92.697,-8.937,125.491
12447,0.2354,0.9185,-0.3374,-6.836,4.578,-3.174,92.620,-8.910,125.541
12457,0.2358,0.9458,-0.2734,-3.662,-14.893,1.831,92.609,-8.921,125.387
12467,0.2056,0.9492,-0.1401,4.272,-32.837,7.690,92.703,-8.981,125.052
12477,0.1694,0.9526,0.0469,7.629,-43.762,12.939,92.851,-9.091,124.607
12487,0.1465,1.0103,0.2349,2.563,-41.687,14.709,92.944,-9.218,124.178
12497,0.1489,1.1001,0.3521,-2.991,-25.818,11.963,92.955,-9.322,123.909
12507,0.1426,1.1392,0.3667,-1.038,-4.028,6.836,92.955,-9.388,123.865
12517,0.1514,1.1099,0.2393,5.188,18.372,0.854,92.977,-9.410,124.052
12527,0.1787,1.0615,0.0586,9.766,37.109,-4.944,93.010,-9.377,124.426
12537,0.2007,0.9854,-0.1440,12.817,44.373,-8.057,93.065,-9.322,124.882
12547,0.2202,0.9097,-0.3066,12.207,37.903,-8.301,93.126,-9.256,125.272
12557,0.2300,0.8701,-0.3877,7.446,19.470,-7.324,93.373,-9.240,125.469
12567,0.2344,0.8999,-0.3647,-0.305,-3.479,-4.883,93.565,-9.234,125.436
12577,0.2197,0.9790,-0.2593,-5.615,-25.024,-0.916,93.664,-9.240,125.184
12587,0.1777,1.0547,-0.0986,-3.906,-42.236,4.578,93.708,-9.261,124.755
12597,0.1343,1.1040,0.0762,2.258,-46.387,9.277,93.730,-9.300,124.283
12607,0.1177,1.1470,0.2178,6.104,-33.325,10.254,93.702,-9.344,123.937
12617,0.1138,1.1475,0.2964,8.301,-9.827,5.920,93.615,-9.355,123.832
12627,0.1128,1.1040,0.2534,10.803,14.038,-0.488,93.538,-9.322,123.975
12637,0.1416,1.0269,0.1079,11.414,35.522,-5.737,93.494,-9.272,124.338
12647,0.1753,0.9619,-0.0698,7.935,48.340,-9.460,93.499,-9.218,124.832
12657,0.2046,0.9180,-0.2305,2.747,46.997,-11.414,93.560,-9.163,125.316
12667,0.2300,0.8994,-0.3120,-2.380,31.982,-10.681,93.636,-9.124,125.645
12677,0.2432,0.8965,-0.3154,-7.141,9.277,-7.507,93.708,-9.108,125.744
12687,0.2349,0.9058,-0.2773,-9.949,-14.404,-3.235,93.768,-9.113,125.601
12697,0.2002,0.9526,-0.1802,-8.911,-35.828,2.014,93.807,-9.135,125.239
12707,0.1602,0.9673,-0.0459,-3.662,-46.692,8.240,93.834,-9.190,124.761
12717,0.1387,1.0098,0.1050,-1.038,-41.199,10.742,93.790,-9.256,124.338
12727,0.1470,1.1001,0.2432,-1.831,-24.414,8.606,93.653,-9.305,124.085
12738,0.1582,1.1489,0.3140,-0.122,-4.456,4.578,93.466,-9.327,124.036
12747,0.1582,1.0972,0.2651,5.310,15.442,-0.854,93.323,-9.316,124.195
12757,0.1553,1.0146,0.1333,6.287,32.959,-7.263,93.224,-9.256,124.530
12767,0.1646,0.9478,-0.0176,1.648,43.335,-12.756,93.148,-9.163,124.975
12778,0.1758,0.8926,-0.1641,-3.845,41.260,-15.015,93.115,-9.053,125.403
12788,0.1865,0.8965,-0.2646,-8.728,26.550,-14.343,93.120,-8.948,125.678
12798,0.1987,0.9272,-0.3115,-9.399,2.197,-11.414,93.175,-8.860,125.706
12808,0.1909,0.9688,-0.2969,-6.714,-24.780,-7.385,93.285,-8.795,125.458
12818,0.1616,0.9995,-0.1855,-3.723,-46.265,-3.540,93.395,-8.734,124.997
12828,0.1333,1.0054,-0.0151,-3.418,-51.147,-2.502,93.411,-8.668,124.481
12838,0.1128,1.0112,0.1646,-8.545,-39.307,-5.676,93.257,-8.564,124.085
12848,0.1050,1.0376,0.2837,-15.442,-18.005,-10.681,92.944,-8.421,123.909
12858,0.1230,1.0654,0.2788,-15.076,6.897,-13.794,92.609,-8.267,123.986
12868,0.1372,1.0308,0.1694,-5.493,27.405,-12.939,92.395,-8.141,124.272
12878,0.1440,0.9731,0.0083,6.531,39.734,-10.498,92.373,-8.058,124.673
12888,0.1655,0.9307,-0.1387,14.282,41.016,-8.057,92.516,-8.015,125.090
12898,0.1831,0.9258,-0.2319,15.259,30.396,-5.066,92.741,-8.004,125.403
12908,0.2065,0.9604,-0.2720,11.780,13.184,-1.709,92.972,-8.031,125.535
12918,0.2104,1.0205,-0.2749,6.592,-6.592,0.854,93.164,-8.069,125.469
12928,0.1924,1.0435,-0.2339,3.845,-26.367,2.869,93.334,-8.102,125.200
12938,0.1753,1.0645,-0.1406,-1.343,-39.551,3.601,93.422,-8.130,124.799
12948,0.1436,1.0879,-0.0166,-8.362,-41.809,1.648,93.373,-8.113,124.376
12958,0.1113,1.0840,0.1104,-14.282,-31.799,-2.747,93.186,-8.047,124.058
12968,0.0776,1.0630,0.1982,-18.372,-15.381,-7.568,92.884,-7.921,123.909
12978,0.0586,1.0361,0.2129,-20.142,1.831,-10.193,92.538,-7.778,123.931
12988,0.0767,1.0415,0.1543,-18.433,17.273,-10.193,92.219,-7.646,124.113
12998,0.1069,1.0137,0.0342,-10.376,25.513,-8.606,92.043,-7.553,124.371
13008,0.1328,0.9639,-0.0962,-0.122,24.414,-6.409,92.043,-7.504,124.618
13018,0.1646,0.9448,-0.1665,5.798,15.381,-3.845,92.164,-7.493,124.777
13028,0.1929,0.9390,-0.1919,7.263,2.136,-1.221,92.324,-7.520,124.799
13038,0.1973,0.9517,-0.1675,5.981,-13.123,0.793,92.477,-7.564,124.667
13048,0.1787,0.9854,-0.0698,2.197,-27.039,2.319,92.549,-7.603,124.393
13058,0.1387,1.0186,0.0605,-2.075,-30.334,2.747,92.510,-7.614,124.085
13068,0.1016,1.0356,0.1626,-4.211,-19.714,0.305,92.384,-7.592,123.887
13078,0.0806,1.0376,0.1953,-3.906,-2.380,-3.052,92.214,-7.526,123.865
13088,0.0781,1.0068,0.1465,-0.305,14.893,-4.578,92.087,-7.454,124.014
13098,0.1040,0.9551,0.0269,4.272,29.114,-4.395,92.054,-7.410,124.310
13108,0.1494,0.9282,-0.1064,7.812,34.180,-3.601,92.131,-7.405,124.656
13118,0.1982,0.9126,-0.2158,9.644,27.466,-1.892,92.307,-7.438,124.931
13128,0.2368,0.9243,-0.2554,8.057,12.024,0.610,92.499,-7.515,125.052
13138,0.2642,0.9658,-0.2417,3.723,-6.470,2.625,92.659,-7.614,124.986
13148,0.2471,1.0078,-0.1738,-0.427,-26.611,3.723,92.763,-7.696,124.717
13158,0.1782,1.0244,-0.0479,-5.615,-40.771,4.028,92.763,-7.740,124.305
13168,0.1021,1.0327,0.0986,-11.597,-38.452,2.136,92.615,-7.718,123.915
13178,0.0522,1.0488,0.2275,-14.832,-22.949,-1.526,92.351,-7.646,123.684
13188,0.0288,1.0747,0.3022,-13.306,-2.625,-3.723,92.043,-7.548,123.662
13198,0.0405,1.0596,0.2476,-5.676,18.127,-3.662,91.813,-7.460,123.843
13208,0.0835,1.0342,0.1050,4.700,35.706,-3.296,91.736,-7.410,124.206
13218,0.1514,1.0166,-0.0610,13.428,43.701,-2.258,91.829,-7.410,124.645
13228,0.2075,0.9697,-0.2075,19.165,37.720,-1.038,92.071,-7.460,125.024
13238,0.2236,0.9194,-0.2959,17.822,21.667,-0.366,92.379,-7.520,125.244
13248,0.2104,0.8906,-0.3291,9.277,2.441,-0.183,92.648,-7.564,125.272
13258,0.1982,0.9092,-0.3052,-1.343,-17.639,0.671,92.813,-7.608,125.090
13268,0.1675,0.9448,-0.1992,-10.071,-37.476,3.174,92.856,-7.641,124.711
13278,0.1299,0.9966,-0.0322,-15.930,-46.814,5.005,92.752,-7.668,124.239
13288,0.1001,1.0566,0.1455,-17.944,-41.016,4.211,92.521,-7.663,123.821
13298,0.0757,1.0972,0.2856,-15.076,-25.696,2.014,92.236,-7.635,123.563
13308,0.0557,1.1050,0.3447,-8.240,-6.775,-0.061,91.967,-7.586,123.497
13318,0.0610,1.0796,0.3003,2.319,12.695,-1.404,91.796,-7.531,123.624
13328,0.1021,1.0435,0.1553,13.672,30.640,-1.892,91.791,-7.498,123.931
13338,0.1475,0.9858,-0.0142,20.996,41.321,-2.502,91.934,-7.498,124.349
13348,0.1729,0.9312,-0.1611,21.606,40.649,-3.845,92.175,-7.504,124.761
13358,0.1904,0.9204,-0.2480,14.893,30.090,-5.249,92.411,-7.498,125.068
13368,0.1855,0.9277,-0.2632,5.493,12.878,-5.310,92.582,-7.487,125.200
13378,0.1709,0.9604,-0.2427,-2.625,-5.371,-3.418,92.681,-7.471,125.145
13388,0.1421,0.9995,-0.1851,-5.249,-23.315,0.000,92.736,-7.465,124.909
13398,0.1162,1.0186,-0.0977,-2.747,-34.973,4.211,92.780,-7.482,124.557
13408,0.0884,1.0229,0.0381,-2.380,-35.522,6.531,92.758,-7.504,124.195
13418,0.0806,1.0630,0.1699,-5.859,-25.269,5.005,92.615,-7.509,123.937
13428,0.0752,1.0757,0.2266,-6.409,-7.812,1.648,92.417,-7.487,123.860
13438,0.0918,1.0718,0.2026,-4.883,9.583,-1.404,92.225,-7.449,123.959
13448,0.1138,1.0220,0.1099,-3.174,23.865,-3.723,92.076,-7.410,124.200
13458,0.1519,0.9941,-0.0083,-2.991,31.311,-5.615,91.989,-7.377,124.519
13468,0.1743,0.9741,-0.1133,-1.465,29.297,-5.432,91.983,-7.361,124.816
13478,0.1821,0.9336,-0.1870,1.709,19.287,-3.845,92.071,-7.366,125.008
13488,0.1841,0.9316,-0.2109,2.014,5.920,-2.136,92.186,-7.383,125.068
13498,0.1748,0.9517,-0.1953,1.404,-7.324,0.122,92.307,-7.410,124.997
13508,0.1274,0.9341,-0.1416,4.395,-20.569,2.991,92.439,-7.432,124.788
13518,0.1147,0.9478,-0.0303,4.150,-29.663,5.981,92.510,-7.476,124.486
13528,0.1377,1.0347,0.1050,-0.793,-29.541,7.263,92.461,-7.531,124.184
13538,0.1655,1.1260,0.1709,-3.174,-18.066,5.920,92.340,-7.592,124.003
13548,0.1621,1.1172,0.1274,0.305,-0.916,1.892,92.258,-7.619,123.992
13558,0.1182,1.0020,0.0181,2.075,13.123,-3.906,92.230,-7.575,124.124
13568,0.0269,0.7827,-0.1396,-3.174,22.583,-8.789,92.247,-7.438,124.354
13578,-0.0312,0.6367,-0.2754,-18.555,23.499,-10.437,92.241,-7.245,124.596
13588,0.0039,0.7046,-0.3018,-37.231,12.573,-6.226,92.065,-7.119,124.728
13598,0.1309,0.9385,-0.2090,-40.771,-8.911,5.493,91.780,-7.174,124.634
13608,0.2285,1.1226,-0.0679,-18.127,-33.142,20.874,91.659,-7.416,124.294
13618,0.2578,1.2261,0.1138,13.855,-51.819,32.043,91.796,-7.762,123.761
13628,0.2744,1.2544,0.2573,35.461,-52.307,34.363,92.082,-8.130,123.223
13638,0.3081,1.2847,0.3276,36.316,-33.752,25.696,92.329,-8.421,122.871
13648,0.3164,1.3184,0.3188,23.682,-4.883,9.216,92.411,-8.558,122.822
13658,0.2134,1.1440,0.2227,8.545,23.071,-8.057,92.329,-8.503,123.058
13668,0.0996,0.9360,0.0767,-10.925,44.922,-22.827,92.082,-8.273,123.519
13678,0.0381,0.8267,-0.0610,-30.823,54.138,-30.334,91.719,-7.938,124.080
13688,0.0005,0.7183,-0.1841,-38.635,47.913,-26.733,91.395,-7.608,124.568
13698,0.0356,0.7231,-0.2690,-33.752,31.250,-14.832,91.208,-7.416,124.887
13708,0.1011,0.7798,-0.3203,-15.991,7.996,1.160,91.252,-7.427,124.969
13718,0.1733,0.8887,-0.3203,11.169,-16.663,16.418,91.571,-7.614,124.799
13728,0.2495,0.9731,-0.2627,34.241,-37.048,28.015,92.093,-7.943,124.415
13738,0.2886,1.0405,-0.1470,39.124,-47.058,31.433,92.609,-8.311,123.931
13748,0.2969,1.1475,0.0200,22.217,-43.213,23.926,92.856,-8.591,123.481
13758,0.2422,1.2217,0.1611,0.061,-29.114,9.888,92.796,-8.701,123.184
13768,0.1284,1.1528,0.2207,-15.564,-11.230,-3.418,92.521,-8.635,123.069
13779,0.0469,1.0513,0.2197,-27.771,6.897,-12.817,92.093,-8.448,123.146
13788,0.0483,1.0107,0.1655,-34.119,20.996,-16.235,91.609,-8.240,123.365
13798,0.0815,0.9893,0.0645,-27.344,25.574,-12.512,91.247,-8.086,123.624
13808,0.1206,0.9736,-0.0508,-9.766,20.752,-4.395,91.137,-8.036,123.838
13818,0.1787,1.0024,-0.1133,8.179,9.583,4.150,91.258,-8.102,123.931
13828,0.1929,1.0229,-0.1406,26.794,-3.540,10.925,91.599,-8.234,123.893
13838,0.1621,0.9575,-0.1440,39.246,-15.198,15.015,92.076,-8.394,123.739
13848,0.1367,0.9253,-0.0957,31.921,-22.400,13.977,92.466,-8.520,123.503
13858,0.1318,0.9907,-0.0059,11.658,-22.339,8.728,92.593,-8.586,123.278
13868,0.1504,1.0879,0.0659,-6.592,-13.916,2.197,92.488,-8.597,123.135
13878,0.1743,1.1313,0.1089,-17.212,-3.113,-3.418,92.241,-8.564,123.102
13888,0.1621,1.0562,0.0864,-19.958,5.859,-8.179,91.967,-8.487,123.168
13898,0.1406,0.9414,0.0352,-22.583,12.207,-10.986,91.681,-8.383,123.294
13908,0.1143,0.8579,-0.0117,-28.198,14.771,-10.681,91.373,-8.273,123.448
13918,0.0874,0.8350,-0.0391,-31.006,10.864,-6.714,91.060,-8.185,123.558
13928,0.0874,0.8579,-0.0391,-25.269,2.136,-0.061,90.824,-8.163,123.580
13938,0.1274,0.9341,-0.0327,-11.658,-7.263,7.141,90.731,-8.229,123.503
13948,0.1841,1.0396,-0.0068,4.639,-15.686,12.939,90.797,-8.372,123.344
13958,0.2378,1.1377,0.0127,18.738,-18.799,15.503,90.994,-8.553,123.151
13968,0.2549,1.1426,-0.0010,26.367,-15.076,13.855,91.269,-8.729,122.997
13978,0.2256,1.0776,-0.0088,22.217,-5.310,7.263,91.489,-8.833,122.943
13988,0.1597,0.9712,-0.0215,6.531,7.202,-1.160,91.544,-8.828,123.014
13998,0.0981,0.8574,-0.0498,-13.855,18.250,-7.324,91.395,-8.734,123.201
14008,0.1187,0.9106,-0.0620,-34.485,24.231,-9.338,91.038,-8.635,123.448
14018,0.1709,1.0249,-0.0571,-40.649,20.996,-5.981,90.626,-8.591,123.662
14028,0.1963,1.0913,-0.0601,-25.391,10.071,0.732,90.385,-8.613,123.766
14038,0.1987,1.1045,-0.0645,-1.099,-3.479,6.592,90.412,-8.696,123.728
14048,0.2031,1.1333,-0.0356,19.836,-15.442,9.583,90.643,-8.800,123.574
14058,0.1904,1.1035,-0.0010,33.142,-21.973,11.353,91.000,-8.921,123.349
14068,0.1660,1.0522,0.0298,33.569,-19.714,8.972,91.335,-9.009,123.146
14078,0.1460,1.0054,0.0566,21.362,-10.742,2.380,91.522,-9.020,123.036
14088,0.1255,0.9883,0.0723,3.845,-1.587,-4.883,91.505,-8.954,123.025
14098,0.1177,0.9497,0.0552,-9.155,6.592,-8.728,91.351,-8.849,123.091
14108,0.1284,0.9341,0.0229,-16.602,12.878,-9.644,91.143,-8.751,123.223
14118,0.1582,0.9575,-0.0127,-17.578,13.672,-8.240,90.939,-8.674,123.365
14128,0.1821,0.9829,-0.0391,-11.719,7.874,-4.211,90.829,-8.652,123.442
14138,0.1826,0.9766,-0.0537,-2.502,-1.587,0.000,90.829,-8.674,123.431
14148,0.1621,0.9697,-0.0459,2.930,-10.010,2.197,90.890,-8.701,123.327
14158,0.1406,0.9736,-0.0044,2.625,-14.954,2.563,90.934,-8.718,123.173
14168,0.1108,0.9722,0.0356,-1.099,-14.221,1.526,90.912,-8.712,123.030
14178,0.1094,0.9951,0.0811,-5.493,-9.583,-0.488,90.818,-8.679,122.937
14188,0.1250,0.9902,0.0874,-7.019,-3.296,-1.648,90.692,-8.646,122.904
14198,0.1592,1.0015,0.0698,-9.033,3.113,-2.380,90.555,-8.630,122.932
14208,0.1826,1.0278,0.0337,-13.062,7.446,-3.784,90.390,-8.608,123.008
14218,0.1802,1.0254,-0.0117,-14.832,9.338,-5.005,90.231,-8.569,123.102
14228,0.1724,1.0273,-0.0410,-14.282,7.568,-4.883,90.099,-8.531,123.179
14238,0.1494,0.9980,-0.0459,-9.827,2.014,-2.991,90.022,-8.503,123.201
14248,0.1206,0.9658,-0.0488,-4.395,-4.822,-0.916,90.016,-8.476,123.151
14258,0.1133,0.9746,-0.0293,-2.136,-10.864,0.916,90.027,-8.470,123.041
14268,0.1333,1.0044,0.0054,-2.136,-14.893,2.686,90.027,-8.487,122.893
14279,0.1597,1.0581,0.0420,-2.808,-15.808,3.235,90.000,-8.520,122.734
14288,0.1724,1.0820,0.0488,-1.526,-13.733,2.136,89.978,-8.547,122.591
14298,0.1719,1.0684,0.0410,0.183,-10.193,-0.305,89.973,-8.547,122.492
14308,0.1738,1.0503,0.0176,-1.892,-7.385,-3.235,89.956,-8.525,122.415
14318,0.1709,1.0249,-0.0171,-5.920,-6.592,-5.066,89.918,-8.487,122.349
14328,0.1611,1.0015,-0.0454,-9.155,-8.484,-6.165,89.863,-8.432,122.261
14338,0.1548,0.9907,-0.0586,-10.864,-12.512,-6.042,89.813,-8.377,122.135
14348,0.1484,0.9980,-0.0386,-10.742,-17.761,-4.700,89.753,-8.328,121.959
14358,0.1411,1.0249,0.0142,-9.033,-21.790,-3.235,89.692,-8.295,121.734
14368,0.1416,1.0596,0.0576,-4.883,-21.667,-2.625,89.648,-8.262,121.520
14378,0.1401,1.0659,0.0776,0.916,-17.273,-3.357,89.643,-8.223,121.344
14388,0.1382,1.0112,0.0586,4.517,-10.498,-5.554,89.670,-8.163,121.234
14398,0.1333,0.9434,0.0112,0.732,-3.601,-9.155,89.681,-8.069,121.201
14408,0.1313,0.9063,-0.0488,-7.751,1.892,-11.047,89.637,-7.965,121.218
14418,0.1470,0.9136,-0.0869,-13.977,2.808,-8.972,89.550,-7.888,121.245
14428,0.1655,0.9580,-0.0757,-13.794,-2.075,-3.235,89.467,-7.872,121.223
14439,0.1660,0.9985,-0.0190,-5.981,-11.047,3.296,89.440,-7.921,121.113
14449,0.1567,1.0566,0.0747,5.798,-20.996,8.545,89.489,-8.015,120.899
14459,0.1367,1.0703,0.1436,19.531,-27.466,11.963,89.654,-8.124,120.624
14469,0.1289,1.0581,0.1533,28.198,-23.682,12.329,89.885,-8.240,120.388
14479,0.1353,1.0239,0.1060,25.818,-8.057,7.385,90.093,-8.300,120.306
14489,0.1284,0.9688,0.0381,13.916,10.681,-1.221,90.192,-8.284,120.416
14499,0.1328,0.8887,-0.0513,-6.104,25.269,-9.277,90.126,-8.196,120.668
14509,0.1479,0.8604,-0.1128,-30.579,29.236,-15.137,89.857,-8.058,120.965
14519,0.1646,0.9063,-0.1206,-47.852,18.921,-17.456,89.434,-7.910,121.157
14529,0.1689,1.0181,-0.0469,-49.866,-1.465,-13.855,88.973,-7.784,121.141
14539,0.1567,1.0605,0.0420,-33.630,-20.935,-5.188,88.654,-7.745,120.927
14549,0.1348,1.0938,0.1509,-9.277,-35.400,3.601,88.550,-7.778,120.569
14559,0.1099,1.1152,0.2290,15.198,-39.307,9.705,88.649,-7.866,120.179
14569,0.0967,1.0610,0.2490,33.386,-28.015,13.000,88.901,-7.971,119.899
14579,0.1094,1.0479,0.2251,33.508,-5.554,9.583,89.127,-8.047,119.844
14589,0.1362,1.0752,0.1714,22.949,18.066,1.831,89.247,-8.053,120.026
14599,0.1660,1.0532,0.0835,10.010,37.964,-5.493,89.258,-8.004,120.410
14609,0.1943,1.0674,0.0078,-6.775,48.767,-12.207,89.127,-7.899,120.899
14619,0.1934,1.0835,-0.0513,-16.602,44.983,-16.602,88.934,-7.751,121.349
14629,0.1797,1.0845,-0.0845,-16.785,29.785,-16.174,88.786,-7.597,121.646
14639,0.1572,1.0479,-0.0947,-9.033,11.963,-11.597,88.742,-7.493,121.767
14649,0.1299,1.0098,-0.0845,4.272,-3.784,-6.042,88.852,-7.432,121.729
14659,0.1050,0.9463,-0.0698,19.470,-18.494,-0.366,89.121,-7.421,121.542
14669,0.0962,0.9048,-0.0215,29.419,-30.396,4.578,89.473,-7.454,121.234
14679,0.1152,0.8955,0.0283,31.616,-31.677,6.653,89.813,-7.520,120.916
14689,0.1323,0.9131,0.0693,25.085,-21.301,4.761,90.049,-7.575,120.701
14699,0.1548,0.9844,0.0903,12.695,-5.615,-0.244,90.126,-7.586,120.646
14709,0.1812,1.0352,0.0732,2.563,7.629,-4.517,90.104,-7.564,120.723
14719,0.2002,1.0435,0.0288,-2.625,16.235,-6.775,90.038,-7.531,120.888
14729,0.2031,1.0156,-0.0337,-3.540,18.738,-8.423,90.000,-7.487,121.075
14738,0.1772,0.9629,-0.0918,-1.709,14.465,-8.789,90.016,-7.427,121.223
14749,0.1548,0.9150,-0.1255,-1.892,6.104,-7.263,90.066,-7.377,121.284
14759,0.1372,0.8706,-0.1396,-1.526,-4.578,-4.211,90.148,-7.350,121.234
14769,0.1270,0.8779,-0.1123,-0.549,-15.503,0.183,90.236,-7.361,121.080
14779,0.1260,0.8950,-0.0557,1.526,-25.391,5.798,90.313,-7.421,120.822
14789,0.1235,0.9482,0.0327,2.808,-30.518,9.705,90.357,-7.520,120.515
14799,0.1289,1.0337,0.1143,2.808,-27.588,10.742,90.357,-7.619,120.234
14809,0.1411,1.1060,0.1548,3.784,-16.846,9.827,90.335,-7.712,120.064
14819,0.1514,1.1367,0.1440,5.920,-4.395,6.897,90.324,-7.778,120.020
14829,0.1592,1.1235,0.0957,6.958,6.409,2.686,90.330,-7.806,120.086
14839,0.1558,1.0820,0.0278,6.348,15.015,-1.587,90.357,-7.795,120.234
14849,0.1382,1.0278,-0.0391,3.967,20.325,-5.432,90.385,-7.740,120.443
14859,0.1128,0.9868,-0.0869,1.282,20.508,-7.996,90.417,-7.652,120.652
14869,0.0972,1.0049,-0.0723,-1.404,15.747,-8.606,90.417,-7.548,120.811
14879,0.0649,1.0273,0.0088,0.122,7.080,-6.592,90.401,-7.443,120.883
14889,0.0376,1.0752,0.1167,5.798,-0.732,-3.479,90.396,-7.350,120.872
14899,0.0239,1.1484,0.1821,15.747,-1.953,-1.038,90.456,-7.278,120.855
14909,0.0469,1.1992,0.1758,30.029,4.028,-0.122,90.659,-7.229,120.894
14919,0.1060,1.1738,0.0996,44.434,15.015,-1.343,91.027,-7.196,121.047
14929,0.1709,1.0732,-0.0283,50.659,27.039,-4.822,91.500,-7.169,121.322
14939,0.2109,0.9092,-0.1753,44.189,36.133,-9.888,91.989,-7.141,121.685
14949,0.2075,0.7949,-0.2788,25.635,37.354,-13.062,92.368,-7.092,122.069
14959,0.1880,0.7163,-0.3271,4.822,28.320,-11.780,92.598,-7.048,122.360
14969,0.1758,0.7305,-0.2896,-11.780,11.780,-5.005,92.659,-7.059,122.481
14979,0.1787,0.8208,-0.1782,-15.686,-9.766,6.531,92.615,-7.169,122.377
14989,0.1709,0.9233,-0.0083,-2.075,-31.311,21.362,92.609,-7.399,122.053
14999,0.1426,1.0215,0.1587,25.696,-38.879,34.302,92.802,-7.723,121.646
15009,0.1201,1.0195,0.2368,57.007,-28.442,39.429,93.252,-8.091,121.339
15019,0.1162,1.0259,0.2290,69.092,-4.089,34.424,93.785,-8.410,121.278
15029,0.1416,1.0557,0.1621,58.350,24.658,21.057,94.202,-8.624,121.514
15039,0.1592,0.9854,0.0376,36.011,47.546,4.700,94.422,-8.712,121.987
15049,0.1475,0.8765,-0.1069,4.150,59.937,-11.292,94.400,-8.652,122.602
15059,0.1411,0.8320,-0.2251,-28.687,61.157,-25.452,94.125,-8.454,123.239
15069,0.1484,0.8979,-0.2632,-52.673,50.964,-29.602,93.647,-8.207,123.772
15079,0.1616,0.9971,-0.2305,-58.105,30.029,-21.606,93.126,-8.020,124.091
15089,0.1616,1.0542,-0.1772,-40.955,2.014,-6.958,92.780,-7.954,124.113
15099,0.1431,1.0581,-0.1050,-13.733,-28.320,5.981,92.714,-7.998,123.827
15109,0.1123,1.0815,0.0039,9.033,-51.025,13.794,92.845,-8.091,123.305
15119,0.0894,1.0542,0.0908,26.306,-51.025,16.541,93.098,-8.196,122.783
15129,0.1045,1.0356,0.1455,26.917,-29.358,11.658,93.296,-8.273,122.481
15139,0.1299,1.0464,0.1494,14.648,-1.404,0.061,93.329,-8.256,122.465
15149,0.1440,0.9927,0.0972,-4.456,23.376,-12.268,93.164,-8.152,122.706
15159,0.1709,0.9731,0.0312,-29.724,43.091,-21.729,92.752,-7.976,123.157
15169,0.1929,0.9976,-0.0303,-44.678,49.561,-25.818,92.230,-7.773,123.668
15179,0.2021,1.0405,-0.0635,-40.100,39.063,-21.912,91.791,-7.608,124.069
15189,0.1904,1.0127,-0.0933,-20.630,19.775,-11.230,91.599,-7.531,124.272
15199,0.1567,0.9800,-0.1162,4.761,0.427,-0.122,91.697,-7.542,124.277
15209,0.1206,0.9121,-0.1377,29.602,-19.104,7.874,92.082,-7.614,124.080
15219,0.1006,0.8711,-0.1289,40.466,-36.255,13.489,92.593,-7.723,123.712
15229,0.1035,0.8848,-0.0869,35.828,-39.551,15.198,93.032,-7.844,123.305
15239,0.1089,0.9409,-0.0312,21.118,-26.672,12.024,93.268,-7.938,123.030
15249,0.1196,1.0176,0.0210,5.188,-7.812,5.737,93.285,-7.982,122.948
15259,0.1274,1.0718,0.0479,-5.798,7.263,1.221,93.159,-7.982,123.019
15269,0.1475,1.0967,0.0352,-10.315,18.005,-0.366,92.983,-7.987,123.201
15280,0.1567,1.0942,0.0039,-4.700,21.484,0.000,92.878,-7.998,123.420
15289,0.1509,1.0801,-0.0312,6.592,19.592,1.953,92.900,-8.026,123.618
15299,0.1382,1.0405,-0.0674,21.240,13.062,5.859,93.104,-8.086,123.745
15309,0.1235,0.9971,-0.0996,38.513,4.639,10.864,93.505,-8.185,123.783
15319,0.1206,0.9702,-0.1187,52.551,-3.296,14.587,94.065,-8.317,123.745
15329,0.1279,0.9634,-0.1279,58.105,-9.644,17.212,94.691,-8.470,123.635
15339,0.1470,0.9722,-0.1240,55.420,-12.451,18.127,95.284,-8.641,123.492
15349,0.1689,1.0049,-0.1138,46.082,-11.902,16.357,95.773,-8.800,123.360
15359,0.1890,1.0474,-0.1045,31.860,-6.897,12.085,96.103,-8.926,123.278
15369,0.2012,1.0801,-0.1035,16.907,0.305,6.165,96.262,-9.003,123.272
15379,0.1909,1.0522,-0.1143,6.042,6.775,-0.427,96.312,-9.020,123.344
15389,0.1587,0.9785,-0.1377,-1.709,11.719,-6.592,96.290,-8.965,123.464
15399,0.1392,0.8970,-0.1680,-9.033,16.113,-11.108,96.218,-8.871,123.640
15409,0.1357,0.8516,-0.1890,-16.296,18.127,-11.353,96.092,-8.778,123.838
15419,0.1396,0.8472,-0.1973,-19.531,15.625,-6.226,95.944,-8.740,124.003
15429,0.1533,0.8628,-0.1899,-15.442,9.521,2.197,95.839,-8.784,124.096
15439,0.1680,0.9038,-0.1597,-7.263,1.526,10.437,95.806,-8.899,124.096
15449,0.1846,0.9551,-0.1152,0.854,-6.226,17.334,95.839,-9.086,124.019
15459,0.2056,1.0161,-0.0586,7.629,-10.742,22.034,95.911,-9.316,123.887
15469,0.2192,1.0649,-0.0117,9.583,-10.254,22.461,95.971,-9.547,123.761
15479,0.2207,1.0972,0.0132,6.714,-5.493,18.066,95.988,-9.739,123.684
15489,0.1987,1.0825,0.0161,1.282,1.221,10.193,95.927,-9.849,123.690
15499,0.1812,1.0498,-0.0005,-7.751,7.629,1.343,95.779,-9.866,123.761
15509,0.1675,1.0205,-0.0312,-17.822,12.085,-5.737,95.543,-9.816,123.893
15519,0.1553,0.9961,-0.0757,-22.034,13.245,-9.033,95.290,-9.734,124.036
15529,0.1387,0.9902,-0.1089,-18.372,10.498,-7.385,95.098,-9.651,124.146
15539,0.1348,0.9844,-0.1445,-8.606,5.188,-1.526,95.037,-9.619,124.200
15549,0.1484,0.9819,-0.1704,1.770,-1.099,4.517,95.103,-9.651,124.184
15559,0.1621,0.9951,-0.1772,7.690,-7.996,7.935,95.246,-9.717,124.096
15569,0.1787,1.0322,-0.1597,7.812,-14.343,8.484,95.383,-9.789,123.942
15579,0.1841,1.0674,-0.1182,3.967,-18.616,6.897,95.466,-9.838,123.750
15589,0.1777,1.0757,-0.0654,-1.282,-19.287,3.357,95.466,-9.849,123.552
15599,0.1626,1.0562,-0.0127,-5.981,-16.235,-1.221,95.383,-9.811,123.387
15609,0.1465,1.0322,0.0210,-8.545,-10.010,-4.700,95.251,-9.739,123.294
15619,0.1479,1.0078,0.0156,-7.874,-2.380,-4.944,95.114,-9.673,123.272
15629,0.1553,0.9873,-0.0142,-4.028,4.028,-3.113,95.026,-9.641,123.316
15639,0.1831,0.9907,-0.0435,-0.305,7.812,-1.404,94.982,-9.641,123.398
15649,0.2168,1.0249,-0.0518,-0.183,8.240,-1.648,94.949,-9.651,123.481
15659,0.2139,1.0103,-0.0640,-2.930,6.348,-3.967,94.894,-9.641,123.547
15669,0.1836,0.9834,-0.0400,-11.963,5.554,-8.667,94.741,-9.569,123.613
15679,0.1353,0.9233,-0.0083,-22.583,5.676,-13.733,94.460,-9.426,123.679
15689,0.0840,0.8525,0.0088,-28.809,6.958,-14.709,94.114,-9.250,123.761
15699,0.0635,0.8413,0.0205,-29.419,9.888,-10.498,93.752,-9.102,123.871
15709,0.0864,0.8696,0.0112,-21.973,12.451,-2.136,93.466,-9.058,123.997
15719,0.1299,0.9004,-0.0132,-8.118,12.695,6.775,93.340,-9.124,124.124
15729,0.1831,0.9414,-0.0400,3.479,10.071,12.207,93.351,-9.267,124.217
15739,0.2183,0.9805,-0.0649,9.094,5.493,13.123,93.439,-9.432,124.266
15749,0.2251,0.9966,-0.0908,8.484,1.465,11.230,93.538,-9.580,124.272
15759,0.2173,1.0239,-0.0942,2.869,-0.427,7.874,93.587,-9.679,124.261
15769,0.1992,1.0503,-0.0937,-2.869,-0.061,4.761,93.571,-9.734,124.261
15780,0.1699,1.0557,-0.0972,-6.348,2.014,2.380,93.527,-9.756,124.277
15789,0.1450,1.0571,-0.0937,-7.935,4.639,0.732,93.455,-9.745,124.327
15799,0.1348,1.0659,-0.0889,-8.057,6.897,0.427,93.373,-9.728,124.393
15809,0.1353,1.0762,-0.0859,-6.714,8.911,1.404,93.307,-9.723,124.486
15819,0.1411,1.0845,-0.0918,-3.723,10.742,2.441,93.263,-9.728,124.590
15829,0.1494,1.0840,-0.1079,0.977,12.146,3.235,93.279,-9.745,124.711
15839,0.1597,1.0801,-0.1226,5.005,12.939,3.418,93.340,-9.772,124.843
15849,0.1689,1.0771,-0.1343,6.592,12.817,2.808,93.422,-9.800,124.969
15859,0.1851,1.0703,-0.1440,5.554,11.841,1.160,93.499,-9.816,125.090
15869,0.1973,1.0620,-0.1484,1.160,9.155,-2.441,93.538,-9.805,125.184
15879,0.2002,1.0469,-0.1411,-5.005,4.395,-6.653,93.521,-9.750,125.233
15889,0.1875,1.0298,-0.1084,-10.071,-2.441,-9.155,93.450,-9.662,125.211
15899,0.1704,1.0220,-0.0605,-10.986,-8.667,-8.728,93.356,-9.569,125.129
15909,0.1479,1.0083,0.0044,-6.165,-12.756,-5.676,93.279,-9.498,125.002
15919,0.1187,1.0142,0.0762,3.967,-14.099,-1.038,93.263,-9.448,124.860
15929,0.1069,0.9927,0.1133,18.982,-10.986,5.066,93.373,-9.459,124.750
15939,0.1177,0.9658,0.1094,32.837,-3.418,10.010,93.609,-9.531,124.706
15949,0.1528,0.9424,0.0498,39.734,7.507,11.108,93.922,-9.641,124.777
15959,0.2007,0.9521,-0.0366,36.194,18.616,8.301,94.235,-9.761,124.958
15969,0.2397,0.9536,-0.1323,26.001,27.100,3.235,94.482,-9.855,125.233
15979,0.2500,0.9390,-0.2090,12.634,30.518,-2.563,94.636,-9.899,125.541
15989,0.2480,0.9243,-0.2549,-3.052,27.222,-8.301,94.664,-9.882,125.826
15999,0.2251,0.9570,-0.2310,-18.311,16.968,-12.024,94.543,-9.811,126.008
16009,0.1978,1.0181,-0.1582,-25.146,1.587,-10.620,94.329,-9.717,126.030
16019,0.1611,1.0278,-0.0840,-18.494,-13.855,-4.639,94.175,-9.651,125.892
16029,0.1265,1.0396,-0.0161,-4.883,-24.353,1.343,94.131,-9.619,125.645
16039,0.1099,1.0171,0.0288,12.085,-26.367,5.493,94.241,-9.619,125.376
16049,0.1147,0.9707,0.0361,22.461,-17.944,7.141,94.427,-9.651,125.189
16059,0.1665,0.9609,-0.0210,4.150,10.925,-2.258,94.422,-9.635,125.299
16069,0.1973,0.9624,-0.0610,-14.465,22.583,-9.521,94.230,-9.580,125.535
16079,0.2061,0.9893,-0.0547,-32.593,25.879,-16.602,93.851,-9.459,125.810
16089,0.1895,1.0132,-0.0200,-39.307,19.409,-19.165,93.400,-9.289,126.019
16099,0.1436,1.0298,0.0425,-31.921,8.179,-14.038,93.016,-9.146,126.112
16109,0.0986,1.0122,0.0737,-11.780,-2.686,-3.967,92.829,-9.069,126.085
16119,0.0869,1.0112,0.0610,14.160,-9.460,5.920,92.922,-9.080,125.986
16129,0.1113,0.9668,-0.0015,39.917,-11.536,13.611,93.307,-9.185,125.865
16139,0.1665,0.9292,-0.0928,52.979,-6.653,15.503,93.867,-9.344,125.788
16149,0.2134,0.9185,-0.1792,46.204,3.418,10.803,94.395,-9.487,125.815
16159,0.2446,0.9321,-0.2231,25.391,11.475,2.197,94.719,-9.564,125.931
16169,0.2520,0.9453,-0.2300,-0.793,14.648,-5.981,94.774,-9.569,126.085
16180,0.2485,0.9492,-0.2192,-25.574,12.634,-12.024,94.581,-9.509,126.222
16190,0.2310,0.9790,-0.1768,-41.504,5.249,-15.686,94.213,-9.393,126.288
16200,0.1997,1.0151,-0.1089,-43.152,-4.456,-15.381,93.812,-9.250,126.255
16210,0.1650,1.0264,-0.0220,-33.630,-14.771,-10.559,93.477,-9.135,126.112
16220,0.1377,1.0254,0.0659,-15.991,-23.376,-3.540,93.279,-9.075,125.876
16230,0.1240,1.0420,0.1196,4.761,-26.794,3.235,93.274,-9.069,125.601
16240,0.1191,1.0146,0.1138,25.146,-21.362,8.423,93.461,-9.113,125.381
16250,0.1294,0.9883,0.0708,35.217,-8.240,9.277,93.746,-9.185,125.294
16260,0.1406,0.9590,0.0103,31.494,7.446,5.493,94.005,-9.234,125.365
16270,0.1606,0.9668,-0.0566,18.921,20.874,0.000,94.153,-9.250,125.574
16280,0.1846,0.9761,-0.1460,5.737,31.189,-4.395,94.202,-9.245,125.892
16290,0.2109,0.9731,-0.2202,-5.798,34.790,-7.751,94.175,-9.218,126.249
16300,0.2295,1.0049,-0.2598,-13.733,29.053,-9.705,94.092,-9.179,126.552
16310,0.2202,1.0239,-0.2568,-14.099,14.160,-7.874,94.026,-9.135,126.700
16320,0.2007,1.0249,-0.2305,-8.667,-3.601,-2.991,94.032,-9.119,126.667
16330,0.1826,1.0313,-0.1904,-1.404,-19.775,0.916,94.114,-9.124,126.464
16340,0.1631,1.0381,-0.1357,7.080,-34.119,3.540,94.274,-9.130,126.118
16350,0.1533,1.0054,-0.0776,12.878,-40.039,5.005,94.466,-9.146,125.711
16360,0.1348,0.9893,-0.0264,9.033,-34.241,3.601,94.581,-9.141,125.365
16370,0.1221,0.9951,0.0205,-1.282,-20.447,-0.732,94.543,-9.097,125.156
16380,0.1206,1.0098,0.0405,-12.451,-5.188,-4.395,94.362,-9.025,125.107
16390,0.1367,1.0225,0.0469,-20.386,7.263,-6.104,94.076,-8.959,125.184
16400,0.1538,1.0562,0.0361,-23.987,15.930,-6.470,93.752,-8.899,125.349
16410,0.1631,1.0728,0.0034,-18.127,19.348,-5.493,93.505,-8.855,125.552
16420,0.1626,1.0527,-0.0317,-5.981,17.700,-3.174,93.400,-8.833,125.733
16430,0.1523,1.0083,-0.0698,6.348,12.634,-0.610,93.450,-8.833,125.859
16440,0.1367,0.9688,-0.1050,13.123,6.165,0.732,93.598,-8.833,125.920
16450,0.1309,0.9526,-0.1230,14.343,0.916,1.282,93.774,-8.833,125.931
16460,0.1328,0.9497,-0.1235,11.597,-2.625,1.282,93.928,-8.839,125.903
16470,0.1401,0.9780,-0.0923,5.066,-4.028,0.488,93.999,-8.833,125.859
16480,0.1504,1.0249,-0.0430,-0.977,-3.296,-0.244,93.977,-8.822,125.826
16490,0.1558,1.0562,0.0029,-3.174,-1.709,-0.427,93.911,-8.811,125.810
16500,0.1445,1.0591,0.0293,1.404,0.183,-0.244,93.867,-8.800,125.815
16510,0.1475,1.0620,0.0269,9.521,2.625,0.610,93.906,-8.800,125.837
16520,0.1519,1.0073,-0.0156,19.348,4.944,2.502,94.059,-8.822,125.887
16530,0.1543,0.9263,-0.0767,23.193,7.202,2.502,94.285,-8.860,125.958
16540,0.1562,0.8950,-0.1230,14.465,8.789,-0.854,94.449,-8.866,126.046
16550,0.1680,0.9033,-0.1367,-1.160,7.935,-5.737,94.466,-8.833,126.134
16560,0.1689,0.9414,-0.0874,-16.479,3.845,-8.789,94.307,-8.762,126.178
16570,0.1538,1.0283,0.0356,-23.804,-3.662,-8.301,94.010,-8.674,126.145
16580,0.1348,1.0571,0.1567,-13.000,-12.146,-2.808,93.774,-8.624,126.024
16590,0.1045,1.0615,0.2354,9.094,-17.212,4.517,93.730,-8.624,125.848
16600,0.0854,1.0283,0.2187,35.400,-12.268,10.498,93.944,-8.679,125.717
16610,0.1040,0.9688,0.1074,55.115,1.831,12.756,94.384,-8.784,125.728
16620,0.1411,0.8950,-0.0806,59.570,19.592,8.911,94.949,-8.888,125.920
16630,0.1626,0.8413,-0.2866,47.791,33.142,-0.427,95.515,-8.926,126.255
16640,0.1914,0.8164,-0.4517,25.024,38.757,-10.803,95.933,-8.882,126.656
16650,0.2217,0.8145,-0.5532,-2.808,32.959,-17.456,96.136,-8.784,127.007
16660,0.2339,0.8608,-0.5547,-29.602,15.930,-18.188,96.081,-8.663,127.183
16670,0.2373,0.9541,-0.4458,-47.546,-9.827,-13.062,95.812,-8.564,127.101
16680,0.2324,1.0474,-0.2798,-50.354,-36.682,-4.395,95.460,-8.520,126.738
16690,0.1895,1.1201,-0.0654,-38.818,-58.838,4.395,95.142,-8.514,126.140
16700,0.1338,1.1421,0.1201,-18.311,-65.735,8.972,94.944,-8.531,125.469
16710,0.0933,1.1377,0.2407,-1.160,-52.856,8.667,94.845,-8.531,124.931
16720,0.0684,1.1172,0.2817,7.812,-26.917,4.333,94.774,-8.498,124.656
16730,0.0581,1.0825,0.2505,9.644,1.648,-1.892,94.686,-8.427,124.673
16740,0.0659,1.0449,0.1733,5.066,29.419,-7.019,94.554,-8.333,124.975
16750,0.1147,1.0161,0.0620,-2.258,52.734,-10.437,94.373,-8.251,125.513
16760,0.1606,1.0146,-0.0601,-5.859,64.819,-11.597,94.213,-8.190,126.178
16770,0.1934,1.0195,-0.1836,-2.014,63.660,-9.338,94.158,-8.168,126.826
16781,0.2187,0.9956,-0.2827,7.019,50.415,-5.066,94.274,-8.196,127.337
16790,0.2290,0.9565,-0.3555,14.587,30.396,-1.282,94.537,-8.251,127.645
