elapsed_ms,acc_x_g,acc_y_g,acc_z_g,gyro_x_dps,gyro_y_dps,gyro_z_dps,angle_x_deg,angle_y_deg,angle_z_deg
0,-0.1108,1.0908,0.0630,-66.833,-131.653,-49.072,92.263,3.477,115.972
10,-0.1167,1.0806,0.0488,-53.589,-158.020,-52.124,91.588,4.081,114.406
20,-0.1289,1.0981,0.0273,-42.725,-173.950,-50.720,91.016,4.658,112.681
30,-0.1309,1.1475,0.0166,-37.231,-175.293,-44.128,90.483,5.147,110.929
40,-0.1406,1.1851,0.0166,-31.311,-162.903,-33.875,90.016,5.510,109.297
50,-0.1626,1.1958,0.0068,-17.883,-137.573,-24.658,89.709,5.779,107.913
60,-0.2026,1.1880,-0.0581,-1.038,-101.318,-20.264,89.626,6.015,106.897
70,-0.2036,1.1445,-0.1572,13.733,-56.824,-19.470,89.786,6.240,106.320
80,-0.1553,1.0518,-0.2495,20.569,-11.719,-18.799,90.110,6.449,106.205
90,-0.0996,0.9429,-0.2808,9.705,23.804,-16.602,90.396,6.603,106.441
100,-0.0342,0.8848,-0.2153,-17.822,40.405,-13.123,90.401,6.685,106.853
110,0.0259,0.9058,-0.0615,-50.842,32.410,-11.658,89.967,6.718,107.177
120,0.0557,0.9873,0.1108,-68.115,1.282,-15.076,89.231,6.768,107.188
130,0.0366,1.0713,0.2246,-56.763,-38.635,-21.545,88.517,6.888,106.798
140,-0.0220,1.0967,0.2163,-16.296,-69.336,-27.588,88.171,7.086,106.095
150,-0.1206,1.0615,0.0977,34.851,-77.820,-29.724,88.385,7.350,105.298
160,-0.1895,0.9341,-0.0474,78.308,-61.096,-25.269,89.127,7.625,104.678
170,-0.2139,0.7739,-0.1650,94.971,-30.945,-15.076,90.154,7.844,104.365
180,-0.1768,0.6602,-0.2056,75.562,-3.540,0.122,91.071,7.905,104.326
190,-0.0952,0.6709,-0.1494,28.076,9.766,17.151,91.478,7.734,104.425
200,-0.0005,0.8623,0.0078,-26.245,6.042,29.053,91.203,7.366,104.474
210,0.0239,1.0356,0.1851,-53.345,-13.428,29.358,90.544,6.993,104.332
220,-0.0171,1.1133,0.2427,-40.161,-36.438,20.142,89.973,6.735,103.964
230,-0.1045,1.1387,0.2007,-5.676,-47.119,7.751,89.764,6.641,103.491
240,-0.1704,1.0679,0.0869,33.081,-38.208,-1.709,90.000,6.685,103.107
250,-0.1938,0.9565,-0.0386,60.669,-14.221,-5.310,90.610,6.784,102.964
260,-0.1860,0.8560,-0.1372,64.026,13.733,-0.854,91.346,6.844,103.101
270,-0.1421,0.8008,-0.1821,44.128,33.386,8.911,91.934,6.779,103.436
281,-0.1016,0.8369,-0.1362,13.184,36.499,16.602,92.181,6.603,103.799
290,-0.0562,0.9790,-0.0371,-13.977,20.935,15.991,92.065,6.400,104.002
300,-0.0156,1.0977,0.0430,-22.949,-5.249,10.559,91.791,6.246,103.947
310,-0.0327,1.1392,0.0669,-9.094,-30.579,4.211,91.615,6.163,103.634
320,-0.0996,1.1235,0.0435,15.137,-43.091,0.061,91.681,6.163,103.200
330,-0.1714,1.0439,-0.0264,37.659,-29.236,2.197,92.021,6.185,102.909
340,-0.2085,0.9204,-0.1157,43.640,11.963,9.033,92.516,6.158,103.024
350,-0.1914,0.8423,-0.1812,22.644,60.974,14.160,92.900,6.053,103.634
360,-0.1426,0.8589,-0.1641,-15.869,97.290,15.625,92.922,5.883,104.601
370,-0.1011,1.0039,-0.0464,-52.307,105.469,9.949,92.510,5.729,105.656
380,-0.0713,1.1914,0.0879,-61.951,85.083,0.305,91.912,5.663,106.507
390,-0.0796,1.2554,0.1714,-37.354,49.683,-4.700,91.494,5.674,107.007
400,-0.0825,1.2236,0.1909,2.686,15.076,-1.587,91.434,5.669,107.161
410,-0.0894,1.1074,0.1104,45.044,-5.554,7.019,91.802,5.587,107.106
420,-0.1021,0.9946,-0.0249,72.754,-12.329,17.822,92.505,5.416,106.974
430,-0.0894,0.9360,-0.1294,76.660,-8.179,28.625,93.312,5.142,106.880
440,-0.0796,0.9272,-0.1836,56.885,9.521,34.851,93.961,4.785,106.957
450,-0.0757,0.9673,-0.1836,17.761,35.706,32.776,94.230,4.433,107.287
460,-0.0942,1.0840,-0.0957,-22.461,55.786,22.339,94.059,4.180,107.831
470,-0.1084,1.1436,-0.0068,-44.800,60.913,6.958,93.620,4.076,108.435
480,-0.1279,1.0640,0.0210,-42.603,52.490,-7.385,93.186,4.147,108.962
490,-0.1372,1.0176,0.0039,-23.376,36.438,-17.395,92.950,4.334,109.341
500,-0.1182,1.0176,-0.0288,6.226,19.226,-16.174,93.010,4.504,109.539
510,-0.0625,1.0273,-0.0811,30.518,6.409,-3.113,93.334,4.526,109.605
520,-0.0063,1.0508,-0.1191,39.734,-4.333,14.038,93.757,4.345,109.556
530,-0.0254,1.0410,-0.1211,37.109,-14.709,26.733,94.142,4.059,109.391
540,-0.0532,1.0522,-0.0674,20.813,-13.672,31.311,94.329,3.752,109.232
550,-0.0859,1.0190,0.0103,-3.113,6.775,27.039,94.252,3.488,109.276
560,-0.1084,1.0024,0.0552,-26.306,34.729,11.047,93.939,3.384,109.616
570,-0.1079,1.0151,0.0410,-42.786,58.105,-8.850,93.488,3.455,110.204
580,-0.0845,0.9849,-0.0347,-45.715,67.444,-26.123,93.060,3.686,110.896
590,-0.0605,0.9580,-0.1201,-36.621,58.105,-37.476,92.780,4.026,111.495
600,-0.0410,0.9746,-0.1636,-20.813,34.912,-37.598,92.664,4.367,111.863
610,-0.0342,1.0239,-0.1328,-0.366,5.005,-25.513,92.714,4.592,111.923
620,0.0020,1.0781,-0.0420,20.264,-29.480,-6.104,92.884,4.620,111.632
630,-0.0054,1.1030,0.0605,34.241,-63.110,14.099,93.115,4.466,110.995
640,-0.0664,1.0439,0.0566,44.250,-68.542,24.841,93.433,4.252,110.292
650,-0.1099,1.0020,-0.0244,41.992,-35.522,19.165,93.801,4.103,109.924
660,-0.1304,0.9609,-0.1104,23.193,15.686,1.892,94.070,4.109,110.083
670,-0.1226,0.9033,-0.1611,-5.249,65.735,-17.273,94.125,4.268,110.753
680,-0.0645,0.9014,-0.1841,-44.312,96.069,-32.532,93.834,4.515,111.736
690,-0.0415,0.9829,-0.1880,-71.350,94.421,-41.016,93.274,4.839,112.709
700,-0.0259,1.0576,-0.1714,-65.796,63.721,-42.542,92.736,5.186,113.373
710,-0.0371,1.1099,-0.1099,-33.386,19.592,-34.363,92.455,5.488,113.582
720,-0.0483,1.0801,-0.0356,5.676,-24.658,-17.212,92.483,5.636,113.346
730,-0.0757,0.9834,0.0181,36.987,-67.627,2.563,92.747,5.630,112.665
740,-0.1099,0.9531,0.0898,50.476,-97.595,19.287,93.071,5.493,111.676
750,-0.1479,0.9902,0.1455,52.490,-92.346,24.597,93.384,5.328,110.737
760,-0.1235,1.0313,0.1362,38.147,-47.913,17.151,93.609,5.202,110.242
770,-0.1162,1.0454,0.1079,13.123,9.460,1.404,93.653,5.191,110.341
781,-0.1128,1.0591,0.0723,-10.681,57.983,-13.062,93.527,5.295,110.929
790,-0.0972,1.0278,0.0044,-26.733,84.595,-20.264,93.301,5.444,111.791
800,-0.0859,0.9619,-0.1074,-31.982,87.952,-21.118,93.098,5.598,112.681
810,-0.0840,0.8955,-0.2261,-20.935,68.115,-18.982,93.071,5.746,113.379
820,-0.0977,0.9111,-0.2837,0.061,33.325,-12.207,93.246,5.850,113.719
830,-0.0854,0.9863,-0.2583,12.878,-2.502,0.977,93.483,5.828,113.692
840,-0.0659,1.0190,-0.1631,23.254,-43.213,16.968,93.724,5.669,113.247
850,-0.0562,1.0884,0.0137,29.175,-80.994,31.494,93.889,5.383,112.418
860,-0.0698,1.1548,0.1436,30.640,-80.811,38.330,94.005,5.037,111.577
870,-0.0522,1.1963,0.1411,27.588,-40.283,29.114,94.136,4.752,111.154
880,-0.0737,1.1045,0.0547,21.240,11.353,8.362,94.285,4.653,111.264
890,-0.1406,0.9180,-0.0937,12.085,56.580,-13.000,94.466,4.779,111.841
900,-0.1577,0.7554,-0.2368,-12.939,85.205,-26.245,94.537,5.037,112.714
910,-0.1143,0.7622,-0.3496,-44.495,93.445,-28.992,94.384,5.279,113.670
921,-0.0688,0.8564,-0.3877,-55.237,74.341,-22.339,94.103,5.433,114.434
931,-0.0376,0.9644,-0.3457,-35.217,33.997,-7.690,93.944,5.449,114.780
940,-0.0039,1.0435,-0.2222,-0.732,-11.963,11.108,94.005,5.295,114.648
951,-0.0054,1.0273,-0.0630,30.151,-64.636,29.053,94.241,5.004,113.983
960,-0.0479,1.0244,0.1309,52.612,-101.929,41.016,94.554,4.647,112.934
970,-0.0679,1.0537,0.2417,68.970,-93.994,40.344,94.982,4.312,111.962
981,-0.0889,1.0796,0.3130,68.054,-47.546,23.499,95.411,4.125,111.462
991,-0.1431,1.1094,0.3169,54.382,20.325,-4.822,95.746,4.186,111.671
1000,-0.1279,1.0303,0.1914,22.522,86.060,-28.564,95.872,4.406,112.560
1010,-0.1274,0.9873,0.0405,-14.404,127.747,-40.771,95.746,4.708,113.873
1020,-0.1245,0.9800,-0.1514,-35.645,143.860,-41.870,95.548,5.004,115.351
1031,-0.0752,0.9639,-0.3823,-31.860,129.639,-37.842,95.504,5.240,116.686
1041,-0.0005,0.9653,-0.5703,-11.597,88.257,-30.029,95.724,5.405,117.598
1051,0.0132,0.9688,-0.6421,10.010,34.363,-16.174,96.136,5.466,117.955
1061,-0.0215,0.9409,-0.5942,30.762,-24.414,-0.549,96.680,5.455,117.713
1071,-0.0557,0.8960,-0.4087,40.955,-89.478,14.771,97.174,5.389,116.801
1080,-0.1079,0.9619,-0.1060,32.227,-134.888,28.564,97.355,5.284,115.422
1091,-0.1367,1.1885,0.1328,15.564,-126.343,34.058,97.256,5.125,114.120
1101,-0.1104,1.3486,0.2603,3.113,-72.876,23.865,97.037,4.977,113.362
1111,-0.0903,1.3164,0.2329,-5.188,-11.841,4.211,96.806,4.938,113.242
1121,-0.1006,1.1895,0.1392,-12.512,35.583,-11.902,96.575,5.010,113.610
1131,-0.1001,1.0479,-0.0024,-24.048,65.430,-23.376,96.334,5.175,114.291
1141,-0.0981,0.9399,-0.1802,-31.921,76.416,-29.236,96.136,5.383,115.082
1151,-0.0801,0.8833,-0.3384,-29.663,67.078,-26.917,96.053,5.570,115.785
1161,-0.0664,0.8228,-0.4160,-17.517,40.405,-16.968,96.130,5.680,116.202
1171,-0.0796,0.8042,-0.3677,-3.235,5.981,-4.578,96.290,5.713,116.268
1181,-0.0981,0.8037,-0.2544,6.592,-31.189,8.545,96.432,5.674,115.950
1191,-0.1191,0.8369,-0.0889,17.273,-68.848,21.973,96.531,5.559,115.236
1201,-0.1328,0.9473,0.0913,23.865,-84.534,34.363,96.564,5.339,114.351
1211,-0.1123,1.0908,0.1924,23.682,-61.890,38.696,96.570,5.032,113.692
1221,-0.0610,1.1475,0.1816,20.203,-22.583,29.846,96.592,4.746,113.434
1231,-0.0488,1.0630,0.0957,8.484,12.207,15.381,96.564,4.559,113.533
1241,-0.0728,0.9536,-0.0215,-11.780,37.170,0.488,96.427,4.510,113.906
1251,-0.0986,0.8643,-0.1431,-37.170,51.880,-11.108,96.130,4.581,114.434
1261,-0.1025,0.8726,-0.2080,-55.237,54.871,-16.602,95.702,4.708,114.999
1271,-0.0898,0.9570,-0.2251,-56.091,40.771,-13.184,95.257,4.801,115.422
1281,-0.0693,1.0054,-0.2100,-32.959,13.550,-3.052,95.004,4.807,115.560
1291,-0.0601,1.0449,-0.1440,-5.554,-14.526,8.240,94.966,4.724,115.406
1301,-0.0630,1.0688,-0.0894,13.916,-41.504,17.151,95.065,4.576,114.977
1311,-0.0771,1.0977,-0.0029,22.949,-59.570,22.583,95.197,4.400,114.362
1321,-0.1050,1.1143,0.0894,20.142,-58.411,22.034,95.251,4.246,113.758
1331,-0.1006,1.1709,0.1211,9.277,-34.119,13.489,95.208,4.153,113.406
1341,-0.0625,1.1812,0.0669,-2.197,0.000,-0.793,95.098,4.147,113.406
1351,-0.0508,1.1172,-0.0586,-12.085,27.588,-15.442,94.982,4.257,113.692
1361,-0.0552,1.0273,-0.1948,-19.043,42.786,-26.123,94.883,4.466,114.142
1371,-0.0430,0.9546,-0.3188,-27.832,49.194,-32.532,94.785,4.724,114.664
1381,-0.0405,0.9346,-0.4019,-37.170,46.326,-36.072,94.642,5.021,115.159
1391,-0.0503,0.9717,-0.3960,-43.030,33.386,-36.377,94.422,5.328,115.521
1401,-0.0703,1.0093,-0.3174,-45.166,14.893,-31.677,94.120,5.614,115.697
1411,-0.0845,1.0347,-0.1719,-39.795,-4.761,-22.522,93.774,5.834,115.664
1421,-0.0918,1.0146,-0.0249,-27.161,-24.963,-12.085,93.461,5.960,115.422
1431,-0.0718,0.9731,0.1089,-14.465,-42.786,-1.953,93.175,5.988,114.994
1441,-0.0698,0.9526,0.2070,-5.493,-51.086,4.517,92.911,5.949,114.478
1451,-0.0762,0.9834,0.2178,-1.831,-45.654,5.066,92.692,5.911,114.016
1461,-0.0718,1.0015,0.1328,-0.122,-28.381,0.549,92.560,5.900,113.730
1471,-0.0845,0.9858,0.0049,-0.610,-7.507,-6.348,92.516,5.955,113.659
1481,-0.0918,0.9214,-0.1221,-5.188,10.681,-13.916,92.527,6.081,113.774
1491,-0.0845,0.8867,-0.2002,-15.381,21.973,-20.691,92.499,6.273,114.000
1501,-0.0786,0.8926,-0.2256,-26.917,19.653,-25.208,92.373,6.498,114.208
1511,-0.0928,0.9263,-0.1978,-30.029,1.526,-25.879,92.175,6.746,114.236
1521,-0.1025,1.0054,-0.0874,-29.358,-25.452,-20.813,91.884,6.949,113.989
1531,-0.1099,1.0786,0.0981,-23.315,-53.284,-11.536,91.522,7.070,113.456
1541,-0.1279,1.1138,0.2876,-13.611,-81.482,-2.625,91.126,7.108,112.637
1551,-0.1318,1.0918,0.3770,-2.869,-106.018,2.502,90.764,7.103,111.566
1561,-0.1621,1.0601,0.3730,8.545,-126.831,6.226,90.489,7.064,110.286
1571,-0.2046,1.0830,0.2715,20.020,-126.770,12.634,90.385,6.987,109.012
1581,-0.2085,1.1069,0.1313,29.175,-99.243,17.639,90.483,6.855,108.007
1591,-0.1948,1.0938,-0.0044,32.227,-59.448,16.052,90.731,6.729,107.408
1601,-0.1968,1.0737,-0.0962,29.785,-24.353,10.559,91.038,6.669,107.161
1611,-0.2031,1.0288,-0.1797,21.667,-0.427,5.920,91.340,6.652,107.155
1621,-0.1895,1.0098,-0.2393,7.080,13.489,2.197,91.549,6.663,107.292
1631,-0.1558,1.0093,-0.2622,-10.620,15.015,-0.977,91.588,6.685,107.441
1641,-0.1099,1.0293,-0.2354,-24.902,2.747,-3.540,91.461,6.713,107.474
1651,-0.0830,1.0366,-0.1455,-32.349,-22.339,-6.226,91.181,6.762,107.249
1661,-0.0781,1.0229,-0.0132,-31.738,-55.603,-6.531,90.797,6.812,106.688
1671,-0.0718,1.0195,0.1211,-24.780,-92.224,-2.319,90.363,6.817,105.760
1681,-0.0732,1.0083,0.1709,-11.292,-125.854,7.385,90.005,6.729,104.496
1691,-0.0679,0.9956,0.1523,5.066,-148.071,22.034,89.791,6.482,103.002
1701,-0.1201,1.0049,0.0977,21.179,-148.682,36.743,89.780,6.114,101.508
1711,-0.1919,1.0308,0.0405,31.311,-113.770,43.823,89.951,5.718,100.366
1721,-0.2246,1.0229,0.0000,31.311,-52.856,37.842,90.209,5.411,99.833
1731,-0.2148,0.9639,-0.0547,26.062,11.230,20.752,90.511,5.279,99.948
1741,-0.1865,0.8872,-0.1050,16.113,57.556,1.526,90.786,5.323,100.525
1751,-0.1523,0.8315,-0.1230,-0.488,82.336,-11.169,90.928,5.471,101.354
1761,-0.0869,0.8315,-0.1270,-21.057,94.177,-14.404,90.890,5.603,102.299
1771,-0.0215,0.8882,-0.1235,-36.865,92.346,-13.184,90.687,5.674,103.233
1782,0.0181,0.9502,-0.0933,-39.856,71.960,-11.841,90.412,5.718,103.953
1790,0.0000,0.9805,-0.0557,-28.320,35.095,-7.874,90.192,5.735,104.310
1801,-0.0269,0.9731,0.0381,-13.062,-4.639,0.549,90.033,5.691,104.260
1811,-0.0410,0.9580,0.1655,-1.160,-45.776,11.780,89.879,5.543,103.804
1821,-0.0605,0.9448,0.2593,6.897,-84.778,26.367,89.714,5.257,102.953
1831,-0.0884,0.9858,0.2939,14.954,-110.291,41.138,89.599,4.839,101.843
1841,-0.1187,1.0781,0.2563,21.057,-103.943,48.340,89.588,4.367,100.805
1851,-0.1650,1.1738,0.1582,29.663,-60.913,44.373,89.764,3.961,100.195
1861,-0.1626,1.1885,0.0347,33.264,6.836,29.724,90.088,3.702,100.267
1871,-0.1611,1.1045,-0.1221,34.607,69.458,10.559,90.533,3.642,100.964
1881,-0.1592,0.9517,-0.2588,26.794,111.877,-6.653,91.016,3.757,102.085
1891,-0.1074,0.8701,-0.3394,8.240,133.179,-17.944,91.390,3.939,103.420
1901,-0.0166,0.9072,-0.3379,-13.550,125.122,-23.987,91.533,4.114,104.683
1911,0.0186,0.9761,-0.2524,-24.963,83.191,-26.794,91.472,4.307,105.524
1921,0.0518,1.0596,-0.1279,-29.846,23.499,-22.583,91.247,4.455,105.765
1931,0.0684,1.0879,0.0171,-16.541,-41.565,-10.254,91.033,4.482,105.348
1941,0.0547,1.0254,0.1372,0.610,-99.609,8.240,90.873,4.345,104.348
1951,-0.0176,0.9609,0.2178,17.151,-139.832,28.503,90.802,4.048,102.942
1961,-0.1797,1.0723,0.1587,24.475,-94.849,44.983,90.884,3.669,101.986
1971,-0.1714,1.0767,0.0542,22.949,-26.733,34.729,91.060,3.384,101.711
1981,-0.1401,1.0469,-0.0488,22.766,32.776,19.470,91.318,3.230,102.036
1991,-0.1079,0.9399,-0.1235,18.311,70.740,6.226,91.599,3.186,102.744
2001,-0.0083,0.8838,-0.1445,-2.014,90.088,-2.930,91.708,3.164,103.645
2011,0.0977,0.8960,-0.1606,-19.653,87.402,-10.071,91.642,3.142,104.524
2021,0.1392,0.9492,-0.1333,-22.339,57.556,-13.977,91.516,3.148,105.106
2031,0.1035,1.0254,-0.0312,-7.324,10.925,-8.179,91.456,3.137,105.216
2041,0.0742,1.0303,0.0752,7.629,-36.255,7.141,91.456,3.005,104.854
2051,0.0298,1.0171,0.1689,25.330,-80.200,26.428,91.555,2.719,104.041
2061,-0.0366,1.0439,0.2041,38.635,-109.619,43.518,91.758,2.307,102.931
2071,-0.1348,1.1113,0.1636,48.279,-107.849,48.157,92.093,1.912,101.838
2081,-0.2012,1.1416,0.0508,54.138,-70.862,34.668,92.554,1.675,101.118
2091,-0.2500,1.0884,-0.0845,46.082,-13.062,16.602,93.027,1.626,100.981
2101,-0.2295,1.0132,-0.1577,28.259,43.457,2.319,93.378,1.692,101.415
2111,-0.1738,0.9390,-0.1841,1.953,78.613,-5.981,93.499,1.791,102.200
2121,-0.0918,0.9727,-0.1177,-27.954,93.140,-8.789,93.285,1.857,103.140
2131,0.0122,1.0400,-0.0488,-49.866,91.003,-7.874,92.813,1.857,104.052
2141,0.0762,1.0996,0.0083,-46.570,66.833,-5.798,92.340,1.824,104.722
2151,0.0791,1.1567,0.0762,-24.963,25.024,-3.052,92.043,1.785,104.974
2161,0.0820,1.1548,0.1274,-1.099,-16.052,2.502,91.939,1.708,104.810
2171,0.0635,1.0977,0.1929,21.179,-49.622,9.766,92.016,1.582,104.310
2181,0.0161,1.0244,0.1987,34.851,-60.425,12.451,92.214,1.456,103.705
2191,-0.0308,0.9263,0.1167,37.292,-37.415,7.263,92.483,1.401,103.326
2201,-0.0664,0.8647,0.0186,25.635,8.362,-0.488,92.703,1.434,103.409
2211,-0.0786,0.7900,-0.1064,9.644,56.580,-7.812,92.862,1.522,103.980
2221,-0.0366,0.7314,-0.2368,-9.827,90.759,-13.489,92.939,1.626,104.892
2231,0.0234,0.7681,-0.2798,-30.640,100.708,-17.334,92.834,1.714,105.908
2241,0.0908,0.9053,-0.2549,-45.288,85.876,-16.113,92.538,1.758,106.776
2251,0.0923,1.0015,-0.1860,-37.903,48.828,-8.484,92.258,1.752,107.265
2261,0.0659,1.0811,-0.0981,-13.855,3.296,3.723,92.153,1.659,107.298
2271,0.0430,1.0737,-0.0210,15.625,-41.138,17.700,92.285,1.461,106.880
2282,0.0166,1.0625,0.0659,39.001,-77.576,30.701,92.593,1.165,106.095
2291,-0.0186,1.0596,0.1094,46.692,-92.590,37.292,92.950,0.835,105.150
2301,-0.0747,1.0581,0.0913,42.358,-73.853,34.363,93.279,0.566,104.398
2311,-0.0605,1.0547,0.0303,24.414,-26.733,23.254,93.472,0.379,104.112
2321,-0.0449,1.0313,-0.0562,2.014,24.841,9.094,93.488,0.291,104.359
2331,-0.0264,1.0005,-0.1392,-18.799,63.599,-3.845,93.351,0.308,104.996
2341,-0.0200,0.9956,-0.1523,-35.217,80.627,-13.000,93.060,0.396,105.809
2351,-0.0142,1.0039,-0.1558,-43.640,82.642,-16.846,92.692,0.522,106.639
2361,0.0029,1.0254,-0.1704,-39.673,68.237,-17.334,92.373,0.654,107.331
2371,-0.0112,1.0522,-0.1611,-25.330,37.720,-14.526,92.186,0.780,107.715
2381,-0.0112,1.1016,-0.1235,-2.686,0.061,-7.385,92.203,0.851,107.715
2391,0.0269,1.0786,-0.0757,23.315,-41.260,4.150,92.444,0.807,107.303
2401,0.0552,1.0366,-0.0010,35.706,-80.078,18.127,92.763,0.621,106.496
2411,0.0591,1.0527,0.0635,33.081,-100.830,27.161,93.016,0.363,105.474
2421,0.0083,1.0938,0.0732,24.109,-88.379,26.184,93.181,0.143,104.579
2431,-0.0449,1.0913,0.0376,13.916,-47.180,16.602,93.268,0.027,104.101
2441,-0.0918,1.0591,-0.0005,-0.671,-0.549,4.211,93.230,0.033,104.090
2451,-0.1113,1.0420,-0.0234,-17.517,36.194,-5.920,93.038,0.132,104.453
2461,-0.0762,1.0435,-0.0117,-35.950,57.617,-11.047,92.659,0.253,105.035
2471,-0.0205,1.0732,0.0054,-45.715,64.026,-11.536,92.181,0.346,105.683
2481,0.0166,1.0874,-0.0322,-36.194,60.486,-10.986,91.818,0.417,106.287
2491,0.0137,1.1069,-0.0718,-15.869,45.044,-11.597,91.686,0.511,106.743
2501,-0.0059,1.1211,-0.0918,5.188,22.217,-10.864,91.769,0.610,106.968
2511,-0.0098,1.1016,-0.1084,17.700,-1.343,-6.042,91.983,0.665,106.957
2521,-0.0103,1.0659,-0.0942,20.935,-25.024,0.061,92.214,0.676,106.705
2531,-0.0342,1.0688,-0.0410,16.235,-45.532,5.188,92.373,0.648,106.249
2541,-0.0557,1.0820,0.0063,9.399,-47.424,5.676,92.433,0.637,105.776
2551,-0.0625,1.0791,0.0146,4.333,-25.208,1.953,92.439,0.654,105.524
2561,-0.0376,1.0210,-0.0059,-2.319,9.949,-5.676,92.395,0.720,105.623
2571,-0.0225,0.9385,-0.0581,-10.620,40.039,-15.076,92.307,0.862,106.029
2581,-0.0371,0.8486,-0.1069,-18.311,56.030,-22.705,92.186,1.077,106.600
2591,-0.0278,0.8472,-0.1182,-28.015,59.875,-24.658,91.978,1.307,107.205
2601,0.0044,0.9136,-0.0981,-28.381,54.443,-17.212,91.747,1.445,107.759
2611,0.0312,0.9990,-0.0254,-13.489,36.560,-3.662,91.620,1.439,108.122
2621,0.0571,1.0615,0.1099,8.911,8.240,11.536,91.637,1.274,108.204
2631,0.0679,1.0703,0.2480,29.358,-23.010,25.513,91.774,0.983,107.963
2642,0.0547,1.1060,0.3130,49.133,-36.316,29.480,92.076,0.665,107.595
2651,0.0430,1.0742,0.2329,64.026,-16.968,19.836,92.565,0.445,107.419
2661,0.0278,0.9980,0.0757,67.993,21.362,2.502,93.175,0.390,107.628
2671,-0.0142,0.9058,-0.0845,61.035,58.716,-16.113,93.801,0.522,108.226
2682,-0.0405,0.8135,-0.2344,39.917,87.158,-29.419,94.329,0.775,109.111
2692,-0.0493,0.8306,-0.3130,5.676,101.440,-32.410,94.565,1.044,110.149
2702,-0.0420,0.9189,-0.3218,-24.536,98.450,-22.644,94.482,1.203,111.149
2711,-0.0469,1.0005,-0.2666,-29.602,74.158,-4.578,94.312,1.208,111.890
2721,-0.0376,1.0586,-0.1533,-10.010,37.292,15.137,94.257,1.038,112.253
2732,0.0063,1.0430,-0.0820,20.813,-4.639,31.860,94.466,0.714,112.181
2742,0.0171,1.0303,-0.0190,50.415,-41.687,43.213,94.927,0.302,111.731
2752,-0.0010,1.0347,-0.0220,70.007,-54.565,44.678,95.581,-0.088,111.149
2762,-0.0166,1.0156,-0.1016,70.496,-41.443,39.307,96.279,-0.428,110.698
2772,0.0015,1.0459,-0.1812,53.406,-11.169,30.579,96.844,-0.714,110.555
2782,0.0059,1.0239,-0.2642,27.466,21.973,19.348,97.191,-0.923,110.753
2792,0.0181,0.9917,-0.3105,-1.831,46.448,6.042,97.267,-1.044,111.204
2802,0.0400,1.0293,-0.2769,-34.119,50.354,-6.714,96.998,-1.049,111.714
2812,0.0503,1.0439,-0.2080,-51.575,31.067,-13.672,96.526,-0.972,112.039
2822,0.0332,1.0210,-0.1265,-49.377,0.793,-13.611,96.037,-0.846,112.061
2832,0.0205,1.0103,0.0068,-35.767,-28.076,-8.728,95.625,-0.736,111.791
2842,0.0034,1.0068,0.1641,-14.160,-51.575,-0.488,95.345,-0.676,111.281
2852,-0.0210,0.9932,0.2612,10.254,-57.434,6.836,95.251,-0.670,110.698
2862,-0.0444,0.9917,0.2593,27.405,-38.086,12.085,95.328,-0.720,110.308
2872,-0.0234,0.9839,0.1763,32.959,1.099,13.184,95.499,-0.835,110.308
2881,-0.0142,0.9395,0.0386,33.142,43.152,7.446,95.740,-0.928,110.731
2892,0.0029,0.8628,-0.1143,22.644,75.195,-2.808,95.971,-0.967,111.484
2902,0.0459,0.8340,-0.2373,0.122,87.402,-13.245,96.059,-0.950,112.363
2912,0.0669,0.8374,-0.3262,-25.940,77.942,-18.494,95.938,-0.884,113.159
2922,0.0762,0.8984,-0.3457,-39.612,52.490,-15.686,95.691,-0.818,113.698
2932,0.0835,0.9771,-0.2974,-32.288,17.700,-5.920,95.482,-0.813,113.879
2942,0.0991,1.0400,-0.2041,-15.259,-21.667,6.775,95.389,-0.906,113.659
2952,0.0898,1.1060,-0.0337,3.601,-63.110,18.555,95.400,-1.066,113.011
2962,0.0376,1.1177,0.1143,25.085,-86.304,24.536,95.548,-1.236,112.132
2972,-0.0205,1.0903,0.1440,36.194,-72.205,24.963,95.795,-1.390,111.385
2982,-0.0210,1.0767,0.0640,30.151,-29.663,18.555,96.010,-1.522,111.072
2992,-0.0347,1.0391,-0.0581,17.517,18.738,8.545,96.147,-1.588,111.248
3002,-0.0308,1.0146,-0.1875,-4.272,58.533,-2.502,96.136,-1.593,111.835
3012,-0.0103,1.0161,-0.2769,-28.748,78.186,-12.817,95.916,-1.527,112.626
3022,0.0112,1.0381,-0.3477,-44.189,76.721,-19.348,95.587,-1.406,113.412
3032,0.0225,1.0620,-0.3867,-42.175,56.091,-19.531,95.301,-1.263,113.989
3042,0.0259,1.0547,-0.3740,-27.344,22.156,-14.404,95.164,-1.143,114.219
3052,0.0488,1.0459,-0.3062,-9.949,-14.648,-5.371,95.180,-1.093,114.082
3062,0.0703,1.0542,-0.1646,7.019,-55.237,4.883,95.295,-1.121,113.527
3072,0.0562,1.0728,0.0439,19.897,-88.806,12.878,95.433,-1.181,112.626
3082,0.0088,1.0244,0.2251,27.771,-95.520,15.320,95.554,-1.236,111.665
3092,-0.0190,0.9824,0.3115,27.405,-66.772,14.404,95.609,-1.291,110.984
3102,-0.0249,0.9707,0.2495,22.888,-18.799,10.437,95.636,-1.351,110.786
3112,-0.0474,0.9487,0.0884,22.095,32.043,5.371,95.740,-1.390,111.099
3122,-0.0225,0.9277,-0.0942,15.198,74.585,0.061,95.872,-1.439,111.841
3132,0.0239,0.9194,-0.2373,1.892,94.666,-4.883,95.955,-1.489,112.791
3142,0.0713,0.9131,-0.3491,-11.597,91.980,-8.545,95.966,-1.522,113.714
3152,0.0991,0.8994,-0.4258,-17.029,73.059,-10.010,95.971,-1.544,114.450
3162,0.1172,0.9209,-0.4487,-13.611,42.603,-9.888,96.026,-1.538,114.884
3172,0.1118,0.9219,-0.4253,-2.686,6.836,-5.981,96.180,-1.533,114.961
3182,0.1011,0.9224,-0.3481,10.742,-23.926,0.122,96.438,-1.555,114.719
3192,0.0791,0.9414,-0.2163,24.109,-43.823,4.517,96.757,-1.582,114.280
3202,0.0259,0.9624,-0.0698,33.936,-50.842,7.263,97.081,-1.593,113.769
3212,-0.0176,0.9775,0.0366,35.522,-41.016,8.972,97.350,-1.604,113.351
3222,-0.0391,0.9966,0.0610,34.119,-16.907,8.789,97.586,-1.631,113.170
3232,-0.0386,1.0059,-0.0073,34.363,11.597,5.554,97.850,-1.659,113.280
3242,-0.0117,1.0181,-0.1284,31.311,32.471,1.099,98.146,-1.692,113.599
3252,0.0190,0.9858,-0.2358,23.804,40.894,-2.014,98.421,-1.725,114.005
3262,0.0591,0.9424,-0.3237,9.521,41.626,-3.540,98.608,-1.769,114.423
3272,0.0845,0.9116,-0.3799,-3.418,40.039,-4.211,98.701,-1.818,114.824
3282,0.1133,0.9658,-0.3608,-12.573,35.889,-3.662,98.685,-1.879,115.186
3292,0.1187,1.0464,-0.2197,-18.677,24.536,0.732,98.525,-1.967,115.428
3302,0.0723,1.0503,0.0029,-21.912,2.808,7.996,98.218,-2.071,115.444
3312,0.0298,1.0220,0.2075,-23.499,-24.841,13.245,97.800,-2.159,115.181
3322,-0.0117,1.0078,0.3350,-20.569,-46.204,13.672,97.350,-2.203,114.703
3332,-0.0254,0.9995,0.3140,-13.855,-49.316,11.963,96.987,-2.219,114.197
3342,-0.0127,1.0415,0.1958,-5.737,-34.607,11.719,96.768,-2.269,113.840
3352,0.0049,1.0625,0.0312,2.869,-7.629,12.817,96.713,-2.362,113.747
3362,0.0234,1.0527,-0.1382,8.118,18.799,12.939,96.795,-2.499,113.917
3372,0.0405,1.0405,-0.2676,7.202,36.072,9.399,96.927,-2.631,114.269
3382,0.0586,1.0278,-0.3477,-2.686,39.185,3.113,96.998,-2.714,114.653
3392,0.0693,1.0029,-0.4043,-13.550,27.527,-2.686,97.004,-2.730,114.928
3402,0.0928,1.0083,-0.4102,-25.085,8.972,-6.287,96.899,-2.703,115.027
3412,0.1265,1.0425,-0.3794,-32.471,-11.292,-7.080,96.713,-2.659,114.922
3422,0.1279,1.0518,-0.3228,-30.762,-33.752,-5.737,96.531,-2.598,114.593
3432,0.0913,1.0562,-0.1626,-27.832,-58.228,-3.540,96.301,-2.521,114.016
3442,0.0371,1.0991,0.0806,-26.123,-81.665,-0.732,95.971,-2.422,113.209
3452,-0.0112,1.1313,0.2720,-16.418,-90.149,3.784,95.652,-2.335,112.308
3462,-0.0532,1.1357,0.3657,0.244,-79.163,9.888,95.455,-2.307,111.506
3472,-0.0469,1.1230,0.3403,20.813,-52.124,14.465,95.455,-2.357,110.973
3482,-0.0356,1.0693,0.1997,42.053,-18.799,14.709,95.724,-2.439,110.775
3492,-0.0122,1.0044,0.0171,56.519,14.526,10.742,96.207,-2.527,110.907
3502,0.0273,0.9668,-0.1338,56.885,41.565,5.310,96.768,-2.615,111.313
3512,0.0732,0.9507,-0.2275,44.739,56.946,0.122,97.256,-2.703,111.879
3522,0.1094,0.9551,-0.2764,25.452,60.730,-3.723,97.570,-2.774,112.489
3532,0.1294,1.0044,-0.2583,8.850,54.871,-5.676,97.696,-2.834,113.038
3542,0.1221,1.0620,-0.2031,3.784,42.542,-5.188,97.745,-2.878,113.472
3552,0.0996,1.0713,-0.1548,12.512,27.832,-2.075,97.861,-2.917,113.747
3562,0.0449,1.0015,-0.1328,31.738,15.930,1.465,98.163,-2.950,113.906
3572,-0.0278,0.8877,-0.1465,51.636,8.911,3.479,98.679,-2.950,113.989
3582,-0.0835,0.8086,-0.1689,64.453,4.761,5.005,99.349,-2.917,114.027
3592,-0.0801,0.8320,-0.1685,64.331,2.197,8.606,100.009,-2.922,114.038
3602,-0.0430,0.9019,-0.1714,53.040,-0.122,15.808,100.541,-3.021,114.005
3612,0.0171,0.9995,-0.1934,37.354,0.427,22.583,100.915,-3.219,113.972
3622,0.0835,1.1226,-0.2021,20.996,2.808,26.672,101.118,-3.494,113.945
3632,0.1079,1.1543,-0.2256,12.451,5.249,27.405,101.239,-3.785,113.945
3642,0.1167,1.1001,-0.2690,8.240,9.644,23.437,101.343,-4.054,113.994
3652,0.1030,1.0117,-0.2935,1.099,13.306,15.137,101.398,-4.241,114.093
3662,0.0513,0.8799,-0.3115,-10.498,13.306,4.822,101.365,-4.307,114.214
3672,-0.0073,0.7676,-0.3208,-27.100,10.376,-5.676,101.201,-4.219,114.329
3682,-0.0215,0.7310,-0.2954,-52.551,6.836,-13.306,100.783,-4.048,114.423
3692,0.0146,0.8398,-0.2139,-77.087,0.000,-15.808,100.052,-3.862,114.450
3702,0.0908,1.0449,-0.1431,-85.510,-10.620,-11.047,99.190,-3.746,114.368
3712,0.1792,1.2246,-0.1152,-68.970,-18.494,1.526,98.481,-3.779,114.181
3722,0.2368,1.2896,-0.1055,-31.982,-18.921,16.724,98.141,-3.983,113.967
3732,0.2407,1.2432,-0.1235,12.573,-10.742,27.344,98.251,-4.301,113.824
3742,0.1934,1.0928,-0.1445,47.546,0.977,30.579,98.712,-4.658,113.791
3752,0.1079,0.9531,-0.1050,53.040,8.850,26.489,99.212,-4.949,113.835
3762,0.0337,0.8804,-0.0356,33.691,6.653,17.029,99.470,-5.098,113.873
3772,0.0195,0.8687,0.0405,2.380,-4.456,4.639,99.377,-5.098,113.824
3783,0.0156,0.9536,0.1050,-25.085,-20.325,-8.545,98.992,-4.944,113.637
3792,-0.0049,0.9922,0.1162,-32.288,-31.433,-17.090,98.536,-4.675,113.351
3802,-0.0137,1.0107,0.0747,-24.109,-30.090,-17.517,98.196,-4.406,113.077
3812,-0.0142,1.0400,0.0166,-6.775,-17.029,-10.437,98.047,-4.224,112.923
3822,0.0054,1.0435,-0.0352,15.076,3.967,2.075,98.135,-4.213,112.961
3832,0.0283,1.0225,-0.0811,35.645,23.804,16.052,98.432,-4.378,113.176
3842,0.0488,0.9824,-0.1440,50.354,38.940,27.588,98.904,-4.686,113.522
3852,0.0737,0.9453,-0.2192,57.373,48.889,34.302,99.481,-5.092,113.950
3862,0.0991,0.9077,-0.2803,55.725,52.429,34.668,100.069,-5.526,114.412
3872,0.1143,0.8672,-0.3125,44.678,48.645,29.297,100.569,-5.911,114.846
3882,0.1265,0.8291,-0.3208,25.757,37.842,19.958,100.893,-6.196,115.181
3892,0.1455,0.8223,-0.3022,0.305,21.118,8.423,100.970,-6.350,115.373
3902,0.1626,0.8623,-0.2461,-27.466,0.244,-3.113,100.745,-6.361,115.384
3912,0.1709,0.9761,-0.1616,-50.842,-23.010,-10.376,100.250,-6.251,115.175
3922,0.1606,1.0796,-0.0854,-59.204,-44.067,-12.512,99.651,-6.075,114.758
3932,0.1450,1.1479,-0.0347,-51.880,-55.969,-12.695,99.113,-5.867,114.225
3942,0.1260,1.1577,-0.0225,-34.851,-53.833,-13.794,98.745,-5.652,113.714
3952,0.1030,1.1157,-0.0552,-20.935,-38.452,-15.747,98.509,-5.438,113.357
3962,0.0596,1.0044,-0.1343,-13.977,-14.465,-18.921,98.377,-5.208,113.242
3972,0.0278,0.9102,-0.2104,-21.240,14.587,-23.010,98.196,-4.971,113.417
3982,0.0244,0.8809,-0.2485,-43.396,42.969,-25.208,97.800,-4.746,113.884
3992,0.0454,0.9541,-0.2334,-68.909,62.439,-23.254,97.125,-4.581,114.532
4002,0.0908,1.1094,-0.1724,-84.229,67.505,-17.822,96.251,-4.493,115.230
4012,0.1196,1.2339,-0.1230,-74.890,57.251,-9.583,95.460,-4.471,115.812
4022,0.1235,1.2646,-0.1182,-43.457,39.185,0.122,94.999,-4.515,116.202
4032,0.1353,1.2280,-0.1440,-2.258,21.606,7.263,94.977,-4.625,116.411
4042,0.1504,1.1499,-0.1899,34.180,7.080,10.986,95.356,-4.768,116.472
4052,0.1523,1.0747,-0.2554,54.199,-2.502,11.841,95.977,-4.911,116.439
4062,0.1631,1.0342,-0.2852,58.289,-7.385,11.169,96.652,-5.054,116.351
4072,0.1147,0.9980,-0.3042,50.171,-9.949,8.545,97.262,-5.136,116.241
4082,0.1641,1.0239,-0.3271,33.264,-9.888,3.601,97.707,-5.197,116.136
4092,0.2007,1.0854,-0.2769,12.268,-3.845,-4.028,97.894,-5.202,116.104
4102,0.1606,1.1138,-0.1294,-2.991,-5.493,-11.108,97.855,-5.114,116.065
4112,0.1045,1.0703,0.0015,-6.409,-11.292,-17.273,97.723,-4.933,115.977
4122,0.0898,1.0151,0.0190,-1.953,-11.658,-23.132,97.619,-4.691,115.895
4132,0.0967,0.8989,-0.0947,6.653,0.671,-28.076,97.668,-4.433,115.939
4142,0.1016,0.7363,-0.2427,5.859,26.123,-33.020,97.806,-4.175,116.241
4152,0.0767,0.5937,-0.3486,-11.108,52.979,-40.405,97.883,-3.867,116.823
4162,0.0552,0.6421,-0.3452,-42.236,61.707,-45.959,97.625,-3.505,117.499
4172,0.0317,0.8809,-0.1484,-71.350,34.546,-42.969,96.910,-3.115,117.900
4182,0.0024,1.0986,0.1118,-82.581,-25.635,-27.771,95.977,-2.785,117.675
4192,-0.0205,1.2412,0.3643,-67.810,-97.290,-2.441,95.131,-2.620,116.713
4202,-0.0610,1.3140,0.5054,-27.466,-142.700,22.461,94.664,-2.664,115.269
4212,-0.0591,1.2554,0.4395,27.039,-128.845,36.499,94.752,-2.867,113.950
4222,-0.0205,1.1304,0.1938,71.594,-67.139,36.011,95.350,-3.131,113.253
4232,0.0327,1.0386,-0.0835,91.431,9.766,23.560,96.246,-3.356,113.329
4242,0.0532,0.9165,-0.3364,87.585,71.350,6.165,97.207,-3.494,114.033
4252,0.0649,0.7510,-0.4785,54.443,107.544,-10.010,97.938,-3.538,115.115
4262,0.0732,0.7158,-0.5024,-5.554,125.305,-22.583,98.075,-3.499,116.389
4272,0.1172,0.8457,-0.4272,-64.697,127.808,-31.128,97.542,-3.406,117.702
4283,0.1392,1.0029,-0.2881,-90.576,110.779,-30.273,96.663,-3.296,118.839
4292,0.1060,1.0518,-0.1562,-84.412,76.538,-20.142,95.801,-3.208,119.625
4302,0.0542,1.0444,-0.0522,-57.312,34.424,-7.874,95.186,-3.164,119.976
4312,0.0059,1.0244,0.0142,-25.696,-5.737,2.136,94.872,-3.153,119.916
4322,-0.0288,0.9888,0.0591,1.709,-40.344,10.010,94.828,-3.170,119.504
4332,-0.0215,0.9585,0.0532,24.963,-59.204,14.526,95.026,-3.219,118.900
4342,0.0107,0.9526,-0.0039,38.147,-51.880,15.808,95.389,-3.301,118.372
4352,0.0718,0.9922,-0.0688,37.842,-24.658,15.381,95.762,-3.439,118.109
4362,0.1411,1.0581,-0.1416,31.006,6.348,13.916,96.086,-3.625,118.158
4372,0.1797,1.0898,-0.2046,23.682,29.663,13.062,96.350,-3.840,118.444
4382,0.1592,1.0518,-0.2402,15.808,42.053,10.498,96.542,-4.032,118.850
4392,0.0977,0.9712,-0.2437,3.296,44.128,3.723,96.619,-4.136,119.284
4402,0.0308,0.8760,-0.2183,-13.428,35.461,-8.057,96.537,-4.076,119.647
4412,-0.0093,0.8433,-0.1484,-34.058,16.907,-20.386,96.218,-3.845,119.839
4422,-0.0327,0.8750,-0.0542,-54.138,-8.728,-26.978,95.658,-3.510,119.778
4432,-0.0132,1.0249,0.0898,-63.171,-39.490,-25.085,94.949,-3.186,119.410
4442,0.0273,1.1934,0.2349,-52.002,-70.618,-14.160,94.312,-2.966,118.718
4452,0.0576,1.2949,0.3008,-22.156,-88.074,0.183,93.966,-2.895,117.839
4462,0.0273,1.2983,0.2471,15.015,-73.364,11.780,94.005,-2.944,117.098
4472,-0.0176,1.1729,0.1216,43.945,-27.771,15.015,94.356,-3.038,116.812
4482,-0.0630,0.9717,-0.0444,59.265,25.757,8.728,94.911,-3.076,117.059
4492,-0.0659,0.8164,-0.1919,51.147,69.824,-3.296,95.460,-3.027,117.762
4503,-0.0229,0.7490,-0.2783,21.973,93.811,-14.343,95.779,-2.928,118.707
4512,0.0454,0.8354,-0.2891,-14.221,95.093,-21.729,95.724,-2.807,119.680
4522,0.1025,1.0195,-0.2368,-39.124,71.899,-24.414,95.372,-2.664,120.421
4532,0.1406,1.2031,-0.1514,-40.283,30.945,-19.409,94.977,-2.543,120.745
4542,0.1484,1.3086,-0.0776,-22.461,-14.587,-7.629,94.746,-2.494,120.608
4552,0.1309,1.2358,-0.0420,6.836,-57.007,3.723,94.807,-2.516,120.037
4562,0.1045,1.0879,-0.0186,31.738,-86.426,7.263,95.125,-2.549,119.169
4572,0.0635,0.9048,-0.0708,41.992,-86.548,-0.183,95.570,-2.483,118.306
4582,0.0151,0.8306,-0.1460,29.114,-56.396,-12.329,95.927,-2.296,117.757
4592,-0.0073,0.8096,-0.2139,6.226,-11.719,-23.682,96.081,-2.021,117.664
4603,0.0117,0.8447,-0.2344,-20.813,28.442,-28.870,95.955,-1.752,117.977
4612,0.0327,0.9312,-0.1787,-44.373,53.650,-26.428,95.548,-1.549,118.537
4622,0.0498,1.0186,-0.0776,-52.368,59.143,-16.846,95.004,-1.456,119.141
4633,0.0430,1.0596,-0.0005,-40.222,47.058,-4.700,94.543,-1.456,119.614
4643,-0.0054,1.0171,0.0562,-15.198,20.020,5.066,94.312,-1.505,119.811
4652,-0.0332,0.9209,0.0718,12.939,-11.230,12.085,94.356,-1.582,119.691
4662,-0.0220,0.8252,0.0400,29.297,-40.955,16.357,94.587,-1.681,119.268
4673,0.0347,0.8213,-0.0024,32.227,-61.768,17.822,94.878,-1.813,118.641
4682,0.1021,0.8940,-0.0767,30.884,-60.913,14.343,95.202,-1.950,118.021
4692,0.1602,1.0083,-0.1406,22.827,-33.630,10.437,95.466,-2.093,117.675
4702,0.1904,1.1099,-0.1606,10.132,7.080,8.118,95.592,-2.258,117.735
4713,0.1719,1.1045,-0.1777,2.869,41.626,4.944,95.641,-2.411,118.147
4723,0.1069,1.0122,-0.1958,0.549,57.312,0.916,95.674,-2.510,118.718
4732,0.0425,0.9497,-0.1929,-7.690,56.091,-2.747,95.636,-2.538,119.279
4743,-0.0137,0.8989,-0.1816,-15.442,39.917,-5.615,95.521,-2.488,119.680
4753,-0.0435,0.8760,-0.1606,-18.738,12.939,-6.165,95.378,-2.384,119.817
4762,-0.0122,0.9341,-0.1240,-21.179,-14.709,-2.258,95.197,-2.318,119.674
4773,0.0386,1.0361,-0.0474,-18.677,-42.664,6.653,95.004,-2.346,119.240
4783,0.0845,1.1733,0.0581,-10.498,-63.110,16.968,94.845,-2.472,118.597
4793,0.1074,1.2734,0.1138,3.662,-63.293,23.560,94.812,-2.675,117.944
4803,0.0859,1.2739,0.0928,14.282,-39.978,24.658,94.883,-2.900,117.526
4813,0.0273,1.1523,0.0249,18.188,-3.662,16.174,95.004,-3.038,117.477
4823,-0.0615,0.9297,-0.0728,10.376,28.992,-0.061,95.087,-2.994,117.762
4833,-0.1558,0.6187,-0.1929,-10.864,49.561,-18.433,95.076,-2.692,118.273
4843,-0.1484,0.5273,-0.2402,-42.908,53.528,-32.715,94.818,-2.247,118.839
4853,-0.0122,0.8516,-0.1738,-67.017,37.415,-29.663,94.208,-1.956,119.235
4863,0.1538,1.2993,-0.0576,-60.547,5.432,-3.784,93.587,-1.967,119.295
4873,0.2319,1.4409,0.0386,-18.921,-34.180,29.663,93.362,-2.313,118.932
4883,0.2397,1.2866,0.0562,25.940,-66.467,45.471,93.587,-2.807,118.240
4893,0.1567,1.0449,0.0293,32.471,-72.876,34.424,93.895,-3.159,117.493
4903,0.0332,0.8892,-0.0605,-0.854,-44.128,3.662,93.911,-3.153,117.048
4913,-0.0342,0.8501,-0.1045,-52.490,-3.052,-30.579,93.422,-2.796,117.037
4923,-0.0703,0.8115,-0.1143,-85.388,30.029,-52.795,92.604,-2.214,117.372
4933,-0.0737,0.8364,-0.0791,-93.750,46.753,-52.734,91.686,-1.642,117.861
4943,-0.0576,0.9053,-0.0308,-77.209,46.997,-29.968,90.912,-1.307,118.339
4953,-0.0195,0.9888,0.0151,-37.598,35.828,3.723,90.511,-1.324,118.702
4963,0.0557,1.0361,0.0474,13.550,19.348,34.912,90.610,-1.686,118.889
4973,0.1182,1.0850,0.0239,57.800,1.526,54.443,91.165,-2.274,118.900
4983,0.1484,1.1104,-0.0337,78.674,-15.198,56.946,91.956,-2.889,118.735
4993,0.1548,1.1235,-0.0537,70.251,-29.846,43.457,92.675,-3.356,118.422
5003,0.1401,1.1221,-0.0376,41.809,-36.011,21.484,93.104,-3.587,118.054
5013,0.1079,1.1221,0.0220,6.348,-29.480,0.610,93.142,-3.598,117.757
5023,0.0601,1.0742,0.0552,-22.461,-11.047,-16.052,92.862,-3.428,117.653
5033,0.0117,1.0273,0.0527,-42.664,13.062,-27.222,92.373,-3.142,117.801
5043,-0.0576,0.9082,-0.0044,-46.082,32.898,-29.846,91.879,-2.791,118.141
5053,-0.0674,0.8682,-0.0488,-37.964,45.410,-23.987,91.494,-2.494,118.603
5063,-0.0312,0.8931,-0.0947,-22.461,48.157,-11.047,91.296,-2.351,119.086
5073,0.0332,0.9717,-0.1270,-0.366,39.490,4.089,91.340,-2.401,119.482
5083,0.1216,1.1421,-0.1274,17.151,21.301,16.174,91.549,-2.598,119.691
5093,0.1738,1.2437,-0.1162,29.602,-4.639,22.766,91.884,-2.878,119.641
5103,0.1665,1.1655,-0.0957,37.354,-35.156,20.874,92.302,-3.126,119.279
5113,0.1313,1.0381,-0.0444,28.442,-57.861,9.949,92.615,-3.241,118.696
5123,0.0361,0.8862,0.0312,4.761,-59.875,-4.578,92.648,-3.159,118.098
5133,-0.0269,0.8662,0.0796,-24.841,-41.748,-18.066,92.346,-2.911,117.691
5143,-0.0337,0.9263,0.0786,-47.546,-16.235,-25.574,91.813,-2.604,117.537
5153,-0.0020,1.0054,0.0557,-54.871,5.737,-25.269,91.214,-2.329,117.603
5163,0.0249,1.0317,0.0044,-44.678,18.982,-18.494,90.747,-2.137,117.795
5173,0.0483,1.0493,-0.0571,-24.780,24.841,-8.911,90.516,-2.060,118.048
5183,0.0684,1.0381,-0.1118,-0.854,20.935,0.977,90.560,-2.087,118.257
5193,0.0713,1.0068,-0.1230,19.470,7.080,10.010,90.813,-2.208,118.328
5203,0.0698,0.9131,-0.1211,27.222,-11.169,15.503,91.154,-2.379,118.213
5213,0.0874,0.9165,-0.0356,17.090,-29.968,14.771,91.346,-2.549,117.911
5223,0.0830,0.9990,0.1270,-1.038,-41.931,10.132,91.269,-2.664,117.488
5233,0.0596,1.1226,0.2739,-16.174,-35.034,5.676,90.978,-2.714,117.136
5243,0.0566,1.2241,0.3135,-20.264,-9.705,1.465,90.626,-2.725,117.037
5253,0.0356,1.2061,0.2300,-9.277,21.118,-2.991,90.412,-2.686,117.252
5263,0.0044,1.0571,0.0542,7.263,48.096,-7.629,90.428,-2.593,117.735
5273,-0.0156,0.8789,-0.1436,17.090,65.125,-10.864,90.654,-2.450,118.383
5283,-0.0156,0.7451,-0.3330,16.785,63.416,-11.536,91.027,-2.307,119.020
5293,0.0161,0.7222,-0.4092,10.742,40.222,-7.446,91.401,-2.230,119.427
5303,0.0830,0.8442,-0.3745,3.784,4.089,3.601,91.664,-2.296,119.465
5313,0.1558,1.0298,-0.2520,5.554,-40.710,19.714,91.857,-2.543,119.053
5323,0.1987,1.1523,-0.0630,18.738,-87.646,34.851,92.093,-2.928,118.163
5333,0.1724,1.2607,0.1753,32.410,-109.436,41.565,92.373,-3.351,117.054
5343,0.1064,1.2920,0.3726,35.522,-91.309,37.476,92.593,-3.691,116.125
5353,0.0435,1.2354,0.4502,29.846,-47.424,21.851,92.692,-3.873,115.642
5363,-0.0205,1.0952,0.3882,19.897,2.930,-2.014,92.664,-3.801,115.670
5373,-0.0625,0.8872,0.2314,2.075,50.415,-25.085,92.477,-3.499,116.186
5383,-0.0552,0.7974,0.0508,-23.193,85.022,-40.344,92.137,-3.065,117.054
5393,0.0044,0.8198,-0.1323,-42.236,98.022,-39.978,91.736,-2.675,118.054
5403,0.0474,0.8643,-0.2676,-36.560,79.590,-27.039,91.489,-2.439,118.856
5413,0.1040,0.9302,-0.3237,-17.395,42.786,-7.080,91.478,-2.411,119.284
5423,0.1562,1.0430,-0.3486,8.179,0.000,15.381,91.725,-2.620,119.284
5433,0.1719,1.0845,-0.3516,38.513,-49.866,32.898,92.296,-2.994,118.773
5443,0.1401,1.0693,-0.2690,60.303,-96.069,40.344,93.060,-3.395,117.795
5453,0.0981,1.0503,-0.1201,60.425,-107.239,38.513,93.757,-3.741,116.702
5463,0.0527,1.0347,0.0410,39.612,-81.665,27.527,94.142,-3.950,115.867
5473,0.0200,1.0444,0.1963,8.972,-39.368,8.484,94.109,-3.977,115.466
5483,0.0044,1.0396,0.2754,-18.982,3.723,-9.583,93.730,-3.845,115.510
5493,-0.0010,1.0166,0.3022,-44.800,40.405,-20.935,93.054,-3.625,115.928
5503,0.0088,1.0435,0.2480,-56.458,66.162,-25.513,92.291,-3.378,116.603
5513,0.0435,1.0361,0.0981,-43.579,79.285,-22.827,91.736,-3.175,117.405
5523,0.0444,0.9590,-0.0771,-17.700,73.608,-14.343,91.549,-3.049,118.147
5533,0.0542,0.8975,-0.2104,8.301,52.856,-4.211,91.719,-3.027,118.680
5543,0.0898,0.9263,-0.2944,24.719,23.743,6.836,92.109,-3.120,118.916
5553,0.1284,0.9834,-0.3335,37.354,-12.512,19.348,92.653,-3.351,118.784
5563,0.1543,1.0166,-0.2983,47.363,-55.786,29.602,93.290,-3.664,118.213
5573,0.1479,1.0776,-0.1631,45.044,-83.923,33.630,93.845,-3.988,117.350
5583,0.1226,1.1118,-0.0210,31.921,-76.233,28.625,94.186,-4.246,116.570
5593,0.0942,1.0786,0.0615,13.977,-43.701,15.564,94.285,-4.373,116.120
5603,0.0474,1.0054,0.0957,-4.944,-7.141,-1.160,94.142,-4.340,116.049
5613,0.0356,0.9502,0.0640,-25.635,23.499,-15.381,93.790,-4.186,116.296
5623,0.0605,0.9478,0.0186,-43.701,43.640,-23.132,93.279,-3.977,116.746
5633,0.0933,0.9834,-0.0552,-49.011,52.734,-23.254,92.752,-3.790,117.290
5643,0.1074,1.0229,-0.1245,-36.804,45.959,-16.296,92.401,-3.675,117.757
5653,0.1069,1.0073,-0.1616,-11.963,23.621,-4.761,92.335,-3.658,117.999
5663,0.1089,1.0103,-0.1519,11.719,-5.554,7.812,92.516,-3.763,117.938
5673,0.0996,0.9922,-0.1074,30.640,-37.964,19.287,92.884,-3.955,117.548
5683,0.0967,1.0142,-0.0190,39.124,-64.148,26.306,93.296,-4.197,116.895
5693,0.0664,1.0596,0.1274,35.034,-72.998,27.405,93.593,-4.422,116.147
5703,0.0273,1.1426,0.2256,24.658,-53.772,22.400,93.735,-4.576,115.593
5713,0.0112,1.1919,0.2476,17.090,-20.630,12.695,93.763,-4.647,115.378
5723,-0.0220,1.1948,0.2246,11.719,8.911,1.282,93.730,-4.609,115.466
5733,-0.0625,1.1431,0.1680,2.991,29.541,-8.362,93.615,-4.471,115.768
5743,-0.0659,1.0869,0.0767,-6.348,42.419,-15.930,93.444,-4.257,116.202
5753,-0.0786,0.9414,-0.0649,-10.254,45.288,-21.118,93.312,-3.988,116.669
5763,-0.0742,0.8354,-0.1807,-9.460,40.405,-22.034,93.279,-3.702,117.087
5773,-0.0234,0.8921,-0.1621,-6.897,25.696,-14.709,93.263,-3.521,117.350
5784,-0.0127,0.9863,-0.0605,5.676,-2.319,2.441,93.323,-3.499,117.328
5793,-0.0430,1.0752,0.0942,29.724,-40.833,22.095,93.560,-3.636,116.906
5803,-0.0859,1.1240,0.2148,49.011,-71.411,35.645,93.944,-3.867,116.169
5813,-0.1035,1.1445,0.2661,53.223,-76.660,37.292,94.356,-4.092,115.378
5823,-0.0620,1.1357,0.1748,46.631,-51.819,26.184,94.724,-4.241,114.840
5833,0.0244,1.0728,0.0122,33.447,-9.216,7.263,95.010,-4.274,114.741
5843,0.0991,0.9561,-0.1968,17.273,31.128,-12.085,95.224,-4.197,115.065
5853,0.1973,0.8369,-0.4229,-5.676,60.547,-27.161,95.334,-4.065,115.692
5863,0.2944,0.7705,-0.6006,-26.794,72.876,-35.645,95.345,-3.906,116.455
5873,0.3599,0.7671,-0.6689,-38.208,61.768,-34.180,95.279,-3.779,117.103
5883,0.4077,0.7725,-0.6460,-32.837,34.790,-22.827,95.279,-3.768,117.471
5893,0.4165,0.8325,-0.4937,-18.799,1.526,-6.104,95.345,-3.906,117.493
5903,0.3643,0.8867,-0.2651,-1.404,-33.997,9.521,95.466,-4.147,117.142
5913,0.2749,0.9419,-0.0142,13.367,-64.514,19.714,95.598,-4.400,116.483
5923,0.1567,1.0254,0.2427,20.569,-74.158,24.353,95.669,-4.609,115.719
5933,0.0674,1.0474,0.3379,21.729,-56.580,22.888,95.696,-4.768,115.131
5943,0.0376,1.0327,0.2915,18.433,-18.250,14.771,95.680,-4.867,114.933
5953,0.0264,0.9707,0.1558,11.169,22.095,2.869,95.625,-4.883,115.148
5963,0.0356,0.8887,-0.0391,-0.549,53.589,-7.324,95.543,-4.839,115.692
5973,0.0957,0.9063,-0.2163,-15.930,71.899,-12.085,95.405,-4.801,116.422
5983,0.1475,0.9854,-0.3511,-25.940,72.388,-9.644,95.229,-4.801,117.153
5993,0.1953,1.0522,-0.4395,-22.217,54.382,-2.808,95.136,-4.872,117.702
6003,0.2202,1.0864,-0.4751,-10.132,24.109,5.859,95.202,-5.010,117.938
6013,0.2266,1.0815,-0.4697,-0.305,-6.470,12.024,95.389,-5.180,117.861
6023,0.2002,1.0601,-0.4155,2.991,-37.292,12.512,95.614,-5.317,117.477
6033,0.1191,1.0063,-0.2568,-1.343,-62.622,9.705,95.746,-5.367,116.840
6043,0.0293,0.9619,-0.0034,-16.418,-72.327,7.568,95.592,-5.334,116.109
6053,-0.0249,0.9736,0.2412,-33.447,-60.181,5.432,95.125,-5.257,115.505
6063,-0.0474,1.0195,0.3872,-40.588,-34.607,2.380,94.493,-5.175,115.153
6073,-0.0298,1.0493,0.3955,-39.368,-7.141,-0.122,93.862,-5.103,115.082
6083,0.0054,1.0176,0.2822,-33.691,19.287,-2.136,93.318,-5.043,115.280
6093,0.0386,0.9707,0.1235,-29.053,44.434,-5.432,92.884,-4.988,115.724
6103,0.0845,0.9702,-0.0425,-28.381,58.899,-9.033,92.549,-4.927,116.323
6113,0.1021,0.9995,-0.1470,-21.362,51.392,-8.423,92.351,-4.878,116.840
6123,0.0986,0.9907,-0.2036,-7.568,26.794,0.061,92.346,-4.894,117.109
6133,0.1289,1.0132,-0.2158,9.155,-2.441,12.329,92.532,-5.037,117.081
6143,0.1436,0.9956,-0.2148,32.349,-32.166,23.743,92.983,-5.290,116.746
6153,0.1367,0.9854,-0.1870,46.753,-54.321,29.480,93.571,-5.576,116.186
6163,0.1172,1.0249,-0.0659,41.077,-60.181,28.259,94.037,-5.828,115.565
6173,0.1011,1.0928,0.1069,23.621,-46.021,22.461,94.224,-6.010,115.087
6183,0.0776,1.1689,0.2612,6.348,-22.034,13.245,94.142,-6.103,114.857
6193,0.0415,1.1733,0.3267,-7.507,0.977,2.930,93.873,-6.092,114.862
6203,0.0088,1.1128,0.2856,-17.151,21.545,-6.714,93.494,-5.982,115.087
6213,-0.0283,1.0298,0.1699,-24.841,41.748,-15.198,93.076,-5.784,115.516
6223,-0.0117,0.9854,-0.0181,-30.151,58.594,-21.057,92.697,-5.543,116.115
6233,0.0210,0.9868,-0.2129,-24.597,62.866,-21.362,92.488,-5.317,116.752
6243,0.0415,1.0000,-0.3296,-10.071,50.659,-14.893,92.499,-5.158,117.268
6253,0.0635,0.9990,-0.3579,4.822,28.992,-3.540,92.692,-5.120,117.559
6263,0.0674,1.0757,-0.2749,18.188,1.221,8.240,92.988,-5.186,117.570
6273,0.0239,1.0928,-0.1421,32.471,-29.846,18.066,93.384,-5.306,117.263
6284,-0.0625,1.0664,0.0386,36.194,-52.795,22.278,93.735,-5.411,116.719
6293,-0.1416,1.0610,0.2480,23.987,-54.565,18.005,93.856,-5.427,116.158
6303,-0.1792,1.0928,0.4121,4.578,-36.682,7.690,93.691,-5.334,115.785
6313,-0.1802,1.1460,0.5225,-15.625,-10.498,-4.700,93.263,-5.147,115.686
6323,-0.1665,1.1899,0.5493,-30.334,12.695,-15.320,92.670,-4.878,115.823
6333,-0.1274,1.1997,0.5078,-36.438,32.410,-22.644,92.027,-4.565,116.158
6343,-0.0591,1.1655,0.4106,-36.682,51.208,-27.954,91.406,-4.235,116.680
6353,0.0205,1.0713,0.2437,-33.752,67.444,-32.898,90.879,-3.895,117.361
6363,0.0869,0.9751,0.0381,-30.334,76.111,-35.889,90.494,-3.560,118.130
6373,0.1704,0.9209,-0.1694,-25.269,73.914,-34.607,90.302,-3.290,118.878
6384,0.2607,0.8887,-0.3408,-18.066,63.782,-28.748,90.291,-3.131,119.515
6394,0.3657,0.8740,-0.4692,-11.536,50.049,-20.386,90.428,-3.104,120.020
6404,0.4590,0.8755,-0.5605,-6.287,35.828,-12.695,90.670,-3.186,120.377
6414,0.5073,0.8745,-0.6108,-2.930,21.667,-6.775,90.972,-3.345,120.597
6424,0.4990,0.8721,-0.5830,-2.686,11.963,-3.174,91.263,-3.538,120.718
6434,0.4590,0.8745,-0.4707,-5.310,6.348,-1.099,91.478,-3.741,120.778
6444,0.3721,0.8306,-0.3442,-3.906,2.258,1.160,91.648,-3.939,120.800
6454,0.2983,0.7876,-0.2534,-0.183,0.610,4.700,91.807,-4.147,120.806
6464,0.2607,0.7876,-0.2246,4.700,2.319,9.705,91.994,-4.378,120.828
6474,0.2563,0.8115,-0.2661,10.864,6.592,15.625,92.258,-4.658,120.888
6484,0.2729,0.8467,-0.3325,16.968,10.620,20.020,92.615,-4.982,120.987
6494,0.3032,0.8896,-0.3730,18.127,10.010,21.912,92.983,-5.328,121.075
6504,0.3042,0.9673,-0.3550,10.498,3.296,22.339,93.257,-5.658,121.097
6513,0.2666,1.0713,-0.2559,-0.183,-9.521,22.766,93.367,-5.960,120.992
6523,0.1782,1.1528,-0.0811,-7.812,-24.963,24.475,93.323,-6.213,120.723
6533,0.0796,1.1875,0.0908,-11.902,-36.316,25.635,93.170,-6.422,120.344
6543,-0.0288,1.1846,0.2451,-14.282,-40.649,23.926,92.928,-6.559,119.921
6553,-0.1069,1.1831,0.3828,-16.602,-35.706,18.860,92.598,-6.614,119.553
6563,-0.1396,1.1787,0.4663,-21.973,-24.902,12.207,92.164,-6.592,119.301
6573,-0.1455,1.1924,0.4966,-27.405,-12.329,4.822,91.664,-6.504,119.174
6584,-0.1323,1.2036,0.4512,-27.466,0.305,-1.770,91.170,-6.367,119.174
6593,-0.1055,1.1626,0.3315,-20.447,15.137,-5.249,90.780,-6.202,119.328
6603,-0.0664,1.1045,0.1782,-9.338,30.151,-6.836,90.555,-6.042,119.636
6614,-0.0244,1.0356,0.0005,1.404,39.978,-7.385,90.522,-5.900,120.037
6623,0.0059,0.9321,-0.1929,10.132,37.964,-8.484,90.692,-5.762,120.421
6634,0.0518,0.8643,-0.3418,8.911,24.719,-9.827,90.967,-5.641,120.668
6644,0.1187,0.8906,-0.3921,0.305,4.272,-8.606,91.192,-5.570,120.712
6654,0.1826,0.9380,-0.3740,-3.906,-20.325,-3.540,91.379,-5.581,120.509
6663,0.2295,1.0044,-0.2690,-0.427,-47.852,4.333,91.555,-5.680,120.026
6673,0.2148,1.0391,-0.0566,8.484,-74.463,14.954,91.730,-5.867,119.273
6683,0.1509,1.0518,0.2222,12.939,-87.463,24.292,91.813,-6.103,118.389
6694,0.0840,1.0625,0.4712,11.841,-79.529,24.536,91.758,-6.301,117.581
6704,0.0239,1.0742,0.6138,7.385,-53.528,16.174,91.571,-6.394,117.037
6714,-0.0303,1.0576,0.6484,3.479,-18.982,3.845,91.296,-6.350,116.845
6724,-0.0483,1.0005,0.5342,2.625,18.494,-7.690,91.011,-6.191,117.037
6734,-0.0078,0.9473,0.3193,1.404,55.176,-16.602,90.769,-5.966,117.592
6744,0.0566,0.9102,0.0615,-0.122,85.327,-20.508,90.632,-5.751,118.455
6754,0.1318,0.8999,-0.2017,-0.061,103.333,-19.470,90.648,-5.592,119.493
6764,0.2007,0.8838,-0.4365,7.324,102.417,-14.709,90.873,-5.521,120.526
6774,0.2524,0.8779,-0.5752,14.038,81.116,-7.202,91.258,-5.537,121.339
6784,0.3154,0.9380,-0.5566,17.578,3.662,13.123,91.725,-5.779,121.377
6794,0.2998,0.9536,-0.4351,16.296,-39.734,21.484,92.153,-6.081,120.970
6804,0.2397,1.0078,-0.1826,8.301,-79.041,26.428,92.401,-6.383,120.163
6814,0.1514,1.0508,0.1060,-3.235,-95.093,28.015,92.395,-6.636,119.196
6824,0.0493,1.0698,0.3667,-14.648,-81.543,23.926,92.131,-6.801,118.367
6834,-0.0166,1.0933,0.5444,-20.630,-51.880,13.733,91.703,-6.839,117.839
6844,-0.0474,1.0942,0.5854,-15.869,-18.799,3.052,91.269,-6.773,117.647
6854,-0.0278,1.0488,0.4800,-5.615,15.381,-4.150,90.939,-6.652,117.806
6864,0.0205,0.9980,0.2881,4.028,45.837,-8.057,90.753,-6.526,118.268
6874,0.0820,0.9648,0.0854,7.080,71.838,-8.850,90.687,-6.432,118.993
6884,0.1411,0.9482,-0.1265,4.517,88.013,-9.766,90.703,-6.367,119.877
6894,0.1875,0.9424,-0.3140,-1.831,87.524,-11.169,90.764,-6.306,120.762
6904,0.1992,0.9512,-0.4185,-6.104,66.223,-10.742,90.857,-6.257,121.426
6914,0.1909,0.9473,-0.4263,-3.174,30.640,-5.920,91.027,-6.246,121.740
6924,0.1895,1.0117,-0.3521,1.465,-8.362,3.906,91.236,-6.317,121.652
6934,0.1675,1.0410,-0.2148,10.315,-49.866,18.066,91.494,-6.515,121.146
6944,0.1235,1.0352,-0.0239,19.165,-81.726,31.982,91.774,-6.812,120.317
6954,0.0679,1.0972,0.1958,26.062,-87.524,37.964,92.021,-7.130,119.421
6964,0.0420,1.1641,0.3394,28.503,-67.871,33.936,92.203,-7.388,118.729
6974,0.0376,1.1890,0.3696,27.710,-35.400,22.949,92.329,-7.548,118.361
6984,0.0405,1.1470,0.2954,26.123,1.587,7.935,92.422,-7.570,118.372
6994,0.0571,1.0249,0.1455,15.808,38.147,-7.812,92.422,-7.465,118.762
7004,0.0713,0.8916,-0.0098,-3.540,64.819,-22.827,92.285,-7.234,119.427
7014,0.0952,0.8354,-0.1523,-26.855,78.430,-34.180,92.000,-6.921,120.229
7024,0.1162,0.8164,-0.2695,-44.739,72.388,-37.964,91.631,-6.575,120.970
7034,0.1460,0.8867,-0.3105,-53.894,49.561,-31.250,91.214,-6.306,121.481
7044,0.1885,0.9492,-0.3213,-48.340,14.893,-17.273,90.895,-6.180,121.630
7054,0.2129,0.9521,-0.2974,-26.184,-23.743,-0.793,90.824,-6.229,121.393
7064,0.2144,0.9595,-0.2187,-6.836,-54.749,14.282,90.934,-6.422,120.839
7074,0.1577,0.9063,-0.1177,4.578,-65.308,22.034,91.121,-6.663,120.179
7084,0.0962,0.8198,-0.0234,3.845,-55.359,18.372,91.225,-6.833,119.619
7094,0.0586,0.7939,0.0806,-12.878,-31.250,6.287,91.066,-6.861,119.301
7104,0.0610,0.8047,0.1797,-43.152,-3.052,-4.517,90.505,-6.790,119.273
7114,0.0737,0.8594,0.2524,-70.190,18.616,-9.338,89.621,-6.680,119.460
7124,0.1040,1.0332,0.3267,-85.205,31.982,-8.545,88.566,-6.581,119.784
7134,0.1289,1.2002,0.3237,-75.806,32.532,-5.005,87.643,-6.515,120.108
7144,0.1704,1.3296,0.2578,-45.410,21.545,-1.953,87.083,-6.493,120.328
7154,0.2026,1.3887,0.1392,-8.789,5.310,-1.892,86.962,-6.493,120.377
7164,0.1675,1.2725,-0.0107,25.208,-13.306,-6.104,87.264,-6.449,120.240
7174,0.0747,1.0317,-0.1118,32.104,-27.466,-12.085,87.704,-6.317,119.960
7184,0.0029,0.8833,-0.0967,8.484,-29.907,-20.020,87.907,-6.070,119.652
7194,-0.0059,0.8936,-0.0005,-26.855,-19.653,-28.809,87.682,-5.729,119.443
7204,0.0239,1.0483,0.0913,-54.138,-5.859,-31.555,87.127,-5.372,119.372
7214,0.0874,1.2178,0.1392,-55.481,3.906,-21.851,86.539,-5.142,119.399
7224,0.1392,1.3174,0.1553,-25.330,7.385,-2.808,86.248,-5.120,119.471
7234,0.1797,1.3105,0.1064,19.470,5.798,15.015,86.424,-5.290,119.537
7244,0.1807,1.1279,-0.0015,53.589,2.441,22.522,86.990,-5.548,119.575
7254,0.0996,0.8052,-0.1279,62.012,-0.671,14.893,87.726,-5.713,119.581
7264,0.0010,0.5649,-0.2070,32.104,-3.296,-1.160,88.270,-5.647,119.542
7274,-0.0376,0.5352,-0.1929,-18.860,-5.554,-11.780,88.303,-5.438,119.487
7284,-0.0098,0.6934,-0.1001,-61.035,-6.531,-10.864,87.803,-5.268,119.416
7294,0.0776,1.0210,0.0547,-71.533,-11.353,0.732,87.100,-5.268,119.301
7304,0.1548,1.2583,0.1953,-41.626,-23.560,20.630,86.649,-5.504,119.075
7314,0.1812,1.3398,0.3271,11.108,-37.659,41.748,86.688,-5.955,118.724
7324,0.1919,1.2773,0.3433,60.730,-42.480,52.368,87.209,-6.520,118.328
7334,0.1807,1.1543,0.2534,85.999,-33.875,45.593,88.000,-7.009,118.010
7344,0.1455,1.0615,0.1489,76.843,-15.503,26.733,88.720,-7.289,117.861
7354,0.0889,0.9873,0.0444,48.767,3.357,6.836,89.187,-7.333,117.900
7364,0.0562,0.9326,-0.0537,14.587,20.081,-7.812,89.346,-7.213,118.098
7374,0.0625,0.9131,-0.1650,-17.578,29.785,-17.456,89.247,-7.004,118.400
7384,0.0898,0.9487,-0.2476,-36.377,27.100,-21.179,89.006,-6.773,118.669
7394,0.1182,0.9810,-0.2974,-41.992,13.367,-17.456,88.753,-6.597,118.801
7404,0.1514,1.0146,-0.2710,-38.574,-3.601,-8.179,88.539,-6.531,118.762
7414,0.1738,1.0625,-0.1519,-26.184,-22.400,2.197,88.401,-6.586,118.537
7424,0.1616,1.0972,0.0347,-9.521,-41.321,11.108,88.352,-6.724,118.125
7434,0.1216,1.0869,0.2471,6.897,-53.223,16.113,88.369,-6.894,117.592
7444,0.1035,1.0659,0.4360,17.334,-50.049,16.052,88.396,-7.048,117.092
7454,0.1152,1.0957,0.5591,18.250,-34.180,11.230,88.363,-7.152,116.752
7464,0.1060,1.1230,0.6069,16.296,-13.611,4.761,88.270,-7.180,116.614
7474,0.0723,1.0601,0.5601,13.611,8.911,-1.282,88.132,-7.130,116.708
7484,0.0581,1.0054,0.4727,11.169,31.128,-7.568,87.973,-7.004,117.015
7494,0.0708,0.9639,0.3193,9.094,51.270,-12.512,87.841,-6.828,117.532
7504,0.0889,0.8789,0.0532,14.221,64.575,-15.137,87.891,-6.647,118.174
7514,0.1328,0.8398,-0.2222,21.790,68.909,-16.235,88.198,-6.482,118.861
7524,0.1875,0.7905,-0.4658,28.320,60.303,-14.832,88.731,-6.367,119.460
7534,0.2495,0.7261,-0.6660,25.757,41.687,-12.207,89.379,-6.312,119.877
7544,0.3062,0.7158,-0.7456,14.709,14.099,-10.010,89.978,-6.317,120.020
7554,0.3379,0.7466,-0.7275,-3.052,-19.165,-6.897,90.412,-6.361,119.828
7564,0.3540,0.8359,-0.5898,-23.315,-54.016,-1.587,90.588,-6.471,119.284
7574,0.3140,0.9697,-0.3003,-34.363,-85.571,6.958,90.511,-6.636,118.422
7584,0.2305,1.0620,0.0767,-30.518,-103.821,17.456,90.280,-6.855,117.372
7594,0.1519,1.1089,0.4009,-16.785,-107.117,25.513,90.044,-7.108,116.296
7604,0.0972,1.1318,0.6387,-2.380,-95.215,27.588,89.841,-7.355,115.334
7614,0.0688,1.1133,0.7637,7.935,-71.960,22.827,89.670,-7.537,114.609
7624,0.0601,1.0591,0.7402,11.963,-39.612,12.268,89.495,-7.614,114.214
7634,0.0488,1.0112,0.6040,8.423,-4.150,0.671,89.280,-7.564,114.170
7644,0.0464,0.9771,0.4048,1.587,28.992,-6.897,89.039,-7.443,114.461
7654,0.0762,0.9873,0.1836,-4.456,54.626,-9.399,88.830,-7.311,115.010
7664,0.0908,0.9912,-0.0493,0.244,62.012,-7.568,88.792,-7.202,115.631
7674,0.1304,0.9741,-0.2549,10.010,54.260,-3.357,88.984,-7.158,116.180
7684,0.1807,0.9043,-0.4141,14.099,36.621,0.610,89.330,-7.191,116.548
7694,0.2578,0.8101,-0.5049,5.371,16.479,1.953,89.692,-7.289,116.713
7704,0.3218,0.7319,-0.5264,-19.287,-3.967,-0.183,89.863,-7.410,116.675
7714,0.3628,0.8135,-0.4512,-54.504,-26.367,-3.052,89.648,-7.520,116.411
7724,0.3379,0.9463,-0.3154,-75.623,-51.147,-0.549,89.154,-7.630,115.895
7734,0.2896,1.0273,-0.1523,-75.806,-68.604,8.118,88.588,-7.800,115.203
7744,0.2261,1.0410,0.0117,-59.753,-78.979,17.761,88.110,-8.036,114.412
7754,0.1724,1.0669,0.1592,-40.771,-82.458,24.353,87.759,-8.317,113.588
7764,0.1387,1.0620,0.2378,-26.672,-77.087,26.367,87.501,-8.597,112.819
7774,0.1147,1.0757,0.3130,-22.583,-62.561,22.888,87.231,-8.822,112.198
7785,0.0879,1.0972,0.4380,-26.123,-47.180,15.808,86.852,-8.954,111.725
7794,0.0664,1.1079,0.5430,-25.635,-36.011,10.193,86.424,-9.014,111.368
7804,0.0449,1.0605,0.5801,-17.334,-24.109,8.057,86.039,-9.042,111.132
7814,0.0254,1.0010,0.5200,0.183,-9.399,8.423,85.820,-9.053,111.039
7824,0.0386,0.9395,0.3437,21.667,7.202,10.193,85.864,-9.080,111.121
7834,0.0825,0.8794,0.1255,38.086,22.461,12.207,86.160,-9.146,111.357
7844,0.1465,0.8687,-0.0918,43.091,31.006,12.756,86.638,-9.256,111.676
7854,0.1963,0.8848,-0.2642,36.865,29.480,11.536,87.155,-9.382,111.984
7864,0.2373,0.9219,-0.3618,21.851,15.686,7.935,87.589,-9.492,112.148
7874,0.2661,0.9541,-0.3745,0.488,-7.690,3.662,87.841,-9.586,112.072
7884,0.2773,0.9893,-0.3071,-22.278,-33.020,0.366,87.869,-9.651,111.736
7894,0.2520,1.0317,-0.1714,-40.771,-57.495,-0.732,87.682,-9.706,111.154
7904,0.1948,1.0698,0.0571,-48.279,-76.599,2.380,87.325,-9.767,110.380
7914,0.1348,1.0571,0.3433,-46.509,-82.764,8.301,86.852,-9.860,109.545
7924,0.0967,1.0591,0.6348,-40.405,-73.120,13.184,86.298,-9.976,108.809
7934,0.0864,1.0391,0.8477,-28.076,-49.316,15.259,85.748,-10.096,108.320
7944,0.0806,1.0137,0.8921,-9.521,-14.160,14.587,85.303,-10.179,108.188
7954,0.0854,1.0181,0.7495,10.986,25.696,12.268,85.051,-10.217,108.457
7964,0.1196,1.0239,0.4883,31.738,66.895,10.315,85.040,-10.223,109.144
7974,0.1577,1.0332,0.1948,43.213,98.206,8.362,85.232,-10.201,110.143
7984,0.1821,1.0229,-0.1045,48.523,109.131,4.333,85.627,-10.151,111.253
7994,0.1865,0.9780,-0.3369,43.701,99.731,-0.732,86.116,-10.074,112.264
8004,0.1909,0.9365,-0.4868,23.193,77.026,-5.310,86.523,-9.970,113.038
8014,0.2134,0.9736,-0.5444,-3.052,47.363,-7.874,86.737,-9.871,113.516
8024,0.2334,1.0913,-0.4878,-24.109,11.780,-6.592,86.754,-9.811,113.632
8034,0.2290,1.1587,-0.3774,-28.870,-30.640,-0.488,86.732,-9.833,113.318
8044,0.2085,1.1982,-0.1729,-20.752,-71.838,7.812,86.765,-9.948,112.599
8054,0.1509,1.1523,0.0645,-6.775,-92.285,14.282,86.858,-10.118,111.671
8064,0.1362,1.0732,0.2568,-3.296,-78.857,14.038,86.858,-10.267,110.880
8074,0.1475,1.0391,0.3701,-10.254,-49.500,5.981,86.682,-10.327,110.380
8084,0.1455,1.0234,0.3853,-19.226,-17.517,-4.333,86.347,-10.267,110.198
8094,0.1719,1.0171,0.3447,-30.029,12.878,-12.634,85.880,-10.124,110.319
8104,0.1992,1.0024,0.2632,-32.593,36.438,-17.273,85.391,-9.932,110.676
8114,0.2271,1.0044,0.1558,-27.283,49.194,-17.883,84.996,-9.745,111.160
8124,0.2192,0.9976,0.0615,-13.855,44.312,-15.503,84.798,-9.580,111.594
8134,0.1821,0.9482,0.0181,0.977,27.039,-9.827,84.809,-9.470,111.857
8144,0.1401,0.8789,0.0396,10.620,7.324,-2.869,84.924,-9.432,111.929
8154,0.1152,0.8438,0.1362,11.475,-11.292,3.296,85.018,-9.459,111.819
8164,0.1367,0.8818,0.2705,8.423,-30.029,9.033,85.029,-9.564,111.522
8174,0.1680,0.9473,0.3486,13.916,-38.940,14.465,85.078,-9.739,111.143
8184,0.1973,1.0190,0.3306,25.391,-27.283,18.616,85.237,-9.954,110.885
8194,0.2271,1.0244,0.2163,35.583,2.563,17.700,85.512,-10.146,110.923
8204,0.2344,0.9756,0.0708,37.170,32.776,11.719,85.825,-10.272,111.264
8214,0.2354,0.9365,-0.0547,22.583,53.345,3.784,86.028,-10.305,111.808
8224,0.2310,0.8896,-0.1543,-3.174,59.082,-3.662,86.028,-10.272,112.407
8234,0.2144,0.8711,-0.2036,-26.917,48.218,-10.437,85.847,-10.168,112.885
8244,0.2109,0.9097,-0.1797,-38.086,23.499,-12.878,85.583,-10.047,113.115
8254,0.2114,0.9194,-0.1235,-32.898,-7.446,-7.385,85.391,-10.009,113.033
8265,0.2437,0.8936,-0.0342,-16.602,-37.903,3.235,85.364,-10.124,112.654
8274,0.2583,0.8325,0.0703,3.601,-64.331,15.137,85.507,-10.393,112.011
8285,0.2749,0.8281,0.2046,14.404,-74.097,24.170,85.688,-10.767,111.281
8295,0.2920,0.8794,0.2788,15.137,-59.387,27.039,85.814,-11.146,110.698
8305,0.2856,0.9268,0.2671,12.878,-31.982,23.987,85.880,-11.459,110.391
8315,0.2705,0.9731,0.2017,6.958,-4.333,17.700,85.880,-11.673,110.363
8324,0.2539,1.0049,0.1133,-3.662,17.700,11.353,85.781,-11.799,110.550
8334,0.2505,1.0293,0.0273,-18.005,31.982,5.066,85.562,-11.843,110.880
8344,0.2632,1.0625,-0.0542,-34.180,35.767,-1.587,85.226,-11.821,111.242
8354,0.2827,1.1074,-0.1138,-46.204,24.841,-6.836,84.825,-11.755,111.489
8364,0.2871,1.1353,-0.1377,-48.584,2.136,-8.240,84.463,-11.700,111.506
8374,0.2852,1.1553,-0.1343,-43.579,-22.644,-6.714,84.199,-11.673,111.270
8384,0.2358,1.1606,-0.0659,-29.785,-48.340,-4.089,84.095,-11.678,110.770
8394,0.1538,1.1133,0.0820,-8.362,-72.815,0.000,84.177,-11.717,110.034
8405,0.0786,1.0503,0.2998,4.517,-85.693,4.700,84.293,-11.772,109.166
8415,0.0220,1.0146,0.5273,6.409,-80.933,6.470,84.304,-11.810,108.353
8425,0.0020,1.0254,0.6914,4.761,-58.350,4.883,84.188,-11.799,107.765
8435,0.0142,1.0684,0.7573,7.996,-29.297,1.404,84.029,-11.728,107.468
8445,0.0435,1.0952,0.6836,15.259,0.488,-1.282,83.919,-11.618,107.468
8455,0.0825,1.0801,0.4990,23.865,30.273,-3.174,83.908,-11.475,107.776
8465,0.1313,1.0454,0.2578,27.954,56.824,-5.066,83.996,-11.321,108.347
8475,0.1758,1.0029,0.0200,28.137,71.167,-7.629,84.183,-11.162,109.056
8485,0.1968,0.9517,-0.1846,24.475,70.435,-10.498,84.463,-10.992,109.764
8495,0.2173,0.9204,-0.2993,15.320,56.641,-12.390,84.743,-10.833,110.325
8505,0.2393,0.9141,-0.3335,3.845,34.424,-12.939,84.968,-10.701,110.660
8515,0.2651,0.9370,-0.3066,-4.456,8.423,-11.902,85.144,-10.618,110.737
8525,0.2803,0.9287,-0.2168,-9.338,-17.944,-8.850,85.265,-10.607,110.544
8535,0.2886,0.9121,-0.0830,-13.916,-44.922,-5.066,85.309,-10.662,110.089
8545,0.2549,0.9360,0.1123,-19.043,-64.392,-2.319,85.221,-10.734,109.429
8555,0.2100,0.9819,0.3311,-24.597,-65.735,-0.305,84.963,-10.794,108.765
8565,0.1855,1.0161,0.4961,-25.696,-46.326,0.610,84.584,-10.827,108.298
8575,0.1685,1.0229,0.5850,-15.930,-19.836,-0.427,84.221,-10.811,108.094
8585,0.1333,0.9697,0.5366,4.272,5.432,-0.977,84.023,-10.756,108.149
8595,0.1372,0.9023,0.3726,24.536,30.212,-0.366,84.045,-10.695,108.452
8605,0.1514,0.8330,0.1567,38.330,52.612,0.671,84.276,-10.640,108.984
8615,0.1929,0.8286,-0.0469,41.321,67.078,1.831,84.650,-10.618,109.666
8625,0.2515,0.8823,-0.2124,37.170,65.186,2.258,85.089,-10.629,110.330
8635,0.2998,0.9312,-0.3110,29.358,45.227,1.892,85.529,-10.673,110.792
8645,0.3320,1.0132,-0.3110,18.677,16.846,1.892,85.897,-10.745,110.962
8655,0.3359,1.0796,-0.2397,9.583,-11.963,2.258,86.182,-10.838,110.841
8665,0.2866,1.0879,-0.0981,7.568,-41.321,3.784,86.424,-10.942,110.424
8675,0.2051,1.0386,0.0996,9.583,-64.026,6.409,86.622,-11.047,109.781
8685,0.1343,0.9741,0.2554,9.888,-68.115,8.850,86.737,-11.140,109.089
8695,0.1021,0.9326,0.3574,6.409,-50.476,7.935,86.721,-11.195,108.583
8705,0.1157,0.9395,0.3853,0.793,-21.729,3.967,86.578,-11.195,108.364
8715,0.1489,0.9639,0.3296,-3.174,6.836,0.427,86.380,-11.168,108.435
8725,0.1880,1.0088,0.2412,-6.775,31.555,-1.221,86.155,-11.129,108.754
8735,0.2314,1.0400,0.1191,-8.545,49.866,-1.709,85.946,-11.091,109.259
8745,0.2739,1.0635,-0.0190,-6.897,58.289,-3.662,85.814,-11.047,109.847
8755,0.2817,1.0322,-0.1489,-5.249,51.880,-7.812,85.787,-10.975,110.369
8765,0.2451,0.9458,-0.1919,-8.850,31.555,-11.841,85.798,-10.865,110.682
8775,0.1851,0.8916,-0.1313,-19.043,6.653,-14.038,85.726,-10.728,110.737
8785,0.1636,0.8481,-0.0132,-31.494,-17.883,-13.306,85.501,-10.613,110.550
8795,0.1494,0.8579,0.1318,-40.649,-38.757,-9.644,85.128,-10.541,110.149
8805,0.1372,0.9082,0.2837,-40.894,-46.143,-4.456,84.683,-10.514,109.677
8815,0.1509,0.9985,0.3682,-32.654,-33.203,1.038,84.271,-10.530,109.341
8825,0.1753,1.0552,0.3452,-18.738,-6.226,5.005,83.974,-10.569,109.281
8835,0.1899,1.0811,0.2700,-5.249,21.667,6.042,83.798,-10.596,109.506
8845,0.2104,1.0605,0.1450,2.014,43.884,4.211,83.721,-10.596,109.957
8855,0.2285,1.0156,0.0352,-2.625,53.528,-0.671,83.639,-10.552,110.495
8865,0.2305,0.9941,-0.0405,-17.334,46.631,-7.141,83.474,-10.453,110.962
8875,0.2129,1.0317,-0.0737,-30.640,26.489,-11.230,83.227,-10.327,111.215
8885,0.1982,1.0737,-0.0615,-31.128,-1.099,-10.986,83.024,-10.223,111.193
8895,0.1812,1.1025,-0.0029,-15.747,-31.494,-6.287,82.996,-10.190,110.863
8905,0.1514,1.0483,0.0898,9.949,-58.716,1.648,83.221,-10.256,110.275
8915,0.1289,0.9824,0.2441,27.649,-70.190,8.972,83.546,-10.399,109.578
8925,0.1289,0.9697,0.3711,32.166,-58.533,10.925,83.820,-10.536,109.001
8935,0.1460,0.9644,0.4297,28.687,-26.917,7.996,83.974,-10.618,108.737
8945,0.1685,0.9907,0.4189,21.301,10.681,1.953,83.996,-10.607,108.847
8955,0.1973,0.9956,0.3228,12.085,48.340,-4.517,83.908,-10.514,109.330
8965,0.2183,1.0059,0.2002,-1.099,75.073,-10.071,83.710,-10.349,110.078
8975,0.2310,1.0044,0.0737,-11.108,84.106,-14.404,83.474,-10.146,110.912
8985,0.2305,0.9912,-0.0430,-15.015,72.754,-16.968,83.293,-9.926,111.627
8995,0.2222,0.9971,-0.1128,-15.320,47.546,-15.930,83.194,-9.739,112.088
9005,0.2231,1.0083,-0.1592,-11.108,19.165,-11.597,83.210,-9.630,112.264
9015,0.2236,1.0059,-0.1675,-1.160,-12.512,-6.653,83.381,-9.602,112.132
9025,0.2031,0.9634,-0.1226,9.888,-48.279,-1.404,83.699,-9.668,111.643
9035,0.1743,0.9248,0.0190,12.939,-77.637,3.418,84.007,-9.794,110.863
9045,0.1484,0.9063,0.2207,10.193,-89.111,3.845,84.183,-9.915,109.968
9055,0.1196,0.9351,0.3960,5.737,-73.486,3.723,84.194,-9.998,109.232
9065,0.1226,0.9482,0.4751,4.883,-39.490,3.601,84.106,-10.036,108.836
9075,0.1421,0.9722,0.4536,9.827,-4.883,3.418,84.018,-10.052,108.792
9085,0.1514,0.9766,0.3496,18.127,23.743,3.357,84.018,-10.042,109.034
9095,0.1772,0.9678,0.2261,21.118,46.387,4.150,84.073,-10.036,109.506
9105,0.1997,0.9805,0.1030,19.104,58.777,4.700,84.161,-10.036,110.105
9115,0.2148,0.9990,-0.0142,16.479,59.387,4.822,84.282,-10.047,110.709
9125,0.2212,0.9985,-0.0986,14.343,49.683,4.456,84.452,-10.063,111.215
9135,0.2124,1.0137,-0.1416,13.245,32.166,3.906,84.661,-10.085,111.544
9145,0.1938,1.0874,-0.1040,14.526,12.085,3.418,84.891,-10.107,111.671
9155,0.1636,1.1626,-0.0176,28.076,-5.432,3.357,85.237,-10.129,111.621
9165,0.1270,1.1597,0.0752,51.331,-15.015,4.089,85.781,-10.140,111.473
9175,0.1167,1.0938,0.1436,69.885,-11.414,3.845,86.462,-10.146,111.357
9185,0.1274,1.0522,0.1880,72.266,2.441,-0.305,87.105,-10.107,111.385
9195,0.1489,1.0591,0.2109,64.209,16.846,-8.423,87.627,-9.992,111.550
9205,0.1733,1.0410,0.1777,48.340,29.419,-17.822,87.984,-9.800,111.841
9215,0.1895,1.0317,0.1167,30.762,38.391,-26.733,88.182,-9.525,112.220
9225,0.1978,1.0557,0.0562,15.686,45.898,-34.119,88.248,-9.185,112.676
9235,0.2002,1.0864,0.0068,8.118,51.208,-37.109,88.264,-8.817,113.181
9245,0.2012,1.0952,-0.0425,11.841,53.894,-34.302,88.341,-8.476,113.714
9255,0.2017,1.0918,-0.0820,25.452,54.260,-27.283,88.572,-8.207,114.258
9265,0.2041,1.0679,-0.1074,47.424,50.110,-17.029,89.044,-8.053,114.758
9275,0.2095,1.0337,-0.1260,74.463,42.664,-4.089,89.797,-8.042,115.186
9286,0.2153,0.9941,-0.1377,101.074,32.654,10.376,90.835,-8.179,115.521
9295,0.2285,0.9644,-0.1416,121.887,20.935,25.024,92.087,-8.481,115.724
9305,0.2388,0.9443,-0.1313,137.573,6.897,37.781,93.499,-8.915,115.779
9315,0.2241,0.9087,-0.1196,151.733,-10.376,46.570,95.059,-9.415,115.648
9325,0.1919,0.8774,-0.1118,166.687,-30.151,52.856,96.790,-9.943,115.296
9335,0.1528,0.8652,-0.0791,177.673,-49.927,59.998,98.630,-10.470,114.719
9345,0.1221,0.8848,-0.0117,182.190,-69.702,68.237,100.503,-11.008,113.917
9355,0.1304,0.9380,0.0410,185.181,-80.688,74.829,102.387,-11.563,112.967
9365,0.1543,0.9858,0.0464,185.913,-75.378,75.562,104.255,-12.107,112.050
9375,0.1797,1.0049,0.0283,177.612,-53.040,66.833,106.002,-12.596,111.357
9385,0.1895,0.9077,-0.0317,151.184,-17.090,45.959,107.419,-12.980,111.061
9395,0.1494,0.7832,-0.1426,100.586,22.217,12.817,108.309,-13.145,111.237
9405,0.1221,0.6699,-0.2607,28.564,58.777,-27.466,108.468,-13.035,111.901
9415,0.1094,0.5630,-0.3633,-58.105,89.050,-65.613,107.798,-12.656,112.978
9425,0.1455,0.5776,-0.3994,-148.132,111.511,-96.558,106.199,-12.074,114.373
9435,0.2065,0.8540,-0.3906,-207.153,108.154,-114.258,103.942,-11.294,115.757
9445,0.2290,1.0479,-0.3511,-208.435,78.125,-103.943,101.728,-10.486,116.790
9455,0.2656,1.2402,-0.3682,-175.049,37.170,-68.909,99.948,-9.904,117.301
9465,0.2583,1.3711,-0.3193,-109.375,-14.221,-21.912,98.915,-9.668,117.197
9475,0.2739,1.2031,-0.2959,-31.189,-66.467,20.813,98.773,-9.800,116.499
9485,0.3008,0.9438,-0.2192,33.875,-106.445,43.823,99.338,-10.140,115.362
9495,0.2910,0.7793,-0.1558,59.326,-121.582,41.931,100.173,-10.453,114.077
9505,0.1826,0.6353,-0.1289,39.551,-106.262,22.827,100.778,-10.547,112.967
9515,0.1108,0.7686,-0.0601,-20.264,-72.937,1.465,100.646,-10.399,112.236
9525,0.1167,1.0508,0.0332,-57.922,-39.185,-15.625,100.009,-10.135,111.874
9535,0.1436,1.1885,0.0728,-59.998,-13.794,-19.165,99.300,-9.893,111.769
9545,0.1724,1.2007,0.0737,-50.659,10.315,-8.911,98.652,-9.805,111.890
9555,0.1675,1.1387,0.0684,-22.766,36.865,5.981,98.245,-9.904,112.253
9565,0.1577,1.0063,-0.0112,6.836,62.622,19.531,98.130,-10.173,112.852
9575,0.1548,0.8633,-0.1108,26.733,77.698,26.428,98.256,-10.541,113.593
9585,0.1699,0.7739,-0.2051,24.475,79.163,25.391,98.427,-10.915,114.357
9595,0.2217,0.8281,-0.2549,2.502,72.815,17.456,98.410,-11.228,115.060
9605,0.2773,0.9692,-0.2832,-19.714,54.688,5.310,98.185,-11.398,115.604
9615,0.2944,1.1196,-0.2822,-29.785,22.217,-5.615,97.905,-11.404,115.840
9625,0.2935,1.1934,-0.2871,-26.855,-9.949,-11.780,97.712,-11.294,115.752
9635,0.2573,1.1577,-0.2842,-18.188,-36.194,-12.573,97.663,-11.135,115.406
9645,0.2090,1.0732,-0.2842,-11.414,-52.490,-8.179,97.718,-10.981,114.884
9655,0.1636,1.0020,-0.2729,-7.202,-61.890,-0.671,97.839,-10.871,114.263
9665,0.1392,0.9126,-0.2368,-6.348,-66.223,6.958,97.971,-10.827,113.582
9675,0.1362,0.8828,-0.1846,-8.789,-65.186,10.315,98.047,-10.816,112.912
9685,0.1499,0.9258,-0.1157,-12.268,-55.359,9.155,98.026,-10.811,112.341
9695,0.1611,0.9854,-0.0337,-13.916,-38.574,6.470,97.899,-10.805,111.945
9705,0.1782,1.0493,0.0488,-14.160,-20.996,4.333,97.690,-10.805,111.725
9715,0.1846,1.0928,0.1104,-10.559,-6.958,3.418,97.465,-10.816,111.649
9725,0.1841,1.0854,0.1152,-2.930,3.235,2.991,97.300,-10.838,111.682
9735,0.1748,1.0454,0.0728,6.775,9.399,0.305,97.234,-10.838,111.775
9745,0.1602,0.9961,0.0029,15.564,11.475,-3.418,97.295,-10.805,111.896
9755,0.1475,0.9453,-0.0776,20.874,10.498,-5.310,97.454,-10.745,112.006
9765,0.1421,0.9063,-0.1582,24.109,6.226,-4.944,97.701,-10.684,112.077
9775,0.1553,0.8809,-0.2256,23.499,0.793,-3.052,97.998,-10.646,112.088
9786,0.1807,0.8726,-0.2563,17.700,-5.493,-1.465,98.267,-10.629,112.033
9795,0.2007,0.9155,-0.2432,7.751,-12.451,-1.465,98.432,-10.613,111.912
9805,0.2144,0.9883,-0.1841,-2.380,-18.188,-2.258,98.465,-10.580,111.731
9815,0.2021,1.0400,-0.1128,-10.681,-18.921,-2.319,98.372,-10.530,111.544
9825,0.1738,1.0503,-0.0488,-15.564,-15.015,-3.296,98.185,-10.464,111.401
9835,0.1587,0.9912,-0.0747,-13.794,-8.911,-6.409,98.026,-10.377,111.319
9845,0.1543,0.9229,-0.1523,-10.925,-3.113,-11.047,97.932,-10.256,111.302
9855,0.1680,0.8872,-0.2373,-10.071,-4.456,-14.160,97.905,-10.107,111.281
9865,0.1860,0.8535,-0.3125,-9.277,-19.104,-15.625,97.965,-9.943,111.110
9875,0.2080,0.8931,-0.3335,-12.939,-42.542,-14.099,98.031,-9.772,110.698
9885,0.2187,1.0195,-0.2671,-15.991,-68.298,-8.606,98.053,-9.613,110.028
9895,0.2134,1.1689,-0.0962,-7.324,-96.619,0.488,98.108,-9.492,109.056
9905,0.1704,1.2324,0.0679,16.785,-118.652,11.780,98.361,-9.426,107.847
9915,0.1187,1.1777,0.1299,43.884,-112.000,22.339,98.833,-9.443,106.694
9925,0.0952,1.0649,0.1294,58.105,-82.886,24.658,99.393,-9.514,105.820
9935,0.0723,0.9468,0.0586,59.875,-49.133,18.982,99.943,-9.569,105.298
9945,0.0645,0.8745,-0.0542,51.392,-19.104,11.841,100.421,-9.597,105.090
9955,0.1064,0.8628,-0.1748,35.522,2.686,6.104,100.783,-9.635,105.106
9965,0.1484,0.8594,-0.2886,22.949,7.812,0.854,101.074,-9.657,105.178
9975,0.1763,0.9072,-0.3755,13.062,-1.099,-0.732,101.321,-9.651,105.172
9985,0.2197,1.0371,-0.4131,5.127,-17.456,4.150,101.503,-9.673,104.991
9995,0.2451,1.1714,-0.4199,7.019,-41.443,14.221,101.728,-9.745,104.546
10005,0.2505,1.1909,-0.4106,15.869,-72.815,26.611,102.090,-9.871,103.771
10015,0.2358,1.1265,-0.3188,18.433,-109.070,35.889,102.508,-10.009,102.612
10025,0.1826,1.0508,-0.2007,9.583,-125.305,39.734,102.816,-10.118,101.283
10035,0.1123,1.0103,-0.1113,-8.118,-101.379,35.461,102.854,-10.201,100.195
10045,0.0879,0.9619,-0.0503,-23.987,-56.580,23.132,102.629,-10.250,99.586
10055,0.0840,0.9575,-0.0083,-32.837,-15.808,7.751,102.211,-10.239,99.410
10065,0.0840,0.9961,-0.0098,-35.767,16.418,-2.502,101.711,-10.195,99.580
10075,0.1245,1.0503,-0.0415,-33.386,42.542,-5.371,101.212,-10.190,100.014
10085,0.1890,1.1274,-0.0923,-21.301,59.509,-2.319,100.827,-10.278,100.613
10095,0.2217,1.1494,-0.1567,3.174,68.542,6.042,100.712,-10.470,101.283
10105,0.2241,1.1157,-0.2148,37.476,75.195,18.555,100.953,-10.794,102.003
10115,0.2217,1.0459,-0.2607,70.618,81.726,31.921,101.547,-11.266,102.755
10126,0.2192,0.9946,-0.2812,94.055,86.487,42.603,102.365,-11.860,103.530
10136,0.2168,0.9819,-0.2974,109.985,86.304,49.561,103.348,-12.524,104.282
10146,0.2222,1.0000,-0.3169,123.962,81.360,54.199,104.469,-13.222,104.969
10156,0.2593,1.0439,-0.3384,133.606,76.355,58.105,105.688,-13.969,105.579
10166,0.3442,1.0938,-0.3628,139.221,72.693,61.951,106.963,-14.782,106.128
10176,0.4360,1.1626,-0.3853,145.203,68.665,65.186,108.292,-15.645,106.611
10186,0.5220,1.2319,-0.3872,156.006,64.270,68.665,109.720,-16.556,107.018
10196,0.5664,1.2075,-0.4087,174.438,58.472,72.571,111.346,-17.501,107.336
10206,0.5820,1.0747,-0.4414,193.542,52.979,72.571,113.203,-18.452,107.578
10216,0.5649,0.9058,-0.4873,201.660,46.143,65.308,115.192,-19.330,107.754
10226,0.4937,0.6377,-0.5415,191.223,38.696,49.377,117.191,-20.045,107.902
10236,0.3491,0.2554,-0.5562,151.245,26.917,21.851,119.015,-20.457,108.051
10246,0.1802,0.0034,-0.5308,76.843,5.859,-18.494,120.333,-20.308,108.199
10255,0.0776,-0.1006,-0.4927,-23.193,-22.217,-63.477,-168.459,-19.649,108.336
10265,0.0825,-0.0439,-0.4155,-135.742,-52.246,-102.051,-170.211,-19.341,109.512
10276,0.2061,0.2163,-0.3022,-238.281,-83.740,-125.000,144.410,-18.726,110.967
10286,0.3271,0.6318,-0.1665,-301.636,-110.168,-115.967,141.290,-17.155,111.286
10295,0.3809,1.0586,-0.0552,-313.416,-121.521,-72.693,138.214,-15.754,111.083
10305,0.3789,1.3784,0.0449,-255.005,-115.784,-19.531,135.840,-14.760,110.435
10315,0.3589,1.4595,0.0283,-142.639,-98.450,13.367,134.621,-14.150,109.627
10325,0.3276,1.3789,-0.0156,-35.522,-73.181,15.320,134.423,-13.744,108.979
10335,0.2705,1.2407,-0.0884,29.541,-46.692,-1.892,134.797,-13.403,108.649
10345,0.1729,1.0396,-0.1943,50.598,-28.198,-22.461,135.313,-13.046,108.605
10355,0.0688,0.8574,-0.2715,26.306,-17.212,-38.879,135.538,-12.651,108.765
10365,0.0142,0.8018,-0.2422,-35.706,-7.751,-50.781,135.115,-12.239,109.078
10375,-0.0146,0.9014,-0.0537,-107.910,3.113,-56.580,133.945,-11.860,109.512
10385,-0.0229,1.0625,0.1006,-156.738,8.057,-59.082,132.275,-11.492,109.990
10395,0.0176,1.1943,0.1001,-150.024,11.597,-61.829,130.677,-11.113,110.506
10405,0.0503,1.2563,-0.0142,-106.750,23.193,-65.552,129.490,-10.767,111.116
10415,0.0796,1.2690,-0.1860,-39.429,46.387,-69.946,128.941,-10.519,111.934
10426,0.0918,1.1792,-0.3521,32.227,80.139,-75.134,129.062,-10.443,113.049
10436,0.1323,1.0137,-0.5059,84.290,109.802,-80.566,129.655,-10.508,114.434
10446,0.1465,0.8091,-0.5986,107.727,119.995,-83.374,130.463,-10.629,115.911
10456,0.1436,0.5869,-0.6367,91.431,105.225,-80.444,131.127,-10.701,117.257
10466,0.1304,0.5962,-0.4902,39.673,63.232,-73.547,131.342,-10.563,118.235
10476,0.1719,0.8091,-0.2573,-22.034,6.042,-69.519,131.028,-10.080,118.751
10486,0.2026,1.0264,-0.1851,-42.847,-36.316,-66.711,130.567,-9.338,118.916
10496,0.2524,1.2593,-0.2222,-27.466,-44.067,-58.411,130.287,-8.608,118.960
10506,0.2686,1.2998,-0.2783,8.728,-21.484,-43.457,130.358,-8.141,119.081
10516,0.2476,1.1206,-0.3789,33.691,18.188,-29.419,130.644,-8.031,119.410
10526,0.2349,0.9141,-0.3926,32.471,50.232,-24.414,130.897,-8.174,119.960
10536,0.2100,0.6914,-0.2720,-7.263,51.697,-30.212,130.737,-8.284,120.553
10546,0.1196,0.6748,-0.0503,-69.031,15.442,-45.837,129.985,-8.036,120.976
10556,0.0278,0.7881,0.1543,-114.685,-31.616,-60.913,128.820,-7.366,121.124
10566,-0.0264,0.9478,0.2373,-120.056,-61.035,-60.059,127.634,-6.520,121.025
10576,-0.0283,1.1157,0.1978,-84.412,-60.974,-38.757,126.815,-5.839,120.778
10586,-0.0073,1.1182,0.0132,-17.090,-31.860,-7.019,126.667,-5.592,120.564
10596,0.0483,0.9253,-0.2397,43.762,18.555,22.156,127.101,-5.878,120.580
10606,0.1309,0.7896,-0.4150,69.336,64.148,33.203,127.766,-6.531,120.894
10616,0.1509,0.6646,-0.5122,54.565,76.904,23.743,128.254,-7.191,121.355
10626,0.1260,0.6265,-0.4492,-0.671,55.054,6.531,128.199,-7.581,121.750
10636,0.0913,0.8667,-0.2144,-70.313,13.184,-9.033,127.474,-7.592,121.915
10646,0.0703,1.1816,0.0288,-108.948,-28.809,-17.517,126.403,-7.278,121.789
10656,0.0410,1.3950,0.2153,-91.919,-58.960,-14.648,125.535,-6.812,121.399
10666,-0.0132,1.4282,0.2603,-33.997,-65.308,0.793,125.255,-6.438,120.861
10676,-0.0566,1.1943,0.1060,39.307,-35.706,19.104,125.695,-6.389,120.454
10686,-0.0083,0.9141,-0.1299,83.313,16.113,26.062,126.530,-6.696,120.432
10696,0.0332,0.7026,-0.3403,85.510,59.570,16.968,127.343,-7.185,120.817
10706,0.0352,0.5566,-0.5044,45.959,78.369,0.061,127.722,-7.663,121.443
10716,0.0630,0.5879,-0.5557,-27.100,70.496,-16.357,127.365,-7.965,122.108
10726,0.0732,0.7827,-0.4429,-97.473,37.903,-27.039,126.321,-7.976,122.574
10736,0.0605,1.1514,-0.1890,-133.484,-6.714,-23.499,124.975,-7.751,122.662
10746,0.0615,1.3560,0.0254,-107.544,-50.415,-6.592,123.953,-7.405,122.283
10756,0.0015,1.3276,0.1479,-39.673,-78.979,16.846,123.651,-7.103,121.525
10766,-0.0508,1.1875,0.1543,27.649,-71.411,34.424,124.025,-6.993,120.734
10776,-0.0083,1.0234,0.0483,69.031,-33.813,39.612,124.777,-7.059,120.229
10786,0.0435,0.9263,-0.1016,72.937,13.428,33.203,125.228,-7.361,120.152
10796,0.1143,0.8921,-0.2236,39.429,54.382,18.982,125.359,-7.822,120.487
10806,0.1357,0.9507,-0.2681,-18.982,73.730,1.770,124.898,-8.256,121.086
10816,0.1084,1.0093,-0.3042,-71.899,75.134,-15.747,123.904,-8.531,121.800
10826,0.0664,1.1499,-0.2671,-95.520,58.533,-28.015,122.651,-8.569,122.448
10836,-0.0068,1.1436,-0.2007,-83.618,29.053,-27.344,121.542,-8.410,122.844
10846,-0.0322,1.1206,-0.0874,-47.546,-1.099,-15.869,120.789,-8.168,122.921
10856,-0.0322,1.0317,-0.0190,0.671,-30.457,-1.038,120.531,-7.905,122.657
10866,-0.0498,0.9546,0.0063,46.570,-61.890,14.343,120.767,-7.608,122.047
10876,-0.0391,0.9814,0.0044,73.120,-71.594,27.954,121.284,-7.383,121.284
10886,0.0391,1.0815,-0.0469,70.129,-47.668,33.691,121.761,-7.372,120.696
10896,0.1064,1.1875,-0.1367,48.523,-8.545,26.184,122.020,-7.526,120.482
10906,0.1289,1.2056,-0.1763,12.146,29.968,9.949,121.877,-7.751,120.685
10916,0.0454,1.0439,-0.1851,-23.132,52.002,-11.353,121.360,-7.872,121.190
10926,-0.0308,0.9248,-0.1694,-61.035,58.899,-29.419,120.454,-7.833,121.855
10936,-0.0728,0.9014,-0.1265,-77.759,52.063,-34.241,119.377,-7.674,122.481
10946,-0.0757,0.8896,-0.0991,-59.448,34.241,-23.193,118.504,-7.520,122.899
10956,-0.0391,0.8921,-0.0771,-13.306,11.597,-4.578,118.120,-7.432,123.025
10966,0.0464,0.9419,-0.0796,40.039,-16.174,14.893,118.312,-7.443,122.811
10976,0.1514,1.0278,-0.0845,75.623,-49.866,29.480,118.900,-7.471,122.223
10986,0.2144,1.0991,-0.0913,84.656,-65.247,35.583,119.592,-7.504,121.476
10996,0.2021,1.0356,-0.1528,61.279,-48.218,27.832,120.059,-7.542,120.916
11006,0.1133,0.8838,-0.1963,16.052,-14.648,8.850,120.064,-7.542,120.740
11016,-0.0112,0.8164,-0.1533,-35.522,19.958,-12.207,119.487,-7.454,120.976
11026,-0.0322,0.8657,-0.1030,-77.209,44.861,-23.682,118.433,-7.372,121.487
11036,0.0083,0.9717,-0.0957,-85.693,48.889,-19.592,117.290,-7.361,122.014
11046,0.0562,1.1011,-0.0684,-53.589,33.569,-5.798,116.477,-7.421,122.344
11056,0.1143,1.1211,-0.0488,2.502,9.521,10.620,116.257,-7.537,122.382
11066,0.1738,1.0532,-0.0850,53.833,-16.235,24.414,116.609,-7.701,122.124
11076,0.1675,1.0005,-0.1333,76.172,-43.701,29.968,117.241,-7.789,121.597
11086,0.1016,0.9077,-0.1709,65.979,-58.411,27.893,117.817,-7.756,120.943
11096,0.0352,0.8604,-0.2246,32.166,-45.776,18.616,118.070,-7.652,120.449
11106,0.0410,0.9697,-0.2144,-11.292,-18.433,7.385,117.828,-7.581,120.251
11116,0.0396,1.1240,-0.1445,-40.771,6.165,0.793,117.213,-7.559,120.300
11126,0.0781,1.2070,-0.0596,-51.392,22.766,-1.953,116.433,-7.608,120.515
11136,0.0767,1.1616,-0.0361,-40.222,26.306,-3.540,115.752,-7.652,120.767
11146,0.0093,1.0752,-0.0381,-14.282,21.057,-2.747,115.351,-7.646,120.970
11156,-0.0356,0.9155,-0.0674,12.817,12.878,1.038,115.252,-7.614,121.080
11166,-0.0181,0.8247,-0.0835,28.687,1.160,7.202,115.340,-7.592,121.064
11176,0.0503,0.8228,-0.0991,31.006,-13.916,13.733,115.488,-7.614,120.877
11186,0.0850,0.8926,-0.1196,25.513,-26.428,17.761,115.604,-7.641,120.558
11196,0.1338,1.0508,-0.1304,14.282,-22.583,18.311,115.598,-7.701,120.273
11206,0.1992,1.2622,-0.1079,-0.244,-7.202,15.442,115.406,-7.822,120.141
11216,0.2056,1.3696,-0.0635,-11.841,9.644,8.118,115.054,-7.943,120.190
11226,0.1479,1.2397,-0.0278,-21.851,23.499,-2.930,114.571,-8.004,120.421
11236,-0.0039,0.9473,-0.0439,-31.128,31.616,-15.320,113.994,-7.910,120.773
11246,-0.0952,0.7681,-0.0972,-39.185,36.438,-22.217,113.379,-7.707,121.201
11256,-0.0645,0.7593,-0.1523,-37.476,32.227,-18.250,112.835,-7.548,121.575
11266,-0.0132,0.7490,-0.2578,-13.672,17.517,-6.775,112.637,-7.465,121.761
11276,0.1025,0.8706,-0.3027,13.794,-0.305,6.348,112.747,-7.509,121.734
11287,0.2148,1.1011,-0.2510,28.809,-22.217,17.822,112.967,-7.619,121.459
11296,0.2710,1.2949,-0.1597,33.569,-39.551,23.560,113.198,-7.723,120.998
11306,0.2739,1.3682,-0.0430,22.461,-39.001,19.226,113.269,-7.784,120.558
11316,0.2026,1.2520,0.0752,-4.700,-22.034,3.906,112.983,-7.745,120.339
11326,0.0010,1.0059,0.1216,-36.499,-0.061,-16.418,112.313,-7.520,120.405
11336,-0.1367,0.8560,0.0884,-63.171,24.292,-31.677,111.363,-7.158,120.751
11346,-0.1631,0.7427,-0.0728,-70.007,43.823,-33.386,110.446,-6.812,121.289
11356,-0.1099,0.6699,-0.3101,-48.523,49.011,-22.217,109.946,-6.619,121.827
11366,0.0132,0.6865,-0.4663,-8.850,36.377,-5.493,109.957,-6.636,122.190
11376,0.2129,0.8921,-0.4395,30.273,8.972,13.245,110.314,-6.844,122.228
11386,0.3691,1.0864,-0.2808,55.847,-26.367,32.532,110.852,-7.169,121.866
11396,0.3677,1.2412,-0.0464,62.256,-62.256,43.518,111.374,-7.443,121.124
11406,0.2681,1.3965,0.1963,46.997,-70.801,38.208,111.649,-7.575,120.322
11416,0.1543,1.3955,0.2935,22.400,-46.021,20.569,111.599,-7.581,119.811
11426,0.0342,1.2476,0.2539,-0.793,-6.836,-2.625,111.270,-7.471,119.756
11436,-0.1221,0.9746,0.0903,-17.700,34.790,-24.109,110.775,-7.229,120.174
11446,-0.1621,0.8140,-0.1118,-36.255,67.444,-36.133,110.193,-6.949,120.938
11456,-0.1016,0.8218,-0.2617,-41.382,76.172,-32.532,109.655,-6.768,121.772
11466,-0.0039,0.7891,-0.3623,-18.555,60.669,-16.907,109.451,-6.746,122.404
11476,0.1387,0.8359,-0.3809,18.555,32.837,1.282,109.649,-6.883,122.712
11486,0.2505,0.9458,-0.3403,50.232,-0.244,18.677,110.154,-7.125,122.646
11496,0.2808,1.0381,-0.2612,65.796,-38.696,30.640,110.803,-7.355,122.173
11506,0.1704,1.0952,-0.1333,60.852,-70.190,32.349,111.363,-7.421,121.393
11516,0.0991,1.1392,-0.0317,35.278,-64.453,23.437,111.605,-7.383,120.701
11526,0.0669,1.0928,0.0049,5.737,-34.851,7.690,111.489,-7.284,120.350
11536,0.0312,0.9932,-0.0210,-38.330,25.574,-17.944,110.869,-7.158,120.657
11546,0.0366,0.9370,-0.0952,-42.725,39.978,-19.226,110.237,-7.070,121.102
11556,0.0737,0.9780,-0.1362,-29.236,37.720,-14.709,109.775,-7.037,121.509
11566,0.0830,1.0205,-0.1187,0.366,18.311,-5.615,109.627,-7.020,121.701
11576,0.1001,1.0122,-0.1030,29.541,-4.272,6.104,109.786,-7.048,121.641
11586,0.1094,0.9741,-0.1191,41.687,-24.963,13.916,110.105,-7.092,121.355
11596,0.0532,0.9355,-0.1719,38.513,-39.673,13.000,110.440,-7.037,120.938
11606,0.0464,0.9712,-0.2129,20.142,-37.292,8.301,110.605,-6.943,120.553
11616,0.0806,1.0439,-0.2139,0.488,-24.048,4.028,110.550,-6.866,120.311
11626,0.1206,1.0996,-0.1426,-17.883,-5.493,-0.854,110.248,-6.833,120.262
11636,0.1382,1.1421,-0.0654,-27.222,8.789,-5.310,109.797,-6.817,120.366
11646,0.1147,1.0410,-0.0542,-24.353,17.700,-7.568,109.363,-6.801,120.558
11656,0.0884,0.9136,-0.0894,-16.113,20.203,-8.606,109.039,-6.773,120.778
11666,0.0806,0.8320,-0.1475,-10.437,16.785,-7.080,108.825,-6.746,120.965
11676,0.0845,0.7930,-0.1880,-4.089,7.263,-2.319,108.721,-6.740,121.042
11686,0.0898,0.7954,-0.1919,3.235,-4.822,4.150,108.710,-6.757,120.981
11696,0.1113,0.9087,-0.1406,4.761,-15.808,10.193,108.677,-6.806,120.795
11706,0.1411,1.1016,-0.0469,7.507,-23.926,14.526,108.622,-6.872,120.520
11716,0.1577,1.2651,0.0547,14.343,-22.461,15.564,108.583,-6.949,120.256
11726,0.1797,1.3276,0.1191,19.409,-10.803,11.353,108.556,-7.026,120.119
11736,0.1528,1.1914,0.0786,19.775,5.798,2.075,108.523,-7.070,120.168
11746,0.0518,0.9634,-0.0234,8.484,22.339,-10.193,108.408,-7.004,120.410
11756,-0.0469,0.7900,-0.1631,-13.306,35.095,-20.020,108.160,-6.823,120.811
11766,-0.0781,0.7217,-0.2905,-31.799,38.086,-21.729,107.831,-6.608,121.245
11776,-0.0479,0.7134,-0.3955,-32.532,27.283,-14.832,107.584,-6.454,121.553
11787,0.0337,0.7988,-0.4287,-15.747,8.362,-2.380,107.529,-6.411,121.641
11796,0.1577,1.0112,-0.3599,8.301,-15.747,12.573,107.650,-6.504,121.448
11806,0.2285,1.2007,-0.2187,33.020,-42.786,26.428,107.957,-6.663,120.959
11816,0.2397,1.3281,-0.0474,43.579,-53.833,32.166,108.303,-6.839,120.344
11826,0.2412,1.4023,0.0913,33.813,-41.626,24.231,108.474,-6.965,119.866
11836,0.2017,1.3359,0.1816,8.484,-18.250,6.592,108.320,-6.987,119.674
11846,0.0396,1.0669,0.1426,-21.179,10.864,-13.184,107.831,-6.844,119.817
11856,-0.1094,0.8271,-0.0044,-51.514,40.466,-29.724,107.089,-6.548,120.300
11866,-0.1440,0.6714,-0.1953,-69.458,60.181,-35.339,106.315,-6.207,120.981
11876,-0.1177,0.5918,-0.3628,-62.927,57.129,-27.344,105.776,-5.944,121.613
11886,0.0010,0.6094,-0.4502,-34.851,34.424,-10.986,105.601,-5.872,121.976
11896,0.2031,0.8462,-0.4385,4.395,0.671,8.362,105.765,-6.015,121.959
11907,0.3364,1.0518,-0.3960,48.035,-43.457,27.405,106.342,-6.268,121.459
11916,0.3105,1.2007,-0.2100,74.280,-84.045,38.696,107.111,-6.482,120.542
11926,0.2939,1.3633,0.0518,65.186,-87.280,38.635,107.672,-6.652,119.586
11936,0.2783,1.4756,0.3101,34.546,-59.570,25.574,108.089,-6.713,118.938
11946,0.1875,1.3950,0.4380,4.761,-20.081,4.395,108.160,-6.691,118.729
11956,0.0093,1.0962,0.3711,-14.709,23.682,-16.907,107.985,-6.608,119.009
11966,-0.1343,0.8447,0.1602,-33.691,64.575,-32.043,107.562,-6.498,119.729
11976,-0.1426,0.7793,-0.1123,-42.908,87.036,-33.813,107.029,-6.438,120.668
11986,-0.0903,0.6792,-0.3672,-28.687,82.764,-22.766,106.644,-6.465,121.531
11996,0.0376,0.6450,-0.5352,-6.653,60.974,-7.874,106.507,-6.564,122.141
12006,0.1548,0.7593,-0.6104,17.029,23.621,5.188,106.655,-6.680,122.355
12016,0.2246,0.8760,-0.6392,43.152,-22.888,18.616,107.117,-6.795,122.080
12026,0.2437,0.9507,-0.5278,55.298,-71.350,30.029,107.765,-6.872,121.306
12036,0.2427,1.1323,-0.2661,37.842,-94.971,33.813,108.265,-6.905,120.289
12046,0.2441,1.3501,0.0674,1.892,-83.679,25.024,108.386,-6.877,119.410
12056,0.2051,1.3545,0.3022,-26.733,-52.063,9.521,108.182,-6.806,118.883
12066,0.0625,1.1445,0.3853,-39.063,-9.644,-7.263,107.803,-6.707,118.812
12076,-0.0435,0.9805,0.3213,-44.678,34.119,-20.325,107.309,-6.614,119.202
12086,-0.0195,0.9204,0.1060,-42.114,67.322,-22.949,106.804,-6.597,119.916
12096,-0.0054,0.8569,-0.1982,-15.930,76.050,-16.052,106.556,-6.663,120.696
12106,0.0547,0.8003,-0.4370,17.700,60.852,-7.080,106.661,-6.768,121.306
12116,0.1392,0.8169,-0.5527,38.635,31.006,2.014,107.012,-6.877,121.597
12126,0.2187,0.9229,-0.5723,44.434,-6.592,11.292,107.468,-6.965,121.503
12136,0.2432,1.0396,-0.4746,42.664,-51.941,18.677,107.963,-6.987,120.948
12146,0.1694,1.1064,-0.2192,29.968,-86.975,22.644,108.375,-6.938,120.042
12156,0.1084,1.1978,0.0825,2.441,-86.243,18.982,108.506,-6.844,119.158
12166,0.0688,1.2500,0.3281,-23.010,-59.265,6.897,108.347,-6.724,118.570
12177,0.0117,1.1772,0.4043,-32.166,-19.287,-5.310,108.045,-6.608,118.400
12187,-0.0200,1.1016,0.3335,-30.212,22.583,-13.367,107.710,-6.553,118.658
12196,-0.0088,1.0161,0.1138,-20.935,56.580,-15.686,107.435,-6.575,119.251
12206,0.0361,0.9399,-0.1641,-3.418,73.425,-14.221,107.314,-6.658,119.998
12216,0.0874,0.8003,-0.4053,16.174,69.031,-10.071,107.397,-6.768,120.690
12226,0.1504,0.7402,-0.5181,22.400,47.974,-4.272,107.562,-6.872,121.168
12237,0.1929,0.7871,-0.5386,19.592,17.212,2.502,107.743,-6.949,121.322
12247,0.2295,0.8677,-0.4980,18.066,-16.602,9.705,107.946,-6.987,121.135
12257,0.2197,0.9658,-0.3560,18.860,-52.734,15.869,108.199,-6.976,120.580
12266,0.1636,1.0537,-0.1235,12.085,-72.449,18.982,108.413,-6.932,119.828
12276,0.1396,1.1724,0.1089,-4.211,-63.782,16.846,108.452,-6.888,119.163
12287,0.1348,1.2666,0.2715,-15.442,-36.865,9.521,108.342,-6.866,118.779
12296,0.1274,1.2515,0.2998,-13.367,-3.601,1.343,108.215,-6.866,118.740
12306,0.0933,1.1626,0.1758,-0.977,27.588,-5.249,108.171,-6.899,119.020
12316,0.0669,1.0083,-0.0645,14.221,50.842,-9.888,108.248,-6.965,119.542
12327,0.0591,0.8618,-0.3027,23.865,59.082,-12.146,108.419,-7.037,120.141
12337,0.0654,0.7783,-0.4746,23.315,51.086,-11.047,108.583,-7.092,120.668
12347,0.1094,0.7842,-0.5337,17.395,31.860,-6.042,108.721,-7.136,120.992
12357,0.1704,0.8789,-0.4756,13.489,4.944,0.610,108.847,-7.158,121.036
12367,0.1997,0.9814,-0.3418,14.954,-22.095,6.348,109.028,-7.147,120.806
12377,0.1533,1.0605,-0.1758,20.630,-45.776,10.376,109.292,-7.097,120.333
12387,0.0815,1.0952,-0.0054,22.705,-51.331,12.634,109.583,-7.048,119.806
12396,0.0469,1.1123,0.1182,17.029,-35.583,11.108,109.803,-7.031,119.427
12406,0.0444,1.1514,0.1895,7.080,-9.460,5.371,109.885,-7.048,119.323
12417,0.0615,1.1445,0.1338,2.502,18.005,-0.977,109.885,-7.103,119.493
12427,0.0776,1.0781,-0.0200,1.221,41.077,-5.554,109.852,-7.191,119.905
12437,0.0796,0.9951,-0.2051,-0.916,56.213,-9.460,109.688,-7.262,120.471
12447,0.0840,0.9336,-0.3682,-4.883,59.509,-11.414,109.583,-7.328,121.069
12457,0.0991,0.9209,-0.4531,-11.780,51.575,-10.925,109.468,-7.383,121.597
12467,0.1245,0.9453,-0.4600,-14.771,36.560,-8.240,109.336,-7.421,121.976
12477,0.1265,0.9316,-0.4131,-10.925,16.968,-4.089,109.254,-7.432,122.151
12487,0.1196,0.9404,-0.3032,-8.362,-1.465,-0.061,109.155,-7.421,122.135
12497,0.0864,0.9424,-0.1743,-7.690,-19.470,3.296,109.017,-7.366,121.937
12507,0.0537,0.9219,-0.0552,-9.094,-34.241,5.920,108.820,-7.273,121.591
12517,0.0542,0.9624,0.0513,-14.465,-36.255,7.202,108.501,-7.185,121.223
12527,0.0889,1.0366,0.1079,-18.738,-25.330,7.751,108.105,-7.152,120.959
12537,0.1221,1.1172,0.1079,-14.893,-10.193,7.507,107.737,-7.185,120.833
12547,0.1494,1.1260,0.0220,-2.136,5.737,5.798,107.523,-7.256,120.872
12557,0.1514,1.0293,-0.1235,12.329,18.311,1.892,107.518,-7.339,121.042
12567,0.1421,0.9292,-0.2515,15.015,22.827,-4.456,107.611,-7.377,121.278
12577,0.1235,0.8296,-0.3394,4.578,16.541,-8.911,107.677,-7.350,121.465
12587,0.1113,0.8130,-0.3379,-18.799,3.784,-8.850,107.534,-7.273,121.525
12597,0.1445,0.9248,-0.1943,-50.903,-7.812,-6.042,106.979,-7.207,121.470
12607,0.1611,1.1167,0.0571,-72.083,-17.639,-2.319,106.089,-7.147,121.306
12617,0.1426,1.2549,0.2554,-64.758,-15.747,3.845,105.189,-7.130,121.141
12627,0.1201,1.2622,0.2676,-37.231,6.836,8.118,104.546,-7.207,121.190
12637,0.0474,1.1172,0.0918,-5.005,38.269,4.272,104.260,-7.295,121.553
12647,-0.0229,0.9692,-0.1211,11.597,65.063,-5.493,104.222,-7.317,122.201
12657,-0.0337,0.8433,-0.3062,1.892,79.712,-13.611,104.194,-7.284,123.014
12667,0.0024,0.7520,-0.4507,-23.804,78.796,-17.029,104.024,-7.240,123.827
12677,0.0415,0.7705,-0.4883,-43.762,57.068,-19.104,103.700,-7.147,124.431
12687,0.1138,0.8818,-0.4185,-43.640,20.203,-15.503,103.354,-7.042,124.662
12697,0.2114,1.0098,-0.2383,-20.142,-22.400,-4.395,103.178,-6.993,124.453
12707,0.2427,1.0430,-0.0020,13.977,-65.796,10.986,103.266,-7.009,123.783
12717,0.1948,1.0967,0.2109,44.250,-88.135,25.208,103.574,-7.081,122.860
12727,0.1660,1.1733,0.2861,60.974,-72.388,30.518,104.002,-7.213,122.080
12737,0.1831,1.2441,0.2349,64.148,-34.851,22.949,104.442,-7.361,121.685
12747,0.1963,1.2227,0.1230,55.725,5.005,6.348,104.782,-7.454,121.718
12757,0.1304,1.0049,-0.0542,33.020,39.246,-12.329,104.941,-7.432,122.130
12767,0.0728,0.8267,-0.2144,-8.240,63.171,-29.846,104.766,-7.284,122.822
12777,0.0464,0.7910,-0.3218,-47.546,70.313,-38.879,104.271,-7.048,123.607
12788,0.0254,0.8154,-0.3745,-61.035,58.472,-34.790,103.689,-6.801,124.266
12797,0.0405,0.8159,-0.3521,-45.044,34.424,-19.836,103.299,-6.647,124.651
12807,0.0864,0.8252,-0.2798,-14.343,6.226,-1.160,103.200,-6.641,124.717
12817,0.1216,0.8721,-0.2241,19.348,-25.574,16.174,103.436,-6.751,124.426
12827,0.1006,0.9868,-0.1763,43.091,-58.777,28.748,103.909,-6.883,123.783
12837,0.0566,1.1040,-0.1177,52.002,-70.496,35.156,104.436,-7.015,123.008
12847,0.1157,1.2422,-0.0771,42.297,-54.565,31.982,104.821,-7.169,122.399
12857,0.1899,1.3452,-0.0303,28.564,-26.062,19.653,105.002,-7.300,122.091
12867,0.2051,1.3003,-0.0205,15.259,5.310,4.089,105.007,-7.366,122.135
12877,0.1602,1.1665,-0.0488,-5.798,29.480,-10.254,104.788,-7.350,122.448
12887,0.1001,0.9829,-0.1274,-25.146,43.152,-21.973,104.403,-7.234,122.926
12897,0.0513,0.8735,-0.2124,-34.058,45.959,-28.015,103.991,-7.037,123.442
12907,0.0361,0.8179,-0.2646,-31.738,35.706,-24.658,103.667,-6.839,123.854
12917,0.0542,0.7900,-0.2441,-19.226,18.188,-14.221,103.486,-6.713,124.063
12927,0.1011,0.7988,-0.2007,-4.211,-2.258,-2.380,103.453,-6.691,124.047
12937,0.1396,0.8691,-0.1309,11.963,-26.855,7.019,103.557,-6.718,123.766
12947,0.1211,0.9375,-0.0425,29.907,-52.490,15.015,103.804,-6.746,123.217
12957,0.1040,1.0103,0.0591,40.649,-57.068,21.301,104.106,-6.806,122.607
12967,0.1519,1.1016,0.1045,39.307,-35.950,20.630,104.348,-6.932,122.206
12977,0.1914,1.1533,0.0757,30.579,-6.653,12.756,104.480,-7.059,122.113
12987,0.1748,1.0942,-0.0034,18.250,20.081,2.319,104.496,-7.152,122.300
12997,0.1162,0.9951,-0.0918,-2.258,40.039,-7.629,104.332,-7.174,122.712
13007,0.0747,0.9609,-0.1807,-21.057,49.194,-15.076,104.024,-7.119,123.228
13017,0.0703,0.9995,-0.2349,-25.879,45.593,-15.259,103.700,-7.053,123.712
13027,0.1143,1.0835,-0.2183,-12.756,30.518,-6.348,103.513,-7.053,124.025
13037,0.1533,1.1147,-0.1821,12.207,9.033,5.859,103.579,-7.136,124.102
13047,0.1875,1.1948,-0.1113,34.302,-15.991,13.977,103.859,-7.251,123.909
13057,0.1499,1.2793,-0.0181,45.593,-36.316,15.808,104.233,-7.311,123.519
13067,0.0796,1.1890,0.0454,46.814,-35.767,11.108,104.579,-7.295,123.140
13077,0.0649,1.0732,0.0532,38.757,-13.245,-2.197,104.804,-7.202,123.019
13087,0.0034,0.9771,-0.0132,27.039,15.259,-17.517,104.903,-7.004,123.212
13097,-0.0562,0.8521,-0.1626,18.066,40.588,-26.550,104.985,-6.746,123.673
13107,-0.0679,0.7451,-0.3145,9.033,57.251,-27.283,105.084,-6.515,124.305
13117,-0.0405,0.6533,-0.4458,6.470,61.401,-21.179,105.266,-6.378,124.953
13127,0.0249,0.6714,-0.4868,10.925,47.791,-10.864,105.529,-6.350,125.447
13137,0.1157,0.7319,-0.4790,26.550,20.142,2.136,105.947,-6.438,125.640
13147,0.2271,0.8057,-0.4521,41.565,-11.536,16.235,106.507,-6.636,125.480
13157,0.2944,0.9136,-0.4028,46.448,-45.044,26.062,107.100,-6.850,124.969
13167,0.2764,0.9985,-0.3096,43.640,-73.059,27.771,107.622,-6.982,124.184
13177,0.2231,1.0615,-0.1631,27.100,-80.627,22.278,107.908,-6.998,123.344
13187,0.1714,1.1406,0.0322,-0.732,-66.895,13.062,107.787,-6.932,122.662
13197,0.1201,1.1807,0.1597,-22.644,-40.222,3.540,107.353,-6.833,122.267
13207,0.0688,1.1699,0.1719,-32.104,-9.583,-4.272,106.787,-6.729,122.184
13217,0.0405,1.1094,0.0820,-29.724,17.700,-9.521,106.260,-6.641,122.382
13227,0.0347,1.0142,-0.0972,-18.921,39.612,-12.451,105.919,-6.586,122.800
13237,0.0498,0.9365,-0.2974,-4.639,49.255,-12.024,105.831,-6.570,123.311
13247,0.0688,0.8867,-0.4302,6.836,43.457,-7.629,105.947,-6.586,123.755
13257,0.0894,0.8711,-0.4810,11.108,26.978,-2.380,106.155,-6.625,124.019
13267,0.1045,0.8970,-0.4561,7.751,6.958,1.892,106.337,-6.658,124.085
13277,0.1226,0.9629,-0.3857,-0.977,-11.292,4.639,106.397,-6.669,123.959
13288,0.1235,1.0498,-0.3018,-8.057,-28.259,5.493,106.342,-6.641,123.673
13297,0.0996,1.1167,-0.2295,-7.996,-40.588,5.127,106.265,-6.559,123.267
13307,0.0801,1.1318,-0.1562,-6.226,-41.260,3.967,106.166,-6.454,122.855
13317,0.0728,1.1030,-0.0962,-5.371,-32.532,1.160,106.035,-6.350,122.536
13327,0.0728,1.0630,-0.0635,-5.249,-18.860,-2.991,105.875,-6.246,122.366
13337,0.0806,0.9990,-0.0786,-4.822,-5.554,-5.981,105.721,-6.158,122.327
13347,0.0957,0.9648,-0.1265,-5.859,3.235,-7.446,105.573,-6.092,122.377
13357,0.1235,0.9551,-0.1797,-8.789,6.348,-7.324,105.430,-6.048,122.459
13367,0.1484,0.9634,-0.2124,-12.146,3.235,-6.897,105.271,-6.015,122.509
13377,0.1396,0.9697,-0.2192,-13.000,-2.930,-6.653,105.117,-5.966,122.498
13387,0.1274,1.0063,-0.1509,-14.282,-8.789,-6.042,104.919,-5.894,122.432
13397,0.1206,1.0225,-0.0732,-12.390,-13.123,-4.211,104.700,-5.828,122.311
13407,0.1138,0.9858,-0.0420,-8.057,-11.658,-2.869,104.507,-5.779,122.206
13417,0.1362,0.9995,-0.0571,-8.850,-3.235,-4.272,104.310,-5.751,122.184
13427,0.1865,1.0298,-0.1274,-19.958,9.216,-8.545,104.030,-5.735,122.300
13437,0.1646,1.0278,-0.2178,-38.025,19.287,-15.503,103.612,-5.663,122.525
13447,0.0903,1.0361,-0.2603,-54.504,21.851,-23.010,103.052,-5.488,122.789
13457,-0.0610,0.8765,-0.2671,-58.960,16.052,-25.452,102.486,-5.186,123.003
13467,-0.2026,0.7275,-0.2212,-51.880,3.357,-22.034,102.008,-4.779,123.085
13477,-0.2280,0.6978,-0.1406,-37.109,-12.085,-10.925,101.640,-4.422,122.992
13487,-0.1353,0.7061,-0.1021,-8.484,-26.978,7.324,101.547,-4.285,122.712
13497,0.0586,0.8726,-0.0850,19.775,-35.889,26.978,101.711,-4.471,122.305
13507,0.2598,1.1440,-0.0811,40.466,-31.921,38.940,102.063,-4.867,121.910
13517,0.4131,1.3184,-0.1006,49.072,-15.747,38.025,102.491,-5.328,121.679
13527,0.4604,1.3999,-0.0923,36.743,3.052,24.902,102.772,-5.707,121.652
13537,0.3872,1.3882,-0.0317,5.005,18.860,4.517,102.689,-5.889,121.827
13547,0.1509,1.1504,0.0103,-28.015,28.137,-16.296,102.250,-5.806,122.141
13557,-0.0957,0.9209,0.0220,-51.086,32.776,-31.311,101.569,-5.455,122.531
13567,-0.2183,0.7632,-0.0527,-55.664,33.081,-33.447,100.904,-4.982,122.921
13577,-0.2314,0.6270,-0.1982,-36.194,25.879,-21.729,100.585,-4.576,123.217
13587,-0.1152,0.6543,-0.3062,-5.920,12.512,-3.784,100.662,-4.427,123.349
13597,0.0659,0.7886,-0.3784,25.024,-5.859,16.235,101.069,-4.576,123.261
13607,0.2280,0.9629,-0.3770,42.297,-28.931,31.433,101.618,-4.900,122.915
13617,0.3115,1.1328,-0.2544,39.612,-48.828,32.593,102.063,-5.224,122.371
13627,0.3169,1.2969,-0.0806,19.592,-54.810,21.973,102.228,-5.405,121.783
13637,0.2080,1.2759,0.0400,-3.723,-44.250,7.568,102.090,-5.427,121.333
13647,0.0801,1.1582,0.0977,-21.301,-21.423,-7.019,101.728,-5.295,121.141
13657,-0.0205,0.9902,0.0747,-29.846,3.235,-18.188,101.266,-5.065,121.207
13667,-0.0547,0.8398,-0.0234,-30.701,22.766,-21.118,100.844,-4.812,121.470
13677,-0.0259,0.7798,-0.1523,-23.499,32.288,-15.076,100.585,-4.664,121.822
13687,0.0420,0.7578,-0.2681,-8.606,30.029,-4.211,100.563,-4.658,122.124
13697,0.1470,0.8359,-0.3394,5.798,20.996,7.507,100.723,-4.818,122.316
13707,0.2495,1.0088,-0.3281,10.254,8.484,16.235,100.893,-5.076,122.371
13717,0.3052,1.2080,-0.2544,11.353,-8.850,18.433,101.025,-5.323,122.250
13727,0.2607,1.2920,-0.1396,12.024,-24.170,15.015,101.118,-5.482,121.981
13737,0.1099,1.1899,-0.0347,8.057,-26.184,7.263,101.129,-5.504,121.707
13747,-0.0361,1.0479,0.0122,-3.723,-12.695,-3.784,100.986,-5.367,121.591
13757,-0.0850,0.9790,0.0137,-19.958,6.714,-12.939,100.662,-5.153,121.679
13767,-0.0737,0.9224,-0.0356,-29.480,21.851,-14.099,100.261,-4.955,121.921
13777,-0.0122,0.8867,-0.1201,-28.625,30.457,-9.338,99.926,-4.861,122.239
13788,0.0845,0.9155,-0.2026,-17.334,29.175,-3.479,99.756,-4.878,122.536
13797,0.1748,1.0132,-0.2178,-1.404,17.212,3.418,99.750,-4.988,122.701
13807,0.2412,1.1201,-0.2021,14.587,0.977,11.047,99.904,-5.169,122.690
13817,0.2544,1.1826,-0.1885,26.550,-16.785,15.808,100.173,-5.361,122.498
13827,0.1787,1.1372,-0.1440,29.785,-29.602,13.306,100.470,-5.477,122.179
13837,0.0454,1.0093,-0.1084,19.531,-27.222,2.991,100.646,-5.427,121.904
13847,-0.0327,0.9429,-0.0723,-3.174,-12.085,-9.033,100.558,-5.240,121.805
13857,-0.0693,0.8750,-0.0767,-22.339,5.249,-15.198,100.278,-5.004,121.882
13867,-0.0210,0.9014,-0.0898,-35.706,20.142,-15.564,99.860,-4.828,122.113
13877,0.0522,0.9761,-0.1235,-34.973,26.428,-10.864,99.459,-4.746,122.393
13887,0.1240,1.0176,-0.1699,-14.771,22.095,-2.808,99.300,-4.779,122.613
13897,0.2002,1.1079,-0.1616,8.728,10.742,5.676,99.366,-4.905,122.712
13907,0.2339,1.1216,-0.1548,25.146,-4.822,12.329,99.608,-5.081,122.646
13917,0.1714,1.0552,-0.1001,27.832,-23.621,13.306,99.860,-5.213,122.388
13927,0.0356,0.9434,-0.0420,14.832,-31.189,6.775,99.965,-5.197,122.069
13937,-0.0522,0.9141,0.0005,-9.216,-19.592,-2.441,99.789,-5.054,121.877
13947,-0.0288,1.0127,0.0435,-33.020,1.465,-7.507,99.338,-4.916,121.904
13957,0.0273,1.0337,0.0386,-36.438,22.278,-7.141,98.844,-4.850,122.135
13967,0.0894,1.0605,-0.0117,-24.170,38.086,-5.615,98.487,-4.850,122.525
13977,0.1382,1.0254,-0.1064,-1.953,42.480,-3.052,98.410,-4.911,122.948
13987,0.1636,0.9751,-0.2036,24.475,32.043,-0.305,98.657,-4.999,123.267
13998,0.1543,0.8599,-0.3057,42.358,14.954,3.662,99.174,-5.103,123.409
14007,0.1240,0.7812,-0.3584,45.593,-4.089,6.287,99.783,-5.191,123.360
14018,0.1167,0.8154,-0.3379,32.532,-26.062,7.446,100.256,-5.240,123.091
14027,0.1084,0.9219,-0.2231,13.306,-44.861,9.460,100.464,-5.268,122.629
14037,0.1016,1.0298,-0.0874,0.366,-45.288,11.047,100.453,-5.301,122.162
14047,0.1265,1.1187,0.0288,-3.235,-27.039,10.254,100.327,-5.361,121.877
14057,0.1353,1.1616,0.0854,-0.122,-1.770,8.606,100.184,-5.455,121.844
14067,0.1343,1.0991,0.0532,7.507,23.804,7.141,100.107,-5.581,122.064
14077,0.1055,0.9673,-0.0508,14.587,40.955,4.028,100.146,-5.696,122.465
14088,0.0977,0.8809,-0.1577,12.390,45.166,0.793,100.223,-5.790,122.910
14098,0.0659,0.8145,-0.2466,8.057,34.424,0.610,100.333,-5.845,123.250
14108,0.0693,0.8223,-0.2910,2.869,15.747,3.235,100.443,-5.889,123.398
14118,0.1084,0.9180,-0.3252,0.854,-6.226,7.690,100.547,-5.955,123.322
14128,0.1431,1.0474,-0.3237,3.845,-32.043,12.878,100.684,-6.037,122.981
14138,0.1343,1.1396,-0.2700,6.653,-49.072,16.174,100.833,-6.108,122.470
14148,0.1299,1.2046,-0.1660,3.174,-44.250,14.465,100.882,-6.169,122.003
14158,0.1289,1.2329,-0.0200,-5.676,-26.001,8.484,100.756,-6.202,121.729
14168,0.1094,1.1992,0.1069,-11.536,-4.822,2.258,100.486,-6.202,121.679
14178,0.0640,1.0977,0.1353,-11.230,15.808,-2.380,100.184,-6.180,121.838
14188,0.0405,0.9932,0.0732,-8.423,33.203,-6.104,99.921,-6.141,122.179
14198,0.0542,0.9097,-0.0400,-4.272,43.091,-6.958,99.761,-6.119,122.618
14208,0.0830,0.8237,-0.1963,2.258,40.344,-5.615,99.772,-6.125,123.025
14218,0.1133,0.8247,-0.3164,6.409,25.146,-3.784,99.921,-6.141,123.283
14228,0.1431,0.8828,-0.3916,7.385,4.883,-0.610,100.129,-6.169,123.333
14238,0.1680,0.9780,-0.3667,9.766,-20.691,2.686,100.355,-6.191,123.124
14248,0.1567,1.0850,-0.2583,15.320,-46.936,6.287,100.585,-6.185,122.646
14258,0.1353,1.1318,-0.1177,18.494,-55.298,9.094,100.783,-6.180,122.086
14268,0.1235,1.1021,-0.0083,14.343,-42.786,6.287,100.865,-6.163,121.646
14278,0.0815,1.0303,0.0513,2.747,-18.799,-1.343,100.778,-6.097,121.465
14288,0.0415,0.9565,0.0430,-10.498,8.118,-6.958,100.530,-6.010,121.558
14298,0.0488,0.9058,-0.0396,-22.095,31.494,-8.240,100.195,-5.955,121.888
14308,0.1006,0.9897,-0.1230,-28.137,43.945,-6.836,99.844,-5.966,122.333
14318,0.1401,1.0415,-0.2207,-16.113,39.124,-3.784,99.662,-6.010,122.728
14328,0.1230,0.9438,-0.3203,4.944,21.851,-0.183,99.778,-6.053,122.943
14338,0.1123,0.9238,-0.3584,17.761,1.038,1.404,100.069,-6.075,122.953
14348,0.1367,0.9458,-0.3296,21.362,-22.949,3.784,100.399,-6.086,122.717
14358,0.1484,1.0068,-0.2065,17.273,-44.189,7.690,100.629,-6.103,122.267
14368,0.1592,1.1206,-0.0542,6.470,-43.640,8.545,100.662,-6.130,121.822
14378,0.1396,1.1704,0.0332,-0.122,-23.132,3.479,100.558,-6.125,121.586
14388,0.0552,1.0767,0.0400,-1.160,5.127,-4.333,100.415,-6.064,121.641
14398,0.0117,0.9932,0.0024,-8.301,34.180,-10.437,100.190,-5.966,121.998
14408,0.0552,1.0083,-0.0703,-17.395,52.002,-11.475,99.899,-5.916,122.536
14418,0.1230,1.0195,-0.1616,-13.306,51.086,-8.850,99.706,-5.927,123.058
14428,0.1558,0.9551,-0.2500,-0.977,34.973,-6.287,99.712,-5.955,123.415
14438,0.1929,0.9800,-0.2783,8.850,13.062,-5.188,99.844,-5.977,123.552
14448,0.2041,0.9844,-0.2539,16.724,-7.568,-2.563,100.063,-5.988,123.481
14458,0.1504,0.8936,-0.2095,18.311,-20.630,-0.366,100.300,-5.982,123.278
14468,0.0596,0.8535,-0.1094,7.874,-23.132,-0.732,100.371,-5.916,123.052
14478,-0.0010,0.8887,0.0039,-9.888,-9.827,-0.183,100.173,-5.834,122.953
14488,-0.0117,0.8784,0.0679,-20.447,13.550,1.953,99.816,-5.812,123.085
14498,0.0454,0.9985,0.0908,-27.283,37.537,2.747,99.355,-5.872,123.453
14508,0.1431,1.0581,0.0488,-23.071,52.490,3.784,98.954,-6.010,123.964
14518,0.1748,0.9258,-0.0835,-4.089,50.476,3.845,98.828,-6.174,124.459
14528,0.1743,0.8965,-0.1841,8.728,37.476,4.272,98.899,-6.317,124.827
14538,0.1621,0.9170,-0.2427,17.151,20.264,9.766,99.108,-6.476,125.013
14548,0.1382,0.9434,-0.2651,28.015,-0.671,18.799,99.459,-6.674,124.975
14558,0.1372,1.0708,-0.2227,32.288,-22.217,25.574,99.833,-6.894,124.711
14568,0.1387,1.1245,-0.2007,32.654,-29.480,23.804,100.195,-7.075,124.382
14578,0.1094,1.1074,-0.1714,22.522,-21.423,13.489,100.432,-7.158,124.146
14588,0.1196,1.2148,-0.1055,1.465,-5.005,1.404,100.399,-7.147,124.091
14598,0.1216,1.1406,-0.1006,-17.395,14.954,-5.554,100.157,-7.108,124.250
14608,0.1011,1.0059,-0.1484,-31.067,32.410,-13.550,99.789,-7.015,124.596
14618,0.0898,1.0059,-0.1831,-38.513,38.879,-19.775,99.360,-6.872,125.013
14628,0.0674,0.9312,-0.2305,-28.076,29.724,-16.174,99.091,-6.729,125.338
14638,0.0532,0.8696,-0.2583,-8.179,10.925,-7.568,99.069,-6.641,125.458
14648,0.0571,0.8896,-0.2705,11.414,-9.033,1.587,99.272,-6.608,125.365
14658,0.0850,1.0059,-0.2305,26.062,-28.870,11.536,99.602,-6.658,125.057
14668,0.1602,1.1113,-0.1929,32.959,-35.828,17.456,99.976,-6.784,124.673
14678,0.2153,1.1738,-0.1479,27.466,-27.710,13.000,100.250,-6.899,124.376
14688,0.2217,1.2012,-0.0723,11.353,-12.329,1.648,100.311,-6.927,124.250
14698,0.1777,1.0444,-0.0327,-8.057,6.653,-9.033,100.135,-6.877,124.332
14708,0.1128,0.8965,-0.0508,-29.724,24.414,-17.944,99.739,-6.751,124.607
14718,0.0381,0.7900,-0.1001,-40.588,32.349,-20.386,99.272,-6.564,124.964
14728,0.0166,0.7617,-0.1426,-31.311,25.513,-12.939,98.943,-6.427,125.239
14738,0.0405,0.8086,-0.1743,-8.423,8.972,0.244,98.882,-6.405,125.327
14748,0.1118,0.9336,-0.1919,20.569,-11.780,13.000,99.130,-6.515,125.189
14758,0.1973,1.0625,-0.2075,45.288,-33.813,22.522,99.641,-6.724,124.816
14768,0.2534,1.1431,-0.1895,49.622,-41.870,24.780,100.179,-6.949,124.360
14778,0.2578,1.2061,-0.1304,30.762,-30.212,15.747,100.486,-7.103,124.030
14789,0.1929,1.1626,-0.0581,3.540,-10.193,1.526,100.453,-7.119,123.931
14798,0.0454,0.9707,-0.0381,-23.560,12.390,-10.193,100.124,-6.998,124.069
14808,-0.0166,0.9077,-0.0464,-47.913,31.555,-17.883,99.536,-6.801,124.415
14818,0.0107,0.9541,-0.0796,-52.002,36.865,-16.174,98.926,-6.641,124.810
14828,0.0747,0.9556,-0.1445,-29.175,26.917,-6.592,98.602,-6.597,125.085
14838,0.1216,0.9438,-0.2075,5.981,9.644,3.174,98.690,-6.647,125.178
14848,0.1562,0.9233,-0.2646,35.583,-7.568,10.376,99.124,-6.762,125.085
14858,0.1855,0.9609,-0.2617,46.265,-24.414,14.771,99.673,-6.905,124.821
14868,0.1792,1.0371,-0.2090,38.696,-33.752,15.320,100.118,-7.026,124.459
14878,0.1587,1.1289,-0.1221,19.592,-30.151,11.780,100.311,-7.097,124.140
14888,0.1182,1.1812,-0.0376,2.319,-18.677,5.615,100.272,-7.108,123.942
14898,0.0981,1.1167,-0.0068,-6.226,-3.479,-0.854,100.118,-7.070,123.909
14908,0.0625,0.9819,-0.0464,-10.742,10.498,-6.165,99.921,-6.993,124.025
14918,0.0439,0.8550,-0.1299,-15.442,20.752,-8.789,99.728,-6.905,124.244
14928,0.0776,0.8340,-0.1943,-18.494,23.682,-6.592,99.553,-6.861,124.492
14938,0.1196,0.8638,-0.2441,-13.550,16.663,-0.305,99.459,-6.894,124.656
14948,0.1470,0.9307,-0.2603,-0.427,4.395,5.737,99.514,-6.976,124.695
14958,0.1626,0.9917,-0.2554,13.306,-7.507,9.949,99.706,-7.081,124.601
14968,0.1538,1.0225,-0.2168,19.470,-16.479,11.902,99.943,-7.180,124.420
14978,0.1421,1.0190,-0.1670,13.367,-17.212,9.644,100.091,-7.251,124.228
14988,0.1538,1.0591,-0.0923,-3.479,-10.620,4.150,100.020,-7.284,124.118
14998,0.1558,1.0640,-0.0347,-18.860,-1.282,-0.671,99.756,-7.284,124.107
15008,0.1509,1.0713,-0.0122,-29.846,9.644,-4.700,99.355,-7.262,124.211
15018,0.1538,1.0679,-0.0381,-31.433,19.226,-7.690,98.943,-7.229,124.415
15028,0.1196,0.9795,-0.1216,-19.775,23.254,-7.507,98.701,-7.191,124.656
15038,0.0781,0.8491,-0.2222,-4.578,18.738,-4.761,98.690,-7.147,124.849
15048,0.0552,0.8340,-0.2573,4.639,5.920,-0.671,98.811,-7.114,124.909
15058,0.0874,0.9126,-0.2349,8.606,-9.399,5.310,98.965,-7.136,124.810
15068,0.1401,1.0034,-0.1802,12.817,-23.010,10.864,99.135,-7.213,124.563
15078,0.1904,1.1362,-0.1001,13.245,-25.696,11.047,99.261,-7.300,124.288
15088,0.2231,1.2158,-0.0474,9.460,-15.625,6.531,99.305,-7.372,124.124
15098,0.2090,1.1914,-0.0420,4.333,-0.610,-1.709,99.272,-7.383,124.118
15108,0.1162,0.9766,-0.0981,-5.249,14.648,-10.620,99.168,-7.295,124.283
15118,0.0298,0.8555,-0.1504,-19.348,26.245,-16.541,98.948,-7.119,124.568
15128,0.0479,0.8872,-0.1807,-25.574,24.841,-14.099,98.685,-6.982,124.843
15138,0.0937,0.8862,-0.2192,-9.460,8.362,-3.418,98.635,-6.949,124.931
15148,0.1636,0.9346,-0.2461,15.076,-12.817,7.812,98.860,-7.031,124.788
15158,0.2129,1.0449,-0.2158,31.616,-36.194,15.991,99.250,-7.174,124.404
15168,0.2075,1.1382,-0.1377,30.518,-45.532,17.639,99.586,-7.306,123.920
15178,0.1851,1.1479,-0.0513,13.672,-30.640,10.376,99.695,-7.377,123.602
15188,0.1304,1.0864,0.0439,-11.841,-5.127,-3.052,99.459,-7.333,123.558
15198,0.0332,0.9902,0.0815,-38.147,21.729,-14.160,98.910,-7.174,123.794
15208,0.0132,0.9775,0.0269,-51.147,44.006,-19.043,98.245,-6.993,124.261
15218,0.0308,0.9526,-0.0723,-36.804,50.659,-15.198,97.773,-6.861,124.788
15228,0.0669,0.9175,-0.1733,2.197,36.682,-5.249,97.784,-6.833,125.162
15238,0.1289,0.8804,-0.2964,49.927,13.000,6.592,98.372,-6.927,125.283
15248,0.1792,0.8174,-0.4062,86.487,-13.733,17.456,99.426,-7.119,125.123
15258,0.1978,0.7759,-0.4272,88.501,-40.344,21.790,100.552,-7.322,124.684
15268,0.2217,0.9063,-0.3350,48.950,-50.964,18.616,101.201,-7.465,124.146
15278,0.2324,1.0806,-0.2046,-3.357,-38.757,9.460,101.217,-7.526,123.745
15289,0.1997,1.1777,-0.0581,-40.710,-17.822,-1.953,100.750,-7.493,123.569
15298,0.1113,1.1211,0.0215,-59.143,3.662,-12.329,100.036,-7.366,123.629
15308,0.0337,1.0186,0.0244,-62.622,21.973,-18.005,99.272,-7.174,123.882
15318,0.0337,0.9829,-0.0156,-49.011,30.029,-14.954,98.663,-7.020,124.200
15328,0.0830,0.9473,-0.0918,-19.531,23.743,-5.188,98.410,-6.987,124.448
15338,0.1221,0.9351,-0.1709,10.803,9.888,4.578,98.525,-7.048,124.541
15348,0.1636,0.9517,-0.2344,33.325,-4.761,10.437,98.915,-7.169,124.475
15358,0.1992,0.9849,-0.2476,37.415,-17.883,13.245,99.360,-7.311,124.277
15368,0.2007,1.0127,-0.2104,21.790,-24.475,11.230,99.635,-7.416,124.014
15378,0.1470,0.9834,-0.1694,-1.892,-19.409,3.235,99.641,-7.427,123.816
15388,0.0908,0.9932,-0.1064,-27.100,-6.287,-5.005,99.344,-7.344,123.761
15398,0.0693,1.0117,-0.0752,-43.091,6.531,-8.728,98.860,-7.234,123.843
15408,0.0796,1.0522,-0.0596,-39.612,13.550,-7.263,98.394,-7.152,123.986
15418,0.1016,1.0425,-0.0703,-18.738,12.695,-2.380,98.146,-7.136,124.118
15428,0.1084,1.0347,-0.0933,8.728,4.700,2.869,98.196,-7.158,124.162
15438,0.1118,0.9805,-0.1538,32.959,-5.005,6.958,98.536,-7.213,124.102
15448,0.1152,0.9282,-0.2051,44.556,-14.709,9.705,99.036,-7.278,123.942
15458,0.1318,0.9438,-0.2227,34.180,-19.531,9.155,99.443,-7.344,123.728
15468,0.1265,1.0078,-0.2026,10.864,-17.212,4.944,99.591,-7.361,123.552
15478,0.1133,1.0054,-0.1548,-12.024,-8.118,-0.916,99.476,-7.328,123.470
15488,0.1128,1.0708,-0.0718,-32.715,2.625,-6.409,99.091,-7.256,123.508
15498,0.1206,1.1104,-0.0361,-39.795,11.414,-8.606,98.608,-7.180,123.635
15508,0.1470,1.1128,-0.0479,-30.457,15.137,-7.812,98.223,-7.130,123.799
15518,0.1553,1.0068,-0.1045,-11.169,12.390,-5.371,98.075,-7.108,123.931
15528,0.1343,0.8877,-0.1831,5.676,4.944,-2.869,98.163,-7.103,123.986
15539,0.1367,0.8354,-0.2397,13.550,-3.174,0.793,98.377,-7.125,123.953
15549,0.1445,0.8521,-0.2363,11.047,-10.681,4.822,98.575,-7.180,123.838
15558,0.1626,0.9414,-0.1992,-0.122,-11.108,5.005,98.619,-7.234,123.717
15569,0.1616,1.0645,-0.1025,-16.663,-5.310,2.258,98.432,-7.262,123.662
15579,0.1543,1.1665,-0.0034,-32.471,5.737,-2.502,98.020,-7.251,123.723
15589,0.1089,1.1455,0.0322,-37.170,16.724,-7.568,97.531,-7.180,123.904
15599,0.0732,1.0688,0.0024,-30.151,24.536,-10.254,97.125,-7.081,124.162
15609,0.0679,0.9409,-0.0801,-12.451,25.574,-7.812,96.949,-7.004,124.426
15619,0.0757,0.8594,-0.1689,9.888,17.456,-2.869,97.064,-6.976,124.601
15629,0.1104,0.8325,-0.2397,29.175,4.395,3.662,97.438,-7.020,124.645
15639,0.1675,0.8682,-0.2734,35.522,-10.315,10.071,97.905,-7.141,124.525
15649,0.1953,0.9814,-0.2407,25.818,-22.949,12.146,98.251,-7.267,124.283
15659,0.1938,1.1509,-0.1416,8.362,-23.926,8.118,98.350,-7.333,124.030
15669,0.1836,1.2456,-0.0005,-7.629,-14.221,1.160,98.212,-7.333,123.887
15679,0.1318,1.1641,0.0801,-14.404,-1.526,-6.409,97.949,-7.262,123.882
15689,0.0542,1.0146,0.0610,-12.756,10.925,-11.597,97.690,-7.119,124.008
15699,0.0400,0.9067,-0.0229,-5.981,20.630,-10.254,97.542,-6.998,124.228
15709,0.0532,0.8066,-0.1519,9.277,21.545,-4.150,97.641,-6.954,124.448
15719,0.0786,0.7490,-0.2930,26.733,12.329,2.563,98.026,-6.982,124.568
15729,0.1338,0.8037,-0.3940,33.752,-3.723,8.789,98.547,-7.081,124.519
15739,0.1899,0.9424,-0.4111,28.259,-22.461,13.184,99.009,-7.207,124.272
15749,0.2051,1.0806,-0.3486,13.062,-33.691,13.672,99.272,-7.322,123.915
15759,0.1865,1.1787,-0.1904,-5.737,-31.982,8.606,99.256,-7.366,123.585
15769,0.1504,1.2153,0.0146,-19.348,-23.071,1.892,98.992,-7.350,123.349
15779,0.1094,1.1602,0.1748,-22.217,-10.132,-1.953,98.608,-7.289,123.256
15789,0.0854,1.0918,0.2212,-17.273,6.897,-3.784,98.229,-7.234,123.327
15799,0.0596,0.9814,0.1313,-5.310,22.644,-4.211,97.987,-7.191,123.558
15809,0.0684,0.9028,-0.0386,7.507,33.203,-3.296,97.965,-7.174,123.898
15819,0.1040,0.8594,-0.2363,13.916,34.607,-1.404,98.135,-7.202,124.244
15829,0.1299,0.8506,-0.3936,15.869,25.391,1.282,98.427,-7.256,124.497
15839,0.1567,0.8706,-0.4868,14.587,10.010,3.662,98.767,-7.322,124.590
15849,0.1987,0.9619,-0.4775,10.254,-8.118,5.920,99.058,-7.399,124.497
15859,0.2241,1.0728,-0.3643,6.531,-25.696,7.385,99.250,-7.471,124.233
15869,0.1978,1.1240,-0.1724,4.395,-36.316,7.263,99.338,-7.509,123.860
15879,0.1509,1.0977,0.0195,1.221,-35.339,5.127,99.294,-7.504,123.497
15889,0.1064,1.0791,0.1621,-7.202,-22.827,0.610,99.075,-7.454,123.272
15899,0.0698,1.0728,0.2031,-14.771,-3.113,-3.906,98.734,-7.372,123.245
15909,0.0635,1.0078,0.1289,-14.954,16.968,-5.676,98.405,-7.306,123.420
15919,0.0879,0.9604,-0.0146,-11.902,31.555,-6.348,98.168,-7.267,123.745
15929,0.1147,0.9375,-0.1768,-2.808,34.790,-5.066,98.119,-7.262,124.102
15939,0.1411,0.8872,-0.3174,10.376,26.123,-1.160,98.306,-7.300,124.365
15949,0.1641,0.8838,-0.3813,18.555,10.681,2.625,98.630,-7.366,124.464
15959,0.1670,0.8853,-0.3843,22.278,-5.615,5.432,99.003,-7.438,124.404
15969,0.1626,0.9004,-0.3130,18.921,-21.301,7.874,99.322,-7.504,124.178
15979,0.1411,0.9678,-0.1895,5.249,-30.762,8.484,99.432,-7.542,123.860
15989,0.1431,1.1035,-0.0601,-11.658,-26.794,5.920,99.289,-7.553,123.580
15999,0.1641,1.1899,0.0068,-18.433,-13.245,1.953,99.031,-7.559,123.448
16009,0.1675,1.1914,0.0146,-17.517,2.808,-2.502,98.756,-7.542,123.481
16019,0.1406,1.1035,-0.0454,-12.451,17.151,-7.080,98.542,-7.493,123.662
16029,0.1084,0.9917,-0.1392,-5.127,21.729,-9.094,98.459,-7.421,123.893
16039,0.0825,0.8950,-0.2324,1.465,14.099,-7.690,98.514,-7.344,124.041
16049,0.0884,0.8779,-0.2925,5.798,0.061,-4.395,98.668,-7.284,124.052
16059,0.1050,0.8789,-0.3149,11.108,-15.015,0.671,98.910,-7.262,123.898
16069,0.1294,0.9307,-0.2656,10.925,-27.954,5.859,99.124,-7.278,123.613
16079,0.1587,1.0537,-0.1548,1.892,-31.006,7.629,99.174,-7.317,123.289
16089,0.1904,1.1816,-0.0054,-8.545,-21.545,4.883,99.031,-7.350,123.069
16099,0.1919,1.2402,0.1147,-12.939,-4.639,-0.061,98.762,-7.355,123.025
16109,0.1504,1.1567,0.1274,-9.216,14.099,-5.676,98.503,-7.317,123.173
16119,0.0771,0.9707,0.0249,-0.671,30.762,-10.132,98.355,-7.240,123.492
16129,0.0889,0.8345,-0.0986,5.493,37.415,-11.230,98.344,-7.169,123.882
16139,0.1245,0.7676,-0.2222,9.888,26.794,-8.057,98.487,-7.147,124.162
16149,0.1343,0.7490,-0.3042,12.573,5.737,-2.869,98.740,-7.147,124.222
16159,0.1401,0.7769,-0.3540,12.878,-17.517,2.014,99.047,-7.163,124.047
16169,0.1309,0.8633,-0.3545,9.644,-37.903,7.019,99.322,-7.180,123.657
16179,0.1333,0.9839,-0.3037,2.258,-43.274,10.315,99.476,-7.213,123.212
16189,0.1538,1.1201,-0.1851,-6.958,-35.278,9.216,99.454,-7.251,122.844
16199,0.1636,1.1958,-0.0225,-13.977,-23.376,5.005,99.261,-7.267,122.602
16209,0.1577,1.1929,0.1333,-19.897,-10.925,0.732,98.921,-7.262,122.492
16219,0.0552,1.0088,0.1934,-23.132,13.977,-7.263,98.476,-7.169,122.646
16229,0.0342,0.9683,0.1113,-16.541,19.470,-9.033,98.135,-7.059,122.849
16239,0.0425,0.9355,-0.0122,-2.441,17.944,-6.287,98.015,-6.976,123.041
16249,0.0684,0.9385,-0.1733,12.329,13.367,-1.404,98.146,-6.954,123.173
16259,0.0854,0.9531,-0.3296,23.376,5.859,2.197,98.481,-6.960,123.228
16269,0.1030,0.9893,-0.4141,27.710,-3.601,4.517,98.904,-6.987,123.190
16279,0.1265,1.0142,-0.4307,25.818,-11.292,6.104,99.311,-7.026,123.063
16290,0.1387,1.0557,-0.3599,16.235,-13.000,5.737,99.586,-7.059,122.926
16299,0.1411,1.0894,-0.2051,3.784,-9.277,3.723,99.646,-7.081,122.827
16309,0.1382,1.0903,-0.0591,-7.141,0.610,1.648,99.509,-7.103,122.833
16319,0.1323,1.0645,0.0210,-15.320,15.198,-1.282,99.234,-7.114,122.986
16329,0.1138,0.9961,0.0039,-16.907,28.809,-4.395,98.932,-7.108,123.278
16339,0.1289,0.9683,-0.0688,-16.174,35.645,-5.981,98.679,-7.108,123.646
16349,0.1558,0.9492,-0.1694,-8.423,31.067,-6.226,98.575,-7.114,123.964
16359,0.1704,0.9229,-0.2607,3.540,18.555,-3.479,98.657,-7.141,124.151
16369,0.1733,0.9155,-0.3071,13.550,3.845,0.854,98.882,-7.185,124.189
16379,0.1709,0.8950,-0.2949,20.264,-13.062,4.456,99.196,-7.240,124.052
16389,0.1572,0.8696,-0.2187,17.578,-28.015,7.141,99.454,-7.289,123.761
16399,0.1475,0.9136,-0.1152,2.319,-29.846,6.592,99.492,-7.322,123.453
16409,0.1484,0.9790,-0.0400,-11.719,-19.470,3.662,99.333,-7.339,123.256
16419,0.1455,0.9849,-0.0254,-19.104,-3.235,1.587,99.069,-7.361,123.217
16429,0.1499,0.9746,-0.0601,-24.231,11.108,0.183,98.762,-7.394,123.333
16439,0.1074,0.8735,-0.1533,-20.508,14.160,-1.099,98.553,-7.399,123.475
16449,0.0830,0.7969,-0.2422,-16.113,6.287,0.488,98.465,-7.399,123.536
16459,0.0464,0.7070,-0.3848,-12.573,-11.047,5.981,98.558,-7.399,123.415
16469,0.0889,0.7720,-0.4580,-15.381,-37.842,13.489,98.679,-7.460,123.019
16479,0.1782,0.9165,-0.4541,-24.536,-65.308,22.583,98.701,-7.608,122.333
16489,0.2319,1.0498,-0.3516,-38.574,-82.214,27.588,98.531,-7.795,121.470
16499,0.2549,1.2407,-0.0317,-59.753,-82.581,24.719,97.982,-7.954,120.608
16509,0.2861,1.4712,0.3560,-71.106,-63.171,17.517,97.361,-8.042,119.954
16519,0.2588,1.5767,0.6528,-52.368,-31.738,10.071,96.883,-8.097,119.625
16529,0.1577,1.4629,0.6938,-12.329,6.348,3.479,96.751,-8.141,119.680
16539,0.0547,1.2373,0.4844,29.541,45.471,-2.869,96.982,-8.168,120.141
16549,0.0342,1.0234,0.1509,60.486,73.059,-6.653,97.482,-8.190,120.883
16559,0.0571,0.8560,-0.1772,71.411,75.439,-7.080,98.086,-8.218,121.646
16569,0.1172,0.7764,-0.4551,66.833,56.946,-7.202,98.674,-8.223,122.228
16579,0.1304,0.6572,-0.6484,53.650,28.015,-8.728,99.168,-8.179,122.520
16589,0.1260,0.6152,-0.6997,32.532,-1.587,-9.583,99.492,-8.086,122.520
16599,0.1206,0.6094,-0.6431,7.690,-28.564,-5.981,99.608,-7.976,122.245
16609,0.1362,0.6924,-0.4849,-19.226,-46.692,0.122,99.481,-7.899,121.778
