elapsed_ms,acc_x_g,acc_y_g,acc_z_g,gyro_x_dps,gyro_y_dps,gyro_z_dps,angle_x_deg,angle_y_deg,angle_z_deg
0,0.0078,0.9243,0.0361,-42.419,10.315,-3.418,88.226,-2.604,116.746
10,-0.0200,0.9668,0.0908,-59.509,16.602,-8.484,87.594,-2.477,116.911
20,-0.0483,0.9814,0.1436,-66.711,24.475,-16.907,86.863,-2.247,117.147
30,-0.0513,0.9907,0.1812,-64.087,29.724,-28.809,86.144,-1.895,117.427
40,-0.0679,0.9883,0.1880,-54.321,28.625,-41.016,85.529,-1.412,117.686
50,-0.0488,1.0029,0.1914,-43.396,24.048,-44.617,85.034,-0.912,117.894
60,-0.0371,1.0420,0.1948,-33.264,13.611,-33.447,84.644,-0.544,117.999
70,-0.0303,1.1016,0.2129,-20.691,0.488,-10.193,84.386,-0.417,117.993
80,-0.0059,1.1577,0.2485,-2.625,-7.751,14.038,84.293,-0.560,117.933
90,0.0352,1.2100,0.2852,18.188,-7.080,28.687,84.397,-0.857,117.889
100,0.0557,1.2231,0.2900,35.278,4.578,31.494,84.672,-1.181,117.966
110,0.0532,1.1094,0.2275,45.776,23.315,22.400,85.056,-1.395,118.218
120,0.0361,0.9985,0.1318,39.551,43.213,6.531,85.408,-1.428,118.652
130,0.0156,0.8779,0.0527,17.212,57.617,-5.798,85.578,-1.324,119.224
140,0.0142,0.7725,-0.0581,-7.568,62.744,-12.024,85.578,-1.154,119.839
151,0.0332,0.8491,-0.1094,-31.006,57.861,-11.658,85.375,-1.005,120.410
160,0.0581,1.0122,-0.0806,-43.457,43.518,-2.502,85.029,-0.967,120.839
170,0.0698,1.0396,-0.0420,-31.067,25.940,9.644,84.792,-1.071,121.108
180,0.0654,1.0005,0.0312,-7.629,10.925,16.479,84.749,-1.247,121.229
190,0.0430,0.9814,0.1465,10.986,1.587,17.517,84.820,-1.434,121.262
200,0.0439,0.9971,0.2334,19.958,0.427,16.113,84.941,-1.599,121.284
210,0.0508,0.9673,0.2490,21.362,6.531,14.709,85.056,-1.752,121.360
220,0.0430,0.8799,0.1562,21.301,19.104,11.414,85.210,-1.862,121.558
230,0.0400,0.8257,0.0259,16.296,35.034,6.348,85.391,-1.901,121.915
240,0.0703,0.8457,-0.0674,4.456,46.997,2.136,85.507,-1.917,122.382
250,0.1035,0.8965,-0.1182,-4.272,46.753,1.038,85.573,-1.934,122.849
260,0.1167,0.9585,-0.1206,-4.456,34.546,4.272,85.633,-2.000,123.201
270,0.1147,1.0225,-0.0776,5.493,16.602,9.827,85.765,-2.126,123.371
281,0.0942,1.0156,-0.0151,20.691,-1.038,15.076,86.023,-2.307,123.371
290,0.0859,1.0063,0.0366,32.898,-13.977,17.029,86.375,-2.510,123.245
301,0.0937,1.0874,0.1055,37.964,-18.372,15.686,86.737,-2.703,123.074
310,0.1006,1.1704,0.1304,40.466,-13.916,13.000,87.111,-2.862,122.943
321,0.1006,1.1963,0.0981,42.114,-4.272,8.301,87.512,-2.966,122.904
331,0.0630,1.1294,0.0322,40.894,5.859,1.892,87.924,-2.983,122.959
341,-0.0303,0.9688,-0.0850,33.508,14.282,-6.775,88.319,-2.862,123.102
351,-0.0796,0.8867,-0.1846,18.433,20.386,-16.052,88.627,-2.620,123.300
361,-0.0557,0.9326,-0.2080,0.000,18.311,-19.287,88.759,-2.368,123.481
371,-0.0117,1.0200,-0.1841,-8.850,3.723,-14.893,88.781,-2.186,123.514
381,0.0464,1.0977,-0.1221,-5.920,-19.958,-7.263,88.808,-2.120,123.311
391,0.0601,1.1191,-0.0190,4.395,-44.495,0.916,88.890,-2.148,122.866
401,0.0381,1.1108,0.0771,13.672,-49.500,6.531,89.011,-2.219,122.371
411,0.0410,1.1284,0.1626,14.221,-34.119,7.141,89.094,-2.296,122.036
421,0.0444,1.0859,0.1772,10.254,-10.925,4.944,89.116,-2.346,121.926
431,0.0410,0.9839,0.1196,3.906,14.893,0.671,89.088,-2.351,122.075
441,0.0503,0.9302,0.0708,-12.939,38.452,-4.211,88.912,-2.313,122.459
451,0.0508,0.9229,0.0254,-32.471,52.185,-8.057,88.566,-2.230,122.981
461,0.0625,0.9619,-0.0151,-42.358,50.537,-10.620,88.149,-2.126,123.481
471,0.0645,1.0190,-0.0376,-34.729,33.386,-9.338,87.830,-2.038,123.810
481,0.0918,1.0566,-0.0083,-13.794,8.911,-4.333,87.720,-2.021,123.898
491,0.1206,1.0327,0.0166,10.559,-19.287,0.366,87.847,-2.082,123.706
501,0.0786,0.9595,0.0698,27.466,-45.959,3.845,88.110,-2.159,123.250
511,0.0405,0.9419,0.1523,27.527,-48.584,7.507,88.330,-2.252,122.767
521,0.0371,0.9116,0.1704,16.418,-24.292,9.216,88.412,-2.351,122.525
531,0.0581,0.9644,0.1675,3.540,10.193,6.592,88.363,-2.422,122.629
541,0.0786,0.9897,0.1460,-6.287,44.556,2.686,88.215,-2.461,123.074
551,0.0615,0.9673,0.1011,-9.888,64.453,-1.831,88.044,-2.433,123.723
561,0.0747,1.0200,0.0547,-10.071,63.110,-5.676,87.907,-2.373,124.349
571,0.0703,1.0532,-0.0068,-2.808,41.565,-6.165,87.885,-2.313,124.761
581,0.0659,1.0674,-0.0420,14.343,13.672,-4.822,88.066,-2.269,124.898
591,0.0469,1.0635,-0.0156,35.034,-8.240,-2.869,88.445,-2.247,124.816
601,0.0063,1.0068,0.0464,57.617,-19.775,-2.014,89.011,-2.214,124.618
611,-0.0381,0.9292,0.1533,72.083,-14.709,1.343,89.648,-2.186,124.470
621,-0.0361,0.9023,0.1792,78.308,10.864,5.859,90.313,-2.197,124.579
631,0.0059,0.9790,0.1255,81.299,43.823,9.766,91.022,-2.280,125.019
641,0.0527,1.0073,0.0107,82.092,73.120,12.817,91.791,-2.422,125.744
651,0.0928,1.0063,-0.1479,78.613,90.149,12.329,92.598,-2.604,126.645
661,0.1255,1.0293,-0.2812,66.895,89.294,8.240,93.345,-2.763,127.535
671,0.1289,0.9868,-0.4014,51.514,71.472,3.845,94.010,-2.884,128.243
681,0.1294,0.9658,-0.4712,34.302,44.678,-0.061,94.548,-2.955,128.694
691,0.0972,0.9360,-0.4780,18.921,15.137,-1.526,94.949,-2.977,128.842
701,0.0615,0.8799,-0.4048,5.981,-13.977,-0.549,95.213,-2.966,128.705
711,0.0322,0.9063,-0.2021,-8.118,-39.673,2.747,95.229,-2.950,128.309
721,0.0156,0.9868,0.0317,-20.020,-49.622,8.423,94.988,-2.966,127.804
731,0.0142,1.0601,0.2007,-20.813,-38.940,13.062,94.642,-3.038,127.403
741,0.0386,1.0874,0.2422,-12.939,-13.428,14.648,94.351,-3.164,127.260
751,0.0571,1.0767,0.1885,-5.310,16.541,13.855,94.147,-3.307,127.414
761,0.0698,1.0474,0.0781,-5.005,42.480,10.437,93.988,-3.450,127.831
771,0.0645,0.9966,-0.0747,-10.620,53.955,5.737,93.856,-3.543,128.364
781,0.0635,0.9644,-0.2236,-18.372,50.293,1.160,93.735,-3.587,128.870
791,0.0742,1.0015,-0.3057,-25.024,33.386,-2.197,93.598,-3.593,129.205
801,0.1055,1.0767,-0.3262,-24.231,9.644,-1.892,93.483,-3.598,129.298
811,0.1392,1.1465,-0.2905,-15.442,-16.418,1.526,93.450,-3.636,129.133
821,0.1338,1.1274,-0.1792,-1.099,-44.067,4.028,93.521,-3.680,128.694
831,0.0728,1.0708,-0.0010,7.019,-59.753,5.371,93.593,-3.697,128.090
841,0.0317,1.0327,0.1509,3.723,-49.561,5.615,93.543,-3.702,127.590
851,0.0288,1.0044,0.2070,-2.197,-22.644,2.991,93.384,-3.697,127.365
861,0.0459,1.0156,0.1958,-4.578,4.883,-0.854,93.192,-3.680,127.414
871,0.0654,1.0029,0.1172,-3.540,27.344,-2.747,93.043,-3.669,127.689
881,0.1030,1.0063,0.0024,-4.639,38.696,-3.174,92.939,-3.680,128.079
891,0.1211,0.9980,-0.1226,-4.150,37.781,-2.869,92.917,-3.702,128.458
901,0.1309,0.9585,-0.2432,-0.671,28.564,-2.563,93.005,-3.730,128.743
911,0.1416,0.9248,-0.3369,2.075,17.151,-1.709,93.186,-3.768,128.914
921,0.1509,0.9136,-0.3989,3.418,5.615,0.000,93.417,-3.818,128.974
931,0.1450,0.9375,-0.4165,6.836,-5.005,1.770,93.697,-3.873,128.919
941,0.1382,0.9658,-0.3516,11.536,-10.742,3.479,93.977,-3.939,128.809
951,0.1289,0.9868,-0.2520,17.578,-11.108,4.944,94.263,-4.016,128.699
961,0.1025,0.9858,-0.1548,21.729,-7.568,5.981,94.532,-4.087,128.617
971,0.0937,0.9946,-0.0996,21.790,-0.854,6.592,94.757,-4.164,128.600
981,0.0884,0.9863,-0.0972,19.226,4.150,6.531,94.955,-4.241,128.639
991,0.1025,1.0122,-0.1255,13.611,6.470,5.249,95.109,-4.312,128.699
1001,0.1304,1.0679,-0.1514,6.409,4.517,3.601,95.197,-4.378,128.743
1011,0.1284,1.0874,-0.1631,0.122,-1.892,1.953,95.235,-4.417,128.721
1021,0.0835,1.0894,-0.0830,-6.592,-11.292,0.122,95.169,-4.411,128.606
1031,0.0283,1.1177,0.1060,-13.306,-23.621,-0.732,94.949,-4.351,128.370
1041,-0.0293,1.0825,0.2983,-13.245,-32.410,1.465,94.636,-4.279,128.046
1051,-0.0630,1.0430,0.4282,-5.249,-29.968,5.371,94.340,-4.235,127.744
1061,-0.0361,0.9810,0.3911,6.958,-14.282,9.033,94.158,-4.252,127.595
1071,0.0181,0.9873,0.2651,15.930,8.606,10.132,94.120,-4.323,127.672
1081,0.0771,1.0210,0.0864,18.921,31.250,8.911,94.191,-4.433,127.980
1091,0.1196,1.0156,-0.1069,15.930,42.053,4.761,94.340,-4.532,128.397
1101,0.1328,0.9746,-0.2612,4.700,35.034,-3.479,94.460,-4.554,128.749
1111,0.1187,0.9814,-0.3247,-15.442,18.066,-9.949,94.433,-4.493,128.936
1121,0.0762,0.9536,-0.3257,-30.579,-4.944,-10.010,94.279,-4.389,128.897
1131,0.0352,0.8857,-0.2715,-32.471,-31.433,-5.371,94.109,-4.290,128.584
1141,0.0034,0.8599,-0.1562,-27.283,-48.462,1.892,93.933,-4.230,128.101
1152,0.0054,0.9141,-0.0093,-20.142,-47.607,9.949,93.735,-4.257,127.617
1161,0.0566,1.0034,0.1128,-10.010,-33.630,16.785,93.565,-4.395,127.266
1171,0.1558,1.1323,0.1748,-4.700,-10.681,21.179,93.400,-4.631,127.150
1181,0.1997,1.1821,0.1450,-7.996,12.451,18.066,93.208,-4.861,127.260
1191,0.1440,1.0532,0.0073,-16.052,29.968,5.737,92.988,-4.966,127.557
1201,0.0625,0.9282,-0.1235,-34.180,37.781,-9.155,92.664,-4.883,127.941
1211,0.0430,0.9561,-0.1763,-51.819,32.471,-16.602,92.203,-4.708,128.276
1221,0.0684,0.9893,-0.1851,-51.086,14.282,-13.306,91.769,-4.576,128.425
1231,0.0903,0.9795,-0.1880,-31.067,-9.827,-4.089,91.560,-4.537,128.326
1241,0.1025,1.0225,-0.1387,-4.028,-33.813,4.028,91.604,-4.581,127.985
1251,0.1035,1.0879,-0.0293,18.250,-46.997,11.230,91.824,-4.686,127.513
1261,0.1245,1.1333,0.1055,26.001,-44.128,16.785,92.043,-4.856,127.062
1271,0.1523,1.1836,0.1738,21.484,-27.466,14.771,92.181,-5.015,126.782
1281,0.1270,1.0933,0.1396,10.864,-5.615,5.615,92.197,-5.087,126.727
1291,0.0337,0.9316,0.0439,-5.676,13.855,-7.324,92.076,-4.988,126.865
1301,0.0166,0.8926,-0.0459,-30.762,27.283,-19.165,91.758,-4.768,127.150
1311,0.0273,0.9028,-0.1113,-51.270,27.710,-22.644,91.280,-4.521,127.430
1321,0.0347,0.9521,-0.1445,-52.917,14.221,-17.883,90.818,-4.323,127.579
1331,0.0547,0.9966,-0.1602,-31.555,-8.728,-7.935,90.593,-4.230,127.491
1341,0.0879,1.0566,-0.1216,1.587,-35.950,3.296,90.698,-4.263,127.134
1351,0.1079,1.0713,-0.0356,31.555,-57.678,13.977,91.066,-4.411,126.552
1361,0.1133,1.0654,0.0918,43.640,-61.401,19.470,91.483,-4.609,125.931
1371,0.1172,1.0664,0.2148,32.898,-44.861,15.381,91.719,-4.763,125.480
1381,0.0889,1.0591,0.2505,10.559,-17.395,5.005,91.686,-4.807,125.305
1391,0.0557,1.0239,0.1514,-9.399,13.245,-5.676,91.483,-4.741,125.436
1401,0.0376,0.9717,-0.0103,-23.743,39.246,-13.855,91.203,-4.587,125.832
1411,0.0469,0.8848,-0.2222,-29.968,49.500,-17.883,90.994,-4.406,126.337
1421,0.0913,0.8843,-0.3408,-32.227,37.842,-17.090,90.851,-4.252,126.716
1431,0.1465,0.9644,-0.3418,-27.100,11.047,-11.414,90.758,-4.180,126.832
1441,0.1831,1.0303,-0.3037,-11.475,-23.010,-2.747,90.818,-4.202,126.601
1451,0.1494,1.0752,-0.1758,11.353,-60.059,5.127,91.060,-4.285,125.997
1461,0.0825,1.0874,0.0371,26.306,-79.834,11.658,91.351,-4.384,125.195
1471,0.0542,1.0781,0.2407,25.513,-70.801,12.695,91.516,-4.477,124.481
1481,0.0547,1.0962,0.3936,11.047,-42.969,7.202,91.445,-4.521,124.047
1492,0.0396,1.0884,0.3965,-2.747,-3.784,-0.854,91.208,-4.482,124.008
1501,0.0303,1.0601,0.2686,-12.085,38.574,-6.653,90.906,-4.395,124.398
1511,0.0420,0.9644,0.0298,-16.357,68.909,-10.864,90.665,-4.279,125.090
1521,0.0630,0.9194,-0.1924,-15.137,75.378,-12.878,90.566,-4.158,125.848
1532,0.0942,0.8984,-0.3022,-10.254,57.373,-10.132,90.604,-4.076,126.425
1542,0.1157,0.8779,-0.3369,-2.075,24.719,-2.869,90.769,-4.081,126.672
1552,0.1353,0.9434,-0.3296,6.042,-11.658,3.845,91.022,-4.153,126.557
1561,0.1074,0.9717,-0.2544,21.179,-51.697,8.911,91.406,-4.252,126.035
1571,0.0742,0.9976,-0.0806,29.114,-77.881,14.648,91.785,-4.378,125.250
1581,0.0654,1.0225,0.1211,21.667,-72.693,16.968,91.972,-4.515,124.519
1592,0.0854,1.1235,0.3105,3.418,-47.302,12.024,91.868,-4.614,124.041
1602,0.0923,1.1992,0.4004,-10.620,-14.160,4.395,91.571,-4.653,123.898
1612,0.0850,1.1924,0.3560,-13.306,22.461,-1.953,91.236,-4.631,124.124
1621,0.0708,1.0889,0.1870,-9.583,52.673,-7.263,90.989,-4.559,124.651
1632,0.0815,1.0098,-0.0034,-6.104,65.735,-10.864,90.873,-4.466,125.310
1642,0.0947,0.9429,-0.1636,-3.052,58.594,-10.681,90.884,-4.378,125.903
1652,0.1011,0.8628,-0.2798,0.488,37.415,-7.996,91.033,-4.329,126.277
1662,0.1021,0.8579,-0.3384,-0.183,10.010,-4.761,91.225,-4.301,126.381
1672,0.1113,0.9355,-0.3247,0.183,-17.395,-1.770,91.423,-4.301,126.205
1682,0.0967,0.9839,-0.2266,6.836,-43.457,2.991,91.637,-4.329,125.771
1692,0.0801,1.0078,-0.0708,11.536,-56.641,8.789,91.818,-4.406,125.200
1702,0.0708,1.0313,0.1201,10.010,-53.223,11.169,91.873,-4.493,124.662
1712,0.0757,1.0444,0.2480,3.296,-36.438,9.216,91.780,-4.565,124.294
1722,0.0908,1.0747,0.2871,-4.028,-12.634,5.371,91.582,-4.620,124.167
1732,0.1123,1.1021,0.2241,-5.737,12.573,1.099,91.384,-4.642,124.288
1742,0.1411,1.0757,0.0776,-1.221,32.532,-2.014,91.291,-4.658,124.618
1752,0.1616,1.0327,-0.0781,3.113,39.734,-4.883,91.324,-4.664,125.019
1762,0.1611,0.9639,-0.2041,2.808,35.217,-6.958,91.428,-4.647,125.370
1772,0.1313,0.8867,-0.3022,-3.479,24.048,-8.118,91.549,-4.603,125.618
1782,0.0996,0.8789,-0.3262,-12.146,7.263,-8.423,91.609,-4.537,125.689
1792,0.0967,0.9365,-0.2710,-18.494,-10.864,-6.226,91.582,-4.488,125.585
1802,0.0986,1.0005,-0.1465,-18.921,-27.649,-2.014,91.483,-4.471,125.305
1812,0.0815,1.0508,0.0342,-12.207,-39.917,2.869,91.357,-4.488,124.904
1822,0.0732,1.0894,0.2021,-2.747,-38.452,7.507,91.241,-4.543,124.519
1832,0.0718,1.1128,0.2700,5.798,-23.071,10.193,91.170,-4.631,124.283
1842,0.0835,1.0913,0.2231,12.329,-1.587,8.484,91.165,-4.713,124.266
1852,0.0718,0.9863,0.0874,14.832,18.372,3.357,91.236,-4.741,124.453
1862,0.0742,0.9272,-0.0596,7.935,31.555,-1.892,91.313,-4.730,124.766
1872,0.1167,0.9233,-0.1699,-6.409,31.738,-4.883,91.313,-4.713,125.085
1882,0.1396,1.0000,-0.2007,-18.738,17.822,-5.859,91.214,-4.686,125.266
1892,0.1367,1.0615,-0.1670,-20.630,-2.258,-4.639,91.088,-4.669,125.244
1902,0.1064,1.0596,-0.0977,-10.986,-22.522,-2.808,91.038,-4.647,125.019
1912,0.0488,1.0107,-0.0015,0.977,-38.879,-1.465,91.071,-4.603,124.629
1922,0.0205,0.9756,0.1025,6.531,-41.077,1.770,91.099,-4.581,124.217
1932,0.0312,0.9771,0.1616,4.761,-28.198,4.822,91.060,-4.598,123.937
1942,0.0664,1.0093,0.1475,2.930,-9.033,4.639,91.005,-4.631,123.843
1952,0.0972,1.0303,0.0703,1.038,7.996,2.808,90.961,-4.669,123.920
1962,0.1104,1.0498,-0.0269,-4.700,19.958,0.122,90.901,-4.686,124.124
1972,0.1089,1.0371,-0.1143,-7.874,22.339,-3.235,90.862,-4.669,124.349
1982,0.0937,0.9893,-0.1772,-9.277,15.503,-5.981,90.846,-4.620,124.503
1992,0.0771,0.9531,-0.1748,-11.475,2.747,-6.592,90.829,-4.554,124.530
2002,0.0659,0.9663,-0.1128,-11.719,-11.047,-4.761,90.780,-4.499,124.420
2012,0.0576,0.9692,-0.0293,-5.432,-22.339,-0.977,90.753,-4.477,124.200
2022,0.0518,0.9800,0.0884,2.197,-27.954,4.028,90.736,-4.499,123.915
2032,0.0483,0.9912,0.1982,7.080,-23.437,8.179,90.703,-4.559,123.679
2042,0.0605,1.0249,0.2471,9.277,-8.728,10.864,90.659,-4.653,123.591
2052,0.0840,1.0669,0.2173,10.864,9.705,10.437,90.637,-4.752,123.690
2062,0.0957,1.0625,0.1299,14.221,25.085,7.507,90.681,-4.834,123.937
2072,0.0918,0.9795,-0.0054,15.137,33.936,2.869,90.802,-4.872,124.277
2082,0.0869,0.9292,-0.1309,8.362,34.241,-2.014,90.928,-4.861,124.623
2092,0.0850,0.9136,-0.2065,-2.014,26.733,-3.967,91.000,-4.828,124.893
2102,0.0947,0.9409,-0.2134,-9.583,12.939,-2.380,91.016,-4.818,125.024
2112,0.1128,1.0098,-0.1680,-9.766,-3.235,1.160,91.005,-4.839,124.991
2122,0.1060,1.0610,-0.0859,-1.831,-20.630,4.395,91.038,-4.889,124.783
2132,0.0854,1.0586,0.0215,8.240,-33.203,7.568,91.126,-4.955,124.448
2142,0.0757,1.0542,0.1406,10.010,-30.762,10.498,91.165,-5.043,124.135
2152,0.0811,1.0625,0.1968,3.845,-15.137,9.155,91.099,-5.125,123.981
2162,0.0835,1.0444,0.1670,-4.517,5.737,4.150,90.950,-5.158,124.041
2172,0.0742,1.0244,0.0640,-15.015,24.597,-2.136,90.736,-5.131,124.288
2182,0.0801,0.9888,-0.0635,-23.560,36.438,-7.568,90.494,-5.059,124.656
2192,0.1035,0.9810,-0.1577,-28.870,36.194,-11.230,90.264,-4.960,125.019
2202,0.1309,1.0176,-0.1816,-18.677,3.662,-8.423,90.176,-4.900,125.057
2212,0.1167,1.0366,-0.1201,-3.296,-15.747,-3.357,90.220,-4.878,124.898
2222,0.0791,1.0156,-0.0347,13.062,-33.142,1.099,90.396,-4.883,124.563
2232,0.0444,0.9761,0.0596,22.034,-41.199,5.981,90.610,-4.916,124.151
2242,0.0420,0.9785,0.1577,17.822,-35.034,9.033,90.720,-4.977,123.799
2252,0.0610,1.0269,0.2061,7.629,-16.663,7.568,90.687,-5.037,123.629
2262,0.0840,1.0435,0.1509,0.671,6.226,3.662,90.599,-5.065,123.690
2272,0.1094,1.0571,0.0649,-5.432,26.367,0.244,90.483,-5.081,123.959
2282,0.1279,1.0249,-0.0532,-7.324,37.048,-3.357,90.401,-5.070,124.327
2292,0.1353,0.9824,-0.1567,-7.080,34.058,-7.324,90.390,-5.026,124.673
2302,0.1362,0.9551,-0.2046,-9.399,20.203,-9.949,90.396,-4.960,124.876
2312,0.1245,0.9575,-0.2002,-11.963,0.854,-10.071,90.390,-4.883,124.882
2322,0.1133,0.9810,-0.1484,-13.550,-18.250,-8.423,90.352,-4.812,124.700
2332,0.0820,1.0068,-0.0601,-8.789,-35.095,-5.371,90.324,-4.757,124.349
2342,0.0620,1.0039,0.0454,1.343,-43.335,-0.061,90.346,-4.741,123.915
2352,0.0513,0.9844,0.1489,9.216,-40.894,5.066,90.379,-4.774,123.503
2362,0.0557,0.9893,0.2095,12.024,-28.442,8.911,90.401,-4.839,123.217
2372,0.0723,0.9810,0.1890,11.597,-9.583,10.498,90.412,-4.938,123.124
2382,0.0894,0.9785,0.1069,9.583,9.827,9.949,90.428,-5.037,123.217
2392,0.1069,0.9785,-0.0034,6.042,23.926,7.446,90.467,-5.125,123.459
2402,0.1406,0.9722,-0.1118,1.892,26.917,3.540,90.522,-5.197,123.728
2412,0.1558,0.9844,-0.1968,-1.953,17.578,0.122,90.593,-5.235,123.904
2422,0.1411,0.9946,-0.2554,-2.686,0.427,-1.160,90.709,-5.246,123.909
2432,0.1245,0.9980,-0.2700,0.549,-19.714,0.000,90.873,-5.262,123.712
2442,0.0903,1.0034,-0.2031,3.906,-42.664,3.296,91.055,-5.284,123.283
2452,0.0542,1.0171,-0.0713,4.333,-59.875,9.033,91.187,-5.339,122.679
2462,0.0586,1.0664,0.0947,3.723,-57.312,13.611,91.214,-5.444,122.102
2472,0.0947,1.1387,0.2407,3.479,-37.781,13.000,91.148,-5.554,121.718
2482,0.1250,1.1626,0.2710,5.249,-8.911,7.507,91.071,-5.630,121.630
2492,0.1479,1.0850,0.1929,5.066,20.813,0.793,90.989,-5.663,121.838
2502,0.1558,0.9785,0.0747,-1.099,42.236,-5.493,90.879,-5.652,122.261
2512,0.1558,0.9541,-0.0444,-10.986,49.011,-8.911,90.742,-5.603,122.756
2522,0.1558,0.9624,-0.1313,-13.672,39.795,-8.240,90.637,-5.565,123.157
2532,0.1348,0.9766,-0.1626,-8.362,19.165,-4.517,90.626,-5.543,123.349
2542,0.1147,0.9609,-0.1743,0.488,-4.333,-0.122,90.731,-5.554,123.305
2552,0.0894,0.9351,-0.1548,7.996,-28.320,3.052,90.923,-5.581,123.019
2562,0.0439,0.9355,-0.0674,11.169,-46.021,6.348,91.110,-5.603,122.558
2572,0.0371,0.9380,0.0273,10.315,-48.279,10.071,91.230,-5.663,122.069
2582,0.0488,0.9868,0.1094,6.714,-36.804,10.925,91.258,-5.735,121.701
2592,0.0718,1.0239,0.1406,2.258,-18.921,9.033,91.208,-5.801,121.509
2602,0.1006,1.0146,0.1089,-2.075,-0.061,7.263,91.115,-5.872,121.503
2612,0.1304,1.0508,0.0669,-11.475,14.771,4.944,90.939,-5.933,121.652
2622,0.1445,1.0918,-0.0039,-17.273,21.851,1.343,90.742,-5.966,121.871
2632,0.1421,1.1147,-0.0654,-16.052,20.447,-2.258,90.588,-5.960,122.080
2642,0.1133,1.0601,-0.1245,-9.033,11.780,-4.578,90.544,-5.916,122.195
2653,0.0874,1.0093,-0.1470,-5.310,1.160,-5.249,90.566,-5.856,122.212
2662,0.0698,1.0249,-0.1230,-7.446,-9.094,-5.005,90.566,-5.784,122.119
2672,0.0645,1.0117,-0.0703,-7.324,-17.578,-3.479,90.544,-5.729,121.943
2682,0.0518,0.9863,0.0225,-7.080,-22.217,-1.038,90.478,-5.691,121.718
2692,0.0518,0.9966,0.1431,-8.240,-19.531,1.404,90.330,-5.674,121.520
2702,0.0693,1.0356,0.2422,-7.263,-10.315,3.235,90.132,-5.685,121.421
2712,0.0937,1.0615,0.2441,-1.892,3.479,4.272,89.978,-5.718,121.454
2722,0.1099,1.0742,0.1724,5.676,17.517,3.662,89.929,-5.757,121.630
2732,0.1187,1.0381,0.0640,12.756,27.832,1.465,89.995,-5.779,121.910
2742,0.1157,0.9673,-0.0483,14.343,31.067,-1.343,90.132,-5.773,122.223
2752,0.1079,0.8745,-0.1465,8.118,28.625,-3.967,90.275,-5.746,122.509
2762,0.1079,0.8237,-0.1890,-4.700,23.254,-5.371,90.335,-5.713,122.745
2772,0.1084,0.8291,-0.1582,-18.372,17.578,-4.578,90.242,-5.685,122.921
2782,0.1143,0.8794,-0.0615,-25.391,13.184,-0.854,90.011,-5.691,123.052
2792,0.1113,0.9614,0.1025,-21.973,11.230,4.883,89.725,-5.751,123.168
2802,0.1016,1.0469,0.2676,-8.484,19.470,10.437,89.478,-5.850,123.360
2812,0.1011,1.0811,0.3311,9.705,38.208,13.672,89.368,-5.971,123.745
2822,0.1016,1.0610,0.2817,27.649,59.448,13.550,89.440,-6.092,124.349
2832,0.1064,1.0205,0.1675,35.828,79.712,10.681,89.621,-6.191,125.151
2842,0.1250,0.9722,0.0332,33.386,95.215,6.836,89.835,-6.262,126.107
2852,0.1509,0.9385,-0.0942,20.447,100.952,1.526,89.989,-6.301,127.123
2862,0.1855,0.9214,-0.2021,2.808,91.248,-7.629,90.038,-6.273,128.040
2872,0.1938,0.9829,-0.2524,-14.526,67.261,-14.771,89.967,-6.174,128.716
2882,0.1626,1.1021,-0.2271,-24.719,39.246,-12.695,89.797,-6.070,129.111
2892,0.1245,1.1631,-0.1929,-18.127,11.292,-3.906,89.698,-6.031,129.227
2902,0.1035,1.1631,-0.1416,0.610,-20.386,4.700,89.802,-6.070,129.023
2912,0.0762,1.1050,-0.0757,19.348,-51.941,12.939,90.088,-6.174,128.502
2922,0.0625,1.0420,0.0020,28.442,-63.110,19.043,90.434,-6.334,127.864
2932,0.0625,1.0161,0.0527,24.475,-51.147,18.372,90.698,-6.487,127.348
2942,0.0967,1.0342,0.0693,11.780,-27.100,10.986,90.802,-6.581,127.073
2952,0.1289,1.0542,0.0483,-1.526,-4.456,2.136,90.758,-6.603,127.029
2962,0.1597,1.0889,0.0327,-16.113,11.475,-4.395,90.560,-6.581,127.145
2972,0.1763,1.1025,0.0146,-24.170,19.836,-9.338,90.286,-6.515,127.343
2982,0.1743,1.0908,-0.0010,-24.353,20.203,-12.878,90.016,-6.416,127.551
2992,0.1445,1.0161,-0.0396,-17.822,13.977,-14.038,89.846,-6.290,127.689
3002,0.0937,0.9072,-0.0664,-10.925,4.639,-13.306,89.780,-6.158,127.738
3012,0.0557,0.8496,-0.0610,-11.658,-4.028,-11.108,89.709,-6.021,127.694
3022,0.0488,0.8574,-0.0249,-13.977,-11.292,-7.019,89.604,-5.927,127.579
3032,0.0640,0.9004,0.0400,-12.939,-17.761,-0.854,89.473,-5.900,127.403
3042,0.0913,0.9727,0.1045,-6.592,-21.545,5.859,89.374,-5.955,127.189
3052,0.1265,0.9937,0.1069,5.798,-18.494,11.780,89.396,-6.086,127.002
3062,0.1514,1.0103,0.0742,18.127,-10.498,14.099,89.550,-6.251,126.898
3072,0.1616,0.9849,0.0234,27.466,-2.930,13.123,89.813,-6.411,126.870
3082,0.1641,0.9507,-0.0420,28.015,1.282,10.559,90.115,-6.548,126.881
3092,0.1562,0.9150,-0.1069,19.104,1.709,6.409,90.368,-6.641,126.898
3102,0.1309,0.8970,-0.1470,4.578,-1.099,1.648,90.505,-6.674,126.887
3112,0.1250,0.9453,-0.1211,-11.597,-5.859,-1.343,90.467,-6.669,126.832
3123,0.1299,1.0137,-0.0435,-22.034,-13.000,-0.916,90.280,-6.663,126.700
3132,0.1245,1.0796,0.0664,-21.362,-19.775,1.953,90.055,-6.680,126.502
3142,0.1152,1.1201,0.1748,-11.169,-19.653,6.165,89.879,-6.735,126.304
3153,0.1152,1.1318,0.2236,5.371,-10.193,8.911,89.835,-6.812,126.200
3162,0.1113,1.0757,0.1772,22.217,4.089,9.155,89.956,-6.894,126.238
3172,0.1138,1.0288,0.0937,28.137,18.860,6.348,90.159,-6.949,126.431
3183,0.1255,1.0088,-0.0093,22.583,31.067,1.526,90.352,-6.965,126.744
3192,0.1416,0.9756,-0.1304,11.047,37.476,-3.052,90.489,-6.949,127.123
3202,0.1553,0.9639,-0.2202,-2.869,36.865,-6.653,90.538,-6.910,127.491
3212,0.1602,0.9707,-0.2598,-15.076,26.611,-9.338,90.500,-6.839,127.760
3223,0.1592,0.9995,-0.2349,-23.621,7.568,-9.460,90.385,-6.768,127.837
3232,0.1479,1.0229,-0.1699,-25.940,-15.076,-6.714,90.236,-6.713,127.689
3243,0.1270,1.0244,-0.0737,-21.362,-39.307,-2.625,90.110,-6.685,127.293
3253,0.0835,1.0220,0.0659,-14.282,-58.960,2.441,90.000,-6.691,126.700
3262,0.0474,1.0225,0.2100,-6.714,-62.927,8.362,89.890,-6.735,126.063
3273,0.0469,1.0044,0.3013,2.319,-48.889,13.062,89.802,-6.823,125.574
3283,0.0659,0.9912,0.3071,10.620,-25.085,13.794,89.769,-6.927,125.321
3293,0.1001,1.0005,0.2432,16.541,0.671,10.742,89.797,-7.020,125.327
3303,0.1353,1.0205,0.1411,19.409,22.217,7.263,89.885,-7.097,125.552
3313,0.1689,1.0093,0.0220,19.287,36.621,4.089,90.016,-7.158,125.920
3323,0.1812,0.9912,-0.0806,13.855,42.114,-0.061,90.148,-7.191,126.348
3333,0.1812,0.9609,-0.1626,4.761,38.635,-4.944,90.242,-7.174,126.733
3343,0.1646,0.9331,-0.1953,-5.066,25.635,-8.301,90.275,-7.119,126.996
3353,0.1421,0.9478,-0.1743,-14.709,9.094,-8.423,90.220,-7.048,127.084
3363,0.1182,0.9487,-0.1377,-18.982,-5.859,-6.226,90.121,-6.987,127.029
3373,0.1050,0.9561,-0.0786,-17.761,-18.921,-2.686,90.016,-6.954,126.837
3383,0.0977,0.9790,0.0083,-12.024,-27.954,2.014,89.923,-6.960,126.557
3393,0.1050,1.0122,0.0884,-4.517,-28.564,7.385,89.863,-7.026,126.266
3403,0.1216,1.0552,0.1494,2.380,-19.897,10.559,89.835,-7.125,126.068
3413,0.1470,1.0820,0.1504,7.446,-6.042,10.010,89.835,-7.229,126.008
3423,0.1553,1.0601,0.1113,9.644,7.812,6.409,89.863,-7.300,126.085
3433,0.1479,1.0103,0.0396,7.568,18.188,0.977,89.896,-7.322,126.271
3443,0.1367,0.9771,-0.0293,1.038,24.353,-4.639,89.890,-7.284,126.513
3453,0.1289,0.9653,-0.0703,-6.165,25.024,-7.935,89.841,-7.207,126.766
3463,0.1177,0.9727,-0.0747,-10.559,19.226,-6.775,89.758,-7.136,126.958
3473,0.1147,1.0015,-0.0288,-9.033,8.240,-1.709,89.676,-7.114,127.040
3483,0.1323,1.0371,0.0381,-3.784,-3.357,4.395,89.626,-7.158,127.007
3493,0.1631,1.0723,0.1079,-0.061,-13.916,9.399,89.588,-7.267,126.870
3503,0.2095,1.0947,0.1387,-2.258,-17.822,9.705,89.522,-7.399,126.689
3513,0.2148,1.0454,0.1035,-11.292,-10.620,2.686,89.374,-7.465,126.584
3523,0.1665,0.9180,0.0229,-29.602,2.563,-11.902,89.066,-7.377,126.606
3533,0.1011,0.8389,-0.0278,-51.758,12.695,-26.611,88.566,-7.108,126.733
3543,0.0522,0.8296,-0.0366,-65.796,13.550,-31.921,87.940,-6.751,126.859
3553,0.0312,0.9365,0.0200,-61.523,-1.038,-22.278,87.341,-6.482,126.843
3563,0.0303,1.0581,0.0923,-29.419,-25.452,-0.305,87.056,-6.443,126.584
3573,0.0737,1.0234,0.1006,22.583,-46.326,24.170,87.303,-6.680,126.134
3583,0.1450,0.9771,0.0566,61.523,-57.007,41.138,87.968,-7.130,125.579
3593,0.2085,1.0723,0.0288,65.613,-55.420,44.312,88.693,-7.630,125.035
3603,0.2168,1.0625,-0.0439,47.668,-40.100,34.302,89.253,-8.015,124.640
3613,0.2080,1.0298,-0.0952,10.986,-16.357,15.686,89.445,-8.207,124.475
3623,0.1646,1.0273,-0.0767,-32.349,5.371,-4.700,89.165,-8.168,124.530
3633,0.1177,1.0503,-0.0293,-64.331,19.104,-18.127,88.522,-7.971,124.722
3643,0.0869,1.0781,0.0225,-74.158,22.583,-22.095,87.764,-7.712,124.942
3653,0.0649,1.0596,0.0322,-58.167,16.541,-17.639,87.171,-7.487,125.101
3663,0.0576,0.9888,0.0229,-28.015,7.202,-8.484,86.896,-7.361,125.173
3673,0.0864,0.9717,0.0171,-2.258,0.183,0.610,86.896,-7.344,125.173
3683,0.1182,0.9580,0.0029,15.442,-5.859,7.690,87.089,-7.421,125.118
3693,0.1587,0.9897,0.0137,18.677,-10.437,12.085,87.303,-7.559,125.019
3703,0.1895,1.0444,0.0562,13.855,-11.963,12.207,87.451,-7.712,124.904
3713,0.1870,1.0376,0.0835,6.714,-9.094,8.362,87.512,-7.822,124.816
3723,0.1631,1.0186,0.0962,-2.563,-2.563,1.465,87.462,-7.855,124.794
3733,0.1426,1.0132,0.0874,-10.376,4.028,-4.700,87.330,-7.806,124.832
3743,0.1362,0.9980,0.0693,-14.038,9.766,-7.629,87.166,-7.723,124.926
3753,0.1392,0.9922,0.0366,-13.977,13.000,-7.690,87.017,-7.646,125.052
3763,0.1445,1.0088,0.0063,-10.986,12.634,-5.798,86.918,-7.586,125.178
3773,0.1514,1.0093,-0.0137,-5.920,8.789,-2.625,86.885,-7.564,125.266
3783,0.1494,0.9795,-0.0186,-1.587,2.441,0.244,86.907,-7.575,125.288
3793,0.1245,0.9390,-0.0103,-0.732,-4.395,1.343,86.946,-7.592,125.244
3803,0.1060,0.9312,0.0415,-3.174,-10.254,1.953,86.929,-7.608,125.145
3813,0.1157,0.9756,0.1196,-6.287,-14.160,3.784,86.847,-7.641,125.002
3823,0.1426,1.0366,0.1724,-6.104,-12.573,6.348,86.743,-7.712,124.882
3833,0.1709,1.1011,0.1865,-1.526,-6.409,7.202,86.671,-7.800,124.821
3843,0.1846,1.1147,0.1689,6.226,0.366,5.615,86.677,-7.866,124.827
3853,0.1753,1.0625,0.1172,12.024,6.287,2.258,86.759,-7.899,124.893
3863,0.1460,0.9722,0.0503,9.521,11.963,-2.075,86.836,-7.883,125.008
3873,0.1191,0.9399,0.0156,-3.174,16.724,-6.470,86.808,-7.800,125.173
3883,0.1045,0.9478,-0.0020,-17.029,19.226,-9.338,86.644,-7.685,125.365
3893,0.1074,0.9819,0.0122,-24.353,17.578,-9.583,86.407,-7.564,125.535
3903,0.1299,1.0361,0.0303,-21.240,11.780,-7.263,86.204,-7.482,125.651
3913,0.1440,1.0508,0.0352,-8.118,3.601,-2.930,86.138,-7.454,125.684
3923,0.1538,1.0225,0.0332,8.118,-3.723,1.160,86.243,-7.476,125.645
3933,0.1558,0.9712,0.0303,17.395,-8.057,3.052,86.446,-7.531,125.568
3943,0.1338,0.9009,0.0151,15.686,-9.766,2.625,86.638,-7.570,125.469
3953,0.1152,0.8662,0.0186,4.028,-9.399,0.183,86.710,-7.575,125.376
3963,0.1152,0.8452,0.0293,-12.939,-8.362,-2.319,86.605,-7.559,125.288
3973,0.1201,0.9175,0.0649,-30.518,-8.179,-4.150,86.309,-7.526,125.206
3983,0.1465,1.0327,0.0952,-35.400,-10.376,-3.479,85.957,-7.498,125.101
3993,0.1890,1.1465,0.1357,-22.949,-15.869,1.221,85.721,-7.542,124.942
4003,0.1982,1.1758,0.1636,2.075,-22.034,9.216,85.737,-7.668,124.728
4013,0.1631,1.0752,0.1592,30.762,-23.499,14.587,86.028,-7.839,124.503
4023,0.1230,0.9526,0.1401,46.875,-17.029,14.587,86.468,-7.987,124.338
4033,0.1138,0.8887,0.1162,41.199,-3.479,10.193,86.841,-8.086,124.310
4043,0.1206,0.8936,0.0908,18.677,10.132,4.089,86.984,-8.113,124.415
4053,0.1426,0.9175,0.0371,-7.996,22.400,-2.380,86.885,-8.086,124.640
4063,0.1709,1.0156,0.0181,-32.227,30.518,-9.094,86.545,-7.993,124.942
4073,0.1748,1.0820,0.0107,-38.391,28.992,-13.062,86.155,-7.861,125.228
4083,0.1572,1.0674,0.0029,-25.208,19.287,-11.047,85.913,-7.745,125.414
4093,0.1299,1.0469,0.0356,-5.188,5.798,-4.395,85.875,-7.690,125.469
4103,0.1011,0.9961,0.0508,16.357,-7.812,3.601,86.061,-7.712,125.392
4113,0.0957,0.8960,0.0244,29.419,-20.081,10.193,86.402,-7.811,125.195
4123,0.1089,0.8848,0.0166,20.447,-26.611,11.414,86.666,-7.932,124.937
4133,0.1289,0.8945,-0.0044,-1.587,-21.790,6.958,86.715,-8.015,124.722
4143,0.1689,1.0039,0.0210,-32.349,-8.667,-1.404,86.429,-8.020,124.634
4154,0.2021,1.1621,0.1021,-52.856,2.869,-8.972,85.886,-7.949,124.656
4163,0.2041,1.2026,0.1670,-46.448,6.409,-11.353,85.380,-7.850,124.711
4173,0.1509,1.1035,0.1787,-22.156,5.920,-9.521,85.111,-7.745,124.766
4183,0.0781,1.0146,0.1509,6.775,5.737,-6.653,85.133,-7.641,124.816
4193,0.0503,0.8872,0.0664,32.471,5.676,-1.953,85.452,-7.575,124.871
4203,0.0674,0.8047,-0.0195,40.039,2.014,1.892,85.908,-7.564,124.893
4213,0.1240,0.8232,-0.0669,23.071,-3.357,1.831,86.226,-7.597,124.860
4223,0.1851,0.9111,-0.0820,-1.892,-9.338,-1.831,86.309,-7.619,124.766
4233,0.2271,1.0503,-0.0171,-22.827,-15.564,-5.737,86.149,-7.619,124.607
4243,0.2241,1.1113,0.0728,-29.907,-22.888,-7.874,85.886,-7.597,124.371
4253,0.1968,1.0923,0.1587,-22.461,-25.513,-8.484,85.655,-7.553,124.107
4263,0.1445,1.0381,0.1938,-6.897,-23.254,-8.545,85.556,-7.487,123.865
4273,0.0933,0.9619,0.1699,11.719,-16.174,-4.822,85.638,-7.432,123.701
4283,0.0996,0.8936,0.1138,20.691,-6.409,0.916,85.825,-7.438,123.635
4293,0.1357,0.9248,0.0684,13.916,1.404,4.395,85.957,-7.487,123.651
4303,0.1729,0.9897,0.0171,-0.244,5.676,4.333,85.979,-7.553,123.712
4313,0.2104,1.1230,0.0098,-17.151,5.737,1.343,85.836,-7.592,123.772
4323,0.2178,1.1885,0.0132,-23.621,1.892,-2.930,85.633,-7.586,123.788
4333,0.1929,1.1421,0.0410,-17.395,-4.089,-6.592,85.490,-7.548,123.745
4343,0.1245,1.0151,0.0693,-7.141,-9.827,-9.155,85.441,-7.460,123.635
4353,0.0620,0.9019,0.0908,-0.671,-12.939,-10.376,85.441,-7.328,123.497
4363,0.0464,0.8691,0.1055,-0.793,-13.916,-8.118,85.430,-7.218,123.354
4373,0.0806,0.9351,0.1079,-5.737,-13.611,-3.540,85.369,-7.169,123.212
4383,0.1191,0.9849,0.0776,-8.423,-11.902,0.244,85.298,-7.180,123.091
4393,0.1519,1.0654,0.0649,-10.254,-9.583,1.343,85.221,-7.213,122.997
4403,0.1812,1.1143,0.0527,-7.690,-8.667,0.549,85.177,-7.240,122.910
4413,0.1768,1.0601,0.0200,-0.854,-11.292,-1.099,85.221,-7.262,122.800
4423,0.1528,0.9868,0.0059,1.892,-15.808,-3.235,85.303,-7.262,122.635
4433,0.1235,0.9395,0.0269,-1.526,-21.301,-4.517,85.347,-7.234,122.415
4443,0.1079,0.9111,0.0586,-6.348,-28.259,-3.784,85.331,-7.213,122.130
4453,0.1060,0.9141,0.1099,-9.888,-33.936,-1.404,85.254,-7.224,121.789
4463,0.1108,0.9688,0.1592,-11.658,-35.095,0.977,85.133,-7.251,121.437
4473,0.1304,1.0239,0.1982,-8.362,-30.212,2.197,85.029,-7.300,121.135
4483,0.1416,1.0239,0.2241,-1.404,-22.034,2.563,84.968,-7.344,120.916
4493,0.1328,0.9795,0.3091,2.747,-14.404,1.953,84.891,-7.377,120.773
4503,0.1265,0.9521,0.4185,1.526,-10.681,1.404,84.732,-7.399,120.668
4513,0.1235,0.9438,0.4912,0.488,-7.507,2.869,84.523,-7.427,120.597
4523,0.0957,1.0029,0.4761,4.333,-1.770,5.615,84.370,-7.454,120.580
4533,0.0854,1.0830,0.3843,17.578,9.399,7.996,84.391,-7.493,120.685
4543,0.0879,1.1250,0.2476,37.109,21.423,8.972,84.661,-7.531,120.910
4553,0.0771,1.0674,0.0781,54.199,32.166,7.324,85.166,-7.537,121.240
4563,0.0352,0.9111,-0.1240,61.768,40.344,0.305,85.853,-7.454,121.646
4573,0.0273,0.8174,-0.2788,49.683,44.556,-10.193,86.517,-7.267,122.086
4584,0.0732,0.8223,-0.3628,21.667,40.771,-18.250,86.951,-7.037,122.487
4594,0.1255,0.8687,-0.3936,-8.667,25.269,-19.714,87.111,-6.833,122.728
4604,0.1802,0.9624,-0.3550,-30.151,0.916,-14.709,87.045,-6.718,122.728
4613,0.2285,1.0645,-0.2622,-34.180,-26.245,-6.348,86.907,-6.718,122.465
4623,0.2427,1.1968,-0.1157,-18.250,-50.537,4.456,86.869,-6.833,121.954
4633,0.2236,1.2012,0.0601,11.658,-63.721,16.296,87.061,-7.070,121.322
4643,0.1758,1.1377,0.2402,35.950,-61.462,23.499,87.402,-7.350,120.718
4654,0.1431,1.0605,0.3477,42.908,-40.222,21.729,87.720,-7.581,120.322
4664,0.1304,1.0259,0.3574,32.471,-7.874,11.963,87.885,-7.696,120.251
4674,0.1372,1.0654,0.3003,15.381,25.391,-0.793,87.863,-7.668,120.504
4683,0.1655,1.0674,0.1670,2.258,55.054,-10.498,87.748,-7.559,121.053
4694,0.1846,1.0278,0.0083,-2.991,74.158,-17.944,87.638,-7.377,121.794
4703,0.1978,0.9668,-0.1245,-0.305,77.637,-23.071,87.632,-7.158,122.569
4713,0.1753,0.8877,-0.2021,3.906,63.232,-21.912,87.748,-6.954,123.195
4724,0.1357,0.8506,-0.1968,0.854,37.170,-15.015,87.863,-6.806,123.563
4734,0.1211,0.8652,-0.1260,-9.216,7.507,-6.104,87.869,-6.757,123.635
4744,0.1313,0.8940,-0.0254,-18.066,-25.330,1.709,87.759,-6.801,123.382
4754,0.1240,0.9819,0.1084,-21.362,-50.171,7.629,87.567,-6.899,122.882
4764,0.1226,1.1519,0.2529,-18.860,-47.913,10.437,87.336,-7.009,122.404
4774,0.1318,1.2183,0.2612,-0.916,-21.729,9.583,87.259,-7.108,122.190
4784,0.1304,1.1450,0.2017,20.813,13.367,5.615,87.374,-7.147,122.327
4794,0.1118,1.0112,0.1099,32.715,44.678,-2.502,87.605,-7.092,122.778
4803,0.1074,0.8765,0.0000,28.442,63.477,-10.681,87.836,-6.960,123.409
4814,0.1123,0.7896,-0.1108,12.817,65.491,-16.052,87.984,-6.790,124.063
4824,0.1216,0.8218,-0.1504,-5.066,51.575,-17.456,88.000,-6.614,124.574
4834,0.1436,0.9258,-0.1094,-17.578,26.428,-13.367,87.880,-6.493,124.838
4844,0.1562,1.0439,-0.0410,-12.085,-3.479,-5.005,87.808,-6.465,124.799
4854,0.1553,1.0654,0.0400,8.179,-36.194,5.310,87.929,-6.548,124.437
4864,0.1255,1.0371,0.1216,30.396,-61.890,14.282,88.259,-6.713,123.821
4874,0.1099,1.0332,0.1675,42.542,-61.279,18.005,88.676,-6.905,123.212
4884,0.1333,1.0396,0.1470,43.945,-36.377,12.451,89.083,-7.037,122.844
4894,0.1440,1.0610,0.1118,36.011,-7.690,0.671,89.401,-7.053,122.767
4904,0.1431,1.0913,0.1011,21.240,14.771,-11.902,89.544,-6.938,122.915
4914,0.1309,1.0386,0.0649,12.390,22.949,-19.775,89.610,-6.746,123.146
4924,0.1196,0.9746,-0.0029,14.404,15.991,-22.217,89.736,-6.526,123.305
4934,0.1025,0.9482,-0.0625,25.635,0.732,-21.851,90.033,-6.306,123.311
4944,0.1021,0.9268,-0.1152,36.194,-15.076,-19.104,90.478,-6.114,123.162
4954,0.1162,0.8950,-0.1621,38.086,-28.259,-13.428,90.983,-5.993,122.877
4964,0.1289,0.8965,-0.1631,28.625,-39.856,-6.165,91.401,-5.944,122.476
4974,0.1323,0.9492,-0.0757,10.864,-48.828,-0.793,91.588,-5.944,121.987
4984,0.1367,1.0571,0.0698,-5.127,-45.898,0.854,91.533,-5.955,121.525
4994,0.1313,1.1084,0.1938,-9.094,-28.381,-1.465,91.357,-5.938,121.240
5004,0.1006,1.0757,0.2202,-0.183,-6.470,-5.371,91.230,-5.878,121.179
5014,0.0640,0.9922,0.1475,12.329,15.564,-7.812,91.241,-5.779,121.333
5024,0.0371,0.8730,0.0034,21.240,34.973,-6.653,91.401,-5.691,121.690
5034,0.0649,0.8262,-0.1660,21.423,45.349,-3.967,91.670,-5.647,122.146
5044,0.1196,0.8662,-0.3120,15.930,38.940,-1.343,91.972,-5.663,122.536
5054,0.1768,0.9282,-0.3896,6.042,17.944,1.709,92.219,-5.729,122.717
5064,0.2368,1.0327,-0.3687,-9.216,-10.315,4.395,92.313,-5.834,122.613
5074,0.2402,1.1011,-0.2480,-18.005,-43.335,7.080,92.285,-5.949,122.173
5084,0.1914,1.1274,-0.0493,-20.630,-64.880,9.399,92.148,-6.053,121.514
5094,0.1143,1.1221,0.1377,-19.958,-60.669,8.362,91.923,-6.108,120.905
5104,0.0493,1.0796,0.2510,-15.320,-39.368,3.784,91.664,-6.097,120.509
5114,-0.0005,1.0352,0.2490,-8.240,-11.475,-1.038,91.439,-6.021,120.394
5124,-0.0024,1.0181,0.1587,-5.371,20.142,-4.395,91.263,-5.922,120.597
5134,0.0415,1.0186,0.0234,-7.629,48.523,-5.676,91.115,-5.839,121.086
5144,0.1050,1.0518,-0.1030,-9.277,63.171,-6.409,91.000,-5.790,121.723
5154,0.1533,1.0723,-0.2168,-8.240,56.458,-7.263,90.967,-5.746,122.289
5164,0.1768,1.0669,-0.2725,-8.789,33.569,-8.911,90.983,-5.702,122.629
5174,0.1831,1.0972,-0.2300,-15.076,4.395,-10.803,90.934,-5.630,122.673
5184,0.1597,1.0996,-0.1509,-17.944,-25.574,-10.803,90.851,-5.543,122.421
5194,0.0781,1.0664,-0.0142,-13.184,-53.833,-8.789,90.769,-5.433,121.877
5204,-0.0239,1.0273,0.1592,-5.310,-64.575,-4.333,90.681,-5.317,121.234
5214,-0.0713,1.0244,0.2861,4.578,-49.316,0.610,90.610,-5.224,120.734
5224,-0.0620,1.0308,0.3213,16.968,-22.827,4.150,90.621,-5.180,120.509
5234,-0.0259,1.0190,0.2490,28.625,4.761,5.676,90.758,-5.169,120.553
5244,0.0410,1.0313,0.0981,33.020,32.349,5.371,90.994,-5.197,120.877
5254,0.1270,1.0522,-0.0986,34.058,51.941,2.747,91.329,-5.251,121.399
5264,0.2080,1.0332,-0.2529,32.532,56.213,-2.014,91.719,-5.301,121.965
5274,0.2471,0.9546,-0.3281,22.156,45.349,-7.019,92.071,-5.328,122.421
5284,0.2358,0.8892,-0.3262,1.831,24.048,-10.376,92.247,-5.323,122.668
5294,0.1987,0.8643,-0.2637,-18.860,-3.906,-11.353,92.214,-5.279,122.629
5304,0.1460,0.8535,-0.1284,-31.616,-36.194,-9.033,91.994,-5.219,122.272
5314,0.0825,0.9053,0.0962,-33.020,-62.012,-1.526,91.642,-5.180,121.652
5324,0.0405,0.9644,0.3120,-21.545,-64.270,10.071,91.291,-5.235,121.003
5334,0.0449,1.0073,0.4106,-0.488,-40.955,17.334,91.088,-5.367,120.586
5344,0.0835,1.0542,0.3721,21.118,-5.981,17.517,91.099,-5.532,120.526
5354,0.1294,1.0718,0.2197,37.659,30.212,12.939,91.318,-5.674,120.822
5364,0.1797,1.0166,-0.0146,46.448,58.899,5.066,91.714,-5.784,121.415
5374,0.2041,0.9609,-0.2178,37.720,70.679,-4.211,92.126,-5.823,122.124
5384,0.1865,0.8799,-0.3550,17.700,63.721,-11.963,92.433,-5.779,122.772
5394,0.1538,0.8350,-0.4023,-7.996,44.250,-15.198,92.543,-5.685,123.223
5404,0.1445,0.8813,-0.3628,-32.349,17.700,-13.855,92.406,-5.587,123.404
5414,0.1353,0.9541,-0.2681,-41.077,-13.245,-7.507,92.142,-5.526,123.278
5424,0.1001,0.9839,-0.1460,-32.349,-47.913,2.502,91.934,-5.537,122.794
5434,0.0547,1.0244,0.0303,-15.686,-70.984,14.221,91.807,-5.625,122.075
5444,0.0229,1.0464,0.1875,2.991,-66.895,22.888,91.785,-5.790,121.399
5454,0.0464,1.0596,0.2886,17.151,-41.565,23.499,91.829,-5.977,120.970
5464,0.0879,1.0864,0.3262,22.461,-10.498,17.700,91.873,-6.130,120.861
5474,0.1245,1.1074,0.2544,19.836,20.020,9.949,91.901,-6.240,121.058
5484,0.1528,1.0664,0.0996,14.648,44.861,2.930,91.928,-6.301,121.509
5494,0.1655,1.0386,-0.0527,5.371,57.190,-5.005,91.928,-6.295,122.086
5504,0.1636,1.0098,-0.1748,-2.808,55.359,-11.658,91.917,-6.229,122.646
5514,0.1313,0.9702,-0.2407,-10.742,40.955,-13.733,91.884,-6.119,123.063
5524,0.1030,0.9424,-0.2671,-18.250,20.569,-12.512,91.824,-5.999,123.272
5534,0.0825,0.9473,-0.2495,-20.996,-3.418,-9.155,91.747,-5.894,123.245
5544,0.0786,0.9717,-0.1787,-17.700,-30.701,-2.869,91.692,-5.845,122.937
5554,0.0610,1.0054,-0.0581,-6.958,-53.833,6.592,91.692,-5.872,122.393
5564,0.0605,0.9956,0.0664,6.592,-57.373,15.991,91.763,-5.988,121.811
5574,0.0767,0.9946,0.1870,16.113,-41.504,18.433,91.840,-6.141,121.388
5584,0.1064,1.0239,0.2715,16.846,-14.771,14.465,91.857,-6.279,121.234
5594,0.1313,1.0615,0.2612,11.536,12.939,8.667,91.802,-6.372,121.360
5604,0.1553,1.0337,0.1455,7.751,37.964,2.869,91.736,-6.432,121.745
5614,0.1636,1.0098,0.0078,2.441,53.101,-2.930,91.681,-6.449,122.278
5624,0.1636,0.9775,-0.1255,-2.930,56.458,-7.751,91.642,-6.416,122.849
5634,0.1538,0.9404,-0.2139,-4.761,44.800,-9.399,91.659,-6.361,123.300
5644,0.1445,0.9067,-0.2520,-7.751,24.475,-8.118,91.692,-6.312,123.552
5655,0.1372,0.9160,-0.2461,-11.597,1.038,-3.845,91.708,-6.295,123.563
5664,0.1328,0.9399,-0.2002,-11.597,-25.146,2.197,91.725,-6.323,123.305
5674,0.1143,0.9683,-0.1240,-5.737,-49.683,9.521,91.780,-6.405,122.805
5684,0.1035,0.9829,-0.0645,2.136,-62.378,17.456,91.890,-6.559,122.173
5694,0.1104,1.0088,-0.0122,7.202,-63.049,22.095,92.021,-6.751,121.531
5704,0.1387,1.0298,0.0063,10.315,-52.063,22.278,92.164,-6.965,120.998
5714,0.1694,1.0181,-0.0156,10.376,-35.217,18.433,92.296,-7.158,120.635
5724,0.1841,1.0034,-0.0493,6.409,-21.729,12.268,92.390,-7.300,120.416
5734,0.1831,0.9717,-0.1035,-0.977,-13.489,6.470,92.439,-7.394,120.273
5744,0.1865,0.9536,-0.1519,-9.521,-10.742,2.747,92.422,-7.454,120.163
5754,0.1816,0.9409,-0.1855,-16.296,-13.184,0.366,92.368,-7.482,120.031
5764,0.1572,0.9590,-0.1748,-18.799,-19.775,-0.366,92.285,-7.487,119.833
5774,0.1177,1.0015,-0.0576,-19.836,-28.259,1.770,92.137,-7.487,119.548
5784,0.0771,1.0303,0.1401,-18.127,-36.682,6.653,91.906,-7.504,119.174
5794,0.0571,1.0708,0.3320,-14.709,-37.781,11.597,91.620,-7.564,118.790
5804,0.0684,1.1172,0.4429,-7.202,-22.339,12.695,91.346,-7.641,118.564
5814,0.1064,1.1313,0.3877,7.385,5.615,10.132,91.208,-7.712,118.614
5824,0.1299,1.0820,0.2080,23.865,35.339,5.188,91.274,-7.762,118.971
5834,0.1357,0.9922,-0.0171,32.471,59.814,-0.793,91.511,-7.767,119.575
5844,0.1680,0.9399,-0.2148,28.137,71.289,-5.798,91.807,-7.751,120.295
5854,0.1978,0.8994,-0.3506,16.235,60.059,-8.667,92.082,-7.723,120.905
5864,0.2007,0.9087,-0.3872,0.183,31.433,-8.301,92.252,-7.690,121.223
5874,0.2090,0.9741,-0.3394,-15.930,0.244,-5.249,92.263,-7.674,121.229
5884,0.2109,1.0449,-0.2466,-22.522,-30.151,-0.427,92.192,-7.696,120.927
5894,0.1782,1.0991,-0.1304,-16.846,-56.030,5.676,92.142,-7.745,120.361
5904,0.1440,1.0962,0.0044,-8.789,-66.284,12.085,92.126,-7.833,119.685
5914,0.1143,1.0894,0.1572,-7.385,-56.152,13.123,92.027,-7.927,119.114
5924,0.0972,1.0723,0.2407,-9.888,-31.982,6.653,91.824,-7.954,118.790
5934,0.0801,1.0693,0.2744,-17.883,-1.160,-1.892,91.489,-7.894,118.779
5944,0.0972,1.1055,0.2231,-25.452,29.175,-9.155,91.066,-7.784,119.075
5954,0.1235,1.0801,0.1094,-22.400,52.368,-12.390,90.703,-7.657,119.608
5964,0.1494,1.0596,-0.0244,-12.512,61.768,-12.207,90.505,-7.548,120.229
5974,0.1514,1.0054,-0.1460,1.770,55.176,-10.315,90.527,-7.460,120.789
5984,0.1421,0.9209,-0.2285,10.010,36.072,-7.935,90.714,-7.394,121.152
5995,0.1416,0.8838,-0.2588,6.958,12.512,-5.310,90.923,-7.355,121.278
6005,0.1646,0.9072,-0.2500,-3.540,-11.230,-2.197,91.044,-7.355,121.168
6014,0.1616,0.9639,-0.1646,-11.414,-35.217,1.709,91.066,-7.388,120.811
6024,0.1387,1.0200,-0.0146,-13.916,-46.936,6.104,90.983,-7.443,120.339
6034,0.1255,1.0854,0.1553,-10.132,-40.161,8.850,90.846,-7.515,119.932
6044,0.1143,1.1309,0.2749,0.732,-21.301,8.301,90.736,-7.575,119.713
6054,0.1055,1.1118,0.2764,14.709,1.770,5.981,90.731,-7.614,119.729
6064,0.1113,1.0601,0.1704,26.001,24.841,2.686,90.857,-7.625,119.982
6075,0.1328,1.0059,0.0225,29.968,42.908,-1.099,91.077,-7.619,120.416
6084,0.1538,0.9458,-0.1206,26.978,50.476,-4.944,91.335,-7.597,120.927
6094,0.1709,0.9082,-0.2212,17.151,45.715,-6.958,91.571,-7.564,121.388
6105,0.1880,0.9058,-0.2607,4.089,29.785,-7.568,91.714,-7.537,121.690
6114,0.1992,0.9341,-0.2451,-8.667,6.531,-6.592,91.752,-7.515,121.756
6125,0.1982,0.9697,-0.1841,-16.052,-20.935,-4.150,91.708,-7.504,121.547
6135,0.1597,0.9951,-0.0469,-14.404,-47.363,-0.122,91.637,-7.504,121.069
6145,0.1084,1.0376,0.1353,-8.118,-51.636,4.944,91.533,-7.520,120.547
6155,0.0752,1.0068,0.2646,4.333,-32.959,7.141,91.461,-7.553,120.212
6165,0.0562,1.0161,0.3354,11.536,-5.371,6.226,91.384,-7.564,120.157
6174,0.0547,1.0190,0.2720,15.259,25.635,2.747,91.335,-7.553,120.416
6185,0.0967,0.9775,0.0937,15.808,55.725,-1.526,91.351,-7.531,120.976
6194,0.1543,0.9668,-0.0815,9.277,73.914,-6.531,91.384,-7.498,121.723
6205,0.2056,0.9951,-0.2056,2.319,73.242,-10.254,91.412,-7.454,122.465
6214,0.2505,1.0420,-0.2451,-5.432,55.298,-11.658,91.406,-7.410,123.025
6225,0.2666,1.0439,-0.2476,-7.080,26.978,-10.742,91.417,-7.377,123.300
6235,0.2192,1.0054,-0.2363,-2.686,-6.897,-9.583,91.516,-7.322,123.234
6245,0.1211,0.8940,-0.2178,5.371,-42.725,-7.080,91.747,-7.245,122.805
6255,0.0234,0.8438,-0.1240,8.240,-65.613,0.793,91.978,-7.174,122.146
6265,-0.0161,0.8711,0.0112,7.874,-65.063,10.681,92.109,-7.180,121.487
6275,0.0054,0.9995,0.1440,8.606,-45.776,16.296,92.148,-7.251,121.020
6285,0.0835,1.1245,0.2417,8.972,-14.465,16.785,92.115,-7.383,120.866
6295,0.1675,1.2144,0.3003,8.484,14.893,13.855,92.021,-7.526,121.009
6305,0.2344,1.2744,0.2480,8.545,38.269,7.263,91.923,-7.641,121.393
6315,0.2422,1.2622,0.1162,18.433,51.453,-0.793,91.967,-7.679,121.915
6325,0.1860,1.1157,-0.0483,29.419,53.711,-7.263,92.192,-7.646,122.459
6335,0.1187,0.9321,-0.1787,29.602,48.706,-10.620,92.505,-7.553,122.953
6345,0.0796,0.8179,-0.2583,18.188,38.147,-11.108,92.785,-7.438,123.344
6355,0.0562,0.7695,-0.3032,7.202,22.827,-8.484,93.016,-7.328,123.574
6365,0.0840,0.8296,-0.2944,-3.723,4.517,-3.601,93.137,-7.278,123.624
6375,0.1299,0.9180,-0.2476,-8.179,-13.428,2.014,93.192,-7.295,123.486
6385,0.1543,1.0103,-0.1558,-6.592,-28.259,6.226,93.219,-7.355,123.201
6395,0.1572,1.0664,-0.0229,-5.615,-33.630,7.690,93.186,-7.421,122.855
6405,0.1372,1.1064,0.1440,-3.723,-29.724,7.324,93.082,-7.471,122.552
6415,0.1177,1.0815,0.2300,5.554,-15.015,6.531,93.005,-7.515,122.399
6425,0.1040,1.0273,0.2217,19.287,0.854,5.615,93.043,-7.553,122.404
6435,0.1187,1.0083,0.1396,28.870,15.564,4.639,93.203,-7.597,122.558
6445,0.1538,0.9761,0.0078,36.255,27.649,3.967,93.488,-7.668,122.833
6455,0.1860,0.9478,-0.1196,35.034,33.875,2.441,93.829,-7.745,123.173
6465,0.2095,0.9292,-0.2041,24.414,33.325,-0.793,94.109,-7.806,123.508
6475,0.1973,0.8911,-0.2402,9.277,25.085,-4.150,94.274,-7.822,123.766
6485,0.1782,0.8911,-0.2349,-7.996,12.817,-6.104,94.285,-7.806,123.898
6495,0.1631,0.9272,-0.1914,-21.057,-1.282,-6.409,94.147,-7.762,123.893
6505,0.1499,0.9624,-0.1348,-26.123,-14.343,-5.127,93.950,-7.712,123.750
6515,0.1357,0.9868,-0.0674,-22.888,-22.217,-3.052,93.752,-7.663,123.530
6525,0.1289,0.9819,-0.0181,-15.381,-22.217,-1.343,93.604,-7.635,123.305
6535,0.1294,0.9956,0.0215,-8.362,-17.456,-0.549,93.494,-7.619,123.129
6545,0.1470,1.0010,0.0352,-3.174,-10.620,-0.244,93.422,-7.614,123.025
6555,0.1650,0.9917,0.0186,-0.916,-6.897,-0.793,93.373,-7.625,122.953
6565,0.1826,0.9961,-0.0239,-1.465,-8.484,-3.235,93.351,-7.614,122.871
6575,0.1855,0.9980,-0.0811,-3.662,-14.954,-6.409,93.345,-7.570,122.723
6585,0.1782,1.0093,-0.1182,-5.554,-24.353,-8.484,93.356,-7.498,122.487
6595,0.1665,1.0073,-0.1377,-6.287,-35.034,-8.179,93.384,-7.410,122.135
6605,0.1528,1.0249,-0.1255,-4.517,-45.349,-6.409,93.433,-7.333,121.685
6615,0.1348,1.0342,-0.0967,1.160,-55.359,-4.700,93.532,-7.256,121.130
6625,0.1270,1.0259,-0.0244,5.798,-64.331,-3.357,93.653,-7.180,120.482
6635,0.1304,1.0063,0.0366,4.883,-75.500,-2.075,93.735,-7.114,119.724
6645,0.1250,0.9946,0.0674,-2.563,-89.905,0.366,93.746,-7.059,118.823
6655,0.0962,1.0039,0.0884,-11.292,-100.891,3.906,93.669,-7.015,117.806
6665,0.0371,1.0244,0.0225,-11.047,-83.801,4.456,93.615,-6.960,116.960
6675,0.0435,0.9961,-0.0503,-9.033,-42.480,0.610,93.565,-6.894,116.532
6685,0.0601,0.9761,-0.0967,-8.667,-6.104,-4.211,93.510,-6.812,116.472
6695,0.0952,0.9731,-0.1235,-9.705,18.433,-6.531,93.428,-6.746,116.664
6705,0.1348,0.9551,-0.1821,-16.602,31.738,-5.798,93.301,-6.718,116.982
6715,0.1865,0.9849,-0.2334,-26.062,27.405,-6.714,93.109,-6.707,117.263
6725,0.2090,1.0532,-0.2207,-28.809,6.653,-10.315,92.906,-6.652,117.334
6735,0.1895,1.0942,-0.1689,-26.367,-17.822,-12.207,92.719,-6.553,117.164
6745,0.1636,1.0879,-0.1030,-21.301,-36.194,-10.254,92.576,-6.454,116.807
6755,0.1343,1.0723,-0.0229,-13.672,-49.316,-6.042,92.483,-6.378,116.312
6765,0.1133,1.0293,0.0527,-5.371,-55.542,-1.038,92.439,-6.345,115.752
6775,0.1064,1.0234,0.1147,-1.892,-28.259,3.784,92.362,-6.367,115.466
6785,0.1211,1.0024,0.0850,-6.226,-1.831,0.366,92.230,-6.372,115.450
6795,0.1089,0.9756,0.0464,-15.320,20.020,-2.502,92.005,-6.356,115.653
6805,0.1079,0.9692,0.0093,-24.963,34.485,-5.310,91.697,-6.317,115.999
6815,0.1030,0.9478,-0.0479,-26.123,36.011,-7.629,91.412,-6.246,116.367
6825,0.1050,0.9575,-0.0991,-18.738,26.428,-7.507,91.241,-6.180,116.631
6835,0.1147,0.9761,-0.1226,-7.141,11.536,-3.113,91.214,-6.158,116.752
6845,0.1367,1.0068,-0.1147,1.892,-3.174,3.174,91.291,-6.202,116.719
6855,0.1470,1.0303,-0.0586,7.812,-16.418,8.362,91.406,-6.301,116.548
6865,0.1265,1.0352,0.0557,6.592,-18.921,12.024,91.445,-6.422,116.356
6875,0.0991,1.0049,0.1602,-0.183,-5.371,10.376,91.346,-6.515,116.301
6885,0.0679,1.0020,0.2031,-9.277,16.846,4.089,91.110,-6.531,116.466
6895,0.0596,1.0054,0.1646,-12.512,41.077,-2.380,90.835,-6.482,116.884
6905,0.1025,1.0332,0.0776,-14.832,57.373,-5.920,90.571,-6.427,117.460
6915,0.1519,1.0581,-0.0386,-6.897,56.213,-8.606,90.456,-6.361,118.026
6925,0.1743,1.0156,-0.1680,6.531,41.077,-7.874,90.560,-6.323,118.438
6935,0.1699,0.9844,-0.2319,15.686,18.372,-4.272,90.824,-6.312,118.625
6945,0.1694,0.9419,-0.2583,17.029,-4.333,-0.305,91.143,-6.345,118.581
6955,0.1499,0.8896,-0.2407,10.559,-32.898,3.784,91.423,-6.405,118.251
6965,0.0972,0.9199,-0.1162,-6.714,-54.749,7.812,91.478,-6.465,117.697
6975,0.0713,0.9819,0.0444,-27.222,-47.729,9.155,91.219,-6.520,117.213
6985,0.0811,1.0645,0.2129,-40.405,-21.240,4.822,90.720,-6.542,116.999
6995,0.0742,1.1382,0.3306,-40.894,9.094,-1.221,90.132,-6.498,117.092
7005,0.0835,1.1528,0.3169,-27.527,38.513,-4.028,89.665,-6.432,117.482
7015,0.1045,1.1025,0.1797,-3.052,59.570,-4.272,89.478,-6.378,118.081
7025,0.1416,1.0381,-0.0020,22.217,68.542,-4.211,89.626,-6.345,118.768
7035,0.1626,0.9585,-0.1621,38.513,61.340,-4.761,90.044,-6.323,119.383
7045,0.1714,0.9155,-0.2549,41.321,39.429,-4.211,90.560,-6.323,119.784
7055,0.1714,0.9043,-0.2954,32.898,10.254,-2.075,91.049,-6.345,119.883
7065,0.1699,0.8921,-0.2861,22.095,-23.193,-0.122,91.461,-6.378,119.652
7075,0.1245,0.9175,-0.1934,12.695,-56.519,3.113,91.758,-6.405,119.081
7085,0.0894,0.9414,-0.0479,1.892,-74.280,8.057,91.868,-6.449,118.334
7095,0.0571,1.0020,0.1196,-5.005,-71.228,12.329,91.813,-6.520,117.614
7105,0.0698,1.0488,0.2378,-5.798,-44.312,11.780,91.659,-6.592,117.164
7115,0.1069,1.0718,0.2593,-0.305,-9.216,6.592,91.516,-6.647,117.070
7125,0.1172,1.0825,0.2192,6.226,21.301,1.404,91.423,-6.658,117.285
7135,0.1465,1.0352,0.0977,11.597,44.495,-2.258,91.417,-6.663,117.729
7145,0.1714,0.9741,-0.0439,13.489,54.810,-4.944,91.500,-6.658,118.284
7156,0.1772,0.9214,-0.1655,9.644,50.354,-6.348,91.626,-6.647,118.790
7165,0.1938,0.9028,-0.2344,1.770,35.645,-5.493,91.730,-6.658,119.152
7175,0.1890,0.9102,-0.2690,-3.906,11.353,-3.601,91.824,-6.669,119.268
7185,0.1992,0.9414,-0.2485,-11.597,-15.076,-0.977,91.857,-6.702,119.114
7195,0.1616,0.9771,-0.1655,-13.977,-40.894,2.930,91.846,-6.746,118.702
7205,0.1094,1.0034,-0.0176,-14.343,-50.964,7.080,91.752,-6.795,118.191
7215,0.0732,1.0425,0.1533,-15.869,-39.978,9.460,91.544,-6.850,117.784
7225,0.0708,1.0830,0.2773,-14.465,-13.367,7.874,91.258,-6.888,117.647
7235,0.0718,1.1143,0.2773,-7.996,16.785,4.211,91.005,-6.899,117.817
7245,0.0933,1.0835,0.1602,-1.160,47.607,0.916,90.840,-6.899,118.295
7255,0.1250,1.0527,-0.0068,4.639,67.627,-2.563,90.802,-6.883,118.976
7265,0.1655,1.0391,-0.1812,11.047,69.031,-5.676,90.917,-6.855,119.674
7275,0.1938,1.0278,-0.3101,12.939,51.575,-6.104,91.143,-6.839,120.190
7285,0.2085,1.0210,-0.3696,11.597,23.254,-4.395,91.417,-6.839,120.427
7295,0.2222,1.0278,-0.3696,8.423,-11.902,-1.831,91.703,-6.866,120.306
7305,0.1670,0.9990,-0.2959,9.155,-54.626,1.404,92.005,-6.883,119.756
7315,0.0786,0.9531,-0.1240,8.301,-83.557,7.080,92.241,-6.905,118.916
7325,0.0151,0.9580,0.0972,-1.770,-80.933,9.766,92.241,-6.910,118.098
7335,-0.0005,0.9985,0.2954,-12.634,-50.720,6.897,91.989,-6.888,117.581
7345,0.0088,1.0645,0.4175,-17.456,-10.559,2.869,91.593,-6.850,117.477
7355,0.0605,1.1226,0.3760,-14.404,31.372,0.671,91.214,-6.823,117.790
7365,0.1431,1.1582,0.2212,-3.601,65.063,-0.732,90.983,-6.833,118.444
7375,0.1992,1.1523,0.0249,14.893,79.712,-3.052,91.011,-6.844,119.251
7385,0.2207,1.0859,-0.1411,28.687,76.050,-4.517,91.269,-6.861,120.015
7395,0.2173,0.9858,-0.2510,30.518,57.312,-5.188,91.631,-6.872,120.591
7405,0.1851,0.9106,-0.3013,21.362,27.466,-6.409,91.978,-6.855,120.872
7415,0.1572,0.8535,-0.3228,8.606,-6.226,-7.202,92.258,-6.812,120.811
7425,0.1055,0.8193,-0.2593,-3.479,-43.152,-4.639,92.428,-6.751,120.377
7435,0.0635,0.8579,-0.1035,-18.860,-68.787,1.404,92.368,-6.713,119.685
7445,0.0483,0.9443,0.0933,-27.649,-69.031,5.310,92.093,-6.696,118.993
7455,0.0649,1.0264,0.2622,-24.109,-47.852,5.371,91.747,-6.702,118.510
7465,0.1074,1.0840,0.3604,-14.343,-14.343,4.700,91.417,-6.729,118.361
7475,0.1313,1.1030,0.3354,-0.305,18.860,3.601,91.208,-6.768,118.548
7485,0.1631,1.0537,0.1953,12.329,45.776,0.916,91.159,-6.806,119.009
7495,0.1768,1.0073,0.0259,19.226,59.204,-3.540,91.258,-6.812,119.608
7505,0.1816,0.9419,-0.1270,18.372,60.486,-7.324,91.428,-6.795,120.218
7515,0.1641,0.8638,-0.2314,11.963,46.631,-8.667,91.626,-6.757,120.690
7525,0.1572,0.8516,-0.2734,2.258,22.766,-7.690,91.785,-6.718,120.921
7535,0.1797,0.8901,-0.2876,-4.456,-6.653,-4.639,91.912,-6.713,120.855
7545,0.1621,0.9346,-0.2368,-3.845,-40.588,1.038,92.043,-6.740,120.449
7555,0.1353,0.9521,-0.1494,0.977,-64.941,8.484,92.197,-6.812,119.789
7565,0.1021,0.9521,0.0181,3.784,-72.998,14.038,92.291,-6.916,119.048
7575,0.0884,0.9551,0.1577,0.977,-56.702,14.832,92.252,-7.020,118.471
7585,0.0859,0.9951,0.2544,-5.981,-24.170,12.390,92.054,-7.114,118.224
7595,0.1064,1.0576,0.2832,-10.620,10.254,9.521,91.769,-7.196,118.323
7605,0.1924,1.1660,0.2290,-12.695,37.781,6.836,91.467,-7.295,118.702
7615,0.2437,1.2051,0.0884,-4.456,48.767,1.282,91.302,-7.361,119.196
7625,0.2100,1.0957,-0.0996,10.925,46.631,-7.690,91.390,-7.328,119.669
7635,0.1489,0.9658,-0.2285,12.573,37.781,-16.663,91.588,-7.185,120.053
7645,0.0767,0.8491,-0.2866,-0.183,26.062,-23.010,91.719,-6.943,120.322
7656,0.0752,0.8623,-0.2456,-23.621,12.573,-26.367,91.615,-6.663,120.454
7665,0.1104,0.9429,-0.1587,-44.006,-1.343,-25.940,91.258,-6.405,120.449
7675,0.0972,1.0137,-0.0786,-50.171,-12.207,-20.447,90.807,-6.191,120.333
7685,0.0718,1.0469,0.0010,-50.842,-12.512,-11.414,90.308,-6.053,120.207
7695,0.0762,1.1035,0.0649,-44.617,-4.333,-1.770,89.835,-6.015,120.163
7705,0.1016,1.1533,0.0952,-32.043,8.301,7.385,89.462,-6.075,120.245
7715,0.1245,1.1636,0.0864,-15.625,18.982,13.794,89.247,-6.213,120.438
7725,0.1499,1.1489,0.0410,0.427,26.489,15.015,89.214,-6.372,120.707
7735,0.1475,1.0879,-0.0249,11.047,26.123,11.780,89.313,-6.498,120.970
7745,0.1270,0.9917,-0.0933,14.038,18.555,6.042,89.489,-6.564,121.157
7755,0.0977,0.9219,-0.1445,9.094,6.165,0.305,89.670,-6.559,121.223
7765,0.0913,0.9097,-0.1782,-0.916,-6.531,-2.075,89.780,-6.531,121.157
7775,0.1045,0.9248,-0.1724,-8.728,-20.813,-0.488,89.824,-6.520,120.948
7785,0.1196,0.9634,-0.1235,-12.390,-38.391,4.089,89.824,-6.570,120.558
7796,0.1348,1.0063,-0.0093,-13.794,-52.307,10.193,89.753,-6.685,120.031
7805,0.1592,1.0767,0.1304,-13.428,-53.650,13.794,89.615,-6.839,119.493
7815,0.1694,1.0918,0.2427,-6.775,-42.053,12.390,89.478,-6.982,119.070
7826,0.1514,1.0630,0.2969,1.770,-21.973,8.179,89.368,-7.075,118.850
7835,0.1328,1.0073,0.2671,8.850,1.221,2.319,89.313,-7.097,118.861
7845,0.1006,0.9580,0.1670,14.160,20.203,-2.441,89.335,-7.059,119.064
7855,0.1108,0.9326,0.0459,15.076,34.424,-4.089,89.423,-7.009,119.410
7866,0.1436,0.9341,-0.0762,16.357,38.513,-3.052,89.588,-6.993,119.800
7876,0.1743,0.9346,-0.1836,17.578,29.907,-0.671,89.841,-7.020,120.103
7886,0.1836,0.9365,-0.2354,17.090,12.268,1.282,90.137,-7.070,120.223
7896,0.1929,0.9468,-0.2646,12.939,-7.507,1.648,90.434,-7.125,120.152
7906,0.1919,0.9561,-0.2378,5.249,-28.259,1.221,90.654,-7.174,119.866
7916,0.1616,0.9790,-0.1382,-5.005,-48.035,2.014,90.736,-7.213,119.383
7926,0.1177,0.9854,0.0332,-15.198,-58.655,4.822,90.632,-7.245,118.790
7936,0.0771,0.9854,0.2139,-20.386,-53.528,5.615,90.374,-7.267,118.246
7946,0.0557,1.0054,0.3159,-20.020,-32.349,3.906,90.033,-7.262,117.922
7956,0.0586,1.0288,0.3379,-13.611,-4.333,1.892,89.725,-7.240,117.878
7966,0.0913,1.0605,0.2808,-3.235,22.156,1.099,89.517,-7.224,118.103
7976,0.1562,1.0903,0.1558,9.277,43.152,1.099,89.478,-7.240,118.537
7986,0.1924,1.0845,0.0098,19.409,53.650,0.488,89.604,-7.267,119.075
7996,0.2056,1.0317,-0.1357,24.902,52.551,-0.671,89.863,-7.295,119.608
8006,0.1885,0.9668,-0.2324,22.827,39.429,-2.014,90.176,-7.311,120.004
8016,0.1650,0.9380,-0.2676,11.353,15.991,-3.540,90.423,-7.300,120.168
8026,0.1470,0.9502,-0.2544,-3.601,-9.338,-3.784,90.549,-7.273,120.070
8036,0.1299,0.9844,-0.1738,-15.564,-35.339,-2.014,90.533,-7.251,119.718
8046,0.0903,1.0088,-0.0220,-17.883,-54.810,2.563,90.434,-7.251,119.163
8056,0.0767,1.0317,0.1670,-17.456,-54.504,7.568,90.231,-7.289,118.614
8066,0.0713,1.0669,0.3193,-13.428,-33.508,8.057,89.973,-7.333,118.273
8076,0.0864,1.0796,0.3887,-6.104,-5.188,5.432,89.720,-7.355,118.224
8086,0.0898,1.0840,0.3540,4.333,23.193,2.502,89.555,-7.350,118.455
8096,0.1152,1.0591,0.2178,14.954,49.622,0.061,89.528,-7.333,118.960
8106,0.1362,0.9937,0.0269,24.353,65.125,-2.747,89.676,-7.306,119.614
8116,0.1650,0.9756,-0.1309,23.010,64.148,-6.104,89.901,-7.262,120.262
8126,0.1777,0.9561,-0.2422,18.677,45.166,-8.057,90.170,-7.213,120.718
8136,0.1753,0.9424,-0.2832,9.888,16.846,-6.836,90.417,-7.174,120.883
8146,0.1743,0.9375,-0.2881,0.488,-15.869,-4.578,90.604,-7.158,120.723
8156,0.1426,0.9604,-0.2290,-5.127,-50.659,-0.793,90.747,-7.158,120.218
8166,0.0947,0.9673,-0.0937,-6.104,-72.815,6.470,90.824,-7.196,119.482
8176,0.0596,0.9683,0.0908,-6.592,-74.097,13.245,90.791,-7.278,118.729
8186,0.0688,0.9897,0.2578,-4.395,-52.246,13.550,90.659,-7.372,118.202
8196,0.0835,1.0020,0.3472,0.305,-19.470,9.460,90.489,-7.432,118.004
8206,0.1011,1.0586,0.3408,5.188,15.381,5.432,90.335,-7.465,118.158
8216,0.1401,1.0649,0.2183,11.963,47.424,2.930,90.275,-7.498,118.636
8226,0.1704,1.0356,0.0469,19.348,67.444,-0.183,90.352,-7.515,119.317
8236,0.1929,1.0244,-0.1162,23.071,71.228,-3.662,90.549,-7.515,120.037
8246,0.2051,0.9922,-0.2349,22.461,58.411,-4.333,90.818,-7.515,120.624
8256,0.1968,0.9326,-0.3101,17.578,31.982,-3.662,91.126,-7.520,120.948
8266,0.1758,0.8950,-0.3423,7.080,-1.099,-3.479,91.395,-7.515,120.938
8276,0.1562,0.8950,-0.3247,-4.578,-36.987,-2.258,91.588,-7.504,120.569
8286,0.1240,0.9375,-0.2339,-13.306,-66.711,3.723,91.664,-7.520,119.894
8296,0.1118,0.9688,-0.0488,-17.090,-78.308,10.925,91.609,-7.597,119.103
8306,0.1084,1.0293,0.1753,-16.052,-69.092,12.695,91.434,-7.685,118.400
8316,0.1084,1.0693,0.3389,-11.108,-42.297,9.888,91.187,-7.751,117.971
8326,0.1133,1.1147,0.4224,-4.517,-7.568,5.676,90.934,-7.784,117.894
8336,0.1270,1.1313,0.3662,5.676,27.527,1.831,90.764,-7.789,118.169
8346,0.1523,1.1011,0.2012,20.996,56.763,-1.343,90.786,-7.784,118.746
8356,0.1729,1.0518,0.0044,33.630,73.608,-4.456,91.005,-7.762,119.487
8366,0.1792,0.9746,-0.1777,38.147,74.890,-6.042,91.379,-7.740,120.245
8376,0.1724,0.9009,-0.2905,33.997,61.035,-6.165,91.796,-7.723,120.861
8386,0.1724,0.8887,-0.3242,19.958,35.461,-5.249,92.126,-7.707,121.223
8396,0.1831,0.9165,-0.3101,2.869,5.371,-3.113,92.313,-7.707,121.278
8406,0.1748,0.9497,-0.2642,-8.911,-27.649,-0.549,92.395,-7.712,120.998
8416,0.1396,0.9775,-0.1753,-15.991,-55.603,3.540,92.390,-7.729,120.438
8426,0.1162,0.9990,-0.0381,-19.531,-64.087,6.775,92.280,-7.756,119.789
8436,0.0972,1.0439,0.1245,-21.179,-51.270,5.798,92.049,-7.773,119.268
8446,0.0986,1.0767,0.2646,-19.958,-24.780,1.953,91.725,-7.756,119.015
8456,0.0908,1.0806,0.3179,-14.648,3.967,-1.892,91.395,-7.707,119.059
8466,0.0977,1.0566,0.2583,-6.409,30.945,-4.700,91.137,-7.641,119.372
8476,0.1450,1.0435,0.1348,4.456,51.147,-5.981,91.033,-7.592,119.888
8486,0.1777,1.0278,-0.0093,16.541,58.350,-5.798,91.110,-7.570,120.476
8496,0.2061,0.9907,-0.1377,22.827,53.650,-4.517,91.335,-7.575,121.020
8506,0.2061,0.9399,-0.2065,21.667,37.537,-3.662,91.609,-7.592,121.399
8516,0.1899,0.9082,-0.2358,12.085,15.686,-3.723,91.840,-7.597,121.558
8526,0.1826,0.9082,-0.2329,-0.549,-6.531,-3.479,91.967,-7.597,121.492
8536,0.1636,0.9395,-0.1826,-10.132,-29.419,-0.916,91.994,-7.597,121.196
8546,0.1514,1.0029,-0.0967,-12.817,-40.833,4.089,91.956,-7.635,120.784
8556,0.1509,1.0405,-0.0176,-5.432,-35.828,7.507,91.945,-7.701,120.421
8566,0.1484,1.0474,0.0400,6.104,-21.057,7.690,91.989,-7.778,120.207
8576,0.1460,1.0186,0.0386,14.587,-1.831,6.287,92.093,-7.839,120.185
8586,0.1558,0.9668,-0.0107,14.160,16.418,3.479,92.197,-7.894,120.350
8596,0.1758,0.9595,-0.0825,3.479,26.733,-0.244,92.225,-7.927,120.619
8606,0.1948,0.9800,-0.1416,-8.179,30.823,-2.380,92.159,-7.949,120.932
8616,0.2139,0.9907,-0.1772,-16.663,28.992,-1.953,92.032,-7.982,121.223
8626,0.2344,0.9995,-0.2007,-20.203,17.273,-0.977,91.906,-8.026,121.399
8636,0.2207,0.9863,-0.2056,-21.362,-5.249,-0.427,91.796,-8.064,121.344
8646,0.1631,0.9854,-0.1382,-26.245,-30.518,0.488,91.642,-8.069,121.036
8657,0.0806,0.9922,0.0630,-32.593,-55.359,3.052,91.346,-8.053,120.476
8666,0.0269,1.0488,0.2837,-35.278,-63.232,6.348,90.923,-8.031,119.839
8676,0.0264,1.1143,0.4092,-24.658,-43.640,7.874,90.527,-8.036,119.394
8686,0.0435,1.1226,0.4106,0.427,-10.803,7.690,90.341,-8.053,119.284
8696,0.0737,1.1123,0.3286,24.048,25.085,7.080,90.374,-8.080,119.537
8706,0.1313,1.0674,0.1523,42.114,56.030,5.249,90.626,-8.124,120.103
8716,0.1821,1.0200,-0.0659,50.354,73.547,2.380,91.055,-8.174,120.850
8726,0.2310,0.9868,-0.2476,48.706,77.820,0.122,91.555,-8.234,121.635
8736,0.2607,0.9404,-0.3691,39.673,64.941,-1.953,92.054,-8.295,122.289
8746,0.2646,0.9189,-0.4082,22.400,38.025,-4.211,92.439,-8.333,122.673
8756,0.2422,0.9214,-0.3818,2.686,3.967,-5.737,92.659,-8.333,122.717
8766,0.1973,0.9302,-0.2822,-12.695,-33.936,-5.554,92.725,-8.289,122.377
8776,0.1187,0.9355,-0.0684,-22.461,-66.223,-2.991,92.615,-8.218,121.712
8786,0.0479,0.9507,0.1489,-26.184,-69.519,0.244,92.340,-8.135,121.009
8796,0.0156,0.9780,0.3369,-23.682,-45.593,-0.183,91.956,-8.042,120.547
8806,0.0107,0.9951,0.4233,-12.512,-8.484,-2.930,91.593,-7.938,120.465
8816,0.0493,1.0127,0.3916,-3.479,31.921,-5.737,91.285,-7.839,120.789
8826,0.1025,1.0181,0.2505,3.174,65.491,-7.874,91.077,-7.751,121.448
8836,0.1729,1.0098,0.0542,5.371,85.510,-8.789,90.972,-7.701,122.316
8846,0.2197,1.0034,-0.1011,5.981,87.036,-6.714,90.961,-7.690,123.195
8856,0.2251,0.9766,-0.2046,6.531,68.665,-3.662,91.044,-7.718,123.887
8866,0.2129,0.9478,-0.2837,6.165,36.682,-1.099,91.214,-7.756,124.261
8876,0.1895,0.9419,-0.3364,4.578,-0.977,0.183,91.445,-7.789,124.250
8886,0.1470,0.9443,-0.2871,3.418,-39.368,1.160,91.686,-7.800,123.849
8896,0.1001,0.9307,-0.1719,-0.305,-66.284,5.249,91.862,-7.811,123.179
8906,0.0713,0.9326,-0.0010,-6.470,-73.669,8.118,91.879,-7.833,122.437
8916,0.0591,0.9854,0.2026,-14.160,-63.232,7.324,91.692,-7.844,121.794
8926,0.0703,1.0376,0.3281,-15.503,-34.424,4.944,91.390,-7.839,121.443
8936,0.0986,1.0830,0.3555,-9.521,-1.343,2.991,91.104,-7.839,121.432
8946,0.1289,1.0879,0.3022,-0.916,28.015,2.991,90.890,-7.861,121.712
8956,0.1699,1.0640,0.1675,9.460,49.133,3.479,90.818,-7.916,122.206
8966,0.2031,1.0273,0.0176,17.334,58.350,3.235,90.890,-7.987,122.800
8976,0.2192,0.9805,-0.1226,18.982,55.420,2.014,91.066,-8.064,123.354
8986,0.2256,0.9414,-0.2178,14.954,42.847,-0.183,91.274,-8.119,123.788
8996,0.2310,0.9199,-0.2446,4.333,25.818,-2.197,91.417,-8.157,124.052
9006,0.2373,0.9360,-0.2051,-7.629,8.545,-3.418,91.434,-8.185,124.140
9016,0.2358,0.9771,-0.1230,-17.151,-6.409,-4.272,91.335,-8.190,124.074
9026,0.2100,1.0186,-0.0298,-21.484,-18.799,-4.150,91.148,-8.179,123.887
9036,0.1729,1.0122,0.0220,-19.775,-28.381,-2.563,90.972,-8.163,123.596
9046,0.1411,0.9961,0.0332,-15.869,-36.804,0.427,90.835,-8.163,123.228
9056,0.1284,0.9541,-0.0083,-20.691,-41.504,6.470,90.687,-8.218,122.805
9066,0.1338,0.9331,-0.0557,-24.170,-44.373,12.817,90.538,-8.339,122.355
9076,0.1489,0.9282,-0.0898,-22.034,-46.692,16.846,90.439,-8.503,121.882
9086,0.1611,0.9287,-0.1040,-22.217,-50.293,19.165,90.352,-8.707,121.371
9096,0.1611,0.9468,-0.0776,-23.315,-57.190,20.508,90.253,-8.915,120.795
9106,0.1577,0.9946,-0.0029,-25.085,-63.782,20.874,90.104,-9.119,120.146
9116,0.1333,1.0405,0.0894,-21.118,-64.819,16.968,89.945,-9.267,119.493
9126,0.1221,1.0654,0.1509,-10.864,-54.443,7.996,89.846,-9.316,118.938
9136,0.1055,1.0659,0.1636,-0.977,-35.950,2.014,89.808,-9.300,118.575
9146,0.1191,1.0732,0.1460,8.240,-13.306,0.610,89.835,-9.278,118.438
9157,0.1338,1.0464,0.0923,15.991,5.859,1.404,89.940,-9.272,118.499
9166,0.1445,0.9829,0.0161,17.822,20.935,1.526,90.071,-9.278,118.713
9176,0.1699,1.0005,-0.0503,12.573,30.457,0.122,90.176,-9.283,119.020
9186,0.1851,1.0112,-0.1104,6.165,29.907,-1.404,90.247,-9.278,119.323
9196,0.1904,0.9956,-0.1489,0.061,20.325,-3.357,90.297,-9.261,119.531
9206,0.1953,1.0098,-0.1377,-9.888,7.446,-4.517,90.264,-9.234,119.603
9216,0.1973,1.0557,-0.0913,-17.883,-6.409,-4.272,90.143,-9.201,119.542
9226,0.1992,1.0830,-0.0415,-18.127,-19.653,-2.686,90.016,-9.190,119.339
9236,0.1963,1.0938,0.0264,-13.367,-28.564,0.488,89.912,-9.201,119.053
9246,0.1821,1.0718,0.0742,-5.554,-26.978,1.648,89.863,-9.223,118.779
9257,0.1616,1.0381,0.0962,-0.671,-17.334,-0.854,89.835,-9.212,118.603
9266,0.1372,0.9854,0.0854,-0.854,-5.005,-5.737,89.786,-9.141,118.553
9276,0.1147,0.9541,0.0635,-6.226,5.310,-9.766,89.681,-9.020,118.603
9286,0.1333,0.9380,0.0205,-16.113,14.099,-11.475,89.489,-8.899,118.746
9297,0.1548,0.9658,-0.0142,-24.414,20.447,-11.963,89.231,-8.778,118.954
9307,0.1743,1.0186,-0.0371,-22.400,20.203,-11.719,89.006,-8.674,119.158
9317,0.1855,1.0527,-0.0459,-10.254,11.658,-8.179,88.923,-8.602,119.273
9327,0.1973,1.0576,-0.0405,4.578,-1.221,-2.075,89.000,-8.602,119.262
9337,0.1904,1.0337,-0.0264,12.634,-12.878,2.380,89.171,-8.646,119.130
9347,0.1641,0.9868,-0.0054,11.658,-20.325,3.052,89.330,-8.685,118.927
9357,0.1489,0.9824,0.0264,2.625,-18.188,-0.549,89.374,-8.679,118.740
9367,0.1313,0.9580,0.0347,-10.681,-8.850,-7.324,89.264,-8.602,118.652
9377,0.0933,0.8521,0.0176,-27.100,0.977,-14.771,88.989,-8.432,118.658
9387,0.0967,0.8730,0.0342,-48.584,10.254,-22.400,88.484,-8.185,118.757
9397,0.1108,0.9561,0.0503,-58.289,13.916,-24.841,87.874,-7.921,118.894
9407,0.1187,1.0190,0.0576,-44.861,9.338,-18.188,87.407,-7.723,118.982
9417,0.1538,1.1221,0.0869,-17.944,-0.122,-4.822,87.209,-7.679,118.976
9427,0.1772,1.1147,0.1040,16.235,-9.583,8.301,87.358,-7.778,118.883
9437,0.1763,1.0464,0.1060,40.039,-18.250,15.991,87.748,-7.960,118.707
9447,0.1460,0.9800,0.1196,44.434,-22.156,16.907,88.171,-8.141,118.488
9457,0.0825,0.8872,0.1050,32.043,-12.024,10.925,88.451,-8.223,118.372
9467,0.0718,0.9111,0.0708,7.568,9.949,0.427,88.484,-8.190,118.471
9477,0.1128,0.9971,0.0420,-18.066,34.241,-7.263,88.248,-8.091,118.817
9487,0.1777,1.0889,0.0015,-37.109,53.223,-13.428,87.825,-7.954,119.350
9497,0.2183,1.1426,-0.0371,-42.114,57.678,-19.287,87.369,-7.773,119.927
9507,0.2080,1.1191,-0.0972,-30.090,45.410,-21.484,87.089,-7.564,120.372
9517,0.1626,1.0361,-0.1353,-11.841,22.583,-17.151,87.045,-7.394,120.591
9527,0.0952,0.9526,-0.1460,4.578,-2.014,-9.888,87.209,-7.284,120.564
9537,0.0747,0.9102,-0.1338,17.639,-26.001,-2.075,87.528,-7.245,120.300
9547,0.0767,0.9351,-0.0566,21.484,-49.133,7.385,87.863,-7.317,119.811
9557,0.1099,1.0225,0.0454,16.479,-55.969,15.320,88.094,-7.476,119.251
9567,0.1831,1.1494,0.1245,7.141,-39.063,14.893,88.171,-7.652,118.867
9577,0.2383,1.1777,0.1553,-1.953,-10.620,6.836,88.105,-7.762,118.757
9587,0.2236,1.1357,0.1748,-11.719,14.587,-6.104,87.902,-7.729,118.905
9597,0.1577,1.0166,0.1528,-26.855,33.386,-20.020,87.528,-7.526,119.235
9607,0.0947,0.8970,0.0869,-37.842,42.908,-29.785,87.067,-7.196,119.652
9617,0.0483,0.8740,0.0132,-37.292,40.649,-29.846,86.671,-6.844,120.048
9627,0.0479,0.9150,-0.0190,-23.804,26.733,-20.447,86.451,-6.586,120.306
9637,0.0830,0.9980,-0.0283,-1.282,6.042,-7.141,86.484,-6.493,120.361
9647,0.1353,1.0513,-0.0415,22.888,-16.479,3.235,86.786,-6.542,120.196
9657,0.1621,1.0522,-0.0254,38.696,-38.818,8.972,87.259,-6.674,119.811
9667,0.1699,1.0449,0.0327,35.278,-44.495,8.423,87.671,-6.806,119.366
9677,0.1836,1.0405,0.1162,15.015,-29.846,1.404,87.814,-6.861,119.070
9687,0.1763,1.0156,0.1841,-8.362,-8.423,-8.667,87.660,-6.812,118.982
9697,0.1211,0.9502,0.2285,-31.128,13.367,-16.968,87.226,-6.641,119.108
9707,0.0679,0.8740,0.2075,-45.776,32.349,-22.827,86.627,-6.372,119.421
9717,0.0571,0.8779,0.1401,-48.584,43.396,-23.804,86.045,-6.086,119.844
9727,0.0757,0.9370,0.0601,-35.645,40.100,-17.273,85.655,-5.872,120.234
9737,0.1045,0.9634,-0.0088,-7.385,22.522,-5.737,85.605,-5.806,120.454
9747,0.1499,1.0273,-0.0400,20.996,0.793,5.249,85.880,-5.878,120.465
9757,0.1748,0.9858,-0.0713,46.387,-24.963,13.000,86.446,-6.070,120.229
9767,0.1606,0.9155,-0.0342,52.734,-50.415,16.663,87.078,-6.301,119.729
9777,0.1553,0.9072,0.0532,33.264,-54.749,15.137,87.462,-6.515,119.191
9787,0.1611,0.9722,0.1479,2.075,-36.011,7.751,87.462,-6.636,118.828
9797,0.1475,0.9912,0.1895,-19.409,-7.385,-1.648,87.193,-6.636,118.757
9807,0.1069,0.9863,0.1934,-32.715,20.752,-8.728,86.765,-6.537,118.960
9817,0.0825,0.9575,0.1343,-36.926,44.556,-12.756,86.303,-6.367,119.399
9827,0.1016,0.9702,0.0488,-26.245,53.467,-10.193,85.990,-6.229,119.932
9837,0.1138,0.9360,-0.0332,-3.235,44.556,0.061,85.974,-6.207,120.377
9847,0.1230,0.9434,-0.0864,19.653,22.583,12.207,86.232,-6.323,120.613
9857,0.1343,0.9624,-0.1465,41.809,-9.338,21.606,86.781,-6.559,120.531
9867,0.1636,0.9761,-0.1387,51.636,-46.692,28.320,87.457,-6.894,120.081
9877,0.1641,1.0273,-0.0366,42.664,-69.885,28.564,88.006,-7.229,119.388
9887,0.1836,1.1133,0.0908,18.250,-61.951,21.484,88.237,-7.482,118.773
9897,0.1646,1.1138,0.1899,-6.287,-34.546,9.583,88.138,-7.597,118.427
9907,0.1309,1.1284,0.2764,-25.635,-2.747,-3.479,87.770,-7.548,118.400
9917,0.0815,1.0796,0.2588,-37.109,25.635,-12.695,87.259,-7.383,118.652
9927,0.0811,1.0303,0.1772,-40.039,48.279,-17.273,86.732,-7.158,119.130
9937,0.0762,0.9966,0.0654,-28.809,55.542,-15.381,86.375,-6.943,119.680
9947,0.0762,0.9429,-0.0381,-4.822,45.837,-6.531,86.331,-6.828,120.135
9957,0.1040,0.9697,-0.0713,19.897,23.071,4.639,86.578,-6.855,120.372
9967,0.1436,0.9722,-0.0957,41.260,-3.113,13.977,87.078,-7.009,120.350
9977,0.1660,0.9580,-0.0918,51.208,-32.227,19.165,87.709,-7.240,120.037
9987,0.1636,0.9556,-0.0308,42.114,-53.284,19.470,88.231,-7.482,119.504
9997,0.1494,1.0000,0.0732,18.188,-54.443,14.465,88.456,-7.652,118.960
10007,0.1401,1.0742,0.1904,-6.104,-36.865,5.554,88.363,-7.712,118.592
10017,0.1172,1.0659,0.2437,-20.264,-11.047,-3.357,88.061,-7.663,118.477
10027,0.0903,1.0557,0.2515,-30.457,12.756,-9.644,87.632,-7.537,118.603
10037,0.1133,1.0313,0.1792,-31.067,30.884,-12.573,87.209,-7.388,118.911
10047,0.1143,0.9751,0.0610,-21.667,39.368,-12.451,86.935,-7.234,119.301
10057,0.1201,0.9434,-0.0518,-10.803,37.476,-9.094,86.847,-7.125,119.674
10067,0.1201,0.9043,-0.1069,3.479,24.231,-3.296,86.946,-7.086,119.916
10077,0.1343,0.9253,-0.1064,12.329,7.812,3.174,87.155,-7.125,119.993
10087,0.1562,0.9536,-0.0815,19.836,-9.827,8.484,87.440,-7.234,119.899
10097,0.1646,0.9702,-0.0332,24.048,-29.358,12.085,87.759,-7.388,119.608
10107,0.1572,1.0239,0.0610,16.541,-39.551,13.062,87.962,-7.548,119.218
10117,0.1562,1.1133,0.1694,3.662,-31.250,9.644,87.973,-7.657,118.905
10127,0.1587,1.1445,0.2339,-4.700,-10.071,3.723,87.847,-7.701,118.806
10137,0.1318,1.1221,0.2295,-5.920,11.536,-2.441,87.676,-7.657,118.922
10147,0.1245,1.0659,0.1670,-5.737,31.128,-6.775,87.512,-7.570,119.229
10158,0.1089,0.9741,0.0513,-0.916,42.786,-9.033,87.446,-7.449,119.658
10167,0.1108,0.9331,-0.0615,2.930,44.189,-8.484,87.479,-7.339,120.097
10177,0.1201,0.9507,-0.1289,7.019,32.898,-3.723,87.610,-7.284,120.432
10187,0.1436,1.0127,-0.1426,12.634,14.160,2.686,87.819,-7.311,120.575
10197,0.1768,1.0767,-0.1353,21.606,-6.165,7.996,88.138,-7.416,120.515
10207,0.1846,1.0762,-0.1133,32.593,-28.931,12.024,88.572,-7.564,120.229
10217,0.1699,1.0601,-0.0464,32.776,-44.800,13.977,88.995,-7.729,119.778
10227,0.1504,1.0640,0.0483,19.775,-42.542,11.169,89.231,-7.850,119.350
10237,0.1528,1.1138,0.1602,3.479,-26.123,3.845,89.225,-7.894,119.086
10247,0.1680,1.1709,0.2427,-5.310,-6.287,-3.662,89.077,-7.855,119.026
10257,0.1567,1.1641,0.2544,-5.615,11.047,-8.423,88.890,-7.767,119.136
10267,0.1299,1.0688,0.1997,2.563,24.902,-12.024,88.786,-7.635,119.383
10277,0.0884,0.9751,0.1079,13.794,34.119,-13.794,88.830,-7.465,119.724
10287,0.0747,0.9160,-0.0029,26.550,35.522,-10.803,89.061,-7.322,120.081
10297,0.0718,0.8760,-0.1089,41.443,27.466,-3.723,89.517,-7.256,120.355
10307,0.0933,0.8569,-0.2080,54.993,14.099,2.686,90.181,-7.267,120.498
10317,0.1348,0.8633,-0.2500,62.256,-1.160,6.714,90.961,-7.350,120.487
10327,0.1836,0.8735,-0.2310,57.312,-16.968,9.277,91.686,-7.476,120.317
10337,0.2085,0.9258,-0.1260,39.185,-28.137,8.728,92.175,-7.608,120.026
10347,0.2104,1.0073,0.0117,16.174,-28.503,5.432,92.340,-7.690,119.740
10357,0.1772,1.0630,0.1294,-0.061,-19.531,1.099,92.274,-7.712,119.542
10367,0.1333,1.0596,0.1592,-3.967,-4.700,-3.174,92.131,-7.674,119.493
10377,0.0825,0.9736,0.1030,1.831,10.315,-5.737,92.054,-7.592,119.603
10387,0.0449,0.8779,-0.0073,11.719,22.827,-5.615,92.126,-7.498,119.833
10397,0.0898,0.8599,-0.1299,17.700,30.273,-2.075,92.329,-7.471,120.141
10407,0.1582,0.8813,-0.2236,18.494,26.733,3.540,92.593,-7.542,120.405
10417,0.2217,0.9502,-0.2529,14.465,15.137,7.202,92.840,-7.674,120.558
10427,0.2622,1.0469,-0.2021,7.874,-0.122,8.057,92.999,-7.811,120.553
10437,0.2510,1.1035,-0.1099,3.296,-15.442,6.897,93.082,-7.921,120.394
10447,0.2041,1.1279,-0.0015,0.671,-26.001,4.639,93.093,-7.976,120.130
10457,0.1387,1.1025,0.0688,-1.526,-25.330,1.160,93.049,-7.965,119.872
10467,0.0864,1.0527,0.0815,-3.967,-13.123,-3.723,92.950,-7.888,119.740
10477,0.0620,0.9937,0.0518,-6.714,3.113,-8.057,92.818,-7.767,119.778
10487,0.0781,0.9204,-0.0156,-12.512,17.273,-9.827,92.653,-7.652,119.954
10497,0.1445,0.9429,-0.0889,-20.508,24.414,-10.376,92.444,-7.570,120.207
10507,0.2085,1.0132,-0.1445,-19.531,17.761,-9.216,92.285,-7.526,120.388
10517,0.2388,1.0332,-0.1616,-9.521,2.502,-5.432,92.252,-7.526,120.416
10527,0.2393,1.0376,-0.1426,3.052,-13.245,-1.404,92.357,-7.559,120.284
10538,0.1851,0.9844,-0.1040,14.954,-27.161,0.732,92.576,-7.586,120.009
10548,0.1191,0.9414,-0.0273,14.954,-34.729,0.854,92.763,-7.575,119.658
10558,0.0640,0.9526,0.0757,2.625,-30.273,-1.953,92.752,-7.504,119.355
10568,0.0405,0.9761,0.1333,-9.399,-14.648,-6.104,92.576,-7.388,119.213
10578,0.0488,1.0166,0.1313,-16.663,5.615,-8.301,92.302,-7.262,119.273
10588,0.1055,1.0757,0.0723,-16.174,25.452,-9.216,92.049,-7.163,119.531
10598,0.1685,1.0972,-0.0244,-7.507,37.842,-8.789,91.917,-7.103,119.916
10608,0.2046,1.0669,-0.1230,3.723,39.551,-6.348,91.956,-7.092,120.317
10618,0.1875,0.9634,-0.2036,12.573,30.518,-3.601,92.137,-7.103,120.624
10628,0.1392,0.8594,-0.2422,11.169,15.381,-2.502,92.368,-7.103,120.778
10638,0.0996,0.8389,-0.2290,2.747,-2.258,-2.075,92.527,-7.075,120.756
10648,0.0918,0.8594,-0.1655,-7.324,-18.433,0.183,92.560,-7.059,120.575
10658,0.0874,0.9263,-0.0483,-15.381,-30.823,3.357,92.450,-7.059,120.262
10668,0.0991,1.0498,0.0991,-19.226,-30.273,5.432,92.219,-7.086,119.954
10678,0.1318,1.1797,0.2290,-14.587,-18.921,6.592,91.967,-7.136,119.762
10688,0.1631,1.2051,0.2437,0.610,-1.526,6.592,91.840,-7.202,119.745
10698,0.1812,1.1665,0.1787,12.695,15.930,3.723,91.840,-7.262,119.905
10708,0.1836,1.0605,0.0649,17.700,29.663,-1.587,91.923,-7.278,120.201
10718,0.1567,0.9219,-0.0581,11.719,35.522,-8.179,92.010,-7.234,120.564
10728,0.1182,0.8247,-0.1616,-1.282,31.433,-12.695,92.049,-7.125,120.883
10738,0.0986,0.7793,-0.2144,-13.855,19.104,-12.817,92.021,-7.004,121.080
10748,0.1084,0.8398,-0.1982,-22.888,2.808,-8.423,91.906,-6.921,121.113
10758,0.1162,0.9014,-0.1431,-20.508,-16.602,-0.916,91.791,-6.910,120.943
10768,0.1055,0.9487,-0.0562,-10.742,-36.377,7.568,91.747,-6.971,120.575
10778,0.1060,1.0288,0.0547,0.732,-43.518,14.465,91.758,-7.092,120.135
10788,0.1230,1.0713,0.1416,11.658,-33.081,16.968,91.824,-7.240,119.795
10798,0.1533,1.1133,0.1792,14.954,-12.329,14.465,91.879,-7.388,119.669
10808,0.1758,1.1431,0.1387,10.620,10.193,8.301,91.879,-7.482,119.767
10818,0.1763,1.0762,0.0352,2.686,29.053,0.366,91.835,-7.515,120.059
10828,0.1572,1.0117,-0.0757,-12.390,41.504,-8.911,91.681,-7.454,120.482
10838,0.1343,0.9683,-0.1689,-25.391,42.603,-15.930,91.456,-7.311,120.916
10848,0.1104,0.9712,-0.2114,-29.541,30.090,-16.357,91.230,-7.147,121.223
10858,0.0981,0.9800,-0.2178,-22.705,10.315,-10.315,91.104,-7.031,121.328
10868,0.1084,0.9883,-0.2017,-8.789,-10.010,-2.075,91.137,-6.998,121.229
10878,0.1108,1.0137,-0.1641,7.263,-31.128,4.761,91.324,-7.031,120.916
10888,0.1060,1.0068,-0.0977,21.606,-47.729,10.986,91.642,-7.119,120.432
10898,0.1255,1.0239,-0.0054,22.217,-50.415,13.916,91.912,-7.240,119.916
10908,0.1396,1.0859,0.1069,13.489,-40.527,11.108,92.021,-7.339,119.504
10918,0.1572,1.1475,0.1880,4.272,-20.874,5.188,91.978,-7.388,119.295
10928,0.1519,1.1606,0.1885,-0.061,-0.305,-0.916,91.862,-7.377,119.290
10938,0.1460,1.1475,0.1323,0.854,17.639,-5.859,91.763,-7.322,119.471
10948,0.1318,1.0796,0.0405,6.165,29.846,-9.094,91.747,-7.240,119.773
10958,0.1147,0.9956,-0.0601,10.010,33.813,-10.437,91.824,-7.141,120.119
10968,0.1079,0.9331,-0.1538,10.315,30.151,-9.888,91.961,-7.042,120.427
10978,0.1050,0.8945,-0.2095,7.019,21.729,-7.812,92.115,-6.971,120.646
10988,0.1025,0.8940,-0.2104,0.366,10.925,-5.493,92.219,-6.910,120.756
10998,0.1025,0.9326,-0.1758,-5.615,0.000,-2.686,92.247,-6.877,120.762
11008,0.1084,0.9766,-0.1099,-4.822,-10.254,0.854,92.252,-6.877,120.657
11018,0.1177,1.0024,-0.0254,1.709,-17.517,4.395,92.280,-6.910,120.476
11028,0.1333,1.0161,0.0605,10.376,-20.203,7.324,92.351,-6.982,120.273
11038,0.1562,1.0093,0.1113,17.456,-16.846,8.606,92.461,-7.075,120.097
11048,0.1748,0.9976,0.1265,15.869,-9.644,7.263,92.532,-7.174,119.998
11058,0.1802,0.9946,0.1040,8.301,-0.732,3.357,92.532,-7.234,119.987
11068,0.1675,0.9648,0.0435,-0.671,7.996,-1.587,92.461,-7.251,120.070
11078,0.1504,0.8940,-0.0347,-8.118,14.954,-5.859,92.362,-7.224,120.223
11088,0.1328,0.8652,-0.0947,-14.954,16.357,-8.667,92.230,-7.158,120.394
11098,0.1411,0.8936,-0.1323,-18.799,12.024,-7.446,92.093,-7.108,120.515
11108,0.1543,0.9409,-0.1431,-15.259,1.709,-1.770,92.005,-7.108,120.536
11118,0.1704,0.9717,-0.1382,-5.859,-9.705,5.127,92.016,-7.185,120.438
11128,0.1836,1.0083,-0.1250,3.113,-20.203,10.010,92.126,-7.306,120.229
11138,0.1909,1.0430,-0.1123,8.423,-28.015,12.390,92.285,-7.449,119.943
11148,0.1836,1.0356,-0.0913,6.409,-31.494,11.902,92.417,-7.581,119.619
11159,0.1562,1.0264,-0.0308,-5.005,-29.968,7.263,92.401,-7.652,119.312
11168,0.1182,1.0181,0.0391,-20.081,-24.414,0.977,92.186,-7.641,119.070
11178,0.0913,1.0269,0.0962,-31.372,-17.029,-3.723,91.824,-7.570,118.900
11188,0.0767,1.0430,0.1079,-33.020,-9.277,-5.493,91.434,-7.482,118.806
11198,0.1172,1.0347,-0.0308,-3.296,2.747,-0.854,91.401,-7.460,118.834
11208,0.1436,1.0137,-0.1138,11.719,2.075,2.380,91.560,-7.493,118.856
11218,0.1597,0.9990,-0.1626,17.822,-3.296,3.540,91.818,-7.542,118.817
11228,0.1509,0.9912,-0.1206,11.597,-10.742,3.479,92.000,-7.581,118.707
11238,0.1147,1.0205,0.0259,-3.479,-17.090,3.296,91.956,-7.597,118.537
11248,0.0708,1.0591,0.2109,-15.747,-18.555,3.784,91.692,-7.592,118.350
11258,0.0449,1.1006,0.3198,-14.832,-10.437,4.944,91.379,-7.581,118.240
11268,0.0518,1.1421,0.3018,2.991,6.042,6.287,91.236,-7.592,118.301
11278,0.0933,1.0981,0.1748,32.043,24.719,8.240,91.423,-7.652,118.548
11288,0.1396,1.0171,0.0122,50.110,38.574,7.690,91.846,-7.740,118.938
11298,0.1841,0.9409,-0.1333,48.035,43.945,2.075,92.324,-7.806,119.377
11308,0.2007,0.8970,-0.2427,26.001,40.588,-5.005,92.653,-7.817,119.789
11318,0.1982,0.8789,-0.2974,-3.113,31.738,-10.010,92.741,-7.778,120.114
11328,0.1748,0.8862,-0.2837,-25.635,17.883,-11.353,92.609,-7.701,120.300
11338,0.1558,0.9414,-0.2319,-32.532,0.244,-8.972,92.401,-7.625,120.306
11348,0.1479,0.9893,-0.1416,-23.743,-19.165,-3.357,92.247,-7.592,120.114
11358,0.1255,1.0337,-0.0298,-4.211,-37.415,4.700,92.247,-7.619,119.734
11368,0.1104,0.9995,0.0405,18.616,-43.884,12.573,92.444,-7.712,119.290
11378,0.1138,1.0054,0.0903,29.419,-34.668,15.991,92.708,-7.844,118.932
11388,0.1436,1.0435,0.0884,26.245,-13.672,12.878,92.911,-7.965,118.790
11398,0.1665,1.0684,0.0420,16.602,8.667,6.409,93.016,-8.042,118.872
11408,0.1870,1.0737,-0.0269,3.723,26.306,-0.854,92.999,-8.064,119.136
11418,0.2036,1.0581,-0.0957,-11.414,37.476,-8.728,92.856,-8.026,119.520
11428,0.2046,1.0200,-0.1416,-20.813,37.170,-15.686,92.648,-7.921,119.905
11438,0.1738,0.9736,-0.1689,-21.912,24.658,-17.944,92.466,-7.773,120.157
11448,0.1553,0.9614,-0.1377,-17.883,5.859,-13.306,92.335,-7.657,120.223
11458,0.1406,0.9771,-0.0835,-7.812,-13.855,-4.944,92.302,-7.608,120.086
11468,0.1221,0.9771,-0.0288,7.812,-33.203,2.991,92.417,-7.619,119.751
11478,0.0996,0.9507,0.0127,20.630,-45.654,9.277,92.653,-7.674,119.290
11488,0.1128,0.9893,0.0620,19.409,-39.917,10.254,92.834,-7.745,118.878
11498,0.1353,1.0493,0.0908,10.925,-18.738,5.249,92.889,-7.784,118.691
11508,0.1479,1.0410,0.0781,2.258,4.028,-0.854,92.834,-7.784,118.729
11518,0.1426,0.9893,0.0425,-10.864,23.071,-6.531,92.642,-7.734,118.965
11528,0.1333,0.9404,-0.0200,-25.574,36.682,-12.756,92.324,-7.630,119.339
11538,0.1328,0.9165,-0.0830,-34.485,38.086,-16.846,91.961,-7.482,119.734
11548,0.1353,0.9375,-0.1079,-35.156,25.696,-15.198,91.626,-7.344,119.998
11558,0.1270,0.9883,-0.1001,-25.024,5.188,-7.507,91.412,-7.273,120.053
11568,0.1396,1.0415,-0.0869,-6.531,-15.015,2.319,91.401,-7.295,119.899
11578,0.1436,1.0835,-0.0688,17.761,-35.278,10.376,91.642,-7.394,119.542
11588,0.1279,1.0674,-0.0503,38.391,-47.546,16.296,92.098,-7.537,119.059
11598,0.1279,1.0337,-0.0225,43.518,-45.715,18.066,92.576,-7.690,118.592
11608,0.1421,1.0073,0.0244,33.325,-31.738,14.832,92.911,-7.828,118.262
11618,0.1348,0.9644,0.0547,13.428,-9.460,7.080,92.999,-7.894,118.163
11628,0.1094,0.9282,0.0615,-8.423,14.648,-2.197,92.823,-7.866,118.312
11638,0.1128,0.9370,0.0527,-28.992,34.302,-8.362,92.428,-7.795,118.663
11648,0.1416,0.9834,0.0215,-36.926,45.044,-11.230,91.967,-7.701,119.119
11659,0.1724,1.0259,-0.0225,-28.076,44.067,-8.850,91.620,-7.652,119.570
11668,0.1821,1.0210,-0.0605,-5.676,32.349,-1.953,91.538,-7.663,119.894
11678,0.1689,1.0117,-0.0835,16.968,16.052,5.005,91.719,-7.734,120.059
11688,0.1470,0.9790,-0.1226,34.729,0.671,8.606,92.115,-7.828,120.059
11698,0.1372,0.9414,-0.1450,41.565,-14.832,10.071,92.615,-7.927,119.905
11708,0.1416,0.9370,-0.1108,32.349,-26.367,10.742,93.016,-8.026,119.636
11718,0.1357,0.9805,-0.0420,14.526,-25.146,9.094,93.186,-8.102,119.377
11728,0.1499,1.0356,0.0273,-1.953,-9.094,3.845,93.137,-8.135,119.284
11738,0.1450,1.0757,0.0786,-14.282,9.155,-1.892,92.906,-8.119,119.377
11748,0.1572,1.0957,0.0762,-24.231,26.306,-6.897,92.560,-8.064,119.647
11758,0.1592,1.0859,0.0298,-23.254,36.560,-10.620,92.236,-7.976,120.020
11768,0.1396,1.0254,-0.0571,-14.465,37.292,-11.108,92.049,-7.877,120.399
11778,0.1138,0.9336,-0.1562,-2.502,29.236,-8.179,92.060,-7.800,120.696
11788,0.0947,0.8848,-0.2314,7.568,14.160,-3.418,92.241,-7.751,120.844
11798,0.1206,0.9048,-0.2549,9.827,-2.136,2.258,92.477,-7.767,120.822
11808,0.1553,0.9355,-0.2163,9.216,-20.630,7.446,92.703,-7.844,120.608
11818,0.1846,1.0166,-0.1094,4.333,-35.095,10.986,92.829,-7.965,120.251
11828,0.2104,1.1108,0.0303,-3.540,-33.386,10.437,92.796,-8.075,119.910
11838,0.2051,1.1582,0.1621,-14.648,-18.555,4.822,92.571,-8.135,119.718
11848,0.1650,1.1357,0.2319,-25.391,1.953,-3.723,92.175,-8.097,119.740
11858,0.1099,1.0825,0.2280,-34.973,22.400,-12.146,91.653,-7.965,119.971
11868,0.0801,1.0176,0.1465,-39.856,41.748,-18.799,91.104,-7.751,120.399
11878,0.0854,0.9771,0.0244,-34.119,52.307,-20.874,90.670,-7.531,120.927
11889,0.1045,0.9409,-0.0981,-18.250,47.424,-15.930,90.478,-7.366,121.410
11899,0.1094,0.8955,-0.1860,4.944,27.954,-6.287,90.604,-7.300,121.690
11909,0.1392,0.9219,-0.2271,26.672,4.883,4.395,90.994,-7.355,121.740
11919,0.1675,0.8906,-0.2510,46.021,-20.508,13.977,91.626,-7.520,121.531
11928,0.1748,0.8911,-0.1709,46.631,-45.349,20.020,92.236,-7.734,121.069
11939,0.1738,0.9580,-0.0376,28.931,-49.744,19.775,92.593,-7.938,120.558
11949,0.1772,1.0591,0.0986,4.517,-31.372,12.695,92.604,-8.064,120.234
11959,0.1636,1.1050,0.1807,-12.451,-2.991,2.197,92.362,-8.086,120.207
11969,0.1392,1.1089,0.1987,-23.743,24.536,-6.104,91.967,-8.026,120.454
11979,0.1274,1.0562,0.1333,-29.663,47.852,-12.695,91.516,-7.905,120.943
11989,0.1304,1.0068,0.0195,-24.170,59.265,-17.029,91.170,-7.745,121.547
11999,0.1621,0.9883,-0.0942,-12.146,54.749,-14.832,91.016,-7.625,122.102
12009,0.1719,0.9521,-0.1841,6.653,33.142,-6.958,91.137,-7.586,122.437
12019,0.1787,0.9517,-0.2285,22.949,7.446,1.343,91.478,-7.630,122.514
12029,0.1714,0.9063,-0.2695,36.987,-19.592,6.348,92.021,-7.712,122.311
12039,0.1426,0.8794,-0.2271,35.400,-47.424,9.460,92.560,-7.806,121.833
12049,0.1064,0.9214,-0.1143,15.625,-58.899,10.925,92.840,-7.872,121.234
12059,0.0991,1.0195,0.0200,-7.507,-45.593,7.751,92.791,-7.905,120.767
12069,0.0981,1.0537,0.1157,-20.203,-19.409,1.648,92.527,-7.883,120.569
12079,0.0918,1.0820,0.1777,-25.940,4.028,-3.052,92.148,-7.828,120.613
12089,0.1094,1.0820,0.1641,-28.137,24.597,-5.676,91.725,-7.756,120.866
12099,0.1304,1.0571,0.0908,-20.447,37.903,-7.019,91.406,-7.690,121.251
12109,0.1611,1.0313,-0.0073,-9.521,41.443,-5.737,91.247,-7.657,121.668
12119,0.1704,0.9746,-0.1191,5.432,30.701,-2.258,91.313,-7.663,121.976
12129,0.1738,0.9468,-0.1890,15.076,12.146,0.854,91.549,-7.701,122.102
12139,0.1831,0.9497,-0.2271,15.930,-6.226,2.136,91.835,-7.751,122.036
12149,0.1641,0.9209,-0.2261,9.949,-26.184,2.502,92.087,-7.784,121.772
12159,0.1514,0.9604,-0.1523,-7.141,-38.757,1.770,92.137,-7.800,121.382
12169,0.1445,1.0098,-0.0483,-26.978,-38.818,-1.343,91.928,-7.773,120.987
12179,0.1309,1.0728,0.0762,-43.701,-30.273,-6.958,91.478,-7.690,120.685
12189,0.1021,1.0977,0.1582,-52.795,-18.372,-11.841,90.884,-7.542,120.504
12199,0.0864,1.0864,0.1841,-56.702,-5.066,-14.709,90.220,-7.366,120.454
12209,0.0947,1.0854,0.1738,-56.885,7.568,-16.602,89.555,-7.174,120.531
12219,0.1011,1.0996,0.1411,-50.415,15.442,-16.846,88.967,-6.987,120.685
12229,0.1035,1.0742,0.0933,-33.630,17.578,-13.855,88.577,-6.833,120.861
12239,0.0942,1.0039,0.0200,-9.277,14.709,-8.728,88.467,-6.729,121.009
12249,0.0869,0.9751,-0.0425,14.465,8.362,-2.808,88.643,-6.685,121.091
12259,0.0908,0.9048,-0.1138,34.607,0.916,3.662,89.072,-6.707,121.102
12269,0.1260,0.8599,-0.1582,40.344,-7.935,8.606,89.594,-6.812,121.020
12279,0.1660,0.8936,-0.1328,28.748,-16.113,9.460,89.984,-6.943,120.861
12288,0.1914,1.0034,-0.0356,7.141,-18.066,7.446,90.099,-7.053,120.679
12299,0.2017,1.1069,0.0884,-11.780,-10.315,3.479,89.945,-7.119,120.575
12309,0.1865,1.1567,0.1860,-19.836,1.465,-1.953,89.659,-7.119,120.591
12319,0.1455,1.1265,0.2187,-18.982,14.160,-7.080,89.346,-7.048,120.734
12329,0.1060,1.0352,0.1616,-10.864,25.269,-10.315,89.127,-6.932,120.987
12339,0.0806,0.9238,0.0317,0.610,31.494,-10.681,89.083,-6.801,121.300
12349,0.0806,0.8530,-0.1016,9.827,29.480,-7.568,89.220,-6.707,121.597
12359,0.1094,0.8311,-0.2036,14.404,20.081,-1.221,89.484,-6.696,121.800
12369,0.1509,0.8633,-0.2354,12.573,6.409,4.822,89.758,-6.773,121.866
12379,0.1914,0.9253,-0.2021,5.493,-9.094,8.301,89.951,-6.905,121.772
12389,0.2168,1.0190,-0.0845,-6.348,-22.278,8.545,89.962,-7.037,121.547
12399,0.2114,1.1396,0.0972,-18.738,-26.978,5.493,89.764,-7.130,121.278
12409,0.1685,1.1670,0.2427,-22.217,-22.705,1.160,89.456,-7.152,121.047
12419,0.1187,1.1260,0.3091,-16.785,-9.766,-2.991,89.154,-7.108,120.948
12429,0.0635,1.0347,0.2739,-6.104,5.005,-6.104,88.945,-7.009,120.998
12439,0.0293,0.9209,0.1636,4.517,19.409,-6.531,88.879,-6.888,121.190
12449,0.0405,0.8545,0.0356,8.972,28.320,-4.700,88.918,-6.795,121.476
12459,0.0728,0.8394,-0.0864,10.193,27.161,-1.099,89.061,-6.762,121.750
12469,0.1323,0.8657,-0.1763,6.897,17.700,2.747,89.231,-6.801,121.926
12479,0.1841,0.9424,-0.1978,0.549,2.136,4.517,89.357,-6.888,121.948
12489,0.2139,1.0273,-0.1445,-5.432,-14.648,4.578,89.412,-6.982,121.805
12499,0.2002,1.0845,-0.0205,-8.789,-26.062,4.150,89.374,-7.059,121.542
12509,0.1484,1.0679,0.1128,-11.475,-24.536,2.380,89.231,-7.092,121.295
12519,0.0923,1.0205,0.2173,-13.855,-13.123,-1.892,89.000,-7.059,121.163
12529,0.0513,0.9727,0.2495,-17.273,2.380,-5.737,88.693,-6.960,121.185
12539,0.0366,0.9253,0.2061,-21.729,18.616,-7.202,88.341,-6.833,121.371
12549,0.0679,0.9546,0.1138,-26.001,33.447,-6.653,87.995,-6.735,121.707
12559,0.1104,0.9854,0.0029,-21.301,38.574,-3.601,87.759,-6.680,122.091
12569,0.1665,1.0347,-0.0908,-10.376,31.555,1.160,87.687,-6.702,122.410
12579,0.2217,1.0884,-0.1445,5.005,14.038,6.409,87.819,-6.806,122.552
12589,0.2407,1.1123,-0.1621,21.606,-8.667,9.888,88.149,-6.960,122.470
12599,0.2026,1.0420,-0.1455,35.034,-31.433,11.536,88.632,-7.125,122.157
12609,0.1616,0.9551,-0.0791,27.954,-40.222,9.644,89.017,-7.256,121.756
12619,0.1094,0.9551,0.0337,4.089,-33.752,1.770,89.094,-7.273,121.415
12629,0.0894,0.9961,0.1182,-21.362,-17.639,-6.409,88.846,-7.191,121.234
12639,0.0791,1.0396,0.1582,-39.124,-1.221,-10.742,88.385,-7.053,121.223
12649,0.0801,1.0688,0.1226,-42.419,12.085,-12.817,87.902,-6.894,121.339
12660,0.1021,1.0786,0.0503,-32.715,18.311,-12.634,87.550,-6.751,121.520
12669,0.1201,1.0576,-0.0249,-16.418,14.526,-9.033,87.407,-6.652,121.663
12679,0.1406,1.0420,-0.0757,1.587,1.160,-2.869,87.490,-6.630,121.674
12689,0.1621,1.0610,-0.0937,17.517,-15.320,3.052,87.759,-6.691,121.520
12699,0.1313,0.9976,-0.0977,33.020,-33.508,7.935,88.198,-6.790,121.185
12709,0.0967,0.9424,-0.0229,32.043,-42.969,9.888,88.599,-6.888,120.756
12719,0.0728,0.9536,0.1025,14.099,-38.574,6.653,88.737,-6.938,120.372
12729,0.0698,1.0435,0.2300,-5.127,-21.851,1.282,88.599,-6.927,120.152
12739,0.0908,1.1094,0.2852,-14.893,-0.061,-0.977,88.325,-6.894,120.146
12749,0.1245,1.1543,0.2690,-13.916,21.301,-1.648,88.044,-6.861,120.361
12759,0.1377,1.1284,0.1548,-2.869,37.354,-3.662,87.913,-6.812,120.740
12769,0.1489,1.0322,0.0044,10.132,43.152,-5.920,87.984,-6.751,121.168
12779,0.1558,0.9375,-0.1250,16.602,35.767,-7.324,88.204,-6.691,121.525
12789,0.1377,0.8486,-0.2158,13.977,19.409,-7.263,88.478,-6.636,121.718
12804,0.1206,0.8062,-0.2466,5.737,1.221,-6.775,88.720,-6.586,121.729
12809,0.1240,0.8271,-0.2256,-4.639,-18.005,-6.104,88.857,-6.542,121.547
12819,0.1094,0.8760,-0.1274,-13.550,-36.926,-3.723,88.863,-6.520,121.174
12829,0.1177,1.0161,0.0610,-21.606,-41.687,-0.061,88.671,-6.526,120.756
12839,0.1401,1.1611,0.2832,-22.339,-30.029,3.113,88.363,-6.570,120.454
12849,0.1455,1.2070,0.4282,-9.277,-11.536,4.700,88.105,-6.614,120.339
12859,0.1470,1.1865,0.4253,8.362,11.902,4.333,87.995,-6.658,120.460
12869,0.1323,1.0708,0.2847,25.513,36.133,1.892,88.077,-6.663,120.828
12879,0.0884,0.9150,0.0698,34.241,52.307,-2.380,88.330,-6.608,121.349
12889,0.0474,0.8462,-0.1724,26.978,57.251,-6.897,88.665,-6.493,121.926
12899,0.0239,0.8506,-0.4238,15.503,48.035,-9.766,89.039,-6.334,122.404
12909,0.0610,0.9067,-0.5737,3.357,29.724,-10.376,89.374,-6.196,122.701
12919,0.1191,0.9492,-0.5771,-8.606,2.441,-9.521,89.604,-6.097,122.728
12929,0.1743,0.9878,-0.4272,-23.743,-29.236,-7.935,89.637,-6.053,122.432
12939,0.1929,1.0269,-0.1270,-39.490,-62.012,-6.836,89.390,-6.037,121.811
12949,0.1670,1.0620,0.2778,-50.903,-75.378,-3.540,88.824,-6.031,121.047
12959,0.1084,1.0684,0.6362,-48.462,-59.875,-0.366,88.110,-6.031,120.449
12969,0.0498,1.0806,0.7827,-31.860,-27.405,1.099,87.484,-6.015,120.174
12979,0.0557,1.0825,0.6597,-3.906,13.123,1.770,87.144,-5.988,120.306
12989,0.1104,1.0664,0.3989,19.958,52.795,0.488,87.111,-5.966,120.839
12999,0.1504,1.0532,0.0605,34.729,76.599,-2.991,87.369,-5.916,121.602
13009,0.1963,1.0215,-0.2236,36.987,79.468,-7.935,87.803,-5.850,122.399
13019,0.2305,0.9541,-0.4126,25.024,61.401,-12.695,88.248,-5.768,123.008
13029,0.2505,0.9087,-0.4844,-0.977,32.043,-16.479,88.500,-5.674,123.327
13039,0.2383,0.9097,-0.4546,-26.428,-1.526,-19.958,88.522,-5.554,123.305
13049,0.1895,0.9346,-0.3071,-39.001,-39.368,-20.569,88.374,-5.411,122.904
13059,0.1416,0.9868,-0.0288,-40.039,-73.730,-12.573,88.077,-5.334,122.162
13069,0.0752,1.0298,0.3115,-29.663,-84.961,-0.061,87.715,-5.350,121.311
13080,-0.0020,1.0044,0.5728,-4.333,-71.777,8.972,87.462,-5.411,120.591
13090,-0.0425,0.9575,0.6885,21.484,-45.471,12.939,87.385,-5.488,120.141
13100,-0.0244,0.9722,0.6606,34.912,-10.193,13.062,87.424,-5.554,120.048
13110,0.0210,1.0215,0.4819,41.382,24.536,11.963,87.583,-5.614,120.295
13119,0.1006,1.0444,0.2124,42.969,53.894,9.094,87.863,-5.680,120.844
13129,0.1582,1.0234,-0.0425,39.856,64.697,2.747,88.242,-5.713,121.492
13139,0.1729,0.9678,-0.2187,26.733,57.312,-4.578,88.594,-5.696,122.069
13149,0.1494,0.8799,-0.3110,4.822,39.795,-10.315,88.813,-5.614,122.465
13160,0.1147,0.8945,-0.2954,-19.226,16.418,-12.817,88.802,-5.499,122.624
13169,0.0937,0.9375,-0.2168,-32.288,-8.545,-10.132,88.632,-5.400,122.536
13179,0.0435,0.9526,-0.0762,-28.748,-35.034,-2.991,88.440,-5.350,122.184
13190,0.0029,0.9785,0.1021,-18.250,-45.898,5.371,88.259,-5.367,121.729
13199,0.0098,1.0195,0.2495,-7.080,-35.400,11.169,88.099,-5.438,121.377
13210,0.0557,1.1016,0.3345,1.282,-14.099,12.756,87.973,-5.543,121.240
13220,0.1089,1.1841,0.3267,9.949,8.911,11.230,87.929,-5.647,121.333
13230,0.1636,1.1733,0.2036,13.184,30.945,7.568,87.951,-5.729,121.646
13239,0.2031,1.1226,0.0576,8.362,45.227,0.000,87.979,-5.762,122.097
13250,0.1963,1.0103,-0.0864,0.977,47.607,-9.583,88.011,-5.702,122.574
13259,0.1636,0.9004,-0.1890,-10.254,38.269,-16.357,88.011,-5.570,122.953
13269,0.1382,0.8838,-0.2114,-21.545,21.973,-17.578,87.935,-5.422,123.168
13280,0.1162,0.8892,-0.1816,-21.301,2.380,-11.902,87.858,-5.317,123.184
13290,0.0889,0.8857,-0.1035,-12.146,-17.395,-2.258,87.841,-5.306,123.008
13300,0.0537,0.9287,0.0591,0.366,-33.997,7.446,87.858,-5.372,122.673
13310,0.0581,0.9551,0.1904,15.320,-35.278,15.808,87.951,-5.521,122.322
13320,0.0864,1.0044,0.2900,23.499,-20.996,19.165,88.066,-5.713,122.119
13330,0.1362,1.0708,0.3115,24.902,0.366,17.090,88.165,-5.894,122.130
13340,0.1704,1.0952,0.2622,23.315,20.630,12.146,88.259,-6.037,122.338
13350,0.1748,1.0679,0.1558,19.043,36.438,6.226,88.347,-6.119,122.706
13360,0.1460,0.9829,0.0210,12.390,44.067,-0.122,88.423,-6.125,123.151
13370,0.1162,0.9316,-0.1006,5.859,39.429,-4.639,88.517,-6.081,123.547
13380,0.1133,0.9165,-0.1665,0.366,24.841,-4.944,88.616,-6.031,123.794
13390,0.1172,0.9272,-0.1865,-2.380,4.639,-1.648,88.715,-6.026,123.843
13400,0.1162,0.9854,-0.1470,-0.366,-17.639,3.174,88.824,-6.064,123.668
13410,0.0854,1.0093,-0.0723,9.460,-38.025,8.667,89.011,-6.147,123.283
13420,0.0542,1.0283,0.0518,18.494,-41.321,13.123,89.220,-6.251,122.871
13430,0.0674,1.0781,0.1475,20.508,-24.719,12.085,89.379,-6.350,122.624
13440,0.1021,1.1387,0.1904,18.494,-0.183,6.714,89.473,-6.405,122.624
13450,0.1416,1.1846,0.1606,15.076,25.574,-0.732,89.522,-6.400,122.882
13460,0.1650,1.1582,0.0737,11.597,44.983,-8.179,89.555,-6.328,123.333
13470,0.1582,1.0732,-0.0303,8.972,52.368,-15.259,89.610,-6.196,123.860
13480,0.1426,1.0078,-0.1113,2.808,46.448,-19.348,89.654,-6.021,124.321
13490,0.1265,0.9810,-0.1416,-3.357,31.067,-18.372,89.670,-5.845,124.634
13500,0.1147,0.9648,-0.1411,-5.127,11.108,-13.184,89.698,-5.724,124.744
13510,0.1006,0.9609,-0.1211,-1.648,-8.789,-6.531,89.764,-5.663,124.656
13520,0.0796,0.9634,-0.0674,8.423,-28.198,0.488,89.918,-5.658,124.376
13530,0.0801,0.9575,0.0005,17.761,-35.950,7.141,90.132,-5.718,124.014
13540,0.0898,0.9629,0.0498,19.836,-28.320,9.827,90.324,-5.812,123.728
13550,0.1157,1.0029,0.0869,15.320,-12.451,7.385,90.434,-5.894,123.602
13560,0.1465,1.0669,0.1099,8.179,4.028,3.967,90.450,-5.955,123.640
13570,0.1660,1.0581,0.0762,3.357,18.677,1.160,90.417,-5.993,123.832
13580,0.1646,0.9980,0.0195,-0.793,27.771,-2.563,90.363,-6.004,124.107
13590,0.1533,0.9414,-0.0342,-5.981,29.358,-6.531,90.291,-5.977,124.404
13600,0.1309,0.9023,-0.0688,-8.972,20.752,-7.141,90.220,-5.927,124.612
13610,0.1035,0.8726,-0.0913,-6.958,5.127,-3.540,90.203,-5.900,124.667
13620,0.0996,0.8804,-0.1021,-2.014,-12.268,3.052,90.264,-5.933,124.541
13630,0.0986,0.9355,-0.0562,5.554,-30.273,10.925,90.379,-6.042,124.239
13640,0.0967,0.9590,0.0068,14.709,-39.673,17.456,90.560,-6.207,123.838
13650,0.1206,1.0146,0.0850,16.235,-34.790,18.738,90.703,-6.400,123.486
13660,0.1411,1.0552,0.1650,10.559,-22.339,14.404,90.736,-6.548,123.261
13670,0.1157,1.0410,0.1904,2.380,-8.728,7.446,90.659,-6.619,123.173
13680,0.0928,0.9995,0.1665,-9.644,4.395,0.610,90.456,-6.608,123.217
13690,0.0713,0.9604,0.1152,-23.499,15.564,-4.395,90.137,-6.542,123.371
13700,0.0405,0.9014,0.0435,-31.921,21.118,-6.409,89.764,-6.443,123.585
13710,0.0361,0.9106,-0.0132,-34.668,18.433,-4.395,89.412,-6.356,123.772
13720,0.0449,0.9512,-0.0459,-33.386,8.911,1.099,89.105,-6.328,123.860
13730,0.0703,1.0269,-0.0469,-33.813,-2.380,7.141,88.808,-6.378,123.838
13740,0.0845,1.1045,0.0068,-36.255,-16.541,11.597,88.478,-6.476,123.673
13750,0.0767,1.1211,0.0259,-37.537,-19.409,11.414,88.127,-6.564,123.481
13760,0.0913,1.1318,0.0522,-40.649,-8.972,5.859,87.726,-6.608,123.393
13770,0.0894,1.1270,0.1064,-40.649,3.174,-0.854,87.292,-6.575,123.426
13780,0.1021,1.1099,0.1587,-38.452,12.573,-3.784,86.841,-6.520,123.547
13790,0.1206,1.0996,0.1758,-27.588,15.381,-2.869,86.490,-6.482,123.701
13800,0.1304,1.1113,0.1650,-7.935,13.184,1.282,86.347,-6.487,123.832
13810,0.1284,1.0786,0.1104,20.996,8.179,7.263,86.523,-6.553,123.920
13820,0.1250,0.9961,0.0210,46.143,3.113,12.329,87.001,-6.680,123.959
13830,0.1284,0.8892,-0.0801,58.228,-1.526,13.733,87.660,-6.833,123.953
13840,0.1523,0.8350,-0.1411,49.561,-5.981,11.597,88.275,-6.982,123.898
13850,0.2134,0.9453,-0.1143,21.973,-7.996,6.531,88.588,-7.108,123.816
13860,0.2612,1.0674,-0.0513,-3.845,-6.714,1.404,88.599,-7.191,123.750
13870,0.2617,1.1240,0.0117,-18.188,-4.150,-4.883,88.434,-7.202,123.706
13880,0.2363,1.1797,0.1084,-26.428,-1.099,-12.146,88.138,-7.119,123.695
13890,0.1641,1.0903,0.1455,-26.978,3.174,-16.296,87.808,-6.971,123.723
13900,0.0679,0.9399,0.1045,-22.644,9.644,-17.578,87.534,-6.768,123.810
13910,0.0161,0.8125,0.0269,-19.653,16.296,-15.991,87.325,-6.548,123.970
13920,0.0117,0.7612,-0.0522,-14.893,18.494,-10.498,87.226,-6.378,124.151
13930,0.0630,0.7734,-0.1079,-8.301,15.320,-1.221,87.231,-6.339,124.299
13940,0.1328,0.8145,-0.1450,-0.183,6.958,8.423,87.352,-6.449,124.376
13950,0.1919,0.9082,-0.1177,4.761,-7.202,15.015,87.506,-6.652,124.310
13960,0.2358,1.0093,-0.0308,4.883,-23.437,18.616,87.621,-6.910,124.085
13970,0.2388,1.1182,0.1060,1.465,-34.973,18.494,87.649,-7.158,123.739
13980,0.2124,1.1875,0.2383,-4.272,-31.067,14.099,87.550,-7.339,123.431
13990,0.1748,1.2012,0.3262,-8.728,-14.648,6.531,87.358,-7.416,123.289
14000,0.1431,1.1665,0.3535,-11.963,7.080,-1.770,87.089,-7.388,123.354
14010,0.0840,1.0571,0.2920,-14.893,29.175,-9.399,86.776,-7.251,123.646
14020,0.0522,0.9526,0.1523,-18.250,49.133,-14.771,86.479,-7.037,124.135
14030,0.0581,0.8970,-0.0063,-20.081,59.998,-15.808,86.248,-6.812,124.728
14040,0.0977,0.8750,-0.1523,-17.700,58.960,-12.329,86.138,-6.647,125.310
14050,0.1265,0.8604,-0.2524,-10.681,41.260,-7.935,86.188,-6.553,125.722
14060,0.1436,0.8608,-0.2861,-2.930,13.550,-2.991,86.364,-6.537,125.854
14070,0.1641,0.9009,-0.2549,2.075,-16.602,2.319,86.600,-6.608,125.689
14080,0.1670,0.9492,-0.1621,8.362,-48.157,8.911,86.869,-6.757,125.211
14090,0.1577,1.0142,-0.0015,11.719,-69.641,16.541,87.094,-6.976,124.519
14100,0.1499,1.0762,0.1841,10.681,-68.665,19.897,87.215,-7.218,123.838
14110,0.1499,1.1416,0.3696,4.272,-48.645,16.907,87.166,-7.405,123.354
14120,0.1436,1.1997,0.5024,-3.052,-20.752,9.033,86.962,-7.493,123.151
14130,0.1118,1.1895,0.5454,-7.263,8.240,0.854,86.666,-7.471,123.234
14140,0.0898,1.1533,0.4922,-11.963,36.255,-6.104,86.303,-7.355,123.596
14150,0.0728,1.0757,0.3369,-12.695,58.777,-11.536,85.963,-7.169,124.178
14161,0.0532,0.9844,0.1377,-6.714,68.542,-14.343,85.776,-6.938,124.860
14170,0.0576,0.9302,-0.0483,-0.305,63.293,-13.367,85.770,-6.729,125.486
14180,0.0771,0.8872,-0.1870,5.737,45.959,-9.399,85.935,-6.581,125.942
14190,0.0967,0.8735,-0.2642,10.803,21.912,-4.639,86.226,-6.515,126.156
14200,0.1250,0.8979,-0.2842,11.047,-4.211,-0.366,86.556,-6.526,126.112
14210,0.1489,0.9214,-0.2500,11.658,-32.898,3.601,86.891,-6.603,125.788
14220,0.1519,0.9502,-0.1367,7.996,-52.795,7.324,87.144,-6.729,125.261
14230,0.1504,1.0068,0.0264,-2.136,-51.331,7.324,87.198,-6.844,124.744
14240,0.1440,1.0820,0.2246,-13.550,-35.339,3.540,87.017,-6.899,124.393
14250,0.1157,1.1255,0.3853,-20.081,-15.930,-0.549,86.677,-6.888,124.233
14260,0.0942,1.1304,0.4551,-18.860,4.028,-2.136,86.298,-6.844,124.272
14270,0.0879,1.0981,0.4067,-7.935,23.926,-1.465,86.023,-6.790,124.514
14280,0.1069,1.0615,0.2808,8.911,39.917,0.366,85.957,-6.751,124.915
14290,0.1372,0.9907,0.1050,26.733,46.692,2.625,86.149,-6.757,125.381
14300,0.1616,0.9258,-0.0649,37.476,42.480,3.479,86.545,-6.795,125.810
14310,0.1899,0.9102,-0.1826,37.903,27.954,2.625,87.039,-6.850,126.096
14320,0.2153,0.9165,-0.2446,30.273,9.277,1.831,87.506,-6.921,126.189
14330,0.2183,0.9194,-0.2510,19.653,-11.902,0.549,87.891,-6.993,126.068
14340,0.1958,0.9443,-0.1753,6.592,-31.921,-0.671,88.121,-7.042,125.750
14350,0.1392,0.9780,-0.0225,-7.812,-39.673,-2.319,88.127,-7.042,125.349
14360,0.0786,1.0156,0.1577,-19.531,-32.166,-3.723,87.902,-6.993,125.024
14370,0.0542,1.0488,0.2808,-23.560,-13.245,-4.395,87.556,-6.910,124.887
14380,0.0518,1.0791,0.3179,-18.738,7.385,-3.479,87.220,-6.828,124.958
14390,0.0767,1.0820,0.2490,-7.996,27.649,-1.465,87.006,-6.773,125.239
14400,0.1177,1.0410,0.1201,4.211,40.344,-0.244,86.968,-6.746,125.645
14410,0.1660,1.0083,-0.0220,11.963,39.490,-1.221,87.083,-6.740,126.041
14420,0.1899,0.9688,-0.1406,14.526,27.283,-2.502,87.303,-6.746,126.315
14430,0.1948,0.9561,-0.1982,11.719,9.888,-2.258,87.556,-6.762,126.414
14440,0.1948,0.9658,-0.1841,7.019,-9.644,-0.671,87.770,-6.806,126.315
14450,0.1704,1.0044,-0.0737,2.380,-31.982,1.282,87.891,-6.855,125.991
14460,0.1089,1.0249,0.0742,-0.488,-43.884,3.052,87.918,-6.894,125.552
14470,0.0605,1.0229,0.2080,-0.549,-35.217,2.686,87.863,-6.899,125.200
14480,0.0483,1.0557,0.3130,-2.808,-14.832,0.183,87.709,-6.861,125.052
14490,0.0483,1.0703,0.3491,-1.892,7.507,-0.977,87.523,-6.806,125.123
14500,0.0723,1.0532,0.2720,3.113,29.419,-0.427,87.396,-6.757,125.420
14510,0.1113,1.0039,0.1196,10.864,45.654,-0.366,87.413,-6.729,125.881
14520,0.1348,0.9253,-0.0430,19.714,46.265,-1.038,87.605,-6.713,126.343
14530,0.1606,0.8755,-0.1675,22.339,32.043,-0.671,87.918,-6.729,126.667
14540,0.1987,0.8950,-0.2183,17.456,10.376,0.977,88.237,-6.790,126.771
14550,0.2124,0.9292,-0.2075,12.207,-15.320,2.502,88.522,-6.877,126.617
14560,0.1938,0.9565,-0.1299,9.460,-42.297,3.723,88.759,-6.971,126.194
14570,0.1479,0.9785,0.0034,4.883,-55.359,4.578,88.885,-7.042,125.634
14580,0.1084,1.0034,0.1606,-2.502,-47.791,2.563,88.835,-7.070,125.156
14590,0.0718,1.0205,0.2876,-12.024,-27.222,-1.892,88.605,-7.020,124.882
14600,0.0493,1.0371,0.3467,-16.968,-1.892,-5.432,88.270,-6.927,124.860
14610,0.0625,1.0361,0.3052,-15.503,22.705,-6.226,87.940,-6.823,125.085
14620,0.0898,1.0239,0.1938,-6.592,40.588,-4.456,87.742,-6.746,125.491
14630,0.1333,1.0117,0.0649,5.188,45.105,-1.099,87.726,-6.724,125.947
14640,0.1753,0.9619,-0.0693,17.578,35.095,1.831,87.924,-6.762,126.299
14650,0.1973,0.9604,-0.1611,24.658,15.076,2.808,88.264,-6.833,126.453
14661,0.2041,0.9380,-0.2231,28.198,-6.592,3.601,88.704,-6.921,126.387
14670,0.1895,0.9116,-0.2231,27.893,-30.212,5.676,89.165,-7.026,126.085
14680,0.1597,0.9209,-0.1582,19.409,-47.852,7.507,89.522,-7.136,125.607
14690,0.1289,0.9722,-0.0361,5.737,-52.124,7.141,89.670,-7.213,125.079
14700,0.1108,1.0649,0.1060,-7.935,-39.856,4.089,89.588,-7.245,124.678
14710,0.1001,1.1353,0.2266,-15.686,-18.921,0.610,89.346,-7.229,124.486
14720,0.0967,1.1558,0.2671,-13.550,2.075,-1.343,89.088,-7.191,124.508
14730,0.0933,1.1245,0.2168,-3.723,19.958,-1.770,88.923,-7.147,124.711
14740,0.1035,1.0542,0.0996,7.629,32.349,-1.099,88.918,-7.114,125.035
14751,0.1235,0.9727,-0.0381,16.724,35.095,-1.099,89.072,-7.097,125.387
14761,0.1528,0.9258,-0.1548,18.738,24.780,-1.770,89.330,-7.097,125.640
14771,0.1562,0.8911,-0.2178,15.320,7.019,-2.380,89.621,-7.097,125.711
14781,0.1470,0.8887,-0.2358,7.385,-12.146,-2.747,89.863,-7.092,125.585
14791,0.1362,0.9185,-0.1904,-2.625,-30.701,-1.770,89.989,-7.086,125.277
14805,0.1226,0.9746,-0.0840,-12.451,-40.649,0.122,89.967,-7.086,124.865
14811,0.1147,1.0537,0.0635,-19.104,-38.452,0.488,89.791,-7.081,124.481
14821,0.1191,1.1333,0.2153,-22.034,-25.391,-0.366,89.500,-7.070,124.222
14831,0.1162,1.1372,0.2974,-17.090,-8.606,-1.160,89.198,-7.042,124.135
14841,0.1030,1.0815,0.3022,-8.423,7.385,-1.709,88.956,-7.009,124.211
14851,0.1011,1.0254,0.2339,-0.305,22.827,-1.526,88.808,-6.971,124.442
14861,0.1108,0.9629,0.1152,7.996,32.959,-0.183,88.792,-6.960,124.772
14871,0.1274,0.9155,-0.0073,13.428,34.058,1.343,88.901,-6.976,125.118
14881,0.1401,0.9097,-0.1118,15.137,25.330,2.625,89.099,-7.015,125.370
14891,0.1558,0.9282,-0.1733,13.916,10.498,3.662,89.341,-7.070,125.480
14901,0.1699,0.9590,-0.1909,10.010,-5.249,4.395,89.566,-7.147,125.425
14911,0.1641,0.9805,-0.1465,4.944,-20.874,4.700,89.731,-7.213,125.217
14921,0.1411,1.0132,-0.0317,-2.869,-30.273,4.333,89.758,-7.267,124.909
14931,0.1216,1.0693,0.1211,-10.986,-27.100,2.441,89.621,-7.284,124.640
14941,0.1108,1.1089,0.2456,-12.878,-13.306,0.427,89.390,-7.273,124.503
14951,0.0957,1.1167,0.3071,-9.033,3.845,-0.977,89.149,-7.234,124.541
14961,0.0747,1.0869,0.2739,-1.343,21.545,-2.258,88.973,-7.174,124.761
14971,0.0801,1.0322,0.1494,7.812,37.231,-2.625,88.934,-7.114,125.134
14981,0.1011,0.9673,-0.0151,15.381,45.227,-1.953,89.050,-7.075,125.590
14991,0.1353,0.9277,-0.1675,18.860,39.856,-0.977,89.297,-7.070,125.991
15001,0.1763,0.9229,-0.2739,17.944,22.644,0.305,89.621,-7.103,126.216
15011,0.2012,0.9326,-0.3188,13.611,-0.671,1.709,89.951,-7.163,126.211
15021,0.2095,0.9355,-0.2876,7.263,-27.893,2.197,90.225,-7.234,125.931
15031,0.1899,0.9668,-0.1729,-1.526,-51.025,2.747,90.374,-7.300,125.414
15041,0.1519,0.9697,-0.0117,-10.254,-57.434,2.747,90.352,-7.339,124.838
15051,0.1182,1.0190,0.1694,-19.226,-44.739,-0.305,90.121,-7.322,124.387
15061,0.1133,1.0786,0.3267,-25.024,-23.254,-3.113,89.731,-7.278,124.151
15071,0.1030,1.0889,0.3774,-21.423,-0.977,-3.662,89.330,-7.218,124.140
15081,0.1011,1.0825,0.3203,-11.658,20.691,-2.686,89.033,-7.169,124.349
15091,0.1235,1.0723,0.2002,2.563,36.804,-0.793,88.918,-7.147,124.722
15101,0.1519,1.0166,0.0547,16.296,41.504,1.587,89.006,-7.169,125.140
15111,0.1733,0.9512,-0.0845,23.193,34.058,2.441,89.253,-7.218,125.480
15121,0.1729,0.8760,-0.1860,21.179,16.479,0.427,89.572,-7.256,125.651
15131,0.1650,0.8779,-0.2290,10.864,-3.235,-1.587,89.830,-7.273,125.618
15141,0.1709,0.9170,-0.2080,0.610,-21.667,-1.221,89.995,-7.295,125.398
15151,0.2114,1.0820,-0.1011,-5.371,-35.706,1.831,90.038,-7.350,125.035
15162,0.2061,1.1582,0.0308,-2.747,-37.292,5.310,90.044,-7.427,124.662
15171,0.1177,1.0811,0.1436,2.075,-27.161,4.028,90.022,-7.454,124.387
15181,0.0308,0.9941,0.2261,-3.418,-7.446,-1.587,89.874,-7.383,124.310
15191,-0.0190,0.9512,0.2549,-15.137,15.808,-4.700,89.555,-7.251,124.470
15201,0.0059,0.9688,0.2158,-21.484,35.950,-3.357,89.176,-7.147,124.832
15211,0.0610,0.9863,0.1250,-15.442,46.265,0.671,88.901,-7.108,125.299
15221,0.1196,0.9751,-0.0039,1.404,45.105,4.456,88.868,-7.141,125.755
15231,0.1714,0.9521,-0.1328,17.639,32.959,7.141,89.094,-7.234,126.090
15241,0.2085,0.9482,-0.2021,25.330,16.418,8.728,89.456,-7.372,126.255
15251,0.2192,0.9424,-0.2261,24.536,1.099,9.277,89.835,-7.515,126.266
15261,0.2373,0.9673,-0.1953,18.250,-13.611,8.240,90.148,-7.657,126.129
15271,0.2305,0.9971,-0.1177,9.583,-27.344,6.348,90.346,-7.773,125.854
15281,0.1899,1.0078,-0.0151,-1.465,-33.447,3.540,90.385,-7.833,125.519
15291,0.1538,1.0327,0.0908,-12.817,-28.931,-0.610,90.242,-7.833,125.228
15301,0.1250,1.0542,0.1787,-20.325,-20.691,-3.601,89.967,-7.784,125.019
15311,0.1079,1.0586,0.2158,-20.752,-13.367,-4.517,89.665,-7.718,124.882
15321,0.1089,1.0557,0.1870,-12.878,-6.897,-4.089,89.451,-7.657,124.810
15331,0.1270,1.0229,0.1113,-0.061,-2.502,-2.441,89.396,-7.630,124.788
15341,0.1455,0.9810,0.0112,11.475,-2.197,-1.343,89.517,-7.625,124.766
15351,0.1533,0.9316,-0.0781,16.357,-7.446,-2.258,89.736,-7.619,124.689
15361,0.1597,0.9180,-0.1230,12.756,-17.212,-5.249,89.967,-7.592,124.514
15371,0.1675,0.9463,-0.1206,2.197,-31.067,-9.460,90.104,-7.520,124.200
15381,0.1567,0.9546,-0.1089,-8.545,-49.866,-14.221,90.148,-7.394,123.701
15391,0.1265,0.9834,-0.0654,-18.005,-68.542,-15.381,90.093,-7.240,123.008
15401,0.0820,1.0542,0.0171,-23.621,-73.425,-8.362,89.940,-7.130,122.267
15411,0.0591,1.0801,0.0962,-15.991,-60.608,0.793,89.808,-7.097,121.657
15421,0.0562,1.0620,0.1704,-1.465,-40.955,6.958,89.753,-7.125,121.245
15431,0.0737,0.9814,0.1885,11.353,-19.226,9.216,89.786,-7.191,121.053
15441,0.1006,0.9551,0.1631,13.306,2.686,8.423,89.819,-7.262,121.080
15451,0.1406,0.9609,0.0815,7.935,21.790,6.165,89.824,-7.328,121.300
15461,0.1724,0.9565,-0.0161,-2.441,34.485,3.967,89.764,-7.399,121.646
15471,0.1787,0.9917,-0.0923,-15.320,38.086,0.122,89.621,-7.427,122.031
15481,0.1675,1.0059,-0.1484,-23.071,34.729,-2.319,89.434,-7.421,122.382
15491,0.1479,1.0234,-0.1519,-24.597,26.855,-1.526,89.247,-7.410,122.651
15501,0.1304,1.0420,-0.1162,-19.043,16.296,2.319,89.110,-7.427,122.816
15511,0.1333,1.0137,-0.0737,-7.202,5.493,7.935,89.083,-7.504,122.871
15521,0.1245,0.9858,-0.0283,1.709,-3.967,12.085,89.127,-7.619,122.833
15531,0.1304,1.0083,0.0391,7.690,-10.742,12.878,89.203,-7.745,122.728
15541,0.1602,1.0244,0.0903,10.559,-13.428,12.329,89.286,-7.883,122.596
15551,0.1802,1.0625,0.1479,7.385,-10.620,9.705,89.302,-7.998,122.487
15561,0.1831,1.1187,0.1890,1.831,-2.197,4.333,89.231,-8.053,122.465
15571,0.1699,1.1328,0.1860,0.732,8.728,-0.732,89.143,-8.047,122.552
15581,0.1470,1.0923,0.1528,1.953,18.677,-4.639,89.066,-7.993,122.745
15591,0.0869,0.8921,-0.0181,3.906,27.344,-9.399,89.088,-7.872,123.019
15601,0.0972,0.8428,-0.0869,2.441,18.372,-8.728,89.154,-7.767,123.201
15611,0.1294,0.8452,-0.1191,-0.244,2.319,-5.798,89.236,-7.718,123.223
15621,0.1670,0.8638,-0.1323,-2.380,-17.395,-2.808,89.330,-7.723,123.047
15631,0.1792,0.9253,-0.0942,-3.723,-33.813,0.732,89.407,-7.767,122.706
15641,0.1753,0.9985,-0.0137,-6.104,-36.621,4.272,89.407,-7.839,122.338
15651,0.1694,1.0840,0.1016,-9.583,-26.184,5.005,89.302,-7.899,122.075
15662,0.1587,1.1147,0.1890,-10.986,-11.414,3.296,89.116,-7.932,121.959
15671,0.1230,1.0806,0.2290,-9.399,0.793,0.671,88.912,-7.927,121.965
15681,0.0986,1.0469,0.1992,-7.446,11.353,-1.709,88.726,-7.877,122.080
15691,0.1147,1.0439,0.1431,-4.822,19.836,-2.808,88.588,-7.828,122.278
15701,0.1655,1.0776,0.0830,-0.122,23.315,-2.380,88.522,-7.811,122.514
15711,0.2017,1.0957,0.0264,6.531,22.644,-0.977,88.561,-7.822,122.745
15721,0.2139,1.1001,-0.0195,13.550,20.081,-0.610,88.687,-7.839,122.948
15731,0.1865,1.0127,-0.0796,19.836,17.395,-1.038,88.918,-7.850,123.124
15741,0.1191,0.8647,-0.1206,19.043,14.709,-2.380,89.182,-7.828,123.267
15751,0.0781,0.7983,-0.1123,6.592,13.123,-4.028,89.313,-7.762,123.398
15761,0.0674,0.8169,-0.0674,-9.399,11.536,-2.808,89.258,-7.701,123.519
15771,0.0796,0.8721,-0.0098,-19.104,8.972,0.549,89.072,-7.679,123.607
15781,0.0957,0.9097,0.0259,-19.775,5.310,3.845,88.863,-7.701,123.662
15791,0.1294,0.9663,0.0425,-18.127,2.380,5.859,88.665,-7.756,123.690
15801,0.1709,1.0254,0.0366,-16.724,0.366,6.348,88.495,-7.839,123.690
15811,0.2012,1.0610,0.0107,-16.541,-1.160,5.676,88.341,-7.921,123.684
15821,0.2197,1.0762,-0.0249,-16.357,-3.296,2.991,88.215,-7.987,123.651
15831,0.2065,1.0732,-0.0269,-16.968,-5.066,-0.916,88.083,-8.009,123.596
15841,0.1494,1.0503,0.0176,-19.165,-5.981,-4.089,87.913,-7.971,123.536
15851,0.0815,1.0186,0.0864,-21.057,-4.944,-5.859,87.682,-7.883,123.486
15861,0.0557,1.0322,0.1577,-18.982,-3.052,-5.066,87.435,-7.784,123.453
15871,0.0571,1.0073,0.1699,-7.019,-0.916,-0.671,87.297,-7.734,123.442
15881,0.0898,1.0181,0.1567,8.240,1.953,4.456,87.314,-7.751,123.464
15891,0.1479,1.0264,0.1050,24.963,5.371,9.399,87.523,-7.844,123.525
15901,0.1987,1.0093,0.0308,37.964,7.446,12.512,87.896,-7.998,123.602
15911,0.2271,0.9961,-0.0356,38.208,6.775,10.742,88.303,-8.152,123.673
15921,0.2358,0.9790,-0.0659,25.757,3.479,5.493,88.610,-8.256,123.712
15931,0.2119,0.9712,-0.0645,6.653,-0.488,-0.854,88.731,-8.289,123.706
15941,0.1636,0.9609,-0.0283,-10.864,-4.395,-5.737,88.660,-8.245,123.662
15951,0.1030,0.9473,0.0278,-22.095,-7.080,-7.812,88.445,-8.152,123.591
15961,0.0508,0.9570,0.0996,-25.146,-8.240,-7.019,88.165,-8.031,123.503
15971,0.0439,0.9854,0.1499,-18.005,-6.836,-2.441,87.929,-7.954,123.431
15981,0.0869,1.0527,0.1602,-5.310,-2.319,3.723,87.814,-7.960,123.409
15992,0.1250,1.0791,0.1294,9.033,3.296,7.690,87.852,-8.020,123.448
16002,0.1606,1.0864,0.0679,16.968,9.583,6.653,87.990,-8.086,123.547
16012,0.1826,1.0757,-0.0098,14.771,15.442,2.075,88.138,-8.119,123.701
16022,0.1787,0.9707,-0.0947,3.540,18.677,-3.723,88.226,-8.097,123.893
16032,0.1440,0.9194,-0.1338,-19.043,18.372,-10.437,88.110,-7.993,124.074
16042,0.1230,0.9556,-0.1167,-39.307,14.038,-13.733,87.792,-7.850,124.211
16052,0.1104,1.0405,-0.0454,-42.114,4.578,-10.132,87.413,-7.729,124.250
16062,0.1069,1.0601,0.0234,-23.437,-7.507,-1.587,87.204,-7.696,124.173
16072,0.1055,1.1147,0.1162,4.089,-18.616,6.714,87.237,-7.745,123.992
16082,0.1162,1.0972,0.1587,36.316,-23.010,13.855,87.572,-7.877,123.766
16092,0.1616,1.0439,0.1421,55.664,-18.616,16.846,88.094,-8.058,123.585
16102,0.2061,1.0029,0.1060,52.490,-7.324,13.062,88.583,-8.229,123.514
16112,0.2280,0.9634,0.0542,32.166,5.981,4.639,88.874,-8.322,123.580
16122,0.2197,0.9497,0.0161,6.592,16.663,-4.639,88.918,-8.322,123.745
16132,0.2046,0.9131,-0.0308,-14.954,20.203,-11.780,88.770,-8.245,123.948
16142,0.1836,0.9468,-0.0396,-29.053,14.893,-15.930,88.500,-8.108,124.096
16152,0.1548,0.9775,-0.0293,-29.358,2.930,-14.160,88.237,-7.976,124.118
16162,0.1221,0.9551,-0.0259,-14.709,-11.536,-7.141,88.143,-7.905,124.003
16172,0.1108,0.9590,0.0103,3.967,-24.170,1.465,88.226,-7.910,123.755
16182,0.1206,0.9946,0.0718,21.484,-28.137,8.789,88.456,-7.998,123.475
16192,0.1382,0.9653,0.1006,33.997,-22.339,12.878,88.775,-8.130,123.256
16202,0.1641,0.9902,0.1147,27.771,-9.888,10.437,89.011,-8.251,123.157
16212,0.1831,0.9805,0.0864,11.658,5.066,3.723,89.077,-8.306,123.206
16222,0.1841,0.9644,0.0449,-11.292,18.005,-4.639,88.923,-8.284,123.387
16232,0.1870,0.9688,0.0063,-34.607,26.611,-13.794,88.550,-8.168,123.657
16242,0.1641,0.9927,-0.0137,-43.396,23.376,-18.250,88.110,-7.993,123.887
16252,0.1494,0.9951,-0.0249,-34.973,13.428,-13.855,87.781,-7.861,124.019
16262,0.1182,0.9731,-0.0254,-11.047,-1.587,-3.662,87.709,-7.811,124.003
16272,0.0889,0.9683,-0.0273,18.677,-17.639,7.141,87.957,-7.866,123.827
16282,0.0830,0.9067,-0.0288,45.410,-32.898,16.724,88.489,-8.015,123.497
16291,0.1045,0.9106,0.0000,47.363,-38.696,20.447,89.028,-8.212,123.113
16302,0.1440,1.0073,0.0518,28.992,-30.029,16.479,89.335,-8.383,122.816
16312,0.1772,1.1187,0.0981,4.883,-12.634,8.972,89.357,-8.476,122.690
16322,0.2017,1.1709,0.1299,-15.320,6.042,1.038,89.143,-8.498,122.750
16332,0.1831,1.1685,0.1147,-27.222,20.264,-7.385,88.797,-8.427,122.953
16342,0.1475,1.1123,0.0728,-31.372,27.222,-13.794,88.418,-8.278,123.223
16352,0.1328,1.0601,0.0322,-28.687,26.672,-15.015,88.094,-8.108,123.492
16362,0.1133,1.0029,-0.0200,-18.005,17.273,-11.353,87.924,-7.976,123.662
16372,0.1104,0.9648,-0.0493,-3.967,3.662,-5.554,87.929,-7.905,123.695
16382,0.1025,0.9590,-0.0703,11.902,-10.376,-0.244,88.127,-7.888,123.591
16392,0.1133,0.9199,-0.0737,26.611,-23.926,5.432,88.484,-7.938,123.349
16402,0.1333,0.9106,-0.0430,29.236,-30.884,9.277,88.857,-8.042,123.041
16412,0.1621,0.9766,0.0332,17.700,-26.794,8.606,89.066,-8.146,122.772
16422,0.1924,1.0630,0.1216,3.418,-14.465,5.127,89.061,-8.218,122.629
16432,0.2056,1.0869,0.1641,-7.996,-0.183,1.221,88.907,-8.256,122.624
16442,0.2026,1.0972,0.1777,-18.616,12.390,-3.662,88.621,-8.240,122.750
16452,0.1680,1.0293,0.1328,-23.254,22.949,-8.911,88.303,-8.152,122.981
16462,0.1240,0.9385,0.0552,-23.315,28.809,-11.963,88.011,-8.020,123.267
16472,0.1118,0.8916,-0.0142,-18.127,28.381,-10.437,87.825,-7.899,123.552
16482,0.1270,0.8799,-0.0767,-5.859,20.081,-4.333,87.808,-7.850,123.750
16492,0.1436,0.8872,-0.1167,8.728,5.371,2.808,87.984,-7.888,123.805
16502,0.1685,0.9321,-0.1387,21.606,-9.460,8.362,88.319,-7.998,123.712
16512,0.1851,0.9272,-0.1357,30.945,-23.926,12.512,88.759,-8.163,123.475
16522,0.1938,0.9556,-0.0610,24.414,-31.799,12.817,89.094,-8.328,123.157
16532,0.1904,1.0386,0.0762,4.578,-28.809,8.789,89.143,-8.438,122.866
16542,0.1797,1.1177,0.2183,-14.221,-16.602,2.502,88.929,-8.470,122.701
16552,0.1440,1.1167,0.2969,-24.597,-0.305,-4.150,88.544,-8.416,122.695
16562,0.1206,1.1118,0.3022,-28.687,16.785,-10.132,88.099,-8.289,122.866
16572,0.1206,1.0835,0.2251,-21.057,29.297,-12.573,87.753,-8.135,123.157
16582,0.1323,1.0356,0.1113,-4.150,32.715,-10.254,87.627,-8.009,123.481
16592,0.1665,1.0264,0.0059,15.686,25.391,-4.822,87.764,-7.965,123.734
16602,0.1938,1.0562,-0.0825,35.400,9.766,1.160,88.171,-7.998,123.832
16612,0.1860,1.0112,-0.1704,50.232,-8.667,5.432,88.792,-8.075,123.750
16622,0.1602,0.9678,-0.1860,45.471,-27.954,5.066,89.401,-8.141,123.470
16632,0.1216,0.9702,-0.1167,18.555,-36.987,0.732,89.714,-8.141,123.096
16642,0.0986,1.0137,-0.0151,-18.616,-27.405,-7.568,89.583,-8.042,122.816
16652,0.0947,1.0811,0.1050,-52.612,-7.812,-17.151,89.017,-7.844,122.739
16663,0.0674,1.0742,0.1792,-70.190,12.207,-22.888,88.226,-7.575,122.855
16672,0.0757,1.0645,0.1880,-67.810,29.236,-22.827,87.429,-7.300,123.146
16682,0.0820,1.0132,0.1318,-41.443,36.804,-15.869,86.929,-7.103,123.508
16692,0.1016,0.9043,0.0229,-1.404,33.142,-3.906,86.891,-7.037,123.838
16702,0.1343,0.8481,-0.0742,37.598,20.935,8.240,87.314,-7.130,124.052
16712,0.1606,0.7827,-0.1714,69.031,5.249,18.799,88.143,-7.355,124.118
16722,0.2012,0.7817,-0.1973,76.904,-10.071,24.597,89.077,-7.668,124.025
16732,0.2305,0.8423,-0.1646,63.110,-25.513,23.987,89.852,-7.982,123.766
16742,0.2280,0.9502,-0.0806,37.354,-34.668,18.616,90.324,-8.223,123.420
16752,0.2070,1.0737,0.0259,10.559,-32.471,11.292,90.456,-8.361,123.091
16762,0.1826,1.1445,0.1162,-7.263,-20.447,4.517,90.352,-8.410,122.882
16772,0.1489,1.1392,0.1636,-13.062,-6.958,-0.916,90.148,-8.388,122.811
16782,0.1240,1.0664,0.1572,-12.817,4.517,-4.333,89.929,-8.328,122.860
16792,0.0967,1.0034,0.1055,-10.193,11.414,-5.676,89.753,-8.240,122.975
16806,0.0957,0.9673,0.0356,-6.714,14.893,-4.333,89.643,-8.174,123.124
16812,0.1133,0.9580,-0.0283,-2.319,12.512,-0.977,89.626,-8.146,123.250
16822,0.1328,0.9814,-0.0679,2.930,5.920,2.380,89.687,-8.168,123.311
16832,0.1514,1.0210,-0.0908,7.507,-2.502,4.333,89.819,-8.212,123.283
16842,0.1533,1.0610,-0.0820,8.545,-9.705,4.333,89.967,-8.256,123.190
16852,0.1450,1.0728,-0.0415,5.920,-13.794,2.319,90.066,-8.273,123.047
16862,0.1465,1.0845,0.0171,-2.319,-11.963,-1.099,90.049,-8.256,122.926
16872,0.1431,1.0635,0.0830,-11.475,-6.348,-5.676,89.901,-8.196,122.866
