elapsed_ms,acc_x_g,acc_y_g,acc_z_g,gyro_x_dps,gyro_y_dps,gyro_z_dps,angle_x_deg,angle_y_deg,angle_z_deg
0,0.0557,0.9556,-0.3789,1.343,2.319,2.136,111.841,-3.604,82.304
10,0.0566,0.9604,-0.3750,2.075,1.709,2.258,111.857,-3.625,82.310
20,0.0576,0.9614,-0.3721,3.174,0.977,2.075,111.885,-3.647,82.310
30,0.0635,0.9585,-0.3672,3.967,0.366,1.648,111.912,-3.658,82.310
40,0.0610,0.9541,-0.3618,4.089,-0.488,1.343,111.940,-3.669,82.299
50,0.0576,0.9575,-0.3550,3.906,-0.977,1.282,111.967,-3.675,82.288
60,0.0537,0.9604,-0.3472,3.906,-0.916,1.465,111.984,-3.675,82.271
70,0.0562,0.9624,-0.3403,4.272,-0.183,1.465,112.000,-3.686,82.266
80,0.0635,0.9644,-0.3384,4.700,0.610,1.160,112.022,-3.697,82.266
90,0.0708,0.9683,-0.3403,4.700,0.916,0.916,112.039,-3.708,82.271
100,0.0762,0.9702,-0.3423,3.662,0.854,0.610,112.050,-3.724,82.277
110,0.0767,0.9668,-0.3408,2.136,0.793,0.061,112.044,-3.735,82.282
120,0.0693,0.9600,-0.3369,0.488,0.793,-1.038,112.022,-3.730,82.293
130,0.0649,0.9507,-0.3350,-1.221,0.977,-2.380,111.984,-3.708,82.315
140,0.0625,0.9404,-0.3354,-2.747,1.099,-3.418,111.929,-3.680,82.337
150,0.0601,0.9302,-0.3354,-3.967,1.404,-3.906,111.868,-3.647,82.365
160,0.0562,0.9209,-0.3369,-4.211,2.014,-3.723,111.808,-3.620,82.397
170,0.0576,0.9097,-0.3345,-3.418,2.930,-3.418,111.753,-3.593,82.436
180,0.0562,0.8984,-0.3330,-1.587,3.540,-2.991,111.720,-3.576,82.480
190,0.0508,0.8896,-0.3354,0.061,3.662,-2.197,111.709,-3.565,82.524
200,0.0464,0.8848,-0.3330,0.977,3.479,-1.099,111.703,-3.560,82.557
210,0.0479,0.8853,-0.3276,1.648,3.418,0.244,111.703,-3.571,82.590
220,0.0513,0.8906,-0.3262,2.197,3.540,1.465,111.709,-3.593,82.617
230,0.0518,0.8955,-0.3257,2.625,4.395,2.319,111.714,-3.625,82.650
240,0.0508,0.9038,-0.3267,3.113,5.432,2.991,111.725,-3.664,82.689
250,0.0537,0.9131,-0.3262,3.235,6.714,3.784,111.736,-3.719,82.738
260,0.0488,0.9102,-0.3267,4.028,7.996,4.517,111.753,-3.779,82.793
270,0.0439,0.9058,-0.3369,4.822,10.193,4.700,111.780,-3.851,82.870
280,0.0415,0.8960,-0.3604,5.493,14.648,4.333,111.830,-3.928,82.991
290,0.0396,0.8486,-0.4048,5.432,22.034,3.296,111.907,-4.026,83.183
300,0.0264,0.7979,-0.4380,1.831,31.921,0.366,111.973,-4.125,83.480
310,0.0044,0.6895,-0.4878,-5.066,43.762,-2.441,112.028,-4.224,83.897
320,-0.0356,0.4727,-0.5342,-23.621,53.345,2.930,112.022,-4.378,84.380
330,-0.0244,0.4829,-0.4609,-64.575,52.734,16.602,111.566,-4.664,84.809
340,0.0566,0.8315,-0.2500,-103.760,36.804,34.119,110.473,-5.103,85.029
350,0.1909,1.1289,-0.1416,-88.684,8.484,49.805,109.468,-5.636,84.930
360,0.2798,1.3247,-0.1494,-15.808,-22.339,56.274,109.221,-6.152,84.534
370,0.2983,1.2607,-0.2827,66.162,-41.504,51.575,109.869,-6.564,83.969
380,0.2988,1.0835,-0.4619,106.812,-45.288,37.720,111.022,-6.839,83.408
390,0.3037,0.9668,-0.5771,80.444,-40.771,23.071,111.973,-6.993,82.941
400,0.2690,0.9722,-0.5469,4.211,-34.790,10.376,112.132,-7.026,82.579
410,0.2295,1.0718,-0.4053,-76.904,-19.714,0.183,111.379,-6.998,82.392
420,0.1631,1.2271,-0.2383,-124.634,-0.732,-11.780,110.039,-6.888,82.430
430,0.0977,1.2700,-0.1709,-117.737,13.916,-22.156,108.721,-6.707,82.639
440,0.0356,1.1260,-0.2573,-61.401,21.240,-25.024,108.023,-6.487,82.919
450,-0.0039,0.9009,-0.4121,4.456,23.437,-18.311,108.100,-6.323,83.205
460,-0.0107,0.7178,-0.5513,45.654,22.644,-6.287,108.721,-6.262,83.441
470,0.0342,0.6597,-0.6377,53.162,16.052,5.310,109.484,-6.323,83.573
480,0.0923,0.7217,-0.6313,35.767,6.287,14.526,110.056,-6.471,83.584
490,0.1323,0.8516,-0.5444,7.690,-5.798,19.165,110.270,-6.636,83.463
500,0.1665,1.0210,-0.3979,-17.578,-19.714,18.677,110.138,-6.762,83.216
510,0.1855,1.1519,-0.2432,-24.902,-36.743,15.869,109.852,-6.806,82.809
520,0.1821,1.2085,-0.1694,-11.230,-49.744,11.414,109.682,-6.762,82.299
530,0.1621,1.1563,-0.1777,14.832,-49.805,7.629,109.781,-6.680,81.804
540,0.1211,1.0278,-0.2471,37.354,-36.255,4.150,110.127,-6.597,81.447
550,0.1001,0.9209,-0.3193,39.124,-14.282,1.892,110.522,-6.559,81.304
560,0.1069,0.8657,-0.3779,22.217,7.324,1.343,110.764,-6.592,81.370
570,0.1206,0.8657,-0.4219,-1.404,20.508,1.526,110.781,-6.685,81.557
580,0.1357,0.9136,-0.4404,-22.034,24.109,2.808,110.588,-6.806,81.771
590,0.1509,1.0122,-0.3789,-32.349,16.663,3.662,110.253,-6.910,81.914
600,0.1626,1.0947,-0.2910,-27.832,1.038,3.906,109.924,-6.960,81.914
610,0.1523,1.1128,-0.2227,-10.132,-14.343,4.150,109.753,-6.960,81.760
621,0.1284,1.0664,-0.1938,10.925,-22.522,3.296,109.792,-6.910,81.535
630,0.1016,0.9868,-0.2651,27.588,-17.456,2.197,110.039,-6.861,81.365
640,0.0879,0.8931,-0.3779,31.921,3.052,2.441,110.385,-6.877,81.387
650,0.0864,0.8413,-0.4785,20.142,31.555,2.930,110.638,-6.993,81.672
660,0.1167,0.8271,-0.5747,-4.272,55.359,3.174,110.676,-7.213,82.183
670,0.1841,0.8638,-0.5923,-30.762,60.547,0.854,110.440,-7.460,82.749
680,0.2319,0.9526,-0.5342,-48.828,36.438,-2.625,110.001,-7.608,83.106
690,0.2358,1.0220,-0.4209,-46.997,-10.864,-4.150,109.572,-7.575,83.018
700,0.2236,1.0503,-0.2764,-27.527,-65.125,-2.808,109.330,-7.377,82.408
710,0.1572,1.0371,-0.1421,3.845,-103.943,0.732,109.380,-7.053,81.414
720,0.0977,1.0029,-0.0376,35.645,-103.638,7.874,109.682,-6.773,80.403
730,0.0845,0.9561,-0.0068,58.167,-63.965,11.963,110.138,-6.652,79.755
740,0.0718,0.8960,-0.1274,69.336,-3.296,7.629,110.715,-6.691,79.700
750,0.0947,0.8335,-0.2725,56.335,51.575,0.977,111.187,-6.877,80.184
760,0.1299,0.7773,-0.4385,26.733,89.233,-4.883,111.434,-7.163,81.035
770,0.1812,0.8169,-0.5937,-9.766,97.595,-8.301,111.368,-7.471,81.985
780,0.2261,0.9106,-0.6787,-33.813,71.472,-12.024,111.094,-7.657,82.700
790,0.2402,0.9756,-0.6919,-35.583,18.738,-13.123,110.852,-7.635,82.925
800,0.2183,0.9976,-0.6089,-22.705,-40.588,-10.315,110.781,-7.427,82.579
810,0.1646,0.9727,-0.4419,-6.775,-93.506,-4.944,110.858,-7.070,81.711
820,0.0933,0.9556,-0.2261,5.432,-123.291,3.235,110.978,-6.647,80.541
830,0.0503,0.9731,0.0117,13.672,-114.929,10.010,111.028,-6.295,79.426
840,0.0747,1.0039,0.1729,20.935,-69.824,11.902,111.000,-6.136,78.728
850,0.1050,1.0078,0.1309,31.311,-7.751,4.517,111.039,-6.147,78.635
860,0.1177,0.9419,-0.0508,35.767,53.955,-5.798,111.154,-6.295,79.162
870,0.1484,0.8354,-0.2920,24.658,96.436,-12.756,111.281,-6.553,80.118
880,0.1846,0.8130,-0.4912,0.122,106.140,-16.174,111.259,-6.828,81.172
890,0.2017,0.8110,-0.6611,-19.714,83.191,-16.052,111.143,-7.020,82.007
900,0.2017,0.8721,-0.7334,-28.137,38.696,-12.146,111.006,-7.081,82.419
910,0.2134,0.9404,-0.7119,-25.635,-9.949,-6.958,110.923,-7.009,82.348
920,0.1934,0.9883,-0.6123,-14.282,-59.509,-2.625,110.956,-6.801,81.799
930,0.1489,1.0229,-0.4297,-2.502,-96.619,4.761,111.055,-6.509,80.870
940,0.1172,1.0313,-0.2061,3.357,-104.797,12.451,111.110,-6.251,79.843
950,0.0947,1.0483,-0.0151,3.662,-76.355,13.794,111.022,-6.097,79.074
960,0.0952,1.0811,0.0283,6.348,-26.611,6.104,110.891,-6.048,78.805
970,0.0840,0.9917,-0.1021,13.062,26.733,-4.211,110.841,-6.092,79.069
980,0.0864,0.8765,-0.3228,11.536,70.313,-11.292,110.874,-6.224,79.772
990,0.1182,0.8354,-0.5200,-3.784,89.294,-13.794,110.852,-6.416,80.662
1000,0.1411,0.8389,-0.6704,-17.517,77.881,-11.475,110.770,-6.597,81.436
1010,0.1660,0.8535,-0.7407,-22.949,43.945,-6.226,110.698,-6.713,81.870
1020,0.1797,0.8896,-0.7148,-21.057,1.587,-2.441,110.665,-6.718,81.892
1030,0.1899,0.9263,-0.6147,-15.259,-41.748,-0.793,110.687,-6.592,81.502
1040,0.1553,0.9814,-0.4434,-7.568,-80.078,2.808,110.737,-6.356,80.739
1050,0.1191,1.0186,-0.2290,0.793,-95.276,10.376,110.770,-6.119,79.805
1060,0.0962,1.0640,-0.0366,6.348,-82.703,13.672,110.731,-5.944,78.981
1070,0.1016,1.1035,0.0654,10.498,-44.373,10.132,110.638,-5.878,78.525
1080,0.1035,1.0840,-0.0132,18.982,3.113,-0.305,110.621,-5.883,78.558
1090,0.1143,0.9707,-0.2222,26.855,44.739,-9.705,110.764,-5.955,79.014
1100,0.1357,0.8438,-0.4336,18.005,68.970,-13.977,110.934,-6.086,79.711
1110,0.1367,0.7656,-0.5698,-1.709,67.932,-13.489,111.006,-6.224,80.398
1121,0.1274,0.7280,-0.6465,-21.179,47.241,-9.460,110.951,-6.317,80.876
1130,0.1431,0.8032,-0.6387,-34.180,16.479,-3.723,110.770,-6.356,81.041
1140,0.1631,0.9219,-0.5630,-34.363,-17.700,0.549,110.555,-6.323,80.876
1150,0.1680,1.0391,-0.4307,-22.217,-51.086,2.991,110.407,-6.196,80.381
1160,0.1406,1.0796,-0.2671,-4.272,-73.181,5.981,110.374,-6.010,79.673
1170,0.1123,1.0532,-0.1016,8.728,-74.158,9.338,110.391,-5.839,78.937
1180,0.0850,1.0303,0.0366,11.353,-52.246,9.521,110.330,-5.735,78.415
1190,0.0742,1.0249,0.0356,8.301,-12.329,4.395,110.204,-5.718,78.283
1200,0.0718,0.9863,-0.1260,11.353,31.006,-2.869,110.154,-5.779,78.585
1210,0.1030,0.9136,-0.3496,9.277,65.308,-7.385,110.193,-5.938,79.228
1220,0.1416,0.8779,-0.5435,-3.052,75.806,-8.972,110.198,-6.130,79.975
1230,0.1484,0.8623,-0.6567,-17.334,60.791,-8.301,110.138,-6.279,80.574
1240,0.1514,0.8682,-0.7051,-30.457,30.945,-5.615,109.990,-6.345,80.887
1250,0.1528,0.9316,-0.6445,-37.964,-2.380,-4.089,109.759,-6.317,80.881
1260,0.1592,0.9951,-0.5161,-37.048,-34.668,-3.967,109.506,-6.180,80.563
1270,0.1338,1.0439,-0.3467,-25.146,-61.523,-2.441,109.308,-5.960,79.991
1280,0.1152,1.0225,-0.1953,-6.897,-72.083,1.282,109.226,-5.740,79.299
1290,0.1035,0.9814,-0.0405,7.080,-70.557,3.906,109.193,-5.548,78.618
1300,0.0659,0.9961,0.0469,11.902,-56.519,6.836,109.144,-5.411,78.058
1310,0.0698,1.0088,0.0000,13.794,-23.071,6.653,109.111,-5.383,77.816
1320,0.0752,0.9829,-0.1919,23.376,14.038,0.732,109.254,-5.427,77.948
1330,0.0869,0.8965,-0.4150,27.771,40.710,-3.601,109.545,-5.521,78.349
1340,0.0898,0.7998,-0.5894,15.015,48.645,-4.028,109.819,-5.641,78.821
1350,0.0918,0.7671,-0.6689,-12.329,39.246,-3.357,109.869,-5.735,79.206
1360,0.1025,0.8208,-0.6328,-42.603,20.630,-1.160,109.605,-5.795,79.404
1370,0.1196,0.9492,-0.5000,-59.082,-1.648,0.793,109.105,-5.801,79.387
1380,0.1353,1.0659,-0.3442,-50.720,-23.560,1.892,108.616,-5.757,79.156
1390,0.1470,1.1475,-0.2163,-23.743,-39.429,2.869,108.336,-5.669,78.772
1400,0.1450,1.1387,-0.1260,8.179,-46.265,3.723,108.342,-5.576,78.316
1410,0.1250,1.0708,-0.0596,24.780,-41.504,4.822,108.474,-5.504,77.904
1420,0.1001,1.0220,-0.0708,21.851,-25.940,3.540,108.572,-5.455,77.646
1430,0.0898,0.9785,-0.1758,9.155,-1.953,-2.502,108.578,-5.422,77.635
1441,0.0806,0.9043,-0.3442,-7.996,22.339,-10.254,108.501,-5.389,77.882
1451,0.0957,0.8608,-0.4634,-33.447,39.001,-17.944,108.226,-5.345,78.311
1461,0.1001,0.8726,-0.5127,-64.148,42.542,-25.452,107.672,-5.240,78.794
1471,0.0723,0.9463,-0.5093,-86.792,33.875,-26.733,106.880,-5.076,79.200
1481,0.0742,1.0386,-0.4653,-87.830,19.653,-20.630,106.062,-4.927,79.453
1491,0.0874,1.0918,-0.4287,-61.829,2.319,-12.512,105.496,-4.807,79.508
1501,0.0889,1.1089,-0.3398,-25.208,-15.747,-5.249,105.276,-4.713,79.371
1511,0.0889,1.0522,-0.1973,8.484,-30.396,0.061,105.337,-4.631,79.074
1520,0.0781,0.9805,-0.0698,24.841,-41.138,4.761,105.502,-4.570,78.668
1531,0.0879,0.9580,0.0088,22.583,-39.551,8.789,105.595,-4.554,78.261
1541,0.1040,0.9888,-0.0151,15.747,-23.132,8.606,105.628,-4.592,78.014
1551,0.1230,1.0034,-0.1235,12.939,0.977,3.296,105.667,-4.647,78.014
1561,0.1187,0.9692,-0.2505,10.315,24.170,-3.052,105.738,-4.702,78.256
1571,0.1045,0.9263,-0.3340,0.671,41.077,-5.676,105.754,-4.774,78.668
1581,0.0986,0.9106,-0.3687,-18.494,49.377,-5.798,105.590,-4.861,79.162
1591,0.0996,0.9307,-0.3623,-33.875,47.485,-7.446,105.271,-4.922,79.640
1601,0.1016,0.9268,-0.3608,-33.997,33.997,-11.353,104.963,-4.916,79.997
1611,0.0752,0.9072,-0.3179,-24.048,12.024,-13.306,104.760,-4.812,80.151
1621,0.0630,0.8843,-0.2427,-13.428,-8.972,-9.583,104.634,-4.691,80.085
1630,0.0630,0.8994,-0.1973,-2.075,-25.391,-2.380,104.612,-4.598,79.849
1641,0.1006,0.9609,-0.1528,6.775,-35.339,5.066,104.650,-4.570,79.492
1651,0.1299,1.0098,-0.1362,13.428,-35.950,10.498,104.744,-4.609,79.113
1661,0.1675,1.0576,-0.1699,15.076,-24.170,11.780,104.859,-4.702,78.849
1671,0.1772,1.0435,-0.2266,7.812,-5.310,8.545,104.914,-4.818,78.777
1681,0.1348,0.9917,-0.2510,-9.399,10.803,1.709,104.810,-4.889,78.876
1691,0.0684,0.9282,-0.2695,-34.912,21.973,-6.775,104.458,-4.867,79.107
1701,0.0107,0.9053,-0.2979,-57.434,28.259,-14.282,103.898,-4.763,79.420
1711,-0.0146,0.9287,-0.3159,-67.078,30.823,-18.677,103.255,-4.598,79.761
1721,0.0049,0.9805,-0.3286,-57.373,27.039,-19.470,102.717,-4.427,80.074
1731,0.0635,1.0361,-0.3218,-32.532,17.273,-15.381,102.426,-4.307,80.277
1741,0.1152,1.0488,-0.2930,-0.427,2.747,-6.714,102.448,-4.263,80.316
1751,0.1553,1.0142,-0.2388,29.541,-13.367,3.906,102.761,-4.318,80.178
1761,0.1577,0.9712,-0.1968,45.959,-28.564,11.841,103.222,-4.417,79.871
1771,0.1270,0.9395,-0.1777,45.593,-37.659,15.259,103.678,-4.510,79.470
1781,0.1055,0.9321,-0.1831,30.334,-34.912,13.733,103.986,-4.576,79.096
1791,0.1040,0.9316,-0.2202,8.545,-21.729,7.080,104.079,-4.609,78.865
1801,0.1108,0.9614,-0.2505,-12.573,-5.676,-1.953,103.964,-4.592,78.816
1811,0.1113,0.9897,-0.2744,-29.968,6.531,-9.338,103.678,-4.537,78.904
1821,0.1094,0.9868,-0.2876,-37.964,12.512,-14.587,103.315,-4.438,79.058
1831,0.0815,0.9766,-0.2812,-35.522,8.789,-17.822,102.980,-4.290,79.184
1841,0.0386,0.9639,-0.2446,-27.344,-4.456,-15.442,102.722,-4.109,79.178
1851,0.0127,0.9634,-0.2046,-17.883,-21.179,-8.362,102.552,-3.950,78.986
1861,0.0249,0.9717,-0.1968,-9.827,-37.170,-1.343,102.469,-3.834,78.629
1871,0.0537,1.0103,-0.2061,-4.883,-48.218,5.615,102.442,-3.774,78.146
1881,0.0737,1.0513,-0.2129,-3.174,-47.791,14.709,102.431,-3.818,77.646
1891,0.0937,1.0376,-0.2261,-4.517,-35.156,19.897,102.415,-3.944,77.256
1901,0.1211,1.0444,-0.2183,-11.353,-14.587,16.602,102.305,-4.103,77.080
1911,0.1216,1.0410,-0.2158,-19.958,5.005,6.775,102.101,-4.202,77.113
1921,0.0654,0.9868,-0.2231,-25.024,17.761,-4.456,101.843,-4.191,77.300
1931,0.0024,0.9517,-0.2461,-25.146,24.292,-14.343,101.602,-4.059,77.563
1941,-0.0278,0.9297,-0.3042,-19.348,24.780,-19.775,101.459,-3.862,77.849
1951,-0.0205,0.9531,-0.3330,-8.972,18.677,-18.677,101.431,-3.664,78.069
1961,0.0308,1.0034,-0.3232,2.136,5.737,-10.803,101.514,-3.554,78.146
1971,0.1284,1.0708,-0.2622,10.071,-11.658,1.221,101.640,-3.571,78.030
1981,0.2109,1.0996,-0.1572,13.916,-31.677,10.132,101.766,-3.680,77.701
1991,0.2056,1.0903,-0.0503,15.320,-49.255,14.526,101.860,-3.790,77.184
2001,0.1440,1.0483,0.0049,15.381,-49.561,14.038,101.920,-3.867,76.668
2011,0.0508,0.9434,-0.0117,13.062,-27.466,6.531,101.959,-3.867,76.388
2021,-0.0151,0.8647,-0.1001,6.897,6.958,-7.141,101.970,-3.763,76.470
2031,-0.0352,0.8164,-0.1831,-5.371,41.016,-17.822,101.893,-3.609,76.910
2041,0.0059,0.8174,-0.2407,-22.339,63.904,-23.254,101.673,-3.483,77.585
2051,0.0693,0.8955,-0.2891,-33.203,67.383,-23.926,101.365,-3.395,78.294
2061,0.1206,0.9561,-0.3271,-25.391,48.523,-19.775,101.157,-3.329,78.810
2071,0.1353,0.9907,-0.3306,-4.944,15.381,-9.644,101.173,-3.307,78.981
2081,0.1250,0.9795,-0.2979,15.930,-19.226,3.174,101.398,-3.340,78.783
2091,0.1074,0.9326,-0.2329,27.161,-52.063,14.099,101.728,-3.406,78.245
2101,0.0771,0.9272,-0.1553,25.085,-74.646,23.743,101.997,-3.494,77.465
2111,0.0288,0.9717,-0.0576,16.479,-74.036,29.968,102.123,-3.615,76.679
2122,0.0200,1.0405,-0.0361,11.597,-44.678,28.687,102.167,-3.774,76.179
2131,0.0234,1.1084,-0.0762,13.306,0.000,18.860,102.217,-3.933,76.141
2141,0.0571,1.0996,-0.1357,13.672,40.649,7.019,102.277,-4.076,76.520
2151,0.0879,1.0571,-0.2231,10.559,64.453,-5.066,102.332,-4.169,77.162
2161,0.0947,0.9609,-0.3354,2.869,67.749,-17.090,102.382,-4.158,77.866
2171,0.0840,0.9019,-0.4116,-6.531,51.575,-24.170,102.398,-4.037,78.420
2181,0.0513,0.8994,-0.4204,-13.184,20.874,-20.447,102.376,-3.878,78.668
2191,0.0557,0.9492,-0.3647,-15.991,-13.611,-8.301,102.310,-3.757,78.552
2201,0.0933,1.0371,-0.2744,-13.123,-47.302,4.761,102.239,-3.719,78.080
2211,0.1167,1.1226,-0.1597,-6.531,-71.960,16.541,102.178,-3.746,77.344
2221,0.0962,1.1748,-0.0645,4.395,-74.768,23.315,102.184,-3.829,76.558
2231,0.0747,1.1162,-0.0459,17.700,-48.401,21.362,102.294,-3.933,76.042
2241,0.0596,1.0098,-0.0928,24.475,-5.005,10.010,102.469,-4.016,75.970
2251,0.0293,0.8989,-0.1270,18.616,36.865,-3.052,102.585,-4.043,76.339
2261,0.0479,0.8252,-0.1929,-1.953,65.430,-13.794,102.524,-4.043,77.009
2271,0.0908,0.8823,-0.2363,-31.433,72.388,-21.057,102.184,-4.010,77.761
2281,0.1318,1.0342,-0.2666,-44.067,58.655,-22.156,101.728,-3.950,78.382
2291,0.1460,1.1602,-0.2832,-27.588,30.518,-15.137,101.453,-3.895,78.712
2301,0.1475,1.1953,-0.2622,6.104,-1.282,-4.517,101.519,-3.878,78.712
2311,0.1362,1.0283,-0.2441,36.926,-32.532,1.953,101.926,-3.867,78.387
2321,0.0625,0.8359,-0.2300,45.105,-60.547,3.845,102.448,-3.779,77.783
2331,-0.0068,0.8037,-0.1982,23.987,-67.383,7.202,102.744,-3.664,77.113
2341,-0.0054,0.8574,-0.2026,-5.432,-43.640,10.986,102.722,-3.636,76.657
2351,0.0430,0.9980,-0.2173,-24.048,-5.005,10.437,102.486,-3.713,76.586
2361,0.1045,1.1655,-0.1860,-33.447,28.198,7.690,102.107,-3.862,76.849
2371,0.1196,1.2056,-0.1670,-32.166,44.373,0.671,101.717,-3.977,77.278
2381,0.0747,1.0991,-0.1997,-23.132,43.091,-10.925,101.442,-3.955,77.723
2391,0.0063,0.9580,-0.2373,-12.878,32.288,-20.325,101.316,-3.785,78.085
2401,-0.0234,0.8730,-0.2607,-3.113,16.663,-21.545,101.321,-3.554,78.289
2411,-0.0020,0.8638,-0.2900,5.188,0.061,-15.137,101.442,-3.373,78.322
2421,0.0581,0.9277,-0.3130,12.634,-15.381,-5.310,101.651,-3.290,78.179
2431,0.1318,1.0347,-0.2954,17.822,-29.114,3.845,101.887,-3.307,77.888
2441,0.1621,1.1177,-0.2251,15.503,-37.537,10.437,102.057,-3.378,77.498
2451,0.1348,1.1001,-0.1431,6.042,-32.166,11.902,102.090,-3.466,77.157
2461,0.0923,1.0649,-0.0723,-9.644,-9.583,4.150,101.920,-3.499,77.053
2471,0.0298,0.9888,-0.0356,-24.109,17.639,-9.155,101.569,-3.428,77.245
2481,-0.0269,0.8872,-0.0649,-34.485,39.368,-21.179,101.129,-3.252,77.673
2491,-0.0381,0.8267,-0.1406,-40.039,52.124,-26.489,100.684,-3.032,78.239
2501,-0.0068,0.8066,-0.2480,-35.400,54.565,-25.330,100.371,-2.851,78.821
2511,0.0718,0.8989,-0.3335,-22.583,44.006,-20.691,100.223,-2.741,79.294
2521,0.1689,1.0601,-0.3354,-6.836,21.973,-10.498,100.217,-2.741,79.530
2531,0.2080,1.1382,-0.2715,9.460,-7.751,0.610,100.344,-2.807,79.448
2541,0.2012,1.1250,-0.1685,18.188,-40.283,5.493,100.525,-2.856,79.041
2551,0.1274,1.0679,-0.0278,13.123,-63.843,6.775,100.596,-2.851,78.404
2561,0.0034,0.9951,0.0571,-0.244,-58.655,6.958,100.486,-2.785,77.811
2571,-0.0566,0.9644,0.0229,-11.902,-21.362,1.465,100.261,-2.697,77.602
2581,-0.1021,0.8770,-0.0767,-16.968,25.513,-8.423,100.025,-2.565,77.866
2591,-0.1030,0.8320,-0.2026,-17.822,64.880,-16.602,99.855,-2.422,78.536
2601,-0.0342,0.8228,-0.3237,-24.292,84.656,-18.066,99.695,-2.346,79.398
2611,0.0532,0.9126,-0.4180,-24.719,75.684,-15.686,99.569,-2.324,80.173
2622,0.1577,1.0654,-0.4351,-13.611,40.955,-8.484,99.547,-2.362,80.590
2631,0.2114,1.1885,-0.3687,6.958,-6.958,1.892,99.695,-2.444,80.519
2641,0.2119,1.1963,-0.2715,27.710,-55.481,8.362,100.025,-2.505,79.958
2651,0.1396,1.1377,-0.1636,38.635,-94.788,11.963,100.426,-2.505,79.003
2661,0.0420,1.0513,-0.0249,29.724,-107.300,15.808,100.679,-2.461,77.921
2671,-0.0479,1.0376,0.0630,12.573,-82.275,15.320,100.695,-2.411,77.080
2681,-0.0586,1.0093,0.0171,2.258,-28.809,4.944,100.613,-2.346,76.789
2691,-0.0518,0.9629,-0.0620,-0.610,29.358,-9.033,100.525,-2.258,77.091
2701,-0.0088,0.9482,-0.1392,-6.897,75.012,-19.043,100.404,-2.181,77.866
2711,0.0557,0.9409,-0.2300,-20.569,94.299,-21.301,100.201,-2.153,78.832
2721,0.0947,0.9463,-0.3306,-25.330,83.923,-19.104,100.009,-2.148,79.695
2731,0.1123,0.9468,-0.3843,-16.541,51.086,-14.648,99.943,-2.131,80.222
2741,0.1064,0.9985,-0.3691,-1.587,8.362,-8.667,100.031,-2.098,80.321
2751,0.0918,0.9844,-0.3193,8.118,-33.875,-2.808,100.201,-2.043,79.991
2761,0.0425,0.9497,-0.2085,10.986,-75.623,2.197,100.360,-1.934,79.244
2771,0.0049,0.9434,-0.0532,4.639,-102.173,11.475,100.366,-1.851,78.217
2781,-0.0137,1.0459,0.0894,-2.380,-92.529,19.531,100.223,-1.851,77.272
2791,0.0601,1.1431,0.1099,-3.052,-44.373,20.020,100.047,-1.978,76.800
2801,0.1084,1.1899,0.0513,0.488,12.390,10.315,99.926,-2.131,76.904
2811,0.1006,1.1450,-0.0293,3.967,59.753,-3.601,99.860,-2.225,77.498
2821,0.0415,0.9482,-0.1401,-6.592,86.670,-17.578,99.745,-2.203,78.382
2831,-0.0327,0.7959,-0.2505,-27.954,91.187,-27.710,99.509,-2.043,79.327
2841,-0.0571,0.7861,-0.3237,-39.429,77.209,-27.588,99.218,-1.840,80.134
2851,-0.0220,0.8364,-0.3657,-27.039,44.983,-16.296,99.080,-1.719,80.607
2861,0.0396,0.9312,-0.3657,-0.183,2.991,-1.160,99.201,-1.719,80.640
2871,0.1240,1.0151,-0.3418,29.297,-42.053,11.536,99.597,-1.813,80.206
2881,0.1514,1.0942,-0.2515,48.889,-85.022,22.095,100.140,-1.950,79.327
2891,0.1250,1.1333,-0.0737,46.753,-103.455,32.043,100.574,-2.126,78.250
2901,0.1040,1.1895,0.0625,33.936,-81.238,32.288,100.811,-2.318,77.393
2911,0.0820,1.1670,0.0410,24.719,-29.236,17.639,100.937,-2.455,77.075
2921,0.0205,1.0308,-0.0239,16.113,27.222,-2.319,100.992,-2.466,77.344
2931,-0.0425,0.8271,-0.1152,-1.526,71.045,-18.555,100.915,-2.368,78.080
2941,-0.0312,0.7334,-0.2275,-31.677,91.492,-27.039,100.624,-2.230,79.030
2951,0.0161,0.8076,-0.3066,-52.307,85.938,-24.719,100.173,-2.137,79.920
2961,0.0708,0.8853,-0.3599,-39.063,60.608,-12.695,99.882,-2.137,80.541
2971,0.1260,0.9888,-0.3774,1.160,21.301,0.793,99.998,-2.230,80.750
2981,0.1675,1.0332,-0.3906,42.542,-22.827,10.742,100.536,-2.357,80.502
2991,0.1636,1.0474,-0.3521,61.340,-68.909,16.724,101.250,-2.455,79.794
3001,0.1006,1.0332,-0.2598,52.612,-102.600,22.766,101.843,-2.510,78.745
3011,0.0469,1.0527,-0.0947,24.475,-104.553,25.513,102.068,-2.543,77.668
3021,0.0054,1.0811,0.0176,-0.549,-71.289,18.311,101.964,-2.549,76.932
3031,0.0112,1.0693,0.0166,-16.479,-18.677,6.775,101.678,-2.560,76.734
3041,-0.0073,1.0439,-0.0381,-23.376,31.067,-5.615,101.338,-2.538,77.053
3051,0.0195,1.0142,-0.1470,-28.198,65.857,-16.174,100.997,-2.494,77.728
3061,0.0586,0.9521,-0.2573,-32.898,76.111,-20.386,100.679,-2.450,78.514
3072,0.0439,0.8994,-0.3350,-26.062,62.500,-17.883,100.492,-2.390,79.162
3082,0.0469,0.8950,-0.3633,-10.559,32.776,-9.949,100.492,-2.357,79.503
3092,0.0425,0.8809,-0.3633,6.104,-3.418,-1.221,100.673,-2.340,79.475
3102,0.0659,0.9336,-0.3179,17.090,-39.551,4.822,100.937,-2.329,79.074
3111,0.0820,1.0386,-0.2397,22.034,-69.519,12.146,101.206,-2.340,78.371
3122,0.0923,1.1187,-0.1240,20.935,-80.627,20.935,101.398,-2.411,77.536
3131,0.1040,1.1782,-0.0010,16.846,-64.453,22.827,101.481,-2.532,76.860
3141,0.0952,1.2339,0.0469,11.780,-28.442,13.733,101.470,-2.626,76.553
3151,0.0698,1.1445,0.0195,4.761,14.587,1.038,101.387,-2.675,76.696
3161,0.0088,0.9980,-0.0527,-6.775,50.964,-12.573,101.212,-2.631,77.217
3172,-0.0303,0.8599,-0.1616,-26.428,71.594,-24.536,100.909,-2.483,77.970
3182,-0.0366,0.8096,-0.2700,-43.762,71.472,-29.724,100.519,-2.280,78.728
3192,-0.0103,0.8276,-0.3301,-43.396,51.880,-24.475,100.184,-2.104,79.283
3202,0.0278,0.8721,-0.3472,-22.400,17.639,-11.475,100.069,-2.021,79.475
3212,0.1064,0.9717,-0.3242,8.423,-20.813,1.404,100.245,-2.038,79.272
3221,0.1509,1.0576,-0.2788,36.804,-60.425,12.207,100.673,-2.109,78.651
3232,0.1353,1.1021,-0.2026,48.035,-87.280,21.912,101.179,-2.208,77.756
3242,0.0942,1.1255,-0.0806,37.109,-85.876,26.062,101.508,-2.324,76.860
3252,0.0522,1.1514,-0.0151,17.700,-52.917,18.738,101.602,-2.401,76.306
3262,0.0264,1.0801,-0.0332,-0.793,-4.517,4.822,101.497,-2.433,76.251
3272,-0.0469,0.9736,-0.0610,-18.311,39.490,-9.949,101.217,-2.362,76.657
3282,-0.0562,0.8882,-0.1289,-40.527,69.397,-21.179,100.761,-2.230,77.382
3292,-0.0356,0.8701,-0.2324,-56.091,75.684,-24.170,100.217,-2.087,78.168
3302,0.0103,0.8843,-0.3164,-50.049,60.303,-20.325,99.789,-1.983,78.799
3312,0.0557,0.8877,-0.3750,-21.301,28.931,-12.634,99.701,-1.923,79.107
3322,0.1074,0.9302,-0.3848,11.597,-7.935,-4.211,99.948,-1.906,79.036
3332,0.1582,0.9834,-0.3262,33.997,-44.983,4.883,100.382,-1.945,78.585
3342,0.1572,1.0684,-0.2100,40.771,-77.148,15.503,100.822,-2.021,77.794
3352,0.1182,1.1245,-0.0337,30.334,-87.952,24.048,101.058,-2.131,76.888
3362,0.0576,1.2031,0.1084,13.733,-68.176,21.851,101.058,-2.219,76.174
3372,0.0322,1.1880,0.0957,2.136,-22.766,8.667,100.931,-2.258,75.932
3382,-0.0195,1.1128,0.0098,-5.127,25.879,-7.263,100.756,-2.203,76.201
3392,-0.0444,0.9980,-0.1309,-13.855,64.087,-20.447,100.563,-2.071,76.871
3402,-0.0220,0.9058,-0.2944,-26.611,80.078,-27.100,100.344,-1.923,77.706
3412,0.0024,0.8560,-0.4165,-32.288,72.205,-26.794,100.157,-1.769,78.464
3422,0.0479,0.8574,-0.4668,-25.452,47.791,-20.996,100.069,-1.659,78.975
3432,0.0840,0.8955,-0.4375,-9.277,13.428,-11.658,100.135,-1.599,79.129
3442,0.1030,0.9063,-0.3745,8.362,-23.376,-2.319,100.349,-1.582,78.904
3452,0.0937,0.9424,-0.2559,18.982,-59.448,5.310,100.602,-1.566,78.305
3462,0.0645,1.0132,-0.1011,17.883,-83.618,13.855,100.750,-1.571,77.459
3472,0.0513,1.1016,0.0391,7.996,-80.139,19.775,100.723,-1.626,76.635
3482,0.0503,1.1553,0.1138,2.747,-50.232,16.113,100.602,-1.697,76.113
3492,0.0498,1.1328,0.0737,2.869,-7.874,5.493,100.492,-1.747,76.025
3502,0.0044,1.0469,-0.0234,2.808,32.715,-5.493,100.415,-1.736,76.355
3512,-0.0098,0.9595,-0.1523,-6.592,62.256,-14.099,100.316,-1.686,76.992
3522,0.0127,0.9209,-0.2710,-22.827,69.824,-18.188,100.129,-1.626,77.712
3532,-0.0049,0.9053,-0.3618,-27.527,51.208,-18.066,99.959,-1.516,78.250
3542,-0.0107,0.8828,-0.4077,-19.165,18.005,-13.184,99.915,-1.401,78.448
3552,0.0352,0.9521,-0.3804,-5.493,-17.517,-6.531,99.981,-1.313,78.289
3562,0.0830,1.0303,-0.2988,7.935,-51.575,2.136,100.135,-1.274,77.778
3572,0.0942,1.0996,-0.1675,17.639,-75.073,13.000,100.311,-1.307,77.014
3582,0.0918,1.1812,0.0151,14.648,-71.899,20.874,100.360,-1.412,76.267
3592,0.1138,1.2466,0.1230,3.052,-41.870,18.921,100.245,-1.560,75.822
3602,0.0845,1.1890,0.1318,-9.644,-1.648,8.118,99.981,-1.659,75.795
3612,-0.0151,1.0425,0.0620,-18.982,38.086,-8.179,99.651,-1.620,76.179
3622,-0.1035,0.8457,-0.0937,-30.884,69.946,-23.499,99.289,-1.423,76.910
3632,-0.1177,0.7363,-0.2588,-47.302,83.191,-30.273,98.899,-1.159,77.783
3642,-0.0879,0.7437,-0.3765,-49.561,72.205,-27.100,98.575,-0.934,78.536
3652,-0.0122,0.7861,-0.4448,-27.405,41.199,-15.564,98.503,-0.824,78.970
3662,0.0928,0.8740,-0.4443,8.484,1.892,-2.075,98.773,-0.851,78.986
3672,0.2012,0.9907,-0.3857,41.870,-38.757,8.545,99.316,-0.978,78.591
3682,0.2183,1.0942,-0.2725,57.678,-76.233,17.334,99.948,-1.126,77.811
3692,0.1587,1.1055,-0.0977,49.133,-91.064,24.292,100.404,-1.274,76.871
3702,0.1016,1.1787,0.0698,24.841,-71.167,21.484,100.530,-1.395,76.135
3712,0.0444,1.1416,0.1304,-0.977,-28.259,9.216,100.355,-1.439,75.839
3722,-0.0493,1.0542,0.1025,-17.883,18.005,-5.737,100.014,-1.373,76.025
3732,-0.1021,0.9609,-0.0098,-31.372,58.899,-19.165,99.597,-1.214,76.641
3742,-0.0630,0.9370,-0.1777,-43.152,80.200,-24.780,99.163,-1.055,77.470
3752,-0.0024,0.9546,-0.3433,-38.574,72.266,-22.644,98.871,-0.934,78.223
3762,0.0342,0.9067,-0.4517,-14.893,39.001,-15.930,98.893,-0.851,78.635
3772,0.0757,0.8770,-0.4712,11.292,0.488,-8.179,99.201,-0.807,78.651
3782,0.1245,0.8779,-0.4214,23.743,-35.156,-0.061,99.602,-0.813,78.305
3792,0.1104,0.9395,-0.2852,22.827,-68.848,9.399,99.915,-0.846,77.607
3802,0.0552,1.0288,-0.0713,12.878,-85.632,19.836,99.992,-0.917,76.729
3812,0.0283,1.1494,0.1328,0.854,-70.801,23.193,99.849,-1.027,75.992
3822,0.0039,1.2158,0.2031,-4.822,-35.095,16.663,99.613,-1.121,75.619
3832,-0.0352,1.2017,0.1733,-6.958,6.958,5.554,99.366,-1.159,75.679
3842,-0.0732,1.0991,0.0259,-6.042,45.593,-6.531,99.190,-1.121,76.141
3852,-0.0513,0.9907,-0.1797,-10.986,69.336,-17.395,99.080,-1.022,76.849
3862,-0.0166,0.9688,-0.3472,-15.137,68.054,-23.376,99.020,-0.879,77.558
3872,0.0098,0.9072,-0.4360,-7.874,42.297,-19.897,99.102,-0.747,78.008
3882,0.0327,0.8354,-0.4292,1.587,4.639,-9.705,99.300,-0.670,78.069
3892,0.0649,0.8457,-0.3560,4.150,-32.104,0.305,99.481,-0.654,77.750
3902,0.0601,0.9678,-0.2378,0.732,-63.599,8.301,99.536,-0.659,77.113
3912,0.0381,1.0845,-0.0898,-3.418,-74.585,16.052,99.465,-0.709,76.349
3922,0.0640,1.1523,0.0518,-8.057,-57.983,19.348,99.272,-0.829,75.745
3932,0.0669,1.1968,0.1787,-12.329,-28.625,12.634,98.976,-0.928,75.443
3942,0.0415,1.1567,0.2305,-10.620,2.808,3.052,98.668,-0.972,75.465
3952,-0.0010,1.0386,0.1455,-2.014,32.593,-4.333,98.476,-0.972,75.795
3962,-0.0303,0.8926,-0.0293,5.188,55.847,-10.681,98.454,-0.917,76.360
3972,-0.0322,0.8042,-0.2349,7.812,63.477,-14.221,98.597,-0.840,77.014
3982,-0.0107,0.8032,-0.3691,7.874,52.795,-10.071,98.828,-0.802,77.547
3992,0.0459,0.8960,-0.4185,8.179,30.090,-0.610,99.069,-0.862,77.849
4002,0.0889,0.9971,-0.4248,11.292,2.808,5.981,99.316,-0.961,77.866
4012,0.0845,1.1060,-0.3735,16.602,-25.269,6.409,99.580,-1.016,77.607
4022,0.0225,1.1504,-0.3052,19.836,-47.913,5.859,99.838,-0.994,77.124
4032,-0.0181,1.1465,-0.1914,14.771,-51.270,6.592,99.992,-0.956,76.608
4042,-0.0176,1.1064,-0.0693,-0.977,-33.508,3.723,99.921,-0.912,76.273
4052,-0.0156,1.0337,-0.0049,-18.616,-7.568,-2.014,99.641,-0.862,76.201
4062,0.0005,1.0327,0.0249,-34.546,20.020,-7.385,99.185,-0.818,76.410
4072,0.0347,1.0405,-0.0117,-42.114,43.091,-12.695,98.679,-0.769,76.855
4082,0.0557,1.0195,-0.1094,-36.011,52.246,-15.503,98.289,-0.720,77.393
4092,0.0459,0.9517,-0.2314,-16.785,45.593,-14.648,98.168,-0.665,77.866
4102,0.0156,0.8726,-0.3184,3.540,27.466,-12.268,98.322,-0.582,78.157
4112,-0.0083,0.8198,-0.3511,11.108,3.662,-8.850,98.580,-0.489,78.206
4123,0.0093,0.8071,-0.3188,4.028,-20.447,-3.906,98.751,-0.423,78.008
4132,0.0210,0.8843,-0.2144,-8.362,-42.480,2.991,98.718,-0.401,77.585
4142,0.0127,1.0024,-0.0674,-15.808,-52.368,10.864,98.520,-0.428,77.053
4152,0.0601,1.1279,0.0957,-12.695,-41.382,15.503,98.262,-0.544,76.619
4162,0.1265,1.1978,0.1963,-1.160,-15.808,13.000,98.075,-0.703,76.443
4172,0.1206,1.1431,0.1719,15.686,12.390,5.066,98.064,-0.824,76.558
4182,-0.0454,0.7715,-0.1460,15.198,55.725,-11.841,98.234,-0.747,77.130
4192,-0.0767,0.7632,-0.2856,-1.831,57.007,-14.160,98.328,-0.626,77.712
4202,-0.0620,0.8452,-0.3882,-11.780,40.344,-9.216,98.372,-0.549,78.124
4212,-0.0239,0.8936,-0.4595,-5.920,11.536,-1.160,98.498,-0.533,78.239
4222,0.0571,1.0264,-0.4390,3.845,-22.217,3.662,98.685,-0.560,78.014
4232,0.0859,1.1519,-0.3623,13.184,-60.608,6.165,98.910,-0.566,77.404
4242,0.0684,1.1919,-0.2080,15.991,-86.914,11.475,99.086,-0.571,76.531
4252,0.0776,1.2031,0.0117,5.920,-83.313,15.625,99.058,-0.626,75.685
4262,0.0869,1.2715,0.2246,-8.301,-54.688,10.071,98.789,-0.670,75.125
4272,0.0474,1.1953,0.3057,-14.282,-13.123,-0.244,98.421,-0.665,74.998
4282,-0.0513,1.0020,0.2119,-12.756,31.738,-10.254,98.086,-0.577,75.328
4292,-0.1030,0.8657,0.0156,-13.245,72.144,-18.250,97.855,-0.423,76.064
4302,-0.0801,0.8301,-0.2007,-18.494,91.125,-17.944,97.723,-0.313,76.992
4312,-0.0474,0.8501,-0.3691,-16.602,81.421,-10.986,97.712,-0.280,77.816
4322,-0.0020,0.8535,-0.4648,-5.676,51.208,-3.052,97.861,-0.313,78.327
4332,0.0444,0.9180,-0.4639,5.005,13.184,2.258,98.102,-0.374,78.453
4342,0.0903,0.9932,-0.3965,10.742,-24.231,4.883,98.344,-0.434,78.206
4352,0.0713,1.0405,-0.3042,16.785,-61.707,6.836,98.597,-0.445,77.585
4362,0.0273,1.0918,-0.1582,21.057,-84.351,11.536,98.806,-0.445,76.734
4372,0.0317,1.1182,0.0117,14.465,-81.238,16.724,98.860,-0.494,75.905
4382,0.0410,1.1533,0.2134,2.380,-56.763,14.648,98.696,-0.566,75.322
4392,0.0210,1.1489,0.3125,-2.991,-18.250,5.981,98.432,-0.604,75.135
4402,-0.0205,1.0625,0.2261,2.380,23.743,-1.282,98.245,-0.610,75.372
4412,-0.0059,0.9941,0.0156,9.644,64.941,-6.836,98.245,-0.626,76.025
4422,0.0186,0.9521,-0.2261,10.742,85.876,-10.376,98.394,-0.648,76.888
4432,0.0186,0.9160,-0.4102,6.470,79.163,-9.766,98.608,-0.670,77.684
4442,0.0303,0.8877,-0.5093,-1.465,53.833,-6.714,98.795,-0.698,78.228
4452,0.0298,0.9058,-0.5347,-10.864,17.212,-5.310,98.904,-0.681,78.404
4462,0.0532,0.9219,-0.4663,-21.179,-20.081,-4.761,98.877,-0.626,78.217
4472,0.0571,0.9829,-0.3052,-28.564,-58.350,-3.845,98.685,-0.522,77.646
4482,0.0425,1.0825,-0.0757,-28.137,-83.679,2.808,98.366,-0.445,76.811
4492,0.0562,1.1626,0.1719,-20.630,-84.534,11.536,97.998,-0.456,75.959
4502,0.0879,1.1792,0.3442,-6.226,-62.073,13.916,97.701,-0.544,75.328
4512,0.0840,1.1548,0.3706,10.254,-21.912,6.470,97.548,-0.615,75.103
4522,0.0605,1.0942,0.2407,23.560,24.963,-5.432,97.581,-0.615,75.355
4532,0.0244,0.9312,0.0024,23.437,67.871,-14.343,97.729,-0.571,76.047
4542,-0.0088,0.8315,-0.2373,5.798,90.088,-20.203,97.861,-0.483,76.965
4553,-0.0239,0.8511,-0.4102,-16.724,85.999,-20.325,97.866,-0.379,77.844
4563,-0.0015,0.8857,-0.5137,-25.879,61.707,-15.320,97.828,-0.308,78.481
4573,0.0420,0.8936,-0.5283,-18.372,22.766,-11.841,97.872,-0.247,78.723
4583,0.0806,0.9448,-0.4385,-8.606,-21.240,-11.108,97.954,-0.148,78.525
4593,0.0527,0.9756,-0.2998,1.953,-63.843,-8.972,98.069,0.000,77.904
4602,-0.0205,0.9751,-0.1089,10.620,-88.623,-0.610,98.157,0.132,77.031
4612,-0.0244,1.0234,0.0649,11.169,-82.947,8.362,98.146,0.181,76.196
4623,0.0020,1.1313,0.2139,9.521,-57.312,10.986,98.053,0.148,75.613
4632,0.0396,1.1919,0.2476,15.747,-17.395,6.958,98.009,0.088,75.432
4643,0.0396,1.1641,0.1377,28.809,25.146,0.549,98.146,0.027,75.679
4652,0.0420,1.0552,-0.0688,32.654,59.448,-6.104,98.427,-0.016,76.278
4663,-0.0044,0.8643,-0.2900,22.278,70.313,-12.817,98.745,0.005,76.992
4672,-0.0591,0.7969,-0.4092,-1.465,60.120,-13.550,98.915,0.088,77.607
4683,-0.0698,0.8081,-0.4629,-23.682,41.992,-6.409,98.893,0.126,78.030
4693,-0.0303,0.8906,-0.4526,-28.320,18.066,0.244,98.795,0.110,78.206
4703,0.0283,1.0010,-0.4004,-19.958,-13.306,2.686,98.723,0.088,78.074
4713,0.0537,1.1040,-0.3169,-5.859,-47.058,3.601,98.740,0.099,77.602
4723,0.0215,1.1367,-0.1860,6.409,-69.824,5.920,98.806,0.132,76.904
4733,0.0112,1.1450,-0.0063,4.883,-72.388,9.705,98.767,0.143,76.174
4743,0.0049,1.1777,0.1934,-6.470,-52.673,9.216,98.520,0.126,75.635
4752,0.0000,1.1426,0.3042,-11.719,-15.991,1.648,98.174,0.132,75.476
4763,-0.0278,1.1040,0.2603,-8.118,23.071,-6.653,97.877,0.176,75.718
4773,-0.0273,1.0361,0.0728,-1.404,56.641,-11.230,97.745,0.225,76.289
4783,-0.0005,0.9980,-0.1504,1.221,72.021,-13.184,97.767,0.258,77.025
4793,-0.0127,0.9541,-0.3516,-0.061,63.965,-14.160,97.899,0.313,77.673
4803,-0.0269,0.8989,-0.4604,-3.845,41.321,-14.038,98.053,0.406,78.107
4813,-0.0166,0.8604,-0.4951,-13.000,12.146,-13.489,98.146,0.527,78.245
4823,0.0015,0.8813,-0.4204,-29.114,-18.799,-11.841,98.026,0.665,78.074
4833,0.0020,0.9746,-0.2446,-41.016,-48.218,-7.751,97.679,0.797,77.607
4843,-0.0288,1.0503,-0.0205,-38.696,-60.120,-1.587,97.218,0.901,77.014
4853,-0.0088,1.1064,0.1797,-25.879,-46.204,2.502,96.790,0.928,76.553
4863,0.0195,1.1709,0.3530,-8.728,-18.311,2.686,96.465,0.906,76.366
4873,0.0200,1.1338,0.3579,9.705,17.029,0.854,96.328,0.862,76.536
4883,0.0088,1.0107,0.1953,25.024,54.443,-1.465,96.411,0.802,77.080
4893,-0.0132,0.8999,-0.0488,29.846,81.848,-4.517,96.685,0.758,77.899
4903,-0.0200,0.8350,-0.2852,25.024,89.417,-6.836,97.064,0.725,78.794
4913,-0.0186,0.7827,-0.4502,12.329,78.369,-5.249,97.427,0.687,79.579
4923,0.0239,0.8149,-0.5264,-3.357,58.594,-1.404,97.652,0.604,80.162
4933,0.0757,0.8872,-0.5063,-14.099,30.518,-1.282,97.734,0.527,80.464
4943,0.0923,0.9824,-0.4077,-17.761,-5.493,-2.930,97.707,0.511,80.414
4953,0.0713,1.0278,-0.2642,-19.348,-40.161,-1.282,97.581,0.533,80.019
4963,0.0034,1.0562,-0.0811,-14.282,-65.430,1.831,97.399,0.593,79.365
4973,-0.0210,1.0791,0.0996,-8.484,-75.073,6.470,97.185,0.632,78.613
4983,-0.0322,1.0996,0.2549,-2.014,-73.181,11.414,96.954,0.615,77.871
4993,-0.0449,1.0815,0.3232,1.831,-50.232,13.062,96.729,0.566,77.360
5003,-0.0352,1.0049,0.2109,5.798,-9.277,8.728,96.597,0.505,77.256
5013,-0.0254,0.9741,0.0522,8.179,27.893,4.028,96.586,0.445,77.531
5023,0.0190,0.9849,-0.1157,10.254,51.819,0.610,96.691,0.363,78.041
5033,0.0488,0.9800,-0.2954,5.310,55.847,-4.333,96.850,0.313,78.602
5043,0.0503,0.9810,-0.3999,-8.362,42.786,-10.498,96.921,0.335,79.041
5053,0.0342,1.0093,-0.4106,-23.437,21.240,-13.306,96.844,0.417,79.266
5062,0.0000,1.0020,-0.3350,-31.433,-4.395,-12.695,96.647,0.544,79.239
5073,-0.0571,0.9404,-0.2046,-31.128,-29.480,-10.071,96.394,0.703,78.959
5083,-0.1133,0.9092,-0.0278,-26.794,-48.279,-4.639,96.075,0.868,78.481
5093,-0.1235,0.9629,0.1372,-17.029,-53.650,5.249,95.757,0.934,77.943
5103,-0.0776,1.0566,0.2388,-1.709,-38.208,16.602,95.548,0.840,77.547
5113,0.0420,1.2163,0.2466,15.869,-8.362,21.240,95.537,0.610,77.443
5123,0.1309,1.3403,0.1235,34.119,23.499,17.944,95.768,0.352,77.657
5133,0.1548,1.3013,-0.0586,39.795,50.049,7.690,96.130,0.154,78.151
5143,0.0967,1.1411,-0.2187,23.193,61.646,-8.240,96.411,0.121,78.772
5153,-0.0391,0.8921,-0.3496,-12.024,56.580,-23.132,96.443,0.308,79.360
5163,-0.1685,0.7485,-0.3970,-49.133,39.612,-29.236,96.174,0.659,79.788
5173,-0.1963,0.7827,-0.3467,-66.284,15.930,-24.475,95.696,1.005,79.969
5183,-0.1543,0.8267,-0.2690,-49.805,-12.939,-11.536,95.323,1.225,79.854
5193,-0.0889,0.9360,-0.1768,-11.353,-43.457,2.502,95.257,1.280,79.420
5203,-0.0298,1.0503,-0.0752,33.691,-64.697,16.235,95.565,1.181,78.761
5213,0.0420,1.1216,0.0366,60.486,-66.833,27.649,96.075,0.939,78.069
5223,0.1377,1.2153,0.1470,58.777,-48.462,29.114,96.520,0.632,77.552
5233,0.1797,1.2720,0.2070,39.551,-17.151,18.677,96.751,0.379,77.360
5243,0.1519,1.2036,0.1694,16.174,19.165,2.808,96.762,0.258,77.547
5253,0.0488,1.0112,0.0605,-8.728,52.246,-14.282,96.575,0.308,78.085
5263,-0.0586,0.8042,-0.0952,-36.621,71.106,-28.503,96.218,0.544,78.827
5273,-0.1187,0.7603,-0.2480,-54.138,67.139,-32.104,95.812,0.868,79.525
5283,-0.1094,0.7681,-0.3403,-47.913,42.786,-23.437,95.521,1.121,79.975
5293,-0.0425,0.8076,-0.3774,-19.653,10.071,-9.949,95.526,1.225,80.085
5303,0.0488,0.9155,-0.3638,12.634,-22.949,0.244,95.806,1.203,79.860
5313,0.0928,1.0513,-0.2949,38.147,-56.702,8.911,96.273,1.110,79.283
5323,0.0586,1.0718,-0.1592,44.800,-77.881,18.860,96.724,0.967,78.486
5333,0.0566,1.0942,0.0083,26.917,-71.228,21.912,96.905,0.797,77.756
5343,0.0317,1.1270,0.1616,2.197,-44.250,14.160,96.768,0.687,77.300
5353,-0.0171,1.0815,0.2266,-16.357,-8.118,4.822,96.422,0.648,77.212
5363,-0.0840,0.9985,0.1709,-25.513,31.189,-3.174,96.010,0.687,77.525
5373,-0.1006,0.9619,0.0205,-29.358,63.904,-8.789,95.652,0.758,78.173
5383,-0.0859,0.9502,-0.1694,-23.621,73.547,-8.789,95.477,0.818,78.909
5393,-0.0386,0.9448,-0.3472,-1.709,57.739,-3.967,95.614,0.818,79.492
5403,0.0122,0.9336,-0.4424,22.400,28.137,2.747,96.037,0.747,79.766
5413,0.0781,0.9507,-0.4600,34.058,-2.747,7.568,96.570,0.626,79.733
5423,0.1270,0.9902,-0.3940,30.396,-33.936,9.338,97.020,0.500,79.387
5433,0.0962,1.0479,-0.2466,19.897,-66.040,9.888,97.273,0.423,78.717
5443,0.0391,1.0991,-0.0396,3.601,-78.430,12.207,97.251,0.379,77.926
5453,0.0254,1.1416,0.1587,-10.742,-63.599,10.925,96.987,0.335,77.278
5463,0.0015,1.1763,0.3042,-13.184,-33.447,4.883,96.641,0.324,76.943
5473,-0.0054,1.1704,0.3623,-6.409,2.258,-0.427,96.339,0.324,76.965
5483,-0.0215,1.0845,0.2236,8.667,37.048,-4.639,96.246,0.335,77.338
5493,-0.0181,0.9907,-0.0093,18.372,63.965,-8.179,96.378,0.357,77.981
5503,-0.0283,0.9160,-0.2402,19.104,71.228,-10.620,96.652,0.396,78.701
5513,-0.0410,0.8315,-0.4189,13.489,58.105,-9.521,96.993,0.445,79.288
5523,-0.0405,0.7798,-0.5039,1.892,32.776,-6.042,97.273,0.483,79.623
5533,-0.0190,0.8398,-0.4736,-11.475,2.563,-2.502,97.377,0.511,79.651
5543,0.0347,0.9580,-0.3726,-19.165,-28.259,1.038,97.328,0.511,79.371
5553,0.0347,1.0698,-0.2080,-12.878,-59.143,4.883,97.229,0.516,78.777
5563,0.0210,1.1514,-0.0146,3.906,-76.111,10.681,97.196,0.489,78.008
5573,0.0381,1.1631,0.1265,18.799,-71.045,14.587,97.240,0.412,77.283
5583,0.0474,1.1699,0.2593,20.569,-50.537,11.780,97.245,0.335,76.767
5593,0.0200,1.1558,0.3101,14.771,-17.273,3.479,97.169,0.308,76.591
5603,-0.0161,1.0513,0.2168,9.216,20.630,-4.822,97.070,0.335,76.805
5613,-0.0391,0.9648,0.0327,4.211,54.382,-12.573,97.026,0.412,77.360
5624,-0.0278,0.8989,-0.1748,-6.836,71.472,-17.395,97.004,0.511,78.091
5633,0.0024,0.9004,-0.3188,-17.212,64.636,-17.090,96.965,0.593,78.750
5643,0.0244,0.8657,-0.4126,-18.555,40.833,-12.512,96.971,0.648,79.173
5653,0.0249,0.8252,-0.4150,-13.611,10.986,-8.118,97.031,0.692,79.294
5663,0.0264,0.8760,-0.3159,-10.986,-18.250,-5.310,97.048,0.742,79.118
5673,0.0312,0.9307,-0.1875,-5.310,-45.715,-0.854,97.037,0.780,78.662
5683,-0.0044,0.9473,-0.0415,10.559,-67.322,7.751,97.086,0.780,77.986
5693,-0.0166,0.9717,0.1011,17.822,-69.153,16.113,97.125,0.709,77.278
5703,-0.0112,1.0874,0.2021,13.611,-51.880,18.005,97.075,0.593,76.745
5713,0.0210,1.1475,0.2041,8.911,-21.057,13.794,96.987,0.467,76.520
5723,0.0356,1.0991,0.0801,12.756,12.390,6.775,97.004,0.363,76.630
5733,0.0288,1.0581,-0.0718,10.071,41.199,0.610,97.075,0.286,77.042
5743,0.0239,0.9761,-0.2368,-3.174,56.030,-4.700,97.114,0.247,77.602
5753,-0.0405,0.9414,-0.3296,-20.203,48.706,-6.897,97.037,0.275,78.096
5763,-0.0752,0.9849,-0.3257,-35.583,28.076,-3.723,96.795,0.319,78.376
5773,-0.0928,1.0522,-0.2266,-43.213,4.089,1.770,96.422,0.341,78.415
5783,-0.0723,1.1899,-0.1030,-42.603,-17.090,5.188,95.988,0.341,78.239
5793,-0.0405,1.2817,-0.0317,-29.785,-31.799,6.409,95.641,0.324,77.915
5803,-0.0312,1.2837,-0.0205,-6.775,-35.339,5.737,95.526,0.313,77.558
5813,0.0190,1.2251,-0.0137,9.766,-25.269,3.418,95.576,0.291,77.305
5823,0.0610,1.1406,-0.0098,13.550,-11.475,-0.610,95.658,0.275,77.190
5833,0.0830,1.0674,-0.0479,4.211,4.272,-4.211,95.669,0.264,77.239
5843,0.0562,0.9971,-0.1084,-7.141,18.372,-7.263,95.603,0.286,77.426
5853,0.0254,0.9443,-0.1313,-16.663,26.306,-10.742,95.460,0.346,77.701
5863,-0.0552,0.8647,-0.1729,-18.311,24.109,-13.306,95.339,0.489,77.953
5873,-0.0825,0.8257,-0.2017,-8.545,15.137,-12.329,95.339,0.648,78.113
5883,-0.0566,0.8413,-0.1782,6.714,2.869,-7.446,95.477,0.747,78.151
5893,-0.0142,0.8364,-0.1533,24.658,-9.644,-0.671,95.768,0.764,78.058
5903,0.0483,0.8721,-0.0967,32.959,-17.883,5.981,96.097,0.687,77.871
5913,0.0889,0.9395,-0.0146,25.513,-22.278,11.047,96.295,0.538,77.640
5923,0.0898,1.0396,0.0913,9.399,-19.165,12.268,96.273,0.385,77.432
5933,0.0640,1.0845,0.1138,-0.610,-4.700,9.827,96.141,0.258,77.377
5943,0.0259,1.0674,0.0625,0.610,14.893,4.211,96.053,0.181,77.520
5953,-0.0254,0.9336,-0.0483,-1.221,31.372,-2.380,96.010,0.187,77.833
5963,-0.0786,0.8340,-0.1606,-13.733,41.321,-7.202,95.927,0.264,78.256
5973,-0.0972,0.8066,-0.2725,-28.320,41.016,-7.385,95.773,0.357,78.668
5983,-0.0781,0.8550,-0.3608,-30.579,26.978,-6.042,95.647,0.434,78.942
5993,-0.0073,0.9932,-0.3662,-21.545,4.944,-1.892,95.576,0.450,78.992
6003,0.0933,1.1221,-0.2671,-11.719,-16.296,4.761,95.537,0.368,78.827
6013,0.1416,1.2539,-0.0859,-3.967,-35.034,7.202,95.482,0.264,78.470
6023,0.1177,1.2456,0.0947,4.456,-46.692,5.981,95.427,0.192,78.003
6033,0.0630,1.1387,0.2217,6.653,-41.931,4.272,95.323,0.154,77.580
6043,-0.0112,1.0532,0.2515,-0.854,-19.653,-0.427,95.131,0.181,77.382
6053,-0.0693,1.0078,0.1514,-8.606,10.559,-6.287,94.905,0.269,77.498
6063,-0.0850,0.9209,-0.0112,-11.108,40.100,-9.216,94.757,0.379,77.904
6073,-0.0732,0.8345,-0.1953,-12.817,56.946,-11.047,94.719,0.483,78.481
6083,-0.0488,0.8745,-0.3252,-15.991,53.162,-11.597,94.719,0.582,79.019
6094,-0.0059,0.9302,-0.3721,-11.230,28.931,-8.545,94.785,0.637,79.316
6103,0.0703,1.1084,-0.2729,0.977,-4.639,-2.625,94.883,0.626,79.272
6113,0.1240,1.1768,-0.1270,14.709,-36.621,3.113,95.037,0.560,78.904
6124,0.0400,1.1201,-0.0034,25.330,-60.364,5.005,95.235,0.538,78.300
6133,-0.0596,1.0649,0.1064,21.729,-58.899,2.930,95.334,0.588,77.706
6143,-0.0977,1.0444,0.1519,5.981,-33.691,-0.671,95.251,0.676,77.371
6153,-0.1016,1.0200,0.1118,-5.676,-2.136,-3.723,95.081,0.764,77.355
6163,-0.1011,0.9873,0.0210,-12.451,29.541,-3.723,94.900,0.824,77.651
6173,-0.0571,0.9961,-0.0898,-18.066,55.176,-3.967,94.730,0.840,78.206
6183,0.0073,1.0225,-0.1777,-20.142,62.378,-5.371,94.592,0.829,78.832
6193,0.0254,0.9785,-0.2603,-11.353,46.204,-6.409,94.587,0.835,79.299
6204,0.0107,0.9023,-0.2979,3.540,18.005,-6.409,94.763,0.868,79.481
6214,0.0015,0.8369,-0.2656,15.442,-9.888,-5.005,95.043,0.917,79.387
6223,0.0278,0.8584,-0.1567,14.404,-33.813,-0.244,95.235,0.923,79.052
6233,0.0259,0.9512,-0.0293,10.925,-55.359,6.165,95.301,0.884,78.492
6243,0.0234,1.0850,0.0884,10.376,-61.218,13.000,95.290,0.791,77.871
6253,0.0601,1.1865,0.1753,11.230,-45.044,14.343,95.262,0.654,77.410
6263,0.0771,1.2500,0.2002,14.099,-17.334,8.118,95.251,0.549,77.228
6273,0.0410,1.1621,0.1333,12.146,13.367,0.793,95.257,0.505,77.366
6283,-0.0581,0.9482,-0.0171,2.808,41.626,-7.507,95.246,0.571,77.783
6293,-0.0996,0.8276,-0.1812,-16.357,60.364,-15.137,95.164,0.725,78.398
6304,-0.0625,0.8794,-0.2871,-33.447,56.213,-15.930,94.966,0.862,78.975
6314,-0.0532,0.8916,-0.3906,-26.001,28.381,-10.925,94.900,0.972,79.266
6324,0.0112,0.9795,-0.3486,-7.874,-3.845,-3.479,94.971,0.994,79.228
6334,0.0767,1.0327,-0.2515,9.216,-32.410,3.601,95.142,0.934,78.904
6344,0.0669,1.0674,-0.1172,19.165,-57.739,8.911,95.334,0.851,78.322
6354,0.0073,1.0854,0.0278,17.761,-68.054,11.353,95.433,0.791,77.635
6364,-0.0122,1.0957,0.1431,5.615,-54.199,10.803,95.350,0.731,77.086
6374,-0.0098,1.0635,0.1914,-3.052,-25.757,6.226,95.164,0.692,76.822
6384,-0.0386,1.0127,0.1528,-7.751,6.470,2.197,94.949,0.681,76.882
6394,-0.0488,1.0190,0.0151,-11.780,38.330,-0.183,94.779,0.670,77.267
6404,-0.0112,1.0332,-0.1470,-13.306,58.472,-2.014,94.686,0.643,77.849
6414,0.0181,1.0293,-0.2690,-10.803,56.824,-2.869,94.686,0.604,78.420
6424,0.0010,0.9409,-0.3467,-2.625,37.659,-2.747,94.818,0.599,78.794
6434,0.0112,0.9146,-0.3325,4.272,12.390,-1.221,95.015,0.588,78.920
6444,0.0195,0.8730,-0.2661,8.301,-12.207,1.587,95.213,0.560,78.799
6454,0.0068,0.8403,-0.1426,12.085,-33.508,5.981,95.372,0.522,78.459
6464,-0.0024,0.9111,0.0049,14.709,-46.814,11.902,95.460,0.445,77.981
6474,0.0088,1.0684,0.1680,18.311,-47.119,19.104,95.493,0.291,77.492
6484,0.0498,1.2534,0.2578,29.419,-32.166,22.095,95.609,0.082,77.151
6494,0.0854,1.3486,0.2617,48.035,-8.423,17.639,95.922,-0.115,77.053
6504,0.0654,1.2446,0.1387,64.758,16.907,7.690,96.438,-0.236,77.212
6514,0.0059,1.0513,-0.0469,62.561,38.635,-3.296,97.015,-0.247,77.602
6524,-0.0703,0.8799,-0.2446,40.588,50.415,-11.780,97.504,-0.148,78.113
6534,-0.1260,0.7407,-0.4053,11.230,49.561,-15.259,97.822,0.016,78.624
6544,-0.1167,0.7163,-0.4985,-12.817,37.903,-12.939,97.965,0.170,79.019
6554,-0.0752,0.7563,-0.5073,-21.851,16.235,-5.066,98.009,0.242,79.184
6564,0.0132,0.9087,-0.3921,-18.372,-10.437,3.784,97.982,0.209,79.080
6574,0.1050,1.1221,-0.2026,-11.719,-36.682,11.047,97.888,0.099,78.701
6584,0.1177,1.2378,0.0049,-2.625,-56.763,14.771,97.778,-0.022,78.118
6594,0.0947,1.2090,0.1792,0.671,-54.504,13.000,97.625,-0.115,77.558
6604,0.0664,1.1323,0.2617,-6.104,-30.640,5.737,97.355,-0.165,77.250
6614,0.0024,1.0562,0.2451,-17.212,0.000,-2.747,96.982,-0.137,77.250
6624,-0.0352,0.9854,0.0947,-26.855,30.151,-8.362,96.592,-0.071,77.563
6634,-0.0654,0.8906,-0.1284,-29.358,51.025,-10.681,96.317,0.011,78.080
6644,-0.0625,0.8696,-0.2925,-26.611,54.871,-10.742,96.174,0.099,78.635
6654,-0.0503,0.8564,-0.4106,-13.306,38.391,-7.568,96.240,0.159,79.025
6664,-0.0049,0.9209,-0.4194,3.296,10.864,-1.526,96.454,0.165,79.135
6674,0.0654,1.0005,-0.3418,17.456,-17.395,4.333,96.751,0.104,78.959
6684,0.1123,1.0688,-0.1948,22.339,-42.725,8.179,97.004,0.016,78.525
6694,0.0962,1.1216,-0.0303,16.602,-58.289,9.216,97.114,-0.049,77.937
6704,0.0557,1.1499,0.1084,3.418,-55.969,8.362,97.026,-0.088,77.371
6714,0.0205,1.1616,0.1792,-9.949,-35.950,3.723,96.768,-0.093,77.009
6724,-0.0044,1.0977,0.1470,-14.282,-9.583,-2.441,96.482,-0.055,76.915
6734,-0.0396,1.0283,0.0576,-11.902,14.771,-6.958,96.268,0.016,77.069
6744,-0.0542,0.9326,-0.0811,-8.362,33.447,-9.033,96.174,0.099,77.415
6754,-0.0449,0.8770,-0.2153,-5.066,39.429,-9.705,96.202,0.181,77.816
6764,-0.0059,0.9033,-0.2861,-1.648,28.687,-7.446,96.295,0.225,78.107
6774,0.0347,0.9482,-0.2876,1.648,8.240,-2.808,96.422,0.225,78.195
6784,0.0562,0.9653,-0.2612,4.456,-11.353,0.244,96.553,0.198,78.080
6794,0.0430,0.9805,-0.1831,0.427,-23.987,1.404,96.597,0.187,77.838
6804,-0.0005,1.0049,-0.0747,-10.864,-30.029,1.648,96.465,0.203,77.542
6814,-0.0269,1.0215,0.0361,-18.799,-27.222,2.380,96.191,0.220,77.267
6824,-0.0249,1.0469,0.1362,-19.470,-16.113,3.540,95.861,0.214,77.102
6834,-0.0059,1.1040,0.1675,-10.925,-3.296,3.357,95.609,0.187,77.069
6844,0.0269,1.1060,0.0825,5.066,7.568,2.930,95.559,0.132,77.141
6854,0.0493,1.0474,-0.0552,16.052,15.381,0.732,95.691,0.082,77.294
6864,0.0376,0.9849,-0.1890,11.414,18.311,-3.662,95.856,0.077,77.476
6874,0.0146,0.9111,-0.2969,-6.287,16.113,-7.629,95.916,0.126,77.646
6884,-0.0371,0.8706,-0.3384,-25.757,7.996,-9.888,95.817,0.242,77.734
6894,-0.0527,0.9238,-0.2871,-36.743,-3.235,-9.583,95.565,0.368,77.712
6904,-0.0254,0.9995,-0.1670,-29.602,-16.968,-5.493,95.312,0.445,77.547
6914,0.0093,1.0967,-0.0088,-9.644,-30.090,1.221,95.164,0.450,77.250
6924,0.0439,1.1602,0.1118,13.611,-35.889,7.263,95.191,0.390,76.882
6934,0.0679,1.1978,0.1836,29.846,-28.564,10.132,95.345,0.275,76.591
6944,0.0786,1.2441,0.1592,31.372,-7.202,7.568,95.532,0.170,76.514
6954,0.0386,1.1411,0.0073,21.179,19.409,0.122,95.680,0.132,76.707
6964,-0.0986,0.8716,-0.2051,4.395,42.419,-9.583,95.801,0.242,77.135
6974,-0.1538,0.7212,-0.3696,-24.658,54.932,-16.968,95.773,0.461,77.701
6984,-0.1289,0.6987,-0.4619,-49.805,47.058,-16.235,95.559,0.659,78.184
6994,-0.0557,0.7627,-0.4409,-53.223,19.348,-8.362,95.279,0.753,78.387
7004,0.0503,0.9229,-0.2817,-33.142,-15.991,1.831,95.065,0.709,78.223
7014,0.1445,1.0859,-0.0620,3.357,-48.767,11.414,95.076,0.555,77.728
7024,0.1763,1.1865,0.1421,38.696,-69.275,19.592,95.334,0.335,77.020
7034,0.1445,1.2051,0.2769,59.814,-68.054,23.010,95.740,0.099,76.322
7044,0.1182,1.2192,0.3120,56.519,-45.105,18.799,96.097,-0.088,75.855
7054,0.0703,1.2173,0.2261,39.795,-9.827,7.324,96.323,-0.181,75.751
7064,-0.0151,1.0620,0.0493,22.339,25.879,-4.517,96.454,-0.154,76.014
7074,-0.1108,0.8535,-0.1235,-0.061,53.223,-13.062,96.471,-0.011,76.553
7084,-0.1245,0.8130,-0.2495,-29.541,64.148,-16.846,96.284,0.159,77.212
7094,-0.0854,0.8652,-0.3237,-46.265,54.077,-14.038,95.971,0.291,77.767
7104,-0.0278,0.8945,-0.3354,-38.574,28.015,-7.996,95.735,0.357,78.052
7114,-0.0049,0.8867,-0.2993,-15.381,-1.648,-2.258,95.713,0.379,78.036
7125,0.0269,0.9150,-0.2163,5.066,-25.513,2.014,95.834,0.363,77.783
7134,0.0356,0.9624,-0.1294,18.372,-44.556,7.935,96.031,0.302,77.333
7144,0.0396,1.0269,-0.0205,26.428,-55.847,14.832,96.240,0.192,76.761
7154,0.0645,1.0942,0.0908,25.757,-53.345,18.677,96.389,0.027,76.207
7164,0.0596,1.1797,0.1694,18.738,-37.781,15.808,96.427,-0.110,75.817
7174,0.0522,1.1948,0.1895,11.230,-13.123,7.874,96.383,-0.192,75.674
7184,0.0083,1.1465,0.1177,8.423,13.184,0.244,96.345,-0.214,75.806
7194,-0.0542,1.0283,-0.0337,5.005,36.926,-5.493,96.345,-0.165,76.179
7204,-0.0688,0.9224,-0.2002,-5.127,51.086,-9.888,96.356,-0.082,76.701
7214,-0.0396,0.9160,-0.3228,-15.320,46.936,-11.658,96.334,0.000,77.179
7224,-0.0093,0.9326,-0.3755,-19.775,25.391,-9.094,96.290,0.066,77.443
7234,0.0264,0.9556,-0.3599,-19.287,-1.038,-4.333,96.246,0.093,77.437
7244,0.0664,1.0278,-0.2412,-18.677,-22.827,-0.793,96.130,0.088,77.206
7254,0.0659,1.0645,-0.0591,-14.709,-41.077,1.770,95.955,0.082,76.800
7264,0.0200,1.0327,0.0952,-8.240,-49.683,5.066,95.757,0.071,76.300
7274,0.0195,1.0698,0.2466,-4.944,-40.588,7.874,95.521,0.022,75.888
7284,0.0488,1.1187,0.2734,-3.662,-18.616,7.446,95.290,-0.055,75.696
7294,0.0518,1.1577,0.1704,-2.563,6.470,3.906,95.131,-0.121,75.756
7304,0.0151,1.0864,-0.0308,0.977,30.090,-1.892,95.103,-0.137,76.058
7314,-0.0303,0.9360,-0.2559,0.671,45.776,-8.057,95.213,-0.077,76.520
7324,-0.0786,0.7925,-0.4360,-8.972,48.035,-11.719,95.356,0.038,77.009
7334,-0.0718,0.7803,-0.4814,-22.583,34.546,-9.705,95.400,0.148,77.360
7344,-0.0303,0.8154,-0.4097,-29.358,6.348,-2.625,95.323,0.181,77.426
7354,0.0557,0.9434,-0.2378,-20.935,-24.963,5.737,95.202,0.115,77.173
7364,0.1294,1.0771,-0.0229,-2.319,-50.293,13.489,95.136,-0.038,76.663
7374,0.1567,1.1724,0.1802,20.264,-63.354,19.226,95.197,-0.247,76.014
7384,0.1533,1.2065,0.2949,38.757,-60.364,21.057,95.394,-0.467,75.394
7394,0.1304,1.2085,0.3398,47.424,-42.542,20.447,95.658,-0.681,74.949
7404,0.0684,1.1514,0.2393,46.875,-12.512,13.611,95.949,-0.829,74.811
7414,-0.0400,0.9985,0.0430,39.795,19.348,1.343,96.257,-0.835,75.004
7424,-0.1172,0.8755,-0.1689,22.278,42.664,-8.423,96.515,-0.714,75.438
7434,-0.1079,0.8213,-0.3643,-7.446,49.255,-13.306,96.614,-0.560,75.943
7444,-0.0928,0.8789,-0.5083,-30.518,35.278,-17.029,96.542,-0.379,76.311
7454,-0.0615,0.9697,-0.5430,-35.339,9.460,-16.296,96.416,-0.192,76.421
7464,0.0107,1.0342,-0.4531,-20.386,-18.799,-11.108,96.389,-0.066,76.251
7474,0.0845,1.0566,-0.2754,2.747,-45.349,-4.517,96.498,-0.016,75.806
7484,0.1064,1.0518,-0.0620,15.869,-64.209,4.639,96.625,-0.044,75.157
7494,0.0757,1.0830,0.1567,13.733,-66.040,11.475,96.614,-0.121,74.493
7504,0.0439,1.1099,0.2812,2.502,-48.279,9.583,96.427,-0.181,73.998
7514,-0.0117,1.0449,0.2388,-5.371,-19.226,1.770,96.185,-0.170,73.806
7524,-0.0688,1.0474,0.1514,-14.404,12.878,-5.188,95.894,-0.093,73.943
7534,-0.0737,1.0273,-0.0137,-18.860,39.001,-9.644,95.658,0.000,74.339
7544,-0.0225,1.0278,-0.1567,-18.982,49.072,-10.498,95.499,0.066,74.839
7554,0.0278,1.0151,-0.2456,-11.841,38.025,-10.132,95.466,0.115,75.223
7564,0.0239,0.9375,-0.2788,0.183,12.451,-8.911,95.576,0.176,75.361
7574,0.0278,0.9180,-0.2212,0.854,-12.085,-6.958,95.663,0.236,75.245
7584,0.0269,0.9331,-0.1060,-3.784,-29.602,-3.357,95.636,0.280,74.954
7594,0.0054,0.9380,-0.0029,-6.470,-38.025,1.831,95.515,0.291,74.575
7604,-0.0205,0.9556,0.0806,-5.066,-35.095,6.958,95.356,0.269,74.218
7614,-0.0078,1.0210,0.1289,0.061,-20.508,8.911,95.235,0.198,74.004
7625,0.0229,1.0557,0.0933,7.385,-0.671,8.728,95.202,0.099,73.987
7634,0.0303,1.0557,0.0068,11.658,17.273,7.568,95.262,0.000,74.158
7644,0.0234,1.0044,-0.1035,8.789,30.334,3.784,95.356,-0.082,74.454
7654,0.0005,0.9316,-0.2095,1.709,33.386,-2.136,95.444,-0.088,74.789
7664,0.0029,0.9116,-0.2656,-5.859,24.841,-6.287,95.493,-0.049,75.042
7674,0.0171,0.9307,-0.2563,-10.376,6.592,-5.188,95.493,-0.016,75.114
7684,0.0303,0.9546,-0.2109,-9.827,-13.306,-1.526,95.466,-0.005,74.982
7694,0.0337,0.9927,-0.1372,-9.094,-27.954,1.892,95.400,-0.016,74.702
7704,0.0347,1.1035,-0.0229,-11.963,-33.569,4.395,95.235,-0.049,74.361
7714,0.0376,1.1533,0.0771,-12.451,-28.625,5.432,95.026,-0.093,74.070
7724,0.0454,1.1816,0.1636,-9.705,-13.672,3.967,94.801,-0.143,73.932
7734,0.0049,1.1460,0.1748,-5.249,5.737,-0.305,94.614,-0.143,73.993
7744,-0.0366,1.1006,0.0957,-2.625,23.499,-5.493,94.488,-0.088,74.229
7754,-0.0439,1.0083,-0.0557,-0.671,31.921,-10.010,94.471,0.005,74.553
7764,-0.0825,0.8955,-0.2266,-0.244,21.973,-14.343,94.565,0.181,74.784
7774,-0.0977,0.8525,-0.3608,-4.333,2.808,-14.771,94.702,0.385,74.822
7784,-0.0537,0.8789,-0.4180,-9.155,-18.982,-9.949,94.818,0.527,74.647
7794,0.0122,0.9746,-0.3574,-10.376,-41.321,-0.977,94.867,0.555,74.235
7804,0.0933,1.1128,-0.2310,-8.911,-57.617,8.911,94.839,0.467,73.652
7814,0.1108,1.2026,-0.0405,-5.310,-64.758,14.160,94.757,0.324,72.993
7824,0.0928,1.1587,0.1763,-4.333,-56.641,13.062,94.576,0.192,72.416
7834,0.0400,1.0479,0.3491,-12.390,-31.738,6.287,94.219,0.132,72.098
7844,-0.0190,0.9907,0.4028,-19.531,1.587,-0.793,93.763,0.148,72.114
7854,-0.0518,0.9575,0.2744,-15.747,34.119,-2.014,93.411,0.170,72.455
7864,-0.0244,0.9185,0.0479,-4.700,57.800,0.061,93.301,0.154,73.032
7874,-0.0020,0.8740,-0.1987,10.132,60.852,-1.282,93.499,0.132,73.641
7884,-0.0205,0.7817,-0.3965,22.095,42.419,-3.052,93.955,0.148,74.064
7894,-0.0352,0.7324,-0.4785,20.081,16.663,-0.610,94.444,0.159,74.235
7905,-0.0010,0.7793,-0.4556,9.888,-8.301,3.967,94.801,0.126,74.147
7914,0.0830,0.9468,-0.3110,1.282,-33.813,8.789,94.944,0.022,73.801
7924,0.1367,1.1177,-0.1182,2.625,-55.481,13.306,94.982,-0.126,73.240
7934,0.1265,1.2236,0.0713,9.949,-63.904,16.296,94.999,-0.291,72.587
7944,0.0815,1.2456,0.2109,13.184,-52.307,13.489,94.988,-0.412,72.054
7954,0.0435,1.2231,0.2671,11.169,-25.574,4.211,94.927,-0.450,71.796
7964,-0.0503,1.1040,0.2314,8.484,4.578,-4.761,94.839,-0.374,71.845
7974,-0.1025,1.0005,0.0933,4.089,34.912,-9.033,94.779,-0.253,72.202
7984,-0.1167,0.9507,-0.0742,-6.348,55.054,-7.202,94.708,-0.154,72.757
7994,-0.0771,0.9727,-0.2163,-13.550,56.335,-4.395,94.653,-0.110,73.323
8005,-0.0571,0.9600,-0.3242,-11.047,36.377,-3.540,94.680,-0.071,73.685
8015,-0.0415,0.9321,-0.3721,-6.287,8.545,-2.686,94.790,-0.027,73.773
8025,0.0347,1.0317,-0.3066,-7.629,-16.663,-1.709,94.834,-0.016,73.608
8034,0.0937,1.1436,-0.1733,-3.784,-42.053,0.244,94.834,-0.027,73.191
8044,0.0732,1.1450,0.0020,7.996,-61.340,3.235,94.861,-0.044,72.576
8054,0.0684,1.1123,0.1680,15.137,-57.922,4.028,94.878,-0.071,71.993
8064,0.0449,1.1138,0.2715,12.939,-37.842,1.038,94.823,-0.071,71.620
8074,0.0049,1.1250,0.2397,8.423,-9.521,-3.906,94.735,-0.027,71.526
8084,-0.0527,1.0654,0.0718,11.353,20.203,-8.240,94.763,0.060,71.735
8094,-0.0835,0.9956,-0.1226,12.512,43.945,-11.780,94.911,0.187,72.180
8105,-0.0562,0.9678,-0.2930,6.226,50.110,-13.489,95.092,0.308,72.691
8115,-0.0420,0.9248,-0.3921,-2.686,34.546,-12.817,95.246,0.423,73.048
8125,-0.0186,0.8682,-0.3877,-13.184,9.033,-8.972,95.306,0.511,73.147
8135,0.0400,0.8896,-0.2944,-25.574,-17.578,-4.272,95.180,0.538,72.977
8144,0.0654,0.9458,-0.1689,-24.475,-44.556,-1.282,94.982,0.549,72.532
8154,0.0806,0.9507,-0.0210,-3.540,-63.477,1.587,94.905,0.533,71.900
8164,0.1245,0.9351,0.1406,19.409,-67.261,5.798,94.955,0.456,71.224
8175,0.1523,0.9580,0.2935,31.738,-58.838,10.132,95.048,0.313,70.631
8185,0.1411,0.9941,0.3486,36.011,-36.438,12.085,95.158,0.148,70.258
8195,0.0742,1.0200,0.2207,39.001,-4.272,10.315,95.367,0.005,70.203
8204,-0.0078,1.0112,-0.0142,41.748,30.518,5.188,95.735,-0.066,70.505
8215,-0.0337,0.9766,-0.2554,37.292,54.932,-2.258,96.196,-0.077,71.049
8225,-0.0210,0.9526,-0.4409,18.860,54.565,-7.385,96.570,-0.049,71.603
8235,-0.0020,0.9409,-0.5093,-8.606,34.058,-8.484,96.702,-0.005,71.949
8244,-0.0015,0.9678,-0.4565,-32.288,5.798,-7.080,96.564,0.055,72.015
8255,0.0269,1.0352,-0.2896,-44.800,-19.897,-5.798,96.213,0.121,71.823
8265,0.0303,1.1064,-0.0854,-43.274,-40.710,-4.944,95.768,0.198,71.428
8275,-0.0073,1.0972,0.0542,-28.198,-49.805,-3.723,95.400,0.286,70.933
8285,-0.0586,1.0327,0.1064,-5.859,-46.265,-0.610,95.224,0.363,70.472
8295,-0.0684,1.0215,0.1099,9.827,-35.095,2.930,95.208,0.401,70.120
8305,-0.0142,1.0347,0.0767,11.841,-19.104,3.906,95.229,0.379,69.928
8315,0.0186,1.0259,-0.0078,6.287,-3.235,2.869,95.240,0.341,69.895
8325,0.0176,1.0107,-0.0679,-6.226,12.390,0.732,95.169,0.308,70.016
8335,0.0259,1.0205,-0.1094,-19.714,20.630,-3.845,94.982,0.313,70.225
8345,0.0210,1.0322,-0.1382,-26.367,13.733,-9.644,94.752,0.379,70.367
8355,-0.0010,1.0068,-0.1255,-21.851,-3.296,-12.390,94.554,0.500,70.345
8365,-0.0278,1.0132,-0.0615,-12.451,-17.456,-10.803,94.422,0.632,70.181
8375,-0.0425,1.0186,-0.0059,1.892,-26.245,-8.423,94.395,0.753,69.928
8385,-0.0352,0.9741,0.0430,14.587,-31.006,-5.066,94.466,0.840,69.620
8395,-0.0059,0.9512,0.1011,15.137,-29.419,-0.122,94.510,0.862,69.329
8405,0.0239,1.0088,0.1304,6.226,-18.921,2.747,94.449,0.824,69.137
8415,0.0391,1.0420,0.0605,1.892,-1.892,1.831,94.389,0.780,69.115
8425,0.0083,1.0117,-0.0713,5.676,12.817,-0.183,94.444,0.758,69.247
8435,-0.0010,0.9907,-0.1904,7.629,20.813,-2.625,94.587,0.764,69.456
8445,-0.0132,0.9473,-0.3125,7.446,16.724,-5.188,94.796,0.802,69.626
8455,-0.0312,0.8896,-0.3882,5.188,3.052,-4.883,95.037,0.857,69.659
8465,-0.0483,0.8960,-0.4087,0.854,-14.160,-1.892,95.240,0.906,69.521
8475,-0.0396,0.9473,-0.3848,-2.625,-32.349,2.197,95.378,0.928,69.197
8485,-0.0073,1.0020,-0.2988,1.709,-49.866,6.653,95.499,0.901,68.692
8495,0.0342,1.0859,-0.1152,7.324,-62.744,11.292,95.565,0.824,68.060
8505,0.0767,1.1753,0.1206,7.690,-62.744,14.526,95.521,0.698,67.418
8515,0.1113,1.2290,0.3447,9.277,-47.791,13.184,95.394,0.555,66.929
8525,0.1089,1.2373,0.4414,17.578,-21.423,6.287,95.312,0.461,66.709
8535,0.0327,1.1743,0.3340,32.593,11.414,-2.991,95.427,0.456,66.830
8545,-0.0522,1.0459,0.0972,45.471,42.725,-11.414,95.773,0.555,67.264
8555,-0.1089,0.8906,-0.1670,44.556,62.744,-16.602,96.268,0.720,67.906
8565,-0.1348,0.8125,-0.3843,28.809,63.660,-16.113,96.751,0.884,68.555
8575,-0.0937,0.7832,-0.5005,7.568,47.363,-11.780,97.092,0.994,69.038
8585,-0.0420,0.7700,-0.5112,-12.878,19.714,-6.165,97.234,1.049,69.241
8595,0.0151,0.7969,-0.4062,-31.921,-8.118,-0.549,97.114,1.044,69.164
8605,0.0601,0.9150,-0.2090,-44.861,-31.677,4.211,96.718,0.994,68.846
8615,0.0547,0.9976,-0.0054,-40.039,-48.706,9.155,96.251,0.917,68.351
8625,0.0342,1.0337,0.1680,-20.447,-53.894,13.733,95.883,0.813,67.797
8635,0.0435,1.0767,0.2603,3.967,-46.265,15.198,95.724,0.681,67.324
8645,0.0508,1.1025,0.2729,25.818,-27.893,14.893,95.779,0.527,67.028
8655,0.0386,1.0884,0.1694,37.842,-1.099,13.062,96.010,0.374,67.006
8665,0.0176,1.0674,-0.0098,41.687,26.855,8.545,96.367,0.253,67.264
8675,0.0142,1.0176,-0.2158,37.903,46.875,3.357,96.801,0.154,67.725
8685,-0.0200,0.9492,-0.3594,25.635,50.537,0.671,97.196,0.099,68.225
8695,-0.0522,0.9102,-0.4175,4.333,42.419,1.953,97.410,0.055,68.648
8705,-0.0415,0.9209,-0.4189,-17.395,28.198,5.920,97.410,-0.011,68.917
8715,-0.0059,1.0210,-0.3154,-32.471,8.911,9.216,97.185,-0.110,68.994
8725,0.0322,1.1299,-0.1758,-33.264,-12.512,10.254,96.872,-0.209,68.857
8735,0.0430,1.1929,-0.0410,-23.254,-28.442,10.193,96.597,-0.291,68.560
8745,0.0229,1.2222,0.1006,-4.822,-37.415,7.446,96.438,-0.330,68.181
8755,-0.0020,1.1494,0.1909,18.127,-35.950,4.456,96.460,-0.330,67.819
8765,-0.0132,1.0552,0.2437,29.053,-23.499,3.052,96.553,-0.324,67.582
8775,-0.0181,0.9922,0.2119,27.588,-3.601,1.465,96.641,-0.319,67.544
8785,-0.0244,0.9878,0.0679,24.292,20.325,-1.526,96.773,-0.313,67.747
8795,-0.0254,0.9565,-0.1460,25.024,41.748,-3.235,97.042,-0.313,68.170
8805,-0.0044,0.9082,-0.3193,19.897,54.016,-2.808,97.355,-0.341,68.708
8815,0.0298,0.8828,-0.4033,2.991,51.025,-2.808,97.553,-0.396,69.219
8825,0.0664,0.8706,-0.4053,-19.104,32.043,-2.991,97.537,-0.445,69.538
8835,0.0713,0.9395,-0.3208,-38.147,4.333,-1.709,97.273,-0.467,69.582
8845,0.0610,1.0293,-0.1885,-41.260,-21.912,0.183,96.899,-0.472,69.368
8855,0.0107,1.0454,-0.0664,-25.574,-43.457,2.197,96.614,-0.439,68.934
8865,-0.0024,0.9976,0.1406,11.780,-36.560,6.836,96.586,-0.461,68.560
8875,0.0474,1.0474,0.2012,15.076,-15.442,7.263,96.564,-0.538,68.401
8885,0.0762,1.0811,0.1704,13.672,9.460,5.005,96.542,-0.632,68.489
8895,0.0820,1.0742,0.0449,13.550,35.339,0.977,96.586,-0.720,68.835
8905,0.0894,1.0688,-0.0830,10.925,54.993,-4.639,96.663,-0.775,69.390
8915,0.0581,1.0083,-0.1929,5.920,57.922,-10.498,96.757,-0.764,69.977
8925,-0.0107,0.9102,-0.2783,-2.197,45.349,-14.526,96.833,-0.659,70.444
8935,-0.0698,0.8569,-0.3228,-14.343,26.978,-14.343,96.823,-0.500,70.730
8945,-0.0767,0.8906,-0.3169,-23.743,8.179,-10.071,96.718,-0.357,70.823
8955,-0.0527,0.9614,-0.2793,-22.522,-11.658,-3.296,96.586,-0.280,70.708
8965,-0.0327,1.0088,-0.2075,-10.132,-31.067,3.906,96.542,-0.258,70.395
8975,-0.0049,1.0439,-0.0991,4.272,-42.175,8.911,96.575,-0.297,69.966
8985,0.0234,1.0591,0.0234,15.869,-41.626,11.780,96.652,-0.374,69.543
8995,0.0562,1.0933,0.1367,17.944,-27.771,12.817,96.696,-0.494,69.252
9005,0.0693,1.1318,0.1592,16.174,-4.333,10.132,96.707,-0.615,69.197
9015,0.0435,1.1509,0.0635,17.334,23.560,4.028,96.779,-0.698,69.423
9025,0.0288,1.0830,-0.1230,21.667,48.645,-3.174,96.987,-0.736,69.911
9035,0.0176,0.9951,-0.2939,18.555,59.814,-9.949,97.256,-0.709,70.516
9045,0.0356,0.9517,-0.3960,4.456,52.734,-14.282,97.449,-0.648,71.060
9055,0.0107,0.9395,-0.3970,-13.000,28.320,-13.428,97.471,-0.555,71.356
9065,0.0093,0.9468,-0.3198,-23.865,-1.099,-8.301,97.344,-0.472,71.356
9075,0.0142,0.9829,-0.2056,-24.963,-27.893,-3.296,97.147,-0.406,71.087
9085,-0.0137,1.0811,-0.0488,-17.212,-47.363,-0.183,96.932,-0.335,70.615
9095,-0.0278,1.1177,0.0464,-1.465,-51.758,1.953,96.828,-0.275,70.098
9105,-0.0205,1.0938,0.0771,13.123,-42.786,4.211,96.850,-0.253,69.670
9115,-0.0098,1.0972,0.1255,17.090,-23.071,3.967,96.888,-0.258,69.434
9126,0.0317,1.0962,0.0850,12.939,4.089,-0.366,96.899,-0.269,69.478
9135,0.0391,1.0654,-0.0347,9.155,29.968,-5.615,96.943,-0.269,69.780
9145,0.0474,1.0215,-0.1641,2.991,49.377,-9.949,96.987,-0.253,70.285
9155,0.0249,0.9526,-0.2827,-5.493,54.138,-13.489,97.026,-0.198,70.834
9165,-0.0107,0.8857,-0.3643,-16.541,44.128,-14.282,97.015,-0.104,71.290
9175,-0.0229,0.8672,-0.3755,-25.635,24.170,-11.658,96.927,-0.005,71.548
9185,-0.0083,0.9019,-0.3203,-28.259,0.244,-6.653,96.773,0.060,71.554
9195,0.0156,0.9316,-0.2432,-23.560,-23.010,-1.282,96.619,0.093,71.329
9205,0.0195,0.9902,-0.1279,-13.428,-42.297,2.625,96.493,0.099,70.906
9215,0.0317,1.0308,0.0195,-2.319,-50.293,5.493,96.394,0.082,70.400
9225,0.0503,1.0342,0.1606,6.653,-46.631,8.179,96.306,0.027,69.928
9235,0.0732,1.0356,0.2627,10.193,-29.236,7.996,96.202,-0.055,69.626
9245,0.0723,1.0503,0.2583,13.916,-1.831,3.235,96.136,-0.121,69.604
9255,0.0400,1.0195,0.1270,22.522,28.870,-2.808,96.229,-0.143,69.895
9265,0.0293,0.9458,-0.0635,28.748,56.274,-6.592,96.487,-0.159,70.461
9275,0.0210,0.8735,-0.2334,22.034,68.848,-8.240,96.790,-0.165,71.158
9285,-0.0088,0.8364,-0.3486,4.089,64.270,-7.019,96.982,-0.165,71.801
9295,0.0020,0.8345,-0.3994,-15.320,48.218,-3.296,97.015,-0.187,72.285
9305,0.0205,0.8838,-0.3789,-26.794,21.790,-0.244,96.916,-0.225,72.504
9315,0.0439,0.9678,-0.3047,-30.396,-6.775,1.831,96.718,-0.258,72.433
9325,0.0488,1.0254,-0.2095,-27.344,-34.973,2.747,96.498,-0.264,72.081
9335,0.0107,1.0659,-0.0898,-16.357,-56.091,4.333,96.323,-0.247,71.521
9345,0.0156,1.0625,0.0366,-3.357,-59.753,7.874,96.207,-0.269,70.917
9355,0.0220,1.0654,0.1577,3.723,-52.368,11.230,96.103,-0.330,70.384
9365,0.0361,1.1030,0.2524,2.502,-30.457,10.986,95.938,-0.423,70.071
9375,0.0420,1.0894,0.2637,-1.587,3.601,7.507,95.724,-0.516,70.098
9385,0.0273,1.0547,0.2173,-7.324,37.903,1.709,95.477,-0.582,70.472
9395,0.0415,1.0737,0.0737,-4.456,61.279,-7.568,95.334,-0.582,71.093
9405,0.1157,1.0625,-0.0815,1.953,60.425,-16.724,95.334,-0.527,71.708
9415,0.0825,0.9053,-0.2124,7.751,33.386,-27.710,95.488,-0.330,72.065
9425,-0.0166,0.6685,-0.3350,12.756,-1.343,-41.931,95.823,0.093,72.092
9435,-0.1484,0.5308,-0.3818,5.127,-31.738,-48.523,96.174,0.731,71.829
9445,-0.1748,0.6523,-0.3423,-12.878,-52.551,-34.790,96.257,1.258,71.340
9455,-0.0771,0.9375,-0.2461,-25.330,-65.552,-7.751,96.075,1.439,70.697
9465,0.0229,1.2285,-0.1094,-18.860,-75.256,10.803,95.861,1.384,69.939
9475,0.0708,1.4678,0.0703,-5.127,-73.486,18.066,95.707,1.241,69.186
9485,0.1523,1.5889,0.2603,0.732,-50.903,16.174,95.702,1.126,68.665
9495,0.1206,1.4238,0.3071,6.714,-18.677,2.869,95.762,1.121,68.478
9505,-0.0332,1.1255,0.2202,14.771,18.372,-17.700,95.916,1.274,68.676
9515,-0.2012,0.9097,0.0171,14.343,52.612,-33.081,96.070,1.549,69.236
9525,-0.2490,0.7852,-0.2017,8.118,75.928,-33.508,96.174,1.802,70.027
9535,-0.2080,0.7754,-0.3950,-2.014,76.050,-22.888,96.180,1.950,70.807
9545,-0.1235,0.7900,-0.5098,-9.644,55.908,-7.568,96.103,1.967,71.373
9555,-0.0225,0.8887,-0.4756,-15.564,27.954,5.432,95.955,1.879,71.642
9565,0.0913,1.0405,-0.3437,-17.517,1.282,12.207,95.779,1.758,71.642
9575,0.1353,1.1421,-0.1978,-8.850,-26.184,13.611,95.685,1.648,71.367
9585,0.0732,1.1172,-0.0791,7.202,-46.753,11.963,95.740,1.577,70.895
9595,0.0049,1.0112,0.0249,16.663,-48.523,11.230,95.894,1.516,70.400
9605,-0.0444,0.9204,0.0967,8.606,-32.227,9.705,95.971,1.450,70.065
9615,-0.0762,0.9204,0.1040,-2.930,-6.409,6.531,95.944,1.390,69.999
9626,-0.0679,1.0024,0.0898,-14.893,19.958,5.798,95.795,1.313,70.192
9635,-0.0293,1.0522,-0.0083,-13.489,41.138,4.944,95.669,1.225,70.593
9645,0.0098,1.0498,-0.1250,-2.625,48.523,2.380,95.658,1.154,71.076
9655,0.0039,0.9521,-0.2300,10.498,41.809,0.244,95.768,1.110,71.488
9665,-0.0186,0.8638,-0.2715,14.648,26.550,0.610,95.922,1.077,71.752
9675,-0.0278,0.8604,-0.2783,9.094,8.118,3.479,96.015,1.033,71.829
9685,0.0073,0.9756,-0.2178,-0.183,-10.315,9.399,96.010,0.950,71.719
9695,0.0298,1.0732,-0.1377,-6.042,-26.184,14.709,95.944,0.829,71.444
9705,0.0107,1.1401,-0.0474,-10.498,-35.217,16.968,95.834,0.698,71.076
9715,-0.0122,1.1846,0.0640,-19.043,-31.433,16.357,95.641,0.566,70.746
9725,-0.0093,1.1826,0.1343,-24.658,-16.846,11.841,95.389,0.467,70.565
9735,-0.0166,1.1172,0.1289,-21.606,0.305,3.967,95.175,0.428,70.565
9745,-0.0278,1.0542,0.0557,-11.963,14.893,-3.479,95.054,0.445,70.719
9755,-0.0127,0.9844,-0.0566,-3.357,25.574,-7.141,95.026,0.494,70.977
9765,-0.0239,0.9346,-0.1694,-2.502,26.428,-8.362,95.004,0.555,71.246
9775,-0.0425,0.9526,-0.2329,-9.399,18.372,-6.836,94.911,0.610,71.439
9785,-0.0347,0.9873,-0.2422,-13.855,5.127,-2.625,94.774,0.632,71.494
9795,-0.0029,1.0498,-0.1738,-13.428,-9.460,2.075,94.636,0.615,71.395
9805,0.0415,1.1577,-0.0645,-11.047,-21.973,5.249,94.521,0.582,71.169
9815,0.0298,1.1943,0.0522,-5.371,-30.579,6.836,94.466,0.538,70.862
9825,-0.0068,1.1401,0.1519,-1.831,-26.001,5.554,94.444,0.505,70.598
9835,-0.0259,1.0522,0.1816,-4.089,-7.263,0.977,94.406,0.500,70.527
9845,-0.0449,1.0078,0.1523,-10.315,16.113,-3.113,94.301,0.516,70.686
9855,-0.0586,0.9468,0.0488,-12.085,38.208,-5.981,94.186,0.549,71.071
9865,-0.0547,0.9077,-0.0659,-9.827,52.734,-9.338,94.092,0.604,71.603
9875,-0.0361,0.8525,-0.1963,-2.991,53.101,-10.498,94.070,0.670,72.142
9885,-0.0132,0.7832,-0.2998,6.531,37.903,-8.179,94.136,0.725,72.526
9895,0.0215,0.8135,-0.3203,10.437,13.062,-4.333,94.246,0.758,72.658
9905,0.0874,0.9072,-0.2720,10.071,-13.733,0.977,94.345,0.758,72.521
9915,0.1255,1.0117,-0.1621,6.714,-38.635,7.080,94.406,0.720,72.131
9925,0.1079,1.1523,0.0127,-1.770,-52.063,11.719,94.378,0.643,71.603
9935,0.0693,1.1694,0.1572,-8.850,-44.800,12.146,94.285,0.555,71.147
9945,0.0146,1.1055,0.2119,-14.343,-21.790,7.080,94.142,0.500,70.928
9955,-0.0337,1.0654,0.2007,-18.677,8.484,0.305,93.955,0.489,71.010
9965,-0.0723,1.0459,0.1064,-16.541,37.170,-3.296,93.790,0.500,71.384
9975,-0.0679,0.9775,-0.0488,-10.254,56.824,-4.944,93.697,0.511,71.955
9986,-0.0391,0.9839,-0.1787,-4.700,58.655,-7.019,93.719,0.560,72.543
9996,-0.0273,0.9536,-0.2783,2.014,44.067,-5.859,93.867,0.599,72.988
10006,-0.0166,0.9077,-0.3159,6.165,21.545,-2.075,94.087,0.610,73.202
10016,0.0015,0.9370,-0.2964,3.845,-2.991,0.061,94.257,0.604,73.174
10026,0.0356,0.9902,-0.2305,0.671,-27.893,1.221,94.351,0.588,72.894
10036,0.0166,1.0449,-0.1265,-2.197,-50.720,4.028,94.351,0.571,72.383
10046,-0.0161,1.1250,0.0195,-8.606,-57.129,8.972,94.202,0.527,71.807
10056,0.0010,1.1963,0.1587,-13.000,-43.823,10.010,93.955,0.450,71.362
10066,0.0020,1.1743,0.2285,-10.742,-20.508,5.920,93.697,0.401,71.153
10076,-0.0254,1.1011,0.2236,-4.395,6.714,-1.038,93.505,0.417,71.224
10086,-0.0566,1.0181,0.1138,4.150,33.752,-6.653,93.444,0.489,71.565
10096,-0.0283,1.0059,-0.0312,9.216,53.467,-8.789,93.527,0.555,72.103
10106,-0.0229,0.9316,-0.1865,11.292,55.908,-8.972,93.719,0.621,72.669
10116,-0.0269,0.8916,-0.2915,10.742,42.969,-8.545,93.977,0.687,73.103
10126,-0.0239,0.8848,-0.3208,4.822,19.592,-7.324,94.186,0.753,73.301
10136,0.0181,0.9224,-0.2739,0.183,-7.202,-5.859,94.312,0.797,73.235
10146,0.0933,1.0337,-0.1460,0.000,-32.898,-2.441,94.345,0.786,72.905
10156,0.0898,1.0981,0.0269,5.859,-50.476,4.395,94.334,0.725,72.400
10166,0.0659,1.0908,0.1885,8.606,-43.213,10.071,94.274,0.621,71.960
10176,0.0488,1.1133,0.3071,3.906,-15.564,8.423,94.114,0.516,71.801
10186,0.0078,1.1318,0.3120,2.930,21.912,4.150,93.950,0.450,72.015
10196,-0.0137,1.0732,0.1914,6.287,61.523,-0.061,93.878,0.412,72.631
10206,-0.0688,0.9185,-0.0142,8.545,88.562,-9.399,93.939,0.483,73.521
10216,-0.1216,0.8052,-0.2148,0.854,98.206,-18.677,94.065,0.681,74.515
10226,-0.0757,0.7852,-0.3501,-17.212,90.088,-18.616,94.103,0.846,75.427
10236,-0.0068,0.7871,-0.4272,-22.522,59.082,-13.062,94.136,0.928,76.025
10246,0.0464,0.8765,-0.3628,-13.000,17.944,-6.592,94.191,0.945,76.207
10256,0.1479,0.9785,-0.2456,1.221,-19.592,0.854,94.301,0.857,76.009
10266,0.1611,1.0938,-0.0879,9.766,-56.335,7.751,94.389,0.731,75.443
10276,0.0469,1.1729,0.1299,5.188,-76.050,14.404,94.323,0.615,74.674
10286,-0.0537,1.1997,0.3223,-8.301,-59.875,15.747,94.043,0.522,74.064
10296,-0.0957,1.2021,0.4116,-17.395,-22.888,9.766,93.642,0.478,73.828
10306,-0.1426,1.1519,0.3545,-10.498,17.578,1.709,93.329,0.516,74.004
10316,-0.1382,1.0898,0.1255,5.920,57.373,-5.127,93.296,0.599,74.581
10326,-0.0747,1.0220,-0.1899,19.104,83.069,-10.437,93.565,0.687,75.416
10336,-0.0020,0.9727,-0.4443,23.315,79.834,-13.855,94.016,0.769,76.223
10346,0.0420,0.9092,-0.5361,18.616,49.927,-13.855,94.471,0.840,76.729
10356,0.0449,0.8452,-0.4990,4.272,9.888,-10.742,94.774,0.906,76.838
10366,0.0630,0.8643,-0.3418,-15.869,-27.344,-7.080,94.785,0.950,76.569
10376,0.0366,0.9795,-0.1436,-27.405,-59.570,-2.258,94.537,0.994,75.976
10386,-0.0088,1.1001,0.0293,-26.245,-73.364,7.385,94.202,0.972,75.240
10396,-0.0259,1.2236,0.1812,-18.799,-67.078,13.733,93.878,0.884,74.559
10406,-0.0142,1.2231,0.2588,-5.798,-45.471,11.414,93.658,0.802,74.097
10416,0.0005,1.1714,0.2500,5.798,-14.587,2.991,93.554,0.775,73.954
10426,-0.0005,1.0879,0.1587,10.925,15.930,-5.310,93.549,0.807,74.114
10436,-0.0186,0.9028,0.0010,12.268,37.964,-12.024,93.636,0.906,74.498
10446,-0.0210,0.8286,-0.1309,2.563,44.617,-18.372,93.724,1.066,74.960
10456,-0.0269,0.7935,-0.2300,-11.353,34.912,-17.761,93.741,1.225,75.317
10466,-0.0488,0.8062,-0.2500,-17.517,13.245,-11.475,93.708,1.351,75.460
10476,-0.0205,0.9233,-0.1963,-14.465,-9.888,-3.723,93.642,1.395,75.361
10486,0.0435,1.0850,-0.0962,-4.456,-27.954,4.150,93.609,1.335,75.081
10496,0.0605,1.1836,0.0186,6.592,-37.292,10.193,93.620,1.214,74.702
10506,0.0200,1.1489,0.1123,12.573,-32.227,11.169,93.642,1.104,74.372
10516,-0.0068,1.0718,0.1533,7.874,-14.893,6.775,93.604,1.038,74.218
10526,-0.0254,1.0518,0.1353,-6.714,4.944,2.136,93.428,1.016,74.268
10536,-0.0474,0.9888,0.0361,-20.752,23.193,-1.709,93.170,1.038,74.498
10546,-0.0752,0.8872,-0.0767,-30.640,34.790,-7.019,92.889,1.126,74.850
10556,-0.0737,0.8896,-0.1709,-35.583,35.156,-13.367,92.626,1.274,75.207
10566,-0.0640,0.8931,-0.2334,-27.039,21.118,-13.977,92.483,1.428,75.427
10576,-0.0342,0.8965,-0.2080,-7.324,-1.404,-8.179,92.516,1.516,75.416
10586,0.0532,0.9639,-0.1030,11.292,-24.841,0.000,92.659,1.483,75.168
10596,0.1001,1.0747,0.0522,18.799,-45.166,10.193,92.774,1.335,74.713
10606,0.0801,1.1450,0.1890,15.381,-50.964,16.418,92.796,1.143,74.196
10616,0.0513,1.1450,0.2251,7.385,-33.813,14.160,92.725,0.983,73.850
10626,-0.0269,1.0264,0.1538,-1.099,-5.371,6.897,92.598,0.923,73.795
10636,-0.1182,0.9634,0.0762,-7.080,22.400,-1.587,92.461,0.989,74.015
10646,-0.1372,0.9521,-0.0342,-8.728,43.823,-7.690,92.379,1.121,74.460
10656,-0.1108,0.9355,-0.1611,-3.601,47.668,-8.850,92.422,1.241,74.938
10666,-0.0552,0.9575,-0.2178,4.028,32.898,-5.066,92.576,1.296,75.267
10676,0.0400,0.9966,-0.2026,11.108,9.827,-0.854,92.780,1.269,75.366
10686,0.1162,1.0024,-0.1509,17.273,-15.015,2.197,93.005,1.176,75.218
10696,0.1494,1.0151,-0.0620,15.198,-36.011,4.944,93.153,1.049,74.855
10706,0.0830,1.0767,0.0679,4.150,-44.556,8.667,93.115,0.934,74.405
10716,0.0361,1.1865,0.2017,-5.615,-31.677,11.047,92.928,0.813,74.081
10726,-0.0220,1.1885,0.2476,-6.104,-10.437,9.338,92.719,0.731,73.971
10736,-0.0942,1.0991,0.1938,2.869,10.620,1.892,92.620,0.747,74.081
10746,-0.1548,0.9287,0.0337,14.160,29.297,-5.737,92.719,0.879,74.372
10756,-0.1753,0.7607,-0.1196,15.442,41.077,-10.132,92.939,1.077,74.789
10766,-0.1162,0.7153,-0.2456,10.803,39.001,-10.803,93.214,1.241,75.185
10776,-0.0371,0.7451,-0.3101,9.155,21.179,-3.662,93.505,1.280,75.399
10786,0.0693,0.9087,-0.2617,14.404,-2.991,6.226,93.768,1.165,75.366
10796,0.1362,1.0625,-0.1655,26.245,-26.367,15.137,94.076,0.950,75.092
10806,0.1362,1.2051,-0.0029,32.104,-39.551,22.034,94.345,0.687,74.680
10816,0.0698,1.2871,0.1265,29.297,-35.706,22.095,94.532,0.456,74.306
10826,0.0103,1.2026,0.1343,19.226,-16.785,14.343,94.614,0.319,74.130
10836,-0.0654,1.0430,0.0376,4.028,8.606,2.258,94.587,0.319,74.213
10846,-0.1348,0.9883,-0.0664,-18.616,32.471,-7.996,94.395,0.450,74.542
10856,-0.1729,0.8765,-0.2378,-34.546,47.241,-13.794,94.164,0.654,75.026
10866,-0.1143,0.8970,-0.3115,-45.898,46.143,-14.038,93.867,0.818,75.498
10876,-0.0532,0.9043,-0.3433,-33.936,25.330,-9.644,93.702,0.923,75.756
10886,-0.0059,0.9072,-0.2964,-3.174,-3.723,-2.136,93.818,0.939,75.718
10896,0.1104,1.0347,-0.1836,19.287,-31.799,6.531,94.065,0.824,75.399
10906,0.1416,1.1870,-0.0146,22.583,-56.458,15.869,94.246,0.632,74.822
10916,0.0894,1.2949,0.1733,11.536,-63.721,19.592,94.235,0.439,74.174
10926,0.0742,1.3286,0.3052,-3.601,-47.729,14.526,94.021,0.297,73.685
10936,0.0483,1.2080,0.3711,-12.268,-18.494,3.296,93.691,0.253,73.499
10946,-0.0195,1.0137,0.3008,-8.972,15.076,-9.155,93.400,0.341,73.658
10956,-0.1572,0.7280,0.0542,3.296,45.471,-16.602,93.356,0.593,74.119
10966,-0.1865,0.6772,-0.1880,10.376,63.782,-17.578,93.587,0.873,74.767
10976,-0.1167,0.7461,-0.3687,14.221,57.922,-9.094,93.966,1.000,75.350
10986,-0.0151,0.8086,-0.4116,18.250,28.137,2.014,94.384,0.961,75.630
10996,0.0669,0.9063,-0.3403,14.099,-9.033,8.545,94.680,0.835,75.531
11006,0.1504,1.0942,-0.1567,3.113,-40.039,10.925,94.741,0.670,75.125
11016,0.1387,1.2314,0.0557,-1.648,-59.265,13.855,94.642,0.511,74.520
11026,0.0708,1.2739,0.2280,2.075,-59.814,16.418,94.510,0.363,73.916
11036,0.0215,1.2617,0.2949,8.057,-41.931,12.756,94.411,0.258,73.488
11046,-0.0010,1.1841,0.2754,11.230,-14.709,3.784,94.345,0.231,73.334
11056,-0.0371,1.0107,0.1504,9.705,15.381,-5.371,94.318,0.286,73.493
11066,-0.1279,0.8071,-0.0630,3.296,42.358,-13.062,94.351,0.472,73.927
11076,-0.1519,0.7593,-0.2603,-11.658,58.411,-17.822,94.389,0.709,74.520
11086,-0.0815,0.8608,-0.3716,-26.978,52.368,-15.198,94.318,0.862,75.053
11096,-0.0264,0.9111,-0.4106,-21.606,23.376,-7.202,94.307,0.923,75.295
11106,0.0493,1.0103,-0.2915,-10.803,-9.949,1.404,94.312,0.879,75.196
11116,0.1060,1.1235,-0.1187,-0.610,-37.354,6.287,94.318,0.780,74.817
11127,0.0610,1.1343,-0.0015,11.230,-56.885,9.888,94.378,0.687,74.240
11136,0.0063,1.1431,0.1050,15.625,-60.364,11.902,94.433,0.604,73.630
11146,0.0103,1.1611,0.1899,12.329,-45.593,10.193,94.411,0.527,73.169
11156,0.0132,1.1147,0.2183,6.714,-19.653,6.042,94.323,0.472,72.966
11166,-0.0015,1.0464,0.1567,-4.211,13.123,0.977,94.153,0.450,73.098
11176,-0.0337,0.9907,0.0054,-13.306,44.739,-5.981,93.977,0.489,73.548
11186,-0.0552,0.9390,-0.1860,-19.043,62.195,-11.902,93.867,0.593,74.174
11196,-0.0732,0.8604,-0.3394,-23.193,57.251,-13.794,93.823,0.731,74.756
11206,-0.0713,0.8252,-0.4082,-22.522,32.104,-13.367,93.829,0.879,75.086
11216,-0.0068,0.8823,-0.3174,-20.569,-1.343,-8.850,93.785,0.961,75.081
11226,0.1055,1.0132,-0.1323,-16.479,-30.945,-1.221,93.653,0.928,74.773
11236,0.1416,1.0972,0.0288,-1.648,-53.955,5.432,93.576,0.824,74.229
11246,0.0552,1.0703,0.1606,17.944,-61.523,9.766,93.620,0.725,73.608
11256,0.0249,1.1113,0.3027,25.146,-47.546,12.512,93.675,0.615,73.125
11266,0.0464,1.1885,0.3833,20.691,-20.874,12.512,93.664,0.478,72.911
11276,0.0400,1.1245,0.2930,17.395,8.423,7.141,93.653,0.374,72.988
11286,0.0088,1.0654,0.1694,7.690,36.133,-2.014,93.604,0.363,73.350
11296,-0.0361,0.9209,-0.0215,-8.423,55.054,-11.841,93.505,0.467,73.911
11306,-0.0952,0.7720,-0.2622,-22.949,58.594,-18.616,93.433,0.676,74.504
11316,-0.1177,0.7534,-0.4150,-28.687,42.908,-19.104,93.411,0.912,74.943
11326,-0.0864,0.7900,-0.4590,-20.569,15.137,-11.719,93.477,1.060,75.103
11336,0.0371,0.9453,-0.3662,-7.446,-12.695,-1.404,93.576,1.055,74.976
11346,0.0967,1.0918,-0.2676,12.695,-41.138,7.568,93.796,0.945,74.559
11356,0.0537,1.1777,-0.1890,35.095,-63.171,13.916,94.186,0.813,73.922
11366,0.0190,1.2241,-0.0479,40.222,-69.763,18.066,94.554,0.665,73.213
11376,0.0376,1.2622,0.1763,21.362,-56.458,17.944,94.636,0.511,72.636
11386,0.0381,1.1797,0.3242,-1.770,-30.151,10.742,94.417,0.406,72.328
11396,-0.0200,1.0757,0.3384,-18.738,2.808,0.916,94.010,0.401,72.356
11406,-0.0850,1.0034,0.2036,-24.963,36.499,-7.751,93.609,0.494,72.724
11416,-0.0752,0.9443,-0.0361,-23.621,59.692,-13.123,93.367,0.626,73.328
11426,-0.0586,0.9072,-0.2642,-16.602,59.326,-15.076,93.340,0.775,73.927
11436,-0.0386,0.8579,-0.3921,-7.568,36.804,-15.259,93.483,0.917,74.306
11446,-0.0200,0.8281,-0.3550,-2.869,6.958,-10.925,93.653,1.027,74.383
11456,0.0488,0.8628,-0.1978,-2.136,-17.578,-3.845,93.719,1.033,74.207
11466,0.0684,0.9380,-0.0605,6.531,-40.466,4.883,93.774,0.956,73.801
11476,0.0215,0.9985,0.0454,20.691,-57.800,15.320,93.906,0.824,73.213
11486,0.0283,1.0874,0.2017,22.644,-56.091,22.339,93.977,0.615,72.642
11496,0.0762,1.1777,0.3320,12.085,-35.889,20.996,93.900,0.390,72.268
11506,0.0791,1.2104,0.3516,-1.343,-4.700,13.733,93.686,0.220,72.208
11516,0.0327,1.1875,0.2461,-8.240,30.396,2.441,93.450,0.159,72.510
11526,-0.0586,1.0249,0.0020,-5.798,58.289,-10.132,93.356,0.253,73.098
11536,-0.1450,0.8335,-0.2812,-6.042,69.397,-19.714,93.455,0.500,73.806
11546,-0.1558,0.7812,-0.4648,-10.376,58.105,-21.423,93.631,0.769,74.399
11556,-0.1055,0.7202,-0.5288,-14.709,27.222,-14.465,93.812,0.956,74.680
11566,0.0181,0.7979,-0.4243,-20.569,-7.202,-3.601,93.851,0.972,74.608
11576,0.1743,0.9854,-0.1870,-21.973,-36.804,6.409,93.697,0.829,74.235
11586,0.1680,1.0962,-0.0098,-3.601,-64.453,15.015,93.620,0.626,73.586
11596,0.0933,1.1685,0.1636,20.752,-77.026,21.362,93.702,0.412,72.801
11606,0.0732,1.2402,0.3364,30.579,-65.247,23.621,93.807,0.181,72.136
11616,0.0757,1.3135,0.4663,27.832,-36.316,18.982,93.851,-0.011,71.763
11627,0.0166,1.2612,0.4082,23.254,3.662,7.935,93.862,-0.099,71.790
11636,-0.0811,1.0649,0.1787,20.630,46.570,-7.080,93.933,-0.016,72.263
11646,-0.1533,0.9180,-0.1260,8.179,79.102,-21.973,94.054,0.236,73.065
11656,-0.1333,0.8799,-0.3877,-12.512,86.548,-27.893,94.131,0.527,73.949
11666,-0.0825,0.8340,-0.5396,-24.780,62.988,-25.085,94.175,0.775,74.597
11676,-0.0098,0.8105,-0.5186,-25.696,25.574,-16.785,94.208,0.917,74.861
11686,0.1182,0.9463,-0.2988,-21.973,-9.094,-6.348,94.125,0.912,74.778
11696,0.1177,1.0430,-0.0908,-3.723,-42.969,2.502,94.087,0.846,74.344
11706,-0.0205,1.0757,0.0757,30.334,-66.223,10.376,94.301,0.791,73.680
11716,-0.0488,1.1348,0.2441,51.025,-58.350,18.127,94.631,0.670,73.081
11726,-0.0068,1.2104,0.3682,52.673,-30.334,19.775,94.933,0.494,72.762
11736,0.0327,1.2378,0.3589,44.678,10.010,12.756,95.164,0.341,72.850
11746,0.0317,1.1621,0.2114,32.349,53.711,0.305,95.334,0.275,73.389
11756,0.0312,1.0439,-0.0156,19.470,86.609,-14.832,95.488,0.319,74.262
11766,-0.0273,0.8779,-0.2803,1.831,97.534,-23.987,95.630,0.478,75.256
11776,-0.0317,0.7573,-0.4429,-14.038,80.566,-25.757,95.746,0.670,76.086
11786,0.0439,0.7783,-0.4082,-23.254,43.396,-18.799,95.740,0.775,76.536
11796,0.1182,0.8833,-0.2637,-19.958,2.991,-5.310,95.652,0.742,76.569
11806,0.0659,0.9263,-0.2134,9.583,-43.457,6.592,95.817,0.676,76.130
11816,-0.0923,0.9243,-0.1318,44.128,-83.923,17.029,96.268,0.643,75.278
11826,-0.0889,0.9771,-0.0127,48.035,-84.351,26.001,96.674,0.522,74.410
11836,-0.0205,1.1113,0.1611,23.376,-55.969,25.208,96.751,0.346,73.828
11846,0.0376,1.1733,0.2285,-2.747,-13.245,16.296,96.548,0.176,73.674
11856,0.0264,1.1982,0.1704,-18.005,31.372,4.517,96.224,0.082,73.982
11866,0.0127,1.1509,-0.0186,-17.883,63.782,-7.751,95.993,0.082,74.625
11876,-0.0225,0.9956,-0.2397,-11.475,70.313,-14.771,95.955,0.170,75.339
11886,-0.0386,0.8413,-0.4097,-6.226,50.903,-16.418,96.097,0.297,75.861
11896,-0.0200,0.7852,-0.4399,-6.592,17.700,-11.047,96.262,0.401,76.053
11906,0.0503,0.7793,-0.3755,-11.169,-12.634,-2.075,96.345,0.396,75.927
11916,0.1108,0.8979,-0.1973,-14.038,-40.283,6.531,96.268,0.302,75.520
11926,0.0820,1.0425,-0.0093,-6.226,-61.340,13.184,96.141,0.192,74.894
11936,0.0386,1.1147,0.1558,7.812,-61.096,18.433,96.075,0.055,74.268
11946,0.0381,1.2026,0.3149,14.038,-39.612,17.273,96.010,-0.088,73.856
11956,0.0293,1.2798,0.3486,16.907,-7.080,10.193,95.966,-0.192,73.773
11966,0.0220,1.2583,0.2505,18.127,30.212,1.587,95.971,-0.247,74.075
11976,-0.0181,1.1040,0.0576,11.963,62.378,-9.827,95.999,-0.203,74.702
11986,-0.0913,0.9468,-0.1787,-2.869,78.186,-20.996,96.010,-0.022,75.504
11996,-0.1260,0.8369,-0.4077,-21.667,72.571,-24.170,95.999,0.214,76.251
12006,-0.1055,0.7505,-0.5049,-34.424,46.753,-20.996,95.938,0.434,76.740
12016,-0.0386,0.7383,-0.4258,-42.419,13.977,-12.329,95.757,0.566,76.888
12026,0.0483,0.8276,-0.2808,-43.457,-19.409,-1.770,95.455,0.566,76.696
12036,0.0645,0.9688,-0.1289,-24.414,-54.565,7.263,95.229,0.500,76.146
12046,0.0259,1.0264,0.0215,6.836,-75.989,16.724,95.224,0.385,75.377
12056,0.0337,1.0625,0.1865,24.292,-72.327,23.804,95.312,0.192,74.636
12066,0.0615,1.1797,0.3687,18.799,-49.316,23.437,95.268,-0.016,74.119
12076,0.0845,1.2295,0.3809,11.169,-11.414,16.479,95.153,-0.209,73.993
12086,0.0718,1.2319,0.1875,12.451,30.151,7.568,95.136,-0.341,74.284
12096,0.0186,1.1382,-0.0786,16.724,61.829,-3.845,95.290,-0.363,74.905
12106,-0.0498,0.9365,-0.3242,11.597,71.106,-14.282,95.537,-0.253,75.624
12116,-0.0723,0.8281,-0.4521,-11.963,56.946,-17.822,95.647,-0.088,76.212
12127,-0.0356,0.8193,-0.4580,-39.063,28.748,-13.672,95.493,0.038,76.509
12136,0.0273,0.8823,-0.3262,-53.040,-3.174,-7.080,95.120,0.093,76.487
12146,0.0615,0.9771,-0.0957,-49.011,-32.593,-1.465,94.636,0.099,76.163
12156,0.0156,1.0942,0.1133,-23.682,-54.260,4.211,94.296,0.093,75.619
12166,-0.0479,1.1255,0.2622,17.883,-56.824,11.047,94.296,0.049,75.042
12177,-0.0493,1.1221,0.3066,56.519,-40.161,17.334,94.658,-0.060,74.630
12186,0.0073,1.1489,0.1943,75.562,-13.062,19.043,95.268,-0.242,74.482
12196,0.0547,1.1597,0.0112,72.876,13.977,14.404,95.927,-0.423,74.608
12206,0.0898,1.0771,-0.1914,54.138,34.912,4.028,96.504,-0.538,74.954
12216,0.0879,0.9199,-0.3599,21.545,43.945,-7.935,96.861,-0.555,75.399
12226,0.0195,0.7642,-0.4492,-20.264,40.771,-15.198,96.894,-0.461,75.822
12237,-0.0068,0.7231,-0.4023,-60.242,28.137,-15.869,96.515,-0.330,76.119
12246,0.0142,0.7754,-0.3047,-77.148,6.226,-10.864,95.900,-0.236,76.196
12256,0.0630,0.8975,-0.1602,-66.650,-20.691,-4.089,95.284,-0.214,75.992
12266,0.0649,0.9961,-0.0107,-35.583,-44.800,3.174,94.889,-0.242,75.542
12276,0.0298,1.0874,0.1328,-1.404,-55.359,11.047,94.757,-0.313,74.982
12286,0.0029,1.1309,0.2319,28.259,-50.110,17.029,94.878,-0.439,74.471
12296,0.0103,1.1670,0.2773,43.030,-33.325,18.921,95.120,-0.599,74.119
12306,0.0303,1.2505,0.2119,41.504,-7.812,15.869,95.389,-0.758,74.026
12316,0.0396,1.2329,0.0215,35.461,20.569,7.263,95.669,-0.857,74.229
12326,0.0039,1.1035,-0.1514,20.508,41.870,-4.272,95.889,-0.851,74.647
12337,-0.0557,0.9600,-0.2969,-6.653,49.194,-16.357,95.927,-0.698,75.152
12347,-0.0957,0.8892,-0.3926,-38.208,41.321,-22.400,95.724,-0.456,75.586
12356,-0.0996,0.8906,-0.3848,-55.969,21.423,-20.630,95.345,-0.214,75.822
12367,-0.0259,0.9258,-0.2632,-52.734,-3.906,-13.245,94.927,-0.060,75.795
12376,0.0605,0.9795,-0.0952,-34.485,-29.663,-3.723,94.592,-0.033,75.504
12386,0.0610,1.0576,0.0459,-6.836,-52.856,2.991,94.455,-0.055,74.976
12396,0.0254,1.0757,0.1514,23.193,-63.354,7.996,94.559,-0.093,74.333
12406,0.0439,1.0737,0.2329,40.405,-53.528,12.085,94.796,-0.192,73.795
12417,0.0698,1.1177,0.3149,37.537,-28.687,11.292,94.960,-0.313,73.499
12426,0.0601,1.1382,0.2246,28.992,7.263,3.540,95.087,-0.385,73.564
12436,0.0195,1.0649,0.0596,19.348,44.189,-5.310,95.191,-0.374,74.009
12446,-0.0298,0.9385,-0.1270,1.221,69.885,-14.282,95.224,-0.275,74.718
12457,-0.0869,0.8770,-0.2700,-22.034,72.693,-20.691,95.120,-0.082,75.465
12467,-0.0801,0.8789,-0.3320,-36.560,52.673,-21.179,94.916,0.126,76.009
12477,0.0054,0.9189,-0.2759,-37.354,21.179,-13.733,94.664,0.236,76.229
12486,0.0728,0.9663,-0.1812,-23.682,-13.367,-3.662,94.488,0.242,76.097
12496,0.0527,0.9922,-0.0962,2.747,-52.795,4.333,94.521,0.209,75.569
12507,-0.0312,1.0054,-0.0103,23.682,-81.177,14.099,94.713,0.148,74.751
12516,-0.0210,1.0386,0.0952,22.827,-77.454,20.569,94.839,0.016,73.960
12526,0.0112,1.0757,0.2495,5.432,-49.683,18.555,94.713,-0.126,73.449
12537,0.0396,1.1743,0.3560,-23.987,-5.310,11.475,94.263,-0.253,73.389
12546,0.0259,1.2554,0.2715,-37.170,42.480,3.113,93.724,-0.324,73.806
12557,0.0186,1.1846,0.0332,-26.672,78.491,-6.470,93.406,-0.313,74.597
12566,-0.0273,0.9888,-0.2192,-11.292,91.003,-15.259,93.378,-0.198,75.515
12577,-0.0654,0.8608,-0.4209,-2.930,80.750,-18.372,93.576,-0.022,76.333
12587,-0.0098,0.8232,-0.5103,-3.235,56.335,-12.451,93.823,0.066,76.899
12597,0.0747,0.7871,-0.4707,-3.845,20.325,-5.798,94.054,0.060,77.108
12607,0.1436,0.8242,-0.3262,-5.066,-18.982,-1.160,94.180,0.000,76.921
12616,0.1372,0.9038,-0.1470,-7.385,-55.176,3.235,94.158,-0.077,76.366
12627,0.0386,0.9819,0.0430,-2.014,-80.872,9.155,94.070,-0.132,75.553
12637,-0.0049,1.0566,0.1772,4.761,-80.261,15.564,93.988,-0.225,74.740
12647,0.0117,1.1631,0.2935,11.108,-61.646,17.090,93.917,-0.357,74.114
12657,0.0269,1.2412,0.3726,18.433,-30.945,12.085,93.895,-0.461,73.795
12667,0.0308,1.2212,0.3315,23.743,7.141,4.395,93.939,-0.516,73.867
12677,0.0273,1.1538,0.1782,21.912,44.617,-4.150,94.026,-0.516,74.312
12687,0.0215,1.0542,-0.0366,11.414,69.458,-13.367,94.109,-0.439,75.015
12697,-0.0322,0.9365,-0.2290,-1.221,73.303,-18.921,94.191,-0.280,75.762
12707,-0.0713,0.8315,-0.3477,-13.977,60.730,-18.860,94.235,-0.088,76.382
12717,-0.0557,0.7852,-0.3813,-22.583,37.354,-14.465,94.224,0.055,76.761
12727,-0.0029,0.8438,-0.3013,-24.658,7.568,-8.057,94.136,0.132,76.844
12737,0.0542,0.9238,-0.1836,-18.799,-21.667,-1.404,94.021,0.126,76.630
12747,0.0308,0.9697,-0.0937,-1.587,-49.500,4.272,94.016,0.099,76.135
12757,-0.0244,1.0059,-0.0093,18.188,-64.941,10.315,94.164,0.055,75.476
12767,-0.0186,1.0591,0.0854,24.170,-61.157,14.587,94.312,-0.027,74.855
12777,0.0112,1.1318,0.2275,18.616,-43.640,14.587,94.340,-0.148,74.410
12787,0.0327,1.1548,0.3174,11.963,-15.381,9.277,94.263,-0.242,74.251
12797,0.0122,1.1055,0.2642,7.690,16.052,2.380,94.158,-0.280,74.410
12807,0.0039,1.0894,0.1284,2.319,44.861,-3.601,94.070,-0.275,74.861
12817,0.0034,1.0117,-0.0684,-4.272,60.059,-7.568,94.026,-0.242,75.465
12827,-0.0303,0.9243,-0.2300,-9.766,57.251,-9.766,94.026,-0.165,76.042
12837,-0.0293,0.8638,-0.3398,-18.677,44.067,-10.071,94.016,-0.077,76.487
12847,-0.0205,0.8511,-0.3574,-27.649,22.461,-8.606,93.928,0.000,76.718
12856,0.0127,0.8979,-0.2651,-34.302,-2.319,-4.639,93.713,0.044,76.696
12867,0.0522,0.9775,-0.1431,-34.302,-26.306,1.099,93.422,0.016,76.437
12877,0.0249,1.0591,-0.0562,-21.423,-47.974,5.249,93.203,-0.016,75.954
12887,-0.0059,1.0933,0.0435,-4.395,-57.190,9.949,93.104,-0.077,75.377
12897,0.0107,1.1011,0.1626,1.404,-50.110,12.451,93.005,-0.181,74.866
12907,0.0425,1.1455,0.3032,-5.127,-29.541,9.888,92.774,-0.280,74.570
12917,0.0488,1.1782,0.3496,-15.991,-1.526,5.066,92.428,-0.352,74.553
12927,0.0327,1.1831,0.2524,-21.912,29.358,-0.427,92.060,-0.368,74.844
12937,0.0190,1.1123,0.0962,-21.118,55.603,-6.592,91.780,-0.330,75.405
12947,-0.0254,0.9966,-0.0713,-19.958,66.589,-12.268,91.599,-0.214,76.075
12957,-0.0742,0.8960,-0.2280,-20.935,60.730,-14.893,91.516,-0.033,76.685
12967,-0.0615,0.8433,-0.3101,-24.475,41.931,-13.062,91.461,0.121,77.108
12977,0.0132,0.8599,-0.3022,-31.433,16.235,-7.446,91.329,0.181,77.272
12987,0.0884,0.9082,-0.2637,-41.443,-13.367,-1.892,91.066,0.148,77.135
12997,0.0796,1.0352,-0.1450,-47.852,-45.532,0.610,90.665,0.104,76.679
13007,0.0312,1.0820,0.0107,-44.800,-62.134,2.625,90.203,0.066,76.058
13017,0.0215,1.0723,0.2095,-37.476,-54.016,3.418,89.720,0.022,75.520
13027,-0.0098,1.0674,0.4014,-30.212,-30.457,1.099,89.220,0.016,75.218
13037,-0.0654,0.9912,0.4551,-18.311,1.831,-0.977,88.797,0.060,75.234
13047,-0.1104,0.9517,0.3477,-6.409,40.344,-0.916,88.544,0.137,75.635
13057,-0.0508,1.0083,0.1533,1.770,74.158,-0.244,88.495,0.187,76.377
13067,0.0200,1.0703,-0.0415,8.057,84.900,0.916,88.616,0.187,77.228
13077,0.0947,1.0464,-0.1924,10.620,70.801,-1.099,88.841,0.159,77.937
13087,0.1328,1.0088,-0.2456,8.789,43.274,-3.113,89.077,0.126,78.365
13097,0.1323,1.0435,-0.2520,7.507,11.841,-4.578,89.297,0.104,78.486
13107,0.0801,0.9360,-0.2681,24.780,-27.222,-3.418,89.709,0.082,78.212
13117,-0.0396,0.7793,-0.2207,44.556,-70.801,0.977,90.308,0.099,77.503
13127,-0.0806,0.7817,-0.0635,37.842,-90.393,8.850,90.725,0.071,76.597
13137,-0.0381,0.9648,0.1743,10.986,-82.336,14.038,90.725,-0.027,75.773
13147,0.0176,1.1489,0.3599,-9.827,-56.091,13.062,90.445,-0.159,75.212
13157,0.0801,1.2710,0.4907,-15.686,-17.578,8.667,90.077,-0.275,75.037
13167,0.0972,1.2759,0.4805,-8.911,23.682,1.404,89.780,-0.330,75.273
13177,0.0674,1.1479,0.2739,1.892,59.570,-6.958,89.659,-0.286,75.866
13187,-0.0195,0.9419,-0.0210,12.024,77.148,-14.038,89.791,-0.126,76.641
13197,-0.1143,0.7344,-0.2920,18.860,69.275,-15.198,90.198,0.104,77.333
13207,-0.1001,0.6997,-0.3906,17.029,43.152,-9.399,90.654,0.264,77.761
13217,-0.0298,0.7285,-0.3594,12.085,9.583,1.221,91.033,0.269,77.860
13227,0.0791,0.8589,-0.2642,7.690,-23.926,9.888,91.269,0.126,77.618
13237,0.1045,1.0503,-0.1519,5.798,-58.838,15.015,91.395,-0.066,77.025
13247,0.0762,1.2227,0.0161,-1.526,-73.914,16.907,91.357,-0.247,76.284
13257,0.0513,1.2588,0.1709,-13.306,-63.049,12.024,91.137,-0.374,75.646
13267,-0.0020,1.2007,0.3291,-24.231,-38.574,2.563,90.736,-0.385,75.262
13277,-0.0483,1.1250,0.4009,-27.771,-7.019,-5.432,90.258,-0.302,75.196
13287,-0.0508,1.1357,0.3921,-20.264,22.522,-7.385,89.863,-0.203,75.421
13297,-0.0112,1.0864,0.2334,0.427,44.006,-3.601,89.747,-0.159,75.861
13307,0.0244,1.0293,0.0425,21.790,51.514,-0.183,89.940,-0.170,76.371
13317,0.0449,0.9565,-0.1255,31.494,44.495,-0.488,90.324,-0.187,76.816
13327,-0.0034,0.8315,-0.2534,27.161,27.954,-2.747,90.758,-0.159,77.097
13337,-0.0405,0.7998,-0.2925,8.301,10.498,-3.845,91.033,-0.093,77.206
13347,-0.0303,0.8525,-0.2402,-13.245,-6.226,-1.770,91.049,-0.055,77.141
13357,-0.0264,0.9087,-0.1836,-19.226,-23.132,1.770,90.961,-0.049,76.910
13367,-0.0181,0.9868,-0.1045,-12.817,-36.743,6.042,90.890,-0.093,76.542
13377,0.0039,1.0444,0.0083,-5.066,-39.917,10.315,90.824,-0.192,76.141
13387,0.0581,1.1284,0.1460,-3.540,-32.288,10.681,90.709,-0.319,75.817
13397,0.1084,1.1987,0.2529,-4.333,-16.479,7.385,90.538,-0.439,75.652
13407,0.1079,1.2070,0.2627,-2.441,2.747,2.380,90.390,-0.505,75.679
13417,0.0576,1.1318,0.1738,-1.770,21.423,-3.601,90.275,-0.494,75.894
13427,-0.0073,0.9980,0.0142,-3.113,34.912,-9.705,90.231,-0.390,76.245
13437,-0.0527,0.9004,-0.1182,-9.155,36.011,-12.878,90.209,-0.231,76.602
13447,-0.0581,0.8687,-0.1978,-12.939,22.400,-11.169,90.209,-0.077,76.827
13457,-0.0327,0.8823,-0.1958,-11.963,3.174,-4.944,90.214,-0.011,76.860
13466,0.0161,0.9634,-0.1353,-8.301,-13.428,0.916,90.209,-0.027,76.723
13477,0.0396,1.0376,-0.0908,4.822,-27.954,3.723,90.302,-0.082,76.443
13487,0.0508,1.0767,0.0073,17.273,-37.170,6.165,90.467,-0.170,76.075
13497,0.0698,1.1172,0.1729,13.794,-34.912,7.751,90.516,-0.275,75.723
13507,0.0825,1.1992,0.3389,2.197,-22.034,5.188,90.374,-0.363,75.504
13517,0.0586,1.1968,0.3872,-2.869,-2.869,0.488,90.165,-0.390,75.476
13527,-0.0229,1.0259,0.2729,0.122,18.127,-4.883,90.011,-0.324,75.657
13537,-0.1240,0.8193,0.0581,2.380,35.828,-10.498,89.995,-0.132,76.014
13547,-0.1367,0.7202,-0.1392,-1.648,41.931,-11.475,90.082,0.082,76.432
13557,-0.0771,0.7427,-0.2783,-6.531,30.945,-6.042,90.225,0.198,76.745
13567,0.0039,0.7920,-0.3174,-6.165,8.301,2.319,90.379,0.170,76.827
13577,0.0977,0.9600,-0.2061,-2.380,-15.442,8.911,90.472,0.022,76.668
13587,0.1582,1.1133,-0.0547,7.324,-35.217,12.878,90.571,-0.176,76.317
13597,0.1157,1.1255,0.1011,19.897,-48.157,14.954,90.709,-0.379,75.833
13607,0.0693,1.1445,0.2524,15.442,-43.945,13.489,90.736,-0.533,75.394
13617,0.0420,1.1865,0.3364,-0.854,-26.733,7.324,90.566,-0.621,75.125
13628,-0.0107,1.0781,0.3101,-11.169,-3.235,0.854,90.286,-0.615,75.092
13637,-0.0854,0.9917,0.2085,-19.714,21.423,-4.395,89.967,-0.516,75.306
13647,-0.0791,1.0044,0.0474,-25.330,40.161,-7.446,89.687,-0.396,75.707
13657,-0.0430,1.0137,-0.0820,-22.156,41.260,-6.714,89.517,-0.297,76.119
13667,-0.0225,0.9902,-0.1533,-9.155,27.527,-3.845,89.517,-0.242,76.393
13677,-0.0029,1.0000,-0.1401,2.197,9.155,-0.244,89.621,-0.231,76.487
13687,0.0151,0.9883,-0.1245,11.414,-7.812,2.258,89.808,-0.264,76.410
13697,0.0073,1.0083,-0.1123,15.442,-26.062,3.357,90.027,-0.297,76.146
13707,-0.0166,1.0454,-0.0718,11.475,-39.978,4.517,90.187,-0.330,75.751
13717,-0.0078,1.1343,0.0454,-0.122,-42.114,5.310,90.159,-0.374,75.328
13727,0.0078,1.1187,0.1548,-7.141,-32.654,3.296,90.011,-0.406,75.004
13737,0.0044,1.0518,0.2651,-7.629,-18.005,-0.244,89.797,-0.401,74.822
13747,0.0044,1.0273,0.2993,-1.831,-2.014,-2.563,89.615,-0.374,74.800
13757,0.0435,1.0474,0.2344,11.658,13.916,-1.770,89.610,-0.374,74.938
13767,0.0703,0.9761,0.0586,31.250,25.574,-1.343,89.885,-0.401,75.196
13777,0.0742,0.9116,-0.1074,40.955,29.846,-2.686,90.357,-0.412,75.493
13787,0.0703,0.9131,-0.1963,31.738,24.353,-3.845,90.791,-0.417,75.740
13797,0.0771,0.9287,-0.2271,8.850,13.977,-4.517,91.005,-0.417,75.877
13807,0.0508,0.9014,-0.1948,-14.893,2.686,-5.371,90.967,-0.390,75.905
13817,-0.0034,0.8530,-0.1104,-31.372,-6.287,-5.920,90.725,-0.324,75.844
13827,-0.0190,0.8545,0.0059,-36.621,-13.550,-3.174,90.352,-0.275,75.707
13837,-0.0181,0.8877,0.0923,-29.175,-19.958,3.845,90.000,-0.297,75.509
13847,-0.0010,0.9595,0.1460,-10.742,-22.705,11.169,89.808,-0.406,75.284
13857,0.0293,1.0186,0.1230,10.864,-19.714,16.357,89.852,-0.577,75.086
13867,0.0688,1.0991,0.0835,23.193,-11.902,17.151,90.038,-0.780,74.965
13877,0.0801,1.1538,0.0205,23.682,-4.028,12.390,90.264,-0.934,74.927
13887,0.0610,1.1606,-0.0259,12.939,0.488,5.249,90.401,-1.005,74.932
13897,0.0210,1.1035,-0.0371,-8.606,1.587,-1.282,90.330,-0.994,74.949
13907,-0.0244,1.0215,-0.0288,-29.907,-1.038,-7.141,90.049,-0.901,74.938
13917,-0.0444,0.9766,0.0312,-41.687,-6.287,-9.949,89.615,-0.769,74.872
13927,-0.0308,0.9541,0.0688,-38.696,-13.733,-7.751,89.198,-0.665,74.734
13937,-0.0176,0.9922,0.0845,-21.729,-22.766,-2.747,88.945,-0.626,74.509
13947,-0.0151,1.0464,0.1040,1.526,-25.757,1.343,88.918,-0.626,74.251
13957,0.0024,1.0386,0.1011,23.804,-18.799,3.540,89.110,-0.659,74.064
13967,0.0342,1.0620,0.1172,31.372,-7.629,3.906,89.368,-0.714,73.987
13977,0.0483,1.1294,0.1323,23.376,3.479,1.953,89.539,-0.747,74.026
13987,0.0654,1.1436,0.1055,10.620,13.489,-2.136,89.594,-0.753,74.158
13997,0.0522,1.0610,0.0181,-2.319,20.386,-8.667,89.561,-0.687,74.361
14007,0.0093,0.9639,-0.0786,-13.672,23.376,-15.442,89.473,-0.527,74.592
14017,-0.0083,0.8960,-0.1562,-18.616,19.592,-17.090,89.390,-0.346,74.789
14027,-0.0352,0.8213,-0.1362,-10.376,-6.226,-4.272,89.390,-0.280,74.724
14037,-0.0234,0.9141,0.0254,-6.958,-20.020,4.578,89.313,-0.308,74.526
14047,-0.0269,1.0430,0.2041,0.244,-27.649,12.756,89.214,-0.417,74.251
14057,0.0103,1.1655,0.3779,7.324,-20.813,16.541,89.116,-0.588,74.042
14067,0.0845,1.3008,0.4360,12.695,-1.465,12.268,89.066,-0.736,74.031
14077,0.1201,1.2754,0.3042,15.564,22.400,2.808,89.088,-0.807,74.257
14087,0.0425,1.0825,0.0767,11.292,42.664,-9.644,89.165,-0.720,74.680
14097,-0.0571,0.8560,-0.1719,-3.967,51.208,-21.790,89.242,-0.450,75.190
14107,-0.1357,0.7139,-0.3398,-22.339,40.771,-25.024,89.280,-0.099,75.597
14117,-0.1230,0.6660,-0.3550,-32.104,17.517,-16.296,89.247,0.154,75.767
14128,-0.0464,0.7588,-0.3003,-25.391,-14.160,-0.977,89.220,0.192,75.624
14137,0.0220,1.0005,-0.1699,-1.587,-51.880,14.771,89.308,0.027,75.108
14147,0.0581,1.1523,0.0083,27.466,-74.768,28.381,89.583,-0.286,74.366
14157,0.1104,1.1880,0.2236,39.551,-63.599,31.433,89.874,-0.654,73.729
14167,0.1665,1.2881,0.4326,27.649,-29.846,21.240,89.967,-0.928,73.433
14177,0.1909,1.3433,0.4678,15.808,13.916,8.118,89.929,-1.071,73.575
14187,0.1206,1.2368,0.3228,7.690,57.312,-3.235,89.846,-1.082,74.147
14197,0.0117,1.0249,0.1011,-0.854,84.534,-16.296,89.769,-0.917,74.993
14207,-0.1167,0.8071,-0.1128,-11.963,83.069,-25.879,89.720,-0.566,75.822
14217,-0.1494,0.7646,-0.2275,-23.987,59.265,-23.804,89.643,-0.214,76.410
14227,-0.0576,0.7739,-0.2778,-27.039,25.513,-12.390,89.577,-0.049,76.668
14237,-0.0347,0.7798,-0.3271,-7.751,-14.954,-2.869,89.731,0.000,76.520
14247,-0.0576,0.8164,-0.3066,19.348,-58.289,3.601,90.132,0.000,75.932
14257,-0.0278,0.9404,-0.1353,26.001,-83.191,15.442,90.472,-0.132,75.103
14267,0.0742,1.1328,0.1572,9.949,-75.989,23.743,90.489,-0.396,74.339
14277,0.1592,1.3291,0.4531,-8.057,-48.462,20.203,90.220,-0.654,73.856
14287,0.1733,1.4126,0.6094,-12.878,-10.071,9.644,90.088,-0.753,73.751
14297,0.1147,1.3511,0.5547,-7.202,32.837,-1.282,90.011,-0.736,74.081
14307,0.0498,1.1577,0.3076,0.000,71.350,-11.841,90.005,-0.621,74.795
14317,-0.0337,0.8667,-0.0352,2.441,87.585,-20.508,90.016,-0.412,75.668
14327,-0.1108,0.7275,-0.3188,0.916,74.524,-23.560,90.022,-0.181,76.415
14337,-0.0454,0.7480,-0.4302,-6.165,45.959,-15.686,89.962,-0.022,76.877
14347,0.0054,0.7661,-0.4746,-3.357,8.972,-2.991,89.929,0.000,76.965
14357,0.0200,0.8218,-0.4976,13.611,-34.485,3.906,90.060,-0.033,76.619
14367,-0.0039,0.9683,-0.3604,25.757,-78.308,10.498,90.319,-0.137,75.839
14377,0.0454,1.1270,-0.0522,15.808,-91.492,19.531,90.478,-0.324,74.921
14387,0.1382,1.2373,0.3042,-8.484,-74.585,19.836,90.401,-0.516,74.174
14397,0.1582,1.2026,0.5493,-27.527,-40.833,8.850,90.126,-0.604,73.768
14407,0.0752,1.1313,0.6367,-36.072,2.380,-2.441,89.769,-0.582,73.790
14417,-0.0044,1.0273,0.4585,-33.875,48.889,-9.460,89.423,-0.483,74.279
14427,-0.0024,0.9326,0.1719,-23.193,79.712,-11.780,89.187,-0.357,75.075
14437,-0.0142,0.8047,-0.0776,-8.179,78.735,-9.827,89.099,-0.247,75.861
14447,0.0190,0.6865,-0.2261,1.160,52.490,-6.592,89.110,-0.176,76.382
14457,0.0581,0.7031,-0.2202,-1.587,18.738,-0.732,89.094,-0.165,76.569
14467,0.1069,0.8447,-0.1743,-5.249,-12.451,5.920,89.039,-0.225,76.448
14477,0.0952,0.9482,-0.1396,7.019,-44.312,11.353,89.110,-0.346,76.003
14487,0.0454,1.0371,-0.0620,18.127,-62.683,16.235,89.297,-0.516,75.383
14497,0.0454,1.1563,0.1064,12.878,-57.922,18.066,89.429,-0.703,74.806
14507,0.0415,1.2354,0.3271,-3.174,-40.222,14.160,89.401,-0.851,74.405
14517,0.0078,1.2192,0.4873,-17.212,-15.442,6.165,89.231,-0.912,74.251
14527,-0.0850,1.1338,0.5215,-21.851,9.888,-0.427,89.011,-0.906,74.350
14537,-0.1235,1.0483,0.3687,-16.602,33.508,-3.540,88.841,-0.868,74.685
14547,-0.0654,1.0151,0.1304,-6.592,49.194,-3.845,88.770,-0.818,75.174
14556,0.0000,0.9917,-0.1270,5.310,46.936,-3.723,88.813,-0.775,75.641
14567,0.0327,1.0239,-0.3271,13.855,30.823,-2.930,88.951,-0.736,75.948
14577,0.0566,1.0679,-0.4248,15.381,12.024,-0.854,89.099,-0.725,76.069
14587,0.0542,1.0913,-0.4243,14.648,-10.986,0.366,89.247,-0.731,75.959
14597,0.0005,1.1270,-0.2847,8.972,-37.842,0.732,89.346,-0.742,75.580
14607,-0.0693,1.1016,-0.0488,-6.287,-52.429,1.221,89.286,-0.764,75.059
14617,-0.0625,1.0874,0.2124,-27.222,-45.654,-1.770,89.022,-0.747,74.603
14628,-0.0171,1.0747,0.3950,-39.734,-25.574,-5.371,88.627,-0.698,74.344
14637,0.0361,1.0840,0.4365,-40.771,1.221,-5.188,88.220,-0.648,74.355
14647,0.0947,1.0913,0.3154,-25.391,29.053,-3.906,87.962,-0.599,74.647
14657,0.1240,1.0630,0.0918,-0.427,48.523,-4.822,87.951,-0.533,75.130
14667,0.0874,0.9395,-0.1631,19.958,52.856,-7.263,88.149,-0.445,75.652
14677,-0.0049,0.7734,-0.3247,28.015,37.964,-9.399,88.423,-0.335,76.031
14687,-0.0518,0.7749,-0.2920,16.663,11.536,-6.897,88.594,-0.264,76.146
14697,-0.0415,0.8140,-0.1714,-1.221,-13.611,0.244,88.577,-0.269,76.009
14707,-0.0205,0.8770,-0.0532,-4.944,-34.424,5.615,88.533,-0.335,75.663
14717,0.0127,0.9858,0.0864,-0.854,-47.119,9.338,88.528,-0.439,75.196
14727,0.0796,1.1260,0.2715,4.333,-46.997,13.184,88.572,-0.582,74.729
14737,0.1416,1.2227,0.4512,13.123,-36.316,15.564,88.709,-0.747,74.372
14747,0.1606,1.2402,0.5874,27.405,-15.259,15.137,88.984,-0.901,74.224
14757,0.1455,1.1768,0.5698,48.828,13.123,10.376,89.473,-1.005,74.355
14767,0.0596,1.0435,0.4214,61.829,39.001,4.517,90.082,-1.049,74.745
14777,-0.0142,0.9243,0.1685,55.481,58.472,-2.441,90.626,-1.022,75.328
14787,-0.1011,0.8638,-0.1182,34.058,64.575,-7.507,91.022,-0.879,75.976
14797,-0.1123,0.8550,-0.3711,9.155,59.326,-8.728,91.329,-0.725,76.569
14807,-0.0923,0.8374,-0.5425,-6.836,41.565,-7.751,91.571,-0.599,76.987
14817,-0.0679,0.8013,-0.5923,-17.883,16.296,-5.737,91.741,-0.500,77.151
14827,-0.0142,0.8428,-0.4761,-32.959,-9.277,-1.282,91.692,-0.472,77.058
14837,0.0693,1.0200,-0.2129,-45.837,-33.142,3.967,91.346,-0.533,76.729
14847,0.1147,1.1909,0.0933,-44.800,-51.880,9.155,90.846,-0.665,76.207
14857,0.1221,1.2905,0.3804,-33.569,-57.983,11.902,90.346,-0.818,75.624
14867,0.1055,1.3413,0.5850,-21.851,-46.936,9.094,89.901,-0.939,75.157
14877,0.0610,1.3403,0.5928,-9.155,-18.494,1.465,89.577,-0.967,74.971
14887,0.0215,1.2314,0.3867,5.310,15.930,-6.836,89.456,-0.901,75.130
14897,-0.0308,1.0820,0.0669,16.418,45.532,-15.015,89.583,-0.720,75.586
14907,-0.0327,0.9209,-0.2319,13.977,61.218,-21.606,89.857,-0.472,76.196
14918,-0.0156,0.8037,-0.4302,-1.282,54.565,-24.780,90.121,-0.214,76.740
14928,0.0088,0.7969,-0.4766,-19.043,28.320,-22.644,90.242,0.000,77.025
14937,0.0649,0.8467,-0.3916,-31.372,-5.554,-17.456,90.176,0.132,76.970
14948,0.0977,0.9849,-0.1870,-30.151,-38.147,-12.207,89.984,0.198,76.586
14957,0.0928,1.0693,0.0884,-11.047,-62.195,-6.714,89.824,0.214,75.965
14968,0.0669,1.0435,0.3506,13.794,-70.068,2.014,89.775,0.154,75.262
14978,0.0840,0.9980,0.5659,19.775,-56.580,7.080,89.676,0.038,74.702
14988,0.0410,0.9429,0.5972,11.597,-26.245,2.380,89.467,0.000,74.438
14997,-0.0469,0.8784,0.3589,9.583,10.803,-3.662,89.346,0.060,74.542
15007,-0.0420,0.8413,0.0557,12.878,46.387,-4.456,89.445,0.137,75.009
15018,0.0015,0.7939,-0.1777,16.113,62.012,-3.662,89.736,0.176,75.630
15028,0.0381,0.7749,-0.2310,14.709,45.044,-1.099,90.049,0.159,76.080
15038,0.0454,0.8174,-0.1265,6.348,9.949,5.127,90.203,0.077,76.179
15048,0.0630,0.9106,0.0220,1.831,-23.132,12.634,90.203,-0.082,75.943
15058,0.0151,1.0273,0.0991,11.597,-54.810,16.663,90.264,-0.253,75.399
15068,-0.0327,1.0957,0.0771,31.433,-73.608,18.311,90.533,-0.412,74.658
15078,-0.0283,1.1211,0.0347,41.077,-70.435,20.203,90.923,-0.588,73.954
15088,0.0220,1.1753,0.0688,35.583,-51.941,18.311,91.236,-0.764,73.433
15098,0.0928,1.2690,0.2451,22.949,-26.062,12.268,91.346,-0.912,73.169
15108,0.1040,1.2915,0.4136,11.902,1.160,5.371,91.274,-1.000,73.180
15118,0.0420,1.2578,0.4487,7.690,25.208,-1.709,91.137,-1.000,73.433
15128,-0.0522,1.1567,0.2900,9.705,41.077,-9.583,91.071,-0.879,73.845
15138,-0.1123,0.9932,-0.0034,13.611,44.434,-17.822,91.192,-0.637,74.290
15148,-0.1260,0.8716,-0.2939,11.108,37.354,-21.973,91.472,-0.341,74.669
15158,-0.0854,0.8389,-0.5200,2.869,24.841,-19.043,91.802,-0.104,74.921
15168,0.0024,0.8174,-0.6440,-1.526,5.981,-12.268,92.153,0.005,74.987
15177,0.0747,0.8467,-0.5493,-7.751,-22.339,-3.662,92.384,0.011,74.762
15187,0.1108,0.9648,-0.2578,-23.010,-49.438,5.066,92.280,-0.077,74.268
15198,0.1201,1.1128,0.1470,-38.818,-60.120,10.498,91.796,-0.220,73.663
15208,0.1030,1.2456,0.5015,-46.143,-50.476,9.766,91.104,-0.341,73.158
15218,0.0801,1.3262,0.6611,-38.452,-23.560,3.479,90.450,-0.401,72.922
15228,0.0210,1.2939,0.5688,-15.015,11.963,-4.089,90.060,-0.363,73.037
15238,-0.0381,1.0820,0.2217,14.099,47.607,-10.193,90.082,-0.242,73.515
15248,-0.0605,0.8906,-0.1821,28.625,71.594,-15.503,90.472,-0.044,74.229
15258,-0.0234,0.7754,-0.4419,20.325,73.486,-16.052,90.967,0.115,74.971
15268,0.0195,0.7017,-0.5439,-2.197,53.528,-10.193,91.313,0.192,75.504
15278,0.0601,0.7231,-0.4810,-28.503,21.362,-4.333,91.357,0.192,75.718
15288,0.0937,0.8560,-0.2954,-48.218,-10.376,0.122,91.055,0.132,75.613
15298,0.0923,0.9678,-0.0742,-49.683,-36.194,3.601,90.599,0.044,75.251
15308,0.0645,1.0020,0.1797,-35.095,-52.063,6.958,90.143,-0.049,74.734
15318,0.0439,1.0112,0.4111,-15.747,-52.856,11.108,89.764,-0.181,74.202
15328,0.0527,1.0498,0.5801,-0.366,-41.565,14.893,89.473,-0.352,73.790
15338,0.0571,1.0957,0.6377,12.329,-20.386,17.578,89.302,-0.549,73.586
15348,0.0532,1.0850,0.5068,23.315,10.620,16.052,89.286,-0.725,73.696
15358,0.0273,1.0581,0.2578,30.823,43.091,9.888,89.456,-0.829,74.125
15368,0.0151,1.0049,-0.0596,30.945,64.819,2.930,89.791,-0.851,74.773
15378,-0.0083,0.9272,-0.3086,21.484,67.139,-2.258,90.181,-0.813,75.449
15388,-0.0078,0.8726,-0.4419,1.343,52.124,-7.446,90.456,-0.725,75.965
15398,-0.0015,0.9189,-0.4468,-22.217,24.292,-8.667,90.483,-0.637,76.212
15408,0.0088,1.0137,-0.3115,-38.757,-5.493,-4.333,90.269,-0.593,76.157
15418,0.0034,1.0576,-0.1602,-35.950,-33.325,-0.671,90.000,-0.577,75.822
15427,-0.0508,1.0879,0.0044,-19.531,-55.725,2.014,89.808,-0.566,75.267
15438,-0.0420,1.1060,0.1519,-2.258,-61.646,5.615,89.714,-0.599,74.652
15448,-0.0015,1.1030,0.3096,8.911,-55.420,8.972,89.659,-0.681,74.097
15458,0.0508,1.1128,0.4404,8.789,-36.316,10.376,89.533,-0.802,73.735
15468,0.0801,1.1318,0.4722,6.897,-5.676,7.080,89.385,-0.901,73.680
15478,0.0596,1.0967,0.3560,13.672,27.100,0.305,89.341,-0.923,73.949
15488,0.0439,1.0078,0.1426,17.334,52.979,-6.226,89.429,-0.873,74.476
15498,0.0068,0.9341,-0.0825,10.315,61.096,-11.292,89.577,-0.747,75.086
15508,-0.0049,0.8813,-0.2603,-3.357,51.208,-14.648,89.709,-0.588,75.597
15518,0.0132,0.8613,-0.3335,-19.226,29.663,-13.977,89.731,-0.450,75.894
15528,0.0571,0.8872,-0.2749,-29.968,3.479,-8.789,89.604,-0.396,75.927
15538,0.0942,0.8901,-0.1841,-23.621,-27.344,-3.540,89.495,-0.417,75.657
15548,0.0337,0.9204,-0.0405,-1.343,-61.768,3.174,89.517,-0.472,75.037
15558,0.0215,0.9688,0.1460,18.616,-77.820,13.794,89.626,-0.621,74.262
15568,0.0381,0.9780,0.3306,22.583,-67.993,20.813,89.676,-0.846,73.581
15578,0.0063,1.0005,0.4199,7.629,-36.072,17.761,89.533,-1.022,73.224
15588,-0.0415,0.9390,0.3501,-19.836,14.343,9.766,89.132,-1.082,73.367
15598,-0.0654,0.8667,0.1890,-44.739,66.467,0.305,88.561,-1.022,74.031
15608,-0.0039,0.8394,0.0352,-53.711,91.675,0.610,88.006,-0.994,74.949
15618,0.1079,0.8569,0.0151,-43.152,80.139,15.869,87.572,-1.181,75.756
15628,0.1802,0.9482,0.0483,-9.949,39.551,32.349,87.462,-1.582,76.163
15638,0.1367,1.0674,0.0083,42.114,-14.160,42.358,87.902,-2.065,76.042
15648,0.0566,1.0898,-0.0557,89.722,-65.674,46.265,88.863,-2.554,75.399
15658,-0.0176,1.1172,-0.0854,104.492,-91.980,41.321,89.995,-2.950,74.487
15668,-0.0283,1.2417,-0.0420,69.397,-80.261,29.236,90.742,-3.197,73.685
15678,0.0034,1.4395,0.0732,13.000,-47.913,13.733,90.862,-3.296,73.202
15688,0.0410,1.4932,0.2246,-27.893,-10.315,-0.366,90.588,-3.290,73.098
15698,0.0630,1.3755,0.3218,-45.532,20.630,-14.282,90.121,-3.148,73.306
15708,0.0029,1.2095,0.3159,-35.461,40.527,-25.391,89.742,-2.895,73.713
15718,-0.0552,0.9834,0.1392,-9.338,50.171,-24.963,89.626,-2.642,74.218
15728,-0.0034,0.8462,-0.0371,18.066,48.340,-17.700,89.780,-2.461,74.696
15738,0.0786,0.7920,-0.1558,38.818,31.860,-11.414,90.159,-2.346,75.015
15748,0.1343,0.8555,-0.2153,46.448,7.385,-6.409,90.621,-2.285,75.092
15758,0.1943,0.9238,-0.2754,40.771,-14.282,-3.601,91.033,-2.247,74.949
15768,0.1851,0.9302,-0.2593,26.855,-32.593,-3.540,91.313,-2.203,74.625
15778,0.1577,0.9541,-0.1040,-0.793,-40.100,-3.967,91.318,-2.153,74.224
15788,0.0918,0.9004,0.1099,-29.358,-36.072,-5.676,91.038,-2.093,73.861
15798,-0.0190,0.8130,0.2847,-39.978,-23.437,-8.118,90.648,-2.005,73.630
15808,-0.0586,0.8569,0.3613,-34.668,-4.150,-6.348,90.302,-1.939,73.592
15818,-0.0151,0.9150,0.3086,-9.521,15.930,1.587,90.203,-1.956,73.751
15828,0.0386,0.9370,0.1104,22.644,32.410,9.277,90.417,-2.054,74.070
15838,0.0913,0.9873,-0.1416,39.856,39.551,11.536,90.802,-2.170,74.465
15848,0.1528,1.0229,-0.3096,33.752,30.334,9.094,91.132,-2.263,74.767
15858,0.1357,1.0098,-0.3506,7.751,9.277,4.761,91.203,-2.313,74.861
15868,0.0840,0.9946,-0.3003,-25.085,-10.681,-0.061,90.956,-2.313,74.756
15878,0.0464,1.0337,-0.1519,-50.720,-27.710,-3.357,90.461,-2.274,74.476
15888,0.0093,1.0513,0.0562,-57.739,-41.504,-3.174,89.901,-2.241,74.064
15898,-0.0249,1.0410,0.2549,-45.959,-45.044,-0.122,89.456,-2.236,73.614
15908,-0.0088,1.1182,0.4297,-27.832,-36.621,3.601,89.193,-2.280,73.246
15918,0.0239,1.1440,0.4771,-0.610,-17.090,4.883,89.193,-2.329,73.076
15928,0.0405,1.1499,0.3613,26.794,8.789,3.357,89.456,-2.362,73.163
15938,0.0356,1.1582,0.1377,40.955,32.654,-0.549,89.857,-2.351,73.493
15948,0.0273,1.0532,-0.1289,40.039,46.814,-7.812,90.236,-2.274,73.960
15958,-0.0073,0.8975,-0.3340,21.667,45.898,-16.724,90.434,-2.109,74.421
15968,-0.0083,0.8477,-0.4214,-6.775,31.616,-19.897,90.357,-1.912,74.734
15978,0.0225,0.8364,-0.3647,-27.100,6.409,-13.367,90.082,-1.780,74.800
15988,0.0620,0.8784,-0.1626,-33.081,-21.545,-3.723,89.758,-1.741,74.586
15998,0.0864,0.9785,0.0850,-25.391,-44.617,4.089,89.517,-1.785,74.141
16008,0.0786,1.0552,0.3047,-3.784,-55.359,8.972,89.495,-1.879,73.586
16018,0.0757,1.0879,0.4438,24.902,-49.866,11.719,89.764,-2.000,73.092
16028,0.0918,1.1245,0.4990,46.753,-30.762,13.367,90.242,-2.137,72.784
16038,0.1172,1.1284,0.4702,55.969,-5.005,13.306,90.802,-2.269,72.729
16048,0.1245,1.1187,0.3271,56.824,23.193,8.362,91.362,-2.357,72.960
16058,0.0874,1.0205,0.0698,50.720,46.143,-0.610,91.851,-2.357,73.422
16068,0.0146,0.8945,-0.1602,32.959,55.847,-9.521,92.153,-2.280,73.987
16078,-0.0269,0.8438,-0.3154,4.395,50.598,-13.489,92.181,-2.164,74.498
16088,-0.0215,0.8701,-0.3828,-24.658,33.264,-10.925,91.917,-2.071,74.833
16098,-0.0137,0.9155,-0.3545,-41.260,9.277,-6.653,91.505,-2.005,74.927
16108,0.0005,1.0195,-0.2266,-47.058,-13.794,-3.235,91.038,-1.972,74.789
16118,0.0234,1.1279,-0.0649,-43.884,-31.982,-0.732,90.610,-1.956,74.471
16129,0.0264,1.1714,0.0903,-31.189,-42.419,1.526,90.313,-1.967,74.048
16138,0.0293,1.1924,0.2710,-18.372,-41.870,2.686,90.143,-1.994,73.630
16148,0.0342,1.1128,0.3896,-7.812,-31.921,1.831,90.077,-2.010,73.306
16158,0.0303,1.0669,0.4194,-3.662,-11.658,0.671,90.044,-2.016,73.191
16168,0.0479,1.0356,0.2832,0.732,14.038,-1.404,90.044,-2.005,73.334
16178,0.0791,1.0005,0.0654,6.836,36.865,-3.174,90.104,-1.972,73.702
16188,0.1250,0.9849,-0.1157,3.723,50.049,-6.165,90.187,-1.961,74.202
16198,0.1274,0.9780,-0.1982,-6.470,44.617,-10.254,90.220,-1.917,74.647
16208,0.0674,0.9102,-0.2417,-13.672,26.550,-12.756,90.225,-1.813,74.916
16218,0.0166,0.8447,-0.2197,-17.822,5.493,-12.329,90.187,-1.681,74.971
16228,-0.0273,0.8164,-0.1436,-17.944,-13.062,-9.155,90.115,-1.555,74.839
16238,-0.0664,0.7930,-0.1064,-6.592,-28.137,-4.333,90.132,-1.450,74.559
16248,-0.0396,0.8677,-0.0649,10.315,-38.391,4.578,90.286,-1.456,74.174
16258,0.0610,1.0132,0.0137,21.118,-42.114,15.381,90.494,-1.626,73.751
16268,0.1753,1.1846,0.1973,24.536,-42.297,20.264,90.648,-1.890,73.328
16278,0.2275,1.2959,0.4160,26.245,-41.443,17.639,90.736,-2.131,72.911
16288,0.2212,1.3081,0.5630,32.776,-34.485,11.169,90.835,-2.307,72.565
16298,0.1675,1.2529,0.5391,44.312,-16.235,3.174,91.038,-2.384,72.400
16308,0.0874,1.1353,0.3472,52.612,9.277,-6.836,91.373,-2.335,72.493
16318,-0.0190,0.9663,0.0625,54.626,33.142,-17.639,91.851,-2.131,72.834
16328,-0.1006,0.7500,-0.2407,42.358,49.377,-25.818,92.411,-1.802,73.334
16338,-0.1206,0.6880,-0.4468,13.977,52.063,-28.992,92.840,-1.434,73.867
16348,-0.0571,0.7651,-0.5151,-14.038,40.344,-20.569,92.999,-1.198,74.279
16358,0.0405,0.8369,-0.4590,-29.968,16.724,-4.211,92.955,-1.181,74.449
16368,0.1099,0.9932,-0.2988,-35.706,-12.634,6.409,92.747,-1.285,74.317
16378,0.1040,1.0947,-0.1523,-25.208,-40.039,9.827,92.554,-1.406,73.916
16388,0.0693,1.1670,0.0283,-9.155,-57.129,11.658,92.439,-1.516,73.339
16398,0.0688,1.1743,0.1812,1.282,-57.495,11.292,92.357,-1.620,72.757
16408,0.0713,1.1421,0.2671,4.089,-43.396,7.751,92.252,-1.697,72.323
16418,0.0356,1.0391,0.2690,0.183,-20.447,0.977,92.093,-1.703,72.120
16428,0.0034,0.9966,0.2266,-6.653,5.249,-5.188,91.879,-1.637,72.175
16438,0.0029,0.9746,0.0908,-7.568,27.832,-8.179,91.719,-1.549,72.455
16448,0.0474,0.9907,-0.0400,-3.662,39.734,-8.423,91.681,-1.489,72.850
16458,0.0635,0.9893,-0.1528,6.348,33.203,-6.897,91.807,-1.450,73.185
16468,0.0635,0.9663,-0.1841,12.573,15.198,-4.333,92.016,-1.439,73.339
16478,0.0532,0.9580,-0.1416,9.460,-2.502,-2.258,92.175,-1.428,73.317
16488,0.0381,0.9795,-0.0601,-0.122,-14.526,-0.732,92.192,-1.428,73.169
16498,0.0034,1.0269,0.0225,-7.324,-23.621,-0.122,92.087,-1.401,72.933
16508,-0.0190,1.0649,0.0937,-6.714,-28.198,0.732,91.956,-1.379,72.653
16518,-0.0073,1.1089,0.1909,-3.479,-24.902,1.770,91.813,-1.368,72.405
16528,0.0273,1.1523,0.2617,3.174,-15.198,1.221,91.703,-1.373,72.252
16538,0.0581,1.1206,0.2236,19.836,-0.061,-1.587,91.769,-1.373,72.252
16548,0.0757,1.0317,0.1050,38.208,13.611,-3.540,92.065,-1.373,72.389
16558,0.0693,0.9331,-0.0342,42.419,22.766,-4.883,92.483,-1.362,72.620
16568,0.0361,0.8574,-0.1567,28.809,27.161,-7.080,92.840,-1.313,72.894
16578,-0.0010,0.7988,-0.2314,5.371,24.902,-8.545,93.021,-1.225,73.147
16588,0.0044,0.8228,-0.2354,-19.348,18.677,-5.371,92.955,-1.176,73.334
16598,0.0479,0.9106,-0.1362,-34.668,10.681,2.380,92.664,-1.219,73.438
16608,0.0791,0.9883,-0.0327,-26.611,0.488,11.108,92.395,-1.362,73.438
16618,0.0703,1.0459,0.0581,-1.221,-12.634,19.348,92.329,-1.577,73.306
16629,0.0498,1.0430,0.0942,31.738,-21.118,25.024,92.571,-1.824,73.081
16638,0.0347,1.0103,0.1162,53.101,-18.921,28.931,93.016,-2.104,72.883
16648,0.0508,1.0449,0.1519,48.523,-2.441,29.053,93.384,-2.395,72.839
16658,0.0454,1.0479,0.1138,33.569,23.315,24.414,93.609,-2.653,73.059
16668,0.0112,1.0156,0.0239,16.724,52.734,18.616,93.702,-2.851,73.575
16678,0.0444,1.0132,-0.1196,-0.549,75.867,12.207,93.691,-3.016,74.328
16688,0.1069,1.0088,-0.2119,-11.169,70.435,4.822,93.625,-3.137,75.026
16698,0.1343,1.0210,-0.2319,-13.611,38.269,2.014,93.560,-3.219,75.410
16708,0.1582,1.0625,-0.2100,-3.479,-6.165,4.517,93.609,-3.312,75.344
16718,0.1216,1.0942,-0.1748,19.531,-59.082,8.667,93.889,-3.389,74.745
16728,0.0068,1.0698,-0.1450,46.082,-93.994,9.888,94.438,-3.395,73.801
16738,-0.0190,1.0283,-0.0210,49.011,-88.074,5.737,94.944,-3.340,72.916
16748,0.0161,1.1118,0.1611,28.870,-55.908,-4.456,95.131,-3.224,72.361
16758,0.0527,1.1235,0.2686,0.122,-14.099,-14.526,94.949,-3.060,72.235
16768,0.0508,1.0981,0.2666,-25.208,27.649,-22.095,94.499,-2.862,72.532
16778,0.0786,1.0977,0.1440,-32.776,60.181,-25.940,94.026,-2.664,73.152
16788,0.0996,1.0654,-0.0479,-17.456,72.144,-22.827,93.807,-2.516,73.889
16798,0.0835,0.9697,-0.2114,13.367,56.824,-17.822,93.999,-2.401,74.465
16808,0.0508,0.8877,-0.2637,30.518,27.222,-13.123,94.411,-2.296,74.745
16818,0.0586,0.8784,-0.2446,24.109,0.977,-8.057,94.763,-2.230,74.762
16828,0.0562,0.9214,-0.2397,9.644,-22.522,-3.967,94.966,-2.186,74.542
16838,0.0176,0.9395,-0.2432,0.122,-41.687,0.183,95.076,-2.142,74.125
16848,-0.0215,0.9180,-0.1924,-3.967,-47.974,4.456,95.125,-2.109,73.647
16858,-0.0063,0.9219,-0.0283,-14.343,-40.771,6.348,94.960,-2.109,73.235
16868,0.0215,0.9526,0.1973,-23.376,-25.330,6.165,94.576,-2.142,72.977
16879,0.0317,0.9932,0.3384,-24.963,-5.005,5.737,94.092,-2.186,72.922
16889,0.0586,1.0210,0.3257,-15.747,16.296,7.141,93.713,-2.280,73.076
16898,0.1045,1.0112,0.1699,7.263,33.203,8.179,93.642,-2.417,73.405
16908,0.1172,0.9722,-0.0566,30.640,36.865,6.165,93.928,-2.543,73.768
16919,0.0942,0.9409,-0.2583,41.504,27.649,2.808,94.438,-2.620,74.042
16929,0.0742,0.9004,-0.3691,33.569,14.221,1.526,94.944,-2.664,74.185
16939,0.0771,0.9077,-0.3496,9.277,-0.610,3.296,95.197,-2.714,74.174
16949,0.0864,0.9746,-0.2236,-19.165,-16.174,7.019,95.092,-2.791,74.009
16958,0.0806,1.0337,-0.0459,-35.645,-31.006,10.315,94.730,-2.884,73.691
16969,0.0381,1.0493,0.1206,-34.729,-38.147,10.986,94.290,-2.955,73.301
16979,0.0107,1.0771,0.2568,-25.391,-30.640,8.606,93.878,-2.994,72.988
