elapsed_ms,acc_x_g,acc_y_g,acc_z_g,gyro_x_dps,gyro_y_dps,gyro_z_dps,angle_x_deg,angle_y_deg,angle_z_deg
0,0.0850,0.9585,0.0757,-28.870,-32.715,-15.015,92.587,-8.849,113.978
10,0.0928,0.9531,0.1201,-17.761,-26.489,-6.531,92.357,-8.740,113.714
20,0.1631,0.9990,0.1152,-7.324,-9.949,5.737,92.208,-8.795,113.610
30,0.2046,1.0210,0.0557,0.366,10.376,12.939,92.142,-8.954,113.714
40,0.2324,1.0679,0.0176,-1.953,26.855,10.315,92.054,-9.097,113.978
50,0.2158,1.0811,-0.0293,-7.141,31.433,-1.343,91.928,-9.119,114.296
60,0.1611,1.0742,-0.0703,-6.165,24.536,-13.977,91.846,-8.981,114.554
70,0.1118,1.0674,-0.0703,2.869,10.132,-18.127,91.873,-8.778,114.659
80,0.1147,1.0693,-0.0698,23.010,-6.958,-12.329,92.131,-8.624,114.593
90,0.1377,1.0273,-0.0811,44.495,-21.667,-0.366,92.626,-8.602,114.373
100,0.1250,0.9858,-0.1001,55.664,-28.442,10.315,93.252,-8.679,114.082
110,0.1528,1.0596,-0.0811,50.720,-22.156,14.587,93.801,-8.806,113.851
123,0.1875,1.1045,-0.0747,38.513,-4.761,13.000,94.191,-8.937,113.796
130,0.1763,1.0469,-0.0859,24.841,15.869,3.784,94.417,-8.992,113.950
140,0.1470,1.0039,-0.0830,5.676,32.043,-10.315,94.427,-8.910,114.285
150,0.0962,0.9346,-0.0820,-13.611,39.063,-21.301,94.235,-8.696,114.692
160,0.0474,0.8789,-0.0786,-27.771,35.706,-24.292,93.911,-8.427,115.071
170,0.0557,0.9043,-0.0713,-31.189,25.085,-18.799,93.571,-8.212,115.340
180,0.1279,1.0220,-0.0601,-18.921,9.460,-7.507,93.367,-8.130,115.439
190,0.2324,1.1226,-0.0664,6.958,-7.385,4.700,93.450,-8.207,115.362
200,0.2598,1.1255,-0.0879,35.156,-21.606,12.329,93.840,-8.366,115.137
210,0.2070,1.0571,-0.1133,51.392,-23.865,11.780,94.406,-8.492,114.890
220,0.1655,0.9570,-0.1367,46.753,-10.315,4.395,94.922,-8.542,114.780
230,0.1011,0.8384,-0.1475,23.193,9.338,-5.798,95.186,-8.470,114.879
240,0.0537,0.7671,-0.1445,-9.094,27.649,-16.602,95.109,-8.289,115.170
250,0.0757,0.8296,-0.1152,-42.114,38.269,-25.146,94.658,-8.042,115.582
260,0.1055,0.9204,-0.1016,-57.312,33.508,-26.672,94.059,-7.789,115.939
270,0.1455,1.0107,-0.0894,-46.021,16.235,-19.348,93.593,-7.614,116.115
280,0.2031,1.0908,-0.0649,-16.418,-5.981,-7.080,93.433,-7.570,116.060
290,0.2349,1.0566,-0.0308,18.066,-30.334,3.540,93.636,-7.635,115.752
300,0.1934,0.9717,0.0024,42.542,-48.340,10.010,94.081,-7.740,115.258
310,0.1533,0.9429,0.0112,46.509,-45.288,12.512,94.559,-7.850,114.796
320,0.1284,0.9253,-0.0078,34.729,-23.865,9.827,94.894,-7.927,114.549
330,0.1035,0.8999,-0.0435,15.381,3.113,1.892,95.021,-7.932,114.576
340,0.0708,0.8901,-0.0679,-10.071,29.236,-6.592,94.872,-7.861,114.879
350,0.0835,0.9321,-0.0786,-35.461,45.898,-13.367,94.460,-7.740,115.351
360,0.1328,1.0278,-0.0830,-45.471,42.908,-15.503,93.950,-7.614,115.796
370,0.1680,1.0420,-0.1060,-29.053,21.057,-10.498,93.653,-7.542,116.016
380,0.1670,0.9790,-0.1245,0.488,-6.104,-1.160,93.702,-7.548,115.950
390,0.1694,0.9736,-0.1216,24.292,-32.654,7.568,94.021,-7.625,115.620
400,0.1499,1.0449,-0.0596,36.865,-54.626,15.991,94.449,-7.751,115.060
410,0.1094,1.1030,0.0054,41.870,-55.176,21.240,94.894,-7.894,114.483
420,0.0933,1.0874,0.0132,39.307,-31.128,17.639,95.273,-8.015,114.159
430,0.0942,1.0708,-0.0063,29.663,4.089,5.981,95.510,-8.047,114.192
440,0.0811,1.0532,-0.0562,7.935,39.978,-5.615,95.510,-7.993,114.598
450,0.0947,0.9927,-0.1484,-15.686,65.430,-15.015,95.290,-7.883,115.274
460,0.0986,0.9238,-0.2612,-34.119,71.350,-21.301,94.960,-7.712,116.010
470,0.0972,0.9053,-0.3564,-39.917,56.946,-20.813,94.647,-7.537,116.598
480,0.0986,0.9180,-0.3589,-29.297,25.330,-14.038,94.493,-7.399,116.867
490,0.1089,0.9653,-0.2886,-10.254,-13.062,-4.089,94.526,-7.339,116.741
501,0.1475,1.0146,-0.1748,10.925,-51.636,6.531,94.757,-7.372,116.213
510,0.1504,1.0942,-0.0112,25.208,-80.688,16.357,95.070,-7.471,115.389
520,0.1484,1.1611,0.1221,29.907,-76.233,22.095,95.356,-7.619,114.604
530,0.1831,1.1797,0.1909,26.489,-41.992,17.639,95.526,-7.767,114.164
540,0.1792,1.1274,0.1758,18.860,0.305,5.188,95.570,-7.828,114.164
550,0.1255,1.0186,0.1045,6.042,41.138,-8.362,95.460,-7.778,114.587
560,0.0610,0.8667,-0.0273,-11.902,71.289,-19.592,95.208,-7.614,115.318
570,0.0337,0.8511,-0.1631,-30.029,81.360,-24.719,94.856,-7.388,116.158
580,0.0752,0.9355,-0.2607,-34.851,70.068,-20.508,94.526,-7.218,116.884
590,0.1387,0.9780,-0.3110,-18.005,40.527,-11.902,94.427,-7.136,117.301
600,0.1719,1.0264,-0.2607,4.578,6.104,-3.540,94.565,-7.125,117.361
610,0.1553,1.0464,-0.1694,26.428,-22.339,1.526,94.900,-7.136,117.136
620,0.1099,1.0825,-0.0503,45.410,-34.546,1.038,95.367,-7.103,116.790
630,0.0908,1.0820,0.0610,58.716,-25.269,-1.526,95.894,-7.042,116.537
640,0.0977,1.0298,0.1279,66.467,-1.343,-6.104,96.422,-6.965,116.532
650,0.1040,0.9512,0.1348,69.092,29.785,-13.855,96.927,-6.850,116.845
660,0.1138,0.8965,0.0527,64.087,58.533,-22.583,97.383,-6.702,117.455
670,0.1694,0.8691,-0.2642,30.334,80.688,-29.419,97.685,-6.559,118.301
680,0.1963,0.9771,-0.3950,12.390,66.772,-27.649,97.866,-6.416,119.004
690,0.1987,1.0874,-0.4644,8.057,42.542,-21.973,98.053,-6.290,119.460
701,0.1694,1.0786,-0.4722,15.686,15.625,-14.404,98.344,-6.185,119.636
711,0.1284,1.0107,-0.4097,19.897,-9.766,-8.057,98.685,-6.097,119.548
720,0.0698,0.9492,-0.2847,11.841,-31.555,-3.052,98.915,-5.999,119.240
730,0.0322,0.9448,-0.1465,-3.235,-39.307,1.770,98.921,-5.916,118.845
740,0.0557,1.0103,-0.0630,-15.137,-24.963,3.784,98.745,-5.889,118.592
750,0.1187,1.0854,-0.0444,-20.020,1.343,2.808,98.481,-5.922,118.603
760,0.1675,1.1147,-0.0732,-21.179,27.344,-1.099,98.196,-5.977,118.878
770,0.1611,1.0645,-0.1333,-21.667,42.786,-7.751,97.927,-5.988,119.312
780,0.1284,1.0083,-0.1909,-25.024,43.396,-13.306,97.663,-5.927,119.762
791,0.0703,0.9175,-0.2534,-25.940,32.043,-13.855,97.449,-5.817,120.103
801,0.0391,0.8794,-0.2832,-21.606,12.817,-10.925,97.322,-5.691,120.240
811,0.0381,0.8770,-0.2515,-14.648,-6.836,-5.371,97.273,-5.598,120.179
820,0.0488,0.9102,-0.1621,-5.981,-26.550,1.282,97.267,-5.548,119.916
831,0.0703,1.0439,-0.0425,2.563,-42.358,7.751,97.284,-5.559,119.482
841,0.1147,1.1982,0.0669,10.620,-39.734,13.672,97.322,-5.641,119.070
851,0.1338,1.2153,0.0947,17.700,-20.508,13.672,97.405,-5.757,118.850
861,0.1118,1.1333,0.0601,18.738,4.150,4.211,97.482,-5.801,118.883
871,0.0703,1.0269,0.0063,7.935,26.978,-9.338,97.454,-5.724,119.163
881,0.0122,0.9014,-0.0703,-12.146,42.114,-19.165,97.256,-5.543,119.608
891,-0.0264,0.8115,-0.1382,-31.860,45.410,-22.583,96.921,-5.301,120.092
901,-0.0361,0.8169,-0.1660,-41.504,36.987,-19.714,96.520,-5.076,120.482
911,-0.0298,0.8813,-0.1646,-32.593,19.714,-11.597,96.218,-4.911,120.690
921,-0.0083,0.9287,-0.1504,-5.188,-2.441,0.061,96.202,-4.856,120.668
931,0.0244,0.9824,-0.0815,25.269,-24.658,10.986,96.454,-4.905,120.410
941,0.0327,1.0278,0.0049,46.448,-35.339,18.005,96.883,-5.010,120.037
951,0.0615,1.0625,0.0615,51.636,-25.391,18.066,97.311,-5.142,119.762
961,0.1069,1.1099,0.0796,41.321,-3.723,10.620,97.614,-5.246,119.713
971,0.1299,1.1387,0.0557,24.353,20.996,-0.427,97.729,-5.279,119.921
981,0.1167,1.0664,-0.0278,7.263,42.358,-10.559,97.701,-5.240,120.355
991,0.0962,0.9688,-0.1265,-10.986,53.589,-18.738,97.537,-5.136,120.916
1001,0.0869,0.9365,-0.2207,-27.100,51.880,-21.973,97.278,-4.988,121.459
1011,0.0913,0.9434,-0.2847,-32.837,39.490,-18.372,97.015,-4.856,121.877
1021,0.0840,0.9390,-0.3184,-24.414,19.592,-10.498,96.872,-4.779,122.086
1031,0.0869,0.9736,-0.3125,-8.911,-2.563,-2.808,96.894,-4.746,122.064
1041,0.0776,1.0020,-0.2344,5.066,-24.780,4.578,97.026,-4.757,121.811
1051,0.0776,1.0220,-0.1030,12.207,-36.987,10.376,97.169,-4.812,121.432
1061,0.0815,1.0005,0.0137,11.047,-31.250,11.353,97.224,-4.883,121.102
1071,0.0889,1.0059,0.0859,1.709,-11.292,6.348,97.130,-4.933,120.987
1081,0.0840,1.0078,0.0786,-9.216,14.771,-0.061,96.910,-4.949,121.130
1091,0.0962,1.0186,-0.0020,-17.944,39.368,-4.333,96.630,-4.960,121.531
1101,0.1367,1.0322,-0.1182,-22.095,53.589,-7.141,96.367,-4.977,122.069
1111,0.1631,1.0522,-0.2314,-19.165,51.147,-7.935,96.191,-4.988,122.591
1121,0.1548,1.0176,-0.3315,-9.705,36.743,-5.615,96.180,-5.004,122.964
1131,0.1406,0.9888,-0.3677,-0.732,17.578,-1.526,96.301,-5.037,123.140
1141,0.1343,0.9829,-0.3535,6.470,-2.258,1.953,96.504,-5.076,123.118
1151,0.1279,0.9795,-0.2788,11.475,-22.278,5.371,96.729,-5.125,122.888
1161,0.1084,0.9907,-0.1304,11.841,-34.851,9.216,96.883,-5.186,122.531
1171,0.1074,1.0278,-0.0044,9.888,-30.273,11.841,96.943,-5.273,122.212
1181,0.1338,1.0884,0.0435,8.606,-11.841,10.925,96.949,-5.383,122.080
1191,0.1470,1.0591,0.0044,9.644,11.108,6.775,96.965,-5.488,122.184
1201,0.1450,0.9736,-0.0781,5.188,30.334,0.854,96.965,-5.565,122.487
1211,0.1562,0.9380,-0.1738,-9.705,40.405,-4.456,96.861,-5.603,122.893
1221,0.1577,0.9199,-0.2734,-21.790,38.574,-6.165,96.707,-5.625,123.289
1231,0.1631,0.9375,-0.3188,-24.353,27.405,-4.578,96.559,-5.652,123.563
1241,0.1602,0.9805,-0.2773,-15.625,9.521,-0.183,96.487,-5.691,123.662
1251,0.1265,1.0044,-0.1846,1.160,-10.254,6.714,96.548,-5.762,123.552
1261,0.0986,1.0005,-0.0620,17.700,-27.710,13.123,96.724,-5.856,123.261
1271,0.0850,0.9600,0.0557,26.001,-34.973,16.113,96.916,-5.966,122.893
1281,0.0806,0.9146,0.1138,24.780,-25.208,14.160,97.048,-6.064,122.624
1291,0.0801,0.9321,0.1069,17.273,-3.296,8.484,97.092,-6.136,122.580
1301,0.0835,0.9185,0.0093,10.681,22.827,2.319,97.097,-6.174,122.805
1311,0.1045,0.8706,-0.1382,2.197,44.617,-2.686,97.086,-6.207,123.250
1321,0.1323,0.8823,-0.2690,-10.864,53.040,-4.517,97.020,-6.251,123.788
1331,0.1602,0.9321,-0.3604,-19.531,46.692,-0.732,96.921,-6.328,124.255
1341,0.1689,1.0083,-0.3887,-18.921,28.809,5.615,96.844,-6.443,124.536
1351,0.1592,1.0801,-0.3926,-7.812,4.456,10.437,96.894,-6.564,124.568
1361,0.1289,1.1196,-0.3359,3.174,-18.738,12.329,97.048,-6.658,124.365
1371,0.0967,1.1191,-0.2393,6.958,-34.119,12.756,97.207,-6.724,124.008
1381,0.0674,1.0933,-0.1221,3.845,-36.194,11.536,97.278,-6.762,123.635
1391,0.0557,1.0962,-0.0254,-3.235,-26.062,8.545,97.218,-6.773,123.360
1401,0.0581,1.0933,0.0103,-7.935,-9.277,5.432,97.075,-6.779,123.261
1411,0.0757,1.0522,-0.0195,-10.132,7.385,3.723,96.905,-6.801,123.333
1421,0.1045,1.0317,-0.0835,-13.672,20.081,2.319,96.724,-6.833,123.530
1431,0.1216,1.0308,-0.1562,-16.846,25.513,1.648,96.548,-6.877,123.783
1441,0.1323,1.0449,-0.2241,-16.357,23.499,2.136,96.411,-6.927,124.014
1451,0.1440,1.0669,-0.2617,-11.292,16.235,3.479,96.356,-6.987,124.173
1461,0.1377,1.0513,-0.2681,-1.953,6.714,4.944,96.411,-7.042,124.233
1471,0.1230,1.0435,-0.2305,5.127,-1.282,6.409,96.520,-7.103,124.217
1481,0.1006,1.0259,-0.1509,7.568,-5.127,7.751,96.625,-7.158,124.156
1491,0.0732,1.0015,-0.0571,6.287,-2.319,9.277,96.658,-7.213,124.124
1502,0.0586,0.9941,0.0293,2.319,9.033,10.681,96.586,-7.289,124.200
1511,0.0654,1.0073,0.0664,-1.648,27.405,11.169,96.432,-7.394,124.459
1521,0.0840,1.0205,0.0454,-2.502,46.936,11.475,96.262,-7.537,124.920
1531,0.1079,1.0200,-0.0117,-0.793,63.477,12.268,96.114,-7.707,125.541
1541,0.1338,1.0112,-0.0830,2.136,73.547,12.329,96.026,-7.905,126.266
1551,0.1484,0.9893,-0.1597,5.310,75.928,11.780,96.010,-8.108,127.013
1561,0.1587,0.9731,-0.2134,7.019,70.740,11.047,96.042,-8.295,127.716
1571,0.1504,0.9404,-0.2446,7.690,60.059,10.498,96.119,-8.470,128.304
1581,0.1162,0.9082,-0.2236,6.470,46.570,10.132,96.196,-8.602,128.765
1591,0.1060,0.9087,-0.1509,2.258,31.433,10.559,96.202,-8.718,129.067
1601,0.1152,0.9116,-0.0801,-1.770,16.052,12.024,96.152,-8.839,129.216
1611,0.1421,0.9692,-0.0239,-5.676,3.113,15.076,96.048,-8.987,129.232
1621,0.1797,1.0640,0.0088,-5.920,-5.737,19.714,95.933,-9.179,129.155
1631,0.2085,1.0923,0.0034,0.488,-6.287,24.048,95.894,-9.426,129.062
1641,0.2217,1.0654,-0.0073,5.981,1.526,24.414,95.900,-9.695,129.056
1651,0.2153,1.0146,-0.0181,6.531,10.681,19.226,95.900,-9.915,129.144
1661,0.1929,0.9341,-0.0576,3.479,15.930,10.010,95.883,-10.047,129.293
1671,0.1782,0.8853,-0.1074,-6.165,16.541,-0.549,95.806,-10.074,129.457
1681,0.1880,0.9155,-0.1465,-21.179,13.184,-8.484,95.603,-10.014,129.600
1691,0.2070,0.9780,-0.1704,-33.081,7.202,-12.634,95.306,-9.915,129.688
1701,0.2217,1.0591,-0.1377,-38.086,-1.831,-13.123,94.949,-9.805,129.683
1711,0.2124,1.1055,-0.0762,-32.471,-14.221,-9.460,94.642,-9.706,129.545
1721,0.1899,1.0732,-0.0430,-16.846,-27.344,-3.052,94.493,-9.657,129.271
1731,0.1729,1.0220,-0.0566,-2.258,-34.363,3.601,94.521,-9.668,128.919
1741,0.1548,0.9351,-0.1045,7.751,-31.372,6.531,94.669,-9.706,128.600
1751,0.1582,0.8828,-0.1455,8.606,-23.071,3.113,94.839,-9.717,128.364
1761,0.1357,0.8423,-0.1782,-1.404,-17.456,-4.578,94.927,-9.651,128.188
1771,0.1274,0.8379,-0.1846,-20.691,-14.282,-12.451,94.818,-9.503,128.057
1781,0.1699,0.9922,-0.1138,-45.044,-13.977,-16.785,94.411,-9.327,127.930
1791,0.2148,1.1514,-0.0337,-53.711,-19.104,-12.817,93.878,-9.201,127.749
1801,0.2241,1.1895,0.0186,-39.551,-27.954,-3.235,93.483,-9.163,127.469
1811,0.1909,1.0840,0.0342,-14.282,-35.889,5.615,93.345,-9.207,127.101
1821,0.1519,0.9780,0.0391,4.456,-35.461,9.644,93.395,-9.278,126.738
1831,0.1143,0.8813,0.0073,13.184,-25.024,8.057,93.527,-9.322,126.480
1841,0.1074,0.8604,-0.0205,8.606,-10.498,2.258,93.609,-9.316,126.370
1851,0.1157,0.8818,-0.0410,-5.249,1.770,-3.906,93.543,-9.261,126.392
1861,0.1411,0.9692,-0.0391,-24.841,10.376,-9.644,93.268,-9.163,126.502
1871,0.1562,1.0415,-0.0410,-40.039,13.245,-14.832,92.840,-9.020,126.645
1881,0.1421,1.0557,-0.0586,-42.725,10.803,-15.625,92.401,-8.855,126.760
1891,0.1123,0.9922,-0.0942,-29.724,2.869,-10.864,92.131,-8.723,126.793
1901,0.0952,0.9199,-0.1313,-11.169,-7.874,-4.211,92.093,-8.652,126.716
1911,0.1021,0.8716,-0.1558,5.493,-18.311,2.991,92.252,-8.652,126.530
1921,0.1362,0.8989,-0.1313,14.038,-27.466,9.583,92.494,-8.734,126.249
1931,0.1826,1.0005,-0.0752,16.724,-34.424,13.977,92.730,-8.877,125.898
1941,0.2197,1.1182,-0.0181,15.198,-37.231,15.381,92.922,-9.031,125.513
1951,0.2295,1.1714,0.0112,12.573,-34.302,13.184,93.071,-9.163,125.156
1961,0.2036,1.1304,-0.0127,7.751,-26.489,7.141,93.164,-9.234,124.887
1971,0.1709,1.0923,-0.0527,0.305,-15.991,-1.160,93.186,-9.207,124.722
1981,0.1670,1.0640,-0.0913,-8.484,-6.531,-8.240,93.131,-9.119,124.662
1991,0.1509,0.9990,-0.1348,-13.672,-2.625,-12.756,93.043,-8.987,124.645
2002,0.1367,0.9673,-0.1582,-16.418,-5.493,-15.381,92.950,-8.822,124.596
2011,0.1323,0.9727,-0.1597,-16.357,-14.465,-15.503,92.873,-8.646,124.459
2021,0.1406,0.9849,-0.1855,-11.597,-28.381,-13.367,92.878,-8.498,124.178
2031,0.1572,1.0215,-0.2451,-3.052,-46.692,-9.277,93.021,-8.383,123.712
2042,0.1821,1.0537,-0.3237,6.836,-69.458,-3.540,93.334,-8.322,123.014
2052,0.2148,1.0757,-0.3994,13.611,-96.191,2.747,93.779,-8.317,122.042
2062,0.2456,1.0654,-0.4395,13.672,-124.146,8.057,94.279,-8.350,120.784
2072,0.2671,1.0313,-0.3931,2.380,-153.198,11.658,94.691,-8.405,119.229
2081,0.2451,0.9556,-0.2246,-18.555,-181.641,11.597,94.861,-8.427,117.389
2091,0.1353,0.9424,0.0762,-41.809,-192.810,7.507,94.631,-8.339,115.444
2102,0.0464,0.9497,0.3730,-58.838,-162.781,3.113,94.026,-8.179,113.802
2112,0.0273,1.0010,0.5557,-60.791,-111.389,-1.648,93.252,-8.020,112.676
2124,0.0649,1.0776,0.5508,-41.931,-57.678,-3.418,92.615,-7.905,112.099
2132,0.1060,1.1069,0.4424,-14.526,-7.751,-2.075,92.236,-7.850,112.022
2142,0.1260,1.0547,0.2778,10.376,34.058,-2.380,92.120,-7.828,112.368
2151,0.1426,0.9502,0.0713,24.414,63.965,-7.568,92.214,-7.784,113.016
2162,0.1558,0.8838,-0.1104,23.193,78.979,-15.015,92.384,-7.685,113.818
2172,0.1484,0.8452,-0.2422,13.184,78.735,-19.470,92.543,-7.542,114.620
2182,0.1499,0.8691,-0.3003,-1.343,65.613,-19.287,92.609,-7.399,115.291
2192,0.1772,0.9414,-0.2842,-15.686,40.771,-13.733,92.543,-7.311,115.708
2202,0.1743,0.9912,-0.2451,-18.616,8.606,-5.798,92.461,-7.278,115.796
2212,0.1553,1.0151,-0.1851,-13.489,-20.569,3.357,92.428,-7.317,115.587
2222,0.1201,1.0391,-0.1133,-6.470,-34.607,11.658,92.450,-7.410,115.230
2232,0.1069,1.0049,-0.0718,-0.366,-29.663,14.954,92.499,-7.531,114.928
2242,0.1260,0.9775,-0.0356,-3.479,-14.771,13.062,92.483,-7.652,114.774
2252,0.1582,0.9521,0.0034,-16.174,-1.221,7.324,92.296,-7.745,114.758
2262,0.1616,0.9565,0.0220,-35.034,7.141,-0.305,91.906,-7.762,114.829
2272,0.1738,1.0171,0.0811,-55.420,9.766,-8.911,91.280,-7.696,114.928
2282,0.1807,1.0791,0.1108,-60.242,3.784,-14.404,90.604,-7.570,114.972
2292,0.1948,1.0991,0.0879,-46.814,-3.296,-12.024,90.093,-7.476,114.939
2302,0.2002,1.0151,0.0166,-24.841,-8.423,-6.042,89.846,-7.454,114.857
2312,0.1655,0.8569,-0.1064,-5.798,-11.292,-1.892,89.879,-7.471,114.741
2322,0.1543,0.7065,-0.2261,-7.751,-12.451,0.122,89.995,-7.515,114.615
2331,0.1514,0.6304,-0.2993,-34.546,-15.076,0.427,89.929,-7.564,114.461
2342,0.1353,0.6831,-0.2202,-80.261,-20.935,-0.061,89.341,-7.597,114.252
2352,0.1318,0.9082,0.0352,-126.038,-36.560,-0.977,88.127,-7.597,113.884
2362,0.1479,1.2041,0.3472,-139.465,-60.486,-0.488,86.682,-7.603,113.275
2372,0.1504,1.3491,0.6074,-111.206,-84.717,6.714,85.485,-7.701,112.423
2382,0.1118,1.2783,0.7134,-53.772,-97.839,18.250,84.831,-7.921,111.456
2392,0.0684,1.1172,0.6265,8.667,-85.205,23.193,84.792,-8.179,110.621
2402,0.0708,0.9883,0.3877,53.406,-47.302,20.691,85.221,-8.383,110.160
2412,0.1030,0.9097,0.1152,71.838,-2.441,15.503,85.913,-8.514,110.149
2422,0.1455,0.9224,-0.1060,66.956,33.020,8.240,86.633,-8.580,110.490
2432,0.1855,0.9805,-0.2852,46.326,53.711,-1.404,87.204,-8.553,111.033
2442,0.2114,1.0479,-0.4214,19.653,58.472,-10.071,87.561,-8.443,111.616
2452,0.1987,1.0688,-0.4492,-12.451,51.086,-15.381,87.616,-8.284,112.126
2462,0.1768,1.0991,-0.3564,-39.185,31.494,-18.677,87.385,-8.091,112.434
2472,0.1499,1.0107,-0.1924,-48.523,0.610,-17.029,87.039,-7.921,112.434
2482,0.1265,0.8647,-0.0210,-49.133,-33.386,-11.658,86.644,-7.828,112.094
2492,0.0762,0.8389,0.1367,-49.255,-58.655,-2.686,86.177,-7.811,111.500
2502,0.0576,0.9175,0.2427,-40.955,-55.420,7.935,85.737,-7.883,110.945
2512,0.1143,1.0200,0.2856,-26.245,-32.654,16.052,85.408,-8.047,110.627
2522,0.2158,1.1152,0.2773,-9.521,-5.737,19.348,85.221,-8.267,110.588
2532,0.2461,1.1812,0.2695,0.305,15.686,16.907,85.122,-8.454,110.759
2542,0.1855,1.0884,0.2495,3.357,27.954,6.348,85.034,-8.503,111.044
2552,0.1040,0.9063,0.2061,-1.648,32.837,-8.789,84.891,-8.366,111.368
2562,0.0703,0.8257,0.1499,-17.944,33.325,-20.081,84.617,-8.102,111.687
2572,0.0581,0.8516,0.0762,-30.701,30.823,-21.118,84.271,-7.822,111.978
2582,0.0923,0.9360,0.0254,-29.114,26.062,-12.451,83.990,-7.652,112.225
2592,0.1577,1.0088,0.0625,-17.395,18.250,-0.549,83.820,-7.641,112.407
2602,0.2061,1.0645,0.1621,-4.150,10.193,7.202,83.743,-7.734,112.516
2612,0.1895,1.1152,0.2827,6.653,4.089,7.935,83.721,-7.822,112.566
2622,0.1226,1.0967,0.3555,18.372,0.427,5.005,83.782,-7.855,112.577
2632,0.0854,1.0215,0.3096,28.076,5.798,2.136,83.947,-7.839,112.637
2642,0.0728,0.9458,0.1655,28.015,19.592,-1.770,84.161,-7.762,112.835
2652,0.0776,0.9502,-0.0161,19.653,34.790,-7.446,84.375,-7.625,113.176
2662,0.1357,0.9814,-0.1660,6.714,45.105,-12.207,84.540,-7.460,113.615
2672,0.1782,0.9580,-0.2583,-10.559,45.654,-13.245,84.584,-7.317,114.060
2682,0.2012,0.9922,-0.1987,-31.006,32.410,-13.733,84.402,-7.191,114.373
2692,0.1660,1.0361,-0.0283,-42.542,2.991,-10.437,84.051,-7.103,114.395
2702,0.0981,1.0435,0.1519,-39.185,-29.175,-0.488,83.677,-7.108,114.099
2712,0.0347,1.0649,0.2812,-26.306,-49.744,11.108,83.392,-7.218,113.615
2722,0.0171,1.0898,0.2905,-5.005,-48.889,17.944,83.315,-7.388,113.148
2732,0.0923,1.1177,0.2290,12.268,-27.466,17.029,83.419,-7.559,112.890
2742,0.1611,1.0400,0.1313,19.165,-1.099,10.315,83.606,-7.674,112.890
2752,0.1777,0.8906,0.0029,9.827,21.667,-1.770,83.732,-7.668,113.110
2762,0.2026,0.8530,-0.0562,-21.362,39.307,-16.418,83.573,-7.520,113.483
2772,0.2183,0.9458,-0.0220,-53.955,40.771,-24.597,83.068,-7.289,113.862
2782,0.1953,1.0625,0.0532,-58.594,22.583,-21.057,82.502,-7.086,114.066
2792,0.1821,1.1582,0.1460,-38.025,-3.784,-8.484,82.134,-7.026,114.016
2802,0.1802,1.1235,0.1987,-3.662,-28.992,4.883,82.112,-7.130,113.730
2812,0.1533,1.0537,0.2334,23.132,-46.570,12.451,82.348,-7.328,113.286
2822,0.1235,0.9858,0.2617,31.555,-45.166,13.977,82.645,-7.520,112.852
2832,0.0801,0.8511,0.2446,27.161,-25.452,11.292,82.859,-7.641,112.615
2842,0.0850,0.8174,0.2397,16.174,2.014,4.883,82.925,-7.663,112.637
2852,0.1172,0.8555,0.2256,5.615,22.888,1.648,82.870,-7.652,112.868
2862,0.1807,0.9390,0.1636,-0.977,35.828,1.648,82.787,-7.657,113.231
2872,0.2056,1.0547,0.1016,-4.456,38.574,1.038,82.705,-7.652,113.621
2882,0.1714,1.1084,0.0459,0.183,31.677,0.916,82.716,-7.630,113.939
2892,0.0952,1.0737,0.0122,7.629,20.935,1.770,82.831,-7.597,114.148
2902,0.0156,0.9785,0.0127,12.207,10.376,2.747,83.002,-7.542,114.258
2912,-0.0117,0.8516,0.0410,9.216,1.221,2.686,83.134,-7.487,114.269
2922,0.0142,0.8115,0.1284,-0.305,-9.216,2.319,83.123,-7.454,114.181
2932,0.0483,0.8589,0.2202,-8.301,-20.752,5.737,82.991,-7.493,113.983
2942,0.1431,1.0278,0.3066,-11.475,-24.963,12.207,82.809,-7.641,113.747
2952,0.2393,1.2090,0.3647,-5.066,-20.081,17.517,82.689,-7.872,113.566
2962,0.2383,1.2080,0.3418,11.658,-11.108,18.188,82.727,-8.091,113.478
2972,0.1768,1.0767,0.2461,22.888,0.610,11.414,82.897,-8.212,113.500
2982,0.0684,0.8691,0.1045,22.217,14.587,-1.648,83.101,-8.141,113.643
2992,0.0073,0.7559,-0.0107,5.737,30.579,-15.991,83.194,-7.872,113.934
3003,0.0518,0.7246,-0.0737,-17.700,43.213,-24.109,83.090,-7.548,114.335
3012,0.1245,0.8501,-0.0557,-39.795,41.138,-23.376,82.749,-7.278,114.719
3022,0.2212,1.1821,0.0132,-45.654,22.034,-13.733,82.343,-7.147,114.922
3032,0.2964,1.3638,0.1113,-24.231,-7.263,3.906,82.139,-7.245,114.857
3042,0.2563,1.3125,0.1865,10.864,-34.058,18.921,82.282,-7.515,114.543
3052,0.1436,1.1592,0.2319,34.424,-42.419,21.118,82.639,-7.773,114.148
3062,0.0059,0.9282,0.2476,35.950,-27.893,12.634,82.952,-7.855,113.884
3072,-0.0605,0.8442,0.2500,18.066,-1.770,-0.793,83.040,-7.734,113.862
3082,-0.0293,0.8228,0.2163,-7.019,24.536,-9.949,82.864,-7.509,114.099
3092,0.0625,0.8657,0.1665,-30.701,45.471,-16.174,82.463,-7.262,114.532
3102,0.1729,1.0547,0.1357,-45.471,51.880,-20.691,81.958,-7.009,115.021
3112,0.2529,1.2178,0.1260,-37.231,38.574,-16.479,81.563,-6.839,115.384
3122,0.2339,1.2090,0.1270,-1.648,13.489,-4.333,81.557,-6.817,115.516
3132,0.1416,1.0342,0.1431,35.950,-8.850,7.568,81.931,-6.916,115.439
3142,0.0654,0.8735,0.2012,53.223,-24.780,14.893,82.430,-7.070,115.208
3152,-0.0195,0.8062,0.2266,53.772,-31.860,16.357,82.919,-7.185,114.911
3162,-0.0059,0.8413,0.1904,45.593,-21.179,14.343,83.337,-7.278,114.719
3172,0.0937,0.8779,0.1216,31.189,0.427,11.719,83.633,-7.377,114.736
3182,0.2012,0.9927,0.0747,13.550,20.020,6.592,83.760,-7.465,114.944
3192,0.2871,1.1187,0.0518,-4.028,30.334,-2.625,83.716,-7.476,115.247
3202,0.2871,1.1030,0.0068,-12.451,27.405,-12.756,83.622,-7.388,115.505
3212,0.1968,0.9922,-0.0220,-13.428,16.785,-19.470,83.546,-7.218,115.653
3222,0.0957,0.8945,0.0044,-14.587,3.723,-18.860,83.463,-7.015,115.670
3232,0.0225,0.8389,0.0522,-9.949,-10.254,-10.437,83.408,-6.872,115.554
3242,0.0166,0.8604,0.1089,-4.395,-22.156,0.427,83.381,-6.844,115.334
3252,0.0796,1.0024,0.1787,0.854,-28.809,10.132,83.386,-6.949,115.060
3262,0.1816,1.1543,0.1953,12.329,-23.132,14.954,83.507,-7.141,114.846
3272,0.2798,1.2275,0.1953,21.423,-7.202,14.526,83.699,-7.350,114.785
3282,0.3125,1.1694,0.1768,24.658,10.498,7.019,83.908,-7.482,114.901
3292,0.2051,0.9429,0.1118,17.944,23.071,-6.226,84.051,-7.443,115.126
3302,0.0698,0.7725,0.0542,-0.854,31.677,-20.020,84.023,-7.191,115.422
3312,-0.0151,0.7173,0.0112,-23.743,35.034,-24.841,83.798,-6.828,115.746
3322,-0.0225,0.7422,-0.0244,-35.889,27.832,-18.494,83.491,-6.531,116.005
3332,0.0732,0.8677,-0.0239,-37.537,14.038,-5.554,83.188,-6.443,116.142
3342,0.2388,1.1182,0.0786,-35.889,-2.563,8.179,82.859,-6.581,116.125
3352,0.3540,1.3237,0.2407,-22.522,-20.203,17.944,82.628,-6.861,115.944
3362,0.3433,1.3047,0.3267,2.014,-27.588,20.447,82.606,-7.174,115.697
3372,0.2129,1.0576,0.2798,20.203,-16.174,14.893,82.755,-7.377,115.554
3382,0.0752,0.7681,0.1387,19.592,9.399,1.648,82.903,-7.366,115.648
3392,-0.0068,0.6123,0.0298,-7.568,35.522,-13.123,82.831,-7.114,115.988
3402,0.0273,0.6562,-0.0322,-50.232,52.856,-22.827,82.370,-6.773,116.488
3412,0.1274,0.9355,-0.0078,-86.304,46.997,-25.146,81.546,-6.476,116.922
3422,0.2031,1.2739,0.0581,-82.031,15.198,-16.113,80.777,-6.323,117.054
3432,0.2695,1.3311,0.1406,-33.447,-22.705,3.296,80.502,-6.443,116.829
3442,0.2568,1.2583,0.2866,23.987,-56.641,23.010,80.766,-6.806,116.307
3452,0.1479,1.0415,0.3608,65.491,-71.045,33.936,81.392,-7.262,115.653
3462,0.0503,0.8442,0.3101,78.735,-56.274,31.616,82.117,-7.614,115.142
3472,0.0117,0.8271,0.2349,61.523,-24.048,20.691,82.678,-7.778,114.928
3482,0.0098,0.9331,0.1421,35.034,13.550,9.094,82.991,-7.778,115.076
3492,0.0459,0.9668,0.0376,16.296,48.157,1.343,83.134,-7.685,115.560
3503,0.1025,0.9268,-0.0552,-3.601,69.702,-7.019,83.112,-7.520,116.252
3512,0.1768,0.9829,-0.1177,-23.499,68.848,-17.517,82.930,-7.289,116.922
3522,0.2100,1.0386,-0.1372,-28.992,43.762,-20.874,82.733,-7.070,117.334
3532,0.1953,1.0640,-0.1118,-21.729,4.517,-13.611,82.650,-6.965,117.361
3542,0.1616,1.0205,-0.0605,-3.296,-35.767,-2.808,82.766,-7.004,116.999
3552,0.1255,0.9609,0.0776,9.338,-68.909,9.033,82.969,-7.185,116.323
3563,0.0898,0.9526,0.2651,4.822,-74.463,15.747,83.018,-7.405,115.598
3573,0.0874,1.0220,0.4248,-6.531,-51.453,12.329,82.864,-7.564,115.098
3583,0.1191,1.1162,0.5024,-15.503,-16.479,5.249,82.562,-7.614,114.939
3593,0.1577,1.1694,0.4922,-14.343,18.066,-2.441,82.238,-7.559,115.115
3603,0.1831,1.1304,0.3594,-6.287,47.974,-10.681,82.018,-7.405,115.582
3613,0.1396,0.9917,0.1606,6.531,63.293,-16.541,81.991,-7.158,116.191
3623,0.0830,0.8740,-0.0376,14.160,61.096,-18.250,82.167,-6.877,116.774
3633,0.0513,0.8350,-0.1616,17.700,40.222,-14.099,82.485,-6.652,117.158
3643,0.0718,0.7666,-0.2266,21.790,13.367,-4.578,82.925,-6.575,117.285
3653,0.1362,0.8086,-0.1987,12.878,-13.855,4.150,83.276,-6.658,117.147
3663,0.1982,1.0083,-0.0444,-3.357,-42.969,10.437,83.381,-6.855,116.730
3673,0.2134,1.1860,0.1519,-11.658,-56.580,15.137,83.326,-7.103,116.186
3683,0.2187,1.2563,0.3491,-11.230,-45.593,15.137,83.177,-7.328,115.746
3693,0.1987,1.1963,0.4687,-4.272,-23.010,8.728,83.018,-7.454,115.527
3703,0.1392,1.0737,0.4668,3.662,2.441,-0.732,82.886,-7.438,115.549
3713,0.0791,0.9458,0.3594,10.986,27.649,-9.705,82.826,-7.278,115.812
3723,0.0327,0.8247,0.1899,10.803,47.546,-14.832,82.815,-7.026,116.268
3733,0.0552,0.8140,-0.0103,3.784,54.260,-15.625,82.870,-6.773,116.796
3743,0.0972,0.8774,-0.1523,2.625,41.260,-12.390,83.018,-6.597,117.191
3753,0.1416,0.9014,-0.2144,7.141,15.808,-6.897,83.276,-6.531,117.339
3763,0.2158,0.9746,-0.1528,10.254,-13.489,0.183,83.551,-6.603,117.202
3773,0.2441,1.0259,0.0020,12.878,-45.288,9.644,83.793,-6.817,116.763
3783,0.1851,1.0205,0.1978,12.390,-64.575,18.066,83.941,-7.097,116.136
3793,0.1069,1.0063,0.3779,3.723,-57.007,19.043,83.897,-7.328,115.587
3803,0.0786,1.0190,0.4414,-6.287,-27.954,10.803,83.699,-7.432,115.318
3813,0.0786,1.0117,0.3970,-10.437,5.432,1.099,83.436,-7.405,115.373
3823,0.1030,0.9683,0.2686,-10.010,36.255,-7.507,83.199,-7.273,115.724
3833,0.1484,0.9150,0.1338,-10.559,58.228,-13.184,83.013,-7.097,116.296
3843,0.1670,0.9419,0.0029,-13.550,61.462,-14.160,82.870,-6.910,116.889
3853,0.1489,1.0317,-0.0479,-11.780,44.800,-10.559,82.804,-6.768,117.323
3863,0.1406,1.0972,-0.0122,-5.859,16.052,-3.845,82.804,-6.713,117.482
3873,0.1519,1.0547,0.0605,1.160,-15.625,1.221,82.870,-6.762,117.328
3883,0.0918,0.9819,0.1553,-0.427,-45.166,3.662,82.903,-6.839,116.878
3893,0.0112,1.0132,0.2456,-10.437,-54.993,5.981,82.798,-6.899,116.340
3903,0.0332,1.0957,0.2939,-14.465,-32.227,5.676,82.612,-6.943,116.021
3913,0.0903,1.1338,0.2559,-6.653,2.380,2.502,82.491,-6.938,116.049
3923,0.1270,1.1470,0.1812,3.418,32.593,-3.113,82.469,-6.861,116.373
3933,0.1421,1.0127,0.0728,10.010,53.833,-10.315,82.540,-6.702,116.895
3943,0.1069,0.8794,-0.0347,7.019,58.777,-15.930,82.645,-6.471,117.460
3953,0.0903,0.8501,-0.1104,-4.395,50.659,-16.357,82.694,-6.240,117.944
3963,0.1294,0.8936,-0.1460,-11.047,34.119,-11.536,82.716,-6.103,118.273
3973,0.1582,0.9409,-0.1519,-2.625,13.489,-3.601,82.837,-6.086,118.400
3983,0.2051,0.9678,-0.0864,12.573,-8.179,5.371,83.095,-6.207,118.328
3993,0.2461,1.0137,0.0674,20.752,-33.081,12.878,83.364,-6.449,118.010
4004,0.2100,1.0181,0.2881,16.907,-55.298,18.799,83.502,-6.740,117.482
4013,0.1318,0.9854,0.4766,4.700,-53.467,20.142,83.414,-7.004,116.966
4023,0.0840,0.9829,0.5176,-5.859,-25.513,13.367,83.172,-7.136,116.730
4033,0.0762,0.9800,0.4082,-5.676,9.277,3.906,82.947,-7.130,116.829
4043,0.1011,0.9756,0.2563,-2.563,38.574,-4.822,82.798,-7.026,117.208
4053,0.1143,0.9907,0.0767,-0.854,57.556,-10.986,82.749,-6.839,117.768
4063,0.1421,0.9951,-0.1006,-1.831,60.547,-13.123,82.793,-6.647,118.356
4073,0.1504,0.9946,-0.1685,-3.296,44.556,-12.268,82.875,-6.493,118.784
4083,0.1255,0.9897,-0.1226,-4.822,15.076,-8.728,82.958,-6.394,118.927
4093,0.0972,0.9883,-0.0142,-4.089,-17.151,-4.150,83.013,-6.367,118.751
4103,0.0483,0.8970,0.0996,1.343,-47.852,1.404,83.084,-6.405,118.273
4113,0.0112,0.8672,0.2300,-0.305,-63.965,8.301,83.073,-6.504,117.642
4125,0.0371,0.9790,0.3618,-7.446,-54.199,13.245,82.925,-6.652,117.120
4133,0.1138,1.1016,0.4141,-7.019,-26.001,13.916,82.749,-6.812,116.878
4143,0.2002,1.2402,0.3926,0.305,4.333,11.841,82.639,-6.943,116.933
4153,0.2227,1.2197,0.2690,16.541,28.748,6.592,82.716,-7.004,117.230
4163,0.1641,1.0151,0.1016,28.381,43.518,-1.953,82.963,-6.949,117.664
4173,0.0879,0.8472,-0.0464,22.095,47.485,-11.414,83.227,-6.768,118.125
4183,0.0444,0.7314,-0.1382,5.249,39.856,-15.808,83.408,-6.531,118.504
4193,0.0464,0.7622,-0.1577,-9.094,22.644,-12.329,83.480,-6.356,118.713
4203,0.0977,0.9229,-0.0801,-11.108,-2.869,-2.319,83.485,-6.334,118.685
4213,0.1514,1.0293,0.0391,0.000,-34.119,10.071,83.568,-6.493,118.356
4223,0.1699,1.1177,0.1890,12.207,-60.303,19.897,83.721,-6.773,117.773
4233,0.1450,1.2026,0.3223,14.893,-62.317,23.254,83.848,-7.070,117.175
4243,0.1553,1.1626,0.3833,10.803,-39.307,18.738,83.881,-7.295,116.801
4253,0.1572,1.1064,0.3394,5.249,-6.897,6.775,83.831,-7.372,116.741
4263,0.1201,1.0293,0.2305,0.244,23.071,-5.920,83.743,-7.284,116.966
4273,0.0957,0.9404,0.1030,-6.287,46.814,-16.235,83.622,-7.059,117.416
4283,0.1128,0.8828,-0.0039,-15.564,56.580,-21.729,83.469,-6.784,117.960
4293,0.1362,0.8833,-0.0762,-23.743,47.791,-21.301,83.293,-6.542,118.411
4303,0.1509,0.9155,-0.0889,-23.865,25.818,-15.442,83.156,-6.383,118.652
4313,0.1689,0.9961,-0.0386,-15.320,0.488,-6.958,83.095,-6.350,118.647
4323,0.1729,1.0498,0.0298,2.747,-26.855,1.831,83.205,-6.427,118.383
4333,0.1460,1.0303,0.1240,18.616,-50.781,10.437,83.441,-6.608,117.889
4343,0.0967,0.9443,0.2402,18.555,-56.274,14.526,83.611,-6.806,117.339
4353,0.0811,0.9224,0.3311,2.808,-40.710,10.437,83.551,-6.932,116.944
4363,0.0874,0.9263,0.3228,-11.292,-15.442,2.686,83.331,-6.954,116.796
4373,0.1021,0.9834,0.2871,-18.433,8.179,-3.357,83.040,-6.899,116.873
4383,0.1323,1.0078,0.2339,-18.066,24.658,-7.080,82.771,-6.806,117.109
4393,0.1216,0.9385,0.1626,-14.832,29.419,-7.690,82.568,-6.696,117.394
4403,0.0796,0.8862,0.0991,-17.151,23.987,-7.080,82.381,-6.581,117.625
4413,0.0210,0.8467,0.0840,-22.095,11.719,-5.066,82.167,-6.465,117.735
4423,0.0259,0.8667,0.1265,-26.428,-3.174,-1.404,81.909,-6.411,117.702
4433,0.0708,0.9023,0.1865,-26.794,-17.578,4.456,81.623,-6.454,117.532
4443,0.0947,0.9336,0.2700,-21.912,-27.954,11.414,81.359,-6.597,117.268
4453,0.1445,1.0518,0.4048,-17.639,-25.513,18.738,81.085,-6.828,117.043
4463,0.1968,1.2764,0.5083,-11.841,-10.803,23.560,80.848,-7.086,116.971
4473,0.2051,1.3755,0.4565,7.446,7.751,22.400,80.815,-7.306,117.087
4483,0.1860,1.2598,0.3384,25.085,24.536,12.634,80.975,-7.399,117.350
4493,0.0645,0.9917,0.1821,22.583,41.443,-4.456,81.129,-7.251,117.757
4504,-0.0723,0.8032,-0.0356,0.427,59.998,-20.447,81.178,-6.833,118.323
4513,-0.0723,0.7554,-0.2329,-25.024,72.449,-26.611,81.112,-6.345,119.004
4523,0.0425,0.7617,-0.3774,-34.912,66.589,-20.935,81.046,-6.004,119.630
4533,0.1860,0.8887,-0.4097,-24.536,40.649,-6.775,81.101,-5.922,120.026
4543,0.3208,1.0859,-0.3257,-0.427,3.906,10.986,81.348,-6.125,120.081
4553,0.3921,1.1714,-0.1694,28.809,-40.344,25.696,81.837,-6.559,119.718
4563,0.3599,1.2007,0.0815,41.748,-80.322,33.264,82.381,-7.097,118.965
4573,0.2808,1.2422,0.3447,28.381,-87.158,30.334,82.683,-7.559,118.136
4583,0.2104,1.2402,0.5200,4.639,-63.416,15.869,82.656,-7.811,117.521
4593,0.1226,1.0996,0.5981,-12.512,-27.466,-3.479,82.359,-7.789,117.241
4603,0.0049,0.9521,0.5850,-24.109,12.268,-19.714,81.865,-7.504,117.339
4613,-0.0356,0.8984,0.4541,-28.503,49.072,-27.954,81.337,-7.064,117.790
4623,0.0327,0.9063,0.2261,-21.851,71.899,-25.269,80.986,-6.658,118.466
4633,0.1050,0.9248,0.0210,-3.113,68.420,-14.709,80.958,-6.405,119.125
4643,0.1670,0.9307,-0.1045,18.188,46.753,-3.845,81.244,-6.334,119.581
4653,0.2002,0.9707,-0.1328,33.630,17.700,3.967,81.722,-6.400,119.767
4663,0.1924,0.9829,-0.1099,34.546,-9.766,6.958,82.216,-6.526,119.680
4673,0.1245,0.9697,-0.0112,21.057,-37.170,4.822,82.551,-6.630,119.312
4683,0.0386,0.9653,0.1479,-0.793,-50.720,1.892,82.590,-6.674,118.812
4693,0.0220,1.0010,0.2568,-19.897,-39.307,-0.427,82.370,-6.663,118.416
4703,0.0518,1.0317,0.2856,-21.667,-18.494,-2.197,82.095,-6.625,118.229
4713,0.1250,1.0581,0.2412,-10.620,3.418,-2.747,81.936,-6.597,118.257
4723,0.2080,1.0347,0.1509,5.798,20.935,-2.258,81.969,-6.592,118.466
4733,0.2271,0.9346,0.0625,18.311,28.564,-2.075,82.161,-6.603,118.746
4743,0.1914,0.8462,0.0166,18.433,23.682,-3.418,82.386,-6.597,118.976
4753,0.1392,0.8037,0.0107,8.545,9.521,-4.089,82.529,-6.575,119.070
4763,0.1147,0.8286,0.0356,-5.249,-7.324,-2.747,82.535,-6.570,118.993
4773,0.1162,0.9409,0.1089,-15.930,-23.254,-0.061,82.414,-6.603,118.757
4783,0.1172,1.0928,0.2485,-16.479,-35.095,4.272,82.238,-6.685,118.416
4793,0.1133,1.1577,0.3823,-5.310,-32.471,9.277,82.112,-6.806,118.103
4804,0.1284,1.0757,0.4595,8.606,-17.029,10.376,82.062,-6.927,117.949
4814,0.1055,0.9751,0.4380,16.296,2.441,6.714,82.057,-6.976,117.982
4824,0.0762,0.9312,0.3315,16.907,22.156,0.610,82.084,-6.927,118.202
4833,0.0610,0.8540,0.1602,13.855,38.025,-4.639,82.150,-6.801,118.575
4843,0.0537,0.8081,-0.0151,5.859,44.495,-7.874,82.244,-6.630,119.009
4853,0.0957,0.8848,-0.1411,-4.456,38.208,-9.033,82.326,-6.487,119.377
4863,0.1582,1.0176,-0.1865,-6.165,17.273,-6.042,82.430,-6.427,119.542
4873,0.2134,1.1250,-0.1460,1.709,-11.902,1.587,82.606,-6.498,119.427
4884,0.2173,1.1392,-0.0137,13.611,-43.579,10.254,82.870,-6.702,119.004
4893,0.1641,1.0698,0.1616,19.592,-64.697,15.869,83.123,-6.954,118.378
4904,0.0884,1.0420,0.3291,11.169,-60.242,14.282,83.194,-7.141,117.790
4914,0.0781,1.0859,0.4355,-3.052,-34.363,5.920,83.057,-7.207,117.455
4924,0.0815,1.0562,0.4287,-7.446,-3.784,-2.991,82.837,-7.152,117.416
4934,0.0869,1.0068,0.3174,-8.179,29.175,-10.681,82.617,-6.987,117.691
4943,0.1123,0.9629,0.1836,-11.719,55.969,-16.968,82.403,-6.746,118.229
4954,0.1558,0.9746,0.0435,-14.832,64.453,-19.714,82.238,-6.487,118.845
4964,0.1777,0.9712,-0.0542,-10.803,52.979,-15.869,82.183,-6.301,119.355
4974,0.1968,0.9463,-0.0801,-1.587,28.992,-7.446,82.260,-6.246,119.630
4984,0.1914,0.9575,-0.0664,10.010,0.305,1.282,82.480,-6.306,119.636
4994,0.1362,0.9453,-0.0596,25.146,-32.227,8.972,82.870,-6.454,119.328
5004,0.0737,0.9473,0.0254,36.255,-63.538,15.564,83.353,-6.663,118.713
5014,0.0503,0.9673,0.1475,41.138,-71.350,19.043,83.820,-6.899,118.021
5024,0.0732,1.0220,0.2666,37.964,-53.711,15.198,84.177,-7.075,117.499
5034,0.1050,1.0640,0.3511,28.992,-21.545,7.080,84.364,-7.147,117.290
5044,0.1499,1.0347,0.3022,7.507,35.522,-6.958,84.287,-7.053,117.642
5054,0.1587,1.0068,0.1914,-0.793,49.683,-9.521,84.172,-6.927,118.130
5064,0.1328,0.9258,0.0342,-1.953,49.805,-9.399,84.128,-6.801,118.619
5074,0.1006,0.8589,-0.0933,-0.183,39.001,-7.996,84.205,-6.680,118.998
5084,0.1162,0.8896,-0.1602,-1.770,20.935,-5.249,84.320,-6.614,119.207
5094,0.1304,0.9434,-0.2017,-0.305,-3.479,-0.610,84.501,-6.619,119.169
5104,0.1377,1.0103,-0.1528,0.916,-30.518,5.371,84.683,-6.713,118.867
5114,0.1396,1.0723,0.0068,-2.808,-50.659,10.132,84.765,-6.866,118.372
5124,0.1392,1.1123,0.1948,-8.240,-51.331,9.521,84.694,-7.009,117.867
5134,0.1445,1.1250,0.3560,-13.977,-34.729,4.211,84.474,-7.081,117.521
5144,0.1377,1.0723,0.4126,-16.174,-10.681,-2.136,84.172,-7.070,117.411
5154,0.1035,0.9795,0.3481,-16.296,13.428,-6.836,83.859,-6.971,117.537
5164,0.0967,0.9224,0.1997,-16.357,33.997,-9.216,83.595,-6.833,117.867
5174,0.1294,0.9292,0.0669,-14.954,42.480,-9.094,83.425,-6.707,118.284
5184,0.1465,0.9614,-0.0146,-8.484,32.593,-6.714,83.375,-6.625,118.603
5194,0.1499,0.9761,-0.0503,0.610,12.024,-2.502,83.463,-6.608,118.718
5204,0.1367,1.0029,-0.0483,6.592,-9.644,1.587,83.633,-6.647,118.625
5214,0.1143,1.0278,-0.0137,9.949,-29.419,4.028,83.837,-6.718,118.334
5224,0.0811,1.0078,0.0488,11.658,-42.908,5.981,84.034,-6.801,117.911
5234,0.0581,1.0088,0.1680,4.761,-43.152,7.141,84.095,-6.877,117.488
5244,0.0542,1.0244,0.2998,-5.371,-29.968,5.676,83.974,-6.927,117.191
5254,0.0688,1.0273,0.3911,-11.169,-9.216,2.319,83.727,-6.921,117.103
5264,0.0937,1.0142,0.3955,-13.245,12.329,-0.427,83.430,-6.888,117.224
5274,0.1274,0.9849,0.3076,-12.207,30.701,-2.319,83.167,-6.828,117.532
5284,0.1440,0.9614,0.1758,-9.216,40.283,-4.089,82.991,-6.757,117.927
5294,0.1401,0.9224,0.0317,-5.249,40.588,-4.883,82.947,-6.680,118.328
5304,0.1250,0.8877,-0.0825,-3.479,33.325,-4.395,82.996,-6.608,118.658
5314,0.1108,0.8799,-0.1343,-2.319,19.836,-1.831,83.106,-6.570,118.850
5324,0.1147,0.9019,-0.1104,-1.404,2.563,2.625,83.227,-6.603,118.878
5334,0.1260,0.9160,-0.0181,-0.854,-16.113,7.812,83.315,-6.707,118.729
5344,0.1382,0.9531,0.1279,-0.916,-32.715,12.451,83.337,-6.883,118.416
5354,0.1465,1.0020,0.2344,1.831,-38.269,16.541,83.331,-7.103,118.054
5364,0.1738,1.0313,0.2783,6.470,-29.236,19.470,83.342,-7.350,117.784
5374,0.2197,0.9897,0.2607,10.193,-12.085,18.311,83.375,-7.592,117.680
5384,0.2344,0.9473,0.2168,6.348,5.066,13.123,83.370,-7.773,117.751
5394,0.1938,0.8926,0.1484,-6.958,18.555,6.165,83.243,-7.855,117.944
5404,0.1489,0.9141,0.0996,-24.536,23.865,-1.160,82.974,-7.828,118.180
5414,0.0937,0.9600,0.0503,-31.128,18.066,-4.211,82.683,-7.745,118.356
5424,0.0659,1.0381,0.0527,-24.353,4.272,-1.099,82.480,-7.685,118.400
5434,0.0659,1.1333,0.1221,-5.432,-11.719,6.836,82.452,-7.723,118.290
5444,0.0669,1.1377,0.1934,25.757,-26.978,17.151,82.722,-7.883,118.043
5454,0.0723,1.1064,0.2676,51.514,-38.574,26.123,83.216,-8.146,117.691
5464,0.0820,1.0991,0.3169,59.570,-36.499,30.823,83.760,-8.454,117.361
5474,0.1255,1.0747,0.2910,52.124,-17.883,27.405,84.210,-8.723,117.208
5484,0.1748,1.0684,0.2178,34.790,6.653,15.869,84.485,-8.877,117.296
5494,0.1807,1.0278,0.1240,12.390,28.625,1.770,84.545,-8.877,117.581
5505,0.1533,0.9751,0.0518,-13.367,44.617,-10.986,84.370,-8.723,118.021
5514,0.1304,1.0024,0.0078,-36.438,48.523,-20.386,83.990,-8.465,118.488
5524,0.1021,1.0151,-0.0327,-41.138,34.912,-23.010,83.617,-8.174,118.817
5534,0.0845,1.0059,-0.0552,-28.381,13.184,-16.846,83.414,-7.960,118.932
5544,0.1089,1.0557,-0.0156,-8.301,-6.897,-6.470,83.419,-7.883,118.856
5554,0.1343,1.0264,0.0098,17.212,-26.550,4.028,83.683,-7.949,118.592
5564,0.1455,0.9751,0.0986,28.748,-41.016,10.010,84.029,-8.097,118.191
5574,0.1587,0.9941,0.2495,19.409,-38.879,8.484,84.194,-8.229,117.812
5584,0.1885,1.0269,0.3247,2.502,-19.653,-0.549,84.128,-8.256,117.614
5594,0.1855,1.0249,0.3442,-9.766,3.845,-12.817,83.903,-8.141,117.636
5604,0.1313,0.9971,0.2993,-14.587,26.245,-23.376,83.617,-7.877,117.878
5614,0.0918,0.9478,0.2061,-15.442,43.274,-25.208,83.348,-7.559,118.284
5624,0.0850,0.8989,0.0684,-8.789,48.157,-18.738,83.227,-7.295,118.740
5634,0.1006,0.8833,-0.0342,3.845,37.781,-8.240,83.309,-7.163,119.108
5644,0.1450,0.9170,-0.0718,13.794,18.616,1.770,83.535,-7.174,119.301
5654,0.1797,0.9146,-0.0913,16.724,-1.892,8.606,83.820,-7.300,119.290
5664,0.2168,0.9893,-0.0366,6.897,-20.203,9.460,83.996,-7.465,119.097
5674,0.2187,1.0815,0.0635,-5.554,-28.748,5.188,84.001,-7.586,118.817
5684,0.1997,1.1572,0.1914,-14.282,-22.644,-2.014,83.859,-7.614,118.586
5694,0.1401,1.1377,0.2866,-16.357,-10.925,-9.338,83.633,-7.520,118.466
5704,0.0850,1.0566,0.2935,-11.841,3.174,-12.695,83.419,-7.361,118.482
5714,0.0459,0.9409,0.2373,-6.409,16.785,-10.986,83.260,-7.191,118.641
5724,0.0552,0.8721,0.1221,0.549,25.940,-6.104,83.221,-7.064,118.894
5734,0.1055,0.8560,0.0078,7.019,24.292,-0.610,83.326,-7.031,119.136
5744,0.1592,0.8911,-0.0659,7.874,11.719,2.930,83.496,-7.075,119.257
5754,0.2085,0.9590,-0.0889,1.221,-4.272,3.601,83.633,-7.169,119.218
5764,0.2441,1.0820,-0.0254,-8.301,-19.348,2.502,83.650,-7.267,119.026
5774,0.2295,1.1426,0.0757,-10.132,-28.809,0.610,83.611,-7.344,118.735
5784,0.1782,1.1030,0.1929,-5.127,-28.748,-1.526,83.562,-7.377,118.449
5794,0.1235,1.0210,0.2822,-0.366,-21.423,-4.272,83.496,-7.355,118.229
5804,0.0776,0.8687,0.2754,4.089,-9.766,-5.615,83.441,-7.284,118.125
5814,0.0850,0.8086,0.2314,-0.549,3.418,-5.798,83.337,-7.207,118.152
5824,0.1348,0.8398,0.1768,-10.864,14.648,-4.272,83.161,-7.169,118.290
5834,0.2061,0.9648,0.1562,-21.790,20.386,-1.465,82.897,-7.174,118.493
5844,0.2388,1.0840,0.1572,-24.536,16.663,0.000,82.623,-7.207,118.663
5854,0.2192,1.0962,0.1465,-16.357,7.019,0.916,82.447,-7.245,118.735
5864,0.1621,1.0020,0.1372,-8.545,-2.502,1.038,82.365,-7.278,118.707
5874,0.0996,0.8911,0.1392,-8.789,-9.155,0.000,82.277,-7.278,118.619
5884,0.0352,0.8306,0.1558,-15.808,-11.047,0.427,82.106,-7.251,118.510
5894,-0.0078,0.8208,0.1694,-21.973,-7.935,4.028,81.859,-7.224,118.433
5904,-0.0044,0.8770,0.1650,-24.048,-1.099,10.254,81.595,-7.251,118.438
5914,0.0625,1.0391,0.1572,-20.203,6.592,17.029,81.381,-7.372,118.526
5924,0.1411,1.1748,0.0908,-4.944,10.376,21.729,81.359,-7.559,118.663
5934,0.2041,1.2153,-0.0171,15.259,5.676,20.386,81.590,-7.773,118.751
5944,0.2446,1.2227,-0.0933,29.114,-5.127,14.587,82.013,-7.960,118.724
5954,0.2461,1.1440,-0.1274,33.569,-17.639,8.179,82.507,-8.102,118.559
5964,0.1812,0.9902,-0.0972,24.719,-29.480,1.648,82.925,-8.179,118.262
5974,0.1050,0.8530,0.0430,-3.357,-36.133,-6.409,82.985,-8.146,117.894
5984,0.0303,0.7988,0.2676,-41.077,-31.982,-14.343,82.513,-7.987,117.554
5994,0.0024,0.8970,0.4917,-68.115,-16.296,-18.250,81.650,-7.751,117.367
6005,0.0386,1.1069,0.6196,-67.627,2.075,-14.038,80.771,-7.548,117.367
6014,0.1084,1.2207,0.5552,-30.334,19.531,-0.793,80.294,-7.482,117.565
6024,0.1821,1.2207,0.3540,26.001,33.264,12.512,80.442,-7.553,117.916
6034,0.2261,1.1250,0.1167,69.763,40.039,16.846,81.112,-7.690,118.339
6044,0.2158,0.8955,-0.0977,84.717,36.438,12.146,82.051,-7.811,118.724
6054,0.1738,0.7163,-0.2070,61.462,25.024,1.282,82.870,-7.844,118.976
6064,0.1411,0.6826,-0.2031,10.803,11.658,-8.911,83.199,-7.773,119.081
6074,0.1294,0.7993,-0.1211,-40.222,0.671,-13.184,82.952,-7.657,119.070
6084,0.1147,0.9873,0.0225,-63.721,-10.986,-12.390,82.397,-7.537,118.949
6094,0.0981,1.1133,0.1787,-50.964,-23.315,-4.883,81.909,-7.493,118.707
6104,0.0952,1.1465,0.3047,-16.602,-29.175,8.118,81.711,-7.586,118.427
6114,0.1167,1.1543,0.4209,19.409,-27.283,20.081,81.821,-7.800,118.185
6126,0.1318,1.1055,0.4341,49.927,-18.799,25.391,82.200,-8.058,118.032
6134,0.1436,0.9976,0.3320,58.838,-1.709,21.301,82.678,-8.267,118.043
6144,0.1426,0.9399,0.2046,44.128,16.541,7.751,83.040,-8.328,118.218
6154,0.1401,0.8950,0.0732,17.578,31.311,-8.057,83.194,-8.212,118.526
6164,0.1606,0.9121,-0.0063,-15.869,38.513,-20.569,83.057,-7.987,118.889
6174,0.1602,0.9849,-0.0342,-38.879,34.241,-26.733,82.716,-7.696,119.196
6184,0.1289,1.0605,0.0044,-40.222,20.813,-22.522,82.365,-7.438,119.377
6194,0.0811,1.0342,0.0498,-19.104,4.150,-9.399,82.222,-7.311,119.405
6204,0.0571,1.0024,0.1084,8.789,-10.986,4.517,82.337,-7.328,119.301
6214,0.0513,0.9512,0.1479,31.860,-20.935,15.564,82.667,-7.465,119.114
6224,0.0850,0.9268,0.1499,41.077,-21.179,19.775,83.079,-7.663,118.927
6234,0.1504,0.9927,0.1401,33.875,-9.033,15.869,83.408,-7.839,118.856
6244,0.2241,1.0732,0.1162,19.653,6.958,7.080,83.600,-7.943,118.932
6254,0.2500,1.0854,0.0859,4.761,19.714,-3.235,83.639,-7.938,119.130
6264,0.2222,1.0767,0.1050,-13.550,26.367,-13.611,83.480,-7.811,119.377
6275,0.1499,1.0034,0.1030,-26.550,24.780,-20.813,83.194,-7.586,119.603
6285,0.0835,0.9424,0.1064,-30.945,16.296,-21.729,82.870,-7.328,119.740
6295,0.0312,0.9048,0.1099,-23.987,4.761,-14.587,82.634,-7.125,119.767
6305,0.0210,0.9209,0.1323,-8.484,-5.371,-2.747,82.546,-7.048,119.713
6315,0.0454,0.9185,0.1577,12.024,-13.428,9.521,82.656,-7.114,119.592
6325,0.1001,0.9448,0.1997,27.161,-15.198,16.968,82.897,-7.289,119.460
6335,0.1802,1.0107,0.2246,32.288,-6.348,17.456,83.167,-7.493,119.416
6345,0.2349,1.0479,0.2041,31.006,6.470,12.939,83.419,-7.663,119.498
6355,0.2505,1.0220,0.1509,23.254,18.860,4.639,83.606,-7.745,119.691
6365,0.2134,0.9507,0.1040,6.592,27.039,-5.981,83.639,-7.707,119.954
6375,0.1450,0.8979,0.0703,-14.160,28.503,-14.832,83.480,-7.542,120.229
6385,0.0962,0.8950,0.0381,-27.222,21.606,-17.578,83.227,-7.333,120.421
6395,0.0693,0.9072,0.0068,-22.766,7.812,-11.536,83.057,-7.180,120.487
6405,0.0894,0.9756,0.0210,-5.188,-8.728,-0.183,83.073,-7.169,120.399
6415,0.1138,0.9614,0.0366,18.921,-26.855,12.695,83.342,-7.322,120.146
6425,0.1562,0.9771,0.0928,29.907,-38.452,20.081,83.694,-7.581,119.784
6435,0.2021,1.0420,0.1704,23.621,-34.790,17.029,83.941,-7.817,119.454
6445,0.2231,1.0796,0.2236,6.592,-18.677,6.470,83.974,-7.938,119.273
6455,0.1929,1.0859,0.2437,-15.625,1.343,-6.531,83.754,-7.888,119.279
6465,0.1177,1.0308,0.2236,-35.339,21.362,-18.494,83.315,-7.668,119.476
6475,0.0625,0.9790,0.1758,-47.546,35.828,-25.391,82.766,-7.339,119.806
6485,0.0400,0.9922,0.1260,-45.227,36.865,-23.254,82.277,-7.015,120.141
6495,0.0337,0.9878,0.0762,-22.339,22.217,-12.268,82.062,-6.812,120.350
6505,0.0532,0.9990,0.0542,11.047,-0.427,1.343,82.222,-6.790,120.344
6515,0.0815,0.9312,0.0303,40.466,-22.461,12.756,82.705,-6.927,120.141
6525,0.1230,0.9512,0.0586,45.898,-39.612,17.944,83.243,-7.158,119.767
6535,0.1772,1.0459,0.1255,31.860,-40.100,15.198,83.606,-7.377,119.383
6545,0.2324,1.1201,0.1636,12.695,-21.973,6.409,83.738,-7.504,119.169
6555,0.2231,1.1338,0.1699,-5.310,1.282,-6.042,83.661,-7.482,119.174
6565,0.1704,1.0942,0.1621,-21.851,21.973,-18.738,83.397,-7.284,119.377
6575,0.1084,0.9907,0.1313,-35.400,35.217,-25.879,82.996,-6.982,119.696
6585,0.0562,0.9390,0.1187,-39.856,35.645,-25.513,82.562,-6.652,120.026
6595,0.0107,0.8999,0.1152,-27.344,23.376,-17.151,82.271,-6.394,120.234
6605,0.0073,0.9199,0.1157,-2.563,5.676,-2.869,82.244,-6.295,120.289
6615,0.0312,0.8975,0.0713,29.419,-11.658,12.695,82.579,-6.394,120.190
6625,0.0942,0.9077,0.0439,50.171,-28.809,23.499,83.150,-6.658,119.932
6635,0.1807,0.9932,0.0557,49.744,-37.109,25.940,83.716,-6.993,119.592
6645,0.2446,1.0742,0.0811,38.269,-31.006,20.813,84.150,-7.289,119.306
6655,0.2783,1.1289,0.1187,20.081,-16.479,10.254,84.364,-7.471,119.147
6665,0.2402,1.1006,0.1670,0.122,-1.587,-1.953,84.342,-7.498,119.130
6675,0.1577,1.0313,0.2070,-21.729,11.230,-13.306,84.056,-7.366,119.229
6685,0.0815,0.9614,0.2061,-40.222,20.630,-21.667,83.573,-7.108,119.416
6695,0.0234,0.9258,0.1826,-47.119,23.926,-24.414,83.035,-6.784,119.625
6705,0.0103,0.9424,0.1636,-39.429,19.470,-19.165,82.595,-6.509,119.800
6715,0.0298,0.9434,0.1436,-17.334,8.850,-7.263,82.397,-6.378,119.877
6725,0.0718,0.9634,0.1255,9.521,-2.441,5.005,82.496,-6.411,119.861
6735,0.1172,0.9556,0.1128,31.433,-13.916,13.306,82.831,-6.564,119.740
6745,0.1582,0.9609,0.1074,38.147,-20.447,15.381,83.238,-6.768,119.553
6755,0.1973,1.0015,0.1084,29.480,-16.724,11.230,83.551,-6.943,119.399
6765,0.2075,1.0483,0.1152,13.123,-5.371,3.357,83.688,-7.020,119.350
6775,0.1533,1.0112,0.1079,-4.272,7.446,-5.859,83.644,-6.971,119.416
6785,0.1006,0.9761,0.1099,-23.132,19.226,-14.343,83.392,-6.801,119.592
6795,0.0698,0.9551,0.1084,-36.865,26.489,-17.883,82.996,-6.564,119.839
6805,0.0601,0.9604,0.1064,-35.828,24.536,-14.709,82.623,-6.361,120.064
6815,0.0801,0.9683,0.1099,-18.799,14.099,-5.615,82.436,-6.273,120.201
6825,0.1123,1.0020,0.1309,6.287,-2.014,5.676,82.496,-6.334,120.185
6835,0.1538,1.0010,0.1279,33.203,-20.020,15.930,82.848,-6.537,120.009
6845,0.1816,1.0073,0.1245,47.546,-35.095,21.667,83.359,-6.828,119.685
6855,0.1870,1.0303,0.1255,42.969,-35.828,19.287,83.820,-7.092,119.350
6865,0.1665,1.0610,0.1333,25.879,-21.729,9.338,84.089,-7.224,119.141
6875,0.1396,1.0728,0.1392,4.089,-1.587,-3.113,84.117,-7.196,119.119
6885,0.1021,1.0313,0.1333,-18.188,17.578,-12.329,83.903,-7.042,119.284
6895,0.0752,0.9648,0.1099,-37.720,31.860,-18.982,83.491,-6.795,119.586
6905,0.0728,0.9492,0.0947,-45.898,34.851,-21.118,83.007,-6.526,119.910
6915,0.0664,0.9233,0.0688,-37.109,25.574,-15.015,82.639,-6.323,120.146
6925,0.0674,0.8818,0.0542,-16.113,8.789,-2.991,82.507,-6.262,120.229
6935,0.0791,0.8867,0.0698,8.850,-8.850,9.644,82.634,-6.356,120.152
6945,0.1128,0.9214,0.1128,29.968,-26.001,20.752,82.958,-6.597,119.921
6955,0.1665,1.0420,0.1870,36.621,-35.645,26.367,83.326,-6.927,119.597
6965,0.2095,1.1768,0.2314,34.546,-29.297,23.987,83.655,-7.224,119.333
6975,0.2368,1.2354,0.2144,27.954,-10.864,13.977,83.908,-7.410,119.240
6985,0.1948,1.1470,0.1699,14.526,9.583,-0.793,84.018,-7.410,119.333
6995,0.1108,0.9951,0.1323,-11.658,27.710,-16.296,83.853,-7.213,119.597
7006,0.0542,0.8853,0.0889,-41.626,39.673,-27.527,83.397,-6.861,119.965
7015,0.0371,0.8843,0.0557,-56.824,38.940,-30.029,82.826,-6.476,120.317
7025,0.0288,0.8975,0.0337,-46.143,25.879,-20.081,82.392,-6.202,120.553
7035,0.0601,0.9185,0.0337,-15.747,7.324,-2.869,82.282,-6.141,120.619
7045,0.1182,0.9653,0.0488,20.935,-12.756,13.306,82.551,-6.295,120.509
7055,0.1572,1.0059,0.0708,49.011,-34.180,24.109,83.106,-6.603,120.201
7065,0.1772,1.0298,0.1113,56.335,-45.959,26.001,83.716,-6.943,119.773
7075,0.1841,1.0811,0.1665,42.786,-38.940,18.921,84.161,-7.196,119.405
7085,0.1895,1.1460,0.2163,18.250,-18.677,6.165,84.315,-7.295,119.224
7095,0.1484,1.0850,0.2378,-5.676,4.089,-7.019,84.188,-7.229,119.257
7105,0.0854,1.0078,0.2354,-29.297,24.719,-19.348,83.798,-6.987,119.487
7115,0.0625,0.9521,0.1846,-47.241,39.246,-27.771,83.238,-6.636,119.850
7125,0.0273,0.8950,0.1035,-47.913,41.138,-27.283,82.722,-6.273,120.229
7135,0.0298,0.8745,0.0454,-34.607,32.593,-17.944,82.386,-6.015,120.531
7145,0.0547,0.8828,0.0112,-11.414,16.235,-3.113,82.326,-5.938,120.690
7155,0.1021,0.9531,-0.0044,16.846,-2.502,11.169,82.573,-6.048,120.679
7165,0.1484,0.9863,-0.0171,42.786,-23.010,21.667,83.106,-6.317,120.476
7175,0.1802,1.0273,0.0337,50.720,-39.307,26.062,83.694,-6.658,120.114
7185,0.1899,1.0801,0.1201,38.940,-38.818,21.851,84.122,-6.949,119.751
7195,0.1875,1.1284,0.1963,16.846,-23.193,9.766,84.276,-7.092,119.531
7205,0.1460,1.0708,0.2358,-4.150,-2.563,-3.967,84.172,-7.059,119.498
7215,0.0815,0.9639,0.2324,-25.146,17.212,-14.709,83.826,-6.872,119.658
7225,0.0508,0.9019,0.1758,-41.809,31.677,-21.545,83.331,-6.592,119.949
7235,0.0532,0.8965,0.0991,-44.617,34.973,-20.935,82.853,-6.312,120.278
7245,0.0806,0.9409,0.0449,-30.823,26.123,-12.085,82.568,-6.147,120.520
7255,0.1270,0.9697,0.0098,-6.592,9.338,0.977,82.562,-6.158,120.613
7265,0.1777,1.0537,0.0122,19.226,-10.071,11.292,82.826,-6.317,120.531
7275,0.1968,1.0620,0.0459,42.236,-31.860,17.334,83.326,-6.564,120.234
7285,0.1631,0.9790,0.0962,48.584,-45.471,18.250,83.864,-6.828,119.800
7295,0.1323,0.9565,0.1772,31.311,-41.382,11.902,84.177,-6.998,119.399
7305,0.1182,1.0083,0.2344,5.676,-26.062,2.075,84.194,-7.037,119.141
7315,0.1040,1.0313,0.2485,-11.719,-8.240,-5.005,84.012,-6.982,119.053
7325,0.0913,1.0088,0.2061,-19.470,6.653,-8.606,83.754,-6.872,119.108
7335,0.0869,0.9912,0.1274,-21.667,14.099,-10.559,83.513,-6.735,119.240
7345,0.0840,0.9575,0.0454,-16.113,13.611,-9.216,83.375,-6.608,119.366
7355,0.0742,0.8955,-0.0146,-8.667,8.240,-4.089,83.359,-6.542,119.443
7365,0.0649,0.8721,-0.0361,-3.967,-1.770,1.282,83.414,-6.537,119.427
7375,0.0649,0.9063,-0.0029,-0.061,-13.550,5.737,83.491,-6.581,119.295
7385,0.0942,0.9941,0.0698,2.808,-24.719,10.010,83.573,-6.696,119.064
7395,0.1294,1.1025,0.1558,5.066,-32.349,13.550,83.644,-6.866,118.751
7405,0.1504,1.2065,0.2241,5.493,-29.724,13.672,83.688,-7.031,118.471
7415,0.1626,1.2656,0.2573,6.470,-17.151,8.728,83.721,-7.141,118.312
7425,0.1694,1.2266,0.2554,6.592,-0.732,0.671,83.732,-7.152,118.301
7435,0.1426,1.0938,0.2168,0.549,15.808,-7.874,83.666,-7.059,118.455
7445,0.1094,0.9653,0.1499,-12.451,28.503,-15.930,83.491,-6.866,118.718
7455,0.0801,0.8911,0.0786,-25.208,33.752,-20.508,83.216,-6.608,119.037
7465,0.0752,0.8779,0.0361,-29.053,29.907,-19.165,82.941,-6.367,119.312
7475,0.0811,0.8701,0.0117,-19.226,16.968,-12.451,82.798,-6.213,119.465
7485,0.0879,0.8843,0.0186,-2.258,1.282,-2.563,82.831,-6.180,119.476
7495,0.1074,0.9082,0.0425,17.029,-10.986,7.080,83.057,-6.268,119.372
7506,0.1299,0.9180,0.0830,31.616,-19.348,14.893,83.408,-6.454,119.196
7515,0.1514,0.9502,0.1265,31.860,-20.325,16.907,83.732,-6.669,119.015
7525,0.1729,1.0176,0.1616,21.545,-12.878,12.451,83.930,-6.833,118.900
7535,0.1709,1.0576,0.1807,8.118,-1.465,4.822,83.979,-6.905,118.889
7545,0.1318,1.0151,0.1685,-3.418,9.949,-2.380,83.897,-6.877,118.987
7555,0.0845,0.9468,0.1372,-15.076,19.653,-8.118,83.705,-6.757,119.174
7565,0.0649,0.9365,0.1064,-23.926,24.048,-10.498,83.441,-6.603,119.405
7575,0.0640,0.9507,0.0889,-21.484,20.691,-6.897,83.216,-6.482,119.603
7585,0.0889,0.9604,0.0781,-8.057,10.315,1.282,83.145,-6.471,119.707
7595,0.1240,1.0151,0.0864,9.338,-3.662,9.705,83.260,-6.575,119.685
7605,0.1572,1.0459,0.0962,26.733,-17.395,15.808,83.557,-6.768,119.526
7615,0.1636,1.0620,0.1128,32.593,-26.245,17.334,83.914,-6.987,119.284
7625,0.1367,1.0308,0.1177,26.184,-22.583,12.268,84.194,-7.136,119.070
7635,0.1064,1.0005,0.1323,9.827,-9.766,3.357,84.287,-7.169,118.976
7645,0.0586,0.9053,0.1328,-6.531,2.930,-4.089,84.194,-7.092,119.004
7655,0.0195,0.7983,0.1162,-18.372,12.695,-7.019,83.969,-6.954,119.125
7665,0.0283,0.8286,0.1240,-23.071,15.930,-3.845,83.699,-6.850,119.279
7675,0.0620,0.9077,0.1367,-10.193,10.376,7.629,83.562,-6.883,119.388
7685,0.1274,1.0205,0.1621,15.930,-0.671,22.278,83.688,-7.103,119.410
7695,0.2002,1.1182,0.1416,41.321,-11.353,32.043,84.100,-7.460,119.328
7705,0.2642,1.2163,0.1030,49.683,-17.761,31.494,84.622,-7.839,119.185
7715,0.2861,1.2192,0.0630,39.856,-14.771,21.423,85.056,-8.113,119.059
7725,0.2490,1.1172,0.0220,13.062,-2.930,6.042,85.226,-8.223,119.031
7735,0.1748,1.0566,0.0410,-20.325,10.193,-9.583,85.040,-8.130,119.125
7745,0.0830,0.9810,0.0659,-39.734,18.372,-16.663,84.633,-7.916,119.295
7756,0.0103,0.9131,0.0625,-39.307,19.775,-13.550,84.232,-7.690,119.482
7766,-0.0122,0.8711,0.0391,-24.780,13.489,-4.333,84.001,-7.553,119.614
7776,0.0322,0.9150,0.0273,-2.014,1.404,7.080,84.023,-7.564,119.636
7786,0.1348,0.9878,0.0146,22.583,-14.099,17.700,84.315,-7.756,119.515
7796,0.2378,1.0620,0.0034,35.828,-28.870,24.475,84.760,-8.075,119.246
7806,0.2900,1.1206,0.0186,32.410,-36.865,23.071,85.172,-8.399,118.900
7816,0.2881,1.1226,0.0718,18.188,-31.921,12.207,85.408,-8.602,118.586
7826,0.2153,1.0391,0.1382,-1.282,-17.273,-2.869,85.391,-8.619,118.411
7836,0.1162,0.9404,0.2378,-21.851,-2.136,-14.832,85.084,-8.459,118.378
7846,0.0435,0.8779,0.2939,-35.706,11.108,-19.409,84.578,-8.201,118.471
7856,0.0410,0.8584,0.2783,-38.147,19.653,-15.381,84.051,-7.971,118.652
7866,0.0952,0.9067,0.2178,-26.794,20.996,-5.920,83.683,-7.872,118.861
7876,0.1782,0.9722,0.1396,-6.042,16.724,4.089,83.578,-7.916,119.031
7886,0.2363,0.9941,0.0483,13.245,10.315,10.132,83.732,-8.058,119.147
7896,0.2485,0.9814,-0.0234,20.935,3.479,10.010,84.012,-8.218,119.191
7906,0.2051,0.9224,-0.0620,14.709,-1.038,5.737,84.254,-8.317,119.191
7916,0.1504,0.9189,-0.0254,-3.662,-2.014,0.122,84.293,-8.333,119.169
7926,0.1118,0.9585,0.0459,-21.118,-1.892,-3.662,84.117,-8.278,119.147
7936,0.0942,1.0215,0.1201,-28.076,-2.686,-4.150,83.837,-8.212,119.114
7946,0.0986,1.0708,0.1704,-22.827,-4.272,-1.709,83.589,-8.168,119.070
7956,0.1221,1.0952,0.1787,-10.010,-5.981,2.075,83.469,-8.174,119.009
7966,0.1523,1.1089,0.1562,3.296,-5.798,4.700,83.496,-8.223,118.960
7976,0.1870,1.0825,0.1196,11.169,-4.456,4.822,83.611,-8.295,118.922
7986,0.1753,1.0151,0.1143,7.690,-3.235,1.465,83.694,-8.322,118.889
7996,0.1318,0.9644,0.1455,-2.869,-1.221,-3.906,83.644,-8.284,118.872
8006,0.0889,0.9541,0.1992,-11.597,2.197,-6.592,83.474,-8.185,118.889
8016,0.0630,0.9404,0.2114,-10.132,6.287,-5.310,83.304,-8.080,118.943
8026,0.0879,0.9829,0.1836,-0.977,10.376,-1.160,83.238,-8.026,119.048
8036,0.1318,1.0137,0.1250,11.841,12.634,4.456,83.337,-8.047,119.180
8046,0.1865,1.0195,0.0605,21.301,12.817,8.301,83.562,-8.135,119.317
8056,0.2187,0.9927,0.0166,18.677,11.597,8.179,83.782,-8.251,119.443
8066,0.2109,0.9072,-0.0137,5.920,9.338,3.967,83.897,-8.328,119.542
8076,0.1812,0.8472,-0.0107,-14.282,6.958,-1.648,83.815,-8.339,119.608
8086,0.1655,0.8589,0.0420,-32.410,3.296,-5.066,83.524,-8.311,119.636
8096,0.1421,0.8828,0.1123,-31.799,-4.028,-2.380,83.205,-8.300,119.592
8106,0.1606,0.9849,0.1968,-16.235,-12.207,6.958,83.018,-8.394,119.482
8116,0.1807,1.0566,0.2441,7.019,-19.958,18.921,83.051,-8.613,119.301
8127,0.1440,0.9839,0.2168,28.076,-21.973,27.832,83.304,-8.904,119.114
8136,0.0986,0.8662,0.1436,27.466,-11.963,26.978,83.562,-9.163,119.026
8146,0.0688,0.7681,0.0737,3.174,4.700,18.616,83.589,-9.300,119.097
8156,0.0728,0.7690,0.0342,-27.832,19.775,11.230,83.320,-9.349,119.306
8166,0.1157,0.8862,0.0513,-43.335,24.414,11.047,82.886,-9.410,119.564
8176,0.1880,1.0415,0.0811,-31.921,15.381,18.677,82.568,-9.580,119.745
8186,0.2275,1.1709,0.1230,-1.404,-3.967,29.602,82.568,-9.893,119.745
8196,0.2544,1.2539,0.1636,32.349,-22.644,38.147,82.919,-10.311,119.564
8206,0.2686,1.2847,0.1855,53.467,-32.776,39.551,83.485,-10.750,119.284
8216,0.2456,1.2622,0.2012,53.162,-30.762,31.067,84.034,-11.091,119.009
8226,0.1987,1.2246,0.2075,35.217,-16.785,14.709,84.375,-11.234,118.856
8236,0.1240,1.1187,0.1973,11.169,3.235,-2.991,84.441,-11.151,118.883
8246,0.0635,1.0313,0.1875,-12.146,22.827,-16.296,84.232,-10.893,119.103
8256,0.0508,1.0029,0.1636,-28.748,37.415,-23.071,83.842,-10.547,119.454
8266,0.0991,1.0181,0.1074,-30.823,40.283,-22.644,83.469,-10.234,119.839
8276,0.1694,1.0317,0.0439,-16.785,30.273,-15.503,83.293,-10.036,120.125
8286,0.2187,1.0151,-0.0098,4.761,14.526,-5.859,83.392,-9.981,120.267
8296,0.2290,0.9136,-0.0708,25.330,0.366,0.916,83.749,-10.031,120.273
8306,0.2285,0.8423,-0.0796,30.762,-10.620,3.174,84.188,-10.124,120.168
8316,0.2388,0.8232,-0.0273,19.470,-16.663,2.319,84.490,-10.228,119.998
8326,0.2510,0.8633,0.0596,1.282,-14.282,-0.916,84.540,-10.289,119.855
8336,0.2544,0.9165,0.1484,-14.343,-5.798,-4.822,84.375,-10.300,119.789
8346,0.2339,0.9482,0.2012,-22.339,3.540,-8.423,84.084,-10.245,119.817
8356,0.2163,0.9370,0.2144,-22.583,12.634,-9.827,83.771,-10.157,119.938
8366,0.2144,0.9302,0.1963,-17.395,17.029,-6.836,83.513,-10.102,120.103
8376,0.1870,0.8677,0.1313,-6.592,14.709,-1.343,83.403,-10.091,120.251
8386,0.1206,0.7549,0.0347,2.747,11.047,3.357,83.447,-10.102,120.366
8396,0.1270,0.7842,0.0010,0.854,9.155,7.507,83.502,-10.151,120.465
8406,0.1582,0.8623,0.0024,-2.563,4.089,12.695,83.529,-10.278,120.520
8416,0.2002,0.9751,0.0439,-4.211,-4.150,15.625,83.535,-10.448,120.498
8426,0.2598,1.1338,0.1226,-5.981,-13.672,14.954,83.496,-10.635,120.377
8436,0.3013,1.2476,0.1885,-3.296,-23.071,12.268,83.485,-10.811,120.157
8446,0.2935,1.2500,0.1982,2.380,-25.574,8.423,83.529,-10.942,119.905
8456,0.2153,1.1313,0.1611,5.920,-19.226,2.197,83.606,-10.981,119.718
8466,0.0913,0.9399,0.1025,3.967,-6.409,-4.761,83.661,-10.887,119.647
8476,0.0317,0.8447,0.1147,-8.484,5.859,-9.033,83.557,-10.706,119.696
8486,0.0474,0.8682,0.1665,-20.813,10.986,-8.423,83.287,-10.536,119.795
8496,0.1230,0.9795,0.2271,-24.353,7.751,-3.601,82.969,-10.453,119.872
8507,0.1997,1.0806,0.2793,-15.930,-0.671,0.916,82.738,-10.459,119.866
8516,0.2314,1.1108,0.3115,-0.854,-8.301,2.380,82.661,-10.503,119.784
8526,0.1846,1.0610,0.3677,10.498,-8.728,1.587,82.661,-10.519,119.696
8536,0.1206,0.9683,0.3984,15.747,0.488,-0.305,82.667,-10.475,119.702
8546,0.0879,0.8975,0.3784,17.456,17.090,-1.282,82.650,-10.388,119.872
8556,0.0957,0.8853,0.3218,17.700,33.142,-0.916,82.639,-10.289,120.207
8566,0.1196,0.8789,0.1797,18.860,46.631,-0.671,82.705,-10.201,120.674
8576,0.1387,0.8750,0.0254,15.381,55.542,-2.319,82.815,-10.096,121.234
8586,0.1499,0.9243,-0.0967,6.165,54.321,-4.639,82.914,-9.970,121.772
8596,0.1802,0.9829,-0.2065,-2.747,43.518,-4.272,83.002,-9.877,122.206
8606,0.2217,1.0361,-0.2998,-7.324,28.015,-1.343,83.112,-9.849,122.487
8616,0.2656,1.0542,-0.3530,-7.141,11.475,1.404,83.276,-9.888,122.602
8626,0.3018,1.0439,-0.3477,-4.517,-4.700,3.296,83.491,-9.976,122.563
8636,0.3130,1.0322,-0.2295,-2.991,-22.339,5.066,83.688,-10.118,122.344
8646,0.2939,1.0474,-0.0210,-2.808,-38.208,7.019,83.798,-10.283,121.965
8656,0.2466,1.0239,0.2163,-2.747,-45.532,8.850,83.793,-10.448,121.514
8666,0.1772,1.0205,0.4053,-4.822,-41.748,7.385,83.666,-10.552,121.097
8676,0.1191,1.0454,0.4858,-7.263,-26.550,3.418,83.458,-10.569,120.833
8686,0.1016,1.0430,0.4458,-3.601,-5.249,0.366,83.265,-10.525,120.784
8696,0.1060,0.9912,0.3320,3.967,14.526,-0.061,83.161,-10.459,120.927
8706,0.1445,0.9473,0.1934,10.315,31.006,1.038,83.161,-10.415,121.245
8716,0.1836,0.9023,0.0483,15.686,38.513,2.686,83.282,-10.404,121.635
8726,0.2021,0.8745,-0.0532,17.883,34.302,5.127,83.496,-10.443,121.987
8736,0.2187,0.8892,-0.0825,13.428,21.118,7.568,83.710,-10.525,122.212
8746,0.2124,0.9238,-0.0571,5.676,2.808,8.789,83.859,-10.635,122.245
8756,0.1992,0.9883,-0.0225,-3.174,-13.245,8.057,83.925,-10.734,122.124
8766,0.1821,1.0591,0.0703,-10.010,-24.414,6.592,83.892,-10.816,121.882
8776,0.1772,1.0908,0.2139,-12.329,-26.917,6.042,83.765,-10.887,121.619
8786,0.1699,1.0791,0.3369,-8.423,-21.484,6.104,83.611,-10.948,121.404
8796,0.1470,1.0469,0.4028,3.784,-11.169,6.836,83.524,-10.992,121.300
8806,0.1401,1.0278,0.3901,21.484,0.122,8.728,83.589,-11.036,121.311
8816,0.1895,1.0801,0.3081,37.354,8.118,10.010,83.848,-11.113,121.404
8826,0.2314,1.0894,0.1416,50.903,10.010,8.911,84.320,-11.201,121.514
8836,0.2085,1.0034,-0.0615,54.932,7.812,3.601,84.935,-11.234,121.597
8846,0.1875,0.8594,-0.2339,43.884,7.385,-3.845,85.562,-11.195,121.668
8856,0.2021,0.7480,-0.3062,18.188,8.179,-8.667,85.995,-11.129,121.745
8866,0.1865,0.6929,-0.2285,-8.972,4.028,-6.287,86.122,-11.096,121.783
8876,0.1484,0.6655,-0.0605,-23.010,-4.272,3.845,85.990,-11.151,121.745
8886,0.1548,0.7842,0.1357,-23.132,-11.353,18.738,85.721,-11.343,121.641
8896,0.2139,0.9922,0.2500,-6.714,-15.015,34.241,85.583,-11.695,121.514
8906,0.2832,1.1543,0.2339,22.949,-14.526,44.250,85.765,-12.162,121.399
8916,0.3462,1.2212,0.1123,50.964,-8.057,44.006,86.265,-12.640,121.349
8926,0.4321,1.2871,-0.0107,57.556,1.343,33.691,86.869,-13.030,121.388
8936,0.4609,1.2612,-0.0908,44.128,6.592,16.846,87.363,-13.266,121.465
8946,0.3765,1.1123,-0.1084,13.733,6.836,-1.831,87.567,-13.299,121.536
8956,0.2251,0.9443,-0.0586,-27.527,5.615,-18.433,87.341,-13.112,121.586
8966,0.0767,0.8740,0.0352,-62.622,4.578,-29.053,86.715,-12.744,121.619
8976,-0.0010,0.9004,0.1323,-71.777,1.343,-27.466,85.957,-12.343,121.613
8986,0.0117,0.8999,0.1914,-50.598,-2.808,-12.390,85.386,-12.107,121.575
8996,0.0742,0.9395,0.2222,-11.841,-5.615,7.507,85.188,-12.107,121.525
9007,0.1797,1.0146,0.2051,30.579,-6.470,23.865,85.435,-12.327,121.481
9016,0.2861,1.0400,0.1313,61.646,-5.737,32.837,86.028,-12.684,121.448
9026,0.3643,1.0474,0.0513,65.063,-3.845,29.541,86.688,-13.041,121.432
9036,0.3799,1.0625,0.0098,45.349,-0.610,15.747,87.166,-13.266,121.432
9046,0.3193,1.0039,-0.0161,15.198,3.113,-0.305,87.341,-13.304,121.465
9056,0.2275,0.9092,-0.0327,-16.724,8.057,-13.367,87.209,-13.178,121.542
9066,0.1509,0.8452,-0.0151,-43.030,12.268,-22.095,86.792,-12.920,121.657
9076,0.1221,0.8828,0.0439,-55.115,10.864,-22.339,86.232,-12.645,121.756
9086,0.1455,0.9609,0.1147,-46.265,2.380,-12.024,85.737,-12.480,121.772
9096,0.1895,1.0107,0.1567,-19.775,-7.874,2.869,85.512,-12.497,121.696
9106,0.2344,1.0552,0.1836,10.315,-14.893,13.916,85.594,-12.645,121.553
9116,0.2705,1.0474,0.1460,31.311,-14.893,18.005,85.897,-12.849,121.415
9126,0.3154,1.0615,0.1021,33.081,-7.324,13.428,86.226,-13.024,121.349
9137,0.3389,1.0601,0.0713,19.958,2.686,3.174,86.413,-13.101,121.377
9147,0.2744,0.9438,0.0386,-0.305,10.742,-8.301,86.402,-13.041,121.481
9156,0.1836,0.8750,0.0254,-27.649,19.287,-18.433,86.105,-12.838,121.668
9166,0.1318,0.8896,0.0405,-48.096,22.827,-22.339,85.594,-12.557,121.888
9176,0.1221,0.9575,0.0552,-48.462,16.541,-17.212,85.089,-12.321,122.042
9186,0.1553,1.0186,0.0610,-29.297,5.127,-4.822,84.803,-12.233,122.091
9196,0.2095,1.0996,0.0591,1.160,-6.958,8.179,84.853,-12.305,122.025
9206,0.2749,1.1670,0.0513,33.752,-15.991,17.395,85.243,-12.497,121.882
9217,0.3389,1.1348,0.0107,54.382,-16.113,20.081,85.858,-12.750,121.734
9227,0.3765,1.0957,0.0015,48.950,-7.812,11.780,86.396,-12.936,121.663
9237,0.3594,1.0381,0.0308,23.254,2.441,-4.089,86.638,-12.953,121.685
9247,0.2534,0.8916,0.0405,-11.230,11.597,-19.653,86.512,-12.783,121.789
9256,0.1523,0.8110,0.0518,-48.096,22.034,-31.616,85.990,-12.437,121.998
9266,0.1011,0.8257,0.0737,-69.336,28.076,-34.241,85.237,-12.025,122.261
9276,0.1006,0.8511,0.0830,-64.331,24.414,-25.024,84.545,-11.706,122.487
9286,0.1382,0.8906,0.0957,-35.706,11.780,-7.935,84.161,-11.585,122.596
9296,0.1870,0.9312,0.1177,3.784,-3.235,10.254,84.188,-11.684,122.574
9306,0.2554,0.9463,0.1201,41.199,-15.015,23.132,84.611,-11.964,122.448
9317,0.3101,0.9214,0.0923,60.242,-18.127,26.794,85.237,-12.310,122.289
9327,0.3428,0.9570,0.0854,49.988,-9.888,17.456,85.743,-12.563,122.201
9337,0.3384,0.9795,0.0879,18.188,4.700,-0.488,85.908,-12.618,122.250
9347,0.2988,0.9780,0.1035,-25.452,20.447,-18.677,85.594,-12.464,122.448
9357,0.2148,0.9609,0.1230,-67.200,33.752,-31.860,84.831,-12.123,122.767
9367,0.1313,0.9326,0.1353,-91.980,40.771,-37.537,83.809,-11.673,123.146
9377,0.0811,0.9272,0.1606,-93.811,37.720,-33.081,82.776,-11.239,123.492
9387,0.0581,0.9531,0.1963,-70.618,23.071,-18.616,81.991,-10.953,123.701
9397,0.0767,0.9839,0.1973,-29.724,4.456,1.465,81.656,-10.893,123.750
9407,0.1211,1.0317,0.1582,14.771,-14.099,19.348,81.821,-11.058,123.635
9417,0.1851,1.0127,0.0762,52.429,-28.442,32.288,82.419,-11.409,123.398
9427,0.2651,1.0254,0.0122,64.026,-28.625,33.936,83.172,-11.810,123.151
9437,0.3301,1.0884,-0.0020,47.241,-16.663,22.644,83.738,-12.101,123.008
9447,0.3428,1.1206,0.0347,16.968,-3.357,6.165,83.958,-12.217,122.981
9457,0.2808,1.0957,0.0957,-14.038,5.798,-8.606,83.820,-12.145,123.030
9467,0.1846,1.0713,0.1602,-40.161,12.024,-20.264,83.375,-11.909,123.135
9477,0.1016,1.0508,0.2080,-51.025,12.634,-25.757,82.804,-11.580,123.228
9487,0.0718,1.0405,0.2534,-42.542,8.789,-22.400,82.310,-11.266,123.289
9497,0.0825,1.0366,0.2568,-18.616,2.991,-12.390,82.057,-11.074,123.305
9507,0.1118,1.0513,0.2207,12.146,-0.977,-1.343,82.139,-11.014,123.294
9517,0.2456,0.9492,0.0454,47.913,-0.671,7.935,82.667,-11.124,123.300
9527,0.2998,0.9712,0.0210,35.461,1.953,0.793,83.073,-11.190,123.316
9537,0.2939,0.9473,0.0278,12.939,4.517,-10.864,83.249,-11.140,123.349
9547,0.2495,0.8926,0.0532,-13.733,5.737,-22.156,83.139,-10.959,123.382
9557,0.1694,0.8823,0.1060,-39.185,5.737,-25.574,82.749,-10.701,123.409
9567,0.1074,0.9233,0.1787,-46.570,3.052,-18.677,82.249,-10.470,123.415
9577,0.0972,0.9722,0.2510,-32.654,-3.418,-4.150,81.865,-10.382,123.376
9587,0.1118,1.0273,0.3062,-2.930,-11.292,13.489,81.766,-10.486,123.283
9597,0.1377,0.9966,0.2764,35.889,-13.245,26.428,82.068,-10.739,123.184
9607,0.1909,0.9453,0.1670,61.951,-6.226,31.006,82.661,-11.052,123.168
9617,0.2705,0.9531,0.0576,62.683,6.958,26.550,83.304,-11.354,123.272
9627,0.3237,0.9722,-0.0073,47.119,16.724,16.785,83.804,-11.569,123.459
9637,0.3149,0.9580,-0.0273,22.949,19.470,5.554,84.067,-11.673,123.668
9647,0.2485,0.9092,-0.0264,-3.357,16.052,-4.639,84.078,-11.646,123.821
9657,0.1621,0.8799,-0.0063,-25.940,8.362,-12.085,83.870,-11.503,123.893
9667,0.1172,0.8950,0.0376,-37.598,-0.122,-12.512,83.540,-11.343,123.882
9677,0.1201,0.9272,0.0908,-33.997,-9.460,-5.615,83.232,-11.255,123.777
9687,0.1597,0.9897,0.1636,-18.127,-18.311,4.578,83.062,-11.299,123.596
9697,0.1958,1.0635,0.2368,4.517,-22.034,13.794,83.090,-11.453,123.393
9707,0.2393,1.0874,0.2720,27.100,-16.724,19.104,83.315,-11.667,123.245
9717,0.2681,1.0552,0.2402,38.757,-4.150,17.395,83.639,-11.865,123.223
9727,0.2637,1.0493,0.1890,32.532,10.193,8.179,83.903,-11.953,123.338
9737,0.2422,1.0405,0.1216,16.479,22.705,-3.479,84.012,-11.904,123.563
9747,0.2178,1.0181,0.0625,-0.183,29.785,-11.719,83.974,-11.761,123.854
9757,0.1826,1.0156,0.0195,-13.367,29.663,-15.564,83.837,-11.563,124.140
9767,0.1646,1.0386,-0.0122,-18.921,24.048,-15.625,83.672,-11.354,124.365
9777,0.1729,1.0493,-0.0332,-15.503,15.564,-13.245,83.573,-11.190,124.508
9787,0.1880,1.0420,-0.0273,-8.179,6.165,-10.376,83.562,-11.069,124.557
9797,0.2041,1.0264,0.0000,-4.333,-2.380,-9.644,83.589,-10.981,124.525
9807,0.2129,0.9912,0.0444,-8.789,-6.897,-12.329,83.557,-10.876,124.442
9817,0.2046,0.9414,0.0952,-22.339,-4.517,-17.212,83.353,-10.728,124.376
9827,0.1807,0.8945,0.1270,-39.124,4.333,-22.461,82.947,-10.508,124.393
9837,0.1665,0.9360,0.1777,-53.284,14.648,-24.841,82.365,-10.239,124.508
9847,0.1699,0.9673,0.2041,-48.218,19.897,-19.409,81.810,-10.020,124.684
9857,0.1748,0.9443,0.1997,-23.193,17.151,-7.324,81.519,-9.926,124.843
9867,0.1851,0.9614,0.1904,6.958,8.606,5.432,81.541,-9.970,124.942
9877,0.1851,0.9424,0.1445,36.865,-2.258,15.808,81.903,-10.140,124.942
9887,0.1987,0.9185,0.0879,53.284,-11.658,21.057,82.474,-10.382,124.854
9897,0.2207,0.9346,0.0610,47.668,-16.663,18.433,83.007,-10.613,124.711
9907,0.2383,1.0010,0.0586,27.222,-15.015,9.888,83.342,-10.756,124.574
9917,0.2324,1.0483,0.0771,4.333,-7.935,-0.366,83.425,-10.778,124.492
9927,0.2002,1.0352,0.1240,-14.221,0.427,-8.972,83.282,-10.690,124.486
9937,0.1670,1.0317,0.1909,-29.114,6.165,-14.832,82.947,-10.525,124.530
9947,0.1147,1.0239,0.2632,-34.851,5.676,-16.663,82.518,-10.311,124.563
9957,0.0762,1.0107,0.3110,-27.405,1.953,-12.756,82.150,-10.118,124.568
9967,0.0679,1.0078,0.3022,-9.705,1.221,-5.066,81.969,-10.003,124.574
9977,0.1011,0.9844,0.2441,11.780,3.479,2.014,82.018,-9.976,124.612
9987,0.1499,0.9219,0.1553,29.480,7.141,5.737,82.282,-10.014,124.689
9997,0.2080,0.9121,0.0830,31.555,11.780,5.188,82.595,-10.074,124.816
10008,0.2539,0.9131,0.0317,21.301,14.771,1.709,82.837,-10.129,124.969
10017,0.2568,0.8921,0.0098,6.897,14.832,-2.502,82.941,-10.146,125.112
10027,0.2388,0.8896,0.0088,-9.521,10.803,-6.958,82.897,-10.113,125.217
10037,0.2212,0.9307,0.0439,-23.193,1.953,-9.094,82.711,-10.052,125.222
10047,0.2026,0.9648,0.0884,-27.222,-8.667,-7.080,82.480,-10.014,125.129
10057,0.1846,0.9746,0.1211,-22.034,-15.564,-2.502,82.293,-10.014,124.964
10067,0.1807,0.9692,0.1431,-12.634,-16.235,0.916,82.189,-10.047,124.805
10077,0.1812,0.9438,0.1602,-6.470,-9.399,1.648,82.123,-10.085,124.711
10087,0.1992,0.9321,0.1841,-9.399,-0.977,-0.427,81.996,-10.096,124.700
10097,0.2046,0.9082,0.2002,-19.653,5.920,-4.028,81.749,-10.074,124.755
10107,0.2051,0.9214,0.2129,-35.034,12.451,-9.155,81.337,-9.987,124.865
10117,0.1992,0.9414,0.2104,-46.082,18.311,-12.817,80.810,-9.855,125.030
10128,0.1763,0.9775,0.2061,-46.509,21.057,-12.634,80.294,-9.695,125.222
10137,0.1411,0.9614,0.1484,-30.029,20.508,-6.836,79.969,-9.580,125.414
10147,0.1240,0.9321,0.0791,-6.775,18.127,2.563,79.926,-9.553,125.601
10157,0.1260,0.9707,0.0498,15.320,12.756,12.573,80.123,-9.635,125.750
10167,0.1431,1.0073,0.0347,35.950,3.174,22.156,80.546,-9.827,125.821
10177,0.1919,1.0674,0.0464,46.326,-8.179,26.550,81.079,-10.107,125.782
10187,0.2354,1.1548,0.0757,41.260,-17.761,22.400,81.568,-10.366,125.640
10197,0.2368,1.2163,0.1030,25.574,-22.278,11.597,81.892,-10.519,125.431
10207,0.2183,1.2319,0.1396,5.188,-19.714,-1.587,81.996,-10.525,125.233
10217,0.1831,1.1899,0.1606,-15.198,-11.597,-12.878,81.876,-10.393,125.096
10227,0.1284,1.0830,0.1631,-30.334,-2.258,-20.996,81.579,-10.157,125.046
10237,0.0679,0.9771,0.1841,-38.208,4.211,-24.170,81.178,-9.849,125.052
10247,0.0352,0.9087,0.2095,-34.180,5.920,-19.043,80.793,-9.580,125.079
10257,0.0498,0.8892,0.2202,-18.555,4.150,-7.263,80.557,-9.437,125.112
10267,0.0757,0.9219,0.2178,6.714,1.282,5.615,80.579,-9.437,125.134
10277,0.1147,0.9141,0.1851,36.926,-1.404,16.357,80.925,-9.580,125.145
10287,0.1855,0.9297,0.1494,55.481,-1.343,22.278,81.469,-9.811,125.167
10297,0.2446,0.9541,0.1040,54.626,0.854,20.874,82.024,-10.063,125.206
10307,0.2769,0.9878,0.0776,37.720,2.869,12.817,82.425,-10.239,125.255
10317,0.2827,1.0317,0.0684,13.428,3.296,2.136,82.590,-10.305,125.294
10327,0.2588,1.0195,0.0479,-6.348,1.831,-6.958,82.573,-10.272,125.299
10337,0.2222,0.9565,0.0293,-18.250,-1.831,-13.428,82.452,-10.173,125.266
10347,0.1890,0.9199,0.0420,-26.001,-7.446,-16.357,82.266,-10.036,125.167
10357,0.1514,0.8848,0.0806,-26.550,-14.099,-13.916,82.051,-9.915,125.008
10367,0.1250,0.8716,0.1372,-21.545,-19.836,-8.484,81.865,-9.838,124.794
10377,0.1157,0.8887,0.2100,-14.221,-23.926,-3.052,81.716,-9.816,124.552
10387,0.1338,0.9326,0.2588,-6.958,-24.048,1.038,81.617,-9.844,124.310
10397,0.1538,0.9722,0.2720,-1.587,-18.250,2.502,81.557,-9.882,124.129
10407,0.1763,0.9951,0.2490,-0.183,-8.850,-0.122,81.513,-9.893,124.041
10417,0.1973,1.0186,0.2090,-5.676,0.305,-7.446,81.431,-9.827,124.036
10427,0.2134,1.0313,0.1479,-17.029,7.324,-18.433,81.255,-9.651,124.080
10437,0.2212,1.0308,0.0776,-30.823,10.803,-30.090,80.986,-9.366,124.140
10447,0.2021,1.0322,0.0474,-44.556,9.033,-36.743,80.601,-9.009,124.173
10457,0.1787,1.0259,0.0356,-52.246,1.526,-38.269,80.167,-8.641,124.124
10467,0.1641,1.0244,0.0352,-54.138,-10.925,-38.147,79.733,-8.295,123.953
10477,0.1548,1.0474,0.0552,-53.040,-25.024,-37.659,79.327,-7.971,123.635
10487,0.1470,1.0693,0.0913,-46.631,-39.001,-36.987,78.986,-7.679,123.179
10497,0.1416,1.0684,0.1279,-36.133,-49.744,-34.912,78.745,-7.432,122.618
10508,0.1255,1.0708,0.1782,-26.123,-50.659,-29.907,78.574,-7.234,122.058
10517,0.1260,1.0518,0.2261,-18.494,-41.016,-24.475,78.442,-7.070,121.602
10527,0.1152,1.0098,0.2588,-12.634,-27.588,-21.179,78.327,-6.910,121.289
10537,0.0967,0.9673,0.2944,-10.376,-11.841,-18.738,78.190,-6.740,121.135
10547,0.0845,0.9404,0.3169,-11.719,2.380,-16.357,78.008,-6.559,121.124
10557,0.0669,0.9072,0.3115,-12.329,14.221,-13.245,77.805,-6.378,121.234
10567,0.0552,0.8755,0.2842,-11.719,23.621,-10.193,77.607,-6.196,121.448
10577,0.0679,0.8965,0.2466,-10.437,29.663,-7.263,77.443,-6.042,121.723
10587,0.0967,0.9351,0.2041,-6.470,30.518,-3.662,77.349,-5.938,122.014
10597,0.1396,1.0083,0.1704,0.854,24.841,0.427,77.366,-5.911,122.256
10607,0.1880,1.0815,0.1553,11.902,11.169,3.601,77.514,-5.960,122.377
10617,0.2026,1.1133,0.1538,25.452,-6.958,6.042,77.822,-6.075,122.322
10627,0.1626,1.0498,0.1626,38.330,-22.339,8.301,78.256,-6.229,122.119
10637,0.0889,0.8926,0.1836,45.776,-27.283,10.254,78.734,-6.378,121.871
10647,0.0181,0.7388,0.2104,35.583,-13.245,7.080,79.052,-6.422,121.756
10657,-0.0151,0.7358,0.2871,8.057,7.324,-0.244,79.025,-6.328,121.827
10667,0.0293,0.8467,0.3647,-21.973,24.963,-6.165,78.657,-6.174,122.064
10677,0.0967,1.0381,0.4238,-41.382,33.630,-8.240,78.102,-6.021,122.377
10687,0.1392,1.2070,0.4316,-36.987,31.860,-8.240,77.629,-5.872,122.673
10697,0.1514,1.2524,0.3696,-8.850,25.635,-4.517,77.476,-5.784,122.915
10707,0.1445,1.2334,0.2891,26.550,18.677,1.404,77.712,-5.762,123.102
10717,0.1182,1.1240,0.1924,57.129,10.986,5.920,78.294,-5.801,123.223
10727,0.0991,0.9995,0.1030,74.219,2.380,7.202,79.080,-5.861,123.261
10737,0.0928,0.9331,0.0474,74.158,-6.042,5.127,79.904,-5.922,123.212
10747,0.0977,0.9268,0.0366,62.134,-13.916,2.258,80.607,-5.971,123.074
10757,0.1064,0.9575,0.0488,49.927,-21.790,0.305,81.189,-6.010,122.860
10767,0.1152,1.0083,0.0728,39.246,-26.978,-1.282,81.656,-6.042,122.591
10777,0.1260,1.0630,0.0957,30.884,-28.503,-3.052,82.018,-6.064,122.300
10787,0.1387,1.1104,0.1216,25.574,-28.748,-4.578,82.321,-6.070,122.009
10797,0.1528,1.1450,0.1401,24.231,-29.663,-5.676,82.601,-6.064,121.707
10807,0.1606,1.1709,0.1548,26.855,-31.677,-6.714,82.897,-6.059,121.382
10817,0.1489,1.1768,0.1548,31.494,-34.058,-7.751,83.243,-6.031,121.031
10827,0.1265,1.1523,0.1411,34.973,-35.950,-8.667,83.628,-5.993,120.663
10837,0.0815,1.0957,0.1064,40.100,-38.208,-9.705,84.073,-5.922,120.273
10847,0.0371,1.0361,0.0703,42.969,-38.086,-11.353,84.556,-5.812,119.877
10857,0.0015,0.9834,0.0459,41.809,-33.630,-13.428,85.034,-5.652,119.526
10867,-0.0322,0.9180,0.0283,36.072,-25.085,-14.709,85.452,-5.449,119.262
10877,-0.0571,0.8677,0.0293,24.780,-14.404,-13.855,85.737,-5.235,119.108
10887,-0.0571,0.8398,0.0430,11.902,-4.028,-11.169,85.869,-5.037,119.059
10897,-0.0288,0.8555,0.0645,0.488,3.845,-6.836,85.869,-4.894,119.092
10908,0.0005,0.8975,0.0933,-5.005,8.057,-1.221,85.798,-4.828,119.174
10917,0.0327,0.9409,0.1113,0.122,9.155,4.333,85.765,-4.834,119.268
10927,0.0649,0.9829,0.1260,14.893,7.385,9.705,85.875,-4.916,119.350
10938,0.1084,0.9902,0.1162,35.767,3.174,14.893,86.199,-5.076,119.394
10948,0.1445,0.9849,0.1084,53.406,-0.183,17.456,86.704,-5.279,119.399
10958,0.1733,0.9595,0.0815,60.303,0.244,15.930,87.281,-5.488,119.416
10968,0.1929,0.9272,0.0444,49.377,5.432,10.376,87.764,-5.647,119.471
10978,0.1953,0.9146,0.0171,22.034,12.024,0.122,87.984,-5.707,119.592
10987,0.1792,0.8882,0.0000,-12.268,16.418,-12.268,87.869,-5.636,119.756
10998,0.1660,0.9028,0.0034,-47.302,17.944,-23.132,87.402,-5.449,119.927
11008,0.1558,0.9756,0.0386,-68.909,14.893,-28.564,86.710,-5.197,120.064
11018,0.1494,1.0532,0.0894,-64.026,7.446,-25.513,86.056,-4.971,120.125
11028,0.1445,1.1021,0.1665,-36.865,-0.244,-14.282,85.644,-4.850,120.108
11038,0.1289,1.0786,0.2153,2.380,-5.249,-1.343,85.600,-4.861,120.059
11048,0.0952,0.9355,0.1895,37.170,-7.141,6.775,85.908,-4.944,119.993
11058,0.0430,0.8071,0.1318,46.082,-2.258,6.287,86.309,-4.988,119.971
11068,0.0068,0.7441,0.0459,30.823,6.470,-1.709,86.611,-4.922,120.037
11078,0.0361,0.7983,-0.0259,0.000,14.160,-10.681,86.655,-4.785,120.174
11088,0.1133,0.9463,-0.0376,-29.907,15.808,-16.479,86.402,-4.631,120.322
11098,0.1807,1.1470,0.0469,-44.250,5.127,-18.982,85.974,-4.482,120.361
11108,0.2036,1.3315,0.1958,-34.058,-16.052,-16.052,85.605,-4.378,120.190
11118,0.1519,1.3403,0.3149,4.700,-40.588,-9.033,85.594,-4.340,119.773
11128,0.0576,1.1763,0.3652,46.692,-56.152,-0.488,85.968,-4.362,119.213
11138,-0.0352,0.9629,0.3384,64.941,-52.856,2.930,86.501,-4.362,118.685
11148,-0.0942,0.8672,0.3013,50.598,-33.264,-2.930,86.869,-4.252,118.350
11158,-0.1113,0.8496,0.2305,18.433,-6.470,-14.160,86.935,-3.999,118.279
11168,-0.0991,0.8833,0.1406,-16.602,20.935,-23.621,86.699,-3.653,118.477
11178,-0.0830,0.8779,0.0239,-41.199,45.654,-27.954,86.281,-3.257,118.916
11188,-0.0576,0.8608,-0.1084,-56.335,64.514,-27.893,85.798,-2.873,119.542
11198,-0.0098,0.8760,-0.2124,-58.838,71.106,-23.437,85.358,-2.554,120.234
11208,0.0483,0.9199,-0.2539,-47.607,62.683,-13.550,85.062,-2.373,120.850
11218,0.1011,0.9326,-0.2700,-30.396,43.396,-0.305,84.952,-2.368,121.284
11228,0.1406,0.9492,-0.2451,-10.620,18.799,11.536,85.034,-2.527,121.481
11238,0.1680,0.9873,-0.1694,5.066,-5.249,19.348,85.232,-2.791,121.443
11248,0.1709,1.0161,-0.0649,15.808,-22.278,22.095,85.485,-3.093,121.240
11258,0.1685,1.0703,0.0562,19.226,-23.804,21.118,85.699,-3.378,121.020
11268,0.1562,1.1270,0.1484,14.648,-10.254,17.944,85.820,-3.609,120.932
11278,0.1367,1.1519,0.1909,10.132,8.423,12.024,85.864,-3.752,121.025
11288,0.1187,1.1284,0.1753,2.258,25.574,4.761,85.820,-3.801,121.284
11298,0.0894,1.0630,0.1172,-3.235,36.865,-3.845,85.743,-3.746,121.646
11308,0.0864,0.9941,0.0239,-15.320,44.006,-12.024,85.589,-3.609,122.080
11318,0.0659,0.9424,-0.0625,-25.391,41.504,-17.639,85.397,-3.406,122.481
11328,0.0513,0.9233,-0.1172,-29.968,31.311,-17.456,85.199,-3.208,122.778
11338,0.0562,0.9541,-0.1187,-25.269,14.526,-11.047,85.062,-3.087,122.915
11348,0.0635,0.9644,-0.0796,-11.108,-6.653,-1.160,85.051,-3.087,122.849
11358,0.0591,0.9741,0.0137,4.639,-29.236,7.935,85.155,-3.197,122.563
11368,0.0249,0.9517,0.1304,19.165,-47.729,14.954,85.342,-3.367,122.097
11378,0.0044,0.9653,0.2461,25.085,-47.607,18.433,85.518,-3.554,121.641
11388,0.0117,1.0078,0.2930,22.949,-28.381,17.883,85.644,-3.724,121.371
11398,0.0342,1.0386,0.2632,18.799,-1.099,13.855,85.732,-3.840,121.371
11408,0.0557,1.0400,0.1914,14.038,22.461,7.935,85.798,-3.895,121.597
11418,0.1108,1.0391,0.0962,4.761,36.926,0.305,85.809,-3.895,121.970
11428,0.1387,1.0283,0.0034,-3.540,36.926,-6.287,85.787,-3.845,122.333
11438,0.1357,1.0215,-0.0518,-6.775,24.536,-8.789,85.776,-3.774,122.574
11448,0.1309,1.0332,-0.0562,-5.615,5.737,-5.981,85.792,-3.746,122.624
11458,0.1172,1.0327,-0.0205,2.808,-14.099,0.000,85.880,-3.785,122.487
11468,0.0918,0.9888,0.0488,12.329,-30.701,6.409,86.034,-3.884,122.184
11478,0.0576,0.9751,0.1514,13.428,-36.316,10.193,86.144,-4.005,121.827
11488,0.0405,0.9868,0.2246,7.629,-21.667,9.766,86.144,-4.098,121.613
11498,0.0435,1.0308,0.2539,-0.244,5.371,6.226,86.039,-4.136,121.674
11509,0.0620,1.0718,0.2358,-4.517,32.043,2.136,85.886,-4.131,121.998
11518,0.0840,1.0610,0.1934,-3.479,48.340,-1.587,85.754,-4.081,122.476
11528,0.0771,1.0107,0.1328,-0.916,51.025,-4.822,85.677,-3.999,122.986
11538,0.0581,0.9658,0.0483,1.221,43.274,-7.874,85.671,-3.884,123.409
11548,0.0415,0.9277,-0.0415,2.502,27.771,-8.972,85.748,-3.763,123.684
11558,0.0376,0.8921,-0.1162,1.526,10.437,-7.629,85.875,-3.664,123.783
11568,0.0488,0.9136,-0.1396,-4.456,-5.920,-5.737,85.963,-3.604,123.717
11578,0.0674,0.9575,-0.1006,-11.108,-22.034,-3.540,85.968,-3.587,123.492
11588,0.0596,0.9922,0.0098,-15.381,-33.752,0.793,85.869,-3.620,123.157
11598,0.0454,1.0361,0.1519,-15.747,-35.706,5.371,85.693,-3.686,122.805
11608,0.0400,1.0703,0.2490,-10.742,-25.635,8.240,85.518,-3.768,122.552
11618,0.0410,1.1069,0.2822,-1.831,-8.423,9.460,85.402,-3.856,122.476
11628,0.0581,1.1060,0.2393,9.094,9.521,9.277,85.413,-3.928,122.580
11638,0.0801,1.0728,0.1475,17.883,24.109,7.446,85.540,-3.988,122.827
11648,0.1128,1.0298,0.0137,20.386,33.203,3.113,85.754,-4.016,123.162
11658,0.1533,1.0132,-0.1045,15.686,32.410,-2.563,85.990,-4.010,123.486
11668,0.1743,0.9976,-0.1821,8.972,21.301,-7.202,86.210,-3.983,123.690
11678,0.1655,0.9912,-0.2012,0.488,3.906,-8.667,86.364,-3.944,123.723
11688,0.1372,0.9780,-0.1611,-6.958,-18.066,-8.362,86.435,-3.917,123.541
11698,0.0957,0.9697,-0.0566,-12.085,-40.588,-6.592,86.413,-3.889,123.129
11708,0.0513,0.9844,0.0952,-14.832,-54.138,-2.625,86.281,-3.889,122.585
11718,0.0142,1.0029,0.2388,-13.916,-49.316,1.526,86.083,-3.906,122.091
11728,0.0044,1.0400,0.3281,-9.460,-30.640,2.625,85.875,-3.917,121.789
11738,0.0137,1.0586,0.3369,-1.892,-6.104,1.404,85.721,-3.900,121.729
11748,0.0269,1.0190,0.2695,6.042,17.212,0.000,85.666,-3.862,121.899
11758,0.0508,0.9531,0.1548,7.935,37.537,-2.258,85.671,-3.807,122.272
11768,0.0820,0.9150,0.0381,2.258,47.668,-5.310,85.682,-3.730,122.745
11778,0.0874,0.8989,-0.0542,-3.357,41.870,-7.690,85.699,-3.642,123.157
11788,0.0923,0.9185,-0.0947,-5.981,24.475,-5.859,85.726,-3.587,123.398
11798,0.0898,0.9575,-0.0903,-2.380,1.038,0.305,85.798,-3.604,123.409
11808,0.0825,0.9932,-0.0527,7.751,-23.315,7.202,85.963,-3.708,123.184
11818,0.0581,0.9644,0.0200,18.921,-45.776,14.648,86.210,-3.878,122.734
11828,0.0264,0.9497,0.1240,21.606,-52.856,19.592,86.418,-4.087,122.217
11838,-0.0029,0.9531,0.2168,15.747,-38.818,18.860,86.506,-4.252,121.844
11848,0.0049,1.0127,0.2661,7.080,-13.977,14.038,86.479,-4.362,121.712
11858,0.0747,1.1440,0.2812,0.549,12.207,10.437,86.369,-4.449,121.838
11868,0.1704,1.2700,0.2485,1.709,32.715,9.155,86.287,-4.548,122.173
11878,0.1714,1.2173,0.1382,12.451,40.771,5.554,86.347,-4.609,122.585
11888,0.0884,1.0342,0.0044,18.616,35.889,-3.235,86.539,-4.559,122.943
11898,-0.0122,0.8242,-0.1211,11.658,24.170,-12.024,86.754,-4.373,123.179
11908,-0.0415,0.7578,-0.1802,-7.812,10.315,-15.930,86.836,-4.136,123.272
11918,-0.0171,0.8052,-0.1709,-23.865,-7.568,-13.123,86.759,-3.955,123.190
11928,0.0381,0.9028,-0.0913,-26.794,-29.907,-4.272,86.605,-3.917,122.888
11938,0.1011,1.0596,0.0498,-20.081,-48.340,7.629,86.446,-4.032,122.410
11948,0.1450,1.1797,0.1753,-5.188,-51.453,18.433,86.380,-4.274,121.904
11958,0.1855,1.2710,0.2588,9.766,-38.696,21.851,86.424,-4.554,121.531
11968,0.1885,1.2549,0.2549,21.423,-17.151,15.869,86.567,-4.763,121.366
11978,0.1411,1.1313,0.1919,24.536,4.456,3.784,86.748,-4.818,121.415
11988,0.0894,1.0146,0.1348,13.306,21.057,-8.972,86.819,-4.719,121.624
11998,0.0552,0.9180,0.0620,-4.761,30.884,-17.883,86.737,-4.510,121.921
12009,0.0376,0.8643,-0.0127,-18.860,31.372,-21.851,86.572,-4.257,122.223
12018,0.0366,0.8809,-0.0586,-25.879,22.644,-21.179,86.369,-4.016,122.437
12028,0.0435,0.9297,-0.0654,-22.888,8.423,-14.648,86.215,-3.851,122.514
12038,0.0679,0.9629,-0.0566,-10.498,-6.104,-4.333,86.188,-3.818,122.448
12048,0.0864,0.9873,-0.0366,6.104,-19.592,5.554,86.320,-3.895,122.256
12058,0.0840,0.9878,-0.0146,22.278,-30.151,12.939,86.605,-4.054,121.965
12068,0.0942,0.9751,0.0117,30.396,-36.743,16.846,86.957,-4.257,121.602
12078,0.1187,0.9995,0.0576,26.245,-39.734,16.663,87.242,-4.466,121.218
12088,0.1240,1.0283,0.1045,14.465,-38.147,15.320,87.385,-4.658,120.839
12098,0.1157,1.0620,0.1382,0.916,-33.508,13.672,87.374,-4.823,120.509
12108,0.1416,1.1099,0.1587,-10.742,-28.503,11.536,87.237,-4.977,120.229
12118,0.1772,1.1323,0.1479,-16.357,-24.658,10.376,87.045,-5.131,119.987
12129,0.2021,1.1411,0.1235,-14.771,-23.499,9.460,86.891,-5.284,119.756
12138,0.2104,1.1299,0.1006,-8.118,-25.940,8.789,86.814,-5.433,119.504
12148,0.1807,1.0957,0.0942,1.282,-32.654,9.094,86.836,-5.581,119.180
12158,0.1357,1.0488,0.1079,9.338,-43.945,10.254,86.946,-5.724,118.746
12168,0.0630,1.0088,0.1167,13.672,-59.937,11.475,87.105,-5.850,118.147
12178,0.0142,0.9897,0.0830,15.442,-76.660,12.146,87.314,-5.955,117.383
12188,0.0044,0.9795,0.0361,14.404,-87.585,12.329,87.550,-6.064,116.510
12198,0.0107,0.9893,-0.0254,10.437,-92.346,11.719,87.792,-6.163,115.587
12208,0.0337,1.0161,-0.0757,5.310,-90.759,10.132,88.006,-6.257,114.681
12218,0.0752,1.0698,-0.0732,0.854,-85.999,6.836,88.165,-6.328,113.818
12228,0.0986,1.1050,-0.0493,1.953,-79.590,1.038,88.319,-6.350,113.016
12238,0.1074,1.1069,-0.0054,4.883,-71.289,-4.456,88.462,-6.323,112.302
12248,0.1079,1.0967,0.0566,4.456,-64.331,-8.484,88.566,-6.246,111.649
12258,0.0937,1.0732,0.0977,-0.244,-59.937,-11.169,88.588,-6.136,111.044
12268,0.0796,1.0811,0.1294,-10.620,-56.274,-13.428,88.489,-5.999,110.479
12279,0.0610,1.0933,0.1387,-21.362,-51.208,-16.602,88.275,-5.823,109.957
12288,0.0298,1.1162,0.1494,-28.809,-40.649,-20.203,87.973,-5.587,109.545
12299,0.0220,1.1426,0.1597,-30.518,-18.677,-24.170,87.632,-5.312,109.347
12309,0.0259,1.1357,0.1680,-23.376,11.414,-26.794,87.330,-5.004,109.451
12319,0.0576,1.1284,0.1714,-10.376,43.884,-26.917,87.127,-4.697,109.880
12329,0.1001,1.1230,0.1274,5.554,71.777,-24.719,87.089,-4.417,110.583
12339,0.1270,1.0918,0.0327,21.973,89.294,-22.766,87.253,-4.169,111.467
12349,0.1343,1.0254,-0.0684,33.142,92.590,-24.902,87.583,-3.911,112.385
12358,0.1089,0.9414,-0.1519,34.790,82.031,-29.968,87.984,-3.609,113.192
12369,0.0669,0.8594,-0.1782,24.597,61.584,-33.020,88.330,-3.268,113.796
12379,0.0430,0.8291,-0.1519,5.798,35.461,-32.593,88.489,-2.933,114.142
12389,0.0269,0.8447,-0.1060,-12.268,7.812,-28.259,88.451,-2.637,114.214
12399,0.0103,0.8833,-0.0630,-21.484,-15.381,-21.912,88.303,-2.406,114.055
12409,0.0068,0.9487,-0.0244,-20.447,-30.762,-14.893,88.143,-2.247,113.741
12419,0.0073,0.9990,0.0122,-12.146,-34.668,-7.874,88.050,-2.164,113.390
12429,0.0127,1.0034,0.0444,-3.479,-24.719,-3.052,88.017,-2.126,113.143
12439,0.0161,0.9683,0.0894,0.122,-8.362,-2.319,87.990,-2.093,113.060
12449,0.0039,0.9243,0.1362,0.366,5.249,-5.188,87.924,-2.021,113.110
12459,0.0239,0.9253,0.2041,-5.188,12.817,-7.507,87.764,-1.939,113.236
12469,0.0479,0.9609,0.2554,-9.155,13.855,-7.568,87.545,-1.868,113.368
12479,0.0645,1.0044,0.2549,-3.357,12.695,-6.165,87.391,-1.818,113.494
12489,0.0762,1.0303,0.2041,11.169,14.832,-4.578,87.407,-1.785,113.643
12499,0.0879,1.0269,0.1230,29.114,21.118,-3.723,87.649,-1.774,113.851
12509,0.0942,0.9863,0.0308,44.067,28.992,-3.357,88.083,-1.763,114.137
12519,0.0811,0.9150,-0.0405,50.537,35.400,-3.296,88.616,-1.752,114.494
12529,0.0498,0.8462,-0.0742,44.800,37.292,-3.723,89.110,-1.725,114.862
12539,0.0215,0.8345,-0.0649,27.039,33.997,-3.906,89.423,-1.675,115.203
12549,0.0054,0.8711,-0.0386,6.592,26.428,-3.235,89.511,-1.626,115.466
12559,0.0024,0.9355,0.0024,-7.568,16.357,-0.549,89.434,-1.604,115.631
12569,0.0171,1.0190,0.0420,-11.475,5.005,2.991,89.302,-1.631,115.681
12579,0.0312,1.0713,0.0513,-5.188,-4.028,6.348,89.231,-1.692,115.642
12589,0.0283,1.0840,0.0488,5.127,-7.812,8.118,89.269,-1.774,115.565
12599,0.0366,1.0737,0.0586,13.733,-3.723,7.507,89.379,-1.851,115.527
12609,0.0391,1.0151,0.0688,17.822,7.141,4.578,89.522,-1.895,115.598
12619,0.0176,0.9468,0.0757,12.146,19.470,-0.488,89.594,-1.884,115.796
12629,0.0024,0.9233,0.0889,-2.258,30.823,-6.226,89.511,-1.802,116.104
12639,-0.0073,0.8970,0.0752,-18.127,38.696,-10.071,89.275,-1.675,116.488
12649,0.0254,0.9556,0.0522,-29.846,40.222,-12.085,88.945,-1.549,116.889
12659,0.0835,1.0918,0.0146,-29.541,33.569,-12.451,88.649,-1.450,117.224
12669,0.1025,1.1436,-0.0518,-11.414,22.339,-7.751,88.566,-1.401,117.444
12679,0.0869,1.0918,-0.1196,12.268,12.695,-1.282,88.764,-1.417,117.570
12689,0.0508,0.9912,-0.1724,30.701,5.127,1.953,89.176,-1.450,117.625
12699,0.0103,0.8506,-0.1973,36.133,1.953,3.235,89.670,-1.478,117.642
12709,-0.0234,0.7920,-0.1597,20.386,2.075,1.770,89.989,-1.461,117.664
12719,-0.0225,0.8237,-0.0884,-5.615,4.028,0.366,89.995,-1.434,117.702
12728,0.0249,0.9468,0.0176,-30.762,6.348,1.587,89.681,-1.450,117.768
12739,0.0908,1.1050,0.1167,-42.480,6.531,3.296,89.198,-1.516,117.834
12749,0.1470,1.2070,0.1299,-29.297,4.578,4.028,88.857,-1.609,117.878
12759,0.1631,1.2070,0.0757,-1.709,2.441,4.028,88.813,-1.708,117.905
12769,0.1201,1.0923,-0.0132,25.269,1.465,2.441,89.083,-1.780,117.922
12779,0.0752,0.9204,-0.1133,41.382,0.122,0.305,89.572,-1.807,117.922
12789,0.0420,0.7998,-0.1582,34.546,-3.418,-0.854,90.027,-1.813,117.889
12799,0.0166,0.7803,-0.1279,8.667,-7.751,-1.221,90.209,-1.796,117.812
12809,0.0020,0.8169,-0.0562,-19.287,-9.766,-1.099,90.060,-1.769,117.713
12819,0.0093,0.9219,0.0547,-40.833,-8.484,0.549,89.621,-1.758,117.625
12829,0.0332,1.0815,0.1626,-48.279,-6.104,2.991,89.066,-1.791,117.565
12839,0.0640,1.1992,0.2012,-32.776,-2.869,5.615,88.654,-1.857,117.537
12849,0.0742,1.2153,0.1543,-0.854,1.648,7.874,88.588,-1.950,117.559
12859,0.0669,1.1733,0.0771,28.259,7.324,7.385,88.841,-2.038,117.631
12869,0.0405,1.0537,-0.0366,46.875,11.475,3.906,89.335,-2.076,117.746
12879,0.0220,0.9404,-0.1250,45.654,13.855,0.244,89.863,-2.065,117.889
12889,0.0068,0.8989,-0.1606,25.574,12.329,-2.686,90.214,-2.021,118.010
12899,0.0073,0.9365,-0.1362,-0.183,6.531,-4.150,90.291,-1.967,118.076
12909,0.0103,1.0029,-0.0757,-19.104,-1.831,-3.357,90.143,-1.923,118.059
12919,0.0088,1.0840,0.0171,-27.222,-10.498,-1.343,89.868,-1.890,117.949
12929,0.0044,1.1318,0.1079,-21.790,-14.343,1.221,89.599,-1.890,117.806
12939,0.0044,1.1475,0.1577,-5.188,-10.864,3.662,89.478,-1.906,117.702
12949,0.0103,1.1230,0.1538,15.320,-0.854,4.150,89.561,-1.934,117.691
12959,0.0195,1.0576,0.1055,32.349,11.353,3.479,89.824,-1.961,117.806
12969,0.0308,0.9951,0.0474,34.546,22.095,1.099,90.132,-1.967,118.026
12979,0.0386,0.9629,-0.0122,22.278,27.283,-3.723,90.346,-1.934,118.301
12989,0.0376,0.9585,-0.0620,4.639,25.879,-9.216,90.417,-1.851,118.559
12999,0.0342,0.9688,-0.0923,-9.888,19.958,-12.695,90.368,-1.725,118.762
13010,0.0371,0.9854,-0.0884,-18.494,10.071,-12.634,90.225,-1.604,118.861
13019,0.0278,0.9902,-0.0488,-17.517,-2.808,-9.583,90.082,-1.511,118.834
13029,0.0190,0.9824,-0.0107,-6.653,-13.123,-4.639,90.022,-1.461,118.702
13039,0.0137,0.9790,0.0376,6.287,-15.625,0.977,90.066,-1.461,118.548
13049,0.0249,0.9688,0.0684,16.724,-10.437,4.395,90.192,-1.505,118.444
13059,0.0508,0.9736,0.0679,19.165,0.061,4.395,90.341,-1.566,118.444
13069,0.0630,0.9785,0.0576,10.742,10.193,1.770,90.406,-1.604,118.542
13079,0.0474,0.9155,0.0205,-3.479,18.250,-2.380,90.352,-1.599,118.729
13089,0.0156,0.8833,-0.0054,-23.376,22.522,-8.179,90.115,-1.511,118.954
13099,0.0024,0.9111,-0.0146,-41.077,21.301,-12.512,89.709,-1.373,119.169
13109,0.0029,0.9736,0.0156,-43.762,12.878,-11.169,89.269,-1.252,119.295
13119,0.0122,1.0146,0.0469,-27.893,-0.427,-3.357,88.973,-1.214,119.290
13129,0.0176,1.0371,0.0762,-0.244,-13.062,6.348,88.940,-1.274,119.158
13139,0.0093,1.0171,0.0630,30.334,-19.043,14.221,89.220,-1.412,118.971
13149,0.0225,0.9688,0.0156,47.607,-11.841,18.433,89.692,-1.593,118.856
13159,0.0464,0.9941,0.0098,39.551,5.310,15.930,90.082,-1.763,118.911
13169,0.0522,0.9731,-0.0137,18.311,23.254,10.071,90.264,-1.873,119.141
13179,0.0518,0.9756,-0.0269,-12.329,37.903,1.831,90.143,-1.906,119.520
13189,0.0493,1.0098,-0.0293,-40.710,45.044,-6.775,89.736,-1.851,119.971
13199,0.0381,1.0469,-0.0254,-50.842,39.551,-12.268,89.236,-1.730,120.366
13209,0.0288,1.0791,-0.0142,-40.955,24.597,-10.315,88.841,-1.620,120.613
13219,0.0195,1.0903,-0.0122,-14.404,6.348,-2.136,88.715,-1.593,120.674
13229,0.0117,1.0649,-0.0332,21.912,-11.414,6.775,88.967,-1.653,120.564
13239,0.0112,0.9673,-0.0791,53.345,-28.137,13.916,89.561,-1.785,120.284
13249,0.0156,0.9146,-0.0854,57.739,-36.133,17.578,90.198,-1.956,119.927
13259,0.0229,0.9502,-0.0381,36.926,-29.236,15.808,90.593,-2.104,119.630
13269,0.0381,1.0010,0.0093,7.507,-12.207,9.888,90.665,-2.203,119.509
13279,0.0518,1.0532,0.0518,-20.935,6.409,3.906,90.417,-2.247,119.570
13289,0.0635,1.1035,0.0874,-41.687,20.569,-1.099,89.951,-2.247,119.778
13299,0.0688,1.1299,0.0908,-44.922,26.672,-5.798,89.445,-2.203,120.042
13309,0.0610,1.1147,0.0664,-32.776,24.231,-8.301,89.083,-2.126,120.284
13319,0.0449,1.0532,0.0283,-13.184,15.259,-7.629,88.945,-2.054,120.438
13329,0.0273,1.0049,-0.0024,6.714,4.089,-4.578,89.022,-2.000,120.476
13339,0.0142,0.9526,-0.0312,24.231,-6.287,-1.282,89.291,-1.978,120.416
13349,0.0054,0.8989,-0.0469,34.180,-15.381,1.770,89.670,-1.983,120.262
13359,0.0073,0.8779,-0.0469,30.823,-20.813,4.089,90.016,-2.010,120.053
13369,0.0249,0.9365,-0.0151,13.977,-20.020,4.517,90.170,-2.049,119.850
13379,0.0425,1.0225,0.0156,-4.333,-12.146,3.723,90.121,-2.087,119.729
13389,0.0586,1.0732,0.0244,-16.541,0.000,2.258,89.945,-2.120,119.729
13399,0.0645,1.0840,0.0220,-21.362,9.399,-0.610,89.720,-2.126,119.822
13409,0.0483,1.0518,0.0098,-19.287,14.282,-3.235,89.522,-2.098,119.965
13419,0.0259,0.9917,-0.0054,-13.977,13.916,-3.601,89.385,-2.054,120.108
13429,0.0093,0.9468,-0.0088,-7.996,7.263,-1.587,89.313,-2.027,120.179
13439,-0.0049,0.9399,-0.0034,-1.160,-2.808,2.258,89.313,-2.021,120.152
13449,0.0083,0.9556,-0.0010,7.141,-12.756,6.348,89.396,-2.071,120.026
13459,0.0317,0.9780,0.0068,16.235,-20.325,10.010,89.566,-2.170,119.822
13469,0.0547,1.0283,0.0244,19.653,-20.386,12.024,89.758,-2.302,119.619
13479,0.0747,1.0601,0.0342,17.822,-9.460,11.475,89.923,-2.433,119.526
13489,0.0913,1.1016,0.0518,11.658,7.507,8.423,90.005,-2.538,119.597
13499,0.0898,1.1104,0.0669,4.333,22.705,3.784,90.005,-2.598,119.828
13510,0.0693,1.0894,0.0771,-1.343,30.273,-1.709,89.940,-2.593,120.130
13519,0.0503,1.0674,0.0728,-3.601,27.405,-7.080,89.852,-2.521,120.405
13529,0.0176,1.0503,0.0513,-0.793,15.991,-8.972,89.813,-2.417,120.564
13539,-0.0146,1.0347,0.0278,9.338,2.869,-6.714,89.890,-2.318,120.591
13549,-0.0312,0.9800,-0.0122,26.184,-8.118,-2.014,90.159,-2.258,120.509
13559,-0.0239,0.9307,-0.0522,36.926,-17.395,2.258,90.560,-2.241,120.339
13569,-0.0083,0.9150,-0.0747,33.264,-22.278,5.005,90.939,-2.263,120.114
13579,0.0249,0.9751,-0.0620,16.907,-18.066,5.432,91.143,-2.302,119.932
13589,0.0630,1.0269,-0.0459,-0.732,-4.395,3.479,91.154,-2.351,119.888
13599,0.0728,1.0435,-0.0205,-15.808,10.925,0.061,90.989,-2.368,119.998
13609,0.0737,1.0508,0.0117,-27.954,23.437,-4.456,90.687,-2.346,120.234
13619,0.0752,1.0405,0.0273,-28.992,25.146,-8.667,90.368,-2.280,120.487
13629,0.0439,0.9990,0.0220,-19.409,14.160,-8.667,90.154,-2.197,120.630
13640,0.0083,0.9932,0.0171,-5.676,0.549,-4.089,90.088,-2.137,120.635
13650,-0.0049,0.9766,-0.0171,13.550,-10.437,2.441,90.236,-2.137,120.531
13660,0.0029,0.9536,-0.0552,30.945,-18.616,8.972,90.577,-2.208,120.344
13669,0.0317,0.9829,-0.0781,36.011,-19.653,12.878,90.983,-2.329,120.141
13680,0.0669,1.0273,-0.1069,31.006,-12.329,13.062,91.340,-2.472,120.020
13690,0.0908,1.0669,-0.1138,19.348,0.916,9.460,91.582,-2.587,120.026
13700,0.1030,1.0894,-0.0898,5.127,12.573,4.395,91.659,-2.664,120.152
13710,0.0894,1.0669,-0.0605,-6.165,18.311,-0.732,91.604,-2.681,120.333
13720,0.0527,1.0137,-0.0552,-12.756,17.700,-5.615,91.483,-2.637,120.509
13730,0.0176,0.9980,-0.0620,-15.625,12.634,-8.362,91.346,-2.538,120.641
13740,0.0264,0.9917,-0.0806,-12.634,5.737,-7.446,91.252,-2.455,120.701
13750,0.0435,0.9897,-0.0937,-5.676,-3.479,-4.089,91.236,-2.417,120.663
13760,0.0596,0.9810,-0.0981,1.099,-12.939,-1.404,91.296,-2.406,120.536
13770,0.0703,0.9824,-0.0781,2.258,-19.714,-0.244,91.362,-2.417,120.339
13780,0.0771,0.9912,-0.0278,-2.197,-21.118,-0.183,91.351,-2.433,120.130
13790,0.0757,1.0083,0.0522,-9.399,-16.663,-1.160,91.219,-2.433,119.960
13800,0.0581,1.0161,0.1274,-16.724,-7.507,-2.808,90.978,-2.411,119.888
13810,0.0439,1.0259,0.1768,-21.973,3.845,-4.639,90.648,-2.368,119.927
13820,0.0259,1.0117,0.1704,-22.217,14.648,-6.042,90.319,-2.302,120.075
13830,0.0181,0.9888,0.1294,-17.822,22.217,-6.165,90.055,-2.230,120.295
13840,0.0146,0.9648,0.0620,-8.850,23.010,-4.089,89.923,-2.175,120.526
13850,0.0156,0.9302,-0.0278,3.235,16.418,0.122,89.967,-2.164,120.690
13860,0.0195,0.9146,-0.1001,11.719,6.531,4.883,90.143,-2.203,120.756
13870,0.0361,0.9219,-0.1460,14.160,-3.052,8.301,90.374,-2.285,120.723
13880,0.0454,0.9409,-0.1455,11.597,-12.695,9.888,90.577,-2.384,120.597
13890,0.0566,0.9883,-0.1001,4.150,-17.761,9.705,90.676,-2.488,120.421
13900,0.0674,1.0327,-0.0298,-3.296,-17.151,7.996,90.665,-2.576,120.245
13910,0.0684,1.0732,0.0503,-8.911,-12.146,5.432,90.544,-2.642,120.125
13920,0.0605,1.0903,0.0898,-11.963,-4.944,2.747,90.379,-2.675,120.075
13930,0.0308,1.0527,0.0737,-11.353,2.930,0.061,90.220,-2.664,120.103
13940,0.0146,1.0234,0.0337,-10.193,9.583,-1.282,90.093,-2.631,120.201
13950,0.0195,0.9927,-0.0259,-7.385,11.963,-0.610,90.027,-2.615,120.317
13960,0.0205,0.9634,-0.0801,-1.892,7.385,1.404,90.055,-2.615,120.394
13970,0.0361,0.9590,-0.1001,2.075,-0.305,4.761,90.132,-2.653,120.388
13980,0.0552,0.9751,-0.0879,3.662,-8.972,8.423,90.225,-2.747,120.300
13990,0.0693,1.0054,-0.0449,4.333,-18.005,11.536,90.297,-2.867,120.119
14000,0.0732,1.0542,0.0254,3.113,-23.010,13.062,90.324,-3.010,119.888
14010,0.0591,1.1060,0.0952,1.221,-10.681,8.118,90.291,-3.087,119.778
14020,0.0518,1.0918,0.0547,0.916,1.038,3.906,90.269,-3.126,119.789
14030,0.0498,1.0669,-0.0146,-0.793,10.193,0.000,90.258,-3.120,119.894
14040,0.0488,1.0288,-0.0889,-2.502,14.587,-2.686,90.275,-3.087,120.042
14050,0.0552,1.0146,-0.1299,-1.099,10.437,-2.930,90.324,-3.060,120.146
14060,0.0747,1.0747,-0.1138,8.545,-1.465,1.526,90.467,-3.087,120.130
14070,0.0825,1.0586,-0.1025,33.508,-16.479,10.498,90.862,-3.203,119.965
14080,0.0767,1.0166,-0.0874,60.120,-30.945,19.348,91.511,-3.400,119.652
14090,0.0571,0.9399,-0.0889,74.890,-41.687,24.170,92.318,-3.625,119.229
14100,0.0513,0.8970,-0.0903,64.026,-43.152,25.330,93.016,-3.856,118.784
14110,0.0630,0.9570,-0.0649,34.729,-33.264,21.973,93.389,-4.054,118.438
14120,0.0830,1.0469,-0.0200,6.714,-16.113,14.526,93.444,-4.197,118.268
14130,0.0913,1.1021,0.0308,-10.742,0.427,5.920,93.290,-4.257,118.273
14140,0.0957,1.1157,0.0645,-17.578,11.230,0.183,93.038,-4.274,118.383
14150,0.0967,1.1133,0.0684,-12.817,12.329,-3.479,92.840,-4.252,118.510
14160,0.0879,1.1079,0.0518,2.014,5.554,-3.662,92.796,-4.224,118.564
14170,0.0728,1.0776,0.0166,24.353,-2.197,0.183,93.005,-4.219,118.542
14180,0.0542,0.9902,-0.0327,47.546,-8.728,5.432,93.472,-4.257,118.455
14190,0.0464,0.8975,-0.0752,53.284,-13.000,8.789,94.021,-4.323,118.317
14200,0.0557,0.9106,-0.0732,33.936,-11.414,7.202,94.373,-4.378,118.196
14210,0.0625,0.9287,-0.0698,3.235,-1.770,0.671,94.406,-4.378,118.180
14220,0.0562,0.9658,-0.0518,-30.029,12.939,-7.568,94.081,-4.301,118.317
14230,0.0581,1.0034,-0.0361,-54.565,26.367,-15.137,93.505,-4.164,118.592
14240,0.0620,1.0151,-0.0352,-62.317,32.532,-19.470,92.845,-3.983,118.927
14250,0.0620,1.0396,-0.0205,-53.894,28.503,-17.700,92.274,-3.818,119.224
14260,0.0503,1.0356,-0.0137,-30.273,15.686,-9.949,91.950,-3.713,119.383
14270,0.0386,1.0083,-0.0127,0.488,1.587,0.183,91.939,-3.702,119.399
14280,0.0308,0.9722,-0.0264,30.334,-9.644,7.874,92.247,-3.757,119.301
14290,0.0376,0.9209,-0.0542,49.866,-17.700,13.428,92.763,-3.867,119.119
14300,0.0552,0.8926,-0.0728,47.302,-19.165,15.625,93.263,-4.010,118.916
14310,0.0894,0.9468,-0.0664,26.550,-13.245,12.695,93.543,-4.142,118.779
14320,0.1182,1.0083,-0.0625,2.319,-2.563,7.080,93.565,-4.235,118.746
14330,0.1279,1.0396,-0.0571,-18.616,8.179,1.526,93.373,-4.285,118.828
14340,0.1250,1.0586,-0.0474,-32.471,14.648,-3.357,93.032,-4.285,118.976
14350,0.1147,1.0425,-0.0498,-36.072,15.015,-7.507,92.659,-4.235,119.130
14360,0.0796,1.0239,-0.0498,-30.823,10.132,-9.399,92.351,-4.147,119.240
14370,0.0483,0.9961,-0.0508,-17.578,2.441,-7.385,92.181,-4.065,119.268
14380,0.0356,1.0015,-0.0513,0.305,-5.493,-2.014,92.192,-4.021,119.213
14390,0.0449,1.0015,-0.0610,20.691,-11.475,3.662,92.417,-4.037,119.097
14400,0.0625,0.9600,-0.0830,35.767,-15.503,8.179,92.807,-4.109,118.938
14410,0.0942,0.9590,-0.0850,31.738,-15.808,8.850,93.159,-4.202,118.773
14420,0.1323,1.0181,-0.0728,13.306,-11.353,5.920,93.307,-4.290,118.658
14430,0.1411,1.0444,-0.0596,-5.554,-2.930,1.099,93.252,-4.334,118.625
14440,0.1221,1.0400,-0.0376,-21.912,6.104,-4.028,93.021,-4.318,118.691
14450,0.0840,1.0220,-0.0298,-33.691,13.550,-8.972,92.664,-4.241,118.828
14460,0.0474,1.0005,-0.0234,-36.743,16.602,-10.742,92.274,-4.125,119.004
14470,0.0186,0.9854,-0.0234,-28.870,13.672,-8.179,91.967,-4.021,119.141
14480,0.0127,0.9810,-0.0234,-13.062,6.409,-1.770,91.829,-3.972,119.207
14490,0.0337,0.9912,-0.0386,5.432,-1.221,5.249,91.884,-4.005,119.191
14500,0.0605,1.0151,-0.0488,22.400,-7.019,9.766,92.120,-4.092,119.119
14511,0.0967,0.9961,-0.0649,32.654,-9.827,12.085,92.466,-4.224,119.015
14520,0.1240,1.0107,-0.0654,26.245,-7.446,10.437,92.747,-4.351,118.938
14530,0.1323,1.0469,-0.0547,11.414,-0.488,4.822,92.862,-4.427,118.932
14540,0.1157,1.0400,-0.0479,-5.188,8.545,-0.854,92.802,-4.444,119.015
14550,0.0815,1.0464,-0.0254,-23.499,17.273,-6.226,92.543,-4.389,119.191
14560,0.0532,1.0444,-0.0298,-35.583,23.437,-11.475,92.164,-4.268,119.432
14570,0.0356,1.0347,-0.0352,-38.208,23.193,-14.038,91.763,-4.120,119.669
14580,0.0259,1.0322,-0.0376,-30.396,15.808,-12.207,91.456,-3.977,119.833
14590,0.0273,1.0103,-0.0376,-12.939,4.089,-6.653,91.329,-3.884,119.872
14600,0.0386,1.0220,-0.0376,7.202,-6.592,0.183,91.412,-3.867,119.806
14610,0.0498,0.9907,-0.0508,29.175,-15.381,5.920,91.730,-3.911,119.652
14620,0.0693,0.9531,-0.0645,41.016,-20.752,10.071,92.170,-4.010,119.443
14630,0.1045,0.9741,-0.0654,33.569,-18.555,10.010,92.532,-4.120,119.251
14640,0.1284,1.0381,-0.0493,14.893,-9.155,5.249,92.686,-4.197,119.158
14650,0.1211,1.0684,-0.0322,-4.272,2.747,-1.343,92.637,-4.208,119.185
14660,0.0908,1.0415,-0.0278,-20.691,13.672,-7.019,92.406,-4.153,119.328
14670,0.0610,1.0229,-0.0200,-32.898,21.179,-11.658,92.054,-4.043,119.542
14680,0.0439,1.0063,-0.0249,-33.264,21.973,-12.939,91.703,-3.906,119.767
14690,0.0366,0.9839,-0.0249,-22.217,15.076,-9.644,91.472,-3.796,119.921
14700,0.0444,0.9658,-0.0435,-5.127,3.967,-3.296,91.428,-3.752,119.965
14710,0.0610,0.9912,-0.0552,12.085,-8.057,2.686,91.571,-3.774,119.883
14720,0.0830,0.9854,-0.0796,27.100,-18.982,6.775,91.879,-3.845,119.691
14730,0.0977,0.9741,-0.0845,30.029,-24.597,8.972,92.225,-3.944,119.438
14740,0.1035,1.0034,-0.0659,18.066,-19.470,6.531,92.433,-4.021,119.240
14750,0.0942,1.0249,-0.0361,1.465,-7.385,0.488,92.450,-4.037,119.169
14760,0.0718,0.9980,-0.0059,-15.625,5.798,-4.883,92.269,-3.994,119.229
14770,0.0449,0.9956,0.0171,-32.776,17.517,-9.033,91.901,-3.895,119.405
14780,0.0322,1.0068,0.0190,-39.429,24.780,-11.047,91.461,-3.774,119.658
14790,0.0391,1.0347,0.0132,-33.142,24.780,-9.033,91.099,-3.675,119.910
14800,0.0566,1.0444,-0.0117,-15.259,17.090,-3.723,90.928,-3.636,120.081
14810,0.0713,1.0405,-0.0527,6.714,5.493,1.953,91.011,-3.658,120.135
14820,0.0786,1.0454,-0.0801,25.513,-5.371,5.432,91.302,-3.719,120.081
14830,0.0815,0.9814,-0.1118,37.292,-14.038,7.996,91.730,-3.801,119.938
14840,0.0747,0.9458,-0.1050,31.372,-19.470,7.812,92.104,-3.884,119.740
14850,0.0703,0.9741,-0.0679,12.085,-18.311,4.395,92.252,-3.922,119.559
14860,0.0601,1.0122,-0.0166,-7.141,-10.498,0.061,92.175,-3.911,119.454
14870,0.0420,1.0107,0.0215,-20.630,1.038,-3.174,91.939,-3.867,119.465
14880,0.0376,1.0317,0.0381,-29.663,11.353,-5.737,91.593,-3.796,119.581
14890,0.0547,1.0557,0.0298,-29.602,18.005,-6.348,91.258,-3.730,119.762
14900,0.0635,1.0596,0.0083,-20.142,18.860,-4.578,91.027,-3.686,119.949
14910,0.0620,1.0356,-0.0210,-4.822,13.672,-1.465,90.972,-3.669,120.086
14920,0.0586,1.0049,-0.0439,9.766,5.005,2.075,91.082,-3.686,120.141
14930,0.0459,0.9863,-0.0552,21.057,-3.906,4.761,91.313,-3.724,120.097
14940,0.0415,0.9395,-0.0645,27.771,-11.108,7.141,91.626,-3.779,119.987
14950,0.0459,0.9219,-0.0625,23.254,-15.320,8.179,91.884,-3.845,119.828
14960,0.0679,0.9634,-0.0562,9.216,-13.855,6.531,92.000,-3.911,119.691
14970,0.0967,1.0146,-0.0449,-6.470,-6.104,2.991,91.945,-3.950,119.625
14980,0.1123,1.0527,-0.0205,-19.775,3.418,-1.282,91.741,-3.961,119.663
14990,0.1138,1.0742,0.0044,-28.992,10.315,-5.554,91.428,-3.928,119.767
15000,0.0898,1.0464,0.0181,-31.189,13.611,-8.972,91.082,-3.856,119.905
15011,0.0439,1.0005,0.0273,-26.978,12.817,-10.071,90.780,-3.746,120.037
15020,0.0063,0.9575,0.0293,-17.273,8.667,-7.263,90.582,-3.642,120.125
15030,-0.0083,0.9243,0.0063,-4.395,2.991,-1.831,90.522,-3.582,120.152
15041,0.0010,0.9106,-0.0352,4.456,-1.648,3.052,90.588,-3.576,120.135
15050,0.0337,0.8994,-0.0791,4.456,-3.601,5.188,90.676,-3.609,120.097
15060,0.0674,0.9331,-0.0874,-8.911,-1.892,4.272,90.637,-3.658,120.081
15071,0.1035,1.0439,-0.0352,-31.433,3.174,0.488,90.335,-3.686,120.114
15081,0.1313,1.1567,0.0415,-45.349,8.728,-3.662,89.857,-3.675,120.201
15091,0.1260,1.1963,0.0962,-43.396,13.123,-6.592,89.374,-3.631,120.333
15100,0.0947,1.1636,0.1060,-26.611,14.954,-6.958,89.055,-3.571,120.482
15110,0.0483,1.0625,0.0703,-2.502,15.015,-4.150,88.995,-3.521,120.630
15121,0.0195,0.9722,0.0117,16.479,13.428,0.427,89.154,-3.499,120.762
15131,0.0132,0.8765,-0.0610,23.682,10.010,4.150,89.429,-3.510,120.866
15141,0.0366,0.8843,-0.0864,14.648,5.676,5.310,89.632,-3.554,120.921
15151,0.0742,0.9409,-0.0845,-0.671,1.404,4.578,89.681,-3.604,120.938
15161,0.1025,1.0371,-0.0376,-16.418,-0.244,2.808,89.539,-3.653,120.932
15171,0.1162,1.1274,0.0239,-23.743,0.122,0.061,89.297,-3.675,120.938
15181,0.1074,1.1440,0.0762,-17.578,0.366,-1.404,89.094,-3.680,120.938
15191,0.0732,1.1030,0.1006,-1.953,0.977,-1.221,89.028,-3.669,120.948
15201,0.0381,1.0498,0.0933,15.991,2.869,-0.305,89.143,-3.647,120.976
15211,0.0044,0.9297,0.0381,32.654,6.104,2.197,89.451,-3.636,121.042
15221,-0.0034,0.8423,-0.0171,35.645,8.362,3.723,89.813,-3.631,121.124
15231,0.0332,0.8857,-0.0483,21.362,7.874,3.174,90.055,-3.647,121.201
15241,0.0703,0.9521,-0.0562,3.357,6.104,2.258,90.115,-3.680,121.262
15251,0.0981,1.0234,-0.0391,-11.292,4.761,1.160,90.022,-3.708,121.311
15261,0.1147,1.0923,-0.0068,-20.020,2.380,-0.610,89.824,-3.724,121.333
15271,0.1050,1.0967,0.0078,-17.944,-0.671,-1.648,89.648,-3.724,121.328
15281,0.0801,1.0503,0.0127,-8.972,-3.113,-1.831,89.555,-3.713,121.295
15291,0.0474,0.9897,0.0073,-0.427,-4.333,-0.916,89.555,-3.697,121.256
15301,0.0288,0.9541,0.0088,5.554,-4.578,1.343,89.610,-3.691,121.207
15311,0.0410,0.9390,0.0225,7.324,-4.761,3.662,89.676,-3.713,121.163
15321,0.0679,0.9761,0.0459,1.648,-5.188,4.700,89.676,-3.763,121.108
15331,0.0884,1.0171,0.0679,-8.911,-3.967,4.517,89.555,-3.818,121.069
15341,0.1079,1.1138,0.1001,-22.095,-1.282,1.465,89.286,-3.851,121.058
15351,0.1123,1.1602,0.0845,-25.024,2.869,-2.197,89.006,-3.845,121.086
15361,0.0952,1.1382,0.0542,-16.846,7.935,-4.272,88.813,-3.812,121.163
15371,0.0371,0.9897,-0.0088,-2.380,11.047,-5.005,88.802,-3.741,121.273
15381,-0.0806,0.7383,-0.1074,8.301,13.123,-4.456,88.967,-3.598,121.404
15391,-0.1143,0.6650,-0.1343,2.563,15.320,-1.587,89.110,-3.450,121.558
15401,-0.0366,0.7515,-0.1050,-7.751,13.000,6.042,89.116,-3.444,121.690
15411,0.0811,0.9336,-0.0371,-11.292,4.517,15.015,89.033,-3.604,121.734
15421,0.1895,1.1523,0.0430,-6.287,-5.493,20.020,88.962,-3.862,121.685
15431,0.2529,1.2695,0.0845,9.094,-12.695,20.020,89.033,-4.136,121.558
15441,0.2607,1.3159,0.1045,22.766,-11.353,16.174,89.225,-4.367,121.448
15451,0.2227,1.2402,0.0830,30.518,-3.235,8.545,89.500,-4.510,121.415
15461,0.1338,1.0669,0.0400,27.344,8.240,-1.038,89.747,-4.526,121.503
15471,0.0513,0.9551,0.0205,7.324,20.569,-11.658,89.797,-4.395,121.707
15481,0.0029,0.9121,-0.0020,-15.503,28.564,-18.005,89.626,-4.175,121.992
15491,-0.0366,0.8657,-0.0322,-31.006,29.419,-18.555,89.319,-3.922,122.283
15501,-0.0488,0.8926,-0.0405,-38.635,24.902,-15.381,88.956,-3.697,122.536
15511,-0.0083,0.9790,-0.0337,-32.166,16.174,-7.446,88.654,-3.582,122.695
15521,0.0356,1.0132,-0.0483,-9.949,4.822,4.395,88.594,-3.604,122.745
15531,0.0737,1.0444,-0.0576,18.860,-5.798,13.428,88.830,-3.746,122.690
15541,0.1138,1.0249,-0.0654,43.701,-14.160,18.005,89.319,-3.950,122.552
15551,0.1450,1.0083,-0.0620,50.049,-18.799,17.334,89.874,-4.169,122.366
15561,0.1509,1.0298,-0.0322,36.499,-19.592,10.559,90.264,-4.312,122.168
15571,0.1123,1.0396,0.0063,12.878,-15.930,1.526,90.401,-4.345,122.009
15581,0.0742,1.0288,0.0352,-10.986,-7.874,-5.432,90.275,-4.290,121.932
15591,0.0649,1.0513,0.0610,-29.602,1.038,-9.460,89.945,-4.191,121.943
15601,0.0713,1.0669,0.0645,-33.813,4.883,-10.986,89.572,-4.076,121.992
15611,0.0659,1.0557,0.0576,-25.635,4.272,-8.728,89.286,-3.983,122.031
15621,0.0620,1.0264,0.0405,-8.423,1.587,-3.967,89.187,-3.939,122.047
15631,0.0630,1.0117,0.0244,9.277,-1.160,0.671,89.275,-3.944,122.036
15641,0.0679,0.9951,0.0083,22.034,-3.296,3.357,89.495,-3.977,122.003
15651,0.0698,0.9722,-0.0034,25.513,-3.723,3.601,89.758,-4.016,121.965
15661,0.0586,0.9673,0.0005,15.930,-2.014,0.977,89.918,-4.016,121.948
15671,0.0356,0.9570,0.0039,0.793,1.099,-2.502,89.923,-3.972,121.959
15681,0.0264,0.9458,0.0093,-13.184,4.944,-4.333,89.786,-3.906,122.009
15691,0.0430,0.9795,0.0298,-22.705,7.080,-4.456,89.544,-3.851,122.075
15701,0.0601,1.0107,0.0371,-19.897,5.249,-2.625,89.324,-3.818,122.130
15711,0.0757,1.0146,0.0322,-6.104,0.671,1.953,89.253,-3.840,122.135
15721,0.0806,1.0313,0.0264,11.536,-5.066,7.629,89.363,-3.922,122.086
15731,0.0889,1.0034,0.0078,30.090,-10.559,13.550,89.670,-4.070,121.981
15741,0.0874,0.9448,-0.0176,39.734,-14.160,16.541,90.088,-4.246,121.844
15751,0.0806,0.9370,-0.0200,30.212,-12.695,13.367,90.406,-4.384,121.712
15761,0.0767,0.9575,-0.0107,10.498,-7.507,6.165,90.516,-4.449,121.641
15771,0.0654,0.9492,-0.0034,-11.475,-0.732,-0.305,90.401,-4.438,121.630
15781,0.0635,0.9951,0.0122,-33.203,5.554,-5.432,90.060,-4.378,121.685
15791,0.0737,1.0483,0.0176,-42.725,8.667,-6.958,89.621,-4.307,121.772
15801,0.0786,1.0771,0.0151,-37.292,6.836,-5.188,89.242,-4.252,121.844
15811,0.0703,1.0737,0.0049,-20.325,1.343,-1.160,89.044,-4.235,121.855
15821,0.0576,1.0337,-0.0098,-0.916,-5.371,4.395,89.050,-4.268,121.800
15831,0.0522,0.9956,-0.0015,11.047,-10.315,8.667,89.182,-4.345,121.701
15841,0.0508,0.9814,0.0210,11.597,-9.644,9.583,89.297,-4.427,121.608
15851,0.0591,0.9780,0.0449,3.723,-2.197,7.263,89.319,-4.488,121.586
15861,0.0718,0.9727,0.0469,-9.338,7.690,2.930,89.198,-4.515,121.663
15871,0.1016,1.0278,0.0483,-28.809,17.761,-1.953,88.879,-4.504,121.838
15881,0.1328,1.0835,0.0366,-43.396,24.658,-7.019,88.423,-4.455,122.086
15891,0.1436,1.1362,0.0381,-45.288,23.926,-10.986,87.951,-4.367,122.322
15901,0.1104,1.1035,0.0244,-27.344,14.099,-10.132,87.676,-4.274,122.459
15911,0.0522,1.0327,0.0088,1.343,2.319,-3.174,87.709,-4.230,122.481
15921,0.0181,0.9453,-0.0190,30.884,-7.263,5.615,88.055,-4.257,122.410
15931,0.0171,0.8613,-0.0371,49.255,-15.381,12.207,88.599,-4.351,122.261
15941,0.0493,0.8726,-0.0283,44.861,-18.555,14.893,89.088,-4.493,122.080
15951,0.0859,0.9478,-0.0098,26.672,-13.916,13.428,89.379,-4.636,121.943
15961,0.1099,1.0391,0.0137,5.310,-4.944,9.338,89.434,-4.741,121.893
15971,0.1353,1.1094,0.0420,-9.888,3.052,4.211,89.313,-4.807,121.926
15981,0.1431,1.1226,0.0532,-14.221,4.333,-1.160,89.149,-4.818,121.965
15991,0.1123,1.0620,0.0381,-10.254,-2.197,-5.310,89.039,-4.779,121.943
16001,0.0684,1.0200,0.0342,-1.831,-12.085,-6.470,89.022,-4.708,121.822
16012,0.0371,0.9712,0.0376,11.597,-21.362,-2.808,89.143,-4.658,121.608
16021,0.0146,0.9121,0.0342,27.283,-25.391,4.761,89.418,-4.669,121.355
16031,0.0220,0.8896,0.0308,35.706,-21.790,11.292,89.775,-4.752,121.135
16041,0.0825,0.9521,0.0132,30.273,-11.841,13.672,90.082,-4.889,121.020
16051,0.1670,1.0845,-0.0024,17.151,-0.061,11.780,90.253,-5.043,121.014
16061,0.2187,1.1665,-0.0269,5.920,6.348,6.470,90.313,-5.164,121.080
16071,0.2007,1.1260,-0.0615,-1.221,8.057,-0.793,90.324,-5.208,121.163
16081,0.1328,1.0303,-0.0757,-8.423,7.324,-7.996,90.269,-5.147,121.234
16091,0.0630,0.9409,-0.0615,-14.709,3.357,-12.085,90.159,-5.015,121.267
16101,0.0103,0.8921,-0.0303,-15.259,-4.028,-10.559,90.027,-4.867,121.229
16111,0.0010,0.8936,-0.0015,-9.583,-10.986,-4.395,89.945,-4.774,121.119
16121,0.0137,0.9312,0.0190,0.854,-14.709,2.869,89.951,-4.763,120.970
16131,0.0444,0.9624,0.0356,7.996,-13.367,8.179,90.022,-4.823,120.839
16141,0.0937,1.0576,0.0693,4.578,-6.775,9.277,90.033,-4.916,120.767
16151,0.1299,1.1426,0.0923,-1.526,2.869,7.568,89.973,-5.010,120.800
16161,0.1284,1.1558,0.0977,-4.639,11.963,3.357,89.868,-5.054,120.916
16171,0.1021,1.1206,0.0747,-6.042,19.470,-1.953,89.753,-5.037,121.113
16181,0.0669,1.0503,0.0396,-5.188,24.048,-5.859,89.659,-4.966,121.355
16191,0.0483,0.9863,-0.0122,-3.174,25.452,-7.141,89.621,-4.872,121.608
16201,0.0552,0.9551,-0.0557,-0.977,22.644,-5.798,89.626,-4.796,121.838
16211,0.0752,0.9536,-0.0889,0.732,15.747,-3.540,89.676,-4.757,121.992
16221,0.0996,0.9722,-0.1006,0.977,6.958,-1.343,89.742,-4.752,122.064
16231,0.1187,1.0078,-0.0884,-1.526,-0.549,-0.549,89.780,-4.768,122.058
16241,0.1230,1.0439,-0.0454,-5.432,-4.150,-1.282,89.758,-4.774,122.014
16251,0.1025,1.0400,0.0078,-7.019,-2.930,-2.747,89.692,-4.757,121.987
16261,0.0596,0.9966,0.0459,-5.981,0.488,-3.967,89.604,-4.702,121.992
16271,0.0371,0.9580,0.0591,-3.723,4.578,-3.723,89.533,-4.642,122.036
16281,0.0449,0.9365,0.0469,0.244,7.324,-1.648,89.506,-4.603,122.113
16291,0.0620,0.9238,0.0117,5.127,7.202,1.648,89.550,-4.614,122.184
16301,0.0898,0.9287,-0.0288,7.996,3.906,4.272,89.648,-4.664,122.223
16311,0.1299,0.9570,-0.0532,5.127,-1.770,4.822,89.736,-4.741,122.206
16321,0.1519,1.0039,-0.0439,-3.357,-7.507,3.052,89.736,-4.812,122.130
16331,0.1431,1.0347,-0.0181,-13.306,-10.010,0.061,89.626,-4.845,122.031
16341,0.1113,1.0415,0.0249,-22.644,-7.690,-3.418,89.396,-4.823,121.954
16351,0.0698,1.0352,0.0747,-26.855,-2.197,-5.859,89.099,-4.757,121.932
16361,0.0444,1.0366,0.0967,-25.208,3.906,-5.493,88.802,-4.675,121.970
16371,0.0381,1.0254,0.0830,-16.113,8.728,-2.563,88.599,-4.625,122.053
16381,0.0522,1.0068,0.0332,-3.967,11.230,0.977,88.550,-4.614,122.168
16391,0.0850,0.9907,-0.0239,4.272,11.292,3.601,88.610,-4.653,122.283
16401,0.1157,1.0005,-0.0610,4.761,8.606,4.028,88.698,-4.708,122.371
16411,0.1377,1.0195,-0.0737,-0.183,3.357,2.258,88.748,-4.757,122.404
16422,0.1382,1.0610,-0.0435,-6.653,-2.808,-0.427,88.720,-4.779,122.377
16432,0.1094,1.0488,-0.0093,-8.179,-7.690,-1.953,88.665,-4.774,122.300
16442,0.0630,1.0034,0.0303,-6.165,-8.728,-2.319,88.605,-4.741,122.212
16451,0.0371,0.9810,0.0586,-3.418,-6.104,-1.160,88.555,-4.708,122.146
16461,0.0430,0.9775,0.0659,0.549,-2.075,1.099,88.539,-4.697,122.130
16472,0.0640,0.9795,0.0532,4.333,1.099,2.747,88.566,-4.713,122.141
16482,0.0947,1.0054,0.0396,3.418,2.441,2.502,88.588,-4.746,122.162
16492,0.1255,1.0430,0.0317,-1.038,1.465,0.061,88.572,-4.768,122.179
16502,0.1323,1.0679,0.0332,-6.531,-1.221,-3.052,88.506,-4.757,122.168
16512,0.1069,1.0532,0.0532,-11.658,-3.845,-5.920,88.380,-4.713,122.124
16522,0.0659,1.0381,0.0874,-15.442,-5.371,-7.751,88.198,-4.625,122.069
16532,0.0303,1.0068,0.1045,-11.475,-5.310,-6.165,88.050,-4.537,122.014
16542,0.0151,1.0010,0.1245,-1.587,-4.272,-0.793,87.984,-4.493,121.970
16552,0.0269,1.0146,0.1045,14.587,-2.686,5.066,88.094,-4.515,121.948
16562,0.0459,0.9810,0.0449,33.020,0.122,8.301,88.412,-4.576,121.948
16572,0.0747,0.9512,-0.0137,38.391,3.540,7.874,88.813,-4.653,121.987
16582,0.1050,0.9722,-0.0552,27.222,6.531,4.272,89.121,-4.708,122.053
16592,0.1172,1.0117,-0.0654,9.644,8.911,-0.183,89.258,-4.724,122.146
16602,0.1089,1.0264,-0.0669,-4.150,10.437,-4.150,89.253,-4.697,122.250
16612,0.0879,1.0068,-0.0571,-10.193,9.277,-6.348,89.182,-4.636,122.338
16622,0.0747,1.0034,-0.0322,-10.803,5.310,-5.737,89.099,-4.576,122.393
16632,0.0767,1.0132,-0.0151,-6.714,-0.305,-2.991,89.050,-4.543,122.388
16642,0.0771,1.0142,-0.0068,0.183,-5.798,-0.122,89.072,-4.537,122.333
16652,0.0811,1.0298,0.0029,6.409,-10.254,0.916,89.149,-4.548,122.228
16662,0.0801,1.0059,-0.0015,11.292,-12.451,0.793,89.280,-4.559,122.102
16672,0.0703,0.9888,0.0054,8.911,-11.597,-0.122,89.379,-4.554,121.987
16682,0.0718,1.0063,0.0249,-0.183,-7.751,-2.136,89.379,-4.532,121.910
16692,0.0718,1.0181,0.0420,-8.179,-2.014,-3.662,89.280,-4.488,121.888
16702,0.0732,1.0254,0.0537,-12.512,4.700,-4.333,89.132,-4.444,121.937
16712,0.0869,1.0400,0.0532,-13.489,9.766,-4.333,88.967,-4.400,122.031
16722,0.1035,1.0503,0.0444,-10.254,11.108,-4.150,88.846,-4.367,122.146
16732,0.1104,1.0356,0.0220,-3.479,8.545,-3.479,88.802,-4.351,122.228
16742,0.1035,1.0015,0.0010,3.174,4.211,-2.625,88.841,-4.340,122.272
16752,0.0928,0.9634,-0.0137,5.859,0.732,-2.930,88.923,-4.323,122.278
16762,0.0718,0.9385,-0.0137,3.357,-0.183,-4.028,88.973,-4.285,122.272
16772,0.0425,0.9214,0.0024,-2.319,1.465,-4.517,88.956,-4.219,122.289
16782,0.0386,0.9326,0.0278,-7.629,4.028,-4.395,88.874,-4.158,122.327
16792,0.0498,0.9482,0.0405,-10.254,5.188,-3.113,88.753,-4.114,122.377
16802,0.0723,1.0088,0.0527,-10.315,4.639,-0.366,88.632,-4.109,122.426
16812,0.0981,1.0327,0.0303,-2.991,2.930,3.174,88.599,-4.153,122.454
16822,0.1104,1.0435,0.0078,5.310,-0.244,5.005,88.660,-4.224,122.454
16832,0.1094,1.0293,-0.0088,10.559,-4.211,4.700,88.786,-4.290,122.415
16842,0.0825,0.9893,-0.0029,9.949,-7.141,2.991,88.901,-4.323,122.344
16852,0.0469,0.9746,0.0308,2.136,-7.141,0.671,88.923,-4.318,122.272
