elapsed_ms,acc_x_g,acc_y_g,acc_z_g,gyro_x_dps,gyro_y_dps,gyro_z_dps,angle_x_deg,angle_y_deg,angle_z_deg
0,0.6851,0.1426,-0.7339,0.610,-0.427,0.122,168.788,-42.545,147.014
10,0.6880,0.1411,-0.7329,0.488,-0.366,0.183,168.799,-42.545,147.014
20,0.6855,0.1406,-0.7339,0.183,-0.122,0.244,168.805,-42.545,147.014
30,0.6846,0.1411,-0.7329,-0.061,0.122,0.244,168.810,-42.545,147.014
40,0.6860,0.1411,-0.7339,-0.244,0.305,0.305,168.810,-42.550,147.014
50,0.6860,0.1416,-0.7344,-0.305,0.366,0.427,168.816,-42.550,147.014
60,0.6860,0.1431,-0.7349,-0.183,0.244,0.610,168.821,-42.556,147.014
70,0.6855,0.1440,-0.7358,-0.061,0.061,0.732,168.827,-42.556,147.014
80,0.6865,0.1440,-0.7363,-0.122,-0.183,0.854,168.832,-42.556,147.014
90,0.6836,0.1450,-0.7373,-0.061,-0.305,0.916,168.843,-42.550,147.014
100,0.6836,0.1445,-0.7373,-0.183,-0.366,1.038,168.854,-42.550,147.003
110,0.6821,0.1475,-0.7363,-0.122,-0.488,0.977,168.860,-42.539,146.986
120,0.6807,0.1479,-0.7339,-0.183,-0.427,0.854,168.860,-42.539,146.975
130,0.6812,0.1504,-0.7324,-0.305,-0.366,0.671,168.860,-42.534,146.964
140,0.6821,0.1499,-0.7310,-0.305,-0.244,0.488,168.860,-42.528,146.959
150,0.6826,0.1533,-0.7310,-0.305,-0.122,0.244,168.849,-42.528,146.953
160,0.6807,0.1494,-0.7324,-0.305,0.061,0.061,168.843,-42.528,146.953
170,0.6821,0.1489,-0.7319,-0.244,0.183,-0.122,168.838,-42.528,146.953
180,0.6812,0.1484,-0.7324,-0.244,0.244,-0.244,168.827,-42.528,146.959
190,0.6816,0.1465,-0.7344,-0.122,0.305,-0.244,168.827,-42.528,146.964
200,0.6812,0.1465,-0.7349,0.061,0.427,-0.244,168.821,-42.528,146.970
210,0.6816,0.1465,-0.7358,0.183,0.488,-0.183,168.821,-42.534,146.970
221,0.6826,0.1445,-0.7354,0.244,0.488,-0.183,168.821,-42.534,146.975
230,0.6836,0.1421,-0.7363,0.183,0.427,-0.183,168.821,-42.534,146.981
240,0.6855,0.1421,-0.7349,0.000,0.305,-0.122,168.821,-42.539,146.981
250,0.6875,0.1440,-0.7339,-0.183,0.183,-0.061,168.821,-42.539,146.981
260,0.6846,0.1460,-0.7324,-0.244,0.122,0.061,168.816,-42.539,146.981
270,0.6831,0.1450,-0.7319,-0.061,0.122,0.244,168.821,-42.545,146.981
280,0.6812,0.1455,-0.7344,0.305,0.122,0.305,168.821,-42.545,146.975
290,0.6812,0.1465,-0.7319,0.488,0.122,0.366,168.832,-42.545,146.970
300,0.6812,0.1470,-0.7319,0.427,0.183,0.366,168.838,-42.545,146.964
310,0.6831,0.1460,-0.7344,0.366,0.305,0.366,168.843,-42.545,146.964
320,0.6836,0.1494,-0.7349,0.244,0.366,0.366,168.843,-42.550,146.959
330,0.6851,0.1475,-0.7334,0.183,0.427,0.244,168.843,-42.550,146.959
340,0.6855,0.1465,-0.7334,0.244,0.488,0.183,168.843,-42.556,146.953
350,0.6841,0.1470,-0.7300,0.244,0.427,0.183,168.849,-42.561,146.953
360,0.6841,0.1460,-0.7329,0.183,0.244,0.122,168.849,-42.561,146.953
370,0.6836,0.1465,-0.7319,0.122,0.061,0.183,168.849,-42.567,146.953
380,0.6855,0.1445,-0.7319,0.061,-0.061,0.183,168.849,-42.567,146.948
390,0.6865,0.1450,-0.7300,0.122,0.000,0.305,168.854,-42.567,146.942
400,0.6865,0.1426,-0.7310,0.122,0.183,0.366,168.860,-42.572,146.937
410,0.6846,0.1440,-0.7300,0.183,0.427,0.427,168.865,-42.578,146.937
420,0.6821,0.1431,-0.7310,0.244,0.610,0.549,168.871,-42.583,146.931
430,0.6831,0.1450,-0.7314,0.183,0.671,0.549,168.876,-42.589,146.926
440,0.6831,0.1465,-0.7334,0.061,0.671,0.488,168.876,-42.594,146.920
450,0.6841,0.1431,-0.7354,0.000,0.610,0.427,168.882,-42.599,146.915
460,0.6860,0.1416,-0.7368,0.061,0.549,0.305,168.887,-42.605,146.915
470,0.6880,0.1416,-0.7363,-0.122,0.366,0.244,168.887,-42.605,146.909
480,0.6885,0.1416,-0.7363,-0.366,0.122,0.183,168.887,-42.605,146.909
490,0.6865,0.1440,-0.7373,-0.610,-0.183,0.244,168.887,-42.605,146.904
500,0.6851,0.1436,-0.7373,-0.610,-0.366,0.244,168.882,-42.599,146.898
510,0.6851,0.1431,-0.7354,-0.488,-0.488,0.305,168.882,-42.594,146.893
520,0.6846,0.1406,-0.7334,-0.305,-0.549,0.305,168.887,-42.589,146.887
530,0.6812,0.1401,-0.7344,-0.244,-0.549,0.366,168.893,-42.583,146.882
540,0.6816,0.1426,-0.7339,-0.366,-0.427,0.366,168.893,-42.578,146.876
550,0.6831,0.1455,-0.7334,-0.549,-0.244,0.427,168.893,-42.572,146.871
560,0.6826,0.1489,-0.7329,-0.488,-0.061,0.488,168.887,-42.572,146.865
570,0.6812,0.1504,-0.7329,-0.244,0.183,0.488,168.882,-42.572,146.860
580,0.6807,0.1523,-0.7354,0.000,0.488,0.366,168.882,-42.572,146.854
590,0.6821,0.1509,-0.7373,0.122,0.610,0.244,168.876,-42.578,146.854
600,0.6826,0.1499,-0.7363,0.122,0.549,0.000,168.876,-42.578,146.854
610,0.6831,0.1494,-0.7358,-0.183,0.244,-0.305,168.865,-42.578,146.860
620,0.6851,0.1494,-0.7358,-0.549,-0.183,-0.549,168.854,-42.572,146.865
630,0.6875,0.1475,-0.7368,-0.732,-0.488,-0.732,168.838,-42.567,146.876
640,0.6865,0.1455,-0.7324,-0.671,-0.732,-0.793,168.827,-42.556,146.882
650,0.6860,0.1436,-0.7305,-0.427,-0.671,-0.610,168.816,-42.550,146.887
660,0.6855,0.1436,-0.7300,-0.122,-0.671,-0.427,168.810,-42.545,146.893
670,0.6841,0.1401,-0.7300,-0.061,-0.549,-0.305,168.816,-42.539,146.893
680,0.6831,0.1411,-0.7295,-0.122,-0.427,-0.122,168.816,-42.534,146.898
690,0.6836,0.1421,-0.7314,-0.122,-0.244,0.061,168.816,-42.534,146.893
700,0.6826,0.1455,-0.7295,-0.061,0.000,0.244,168.816,-42.534,146.893
710,0.6836,0.1460,-0.7310,0.183,0.366,0.427,168.821,-42.539,146.887
721,0.6836,0.1484,-0.7334,0.488,0.610,0.488,168.827,-42.545,146.882
730,0.6831,0.1475,-0.7363,0.671,0.671,0.366,168.832,-42.550,146.876
740,0.6831,0.1465,-0.7397,0.610,0.610,0.366,168.843,-42.550,146.876
750,0.6851,0.1484,-0.7388,0.427,0.427,0.244,168.843,-42.556,146.871
760,0.6831,0.1499,-0.7378,0.122,0.061,0.122,168.843,-42.550,146.871
770,0.6846,0.1479,-0.7358,0.000,-0.366,-0.061,168.843,-42.545,146.871
780,0.6855,0.1489,-0.7358,-0.061,-0.671,-0.244,168.838,-42.539,146.871
790,0.6851,0.1479,-0.7344,-0.122,-0.854,-0.366,168.832,-42.528,146.876
801,0.6831,0.1455,-0.7319,-0.122,-0.916,-0.366,168.827,-42.517,146.876
810,0.6841,0.1431,-0.7310,0.000,-0.732,-0.305,168.827,-42.512,146.882
821,0.6816,0.1440,-0.7310,0.183,-0.427,-0.244,168.827,-42.506,146.882
831,0.6812,0.1416,-0.7280,0.244,-0.122,-0.122,168.832,-42.506,146.882
841,0.6816,0.1440,-0.7319,0.244,0.122,0.000,168.832,-42.506,146.882
851,0.6841,0.1431,-0.7344,0.244,0.244,0.122,168.838,-42.506,146.882
861,0.6841,0.1475,-0.7354,0.366,0.427,0.244,168.843,-42.512,146.882
871,0.6851,0.1460,-0.7349,0.549,0.549,0.366,168.849,-42.517,146.876
881,0.6860,0.1440,-0.7349,0.671,0.610,0.366,168.860,-42.523,146.876
891,0.6870,0.1460,-0.7354,0.549,0.427,0.366,168.865,-42.528,146.871
901,0.6870,0.1450,-0.7388,0.244,0.122,0.305,168.871,-42.528,146.865
911,0.6865,0.1465,-0.7363,-0.061,-0.305,0.183,168.871,-42.523,146.865
921,0.6846,0.1455,-0.7349,-0.244,-0.549,0.061,168.871,-42.517,146.860
931,0.6841,0.1455,-0.7354,-0.183,-0.671,0.061,168.871,-42.512,146.860
941,0.6816,0.1455,-0.7329,-0.122,-0.671,0.061,168.865,-42.501,146.854
951,0.6812,0.1455,-0.7334,0.000,-0.610,0.122,168.871,-42.495,146.854
961,0.6807,0.1450,-0.7324,0.000,-0.488,0.183,168.871,-42.490,146.849
971,0.6816,0.1455,-0.7329,0.000,-0.305,0.244,168.871,-42.484,146.843
981,0.6807,0.1460,-0.7344,0.061,0.000,0.305,168.876,-42.484,146.843
991,0.6836,0.1445,-0.7324,0.122,0.183,0.305,168.876,-42.484,146.838
1001,0.6821,0.1475,-0.7349,0.122,0.244,0.305,168.876,-42.490,146.832
1011,0.6807,0.1484,-0.7349,0.061,0.244,0.244,168.876,-42.490,146.832
1021,0.6812,0.1504,-0.7363,0.000,0.183,0.244,168.876,-42.490,146.827
1031,0.6802,0.1519,-0.7363,0.122,0.122,0.183,168.871,-42.484,146.827
1041,0.6792,0.1509,-0.7363,0.427,0.061,0.122,168.876,-42.484,146.827
1051,0.6821,0.1484,-0.7378,0.610,0.122,0.000,168.876,-42.479,146.827
1061,0.6826,0.1479,-0.7363,0.610,0.122,-0.122,168.882,-42.479,146.827
1071,0.6860,0.1460,-0.7354,0.305,0.061,-0.305,168.876,-42.479,146.832
1081,0.6851,0.1445,-0.7329,-0.061,0.061,-0.427,168.876,-42.479,146.838
1091,0.6846,0.1440,-0.7319,-0.305,-0.061,-0.488,168.865,-42.479,146.843
1101,0.6860,0.1440,-0.7290,-0.244,-0.183,-0.427,168.860,-42.479,146.843
1111,0.6831,0.1479,-0.7310,0.061,-0.244,-0.244,168.854,-42.479,146.843
1121,0.6821,0.1450,-0.7314,0.427,-0.183,-0.061,168.860,-42.473,146.843
1131,0.6812,0.1426,-0.7324,0.671,0.061,0.122,168.865,-42.473,146.843
1141,0.6816,0.1426,-0.7334,0.671,0.305,0.244,168.876,-42.479,146.843
1151,0.6812,0.1406,-0.7344,0.549,0.549,0.244,168.887,-42.479,146.843
1161,0.6846,0.1426,-0.7349,0.305,0.732,0.244,168.893,-42.490,146.843
1171,0.6865,0.1431,-0.7363,0.061,0.732,0.244,168.893,-42.495,146.843
1181,0.6855,0.1431,-0.7358,-0.183,0.549,0.183,168.893,-42.501,146.843
1191,0.6846,0.1475,-0.7363,-0.305,0.183,0.244,168.893,-42.501,146.843
1201,0.6846,0.1479,-0.7339,-0.244,-0.183,0.305,168.887,-42.501,146.843
1211,0.6826,0.1470,-0.7344,0.000,-0.488,0.366,168.893,-42.495,146.843
1221,0.6816,0.1484,-0.7349,0.244,-0.549,0.366,168.893,-42.490,146.843
1231,0.6792,0.1499,-0.7344,0.488,-0.427,0.305,168.898,-42.484,146.843
1241,0.6802,0.1470,-0.7314,0.427,-0.122,0.183,168.904,-42.479,146.843
1251,0.6826,0.1440,-0.7339,0.244,0.183,0.061,168.904,-42.479,146.843
1261,0.6826,0.1455,-0.7339,-0.061,0.427,-0.061,168.904,-42.484,146.843
1271,0.6831,0.1470,-0.7358,-0.183,0.610,-0.244,168.893,-42.490,146.843
1281,0.6826,0.1470,-0.7373,-0.244,0.549,-0.305,168.887,-42.490,146.843
1291,0.6836,0.1479,-0.7363,-0.122,0.427,-0.305,168.882,-42.490,146.843
1301,0.6836,0.1460,-0.7354,0.000,0.244,-0.244,168.876,-42.495,146.843
1311,0.6826,0.1445,-0.7358,0.122,0.122,-0.183,168.876,-42.490,146.843
1321,0.6821,0.1445,-0.7344,0.183,0.061,-0.183,168.876,-42.490,146.843
1331,0.6846,0.1436,-0.7349,0.122,0.122,-0.122,168.876,-42.490,146.843
1341,0.6831,0.1416,-0.7358,-0.244,0.305,-0.183,168.871,-42.495,146.843
1351,0.6855,0.1426,-0.7368,-0.427,0.305,-0.122,168.871,-42.495,146.843
1361,0.6870,0.1436,-0.7344,-0.488,0.244,-0.061,168.865,-42.495,146.843
1371,0.6846,0.1460,-0.7358,-0.366,0.122,-0.061,168.860,-42.495,146.843
1381,0.6846,0.1475,-0.7334,-0.183,0.000,0.061,168.854,-42.495,146.843
1391,0.6816,0.1475,-0.7314,0.122,-0.061,0.183,168.854,-42.495,146.843
1401,0.6812,0.1455,-0.7334,0.366,-0.061,0.244,168.860,-42.495,146.843
1411,0.6821,0.1465,-0.7344,0.305,0.000,0.122,168.865,-42.495,146.843
1421,0.6836,0.1489,-0.7334,0.061,0.183,-0.061,168.860,-42.495,146.843
1431,0.6807,0.1499,-0.7324,-0.122,0.305,-0.183,168.854,-42.495,146.843
1441,0.6826,0.1494,-0.7319,-0.183,0.366,-0.183,168.843,-42.501,146.843
1451,0.6860,0.1475,-0.7314,-0.061,0.488,-0.183,168.838,-42.506,146.843
1461,0.6865,0.1479,-0.7344,0.183,0.427,-0.244,168.832,-42.506,146.843
1471,0.6855,0.1450,-0.7339,0.366,0.366,-0.183,168.838,-42.512,146.843
1481,0.6831,0.1445,-0.7324,0.305,0.244,-0.244,168.838,-42.512,146.843
1491,0.6841,0.1450,-0.7329,0.244,0.183,-0.183,168.838,-42.512,146.843
1501,0.6836,0.1440,-0.7344,0.061,0.183,-0.183,168.838,-42.512,146.843
1511,0.6841,0.1445,-0.7354,-0.061,0.305,-0.244,168.832,-42.517,146.843
1521,0.6831,0.1450,-0.7358,-0.122,0.427,-0.244,168.827,-42.517,146.843
1531,0.6836,0.1470,-0.7354,0.061,0.549,-0.183,168.827,-42.523,146.843
1541,0.6836,0.1455,-0.7363,0.305,0.671,-0.183,168.827,-42.523,146.843
1551,0.6826,0.1465,-0.7368,0.366,0.610,-0.183,168.827,-42.528,146.843
1561,0.6821,0.1475,-0.7368,0.427,0.305,-0.122,168.827,-42.528,146.843
1571,0.6841,0.1460,-0.7363,0.427,0.000,-0.061,168.832,-42.528,146.843
1581,0.6855,0.1470,-0.7319,0.488,-0.183,0.000,168.832,-42.523,146.843
1591,0.6855,0.1475,-0.7324,0.549,-0.366,0.000,168.838,-42.523,146.843
1601,0.6870,0.1479,-0.7300,0.549,-0.366,0.122,168.843,-42.517,146.843
1611,0.6846,0.1499,-0.7290,0.671,-0.183,0.122,168.843,-42.517,146.843
1621,0.6826,0.1509,-0.7290,0.916,0.000,0.183,168.849,-42.517,146.843
1631,0.6787,0.1519,-0.7285,1.343,0.305,0.183,168.860,-42.523,146.843
1641,0.6772,0.1499,-0.7295,1.709,0.610,0.122,168.871,-42.528,146.843
1651,0.6772,0.1499,-0.7275,2.014,0.977,0.000,168.882,-42.534,146.843
1661,0.6797,0.1499,-0.7314,2.075,1.221,-0.122,168.898,-42.545,146.843
1671,0.6831,0.1475,-0.7344,1.892,1.343,-0.183,168.909,-42.556,146.843
1681,0.6880,0.1465,-0.7354,1.709,1.465,-0.244,168.920,-42.567,146.843
1691,0.6904,0.1455,-0.7354,1.587,1.282,-0.183,168.931,-42.583,146.843
1701,0.6953,0.1479,-0.7319,1.587,0.793,-0.183,168.937,-42.594,146.843
1711,0.6924,0.1470,-0.7324,1.892,0.305,-0.183,168.953,-42.599,146.843
1722,0.6890,0.1450,-0.7314,2.075,-0.305,-0.244,168.970,-42.594,146.843
1731,0.6846,0.1426,-0.7300,2.197,-0.610,-0.366,168.992,-42.589,146.843
1741,0.6821,0.1465,-0.7266,2.197,-0.610,-0.488,169.003,-42.583,146.843
1751,0.6782,0.1470,-0.7236,2.197,-0.122,-0.610,169.014,-42.578,146.843
1761,0.6758,0.1484,-0.7241,2.441,0.671,-0.671,169.025,-42.583,146.843
1771,0.6768,0.1494,-0.7261,2.808,1.709,-0.916,169.036,-42.599,146.843
1781,0.6812,0.1489,-0.7271,2.869,2.441,-1.221,169.041,-42.616,146.865
1791,0.6855,0.1475,-0.7280,2.747,2.686,-1.343,169.047,-42.643,146.893
1801,0.6924,0.1470,-0.7305,2.380,2.502,-1.587,169.052,-42.665,146.920
1811,0.6953,0.1445,-0.7324,1.953,2.014,-1.709,169.047,-42.687,146.948
1821,0.6963,0.1431,-0.7349,1.587,1.282,-1.831,169.047,-42.698,146.975
1831,0.6938,0.1396,-0.7324,1.404,0.732,-1.953,169.041,-42.704,147.003
1841,0.6919,0.1382,-0.7324,1.160,0.305,-1.892,169.036,-42.704,147.030
1851,0.6870,0.1353,-0.7295,0.977,0.183,-1.770,169.036,-42.704,147.052
1861,0.6821,0.1343,-0.7275,0.854,0.305,-1.648,169.036,-42.704,147.074
1871,0.6807,0.1333,-0.7290,0.916,0.793,-1.404,169.036,-42.709,147.096
1881,0.6812,0.1333,-0.7290,1.160,1.465,-1.099,169.041,-42.720,147.112
1891,0.6831,0.1318,-0.7314,1.465,2.136,-0.793,169.052,-42.737,147.129
1901,0.6851,0.1313,-0.7373,1.648,2.625,-0.488,169.069,-42.759,147.145
1911,0.6880,0.1309,-0.7397,1.587,2.808,-0.244,169.085,-42.781,147.156
1921,0.6943,0.1284,-0.7422,1.343,2.502,-0.061,169.107,-42.808,147.162
1931,0.6968,0.1284,-0.7441,0.977,1.953,0.000,169.124,-42.825,147.167
1941,0.6997,0.1274,-0.7446,0.427,1.099,-0.061,169.135,-42.836,147.173
1951,0.6968,0.1279,-0.7432,-0.183,0.122,-0.061,169.146,-42.836,147.173
1961,0.6953,0.1284,-0.7383,-0.732,-0.732,0.000,169.146,-42.830,147.167
1971,0.6914,0.1284,-0.7358,-1.038,-1.404,0.122,169.151,-42.814,147.162
1981,0.6899,0.1309,-0.7319,-1.221,-1.709,0.305,169.151,-42.797,147.156
1991,0.6870,0.1323,-0.7241,-1.221,-1.709,0.610,169.151,-42.786,147.145
2001,0.6855,0.1343,-0.7217,-1.099,-1.343,0.977,169.156,-42.775,147.129
2011,0.6855,0.1353,-0.7227,-0.916,-0.732,1.404,169.162,-42.775,147.107
2021,0.6870,0.1401,-0.7251,-0.671,-0.122,1.709,169.173,-42.781,147.085
2031,0.6895,0.1416,-0.7251,-0.427,0.488,1.892,169.178,-42.792,147.057
2041,0.6924,0.1440,-0.7261,-0.305,0.916,1.892,169.189,-42.803,147.036
2051,0.6919,0.1450,-0.7310,-0.366,1.099,1.587,169.195,-42.819,147.019
2061,0.6943,0.1450,-0.7329,-0.854,0.916,1.221,169.189,-42.830,147.003
2071,0.6968,0.1460,-0.7329,-1.465,0.549,0.854,169.178,-42.841,146.992
2081,0.6953,0.1475,-0.7344,-2.075,0.122,0.427,169.156,-42.841,146.986
2091,0.6924,0.1470,-0.7344,-2.380,-0.305,0.061,169.129,-42.841,146.986
2101,0.6899,0.1470,-0.7378,-2.319,-0.671,-0.305,169.102,-42.830,146.992
2111,0.6880,0.1460,-0.7334,-2.075,-0.916,-0.549,169.074,-42.819,146.992
2121,0.6860,0.1465,-0.7314,-1.892,-0.977,-0.671,169.047,-42.803,147.003
2131,0.6836,0.1479,-0.7305,-1.648,-0.854,-0.671,169.019,-42.792,147.008
2141,0.6836,0.1489,-0.7305,-1.282,-0.671,-0.732,168.997,-42.781,147.014
2151,0.6821,0.1514,-0.7305,-0.549,-0.305,-0.732,168.975,-42.775,147.025
2161,0.6812,0.1499,-0.7329,0.061,0.122,-0.854,168.964,-42.770,147.036
2171,0.6807,0.1455,-0.7334,0.427,0.427,-1.099,168.959,-42.764,147.052
2181,0.6812,0.1455,-0.7349,0.305,0.610,-1.343,168.942,-42.764,147.074
2191,0.6855,0.1470,-0.7373,-0.244,0.549,-1.709,168.926,-42.764,147.096
2201,0.6841,0.1509,-0.7363,-0.671,0.366,-2.014,168.893,-42.759,147.123
2211,0.6821,0.1519,-0.7373,-0.671,0.061,-2.075,168.865,-42.748,147.151
2222,0.6826,0.1538,-0.7354,-0.183,-0.122,-2.075,168.838,-42.737,147.178
2231,0.6816,0.1504,-0.7344,0.488,-0.244,-2.075,168.816,-42.726,147.206
2241,0.6836,0.1470,-0.7329,0.854,-0.488,-2.014,168.810,-42.715,147.233
2251,0.6860,0.1411,-0.7285,0.610,-0.793,-2.136,168.799,-42.704,147.255
2261,0.6919,0.1367,-0.7246,-0.122,-1.282,-2.197,168.783,-42.693,147.283
2271,0.6953,0.1362,-0.7246,-0.732,-1.587,-2.197,168.766,-42.682,147.310
2281,0.6948,0.1372,-0.7246,-0.916,-1.465,-1.953,168.750,-42.671,147.332
2291,0.6909,0.1367,-0.7256,-0.427,-0.793,-1.404,168.739,-42.665,147.349
2301,0.6841,0.1377,-0.7251,0.427,0.122,-0.732,168.739,-42.665,147.360
2311,0.6831,0.1387,-0.7280,1.282,0.793,0.000,168.755,-42.671,147.360
2321,0.6797,0.1411,-0.7324,1.770,1.221,0.488,168.777,-42.682,147.354
2331,0.6821,0.1411,-0.7378,1.953,1.221,0.793,168.810,-42.693,147.349
2341,0.6855,0.1436,-0.7407,1.709,0.977,0.793,168.832,-42.698,147.343
2351,0.6875,0.1470,-0.7407,1.404,0.427,0.671,168.849,-42.698,147.332
2361,0.6904,0.1470,-0.7397,1.160,-0.183,0.427,168.865,-42.698,147.327
2371,0.6885,0.1514,-0.7397,1.099,-0.610,0.122,168.876,-42.687,147.327
2381,0.6831,0.1533,-0.7373,1.038,-0.977,-0.122,168.876,-42.671,147.321
2391,0.6787,0.1528,-0.7358,1.343,-1.160,-0.183,168.887,-42.654,147.321
2401,0.6772,0.1514,-0.7305,1.587,-1.099,-0.305,168.893,-42.638,147.321
2411,0.6792,0.1470,-0.7305,1.526,-0.916,-0.549,168.904,-42.627,147.327
2421,0.6846,0.1406,-0.7266,1.160,-0.793,-0.854,168.909,-42.621,147.338
2431,0.6909,0.1372,-0.7271,0.366,-0.671,-0.977,168.909,-42.616,147.349
2441,0.6953,0.1392,-0.7222,-0.427,-0.610,-0.916,168.904,-42.616,147.360
2451,0.6978,0.1440,-0.7222,-0.732,-0.610,-0.610,168.887,-42.616,147.365
2461,0.6943,0.1475,-0.7222,-0.122,-0.427,-0.122,168.882,-42.621,147.365
2471,0.6875,0.1484,-0.7212,0.916,0.061,0.366,168.887,-42.627,147.360
2481,0.6841,0.1489,-0.7256,1.892,0.610,0.610,168.909,-42.632,147.354
2491,0.6792,0.1479,-0.7300,2.075,1.221,0.427,168.926,-42.643,147.354
2502,0.6802,0.1455,-0.7334,1.465,1.648,-0.061,168.937,-42.654,147.360
2512,0.6826,0.1465,-0.7344,0.366,1.892,-0.671,168.926,-42.671,147.371
2521,0.6870,0.1489,-0.7373,-0.610,1.892,-1.221,168.904,-42.682,147.393
2532,0.6904,0.1514,-0.7393,-0.977,1.648,-1.465,168.871,-42.693,147.415
2542,0.6909,0.1494,-0.7393,-0.610,1.160,-1.526,168.849,-42.698,147.442
2552,0.6909,0.1460,-0.7368,0.061,0.427,-1.343,168.838,-42.704,147.458
2562,0.6885,0.1421,-0.7358,0.549,-0.305,-1.099,168.832,-42.693,147.475
2572,0.6885,0.1387,-0.7354,0.610,-0.977,-0.916,168.838,-42.682,147.486
2582,0.6880,0.1353,-0.7339,0.305,-1.343,-0.854,168.843,-42.671,147.491
2592,0.6904,0.1323,-0.7310,-0.366,-1.404,-0.916,168.843,-42.654,147.497
2602,0.6909,0.1328,-0.7275,-1.038,-1.221,-0.916,168.832,-42.649,147.508
2612,0.6899,0.1377,-0.7256,-1.343,-0.793,-0.671,168.821,-42.643,147.513
2622,0.6880,0.1387,-0.7266,-1.038,-0.244,-0.183,168.816,-42.643,147.519
2632,0.6841,0.1406,-0.7290,-0.183,0.305,0.366,168.816,-42.643,147.513
2642,0.6836,0.1411,-0.7295,0.732,0.549,0.793,168.832,-42.654,147.502
2652,0.6846,0.1431,-0.7310,1.282,0.732,1.160,168.854,-42.660,147.491
2662,0.6821,0.1450,-0.7329,1.221,0.793,1.221,168.876,-42.671,147.475
2672,0.6807,0.1479,-0.7354,0.793,0.732,1.160,168.893,-42.676,147.464
2682,0.6816,0.1509,-0.7339,0.305,0.671,0.793,168.893,-42.676,147.453
2692,0.6865,0.1533,-0.7397,-0.122,0.549,0.366,168.887,-42.682,147.453
2702,0.6860,0.1538,-0.7378,-0.427,0.366,0.061,168.876,-42.682,147.453
2712,0.6865,0.1533,-0.7354,-0.488,0.122,-0.122,168.865,-42.676,147.453
2722,0.6841,0.1514,-0.7329,-0.488,-0.305,-0.244,168.854,-42.671,147.453
2732,0.6855,0.1489,-0.7295,-0.549,-0.671,-0.366,168.843,-42.665,147.458
2742,0.6836,0.1450,-0.7271,-0.427,-0.793,-0.427,168.832,-42.660,147.464
2752,0.6816,0.1416,-0.7275,-0.305,-0.610,-0.488,168.832,-42.649,147.464
2762,0.6826,0.1401,-0.7275,-0.366,-0.244,-0.427,168.827,-42.649,147.469
2772,0.6841,0.1401,-0.7285,-0.366,0.366,-0.366,168.821,-42.649,147.475
2782,0.6870,0.1411,-0.7285,-0.366,0.916,-0.305,168.816,-42.660,147.486
2792,0.6914,0.1387,-0.7314,-0.305,1.282,-0.183,168.810,-42.676,147.491
2802,0.6914,0.1387,-0.7339,-0.183,1.343,0.122,168.816,-42.687,147.491
2812,0.6929,0.1426,-0.7354,-0.061,1.099,0.366,168.816,-42.704,147.491
2822,0.6924,0.1426,-0.7358,0.061,0.671,0.488,168.821,-42.709,147.486
2832,0.6904,0.1445,-0.7354,0.061,0.122,0.488,168.827,-42.709,147.480
2842,0.6895,0.1455,-0.7358,-0.183,-0.244,0.427,168.832,-42.709,147.475
2852,0.6875,0.1470,-0.7354,-0.549,-0.610,0.244,168.827,-42.698,147.469
2862,0.6865,0.1465,-0.7319,-0.916,-0.732,0.122,168.821,-42.693,147.464
2872,0.6860,0.1484,-0.7324,-1.038,-0.610,0.000,168.805,-42.687,147.464
2882,0.6860,0.1499,-0.7319,-1.099,-0.366,0.000,168.794,-42.682,147.464
2892,0.6826,0.1504,-0.7305,-0.916,-0.122,0.122,168.783,-42.676,147.458
2902,0.6836,0.1514,-0.7310,-0.549,0.305,0.244,168.772,-42.682,147.458
2912,0.6826,0.1484,-0.7290,-0.183,0.488,0.366,168.772,-42.682,147.453
2922,0.6846,0.1479,-0.7324,-0.061,0.610,0.305,168.772,-42.687,147.453
2932,0.6870,0.1470,-0.7334,-0.061,0.488,0.244,168.766,-42.693,147.448
2942,0.6860,0.1465,-0.7339,-0.183,0.366,0.122,168.766,-42.693,147.448
2952,0.6870,0.1479,-0.7324,-0.305,0.244,0.000,168.761,-42.698,147.448
2962,0.6885,0.1460,-0.7334,-0.244,0.122,-0.183,168.755,-42.698,147.453
2972,0.6899,0.1450,-0.7314,-0.183,0.000,-0.244,168.755,-42.698,147.453
2982,0.6885,0.1426,-0.7319,-0.122,-0.122,-0.244,168.750,-42.698,147.458
2992,0.6880,0.1426,-0.7339,-0.122,-0.122,-0.183,168.750,-42.693,147.458
3002,0.6880,0.1436,-0.7334,-0.122,-0.122,-0.061,168.750,-42.693,147.458
3012,0.6841,0.1440,-0.7319,-0.061,-0.183,0.061,168.755,-42.687,147.458
3022,0.6836,0.1436,-0.7310,0.122,-0.183,0.122,168.755,-42.687,147.458
3032,0.6841,0.1445,-0.7310,0.305,-0.122,0.183,168.761,-42.682,147.453
3042,0.6841,0.1465,-0.7310,0.488,-0.122,0.305,168.772,-42.682,147.448
3052,0.6855,0.1455,-0.7305,0.549,-0.061,0.366,168.777,-42.682,147.448
3062,0.6851,0.1479,-0.7295,0.488,0.061,0.305,168.783,-42.682,147.442
3072,0.6860,0.1484,-0.7324,0.305,0.122,0.244,168.788,-42.682,147.437
3082,0.6865,0.1484,-0.7310,0.122,0.183,0.061,168.783,-42.682,147.437
3092,0.6870,0.1504,-0.7266,-0.122,0.183,-0.061,168.777,-42.687,147.437
3102,0.6851,0.1494,-0.7275,-0.183,0.061,-0.061,168.772,-42.687,147.442
3112,0.6846,0.1489,-0.7261,-0.061,-0.061,-0.122,168.766,-42.687,147.442
3122,0.6860,0.1470,-0.7295,0.122,-0.183,-0.122,168.766,-42.687,147.442
3132,0.6870,0.1460,-0.7295,0.366,-0.183,-0.122,168.766,-42.682,147.442
3142,0.6880,0.1455,-0.7300,0.427,-0.122,-0.122,168.772,-42.682,147.448
3152,0.6875,0.1431,-0.7305,0.366,0.061,-0.061,168.772,-42.682,147.448
3162,0.6870,0.1436,-0.7310,0.305,0.244,0.000,168.777,-42.687,147.448
3172,0.6870,0.1440,-0.7324,0.183,0.427,0.000,168.777,-42.693,147.448
3182,0.6860,0.1436,-0.7310,0.000,0.427,-0.061,168.777,-42.693,147.448
3192,0.6846,0.1455,-0.7334,-0.183,0.427,-0.122,168.777,-42.698,147.453
3202,0.6831,0.1479,-0.7349,-0.122,0.366,-0.122,168.772,-42.698,147.453
3212,0.6841,0.1460,-0.7334,0.061,0.244,-0.122,168.772,-42.693,147.458
3223,0.6846,0.1450,-0.7334,0.183,0.183,-0.061,168.772,-42.693,147.458
3232,0.6860,0.1494,-0.7319,0.183,0.000,0.000,168.772,-42.693,147.458
3242,0.6860,0.1470,-0.7349,0.366,-0.061,0.183,168.777,-42.693,147.458
3252,0.6860,0.1450,-0.7334,0.610,0.000,0.183,168.783,-42.693,147.453
3262,0.6909,0.1445,-0.7310,0.488,0.000,0.061,168.788,-42.693,147.453
3272,0.6899,0.1440,-0.7300,0.061,-0.183,-0.122,168.788,-42.693,147.453
3282,0.6875,0.1431,-0.7295,-0.366,-0.366,-0.183,168.783,-42.687,147.453
3292,0.6875,0.1455,-0.7290,-0.671,-0.488,-0.122,168.777,-42.682,147.458
3302,0.6865,0.1460,-0.7271,-0.488,-0.488,0.000,168.772,-42.682,147.453
3312,0.6855,0.1479,-0.7261,0.000,-0.244,0.244,168.772,-42.682,147.453
3322,0.6846,0.1460,-0.7300,0.610,0.122,0.427,168.783,-42.682,147.448
3332,0.6865,0.1465,-0.7280,0.977,0.549,0.549,168.794,-42.687,147.442
3342,0.6885,0.1460,-0.7290,0.793,0.854,0.427,168.799,-42.698,147.437
3352,0.6895,0.1465,-0.7324,0.244,0.854,0.183,168.805,-42.709,147.437
3362,0.6885,0.1494,-0.7344,-0.305,0.732,-0.122,168.794,-42.715,147.442
3372,0.6895,0.1489,-0.7349,-0.610,0.427,-0.305,168.783,-42.715,147.442
3382,0.6895,0.1509,-0.7344,-0.610,0.061,-0.427,168.766,-42.715,147.453
3392,0.6880,0.1484,-0.7319,-0.366,-0.305,-0.427,168.761,-42.709,147.453
3402,0.6880,0.1455,-0.7300,-0.061,-0.488,-0.244,168.755,-42.704,147.458
3412,0.6865,0.1460,-0.7285,0.061,-0.610,-0.122,168.755,-42.698,147.458
3422,0.6846,0.1440,-0.7295,0.183,-0.488,0.061,168.761,-42.693,147.453
3432,0.6846,0.1465,-0.7271,0.183,-0.244,0.061,168.761,-42.693,147.453
3442,0.6826,0.1440,-0.7290,0.122,0.183,0.122,168.766,-42.693,147.453
3452,0.6851,0.1440,-0.7285,0.122,0.549,0.183,168.766,-42.698,147.453
3462,0.6870,0.1450,-0.7300,0.122,0.732,0.183,168.766,-42.709,147.453
3472,0.6875,0.1465,-0.7319,0.244,0.854,0.305,168.772,-42.715,147.448
3482,0.6860,0.1465,-0.7344,0.549,0.793,0.366,168.777,-42.720,147.448
3492,0.6860,0.1465,-0.7334,0.732,0.732,0.305,168.788,-42.726,147.442
3502,0.6865,0.1465,-0.7344,0.793,0.610,0.244,168.794,-42.731,147.442
3512,0.6846,0.1499,-0.7339,0.671,0.427,0.122,168.799,-42.731,147.442
3522,0.6831,0.1489,-0.7319,0.549,0.244,0.061,168.799,-42.731,147.442
3532,0.6846,0.1475,-0.7344,0.427,0.000,-0.183,168.799,-42.731,147.442
3542,0.6841,0.1494,-0.7349,0.488,-0.244,-0.427,168.799,-42.720,147.448
3552,0.6851,0.1479,-0.7329,0.732,-0.305,-0.427,168.799,-42.715,147.453
3562,0.6841,0.1455,-0.7329,0.916,-0.122,-0.488,168.805,-42.715,147.458
3572,0.6846,0.1431,-0.7300,0.854,0.183,-0.427,168.810,-42.715,147.469
3582,0.6865,0.1421,-0.7305,0.793,0.366,-0.305,168.816,-42.715,147.469
3592,0.6909,0.1426,-0.7314,0.671,0.366,-0.183,168.821,-42.720,147.475
3602,0.6919,0.1401,-0.7280,0.610,0.244,-0.122,168.832,-42.726,147.475
3612,0.6929,0.1382,-0.7300,0.610,0.122,-0.122,168.838,-42.731,147.480
3622,0.6943,0.1396,-0.7275,0.427,-0.122,-0.061,168.849,-42.731,147.480
3632,0.6929,0.1406,-0.7285,0.244,-0.305,0.061,168.854,-42.731,147.480
3642,0.6909,0.1421,-0.7285,0.122,-0.305,0.183,168.860,-42.731,147.475
3652,0.6870,0.1426,-0.7280,0.183,-0.061,0.183,168.860,-42.731,147.475
3662,0.6826,0.1445,-0.7275,0.366,0.244,0.244,168.865,-42.737,147.469
3672,0.6807,0.1421,-0.7314,0.610,0.671,0.305,168.876,-42.737,147.469
3682,0.6831,0.1440,-0.7324,0.732,0.916,0.305,168.882,-42.748,147.469
3692,0.6865,0.1426,-0.7349,0.610,0.916,0.183,168.893,-42.753,147.469
3702,0.6914,0.1450,-0.7358,0.366,0.610,0.061,168.893,-42.759,147.469
3712,0.6895,0.1440,-0.7388,0.183,0.366,0.000,168.893,-42.759,147.469
3723,0.6904,0.1450,-0.7383,0.183,0.061,-0.061,168.898,-42.759,147.469
3732,0.6904,0.1421,-0.7324,0.122,-0.305,-0.122,168.898,-42.753,147.469
3742,0.6909,0.1416,-0.7310,-0.061,-0.732,-0.122,168.898,-42.748,147.469
3752,0.6904,0.1401,-0.7305,-0.366,-1.099,-0.061,168.898,-42.737,147.469
3762,0.6904,0.1416,-0.7290,-0.549,-1.282,-0.061,168.898,-42.726,147.469
3772,0.6875,0.1436,-0.7271,-0.610,-1.160,0.061,168.893,-42.720,147.469
3782,0.6860,0.1421,-0.7266,-0.366,-0.793,0.122,168.893,-42.709,147.469
3792,0.6851,0.1445,-0.7227,-0.061,-0.366,0.305,168.893,-42.709,147.469
3802,0.6851,0.1455,-0.7241,0.305,0.061,0.427,168.898,-42.715,147.469
3812,0.6875,0.1436,-0.7300,0.427,0.427,0.549,168.904,-42.720,147.469
3822,0.6885,0.1445,-0.7319,0.366,0.793,0.549,168.909,-42.726,147.469
3832,0.6914,0.1450,-0.7339,0.183,0.916,0.549,168.915,-42.737,147.469
3842,0.6943,0.1460,-0.7358,-0.122,0.793,0.366,168.915,-42.748,147.469
3852,0.6943,0.1455,-0.7349,-0.488,0.366,0.183,168.909,-42.753,147.469
3862,0.6929,0.1450,-0.7349,-0.854,-0.122,0.000,168.898,-42.753,147.469
3872,0.6899,0.1440,-0.7329,-0.977,-0.671,-0.122,168.893,-42.742,147.469
3882,0.6875,0.1440,-0.7314,-1.038,-1.038,-0.122,168.882,-42.731,147.469
3892,0.6865,0.1416,-0.7290,-0.977,-1.160,-0.122,168.871,-42.720,147.469
3902,0.6836,0.1401,-0.7314,-0.732,-0.977,0.000,168.871,-42.709,147.469
3912,0.6841,0.1382,-0.7295,-0.549,-0.610,0.122,168.871,-42.704,147.469
3922,0.6836,0.1406,-0.7314,-0.427,-0.183,0.244,168.871,-42.704,147.469
3932,0.6846,0.1406,-0.7305,-0.366,0.122,0.427,168.876,-42.704,147.469
3942,0.6870,0.1440,-0.7329,-0.183,0.305,0.610,168.876,-42.704,147.469
3952,0.6841,0.1465,-0.7334,0.122,0.366,0.793,168.882,-42.709,147.469
3962,0.6865,0.1465,-0.7354,0.488,0.244,0.916,168.893,-42.709,147.469
3972,0.6865,0.1489,-0.7383,0.732,0.061,0.793,168.904,-42.709,147.469
3982,0.6860,0.1489,-0.7393,0.732,-0.183,0.549,168.915,-42.704,147.469
3992,0.6855,0.1479,-0.7373,0.366,-0.488,0.122,168.920,-42.698,147.469
4002,0.6836,0.1499,-0.7358,-0.244,-0.549,-0.305,168.909,-42.687,147.469
4012,0.6846,0.1509,-0.7334,-0.671,-0.549,-0.671,168.893,-42.676,147.469
4022,0.6826,0.1509,-0.7329,-0.793,-0.671,-0.916,168.871,-42.665,147.469
4032,0.6836,0.1504,-0.7310,-0.671,-0.732,-0.977,168.854,-42.654,147.469
4042,0.6851,0.1509,-0.7275,-0.305,-0.732,-0.977,168.838,-42.649,147.469
4052,0.6841,0.1499,-0.7271,0.183,-0.610,-0.793,168.827,-42.638,147.469
4062,0.6836,0.1470,-0.7285,0.610,-0.305,-0.671,168.827,-42.638,147.469
4072,0.6802,0.1479,-0.7295,0.854,0.183,-0.610,168.827,-42.632,147.469
4082,0.6821,0.1460,-0.7290,0.916,0.427,-0.671,168.827,-42.638,147.469
4092,0.6836,0.1440,-0.7290,0.732,0.671,-0.793,168.827,-42.643,147.469
4102,0.6855,0.1460,-0.7329,0.488,0.793,-0.916,168.821,-42.643,147.469
4112,0.6875,0.1465,-0.7334,0.488,0.854,-0.977,168.816,-42.654,147.469
4122,0.6885,0.1431,-0.7329,0.549,0.793,-1.038,168.810,-42.660,147.486
4132,0.6890,0.1445,-0.7349,0.488,0.488,-1.099,168.805,-42.660,147.502
4143,0.6904,0.1431,-0.7363,0.427,0.061,-1.038,168.799,-42.660,147.513
4153,0.6909,0.1426,-0.7349,0.427,-0.366,-0.916,168.799,-42.654,147.524
4163,0.6890,0.1421,-0.7310,0.488,-0.671,-0.793,168.799,-42.649,147.535
4173,0.6904,0.1382,-0.7305,0.488,-0.793,-0.732,168.805,-42.638,147.541
4183,0.6895,0.1348,-0.7310,0.427,-0.854,-0.610,168.810,-42.632,147.552
4193,0.6870,0.1343,-0.7300,0.183,-0.732,-0.427,168.821,-42.627,147.552
4203,0.6855,0.1377,-0.7310,-0.061,-0.549,-0.244,168.821,-42.621,147.557
4213,0.6831,0.1401,-0.7329,-0.122,-0.244,-0.061,168.827,-42.616,147.557
4223,0.6821,0.1436,-0.7314,0.061,0.122,0.061,168.827,-42.616,147.557
4233,0.6792,0.1455,-0.7334,0.366,0.366,0.244,168.832,-42.616,147.552
4243,0.6802,0.1475,-0.7329,0.671,0.427,0.366,168.838,-42.621,147.546
4253,0.6812,0.1494,-0.7349,0.854,0.366,0.427,168.849,-42.621,147.546
4263,0.6826,0.1509,-0.7344,0.916,0.305,0.244,168.854,-42.621,147.541
4273,0.6851,0.1499,-0.7349,0.671,0.061,0.000,168.854,-42.621,147.541
4283,0.6851,0.1533,-0.7349,0.427,-0.122,-0.244,168.854,-42.616,147.546
4293,0.6841,0.1558,-0.7358,0.366,-0.366,-0.488,168.843,-42.610,147.552
4303,0.6831,0.1519,-0.7319,0.427,-0.366,-0.671,168.838,-42.599,147.557
4313,0.6831,0.1494,-0.7305,0.488,-0.366,-0.916,168.832,-42.594,147.568
4323,0.6821,0.1450,-0.7285,0.427,-0.183,-1.038,168.827,-42.594,147.585
4333,0.6851,0.1436,-0.7266,0.305,-0.122,-1.099,168.816,-42.589,147.596
4343,0.6865,0.1406,-0.7280,0.183,0.244,-1.038,168.810,-42.594,147.612
4353,0.6929,0.1396,-0.7295,0.183,0.488,-0.916,168.810,-42.599,147.623
4363,0.6948,0.1396,-0.7280,0.305,0.671,-0.671,168.810,-42.610,147.634
4373,0.6953,0.1411,-0.7285,0.366,0.610,-0.366,168.810,-42.621,147.640
4383,0.6929,0.1421,-0.7280,0.427,0.427,0.061,168.816,-42.632,147.640
4393,0.6904,0.1431,-0.7280,0.671,0.183,0.427,168.827,-42.638,147.640
4403,0.6895,0.1436,-0.7300,0.977,0.122,0.732,168.843,-42.638,147.629
4413,0.6895,0.1396,-0.7310,1.099,0.183,0.732,168.860,-42.643,147.618
4423,0.6890,0.1377,-0.7339,0.671,0.366,0.488,168.876,-42.649,147.612
4433,0.6885,0.1387,-0.7354,-0.061,0.488,0.183,168.882,-42.654,147.612
4443,0.6899,0.1406,-0.7383,-0.916,0.366,0.061,168.876,-42.660,147.612
4453,0.6870,0.1445,-0.7368,-1.221,0.122,0.122,168.865,-42.660,147.612
4463,0.6870,0.1484,-0.7363,-0.854,-0.122,0.305,168.860,-42.654,147.607
4473,0.6851,0.1479,-0.7334,0.061,-0.549,0.732,168.865,-42.649,147.596
4483,0.6836,0.1465,-0.7334,0.977,-0.854,1.038,168.882,-42.643,147.579
4493,0.6831,0.1445,-0.7334,1.404,-1.099,1.343,168.909,-42.632,147.557
4503,0.6836,0.1440,-0.7344,1.404,-1.160,1.465,168.937,-42.621,147.535
4513,0.6826,0.1431,-0.7344,1.099,-1.099,1.282,168.964,-42.610,147.513
4523,0.6821,0.1440,-0.7368,0.732,-0.793,0.916,168.981,-42.599,147.502
4533,0.6846,0.1450,-0.7339,0.366,-0.610,0.610,168.986,-42.594,147.491
4543,0.6865,0.1445,-0.7295,0.122,-0.488,0.366,168.992,-42.594,147.486
4553,0.6880,0.1445,-0.7290,0.000,-0.427,0.305,168.992,-42.589,147.480
4563,0.6895,0.1455,-0.7290,-0.061,-0.549,0.183,168.992,-42.589,147.475
4573,0.6914,0.1440,-0.7310,0.122,-0.610,0.244,168.997,-42.583,147.469
4583,0.6890,0.1406,-0.7300,0.305,-0.671,0.305,169.003,-42.583,147.464
4593,0.6885,0.1406,-0.7314,0.244,-0.732,0.366,169.014,-42.578,147.458
4603,0.6846,0.1396,-0.7310,0.000,-0.793,0.366,169.019,-42.572,147.453
4613,0.6807,0.1411,-0.7329,-0.061,-0.732,0.427,169.025,-42.561,147.442
4623,0.6724,0.1426,-0.7329,0.000,-0.427,0.366,169.025,-42.556,147.437
4633,0.6675,0.1411,-0.7344,0.244,0.183,0.183,169.030,-42.550,147.437
4643,0.6689,0.1489,-0.7378,0.427,1.038,0.122,169.030,-42.550,147.437
4653,0.6689,0.1436,-0.7432,1.221,1.770,0.244,169.041,-42.556,147.437
4663,0.6748,0.1426,-0.7412,1.526,2.197,0.244,169.058,-42.572,147.442
4673,0.6826,0.1431,-0.7456,1.282,1.892,0.000,169.069,-42.583,147.448
4683,0.6934,0.1445,-0.7456,0.671,0.854,-0.183,169.069,-42.589,147.453
4693,0.7007,0.1411,-0.7446,-0.061,-0.366,-0.366,169.069,-42.589,147.453
4703,0.7002,0.1382,-0.7422,-0.977,-1.526,-0.671,169.058,-42.572,147.458
4713,0.6987,0.1401,-0.7339,-1.587,-2.502,-0.854,169.041,-42.550,147.464
4723,0.6914,0.1411,-0.7261,-1.709,-3.113,-0.732,169.025,-42.528,147.464
4733,0.6870,0.1421,-0.7183,-1.160,-2.991,-0.366,169.008,-42.501,147.464
4743,0.6802,0.1436,-0.7158,-0.305,-2.441,0.000,169.008,-42.484,147.458
4753,0.6768,0.1455,-0.7173,0.610,-1.465,0.305,169.014,-42.473,147.448
4763,0.6733,0.1470,-0.7178,1.282,-0.183,0.610,169.025,-42.473,147.442
4773,0.6758,0.1455,-0.7231,1.648,1.099,0.732,169.047,-42.484,147.437
4783,0.6802,0.1484,-0.7256,1.526,2.258,0.732,169.058,-42.512,147.431
4793,0.6860,0.1509,-0.7305,1.221,2.991,0.488,169.058,-42.539,147.431
4803,0.6904,0.1523,-0.7354,0.732,3.052,0.244,169.058,-42.572,147.437
4813,0.6948,0.1548,-0.7397,0.244,2.380,-0.061,169.047,-42.594,147.442
4823,0.6934,0.1538,-0.7407,-0.061,1.404,-0.305,169.030,-42.605,147.453
4833,0.6904,0.1528,-0.7388,-0.183,0.366,-0.549,169.019,-42.610,147.458
4843,0.6865,0.1455,-0.7344,-0.122,-0.488,-0.671,169.008,-42.599,147.464
4853,0.6821,0.1387,-0.7334,-0.061,-0.916,-0.854,169.003,-42.589,147.475
4863,0.6802,0.1343,-0.7344,-0.305,-0.916,-0.977,169.003,-42.578,147.486
4873,0.6812,0.1333,-0.7295,-0.610,-0.610,-0.977,168.992,-42.567,147.497
4883,0.6851,0.1313,-0.7295,-0.854,-0.061,-0.732,168.986,-42.567,147.508
4893,0.6904,0.1289,-0.7310,-0.916,0.488,-0.427,168.981,-42.578,147.513
4903,0.6934,0.1313,-0.7275,-0.793,0.854,0.061,168.981,-42.589,147.513
4913,0.6943,0.1357,-0.7290,-0.549,0.977,0.610,168.986,-42.605,147.508
4923,0.6904,0.1401,-0.7295,0.000,0.793,1.160,168.997,-42.621,147.497
4933,0.6865,0.1431,-0.7310,0.671,0.671,1.465,169.014,-42.627,147.480
4943,0.6826,0.1426,-0.7344,1.099,0.732,1.526,169.036,-42.638,147.458
4953,0.6807,0.1416,-0.7393,1.099,0.793,1.343,169.058,-42.643,147.442
4963,0.6807,0.1440,-0.7402,0.610,1.038,0.916,169.069,-42.649,147.437
4973,0.6816,0.1440,-0.7432,-0.183,1.221,0.427,169.069,-42.654,147.431
4983,0.6841,0.1455,-0.7417,-1.038,1.282,-0.061,169.058,-42.660,147.437
4993,0.6870,0.1479,-0.7432,-1.587,0.977,-0.488,169.030,-42.665,147.448
5003,0.6880,0.1460,-0.7402,-1.648,0.427,-0.610,169.008,-42.665,147.453
5013,0.6865,0.1465,-0.7378,-1.343,-0.305,-0.671,168.986,-42.660,147.464
5023,0.6885,0.1445,-0.7354,-0.854,-1.099,-0.610,168.970,-42.649,147.469
5033,0.6821,0.1436,-0.7334,-0.427,-1.526,-0.549,168.964,-42.627,147.469
5043,0.6807,0.1396,-0.7300,-0.183,-1.465,-0.610,168.964,-42.610,147.475
5053,0.6782,0.1406,-0.7280,-0.122,-0.977,-0.671,168.959,-42.599,147.480
5063,0.6792,0.1392,-0.7271,-0.366,-0.122,-0.732,168.948,-42.594,147.491
5073,0.6792,0.1416,-0.7280,-0.610,0.671,-0.854,168.937,-42.599,147.502
5083,0.6802,0.1479,-0.7295,-0.610,1.282,-0.732,168.915,-42.610,147.519
5093,0.6846,0.1504,-0.7314,-0.183,1.648,-0.549,168.904,-42.621,147.530
5103,0.6885,0.1519,-0.7324,0.488,1.587,-0.366,168.893,-42.638,147.541
5113,0.6909,0.1499,-0.7354,1.038,1.160,-0.244,168.898,-42.649,147.546
5123,0.6914,0.1479,-0.7354,1.221,0.610,-0.305,168.904,-42.654,147.552
5133,0.6904,0.1465,-0.7339,0.977,0.122,-0.488,168.904,-42.654,147.557
5143,0.6890,0.1445,-0.7329,0.488,0.000,-0.732,168.904,-42.654,147.568
5153,0.6846,0.1460,-0.7349,0.000,0.122,-1.038,168.893,-42.649,147.579
5163,0.6846,0.1470,-0.7344,-0.366,0.366,-1.282,168.876,-42.649,147.601
5173,0.6831,0.1455,-0.7368,-0.427,0.671,-1.465,168.854,-42.649,147.623
5183,0.6851,0.1421,-0.7329,-0.366,0.854,-1.465,168.838,-42.654,147.645
5193,0.6865,0.1406,-0.7344,-0.305,0.671,-1.343,168.827,-42.660,147.662
5203,0.6890,0.1392,-0.7354,-0.244,0.305,-1.160,168.816,-42.660,147.678
5213,0.6904,0.1396,-0.7334,-0.122,-0.183,-0.854,168.810,-42.654,147.689
5224,0.6938,0.1382,-0.7329,0.000,-0.549,-0.427,168.816,-42.654,147.695
5233,0.6948,0.1372,-0.7305,0.183,-0.793,-0.122,168.821,-42.649,147.695
5243,0.6929,0.1411,-0.7280,0.244,-0.854,0.061,168.827,-42.643,147.689
5253,0.6904,0.1421,-0.7285,0.122,-0.732,0.305,168.832,-42.643,147.684
5263,0.6831,0.1450,-0.7275,0.061,-0.427,0.427,168.838,-42.638,147.678
5273,0.6831,0.1479,-0.7261,0.122,0.000,0.427,168.838,-42.638,147.673
5283,0.6807,0.1499,-0.7256,0.183,0.366,0.366,168.838,-42.643,147.667
5293,0.6826,0.1514,-0.7241,0.305,0.732,0.183,168.838,-42.649,147.667
5303,0.6855,0.1514,-0.7285,0.305,0.916,0.061,168.832,-42.660,147.667
5313,0.6870,0.1523,-0.7310,0.122,0.916,-0.122,168.827,-42.671,147.673
5323,0.6904,0.1519,-0.7349,-0.122,0.854,-0.244,168.816,-42.676,147.678
5333,0.6899,0.1494,-0.7344,-0.183,0.671,-0.488,168.805,-42.682,147.689
5343,0.6895,0.1455,-0.7363,-0.244,0.366,-0.732,168.794,-42.682,147.695
5353,0.6895,0.1416,-0.7388,-0.549,-0.061,-1.099,168.783,-42.676,147.711
5363,0.6904,0.1392,-0.7349,-1.160,-0.488,-1.221,168.766,-42.671,147.728
5373,0.6885,0.1392,-0.7344,-1.648,-0.854,-1.282,168.745,-42.660,147.744
5383,0.6904,0.1406,-0.7319,-1.770,-0.977,-1.160,168.723,-42.649,147.755
5393,0.6875,0.1421,-0.7314,-1.465,-0.916,-0.854,168.706,-42.638,147.766
5403,0.6846,0.1431,-0.7295,-0.793,-0.671,-0.366,168.695,-42.632,147.766
5413,0.6807,0.1436,-0.7310,0.061,-0.427,0.122,168.701,-42.627,147.766
5423,0.6797,0.1450,-0.7314,0.671,-0.061,0.488,168.712,-42.627,147.755
5433,0.6777,0.1465,-0.7349,0.977,0.183,0.549,168.728,-42.621,147.750
5443,0.6758,0.1514,-0.7339,0.916,0.427,0.488,168.739,-42.621,147.744
5453,0.6792,0.1543,-0.7358,0.793,0.549,0.183,168.739,-42.621,147.744
5463,0.6797,0.1553,-0.7344,0.549,0.610,-0.244,168.734,-42.621,147.750
5473,0.6836,0.1577,-0.7354,0.305,0.488,-0.671,168.723,-42.621,147.761
5483,0.6826,0.1587,-0.7339,0.061,0.244,-1.038,168.706,-42.621,147.772
5493,0.6831,0.1597,-0.7324,-0.061,-0.183,-1.343,168.684,-42.610,147.794
5503,0.6841,0.1582,-0.7300,0.000,-0.427,-1.526,168.662,-42.605,147.810
5513,0.6851,0.1538,-0.7280,0.183,-0.732,-1.587,168.646,-42.594,147.832
5523,0.6855,0.1484,-0.7241,0.427,-0.793,-1.648,168.629,-42.589,147.849
5533,0.6855,0.1431,-0.7251,0.427,-0.793,-1.648,168.624,-42.578,147.870
5543,0.6870,0.1406,-0.7246,0.366,-0.610,-1.465,168.618,-42.572,147.887
5553,0.6880,0.1411,-0.7256,0.305,-0.122,-1.221,168.618,-42.572,147.903
5563,0.6885,0.1387,-0.7266,0.366,0.488,-0.977,168.618,-42.583,147.914
5573,0.6875,0.1372,-0.7295,0.549,1.099,-0.610,168.624,-42.594,147.931
5583,0.6875,0.1353,-0.7324,0.732,1.465,-0.244,168.635,-42.605,147.936
5593,0.6860,0.1372,-0.7354,0.854,1.648,0.122,168.646,-42.621,147.936
5603,0.6865,0.1401,-0.7393,0.854,1.526,0.427,168.662,-42.638,147.936
5613,0.6899,0.1411,-0.7397,0.793,1.160,0.488,168.679,-42.649,147.931
5623,0.6899,0.1416,-0.7407,0.610,0.671,0.488,168.695,-42.654,147.931
5633,0.6914,0.1445,-0.7383,0.244,-0.061,0.488,168.701,-42.654,147.920
5643,0.6924,0.1436,-0.7397,-0.122,-0.732,0.427,168.712,-42.643,147.914
5653,0.6929,0.1445,-0.7363,-0.488,-1.343,0.244,168.712,-42.632,147.909
5663,0.6895,0.1445,-0.7349,-0.793,-1.709,0.122,168.706,-42.616,147.903
5673,0.6841,0.1455,-0.7305,-0.916,-1.892,0.061,168.706,-42.599,147.898
5683,0.6836,0.1460,-0.7290,-0.916,-1.831,-0.061,168.695,-42.583,147.892
5693,0.6802,0.1470,-0.7256,-0.916,-1.465,-0.122,168.690,-42.567,147.887
5703,0.6787,0.1489,-0.7275,-0.793,-0.977,-0.122,168.679,-42.556,147.887
5713,0.6797,0.1499,-0.7251,-0.488,-0.366,0.061,168.673,-42.550,147.887
5724,0.6812,0.1519,-0.7266,-0.122,0.183,0.122,168.668,-42.556,147.887
5733,0.6831,0.1538,-0.7275,0.183,0.732,0.183,168.662,-42.561,147.887
5743,0.6865,0.1528,-0.7334,0.305,0.977,0.061,168.657,-42.572,147.887
5753,0.6895,0.1528,-0.7344,0.061,1.038,-0.122,168.651,-42.583,147.892
5763,0.6890,0.1558,-0.7373,-0.244,0.854,-0.366,168.640,-42.589,147.898
5773,0.6860,0.1538,-0.7368,-0.427,0.549,-0.610,168.624,-42.589,147.909
5783,0.6821,0.1533,-0.7358,-0.427,0.183,-0.916,168.607,-42.583,147.920
5793,0.6797,0.1509,-0.7354,-0.244,-0.183,-1.221,168.591,-42.578,147.936
5803,0.6777,0.1489,-0.7358,-0.061,-0.366,-1.343,168.580,-42.567,147.953
5813,0.6792,0.1470,-0.7324,0.122,-0.366,-1.221,168.574,-42.556,147.969
5823,0.6807,0.1455,-0.7314,0.305,-0.183,-1.038,168.569,-42.550,147.980
5833,0.6846,0.1436,-0.7319,0.488,0.061,-0.793,168.569,-42.550,147.991
5843,0.6860,0.1406,-0.7300,0.488,0.244,-0.610,168.574,-42.556,148.002
5853,0.6890,0.1421,-0.7280,0.366,0.183,-0.366,168.580,-42.561,148.008
5863,0.6924,0.1436,-0.7300,0.061,-0.061,-0.183,168.580,-42.561,148.008
5873,0.6963,0.1421,-0.7295,-0.061,-0.305,0.061,168.585,-42.567,148.008
5883,0.6899,0.1455,-0.7275,-0.122,-0.488,0.244,168.585,-42.567,148.002
5893,0.6909,0.1445,-0.7300,-0.061,-0.488,0.305,168.591,-42.561,147.997
5903,0.6865,0.1475,-0.7295,-0.061,-0.183,0.488,168.596,-42.561,147.991
5913,0.6821,0.1504,-0.7314,0.000,0.366,0.671,168.596,-42.567,147.980
5923,0.6797,0.1543,-0.7319,0.122,0.671,0.854,168.602,-42.572,147.975
5933,0.6802,0.1538,-0.7310,0.183,0.671,0.793,168.602,-42.578,147.964
5944,0.6821,0.1528,-0.7305,0.061,0.183,0.427,168.602,-42.578,147.958
5953,0.6846,0.1548,-0.7314,-0.122,-0.366,0.000,168.596,-42.578,147.958
5963,0.6836,0.1523,-0.7354,0.000,-0.488,-0.183,168.596,-42.567,147.958
5973,0.6855,0.1470,-0.7354,0.366,0.000,-0.183,168.596,-42.567,147.958
5984,0.6846,0.1440,-0.7368,0.549,0.671,-0.183,168.602,-42.572,147.964
5994,0.6875,0.1406,-0.7402,0.366,1.038,-0.061,168.613,-42.578,147.969
6004,0.6851,0.1411,-0.7402,-0.061,0.854,0.122,168.618,-42.583,147.969
6014,0.6880,0.1421,-0.7422,-0.305,0.305,0.427,168.624,-42.583,147.964
6024,0.6890,0.1460,-0.7354,0.244,-1.099,0.854,168.635,-42.578,147.953
6034,0.6885,0.1465,-0.7349,0.671,-1.709,0.916,168.651,-42.561,147.931
6044,0.6860,0.1450,-0.7334,0.916,-2.014,0.854,168.673,-42.545,147.914
6054,0.6812,0.1475,-0.7334,0.977,-1.709,0.793,168.695,-42.528,147.903
6064,0.6797,0.1484,-0.7319,0.854,-0.977,0.732,168.712,-42.517,147.887
6074,0.6797,0.1484,-0.7319,0.732,-0.305,0.610,168.723,-42.512,147.881
6084,0.6792,0.1514,-0.7310,0.671,0.000,0.488,168.728,-42.512,147.876
6094,0.6821,0.1528,-0.7290,0.671,-0.183,0.488,168.734,-42.512,147.865
6104,0.6860,0.1543,-0.7275,0.854,-0.549,0.610,168.739,-42.506,147.859
6114,0.6855,0.1538,-0.7266,1.160,-0.977,0.671,168.755,-42.501,147.849
6124,0.6855,0.1509,-0.7290,1.526,-1.038,0.732,168.772,-42.495,147.832
6134,0.6846,0.1489,-0.7275,1.709,-0.916,0.732,168.794,-42.490,147.821
6144,0.6821,0.1470,-0.7300,1.526,-0.610,0.671,168.816,-42.484,147.810
6154,0.6821,0.1445,-0.7300,1.038,-0.122,0.549,168.832,-42.484,147.805
6164,0.6826,0.1436,-0.7300,0.427,0.305,0.366,168.838,-42.490,147.799
6174,0.6826,0.1489,-0.7271,-0.061,0.549,0.305,168.832,-42.495,147.799
6184,0.6851,0.1523,-0.7246,-0.183,0.549,0.244,168.827,-42.506,147.794
6194,0.6821,0.1543,-0.7275,0.305,0.427,0.305,168.821,-42.512,147.794
6204,0.6821,0.1543,-0.7295,1.160,0.366,0.366,168.832,-42.512,147.788
6214,0.6787,0.1514,-0.7310,1.892,0.549,0.305,168.843,-42.517,147.783
6224,0.6792,0.1455,-0.7319,2.197,0.916,0.183,168.865,-42.523,147.783
6234,0.6816,0.1416,-0.7358,1.831,1.465,0.061,168.882,-42.539,147.788
6244,0.6885,0.1401,-0.7402,1.099,1.770,-0.061,168.893,-42.550,147.794
6254,0.6958,0.1392,-0.7422,0.244,1.709,-0.244,168.898,-42.572,147.799
6264,0.6987,0.1387,-0.7378,-0.305,1.160,-0.244,168.893,-42.583,147.810
6274,0.6973,0.1396,-0.7354,-0.427,0.305,-0.122,168.893,-42.594,147.810
6284,0.6904,0.1401,-0.7329,0.061,-0.671,0.244,168.898,-42.589,147.805
6294,0.6787,0.1416,-0.7319,0.854,-1.221,0.488,168.915,-42.572,147.794
6304,0.6689,0.1362,-0.7305,1.526,-1.221,0.610,168.942,-42.556,147.783
6314,0.6650,0.1333,-0.7305,1.648,-0.488,0.610,168.975,-42.545,147.777
6324,0.6704,0.1323,-0.7339,1.221,0.671,0.549,168.997,-42.550,147.772
6334,0.6777,0.1343,-0.7368,0.488,1.892,0.549,169.008,-42.567,147.766
6344,0.6885,0.1392,-0.7393,-0.183,2.686,0.610,169.014,-42.589,147.766
6354,0.6982,0.1416,-0.7407,-0.549,2.625,0.732,169.008,-42.621,147.761
6364,0.7051,0.1440,-0.7407,-0.610,1.709,0.977,169.008,-42.643,147.755
6374,0.7075,0.1426,-0.7407,-0.488,0.183,1.160,169.014,-42.649,147.739
6384,0.7051,0.1421,-0.7368,-0.488,-1.465,1.282,169.025,-42.643,147.717
6394,0.6968,0.1382,-0.7324,-0.549,-2.747,1.282,169.041,-42.627,147.695
6404,0.6904,0.1372,-0.7275,-0.732,-3.174,1.160,169.052,-42.599,147.673
6414,0.6807,0.1367,-0.7241,-1.038,-2.625,1.038,169.058,-42.578,147.651
6424,0.6743,0.1382,-0.7227,-1.343,-1.404,0.854,169.058,-42.567,147.634
6434,0.6719,0.1382,-0.7261,-1.465,0.183,0.854,169.052,-42.567,147.623
6444,0.6738,0.1396,-0.7271,-1.404,1.709,0.916,169.041,-42.583,147.618
6454,0.6787,0.1445,-0.7329,-1.160,2.625,1.221,169.036,-42.605,147.607
6464,0.6836,0.1470,-0.7378,-0.610,2.808,1.587,169.036,-42.632,147.590
6474,0.6904,0.1494,-0.7412,-0.061,2.258,1.892,169.041,-42.660,147.574
6484,0.6973,0.1475,-0.7437,0.366,1.282,1.953,169.058,-42.671,147.552
6494,0.6948,0.1479,-0.7441,0.305,0.244,1.709,169.074,-42.676,147.530
6504,0.6895,0.1470,-0.7441,-0.183,-0.671,1.221,169.080,-42.671,147.508
6514,0.6860,0.1460,-0.7422,-0.854,-1.282,0.488,169.080,-42.654,147.502
6524,0.6841,0.1421,-0.7373,-1.648,-1.587,-0.305,169.063,-42.632,147.502
6534,0.6807,0.1436,-0.7329,-2.380,-1.587,-0.977,169.030,-42.616,147.508
6544,0.6772,0.1445,-0.7329,-2.869,-1.343,-1.282,168.992,-42.594,147.524
6554,0.6768,0.1455,-0.7271,-2.747,-0.916,-1.221,168.953,-42.583,147.535
6564,0.6777,0.1479,-0.7261,-1.953,-0.427,-0.854,168.920,-42.572,147.546
6574,0.6787,0.1489,-0.7271,-0.732,0.183,-0.366,168.904,-42.572,147.552
6584,0.6826,0.1509,-0.7271,0.427,0.610,0.061,168.904,-42.578,147.552
6594,0.6855,0.1504,-0.7305,1.160,0.916,0.366,168.909,-42.589,147.552
6604,0.6880,0.1484,-0.7334,1.221,1.160,0.305,168.920,-42.599,147.552
6614,0.6880,0.1479,-0.7363,0.671,1.221,0.000,168.920,-42.610,147.552
6624,0.6895,0.1475,-0.7378,-0.183,1.099,-0.488,168.909,-42.621,147.563
6634,0.6914,0.1445,-0.7363,-0.916,0.916,-1.099,168.887,-42.627,147.579
6644,0.6909,0.1455,-0.7373,-1.465,0.488,-1.465,168.860,-42.632,147.601
6654,0.6880,0.1450,-0.7373,-1.648,0.000,-1.587,168.832,-42.627,147.623
6664,0.6855,0.1460,-0.7329,-1.465,-0.366,-1.404,168.805,-42.621,147.640
6674,0.6831,0.1455,-0.7314,-0.854,-0.671,-0.977,168.788,-42.610,147.651
6684,0.6855,0.1411,-0.7280,-0.122,-0.732,-0.549,168.783,-42.605,147.656
6694,0.6851,0.1401,-0.7300,0.488,-0.671,-0.183,168.794,-42.594,147.656
6704,0.6860,0.1392,-0.7310,0.610,-0.427,0.000,168.805,-42.594,147.656
6714,0.6890,0.1392,-0.7285,0.366,-0.183,0.061,168.810,-42.594,147.656
6725,0.6875,0.1387,-0.7324,-0.061,0.122,0.122,168.816,-42.599,147.651
6734,0.6890,0.1411,-0.7310,-0.427,0.366,0.122,168.816,-42.605,147.651
6744,0.6860,0.1431,-0.7334,-0.549,0.488,0.122,168.810,-42.605,147.651
6754,0.6860,0.1475,-0.7358,-0.305,0.427,0.305,168.810,-42.610,147.651
6764,0.6826,0.1460,-0.7354,0.061,0.244,0.488,168.810,-42.610,147.640
6774,0.6831,0.1475,-0.7339,0.427,0.061,0.610,168.821,-42.610,147.634
6784,0.6841,0.1484,-0.7310,0.549,-0.122,0.610,168.827,-42.610,147.629
6794,0.6851,0.1479,-0.7319,0.488,-0.244,0.488,168.838,-42.610,147.618
6804,0.6851,0.1475,-0.7319,0.244,-0.305,0.244,168.838,-42.605,147.612
6814,0.6855,0.1499,-0.7319,-0.122,-0.244,0.000,168.832,-42.599,147.612
6824,0.6836,0.1523,-0.7310,-0.244,-0.122,-0.244,168.821,-42.599,147.618
6834,0.6836,0.1504,-0.7295,-0.183,-0.061,-0.366,168.816,-42.599,147.623
6844,0.6836,0.1504,-0.7290,0.061,0.061,-0.488,168.805,-42.594,147.629
6854,0.6855,0.1460,-0.7285,0.122,0.061,-0.488,168.799,-42.599,147.634
6864,0.6841,0.1445,-0.7319,0.122,0.122,-0.427,168.799,-42.599,147.640
6874,0.6860,0.1450,-0.7300,0.244,0.183,-0.366,168.794,-42.599,147.645
6884,0.6865,0.1411,-0.7324,0.366,0.366,-0.244,168.799,-42.605,147.651
6894,0.6895,0.1396,-0.7339,0.366,0.488,-0.244,168.805,-42.610,147.656
6904,0.6899,0.1392,-0.7339,0.183,0.488,-0.122,168.810,-42.616,147.656
6914,0.6875,0.1421,-0.7339,0.000,0.427,0.000,168.810,-42.616,147.662
6924,0.6851,0.1440,-0.7324,-0.122,0.305,0.183,168.810,-42.621,147.656
6934,0.6851,0.1450,-0.7324,0.061,0.183,0.366,168.816,-42.621,147.651
6944,0.6860,0.1450,-0.7344,0.366,0.183,0.427,168.821,-42.621,147.651
6954,0.6875,0.1470,-0.7344,0.549,0.122,0.427,168.827,-42.627,147.645
6964,0.6870,0.1440,-0.7358,0.427,0.061,0.244,168.838,-42.627,147.640
6974,0.6890,0.1445,-0.7378,0.061,0.000,0.061,168.838,-42.621,147.640
6984,0.6875,0.1460,-0.7358,-0.427,-0.061,-0.122,168.832,-42.621,147.640
6994,0.6880,0.1484,-0.7354,-0.610,-0.244,-0.244,168.821,-42.616,147.645
7004,0.6870,0.1484,-0.7314,-0.549,-0.427,-0.244,168.810,-42.616,147.645
7014,0.6855,0.1465,-0.7314,-0.183,-0.610,-0.122,168.810,-42.610,147.645
7024,0.6841,0.1455,-0.7314,0.183,-0.671,0.000,168.810,-42.599,147.645
7034,0.6836,0.1460,-0.7314,0.488,-0.610,0.122,168.816,-42.594,147.640
7044,0.6836,0.1445,-0.7310,0.549,-0.427,0.183,168.827,-42.589,147.634
7054,0.6865,0.1416,-0.7310,0.488,-0.061,0.122,168.832,-42.589,147.634
7064,0.6860,0.1426,-0.7319,0.305,0.305,0.000,168.838,-42.594,147.634
7074,0.6865,0.1460,-0.7310,0.061,0.610,0.000,168.838,-42.599,147.640
7084,0.6865,0.1460,-0.7329,0.000,0.793,0.000,168.832,-42.605,147.640
7094,0.6880,0.1460,-0.7334,0.122,0.671,0.122,168.832,-42.616,147.640
7104,0.6860,0.1479,-0.7344,0.427,0.488,0.244,168.838,-42.616,147.640
7114,0.6865,0.1479,-0.7344,0.671,0.183,0.366,168.843,-42.621,147.634
7124,0.6870,0.1455,-0.7344,0.916,-0.122,0.366,168.854,-42.616,147.629
7134,0.6875,0.1431,-0.7344,0.916,-0.244,0.305,168.871,-42.616,147.623
7144,0.6860,0.1445,-0.7344,0.732,-0.183,0.122,168.876,-42.616,147.623
7154,0.6841,0.1445,-0.7305,0.366,-0.183,0.000,168.882,-42.610,147.618
7164,0.6851,0.1431,-0.7300,0.061,-0.122,-0.183,168.882,-42.610,147.623
7174,0.6836,0.1479,-0.7310,-0.122,-0.061,-0.244,168.876,-42.610,147.623
7184,0.6846,0.1475,-0.7295,-0.061,0.061,-0.244,168.871,-42.610,147.629
7194,0.6836,0.1460,-0.7324,0.244,0.183,-0.183,168.865,-42.610,147.634
7204,0.6826,0.1421,-0.7314,0.549,0.366,-0.122,168.871,-42.610,147.634
7214,0.6826,0.1421,-0.7324,0.732,0.427,-0.122,168.882,-42.616,147.640
7225,0.6831,0.1436,-0.7368,0.671,0.549,-0.122,168.887,-42.616,147.640
7234,0.6851,0.1445,-0.7349,0.549,0.610,-0.061,168.887,-42.621,147.645
7244,0.6870,0.1436,-0.7363,0.549,0.549,-0.061,168.893,-42.627,147.645
7254,0.6875,0.1431,-0.7368,0.610,0.488,0.000,168.898,-42.627,147.645
7264,0.6890,0.1431,-0.7363,0.549,0.244,0.000,168.904,-42.632,147.645
7274,0.6919,0.1411,-0.7363,0.366,-0.122,-0.061,168.909,-42.627,147.645
7284,0.6919,0.1401,-0.7344,0.061,-0.549,-0.122,168.915,-42.627,147.645
7294,0.6895,0.1421,-0.7305,-0.183,-0.793,-0.122,168.915,-42.621,147.645
7304,0.6875,0.1416,-0.7305,-0.244,-0.793,-0.061,168.915,-42.610,147.645
7314,0.6851,0.1421,-0.7285,-0.122,-0.610,0.000,168.915,-42.610,147.645
7324,0.6826,0.1440,-0.7295,0.122,-0.305,0.183,168.915,-42.605,147.640
7334,0.6807,0.1450,-0.7285,0.366,-0.061,0.366,168.920,-42.605,147.634
7344,0.6802,0.1450,-0.7324,0.549,0.366,0.488,168.931,-42.605,147.629
7354,0.6797,0.1460,-0.7334,0.732,0.732,0.610,168.937,-42.610,147.623
7364,0.6816,0.1460,-0.7319,0.793,1.038,0.610,168.948,-42.621,147.618
7374,0.6831,0.1475,-0.7349,0.732,1.160,0.488,168.953,-42.632,147.618
7384,0.6846,0.1489,-0.7349,0.671,1.038,0.305,168.959,-42.638,147.612
7394,0.6855,0.1504,-0.7334,0.610,0.732,0.122,168.959,-42.643,147.612
7404,0.6855,0.1484,-0.7358,0.610,0.427,-0.183,168.959,-42.643,147.618
7414,0.6870,0.1455,-0.7354,0.549,0.244,-0.427,168.959,-42.643,147.623
7424,0.6880,0.1431,-0.7344,0.427,0.061,-0.671,168.959,-42.643,147.634
7434,0.6899,0.1401,-0.7354,0.061,-0.122,-0.916,168.953,-42.643,147.645
7444,0.6924,0.1396,-0.7319,-0.305,-0.244,-0.916,168.942,-42.643,147.656
7454,0.6899,0.1382,-0.7290,-0.549,-0.366,-0.732,168.937,-42.638,147.667
7464,0.6919,0.1377,-0.7275,-0.427,-0.427,-0.427,168.931,-42.638,147.673
7474,0.6919,0.1387,-0.7275,-0.061,-0.366,-0.061,168.931,-42.638,147.673
7484,0.6899,0.1367,-0.7280,0.244,-0.366,0.122,168.942,-42.638,147.667
7494,0.6904,0.1377,-0.7295,0.366,-0.183,0.305,168.953,-42.638,147.662
7504,0.6875,0.1396,-0.7285,0.183,0.122,0.427,168.959,-42.643,147.656
7514,0.6841,0.1440,-0.7285,-0.061,0.488,0.366,168.959,-42.649,147.656
7524,0.6826,0.1450,-0.7319,-0.244,0.854,0.305,168.959,-42.654,147.651
7534,0.6812,0.1470,-0.7354,-0.183,1.038,0.244,168.953,-42.665,147.651
7544,0.6826,0.1484,-0.7388,-0.122,1.099,0.061,168.948,-42.671,147.656
7554,0.6831,0.1479,-0.7383,-0.122,0.916,-0.183,168.942,-42.671,147.656
7564,0.6841,0.1465,-0.7368,-0.305,0.549,-0.427,168.931,-42.676,147.667
7574,0.6851,0.1489,-0.7368,-0.671,0.122,-0.671,168.915,-42.671,147.673
7584,0.6860,0.1475,-0.7339,-0.854,-0.305,-0.916,168.893,-42.665,147.684
7594,0.6875,0.1484,-0.7310,-0.854,-0.610,-0.977,168.876,-42.660,147.700
7604,0.6851,0.1465,-0.7329,-0.671,-0.793,-0.916,168.860,-42.649,147.706
7614,0.6880,0.1436,-0.7310,-0.305,-0.732,-0.854,168.849,-42.638,147.717
7624,0.6841,0.1426,-0.7285,0.061,-0.305,-0.732,168.843,-42.632,147.728
7634,0.6851,0.1377,-0.7310,0.122,0.122,-0.671,168.843,-42.632,147.733
7644,0.6870,0.1372,-0.7314,0.000,0.488,-0.610,168.843,-42.638,147.744
7654,0.6890,0.1372,-0.7329,-0.183,0.732,-0.610,168.843,-42.649,147.755
7664,0.6919,0.1372,-0.7324,-0.366,0.732,-0.549,168.838,-42.654,147.755
7674,0.6895,0.1406,-0.7344,-0.366,0.610,-0.305,168.832,-42.660,147.755
7684,0.6865,0.1431,-0.7314,-0.183,0.427,0.000,168.832,-42.665,147.755
7694,0.6841,0.1460,-0.7319,0.183,0.122,0.305,168.832,-42.665,147.755
7704,0.6831,0.1489,-0.7354,0.488,-0.122,0.549,168.843,-42.660,147.755
7714,0.6826,0.1499,-0.7344,0.671,-0.244,0.549,168.849,-42.654,147.755
7725,0.6826,0.1523,-0.7329,0.671,-0.305,0.366,168.854,-42.649,147.755
7734,0.6841,0.1538,-0.7310,0.305,-0.366,0.244,168.854,-42.649,147.755
7744,0.6855,0.1519,-0.7310,-0.122,-0.244,-0.183,168.843,-42.643,147.755
7754,0.6860,0.1519,-0.7285,-0.549,-0.183,-0.549,168.827,-42.643,147.755
7764,0.6860,0.1514,-0.7295,-0.854,0.000,-0.916,168.805,-42.638,147.755
7775,0.6841,0.1519,-0.7290,-0.793,0.122,-1.038,168.783,-42.638,147.772
7785,0.6802,0.1523,-0.7271,-0.305,0.305,-0.916,168.766,-42.638,147.783
7795,0.6787,0.1479,-0.7310,0.366,0.549,-0.793,168.761,-42.638,147.794
7805,0.6768,0.1484,-0.7300,0.854,0.854,-0.732,168.755,-42.643,147.805
7815,0.6777,0.1504,-0.7290,1.099,1.099,-0.610,168.755,-42.649,147.816
7825,0.6812,0.1504,-0.7334,1.343,1.160,-0.366,168.761,-42.654,147.827
7835,0.6851,0.1499,-0.7354,1.709,1.221,-0.244,168.772,-42.665,147.832
7845,0.6919,0.1455,-0.7358,1.953,1.282,-0.427,168.783,-42.676,147.843
7855,0.6948,0.1426,-0.7349,1.892,1.099,-0.610,168.799,-42.687,147.854
7865,0.6958,0.1392,-0.7373,1.343,0.671,-0.854,168.805,-42.693,147.865
7875,0.6943,0.1382,-0.7319,0.427,0.061,-0.977,168.805,-42.698,147.876
7885,0.6924,0.1411,-0.7310,-0.366,-0.427,-1.038,168.799,-42.693,147.892
7895,0.6909,0.1411,-0.7300,-0.549,-0.610,-1.038,168.788,-42.687,147.903
7905,0.6904,0.1411,-0.7271,-0.366,-0.488,-0.793,168.777,-42.682,147.914
7915,0.6899,0.1396,-0.7246,0.061,-0.244,-0.427,168.777,-42.682,147.920
7925,0.6909,0.1357,-0.7285,0.244,0.122,-0.122,168.788,-42.687,147.920
7935,0.6914,0.1372,-0.7285,0.122,0.488,0.183,168.794,-42.698,147.920
7945,0.6924,0.1357,-0.7314,-0.122,0.671,0.427,168.805,-42.704,147.914
7955,0.6958,0.1377,-0.7290,-0.366,0.671,0.610,168.810,-42.720,147.909
7965,0.6934,0.1421,-0.7300,-0.610,0.488,0.732,168.810,-42.726,147.898
7975,0.6909,0.1465,-0.7300,-0.671,0.122,0.916,168.810,-42.731,147.887
7985,0.6865,0.1494,-0.7280,-0.610,-0.122,1.099,168.810,-42.731,147.870
7995,0.6841,0.1504,-0.7310,-0.366,-0.244,1.099,168.810,-42.731,147.859
8005,0.6841,0.1519,-0.7319,-0.122,-0.183,0.977,168.816,-42.726,147.843
8015,0.6826,0.1499,-0.7334,0.000,-0.061,0.854,168.816,-42.726,147.832
8025,0.6826,0.1484,-0.7329,-0.183,0.061,0.549,168.821,-42.726,147.827
8035,0.6836,0.1499,-0.7363,-0.366,0.244,0.244,168.816,-42.720,147.821
8045,0.6831,0.1509,-0.7349,-0.549,0.366,-0.122,168.805,-42.720,147.827
8055,0.6841,0.1494,-0.7329,-0.610,0.427,-0.366,168.788,-42.720,147.832
8065,0.6860,0.1494,-0.7344,-0.488,0.366,-0.549,168.777,-42.720,147.838
8075,0.6860,0.1484,-0.7324,-0.366,0.122,-0.610,168.766,-42.720,147.849
8085,0.6865,0.1475,-0.7310,-0.244,-0.122,-0.671,168.755,-42.720,147.854
8095,0.6865,0.1475,-0.7324,-0.122,-0.244,-0.610,168.745,-42.715,147.865
8105,0.6841,0.1460,-0.7314,0.061,-0.183,-0.549,168.745,-42.709,147.870
8115,0.6870,0.1445,-0.7305,0.183,-0.122,-0.610,168.739,-42.709,147.876
8125,0.6860,0.1436,-0.7300,0.183,0.000,-0.610,168.739,-42.704,147.887
8135,0.6880,0.1426,-0.7280,0.122,0.122,-0.610,168.734,-42.709,147.898
8145,0.6890,0.1411,-0.7300,0.000,0.183,-0.549,168.734,-42.709,147.903
8155,0.6885,0.1421,-0.7305,0.000,0.244,-0.366,168.734,-42.709,147.909
8165,0.6885,0.1421,-0.7310,-0.061,0.244,-0.305,168.728,-42.715,147.914
8175,0.6899,0.1445,-0.7300,-0.183,0.122,-0.244,168.728,-42.715,147.914
8185,0.6904,0.1436,-0.7319,-0.183,0.061,-0.122,168.723,-42.715,147.920
8195,0.6890,0.1475,-0.7310,-0.183,-0.183,0.000,168.723,-42.715,147.920
8205,0.6890,0.1504,-0.7324,-0.122,-0.366,0.061,168.717,-42.709,147.914
8215,0.6885,0.1499,-0.7319,-0.061,-0.488,0.122,168.717,-42.704,147.914
8225,0.6895,0.1499,-0.7319,-0.061,-0.610,0.183,168.717,-42.698,147.909
8235,0.6890,0.1479,-0.7300,-0.122,-0.610,0.061,168.717,-42.698,147.909
8245,0.6860,0.1470,-0.7290,-0.183,-0.610,-0.061,168.712,-42.687,147.909
8255,0.6885,0.1475,-0.7295,-0.305,-0.488,-0.122,168.706,-42.687,147.909
8265,0.6860,0.1494,-0.7285,-0.305,-0.366,-0.244,168.701,-42.682,147.909
8275,0.6846,0.1470,-0.7329,-0.122,-0.122,-0.244,168.695,-42.676,147.914
8285,0.6831,0.1479,-0.7275,0.122,0.000,-0.244,168.695,-42.676,147.914
8295,0.6851,0.1470,-0.7319,0.305,0.183,-0.122,168.695,-42.676,147.914
8305,0.6831,0.1460,-0.7344,0.488,0.244,-0.122,168.701,-42.676,147.920
8315,0.6831,0.1460,-0.7344,0.427,0.305,-0.183,168.701,-42.676,147.920
8325,0.6860,0.1450,-0.7339,0.244,0.183,-0.122,168.706,-42.676,147.925
8335,0.6875,0.1460,-0.7349,0.122,0.061,-0.061,168.706,-42.676,147.925
8345,0.6865,0.1465,-0.7349,0.000,-0.183,-0.122,168.706,-42.671,147.925
8355,0.6899,0.1479,-0.7334,-0.061,-0.549,-0.122,168.701,-42.665,147.925
8365,0.6895,0.1489,-0.7290,-0.122,-0.793,-0.122,168.701,-42.660,147.925
8375,0.6895,0.1470,-0.7295,-0.183,-0.977,-0.122,168.695,-42.654,147.925
8385,0.6895,0.1470,-0.7295,-0.183,-0.916,-0.122,168.695,-42.643,147.925
8395,0.6855,0.1484,-0.7261,-0.122,-0.732,-0.122,168.690,-42.638,147.925
8405,0.6831,0.1489,-0.7261,-0.122,-0.427,-0.061,168.690,-42.632,147.925
8415,0.6831,0.1499,-0.7266,-0.061,-0.061,0.000,168.684,-42.632,147.925
8425,0.6836,0.1484,-0.7285,0.122,0.305,0.000,168.684,-42.638,147.925
8435,0.6855,0.1509,-0.7305,0.244,0.488,0.000,168.679,-42.643,147.925
8445,0.6846,0.1489,-0.7310,0.305,0.671,-0.061,168.679,-42.649,147.931
8455,0.6846,0.1489,-0.7305,0.305,0.671,-0.122,168.679,-42.654,147.931
8465,0.6870,0.1470,-0.7339,0.122,0.488,-0.244,168.679,-42.654,147.936
8475,0.6880,0.1460,-0.7368,-0.244,0.244,-0.366,168.673,-42.654,147.942
8485,0.6875,0.1475,-0.7354,-0.427,0.000,-0.427,168.662,-42.654,147.947
8495,0.6880,0.1460,-0.7344,-0.610,-0.244,-0.427,168.657,-42.649,147.953
8505,0.6855,0.1450,-0.7329,-0.549,-0.488,-0.305,168.651,-42.643,147.958
8515,0.6870,0.1431,-0.7314,-0.366,-0.610,-0.061,168.651,-42.638,147.953
8525,0.6880,0.1431,-0.7305,-0.122,-0.671,0.061,168.651,-42.632,147.953
8535,0.6875,0.1436,-0.7290,-0.061,-0.610,0.061,168.657,-42.627,147.947
8545,0.6851,0.1465,-0.7295,-0.122,-0.488,0.061,168.657,-42.621,147.947
8555,0.6826,0.1460,-0.7295,-0.183,-0.305,0.000,168.651,-42.621,147.947
8565,0.6826,0.1479,-0.7300,-0.183,-0.061,0.000,168.651,-42.621,147.947
8575,0.6831,0.1499,-0.7285,-0.122,0.122,0.061,168.646,-42.621,147.947
8585,0.6841,0.1509,-0.7300,0.000,0.305,0.122,168.646,-42.621,147.947
8595,0.6841,0.1538,-0.7310,0.183,0.366,0.183,168.640,-42.627,147.942
8605,0.6851,0.1528,-0.7300,0.244,0.366,0.183,168.640,-42.627,147.942
8615,0.6855,0.1528,-0.7314,0.244,0.244,0.122,168.640,-42.632,147.942
8625,0.6890,0.1509,-0.7285,0.183,0.000,0.000,168.640,-42.632,147.942
8635,0.6880,0.1519,-0.7310,0.061,-0.122,-0.183,168.635,-42.632,147.942
8645,0.6890,0.1489,-0.7319,-0.122,-0.183,-0.427,168.629,-42.627,147.947
8655,0.6855,0.1484,-0.7319,-0.244,-0.183,-0.549,168.618,-42.627,147.958
8665,0.6841,0.1470,-0.7305,-0.305,-0.061,-0.549,168.613,-42.621,147.964
8675,0.6831,0.1475,-0.7285,-0.244,0.122,-0.549,168.602,-42.621,147.969
8685,0.6826,0.1484,-0.7295,0.061,0.366,-0.366,168.596,-42.627,147.975
8695,0.6812,0.1484,-0.7319,0.427,0.610,-0.244,168.602,-42.627,147.980
8705,0.6812,0.1450,-0.7334,0.732,0.854,-0.061,168.607,-42.632,147.986
8715,0.6860,0.1440,-0.7358,0.793,0.854,0.061,168.618,-42.638,147.986
8726,0.6909,0.1465,-0.7324,0.549,0.732,0.000,168.624,-42.649,147.986
8735,0.6924,0.1470,-0.7329,0.244,0.366,0.000,168.624,-42.654,147.991
8745,0.6934,0.1455,-0.7354,0.122,0.122,0.061,168.629,-42.654,147.986
8755,0.6880,0.1475,-0.7295,-0.122,-0.183,-0.122,168.624,-42.654,147.991
8765,0.6938,0.1396,-0.7290,-0.305,-0.549,-0.183,168.624,-42.654,147.991
8775,0.6953,0.1426,-0.7266,-0.793,-1.038,-0.061,168.624,-42.649,147.986
8785,0.6875,0.1460,-0.7266,-0.732,-0.977,0.061,168.618,-42.643,147.986
8795,0.6880,0.1455,-0.7246,-0.732,-0.916,0.305,168.613,-42.638,147.980
8805,0.6875,0.1499,-0.7227,-0.427,-0.488,0.549,168.613,-42.638,147.969
8815,0.6836,0.1538,-0.7227,0.122,0.183,0.793,168.613,-42.643,147.958
8825,0.6846,0.1572,-0.7236,0.427,0.793,0.916,168.618,-42.654,147.947
8835,0.6855,0.1567,-0.7275,0.366,1.221,0.793,168.618,-42.665,147.942
8845,0.6875,0.1558,-0.7300,0.061,1.282,0.427,168.613,-42.676,147.942
8855,0.6885,0.1553,-0.7314,-0.305,1.099,0.061,168.602,-42.687,147.942
8865,0.6895,0.1567,-0.7329,-0.610,0.793,-0.366,168.585,-42.693,147.947
8875,0.6880,0.1558,-0.7339,-0.610,0.549,-0.671,168.569,-42.698,147.958
8885,0.6841,0.1538,-0.7339,-0.427,0.427,-0.793,168.552,-42.698,147.969
8895,0.6821,0.1504,-0.7295,-0.122,0.366,-0.732,168.541,-42.698,147.980
8905,0.6821,0.1479,-0.7290,0.183,0.427,-0.671,168.536,-42.698,147.991
8915,0.6826,0.1455,-0.7300,0.305,0.366,-0.549,168.536,-42.698,148.002
8925,0.6851,0.1431,-0.7319,0.366,0.427,-0.366,168.536,-42.704,148.008
8935,0.6870,0.1436,-0.7314,0.488,0.488,-0.244,168.541,-42.704,148.013
8945,0.6880,0.1436,-0.7310,0.671,0.671,0.000,168.552,-42.715,148.013
8955,0.6895,0.1431,-0.7349,0.977,0.732,0.183,168.563,-42.720,148.013
8965,0.6895,0.1455,-0.7329,1.160,0.732,0.244,168.580,-42.726,148.013
8975,0.6895,0.1470,-0.7354,1.343,0.671,0.305,168.596,-42.731,148.008
8985,0.6895,0.1465,-0.7339,1.343,0.427,0.305,168.613,-42.737,148.008
8995,0.6904,0.1489,-0.7339,1.160,0.122,0.244,168.624,-42.737,148.008
9005,0.6929,0.1479,-0.7324,0.916,-0.244,0.061,168.635,-42.737,148.008
9015,0.6919,0.1484,-0.7295,0.488,-0.610,-0.183,168.640,-42.731,148.008
9025,0.6934,0.1479,-0.7251,0.183,-0.793,-0.305,168.635,-42.726,148.008
9035,0.6943,0.1484,-0.7271,-0.061,-0.854,-0.366,168.635,-42.720,148.008
9045,0.6909,0.1489,-0.7241,0.122,-0.793,-0.183,168.629,-42.720,148.008
9055,0.6895,0.1470,-0.7236,0.488,-0.549,0.061,168.635,-42.715,148.008
9065,0.6880,0.1450,-0.7227,0.854,-0.244,0.244,168.646,-42.720,148.008
9075,0.6865,0.1450,-0.7256,0.793,0.061,0.305,168.657,-42.720,148.008
9085,0.6885,0.1436,-0.7251,0.549,0.427,0.366,168.668,-42.726,148.008
9095,0.6885,0.1431,-0.7241,0.122,0.671,0.366,168.673,-42.737,148.008
9105,0.6924,0.1431,-0.7275,-0.244,0.916,0.366,168.673,-42.753,148.008
9115,0.6953,0.1436,-0.7324,-0.427,0.854,0.305,168.673,-42.764,148.008
9125,0.6958,0.1440,-0.7319,-0.549,0.549,0.366,168.673,-42.770,148.008
9135,0.6948,0.1431,-0.7334,-0.671,0.061,0.427,168.673,-42.775,148.008
9145,0.6899,0.1455,-0.7339,-0.732,-0.366,0.549,168.673,-42.770,148.008
9155,0.6875,0.1475,-0.7319,-0.671,-0.671,0.671,168.673,-42.764,148.008
9165,0.6846,0.1465,-0.7300,-0.488,-0.854,0.671,168.673,-42.753,148.008
9175,0.6846,0.1450,-0.7324,-0.366,-0.854,0.549,168.679,-42.748,148.008
9185,0.6846,0.1465,-0.7300,-0.427,-0.732,0.488,168.679,-42.737,148.008
9195,0.6836,0.1494,-0.7285,-0.488,-0.488,0.427,168.679,-42.731,148.008
9205,0.6851,0.1494,-0.7280,-0.427,-0.244,0.427,168.673,-42.731,148.008
9215,0.6816,0.1519,-0.7285,-0.183,0.061,0.427,168.673,-42.731,148.008
9226,0.6802,0.1519,-0.7305,0.244,0.305,0.488,168.673,-42.731,148.008
9235,0.6821,0.1538,-0.7310,0.671,0.366,0.488,168.679,-42.731,148.008
9245,0.6821,0.1533,-0.7319,0.916,0.427,0.366,168.684,-42.731,148.008
9255,0.6846,0.1519,-0.7368,0.854,0.305,0.183,168.690,-42.731,148.008
9265,0.6860,0.1523,-0.7373,0.610,0.122,-0.061,168.690,-42.731,148.008
9275,0.6885,0.1499,-0.7334,0.366,0.000,-0.244,168.690,-42.726,148.008
9285,0.6909,0.1489,-0.7319,0.244,-0.183,-0.427,168.690,-42.726,148.008
9295,0.6924,0.1455,-0.7310,0.183,-0.366,-0.549,168.684,-42.720,148.008
9305,0.6929,0.1431,-0.7290,0.183,-0.488,-0.549,168.684,-42.720,148.008
9315,0.6938,0.1426,-0.7271,0.122,-0.610,-0.488,168.684,-42.715,148.008
9325,0.6963,0.1426,-0.7266,0.000,-0.610,-0.244,168.684,-42.715,148.008
9335,0.6938,0.1411,-0.7236,-0.061,-0.549,-0.061,168.690,-42.715,148.008
9345,0.6924,0.1401,-0.7227,0.000,-0.427,0.183,168.695,-42.720,148.008
9355,0.6895,0.1416,-0.7236,0.183,-0.183,0.366,168.701,-42.720,148.008
9365,0.6865,0.1421,-0.7246,0.244,0.122,0.610,168.712,-42.726,148.008
9375,0.6855,0.1445,-0.7266,0.244,0.427,0.793,168.723,-42.731,148.008
9385,0.6860,0.1479,-0.7275,0.244,0.610,0.977,168.728,-42.737,148.008
9395,0.6870,0.1499,-0.7329,0.305,0.671,1.038,168.739,-42.748,147.991
9405,0.6895,0.1504,-0.7344,0.366,0.610,0.977,168.745,-42.753,147.980
9415,0.6880,0.1519,-0.7329,0.366,0.366,0.793,168.750,-42.753,147.975
9425,0.6860,0.1514,-0.7334,0.244,0.061,0.549,168.755,-42.753,147.964
9435,0.6875,0.1509,-0.7329,0.000,-0.244,0.244,168.755,-42.753,147.964
9445,0.6875,0.1499,-0.7305,-0.366,-0.549,-0.061,168.745,-42.748,147.964
9455,0.6865,0.1509,-0.7275,-0.549,-0.671,-0.244,168.734,-42.737,147.964
9465,0.6855,0.1509,-0.7295,-0.488,-0.732,-0.366,168.723,-42.731,147.964
9475,0.6865,0.1479,-0.7285,-0.183,-0.488,-0.305,168.717,-42.726,147.969
9485,0.6855,0.1455,-0.7295,0.244,-0.122,-0.122,168.723,-42.720,147.969
9495,0.6870,0.1436,-0.7275,0.610,0.244,-0.061,168.728,-42.726,147.969
9505,0.6899,0.1416,-0.7280,0.610,0.488,0.000,168.734,-42.731,147.975
9515,0.6909,0.1411,-0.7314,0.427,0.549,0.000,168.739,-42.737,147.975
9525,0.6929,0.1392,-0.7324,0.061,0.488,0.000,168.745,-42.748,147.975
9535,0.6934,0.1436,-0.7329,-0.244,0.305,0.061,168.745,-42.748,147.975
9545,0.6904,0.1455,-0.7358,-0.244,0.061,0.244,168.745,-42.748,147.975
9555,0.6904,0.1470,-0.7339,-0.061,-0.183,0.366,168.750,-42.748,147.969
9565,0.6875,0.1489,-0.7314,0.122,-0.427,0.488,168.750,-42.742,147.958
9575,0.6855,0.1484,-0.7314,0.244,-0.610,0.610,168.755,-42.737,147.947
9585,0.6855,0.1479,-0.7314,0.244,-0.732,0.549,168.766,-42.731,147.942
9595,0.6851,0.1514,-0.7305,0.122,-0.610,0.427,168.766,-42.726,147.931
9605,0.6875,0.1519,-0.7290,0.000,-0.427,0.183,168.761,-42.720,147.931
9615,0.6860,0.1489,-0.7290,0.000,-0.183,0.000,168.761,-42.715,147.931
9625,0.6875,0.1479,-0.7261,0.000,0.000,-0.183,168.755,-42.720,147.931
9635,0.6885,0.1499,-0.7280,-0.061,0.122,-0.244,168.750,-42.720,147.936
9645,0.6895,0.1484,-0.7314,-0.061,0.183,-0.305,168.745,-42.720,147.942
9655,0.6885,0.1475,-0.7314,0.122,0.122,-0.244,168.739,-42.720,147.942
9665,0.6914,0.1450,-0.7310,0.305,0.061,-0.183,168.745,-42.726,147.947
9675,0.6909,0.1416,-0.7314,0.427,0.000,-0.122,168.750,-42.726,147.947
9685,0.6895,0.1387,-0.7314,0.244,-0.122,-0.122,168.755,-42.726,147.947
9695,0.6875,0.1406,-0.7305,-0.061,-0.183,-0.061,168.755,-42.720,147.947
9705,0.6855,0.1426,-0.7324,-0.244,-0.244,0.000,168.755,-42.720,147.947
9715,0.6851,0.1436,-0.7295,-0.183,-0.122,0.061,168.755,-42.715,147.947
9726,0.6870,0.1440,-0.7305,0.000,0.000,0.183,168.761,-42.720,147.942
9735,0.6885,0.1450,-0.7324,0.122,0.061,0.305,168.766,-42.720,147.942
9745,0.6895,0.1455,-0.7344,0.122,0.061,0.366,168.766,-42.720,147.936
9755,0.6899,0.1460,-0.7339,-0.122,0.000,0.366,168.772,-42.720,147.931
9765,0.6890,0.1494,-0.7295,-0.488,-0.305,0.244,168.766,-42.720,147.925
9775,0.6875,0.1514,-0.7280,-0.671,-0.610,0.183,168.755,-42.715,147.925
9785,0.6880,0.1543,-0.7285,-0.671,-0.854,0.122,168.745,-42.704,147.920
9795,0.6855,0.1528,-0.7275,-0.427,-0.977,0.122,168.739,-42.693,147.914
9805,0.6855,0.1499,-0.7256,-0.122,-0.916,0.122,168.734,-42.687,147.909
9815,0.6846,0.1523,-0.7261,0.122,-0.610,0.061,168.734,-42.682,147.909
9825,0.6831,0.1523,-0.7261,0.061,-0.122,0.000,168.728,-42.682,147.909
9835,0.6841,0.1484,-0.7251,-0.061,0.305,-0.183,168.723,-42.682,147.909
9845,0.6851,0.1484,-0.7285,-0.183,0.549,-0.244,168.712,-42.687,147.914
9855,0.6860,0.1494,-0.7280,-0.183,0.732,-0.305,168.706,-42.693,147.920
9865,0.6875,0.1489,-0.7314,0.000,0.916,-0.244,168.701,-42.704,147.925
9875,0.6880,0.1475,-0.7285,0.305,0.854,-0.122,168.695,-42.715,147.931
9885,0.6909,0.1460,-0.7305,0.549,0.671,-0.061,168.701,-42.720,147.936
9895,0.6890,0.1436,-0.7324,0.549,0.427,0.000,168.706,-42.726,147.936
9905,0.6899,0.1406,-0.7329,0.366,0.122,-0.061,168.717,-42.726,147.936
9915,0.6885,0.1406,-0.7329,0.061,-0.122,-0.061,168.717,-42.726,147.936
9925,0.6870,0.1426,-0.7329,-0.183,-0.244,-0.061,168.723,-42.720,147.936
9935,0.6875,0.1440,-0.7310,-0.244,-0.244,0.000,168.717,-42.720,147.936
9945,0.6860,0.1445,-0.7305,-0.183,-0.244,0.061,168.723,-42.715,147.936
9955,0.6865,0.1465,-0.7290,-0.061,-0.305,0.244,168.723,-42.715,147.931
9966,0.6885,0.1460,-0.7295,0.183,-0.244,0.366,168.728,-42.715,147.925
9976,0.6870,0.1460,-0.7290,0.427,-0.183,0.488,168.734,-42.709,147.920
9985,0.6880,0.1455,-0.7295,0.549,0.000,0.549,168.745,-42.715,147.909
9996,0.6880,0.1455,-0.7310,0.427,0.122,0.366,168.750,-42.715,147.909
10006,0.6880,0.1450,-0.7295,0.122,0.183,0.244,168.755,-42.720,147.903
10016,0.6890,0.1484,-0.7285,-0.183,0.183,0.183,168.750,-42.720,147.903
10026,0.6885,0.1504,-0.7314,-0.183,0.244,0.122,168.745,-42.726,147.903
10036,0.6899,0.1499,-0.7324,-0.061,0.122,0.183,168.745,-42.726,147.898
10046,0.6890,0.1504,-0.7290,0.244,0.000,0.244,168.745,-42.726,147.898
10056,0.6875,0.1475,-0.7285,0.488,-0.244,0.305,168.750,-42.726,147.892
10066,0.6875,0.1465,-0.7290,0.488,-0.305,0.366,168.761,-42.726,147.887
10076,0.6885,0.1440,-0.7275,0.427,-0.244,0.244,168.766,-42.720,147.881
10086,0.6890,0.1436,-0.7261,0.183,-0.061,0.122,168.772,-42.726,147.881
10095,0.6875,0.1431,-0.7266,-0.061,0.000,0.000,168.772,-42.726,147.881
10106,0.6885,0.1460,-0.7280,-0.244,-0.061,-0.061,168.766,-42.726,147.881
10116,0.6885,0.1489,-0.7300,-0.183,-0.244,0.061,168.761,-42.726,147.876
10126,0.6870,0.1499,-0.7280,0.366,-0.549,0.427,168.766,-42.720,147.870
10136,0.6880,0.1489,-0.7256,1.160,-0.916,0.732,168.783,-42.715,147.859
10146,0.6890,0.1416,-0.7305,1.831,-1.038,0.916,168.810,-42.709,147.843
10156,0.6890,0.1387,-0.7339,1.831,-0.793,0.854,168.843,-42.704,147.832
10166,0.6860,0.1313,-0.7354,1.221,0.061,0.610,168.871,-42.704,147.821
10176,0.6865,0.1304,-0.7358,-0.122,1.160,0.305,168.882,-42.715,147.821
10186,0.6865,0.1338,-0.7319,-1.404,1.892,0.000,168.871,-42.731,147.827
10196,0.6870,0.1396,-0.7349,-2.014,1.892,-0.122,168.854,-42.748,147.832
10206,0.6895,0.1455,-0.7339,-1.770,1.404,0.000,168.832,-42.759,147.838
10216,0.6890,0.1475,-0.7358,-0.916,0.610,0.305,168.821,-42.764,147.832
10227,0.6890,0.1504,-0.7334,-0.061,-0.122,0.732,168.827,-42.764,147.827
10236,0.6875,0.1494,-0.7329,0.427,-0.732,0.793,168.832,-42.759,147.810
10246,0.6880,0.1484,-0.7319,0.549,-1.038,0.793,168.843,-42.748,147.799
10256,0.6836,0.1519,-0.7310,0.305,-1.160,0.549,168.849,-42.737,147.788
10266,0.6831,0.1548,-0.7275,-0.061,-0.977,0.122,168.843,-42.726,147.783
10276,0.6846,0.1558,-0.7280,-0.366,-0.610,-0.366,168.827,-42.715,147.788
10286,0.6836,0.1548,-0.7251,-0.366,-0.122,-0.793,168.810,-42.715,147.799
10296,0.6821,0.1553,-0.7251,-0.305,0.244,-1.160,168.788,-42.709,147.816
10306,0.6841,0.1514,-0.7251,-0.122,0.549,-1.404,168.766,-42.715,147.832
10316,0.6880,0.1475,-0.7300,0.183,0.671,-1.404,168.750,-42.720,147.854
10326,0.6890,0.1421,-0.7305,0.427,0.793,-1.404,168.745,-42.726,147.876
10336,0.6895,0.1392,-0.7329,0.671,0.916,-1.282,168.745,-42.731,147.892
10346,0.6899,0.1353,-0.7363,0.610,0.916,-1.038,168.745,-42.737,147.909
10356,0.6899,0.1353,-0.7378,0.549,0.671,-0.732,168.750,-42.742,147.920
10366,0.6895,0.1338,-0.7358,0.427,0.305,-0.366,168.761,-42.742,147.925
10376,0.6904,0.1338,-0.7344,0.366,-0.183,-0.061,168.777,-42.742,147.931
10386,0.6919,0.1353,-0.7314,0.305,-0.488,0.183,168.788,-42.737,147.925
10396,0.6914,0.1357,-0.7310,0.061,-0.916,0.366,168.799,-42.731,147.920
10406,0.6934,0.1362,-0.7305,-0.183,-1.099,0.549,168.810,-42.726,147.909
10416,0.6924,0.1411,-0.7266,-0.427,-1.099,0.671,168.816,-42.720,147.898
10426,0.6904,0.1450,-0.7241,-0.427,-0.916,0.732,168.821,-42.715,147.881
10436,0.6895,0.1479,-0.7251,-0.427,-0.610,0.793,168.821,-42.715,147.870
10446,0.6846,0.1499,-0.7241,-0.305,-0.183,0.793,168.821,-42.715,147.859
10456,0.6821,0.1509,-0.7241,-0.183,0.122,0.732,168.816,-42.720,147.849
10466,0.6807,0.1523,-0.7251,-0.122,0.366,0.610,168.816,-42.720,147.843
10476,0.6831,0.1548,-0.7256,-0.122,0.549,0.427,168.810,-42.726,147.838
10486,0.6851,0.1543,-0.7310,0.000,0.671,0.122,168.799,-42.731,147.838
10496,0.6875,0.1528,-0.7314,0.122,0.732,-0.122,168.794,-42.737,147.843
10506,0.6870,0.1509,-0.7319,0.183,0.732,-0.427,168.783,-42.742,147.849
10516,0.6860,0.1514,-0.7314,0.122,0.732,-0.671,168.777,-42.748,147.859
10526,0.6855,0.1484,-0.7324,0.061,0.610,-0.916,168.761,-42.748,147.876
10536,0.6855,0.1450,-0.7314,0.000,0.427,-1.099,168.755,-42.748,147.892
10546,0.6865,0.1436,-0.7314,0.000,0.305,-1.160,168.745,-42.748,147.909
10556,0.6865,0.1411,-0.7305,0.183,0.305,-1.099,168.739,-42.748,147.920
10566,0.6851,0.1431,-0.7300,0.366,0.183,-1.038,168.734,-42.748,147.936
10576,0.6851,0.1348,-0.7290,0.671,0.366,-0.916,168.739,-42.748,147.947
10586,0.6938,0.1353,-0.7305,0.671,0.244,-0.671,168.750,-42.753,147.958
10596,0.6885,0.1348,-0.7305,0.671,0.366,-0.488,168.755,-42.759,147.969
10606,0.6904,0.1328,-0.7319,0.671,0.427,-0.183,168.772,-42.764,147.969
10616,0.6938,0.1353,-0.7310,0.427,0.305,0.000,168.783,-42.770,147.969
10626,0.6948,0.1372,-0.7300,0.122,0.061,0.183,168.788,-42.770,147.969
10636,0.6943,0.1392,-0.7285,-0.122,-0.244,0.305,168.794,-42.775,147.964
10646,0.6953,0.1426,-0.7266,-0.305,-0.488,0.427,168.799,-42.775,147.958
10656,0.6958,0.1440,-0.7246,-0.549,-0.732,0.427,168.799,-42.775,147.947
10666,0.6938,0.1470,-0.7241,-0.671,-0.610,0.427,168.794,-42.775,147.942
10676,0.6924,0.1484,-0.7236,-0.793,-0.366,0.366,168.788,-42.775,147.936
10686,0.6865,0.1479,-0.7241,-0.793,0.061,0.305,168.777,-42.775,147.931
10696,0.6855,0.1465,-0.7271,-0.732,0.549,0.122,168.766,-42.781,147.931
10706,0.6836,0.1470,-0.7290,-0.793,0.916,-0.183,168.755,-42.786,147.936
10716,0.6826,0.1475,-0.7319,-1.038,1.038,-0.488,168.739,-42.792,147.947
10726,0.6807,0.1470,-0.7344,-1.404,1.038,-0.732,168.717,-42.797,147.958
10736,0.6836,0.1470,-0.7314,-1.587,0.671,-0.793,168.690,-42.797,147.969
10746,0.6855,0.1479,-0.7324,-1.404,0.305,-0.671,168.668,-42.797,147.980
10756,0.6870,0.1494,-0.7319,-0.793,-0.061,-0.427,168.657,-42.797,147.986
10766,0.6865,0.1465,-0.7344,-0.061,-0.244,-0.183,168.651,-42.792,147.991
10776,0.6875,0.1431,-0.7285,0.366,-0.305,-0.061,168.662,-42.786,147.991
10786,0.6885,0.1421,-0.7275,0.427,-0.366,-0.061,168.668,-42.786,147.991
10796,0.6899,0.1406,-0.7295,-0.061,-0.427,-0.244,168.668,-42.781,147.991
10806,0.6919,0.1411,-0.7310,-0.549,-0.305,-0.427,168.662,-42.781,147.997
10816,0.6938,0.1416,-0.7275,-0.916,-0.244,-0.488,168.657,-42.781,148.002
10826,0.6914,0.1460,-0.7246,-0.854,-0.122,-0.488,168.640,-42.781,148.008
10836,0.6880,0.1460,-0.7256,-0.427,-0.061,-0.305,168.635,-42.781,148.013
10846,0.6865,0.1479,-0.7261,0.244,0.000,0.000,168.635,-42.781,148.013
10856,0.6855,0.1489,-0.7275,0.732,0.183,0.244,168.640,-42.781,148.008
10866,0.6865,0.1465,-0.7310,0.916,0.305,0.244,168.651,-42.786,148.008
10876,0.6885,0.1479,-0.7295,0.732,0.488,0.122,168.657,-42.792,148.008
10886,0.6880,0.1499,-0.7305,0.183,0.427,-0.183,168.657,-42.792,148.008
10896,0.6924,0.1514,-0.7300,-0.366,0.305,-0.549,168.646,-42.797,148.019
10906,0.6924,0.1514,-0.7300,-0.671,0.183,-0.793,168.624,-42.797,148.030
10916,0.6924,0.1509,-0.7271,-0.610,0.122,-0.916,168.607,-42.797,148.041
10926,0.6885,0.1514,-0.7261,-0.244,0.000,-0.977,168.591,-42.797,148.057
10936,0.6855,0.1475,-0.7251,0.183,0.000,-0.854,168.585,-42.797,148.068
10946,0.6846,0.1411,-0.7295,0.732,0.122,-0.732,168.591,-42.792,148.074
10956,0.6875,0.1396,-0.7300,0.732,0.244,-0.671,168.596,-42.797,148.085
10966,0.6890,0.1392,-0.7310,0.610,0.366,-0.671,168.602,-42.797,148.096
10976,0.6909,0.1392,-0.7339,0.488,0.549,-0.671,168.607,-42.803,148.107
10986,0.6929,0.1396,-0.7334,0.244,0.488,-0.610,168.607,-42.808,148.118
10996,0.6953,0.1421,-0.7324,0.122,0.244,-0.549,168.607,-42.808,148.123
11006,0.6943,0.1431,-0.7290,0.061,-0.183,-0.427,168.607,-42.808,148.129
11016,0.6943,0.1421,-0.7285,0.000,-0.549,-0.244,168.613,-42.808,148.129
11026,0.6890,0.1416,-0.7285,0.000,-0.732,-0.061,168.618,-42.797,148.129
11036,0.6895,0.1416,-0.7266,0.000,-0.793,0.061,168.624,-42.792,148.129
11046,0.6895,0.1421,-0.7266,-0.061,-0.671,0.122,168.629,-42.792,148.123
11056,0.6880,0.1440,-0.7266,-0.183,-0.427,0.183,168.629,-42.786,148.118
11066,0.6875,0.1470,-0.7275,-0.244,-0.061,0.244,168.629,-42.786,148.118
11076,0.6870,0.1460,-0.7280,-0.244,0.244,0.244,168.629,-42.792,148.112
11086,0.6860,0.1455,-0.7334,-0.183,0.488,0.305,168.629,-42.792,148.112
11096,0.6855,0.1475,-0.7329,-0.183,0.488,0.183,168.629,-42.797,148.112
11106,0.6890,0.1475,-0.7349,-0.244,0.366,0.122,168.624,-42.797,148.107
11116,0.6904,0.1460,-0.7344,-0.366,0.183,0.061,168.624,-42.797,148.107
11126,0.6909,0.1484,-0.7334,-0.549,-0.122,-0.061,168.618,-42.797,148.107
11136,0.6895,0.1475,-0.7285,-0.732,-0.427,-0.244,168.607,-42.792,148.112
11146,0.6851,0.1475,-0.7300,-0.732,-0.610,-0.244,168.602,-42.786,148.112
11156,0.6851,0.1484,-0.7290,-0.427,-0.732,-0.305,168.591,-42.775,148.118
11166,0.6846,0.1489,-0.7266,-0.061,-0.549,-0.305,168.591,-42.770,148.118
11176,0.6836,0.1479,-0.7266,0.183,-0.305,-0.366,168.585,-42.764,148.123
11186,0.6865,0.1475,-0.7261,0.305,-0.061,-0.427,168.585,-42.764,148.129
11196,0.6899,0.1484,-0.7275,0.244,0.244,-0.549,168.580,-42.764,148.134
11206,0.6909,0.1465,-0.7290,0.122,0.610,-0.671,168.574,-42.770,148.145
11216,0.6919,0.1455,-0.7290,0.061,0.793,-0.793,168.569,-42.781,148.156
11227,0.6929,0.1465,-0.7295,-0.061,0.732,-0.916,168.558,-42.786,148.173
11236,0.6924,0.1450,-0.7310,-0.061,0.549,-0.488,168.558,-42.792,148.178
11246,0.6899,0.1460,-0.7329,-0.122,0.305,-0.427,168.552,-42.792,148.189
11256,0.6880,0.1475,-0.7319,-0.061,0.000,-0.305,168.552,-42.792,148.189
11266,0.6875,0.1445,-0.7319,0.061,-0.183,-0.183,168.552,-42.786,148.195
11276,0.6885,0.1450,-0.7285,0.183,-0.305,-0.183,168.552,-42.786,148.195
11286,0.6880,0.1440,-0.7290,0.244,-0.305,-0.183,168.558,-42.781,148.195
11296,0.6875,0.1406,-0.7275,0.122,-0.183,-0.244,168.563,-42.781,148.200
11306,0.6890,0.1411,-0.7295,-0.122,0.061,-0.305,168.563,-42.781,148.206
11316,0.6895,0.1436,-0.7324,-0.305,0.305,-0.305,168.563,-42.786,148.211
11326,0.6904,0.1421,-0.7310,-0.305,0.488,-0.183,168.558,-42.792,148.211
11336,0.6870,0.1445,-0.7290,-0.183,0.488,-0.061,168.558,-42.792,148.217
11346,0.6885,0.1455,-0.7310,0.000,0.305,0.122,168.563,-42.797,148.211
11356,0.6860,0.1465,-0.7290,0.183,0.000,0.305,168.563,-42.797,148.211
11366,0.6860,0.1470,-0.7285,0.427,-0.183,0.427,168.574,-42.792,148.206
11376,0.6865,0.1479,-0.7275,0.488,-0.305,0.366,168.585,-42.792,148.200
11386,0.6870,0.1475,-0.7285,0.366,-0.366,0.183,168.591,-42.786,148.195
11396,0.6875,0.1489,-0.7290,0.061,-0.122,-0.061,168.585,-42.786,148.195
11406,0.6890,0.1509,-0.7280,-0.183,0.000,-0.244,168.580,-42.786,148.200
11416,0.6875,0.1514,-0.7280,-0.305,0.061,-0.366,168.569,-42.786,148.206
11426,0.6880,0.1489,-0.7285,-0.183,0.183,-0.488,168.563,-42.786,148.211
11436,0.6880,0.1475,-0.7300,0.000,0.183,-0.610,168.558,-42.786,148.217
11446,0.6899,0.1445,-0.7295,0.122,0.122,-0.549,168.558,-42.786,148.228
11456,0.6880,0.1440,-0.7290,0.122,0.122,-0.488,168.552,-42.786,148.233
11466,0.6895,0.1431,-0.7310,0.061,0.183,-0.427,168.552,-42.792,148.239
11476,0.6895,0.1431,-0.7314,0.000,0.244,-0.427,168.552,-42.792,148.244
11486,0.6870,0.1431,-0.7285,-0.122,0.244,-0.427,168.552,-42.792,148.250
11496,0.6846,0.1470,-0.7295,-0.061,0.244,-0.305,168.547,-42.792,148.255
11506,0.6885,0.1436,-0.7305,0.122,0.305,-0.244,168.552,-42.797,148.260
11516,0.6899,0.1416,-0.7305,0.183,0.244,-0.244,168.552,-42.797,148.266
11526,0.6895,0.1416,-0.7314,0.061,0.122,-0.244,168.558,-42.797,148.266
11536,0.6904,0.1421,-0.7310,-0.244,-0.061,-0.183,168.558,-42.797,148.271
11546,0.6934,0.1416,-0.7334,-0.549,-0.244,-0.122,168.558,-42.797,148.271
11556,0.6938,0.1450,-0.7300,-0.793,-0.427,0.061,168.552,-42.792,148.271
11566,0.6929,0.1470,-0.7266,-0.732,-0.549,0.183,168.547,-42.792,148.271
11576,0.6914,0.1479,-0.7266,-0.427,-0.671,0.305,168.547,-42.786,148.271
11586,0.6919,0.1479,-0.7280,-0.061,-0.549,0.366,168.552,-42.786,148.271
11596,0.6899,0.1489,-0.7271,0.000,-0.366,0.244,168.552,-42.786,148.271
11606,0.6885,0.1475,-0.7285,-0.183,-0.183,0.122,168.552,-42.781,148.271
11616,0.6895,0.1470,-0.7295,-0.427,0.000,-0.122,168.547,-42.781,148.271
11626,0.6875,0.1475,-0.7300,-0.732,0.183,-0.305,168.536,-42.781,148.271
11636,0.6851,0.1504,-0.7314,-0.793,0.183,-0.427,168.525,-42.781,148.271
11646,0.6865,0.1504,-0.7314,-0.610,0.061,-0.366,168.514,-42.781,148.271
11656,0.6865,0.1509,-0.7339,-0.244,-0.122,-0.183,168.508,-42.775,148.271
11666,0.6860,0.1479,-0.7310,0.061,-0.305,-0.061,168.508,-42.770,148.271
11676,0.6860,0.1479,-0.7314,0.305,-0.549,0.061,168.514,-42.764,148.271
11686,0.6865,0.1475,-0.7314,0.305,-0.610,0.183,168.519,-42.759,148.271
11696,0.6870,0.1489,-0.7280,0.244,-0.610,0.122,168.525,-42.753,148.271
11706,0.6865,0.1509,-0.7271,0.122,-0.488,0.000,168.525,-42.748,148.271
11716,0.6880,0.1494,-0.7266,0.000,-0.366,-0.061,168.525,-42.742,148.271
11727,0.6875,0.1499,-0.7261,0.122,-0.122,-0.122,168.519,-42.742,148.271
11736,0.6890,0.1489,-0.7271,0.183,0.061,-0.061,168.519,-42.748,148.271
11746,0.6914,0.1475,-0.7251,0.183,0.183,-0.122,168.519,-42.748,148.271
11756,0.6914,0.1470,-0.7261,0.061,0.305,-0.183,168.519,-42.753,148.271
11766,0.6904,0.1484,-0.7275,-0.061,0.305,-0.183,168.514,-42.759,148.271
11776,0.6895,0.1479,-0.7305,0.000,0.305,-0.061,168.514,-42.764,148.271
11786,0.6885,0.1465,-0.7290,0.061,0.366,0.061,168.519,-42.770,148.271
11796,0.6875,0.1479,-0.7295,0.183,0.488,0.183,168.519,-42.770,148.271
11806,0.6865,0.1455,-0.7319,0.427,0.488,0.366,168.530,-42.775,148.271
11816,0.6895,0.1440,-0.7295,0.549,0.244,0.488,168.541,-42.781,148.271
11826,0.6899,0.1460,-0.7319,0.488,0.061,0.488,168.552,-42.781,148.271
11836,0.6909,0.1445,-0.7310,0.305,-0.244,0.488,168.563,-42.781,148.271
11846,0.6890,0.1440,-0.7314,0.061,-0.427,0.488,168.569,-42.775,148.271
11856,0.6909,0.1445,-0.7319,-0.183,-0.427,0.488,168.580,-42.775,148.271
11866,0.6899,0.1460,-0.7305,-0.366,-0.366,0.427,168.580,-42.770,148.271
11876,0.6890,0.1489,-0.7251,-0.427,-0.122,0.549,168.580,-42.775,148.271
11886,0.6870,0.1479,-0.7251,-0.305,-0.061,0.610,168.580,-42.775,148.271
11896,0.6875,0.1465,-0.7266,-0.122,0.000,0.610,168.585,-42.775,148.271
11906,0.6890,0.1470,-0.7300,0.000,0.122,0.549,168.591,-42.781,148.271
11916,0.6880,0.1494,-0.7256,0.122,0.366,0.427,168.591,-42.786,148.271
11926,0.6865,0.1494,-0.7271,0.122,0.610,0.366,168.591,-42.792,148.271
11936,0.6851,0.1509,-0.7290,0.122,0.793,0.488,168.596,-42.797,148.271
11946,0.6865,0.1533,-0.7310,0.122,0.793,0.427,168.591,-42.808,148.271
11956,0.6865,0.1548,-0.7271,0.305,0.488,0.488,168.596,-42.808,148.271
11966,0.6855,0.1533,-0.7290,0.732,0.366,0.549,168.602,-42.814,148.271
11976,0.6865,0.1519,-0.7290,1.038,0.366,0.488,168.613,-42.814,148.271
11986,0.6855,0.1514,-0.7310,1.099,0.488,0.427,168.624,-42.819,148.271
11996,0.6851,0.1479,-0.7314,1.038,0.549,0.305,168.635,-42.825,148.271
12006,0.6865,0.1470,-0.7310,0.854,0.671,0.122,168.640,-42.830,148.271
12016,0.6841,0.1470,-0.7305,0.671,0.732,0.061,168.646,-42.830,148.271
12026,0.6841,0.1440,-0.7300,0.732,0.671,0.000,168.657,-42.836,148.271
12036,0.6875,0.1450,-0.7305,0.977,0.671,0.122,168.668,-42.841,148.271
12046,0.6880,0.1445,-0.7290,1.221,0.671,0.366,168.679,-42.847,148.271
12056,0.6929,0.1436,-0.7290,1.526,0.671,0.610,168.701,-42.858,148.271
12066,0.6934,0.1431,-0.7295,1.648,0.610,0.854,168.728,-42.869,148.271
12076,0.6919,0.1431,-0.7280,1.587,0.427,0.916,168.750,-42.874,148.271
12086,0.6929,0.1416,-0.7246,1.343,0.244,0.854,168.772,-42.885,148.271
12096,0.6934,0.1421,-0.7231,1.038,0.061,0.732,168.794,-42.891,148.271
12106,0.6929,0.1455,-0.7261,0.854,-0.061,0.610,168.805,-42.891,148.271
12116,0.6924,0.1460,-0.7256,0.916,0.122,0.549,168.816,-42.896,148.271
12126,0.6895,0.1460,-0.7236,1.160,0.488,0.488,168.827,-42.902,148.271
12136,0.6855,0.1470,-0.7251,1.404,0.977,0.427,168.843,-42.913,148.271
12146,0.6851,0.1514,-0.7275,1.526,1.343,0.488,168.854,-42.924,148.271
12156,0.6836,0.1538,-0.7280,1.770,1.587,0.488,168.865,-42.935,148.271
12166,0.6875,0.1562,-0.7290,2.075,1.648,0.488,168.876,-42.951,148.271
12176,0.6929,0.1587,-0.7290,2.258,1.404,0.488,168.887,-42.968,148.271
12186,0.6953,0.1572,-0.7280,2.563,0.916,0.366,168.904,-42.979,148.271
12196,0.6914,0.1509,-0.7256,2.869,0.427,-0.183,168.926,-42.979,148.271
12206,0.6909,0.1489,-0.7246,2.319,0.122,-0.916,168.937,-42.979,148.271
12216,0.6895,0.1460,-0.7246,1.709,0.122,-1.465,168.937,-42.979,148.288
12227,0.6904,0.1455,-0.7217,0.977,0.427,-1.831,168.926,-42.984,148.315
12236,0.6909,0.1450,-0.7207,0.549,0.854,-1.953,168.909,-42.990,148.343
12246,0.6895,0.1367,-0.7227,0.977,1.221,-1.953,168.898,-43.000,148.376
12256,0.6914,0.1338,-0.7246,1.343,1.587,-1.892,168.898,-43.011,148.403
12266,0.6919,0.1323,-0.7275,1.526,1.648,-1.587,168.904,-43.028,148.431
12276,0.6938,0.1309,-0.7310,1.587,1.526,-0.977,168.920,-43.039,148.447
12286,0.6973,0.1313,-0.7310,1.648,1.404,-0.305,168.937,-43.055,148.453
12296,0.6963,0.1270,-0.7354,1.953,1.282,0.061,168.970,-43.066,148.458
12306,0.6963,0.1260,-0.7368,2.075,1.038,0.183,169.003,-43.077,148.458
12316,0.6973,0.1221,-0.7383,1.709,0.732,0.305,169.036,-43.083,148.453
12326,0.6968,0.1226,-0.7397,0.793,0.305,0.244,169.063,-43.083,148.453
12336,0.6978,0.1206,-0.7402,-0.366,-0.122,0.244,169.080,-43.083,148.447
12346,0.6997,0.1216,-0.7368,-1.526,-0.488,0.183,169.080,-43.077,148.442
12357,0.7007,0.1260,-0.7305,-2.197,-1.099,0.305,169.074,-43.072,148.436
12366,0.6978,0.1313,-0.7280,-2.319,-1.587,0.793,169.069,-43.061,148.420
12376,0.6953,0.1338,-0.7217,-1.892,-1.892,1.465,169.074,-43.050,148.398
12387,0.6938,0.1372,-0.7217,-1.343,-1.831,2.075,169.080,-43.039,148.365
12397,0.6934,0.1392,-0.7192,-0.916,-1.648,2.502,169.096,-43.033,148.326
12407,0.6924,0.1411,-0.7207,-0.793,-1.343,2.747,169.118,-43.028,148.288
12417,0.6914,0.1436,-0.7227,-0.916,-0.916,2.747,169.129,-43.022,148.250
12427,0.6924,0.1494,-0.7271,-1.343,-0.427,2.441,169.135,-43.022,148.211
12437,0.6919,0.1528,-0.7251,-1.770,0.061,1.831,169.118,-43.028,148.189
12447,0.6929,0.1567,-0.7285,-2.258,0.305,1.099,169.096,-43.033,148.173
12457,0.6909,0.1592,-0.7295,-2.625,0.305,0.549,169.058,-43.033,148.167
12467,0.6909,0.1592,-0.7319,-2.747,0.122,0.061,169.019,-43.033,148.167
12477,0.6890,0.1567,-0.7295,-2.441,-0.305,-0.305,168.981,-43.028,148.173
12487,0.6875,0.1562,-0.7334,-1.953,-0.732,-0.549,168.948,-43.011,148.178
12497,0.6851,0.1533,-0.7344,-1.404,-1.099,-0.671,168.920,-42.995,148.184
12507,0.6816,0.1499,-0.7295,-0.977,-1.282,-0.732,168.904,-42.973,148.189
12517,0.6792,0.1460,-0.7310,-0.610,-1.099,-0.854,168.887,-42.957,148.200
12527,0.6782,0.1436,-0.7314,-0.549,-0.793,-0.977,168.876,-42.940,148.211
12537,0.6792,0.1431,-0.7329,-0.427,-0.305,-1.099,168.865,-42.929,148.222
12547,0.6826,0.1426,-0.7314,-0.427,0.122,-1.038,168.849,-42.924,148.239
12557,0.6851,0.1440,-0.7280,-0.366,0.366,-0.854,168.838,-42.924,148.250
12567,0.6875,0.1460,-0.7280,-0.183,0.366,-0.610,168.827,-42.924,148.260
12577,0.6895,0.1440,-0.7305,0.305,0.061,-0.305,168.827,-42.924,148.260
12587,0.6899,0.1460,-0.7324,0.732,-0.427,-0.061,168.838,-42.918,148.260
12597,0.6904,0.1431,-0.7334,1.160,-0.671,0.000,168.849,-42.913,148.260
12607,0.6924,0.1416,-0.7329,1.160,-0.916,0.000,168.865,-42.902,148.260
12617,0.6924,0.1401,-0.7339,0.977,-0.793,0.000,168.876,-42.891,148.255
12627,0.6919,0.1421,-0.7344,0.427,-0.671,0.000,168.887,-42.885,148.255
12637,0.6929,0.1411,-0.7334,0.000,-0.488,0.061,168.887,-42.880,148.255
12647,0.6934,0.1411,-0.7271,-0.427,-0.732,0.122,168.887,-42.874,148.250
12657,0.6948,0.1401,-0.7241,-0.671,-1.404,0.183,168.887,-42.869,148.244
12667,0.7002,0.1411,-0.7187,-0.854,-2.319,0.305,168.887,-42.852,148.233
12677,0.7002,0.1411,-0.7163,-0.793,-2.869,0.549,168.887,-42.836,148.217
12687,0.6973,0.1421,-0.7163,-0.366,-2.625,1.038,168.898,-42.819,148.195
12697,0.6904,0.1431,-0.7202,0.366,-1.648,1.587,168.915,-42.814,148.173
12707,0.6875,0.1436,-0.7192,0.977,-0.244,2.136,168.942,-42.819,148.140
12717,0.6841,0.1431,-0.7261,1.221,0.916,2.441,168.975,-42.830,148.112
12727,0.6821,0.1416,-0.7285,0.793,1.465,2.380,169.003,-42.847,148.085
12737,0.6846,0.1450,-0.7373,-0.061,1.465,2.075,169.019,-42.858,148.063
12747,0.6880,0.1475,-0.7397,-0.854,0.793,1.648,169.019,-42.863,148.041
12757,0.6929,0.1494,-0.7402,-1.160,-0.061,1.282,169.014,-42.863,148.024
12767,0.6914,0.1470,-0.7417,-0.793,-0.916,1.099,169.014,-42.852,148.008
12777,0.6899,0.1445,-0.7383,-0.244,-1.526,1.160,169.025,-42.836,147.986
12787,0.6890,0.1450,-0.7354,0.244,-1.953,1.282,169.041,-42.819,147.964
12797,0.6895,0.1460,-0.7334,0.366,-2.136,1.465,169.058,-42.797,147.936
12807,0.6870,0.1416,-0.7295,0.305,-2.197,1.526,169.080,-42.781,147.914
12817,0.6855,0.1377,-0.7310,0.122,-2.075,1.221,169.096,-42.764,147.892
12827,0.6841,0.1416,-0.7246,-0.488,-2.014,1.038,169.102,-42.742,147.870
12837,0.6836,0.1455,-0.7241,-0.610,-1.770,0.977,169.107,-42.731,147.854
12847,0.6782,0.1504,-0.7266,-0.244,-1.221,1.038,169.107,-42.715,147.838
12857,0.6733,0.1519,-0.7261,0.610,-0.427,1.160,169.113,-42.709,147.821
12867,0.6772,0.1514,-0.7280,1.465,0.244,1.282,169.129,-42.709,147.805
12877,0.6772,0.1499,-0.7329,1.953,0.854,1.343,169.156,-42.715,147.788
12887,0.6831,0.1475,-0.7349,1.709,1.038,1.221,169.173,-42.726,147.777
12897,0.6929,0.1489,-0.7363,0.977,0.854,0.916,169.184,-42.737,147.766
12907,0.6958,0.1431,-0.7344,0.061,0.305,0.488,169.189,-42.742,147.761
12917,0.7002,0.1436,-0.7324,-0.854,-0.488,-0.061,169.178,-42.742,147.761
12927,0.7017,0.1470,-0.7275,-1.526,-1.404,-0.305,169.156,-42.731,147.761
12937,0.6968,0.1489,-0.7222,-1.221,-2.014,0.000,169.140,-42.720,147.755
12947,0.6855,0.1484,-0.7197,-0.061,-1.831,0.366,169.135,-42.704,147.744
12957,0.6782,0.1445,-0.7222,1.404,-0.854,0.549,169.151,-42.698,147.733
12967,0.6748,0.1392,-0.7241,2.197,0.244,0.610,169.178,-42.698,147.728
12977,0.6782,0.1372,-0.7231,2.136,1.221,0.671,169.206,-42.715,147.722
12987,0.6836,0.1357,-0.7266,1.282,1.953,0.610,169.222,-42.731,147.717
12997,0.6929,0.1421,-0.7305,0.366,2.319,0.488,169.222,-42.759,147.717
13007,0.7002,0.1416,-0.7339,0.000,2.197,0.488,169.222,-42.786,147.717
13017,0.7031,0.1406,-0.7354,0.061,1.526,0.549,169.222,-42.803,147.711
13027,0.6987,0.1431,-0.7349,0.366,0.488,0.732,169.233,-42.814,147.706
13037,0.6929,0.1421,-0.7324,0.732,-0.549,0.854,169.244,-42.808,147.689
13047,0.6885,0.1421,-0.7314,0.793,-1.221,0.977,169.261,-42.797,147.678
13057,0.6802,0.1387,-0.7275,0.854,-1.221,0.854,169.277,-42.786,147.662
13067,0.6797,0.1357,-0.7295,0.610,-0.610,0.610,169.294,-42.781,147.651
13077,0.6802,0.1343,-0.7266,0.122,0.305,0.427,169.299,-42.781,147.645
13087,0.6816,0.1353,-0.7285,-0.549,1.038,0.183,169.299,-42.792,147.645
13097,0.6875,0.1338,-0.7305,-0.977,1.465,0.183,169.288,-42.808,147.645
13107,0.6948,0.1377,-0.7314,-1.282,1.465,0.366,169.277,-42.825,147.645
13117,0.6953,0.1411,-0.7319,-0.977,1.160,0.610,169.272,-42.836,147.640
13127,0.6929,0.1436,-0.7324,-0.488,0.549,0.977,169.272,-42.847,147.629
13137,0.6895,0.1426,-0.7329,0.183,0.061,1.221,169.277,-42.847,147.612
13147,0.6836,0.1416,-0.7334,0.610,-0.122,1.282,169.294,-42.847,147.596
13157,0.6821,0.1392,-0.7329,0.549,0.061,0.977,169.310,-42.841,147.585
13167,0.6807,0.1392,-0.7354,-0.061,0.488,0.427,169.310,-42.841,147.579
13177,0.6831,0.1406,-0.7363,-0.854,0.854,-0.061,169.299,-42.847,147.579
13187,0.6851,0.1401,-0.7349,-1.709,1.099,-0.488,169.277,-42.852,147.590
13197,0.6895,0.1436,-0.7354,-2.136,0.977,-0.671,169.244,-42.858,147.601
13207,0.6914,0.1450,-0.7334,-1.892,0.610,-0.488,169.217,-42.863,147.612
13217,0.6929,0.1426,-0.7314,-1.160,0.061,-0.122,169.200,-42.863,147.612
13228,0.6934,0.1431,-0.7300,-0.244,-0.427,0.305,169.195,-42.863,147.607
13237,0.6924,0.1421,-0.7300,0.427,-0.793,0.610,169.206,-42.858,147.596
13247,0.6899,0.1401,-0.7295,0.610,-0.793,0.610,169.217,-42.847,147.585
13257,0.6890,0.1396,-0.7290,0.366,-0.488,0.427,169.228,-42.847,147.579
13267,0.6870,0.1367,-0.7285,-0.122,0.061,0.061,169.228,-42.847,147.579
13277,0.6885,0.1406,-0.7295,-0.732,0.549,-0.244,169.217,-42.852,147.585
13287,0.6904,0.1445,-0.7295,-1.099,0.916,-0.305,169.195,-42.858,147.590
13297,0.6909,0.1440,-0.7305,-1.038,0.977,-0.244,169.178,-42.869,147.596
13307,0.6929,0.1450,-0.7324,-0.671,0.793,0.061,169.167,-42.874,147.596
13317,0.6943,0.1426,-0.7310,-0.244,0.305,0.427,169.167,-42.880,147.590
13327,0.6943,0.1401,-0.7310,0.183,-0.305,0.732,169.173,-42.880,147.579
13337,0.6934,0.1392,-0.7314,0.244,-0.854,0.916,169.189,-42.874,147.568
13347,0.6904,0.1426,-0.7290,0.000,-1.160,0.854,169.195,-42.869,147.552
13357,0.6885,0.1431,-0.7261,-0.305,-1.099,0.732,169.195,-42.858,147.541
13367,0.6870,0.1450,-0.7246,-0.488,-0.671,0.610,169.195,-42.852,147.530
13377,0.6875,0.1465,-0.7256,-0.549,-0.061,0.366,169.184,-42.852,147.524
13387,0.6890,0.1450,-0.7266,-0.610,0.488,0.183,169.173,-42.858,147.524
13397,0.6890,0.1470,-0.7295,-0.610,0.793,0.000,169.162,-42.869,147.524
13407,0.6904,0.1460,-0.7305,-0.671,0.732,0.000,169.151,-42.874,147.530
13417,0.6899,0.1460,-0.7300,-0.671,0.488,-0.061,169.135,-42.880,147.530
13427,0.6890,0.1470,-0.7305,-0.610,0.000,-0.061,169.124,-42.874,147.530
13437,0.6904,0.1465,-0.7324,-0.427,-0.366,0.000,169.118,-42.874,147.530
13447,0.6890,0.1465,-0.7305,-0.183,-0.549,0.000,169.113,-42.863,147.530
13457,0.6870,0.1445,-0.7275,0.183,-0.610,0.061,169.113,-42.858,147.524
13467,0.6855,0.1431,-0.7290,0.305,-0.488,0.122,169.113,-42.852,147.524
13477,0.6855,0.1421,-0.7275,0.427,-0.183,0.122,169.118,-42.852,147.519
13487,0.6860,0.1426,-0.7290,0.427,0.122,0.061,169.118,-42.852,147.519
13497,0.6851,0.1421,-0.7290,0.244,0.366,-0.061,169.118,-42.852,147.524
13507,0.6865,0.1411,-0.7319,0.000,0.549,-0.122,169.118,-42.858,147.524
13517,0.6870,0.1436,-0.7319,-0.183,0.549,-0.122,169.113,-42.858,147.530
13527,0.6890,0.1436,-0.7339,-0.122,0.305,0.000,169.107,-42.858,147.530
13537,0.6899,0.1455,-0.7310,0.244,0.183,0.122,169.107,-42.863,147.530
13547,0.6875,0.1445,-0.7324,0.671,-0.122,0.183,169.113,-42.858,147.524
13557,0.6899,0.1426,-0.7290,0.854,-0.244,0.244,169.124,-42.858,147.519
13567,0.6904,0.1416,-0.7295,0.793,-0.244,0.183,169.129,-42.858,147.519
13577,0.6909,0.1382,-0.7271,0.305,-0.244,0.000,169.135,-42.852,147.519
13587,0.6909,0.1387,-0.7285,-0.183,-0.183,-0.183,169.135,-42.852,147.519
13597,0.6934,0.1396,-0.7300,-0.610,-0.061,-0.305,169.124,-42.852,147.524
13607,0.6924,0.1411,-0.7310,-0.671,-0.122,-0.183,169.118,-42.852,147.524
13617,0.6909,0.1421,-0.7280,-0.366,-0.122,0.122,169.113,-42.852,147.524
13627,0.6880,0.1426,-0.7271,0.122,-0.122,0.427,169.118,-42.852,147.519
13637,0.6875,0.1411,-0.7275,0.549,-0.183,0.671,169.129,-42.852,147.508
13647,0.6865,0.1426,-0.7261,0.793,-0.183,0.854,169.140,-42.852,147.497
13657,0.6885,0.1421,-0.7300,0.732,-0.061,0.854,169.156,-42.852,147.486
13667,0.6919,0.1406,-0.7290,0.488,0.183,0.732,169.162,-42.858,147.475
13677,0.6919,0.1406,-0.7310,0.061,0.427,0.549,169.167,-42.863,147.469
13687,0.6929,0.1411,-0.7295,-0.427,0.427,0.305,169.167,-42.869,147.464
13697,0.6948,0.1436,-0.7314,-0.793,0.244,0.183,169.156,-42.874,147.464
13707,0.6924,0.1436,-0.7324,-0.916,-0.061,0.122,169.146,-42.874,147.464
13717,0.6904,0.1460,-0.7280,-0.671,-0.366,0.244,169.135,-42.874,147.458
13728,0.6865,0.1455,-0.7300,-0.244,-0.549,0.366,169.135,-42.863,147.453
13737,0.6860,0.1436,-0.7285,0.183,-0.549,0.488,169.140,-42.858,147.442
13747,0.6851,0.1416,-0.7285,0.488,-0.366,0.488,169.146,-42.858,147.437
13757,0.6851,0.1392,-0.7290,0.549,-0.122,0.427,169.156,-42.852,147.431
13767,0.6855,0.1426,-0.7295,0.366,0.122,0.366,169.162,-42.852,147.426
13777,0.6870,0.1421,-0.7319,0.061,0.427,0.305,169.162,-42.858,147.420
13787,0.6880,0.1426,-0.7314,-0.183,0.610,0.183,169.162,-42.863,147.420
13797,0.6885,0.1450,-0.7324,-0.183,0.610,0.183,169.156,-42.869,147.420
13807,0.6870,0.1465,-0.7339,-0.061,0.549,0.183,169.151,-42.869,147.420
13817,0.6875,0.1470,-0.7319,0.183,0.305,0.305,169.151,-42.869,147.415
13827,0.6870,0.1455,-0.7310,0.427,0.061,0.244,169.151,-42.869,147.415
13837,0.6885,0.1436,-0.7300,0.610,-0.183,0.244,169.156,-42.869,147.409
13847,0.6899,0.1440,-0.7295,0.610,-0.183,0.122,169.162,-42.869,147.409
13857,0.6895,0.1406,-0.7271,0.427,-0.122,0.000,169.167,-42.863,147.409
13867,0.6904,0.1426,-0.7285,0.122,0.000,-0.122,169.162,-42.869,147.409
13877,0.6885,0.1426,-0.7275,-0.122,0.061,-0.244,169.156,-42.869,147.415
13887,0.6909,0.1421,-0.7256,-0.244,0.183,-0.305,169.151,-42.869,147.415
13897,0.6909,0.1421,-0.7271,-0.183,0.244,-0.244,169.140,-42.874,147.420
13907,0.6899,0.1431,-0.7275,0.000,0.183,-0.061,169.140,-42.874,147.420
13917,0.6899,0.1426,-0.7261,0.244,0.122,0.122,169.140,-42.880,147.420
13927,0.6890,0.1421,-0.7261,0.305,0.122,0.183,169.140,-42.880,147.420
13937,0.6875,0.1421,-0.7310,0.305,0.244,0.244,169.146,-42.880,147.415
13947,0.6865,0.1416,-0.7300,0.183,0.366,0.244,169.146,-42.885,147.415
13957,0.6865,0.1416,-0.7300,0.000,0.488,0.244,169.146,-42.891,147.409
13967,0.6875,0.1440,-0.7295,-0.244,0.488,0.183,169.140,-42.891,147.409
13977,0.6846,0.1445,-0.7314,-0.183,0.427,0.183,169.140,-42.891,147.409
13987,0.6860,0.1445,-0.7310,-0.061,0.366,0.122,169.135,-42.896,147.409
13997,0.6885,0.1440,-0.7300,0.122,0.305,0.000,169.135,-42.896,147.409
14007,0.6899,0.1431,-0.7319,0.122,0.183,-0.061,169.129,-42.896,147.409
14017,0.6899,0.1421,-0.7314,0.061,0.122,-0.183,169.129,-42.896,147.415
14027,0.6895,0.1411,-0.7295,-0.061,0.122,-0.183,169.124,-42.896,147.415
14037,0.6914,0.1411,-0.7305,-0.122,0.061,-0.244,169.124,-42.896,147.420
14047,0.6899,0.1396,-0.7295,-0.122,0.061,-0.183,169.118,-42.896,147.420
14057,0.6880,0.1406,-0.7295,-0.061,0.000,-0.122,169.118,-42.896,147.426
14067,0.6880,0.1401,-0.7300,-0.061,-0.061,0.061,169.118,-42.896,147.420
14077,0.6885,0.1416,-0.7329,0.061,-0.122,0.183,169.118,-42.891,147.420
14087,0.6890,0.1406,-0.7305,0.122,-0.122,0.244,169.124,-42.891,147.415
14097,0.6895,0.1421,-0.7290,0.183,-0.122,0.305,169.124,-42.891,147.415
14107,0.6895,0.1431,-0.7280,0.244,-0.061,0.305,169.129,-42.891,147.409
14117,0.6885,0.1431,-0.7285,0.183,0.061,0.305,169.129,-42.891,147.404
14127,0.6899,0.1450,-0.7285,0.000,0.122,0.244,169.129,-42.891,147.398
14137,0.6895,0.1440,-0.7290,-0.122,0.183,0.183,169.124,-42.896,147.398
14147,0.6904,0.1460,-0.7285,-0.183,0.183,0.183,169.118,-42.896,147.398
14157,0.6914,0.1455,-0.7266,-0.183,0.122,0.122,169.113,-42.902,147.398
14167,0.6899,0.1475,-0.7261,-0.122,0.061,0.061,169.107,-42.902,147.398
14177,0.6890,0.1445,-0.7246,-0.122,-0.061,0.000,169.102,-42.902,147.398
14187,0.6899,0.1450,-0.7271,-0.061,0.000,-0.122,169.096,-42.902,147.398
14197,0.6870,0.1450,-0.7275,0.000,0.183,-0.183,169.091,-42.902,147.398
14207,0.6851,0.1465,-0.7275,0.122,0.427,-0.183,169.085,-42.902,147.398
14217,0.6860,0.1450,-0.7295,0.366,0.671,-0.244,169.085,-42.907,147.398
14228,0.6855,0.1440,-0.7290,0.427,0.793,-0.366,169.080,-42.913,147.398
14237,0.6895,0.1431,-0.7314,0.183,0.549,-0.549,169.074,-42.918,147.398
14247,0.6914,0.1436,-0.7300,0.000,0.305,-0.427,169.069,-42.918,147.398
14257,0.6938,0.1406,-0.7319,-0.122,0.183,-0.366,169.063,-42.918,147.398
14267,0.6938,0.1392,-0.7314,-0.122,0.000,-0.305,169.063,-42.918,147.398
14277,0.6953,0.1372,-0.7319,-0.183,-0.244,-0.183,169.063,-42.918,147.398
14287,0.6938,0.1377,-0.7295,-0.366,-0.488,-0.061,169.058,-42.913,147.398
14297,0.6929,0.1392,-0.7271,-0.610,-0.610,0.061,169.058,-42.913,147.398
14307,0.6890,0.1426,-0.7246,-0.793,-0.671,0.244,169.052,-42.907,147.398
14317,0.6885,0.1431,-0.7222,-0.671,-0.549,0.305,169.047,-42.902,147.398
14328,0.6865,0.1455,-0.7246,-0.305,-0.366,0.366,169.041,-42.902,147.398
14338,0.6890,0.1484,-0.7280,0.000,0.061,0.305,169.041,-42.902,147.398
14348,0.6885,0.1465,-0.7300,0.122,0.488,0.183,169.036,-42.907,147.398
14358,0.6875,0.1479,-0.7329,0.000,0.916,0.061,169.030,-42.913,147.398
14368,0.6880,0.1489,-0.7349,-0.244,1.038,-0.122,169.019,-42.918,147.398
14378,0.6885,0.1499,-0.7349,-0.549,0.916,-0.427,169.003,-42.924,147.398
14388,0.6919,0.1504,-0.7310,-0.671,0.427,-0.549,168.986,-42.924,147.398
14398,0.6919,0.1479,-0.7300,-0.610,-0.061,-0.610,168.970,-42.924,147.398
14408,0.6924,0.1484,-0.7271,-0.366,-0.610,-0.610,168.959,-42.918,147.398
14418,0.6899,0.1460,-0.7280,0.122,-0.977,-0.427,168.953,-42.907,147.398
14428,0.6895,0.1431,-0.7236,0.427,-1.099,-0.366,168.953,-42.896,147.398
14438,0.6875,0.1440,-0.7256,0.671,-0.916,-0.244,168.959,-42.885,147.398
14448,0.6860,0.1431,-0.7241,0.610,-0.427,-0.122,168.964,-42.885,147.398
14458,0.6870,0.1465,-0.7246,0.610,0.122,0.000,168.964,-42.885,147.398
14468,0.6880,0.1450,-0.7236,0.793,0.610,0.061,168.970,-42.891,147.398
14478,0.6909,0.1455,-0.7275,0.854,0.916,0.000,168.975,-42.902,147.398
14488,0.6909,0.1440,-0.7280,0.671,0.916,-0.244,168.975,-42.913,147.398
14498,0.6938,0.1436,-0.7295,0.305,0.671,-0.366,168.970,-42.918,147.398
14508,0.6943,0.1455,-0.7280,-0.061,0.427,-0.366,168.964,-42.924,147.398
14518,0.6934,0.1479,-0.7310,-0.183,0.305,-0.244,168.953,-42.924,147.398
14528,0.6895,0.1470,-0.7310,0.061,0.183,-0.183,168.953,-42.924,147.398
14538,0.6895,0.1445,-0.7314,0.366,-0.061,-0.122,168.953,-42.924,147.398
14548,0.6890,0.1440,-0.7314,0.366,-0.305,-0.061,168.953,-42.918,147.398
14558,0.6890,0.1431,-0.7290,0.244,-0.366,-0.061,168.959,-42.913,147.398
14568,0.6880,0.1440,-0.7271,-0.061,-0.427,-0.122,168.953,-42.907,147.398
14578,0.6895,0.1436,-0.7251,-0.183,-0.305,-0.244,168.948,-42.907,147.398
14588,0.6909,0.1431,-0.7271,-0.183,-0.244,-0.305,168.942,-42.902,147.398
14598,0.6895,0.1436,-0.7271,-0.183,-0.061,-0.305,168.937,-42.902,147.398
14608,0.6895,0.1450,-0.7280,-0.061,0.183,-0.122,168.937,-42.907,147.398
14618,0.6890,0.1460,-0.7300,0.183,0.488,0.122,168.937,-42.907,147.398
14628,0.6899,0.1445,-0.7310,0.427,0.610,0.305,168.937,-42.913,147.398
14638,0.6914,0.1445,-0.7300,0.488,0.610,0.366,168.942,-42.924,147.398
14648,0.6929,0.1440,-0.7300,0.366,0.366,0.366,168.948,-42.924,147.398
14658,0.6958,0.1431,-0.7290,0.122,-0.061,0.366,168.953,-42.929,147.398
14668,0.6948,0.1426,-0.7280,-0.122,-0.366,0.183,168.953,-42.929,147.398
14678,0.6938,0.1406,-0.7271,-0.244,-0.488,0.061,168.953,-42.924,147.398
14688,0.6904,0.1416,-0.7285,-0.366,-0.549,0.061,168.953,-42.918,147.398
14698,0.6885,0.1421,-0.7275,-0.244,-0.427,0.122,168.953,-42.918,147.398
14708,0.6851,0.1440,-0.7290,-0.122,-0.244,0.183,168.953,-42.913,147.398
14718,0.6831,0.1450,-0.7271,0.000,0.061,0.305,168.953,-42.913,147.398
14728,0.6860,0.1440,-0.7285,0.183,0.305,0.549,168.959,-42.913,147.398
14738,0.6885,0.1445,-0.7261,0.305,0.427,0.671,168.964,-42.918,147.398
14748,0.6909,0.1450,-0.7295,0.366,0.366,0.732,168.970,-42.924,147.398
14758,0.6934,0.1431,-0.7305,0.305,0.122,0.671,168.981,-42.924,147.398
14768,0.6934,0.1426,-0.7300,0.061,-0.061,0.549,168.986,-42.929,147.398
14778,0.6938,0.1436,-0.7295,-0.244,-0.122,0.427,168.986,-42.929,147.398
14788,0.6904,0.1436,-0.7310,-0.488,-0.122,0.305,168.981,-42.924,147.398
14798,0.6899,0.1426,-0.7275,-0.610,-0.122,0.183,168.975,-42.924,147.398
14808,0.6890,0.1445,-0.7285,-0.610,-0.183,0.183,168.970,-42.924,147.398
14818,0.6885,0.1436,-0.7275,-0.488,-0.244,0.244,168.970,-42.918,147.398
14828,0.6899,0.1450,-0.7280,-0.244,-0.244,0.366,168.964,-42.918,147.398
14838,0.6904,0.1436,-0.7256,0.061,-0.183,0.610,168.970,-42.918,147.398
14848,0.6890,0.1450,-0.7261,0.366,-0.061,0.854,168.981,-42.918,147.398
14858,0.6870,0.1465,-0.7261,0.488,-0.061,0.916,168.992,-42.924,147.398
14868,0.6885,0.1484,-0.7271,0.610,-0.061,0.854,168.997,-42.924,147.398
14878,0.6895,0.1489,-0.7285,0.610,0.000,0.793,169.008,-42.924,147.398
14888,0.6880,0.1509,-0.7300,0.488,0.122,0.610,169.008,-42.924,147.398
14898,0.6895,0.1504,-0.7275,0.305,0.183,0.427,169.008,-42.924,147.398
14908,0.6904,0.1460,-0.7300,0.183,0.122,0.183,169.008,-42.924,147.398
14918,0.6904,0.1460,-0.7285,0.122,-0.061,0.061,169.008,-42.924,147.398
14928,0.6934,0.1460,-0.7290,0.122,-0.183,0.000,169.003,-42.924,147.398
14938,0.6938,0.1440,-0.7251,0.244,-0.244,0.122,169.008,-42.924,147.398
14948,0.6938,0.1426,-0.7261,0.488,-0.183,0.244,169.014,-42.924,147.398
14958,0.6919,0.1421,-0.7236,0.671,-0.244,0.366,169.025,-42.929,147.398
14968,0.6919,0.1416,-0.7256,0.732,-0.122,0.488,169.036,-42.929,147.398
14978,0.6919,0.1406,-0.7261,0.732,0.061,0.549,169.047,-42.929,147.398
14988,0.6924,0.1401,-0.7271,0.671,0.244,0.671,169.058,-42.935,147.398
14998,0.6934,0.1406,-0.7305,0.427,0.427,0.549,169.069,-42.940,147.398
15008,0.6929,0.1426,-0.7319,0.244,0.366,0.488,169.074,-42.946,147.398
15018,0.6938,0.1416,-0.7300,0.061,0.183,0.366,169.074,-42.951,147.398
15028,0.6934,0.1406,-0.7305,-0.122,-0.122,0.366,169.080,-42.951,147.398
15038,0.6914,0.1426,-0.7285,-0.305,-0.366,0.366,169.080,-42.946,147.398
15048,0.6909,0.1426,-0.7271,-0.366,-0.610,0.427,169.074,-42.946,147.398
15058,0.6899,0.1431,-0.7266,-0.244,-0.671,0.549,169.080,-42.940,147.398
15068,0.6865,0.1445,-0.7256,0.000,-0.549,0.549,169.080,-42.935,147.398
15078,0.6875,0.1455,-0.7261,0.244,-0.244,0.610,169.085,-42.929,147.398
15088,0.6880,0.1450,-0.7285,0.366,0.061,0.610,169.091,-42.929,147.398
15098,0.6875,0.1445,-0.7300,0.427,0.366,0.488,169.096,-42.935,147.398
15108,0.6890,0.1445,-0.7290,0.427,0.488,0.366,169.102,-42.940,147.398
15118,0.6890,0.1421,-0.7310,0.305,0.366,0.122,169.102,-42.940,147.398
15128,0.6904,0.1450,-0.7324,0.000,0.122,-0.061,169.096,-42.940,147.398
15138,0.6929,0.1465,-0.7319,-0.183,-0.183,0.000,169.091,-42.940,147.398
15148,0.6934,0.1450,-0.7295,-0.061,-0.549,0.061,169.091,-42.935,147.398
15158,0.6943,0.1421,-0.7280,0.183,-0.732,0.000,169.091,-42.929,147.398
15168,0.6929,0.1377,-0.7280,0.305,-0.732,0.000,169.096,-42.924,147.398
15178,0.6924,0.1353,-0.7266,0.183,-0.732,0.122,169.107,-42.918,147.398
15188,0.6890,0.1353,-0.7271,-0.183,-0.549,0.244,169.113,-42.913,147.398
15198,0.6899,0.1387,-0.7246,-0.427,-0.366,0.366,169.113,-42.913,147.398
15208,0.6904,0.1421,-0.7251,-0.366,-0.183,0.488,169.107,-42.913,147.398
15218,0.6904,0.1460,-0.7251,-0.061,-0.122,0.610,169.107,-42.913,147.398
15229,0.6909,0.1484,-0.7285,0.366,-0.061,0.732,169.113,-42.918,147.398
15238,0.6914,0.1514,-0.7280,0.549,-0.122,0.793,169.118,-42.918,147.398
15248,0.6919,0.1504,-0.7285,0.610,-0.183,0.610,169.124,-42.918,147.398
15258,0.6929,0.1475,-0.7324,0.427,-0.244,0.305,169.124,-42.913,147.398
15268,0.6919,0.1465,-0.7344,0.061,-0.366,-0.122,169.118,-42.907,147.398
15278,0.6919,0.1445,-0.7300,-0.427,-0.549,-0.427,169.113,-42.902,147.398
15288,0.6895,0.1455,-0.7280,-0.732,-0.610,-0.610,169.096,-42.896,147.398
15298,0.6865,0.1436,-0.7275,-0.732,-0.610,-0.549,169.080,-42.885,147.398
15308,0.6870,0.1416,-0.7256,-0.427,-0.488,-0.366,169.074,-42.880,147.398
15318,0.6855,0.1411,-0.7241,0.061,-0.305,-0.061,169.074,-42.880,147.398
15328,0.6875,0.1387,-0.7236,0.610,-0.061,0.244,169.080,-42.880,147.398
15338,0.6880,0.1377,-0.7280,0.977,0.183,0.488,169.096,-42.885,147.398
15348,0.6934,0.1367,-0.7305,0.977,0.305,0.610,169.113,-42.891,147.398
15358,0.6963,0.1372,-0.7290,0.671,0.366,0.610,169.129,-42.896,147.398
15368,0.6953,0.1387,-0.7300,0.244,0.305,0.549,169.135,-42.902,147.398
15378,0.6938,0.1406,-0.7324,-0.183,0.122,0.549,169.140,-42.907,147.398
15388,0.6924,0.1436,-0.7319,-0.366,-0.122,0.549,169.140,-42.907,147.398
15398,0.6914,0.1455,-0.7295,-0.244,-0.366,0.671,169.140,-42.902,147.398
15408,0.6890,0.1465,-0.7295,0.061,-0.732,0.793,169.140,-42.896,147.398
15418,0.6899,0.1460,-0.7261,0.488,-0.854,0.793,169.151,-42.891,147.398
15428,0.6904,0.1460,-0.7261,0.671,-0.854,0.671,169.162,-42.885,147.398
15438,0.6904,0.1470,-0.7266,0.549,-0.671,0.488,169.167,-42.880,147.398
15448,0.6904,0.1440,-0.7251,0.244,-0.427,0.305,169.167,-42.880,147.398
15458,0.6890,0.1426,-0.7251,-0.061,0.061,0.122,169.162,-42.880,147.398
15468,0.6904,0.1411,-0.7246,-0.183,0.610,-0.061,169.156,-42.885,147.398
15478,0.6875,0.1416,-0.7266,-0.183,1.038,-0.122,169.151,-42.896,147.398
15488,0.6880,0.1421,-0.7290,0.061,1.282,0.061,169.151,-42.907,147.398
15498,0.6865,0.1411,-0.7319,0.488,1.343,0.427,169.156,-42.918,147.398
15508,0.6875,0.1401,-0.7319,1.038,1.282,0.732,169.167,-42.935,147.398
15518,0.6899,0.1392,-0.7354,1.404,1.099,0.854,169.189,-42.940,147.398
15528,0.6973,0.1284,-0.7334,1.343,0.732,0.671,169.217,-42.951,147.398
15538,0.7021,0.1226,-0.7349,0.610,0.366,0.061,169.239,-42.962,147.398
15548,0.7017,0.1230,-0.7412,-0.488,0.061,-0.427,169.239,-42.962,147.398
15558,0.6973,0.1294,-0.7388,-1.587,0.183,-0.488,169.228,-42.962,147.398
15568,0.6909,0.1338,-0.7305,-1.953,0.244,-0.061,169.211,-42.962,147.398
15578,0.6860,0.1431,-0.7280,-1.404,-0.305,0.671,169.200,-42.957,147.398
15588,0.6860,0.1514,-0.7236,-0.183,-1.282,1.404,169.206,-42.951,147.376
15598,0.6860,0.1558,-0.7241,1.404,-2.258,2.319,169.228,-42.929,147.338
15608,0.6870,0.1562,-0.7197,2.869,-2.441,2.991,169.277,-42.913,147.294
15618,0.6870,0.1553,-0.7207,3.296,-2.014,2.991,169.321,-42.902,147.250
15628,0.6885,0.1553,-0.7192,2.747,-1.160,2.258,169.360,-42.896,147.217
15638,0.6875,0.1528,-0.7192,1.465,-0.366,0.977,169.371,-42.896,147.200
15648,0.6895,0.1528,-0.7192,-0.122,0.427,-0.427,169.349,-42.902,147.206
15658,0.6909,0.1553,-0.7197,-1.404,0.977,-1.526,169.305,-42.907,147.233
15668,0.6919,0.1558,-0.7217,-1.831,1.404,-2.258,169.250,-42.924,147.266
15678,0.6914,0.1538,-0.7231,-1.282,1.465,-2.319,169.200,-42.935,147.299
15688,0.6895,0.1484,-0.7217,-0.122,1.282,-1.892,169.173,-42.946,147.327
15698,0.6909,0.1411,-0.7246,1.221,0.916,-1.282,169.167,-42.951,147.349
15708,0.6885,0.1353,-0.7310,2.075,0.671,-0.732,169.184,-42.957,147.360
15718,0.6914,0.1309,-0.7354,2.319,0.610,-0.366,169.211,-42.962,147.365
15729,0.6929,0.1274,-0.7354,2.014,0.610,-0.244,169.239,-42.962,147.371
15738,0.6924,0.1255,-0.7339,1.343,0.671,-0.366,169.255,-42.968,147.376
15748,0.6934,0.1250,-0.7358,0.427,0.671,-0.488,169.266,-42.973,147.387
15758,0.6929,0.1284,-0.7339,-0.244,0.549,-0.549,169.266,-42.979,147.393
15768,0.6919,0.1299,-0.7354,-0.488,0.244,-0.366,169.266,-42.979,147.398
15778,0.6914,0.1289,-0.7358,0.549,-0.183,0.427,169.283,-42.979,147.393
15788,0.6899,0.1274,-0.7324,0.916,-0.366,0.793,169.305,-42.973,147.382
15798,0.6885,0.1289,-0.7324,0.793,-0.549,1.099,169.332,-42.968,147.365
15808,0.6865,0.1328,-0.7314,0.305,-0.732,1.404,169.354,-42.962,147.343
15818,0.6875,0.1367,-0.7280,-0.061,-0.854,1.587,169.371,-42.957,147.321
15828,0.6895,0.1416,-0.7261,-0.183,-0.854,1.709,169.382,-42.951,147.294
15838,0.6929,0.1421,-0.7256,-0.061,-0.793,1.709,169.393,-42.946,147.272
15848,0.6938,0.1450,-0.7241,0.061,-0.793,1.648,169.404,-42.946,147.250
15858,0.6929,0.1470,-0.7236,0.305,-0.671,1.648,169.409,-42.946,147.222
15868,0.6929,0.1494,-0.7207,0.549,-0.549,1.465,169.420,-42.946,147.200
15878,0.6914,0.1499,-0.7227,0.977,-0.305,1.160,169.431,-42.946,147.184
15889,0.6904,0.1479,-0.7207,1.282,0.061,0.732,169.437,-42.951,147.178
15899,0.6919,0.1426,-0.7246,1.282,0.366,0.244,169.448,-42.957,147.173
15909,0.6963,0.1396,-0.7275,0.671,0.549,-0.244,169.448,-42.962,147.178
15919,0.6978,0.1396,-0.7295,-0.183,0.488,-0.549,169.437,-42.968,147.189
15929,0.7007,0.1406,-0.7271,-0.793,0.244,-0.610,169.420,-42.979,147.195
15939,0.7007,0.1406,-0.7241,-0.793,-0.122,-0.366,169.404,-42.979,147.200
15949,0.6992,0.1382,-0.7217,-0.244,-0.427,-0.061,169.398,-42.984,147.200
15959,0.6978,0.1353,-0.7227,0.366,-0.732,0.244,169.404,-42.979,147.195
15969,0.6948,0.1338,-0.7217,0.671,-0.854,0.488,169.420,-42.979,147.189
15979,0.6982,0.1333,-0.7227,0.366,-0.916,0.671,169.431,-42.973,147.173
15989,0.6982,0.1333,-0.7266,-0.244,-0.732,0.671,169.437,-42.973,147.162
15999,0.6992,0.1367,-0.7246,-0.671,-0.366,0.488,169.437,-42.979,147.156
16009,0.6938,0.1382,-0.7280,-0.732,0.000,0.366,169.431,-42.979,147.151
16019,0.6958,0.1372,-0.7314,-0.671,0.244,0.122,169.426,-42.984,147.151
16029,0.6968,0.1367,-0.7334,-0.916,0.061,-0.122,169.415,-42.984,147.151
16039,0.6958,0.1377,-0.7310,-1.221,-0.244,-0.122,169.398,-42.984,147.156
16049,0.6943,0.1372,-0.7358,-1.404,-0.671,-0.061,169.387,-42.973,147.151
16059,0.6919,0.1387,-0.7339,-1.404,-1.038,0.000,169.371,-42.962,147.151
16069,0.6870,0.1401,-0.7339,-1.160,-1.343,0.061,169.365,-42.946,147.145
16079,0.6855,0.1396,-0.7314,-0.916,-1.587,0.244,169.360,-42.929,147.140
16089,0.6821,0.1401,-0.7319,-0.793,-1.648,0.244,169.354,-42.907,147.129
16099,0.6821,0.1416,-0.7310,-0.732,-1.526,0.183,169.349,-42.891,147.123
16109,0.6841,0.1411,-0.7310,-0.671,-1.282,0.061,169.338,-42.874,147.123
16119,0.6831,0.1401,-0.7290,-0.732,-0.977,-0.122,169.332,-42.863,147.118
16129,0.6875,0.1406,-0.7295,-0.793,-0.793,-0.366,169.316,-42.852,147.123
16139,0.6880,0.1406,-0.7314,-0.793,-0.671,-0.549,169.305,-42.841,147.129
16149,0.6919,0.1377,-0.7324,-0.854,-0.671,-0.793,169.288,-42.836,147.140
16159,0.6895,0.1367,-0.7339,-0.916,-0.732,-0.793,169.277,-42.825,147.145
16169,0.6865,0.1372,-0.7388,-0.916,-0.793,-0.793,169.266,-42.814,147.156
16179,0.6816,0.1421,-0.7397,-0.854,-0.732,-0.549,169.250,-42.797,147.162
16189,0.6792,0.1460,-0.7378,-0.366,-0.305,-0.183,169.239,-42.786,147.162
16199,0.6797,0.1499,-0.7349,0.244,0.061,0.244,169.239,-42.781,147.162
16209,0.6826,0.1514,-0.7295,0.732,-0.305,0.366,169.239,-42.781,147.151
16219,0.6831,0.1514,-0.7261,0.916,-1.404,0.122,169.244,-42.764,147.151
16229,0.6841,0.1519,-0.7241,0.854,-2.380,-0.305,169.239,-42.742,147.145
16239,0.6875,0.1475,-0.7266,0.793,-2.502,-0.732,169.239,-42.715,147.151
16249,0.6909,0.1421,-0.7241,0.671,-1.648,-1.099,169.233,-42.704,147.162
16259,0.6914,0.1382,-0.7290,0.427,-0.244,-1.282,169.228,-42.698,147.178
16269,0.6885,0.1362,-0.7271,0.061,0.977,-1.404,169.217,-42.709,147.200
16279,0.6880,0.1357,-0.7285,-0.244,1.526,-1.221,169.200,-42.726,147.217
16289,0.6855,0.1387,-0.7300,-0.244,1.343,-0.854,169.189,-42.737,147.233
16299,0.6860,0.1382,-0.7314,0.122,0.610,-0.488,169.189,-42.737,147.239
16309,0.6875,0.1396,-0.7324,0.854,-0.244,-0.061,169.195,-42.737,147.239
16319,0.6899,0.1377,-0.7344,1.587,-0.854,0.366,169.217,-42.726,147.233
16329,0.6909,0.1367,-0.7344,1.953,-1.099,0.732,169.250,-42.720,147.222
16339,0.6929,0.1362,-0.7310,1.831,-0.916,0.916,169.277,-42.715,147.206
16349,0.6924,0.1377,-0.7305,1.343,-0.488,0.977,169.299,-42.715,147.195
16359,0.6934,0.1382,-0.7319,0.793,-0.244,0.977,169.321,-42.715,147.178
16369,0.6914,0.1382,-0.7266,0.305,-0.183,0.732,169.327,-42.720,147.167
16379,0.6909,0.1406,-0.7261,-0.061,-0.427,0.488,169.332,-42.720,147.162
16389,0.6895,0.1421,-0.7231,-0.183,-0.916,0.305,169.327,-42.715,147.156
16399,0.6870,0.1440,-0.7227,0.000,-1.160,0.305,169.327,-42.709,147.145
16409,0.6846,0.1440,-0.7222,0.366,-0.854,0.427,169.327,-42.704,147.140
16419,0.6846,0.1406,-0.7236,0.916,-0.244,0.671,169.343,-42.704,147.129
16429,0.6870,0.1392,-0.7280,1.160,0.549,0.793,169.360,-42.709,147.123
16439,0.6880,0.1406,-0.7261,0.977,1.099,0.854,169.371,-42.726,147.112
16449,0.6934,0.1421,-0.7300,0.366,1.160,0.793,169.376,-42.742,147.107
16459,0.6968,0.1416,-0.7319,-0.366,0.854,0.671,169.371,-42.753,147.096
16469,0.6987,0.1401,-0.7329,-0.732,0.305,0.366,169.365,-42.759,147.096
16479,0.6982,0.1372,-0.7300,-0.916,-0.305,0.061,169.360,-42.764,147.090
16489,0.6909,0.1348,-0.7295,-0.854,-0.854,-0.061,169.354,-42.759,147.090
16499,0.6880,0.1357,-0.7295,-0.732,-1.038,0.000,169.349,-42.748,147.090
16509,0.6846,0.1353,-0.7310,-0.610,-0.793,0.244,169.349,-42.737,147.085
16519,0.6831,0.1362,-0.7300,-0.488,-0.244,0.549,169.349,-42.737,147.074
16529,0.6851,0.1367,-0.7314,-0.366,0.427,0.854,169.354,-42.742,147.063
16539,0.6860,0.1401,-0.7324,-0.305,0.793,1.160,169.354,-42.748,147.052
16549,0.6895,0.1416,-0.7329,-0.244,0.854,1.221,169.360,-42.759,147.036
16559,0.6885,0.1450,-0.7324,-0.122,0.610,1.221,169.365,-42.770,147.025
16569,0.6860,0.1440,-0.7344,0.183,0.427,0.977,169.371,-42.770,147.008
16579,0.6831,0.1436,-0.7349,0.366,0.366,0.610,169.371,-42.770,147.003
16589,0.6816,0.1421,-0.7354,0.366,0.366,0.305,169.376,-42.770,147.003
16599,0.6812,0.1431,-0.7373,0.122,0.488,0.122,169.371,-42.770,146.997
16609,0.6831,0.1401,-0.7368,-0.061,0.671,-0.061,169.371,-42.775,147.003
16619,0.6870,0.1401,-0.7334,-0.183,0.916,-0.183,169.365,-42.781,147.008
16629,0.6929,0.1377,-0.7324,-0.366,0.793,-0.244,169.354,-42.792,147.014
16639,0.7007,0.1377,-0.7305,-0.732,0.244,-0.183,169.343,-42.797,147.014
16649,0.7012,0.1372,-0.7271,-1.099,-0.488,-0.122,169.332,-42.797,147.014
16659,0.6997,0.1377,-0.7197,-1.221,-1.221,0.122,169.321,-42.797,147.008
16669,0.6929,0.1416,-0.7178,-0.854,-1.404,0.427,169.316,-42.792,147.003
16679,0.6880,0.1421,-0.7178,-0.183,-0.977,0.671,169.316,-42.786,146.992
16689,0.6816,0.1421,-0.7183,0.549,0.000,0.916,169.327,-42.792,146.975
16699,0.6807,0.1406,-0.7202,1.038,1.038,1.038,169.338,-42.803,146.964
16709,0.6821,0.1426,-0.7227,1.099,2.075,1.038,169.354,-42.825,146.959
16719,0.6890,0.1416,-0.7290,0.854,2.869,0.854,169.360,-42.852,146.953
16730,0.6968,0.1436,-0.7334,0.366,3.052,0.427,169.360,-42.885,146.953
