elapsed_ms,acc_x_g,acc_y_g,acc_z_g,gyro_x_dps,gyro_y_dps,gyro_z_dps,angle_x_deg,angle_y_deg,angle_z_deg
0,0.7402,0.0059,-0.6890,-0.122,0.122,0.000,179.846,-47.225,147.003
10,0.7397,0.0063,-0.6880,-0.061,0.000,0.000,179.841,-47.219,147.003
20,0.7422,0.0073,-0.6875,0.000,-0.061,0.061,179.835,-47.219,147.003
30,0.7422,0.0044,-0.6865,0.122,-0.183,0.000,179.835,-47.219,147.003
40,0.7422,0.0039,-0.6860,0.183,-0.183,-0.122,179.835,-47.219,147.003
50,0.7441,0.0039,-0.6841,0.183,-0.183,-0.244,179.835,-47.219,147.003
60,0.7451,0.0039,-0.6860,0.183,-0.183,-0.244,179.830,-47.219,147.003
70,0.7427,0.0029,-0.6841,0.122,-0.122,-0.244,179.830,-47.219,147.003
80,0.7417,0.0024,-0.6841,0.061,0.000,-0.305,179.824,-47.219,147.003
90,0.7422,0.0029,-0.6855,0.000,0.061,-0.183,179.824,-47.219,147.003
100,0.7417,0.0015,-0.6855,0.061,0.061,-0.122,179.824,-47.219,147.003
110,0.7412,0.0020,-0.6860,0.122,0.122,0.000,179.824,-47.225,147.003
120,0.7417,0.0034,-0.6880,0.183,0.122,0.061,179.824,-47.225,147.003
130,0.7422,0.0024,-0.6860,0.305,0.122,0.183,179.830,-47.225,147.003
140,0.7412,0.0039,-0.6865,0.244,0.122,0.244,179.835,-47.225,147.003
150,0.7427,0.0039,-0.6865,0.122,0.061,0.244,179.835,-47.225,147.003
160,0.7432,0.0039,-0.6895,0.061,0.061,0.183,179.835,-47.225,147.003
170,0.7412,0.0029,-0.6870,0.000,0.000,0.122,179.835,-47.225,147.003
180,0.7437,0.0020,-0.6860,0.000,0.000,0.061,179.835,-47.225,147.003
190,0.7437,0.0034,-0.6860,-0.061,-0.061,0.000,179.835,-47.230,147.003
200,0.7422,0.0024,-0.6851,-0.122,-0.061,0.000,179.835,-47.230,147.003
210,0.7417,0.0039,-0.6851,-0.244,-0.122,0.061,179.830,-47.225,147.003
220,0.7412,0.0059,-0.6860,-0.183,-0.183,0.122,179.824,-47.225,147.003
230,0.7417,0.0029,-0.6836,0.000,-0.122,0.183,179.830,-47.225,147.003
240,0.7412,0.0044,-0.6860,0.183,-0.061,0.244,179.830,-47.225,147.003
250,0.7427,0.0034,-0.6851,0.244,0.000,0.305,179.835,-47.225,147.003
261,0.7427,0.0039,-0.6860,0.183,0.061,0.305,179.841,-47.225,147.003
270,0.7432,0.0039,-0.6865,0.183,0.061,0.122,179.841,-47.230,147.003
280,0.7422,0.0020,-0.6899,0.122,0.122,0.000,179.841,-47.230,147.003
290,0.7417,0.0034,-0.6865,0.061,0.183,-0.122,179.841,-47.230,147.003
300,0.7402,0.0063,-0.6880,-0.122,0.244,-0.183,179.830,-47.230,147.003
310,0.7407,0.0063,-0.6875,-0.183,0.244,-0.244,179.824,-47.230,147.003
320,0.7432,0.0059,-0.6865,-0.122,0.122,-0.244,179.819,-47.236,147.003
330,0.7437,0.0039,-0.6890,0.061,0.061,-0.244,179.813,-47.236,147.003
340,0.7437,0.0020,-0.6875,0.122,0.000,-0.244,179.813,-47.236,147.003
352,0.7441,-0.0005,-0.6865,0.061,-0.122,-0.183,-179.956,-47.236,147.003
360,0.7427,-0.0005,-0.6860,-0.122,-0.183,-0.122,-179.962,-47.230,147.003
370,0.7432,0.0010,-0.6870,-0.244,-0.183,-0.061,179.918,-47.230,147.003
380,0.7432,0.0010,-0.6875,-0.305,-0.061,-0.061,179.912,-47.230,147.003
390,0.7402,0.0010,-0.6846,-0.183,0.061,-0.061,179.912,-47.230,147.003
400,0.7412,0.0034,-0.6860,-0.122,0.122,-0.061,179.907,-47.230,147.003
410,0.7407,0.0044,-0.6890,-0.183,0.061,-0.061,179.901,-47.230,147.003
420,0.7422,0.0039,-0.6860,-0.122,0.061,-0.122,179.896,-47.236,147.003
430,0.7407,0.0073,-0.6860,-0.061,0.000,-0.183,179.890,-47.230,147.003
440,0.7407,0.0049,-0.6836,0.061,-0.061,-0.122,179.885,-47.230,147.003
450,0.7407,0.0054,-0.6851,-0.061,-0.183,-0.122,179.879,-47.230,147.003
460,0.7412,0.0059,-0.6875,-0.122,-0.244,-0.183,179.874,-47.230,147.003
470,0.7412,0.0049,-0.6855,-0.061,-0.305,-0.183,179.868,-47.225,147.003
480,0.7402,0.0044,-0.6880,0.000,-0.305,-0.183,179.863,-47.219,147.003
490,0.7422,0.0029,-0.6865,0.000,-0.183,-0.183,179.857,-47.219,147.003
500,0.7402,0.0034,-0.6846,0.061,0.000,-0.183,179.857,-47.219,147.003
510,0.7422,0.0015,-0.6826,0.183,0.122,-0.244,179.857,-47.225,147.003
520,0.7432,0.0039,-0.6855,0.183,0.183,-0.244,179.852,-47.225,147.003
530,0.7446,0.0039,-0.6846,0.122,0.183,-0.244,179.852,-47.230,147.003
540,0.7432,0.0029,-0.6860,0.061,0.183,-0.244,179.846,-47.230,147.003
550,0.7446,0.0034,-0.6860,0.122,0.183,-0.183,179.846,-47.236,147.003
560,0.7432,0.0034,-0.6855,0.122,0.122,-0.183,179.841,-47.236,147.003
570,0.7437,0.0029,-0.6885,0.183,0.122,-0.122,179.841,-47.236,147.003
580,0.7412,0.0034,-0.6890,0.122,0.122,-0.061,179.841,-47.236,147.003
590,0.7383,0.0034,-0.6870,0.061,0.061,-0.061,179.841,-47.236,147.003
600,0.7388,0.0034,-0.6875,-0.061,0.061,0.000,179.841,-47.236,147.003
610,0.7427,0.0020,-0.6885,0.061,0.061,0.122,179.841,-47.236,147.003
620,0.7402,0.0015,-0.6865,0.244,0.061,0.122,179.846,-47.236,147.003
630,0.7393,0.0010,-0.6851,0.244,0.122,0.122,179.852,-47.236,147.003
640,0.7397,0.0029,-0.6870,0.061,0.183,0.183,179.852,-47.236,147.003
650,0.7412,0.0034,-0.6860,-0.061,0.183,0.244,179.852,-47.241,147.003
660,0.7422,0.0024,-0.6875,0.000,0.061,0.183,179.852,-47.241,147.003
670,0.7412,0.0024,-0.6870,0.122,0.000,0.244,179.857,-47.241,147.003
680,0.7427,0.0029,-0.6855,0.305,0.000,0.244,179.863,-47.241,147.003
690,0.7441,0.0034,-0.6846,0.305,-0.061,0.305,179.863,-47.241,147.003
700,0.7427,0.0024,-0.6851,0.122,-0.244,0.244,179.868,-47.241,147.003
710,0.7437,0.0020,-0.6841,-0.122,-0.366,0.244,179.868,-47.236,147.003
720,0.7432,0.0024,-0.6855,-0.183,-0.366,0.183,179.868,-47.236,147.003
730,0.7451,0.0020,-0.6841,-0.305,-0.244,0.183,179.868,-47.236,147.003
740,0.7407,0.0034,-0.6836,-0.183,-0.122,0.244,179.868,-47.236,147.003
750,0.7397,0.0039,-0.6836,-0.061,0.000,0.305,179.868,-47.236,147.003
761,0.7417,0.0034,-0.6846,0.061,0.061,0.366,179.868,-47.236,147.003
770,0.7417,0.0039,-0.6846,0.122,0.244,0.366,179.874,-47.236,147.003
780,0.7407,0.0049,-0.6855,0.244,0.427,0.366,179.879,-47.241,147.003
790,0.7407,0.0039,-0.6870,0.183,0.488,0.305,179.879,-47.247,147.003
800,0.7427,0.0044,-0.6870,0.122,0.366,0.122,179.879,-47.252,147.003
810,0.7422,0.0054,-0.6885,0.000,0.305,0.000,179.879,-47.252,147.003
820,0.7422,0.0039,-0.6899,-0.122,0.122,-0.122,179.874,-47.252,147.003
830,0.7427,0.0059,-0.6870,-0.183,-0.061,-0.183,179.863,-47.252,147.003
840,0.7422,0.0039,-0.6855,-0.122,-0.183,-0.183,179.857,-47.247,147.003
850,0.7437,0.0044,-0.6870,0.000,-0.244,-0.183,179.857,-47.247,147.003
860,0.7422,0.0049,-0.6865,0.061,-0.244,-0.244,179.852,-47.247,147.003
870,0.7432,0.0029,-0.6865,0.122,-0.183,-0.244,179.846,-47.241,147.003
880,0.7417,0.0044,-0.6870,0.183,-0.122,-0.244,179.846,-47.241,147.003
890,0.7412,0.0034,-0.6855,0.244,0.000,-0.244,179.846,-47.241,147.003
900,0.7422,0.0010,-0.6851,0.244,0.122,-0.244,179.846,-47.241,147.003
910,0.7412,0.0015,-0.6841,0.183,0.183,-0.305,179.841,-47.247,147.003
920,0.7437,0.0024,-0.6841,0.061,0.244,-0.305,179.841,-47.252,147.003
930,0.7437,0.0034,-0.6841,0.000,0.183,-0.305,179.835,-47.252,147.003
940,0.7402,0.0024,-0.6826,0.000,0.122,-0.244,179.830,-47.258,147.003
950,0.7412,0.0024,-0.6826,0.000,0.122,-0.183,179.830,-47.258,147.003
960,0.7437,0.0029,-0.6841,0.000,0.061,-0.061,179.830,-47.258,147.003
970,0.7422,0.0034,-0.6836,0.122,0.061,-0.061,179.830,-47.263,147.003
980,0.7402,0.0015,-0.6875,0.183,0.000,-0.061,179.830,-47.258,147.003
991,0.7402,0.0024,-0.6860,0.183,0.000,-0.061,179.830,-47.258,147.003
1000,0.7407,0.0029,-0.6870,0.122,0.000,-0.061,179.830,-47.258,147.003
1010,0.7402,0.0024,-0.6855,0.000,0.000,-0.122,179.830,-47.258,147.003
1021,0.7407,0.0029,-0.6846,-0.122,0.000,-0.183,179.824,-47.258,147.003
1031,0.7412,0.0024,-0.6841,-0.122,0.000,-0.244,179.819,-47.258,147.003
1041,0.7427,0.0029,-0.6865,-0.122,0.000,-0.244,179.813,-47.258,147.003
1050,0.7422,0.0015,-0.6860,-0.061,0.000,-0.183,179.813,-47.258,147.003
1061,0.7412,0.0029,-0.6870,0.000,-0.061,-0.122,179.813,-47.258,147.003
1071,0.7397,0.0020,-0.6855,0.000,-0.061,-0.061,179.813,-47.258,147.003
1081,0.7402,0.0034,-0.6870,0.061,-0.061,0.000,179.813,-47.252,147.003
1090,0.7422,0.0015,-0.6865,0.000,0.000,0.000,179.813,-47.252,147.003
1101,0.7427,0.0029,-0.6855,0.061,0.000,0.061,179.813,-47.252,147.003
1111,0.7441,0.0024,-0.6865,0.122,0.061,0.061,179.813,-47.258,147.003
1121,0.7432,0.0039,-0.6865,0.061,0.122,0.061,179.813,-47.258,147.003
1131,0.7432,0.0029,-0.6860,-0.061,0.061,0.000,179.813,-47.258,147.003
1140,0.7432,0.0044,-0.6855,-0.061,0.000,0.000,179.808,-47.258,147.003
1151,0.7412,0.0034,-0.6855,0.122,0.061,-0.061,179.808,-47.258,147.003
1161,0.7417,0.0029,-0.6860,0.244,0.183,-0.122,179.808,-47.263,147.003
1171,0.7402,0.0049,-0.6865,0.183,0.244,-0.244,179.808,-47.263,147.003
1181,0.7412,0.0054,-0.6870,0.122,0.122,-0.366,179.802,-47.263,147.003
1191,0.7422,0.0039,-0.6870,0.000,0.061,-0.366,179.797,-47.263,147.003
1201,0.7427,0.0039,-0.6841,-0.061,0.061,-0.488,179.791,-47.263,147.003
1211,0.7427,0.0024,-0.6831,-0.122,0.000,-0.488,179.786,-47.269,147.003
1221,0.7432,0.0015,-0.6860,-0.122,-0.122,-0.427,179.780,-47.263,147.003
1231,0.7412,0.0010,-0.6836,-0.183,-0.305,-0.305,179.775,-47.263,147.003
1241,0.7417,0.0005,-0.6860,-0.244,-0.305,-0.122,179.775,-47.258,147.003
1251,0.7417,-0.0010,-0.6880,-0.183,-0.183,0.061,-179.918,-47.258,147.003
1262,0.7427,0.0005,-0.6860,0.000,0.061,0.183,179.956,-47.258,147.003
1271,0.7432,0.0015,-0.6860,0.122,0.244,0.305,179.962,-47.263,147.003
1281,0.7451,0.0029,-0.6885,0.122,0.305,0.305,179.962,-47.263,147.003
1291,0.7422,0.0034,-0.6880,-0.061,0.244,0.183,179.962,-47.263,147.003
1301,0.7402,0.0039,-0.6914,-0.183,0.122,0.061,179.956,-47.263,147.003
1311,0.7407,0.0078,-0.6870,-0.244,-0.061,-0.061,179.951,-47.263,147.003
1321,0.7417,0.0073,-0.6875,-0.183,-0.244,-0.183,179.940,-47.258,147.003
1331,0.7422,0.0059,-0.6870,-0.122,-0.366,-0.183,179.929,-47.252,147.003
1341,0.7407,0.0063,-0.6860,-0.122,-0.427,-0.244,179.923,-47.252,147.003
1351,0.7402,0.0063,-0.6865,-0.122,-0.427,-0.244,179.912,-47.247,147.003
1361,0.7393,0.0054,-0.6851,0.000,-0.305,-0.244,179.907,-47.241,147.003
1371,0.7393,0.0039,-0.6836,0.061,-0.122,-0.244,179.901,-47.241,147.003
1381,0.7417,0.0029,-0.6841,0.122,0.000,-0.183,179.901,-47.241,147.003
1391,0.7437,0.0039,-0.6836,0.244,0.122,-0.122,179.901,-47.247,147.003
1401,0.7437,0.0015,-0.6841,0.305,0.244,0.000,179.901,-47.247,147.003
1411,0.7437,-0.0010,-0.6851,0.366,0.305,0.000,-179.918,-47.252,147.003
1421,0.7441,0.0015,-0.6851,0.305,0.244,0.061,179.874,-47.258,147.003
1431,0.7446,0.0010,-0.6860,0.244,0.244,0.061,179.879,-47.258,147.003
1441,0.7427,0.0005,-0.6885,0.061,0.183,0.061,179.879,-47.258,147.003
1451,0.7422,0.0015,-0.6855,0.000,0.183,0.122,179.879,-47.263,147.003
1461,0.7417,0.0029,-0.6885,-0.061,0.183,0.061,179.879,-47.263,147.003
1471,0.7417,0.0029,-0.6880,-0.122,0.122,0.122,179.879,-47.263,147.003
1481,0.7393,0.0049,-0.6890,-0.122,0.000,0.244,179.879,-47.263,147.003
1491,0.7388,0.0034,-0.6890,0.061,-0.183,0.305,179.879,-47.258,147.003
1501,0.7373,0.0020,-0.6860,0.183,-0.122,0.366,179.885,-47.252,147.003
1511,0.7393,0.0010,-0.6880,0.244,0.000,0.488,179.896,-47.252,147.003
1521,0.7393,0.0039,-0.6895,0.244,0.061,0.488,179.901,-47.252,147.003
1531,0.7412,0.0049,-0.6885,0.305,0.122,0.427,179.901,-47.252,147.003
1541,0.7437,0.0044,-0.6875,0.244,0.061,0.366,179.907,-47.252,147.003
1551,0.7446,0.0044,-0.6885,0.244,0.061,0.305,179.912,-47.252,147.003
1561,0.7441,0.0039,-0.6890,0.122,0.061,0.244,179.912,-47.252,147.003
1571,0.7451,0.0054,-0.6890,-0.061,-0.061,0.183,179.907,-47.252,147.003
1581,0.7451,0.0020,-0.6851,-0.122,-0.244,0.183,179.907,-47.252,147.003
1591,0.7427,0.0034,-0.6831,-0.183,-0.366,0.183,179.907,-47.247,147.003
1601,0.7417,0.0029,-0.6836,-0.183,-0.427,0.244,179.907,-47.247,147.003
1611,0.7407,0.0034,-0.6841,-0.061,-0.244,0.305,179.907,-47.241,147.003
1621,0.7412,0.0024,-0.6846,0.061,-0.122,0.366,179.912,-47.241,147.003
1631,0.7383,0.0024,-0.6870,0.061,0.061,0.366,179.912,-47.241,147.003
1641,0.7388,0.0020,-0.6855,0.061,0.244,0.305,179.918,-47.241,147.003
1651,0.7407,0.0054,-0.6855,0.061,0.488,0.305,179.918,-47.247,147.003
1661,0.7407,0.0088,-0.6860,0.122,0.549,0.305,179.918,-47.252,147.003
1671,0.7407,0.0078,-0.6880,0.183,0.610,0.244,179.912,-47.258,147.003
1681,0.7417,0.0063,-0.6880,0.183,0.549,0.122,179.912,-47.263,147.003
1691,0.7412,0.0034,-0.6895,0.122,0.244,0.000,179.912,-47.263,147.003
1701,0.7422,0.0024,-0.6875,0.000,0.061,-0.061,179.912,-47.263,147.003
1711,0.7441,0.0039,-0.6890,-0.122,-0.183,-0.183,179.907,-47.258,147.003
1721,0.7427,0.0024,-0.6875,-0.183,-0.305,-0.244,179.901,-47.258,147.003
1731,0.7441,0.0015,-0.6851,-0.183,-0.427,-0.305,179.896,-47.252,147.003
1741,0.7417,0.0000,-0.6826,-0.061,-0.366,-0.305,179.890,-47.252,147.003
1751,0.7417,0.0020,-0.6846,0.061,-0.244,-0.244,179.890,-47.252,147.003
1762,0.7427,0.0020,-0.6812,0.183,-0.122,-0.183,179.885,-47.252,147.003
1771,0.7422,0.0015,-0.6831,0.305,0.122,-0.122,179.890,-47.252,147.003
1781,0.7417,0.0020,-0.6860,0.366,0.305,-0.122,179.890,-47.258,147.003
1791,0.7427,0.0010,-0.6821,0.305,0.427,-0.061,179.896,-47.263,147.003
1801,0.7422,-0.0005,-0.6870,0.244,0.427,0.000,-179.956,-47.269,147.003
1811,0.7432,0.0010,-0.6860,0.122,0.366,0.000,179.918,-47.269,147.003
1821,0.7422,0.0015,-0.6875,0.061,0.305,0.000,179.918,-47.274,147.003
1831,0.7422,0.0010,-0.6885,0.061,0.183,0.000,179.918,-47.274,147.003
1841,0.7432,0.0039,-0.6870,0.061,0.061,0.000,179.912,-47.274,147.003
1851,0.7412,0.0034,-0.6865,0.000,-0.061,0.000,179.912,-47.274,147.003
1861,0.7427,0.0024,-0.6860,-0.061,-0.061,0.000,179.912,-47.274,147.003
1871,0.7432,0.0010,-0.6860,-0.122,-0.122,-0.061,179.907,-47.269,147.003
1881,0.7441,0.0020,-0.6870,-0.122,-0.061,-0.061,179.907,-47.269,147.003
1891,0.7407,0.0039,-0.6831,0.000,-0.061,-0.061,179.901,-47.269,147.003
1901,0.7422,0.0024,-0.6831,0.061,0.122,-0.061,179.901,-47.274,147.003
1911,0.7427,0.0020,-0.6851,0.122,0.122,-0.061,179.901,-47.274,147.003
1921,0.7427,0.0010,-0.6851,0.183,0.183,-0.061,179.901,-47.274,147.003
1931,0.7437,-0.0010,-0.6870,0.122,0.183,-0.061,-179.918,-47.280,147.003
1941,0.7451,-0.0005,-0.6865,0.122,0.061,-0.061,-179.918,-47.280,147.003
1951,0.7437,0.0020,-0.6880,0.061,0.061,-0.061,179.835,-47.280,147.003
1961,0.7407,0.0034,-0.6865,-0.061,0.000,0.000,179.835,-47.280,147.003
1971,0.7407,0.0010,-0.6851,-0.122,-0.061,0.061,179.835,-47.280,147.003
1981,0.7407,0.0000,-0.6865,-0.061,-0.061,0.061,179.835,-47.280,147.003
1991,0.7407,0.0015,-0.6865,0.000,-0.061,0.122,179.835,-47.274,147.003
2001,0.7422,0.0015,-0.6831,0.061,0.061,0.183,179.841,-47.280,147.003
2011,0.7417,0.0020,-0.6865,0.122,0.061,0.183,179.841,-47.280,147.003
2021,0.7402,0.0010,-0.6895,0.122,0.122,0.183,179.846,-47.274,147.003
2031,0.7427,0.0010,-0.6855,0.061,0.122,0.183,179.852,-47.280,147.003
2041,0.7427,0.0005,-0.6870,0.061,0.061,0.061,179.852,-47.280,147.003
2051,0.7432,0.0029,-0.6855,-0.061,0.061,0.000,179.852,-47.280,147.003
2061,0.7412,0.0049,-0.6865,-0.122,-0.061,-0.061,179.846,-47.280,147.003
2071,0.7417,0.0049,-0.6851,0.000,-0.122,-0.122,179.841,-47.280,147.003
2081,0.7417,0.0049,-0.6875,0.183,0.000,-0.183,179.841,-47.274,147.003
2091,0.7422,0.0059,-0.6855,0.183,0.061,-0.183,179.835,-47.274,147.003
2101,0.7427,0.0049,-0.6855,0.183,0.061,-0.244,179.835,-47.280,147.003
2111,0.7437,0.0024,-0.6831,0.061,0.061,-0.183,179.830,-47.280,147.003
2121,0.7446,0.0020,-0.6860,0.000,0.122,-0.183,179.830,-47.280,147.003
2131,0.7461,0.0015,-0.6860,0.000,0.061,-0.122,179.830,-47.285,147.003
2141,0.7466,-0.0010,-0.6865,0.000,-0.061,-0.061,-179.918,-47.285,147.003
2151,0.7427,-0.0015,-0.6851,-0.061,-0.183,0.061,-179.918,-47.285,147.003
2161,0.7412,-0.0015,-0.6870,-0.183,-0.122,0.183,-179.912,-47.280,147.003
2171,0.7407,0.0024,-0.6846,-0.183,-0.061,0.244,179.791,-47.280,147.003
2181,0.7393,0.0024,-0.6855,-0.122,0.061,0.366,179.797,-47.280,147.003
2191,0.7402,0.0039,-0.6885,0.000,0.183,0.305,179.797,-47.280,147.003
2201,0.7412,0.0044,-0.6870,0.000,0.244,0.244,179.797,-47.280,147.003
2211,0.7422,0.0049,-0.6890,-0.061,0.244,0.122,179.797,-47.280,147.003
2221,0.7417,0.0073,-0.6880,-0.122,0.061,-0.061,179.791,-47.280,147.003
2231,0.7378,0.0078,-0.6875,-0.122,-0.244,-0.366,179.780,-47.274,147.003
2241,0.7412,0.0078,-0.6875,-0.061,-0.305,-0.488,179.769,-47.274,147.003
2251,0.7397,0.0049,-0.6846,0.000,-0.366,-0.610,179.764,-47.269,147.003
2262,0.7393,0.0039,-0.6826,-0.061,-0.305,-0.610,179.753,-47.263,147.003
2271,0.7417,0.0039,-0.6851,-0.061,-0.244,-0.610,179.747,-47.263,147.003
2281,0.7412,0.0000,-0.6836,0.000,-0.061,-0.549,179.742,-47.263,147.003
2291,0.7412,0.0024,-0.6816,0.122,0.061,-0.427,179.742,-47.263,147.003
2301,0.7427,0.0029,-0.6846,0.305,0.183,-0.305,179.742,-47.269,147.003
2311,0.7432,0.0034,-0.6816,0.488,0.305,-0.244,179.742,-47.274,147.003
2321,0.7422,0.0015,-0.6855,0.549,0.305,-0.183,179.747,-47.274,147.003
2331,0.7417,0.0020,-0.6851,0.549,0.427,-0.183,179.753,-47.280,147.003
2341,0.7441,0.0029,-0.6860,0.427,0.488,-0.183,179.753,-47.285,147.003
2353,0.7427,0.0049,-0.6885,0.244,0.549,-0.244,179.753,-47.291,147.003
2361,0.7427,0.0029,-0.6880,0.122,0.427,-0.244,179.753,-47.296,147.003
2371,0.7441,0.0024,-0.6860,-0.122,0.305,-0.366,179.747,-47.296,147.003
2381,0.7422,0.0010,-0.6870,-0.183,0.244,-0.305,179.742,-47.296,147.003
2391,0.7441,0.0000,-0.6865,-0.061,0.000,-0.244,179.742,-47.302,147.003
2401,0.7437,0.0005,-0.6875,0.061,-0.183,-0.244,179.742,-47.296,147.003
2411,0.7432,0.0005,-0.6890,0.183,-0.244,-0.183,179.742,-47.291,147.003
2421,0.7407,-0.0005,-0.6870,0.122,-0.183,-0.122,-179.956,-47.291,147.003
2431,0.7422,0.0000,-0.6851,0.061,-0.061,-0.061,-180.000,-47.291,147.003
2441,0.7437,0.0020,-0.6865,0.061,0.000,0.061,179.995,-47.291,147.003
2451,0.7437,0.0029,-0.6855,0.305,0.183,0.122,-180.000,-47.291,147.003
2461,0.7441,0.0049,-0.6851,0.427,0.305,0.122,-180.000,-47.296,147.003
2471,0.7441,0.0029,-0.6855,0.427,0.183,0.122,-179.995,-47.296,147.003
2481,0.7451,0.0034,-0.6860,0.305,0.061,0.122,-179.995,-47.302,147.003
2491,0.7446,0.0049,-0.6875,0.061,-0.122,0.061,-180.000,-47.296,147.003
2501,0.7422,0.0059,-0.6870,-0.122,-0.183,-0.061,179.995,-47.296,147.003
2511,0.7432,0.0054,-0.6865,-0.183,-0.122,-0.122,179.989,-47.296,147.003
2521,0.7427,0.0034,-0.6855,-0.183,0.000,-0.183,179.984,-47.296,147.003
2531,0.7417,0.0020,-0.6831,-0.183,0.061,-0.244,179.973,-47.296,147.003
2541,0.7412,0.0059,-0.6836,-0.183,0.122,-0.244,179.967,-47.296,147.003
2551,0.7422,0.0034,-0.6851,-0.061,0.183,-0.183,179.962,-47.296,147.003
2561,0.7422,0.0024,-0.6836,0.000,0.183,-0.122,179.956,-47.302,147.003
2571,0.7412,0.0034,-0.6870,0.122,0.305,-0.122,179.956,-47.302,147.003
2581,0.7422,0.0029,-0.6885,0.122,0.366,-0.183,179.951,-47.307,147.003
2591,0.7427,0.0024,-0.6870,0.122,0.305,-0.183,179.951,-47.307,147.003
2601,0.7437,0.0044,-0.6851,0.061,0.183,-0.244,179.945,-47.313,147.003
2611,0.7441,0.0044,-0.6865,0.061,0.122,-0.244,179.940,-47.313,147.003
2621,0.7432,0.0039,-0.6855,0.061,0.122,-0.366,179.934,-47.313,147.003
2631,0.7412,0.0068,-0.6860,0.061,0.000,-0.427,179.923,-47.313,147.003
2641,0.7422,0.0078,-0.6851,0.122,0.000,-0.488,179.912,-47.313,147.003
2651,0.7417,0.0073,-0.6860,0.122,0.000,-0.488,179.907,-47.313,147.003
2661,0.7412,0.0073,-0.6841,0.244,0.061,-0.549,179.896,-47.313,147.003
2671,0.7432,0.0063,-0.6841,0.305,0.061,-0.671,179.890,-47.313,147.003
2681,0.7427,0.0054,-0.6851,0.305,0.061,-0.671,179.879,-47.313,147.003
2691,0.7441,0.0034,-0.6855,0.244,0.122,-0.793,179.874,-47.313,147.003
2701,0.7461,0.0029,-0.6831,0.183,0.122,-0.793,179.863,-47.318,147.003
2711,0.7417,0.0029,-0.6841,0.061,0.122,-0.854,179.857,-47.318,147.003
2721,0.7422,0.0024,-0.6855,0.061,0.183,-0.854,179.846,-47.324,147.003
2731,0.7422,0.0015,-0.6836,0.122,0.244,-0.854,179.841,-47.324,147.003
2741,0.7422,0.0024,-0.6831,0.183,0.244,-0.793,179.830,-47.329,147.003
2751,0.7432,0.0044,-0.6855,0.305,0.305,-0.671,179.824,-47.329,147.003
2762,0.7422,0.0044,-0.6851,0.366,0.244,-0.549,179.819,-47.335,147.003
2771,0.7427,0.0024,-0.6831,0.305,0.244,-0.488,179.819,-47.335,147.003
2781,0.7432,0.0024,-0.6846,0.305,0.244,-0.427,179.819,-47.340,147.003
2791,0.7427,0.0034,-0.6860,0.305,0.183,-0.427,179.813,-47.340,147.003
2801,0.7422,0.0024,-0.6860,0.183,0.061,-0.427,179.813,-47.340,147.003
2811,0.7427,0.0024,-0.6846,0.061,0.061,-0.427,179.808,-47.340,147.003
2821,0.7441,0.0044,-0.6841,-0.061,0.000,-0.427,179.802,-47.340,147.003
2831,0.7441,0.0029,-0.6841,-0.061,0.000,-0.366,179.797,-47.340,147.003
2841,0.7441,0.0034,-0.6855,-0.061,0.000,-0.366,179.791,-47.340,147.003
2851,0.7441,0.0029,-0.6875,0.000,0.000,-0.244,179.786,-47.340,147.003
2862,0.7451,0.0034,-0.6851,0.061,0.061,-0.183,179.786,-47.340,147.003
2871,0.7427,0.0054,-0.6870,0.061,0.000,-0.122,179.780,-47.340,147.003
2881,0.7427,0.0054,-0.6846,0.000,0.000,0.000,179.780,-47.340,147.003
2892,0.7441,0.0039,-0.6870,0.000,0.061,0.061,179.780,-47.340,147.003
2901,0.7417,0.0039,-0.6880,0.122,0.000,0.061,179.780,-47.340,147.003
2912,0.7427,0.0044,-0.6870,0.244,0.061,0.000,179.780,-47.340,147.003
2922,0.7427,0.0049,-0.6851,0.061,0.122,0.061,179.780,-47.340,147.003
2932,0.7422,0.0059,-0.6870,-0.122,0.183,0.000,179.775,-47.340,147.003
2942,0.7422,0.0044,-0.6846,-0.183,0.244,0.000,179.775,-47.346,147.003
2952,0.7417,0.0049,-0.6860,-0.183,0.122,0.000,179.769,-47.346,147.003
2962,0.7412,0.0049,-0.6855,-0.183,0.061,-0.061,179.764,-47.346,147.003
2971,0.7422,0.0059,-0.6875,-0.122,0.000,0.000,179.758,-47.340,147.003
2982,0.7427,0.0073,-0.6855,0.122,-0.061,0.000,179.758,-47.340,147.003
2992,0.7412,0.0049,-0.6875,0.305,-0.061,-0.061,179.758,-47.340,147.003
3002,0.7417,0.0054,-0.6855,0.183,0.061,-0.183,179.758,-47.340,147.003
3012,0.7412,0.0059,-0.6855,0.061,0.061,-0.244,179.753,-47.340,147.003
3022,0.7407,0.0054,-0.6860,0.000,0.122,-0.183,179.747,-47.340,147.003
3032,0.7402,0.0020,-0.6851,0.061,0.122,-0.183,179.747,-47.340,147.003
3042,0.7427,0.0015,-0.6860,0.183,0.122,-0.183,179.747,-47.340,147.003
3052,0.7441,0.0020,-0.6855,0.122,0.000,-0.122,179.747,-47.340,147.003
3062,0.7451,-0.0010,-0.6860,-0.244,-0.244,0.061,-179.918,-47.335,147.003
3072,0.7437,0.0010,-0.6865,-0.488,-0.305,0.183,179.918,-47.335,147.003
3082,0.7437,0.0044,-0.6841,-0.427,-0.305,0.427,179.912,-47.329,147.003
3092,0.7446,0.0044,-0.6851,-0.122,-0.122,0.610,179.918,-47.329,147.003
3102,0.7437,0.0044,-0.6865,0.183,0.000,0.732,179.923,-47.329,147.003
3112,0.7427,0.0049,-0.6870,0.366,0.244,0.610,179.929,-47.335,147.003
3122,0.7427,0.0039,-0.6890,0.122,0.305,0.427,179.934,-47.335,147.003
3132,0.7437,0.0073,-0.6890,-0.244,0.366,0.122,179.929,-47.335,147.003
3142,0.7437,0.0078,-0.6885,-0.549,0.244,-0.061,179.912,-47.335,147.003
3152,0.7427,0.0107,-0.6880,-0.610,0.122,-0.183,179.896,-47.335,147.003
3162,0.7417,0.0098,-0.6851,-0.549,-0.183,-0.183,179.885,-47.335,147.003
3172,0.7402,0.0088,-0.6846,-0.305,-0.366,-0.183,179.874,-47.329,147.003
3182,0.7422,0.0088,-0.6816,0.000,-0.488,-0.122,179.863,-47.324,147.003
3192,0.7422,0.0078,-0.6836,0.183,-0.488,0.000,179.863,-47.324,147.003
3202,0.7422,0.0054,-0.6836,0.244,-0.366,0.122,179.863,-47.318,147.003
3212,0.7417,0.0049,-0.6821,0.244,-0.061,0.122,179.863,-47.318,147.003
3222,0.7437,0.0049,-0.6816,0.305,0.061,0.061,179.863,-47.324,147.003
3232,0.7441,0.0063,-0.6855,0.244,0.183,0.061,179.863,-47.324,147.003
3242,0.7451,0.0044,-0.6836,0.183,0.305,0.061,179.863,-47.329,147.003
3252,0.7441,0.0034,-0.6860,0.183,0.305,0.122,179.863,-47.329,147.003
3262,0.7427,0.0020,-0.6860,0.183,0.305,0.122,179.868,-47.335,147.003
3272,0.7441,0.0044,-0.6846,0.183,0.244,0.183,179.868,-47.335,147.003
3282,0.7441,0.0034,-0.6851,0.122,0.183,0.122,179.868,-47.340,147.003
3292,0.7456,0.0024,-0.6870,0.061,0.122,0.061,179.868,-47.340,147.003
3302,0.7417,0.0039,-0.6855,-0.061,0.061,0.122,179.868,-47.340,147.003
3312,0.7422,0.0029,-0.6860,-0.122,0.000,0.183,179.868,-47.340,147.003
3322,0.7422,0.0029,-0.6875,-0.183,0.000,0.244,179.868,-47.340,147.003
3332,0.7427,0.0034,-0.6880,-0.122,-0.061,0.305,179.868,-47.335,147.003
3342,0.7427,0.0024,-0.6860,-0.061,-0.183,0.427,179.874,-47.335,147.003
3352,0.7412,0.0024,-0.6870,0.000,-0.122,0.549,179.879,-47.329,147.003
3362,0.7402,0.0020,-0.6880,0.122,-0.122,0.671,179.885,-47.329,147.003
3372,0.7412,0.0024,-0.6875,0.244,-0.061,0.610,179.896,-47.324,147.003
3382,0.7427,0.0034,-0.6865,0.305,0.061,0.610,179.901,-47.324,147.003
3392,0.7432,0.0039,-0.6860,0.244,0.061,0.610,179.907,-47.324,147.003
3402,0.7437,0.0044,-0.6865,0.122,0.000,0.610,179.912,-47.324,147.003
3412,0.7427,0.0029,-0.6875,-0.061,-0.122,0.488,179.918,-47.324,147.003
3422,0.7437,0.0029,-0.6851,-0.183,-0.183,0.488,179.918,-47.324,147.003
3432,0.7417,0.0034,-0.6836,-0.305,-0.305,0.427,179.918,-47.318,147.003
3442,0.7446,0.0034,-0.6846,-0.427,-0.427,0.427,179.918,-47.318,147.003
3452,0.7441,0.0020,-0.6846,-0.488,-0.488,0.488,179.918,-47.313,147.003
3462,0.7437,0.0020,-0.6851,-0.549,-0.488,0.610,179.918,-47.307,147.003
3472,0.7432,0.0024,-0.6826,-0.427,-0.427,0.793,179.918,-47.307,147.003
3482,0.7427,0.0059,-0.6812,-0.061,-0.305,0.977,179.923,-47.307,147.003
3492,0.7412,0.0049,-0.6816,0.366,0.061,0.977,179.934,-47.307,147.003
3502,0.7397,0.0049,-0.6865,0.671,0.305,0.916,179.951,-47.307,147.003
3512,0.7388,0.0054,-0.6890,0.610,0.549,0.732,179.956,-47.313,147.003
3522,0.7378,0.0029,-0.6904,0.427,0.671,0.427,179.967,-47.313,147.003
3532,0.7393,0.0063,-0.6919,0.183,0.732,0.244,179.962,-47.318,147.003
3542,0.7393,0.0044,-0.6938,0.000,0.610,-0.122,179.962,-47.318,147.003
3552,0.7373,0.0000,-0.6934,-0.305,0.366,-0.427,179.951,-47.318,147.003
3562,0.7393,-0.0034,-0.6938,-0.854,0.061,-0.610,-179.714,-47.313,147.003
3572,0.7397,-0.0059,-0.6904,-1.526,-0.427,-0.549,-179.736,-47.302,147.003
3582,0.7422,-0.0063,-0.6870,-2.014,-0.854,-0.244,-179.753,-47.296,147.003
3592,0.7407,-0.0049,-0.6836,-2.014,-1.160,0.366,-179.769,-47.285,147.003
3602,0.7407,-0.0059,-0.6816,-1.587,-1.038,0.916,-179.769,-47.274,147.003
3612,0.7432,-0.0107,-0.6812,-1.038,-0.732,1.404,-179.758,-47.269,146.981
3622,0.7422,-0.0112,-0.6826,-1.038,-0.427,1.709,-179.747,-47.263,146.959
3632,0.7441,-0.0112,-0.6816,-1.404,-0.183,1.953,-179.731,-47.269,146.926
3642,0.7441,-0.0039,-0.6816,-1.892,0.122,2.197,-179.725,-47.269,146.898
3652,0.7427,0.0039,-0.6836,-1.953,0.488,2.319,179.670,-47.274,146.860
3662,0.7427,0.0073,-0.6865,-1.648,0.793,2.380,179.676,-47.285,146.827
3672,0.7402,0.0112,-0.6880,-1.282,0.916,2.258,179.681,-47.291,146.794
3682,0.7388,0.0156,-0.6870,-1.282,0.793,2.075,179.681,-47.296,146.761
3692,0.7402,0.0176,-0.6895,-1.526,0.488,1.831,179.676,-47.302,146.733
3702,0.7432,0.0195,-0.6860,-1.770,0.000,1.465,179.659,-47.302,146.711
3712,0.7446,0.0186,-0.6821,-1.953,-0.366,1.099,179.637,-47.296,146.700
3722,0.7476,0.0161,-0.6821,-1.953,-0.671,0.671,179.615,-47.296,146.689
3732,0.7456,0.0146,-0.6792,-1.892,-0.854,0.305,179.594,-47.291,146.684
3742,0.7432,0.0132,-0.6777,-1.831,-0.977,0.122,179.572,-47.285,146.684
3752,0.7422,0.0117,-0.6763,-1.648,-0.793,-0.061,179.550,-47.280,146.684
3763,0.7432,0.0093,-0.6777,-1.282,-0.427,-0.061,179.533,-47.280,146.684
3772,0.7456,0.0063,-0.6797,-0.732,0.122,0.000,179.522,-47.285,146.684
3782,0.7471,0.0034,-0.6812,-0.244,0.732,0.061,179.522,-47.296,146.684
3792,0.7500,0.0015,-0.6836,0.122,1.160,0.061,179.528,-47.313,146.684
3802,0.7476,-0.0010,-0.6875,0.061,1.404,0.000,-179.918,-47.324,146.684
3812,0.7451,0.0024,-0.6880,-0.122,1.526,-0.122,179.791,-47.340,146.684
3822,0.7427,0.0034,-0.6890,-0.244,1.404,-0.305,179.786,-47.351,146.689
3832,0.7378,0.0059,-0.6919,-0.305,1.282,-0.488,179.775,-47.362,146.695
3842,0.7339,0.0083,-0.6973,-0.244,1.160,-0.549,179.764,-47.362,146.706
3852,0.7358,0.0156,-0.6943,0.000,0.977,-0.671,179.747,-47.368,146.711
3862,0.7393,0.0254,-0.6904,0.427,0.610,-0.671,179.725,-47.368,146.722
3872,0.7407,0.0308,-0.6914,1.404,0.305,-0.671,179.709,-47.368,146.733
3882,0.7397,0.0337,-0.6880,2.686,0.061,-0.793,179.703,-47.362,146.744
3892,0.7368,0.0278,-0.6865,4.028,-0.183,-1.160,179.709,-47.357,146.761
3902,0.7373,0.0269,-0.6860,4.333,-0.427,-2.075,179.709,-47.351,146.794
3912,0.7412,0.0210,-0.6855,3.845,-0.549,-3.418,179.698,-47.346,146.843
3922,0.7451,0.0205,-0.6846,2.625,-0.244,-4.639,179.659,-47.340,146.909
3932,0.7451,0.0205,-0.6797,1.465,0.305,-5.676,179.599,-47.346,146.997
3942,0.7461,0.0171,-0.6738,0.732,0.793,-6.409,179.528,-47.362,147.090
3952,0.7432,0.0107,-0.6733,0.732,1.038,-6.592,179.456,-47.373,147.189
3962,0.7441,0.0054,-0.6753,1.038,1.038,-6.226,179.401,-47.390,147.277
3972,0.7461,-0.0020,-0.6772,1.526,0.916,-5.371,-179.830,-47.401,147.360
3982,0.7490,-0.0137,-0.6768,2.014,0.793,-4.395,-179.852,-47.411,147.426
3992,0.7500,-0.0205,-0.6787,2.014,0.793,-3.479,-179.852,-47.428,147.475
4002,0.7520,-0.0234,-0.6826,1.404,0.732,-2.686,-179.846,-47.439,147.513
4012,0.7520,-0.0249,-0.6821,0.671,0.671,-1.892,-179.841,-47.444,147.541
4022,0.7520,-0.0239,-0.6851,0.061,0.671,-1.160,-179.835,-47.455,147.557
4032,0.7505,-0.0215,-0.6885,-0.183,0.854,-0.610,-179.830,-47.466,147.568
4042,0.7485,-0.0195,-0.6929,-0.183,0.977,-0.122,-179.819,-47.472,147.568
4052,0.7446,-0.0151,-0.6929,-0.183,0.916,0.305,-179.802,-47.477,147.568
4062,0.7407,-0.0107,-0.6953,-0.244,0.732,0.793,-179.791,-47.477,147.552
4072,0.7393,-0.0059,-0.6958,-0.366,0.366,1.221,-179.780,-47.472,147.535
4082,0.7402,-0.0010,-0.6934,-0.488,-0.061,1.587,-179.769,-47.466,147.513
4092,0.7407,0.0044,-0.6904,-0.610,-0.549,1.892,179.632,-47.455,147.486
4102,0.7402,0.0093,-0.6890,-0.671,-1.221,2.136,179.643,-47.439,147.453
4112,0.7427,0.0112,-0.6855,-0.671,-1.770,2.380,179.659,-47.422,147.420
4122,0.7437,0.0132,-0.6846,-0.610,-2.136,2.563,179.670,-47.401,147.382
4132,0.7432,0.0146,-0.6792,-0.488,-2.258,2.502,179.687,-47.379,147.343
4142,0.7422,0.0151,-0.6763,-0.488,-2.136,2.441,179.698,-47.362,147.305
4152,0.7402,0.0181,-0.6758,-0.549,-1.770,2.258,179.703,-47.346,147.272
4162,0.7427,0.0176,-0.6733,-0.488,-1.221,2.075,179.709,-47.340,147.244
4172,0.7437,0.0176,-0.6724,-0.305,-0.549,1.892,179.714,-47.340,147.217
4182,0.7441,0.0176,-0.6733,-0.061,0.183,1.709,179.720,-47.346,147.189
4192,0.7456,0.0176,-0.6782,0.244,0.793,1.587,179.725,-47.357,147.167
4202,0.7476,0.0166,-0.6782,0.488,1.160,1.465,179.736,-47.373,147.145
4212,0.7480,0.0142,-0.6846,0.671,1.221,1.343,179.747,-47.390,147.123
4222,0.7476,0.0112,-0.6875,0.671,0.977,1.221,179.764,-47.401,147.107
4232,0.7480,0.0083,-0.6914,0.488,0.671,0.977,179.775,-47.401,147.090
4242,0.7456,0.0078,-0.6885,0.183,0.305,0.671,179.775,-47.406,147.079
4252,0.7432,0.0059,-0.6904,0.000,0.061,0.488,179.780,-47.401,147.074
4263,0.7422,0.0024,-0.6890,-0.122,-0.122,0.305,179.780,-47.401,147.068
4272,0.7373,0.0034,-0.6895,-0.122,-0.122,0.183,179.780,-47.395,147.068
4282,0.7329,0.0029,-0.6885,0.000,0.000,0.244,179.786,-47.390,147.063
4292,0.7344,0.0034,-0.6860,0.183,0.183,0.427,179.791,-47.384,147.057
4302,0.7373,0.0029,-0.6895,0.610,0.366,0.671,179.802,-47.384,147.047
4312,0.7437,0.0034,-0.6890,1.038,0.366,0.916,179.824,-47.384,147.036
4322,0.7451,-0.0005,-0.6885,1.343,0.244,1.160,-179.956,-47.390,147.019
4332,0.7461,-0.0010,-0.6895,1.282,-0.061,1.282,-179.929,-47.384,146.997
4342,0.7480,-0.0029,-0.6885,0.977,-0.427,1.282,-179.907,-47.379,146.981
4354,0.7476,-0.0015,-0.6865,0.488,-0.793,1.221,-179.885,-47.373,146.964
4362,0.7471,0.0020,-0.6860,0.061,-0.977,1.099,179.835,-47.362,146.948
4372,0.7456,0.0024,-0.6826,-0.122,-0.977,1.038,179.846,-47.357,146.931
4382,0.7427,0.0015,-0.6826,-0.061,-0.793,1.099,179.857,-47.351,146.915
4392,0.7422,0.0020,-0.6826,0.122,-0.488,1.160,179.868,-47.346,146.898
4402,0.7432,0.0024,-0.6807,0.366,-0.122,1.160,179.885,-47.346,146.882
4412,0.7446,0.0015,-0.6812,0.610,0.183,1.221,179.901,-47.351,146.860
4422,0.7437,-0.0005,-0.6807,0.549,0.366,1.221,-179.956,-47.357,146.843
4432,0.7417,0.0015,-0.6831,0.366,0.305,1.282,179.874,-47.357,146.827
4442,0.7432,0.0005,-0.6875,0.183,0.244,1.343,179.890,-47.362,146.805
4452,0.7451,0.0015,-0.6875,0.122,0.061,1.404,179.907,-47.362,146.783
4462,0.7451,0.0000,-0.6836,0.183,-0.183,1.404,179.923,-47.362,146.761
4472,0.7456,0.0010,-0.6860,0.183,-0.488,1.343,179.940,-47.357,146.744
4482,0.7441,0.0020,-0.6851,0.000,-0.671,1.282,179.956,-47.351,146.722
4492,0.7407,0.0029,-0.6841,-0.183,-0.732,1.282,179.962,-47.340,146.706
4502,0.7383,0.0049,-0.6846,-0.183,-0.671,1.221,179.973,-47.335,146.689
4512,0.7373,0.0073,-0.6836,0.000,-0.610,1.160,179.978,-47.324,146.673
4522,0.7397,0.0078,-0.6812,0.305,-0.366,1.038,179.984,-47.324,146.656
4532,0.7407,0.0063,-0.6812,0.488,0.000,0.977,179.995,-47.324,146.640
4542,0.7422,0.0068,-0.6851,0.610,0.183,0.793,-179.995,-47.324,146.629
4552,0.7446,0.0073,-0.6841,0.549,0.366,0.610,-179.989,-47.329,146.618
4562,0.7432,0.0034,-0.6841,0.427,0.366,0.305,-179.984,-47.335,146.618
4572,0.7437,0.0039,-0.6860,0.244,0.305,0.000,-179.984,-47.335,146.618
4583,0.7422,0.0029,-0.6875,0.061,0.183,-0.305,-179.989,-47.335,146.618
4592,0.7417,0.0024,-0.6870,-0.183,0.061,-0.488,-180.000,-47.335,146.629
4602,0.7422,0.0000,-0.6865,-0.305,-0.061,-0.610,179.989,-47.335,146.635
4612,0.7397,0.0015,-0.6860,-0.305,-0.061,-0.610,179.978,-47.335,146.646
4623,0.7402,0.0010,-0.6841,-0.061,0.000,-0.549,179.973,-47.329,146.651
4633,0.7402,0.0010,-0.6855,0.244,0.061,-0.366,179.973,-47.329,146.656
4643,0.7412,-0.0005,-0.6860,0.549,0.244,-0.244,-179.956,-47.335,146.662
4653,0.7417,-0.0020,-0.6851,0.610,0.366,-0.244,-179.951,-47.335,146.667
4663,0.7432,-0.0034,-0.6860,0.488,0.305,-0.244,-179.945,-47.340,146.667
4673,0.7461,-0.0044,-0.6890,0.183,0.305,-0.305,-179.945,-47.340,146.673
4683,0.7451,-0.0059,-0.6880,-0.061,0.305,-0.305,-179.945,-47.346,146.678
4693,0.7446,-0.0063,-0.6855,-0.305,0.183,-0.244,-179.945,-47.346,146.684
4703,0.7441,-0.0044,-0.6841,-0.427,0.061,-0.183,-179.951,-47.346,146.684
4713,0.7417,-0.0024,-0.6846,-0.366,-0.061,0.061,-179.951,-47.346,146.684
4723,0.7427,-0.0024,-0.6851,-0.122,-0.122,0.305,-179.945,-47.346,146.678
4732,0.7422,0.0000,-0.6851,0.061,-0.183,0.549,-180.000,-47.340,146.673
4742,0.7432,-0.0020,-0.6851,0.244,-0.122,0.732,-179.835,-47.340,146.662
4753,0.7422,-0.0015,-0.6846,0.244,-0.122,0.732,-179.824,-47.340,146.651
4763,0.7427,0.0000,-0.6846,0.122,-0.061,0.793,-180.000,-47.340,146.640
4772,0.7417,0.0005,-0.6851,-0.122,-0.061,0.671,-179.995,-47.340,146.629
4782,0.7441,0.0020,-0.6841,-0.305,0.000,0.488,-179.995,-47.340,146.624
4792,0.7432,0.0024,-0.6851,-0.305,0.122,0.427,-179.995,-47.340,146.613
4802,0.7437,0.0024,-0.6860,-0.305,0.183,0.305,-180.000,-47.340,146.613
4812,0.7422,0.0039,-0.6875,-0.244,0.183,0.183,-180.000,-47.340,146.607
4822,0.7402,0.0034,-0.6846,-0.061,0.122,0.122,179.995,-47.340,146.607
4832,0.7422,0.0020,-0.6865,0.061,0.183,0.000,179.995,-47.340,146.607
4842,0.7422,0.0029,-0.6836,0.061,0.244,-0.122,179.989,-47.346,146.607
4852,0.7437,0.0029,-0.6816,-0.061,0.244,-0.305,179.984,-47.351,146.613
4862,0.7422,0.0005,-0.6812,-0.183,0.244,-0.366,179.978,-47.351,146.618
4873,0.7422,0.0010,-0.6870,-0.244,0.183,-0.488,179.973,-47.351,146.624
4883,0.7432,0.0015,-0.6855,-0.183,0.244,-0.549,179.962,-47.357,146.635
4893,0.7451,-0.0029,-0.6855,-0.061,0.244,-0.488,-179.753,-47.357,146.640
4903,0.7446,-0.0029,-0.6855,-0.061,0.244,-0.366,-179.758,-47.362,146.646
4913,0.7461,-0.0015,-0.6851,-0.183,0.244,-0.244,-179.764,-47.362,146.651
4923,0.7456,-0.0039,-0.6855,-0.305,0.183,-0.122,-179.764,-47.368,146.651
4933,0.7461,-0.0044,-0.6860,-0.427,0.183,-0.061,-179.769,-47.368,146.651
4943,0.7441,-0.0034,-0.6870,-0.488,0.244,0.000,-179.775,-47.373,146.651
4953,0.7422,-0.0029,-0.6885,-0.549,0.244,0.000,-179.780,-47.373,146.651
4963,0.7441,-0.0010,-0.6870,-0.488,0.183,0.000,-179.786,-47.373,146.651
4973,0.7427,0.0015,-0.6880,-0.427,0.183,0.061,179.874,-47.373,146.651
4983,0.7422,0.0039,-0.6885,-0.305,0.183,0.061,179.868,-47.373,146.651
4993,0.7407,0.0083,-0.6870,-0.183,0.122,0.061,179.863,-47.373,146.651
5003,0.7402,0.0054,-0.6870,-0.122,0.122,0.000,179.857,-47.368,146.651
5013,0.7412,0.0044,-0.6846,-0.122,0.000,-0.183,179.852,-47.368,146.651
5023,0.7422,0.0024,-0.6855,-0.244,-0.122,-0.244,179.846,-47.368,146.656
5033,0.7446,-0.0005,-0.6865,-0.427,-0.244,-0.305,-179.956,-47.362,146.662
5043,0.7466,-0.0010,-0.6846,-0.610,-0.366,-0.305,-179.967,-47.362,146.662
5053,0.7456,0.0010,-0.6841,-0.732,-0.488,-0.244,179.918,-47.357,146.667
5063,0.7432,0.0010,-0.6816,-0.610,-0.488,-0.061,179.907,-47.357,146.667
5073,0.7427,0.0029,-0.6816,-0.244,-0.427,0.244,179.907,-47.351,146.667
5083,0.7417,0.0059,-0.6826,0.427,-0.244,0.671,179.912,-47.351,146.656
5093,0.7427,0.0059,-0.6802,1.160,0.000,0.977,179.934,-47.351,146.640
5103,0.7437,0.0063,-0.6831,1.892,0.305,1.038,179.956,-47.357,146.624
5113,0.7466,0.0054,-0.6865,2.197,0.549,0.854,179.984,-47.362,146.613
5122,0.7476,0.0029,-0.6880,2.075,0.671,0.488,-179.995,-47.368,146.607
5132,0.7466,0.0039,-0.6880,1.465,0.488,0.000,-179.978,-47.373,146.607
5143,0.7456,0.0044,-0.6885,0.793,0.244,-0.549,-179.984,-47.373,146.613
5153,0.7446,0.0049,-0.6875,0.244,-0.183,-0.977,-179.995,-47.373,146.629
5163,0.7402,0.0029,-0.6870,0.183,-0.488,-1.099,179.995,-47.362,146.646
5173,0.7373,0.0024,-0.6875,0.366,-0.793,-1.099,179.984,-47.351,146.662
5183,0.7339,0.0005,-0.6865,0.916,-0.854,-0.977,179.978,-47.340,146.673
5193,0.7344,0.0010,-0.6865,1.343,-0.671,-0.854,179.984,-47.329,146.689
5203,0.7349,0.0029,-0.6841,1.709,-0.244,-0.732,179.989,-47.324,146.700
5213,0.7358,0.0029,-0.6846,1.892,0.183,-0.732,-180.000,-47.324,146.711
5223,0.7373,0.0015,-0.6841,1.953,0.732,-0.793,-179.989,-47.329,146.722
5233,0.7412,0.0010,-0.6836,1.892,1.038,-0.977,-179.984,-47.340,146.733
5243,0.7441,-0.0005,-0.6870,1.709,1.038,-1.160,-179.956,-47.351,146.750
5253,0.7446,-0.0024,-0.6880,1.343,0.732,-1.343,-179.956,-47.357,146.772
5264,0.7456,-0.0024,-0.6875,0.854,0.244,-1.526,-179.962,-47.357,146.794
5273,0.7456,-0.0029,-0.6855,0.610,-0.244,-1.526,-179.973,-47.357,146.816
5283,0.7466,-0.0044,-0.6855,0.488,-0.610,-1.404,-179.978,-47.351,146.838
5293,0.7456,-0.0068,-0.6831,0.488,-0.732,-1.221,-179.978,-47.346,146.854
5303,0.7451,-0.0088,-0.6831,0.488,-0.732,-0.977,-179.978,-47.340,146.871
5313,0.7437,-0.0088,-0.6812,0.549,-0.549,-0.671,-179.973,-47.335,146.882
5323,0.7407,-0.0107,-0.6821,0.610,-0.183,-0.366,-179.962,-47.335,146.887
5333,0.7446,-0.0068,-0.6807,0.610,0.183,0.000,-179.951,-47.340,146.887
5343,0.7432,-0.0059,-0.6826,0.732,0.427,0.305,-179.934,-47.346,146.882
5353,0.7402,-0.0034,-0.6831,0.916,0.671,0.549,-179.918,-47.351,146.871
5363,0.7432,-0.0029,-0.6851,0.916,0.793,0.732,-179.901,-47.357,146.860
5373,0.7446,-0.0020,-0.6865,0.793,0.732,0.793,-179.885,-47.362,146.849
5383,0.7451,0.0000,-0.6890,0.427,0.549,0.732,-180.000,-47.368,146.838
5393,0.7441,0.0010,-0.6899,0.183,0.305,0.610,-179.995,-47.368,146.832
5403,0.7417,0.0024,-0.6895,-0.061,0.061,0.488,-179.995,-47.368,146.821
5413,0.7422,0.0029,-0.6846,-0.183,-0.244,0.305,-179.995,-47.368,146.821
5423,0.7422,0.0015,-0.6855,-0.244,-0.427,0.183,-179.995,-47.362,146.816
5433,0.7437,0.0020,-0.6831,-0.183,-0.549,0.122,-180.000,-47.357,146.816
5443,0.7432,0.0005,-0.6816,-0.122,-0.488,0.000,-180.000,-47.351,146.816
5453,0.7427,0.0010,-0.6792,0.061,-0.366,0.000,-180.000,-47.351,146.816
5463,0.7432,-0.0005,-0.6821,0.183,-0.122,-0.061,-179.956,-47.351,146.816
5473,0.7441,0.0000,-0.6855,0.366,0.122,-0.061,-180.000,-47.351,146.816
5483,0.7441,-0.0010,-0.6836,0.488,0.305,-0.122,-179.918,-47.357,146.816
5493,0.7422,0.0000,-0.6870,0.488,0.488,-0.183,-180.000,-47.357,146.821
5503,0.7422,0.0005,-0.6865,0.366,0.610,-0.244,-180.000,-47.362,146.827
5512,0.7422,0.0000,-0.6870,0.305,0.610,-0.305,-180.000,-47.368,146.827
5523,0.7407,0.0010,-0.6860,0.305,0.549,-0.427,179.995,-47.373,146.832
5533,0.7417,0.0020,-0.6875,0.244,0.427,-0.488,179.989,-47.373,146.843
5542,0.7422,0.0000,-0.6875,0.183,0.305,-0.610,179.984,-47.373,146.849
5553,0.7432,0.0029,-0.6841,0.122,0.122,-0.610,179.978,-47.379,146.860
5563,0.7427,0.0010,-0.6855,0.061,0.061,-0.671,179.973,-47.379,146.871
5573,0.7456,-0.0044,-0.6860,0.000,-0.061,-0.793,-179.632,-47.379,146.882
5583,0.7427,-0.0024,-0.6851,0.000,-0.122,-0.916,-179.643,-47.373,146.893
5593,0.7422,-0.0024,-0.6836,0.000,-0.122,-0.977,-179.654,-47.373,146.909
5603,0.7427,-0.0005,-0.6826,0.000,0.000,-0.977,-179.665,-47.373,146.926
5613,0.7417,0.0005,-0.6855,0.122,0.122,-0.916,179.956,-47.373,146.937
5623,0.7427,0.0015,-0.6826,0.305,0.305,-0.854,179.951,-47.379,146.953
5633,0.7422,0.0024,-0.6855,0.549,0.427,-0.793,179.945,-47.379,146.964
5643,0.7437,0.0029,-0.6836,0.671,0.488,-0.793,179.940,-47.384,146.975
5653,0.7437,0.0020,-0.6846,0.671,0.488,-0.854,179.940,-47.390,146.986
5663,0.7422,0.0015,-0.6870,0.610,0.488,-0.854,179.934,-47.395,146.997
5673,0.7456,0.0020,-0.6855,0.427,0.305,-0.916,179.929,-47.395,147.014
5683,0.7456,0.0005,-0.6860,0.305,0.122,-0.977,179.918,-47.401,147.025
5693,0.7466,0.0000,-0.6851,0.122,0.000,-1.099,179.912,-47.401,147.041
5703,0.7446,0.0005,-0.6846,0.000,-0.061,-1.160,179.896,-47.401,147.063
5713,0.7427,0.0005,-0.6870,-0.122,-0.122,-1.038,179.885,-47.395,147.074
5723,0.7427,0.0020,-0.6846,-0.061,-0.122,-1.038,179.874,-47.395,147.090
5733,0.7427,0.0044,-0.6821,0.183,-0.061,-0.854,179.863,-47.395,147.101
5743,0.7427,0.0073,-0.6831,0.610,0.122,-0.732,179.857,-47.395,147.112
5753,0.7412,0.0078,-0.6846,1.099,0.366,-0.610,179.857,-47.395,147.123
5764,0.7422,0.0083,-0.6831,1.526,0.610,-0.671,179.857,-47.406,147.134
5773,0.7451,0.0088,-0.6836,1.648,0.671,-0.793,179.863,-47.411,147.145
5783,0.7441,0.0049,-0.6846,1.709,0.549,-1.038,179.863,-47.417,147.162
5793,0.7456,0.0063,-0.6855,1.282,0.366,-1.404,179.857,-47.422,147.184
5803,0.7471,0.0024,-0.6880,0.916,0.183,-1.770,179.846,-47.422,147.206
5813,0.7480,-0.0034,-0.6846,0.488,0.000,-2.014,-179.709,-47.422,147.239
5823,0.7476,-0.0054,-0.6831,0.122,-0.122,-2.136,-179.731,-47.422,147.266
5833,0.7451,-0.0049,-0.6807,-0.183,-0.305,-2.075,-179.753,-47.422,147.299
5843,0.7432,-0.0049,-0.6816,-0.305,-0.427,-1.770,-179.775,-47.417,147.327
5853,0.7432,-0.0039,-0.6831,-0.122,-0.305,-1.343,-179.791,-47.417,147.343
5863,0.7432,-0.0044,-0.6816,0.427,-0.061,-0.854,-179.791,-47.417,147.360
5873,0.7427,-0.0044,-0.6826,0.977,0.244,-0.427,-179.786,-47.417,147.365
5883,0.7446,-0.0044,-0.6870,1.282,0.427,-0.244,-179.775,-47.422,147.371
5893,0.7437,-0.0010,-0.6855,1.160,0.610,-0.305,-179.769,-47.428,147.371
5903,0.7446,0.0020,-0.6865,0.732,0.488,-0.427,179.835,-47.433,147.382
5913,0.7471,0.0034,-0.6880,0.305,0.244,-0.610,179.830,-47.433,147.387
5923,0.7446,0.0063,-0.6870,0.183,0.061,-0.793,179.819,-47.433,147.398
5933,0.7441,0.0063,-0.6851,0.183,-0.244,-0.916,179.808,-47.428,147.415
5943,0.7417,0.0073,-0.6865,0.244,-0.488,-1.038,179.797,-47.422,147.431
5953,0.7407,0.0063,-0.6831,0.244,-0.732,-0.977,179.786,-47.417,147.442
5963,0.7407,0.0054,-0.6846,0.244,-0.793,-0.977,179.775,-47.406,147.458
5973,0.7402,0.0068,-0.6802,0.366,-0.732,-0.916,179.764,-47.401,147.469
5983,0.7437,0.0059,-0.6787,0.488,-0.549,-0.854,179.758,-47.395,147.486
5993,0.7446,0.0044,-0.6797,0.549,-0.305,-0.854,179.753,-47.395,147.497
6003,0.7456,0.0034,-0.6826,0.610,-0.122,-0.793,179.747,-47.395,147.508
6013,0.7461,0.0015,-0.6821,0.610,0.000,-0.732,179.747,-47.395,147.519
6023,0.7466,0.0029,-0.6836,0.610,0.183,-0.732,179.747,-47.401,147.530
6033,0.7466,-0.0005,-0.6846,0.671,0.305,-0.610,-179.956,-47.406,147.541
6043,0.7456,-0.0015,-0.6841,0.671,0.427,-0.610,-179.956,-47.406,147.546
6053,0.7471,-0.0034,-0.6831,0.610,0.427,-0.549,-179.951,-47.411,147.557
6063,0.7461,-0.0034,-0.6860,0.366,0.305,-0.549,-179.951,-47.417,147.563
6073,0.7432,-0.0034,-0.6821,0.000,0.122,-0.488,-179.956,-47.417,147.568
6083,0.7432,-0.0024,-0.6851,-0.183,-0.122,-0.366,-179.962,-47.417,147.574
6093,0.7427,-0.0005,-0.6860,-0.244,-0.305,-0.183,-179.962,-47.411,147.579
6103,0.7427,-0.0005,-0.6846,-0.122,-0.366,0.061,-179.967,-47.406,147.579
6113,0.7432,0.0005,-0.6860,-0.061,-0.427,0.305,179.956,-47.401,147.574
6123,0.7417,0.0020,-0.6841,0.122,-0.427,0.488,179.962,-47.401,147.568
6133,0.7412,0.0024,-0.6831,0.366,-0.305,0.671,179.973,-47.395,147.557
6143,0.7432,0.0010,-0.6855,0.488,-0.244,0.732,179.984,-47.390,147.546
6153,0.7446,0.0010,-0.6860,0.366,-0.183,0.610,179.995,-47.390,147.535
6163,0.7471,0.0005,-0.6855,0.122,-0.244,0.488,-180.000,-47.390,147.530
6173,0.7437,0.0010,-0.6846,-0.305,-0.366,0.427,-180.000,-47.384,147.524
6183,0.7446,0.0024,-0.6870,-0.610,-0.488,0.305,179.995,-47.379,147.519
6193,0.7437,0.0049,-0.6836,-0.732,-0.549,0.305,179.989,-47.373,147.513
6203,0.7427,0.0054,-0.6855,-0.610,-0.610,0.305,179.978,-47.368,147.508
6213,0.7407,0.0059,-0.6831,-0.366,-0.549,0.427,179.978,-47.362,147.502
6223,0.7407,0.0054,-0.6836,-0.122,-0.366,0.488,179.978,-47.357,147.497
6233,0.7397,0.0063,-0.6816,0.000,-0.183,0.427,179.973,-47.357,147.491
6243,0.7412,0.0044,-0.6841,0.000,-0.061,0.366,179.978,-47.357,147.486
6253,0.7427,0.0029,-0.6846,-0.061,0.000,0.183,179.973,-47.351,147.480
6264,0.7446,0.0024,-0.6846,-0.183,0.122,0.000,179.973,-47.357,147.480
6273,0.7441,0.0015,-0.6860,-0.488,0.183,-0.244,179.962,-47.357,147.486
6283,0.7441,0.0029,-0.6860,-0.732,0.061,-0.366,179.951,-47.357,147.491
6293,0.7432,0.0054,-0.6846,-0.854,-0.061,-0.427,179.934,-47.357,147.497
6303,0.7412,0.0054,-0.6855,-0.732,-0.183,-0.305,179.918,-47.357,147.502
6313,0.7412,0.0039,-0.6860,-0.427,-0.244,-0.122,179.912,-47.351,147.502
6323,0.7412,0.0044,-0.6851,0.000,-0.183,0.122,179.907,-47.346,147.502
6333,0.7427,0.0034,-0.6880,0.305,-0.061,0.183,179.912,-47.346,147.497
6343,0.7412,0.0034,-0.6851,0.183,0.000,0.061,179.912,-47.346,147.497
6355,0.7427,0.0034,-0.6860,-0.183,0.000,-0.061,179.907,-47.346,147.497
6363,0.7451,0.0034,-0.6846,-0.549,0.000,-0.244,179.896,-47.346,147.502
6373,0.7446,0.0039,-0.6831,-0.732,-0.061,-0.366,179.885,-47.346,147.508
6383,0.7446,0.0059,-0.6836,-0.549,-0.122,-0.366,179.868,-47.346,147.513
6393,0.7427,0.0029,-0.6816,-0.305,-0.061,-0.244,179.863,-47.346,147.519
6403,0.7412,0.0034,-0.6816,-0.061,-0.061,-0.061,179.863,-47.346,147.519
6413,0.7402,0.0039,-0.6851,0.183,0.000,0.061,179.863,-47.346,147.519
6423,0.7422,0.0039,-0.6870,0.305,0.000,0.122,179.863,-47.346,147.513
6433,0.7417,0.0039,-0.6860,0.366,0.061,0.122,179.868,-47.346,147.513
6443,0.7417,0.0020,-0.6860,0.244,0.183,0.061,179.868,-47.346,147.513
6453,0.7451,0.0024,-0.6855,0.061,0.183,-0.061,179.868,-47.346,147.513
6463,0.7441,0.0044,-0.6831,-0.122,0.122,-0.183,179.863,-47.351,147.513
6473,0.7441,0.0029,-0.6836,-0.244,0.000,-0.244,179.857,-47.351,147.519
6483,0.7432,0.0020,-0.6860,-0.366,0.000,-0.244,179.852,-47.351,147.524
6493,0.7427,0.0029,-0.6846,-0.244,0.000,-0.183,179.846,-47.351,147.524
6503,0.7412,0.0020,-0.6846,-0.122,0.000,-0.122,179.841,-47.351,147.530
6514,0.7402,0.0015,-0.6821,-0.061,0.061,-0.061,179.841,-47.351,147.530
6523,0.7412,0.0000,-0.6851,0.000,0.122,0.061,179.846,-47.351,147.530
6534,0.7417,0.0020,-0.6851,0.061,0.183,0.183,179.846,-47.351,147.524
6544,0.7427,0.0029,-0.6851,0.061,0.244,0.244,179.846,-47.351,147.519
6554,0.7412,0.0015,-0.6851,0.000,0.183,0.305,179.852,-47.351,147.519
6564,0.7432,0.0005,-0.6870,-0.061,0.244,0.244,179.857,-47.357,147.513
6574,0.7422,0.0024,-0.6860,-0.183,0.244,0.244,179.857,-47.357,147.508
6584,0.7427,0.0015,-0.6851,-0.244,0.183,0.244,179.857,-47.357,147.508
6594,0.7417,0.0015,-0.6851,-0.122,0.183,0.183,179.857,-47.362,147.502
6604,0.7417,0.0049,-0.6855,-0.183,0.244,0.122,179.852,-47.362,147.502
6614,0.7407,0.0039,-0.6802,-0.244,0.305,0.244,179.852,-47.368,147.497
6624,0.7422,0.0059,-0.6831,-0.122,0.305,0.366,179.852,-47.368,147.491
6634,0.7422,0.0063,-0.6821,0.122,0.366,0.427,179.852,-47.373,147.486
6644,0.7451,0.0039,-0.6841,0.366,0.366,0.427,179.857,-47.379,147.480
6654,0.7451,0.0034,-0.6841,0.305,0.244,0.427,179.868,-47.379,147.475
6664,0.7451,0.0015,-0.6846,0.183,0.183,0.427,179.874,-47.384,147.469
6674,0.7461,0.0024,-0.6821,-0.061,0.061,0.366,179.874,-47.384,147.464
6684,0.7466,0.0010,-0.6860,-0.305,0.000,0.305,179.874,-47.384,147.458
6694,0.7476,0.0015,-0.6865,-0.427,0.000,0.305,179.874,-47.384,147.453
6704,0.7485,0.0020,-0.6846,-0.427,0.000,0.244,179.874,-47.390,147.448
6714,0.7456,0.0015,-0.6880,-0.305,0.061,0.305,179.874,-47.390,147.448
6723,0.7471,0.0000,-0.6855,-0.244,0.000,0.366,179.874,-47.390,147.442
6734,0.7451,0.0005,-0.6851,-0.244,-0.122,0.366,179.879,-47.390,147.437
6744,0.7441,0.0010,-0.6816,-0.305,-0.305,0.366,179.879,-47.384,147.431
6754,0.7446,0.0020,-0.6821,-0.427,-0.427,0.366,179.879,-47.384,147.426
6764,0.7446,0.0029,-0.6826,-0.549,-0.488,0.427,179.874,-47.379,147.415
6774,0.7432,0.0073,-0.6802,-0.549,-0.488,0.427,179.868,-47.379,147.409
6784,0.7402,0.0059,-0.6816,-0.488,-0.366,0.427,179.868,-47.373,147.404
6794,0.7402,0.0078,-0.6797,-0.366,-0.183,0.488,179.863,-47.373,147.398
6804,0.7407,0.0083,-0.6831,-0.244,0.000,0.488,179.863,-47.373,147.387
6814,0.7412,0.0073,-0.6841,-0.122,0.183,0.488,179.857,-47.373,147.382
6824,0.7422,0.0088,-0.6860,-0.061,0.305,0.427,179.857,-47.373,147.376
6834,0.7407,0.0059,-0.6875,0.000,0.366,0.366,179.857,-47.379,147.371
6844,0.7422,0.0059,-0.6875,-0.061,0.305,0.183,179.857,-47.379,147.371
6854,0.7446,0.0039,-0.6870,-0.122,0.305,0.000,179.852,-47.379,147.371
6864,0.7461,0.0034,-0.6880,-0.244,0.122,-0.244,179.846,-47.379,147.371
6874,0.7456,0.0054,-0.6860,-0.305,0.000,-0.366,179.835,-47.379,147.376
6884,0.7432,0.0034,-0.6836,-0.183,-0.122,-0.488,179.830,-47.379,147.387
6894,0.7412,0.0029,-0.6865,-0.061,-0.122,-0.488,179.824,-47.379,147.393
6904,0.7407,0.0034,-0.6855,0.061,-0.061,-0.488,179.813,-47.373,147.398
6914,0.7432,0.0034,-0.6836,0.244,-0.061,-0.488,179.813,-47.373,147.404
6924,0.7427,0.0024,-0.6836,0.366,0.000,-0.549,179.808,-47.373,147.415
6934,0.7407,0.0024,-0.6851,0.366,0.061,-0.549,179.808,-47.373,147.420
6944,0.7412,0.0005,-0.6846,0.244,0.122,-0.488,179.808,-47.373,147.420
6954,0.7412,0.0020,-0.6826,0.183,0.183,-0.427,179.802,-47.379,147.420
6964,0.7432,0.0010,-0.6851,0.122,0.122,-0.305,179.802,-47.379,147.420
6973,0.7466,0.0000,-0.6865,0.122,0.000,-0.183,179.802,-47.379,147.420
6984,0.7451,0.0029,-0.6831,0.122,-0.122,0.000,179.802,-47.379,147.420
6994,0.7427,-0.0005,-0.6851,0.183,-0.183,0.183,-179.956,-47.373,147.420
7004,0.7451,-0.0020,-0.6802,0.122,-0.244,0.244,-179.951,-47.373,147.420
7014,0.7422,0.0020,-0.6826,0.000,-0.244,0.366,179.835,-47.373,147.420
7024,0.7417,0.0039,-0.6851,-0.061,-0.061,0.366,179.835,-47.373,147.420
7034,0.7383,0.0049,-0.6826,-0.122,0.122,0.366,179.835,-47.373,147.420
7044,0.7388,0.0034,-0.6860,-0.122,0.305,0.366,179.835,-47.373,147.420
7054,0.7402,0.0059,-0.6865,-0.122,0.488,0.427,179.835,-47.373,147.420
7064,0.7422,0.0063,-0.6841,-0.244,0.671,0.488,179.835,-47.379,147.420
7074,0.7441,0.0029,-0.6846,-0.244,0.671,0.488,179.835,-47.390,147.420
7084,0.7432,0.0024,-0.6855,-0.305,0.671,0.488,179.841,-47.395,147.420
7094,0.7451,0.0010,-0.6885,-0.488,0.549,0.488,179.841,-47.401,147.420
7103,0.7437,0.0000,-0.6865,-0.671,0.305,0.549,179.841,-47.401,147.420
7114,0.7407,0.0010,-0.6860,-0.854,0.122,0.671,179.841,-47.401,147.420
7124,0.7412,-0.0024,-0.6875,-0.793,0.061,0.854,-179.791,-47.401,147.420
7134,0.7476,-0.0034,-0.6875,-0.183,0.061,1.404,-179.780,-47.401,147.404
7144,0.7480,-0.0024,-0.6855,0.122,0.000,1.648,-179.758,-47.401,147.376
7154,0.7500,-0.0029,-0.6851,0.183,-0.122,1.770,-179.742,-47.401,147.349
7164,0.7515,-0.0015,-0.6831,0.061,-0.427,1.831,-179.720,-47.401,147.327
7174,0.7520,-0.0015,-0.6841,0.000,-0.610,1.953,-179.703,-47.395,147.294
7184,0.7476,0.0005,-0.6812,-0.122,-0.732,1.953,179.956,-47.390,147.266
7194,0.7480,0.0020,-0.6816,-0.244,-0.854,1.892,179.973,-47.384,147.239
7204,0.7446,0.0029,-0.6816,-0.427,-0.854,1.892,179.989,-47.379,147.211
7213,0.7441,0.0020,-0.6797,-0.610,-0.671,1.831,-180.000,-47.373,147.184
7223,0.7427,0.0044,-0.6807,-0.732,-0.488,1.831,-179.995,-47.373,147.156
7233,0.7393,0.0054,-0.6792,-0.732,-0.244,1.831,-179.984,-47.368,147.129
7244,0.7363,0.0068,-0.6802,-0.793,0.000,1.770,-179.978,-47.368,147.101
7254,0.7378,0.0078,-0.6821,-0.793,0.244,1.770,-179.973,-47.368,147.079
7264,0.7358,0.0107,-0.6831,-0.732,0.549,1.648,-179.973,-47.373,147.052
7274,0.7378,0.0098,-0.6875,-0.610,0.793,1.465,-179.973,-47.379,147.030
7284,0.7412,0.0083,-0.6875,-0.488,0.977,1.221,-179.973,-47.384,147.014
7294,0.7412,0.0088,-0.6904,-0.427,1.099,0.854,-179.973,-47.395,147.003
7304,0.7407,0.0078,-0.6919,-0.488,1.099,0.427,-179.984,-47.401,146.992
7314,0.7427,0.0029,-0.6924,-0.549,1.038,0.000,-179.989,-47.406,146.992
7324,0.7471,0.0005,-0.6924,-0.610,0.793,-0.427,-180.000,-47.411,147.003
7333,0.7476,-0.0020,-0.6914,-0.916,0.488,-0.793,-179.835,-47.411,147.014
7344,0.7476,-0.0044,-0.6904,-1.099,0.122,-0.977,-179.857,-47.411,147.025
7354,0.7495,-0.0059,-0.6880,-1.160,-0.244,-0.977,-179.874,-47.411,147.041
7364,0.7476,-0.0034,-0.6860,-1.099,-0.549,-0.793,-179.890,-47.406,147.052
7374,0.7505,0.0044,-0.6841,-0.671,-0.732,-0.366,179.626,-47.401,147.057
7384,0.7490,0.0054,-0.6826,0.244,-0.793,0.305,179.632,-47.395,147.052
7394,0.7461,0.0068,-0.6816,1.404,-0.671,0.488,179.654,-47.395,147.047
7404,0.7456,0.0063,-0.6812,2.197,-0.366,0.366,179.676,-47.390,147.041
7414,0.7412,0.0063,-0.6836,2.197,0.000,-0.183,179.692,-47.390,147.041
7424,0.7417,0.0063,-0.6846,1.404,0.366,-0.854,179.698,-47.395,147.057
7434,0.7441,0.0063,-0.6831,0.244,0.732,-1.648,179.676,-47.401,147.079
7444,0.7485,0.0078,-0.6851,-0.671,0.916,-2.441,179.643,-47.411,147.118
7454,0.7534,0.0024,-0.6855,-0.977,0.854,-3.052,179.599,-47.422,147.162
7464,0.7505,-0.0054,-0.6875,-1.221,0.610,-3.418,-179.550,-47.428,147.211
7474,0.7485,-0.0122,-0.6860,-1.770,0.061,-3.418,-179.599,-47.433,147.261
7484,0.7412,-0.0132,-0.6821,-2.625,-0.671,-2.991,-179.648,-47.422,147.305
7494,0.7354,-0.0127,-0.6826,-3.235,-1.221,-2.014,-179.698,-47.411,147.338
7504,0.7344,-0.0137,-0.6797,-2.991,-1.282,-0.854,-179.725,-47.395,147.349
7514,0.7378,-0.0171,-0.6826,-2.197,-0.732,0.183,-179.736,-47.384,147.349
7524,0.7402,-0.0156,-0.6831,-1.831,0.000,0.916,-179.731,-47.384,147.332
7534,0.7417,-0.0181,-0.6860,-1.831,0.671,1.648,-179.720,-47.390,147.310
7544,0.7432,-0.0166,-0.6885,-2.075,0.916,2.441,-179.703,-47.395,147.272
7554,0.7476,-0.0151,-0.6929,-2.380,0.916,3.052,-179.687,-47.406,147.228
7564,0.7505,-0.0137,-0.6953,-2.258,0.549,3.540,-179.659,-47.406,147.178
7574,0.7554,-0.0117,-0.6963,-2.136,-0.061,4.211,-179.632,-47.406,147.112
7584,0.7578,-0.0137,-0.6978,-1.831,-0.671,4.761,-179.588,-47.395,147.041
7594,0.7554,-0.0112,-0.6953,-2.075,-1.465,5.005,-179.550,-47.384,146.970
7604,0.7485,-0.0078,-0.6938,-2.502,-2.258,5.066,-179.522,-47.357,146.893
7614,0.7466,-0.0093,-0.6924,-3.113,-2.991,5.249,-179.489,-47.324,146.816
7624,0.7432,-0.0073,-0.6851,-3.906,-3.723,5.432,-179.473,-47.291,146.739
7634,0.7417,-0.0034,-0.6768,-4.517,-4.150,5.859,-179.456,-47.252,146.651
7644,0.7417,0.0024,-0.6689,-4.700,-4.517,6.714,179.786,-47.214,146.552
7654,0.7412,0.0054,-0.6655,-4.150,-4.578,7.690,179.830,-47.175,146.442
7664,0.7388,0.0063,-0.6665,-2.747,-4.272,8.667,179.890,-47.142,146.310
7674,0.7358,0.0068,-0.6665,-1.221,-3.540,9.460,179.973,-47.115,146.173
7684,0.7305,0.0068,-0.6680,0.000,-2.319,9.949,-179.929,-47.093,146.030
7694,0.7280,0.0078,-0.6714,0.366,-0.977,10.193,-179.824,-47.087,145.876
7704,0.7314,0.0103,-0.6763,0.244,0.183,9.949,-179.725,-47.093,145.734
7714,0.7329,0.0156,-0.6836,-0.122,0.977,9.338,-179.643,-47.098,145.596
7724,0.7402,0.0210,-0.6919,-0.488,1.587,8.362,-179.577,-47.115,145.470
7734,0.7437,0.0259,-0.6973,-0.488,1.831,7.202,-179.533,-47.126,145.366
7744,0.7466,0.0312,-0.6982,-0.366,1.709,5.798,-179.506,-47.142,145.278
7754,0.7466,0.0366,-0.7021,-0.305,1.221,4.150,-179.495,-47.148,145.217
7765,0.7427,0.0352,-0.7036,-0.244,0.244,2.136,-179.511,-47.148,145.190
7774,0.7378,0.0361,-0.6987,-0.366,-0.671,-0.183,-179.550,-47.131,145.190
7784,0.7344,0.0361,-0.6982,-0.793,-1.526,-2.625,-179.621,-47.109,145.228
7794,0.7300,0.0371,-0.6929,-1.404,-2.014,-4.822,-179.720,-47.082,145.300
7804,0.7241,0.0371,-0.6846,-1.648,-1.953,-6.653,-179.841,-47.060,145.399
7814,0.7207,0.0376,-0.6816,-1.343,-1.404,-8.057,-179.973,-47.043,145.514
7824,0.7192,0.0312,-0.6768,-0.488,-0.610,-8.972,179.901,-47.032,145.646
7834,0.7197,0.0254,-0.6787,0.549,0.244,-9.338,179.786,-47.032,145.783
7844,0.7256,0.0176,-0.6772,1.587,0.977,-9.338,179.687,-47.038,145.920
7854,0.7329,0.0034,-0.6826,2.380,1.587,-9.094,179.615,-47.054,146.058
7864,0.7422,-0.0088,-0.6855,2.808,2.014,-8.789,-179.264,-47.076,146.184
7874,0.7500,-0.0210,-0.6919,2.930,2.380,-8.484,-179.313,-47.104,146.310
7884,0.7539,-0.0298,-0.6953,2.380,2.380,-8.179,-179.357,-47.131,146.431
7894,0.7578,-0.0371,-0.6948,1.282,2.075,-7.812,-179.407,-47.153,146.541
7904,0.7598,-0.0391,-0.6958,0.000,1.526,-7.324,-179.456,-47.175,146.651
7914,0.7563,-0.0347,-0.6953,-1.221,0.854,-6.775,-179.517,-47.186,146.750
7924,0.7524,-0.0317,-0.6929,-2.136,0.122,-5.981,-179.583,-47.186,146.838
7934,0.7495,-0.0303,-0.6924,-2.563,-0.488,-5.066,-179.643,-47.186,146.915
7944,0.7456,-0.0220,-0.6890,-2.808,-0.916,-4.028,-179.698,-47.175,146.970
7954,0.7432,-0.0171,-0.6919,-2.502,-1.160,-2.686,-179.742,-47.164,147.014
7964,0.7407,-0.0146,-0.6870,-1.770,-1.282,-1.221,-179.758,-47.153,147.030
7974,0.7412,-0.0122,-0.6841,-0.671,-1.221,0.122,-179.758,-47.142,147.030
7984,0.7358,-0.0083,-0.6855,0.305,-1.099,1.343,-179.736,-47.131,147.008
7994,0.7354,-0.0024,-0.6870,0.793,-0.854,2.136,-179.703,-47.120,146.975
8004,0.7368,0.0034,-0.6899,0.854,-0.671,2.686,179.714,-47.109,146.937
8014,0.7363,0.0103,-0.6899,0.549,-0.549,2.686,179.742,-47.104,146.898
8024,0.7329,0.0181,-0.6899,0.183,-0.488,2.380,179.758,-47.093,146.865
8034,0.7319,0.0234,-0.6860,-0.183,-0.488,2.014,179.758,-47.087,146.832
8044,0.7300,0.0278,-0.6855,-0.427,-0.488,1.587,179.753,-47.076,146.810
8054,0.7295,0.0298,-0.6880,-0.366,-0.488,1.221,179.736,-47.071,146.794
8064,0.7349,0.0293,-0.6865,0.000,-0.427,0.854,179.725,-47.065,146.777
8074,0.7393,0.0215,-0.6890,0.488,-0.366,0.366,179.720,-47.060,146.772
8084,0.7446,0.0146,-0.6885,0.610,-0.305,-0.244,179.714,-47.060,146.777
8094,0.7446,0.0083,-0.6885,0.244,-0.305,-0.854,179.703,-47.060,146.788
8104,0.7437,0.0059,-0.6880,-0.549,-0.366,-1.404,179.681,-47.054,146.810
8114,0.7378,0.0078,-0.6841,-1.221,-0.305,-1.892,179.643,-47.054,146.838
8124,0.7339,0.0088,-0.6816,-1.465,-0.122,-2.014,179.604,-47.054,146.871
8134,0.7329,0.0083,-0.6841,-1.160,0.305,-1.892,179.572,-47.054,146.898
8144,0.7329,0.0083,-0.6826,-0.488,0.793,-1.404,179.550,-47.065,146.915
8154,0.7349,0.0063,-0.6851,0.305,1.282,-0.732,179.544,-47.076,146.926
8164,0.7368,0.0073,-0.6870,0.916,1.526,-0.061,179.550,-47.087,146.931
8174,0.7407,0.0063,-0.6929,1.282,1.587,0.427,179.566,-47.104,146.920
8184,0.7451,0.0020,-0.6943,1.282,1.343,0.549,179.588,-47.115,146.915
8194,0.7461,-0.0005,-0.6943,0.916,0.977,0.610,-179.956,-47.126,146.904
8204,0.7446,-0.0024,-0.6958,0.305,0.549,0.610,-179.945,-47.131,146.898
8214,0.7437,-0.0029,-0.6943,-0.366,0.122,0.549,-179.940,-47.131,146.887
8224,0.7437,-0.0020,-0.6904,-0.732,-0.305,0.610,-179.940,-47.126,146.882
8234,0.7456,-0.0034,-0.6895,-0.793,-0.549,0.854,-179.940,-47.120,146.865
8244,0.7432,-0.0015,-0.6890,-0.671,-0.732,1.160,-179.934,-47.115,146.849
8254,0.7397,0.0010,-0.6890,-0.366,-0.854,1.587,179.918,-47.104,146.827
8265,0.7383,0.0024,-0.6836,-0.061,-0.854,2.136,179.940,-47.098,146.794
8274,0.7363,0.0054,-0.6841,0.366,-0.732,2.563,179.962,-47.093,146.755
8284,0.7354,0.0073,-0.6831,0.793,-0.549,2.869,179.995,-47.087,146.717
8294,0.7378,0.0083,-0.6851,0.977,-0.305,3.052,-179.967,-47.082,146.673
8304,0.7412,0.0068,-0.6851,0.977,0.061,3.052,-179.934,-47.087,146.624
8314,0.7446,0.0059,-0.6899,0.732,0.366,2.808,-179.901,-47.093,146.585
8324,0.7466,0.0024,-0.6904,0.305,0.488,2.502,-179.874,-47.098,146.547
8334,0.7461,0.0044,-0.6885,-0.244,0.305,2.075,-179.857,-47.104,146.519
8344,0.7407,0.0068,-0.6904,-0.793,0.000,1.648,-179.857,-47.104,146.492
8356,0.7397,0.0112,-0.6909,-1.099,-0.305,1.404,-179.863,-47.098,146.475
8364,0.7358,0.0142,-0.6890,-0.916,-0.488,1.343,-179.874,-47.087,146.453
8374,0.7319,0.0186,-0.6865,-0.183,-0.366,1.221,-179.879,-47.082,146.437
8384,0.7329,0.0181,-0.6865,0.671,0.061,1.160,-179.874,-47.082,146.420
8394,0.7354,0.0142,-0.6885,1.343,0.427,0.916,-179.863,-47.082,146.404
8404,0.7378,0.0137,-0.6904,1.465,0.793,0.549,-179.857,-47.093,146.398
8414,0.7402,0.0112,-0.6924,1.343,0.977,0.000,-179.852,-47.098,146.398
8424,0.7397,0.0083,-0.6899,1.038,0.977,-0.610,-179.857,-47.109,146.404
8434,0.7417,0.0054,-0.6899,0.671,0.732,-1.221,-179.868,-47.115,146.426
8444,0.7417,0.0039,-0.6914,0.244,0.366,-1.709,-179.890,-47.115,146.448
8454,0.7417,-0.0005,-0.6890,-0.122,-0.061,-1.831,-179.956,-47.115,146.475
8464,0.7417,-0.0015,-0.6880,-0.366,-0.427,-1.770,-179.978,-47.115,146.503
8474,0.7437,-0.0024,-0.6890,-0.366,-0.488,-1.465,-179.995,-47.109,146.525
8484,0.7427,-0.0020,-0.6846,0.000,-0.366,-0.977,179.995,-47.109,146.536
8494,0.7393,0.0000,-0.6880,0.488,0.000,-0.488,-180.000,-47.109,146.547
8504,0.7393,0.0010,-0.6855,0.916,0.305,-0.061,-179.995,-47.109,146.547
8514,0.7388,0.0000,-0.6870,1.160,0.610,0.183,-179.984,-47.115,146.541
8524,0.7432,-0.0005,-0.6895,1.099,0.610,0.244,-179.956,-47.126,146.541
8534,0.7417,0.0020,-0.6899,0.916,0.610,0.244,179.835,-47.131,146.536
8544,0.7437,0.0044,-0.6919,0.549,0.549,0.122,179.841,-47.131,146.536
8554,0.7422,0.0049,-0.6914,0.366,0.366,0.000,179.841,-47.137,146.536
8564,0.7422,0.0049,-0.6909,0.244,0.122,-0.061,179.841,-47.137,146.536
8574,0.7417,0.0044,-0.6914,0.183,-0.122,-0.122,179.841,-47.137,146.536
8585,0.7378,0.0063,-0.6860,0.183,-0.427,-0.061,179.835,-47.131,146.536
8594,0.7368,0.0054,-0.6831,0.305,-0.549,0.061,179.835,-47.126,146.536
8604,0.7368,0.0083,-0.6821,0.427,-0.610,0.183,179.835,-47.120,146.536
8614,0.7373,0.0049,-0.6816,0.671,-0.488,0.366,179.846,-47.115,146.530
8625,0.7383,0.0054,-0.6865,0.977,-0.305,0.488,179.857,-47.115,146.519
8635,0.7407,0.0029,-0.6875,1.221,0.061,0.671,179.874,-47.115,146.514
8644,0.7412,-0.0005,-0.6870,1.343,0.305,0.732,-179.956,-47.120,146.503
8655,0.7427,-0.0024,-0.6865,1.282,0.549,0.732,-179.934,-47.126,146.492
8665,0.7402,-0.0024,-0.6865,0.977,0.610,0.793,-179.918,-47.131,146.475
8675,0.7397,-0.0015,-0.6860,0.793,0.549,0.977,-179.896,-47.137,146.464
8685,0.7397,0.0010,-0.6890,0.732,0.488,1.160,179.918,-47.142,146.448
8694,0.7397,-0.0010,-0.6875,0.854,0.244,1.404,-179.918,-47.142,146.426
8705,0.7407,-0.0024,-0.6870,0.977,0.061,1.709,-179.885,-47.142,146.398
8715,0.7417,-0.0020,-0.6870,1.038,-0.122,2.014,-179.857,-47.142,146.371
8725,0.7397,-0.0034,-0.6836,0.977,-0.244,2.319,-179.819,-47.142,146.338
8735,0.7388,-0.0015,-0.6846,0.916,-0.244,2.625,-179.780,-47.142,146.299
8745,0.7383,-0.0015,-0.6812,0.916,-0.122,2.930,-179.742,-47.142,146.255
8755,0.7373,-0.0010,-0.6865,1.221,0.061,3.235,-179.698,-47.142,146.206
8765,0.7373,-0.0005,-0.6826,1.587,0.305,3.540,-179.648,-47.142,146.157
8775,0.7378,-0.0005,-0.6831,2.014,0.427,3.784,-179.588,-47.148,146.102
8785,0.7383,-0.0063,-0.6831,2.319,0.549,3.845,-179.522,-47.153,146.041
8795,0.7397,-0.0146,-0.6841,2.258,0.610,3.845,-179.451,-47.159,145.986
8805,0.7402,-0.0166,-0.6860,1.648,0.610,3.723,-179.390,-47.164,145.931
8815,0.7441,-0.0161,-0.6851,0.916,0.610,3.845,-179.330,-47.175,145.876
8825,0.7432,-0.0195,-0.6855,0.366,0.549,4.211,-179.275,-47.181,145.811
8835,0.7407,-0.0215,-0.6851,0.122,0.488,4.578,-179.214,-47.186,145.745
8845,0.7378,-0.0215,-0.6831,0.122,0.305,5.127,-179.149,-47.186,145.668
8855,0.7329,-0.0200,-0.6816,0.244,0.061,5.798,-179.072,-47.186,145.585
8865,0.7305,-0.0205,-0.6802,0.366,-0.061,6.531,-178.989,-47.186,145.486
8875,0.7285,-0.0244,-0.6792,0.305,0.183,7.080,-178.901,-47.181,145.382
8885,0.7280,-0.0244,-0.6802,0.061,0.610,7.446,-178.813,-47.186,145.272
8895,0.7266,-0.0234,-0.6807,-0.305,1.221,7.812,-178.726,-47.192,145.157
8905,0.7295,-0.0220,-0.6782,-0.793,1.892,8.118,-178.638,-47.208,145.042
8915,0.7300,-0.0205,-0.6826,-1.099,2.502,8.423,-178.555,-47.230,144.915
8925,0.7349,-0.0142,-0.6836,-1.038,3.174,8.728,-178.473,-47.258,144.783
8935,0.7373,-0.0107,-0.6836,-0.610,3.662,9.033,-178.391,-47.291,144.651
8945,0.7432,-0.0098,-0.6914,0.244,3.906,9.277,-178.292,-47.324,144.514
8955,0.7500,-0.0127,-0.6973,1.221,4.028,9.399,-178.187,-47.357,144.371
8965,0.7559,-0.0151,-0.7021,1.892,3.784,9.277,-178.072,-47.390,144.234
8975,0.7612,-0.0195,-0.7051,2.014,2.991,8.728,-177.962,-47.411,144.102
8985,0.7622,-0.0273,-0.7051,1.404,1.892,7.874,-177.858,-47.428,143.987
8995,0.7622,-0.0288,-0.7017,0.366,0.610,6.775,-177.781,-47.428,143.882
9005,0.7593,-0.0249,-0.6973,-0.793,-0.671,5.798,-177.726,-47.422,143.800
9015,0.7559,-0.0264,-0.6958,-1.526,-1.526,5.066,-177.687,-47.406,143.729
9025,0.7510,-0.0234,-0.6865,-1.953,-1.953,4.456,-177.665,-47.384,143.663
9035,0.7446,-0.0215,-0.6841,-1.831,-2.075,3.967,-177.649,-47.362,143.602
9045,0.7402,-0.0190,-0.6816,-1.526,-1.770,3.784,-177.632,-47.346,143.547
9055,0.7397,-0.0142,-0.6787,-0.977,-1.099,3.723,-177.610,-47.335,143.492
9065,0.7358,-0.0117,-0.6792,-0.244,-0.183,3.601,-177.589,-47.329,143.443
9075,0.7319,-0.0098,-0.6797,0.488,0.854,3.357,-177.567,-47.335,143.394
9085,0.7324,-0.0088,-0.6812,0.916,1.709,2.930,-177.539,-47.346,143.350
9095,0.7354,-0.0098,-0.6855,1.038,2.258,2.319,-177.523,-47.368,143.311
9105,0.7368,-0.0068,-0.6875,0.854,2.502,1.526,-177.512,-47.384,143.289
9115,0.7422,-0.0049,-0.6914,0.549,2.441,0.671,-177.523,-47.406,143.278
9125,0.7446,-0.0044,-0.6929,0.305,2.075,-0.244,-177.539,-47.422,143.278
9135,0.7476,-0.0112,-0.6943,0.000,1.465,-1.221,-177.567,-47.433,143.295
9145,0.7500,-0.0171,-0.6890,-0.549,0.671,-2.258,-177.605,-47.444,143.328
9155,0.7524,-0.0195,-0.6875,-1.282,-0.305,-3.235,-177.660,-47.444,143.377
9165,0.7510,-0.0234,-0.6826,-2.136,-1.160,-3.967,-177.731,-47.433,143.437
9175,0.7461,-0.0259,-0.6787,-2.747,-1.648,-4.333,-177.808,-47.422,143.503
9185,0.7446,-0.0293,-0.6738,-2.930,-1.709,-4.333,-177.880,-47.411,143.564
9195,0.7427,-0.0308,-0.6689,-2.625,-1.343,-4.028,-177.946,-47.406,143.624
9205,0.7432,-0.0327,-0.6694,-2.075,-0.610,-3.357,-177.995,-47.406,143.674
9215,0.7471,-0.0332,-0.6709,-1.221,0.244,-2.502,-178.022,-47.417,143.712
9225,0.7466,-0.0347,-0.6758,-0.366,1.221,-1.770,-178.039,-47.433,143.740
9235,0.7476,-0.0342,-0.6807,0.305,2.136,-1.160,-178.039,-47.455,143.756
9245,0.7476,-0.0317,-0.6855,0.244,2.686,-0.916,-178.033,-47.483,143.767
9255,0.7500,-0.0332,-0.6855,-0.244,2.686,-0.793,-178.039,-47.510,143.778
9265,0.7505,-0.0308,-0.6934,-1.099,2.258,-0.854,-178.050,-47.532,143.789
9275,0.7524,-0.0312,-0.6938,-1.892,1.587,-1.038,-178.072,-47.543,143.806
9285,0.7529,-0.0317,-0.6948,-2.747,0.610,-1.282,-178.110,-47.549,143.822
9295,0.7500,-0.0288,-0.6943,-3.540,-0.305,-1.465,-178.154,-47.543,143.844
9305,0.7451,-0.0269,-0.6919,-4.211,-1.282,-1.465,-178.209,-47.527,143.866
9315,0.7388,-0.0264,-0.6851,-4.578,-1.892,-1.343,-178.264,-47.505,143.888
9325,0.7368,-0.0225,-0.6816,-4.456,-2.197,-1.038,-178.319,-47.477,143.904
9335,0.7354,-0.0190,-0.6777,-3.967,-1.953,-0.671,-178.369,-47.461,143.915
9345,0.7344,-0.0146,-0.6782,-3.052,-1.343,-0.183,-178.401,-47.444,143.915
9355,0.7363,-0.0112,-0.6777,-2.075,-0.549,0.183,-178.429,-47.439,143.915
9365,0.7363,-0.0063,-0.6802,-1.221,0.183,0.488,-178.445,-47.439,143.910
9375,0.7393,-0.0015,-0.6807,-0.488,0.854,0.549,-178.456,-47.444,143.899
9385,0.7427,0.0024,-0.6831,0.183,1.282,0.488,179.791,-47.455,143.893
9395,0.7451,0.0054,-0.6870,0.854,1.282,0.305,179.802,-47.472,143.888
9405,0.7500,0.0068,-0.6919,1.526,1.099,-0.061,179.813,-47.477,143.888
9415,0.7505,0.0054,-0.6943,2.014,0.610,-0.610,179.824,-47.483,143.899
9425,0.7520,0.0034,-0.6934,2.136,0.183,-1.587,179.824,-47.483,143.921
9435,0.7534,0.0010,-0.6924,1.587,-0.366,-2.869,179.813,-47.477,143.965
9445,0.7510,0.0000,-0.6929,0.671,-0.916,-4.150,179.775,-47.466,144.025
9455,0.7490,-0.0029,-0.6880,-0.122,-1.404,-5.371,-179.753,-47.455,144.102
9465,0.7441,-0.0024,-0.6846,-0.610,-1.648,-6.348,-179.830,-47.439,144.196
9475,0.7437,-0.0044,-0.6816,-0.732,-1.831,-6.958,-179.907,-47.422,144.300
9485,0.7417,-0.0098,-0.6792,-0.671,-1.770,-7.202,-179.984,-47.406,144.404
9495,0.7407,-0.0137,-0.6748,-0.427,-1.648,-7.080,179.945,-47.390,144.514
9505,0.7427,-0.0176,-0.6719,-0.244,-1.465,-6.714,179.885,-47.379,144.613
9515,0.7407,-0.0205,-0.6694,-0.122,-1.160,-6.287,179.835,-47.373,144.701
9525,0.7407,-0.0225,-0.6719,-0.122,-0.671,-5.615,179.797,-47.373,144.789
9535,0.7388,-0.0254,-0.6743,-0.122,-0.244,-4.822,179.764,-47.373,144.860
9545,0.7393,-0.0254,-0.6763,0.000,0.183,-3.967,179.747,-47.373,144.915
9555,0.7407,-0.0249,-0.6792,0.244,0.549,-3.052,179.742,-47.379,144.959
9565,0.7407,-0.0249,-0.6816,0.427,0.854,-2.136,179.747,-47.390,144.992
9575,0.7432,-0.0249,-0.6846,0.610,1.160,-1.404,179.758,-47.401,145.014
9585,0.7461,-0.0210,-0.6885,0.671,1.282,-0.854,179.775,-47.411,145.025
9595,0.7456,-0.0195,-0.6919,0.549,1.099,-0.366,179.797,-47.417,145.031
9605,0.7441,-0.0166,-0.6934,0.305,0.793,-0.183,179.813,-47.422,145.036
9615,0.7437,-0.0142,-0.6938,0.061,0.366,-0.122,179.824,-47.422,145.036
9625,0.7437,-0.0117,-0.6914,-0.122,-0.122,-0.183,179.835,-47.417,145.042
9635,0.7422,-0.0093,-0.6953,-0.244,-0.549,-0.244,179.841,-47.406,145.042
9645,0.7397,-0.0078,-0.6934,-0.305,-0.916,-0.366,179.841,-47.395,145.047
9655,0.7388,-0.0063,-0.6895,-0.305,-1.221,-0.366,179.841,-47.379,145.052
9665,0.7368,-0.0039,-0.6875,-0.305,-1.343,-0.366,179.835,-47.362,145.058
9675,0.7368,-0.0034,-0.6831,-0.122,-1.404,-0.244,179.841,-47.346,145.063
9685,0.7383,-0.0063,-0.6821,0.000,-1.343,-0.122,179.846,-47.329,145.063
9695,0.7407,-0.0054,-0.6802,0.183,-1.160,0.000,179.852,-47.318,145.063
9705,0.7427,-0.0073,-0.6763,0.366,-0.916,0.122,179.863,-47.313,145.063
9715,0.7402,-0.0073,-0.6768,0.427,-0.671,0.183,179.879,-47.313,145.058
9725,0.7422,-0.0078,-0.6807,0.366,-0.305,0.305,179.896,-47.307,145.052
9735,0.7432,-0.0078,-0.6821,0.305,0.000,0.366,179.907,-47.313,145.047
9745,0.7437,-0.0073,-0.6831,0.122,0.244,0.427,179.923,-47.313,145.042
9755,0.7437,-0.0078,-0.6851,0.061,0.366,0.427,179.934,-47.318,145.036
9766,0.7451,-0.0098,-0.6836,-0.061,0.366,0.488,179.945,-47.324,145.031
9775,0.7456,-0.0122,-0.6851,-0.183,0.244,0.549,179.962,-47.329,145.020
9785,0.7441,-0.0156,-0.6846,-0.305,-0.061,0.610,179.978,-47.329,145.014
9795,0.7446,-0.0142,-0.6855,-0.366,-0.305,0.671,179.995,-47.324,145.003
9805,0.7456,-0.0137,-0.6860,-0.427,-0.549,0.793,-179.989,-47.318,144.992
9815,0.7437,-0.0142,-0.6870,-0.427,-0.671,0.854,-179.973,-47.313,144.981
9825,0.7441,-0.0146,-0.6855,-0.366,-0.732,0.977,-179.956,-47.307,144.965
9835,0.7402,-0.0132,-0.6851,-0.366,-0.610,1.099,-179.934,-47.296,144.948
9845,0.7397,-0.0137,-0.6846,-0.427,-0.488,1.221,-179.918,-47.291,144.932
9855,0.7378,-0.0122,-0.6860,-0.427,-0.427,1.343,-179.896,-47.285,144.910
9865,0.7388,-0.0107,-0.6885,-0.305,-0.366,1.465,-179.874,-47.280,144.888
9875,0.7397,-0.0083,-0.6885,-0.122,-0.305,1.526,-179.857,-47.274,144.866
9885,0.7378,-0.0054,-0.6860,0.000,-0.244,1.465,-179.835,-47.269,144.844
9895,0.7368,-0.0029,-0.6885,0.061,-0.122,1.404,-179.819,-47.269,144.822
9905,0.7397,-0.0010,-0.6890,0.122,-0.122,1.282,-179.808,-47.263,144.805
9915,0.7393,-0.0015,-0.6875,0.122,-0.183,1.099,-179.791,-47.258,144.789
9925,0.7388,-0.0010,-0.6870,0.061,-0.183,0.732,-179.786,-47.258,144.778
9935,0.7417,-0.0015,-0.6865,0.000,-0.244,0.427,-179.780,-47.252,144.772
9945,0.7437,-0.0010,-0.6855,-0.061,-0.305,0.061,-179.786,-47.252,144.772
9955,0.7422,-0.0005,-0.6821,-0.122,-0.305,-0.366,-179.791,-47.252,144.778
9965,0.7427,-0.0029,-0.6812,-0.183,-0.305,-0.671,-179.797,-47.247,144.789
9975,0.7412,-0.0029,-0.6807,-0.061,-0.305,-0.854,-179.808,-47.247,144.800
9985,0.7407,-0.0044,-0.6836,0.122,-0.244,-0.977,-179.813,-47.247,144.811
9995,0.7417,-0.0068,-0.6841,0.366,-0.061,-1.038,-179.819,-47.247,144.827
10005,0.7422,-0.0068,-0.6855,0.610,0.122,-1.038,-179.819,-47.247,144.844
10015,0.7402,-0.0068,-0.6841,0.732,0.305,-0.977,-179.819,-47.252,144.860
10025,0.7397,-0.0068,-0.6846,0.732,0.427,-0.977,-179.819,-47.258,144.871
10035,0.7388,-0.0083,-0.6836,0.732,0.488,-0.977,-179.819,-47.258,144.888
10045,0.7393,-0.0098,-0.6865,0.671,0.549,-1.038,-179.813,-47.263,144.904
10055,0.7407,-0.0117,-0.6855,0.549,0.488,-0.977,-179.813,-47.269,144.915
10065,0.7437,-0.0112,-0.6890,0.366,0.305,-0.977,-179.813,-47.269,144.932
10075,0.7441,-0.0132,-0.6885,0.366,0.244,-0.793,-179.808,-47.274,144.943
10085,0.7441,-0.0117,-0.6875,0.366,0.061,-0.549,-179.802,-47.274,144.948
10095,0.7432,-0.0142,-0.6870,0.427,-0.061,-0.488,-179.791,-47.274,144.959
10105,0.7427,-0.0146,-0.6860,0.427,-0.183,-0.366,-179.780,-47.269,144.965
10115,0.7417,-0.0132,-0.6836,0.305,-0.305,-0.305,-179.775,-47.269,144.970
10125,0.7402,-0.0142,-0.6836,0.244,-0.305,-0.183,-179.764,-47.269,144.970
10135,0.7397,-0.0107,-0.6831,0.183,-0.244,-0.061,-179.758,-47.263,144.970
10145,0.7402,-0.0122,-0.6841,0.244,-0.061,0.122,-179.742,-47.263,144.970
10155,0.7417,-0.0127,-0.6855,0.366,0.061,0.305,-179.731,-47.263,144.965
10165,0.7427,-0.0127,-0.6860,0.366,0.061,0.427,-179.714,-47.263,144.959
10175,0.7407,-0.0107,-0.6870,0.305,0.061,0.549,-179.698,-47.263,144.948
10185,0.7432,-0.0103,-0.6865,0.244,0.061,0.610,-179.681,-47.263,144.943
10195,0.7417,-0.0078,-0.6865,0.305,0.061,0.610,-179.670,-47.263,144.932
10205,0.7417,-0.0073,-0.6895,0.305,0.122,0.427,-179.659,-47.263,144.926
10215,0.7427,-0.0059,-0.6899,0.183,0.183,0.244,-179.654,-47.263,144.921
10225,0.7446,-0.0083,-0.6875,-0.061,0.000,0.000,-179.654,-47.263,144.921
10235,0.7437,-0.0103,-0.6890,-0.244,-0.183,-0.244,-179.654,-47.263,144.926
10245,0.7437,-0.0078,-0.6851,-0.427,-0.427,-0.427,-179.659,-47.258,144.932
10255,0.7422,-0.0078,-0.6836,-0.427,-0.610,-0.488,-179.665,-47.252,144.943
10266,0.7383,-0.0078,-0.6855,-0.366,-0.671,-0.427,-179.670,-47.247,144.948
10275,0.7368,-0.0088,-0.6841,-0.122,-0.671,-0.244,-179.670,-47.241,144.948
10285,0.7368,-0.0078,-0.6812,0.000,-0.610,-0.122,-179.665,-47.230,144.954
10295,0.7378,-0.0083,-0.6807,0.183,-0.366,0.061,-179.659,-47.230,144.954
10305,0.7378,-0.0083,-0.6821,0.366,-0.122,0.244,-179.648,-47.230,144.948
10315,0.7417,-0.0098,-0.6831,0.488,0.244,0.305,-179.637,-47.236,144.943
10325,0.7422,-0.0083,-0.6846,0.488,0.488,0.366,-179.626,-47.241,144.937
10335,0.7437,-0.0083,-0.6831,0.427,0.671,0.305,-179.615,-47.247,144.932
10345,0.7437,-0.0073,-0.6851,0.244,0.671,0.244,-179.610,-47.258,144.932
10357,0.7437,-0.0073,-0.6865,0.061,0.610,0.183,-179.604,-47.263,144.926
10365,0.7422,-0.0078,-0.6846,-0.061,0.427,0.061,-179.599,-47.269,144.926
10375,0.7432,-0.0078,-0.6870,-0.061,0.244,0.000,-179.599,-47.269,144.926
10385,0.7437,-0.0103,-0.6870,-0.122,0.061,0.000,-179.594,-47.269,144.926
10395,0.7427,-0.0103,-0.6870,-0.122,-0.122,-0.061,-179.594,-47.269,144.926
10405,0.7427,-0.0112,-0.6851,-0.183,-0.183,-0.061,-179.588,-47.269,144.926
10415,0.7412,-0.0093,-0.6875,-0.183,-0.183,0.000,-179.588,-47.263,144.926
10425,0.7383,-0.0078,-0.6841,0.000,-0.183,0.000,-179.583,-47.263,144.926
10435,0.7373,-0.0083,-0.6841,0.244,-0.061,0.000,-179.577,-47.258,144.926
10445,0.7373,-0.0078,-0.6846,0.488,0.183,0.061,-179.572,-47.263,144.926
10455,0.7397,-0.0083,-0.6846,0.610,0.366,0.061,-179.561,-47.263,144.926
10465,0.7407,-0.0093,-0.6875,0.549,0.488,0.061,-179.555,-47.269,144.926
10475,0.7432,-0.0098,-0.6846,0.427,0.488,0.061,-179.544,-47.274,144.926
10485,0.7437,-0.0088,-0.6870,0.305,0.366,0.000,-179.539,-47.274,144.926
10495,0.7456,-0.0078,-0.6895,0.305,0.244,-0.061,-179.533,-47.280,144.926
10505,0.7456,-0.0093,-0.6875,0.244,0.122,-0.183,-179.533,-47.280,144.926
10515,0.7456,-0.0107,-0.6885,0.122,-0.061,-0.183,-179.528,-47.280,144.932
10525,0.7446,-0.0103,-0.6855,0.000,-0.305,-0.183,-179.528,-47.280,144.932
10535,0.7446,-0.0112,-0.6846,-0.122,-0.427,-0.183,-179.522,-47.274,144.937
10545,0.7432,-0.0127,-0.6831,-0.244,-0.488,-0.244,-179.522,-47.274,144.937
10556,0.7412,-0.0112,-0.6831,-0.244,-0.366,-0.061,-179.522,-47.269,144.937
10566,0.7412,-0.0117,-0.6836,-0.122,-0.183,0.061,-179.517,-47.269,144.937
10575,0.7393,-0.0103,-0.6855,0.000,-0.061,0.183,-179.511,-47.269,144.937
10586,0.7393,-0.0098,-0.6841,0.183,0.122,0.244,-179.506,-47.269,144.932
10596,0.7393,-0.0107,-0.6846,0.244,0.366,0.366,-179.495,-47.269,144.926
10606,0.7397,-0.0093,-0.6860,0.244,0.427,0.427,-179.484,-47.274,144.921
10616,0.7412,-0.0098,-0.6885,0.122,0.427,0.427,-179.473,-47.274,144.915
10626,0.7446,-0.0083,-0.6880,0.000,0.366,0.427,-179.467,-47.280,144.910
10636,0.7432,-0.0068,-0.6875,-0.061,0.305,0.366,-179.462,-47.280,144.904
10646,0.7437,-0.0059,-0.6885,-0.122,0.183,0.305,-179.462,-47.285,144.899
10656,0.7427,-0.0073,-0.6860,-0.122,-0.061,0.244,-179.462,-47.285,144.893
10666,0.7417,-0.0083,-0.6860,-0.122,-0.122,0.183,-179.456,-47.280,144.893
10676,0.7422,-0.0088,-0.6855,-0.061,-0.122,0.061,-179.456,-47.280,144.893
10686,0.7441,-0.0083,-0.6865,-0.122,-0.183,-0.061,-179.456,-47.280,144.893
10696,0.7427,-0.0098,-0.6855,-0.061,-0.183,-0.183,-179.456,-47.274,144.893
10706,0.7427,-0.0103,-0.6851,-0.122,-0.122,-0.244,-179.456,-47.274,144.899
10716,0.7422,-0.0088,-0.6851,0.000,-0.122,-0.244,-179.456,-47.274,144.904
10726,0.7422,-0.0088,-0.6851,0.183,0.000,-0.183,-179.456,-47.274,144.904
10736,0.7407,-0.0088,-0.6870,0.366,0.183,-0.244,-179.451,-47.274,144.910
10746,0.7402,-0.0093,-0.6855,0.549,0.305,-0.244,-179.445,-47.280,144.910
10756,0.7412,-0.0088,-0.6846,0.488,0.366,-0.305,-179.445,-47.280,144.915
10766,0.7432,-0.0117,-0.6890,0.305,0.305,-0.366,-179.440,-47.285,144.921
10776,0.7432,-0.0112,-0.6880,0.122,0.183,-0.427,-179.440,-47.285,144.926
10786,0.7432,-0.0107,-0.6875,0.000,0.061,-0.427,-179.440,-47.285,144.932
10796,0.7441,-0.0098,-0.6851,-0.061,-0.061,-0.427,-179.445,-47.285,144.943
10806,0.7422,-0.0093,-0.6860,0.061,-0.183,-0.366,-179.445,-47.285,144.948
10816,0.7412,-0.0103,-0.6851,0.183,-0.183,-0.305,-179.445,-47.280,144.948
10826,0.7412,-0.0088,-0.6870,0.183,-0.244,-0.305,-179.445,-47.280,144.954
10836,0.7407,-0.0093,-0.6885,0.122,-0.183,-0.366,-179.445,-47.274,144.959
10846,0.7397,-0.0093,-0.6870,0.122,-0.122,-0.366,-179.445,-47.274,144.965
10856,0.7407,-0.0098,-0.6875,0.061,-0.061,-0.366,-179.445,-47.269,144.970
10866,0.7422,-0.0112,-0.6870,0.122,0.061,-0.244,-179.445,-47.269,144.976
10876,0.7432,-0.0088,-0.6865,0.305,0.183,-0.183,-179.440,-47.274,144.976
10886,0.7422,-0.0093,-0.6851,0.366,0.183,-0.122,-179.434,-47.274,144.981
10896,0.7407,-0.0103,-0.6865,0.366,0.183,-0.122,-179.429,-47.274,144.981
10906,0.7441,-0.0093,-0.6851,0.305,0.061,-0.183,-179.429,-47.280,144.981
10916,0.7437,-0.0088,-0.6860,0.183,0.061,-0.244,-179.429,-47.280,144.987
10926,0.7427,-0.0093,-0.6851,-0.061,0.000,-0.305,-179.429,-47.280,144.992
10936,0.7412,-0.0098,-0.6860,-0.183,-0.061,-0.244,-179.429,-47.280,144.998
10946,0.7441,-0.0088,-0.6851,-0.183,-0.122,-0.183,-179.434,-47.280,144.998
10956,0.7432,-0.0088,-0.6880,0.000,-0.183,0.000,-179.429,-47.274,144.998
10966,0.7432,-0.0098,-0.6860,0.366,-0.305,0.122,-179.423,-47.274,144.998
10976,0.7417,-0.0132,-0.6870,0.549,-0.305,0.122,-179.412,-47.269,144.992
10986,0.7417,-0.0112,-0.6860,0.427,-0.183,0.061,-179.401,-47.263,144.992
10996,0.7393,-0.0088,-0.6851,0.183,-0.122,-0.061,-179.401,-47.263,144.992
11006,0.7397,-0.0088,-0.6855,-0.061,-0.061,-0.061,-179.401,-47.263,144.998
11016,0.7427,-0.0093,-0.6860,-0.122,0.122,-0.061,-179.401,-47.263,144.998
11026,0.7422,-0.0107,-0.6855,0.061,0.183,0.061,-179.396,-47.263,144.998
11036,0.7437,-0.0093,-0.6841,0.305,0.244,0.244,-179.390,-47.269,144.992
11046,0.7437,-0.0103,-0.6851,0.488,0.061,0.366,-179.379,-47.269,144.992
11056,0.7412,-0.0098,-0.6846,0.488,-0.122,0.366,-179.368,-47.269,144.992
11066,0.7368,-0.0073,-0.6855,0.427,-0.122,0.244,-179.357,-47.269,144.992
11076,0.7378,-0.0063,-0.6875,0.244,-0.061,0.122,-179.357,-47.263,144.992
11086,0.7383,-0.0073,-0.6865,0.061,0.183,-0.061,-179.357,-47.263,144.992
11096,0.7417,-0.0044,-0.6851,0.000,0.366,-0.305,-179.363,-47.269,144.992
11106,0.7432,-0.0029,-0.6875,0.000,0.366,-0.549,-179.374,-47.269,144.992
11116,0.7407,-0.0034,-0.6860,0.122,0.305,-0.671,-179.385,-47.274,144.992
11126,0.7412,-0.0039,-0.6870,0.244,0.061,-0.671,-179.390,-47.274,144.992
11136,0.7437,-0.0054,-0.6875,0.366,-0.183,-0.732,-179.396,-47.274,144.992
11146,0.7412,-0.0073,-0.6836,0.366,-0.366,-0.793,-179.401,-47.269,144.992
11156,0.7407,-0.0098,-0.6841,0.244,-0.549,-0.854,-179.407,-47.263,144.992
11166,0.7422,-0.0098,-0.6816,0.000,-0.610,-0.854,-179.412,-47.258,144.992
11176,0.7417,-0.0107,-0.6816,-0.183,-0.427,-0.732,-179.418,-47.258,144.992
11186,0.7397,-0.0088,-0.6812,-0.122,-0.122,-0.549,-179.423,-47.258,144.992
11196,0.7397,-0.0093,-0.6826,0.061,0.244,-0.366,-179.423,-47.258,144.992
11206,0.7397,-0.0093,-0.6841,0.305,0.488,-0.183,-179.423,-47.263,144.992
11216,0.7422,-0.0093,-0.6846,0.488,0.671,0.000,-179.418,-47.274,144.992
11226,0.7427,-0.0088,-0.6875,0.549,0.732,0.122,-179.407,-47.280,144.992
11236,0.7451,-0.0107,-0.6860,0.549,0.610,0.122,-179.396,-47.285,144.992
11246,0.7461,-0.0117,-0.6875,0.305,0.427,0.000,-179.390,-47.291,144.992
11256,0.7441,-0.0107,-0.6890,0.061,0.305,-0.122,-179.390,-47.291,144.992
11266,0.7437,-0.0093,-0.6909,-0.122,0.122,-0.183,-179.390,-47.291,144.992
11276,0.7422,-0.0088,-0.6890,-0.183,-0.122,-0.183,-179.390,-47.291,144.992
11286,0.7393,-0.0088,-0.6904,-0.122,-0.183,-0.183,-179.396,-47.285,144.992
11296,0.7383,-0.0078,-0.6875,0.061,-0.305,-0.061,-179.396,-47.280,144.992
11306,0.7393,-0.0093,-0.6860,0.305,-0.427,0.000,-179.390,-47.274,144.992
11316,0.7407,-0.0112,-0.6885,0.549,-0.366,0.061,-179.379,-47.269,144.992
11326,0.7402,-0.0122,-0.6885,0.549,-0.244,0.061,-179.368,-47.263,144.992
11336,0.7402,-0.0112,-0.6846,0.427,-0.183,0.061,-179.363,-47.263,144.992
11346,0.7402,-0.0112,-0.6860,0.244,-0.061,0.061,-179.357,-47.258,144.992
11356,0.7412,-0.0093,-0.6860,0.183,0.061,0.061,-179.352,-47.258,144.992
11366,0.7417,-0.0088,-0.6875,0.244,0.122,0.061,-179.346,-47.263,144.992
11376,0.7422,-0.0078,-0.6865,0.366,0.244,0.061,-179.346,-47.263,144.992
11386,0.7451,-0.0088,-0.6885,0.366,0.183,0.122,-179.341,-47.263,144.992
11396,0.7441,-0.0093,-0.6890,0.366,0.061,0.183,-179.330,-47.263,144.992
11406,0.7432,-0.0098,-0.6846,0.244,-0.183,0.122,-179.324,-47.263,144.992
11416,0.7441,-0.0093,-0.6870,0.061,-0.366,0.061,-179.324,-47.263,144.992
11426,0.7441,-0.0103,-0.6875,-0.061,-0.427,0.000,-179.324,-47.258,144.992
11436,0.7427,-0.0122,-0.6855,-0.122,-0.366,0.061,-179.319,-47.252,144.992
11446,0.7432,-0.0122,-0.6836,-0.061,-0.366,0.122,-179.313,-47.252,144.992
11456,0.7422,-0.0112,-0.6851,0.061,-0.305,0.183,-179.313,-47.247,144.992
11466,0.7407,-0.0132,-0.6821,0.122,-0.244,0.244,-179.302,-47.247,144.992
11476,0.7397,-0.0127,-0.6836,0.244,-0.122,0.366,-179.291,-47.247,144.992
11486,0.7407,-0.0093,-0.6841,0.305,0.000,0.427,-179.286,-47.247,144.992
11496,0.7397,-0.0103,-0.6865,0.427,0.122,0.488,-179.275,-47.247,144.992
11506,0.7402,-0.0068,-0.6875,0.427,0.183,0.427,-179.264,-47.247,144.992
11516,0.7407,-0.0078,-0.6890,0.366,0.183,0.244,-179.258,-47.247,144.992
11526,0.7407,-0.0054,-0.6860,0.122,0.122,0.122,-179.258,-47.247,144.992
11536,0.7427,-0.0078,-0.6865,0.000,0.000,0.000,-179.264,-47.247,144.992
11546,0.7427,-0.0068,-0.6865,0.000,-0.183,-0.122,-179.264,-47.247,144.992
11556,0.7437,-0.0063,-0.6865,0.000,-0.305,-0.305,-179.269,-47.247,144.992
11566,0.7402,-0.0073,-0.6875,0.000,-0.427,-0.427,-179.275,-47.241,144.992
11576,0.7393,-0.0083,-0.6851,-0.061,-0.427,-0.549,-179.280,-47.236,144.992
11586,0.7402,-0.0073,-0.6846,-0.061,-0.366,-0.610,-179.291,-47.230,144.992
11596,0.7417,-0.0059,-0.6826,0.122,-0.244,-0.671,-179.297,-47.230,144.992
11606,0.7412,-0.0073,-0.6851,0.305,-0.122,-0.610,-179.302,-47.230,144.992
11616,0.7432,-0.0083,-0.6890,0.549,0.061,-0.610,-179.302,-47.230,144.992
11626,0.7432,-0.0093,-0.6865,0.732,0.183,-0.671,-179.302,-47.230,144.992
11636,0.7422,-0.0103,-0.6890,0.854,0.183,-0.793,-179.302,-47.230,144.992
11646,0.7422,-0.0083,-0.6885,0.732,0.122,-0.916,-179.302,-47.230,144.992
11656,0.7432,-0.0093,-0.6890,0.549,0.000,-1.099,-179.308,-47.230,145.009
11666,0.7427,-0.0083,-0.6870,0.305,-0.244,-1.221,-179.319,-47.230,145.025
11676,0.7412,-0.0059,-0.6860,0.122,-0.427,-1.282,-179.335,-47.225,145.047
11686,0.7427,-0.0039,-0.6846,0.183,-0.488,-1.343,-179.352,-47.225,145.063
11696,0.7417,-0.0015,-0.6855,0.427,-0.549,-1.343,-179.368,-47.219,145.085
11706,0.7393,-0.0029,-0.6831,0.793,-0.549,-1.343,-179.379,-47.214,145.102
11716,0.7363,-0.0015,-0.6836,1.099,-0.427,-1.404,-179.385,-47.208,145.124
11726,0.7329,-0.0029,-0.6865,1.282,-0.244,-1.648,-179.396,-47.203,145.151
11736,0.7329,-0.0029,-0.6851,1.099,0.061,-2.014,-179.407,-47.203,145.179
11746,0.7324,-0.0034,-0.6831,0.732,0.366,-2.258,-179.429,-47.203,145.212
11756,0.7334,-0.0029,-0.6851,0.427,0.671,-2.441,-179.456,-47.208,145.250
11767,0.7378,-0.0034,-0.6841,0.366,0.916,-2.441,-179.478,-47.214,145.283
11776,0.7432,-0.0059,-0.6860,0.732,1.038,-2.258,-179.495,-47.225,145.316
11786,0.7466,-0.0093,-0.6880,1.038,0.977,-2.136,-179.506,-47.236,145.349
11796,0.7461,-0.0127,-0.6890,1.099,0.732,-2.075,-179.511,-47.247,145.377
11806,0.7451,-0.0127,-0.6880,0.732,0.366,-2.075,-179.522,-47.252,145.410
11816,0.7437,-0.0137,-0.6875,0.244,0.061,-2.075,-179.533,-47.252,145.443
11826,0.7422,-0.0142,-0.6846,-0.122,0.061,-2.075,-179.550,-47.252,145.470
11836,0.7417,-0.0112,-0.6841,-0.244,0.244,-2.075,-179.572,-47.258,145.503
11846,0.7422,-0.0107,-0.6841,-0.183,0.549,-1.892,-179.588,-47.263,145.530
11856,0.7422,-0.0088,-0.6821,-0.122,0.793,-1.587,-179.599,-47.274,145.552
11866,0.7427,-0.0093,-0.6826,0.061,0.854,-1.160,-179.610,-47.280,145.569
11876,0.7417,-0.0083,-0.6851,0.427,0.916,-0.854,-179.610,-47.291,145.580
11886,0.7451,-0.0083,-0.6870,0.671,0.732,-0.671,-179.610,-47.302,145.591
11896,0.7466,-0.0112,-0.6870,0.610,0.549,-0.488,-179.604,-47.307,145.596
11906,0.7466,-0.0107,-0.6885,0.244,0.183,-0.427,-179.599,-47.307,145.607
11916,0.7451,-0.0112,-0.6865,-0.244,-0.122,-0.488,-179.604,-47.307,145.613
11926,0.7427,-0.0073,-0.6826,-0.671,-0.183,-0.671,-179.615,-47.307,145.624
11936,0.7437,-0.0049,-0.6841,-0.977,-0.122,-0.793,-179.632,-47.307,145.635
11946,0.7422,-0.0015,-0.6846,-1.038,0.122,-0.793,-179.654,-47.307,145.646
11956,0.7388,0.0015,-0.6831,-0.916,0.366,-0.793,179.874,-47.313,145.657
11966,0.7393,0.0049,-0.6812,-0.671,0.549,-0.793,179.857,-47.318,145.668
11976,0.7397,0.0049,-0.6841,-0.244,0.610,-0.854,179.841,-47.324,145.684
11986,0.7407,0.0039,-0.6841,0.061,0.488,-0.977,179.830,-47.329,145.695
11996,0.7407,0.0029,-0.6826,0.122,0.488,-1.038,179.819,-47.329,145.712
12006,0.7427,0.0010,-0.6821,0.122,0.427,-1.160,179.808,-47.335,145.728
12016,0.7427,-0.0015,-0.6831,0.061,0.427,-1.221,-179.874,-47.340,145.745
12026,0.7441,-0.0010,-0.6816,-0.183,0.366,-1.221,-179.890,-47.346,145.767
12036,0.7437,-0.0005,-0.6812,-0.366,0.183,-1.038,-179.907,-47.351,145.778
12046,0.7432,-0.0005,-0.6802,-0.305,0.061,-0.732,-179.918,-47.351,145.789
12056,0.7446,0.0000,-0.6772,0.122,0.061,-0.366,-180.000,-47.357,145.794
12066,0.7466,0.0000,-0.6782,0.854,0.122,-0.183,-179.995,-47.362,145.800
12076,0.7500,-0.0020,-0.6821,1.526,0.366,-0.305,-179.835,-47.368,145.805
12086,0.7466,-0.0005,-0.6826,1.648,0.732,-0.732,-179.824,-47.379,145.816
12096,0.7427,0.0044,-0.6836,1.160,1.038,-1.404,179.626,-47.390,145.833
12106,0.7383,0.0112,-0.6865,0.366,1.343,-2.319,179.604,-47.401,145.871
12116,0.7363,0.0132,-0.6909,-0.427,1.526,-3.357,179.555,-47.411,145.920
12126,0.7339,0.0166,-0.6890,-0.977,1.648,-4.211,179.489,-47.417,145.981
12136,0.7363,0.0215,-0.6865,-1.099,1.587,-4.639,179.418,-47.428,146.052
12146,0.7412,0.0215,-0.6826,-0.671,1.343,-4.761,179.346,-47.444,146.118
12156,0.7422,0.0166,-0.6846,0.061,0.977,-4.639,179.291,-47.450,146.190
12166,0.7451,0.0078,-0.6851,0.977,0.488,-4.456,179.253,-47.455,146.255
12176,0.7466,0.0000,-0.6831,1.465,0.061,-4.272,179.225,-47.455,146.316
12186,0.7495,-0.0088,-0.6812,1.404,-0.122,-4.211,-179.258,-47.455,146.382
12196,0.7495,-0.0151,-0.6797,0.916,-0.122,-4.089,-179.286,-47.461,146.442
12206,0.7485,-0.0200,-0.6807,0.305,0.061,-3.967,-179.319,-47.461,146.497
12216,0.7495,-0.0210,-0.6821,-0.061,0.366,-3.662,-179.346,-47.466,146.552
12226,0.7520,-0.0225,-0.6797,-0.061,0.793,-3.052,-179.368,-47.483,146.602
12236,0.7515,-0.0254,-0.6797,0.244,1.099,-2.258,-179.374,-47.494,146.635
12246,0.7505,-0.0234,-0.6831,0.549,1.160,-1.343,-179.368,-47.510,146.651
12256,0.7500,-0.0220,-0.6855,0.854,1.038,-0.427,-179.352,-47.521,146.656
12267,0.7495,-0.0186,-0.6904,0.977,0.854,0.305,-179.330,-47.527,146.651
12276,0.7485,-0.0186,-0.6938,0.793,0.549,0.732,-179.308,-47.527,146.640
12286,0.7456,-0.0127,-0.6924,0.366,0.244,0.854,-179.291,-47.527,146.629
12296,0.7427,-0.0059,-0.6919,-0.305,0.000,0.854,-179.286,-47.521,146.618
12306,0.7397,0.0024,-0.6924,-0.854,-0.183,0.793,179.797,-47.516,146.607
12316,0.7373,0.0083,-0.6904,-1.038,-0.305,0.610,179.786,-47.505,146.596
12326,0.7354,0.0132,-0.6880,-0.854,-0.427,0.427,179.775,-47.494,146.591
12336,0.7373,0.0166,-0.6885,-0.488,-0.549,0.183,179.758,-47.483,146.585
12346,0.7363,0.0176,-0.6851,-0.122,-0.671,-0.122,179.747,-47.472,146.591
12358,0.7378,0.0200,-0.6812,0.122,-0.732,-0.427,179.725,-47.466,146.596
12366,0.7407,0.0200,-0.6768,0.366,-0.793,-0.671,179.709,-47.455,146.607
12376,0.7432,0.0171,-0.6763,0.549,-0.793,-0.977,179.692,-47.450,146.618
12386,0.7456,0.0146,-0.6768,0.610,-0.671,-1.282,179.676,-47.450,146.640
12397,0.7485,0.0117,-0.6758,0.549,-0.610,-1.465,179.659,-47.450,146.662
12407,0.7500,0.0054,-0.6763,0.427,-0.488,-1.648,179.643,-47.450,146.684
12417,0.7500,0.0044,-0.6763,0.183,-0.305,-1.770,179.626,-47.450,146.711
12427,0.7500,0.0015,-0.6748,0.000,-0.061,-1.831,179.610,-47.455,146.739
12436,0.7495,-0.0015,-0.6733,-0.122,0.122,-1.648,-179.874,-47.461,146.761
12447,0.7476,0.0015,-0.6748,-0.122,0.366,-1.343,179.874,-47.472,146.783
12456,0.7476,0.0000,-0.6772,-0.061,0.427,-0.977,179.863,-47.477,146.794
12466,0.7490,-0.0015,-0.6816,0.183,0.488,-0.488,-179.874,-47.483,146.805
12477,0.7471,-0.0005,-0.6826,0.549,0.549,-0.061,-179.868,-47.494,146.805
12487,0.7471,-0.0010,-0.6846,0.793,0.549,0.305,-179.857,-47.499,146.799
12497,0.7471,-0.0010,-0.6855,0.793,0.488,0.427,-179.846,-47.499,146.794
12507,0.7446,-0.0005,-0.6885,0.610,0.366,0.366,-179.841,-47.505,146.788
12517,0.7456,0.0015,-0.6890,0.183,0.244,0.244,179.874,-47.505,146.783
12526,0.7432,0.0000,-0.6895,-0.305,0.061,0.000,179.874,-47.499,146.783
12537,0.7407,0.0005,-0.6904,-0.854,-0.183,-0.244,179.863,-47.494,146.788
12547,0.7388,-0.0005,-0.6885,-1.282,-0.549,-0.244,-179.956,-47.483,146.794
12557,0.7402,-0.0059,-0.6870,-1.648,-0.854,-0.244,-179.973,-47.472,146.794
12567,0.7461,-0.0029,-0.6860,-2.014,-1.038,0.000,-179.989,-47.461,146.794
12576,0.7446,-0.0054,-0.6826,-1.831,-0.977,0.610,-179.995,-47.450,146.788
12586,0.7427,-0.0024,-0.6787,-1.587,-0.977,1.343,-179.995,-47.444,146.766
12596,0.7412,-0.0054,-0.6792,-0.977,-0.916,2.075,-179.978,-47.433,146.733
12607,0.7412,-0.0039,-0.6758,-0.549,-0.793,2.625,-179.951,-47.428,146.695
12617,0.7446,-0.0010,-0.6777,-0.549,-0.610,2.991,-179.923,-47.428,146.651
12626,0.7471,0.0000,-0.6797,-0.549,-0.366,3.296,-180.000,-47.428,146.602
12636,0.7476,0.0020,-0.6846,-0.671,-0.061,3.479,-179.973,-47.428,146.552
12647,0.7476,0.0044,-0.6836,-0.732,0.244,3.357,-179.951,-47.428,146.503
12657,0.7451,0.0059,-0.6851,-0.916,0.305,3.235,-179.929,-47.433,146.453
12667,0.7432,0.0059,-0.6841,-1.221,0.244,3.052,-179.912,-47.433,146.409
12677,0.7417,0.0098,-0.6802,-1.526,-0.061,2.930,-179.907,-47.433,146.365
12687,0.7383,0.0117,-0.6812,-1.648,-0.244,2.869,-179.901,-47.433,146.327
12697,0.7412,0.0161,-0.6841,-1.221,-0.244,2.930,-179.896,-47.428,146.283
12707,0.7397,0.0151,-0.6841,-0.488,-0.244,2.808,-179.885,-47.422,146.239
12717,0.7407,0.0137,-0.6836,0.061,-0.183,2.686,-179.868,-47.422,146.201
12727,0.7432,0.0098,-0.6851,0.305,-0.122,2.380,-179.852,-47.417,146.162
12737,0.7441,0.0093,-0.6865,0.122,-0.061,2.014,-179.835,-47.417,146.135
12747,0.7441,0.0098,-0.6860,-0.122,-0.061,1.648,-179.830,-47.417,146.113
12757,0.7427,0.0083,-0.6851,-0.244,0.061,1.282,-179.824,-47.411,146.091
12767,0.7402,0.0093,-0.6836,-0.244,0.183,0.916,-179.830,-47.417,146.080
12777,0.7397,0.0083,-0.6836,-0.122,0.244,0.610,-179.830,-47.417,146.069
12787,0.7393,0.0098,-0.6816,0.122,0.244,0.549,-179.835,-47.417,146.063
12797,0.7412,0.0073,-0.6841,0.427,0.366,0.549,-179.830,-47.422,146.052
12807,0.7446,0.0049,-0.6836,0.793,0.427,0.610,-179.824,-47.422,146.041
12817,0.7451,-0.0005,-0.6831,0.916,0.488,0.610,-179.956,-47.428,146.036
12827,0.7451,-0.0044,-0.6855,0.732,0.488,0.549,-179.940,-47.433,146.025
12837,0.7466,-0.0073,-0.6846,0.244,0.244,0.549,-179.929,-47.439,146.019
12847,0.7476,-0.0107,-0.6851,-0.244,0.000,0.671,-179.912,-47.439,146.008
12857,0.7437,-0.0093,-0.6836,-0.610,-0.183,0.854,-179.901,-47.439,145.997
12867,0.7441,-0.0122,-0.6802,-0.488,-0.183,1.221,-179.885,-47.433,145.975
12877,0.7437,-0.0103,-0.6826,-0.122,-0.183,1.709,-179.863,-47.433,145.953
12887,0.7427,-0.0107,-0.6841,0.305,-0.122,2.197,-179.824,-47.433,145.920
12897,0.7441,-0.0122,-0.6855,0.671,0.061,2.563,-179.786,-47.433,145.882
12907,0.7446,-0.0122,-0.6851,0.732,0.183,2.930,-179.736,-47.433,145.838
12917,0.7456,-0.0103,-0.6831,0.549,0.244,3.113,-179.692,-47.433,145.794
12927,0.7485,-0.0083,-0.6855,0.305,0.244,3.235,-179.648,-47.439,145.745
12937,0.7485,-0.0039,-0.6865,0.061,0.183,3.235,-179.615,-47.439,145.695
12947,0.7466,-0.0039,-0.6880,0.061,0.061,3.235,-179.577,-47.439,145.651
12957,0.7461,-0.0029,-0.6885,0.122,-0.061,3.113,-179.544,-47.439,145.602
12967,0.7456,-0.0020,-0.6885,0.122,-0.244,2.930,-179.517,-47.433,145.558
12977,0.7461,0.0015,-0.6914,0.122,-0.427,2.686,179.874,-47.428,145.519
12987,0.7456,0.0010,-0.6904,0.061,-0.671,2.380,179.901,-47.417,145.486
12997,0.7441,0.0034,-0.6875,0.061,-0.793,2.014,179.923,-47.411,145.453
13007,0.7437,0.0063,-0.6855,0.061,-0.854,1.587,179.934,-47.401,145.432
13017,0.7432,0.0083,-0.6851,0.183,-0.916,1.221,179.945,-47.390,145.415
13027,0.7441,0.0063,-0.6846,0.305,-0.854,0.854,179.951,-47.384,145.399
13037,0.7451,0.0024,-0.6841,0.427,-0.854,0.549,179.962,-47.373,145.393
13047,0.7461,0.0039,-0.6797,0.427,-0.854,0.244,179.967,-47.368,145.388
13057,0.7456,0.0034,-0.6802,0.427,-0.916,-0.061,179.967,-47.362,145.393
13067,0.7432,0.0020,-0.6816,0.366,-0.977,-0.244,179.967,-47.357,145.393
13077,0.7402,-0.0010,-0.6816,0.366,-0.916,-0.305,-179.918,-47.346,145.399
13087,0.7397,-0.0010,-0.6821,0.549,-0.793,-0.244,-179.912,-47.340,145.404
13097,0.7383,-0.0029,-0.6816,0.854,-0.549,-0.061,-179.901,-47.335,145.404
13107,0.7368,-0.0044,-0.6812,1.160,-0.244,0.122,-179.890,-47.329,145.399
13117,0.7368,-0.0049,-0.6816,1.404,0.122,0.305,-179.868,-47.329,145.399
13127,0.7388,-0.0098,-0.6841,1.526,0.305,0.488,-179.841,-47.329,145.388
13137,0.7373,-0.0103,-0.6836,1.465,0.427,0.610,-179.813,-47.335,145.382
13147,0.7393,-0.0122,-0.6851,1.160,0.488,0.671,-179.786,-47.335,145.371
13157,0.7407,-0.0137,-0.6851,0.793,0.488,0.671,-179.758,-47.340,145.360
13167,0.7437,-0.0151,-0.6865,0.549,0.305,0.793,-179.736,-47.346,145.349
13177,0.7427,-0.0171,-0.6860,0.366,0.122,0.916,-179.709,-47.346,145.333
13187,0.7432,-0.0200,-0.6870,0.183,-0.122,0.977,-179.687,-47.340,145.322
13197,0.7422,-0.0171,-0.6860,-0.122,-0.366,1.160,-179.665,-47.335,145.305
13207,0.7412,-0.0181,-0.6841,-0.427,-0.610,1.404,-179.637,-47.329,145.283
13217,0.7407,-0.0186,-0.6821,-0.671,-0.610,1.709,-179.615,-47.324,145.256
13227,0.7388,-0.0186,-0.6821,-0.793,-0.610,2.136,-179.588,-47.318,145.228
13237,0.7402,-0.0171,-0.6812,-0.732,-0.427,2.563,-179.561,-47.313,145.190
13247,0.7402,-0.0171,-0.6812,-0.427,-0.244,2.991,-179.522,-47.313,145.146
13257,0.7427,-0.0146,-0.6816,-0.061,0.122,3.357,-179.478,-47.313,145.096
13268,0.7471,-0.0146,-0.6865,0.244,0.549,3.479,-179.429,-47.318,145.042
13277,0.7456,-0.0137,-0.6899,0.488,0.916,3.479,-179.385,-47.329,144.992
13287,0.7466,-0.0146,-0.6924,0.305,1.099,3.296,-179.341,-47.335,144.943
13297,0.7441,-0.0151,-0.6909,-0.305,0.916,2.991,-179.302,-47.346,144.899
13307,0.7432,-0.0122,-0.6929,-1.160,0.427,2.625,-179.286,-47.346,144.860
13317,0.7397,-0.0088,-0.6914,-1.709,-0.122,2.380,-179.275,-47.340,144.827
13327,0.7373,-0.0039,-0.6875,-1.831,-0.610,2.319,-179.275,-47.329,144.789
13337,0.7339,-0.0049,-0.6836,-1.587,-0.793,2.441,-179.264,-47.318,144.756
13347,0.7378,-0.0073,-0.6826,-1.221,-0.916,2.502,-179.253,-47.307,144.717
13357,0.7378,-0.0122,-0.6812,-0.977,-0.854,2.502,-179.231,-47.302,144.684
13367,0.7383,-0.0156,-0.6807,-0.977,-0.793,2.625,-179.209,-47.291,144.646
13377,0.7402,-0.0181,-0.6782,-1.221,-0.549,2.686,-179.182,-47.285,144.602
13387,0.7422,-0.0200,-0.6802,-1.648,-0.244,2.686,-179.165,-47.285,144.564
13397,0.7451,-0.0220,-0.6807,-1.953,0.122,2.869,-179.143,-47.291,144.520
13407,0.7500,-0.0254,-0.6826,-2.197,0.366,3.052,-179.116,-47.296,144.476
13417,0.7510,-0.0273,-0.6865,-2.319,0.549,3.296,-179.088,-47.307,144.426
13427,0.7549,-0.0283,-0.6865,-2.380,0.610,3.662,-179.061,-47.313,144.371
13437,0.7520,-0.0293,-0.6890,-2.380,0.488,3.967,-179.028,-47.324,144.316
13447,0.7480,-0.0288,-0.6899,-2.380,0.244,4.333,-178.989,-47.324,144.250
13457,0.7441,-0.0244,-0.6885,-2.441,-0.183,4.700,-178.951,-47.318,144.185
13467,0.7432,-0.0205,-0.6895,-2.258,-0.732,5.371,-178.912,-47.307,144.102
13477,0.7373,-0.0171,-0.6880,-1.587,-1.038,5.981,-178.857,-47.296,144.014
13487,0.7373,-0.0166,-0.6870,-1.038,-1.038,6.287,-178.802,-47.280,143.921
13497,0.7383,-0.0161,-0.6860,-0.671,-0.793,6.287,-178.737,-47.269,143.833
13507,0.7388,-0.0122,-0.6895,-0.732,-0.732,6.104,-178.682,-47.258,143.740
13517,0.7383,-0.0117,-0.6953,-0.732,-0.488,5.920,-178.632,-47.247,143.652
13527,0.7383,-0.0083,-0.6943,-0.793,-0.366,5.493,-178.588,-47.236,143.575
13537,0.7378,-0.0078,-0.6938,-0.916,-0.305,4.822,-178.550,-47.230,143.503
13547,0.7358,-0.0044,-0.6924,-1.282,-0.549,4.211,-178.528,-47.214,143.443
13557,0.7354,-0.0029,-0.6899,-1.709,-0.854,3.601,-178.522,-47.203,143.388
13567,0.7349,-0.0015,-0.6870,-2.014,-1.221,3.052,-178.522,-47.186,143.344
13577,0.7344,0.0024,-0.6865,-2.075,-1.282,2.625,179.791,-47.170,143.306
13587,0.7329,0.0020,-0.6841,-1.892,-1.160,2.258,179.797,-47.159,143.273
13597,0.7319,0.0054,-0.6763,-1.404,-0.977,2.014,179.802,-47.148,143.240
13607,0.7334,0.0034,-0.6768,-0.793,-0.732,1.892,179.813,-47.142,143.212
13617,0.7314,-0.0005,-0.6743,-0.305,-0.366,1.770,-179.956,-47.142,143.190
13627,0.7373,-0.0015,-0.6738,0.244,0.061,1.831,-179.934,-47.148,143.163
13637,0.7373,-0.0039,-0.6758,1.099,0.549,1.831,-179.901,-47.159,143.135
13647,0.7393,-0.0098,-0.6777,1.831,1.221,1.831,-179.857,-47.170,143.108
13657,0.7422,-0.0146,-0.6816,2.258,1.709,1.770,-179.802,-47.192,143.080
13667,0.7461,-0.0181,-0.6836,2.258,1.953,1.648,-179.747,-47.214,143.058
13677,0.7471,-0.0210,-0.6846,2.075,1.831,1.526,-179.698,-47.236,143.036
13687,0.7500,-0.0254,-0.6890,2.014,1.648,1.404,-179.643,-47.252,143.015
13697,0.7520,-0.0312,-0.6919,1.892,1.404,1.343,-179.588,-47.269,142.993
13707,0.7515,-0.0366,-0.6943,1.709,1.099,1.160,-179.533,-47.280,142.976
13717,0.7476,-0.0391,-0.6938,1.221,0.671,0.977,-179.484,-47.285,142.960
13727,0.7441,-0.0410,-0.6924,0.427,0.183,0.854,-179.440,-47.285,142.949
13737,0.7441,-0.0391,-0.6895,-0.244,-0.061,0.916,-179.407,-47.280,142.938
13747,0.7383,-0.0337,-0.6904,-0.732,-0.183,1.099,-179.379,-47.274,142.921
13757,0.7402,-0.0298,-0.6885,-0.610,-0.183,1.526,-179.352,-47.269,142.899
13768,0.7397,-0.0288,-0.6860,0.061,-0.122,1.892,-179.313,-47.269,142.872
13777,0.7383,-0.0283,-0.6851,0.732,0.000,2.197,-179.264,-47.269,142.839
13787,0.7378,-0.0264,-0.6880,1.221,0.000,2.563,-179.209,-47.263,142.800
13797,0.7378,-0.0283,-0.6899,1.587,0.000,2.747,-179.149,-47.258,142.756
13807,0.7407,-0.0273,-0.6899,1.648,0.122,2.747,-179.088,-47.258,142.718
13817,0.7427,-0.0298,-0.6895,1.526,0.183,2.502,-179.033,-47.258,142.679
13827,0.7437,-0.0303,-0.6890,0.977,0.122,2.136,-178.984,-47.258,142.652
13837,0.7451,-0.0288,-0.6904,0.244,-0.122,1.770,-178.951,-47.252,142.625
13847,0.7437,-0.0283,-0.6909,-0.366,-0.427,1.465,-178.923,-47.247,142.603
13857,0.7412,-0.0269,-0.6880,-0.854,-0.671,1.282,-178.907,-47.241,142.586
13867,0.7417,-0.0273,-0.6885,-0.977,-0.977,1.160,-178.896,-47.230,142.564
13877,0.7402,-0.0264,-0.6860,-0.854,-1.160,1.221,-178.879,-47.219,142.548
13887,0.7417,-0.0254,-0.6846,-0.549,-1.160,1.343,-178.857,-47.208,142.531
13897,0.7412,-0.0239,-0.6836,-0.122,-0.854,1.404,-178.835,-47.197,142.509
13907,0.7397,-0.0234,-0.6826,0.305,-0.427,1.404,-178.813,-47.197,142.487
13917,0.7383,-0.0234,-0.6831,0.488,0.000,1.221,-178.786,-47.197,142.471
13927,0.7402,-0.0229,-0.6865,0.305,0.366,0.916,-178.764,-47.197,142.460
13937,0.7388,-0.0210,-0.6895,0.061,0.549,0.610,-178.753,-47.203,142.449
13947,0.7388,-0.0210,-0.6880,-0.061,0.671,0.244,-178.748,-47.208,142.443
13957,0.7402,-0.0190,-0.6890,-0.061,0.610,-0.122,-178.742,-47.208,142.443
13967,0.7407,-0.0190,-0.6890,0.061,0.305,-0.488,-178.748,-47.214,142.454
13977,0.7402,-0.0205,-0.6880,0.183,-0.061,-0.854,-178.748,-47.208,142.465
13987,0.7417,-0.0215,-0.6865,0.122,-0.427,-1.160,-178.753,-47.208,142.482
13997,0.7397,-0.0215,-0.6865,0.061,-0.671,-1.465,-178.764,-47.197,142.504
14007,0.7388,-0.0239,-0.6855,0.000,-0.671,-1.709,-178.775,-47.192,142.531
14017,0.7378,-0.0254,-0.6841,-0.061,-0.549,-1.892,-178.786,-47.186,142.559
14027,0.7388,-0.0273,-0.6851,-0.122,-0.366,-2.075,-178.797,-47.186,142.586
14037,0.7388,-0.0269,-0.6846,-0.122,-0.183,-2.197,-178.813,-47.181,142.619
14047,0.7393,-0.0264,-0.6855,-0.122,0.000,-2.136,-178.830,-47.181,142.652
14057,0.7368,-0.0234,-0.6831,0.061,0.244,-1.953,-178.841,-47.186,142.679
14067,0.7383,-0.0249,-0.6836,0.305,0.427,-1.831,-178.846,-47.192,142.707
14077,0.7363,-0.0259,-0.6846,0.488,0.549,-1.709,-178.852,-47.192,142.734
14087,0.7368,-0.0234,-0.6860,0.549,0.610,-1.526,-178.852,-47.197,142.756
14097,0.7368,-0.0225,-0.6860,0.549,0.732,-1.404,-178.852,-47.203,142.773
14107,0.7383,-0.0195,-0.6875,0.549,0.793,-1.465,-178.857,-47.214,142.795
14117,0.7407,-0.0171,-0.6875,0.610,0.916,-1.526,-178.868,-47.219,142.817
14127,0.7412,-0.0176,-0.6885,0.793,0.977,-1.709,-178.874,-47.230,142.844
14137,0.7451,-0.0186,-0.6890,1.038,0.977,-2.014,-178.879,-47.241,142.872
14147,0.7446,-0.0200,-0.6880,1.038,0.854,-2.502,-178.890,-47.247,142.910
14157,0.7432,-0.0215,-0.6880,0.793,0.610,-2.930,-178.907,-47.252,142.954
14167,0.7422,-0.0210,-0.6870,0.305,0.305,-3.357,-178.934,-47.258,143.004
14177,0.7417,-0.0205,-0.6836,-0.183,0.061,-3.662,-178.967,-47.258,143.058
14187,0.7412,-0.0171,-0.6831,-0.305,-0.061,-3.845,-179.011,-47.258,143.113
14198,0.7397,-0.0142,-0.6812,0.061,-0.061,-3.784,-179.050,-47.263,143.168
14207,0.7402,-0.0156,-0.6816,0.732,0.122,-3.662,-179.077,-47.263,143.223
14217,0.7407,-0.0200,-0.6826,1.282,0.427,-3.540,-179.094,-47.269,143.273
14228,0.7407,-0.0215,-0.6826,1.465,0.610,-3.479,-179.105,-47.280,143.328
14238,0.7412,-0.0225,-0.6821,1.221,0.793,-3.479,-179.121,-47.285,143.377
14248,0.7393,-0.0210,-0.6792,0.793,0.916,-3.479,-179.143,-47.296,143.427
14258,0.7383,-0.0166,-0.6807,0.549,1.099,-3.296,-179.165,-47.307,143.476
14268,0.7397,-0.0107,-0.6782,0.732,1.282,-3.113,-179.193,-47.324,143.520
14278,0.7358,-0.0088,-0.6782,1.526,1.465,-2.808,-179.209,-47.340,143.564
14288,0.7388,-0.0093,-0.6797,2.441,1.526,-2.625,-179.209,-47.357,143.602
14298,0.7402,-0.0093,-0.6851,3.235,1.587,-2.563,-179.209,-47.368,143.641
14308,0.7432,-0.0107,-0.6899,3.601,1.587,-2.747,-179.198,-47.384,143.679
14318,0.7441,-0.0117,-0.6875,3.662,1.648,-3.052,-179.193,-47.401,143.723
14328,0.7417,-0.0132,-0.6826,3.296,1.465,-3.540,-179.198,-47.417,143.778
14338,0.7480,-0.0142,-0.6899,2.991,1.099,-3.906,-179.203,-47.422,143.833
14348,0.7485,-0.0156,-0.6914,3.174,0.916,-4.211,-179.214,-47.433,143.893
14359,0.7490,-0.0195,-0.6890,3.357,0.916,-4.456,-179.220,-47.444,143.959
14368,0.7466,-0.0259,-0.6899,3.418,0.916,-4.761,-179.225,-47.450,144.031
14378,0.7480,-0.0293,-0.6870,2.869,0.610,-5.127,-179.231,-47.455,144.108
14388,0.7476,-0.0303,-0.6831,2.075,0.366,-5.371,-179.253,-47.461,144.185
14398,0.7476,-0.0322,-0.6851,1.282,0.061,-5.554,-179.280,-47.461,144.267
14408,0.7451,-0.0332,-0.6836,0.854,-0.061,-5.371,-179.308,-47.461,144.349
14418,0.7471,-0.0337,-0.6797,0.671,0.000,-5.066,-179.335,-47.466,144.421
14428,0.7437,-0.0327,-0.6812,0.549,0.000,-4.578,-179.357,-47.466,144.492
14438,0.7466,-0.0312,-0.6797,0.671,0.061,-3.906,-179.374,-47.472,144.547
14448,0.7466,-0.0298,-0.6802,0.977,0.183,-3.235,-179.379,-47.472,144.597
14458,0.7480,-0.0293,-0.6821,1.282,0.427,-2.747,-179.379,-47.477,144.635
14468,0.7422,-0.0283,-0.6802,1.404,0.549,-2.319,-179.374,-47.483,144.673
14478,0.7480,-0.0298,-0.6836,1.343,0.488,-1.953,-179.363,-47.494,144.701
14488,0.7524,-0.0249,-0.6880,1.465,0.427,-1.648,-179.352,-47.494,144.723
14498,0.7539,-0.0225,-0.6855,1.526,0.488,-1.465,-179.341,-47.505,144.745
14508,0.7554,-0.0210,-0.6895,1.709,0.549,-1.587,-179.330,-47.510,144.767
14518,0.7549,-0.0195,-0.6899,1.526,0.305,-2.014,-179.324,-47.516,144.800
14528,0.7539,-0.0156,-0.6875,1.160,0.000,-2.563,-179.335,-47.516,144.838
14538,0.7510,-0.0122,-0.6885,0.610,-0.305,-3.296,-179.363,-47.516,144.888
14548,0.7490,-0.0088,-0.6870,-0.061,-0.610,-4.028,-179.407,-47.505,144.948
14558,0.7476,-0.0024,-0.6855,-0.671,-0.916,-4.761,-179.467,-47.499,145.014
14568,0.7451,0.0024,-0.6880,-1.038,-1.099,-5.432,179.791,-47.488,145.096
14578,0.7451,0.0015,-0.6826,-0.916,-1.099,-5.798,179.725,-47.477,145.184
14588,0.7427,0.0059,-0.6846,-0.549,-0.977,-6.165,179.648,-47.466,145.272
14598,0.7441,0.0068,-0.6836,0.061,-0.793,-6.531,179.577,-47.455,145.371
14608,0.7412,0.0044,-0.6841,0.610,-0.549,-6.958,179.511,-47.450,145.475
14618,0.7427,0.0054,-0.6826,0.732,-0.427,-7.446,179.434,-47.444,145.585
14628,0.7466,0.0029,-0.6846,0.610,-0.305,-7.996,179.357,-47.439,145.701
14638,0.7490,0.0010,-0.6865,0.305,-0.305,-8.667,179.275,-47.439,145.827
14648,0.7500,0.0034,-0.6865,-0.122,-0.305,-9.460,179.176,-47.433,145.970
14658,0.7476,0.0039,-0.6836,-0.549,-0.427,-10.193,179.066,-47.428,146.118
14668,0.7451,0.0029,-0.6816,-0.854,-0.488,-10.742,178.945,-47.422,146.277
14678,0.7456,0.0068,-0.6812,-1.099,-0.671,-11.108,178.824,-47.417,146.442
14688,0.7437,0.0063,-0.6812,-0.977,-0.671,-11.292,178.698,-47.411,146.607
14698,0.7397,0.0088,-0.6792,-0.610,-0.427,-11.230,178.577,-47.401,146.777
14708,0.7393,0.0088,-0.6787,-0.122,-0.122,-11.047,178.462,-47.401,146.937
14718,0.7393,0.0073,-0.6821,0.305,0.305,-10.925,178.358,-47.401,147.101
14728,0.7373,0.0049,-0.6816,0.366,0.610,-10.864,178.259,-47.401,147.261
14738,0.7388,0.0088,-0.6826,0.183,0.671,-10.803,178.149,-47.401,147.420
14748,0.7402,0.0068,-0.6846,0.122,0.671,-10.498,178.050,-47.406,147.574
14758,0.7422,0.0098,-0.6855,0.061,0.793,-10.315,177.951,-47.406,147.728
14768,0.7437,0.0073,-0.6836,0.183,0.793,-10.071,177.858,-47.411,147.876
14778,0.7456,0.0059,-0.6860,0.366,0.549,-9.705,177.775,-47.411,148.019
14788,0.7461,0.0034,-0.6875,0.488,0.366,-9.277,177.698,-47.411,148.156
14798,0.7466,0.0034,-0.6851,0.488,0.122,-8.911,177.627,-47.411,148.288
14808,0.7427,0.0010,-0.6841,0.366,-0.061,-8.545,177.561,-47.406,148.414
14818,0.7451,-0.0020,-0.6812,-0.061,-0.305,-8.179,-179.835,-47.401,148.535
14828,0.7446,0.0010,-0.6807,-0.610,-0.549,-7.751,179.918,-47.401,148.651
14838,0.7451,0.0020,-0.6792,-1.160,-0.610,-7.141,179.824,-47.395,148.755
14848,0.7446,0.0039,-0.6777,-1.282,-0.549,-6.348,179.742,-47.390,148.848
14858,0.7456,0.0068,-0.6768,-0.977,-0.183,-5.371,179.670,-47.395,148.931
14868,0.7441,0.0078,-0.6768,-0.488,0.122,-4.456,179.615,-47.401,148.997
14878,0.7466,0.0127,-0.6763,-0.061,0.427,-3.479,179.572,-47.406,149.046
14888,0.7466,0.0142,-0.6772,0.244,0.427,-2.563,179.539,-47.411,149.084
14898,0.7456,0.0171,-0.6787,0.488,0.427,-1.831,179.511,-47.422,149.112
14908,0.7461,0.0181,-0.6836,0.671,0.488,-1.343,179.495,-47.428,149.134
14918,0.7432,0.0205,-0.6802,0.732,0.549,-1.099,179.478,-47.433,149.150
14928,0.7441,0.0239,-0.6812,0.732,0.549,-0.977,179.462,-47.439,149.161
14938,0.7461,0.0283,-0.6851,0.610,0.488,-0.977,179.440,-47.444,149.178
14948,0.7466,0.0293,-0.6865,0.488,0.427,-1.099,179.412,-47.450,149.194
14958,0.7476,0.0273,-0.6821,0.488,0.305,-1.343,179.385,-47.450,149.211
14968,0.7471,0.0264,-0.6816,0.427,0.183,-1.648,179.357,-47.455,149.238
14978,0.7437,0.0278,-0.6831,0.122,-0.061,-1.892,179.319,-47.455,149.266
14988,0.7432,0.0244,-0.6816,-0.183,-0.305,-2.014,179.280,-47.450,149.293
14998,0.7441,0.0259,-0.6816,-0.549,-0.488,-2.075,179.242,-47.444,149.326
15008,0.7437,0.0234,-0.6816,-0.671,-0.488,-1.953,179.198,-47.444,149.354
15018,0.7407,0.0249,-0.6816,-0.671,-0.366,-1.709,179.160,-47.439,149.381
15028,0.7407,0.0273,-0.6797,-0.366,-0.122,-1.465,179.127,-47.433,149.403
15038,0.7441,0.0259,-0.6802,0.000,0.122,-1.221,179.099,-47.439,149.420
15048,0.7437,0.0239,-0.6816,0.305,0.366,-1.038,179.083,-47.444,149.436
15058,0.7446,0.0249,-0.6821,0.488,0.488,-1.038,179.066,-47.450,149.453
15068,0.7451,0.0273,-0.6831,0.549,0.610,-1.099,179.044,-47.455,149.469
15078,0.7437,0.0278,-0.6836,0.366,0.549,-1.282,179.022,-47.461,149.485
15088,0.7441,0.0288,-0.6841,0.183,0.488,-1.465,178.989,-47.461,149.507
15098,0.7437,0.0332,-0.6855,0.183,0.366,-1.587,178.956,-47.466,149.529
15108,0.7417,0.0337,-0.6836,0.305,0.305,-1.709,178.923,-47.466,149.557
15118,0.7441,0.0356,-0.6831,0.488,0.183,-1.770,178.890,-47.466,149.584
15128,0.7451,0.0342,-0.6831,0.732,0.000,-1.831,178.863,-47.466,149.612
15138,0.7466,0.0327,-0.6802,0.977,-0.122,-2.014,178.835,-47.466,149.639
15148,0.7451,0.0273,-0.6797,1.099,-0.122,-2.136,178.808,-47.466,149.672
15158,0.7441,0.0269,-0.6807,0.854,-0.122,-2.380,178.781,-47.466,149.705
15168,0.7432,0.0259,-0.6812,0.488,-0.061,-2.502,178.748,-47.466,149.744
15178,0.7432,0.0249,-0.6802,0.183,0.183,-2.441,178.715,-47.466,149.782
15188,0.7441,0.0264,-0.6792,0.183,0.366,-2.258,178.687,-47.472,149.815
15198,0.7441,0.0269,-0.6821,0.427,0.671,-2.014,178.660,-47.477,149.843
15208,0.7446,0.0269,-0.6807,0.854,0.793,-1.648,178.638,-47.483,149.870
15218,0.7461,0.0259,-0.6831,1.099,0.793,-1.404,178.627,-47.494,149.886
15228,0.7461,0.0249,-0.6836,1.221,0.732,-1.160,178.621,-47.499,149.908
15238,0.7476,0.0229,-0.6841,1.099,0.549,-1.099,178.610,-47.505,149.925
15248,0.7466,0.0205,-0.6875,0.854,0.427,-1.099,178.605,-47.510,149.941
15258,0.7471,0.0234,-0.6851,0.488,0.366,-1.160,178.594,-47.510,149.958
15269,0.7451,0.0225,-0.6831,0.122,0.244,-1.099,178.577,-47.510,149.974
15278,0.7466,0.0239,-0.6846,-0.122,0.122,-0.977,178.561,-47.516,149.985
15288,0.7461,0.0234,-0.6855,-0.061,0.061,-0.854,178.544,-47.510,150.002
15298,0.7461,0.0254,-0.6816,0.122,-0.061,-0.610,178.533,-47.510,150.007
15308,0.7441,0.0254,-0.6812,0.427,-0.122,-0.305,178.528,-47.510,150.013
15318,0.7446,0.0239,-0.6812,0.610,-0.122,-0.061,178.528,-47.510,150.013
15328,0.7461,0.0234,-0.6831,0.610,-0.183,0.122,178.528,-47.510,150.013
15338,0.7471,0.0229,-0.6826,0.366,-0.183,0.122,178.528,-47.510,150.013
15348,0.7466,0.0249,-0.6802,0.183,-0.061,0.244,178.528,-47.510,150.007
15358,0.7451,0.0283,-0.6816,0.000,0.000,0.305,178.522,-47.510,150.002
15368,0.7441,0.0288,-0.6816,0.000,0.061,0.427,178.517,-47.510,149.996
15378,0.7432,0.0298,-0.6802,0.000,0.183,0.549,178.511,-47.510,149.985
15388,0.7451,0.0317,-0.6807,0.122,0.122,0.610,178.506,-47.516,149.980
15398,0.7451,0.0322,-0.6816,0.183,0.061,0.610,178.506,-47.516,149.969
15408,0.7446,0.0332,-0.6787,0.183,0.061,0.610,178.500,-47.516,149.963
15418,0.7466,0.0308,-0.6812,0.183,0.000,0.488,178.495,-47.516,149.952
15428,0.7461,0.0303,-0.6797,0.061,0.000,0.366,178.489,-47.521,149.947
15438,0.7471,0.0293,-0.6787,-0.122,0.000,0.305,178.484,-47.521,149.941
15448,0.7466,0.0298,-0.6787,-0.183,0.000,0.244,178.473,-47.521,149.941
15458,0.7446,0.0322,-0.6802,-0.061,0.061,0.183,178.462,-47.527,149.936
15468,0.7451,0.0308,-0.6812,0.183,0.244,0.244,178.456,-47.527,149.936
15478,0.7441,0.0308,-0.6821,0.366,0.244,0.305,178.451,-47.527,149.930
15488,0.7451,0.0303,-0.6821,0.549,0.244,0.244,178.451,-47.532,149.925
15498,0.7451,0.0303,-0.6812,0.610,0.183,0.244,178.451,-47.532,149.925
15508,0.7476,0.0298,-0.6826,0.671,0.183,0.183,178.451,-47.538,149.919
15518,0.7480,0.0303,-0.6846,0.793,0.122,0.122,178.445,-47.538,149.919
15528,0.7466,0.0327,-0.6851,0.977,0.122,-0.061,178.445,-47.538,149.919
15538,0.7461,0.0322,-0.6841,1.038,0.122,-0.183,178.440,-47.538,149.919
15548,0.7446,0.0322,-0.6865,1.099,0.183,-0.305,178.440,-47.538,149.925
15558,0.7466,0.0352,-0.6821,1.221,0.183,-0.366,178.434,-47.538,149.930
15568,0.7441,0.0376,-0.6802,1.587,0.244,-0.427,178.429,-47.538,149.936
15578,0.7437,0.0381,-0.6807,2.075,0.366,-0.671,178.423,-47.543,149.947
15588,0.7451,0.0386,-0.6802,2.441,0.488,-0.854,178.423,-47.549,149.963
15598,0.7417,0.0386,-0.6807,2.625,0.549,-1.221,178.418,-47.554,149.980
15608,0.7388,0.0391,-0.6797,2.502,0.732,-1.526,178.407,-47.554,150.002
15618,0.7378,0.0415,-0.6792,2.197,0.977,-1.831,178.391,-47.565,150.029
15628,0.7397,0.0435,-0.6772,1.953,1.221,-2.136,178.369,-47.576,150.062
15638,0.7407,0.0444,-0.6777,2.014,1.343,-2.258,178.341,-47.587,150.095
15648,0.7437,0.0425,-0.6753,2.258,1.404,-2.441,178.319,-47.598,150.134
15658,0.7456,0.0410,-0.6763,2.380,1.282,-2.502,178.297,-47.615,150.172
15668,0.7461,0.0381,-0.6782,2.197,1.160,-2.625,178.275,-47.626,150.211
15678,0.7437,0.0386,-0.6743,1.953,1.160,-2.625,178.248,-47.637,150.249
15688,0.7456,0.0386,-0.6758,1.892,1.221,-2.686,178.220,-47.648,150.287
15698,0.7529,0.0322,-0.6777,2.380,1.465,-2.625,178.209,-47.670,150.331
15708,0.7681,0.0186,-0.6821,3.479,1.709,-2.930,178.209,-47.692,150.375
15718,0.7876,-0.0029,-0.6870,4.089,1.648,-3.906,-179.753,-47.719,150.430
15728,0.7925,-0.0200,-0.6987,3.113,1.221,-5.493,-179.769,-47.741,150.513
15738,0.7852,-0.0166,-0.6997,0.305,0.488,-7.019,-179.830,-47.752,150.617
15748,0.7646,0.0063,-0.6909,-2.991,-0.244,-7.874,179.473,-47.747,150.738
15758,0.7441,0.0342,-0.6812,-4.517,-0.671,-7.812,179.319,-47.741,150.853
15769,0.7251,0.0576,-0.6763,-3.052,-0.671,-7.080,179.171,-47.725,150.958
15778,0.7153,0.0698,-0.6738,0.549,-0.244,-6.104,179.055,-47.708,151.046
15788,0.7144,0.0688,-0.6787,4.211,0.366,-5.127,178.995,-47.697,151.122
15798,0.7231,0.0635,-0.6821,6.287,0.793,-4.395,178.967,-47.692,151.188
15808,0.7305,0.0557,-0.6846,6.470,1.160,-4.211,178.945,-47.697,151.254
15818,0.7407,0.0435,-0.6846,5.310,1.221,-4.822,178.923,-47.703,151.326
15828,0.7520,0.0298,-0.6841,3.357,0.732,-5.981,178.874,-47.708,151.414
15838,0.7578,0.0171,-0.6841,0.977,-0.305,-7.019,178.802,-47.703,151.518
15848,0.7607,0.0127,-0.6802,-1.221,-1.587,-7.263,178.715,-47.692,151.622
15858,0.7612,0.0098,-0.6748,-2.441,-2.563,-6.653,178.627,-47.675,151.721
15868,0.7559,0.0093,-0.6704,-2.075,-2.747,-5.432,178.550,-47.653,151.804
15878,0.7495,0.0083,-0.6675,-0.549,-2.319,-3.784,178.511,-47.637,151.859
15888,0.7407,0.0054,-0.6665,1.221,-1.282,-2.014,178.511,-47.626,151.886
15898,0.7402,0.0063,-0.6680,2.441,0.000,-0.427,178.544,-47.631,151.891
15908,0.7417,0.0103,-0.6719,2.869,1.221,0.854,178.583,-47.642,151.880
15918,0.7456,0.0205,-0.6787,2.686,2.380,1.648,178.627,-47.670,151.859
15928,0.7500,0.0298,-0.6855,2.380,3.052,1.953,178.660,-47.697,151.831
15938,0.7549,0.0400,-0.6919,1.953,3.113,1.892,178.676,-47.725,151.804
15948,0.7554,0.0454,-0.6929,1.343,2.502,1.404,178.682,-47.747,151.782
15958,0.7524,0.0508,-0.6929,0.549,1.282,0.671,178.665,-47.758,151.771
15968,0.7534,0.0522,-0.6914,-0.305,-0.244,-0.366,178.627,-47.752,151.776
15978,0.7490,0.0552,-0.6870,-1.099,-1.648,-1.404,178.572,-47.730,151.798
15988,0.7432,0.0547,-0.6807,-1.648,-2.563,-2.441,178.495,-47.703,151.837
15998,0.7402,0.0552,-0.6763,-1.831,-2.869,-3.235,178.412,-47.670,151.880
16008,0.7407,0.0552,-0.6704,-1.587,-2.563,-3.662,178.325,-47.648,151.935
16018,0.7393,0.0542,-0.6670,-0.916,-1.892,-3.784,178.248,-47.626,151.990
16028,0.7397,0.0522,-0.6665,0.122,-0.854,-3.540,178.182,-47.620,152.040
16038,0.7422,0.0474,-0.6665,1.404,0.244,-3.113,178.143,-47.626,152.089
16048,0.7446,0.0405,-0.6704,2.380,1.099,-2.747,178.116,-47.637,152.128
16058,0.7480,0.0366,-0.6768,2.747,1.648,-2.380,178.105,-47.659,152.166
16068,0.7505,0.0327,-0.6792,2.625,1.831,-2.136,178.099,-47.675,152.199
16078,0.7534,0.0303,-0.6821,2.075,1.648,-1.892,178.094,-47.692,152.227
16088,0.7549,0.0278,-0.6841,1.343,1.282,-1.709,178.083,-47.708,152.254
16098,0.7534,0.0249,-0.6826,0.854,0.732,-1.465,178.072,-47.714,152.276
16108,0.7539,0.0239,-0.6855,0.427,0.183,-1.160,178.066,-47.714,152.292
16118,0.7495,0.0220,-0.6821,0.183,-0.305,-0.671,178.061,-47.714,152.303
16129,0.7495,0.0225,-0.6807,0.122,-0.610,-0.061,178.061,-47.708,152.303
16138,0.7495,0.0254,-0.6797,0.183,-0.793,0.549,178.066,-47.697,152.292
16148,0.7485,0.0249,-0.6802,0.366,-0.610,1.038,178.083,-47.692,152.276
16158,0.7471,0.0254,-0.6807,0.610,-0.366,1.343,178.099,-47.692,152.260
16168,0.7461,0.0269,-0.6807,0.793,-0.061,1.648,178.121,-47.692,152.232
16179,0.7451,0.0303,-0.6826,0.793,0.183,1.831,178.143,-47.692,152.205
16188,0.7490,0.0337,-0.6851,0.732,0.305,1.892,178.160,-47.692,152.177
16199,0.7485,0.0352,-0.6831,0.549,0.244,1.770,178.176,-47.692,152.155
16209,0.7495,0.0347,-0.6865,0.183,0.183,1.587,178.182,-47.697,152.128
16219,0.7490,0.0386,-0.6841,-0.244,-0.061,1.404,178.182,-47.692,152.106
16229,0.7471,0.0405,-0.6851,-0.671,-0.366,1.404,178.176,-47.686,152.089
16239,0.7456,0.0449,-0.6831,-0.793,-0.671,1.282,178.160,-47.681,152.067
16249,0.7456,0.0430,-0.6797,-0.671,-0.977,1.160,178.149,-47.670,152.051
16259,0.7471,0.0439,-0.6768,-0.488,-1.282,0.977,178.138,-47.659,152.034
16269,0.7485,0.0439,-0.6753,-0.427,-1.343,0.793,178.121,-47.648,152.023
16279,0.7476,0.0430,-0.6763,-0.427,-1.099,0.610,178.110,-47.637,152.012
16289,0.7466,0.0415,-0.6748,-0.366,-0.671,0.427,178.094,-47.631,152.007
16299,0.7476,0.0439,-0.6743,-0.244,-0.244,0.183,178.077,-47.631,152.001
16309,0.7446,0.0444,-0.6763,-0.061,0.244,0.000,178.055,-47.637,152.001
16319,0.7432,0.0444,-0.6797,0.122,0.671,-0.061,178.039,-47.642,152.007
16329,0.7437,0.0459,-0.6816,0.244,0.793,-0.244,178.017,-47.648,152.007
16339,0.7451,0.0454,-0.6836,0.366,0.732,-0.366,178.000,-47.653,152.012
16349,0.7471,0.0430,-0.6831,0.366,0.549,-0.549,177.984,-47.659,152.023
16360,0.7471,0.0415,-0.6836,0.183,0.122,-0.793,177.962,-47.653,152.034
16369,0.7495,0.0396,-0.6807,0.061,-0.183,-0.916,177.940,-47.653,152.051
16379,0.7471,0.0386,-0.6831,-0.122,-0.366,-0.916,177.913,-47.648,152.062
16389,0.7476,0.0371,-0.6792,-0.244,-0.488,-0.977,177.891,-47.642,152.078
16399,0.7476,0.0361,-0.6763,-0.244,-0.549,-0.916,177.869,-47.642,152.089
16409,0.7461,0.0366,-0.6792,-0.122,-0.549,-0.793,177.852,-47.637,152.100
16419,0.7451,0.0356,-0.6802,0.183,-0.366,-0.610,177.836,-47.631,152.111
16429,0.7471,0.0352,-0.6777,0.488,-0.183,-0.488,177.830,-47.631,152.117
16439,0.7495,0.0312,-0.6787,0.610,0.000,-0.427,177.825,-47.631,152.122
16449,0.7485,0.0298,-0.6802,0.427,0.061,-0.244,177.825,-47.631,152.128
16459,0.7476,0.0312,-0.6802,0.183,0.061,0.061,177.825,-47.637,152.128
16469,0.7480,0.0337,-0.6831,0.122,-0.061,0.427,177.819,-47.631,152.122
16479,0.7480,0.0327,-0.6826,0.183,-0.122,0.793,177.825,-47.631,152.106
16489,0.7485,0.0332,-0.6807,0.427,-0.244,1.038,177.836,-47.631,152.095
16499,0.7446,0.0356,-0.6812,0.366,-0.366,1.221,177.847,-47.626,152.073
16509,0.7437,0.0386,-0.6802,0.183,-0.366,1.282,177.847,-47.620,152.056
16519,0.7446,0.0415,-0.6792,-0.061,-0.305,1.099,177.847,-47.620,152.040
16529,0.7451,0.0459,-0.6802,-0.183,-0.122,0.854,177.836,-47.620,152.023
