elapsed_ms,acc_x_g,acc_y_g,acc_z_g,gyro_x_dps,gyro_y_dps,gyro_z_dps,angle_x_deg,angle_y_deg,angle_z_deg
0,0.6914,0.1484,-0.7266,0.488,0.122,0.732,168.646,-43.072,146.536
10,0.6919,0.1494,-0.7280,0.183,0.183,0.671,168.651,-43.077,146.536
20,0.6953,0.1494,-0.7246,-0.061,0.122,0.549,168.657,-43.077,146.536
30,0.6943,0.1499,-0.7261,-0.061,0.000,0.488,168.657,-43.083,146.536
40,0.6953,0.1494,-0.7251,0.000,-0.244,0.366,168.657,-43.077,146.536
50,0.6943,0.1479,-0.7217,0.061,-0.427,0.366,168.657,-43.077,146.536
61,0.6958,0.1475,-0.7231,0.061,-0.671,0.427,168.662,-43.077,146.536
70,0.6934,0.1465,-0.7187,0.122,-0.549,0.305,168.662,-43.072,146.536
80,0.6934,0.1450,-0.7192,0.244,-0.427,0.366,168.673,-43.072,146.536
90,0.6934,0.1460,-0.7231,0.305,-0.244,0.366,168.679,-43.072,146.536
100,0.6943,0.1450,-0.7212,0.183,0.000,0.366,168.679,-43.077,146.536
110,0.6948,0.1450,-0.7231,0.000,0.183,0.366,168.684,-43.083,146.536
120,0.6953,0.1475,-0.7236,-0.183,0.244,0.305,168.684,-43.088,146.536
130,0.6943,0.1479,-0.7236,-0.305,0.244,0.244,168.679,-43.088,146.536
140,0.6934,0.1484,-0.7231,-0.366,0.122,0.244,168.673,-43.094,146.536
150,0.6919,0.1475,-0.7236,-0.244,-0.061,0.305,168.673,-43.094,146.536
160,0.6909,0.1499,-0.7246,-0.183,-0.244,0.366,168.673,-43.094,146.536
170,0.6909,0.1514,-0.7241,-0.061,-0.305,0.427,168.668,-43.088,146.536
180,0.6895,0.1509,-0.7241,-0.122,-0.305,0.305,168.668,-43.088,146.536
190,0.6909,0.1489,-0.7241,-0.122,-0.183,0.183,168.668,-43.083,146.536
200,0.6914,0.1499,-0.7256,-0.244,0.000,0.061,168.662,-43.083,146.536
210,0.6914,0.1514,-0.7231,-0.305,0.122,-0.122,168.651,-43.083,146.536
220,0.6919,0.1514,-0.7227,-0.305,0.122,-0.244,168.640,-43.088,146.536
230,0.6914,0.1514,-0.7251,0.000,0.183,-0.244,168.635,-43.088,146.536
240,0.6914,0.1499,-0.7251,0.244,0.122,-0.244,168.629,-43.088,146.536
250,0.6938,0.1475,-0.7246,0.427,0.122,-0.305,168.629,-43.088,146.536
260,0.6934,0.1470,-0.7280,0.427,0.000,-0.305,168.629,-43.088,146.536
270,0.6934,0.1455,-0.7256,0.366,-0.061,-0.305,168.635,-43.088,146.536
280,0.6924,0.1431,-0.7256,0.122,-0.061,-0.305,168.635,-43.088,146.536
290,0.6934,0.1436,-0.7266,0.000,-0.061,-0.305,168.635,-43.088,146.536
300,0.6938,0.1460,-0.7251,-0.122,-0.122,-0.183,168.629,-43.088,146.536
310,0.6914,0.1460,-0.7241,-0.061,-0.183,-0.061,168.629,-43.083,146.536
320,0.6909,0.1465,-0.7246,0.122,-0.183,0.122,168.629,-43.083,146.536
330,0.6948,0.1465,-0.7236,0.305,-0.122,0.244,168.635,-43.083,146.536
340,0.6938,0.1450,-0.7256,0.549,0.000,0.305,168.646,-43.083,146.536
350,0.6934,0.1436,-0.7280,0.488,0.061,0.366,168.657,-43.088,146.536
360,0.6934,0.1465,-0.7256,0.305,0.061,0.183,168.657,-43.088,146.536
370,0.6938,0.1440,-0.7261,0.000,0.061,0.122,168.662,-43.088,146.536
380,0.6973,0.1450,-0.7256,-0.366,0.061,0.061,168.657,-43.094,146.536
390,0.6938,0.1455,-0.7231,-0.549,-0.061,0.000,168.651,-43.094,146.536
400,0.6948,0.1450,-0.7246,-0.610,-0.244,0.122,168.646,-43.094,146.536
410,0.6948,0.1475,-0.7246,-0.427,-0.427,0.183,168.646,-43.088,146.536
420,0.6958,0.1494,-0.7231,-0.183,-0.488,0.305,168.646,-43.088,146.536
430,0.6919,0.1523,-0.7227,0.183,-0.427,0.427,168.646,-43.088,146.536
440,0.6904,0.1499,-0.7236,0.366,-0.305,0.427,168.651,-43.083,146.536
450,0.6914,0.1470,-0.7246,0.366,0.000,0.305,168.651,-43.083,146.536
460,0.6919,0.1470,-0.7236,0.244,0.244,0.183,168.657,-43.088,146.536
470,0.6914,0.1484,-0.7261,0.000,0.427,0.000,168.651,-43.088,146.536
480,0.6924,0.1489,-0.7266,-0.183,0.549,-0.122,168.646,-43.094,146.536
490,0.6938,0.1470,-0.7261,-0.183,0.488,-0.244,168.640,-43.099,146.536
500,0.6938,0.1470,-0.7280,-0.122,0.305,-0.305,168.635,-43.105,146.536
510,0.6909,0.1489,-0.7275,0.000,0.122,-0.305,168.629,-43.099,146.536
520,0.6909,0.1499,-0.7290,0.122,-0.061,-0.244,168.629,-43.099,146.536
530,0.6909,0.1479,-0.7275,0.427,0.000,-0.183,168.629,-43.094,146.536
540,0.6914,0.1460,-0.7271,0.610,0.122,-0.122,168.635,-43.094,146.536
550,0.6909,0.1440,-0.7246,0.671,0.183,-0.122,168.640,-43.099,146.536
561,0.6924,0.1440,-0.7246,0.549,0.183,-0.244,168.646,-43.099,146.536
570,0.6953,0.1445,-0.7261,0.427,0.183,-0.305,168.646,-43.099,146.536
580,0.6953,0.1426,-0.7251,0.244,0.183,-0.366,168.646,-43.105,146.536
590,0.6963,0.1431,-0.7261,0.122,0.122,-0.366,168.646,-43.105,146.536
600,0.6982,0.1426,-0.7261,0.061,-0.122,-0.244,168.646,-43.105,146.536
610,0.6968,0.1406,-0.7251,0.000,-0.305,-0.122,168.651,-43.105,146.536
620,0.6968,0.1416,-0.7222,-0.061,-0.366,0.061,168.657,-43.105,146.536
630,0.6948,0.1426,-0.7222,0.000,-0.305,0.183,168.657,-43.105,146.536
640,0.6938,0.1445,-0.7236,0.061,-0.061,0.366,168.662,-43.110,146.536
650,0.6929,0.1440,-0.7241,0.122,0.183,0.427,168.668,-43.110,146.536
660,0.6919,0.1465,-0.7251,0.061,0.366,0.427,168.673,-43.116,146.536
670,0.6929,0.1489,-0.7275,0.000,0.366,0.305,168.673,-43.116,146.536
680,0.6924,0.1499,-0.7275,-0.061,0.366,0.183,168.668,-43.121,146.536
690,0.6943,0.1499,-0.7266,-0.183,0.244,0.000,168.662,-43.121,146.536
700,0.6938,0.1484,-0.7256,-0.244,0.061,-0.183,168.657,-43.127,146.536
710,0.6934,0.1479,-0.7246,-0.427,-0.183,-0.244,168.646,-43.121,146.536
720,0.6934,0.1494,-0.7241,-0.488,-0.366,-0.244,168.640,-43.121,146.536
730,0.6914,0.1484,-0.7212,-0.488,-0.427,-0.244,168.629,-43.116,146.536
740,0.6899,0.1475,-0.7212,-0.366,-0.427,-0.183,168.624,-43.110,146.536
750,0.6899,0.1475,-0.7222,-0.122,-0.183,-0.122,168.618,-43.110,146.536
760,0.6909,0.1465,-0.7202,0.122,0.061,-0.061,168.618,-43.110,146.536
770,0.6934,0.1445,-0.7227,0.366,0.366,0.061,168.624,-43.116,146.536
780,0.6938,0.1440,-0.7236,0.427,0.610,0.183,168.629,-43.121,146.536
790,0.6953,0.1431,-0.7271,0.305,0.793,0.183,168.635,-43.132,146.536
800,0.6982,0.1426,-0.7285,0.122,0.793,0.183,168.640,-43.143,146.536
810,0.6978,0.1421,-0.7290,-0.061,0.488,0.183,168.640,-43.149,146.536
820,0.6973,0.1411,-0.7280,-0.183,0.122,0.183,168.646,-43.149,146.536
830,0.6963,0.1416,-0.7275,-0.305,-0.366,0.244,168.651,-43.149,146.536
840,0.6938,0.1426,-0.7280,-0.427,-0.671,0.244,168.651,-43.143,146.536
850,0.6943,0.1426,-0.7290,-0.427,-0.977,0.366,168.657,-43.132,146.536
860,0.6929,0.1431,-0.7222,-0.488,-0.977,0.549,168.657,-43.127,146.536
870,0.6914,0.1460,-0.7187,-0.427,-0.916,0.732,168.662,-43.121,146.536
880,0.6909,0.1470,-0.7187,-0.244,-0.732,0.916,168.668,-43.116,146.536
890,0.6909,0.1494,-0.7202,0.061,-0.427,1.160,168.673,-43.116,146.519
900,0.6890,0.1519,-0.7192,0.366,0.000,1.221,168.684,-43.116,146.503
910,0.6904,0.1538,-0.7207,0.488,0.366,1.099,168.690,-43.121,146.486
920,0.6914,0.1543,-0.7227,0.305,0.671,0.916,168.690,-43.132,146.475
930,0.6924,0.1548,-0.7246,0.000,0.793,0.610,168.690,-43.138,146.470
940,0.6924,0.1533,-0.7256,-0.183,0.610,0.244,168.684,-43.143,146.470
950,0.6953,0.1509,-0.7266,-0.305,0.427,0.000,168.673,-43.149,146.470
960,0.6953,0.1484,-0.7251,-0.305,0.183,-0.244,168.668,-43.149,146.475
970,0.6973,0.1440,-0.7261,-0.305,-0.061,-0.366,168.662,-43.154,146.481
980,0.6973,0.1440,-0.7261,-0.366,-0.244,-0.366,168.657,-43.149,146.481
990,0.6963,0.1431,-0.7236,-0.366,-0.366,-0.305,168.651,-43.149,146.486
1000,0.6914,0.1406,-0.7236,-0.305,-0.366,-0.183,168.651,-43.143,146.486
1010,0.6914,0.1396,-0.7217,-0.122,-0.244,0.061,168.657,-43.143,146.486
1020,0.6899,0.1392,-0.7222,0.122,0.061,0.305,168.662,-43.143,146.481
1030,0.6904,0.1396,-0.7236,0.427,0.305,0.427,168.673,-43.149,146.475
1040,0.6929,0.1382,-0.7266,0.488,0.610,0.549,168.690,-43.154,146.470
1050,0.6938,0.1401,-0.7300,0.244,0.732,0.488,168.701,-43.160,146.464
1061,0.6943,0.1431,-0.7305,-0.122,0.732,0.427,168.701,-43.171,146.464
1070,0.6958,0.1455,-0.7319,-0.427,0.488,0.366,168.701,-43.171,146.459
1080,0.6948,0.1470,-0.7295,-0.549,0.122,0.366,168.695,-43.171,146.453
1091,0.6919,0.1460,-0.7266,-0.366,-0.305,0.427,168.695,-43.171,146.448
1100,0.6929,0.1460,-0.7246,-0.122,-0.610,0.488,168.701,-43.165,146.442
1111,0.6904,0.1465,-0.7241,0.061,-0.610,0.427,168.706,-43.160,146.431
1121,0.6890,0.1465,-0.7236,0.000,-0.610,0.366,168.706,-43.154,146.426
1131,0.6885,0.1460,-0.7222,-0.183,-0.366,0.183,168.706,-43.149,146.420
1141,0.6899,0.1465,-0.7217,-0.305,0.000,0.061,168.701,-43.149,146.420
1151,0.6914,0.1494,-0.7217,-0.183,0.427,0.061,168.695,-43.154,146.420
1161,0.6924,0.1494,-0.7212,0.183,0.732,0.061,168.695,-43.160,146.420
1171,0.6909,0.1499,-0.7241,0.549,0.793,0.061,168.695,-43.165,146.426
1181,0.6909,0.1489,-0.7251,0.854,0.732,0.061,168.701,-43.176,146.426
1191,0.6924,0.1479,-0.7266,0.916,0.671,0.000,168.706,-43.182,146.426
1201,0.6948,0.1465,-0.7266,0.854,0.610,-0.061,168.712,-43.187,146.431
1211,0.6978,0.1416,-0.7285,0.549,0.366,-0.183,168.717,-43.187,146.431
1221,0.6963,0.1440,-0.7271,0.061,0.000,-0.305,168.717,-43.187,146.437
1231,0.6992,0.1401,-0.7256,-0.183,-0.305,-0.366,168.712,-43.187,146.442
1241,0.7012,0.1401,-0.7251,-0.183,-0.671,-0.244,168.717,-43.182,146.442
1251,0.7026,0.1357,-0.7266,0.000,-0.793,-0.122,168.723,-43.182,146.442
1261,0.7021,0.1343,-0.7222,0.061,-0.732,-0.061,168.734,-43.176,146.442
1271,0.6973,0.1333,-0.7231,-0.122,-0.671,0.061,168.739,-43.176,146.437
1281,0.6943,0.1367,-0.7256,-0.305,-0.427,0.244,168.745,-43.171,146.437
1291,0.6919,0.1396,-0.7266,-0.427,-0.061,0.305,168.750,-43.171,146.431
1301,0.6880,0.1431,-0.7261,-0.366,0.366,0.427,168.750,-43.171,146.426
1311,0.6855,0.1465,-0.7275,-0.183,0.732,0.488,168.750,-43.176,146.420
1321,0.6860,0.1479,-0.7295,0.000,0.916,0.488,168.750,-43.182,146.415
1331,0.6880,0.1509,-0.7290,0.061,0.793,0.427,168.750,-43.187,146.415
1341,0.6904,0.1538,-0.7310,-0.061,0.488,0.183,168.739,-43.187,146.409
1351,0.6909,0.1572,-0.7290,-0.244,0.183,-0.122,168.728,-43.182,146.415
1361,0.6914,0.1558,-0.7290,-0.366,-0.183,-0.488,168.712,-43.176,146.420
1371,0.6919,0.1538,-0.7241,-0.427,-0.427,-0.854,168.695,-43.171,146.431
1381,0.6943,0.1533,-0.7236,-0.427,-0.549,-1.282,168.673,-43.165,146.448
1391,0.6924,0.1489,-0.7231,-0.427,-0.427,-1.587,168.651,-43.154,146.464
1401,0.6929,0.1455,-0.7212,-0.427,-0.305,-1.770,168.629,-43.149,146.492
1411,0.6924,0.1426,-0.7222,-0.366,-0.061,-1.770,168.613,-43.149,146.514
1421,0.6968,0.1396,-0.7222,-0.183,0.122,-1.587,168.602,-43.149,146.536
1431,0.6968,0.1396,-0.7217,0.305,0.427,-1.160,168.596,-43.154,146.552
1441,0.6973,0.1372,-0.7227,0.793,0.549,-0.732,168.607,-43.160,146.563
1451,0.6992,0.1343,-0.7266,1.160,0.549,-0.427,168.618,-43.171,146.569
1461,0.6987,0.1323,-0.7285,1.160,0.488,-0.061,168.640,-43.176,146.574
1471,0.6978,0.1333,-0.7280,0.916,0.244,0.122,168.662,-43.182,146.569
1481,0.6958,0.1372,-0.7300,0.427,0.000,0.305,168.673,-43.182,146.569
1491,0.6919,0.1382,-0.7305,0.061,-0.244,0.305,168.684,-43.176,146.563
1501,0.6938,0.1406,-0.7246,-0.305,-0.549,0.244,168.690,-43.171,146.558
1511,0.6934,0.1450,-0.7222,-0.549,-0.854,0.305,168.684,-43.165,146.552
1521,0.6934,0.1509,-0.7207,-0.610,-1.099,0.488,168.684,-43.154,146.541
1531,0.6938,0.1533,-0.7197,-0.488,-1.221,0.671,168.679,-43.149,146.530
1541,0.6938,0.1528,-0.7187,-0.183,-1.038,0.610,168.679,-43.143,146.519
1551,0.6924,0.1499,-0.7178,-0.122,-0.793,0.427,168.679,-43.138,146.508
1561,0.6929,0.1499,-0.7197,-0.366,-0.427,0.183,168.673,-43.132,146.508
1571,0.6924,0.1479,-0.7197,-0.793,-0.122,0.000,168.662,-43.132,146.508
1581,0.6924,0.1509,-0.7192,-0.977,0.122,-0.122,168.646,-43.138,146.508
1591,0.6929,0.1514,-0.7197,-0.793,0.427,-0.183,168.629,-43.143,146.514
1601,0.6943,0.1494,-0.7217,-0.366,0.610,-0.122,168.618,-43.149,146.514
1611,0.6968,0.1455,-0.7266,0.061,0.610,-0.122,168.618,-43.154,146.519
1621,0.6958,0.1445,-0.7280,0.183,0.427,-0.183,168.618,-43.160,146.519
1631,0.6963,0.1406,-0.7305,0.000,0.183,-0.305,168.624,-43.160,146.525
1641,0.6968,0.1406,-0.7295,-0.366,-0.061,-0.427,168.618,-43.160,146.530
1651,0.6948,0.1396,-0.7305,-0.610,-0.305,-0.610,168.613,-43.154,146.541
1661,0.6919,0.1396,-0.7310,-0.793,-0.610,-0.610,168.607,-43.143,146.547
1671,0.6904,0.1396,-0.7285,-0.793,-0.793,-0.549,168.602,-43.132,146.552
1681,0.6870,0.1406,-0.7251,-0.732,-0.854,-0.366,168.596,-43.121,146.552
1691,0.6880,0.1406,-0.7256,-0.610,-0.854,-0.061,168.596,-43.116,146.552
1701,0.6885,0.1426,-0.7256,-0.488,-0.671,0.244,168.596,-43.105,146.547
1711,0.6914,0.1411,-0.7251,-0.366,-0.427,0.427,168.602,-43.105,146.541
1721,0.6914,0.1411,-0.7275,-0.366,-0.305,0.488,168.607,-43.099,146.536
1731,0.6919,0.1406,-0.7271,-0.610,-0.244,0.549,168.613,-43.099,146.525
1741,0.6938,0.1431,-0.7266,-0.916,-0.305,0.488,168.607,-43.099,146.519
1751,0.6973,0.1416,-0.7266,-1.221,-0.488,0.366,168.607,-43.094,146.514
1761,0.6968,0.1406,-0.7310,-1.465,-0.671,0.305,168.602,-43.088,146.503
1771,0.6953,0.1401,-0.7314,-1.587,-0.854,0.183,168.591,-43.083,146.503
1781,0.6943,0.1411,-0.7300,-1.709,-0.977,0.122,168.585,-43.072,146.497
1791,0.6904,0.1445,-0.7285,-1.770,-1.099,0.183,168.569,-43.061,146.492
1801,0.6875,0.1440,-0.7280,-1.587,-1.038,0.305,168.563,-43.050,146.486
1811,0.6860,0.1460,-0.7285,-1.221,-0.916,0.366,168.558,-43.039,146.475
1821,0.6865,0.1484,-0.7275,-0.977,-0.793,0.305,168.552,-43.028,146.470
1831,0.6870,0.1509,-0.7280,-0.854,-0.793,0.183,168.541,-43.017,146.464
1841,0.6890,0.1519,-0.7280,-0.916,-0.854,0.122,168.530,-43.006,146.464
1851,0.6895,0.1543,-0.7256,-1.099,-0.916,-0.183,168.514,-42.995,146.464
1861,0.6880,0.1577,-0.7256,-1.343,-0.916,-0.671,168.492,-42.984,146.470
1871,0.6899,0.1587,-0.7246,-1.587,-0.854,-1.038,168.459,-42.973,146.481
1881,0.6870,0.1626,-0.7217,-1.648,-0.793,-1.282,168.420,-42.962,146.497
1891,0.6831,0.1650,-0.7202,-1.465,-0.610,-1.465,168.382,-42.951,146.514
1901,0.6831,0.1621,-0.7212,-0.977,-0.244,-1.648,168.344,-42.946,146.536
1911,0.6816,0.1611,-0.7187,-0.427,0.183,-1.770,168.316,-42.940,146.558
1921,0.6821,0.1592,-0.7217,0.061,0.549,-1.770,168.294,-42.940,146.585
1931,0.6851,0.1582,-0.7222,0.488,0.854,-1.648,168.272,-42.946,146.607
1941,0.6899,0.1553,-0.7251,0.793,1.160,-1.648,168.261,-42.951,146.635
1951,0.6924,0.1509,-0.7256,0.977,1.282,-1.587,168.256,-42.962,146.656
1961,0.6948,0.1455,-0.7280,1.099,1.282,-1.526,168.250,-42.973,146.684
1971,0.6997,0.1431,-0.7285,0.916,0.916,-1.404,168.256,-42.984,146.706
1981,0.7007,0.1396,-0.7266,0.671,0.488,-1.282,168.256,-42.990,146.722
1991,0.7007,0.1367,-0.7256,0.366,0.000,-1.038,168.261,-42.995,146.733
2001,0.6992,0.1357,-0.7236,0.183,-0.366,-0.671,168.267,-42.995,146.744
2011,0.6973,0.1260,-0.7227,0.000,-0.549,-0.305,168.283,-42.995,146.744
2021,0.6958,0.1240,-0.7212,-0.671,-0.549,0.000,168.300,-42.995,146.744
2031,0.6982,0.1255,-0.7222,-1.709,-0.366,0.427,168.305,-42.995,146.739
2041,0.6978,0.1338,-0.7212,-2.502,-0.061,1.160,168.305,-43.006,146.722
2051,0.6968,0.1421,-0.7192,-2.563,0.244,2.136,168.300,-43.017,146.695
2062,0.6963,0.1499,-0.7178,-1.648,0.427,2.930,168.311,-43.033,146.656
2071,0.6978,0.1562,-0.7183,-0.549,0.305,3.418,168.327,-43.044,146.613
2081,0.6943,0.1597,-0.7212,0.122,0.061,3.601,168.354,-43.055,146.563
2091,0.6934,0.1641,-0.7222,0.000,-0.122,3.418,168.376,-43.061,146.519
2101,0.6924,0.1675,-0.7178,-0.549,-0.122,2.808,168.382,-43.066,146.481
2111,0.6919,0.1655,-0.7192,-1.160,0.061,1.831,168.371,-43.072,146.453
2121,0.6934,0.1606,-0.7202,-1.831,0.305,0.549,168.349,-43.077,146.448
2131,0.6919,0.1592,-0.7241,-2.808,0.488,-0.610,168.305,-43.083,146.459
2141,0.6909,0.1582,-0.7227,-3.784,0.610,-1.160,168.250,-43.083,146.475
2151,0.6885,0.1616,-0.7202,-4.028,0.732,-1.221,168.190,-43.088,146.492
2161,0.6836,0.1616,-0.7202,-3.174,0.977,-0.977,168.140,-43.094,146.508
2171,0.6860,0.1602,-0.7212,-1.587,1.160,-0.610,168.107,-43.099,146.519
2181,0.6851,0.1538,-0.7251,0.000,1.221,-0.183,168.102,-43.110,146.525
2191,0.6865,0.1504,-0.7266,1.038,1.160,0.244,168.118,-43.116,146.525
2201,0.6895,0.1465,-0.7241,1.709,0.977,0.793,168.140,-43.127,146.519
2211,0.6958,0.1431,-0.7290,2.075,0.793,1.160,168.179,-43.138,146.503
2221,0.6997,0.1406,-0.7334,2.258,0.916,1.221,168.223,-43.149,146.492
2231,0.7012,0.1357,-0.7339,2.075,1.099,0.977,168.261,-43.165,146.481
2241,0.7036,0.1328,-0.7354,0.916,0.916,0.366,168.289,-43.176,146.481
2251,0.7017,0.1377,-0.7339,-1.038,0.488,-0.427,168.283,-43.176,146.486
2261,0.7036,0.1426,-0.7310,-2.686,-0.183,-1.038,168.256,-43.176,146.497
2271,0.7007,0.1460,-0.7285,-3.357,-0.793,-1.221,168.217,-43.171,146.514
2281,0.6973,0.1499,-0.7231,-3.052,-1.160,-1.099,168.179,-43.154,146.525
2291,0.6924,0.1509,-0.7192,-2.014,-1.404,-0.610,168.157,-43.143,146.530
2301,0.6909,0.1499,-0.7187,-0.793,-1.465,-0.061,168.151,-43.132,146.525
2311,0.6899,0.1533,-0.7197,0.000,-1.099,0.366,168.151,-43.121,146.519
2321,0.6914,0.1523,-0.7212,0.366,-0.549,0.488,168.162,-43.116,146.508
2331,0.6973,0.1514,-0.7197,0.122,0.000,0.244,168.162,-43.121,146.508
2341,0.6997,0.1514,-0.7212,-0.488,0.305,-0.122,168.157,-43.127,146.508
2351,0.7026,0.1523,-0.7202,-1.099,0.244,-0.427,168.140,-43.132,146.514
2361,0.7031,0.1548,-0.7212,-1.587,-0.122,-0.732,168.118,-43.138,146.525
2371,0.6987,0.1567,-0.7241,-1.770,-0.610,-0.793,168.091,-43.132,146.536
2381,0.6982,0.1562,-0.7227,-1.465,-1.038,-0.732,168.069,-43.121,146.541
2391,0.6934,0.1519,-0.7217,-0.977,-1.343,-0.549,168.058,-43.110,146.547
2401,0.6904,0.1514,-0.7197,-0.793,-1.404,-0.427,168.047,-43.094,146.547
2411,0.6875,0.1587,-0.7197,-0.854,-1.343,-0.366,168.036,-43.083,146.547
2421,0.6855,0.1509,-0.7256,-0.610,-0.793,-0.305,168.030,-43.072,146.547
2431,0.6904,0.1533,-0.7222,-0.671,-0.305,-0.305,168.019,-43.066,146.552
2441,0.6870,0.1543,-0.7246,-0.488,0.366,-0.549,168.008,-43.066,146.563
2451,0.6885,0.1548,-0.7275,-0.549,0.427,-0.671,167.997,-43.066,146.569
2461,0.6860,0.1577,-0.7266,-0.488,0.244,-0.671,167.981,-43.066,146.580
2471,0.6826,0.1611,-0.7300,-0.061,0.061,-0.549,167.970,-43.055,146.591
2481,0.6807,0.1621,-0.7305,0.549,-0.122,-0.610,167.970,-43.050,146.596
2491,0.6782,0.1587,-0.7314,1.160,-0.183,-0.732,167.970,-43.033,146.607
2501,0.6802,0.1577,-0.7324,1.587,-0.183,-0.793,167.981,-43.022,146.618
2511,0.6807,0.1548,-0.7314,1.587,-0.122,-0.977,167.986,-43.011,146.629
2521,0.6816,0.1548,-0.7319,1.282,0.000,-1.221,167.986,-43.006,146.646
2531,0.6836,0.1548,-0.7305,1.160,0.061,-1.465,167.986,-42.995,146.662
2541,0.6851,0.1553,-0.7295,1.343,0.061,-1.465,167.986,-42.990,146.684
2551,0.6870,0.1553,-0.7285,1.831,-0.061,-1.282,167.992,-42.984,146.700
2562,0.6909,0.1514,-0.7275,2.380,-0.366,-1.038,168.008,-42.979,146.711
2571,0.6914,0.1475,-0.7246,2.747,-0.549,-0.732,168.036,-42.973,146.722
2581,0.6948,0.1431,-0.7222,2.869,-0.671,-0.427,168.069,-42.968,146.728
2591,0.6992,0.1392,-0.7227,2.686,-0.793,-0.183,168.107,-42.968,146.728
2601,0.7017,0.1406,-0.7236,2.380,-0.793,0.122,168.140,-42.968,146.722
2611,0.7026,0.1416,-0.7183,2.014,-0.732,0.305,168.173,-42.968,146.717
2621,0.7041,0.1406,-0.7197,1.648,-0.671,0.427,168.201,-42.968,146.706
2632,0.7026,0.1411,-0.7192,1.221,-0.671,0.549,168.228,-42.973,146.700
2642,0.7021,0.1406,-0.7192,0.793,-0.610,0.671,168.250,-42.979,146.689
2652,0.6987,0.1416,-0.7187,0.427,-0.488,0.793,168.267,-42.979,146.678
2662,0.6978,0.1431,-0.7192,0.061,-0.488,0.977,168.283,-42.984,146.662
2672,0.6948,0.1450,-0.7202,-0.305,-0.366,1.038,168.294,-42.984,146.646
2682,0.6934,0.1460,-0.7236,-0.549,-0.244,1.099,168.300,-42.990,146.635
2692,0.6914,0.1470,-0.7256,-0.671,-0.122,1.160,168.311,-42.990,146.618
2702,0.6899,0.1470,-0.7280,-0.854,0.061,1.221,168.316,-42.990,146.602
2712,0.6904,0.1504,-0.7280,-1.160,0.000,1.160,168.311,-42.995,146.585
2722,0.6890,0.1509,-0.7310,-1.404,-0.122,1.038,168.311,-42.990,146.569
2732,0.6865,0.1509,-0.7300,-1.465,-0.305,0.916,168.305,-42.990,146.558
2742,0.6831,0.1528,-0.7295,-1.282,-0.427,0.854,168.300,-42.979,146.547
2752,0.6821,0.1538,-0.7305,-0.977,-0.427,0.732,168.294,-42.973,146.536
2762,0.6802,0.1553,-0.7271,-0.732,-0.366,0.671,168.289,-42.962,146.525
2772,0.6807,0.1553,-0.7271,-0.427,-0.305,0.549,168.289,-42.957,146.514
2782,0.6846,0.1548,-0.7295,-0.183,-0.183,0.366,168.289,-42.951,146.508
2792,0.6846,0.1543,-0.7295,-0.061,0.061,0.244,168.283,-42.951,146.508
2802,0.6904,0.1514,-0.7280,0.000,0.183,0.061,168.283,-42.951,146.508
2812,0.6938,0.1489,-0.7295,-0.061,0.122,-0.183,168.283,-42.951,146.508
2822,0.6948,0.1470,-0.7290,-0.366,0.000,-0.427,168.283,-42.951,146.514
2832,0.6948,0.1460,-0.7266,-0.610,-0.244,-0.488,168.272,-42.951,146.519
2842,0.6943,0.1484,-0.7241,-0.671,-0.488,-0.427,168.267,-42.951,146.525
2852,0.6924,0.1494,-0.7256,-0.488,-0.549,-0.305,168.261,-42.946,146.530
2862,0.6919,0.1460,-0.7256,-0.122,-0.488,-0.061,168.261,-42.940,146.525
2872,0.6924,0.1470,-0.7236,0.183,-0.305,0.122,168.267,-42.940,146.525
2882,0.6938,0.1455,-0.7256,0.305,-0.122,0.366,168.278,-42.940,146.519
2892,0.6880,0.1484,-0.7261,0.244,0.000,0.427,168.289,-42.940,146.514
2902,0.6934,0.1431,-0.7275,0.244,0.244,0.488,168.300,-42.946,146.508
2912,0.6953,0.1479,-0.7271,-0.061,0.122,0.488,168.305,-42.951,146.503
2922,0.6924,0.1470,-0.7310,-0.183,0.183,0.366,168.311,-42.951,146.497
2932,0.6953,0.1499,-0.7290,-0.488,-0.244,0.427,168.311,-42.951,146.492
2942,0.6948,0.1523,-0.7271,-0.671,-0.488,0.427,168.305,-42.951,146.486
2952,0.6924,0.1538,-0.7271,-0.610,-0.793,0.488,168.305,-42.946,146.475
2962,0.6904,0.1543,-0.7246,-0.366,-1.038,0.488,168.305,-42.935,146.464
2972,0.6899,0.1538,-0.7207,-0.183,-1.099,0.366,168.305,-42.929,146.459
2982,0.6885,0.1528,-0.7236,0.000,-0.916,0.244,168.305,-42.918,146.453
2992,0.6875,0.1543,-0.7236,0.000,-0.671,0.061,168.305,-42.913,146.448
3002,0.6875,0.1523,-0.7241,-0.061,-0.244,-0.061,168.300,-42.913,146.448
3012,0.6880,0.1523,-0.7217,-0.061,0.122,-0.122,168.294,-42.913,146.453
3022,0.6904,0.1533,-0.7236,0.122,0.549,-0.183,168.294,-42.918,146.453
3032,0.6909,0.1523,-0.7241,0.305,0.671,-0.183,168.289,-42.924,146.459
3042,0.6919,0.1519,-0.7271,0.488,0.610,-0.183,168.294,-42.929,146.464
3052,0.6899,0.1514,-0.7285,0.488,0.488,-0.183,168.294,-42.935,146.470
3062,0.6929,0.1499,-0.7290,0.305,0.244,-0.183,168.294,-42.940,146.470
3072,0.6924,0.1494,-0.7305,0.122,0.000,-0.305,168.294,-42.935,146.475
3082,0.6914,0.1470,-0.7310,0.061,-0.183,-0.427,168.294,-42.935,146.481
3092,0.6895,0.1470,-0.7300,0.000,-0.305,-0.427,168.294,-42.929,146.486
3102,0.6919,0.1460,-0.7300,0.000,-0.305,-0.427,168.294,-42.924,146.492
3112,0.6899,0.1460,-0.7280,0.000,-0.366,-0.305,168.300,-42.918,146.492
3122,0.6924,0.1436,-0.7261,0.061,-0.366,-0.183,168.305,-42.918,146.492
3132,0.6919,0.1445,-0.7280,0.061,-0.366,0.000,168.311,-42.913,146.492
3142,0.6929,0.1440,-0.7246,0.061,-0.366,0.183,168.316,-42.913,146.492
3152,0.6919,0.1465,-0.7256,0.061,-0.366,0.305,168.322,-42.913,146.486
3162,0.6914,0.1499,-0.7246,0.122,-0.366,0.366,168.327,-42.913,146.481
3172,0.6899,0.1509,-0.7256,0.122,-0.305,0.366,168.333,-42.907,146.475
3182,0.6919,0.1523,-0.7266,0.183,-0.305,0.366,168.338,-42.907,146.470
3192,0.6895,0.1514,-0.7275,0.183,-0.183,0.244,168.338,-42.907,146.464
3202,0.6890,0.1543,-0.7246,0.183,-0.061,0.183,168.338,-42.907,146.459
3212,0.6875,0.1538,-0.7266,0.122,-0.061,0.000,168.338,-42.907,146.459
3222,0.6875,0.1519,-0.7271,0.183,0.000,-0.183,168.338,-42.902,146.464
3232,0.6880,0.1514,-0.7275,0.122,0.061,-0.366,168.333,-42.902,146.470
3242,0.6904,0.1509,-0.7266,-0.061,0.000,-0.488,168.327,-42.902,146.475
3252,0.6880,0.1504,-0.7261,-0.122,-0.061,-0.488,168.322,-42.902,146.481
3262,0.6895,0.1494,-0.7256,0.000,0.000,-0.427,168.316,-42.902,146.486
3272,0.6899,0.1494,-0.7275,0.305,0.061,-0.305,168.322,-42.902,146.492
3282,0.6919,0.1460,-0.7285,0.671,0.122,-0.122,168.327,-42.902,146.492
3292,0.6938,0.1431,-0.7256,0.793,0.122,0.061,168.344,-42.907,146.492
3302,0.6934,0.1436,-0.7285,0.671,0.122,0.122,168.354,-42.907,146.492
3312,0.6934,0.1431,-0.7290,0.366,0.000,0.183,168.365,-42.907,146.486
3322,0.6958,0.1426,-0.7319,0.000,-0.061,0.183,168.371,-42.913,146.486
3332,0.6968,0.1455,-0.7329,-0.183,-0.244,0.183,168.376,-42.907,146.481
3342,0.6958,0.1479,-0.7319,-0.183,-0.427,0.183,168.382,-42.907,146.481
3352,0.6938,0.1489,-0.7275,-0.122,-0.671,0.183,168.382,-42.902,146.475
3362,0.6890,0.1489,-0.7256,0.000,-0.793,0.244,168.387,-42.896,146.470
3372,0.6836,0.1489,-0.7266,0.122,-0.793,0.305,168.393,-42.885,146.464
3382,0.6870,0.1499,-0.7261,0.305,-0.732,0.305,168.398,-42.880,146.459
3392,0.6865,0.1519,-0.7256,0.366,-0.671,0.366,168.404,-42.874,146.453
3402,0.6890,0.1528,-0.7246,0.366,-0.549,0.366,168.409,-42.869,146.442
3412,0.6880,0.1543,-0.7251,0.427,-0.305,0.366,168.415,-42.869,146.437
3422,0.6895,0.1528,-0.7231,0.427,0.000,0.122,168.415,-42.869,146.437
3432,0.6899,0.1514,-0.7271,0.366,0.122,-0.061,168.415,-42.869,146.437
3442,0.6904,0.1509,-0.7271,0.244,0.122,-0.183,168.415,-42.869,146.442
3452,0.6909,0.1489,-0.7271,0.122,0.061,-0.305,168.415,-42.874,146.448
3462,0.6914,0.1484,-0.7271,0.061,0.122,-0.305,168.409,-42.874,146.448
3472,0.6899,0.1475,-0.7275,0.183,0.183,-0.183,168.409,-42.874,146.453
3482,0.6885,0.1436,-0.7275,0.366,0.183,-0.183,168.420,-42.874,146.453
3492,0.6904,0.1436,-0.7310,0.488,0.244,-0.122,168.426,-42.880,146.459
3502,0.6899,0.1431,-0.7300,0.366,0.183,-0.122,168.431,-42.880,146.459
3512,0.6895,0.1436,-0.7305,0.244,0.061,-0.061,168.437,-42.880,146.459
3522,0.6875,0.1475,-0.7305,0.183,0.000,-0.061,168.442,-42.880,146.464
3532,0.6860,0.1455,-0.7285,0.244,-0.061,-0.061,168.448,-42.874,146.464
3542,0.6860,0.1479,-0.7285,0.427,-0.183,-0.061,168.453,-42.874,146.464
3552,0.6875,0.1460,-0.7295,0.549,-0.244,0.000,168.459,-42.869,146.464
3563,0.6865,0.1470,-0.7300,0.610,-0.305,-0.061,168.464,-42.863,146.464
3572,0.6875,0.1475,-0.7256,0.549,-0.305,-0.061,168.475,-42.863,146.464
3582,0.6875,0.1460,-0.7275,0.366,-0.305,-0.122,168.475,-42.858,146.464
3592,0.6870,0.1494,-0.7285,0.244,-0.244,-0.122,168.481,-42.852,146.464
3602,0.6890,0.1494,-0.7266,0.244,-0.183,-0.183,168.481,-42.852,146.464
3612,0.6904,0.1494,-0.7246,0.305,-0.122,-0.183,168.481,-42.852,146.470
3622,0.6914,0.1484,-0.7266,0.366,0.000,-0.122,168.481,-42.852,146.470
3632,0.6919,0.1465,-0.7256,0.366,-0.061,-0.122,168.486,-42.852,146.470
3642,0.6895,0.1455,-0.7271,0.366,-0.183,-0.122,168.492,-42.852,146.470
3652,0.6899,0.1465,-0.7251,0.366,-0.305,-0.061,168.492,-42.852,146.470
3662,0.6890,0.1450,-0.7275,0.427,-0.244,-0.061,168.503,-42.852,146.470
3672,0.6880,0.1465,-0.7280,0.488,-0.122,0.000,168.508,-42.847,146.470
3682,0.6880,0.1465,-0.7271,0.610,0.061,0.061,168.514,-42.847,146.470
3692,0.6860,0.1460,-0.7290,0.610,0.122,0.061,168.525,-42.847,146.470
3702,0.6890,0.1460,-0.7285,0.610,0.183,0.061,168.530,-42.852,146.470
3712,0.6899,0.1475,-0.7300,0.488,0.183,0.000,168.536,-42.852,146.470
3722,0.6919,0.1479,-0.7310,0.366,0.122,-0.061,168.536,-42.852,146.470
3732,0.6938,0.1460,-0.7310,0.122,0.000,-0.061,168.541,-42.852,146.470
3742,0.6948,0.1455,-0.7305,-0.122,-0.183,-0.122,168.541,-42.852,146.470
3752,0.6948,0.1436,-0.7271,-0.305,-0.366,-0.122,168.541,-42.852,146.470
3762,0.6929,0.1431,-0.7275,-0.366,-0.549,0.000,168.541,-42.852,146.470
3772,0.6909,0.1450,-0.7271,-0.305,-0.610,0.122,168.541,-42.847,146.470
3782,0.6880,0.1479,-0.7246,-0.122,-0.549,0.244,168.541,-42.841,146.470
3792,0.6860,0.1484,-0.7275,0.183,-0.366,0.366,168.547,-42.836,146.470
3802,0.6831,0.1484,-0.7251,0.427,-0.122,0.366,168.552,-42.836,146.470
3812,0.6836,0.1479,-0.7261,0.427,0.183,0.305,168.558,-42.836,146.470
3822,0.6875,0.1470,-0.7290,0.427,0.488,0.244,168.563,-42.841,146.470
3832,0.6899,0.1475,-0.7305,0.244,0.610,0.000,168.569,-42.847,146.470
3842,0.6914,0.1465,-0.7334,-0.061,0.671,-0.305,168.563,-42.852,146.470
3852,0.6924,0.1465,-0.7344,-0.427,0.427,-0.488,168.558,-42.858,146.470
3862,0.6899,0.1470,-0.7324,-0.610,0.122,-0.671,168.547,-42.852,146.470
3872,0.6895,0.1460,-0.7310,-0.610,-0.244,-0.671,168.536,-42.847,146.470
3882,0.6865,0.1465,-0.7280,-0.488,-0.427,-0.671,168.525,-42.841,146.470
3892,0.6851,0.1450,-0.7266,-0.183,-0.549,-0.610,168.519,-42.836,146.470
3902,0.6831,0.1436,-0.7275,0.122,-0.488,-0.427,168.525,-42.830,146.470
3912,0.6851,0.1450,-0.7280,0.305,-0.305,-0.244,168.525,-42.825,146.470
3922,0.6880,0.1445,-0.7290,0.427,0.000,-0.122,168.530,-42.825,146.470
3932,0.6895,0.1436,-0.7275,0.488,0.305,-0.061,168.541,-42.825,146.470
3942,0.6924,0.1445,-0.7300,0.427,0.427,-0.122,168.541,-42.830,146.470
3952,0.6934,0.1465,-0.7290,0.305,0.427,-0.122,168.547,-42.836,146.470
3962,0.6938,0.1475,-0.7290,0.244,0.305,-0.122,168.547,-42.841,146.470
3972,0.6934,0.1470,-0.7280,0.183,0.122,-0.122,168.547,-42.847,146.470
3982,0.6914,0.1465,-0.7305,0.244,-0.122,-0.122,168.552,-42.847,146.470
3992,0.6929,0.1460,-0.7271,0.183,-0.305,-0.183,168.552,-42.841,146.470
4002,0.6938,0.1436,-0.7280,0.061,-0.305,-0.122,168.552,-42.841,146.470
4012,0.6904,0.1436,-0.7300,-0.122,-0.305,-0.122,168.558,-42.841,146.470
4022,0.6899,0.1445,-0.7285,-0.183,-0.122,-0.061,168.558,-42.841,146.470
4032,0.6890,0.1436,-0.7271,-0.183,0.000,0.000,168.558,-42.841,146.470
4042,0.6909,0.1436,-0.7275,-0.183,0.122,0.061,168.558,-42.841,146.470
4052,0.6914,0.1431,-0.7251,-0.183,0.183,0.061,168.558,-42.847,146.470
4063,0.6919,0.1431,-0.7285,-0.305,0.183,0.122,168.563,-42.852,146.470
4072,0.6885,0.1455,-0.7285,-0.366,0.122,0.122,168.558,-42.852,146.470
4082,0.6855,0.1475,-0.7300,-0.305,0.183,0.122,168.558,-42.852,146.470
4092,0.6851,0.1484,-0.7324,-0.183,0.183,0.061,168.558,-42.852,146.470
4102,0.6880,0.1475,-0.7290,-0.122,0.244,0.000,168.552,-42.852,146.470
4112,0.6880,0.1470,-0.7295,-0.183,0.183,0.000,168.552,-42.852,146.470
4122,0.6870,0.1489,-0.7310,-0.122,0.122,-0.061,168.547,-42.852,146.470
4132,0.6919,0.1455,-0.7305,-0.122,0.122,-0.122,168.547,-42.852,146.470
4142,0.6934,0.1445,-0.7295,-0.061,0.061,-0.244,168.547,-42.852,146.470
4152,0.6909,0.1450,-0.7310,-0.183,-0.122,-0.305,168.547,-42.852,146.470
4162,0.6899,0.1426,-0.7300,-0.305,-0.305,-0.305,168.547,-42.852,146.470
4172,0.6895,0.1450,-0.7261,-0.549,-0.427,-0.305,168.541,-42.847,146.470
4182,0.6885,0.1445,-0.7271,-0.610,-0.305,-0.305,168.536,-42.841,146.470
4192,0.6851,0.1475,-0.7275,-0.427,-0.061,-0.183,168.525,-42.841,146.470
4202,0.6870,0.1470,-0.7285,-0.122,0.183,-0.183,168.525,-42.841,146.470
4212,0.6890,0.1479,-0.7280,0.000,0.366,-0.122,168.525,-42.847,146.470
4222,0.6914,0.1470,-0.7305,0.000,0.549,-0.183,168.519,-42.852,146.470
4232,0.6904,0.1489,-0.7275,-0.122,0.549,-0.244,168.514,-42.858,146.470
4242,0.6895,0.1494,-0.7275,-0.305,0.366,-0.366,168.508,-42.858,146.470
4252,0.6909,0.1494,-0.7290,-0.366,0.122,-0.488,168.497,-42.858,146.470
4262,0.6909,0.1479,-0.7256,-0.305,-0.183,-0.488,168.492,-42.858,146.470
4272,0.6895,0.1504,-0.7266,-0.122,-0.427,-0.488,168.486,-42.852,146.470
4282,0.6890,0.1470,-0.7236,0.000,-0.549,-0.488,168.481,-42.847,146.470
4292,0.6895,0.1460,-0.7256,0.000,-0.366,-0.488,168.481,-42.847,146.470
4303,0.6904,0.1436,-0.7236,-0.061,-0.122,-0.488,168.475,-42.847,146.470
4313,0.6895,0.1436,-0.7266,-0.244,0.122,-0.366,168.475,-42.847,146.470
4323,0.6924,0.1455,-0.7261,-0.305,0.366,-0.244,168.470,-42.852,146.470
4333,0.6938,0.1436,-0.7271,-0.305,0.427,-0.122,168.470,-42.858,146.470
4343,0.6948,0.1450,-0.7251,-0.122,0.488,0.000,168.470,-42.869,146.470
4353,0.6924,0.1450,-0.7285,0.000,0.366,0.244,168.475,-42.874,146.470
4363,0.6919,0.1445,-0.7275,0.122,0.244,0.305,168.481,-42.880,146.470
4373,0.6914,0.1440,-0.7285,0.122,0.122,0.305,168.486,-42.880,146.470
4383,0.6914,0.1450,-0.7285,-0.122,0.000,0.183,168.492,-42.880,146.470
4393,0.6890,0.1455,-0.7280,-0.488,0.000,0.122,168.486,-42.880,146.470
4403,0.6890,0.1465,-0.7290,-0.732,-0.061,0.000,168.481,-42.880,146.470
4413,0.6899,0.1489,-0.7275,-0.793,-0.122,-0.061,168.475,-42.880,146.470
4423,0.6885,0.1504,-0.7280,-0.732,-0.122,0.000,168.464,-42.880,146.470
4433,0.6895,0.1494,-0.7305,-0.427,-0.244,0.061,168.464,-42.874,146.470
4443,0.6880,0.1504,-0.7285,-0.122,-0.305,0.122,168.459,-42.869,146.470
4453,0.6890,0.1494,-0.7290,0.122,-0.244,0.122,168.464,-42.869,146.470
4463,0.6890,0.1489,-0.7295,0.183,-0.061,0.000,168.464,-42.869,146.470
4473,0.6880,0.1479,-0.7271,0.000,0.000,-0.183,168.464,-42.863,146.470
4483,0.6895,0.1470,-0.7275,-0.183,0.183,-0.305,168.459,-42.869,146.470
4493,0.6904,0.1494,-0.7305,-0.244,0.305,-0.427,168.453,-42.869,146.470
4503,0.6914,0.1494,-0.7280,-0.305,0.366,-0.549,168.442,-42.874,146.470
4513,0.6919,0.1475,-0.7290,-0.061,0.183,-0.549,168.437,-42.874,146.470
4523,0.6924,0.1475,-0.7314,0.183,0.000,-0.549,168.437,-42.874,146.470
4533,0.6914,0.1455,-0.7300,0.305,-0.183,-0.427,168.442,-42.869,146.470
4543,0.6919,0.1470,-0.7314,0.305,-0.305,-0.366,168.442,-42.869,146.470
4553,0.6880,0.1489,-0.7261,0.366,-0.366,-0.244,168.442,-42.863,146.470
4563,0.6870,0.1479,-0.7246,0.488,-0.244,-0.244,168.448,-42.858,146.470
4573,0.6851,0.1479,-0.7256,0.610,-0.183,-0.183,168.453,-42.858,146.470
4583,0.6831,0.1499,-0.7261,0.732,0.000,-0.244,168.459,-42.852,146.470
4593,0.6855,0.1484,-0.7285,0.610,0.244,-0.366,168.459,-42.852,146.470
4603,0.6865,0.1509,-0.7300,0.549,0.427,-0.549,168.459,-42.858,146.470
4613,0.6880,0.1514,-0.7295,0.366,0.610,-0.732,168.453,-42.858,146.470
4623,0.6895,0.1504,-0.7290,0.244,0.671,-0.793,168.442,-42.863,146.470
4633,0.6895,0.1504,-0.7285,0.183,0.488,-0.854,168.437,-42.863,146.470
4643,0.6919,0.1494,-0.7280,0.244,0.305,-0.793,168.431,-42.869,146.470
4653,0.6938,0.1489,-0.7266,0.366,0.061,-0.671,168.426,-42.869,146.470
4663,0.6924,0.1470,-0.7280,0.610,-0.061,-0.488,168.431,-42.869,146.470
4673,0.6909,0.1445,-0.7246,0.854,-0.183,-0.427,168.437,-42.869,146.470
4683,0.6914,0.1465,-0.7256,1.038,-0.122,-0.305,168.448,-42.869,146.470
4693,0.6909,0.1475,-0.7271,1.160,0.000,-0.366,168.459,-42.869,146.470
4703,0.6919,0.1470,-0.7261,1.160,0.305,-0.427,168.464,-42.874,146.470
4713,0.6899,0.1470,-0.7275,1.038,0.610,-0.488,168.470,-42.880,146.470
4723,0.6934,0.1455,-0.7280,0.793,0.793,-0.610,168.475,-42.885,146.470
4733,0.6924,0.1460,-0.7290,0.549,0.793,-0.732,168.475,-42.896,146.470
4743,0.6919,0.1465,-0.7290,0.488,0.671,-0.732,168.470,-42.902,146.470
4753,0.6924,0.1450,-0.7285,0.427,0.488,-0.671,168.470,-42.902,146.470
4763,0.6929,0.1455,-0.7285,0.488,0.305,-0.610,168.475,-42.907,146.470
4773,0.6919,0.1450,-0.7300,0.488,0.122,-0.610,168.475,-42.907,146.470
4783,0.6899,0.1436,-0.7290,0.427,0.000,-0.549,168.481,-42.907,146.470
4793,0.6885,0.1445,-0.7300,0.244,-0.122,-0.610,168.481,-42.902,146.470
4803,0.6885,0.1436,-0.7271,0.061,-0.061,-0.610,168.475,-42.902,146.470
4813,0.6885,0.1445,-0.7266,-0.061,0.061,-0.671,168.475,-42.902,146.470
4823,0.6899,0.1440,-0.7285,-0.183,0.244,-0.732,168.470,-42.902,146.470
4833,0.6904,0.1465,-0.7275,-0.244,0.305,-0.671,168.459,-42.902,146.470
4843,0.6909,0.1475,-0.7271,-0.183,0.244,-0.549,168.453,-42.907,146.470
4853,0.6934,0.1470,-0.7271,0.000,0.183,-0.427,168.453,-42.907,146.470
4863,0.6924,0.1475,-0.7271,0.305,0.061,-0.305,168.453,-42.907,146.470
4873,0.6909,0.1460,-0.7236,0.427,-0.061,-0.183,168.453,-42.907,146.470
4883,0.6919,0.1436,-0.7241,0.366,-0.122,-0.183,168.459,-42.913,146.470
4893,0.6929,0.1455,-0.7275,0.244,0.000,-0.183,168.464,-42.913,146.470
4903,0.6914,0.1470,-0.7275,0.000,0.122,-0.305,168.464,-42.913,146.470
4913,0.6890,0.1484,-0.7271,-0.183,0.244,-0.366,168.459,-42.913,146.470
4923,0.6875,0.1484,-0.7261,-0.244,0.305,-0.366,168.448,-42.918,146.470
4933,0.6885,0.1499,-0.7280,-0.122,0.305,-0.366,168.442,-42.918,146.470
4943,0.6885,0.1523,-0.7280,0.183,0.305,-0.366,168.442,-42.918,146.470
4953,0.6860,0.1528,-0.7251,0.488,0.366,-0.244,168.437,-42.918,146.470
4963,0.6855,0.1494,-0.7290,0.793,0.366,-0.244,168.442,-42.918,146.470
4973,0.6875,0.1450,-0.7310,0.732,0.427,-0.427,168.448,-42.924,146.470
4983,0.6899,0.1455,-0.7275,0.305,0.488,-0.610,168.448,-42.924,146.470
4993,0.6919,0.1479,-0.7300,-0.122,0.427,-0.671,168.442,-42.929,146.470
5003,0.6909,0.1470,-0.7300,-0.183,0.366,-0.549,168.437,-42.929,146.470
5013,0.6929,0.1470,-0.7261,0.183,0.305,-0.488,168.431,-42.935,146.470
5023,0.6924,0.1445,-0.7280,0.610,0.183,-0.427,168.437,-42.935,146.470
5033,0.6934,0.1406,-0.7300,0.854,-0.061,-0.305,168.453,-42.935,146.470
5043,0.6943,0.1387,-0.7256,0.549,-0.244,-0.183,168.464,-42.935,146.470
5053,0.6938,0.1426,-0.7256,0.122,-0.366,-0.061,168.470,-42.935,146.470
5064,0.6924,0.1421,-0.7251,-0.244,-0.244,0.000,168.470,-42.935,146.470
5073,0.6929,0.1455,-0.7256,-0.305,-0.061,0.000,168.470,-42.935,146.470
5083,0.6909,0.1470,-0.7251,-0.122,0.183,0.061,168.470,-42.940,146.470
5093,0.6895,0.1450,-0.7266,0.000,0.366,0.122,168.470,-42.940,146.470
5103,0.6909,0.1479,-0.7314,0.061,0.488,0.122,168.475,-42.946,146.470
5113,0.6919,0.1475,-0.7314,-0.061,0.366,0.122,168.475,-42.951,146.470
5123,0.6929,0.1479,-0.7324,-0.183,0.183,0.122,168.475,-42.951,146.470
5133,0.6919,0.1479,-0.7324,-0.366,-0.061,0.122,168.475,-42.946,146.470
5143,0.6909,0.1475,-0.7300,-0.427,-0.427,0.122,168.470,-42.946,146.470
5153,0.6895,0.1475,-0.7305,-0.305,-0.610,0.183,168.475,-42.935,146.470
5163,0.6875,0.1479,-0.7290,-0.061,-0.671,0.244,168.475,-42.929,146.470
5173,0.6865,0.1514,-0.7246,0.244,-0.610,0.244,168.481,-42.924,146.470
5183,0.6855,0.1509,-0.7246,0.488,-0.427,0.244,168.486,-42.918,146.470
5193,0.6855,0.1499,-0.7251,0.549,-0.061,0.061,168.486,-42.918,146.470
5203,0.6885,0.1484,-0.7275,0.427,0.366,-0.183,168.492,-42.918,146.470
5213,0.6909,0.1489,-0.7266,0.183,0.610,-0.366,168.486,-42.924,146.470
5223,0.6919,0.1499,-0.7271,-0.061,0.793,-0.549,168.481,-42.929,146.470
5233,0.6958,0.1489,-0.7251,-0.122,0.671,-0.549,168.470,-42.940,146.470
5243,0.7002,0.1450,-0.7275,-0.061,0.305,-0.488,168.470,-42.946,146.470
5253,0.7012,0.1411,-0.7275,-0.061,-0.244,-0.366,168.470,-42.946,146.470
5263,0.7007,0.1426,-0.7266,-0.061,-0.671,-0.183,168.475,-42.946,146.470
5273,0.6978,0.1387,-0.7241,-0.183,-1.038,-0.061,168.481,-42.940,146.470
5283,0.6963,0.1367,-0.7236,-0.427,-1.160,0.000,168.486,-42.935,146.470
5293,0.6938,0.1382,-0.7222,-0.854,-1.160,0.061,168.486,-42.929,146.470
5303,0.6919,0.1416,-0.7241,-1.099,-0.916,0.183,168.481,-42.924,146.470
5313,0.6885,0.1450,-0.7222,-1.038,-0.488,0.366,168.481,-42.918,146.470
5323,0.6870,0.1465,-0.7251,-0.610,0.183,0.610,168.481,-42.924,146.470
5333,0.6865,0.1475,-0.7251,-0.183,0.610,0.793,168.481,-42.929,146.470
5343,0.6875,0.1489,-0.7280,0.122,0.732,0.854,168.492,-42.935,146.470
5353,0.6880,0.1494,-0.7324,0.183,0.610,0.854,168.497,-42.940,146.470
5363,0.6909,0.1509,-0.7310,0.000,0.305,0.732,168.503,-42.946,146.470
5373,0.6909,0.1509,-0.7354,-0.366,-0.122,0.427,168.503,-42.940,146.470
5383,0.6895,0.1504,-0.7368,-0.793,-0.488,0.000,168.497,-42.929,146.470
5393,0.6890,0.1489,-0.7314,-1.160,-0.916,-0.427,168.481,-42.918,146.470
5403,0.6865,0.1514,-0.7300,-1.404,-1.160,-0.549,168.464,-42.902,146.470
5413,0.6826,0.1523,-0.7261,-1.160,-1.160,-0.549,168.442,-42.891,146.470
5423,0.6816,0.1509,-0.7231,-0.488,-0.732,-0.488,168.437,-42.880,146.470
5433,0.6812,0.1509,-0.7236,0.183,-0.183,-0.305,168.431,-42.874,146.470
5443,0.6841,0.1484,-0.7275,0.610,0.427,-0.122,168.437,-42.874,146.470
5453,0.6860,0.1460,-0.7305,0.732,0.793,-0.061,168.442,-42.880,146.470
5463,0.6929,0.1436,-0.7329,0.549,1.038,-0.122,168.453,-42.891,146.470
5473,0.6948,0.1426,-0.7354,0.305,0.977,-0.183,168.459,-42.902,146.470
5483,0.6978,0.1436,-0.7344,0.061,0.732,-0.183,168.459,-42.907,146.470
5493,0.6963,0.1445,-0.7349,-0.061,0.305,-0.122,168.459,-42.913,146.470
5503,0.6919,0.1440,-0.7339,-0.061,-0.305,0.000,168.464,-42.907,146.470
5513,0.6875,0.1440,-0.7300,0.061,-0.671,0.183,168.470,-42.902,146.470
5523,0.6836,0.1450,-0.7285,0.305,-0.793,0.305,168.481,-42.891,146.470
5533,0.6802,0.1455,-0.7300,0.488,-0.610,0.427,168.497,-42.880,146.470
5543,0.6807,0.1460,-0.7285,0.549,-0.244,0.488,168.508,-42.874,146.470
5553,0.6831,0.1489,-0.7280,0.549,0.183,0.488,168.514,-42.874,146.470
5564,0.6890,0.1499,-0.7271,0.549,0.488,0.549,168.525,-42.880,146.470
5573,0.6924,0.1499,-0.7290,0.610,0.671,0.549,168.530,-42.891,146.470
5583,0.6943,0.1499,-0.7295,0.549,0.549,0.427,168.536,-42.896,146.470
5593,0.6938,0.1499,-0.7280,0.610,0.244,0.366,168.547,-42.902,146.470
5603,0.6880,0.1519,-0.7285,0.549,-0.061,0.244,168.552,-42.896,146.470
5613,0.6826,0.1528,-0.7251,0.610,-0.183,0.122,168.552,-42.896,146.470
5623,0.6816,0.1519,-0.7222,0.854,-0.122,-0.061,168.558,-42.891,146.470
5633,0.6782,0.1528,-0.7231,1.160,0.244,-0.183,168.563,-42.891,146.470
5643,0.6807,0.1499,-0.7241,1.465,0.793,-0.183,168.569,-42.896,146.470
5653,0.6865,0.1475,-0.7231,1.709,1.282,-0.122,168.585,-42.907,146.470
5663,0.6958,0.1445,-0.7261,1.709,1.587,-0.183,168.596,-42.924,146.470
5673,0.7036,0.1406,-0.7300,1.404,1.465,-0.183,168.613,-42.946,146.470
5683,0.7109,0.1362,-0.7324,0.854,0.854,-0.244,168.624,-42.962,146.470
5693,0.7148,0.1313,-0.7310,0.000,-0.122,-0.305,168.635,-42.968,146.470
5703,0.7129,0.1294,-0.7251,-0.793,-1.099,-0.244,168.640,-42.968,146.470
5713,0.7080,0.1299,-0.7251,-1.465,-1.831,-0.183,168.635,-42.957,146.470
5723,0.7012,0.1284,-0.7217,-1.709,-1.953,0.000,168.635,-42.946,146.470
5733,0.6958,0.1279,-0.7178,-1.709,-1.587,0.366,168.640,-42.940,146.470
5743,0.6929,0.1284,-0.7202,-1.770,-0.977,0.793,168.640,-42.935,146.470
5754,0.6924,0.1318,-0.7212,-1.953,-0.366,1.282,168.646,-42.940,146.453
5764,0.6934,0.1387,-0.7231,-1.953,0.122,1.770,168.646,-42.951,146.431
5774,0.6934,0.1416,-0.7256,-1.770,0.488,2.075,168.651,-42.962,146.404
5784,0.6958,0.1499,-0.7329,-1.709,0.488,2.136,168.651,-42.968,146.376
5794,0.6865,0.1533,-0.7319,-1.587,0.427,1.953,168.646,-42.973,146.349
5804,0.6880,0.1548,-0.7349,-1.892,-0.061,1.648,168.635,-42.968,146.327
5814,0.6836,0.1577,-0.7329,-2.258,-0.488,1.221,168.618,-42.962,146.310
5824,0.6772,0.1606,-0.7358,-2.441,-0.671,0.732,168.591,-42.946,146.299
5834,0.6743,0.1655,-0.7358,-2.380,-0.854,0.244,168.558,-42.929,146.294
5844,0.6733,0.1675,-0.7324,-2.075,-0.732,-0.244,168.525,-42.907,146.294
5854,0.6748,0.1646,-0.7339,-1.648,-0.488,-0.793,168.492,-42.891,146.305
5864,0.6782,0.1611,-0.7314,-1.404,-0.305,-1.343,168.453,-42.880,146.321
5874,0.6812,0.1572,-0.7300,-1.221,-0.183,-1.831,168.420,-42.869,146.343
5884,0.6865,0.1548,-0.7280,-1.160,-0.183,-2.197,168.387,-42.863,146.376
5894,0.6880,0.1528,-0.7261,-0.977,-0.244,-2.258,168.354,-42.858,146.404
5904,0.6924,0.1494,-0.7246,-0.671,-0.305,-2.136,168.327,-42.852,146.431
5914,0.6919,0.1489,-0.7227,-0.183,-0.366,-1.770,168.311,-42.847,146.453
5924,0.6929,0.1479,-0.7217,0.366,-0.305,-1.343,168.305,-42.847,146.470
5934,0.6938,0.1460,-0.7197,0.793,-0.244,-0.854,168.305,-42.847,146.481
5944,0.6958,0.1445,-0.7231,1.099,-0.122,-0.488,168.316,-42.847,146.486
5954,0.6968,0.1431,-0.7212,1.038,0.122,-0.305,168.333,-42.858,146.492
5964,0.6963,0.1440,-0.7251,0.793,0.305,-0.305,168.338,-42.863,146.497
5974,0.6953,0.1450,-0.7266,0.488,0.549,-0.366,168.344,-42.869,146.503
5984,0.6914,0.1475,-0.7290,0.122,0.671,-0.366,168.344,-42.880,146.508
5994,0.6899,0.1475,-0.7290,0.000,0.671,-0.305,168.338,-42.885,146.514
6004,0.6890,0.1504,-0.7256,0.061,0.610,-0.183,168.338,-42.891,146.519
6014,0.6890,0.1504,-0.7261,0.427,0.549,0.000,168.338,-42.896,146.519
6024,0.6880,0.1499,-0.7280,0.732,0.488,0.061,168.349,-42.896,146.525
6034,0.6875,0.1504,-0.7310,0.916,0.427,0.183,168.360,-42.902,146.519
6044,0.6885,0.1475,-0.7319,0.916,0.244,0.183,168.371,-42.902,146.519
6054,0.6919,0.1475,-0.7290,0.732,0.000,0.122,168.382,-42.902,146.519
6064,0.6934,0.1426,-0.7310,0.427,-0.183,0.061,168.393,-42.902,146.514
6074,0.6938,0.1445,-0.7290,0.244,-0.488,0.061,168.398,-42.896,146.514
6084,0.6968,0.1440,-0.7271,0.183,-0.732,0.244,168.409,-42.896,146.508
6094,0.6953,0.1416,-0.7236,0.305,-0.793,0.488,168.420,-42.891,146.503
6104,0.6938,0.1431,-0.7217,0.488,-0.793,0.732,168.437,-42.891,146.486
6114,0.6899,0.1431,-0.7217,0.671,-0.610,0.977,168.459,-42.891,146.475
6124,0.6890,0.1436,-0.7236,0.793,-0.427,1.099,168.481,-42.891,146.459
6134,0.6885,0.1436,-0.7246,0.793,-0.244,1.160,168.503,-42.891,146.442
6144,0.6919,0.1450,-0.7271,0.671,0.061,1.160,168.519,-42.896,146.426
6154,0.6909,0.1479,-0.7280,0.427,0.305,1.038,168.536,-42.902,146.415
6164,0.6919,0.1484,-0.7310,0.244,0.366,0.916,168.547,-42.902,146.404
6174,0.6938,0.1504,-0.7305,0.122,0.305,0.793,168.552,-42.907,146.393
6184,0.6924,0.1504,-0.7310,0.061,0.061,0.488,168.552,-42.913,146.387
6194,0.6904,0.1514,-0.7305,-0.122,-0.244,0.244,168.552,-42.907,146.382
6204,0.6899,0.1479,-0.7300,-0.366,-0.610,-0.061,168.547,-42.902,146.382
6214,0.6899,0.1465,-0.7285,-0.610,-0.732,-0.244,168.541,-42.891,146.382
6224,0.6870,0.1465,-0.7290,-0.732,-0.793,-0.427,168.536,-42.880,146.387
6234,0.6841,0.1470,-0.7295,-0.610,-0.549,-0.427,168.525,-42.874,146.387
6244,0.6836,0.1440,-0.7290,-0.305,-0.183,-0.305,168.525,-42.869,146.393
6254,0.6831,0.1411,-0.7285,0.061,0.183,-0.122,168.530,-42.869,146.398
6264,0.6870,0.1421,-0.7280,0.366,0.427,0.000,168.536,-42.874,146.398
6274,0.6875,0.1421,-0.7285,0.366,0.549,0.061,168.541,-42.874,146.398
6284,0.6904,0.1421,-0.7300,0.244,0.427,0.122,168.552,-42.880,146.398
6294,0.6943,0.1436,-0.7300,0.122,0.183,0.122,168.552,-42.885,146.398
6304,0.6948,0.1445,-0.7314,0.000,-0.122,0.061,168.558,-42.885,146.393
6314,0.6958,0.1460,-0.7285,-0.122,-0.366,-0.061,168.558,-42.885,146.393
6324,0.6938,0.1470,-0.7266,-0.244,-0.671,-0.061,168.558,-42.880,146.393
6334,0.6919,0.1460,-0.7285,-0.244,-0.793,-0.122,168.558,-42.874,146.393
6344,0.6895,0.1455,-0.7275,-0.244,-0.732,-0.122,168.552,-42.863,146.393
6354,0.6875,0.1465,-0.7256,-0.122,-0.549,-0.122,168.552,-42.858,146.393
6364,0.6880,0.1460,-0.7285,-0.122,-0.305,-0.122,168.552,-42.858,146.393
6374,0.6885,0.1465,-0.7295,-0.183,-0.122,-0.122,168.552,-42.852,146.393
6384,0.6890,0.1470,-0.7266,-0.183,0.061,-0.122,168.547,-42.852,146.398
6394,0.6875,0.1489,-0.7271,-0.122,0.183,0.000,168.547,-42.858,146.398
6404,0.6885,0.1504,-0.7285,0.122,0.305,0.122,168.547,-42.858,146.398
6414,0.6899,0.1509,-0.7285,0.427,0.244,0.122,168.547,-42.863,146.393
6424,0.6899,0.1455,-0.7310,0.549,0.244,0.122,168.558,-42.863,146.393
6434,0.6914,0.1450,-0.7314,0.305,0.061,-0.061,168.558,-42.863,146.393
6444,0.6914,0.1460,-0.7290,0.000,-0.061,-0.244,168.558,-42.863,146.398
6454,0.6904,0.1465,-0.7310,-0.427,-0.183,-0.488,168.552,-42.858,146.404
6464,0.6890,0.1479,-0.7290,-0.671,-0.183,-0.671,168.541,-42.858,146.415
6474,0.6885,0.1475,-0.7266,-0.793,-0.305,-0.732,168.525,-42.852,146.420
6484,0.6895,0.1465,-0.7261,-0.610,-0.305,-0.610,168.514,-42.847,146.431
6494,0.6880,0.1465,-0.7227,-0.244,-0.183,-0.366,168.508,-42.847,146.431
6504,0.6875,0.1479,-0.7256,0.305,0.000,-0.122,168.514,-42.847,146.437
6514,0.6899,0.1465,-0.7261,0.671,0.244,0.061,168.519,-42.852,146.437
6524,0.6924,0.1455,-0.7290,0.671,0.427,0.061,168.525,-42.858,146.437
6534,0.6948,0.1450,-0.7300,0.366,0.549,0.000,168.530,-42.863,146.437
6544,0.6948,0.1445,-0.7285,0.000,0.427,-0.122,168.530,-42.869,146.442
6554,0.6929,0.1445,-0.7285,-0.244,0.366,-0.244,168.530,-42.874,146.442
6565,0.6924,0.1455,-0.7305,-0.427,0.244,-0.366,168.525,-42.880,146.448
6574,0.6904,0.1455,-0.7300,-0.488,0.000,-0.366,168.519,-42.874,146.453
6584,0.6895,0.1436,-0.7305,-0.366,-0.183,-0.183,168.519,-42.874,146.459
6594,0.6885,0.1436,-0.7305,-0.183,-0.183,0.000,168.519,-42.869,146.459
6604,0.6909,0.1436,-0.7285,-0.122,-0.122,0.122,168.525,-42.869,146.453
6614,0.6934,0.1411,-0.7290,-0.183,-0.122,0.122,168.525,-42.874,146.453
6624,0.6934,0.1411,-0.7314,-0.366,-0.061,0.244,168.530,-42.874,146.448
6634,0.6924,0.1436,-0.7305,-0.549,-0.122,0.366,168.530,-42.874,146.442
6644,0.6909,0.1445,-0.7300,-0.549,-0.183,0.366,168.536,-42.874,146.437
6654,0.6875,0.1465,-0.7295,-0.488,-0.244,0.366,168.536,-42.869,146.431
6664,0.6860,0.1475,-0.7310,-0.366,-0.183,0.366,168.536,-42.863,146.426
6674,0.6855,0.1470,-0.7314,-0.244,0.000,0.244,168.536,-42.863,146.426
6684,0.6855,0.1519,-0.7319,-0.122,0.183,0.122,168.530,-42.863,146.420
6694,0.6855,0.1499,-0.7290,-0.183,0.183,0.000,168.530,-42.863,146.426
6704,0.6860,0.1509,-0.7285,-0.183,0.122,-0.122,168.525,-42.863,146.426
6714,0.6880,0.1514,-0.7295,-0.183,0.061,-0.244,168.514,-42.858,146.431
6724,0.6899,0.1533,-0.7305,-0.122,-0.122,-0.427,168.508,-42.858,146.437
6734,0.6899,0.1519,-0.7314,0.000,-0.366,-0.549,168.503,-42.852,146.442
6744,0.6948,0.1499,-0.7280,0.061,-0.488,-0.671,168.497,-42.847,146.448
6754,0.6919,0.1479,-0.7256,0.000,-0.488,-0.732,168.486,-42.841,146.459
6764,0.6890,0.1465,-0.7212,0.000,-0.427,-0.732,168.481,-42.841,146.464
6774,0.6895,0.1450,-0.7251,-0.061,-0.244,-0.671,168.481,-42.836,146.475
6784,0.6875,0.1455,-0.7256,0.000,0.122,-0.549,168.475,-42.841,146.481
6794,0.6885,0.1470,-0.7251,0.244,0.427,-0.305,168.475,-42.841,146.486
6804,0.6885,0.1455,-0.7271,0.427,0.732,-0.122,168.481,-42.852,146.492
6814,0.6934,0.1465,-0.7261,0.549,0.793,-0.061,168.486,-42.863,146.492
6824,0.6929,0.1470,-0.7280,0.549,0.732,0.000,168.486,-42.869,146.497
6834,0.6958,0.1450,-0.7324,0.366,0.549,0.000,168.497,-42.874,146.497
6844,0.6934,0.1450,-0.7344,0.061,0.244,-0.122,168.497,-42.880,146.497
6854,0.6929,0.1484,-0.7324,-0.244,-0.122,-0.244,168.492,-42.874,146.503
6864,0.6914,0.1465,-0.7300,-0.549,-0.427,-0.305,168.486,-42.869,146.503
6874,0.6909,0.1484,-0.7266,-0.671,-0.671,-0.366,168.481,-42.863,146.508
6884,0.6909,0.1489,-0.7266,-0.671,-0.732,-0.244,168.470,-42.858,146.508
6894,0.6919,0.1479,-0.7256,-0.488,-0.671,-0.122,168.464,-42.852,146.508
6904,0.6890,0.1475,-0.7251,-0.244,-0.427,0.061,168.464,-42.852,146.508
6914,0.6890,0.1455,-0.7222,-0.061,-0.122,0.122,168.464,-42.852,146.503
6924,0.6885,0.1465,-0.7241,0.061,0.244,0.183,168.470,-42.858,146.503
6934,0.6870,0.1450,-0.7266,0.122,0.488,0.183,168.475,-42.863,146.503
6944,0.6890,0.1465,-0.7310,0.183,0.610,0.122,168.475,-42.869,146.503
6954,0.6914,0.1470,-0.7344,0.183,0.732,0.061,168.481,-42.874,146.503
6964,0.6914,0.1455,-0.7339,0.061,0.671,-0.122,168.481,-42.880,146.508
6974,0.6909,0.1445,-0.7339,-0.183,0.366,-0.122,168.481,-42.880,146.508
6984,0.6934,0.1455,-0.7329,-0.427,0.000,-0.183,168.481,-42.880,146.514
6994,0.6934,0.1445,-0.7329,-0.671,-0.366,-0.122,168.475,-42.874,146.514
7004,0.6924,0.1450,-0.7285,-0.793,-0.732,-0.183,168.470,-42.869,146.514
7014,0.6904,0.1479,-0.7285,-0.671,-0.916,-0.122,168.464,-42.863,146.514
7024,0.6880,0.1489,-0.7261,-0.549,-0.977,-0.061,168.459,-42.852,146.508
7034,0.6846,0.1475,-0.7256,-0.366,-0.854,0.000,168.459,-42.841,146.508
7044,0.6831,0.1465,-0.7275,-0.244,-0.488,-0.061,168.459,-42.836,146.508
7054,0.6831,0.1494,-0.7271,0.000,0.061,0.061,168.459,-42.836,146.508
7065,0.6812,0.1484,-0.7285,0.305,0.732,0.061,168.459,-42.836,146.508
7074,0.6836,0.1494,-0.7305,0.610,1.160,0.061,168.464,-42.847,146.508
7084,0.6846,0.1504,-0.7319,0.549,1.221,0.000,168.464,-42.852,146.514
7094,0.6875,0.1523,-0.7329,0.488,1.038,-0.061,168.464,-42.863,146.519
7104,0.6904,0.1509,-0.7314,0.244,0.549,-0.183,168.464,-42.863,146.519
7114,0.6919,0.1523,-0.7290,0.244,0.061,-0.244,168.464,-42.869,146.525
7124,0.6934,0.1489,-0.7280,0.305,-0.366,-0.427,168.464,-42.863,146.530
7134,0.6919,0.1475,-0.7256,0.427,-0.671,-0.549,168.464,-42.858,146.536
7144,0.6924,0.1455,-0.7256,0.244,-0.793,-0.671,168.464,-42.852,146.541
7154,0.6934,0.1455,-0.7236,0.000,-0.549,-0.732,168.459,-42.847,146.541
7164,0.6934,0.1431,-0.7236,-0.183,-0.244,-0.732,168.453,-42.847,146.541
7174,0.6924,0.1426,-0.7227,-0.244,0.122,-0.610,168.448,-42.852,146.541
7184,0.6904,0.1436,-0.7227,-0.122,0.549,-0.488,168.448,-42.858,146.541
7194,0.6914,0.1421,-0.7251,0.122,0.793,-0.122,168.448,-42.869,146.541
7204,0.6904,0.1465,-0.7275,0.366,0.916,0.122,168.453,-42.880,146.541
7214,0.6890,0.1470,-0.7285,0.610,0.977,0.305,168.464,-42.891,146.541
7224,0.6895,0.1489,-0.7339,0.732,0.916,0.366,168.475,-42.896,146.541
7234,0.6885,0.1479,-0.7339,0.732,0.793,0.244,168.481,-42.902,146.541
7244,0.6904,0.1470,-0.7358,0.488,0.549,0.000,168.486,-42.902,146.541
7254,0.6890,0.1475,-0.7344,0.183,0.244,-0.122,168.492,-42.902,146.541
7264,0.6904,0.1475,-0.7339,-0.183,0.061,-0.305,168.486,-42.902,146.541
7274,0.6914,0.1470,-0.7324,-0.366,-0.244,-0.488,168.481,-42.896,146.541
7284,0.6904,0.1475,-0.7275,-0.366,-0.488,-0.549,168.475,-42.891,146.541
7294,0.6924,0.1475,-0.7261,-0.305,-0.732,-0.610,168.464,-42.885,146.541
7304,0.6924,0.1460,-0.7241,-0.183,-0.793,-0.488,168.464,-42.880,146.541
7314,0.6904,0.1460,-0.7241,0.061,-0.610,-0.305,168.464,-42.874,146.541
7324,0.6899,0.1460,-0.7236,0.366,-0.244,-0.122,168.470,-42.874,146.541
7334,0.6880,0.1470,-0.7251,0.671,0.305,-0.061,168.475,-42.880,146.541
7344,0.6875,0.1489,-0.7285,0.610,0.732,-0.183,168.475,-42.885,146.541
7354,0.6851,0.1533,-0.7280,0.366,1.038,-0.244,168.475,-42.891,146.541
7364,0.6885,0.1519,-0.7280,0.061,1.160,-0.366,168.464,-42.902,146.541
7374,0.6885,0.1543,-0.7280,0.000,0.916,-0.427,168.453,-42.907,146.541
7384,0.6899,0.1543,-0.7314,0.244,0.671,-0.671,168.448,-42.907,146.541
7394,0.6914,0.1528,-0.7314,0.549,0.549,-0.793,168.442,-42.913,146.541
7404,0.6899,0.1499,-0.7280,0.671,0.549,-0.793,168.437,-42.918,146.541
7414,0.6899,0.1494,-0.7280,0.488,0.366,-0.854,168.437,-42.918,146.541
7425,0.6899,0.1470,-0.7271,0.305,0.183,-1.038,168.431,-42.918,146.558
7435,0.6885,0.1440,-0.7256,0.183,0.061,-1.160,168.426,-42.918,146.574
7445,0.6943,0.1431,-0.7256,0.122,0.000,-1.282,168.420,-42.918,146.591
7455,0.6948,0.1392,-0.7246,0.061,0.244,-1.099,168.415,-42.918,146.602
7465,0.6953,0.1387,-0.7241,0.061,0.427,-0.793,168.415,-42.929,146.618
7475,0.6953,0.1372,-0.7246,0.061,0.549,-0.488,168.420,-42.935,146.624
7485,0.6948,0.1401,-0.7266,0.183,0.488,-0.122,168.426,-42.940,146.629
7495,0.6938,0.1431,-0.7275,0.305,0.427,0.183,168.437,-42.951,146.624
7505,0.6929,0.1465,-0.7261,0.488,0.305,0.427,168.442,-42.957,146.618
7515,0.6919,0.1484,-0.7295,0.549,0.183,0.366,168.453,-42.957,146.618
7525,0.6914,0.1504,-0.7310,0.488,0.122,0.244,168.459,-42.957,146.613
7535,0.6909,0.1509,-0.7305,0.244,0.122,-0.061,168.459,-42.957,146.613
7545,0.6890,0.1538,-0.7314,0.000,0.122,-0.305,168.453,-42.957,146.618
7555,0.6890,0.1548,-0.7285,-0.183,0.000,-0.549,168.442,-42.951,146.624
7565,0.6870,0.1553,-0.7285,-0.183,-0.305,-0.732,168.431,-42.946,146.635
7575,0.6855,0.1533,-0.7290,0.061,-0.549,-0.793,168.420,-42.935,146.646
7585,0.6885,0.1514,-0.7246,0.366,-0.793,-0.854,168.415,-42.924,146.651
7595,0.6904,0.1460,-0.7212,0.671,-0.854,-0.916,168.415,-42.918,146.662
7605,0.6924,0.1431,-0.7227,0.793,-0.610,-0.793,168.420,-42.913,146.673
7615,0.6953,0.1421,-0.7236,0.793,-0.061,-0.671,168.431,-42.913,146.684
7625,0.6973,0.1406,-0.7275,0.549,0.610,-0.488,168.437,-42.924,146.689
7635,0.6963,0.1401,-0.7271,0.122,0.854,-0.427,168.437,-42.935,146.695
7645,0.6978,0.1411,-0.7295,-0.366,0.732,-0.305,168.437,-42.946,146.706
7655,0.6958,0.1431,-0.7261,-0.793,0.244,-0.244,168.431,-42.951,146.706
7665,0.6943,0.1479,-0.7285,-0.916,-0.427,-0.122,168.420,-42.946,146.706
7675,0.6929,0.1494,-0.7271,-0.671,-0.916,0.000,168.415,-42.935,146.706
7685,0.6875,0.1509,-0.7251,-0.305,-1.099,0.183,168.415,-42.929,146.700
7695,0.6821,0.1514,-0.7231,0.183,-0.793,0.305,168.420,-42.918,146.695
7705,0.6802,0.1528,-0.7266,0.549,-0.244,0.305,168.426,-42.913,146.689
7715,0.6807,0.1523,-0.7275,0.549,0.366,0.000,168.426,-42.913,146.689
7725,0.6846,0.1538,-0.7285,0.305,0.732,-0.366,168.420,-42.913,146.695
7735,0.6899,0.1543,-0.7300,-0.122,0.854,-0.671,168.409,-42.918,146.706
7745,0.6909,0.1533,-0.7329,-0.427,0.610,-0.916,168.393,-42.924,146.722
7755,0.6924,0.1548,-0.7300,-0.488,0.183,-1.038,168.376,-42.918,146.739
7765,0.6943,0.1533,-0.7275,-0.244,-0.427,-1.099,168.360,-42.918,146.750
7775,0.6919,0.1514,-0.7285,0.122,-0.916,-0.977,168.354,-42.907,146.761
7785,0.6885,0.1499,-0.7285,0.610,-1.038,-0.793,168.354,-42.891,146.766
7795,0.6885,0.1470,-0.7236,0.916,-0.854,-0.671,168.360,-42.885,146.777
7805,0.6855,0.1465,-0.7217,1.038,-0.427,-0.610,168.365,-42.880,146.783
7815,0.6870,0.1450,-0.7217,0.977,-0.061,-0.671,168.376,-42.880,146.788
7825,0.6899,0.1440,-0.7236,0.671,0.305,-0.671,168.376,-42.885,146.799
7835,0.6924,0.1455,-0.7246,0.427,0.488,-0.671,168.376,-42.891,146.810
7845,0.6924,0.1489,-0.7266,0.366,0.488,-0.488,168.376,-42.896,146.821
7855,0.6924,0.1499,-0.7275,0.610,0.427,-0.305,168.376,-42.896,146.827
7865,0.6919,0.1499,-0.7285,0.916,0.183,-0.122,168.387,-42.902,146.827
7875,0.6929,0.1499,-0.7275,1.038,-0.122,0.061,168.398,-42.902,146.827
7885,0.6904,0.1499,-0.7275,0.977,-0.366,0.122,168.409,-42.896,146.821
7895,0.6865,0.1509,-0.7251,0.854,-0.366,0.061,168.415,-42.896,146.821
7905,0.6851,0.1494,-0.7271,0.610,-0.244,0.000,168.420,-42.891,146.821
7915,0.6880,0.1504,-0.7266,0.366,-0.061,-0.244,168.420,-42.885,146.821
7925,0.6865,0.1494,-0.7251,0.122,0.122,-0.488,168.420,-42.885,146.832
7935,0.6890,0.1494,-0.7261,-0.061,0.305,-0.549,168.409,-42.891,146.838
7945,0.6899,0.1489,-0.7251,0.000,0.427,-0.427,168.409,-42.896,146.843
7955,0.6909,0.1499,-0.7261,0.305,0.549,-0.244,168.404,-42.902,146.849
7965,0.6914,0.1489,-0.7256,0.793,0.549,-0.061,168.415,-42.907,146.854
7975,0.6919,0.1470,-0.7271,1.221,0.488,0.122,168.426,-42.913,146.854
7985,0.6924,0.1460,-0.7251,1.404,0.366,0.183,168.442,-42.918,146.849
7995,0.6934,0.1465,-0.7295,1.282,0.366,0.122,168.459,-42.924,146.849
8005,0.6973,0.1445,-0.7300,0.854,0.244,0.000,168.470,-42.929,146.849
8015,0.6948,0.1436,-0.7275,-0.061,0.000,-0.305,168.470,-42.929,146.854
8025,0.6958,0.1450,-0.7261,-0.427,-0.122,-0.305,168.464,-42.929,146.860
8035,0.6953,0.1450,-0.7241,-0.488,-0.244,-0.183,168.459,-42.929,146.860
8045,0.6929,0.1455,-0.7222,-0.366,-0.305,0.061,168.459,-42.929,146.860
8055,0.6924,0.1475,-0.7241,-0.183,-0.305,0.366,168.464,-42.929,146.854
8066,0.6919,0.1455,-0.7246,0.061,-0.244,0.610,168.470,-42.935,146.843
8075,0.6914,0.1436,-0.7275,0.122,-0.183,0.732,168.481,-42.935,146.832
8085,0.6929,0.1460,-0.7266,0.000,-0.122,0.732,168.492,-42.935,146.821
8095,0.6929,0.1504,-0.7266,-0.244,0.061,0.549,168.492,-42.940,146.816
8105,0.6909,0.1484,-0.7280,-0.427,0.244,0.366,168.492,-42.940,146.810
8115,0.6909,0.1499,-0.7310,-0.610,0.427,0.122,168.486,-42.946,146.810
8125,0.6880,0.1499,-0.7300,-0.671,0.488,-0.122,168.475,-42.946,146.816
8135,0.6855,0.1523,-0.7324,-0.610,0.427,-0.244,168.464,-42.946,146.821
8145,0.6826,0.1523,-0.7300,-0.549,0.305,-0.244,168.453,-42.946,146.821
8155,0.6807,0.1548,-0.7305,-0.244,0.183,-0.244,168.442,-42.940,146.827
8165,0.6851,0.1523,-0.7290,0.061,0.000,-0.305,168.437,-42.935,146.832
8175,0.6895,0.1475,-0.7280,0.183,-0.244,-0.366,168.437,-42.929,146.832
8185,0.6914,0.1494,-0.7295,0.061,-0.366,-0.427,168.437,-42.924,146.838
8195,0.6929,0.1475,-0.7266,0.000,-0.366,-0.366,168.431,-42.924,146.843
8205,0.6919,0.1450,-0.7256,0.122,-0.122,-0.305,168.437,-42.924,146.849
8215,0.6934,0.1421,-0.7266,0.183,0.122,-0.244,168.437,-42.924,146.849
8225,0.6948,0.1426,-0.7261,0.000,0.183,-0.183,168.442,-42.929,146.854
8235,0.6968,0.1421,-0.7275,-0.366,0.000,-0.061,168.442,-42.935,146.854
8245,0.6948,0.1431,-0.7266,-0.549,-0.305,0.244,168.442,-42.935,146.849
8255,0.6914,0.1465,-0.7295,-0.488,-0.427,0.427,168.448,-42.929,146.843
8265,0.6890,0.1470,-0.7275,0.000,-0.366,0.671,168.453,-42.929,146.832
8275,0.6880,0.1489,-0.7295,0.549,-0.122,0.793,168.464,-42.924,146.821
8285,0.6885,0.1494,-0.7290,0.732,0.122,0.916,168.481,-42.929,146.810
8295,0.6880,0.1523,-0.7314,0.610,0.366,0.793,168.492,-42.929,146.799
8305,0.6929,0.1504,-0.7314,0.183,0.366,0.549,168.497,-42.935,146.794
8315,0.6929,0.1509,-0.7314,-0.305,0.244,0.183,168.492,-42.935,146.794
8325,0.6938,0.1519,-0.7329,-0.671,-0.061,-0.122,168.486,-42.935,146.794
8335,0.6919,0.1509,-0.7319,-0.916,-0.549,-0.244,168.470,-42.924,146.794
8345,0.6890,0.1499,-0.7261,-0.854,-1.038,-0.183,168.464,-42.918,146.794
8355,0.6890,0.1489,-0.7222,-0.549,-1.343,0.061,168.459,-42.902,146.794
8365,0.6875,0.1475,-0.7192,-0.122,-1.282,0.305,168.464,-42.896,146.783
8375,0.6865,0.1484,-0.7192,0.366,-0.916,0.549,168.470,-42.891,146.772
8385,0.6870,0.1465,-0.7197,0.671,-0.244,0.732,168.486,-42.891,146.761
8395,0.6909,0.1479,-0.7207,0.549,0.366,0.732,168.497,-42.896,146.755
8405,0.6904,0.1509,-0.7256,0.427,0.916,0.610,168.503,-42.907,146.750
8415,0.6924,0.1514,-0.7251,0.183,1.282,0.488,168.503,-42.924,146.744
8425,0.6929,0.1519,-0.7275,0.061,1.282,0.305,168.503,-42.940,146.744
8435,0.6909,0.1504,-0.7271,-0.061,0.977,0.061,168.497,-42.946,146.750
8445,0.6914,0.1489,-0.7295,-0.183,0.610,-0.122,168.492,-42.951,146.750
8455,0.6904,0.1504,-0.7295,-0.366,0.000,-0.183,168.486,-42.951,146.755
8465,0.6904,0.1484,-0.7300,-0.488,-0.427,-0.244,168.481,-42.946,146.755
8475,0.6885,0.1489,-0.7266,-0.488,-0.610,-0.244,168.475,-42.940,146.755
8485,0.6870,0.1499,-0.7275,-0.305,-0.427,-0.183,168.470,-42.935,146.755
8495,0.6870,0.1504,-0.7266,0.061,0.000,0.061,168.470,-42.929,146.755
8505,0.6851,0.1499,-0.7261,0.244,0.366,0.183,168.470,-42.935,146.755
8515,0.6836,0.1504,-0.7256,0.305,0.610,0.122,168.470,-42.940,146.755
8525,0.6865,0.1499,-0.7246,0.183,0.610,0.122,168.470,-42.940,146.755
8535,0.6875,0.1489,-0.7271,0.000,0.549,0.000,168.470,-42.946,146.755
8545,0.6904,0.1479,-0.7256,-0.061,0.488,-0.061,168.470,-42.951,146.761
8555,0.6914,0.1479,-0.7271,0.061,0.549,0.000,168.464,-42.957,146.761
8566,0.6924,0.1470,-0.7280,0.305,0.610,0.061,168.470,-42.962,146.761
8575,0.6934,0.1465,-0.7290,0.488,0.610,0.183,168.475,-42.973,146.761
8585,0.6938,0.1465,-0.7300,0.610,0.549,0.305,168.486,-42.979,146.761
8595,0.6929,0.1470,-0.7280,0.549,0.488,0.366,168.497,-42.984,146.755
8605,0.6929,0.1479,-0.7280,0.305,0.305,0.305,168.503,-42.984,146.750
8615,0.6904,0.1455,-0.7275,0.000,0.061,0.183,168.503,-42.990,146.750
8625,0.6914,0.1489,-0.7241,-0.244,-0.244,0.061,168.503,-42.984,146.750
8635,0.6924,0.1494,-0.7241,-0.305,-0.427,0.061,168.497,-42.984,146.744
8645,0.6880,0.1479,-0.7246,0.000,-0.305,0.183,168.503,-42.979,146.744
8655,0.6880,0.1499,-0.7236,0.549,-0.061,0.366,168.508,-42.979,146.739
8665,0.6860,0.1470,-0.7261,1.038,0.366,0.610,168.525,-42.984,146.728
8675,0.6890,0.1460,-0.7251,1.221,0.671,0.671,168.541,-42.990,146.722
8685,0.6924,0.1455,-0.7285,1.099,0.793,0.549,168.558,-43.000,146.717
8695,0.6934,0.1465,-0.7280,0.732,0.793,0.488,168.569,-43.011,146.711
8705,0.6958,0.1455,-0.7280,0.366,0.671,0.427,168.574,-43.017,146.711
8715,0.6978,0.1465,-0.7271,0.122,0.427,0.488,168.580,-43.028,146.706
8725,0.6973,0.1460,-0.7275,0.244,0.000,0.488,168.585,-43.028,146.700
8735,0.6978,0.1465,-0.7280,0.305,-0.366,0.549,168.596,-43.028,146.689
8745,0.6968,0.1460,-0.7266,0.366,-0.610,0.671,168.607,-43.028,146.678
8755,0.6958,0.1445,-0.7256,0.366,-0.732,0.732,168.624,-43.022,146.667
8765,0.6929,0.1450,-0.7217,0.122,-0.732,0.671,168.629,-43.017,146.667
8775,0.6919,0.1436,-0.7207,-0.183,-0.671,0.488,168.635,-43.017,146.667
8785,0.6919,0.1416,-0.7202,-0.488,-0.610,0.305,168.635,-43.011,146.667
8795,0.6929,0.1431,-0.7212,-0.671,-0.366,0.122,168.635,-43.011,146.667
8805,0.6899,0.1440,-0.7231,-0.671,-0.061,0.122,168.629,-43.011,146.667
8815,0.6895,0.1465,-0.7275,-0.305,0.427,0.244,168.624,-43.017,146.667
8825,0.6870,0.1484,-0.7310,0.183,0.916,0.427,168.629,-43.022,146.667
8835,0.6880,0.1484,-0.7305,0.549,1.221,0.549,168.635,-43.033,146.667
8845,0.6880,0.1494,-0.7339,0.610,1.099,0.427,168.640,-43.039,146.667
8855,0.6924,0.1475,-0.7368,0.305,0.610,0.183,168.646,-43.044,146.667
8865,0.6948,0.1470,-0.7363,-0.366,-0.061,-0.244,168.640,-43.039,146.667
8875,0.6978,0.1465,-0.7310,-1.160,-0.732,-0.671,168.624,-43.033,146.667
8885,0.6982,0.1475,-0.7280,-1.831,-1.465,-0.977,168.602,-43.017,146.667
8895,0.6968,0.1475,-0.7246,-2.075,-2.014,-1.099,168.574,-43.000,146.678
8906,0.6943,0.1475,-0.7217,-1.770,-2.258,-0.916,168.552,-42.979,146.684
8916,0.6890,0.1504,-0.7173,-0.916,-1.953,-0.610,168.536,-42.962,146.684
8926,0.6841,0.1484,-0.7183,0.122,-1.282,-0.183,168.536,-42.946,146.684
8936,0.6816,0.1465,-0.7212,0.916,-0.366,0.000,168.547,-42.946,146.684
8946,0.6807,0.1465,-0.7246,1.343,0.610,0.061,168.558,-42.946,146.684
8956,0.6812,0.1479,-0.7271,1.282,1.343,0.000,168.569,-42.957,146.689
8966,0.6860,0.1479,-0.7305,0.854,1.709,-0.305,168.569,-42.968,146.695
8976,0.6938,0.1499,-0.7339,0.366,1.587,-0.427,168.563,-42.984,146.706
8986,0.6978,0.1519,-0.7373,0.000,1.038,-0.549,168.558,-42.990,146.717
8996,0.6997,0.1514,-0.7373,-0.061,0.183,-0.549,168.547,-42.990,146.722
9006,0.6992,0.1494,-0.7354,0.061,-0.916,-0.488,168.547,-42.979,146.728
9016,0.6948,0.1465,-0.7305,0.244,-1.770,-0.488,168.547,-42.962,146.728
9026,0.6929,0.1416,-0.7275,0.183,-2.258,-0.427,168.552,-42.940,146.728
9036,0.6865,0.1372,-0.7256,0.000,-2.197,-0.427,168.563,-42.918,146.728
9046,0.6826,0.1377,-0.7212,-0.183,-1.587,-0.366,168.569,-42.902,146.728
9056,0.6841,0.1396,-0.7212,-0.183,-0.732,-0.183,168.569,-42.896,146.733
9066,0.6875,0.1406,-0.7246,0.061,0.244,0.061,168.574,-42.896,146.728
9076,0.6943,0.1431,-0.7251,0.305,0.977,0.366,168.580,-42.913,146.728
9086,0.6968,0.1484,-0.7280,0.549,1.160,0.732,168.591,-42.929,146.722
9096,0.6973,0.1489,-0.7319,0.793,0.854,0.977,168.602,-42.940,146.711
9106,0.6934,0.1514,-0.7314,0.793,0.244,1.099,168.618,-42.940,146.695
9116,0.6890,0.1523,-0.7329,0.732,-0.366,0.977,168.629,-42.940,146.684
9126,0.6846,0.1509,-0.7290,0.488,-0.854,0.671,168.640,-42.929,146.673
9136,0.6807,0.1509,-0.7285,0.244,-0.916,0.305,168.646,-42.913,146.667
9146,0.6782,0.1523,-0.7256,-0.061,-0.610,-0.061,168.640,-42.902,146.662
9156,0.6777,0.1533,-0.7266,-0.183,0.061,-0.244,168.629,-42.896,146.667
9166,0.6816,0.1519,-0.7236,-0.122,0.732,-0.488,168.618,-42.902,146.678
9176,0.6855,0.1533,-0.7256,-0.061,1.221,-0.549,168.602,-42.913,146.684
9186,0.6890,0.1553,-0.7266,0.183,1.282,-0.427,168.591,-42.924,146.695
9196,0.6904,0.1528,-0.7261,0.549,1.221,-0.305,168.591,-42.935,146.706
9206,0.6890,0.1509,-0.7280,1.038,1.038,-0.122,168.591,-42.946,146.706
9216,0.6880,0.1465,-0.7261,1.404,0.854,0.000,168.607,-42.951,146.711
9226,0.6895,0.1431,-0.7246,1.465,0.732,0.000,168.624,-42.957,146.711
9236,0.6895,0.1387,-0.7275,1.160,0.732,0.061,168.640,-42.968,146.711
9246,0.6929,0.1401,-0.7275,0.793,0.977,0.183,168.651,-42.979,146.711
9256,0.6938,0.1387,-0.7256,0.549,1.282,0.305,168.662,-42.995,146.711
9266,0.6968,0.1387,-0.7285,0.549,1.404,0.549,168.673,-43.011,146.711
9276,0.7007,0.1367,-0.7275,0.671,1.282,0.854,168.695,-43.028,146.700
9286,0.7012,0.1377,-0.7261,0.610,0.854,1.160,168.712,-43.044,146.689
9296,0.7026,0.1348,-0.7271,0.366,0.305,1.282,168.739,-43.055,146.673
9306,0.7026,0.1318,-0.7251,-0.183,-0.244,1.404,168.755,-43.061,146.651
9316,0.7007,0.1299,-0.7236,-0.854,-0.610,1.404,168.772,-43.061,146.629
9326,0.6978,0.1318,-0.7217,-1.587,-0.732,1.465,168.783,-43.066,146.607
9336,0.6968,0.1353,-0.7207,-2.197,-0.610,1.709,168.783,-43.066,146.585
9346,0.6943,0.1396,-0.7222,-2.258,-0.244,2.136,168.783,-43.072,146.558
9356,0.6890,0.1426,-0.7227,-1.831,0.183,2.625,168.788,-43.077,146.519
9366,0.6885,0.1436,-0.7231,-1.099,0.671,2.991,168.805,-43.088,146.481
9376,0.6885,0.1436,-0.7246,-0.854,1.038,3.174,168.821,-43.105,146.442
9386,0.6914,0.1440,-0.7261,-1.221,1.160,3.174,168.838,-43.121,146.404
9396,0.6958,0.1484,-0.7256,-2.136,0.977,2.991,168.838,-43.138,146.365
9406,0.6963,0.1523,-0.7241,-2.991,0.671,2.808,168.821,-43.149,146.332
9416,0.6973,0.1533,-0.7246,-3.235,0.305,2.625,168.805,-43.160,146.294
9426,0.6924,0.1533,-0.7227,-3.174,0.000,2.441,168.788,-43.165,146.261
9436,0.6914,0.1519,-0.7212,-2.747,-0.244,2.380,168.777,-43.165,146.228
9446,0.6914,0.1499,-0.7202,-2.441,-0.244,2.441,168.772,-43.171,146.195
9456,0.6919,0.1514,-0.7173,-2.380,-0.061,2.319,168.761,-43.176,146.168
9466,0.6919,0.1504,-0.7153,-2.319,0.366,2.380,168.755,-43.187,146.135
9476,0.6909,0.1479,-0.7183,-1.953,0.916,2.319,168.750,-43.204,146.107
9486,0.6904,0.1484,-0.7222,-1.587,1.404,2.197,168.750,-43.220,146.080
9496,0.6919,0.1519,-0.7227,-1.282,1.831,2.136,168.745,-43.242,146.058
9506,0.6899,0.1538,-0.7231,-0.732,1.953,2.441,168.750,-43.259,146.030
9516,0.6899,0.1587,-0.7246,0.671,1.770,3.052,168.772,-43.281,145.992
9526,0.6948,0.1533,-0.7271,3.113,1.526,4.211,168.827,-43.303,145.937
9536,0.6953,0.1616,-0.7241,5.371,1.282,4.944,168.909,-43.325,145.876
9546,0.6978,0.1445,-0.7290,7.507,0.793,5.554,169.036,-43.341,145.805
9556,0.6938,0.1382,-0.7261,8.484,0.305,5.676,169.173,-43.352,145.728
9567,0.6938,0.1353,-0.7290,8.179,0.122,5.249,169.305,-43.363,145.657
9576,0.6948,0.1260,-0.7344,7.263,0.427,4.517,169.426,-43.369,145.596
9586,0.6958,0.1294,-0.7319,5.676,0.854,3.662,169.519,-43.380,145.547
9596,0.6982,0.1226,-0.7363,4.578,1.160,2.930,169.601,-43.396,145.514
9606,0.6973,0.1299,-0.7368,3.662,1.160,2.319,169.662,-43.407,145.486
9616,0.6968,0.1245,-0.7363,3.357,0.916,2.136,169.717,-43.418,145.459
9626,0.6987,0.1235,-0.7363,2.991,0.488,2.136,169.772,-43.423,145.432
9636,0.6934,0.1274,-0.7300,2.869,-0.122,2.136,169.827,-43.423,145.399
9646,0.6948,0.1245,-0.7271,3.235,-0.916,2.747,169.887,-43.418,145.360
9656,0.6934,0.1260,-0.7266,3.845,-1.282,3.174,169.964,-43.407,145.316
9666,0.6914,0.1279,-0.7246,4.700,-1.221,3.662,170.046,-43.401,145.261
9676,0.6909,0.1284,-0.7212,5.737,-0.732,4.089,170.140,-43.401,145.206
9686,0.6904,0.1343,-0.7236,6.531,-0.305,4.089,170.233,-43.401,145.151
9696,0.6958,0.1299,-0.7256,7.141,0.183,4.089,170.338,-43.407,145.091
9706,0.6973,0.1294,-0.7275,6.714,0.549,3.418,170.431,-43.418,145.047
9716,0.6992,0.1318,-0.7305,5.554,0.732,2.258,170.502,-43.429,145.020
9726,0.7036,0.1299,-0.7290,3.906,0.732,1.160,170.541,-43.440,145.003
9736,0.7075,0.1274,-0.7295,1.648,0.488,-0.305,170.552,-43.445,145.009
9746,0.7119,0.1255,-0.7290,-0.671,0.122,-2.014,170.519,-43.451,145.036
9756,0.7192,0.1216,-0.7310,-2.747,-0.427,-3.540,170.464,-43.445,145.085
9766,0.7192,0.1147,-0.7280,-4.456,-1.160,-4.517,170.381,-43.434,145.146
9776,0.7173,0.1099,-0.7217,-5.493,-1.770,-4.883,170.299,-43.423,145.206
9786,0.7100,0.1050,-0.7139,-5.920,-2.441,-4.639,170.211,-43.401,145.261
9796,0.7021,0.1064,-0.7114,-5.737,-2.808,-3.845,170.140,-43.374,145.311
9806,0.6953,0.1108,-0.7070,-5.005,-2.747,-2.502,170.079,-43.352,145.338
9816,0.6860,0.1172,-0.7046,-3.784,-2.136,-0.854,170.041,-43.336,145.344
9826,0.6807,0.1226,-0.7070,-2.319,-0.854,0.854,170.030,-43.330,145.327
9836,0.6787,0.1284,-0.7119,-0.793,0.732,2.197,170.035,-43.341,145.300
9846,0.6797,0.1333,-0.7183,0.427,2.258,3.052,170.063,-43.363,145.267
9856,0.6792,0.1396,-0.7275,1.038,3.479,3.296,170.085,-43.396,145.228
9866,0.6841,0.1494,-0.7334,1.343,4.028,3.235,170.107,-43.429,145.195
9876,0.6841,0.1567,-0.7373,2.563,3.784,3.235,170.134,-43.462,145.162
9886,0.6895,0.1504,-0.7383,4.822,2.869,3.723,170.195,-43.484,145.118
9896,0.6855,0.1499,-0.7441,6.897,1.709,3.479,170.277,-43.495,145.074
9906,0.6924,0.1431,-0.7427,8.179,0.183,3.052,170.376,-43.489,145.031
9916,0.6924,0.1362,-0.7407,8.423,-0.977,2.502,170.475,-43.478,144.998
9926,0.6934,0.1387,-0.7334,7.812,-1.709,1.709,170.557,-43.456,144.970
9936,0.6934,0.1338,-0.7285,7.141,-1.648,0.610,170.629,-43.440,144.959
9946,0.6943,0.1338,-0.7241,6.592,-1.099,-0.793,170.678,-43.423,144.965
9956,0.6953,0.1362,-0.7217,5.798,-0.366,-2.380,170.700,-43.418,144.998
9966,0.6924,0.1387,-0.7153,5.188,0.244,-3.418,170.700,-43.418,145.042
9976,0.6904,0.1426,-0.7114,4.883,0.854,-3.967,170.695,-43.418,145.102
9986,0.6875,0.1489,-0.7090,5.005,1.526,-4.333,170.673,-43.429,145.162
9996,0.6899,0.1499,-0.7119,6.104,2.136,-4.517,170.662,-43.440,145.228
10006,0.6924,0.1499,-0.7109,7.568,2.625,-4.456,170.667,-43.462,145.294
10016,0.6943,0.1450,-0.7168,8.911,2.991,-4.333,170.689,-43.484,145.360
10026,0.6963,0.1387,-0.7178,9.644,3.296,-4.395,170.722,-43.511,145.426
10036,0.7007,0.1338,-0.7183,9.705,3.540,-4.639,170.760,-43.544,145.497
10046,0.6987,0.1279,-0.7168,9.338,3.418,-5.066,170.788,-43.572,145.574
10056,0.7056,0.1196,-0.7202,8.728,3.296,-5.432,170.821,-43.599,145.657
10067,0.7085,0.1123,-0.7207,7.996,3.113,-5.676,170.843,-43.627,145.739
10076,0.7104,0.1060,-0.7222,7.324,3.113,-5.859,170.865,-43.654,145.827
10086,0.7100,0.1006,-0.7212,6.592,2.930,-5.859,170.881,-43.682,145.915
10096,0.7144,0.0942,-0.7192,5.798,2.747,-5.676,170.898,-43.704,145.997
10106,0.7114,0.0898,-0.7183,5.127,2.563,-5.371,170.914,-43.731,146.074
10116,0.7095,0.0854,-0.7222,4.883,2.380,-4.822,170.936,-43.753,146.146
10126,0.7085,0.0859,-0.7202,4.944,2.380,-4.150,170.969,-43.775,146.206
10136,0.7075,0.0845,-0.7227,5.249,2.563,-3.479,171.008,-43.797,146.261
10146,0.7070,0.0825,-0.7246,5.371,2.808,-2.808,171.057,-43.824,146.305
10156,0.7046,0.0825,-0.7251,4.944,2.991,-2.258,171.101,-43.852,146.343
10166,0.7051,0.0811,-0.7271,4.395,2.991,-1.587,171.151,-43.879,146.371
10176,0.7056,0.0864,-0.7280,3.967,3.235,-0.977,171.200,-43.912,146.393
10186,0.7051,0.0801,-0.7285,3.662,3.967,-0.122,171.255,-43.951,146.404
10196,0.7070,0.0732,-0.7300,3.540,4.578,0.183,171.315,-43.995,146.409
10206,0.7095,0.0674,-0.7314,2.930,4.883,0.000,171.370,-44.044,146.420
10216,0.7153,0.0625,-0.7358,1.648,4.395,-0.183,171.414,-44.088,146.431
10226,0.7217,0.0571,-0.7412,-0.244,3.235,-0.183,171.447,-44.121,146.442
10236,0.7236,0.0537,-0.7441,-2.502,1.831,0.122,171.464,-44.138,146.442
10246,0.7222,0.0542,-0.7393,-4.639,0.427,0.854,171.469,-44.143,146.431
10256,0.7168,0.0615,-0.7310,-6.165,-1.038,1.892,171.469,-44.138,146.404
10266,0.7080,0.0708,-0.7217,-6.958,-2.563,3.296,171.464,-44.121,146.354
10276,0.7031,0.0879,-0.7178,-6.653,-3.601,5.127,171.464,-44.094,146.272
10286,0.6909,0.1040,-0.7080,-5.432,-4.028,7.202,171.486,-44.061,146.168
10296,0.6855,0.1211,-0.7012,-3.540,-3.601,9.094,171.530,-44.039,146.036
10306,0.6777,0.1362,-0.6982,-1.587,-2.502,10.559,171.595,-44.028,145.882
10316,0.6753,0.1484,-0.6987,-0.122,-1.099,11.353,171.667,-44.028,145.728
10326,0.6753,0.1646,-0.6992,0.732,0.488,11.414,171.733,-44.039,145.569
10336,0.6753,0.1709,-0.6982,2.258,1.831,11.475,171.804,-44.066,145.415
10346,0.6772,0.1777,-0.7007,4.578,2.747,11.475,171.892,-44.099,145.261
10356,0.6836,0.1782,-0.7041,7.385,3.418,11.169,172.007,-44.143,145.113
10366,0.6885,0.1733,-0.7070,9.766,3.906,10.681,172.145,-44.187,144.976
10376,0.6938,0.1650,-0.7085,11.108,4.089,9.888,172.288,-44.236,144.849
10386,0.6987,0.1572,-0.7080,11.353,3.967,8.728,172.430,-44.280,144.734
10396,0.7051,0.1489,-0.7061,11.047,3.845,7.141,172.562,-44.330,144.641
10406,0.7085,0.1382,-0.7061,10.376,3.845,5.310,172.672,-44.374,144.575
10416,0.7119,0.1284,-0.7051,9.888,4.089,3.418,172.771,-44.423,144.536
10426,0.7124,0.1226,-0.7061,9.399,4.333,1.831,172.848,-44.473,144.520
10437,0.7148,0.1143,-0.7021,8.911,4.700,0.549,172.914,-44.528,144.520
10447,0.7134,0.1123,-0.6997,8.606,4.883,-0.183,172.974,-44.583,144.531
10457,0.7158,0.1055,-0.7036,8.972,5.127,-0.427,173.035,-44.637,144.542
10467,0.7139,0.1030,-0.7017,9.949,5.371,-0.244,173.112,-44.698,144.558
10477,0.7153,0.0937,-0.7036,11.658,5.554,0.305,173.216,-44.758,144.564
10487,0.7178,0.0806,-0.7075,13.428,5.676,1.160,173.359,-44.819,144.553
10497,0.7212,0.0645,-0.7124,14.771,5.859,2.075,173.535,-44.885,144.536
10507,0.7256,0.0537,-0.7144,15.198,6.042,2.869,173.727,-44.951,144.503
10517,0.7300,0.0410,-0.7187,15.198,5.981,3.357,173.930,-45.016,144.465
10527,0.7363,0.0273,-0.7222,14.587,5.981,3.540,174.144,-45.088,144.426
10537,0.7407,0.0156,-0.7290,13.184,5.676,3.296,174.348,-45.148,144.388
10547,0.7461,0.0044,-0.7310,11.047,4.883,2.869,174.534,-45.203,144.355
10557,0.7485,-0.0073,-0.7310,8.057,3.601,2.563,-179.423,-45.247,144.322
10567,0.7515,-0.0083,-0.7290,4.700,2.197,2.319,-179.352,-45.275,144.289
10577,0.7515,-0.0161,-0.7295,1.526,0.977,2.136,-179.308,-45.291,144.256
10587,0.7520,-0.0161,-0.7266,-1.526,-0.183,1.953,-179.297,-45.297,144.229
10597,0.7446,-0.0190,-0.7212,-4.150,-1.282,2.014,-179.313,-45.286,144.201
10607,0.7368,-0.0107,-0.7153,-6.470,-2.441,2.747,-179.346,-45.269,144.163
10617,0.7295,0.0000,-0.7085,-8.057,-2.991,4.028,-180.000,-45.247,144.108
10627,0.7207,0.0146,-0.7021,-8.545,-2.869,5.615,179.956,-45.220,144.025
10637,0.7153,0.0273,-0.7017,-8.118,-2.319,7.202,179.929,-45.203,143.926
10647,0.7061,0.0361,-0.6992,-6.653,-1.465,8.911,179.923,-45.187,143.800
10657,0.7051,0.0449,-0.7021,-4.944,-0.488,10.864,179.945,-45.181,143.646
10667,0.7036,0.0571,-0.7041,-3.296,0.488,12.390,179.989,-45.187,143.470
10677,0.7085,0.0605,-0.7090,-1.770,1.221,13.672,-179.940,-45.192,143.273
10687,0.7046,0.0684,-0.7144,-0.366,1.648,14.587,-179.857,-45.203,143.069
10697,0.7080,0.0742,-0.7178,0.916,1.465,15.259,-179.753,-45.209,142.850
10707,0.7104,0.0762,-0.7212,2.014,1.038,15.381,-179.643,-45.214,142.630
10717,0.7109,0.0781,-0.7222,2.380,0.610,15.015,-179.533,-45.209,142.421
10727,0.7129,0.0796,-0.7251,2.014,0.244,14.099,-179.440,-45.203,142.218
10737,0.7124,0.0815,-0.7256,1.038,-0.183,12.634,-179.374,-45.187,142.042
10747,0.7114,0.0854,-0.7236,-0.244,-0.549,10.803,-179.346,-45.176,141.888
10757,0.7144,0.0869,-0.7212,-1.282,-0.793,8.911,-179.341,-45.159,141.762
10767,0.7119,0.0889,-0.7197,-2.136,-0.854,6.897,-179.374,-45.143,141.663
10777,0.7129,0.0898,-0.7158,-2.747,-0.732,4.883,-179.429,-45.132,141.592
10787,0.7153,0.0869,-0.7144,-2.991,-0.732,3.235,-179.500,-45.121,141.548
10797,0.7173,0.0864,-0.7119,-2.991,-0.671,1.831,-179.588,-45.110,141.520
10807,0.7183,0.0845,-0.7095,-2.686,-0.793,0.793,-179.676,-45.104,141.509
10817,0.7222,0.0767,-0.7080,-2.197,-1.038,0.061,-179.764,-45.099,141.509
10827,0.7207,0.0703,-0.7051,-1.587,-1.221,-0.427,-179.846,-45.088,141.515
10837,0.7251,0.0640,-0.7061,-0.977,-1.282,-0.732,-179.912,-45.082,141.526
10847,0.7261,0.0591,-0.7061,-0.427,-1.160,-0.793,-179.973,-45.077,141.537
10857,0.7261,0.0562,-0.7021,0.122,-0.793,-0.916,179.973,-45.077,141.553
10867,0.7285,0.0503,-0.7061,0.549,-0.183,-1.099,179.923,-45.082,141.564
10877,0.7271,0.0488,-0.7085,0.732,0.305,-1.404,179.879,-45.093,141.586
10887,0.7280,0.0464,-0.7100,0.549,0.793,-1.892,179.830,-45.104,141.614
10897,0.7280,0.0474,-0.7148,-0.061,1.038,-2.563,179.769,-45.121,141.647
10907,0.7271,0.0464,-0.7134,-0.793,0.916,-3.174,179.692,-45.132,141.696
10917,0.7246,0.0498,-0.7168,-1.343,0.610,-3.540,179.610,-45.137,141.746
10927,0.7236,0.0518,-0.7114,-1.404,0.122,-3.723,179.522,-45.143,141.795
10937,0.7202,0.0508,-0.7173,-1.038,-0.366,-3.723,179.434,-45.137,141.850
10947,0.7173,0.0513,-0.7178,-0.549,-0.854,-3.662,179.357,-45.126,141.899
10957,0.7173,0.0493,-0.7163,-0.183,-1.099,-3.540,179.291,-45.115,141.954
10967,0.7148,0.0464,-0.7163,-0.061,-1.282,-3.418,179.225,-45.099,141.998
10977,0.7163,0.0464,-0.7144,-0.183,-1.282,-3.357,179.160,-45.088,142.048
10987,0.7178,0.0449,-0.7139,-0.427,-1.099,-3.418,179.094,-45.077,142.097
10997,0.7158,0.0464,-0.7134,-0.732,-0.977,-3.418,179.028,-45.066,142.141
11007,0.7153,0.0488,-0.7104,-0.977,-0.916,-3.357,178.951,-45.055,142.191
11017,0.7148,0.0527,-0.7104,-1.038,-0.916,-3.235,178.879,-45.044,142.234
11027,0.7144,0.0532,-0.7124,-0.854,-0.793,-2.869,178.813,-45.038,142.278
11037,0.7134,0.0552,-0.7119,-0.610,-0.732,-2.563,178.748,-45.027,142.311
11047,0.7173,0.0557,-0.7144,-0.244,-0.671,-2.258,178.693,-45.022,142.344
11057,0.7207,0.0518,-0.7124,-0.183,-0.610,-2.197,178.638,-45.016,142.377
11068,0.7217,0.0527,-0.7158,-0.488,-0.732,-2.258,178.583,-45.011,142.405
11077,0.7241,0.0552,-0.7168,-1.160,-0.793,-2.502,178.517,-45.005,142.443
11087,0.7222,0.0552,-0.7129,-1.892,-1.038,-2.747,178.440,-44.995,142.482
11097,0.7197,0.0537,-0.7129,-2.380,-1.282,-2.869,178.363,-44.984,142.520
11107,0.7173,0.0591,-0.7090,-2.808,-1.465,-3.113,178.275,-44.973,142.564
11117,0.7148,0.0625,-0.7114,-2.808,-1.404,-2.991,178.182,-44.956,142.608
11127,0.7100,0.0635,-0.7075,-2.380,-1.221,-2.502,178.105,-44.945,142.641
11137,0.7119,0.0654,-0.7075,-1.587,-1.038,-1.953,178.033,-44.934,142.668
11147,0.7129,0.0645,-0.7104,-0.671,-0.610,-1.709,177.979,-44.929,142.690
11157,0.7129,0.0620,-0.7124,-0.061,-0.183,-1.648,177.935,-44.929,142.712
11167,0.7158,0.0615,-0.7158,0.061,0.000,-1.587,177.891,-44.929,142.740
11177,0.7139,0.0586,-0.7153,-0.305,-0.061,-1.587,177.847,-44.923,142.762
11187,0.7134,0.0630,-0.7129,-0.671,-0.244,-1.709,177.792,-44.923,142.784
11202,0.7148,0.0620,-0.7148,-0.854,-0.427,-1.770,177.737,-44.918,142.806
11207,0.7134,0.0635,-0.7153,-0.854,-0.610,-1.831,177.682,-44.907,142.833
11217,0.7129,0.0596,-0.7148,-0.977,-0.793,-1.770,177.632,-44.901,142.861
11227,0.7144,0.0649,-0.7148,-1.526,-0.854,-2.014,177.572,-44.890,142.888
11237,0.7153,0.0664,-0.7134,-2.075,-1.038,-2.075,177.501,-44.879,142.916
11247,0.7129,0.0664,-0.7104,-2.075,-1.099,-1.892,177.435,-44.868,142.943
11257,0.7109,0.0693,-0.7090,-1.648,-1.099,-1.526,177.374,-44.857,142.960
11267,0.7095,0.0703,-0.7070,-0.916,-0.977,-1.099,177.325,-44.852,142.976
11277,0.7085,0.0684,-0.7070,-0.244,-0.854,-0.671,177.286,-44.841,142.987
11287,0.7070,0.0684,-0.7075,0.183,-0.549,-0.305,177.253,-44.835,142.987
11297,0.7070,0.0703,-0.7075,0.183,-0.183,0.000,177.226,-44.835,142.987
11307,0.7109,0.0713,-0.7104,0.244,0.427,0.122,177.204,-44.841,142.987
11317,0.7144,0.0708,-0.7148,0.305,0.793,0.000,177.177,-44.846,142.987
11327,0.7129,0.0698,-0.7163,0.427,0.977,-0.122,177.149,-44.857,142.993
11337,0.7168,0.0703,-0.7158,0.244,0.854,-0.305,177.122,-44.863,142.998
11347,0.7168,0.0728,-0.7148,0.061,0.488,-0.427,177.089,-44.868,143.004
11357,0.7148,0.0718,-0.7153,0.061,0.122,-0.427,177.056,-44.868,143.009
11367,0.7129,0.0728,-0.7134,0.244,-0.183,-0.488,177.028,-44.868,143.015
11377,0.7109,0.0718,-0.7119,0.366,-0.366,-0.488,176.995,-44.863,143.020
11387,0.7114,0.0708,-0.7100,0.671,-0.488,-0.427,176.973,-44.863,143.026
11397,0.7129,0.0698,-0.7104,0.854,-0.305,-0.305,176.951,-44.857,143.031
11407,0.7124,0.0698,-0.7085,0.916,0.061,-0.366,176.935,-44.863,143.036
11417,0.7163,0.0674,-0.7090,0.854,0.488,-0.427,176.913,-44.868,143.042
11427,0.7183,0.0649,-0.7119,0.732,0.610,-0.488,176.896,-44.874,143.053
11437,0.7192,0.0620,-0.7148,0.610,0.610,-0.488,176.874,-44.885,143.058
11447,0.7173,0.0591,-0.7163,0.488,0.488,-0.488,176.858,-44.890,143.064
11457,0.7173,0.0596,-0.7144,0.427,0.366,-0.366,176.847,-44.896,143.069
11467,0.7144,0.0601,-0.7129,0.366,0.305,-0.122,176.830,-44.896,143.075
11477,0.7129,0.0615,-0.7119,0.366,0.244,0.122,176.819,-44.901,143.069
11487,0.7119,0.0630,-0.7124,0.427,0.122,0.427,176.808,-44.901,143.064
11497,0.7124,0.0659,-0.7129,0.610,0.183,0.610,176.797,-44.907,143.058
11507,0.7134,0.0659,-0.7114,0.854,0.244,0.793,176.792,-44.907,143.047
11517,0.7124,0.0654,-0.7158,0.977,0.305,0.854,176.792,-44.912,143.031
11527,0.7158,0.0664,-0.7163,0.854,0.366,0.671,176.786,-44.912,143.026
11537,0.7148,0.0659,-0.7168,0.427,0.366,0.427,176.770,-44.918,143.020
11547,0.7168,0.0649,-0.7148,-0.061,0.366,0.122,176.754,-44.918,143.020
11557,0.7163,0.0674,-0.7153,-0.427,0.244,-0.183,176.726,-44.923,143.020
11568,0.7158,0.0693,-0.7158,-0.549,0.122,-0.366,176.693,-44.923,143.026
11577,0.7163,0.0679,-0.7153,-0.549,0.122,-0.488,176.660,-44.923,143.031
11587,0.7148,0.0664,-0.7129,-0.427,0.061,-0.549,176.633,-44.923,143.042
11597,0.7148,0.0693,-0.7134,-0.305,0.000,-0.549,176.605,-44.923,143.047
11607,0.7144,0.0688,-0.7104,-0.183,-0.061,-0.427,176.578,-44.923,143.053
11617,0.7148,0.0679,-0.7095,0.061,-0.061,-0.305,176.550,-44.923,143.058
11627,0.7144,0.0684,-0.7095,0.549,0.122,-0.061,176.534,-44.929,143.058
11637,0.7144,0.0669,-0.7124,0.916,0.305,0.061,176.528,-44.934,143.058
11647,0.7148,0.0674,-0.7100,1.160,0.427,0.122,176.517,-44.940,143.058
11657,0.7173,0.0664,-0.7119,1.160,0.549,0.305,176.517,-44.945,143.053
11667,0.7168,0.0649,-0.7114,1.099,0.671,0.305,176.512,-44.951,143.047
11677,0.7173,0.0635,-0.7144,0.916,0.793,0.183,176.506,-44.962,143.047
11687,0.7178,0.0669,-0.7139,0.610,0.732,0.000,176.495,-44.973,143.047
11697,0.7202,0.0664,-0.7129,0.488,0.610,-0.122,176.479,-44.978,143.053
11707,0.7192,0.0654,-0.7139,0.427,0.427,-0.244,176.462,-44.984,143.053
11717,0.7192,0.0630,-0.7129,0.488,0.305,-0.305,176.451,-44.989,143.058
11727,0.7217,0.0620,-0.7139,0.488,0.183,-0.366,176.435,-44.995,143.064
11737,0.7217,0.0581,-0.7144,0.427,0.061,-0.366,176.424,-44.995,143.069
11747,0.7183,0.0586,-0.7129,0.305,-0.061,-0.366,176.413,-44.995,143.075
11757,0.7173,0.0581,-0.7119,0.122,-0.122,-0.244,176.402,-44.995,143.080
11767,0.7187,0.0581,-0.7124,0.061,-0.183,-0.061,176.391,-44.995,143.080
11777,0.7168,0.0596,-0.7119,0.061,-0.183,0.122,176.380,-44.995,143.075
11787,0.7178,0.0591,-0.7109,0.122,-0.183,0.366,176.375,-44.995,143.069
11797,0.7178,0.0601,-0.7090,0.183,-0.183,0.549,176.369,-44.995,143.064
11807,0.7168,0.0645,-0.7104,0.183,-0.183,0.793,176.364,-44.995,143.053
11817,0.7163,0.0645,-0.7085,0.183,-0.061,0.916,176.358,-45.000,143.036
11828,0.7168,0.0674,-0.7100,0.183,0.183,0.854,176.353,-45.000,143.026
11838,0.7153,0.0688,-0.7114,0.061,0.427,0.671,176.342,-45.005,143.020
11848,0.7153,0.0659,-0.7129,-0.122,0.549,0.427,176.325,-45.011,143.015
11858,0.7114,0.0659,-0.7124,-0.427,0.549,0.183,176.309,-45.016,143.009
11868,0.7129,0.0679,-0.7139,-0.732,0.488,0.000,176.281,-45.022,143.009
11878,0.7148,0.0698,-0.7148,-0.732,0.427,0.122,176.259,-45.022,143.009
11888,0.7158,0.0703,-0.7144,-0.305,0.305,0.183,176.237,-45.022,143.009
11898,0.7139,0.0703,-0.7139,0.183,0.061,0.183,176.221,-45.022,143.004
11908,0.7124,0.0684,-0.7144,0.671,-0.122,0.244,176.215,-45.022,143.004
11918,0.7129,0.0674,-0.7129,0.793,-0.305,0.244,176.210,-45.016,142.998
11928,0.7139,0.0679,-0.7134,0.671,-0.244,0.244,176.204,-45.011,142.993
11938,0.7163,0.0664,-0.7129,0.671,-0.061,0.183,176.193,-45.011,142.993
11948,0.7173,0.0669,-0.7124,0.671,0.061,0.000,176.188,-45.016,142.993
11958,0.7173,0.0654,-0.7109,0.549,0.183,-0.244,176.177,-45.016,142.993
11968,0.7183,0.0635,-0.7100,0.366,0.244,-0.427,176.160,-45.022,143.004
11978,0.7192,0.0640,-0.7095,0.183,0.244,-0.549,176.144,-45.027,143.009
11988,0.7202,0.0654,-0.7109,0.122,0.183,-0.610,176.127,-45.027,143.020
11998,0.7187,0.0649,-0.7134,0.183,0.122,-0.549,176.105,-45.033,143.026
12008,0.7173,0.0635,-0.7158,0.427,0.061,-0.427,176.094,-45.033,143.031
12018,0.7178,0.0630,-0.7134,0.793,-0.061,-0.183,176.089,-45.033,143.036
12028,0.7183,0.0596,-0.7129,1.038,-0.061,-0.061,176.094,-45.033,143.036
12038,0.7197,0.0601,-0.7124,0.977,-0.061,0.061,176.094,-45.033,143.036
12048,0.7183,0.0596,-0.7144,0.793,0.000,0.061,176.094,-45.033,143.031
12058,0.7197,0.0591,-0.7148,0.610,0.122,0.000,176.089,-45.033,143.031
12068,0.7202,0.0601,-0.7153,0.427,0.122,-0.061,176.083,-45.038,143.036
12078,0.7202,0.0591,-0.7144,0.366,0.122,-0.183,176.078,-45.038,143.036
12088,0.7178,0.0591,-0.7144,0.183,0.000,-0.244,176.072,-45.038,143.042
12098,0.7168,0.0596,-0.7144,-0.122,-0.122,-0.244,176.056,-45.038,143.042
12108,0.7153,0.0596,-0.7109,-0.488,-0.244,-0.244,176.045,-45.033,143.047
12118,0.7124,0.0635,-0.7109,-0.732,-0.366,-0.183,176.023,-45.027,143.047
12128,0.7100,0.0659,-0.7134,-0.732,-0.366,-0.061,176.001,-45.022,143.047
12138,0.7109,0.0664,-0.7124,-0.488,-0.305,0.183,175.984,-45.016,143.047
12148,0.7109,0.0723,-0.7104,0.000,-0.122,0.366,175.974,-45.016,143.042
12158,0.7095,0.0728,-0.7080,0.549,0.000,0.549,175.963,-45.016,143.036
12168,0.7139,0.0684,-0.7090,0.916,0.122,0.610,175.963,-45.016,143.026
12178,0.7153,0.0693,-0.7134,1.099,0.305,0.549,175.963,-45.022,143.020
12188,0.7183,0.0679,-0.7144,0.977,0.366,0.244,175.963,-45.022,143.015
12198,0.7168,0.0684,-0.7134,0.610,0.366,-0.183,175.952,-45.027,143.020
12208,0.7173,0.0630,-0.7134,0.244,0.305,-0.488,175.941,-45.033,143.026
12218,0.7187,0.0654,-0.7139,-0.061,0.244,-0.977,175.919,-45.033,143.036
12228,0.7183,0.0659,-0.7144,-0.366,0.061,-1.282,175.891,-45.033,143.058
12238,0.7178,0.0630,-0.7139,-0.488,-0.183,-1.343,175.864,-45.033,143.075
12248,0.7192,0.0630,-0.7139,-0.305,-0.305,-1.221,175.836,-45.027,143.091
12258,0.7158,0.0610,-0.7085,-0.061,-0.427,-1.038,175.820,-45.022,143.108
12268,0.7163,0.0566,-0.7100,0.183,-0.488,-0.671,175.809,-45.022,143.119
12278,0.7148,0.0566,-0.7095,0.427,-0.427,-0.305,175.809,-45.016,143.119
12288,0.7153,0.0581,-0.7100,0.549,-0.244,0.000,175.809,-45.016,143.119
12298,0.7144,0.0586,-0.7119,0.549,0.000,0.244,175.814,-45.016,143.119
12308,0.7144,0.0605,-0.7119,0.488,0.244,0.305,175.814,-45.016,143.113
12318,0.7153,0.0615,-0.7134,0.305,0.488,0.305,175.814,-45.022,143.108
12328,0.7163,0.0645,-0.7139,0.000,0.549,0.244,175.803,-45.027,143.108
12338,0.7139,0.0679,-0.7144,-0.244,0.549,0.183,175.792,-45.033,143.102
12348,0.7148,0.0698,-0.7153,-0.305,0.427,0.122,175.776,-45.033,143.102
12358,0.7134,0.0679,-0.7158,-0.183,0.244,0.061,175.759,-45.033,143.102
12368,0.7158,0.0698,-0.7134,-0.061,0.000,0.000,175.748,-45.033,143.102
12378,0.7158,0.0684,-0.7158,0.061,-0.183,-0.122,175.737,-45.033,143.102
12388,0.7153,0.0679,-0.7163,0.000,-0.305,-0.305,175.721,-45.027,143.108
12398,0.7148,0.0684,-0.7124,-0.183,-0.366,-0.488,175.704,-45.022,143.113
12408,0.7144,0.0669,-0.7100,-0.244,-0.366,-0.610,175.682,-45.016,143.124
12418,0.7144,0.0684,-0.7100,-0.183,-0.305,-0.610,175.666,-45.016,143.130
12428,0.7124,0.0659,-0.7080,0.061,-0.183,-0.549,175.649,-45.011,143.135
12438,0.7139,0.0659,-0.7095,0.305,0.000,-0.488,175.638,-45.011,143.146
12448,0.7139,0.0664,-0.7095,0.488,0.122,-0.305,175.627,-45.016,143.152
12458,0.7139,0.0654,-0.7109,0.671,0.305,-0.061,175.627,-45.016,143.152
12468,0.7173,0.0640,-0.7129,0.793,0.366,0.061,175.627,-45.022,143.152
12478,0.7163,0.0635,-0.7134,0.854,0.488,0.122,175.627,-45.027,143.146
12488,0.7217,0.0649,-0.7139,0.916,0.610,0.000,175.627,-45.033,143.152
12498,0.7217,0.0610,-0.7139,0.793,0.549,-0.244,175.627,-45.044,143.152
12508,0.7231,0.0581,-0.7158,0.488,0.244,-0.427,175.627,-45.044,143.157
12518,0.7197,0.0586,-0.7134,-0.061,-0.061,-0.671,175.616,-45.044,143.168
12528,0.7173,0.0605,-0.7134,-0.549,-0.366,-0.793,175.600,-45.044,143.179
12538,0.7144,0.0610,-0.7129,-0.793,-0.610,-0.671,175.578,-45.033,143.190
12548,0.7090,0.0664,-0.7070,-0.061,-0.671,0.061,175.573,-45.027,143.185
12558,0.7095,0.0659,-0.7065,0.671,-0.366,0.549,175.573,-45.022,143.179
12569,0.7070,0.0649,-0.7095,1.221,0.000,0.916,175.589,-45.022,143.168
12578,0.7114,0.0654,-0.7104,1.343,0.366,1.038,175.600,-45.027,143.152
12588,0.7153,0.0664,-0.7148,1.221,0.732,1.038,175.616,-45.033,143.135
12598,0.7168,0.0649,-0.7183,0.732,0.977,0.671,175.622,-45.038,143.130
12608,0.7207,0.0679,-0.7178,0.244,0.977,0.183,175.611,-45.049,143.130
12618,0.7202,0.0679,-0.7173,-0.244,0.732,-0.244,175.600,-45.055,143.130
12628,0.7178,0.0693,-0.7158,-0.610,0.305,-0.549,175.573,-45.060,143.141
12638,0.7163,0.0698,-0.7134,-0.793,-0.122,-0.671,175.551,-45.055,143.152
12648,0.7178,0.0674,-0.7100,-0.549,-0.488,-0.671,175.529,-45.049,143.157
12658,0.7183,0.0674,-0.7134,-0.061,-0.671,-0.610,175.512,-45.044,143.168
12668,0.7183,0.0610,-0.7119,0.427,-0.732,-0.549,175.507,-45.038,143.174
12678,0.7183,0.0605,-0.7104,0.610,-0.549,-0.610,175.501,-45.033,143.179
12688,0.7173,0.0566,-0.7109,0.366,-0.305,-0.610,175.501,-45.033,143.190
12698,0.7148,0.0581,-0.7124,0.000,-0.061,-0.610,175.496,-45.033,143.196
12708,0.7134,0.0591,-0.7109,-0.244,0.244,-0.549,175.485,-45.033,143.207
12718,0.7139,0.0610,-0.7129,-0.305,0.427,-0.427,175.474,-45.038,143.212
12728,0.7144,0.0615,-0.7134,-0.244,0.610,-0.305,175.463,-45.038,143.218
12738,0.7148,0.0649,-0.7129,-0.061,0.549,0.000,175.452,-45.044,143.218
12748,0.7148,0.0669,-0.7153,0.122,0.427,0.183,175.446,-45.049,143.218
12758,0.7148,0.0674,-0.7183,0.305,0.244,0.366,175.446,-45.049,143.212
12768,0.7178,0.0669,-0.7163,0.427,0.061,0.366,175.446,-45.049,143.207
12778,0.7187,0.0645,-0.7178,0.427,-0.183,0.244,175.446,-45.044,143.201
12788,0.7187,0.0669,-0.7183,0.244,-0.366,0.000,175.441,-45.038,143.201
12798,0.7192,0.0659,-0.7134,-0.183,-0.549,-0.305,175.430,-45.033,143.207
12808,0.7163,0.0659,-0.7090,-0.366,-0.671,-0.427,175.419,-45.027,143.212
12818,0.7158,0.0684,-0.7085,-0.427,-0.671,-0.549,175.397,-45.022,143.218
12828,0.7158,0.0674,-0.7090,-0.244,-0.549,-0.549,175.380,-45.022,143.223
12838,0.7173,0.0664,-0.7104,0.061,-0.366,-0.427,175.369,-45.016,143.229
12848,0.7183,0.0649,-0.7095,0.427,-0.122,-0.305,175.369,-45.016,143.234
12858,0.7163,0.0645,-0.7100,0.488,0.000,-0.183,175.364,-45.016,143.240
12868,0.7163,0.0645,-0.7114,0.427,0.122,-0.244,175.358,-45.022,143.240
12878,0.7158,0.0674,-0.7153,0.122,0.244,-0.366,175.353,-45.022,143.245
12888,0.7129,0.0674,-0.7124,-0.122,0.366,-0.427,175.336,-45.022,143.251
12898,0.7144,0.0684,-0.7153,-0.244,0.427,-0.488,175.320,-45.027,143.262
12908,0.7144,0.0674,-0.7134,-0.122,0.488,-0.488,175.309,-45.027,143.267
12918,0.7129,0.0684,-0.7134,-0.061,0.488,-0.427,175.292,-45.033,143.273
12928,0.7153,0.0688,-0.7144,0.244,0.366,-0.305,175.287,-45.033,143.278
12938,0.7139,0.0684,-0.7173,0.488,0.183,-0.122,175.281,-45.033,143.284
12948,0.7139,0.0659,-0.7144,0.671,-0.061,-0.061,175.281,-45.033,143.284
12958,0.7158,0.0654,-0.7129,0.732,-0.183,-0.122,175.281,-45.027,143.284
12968,0.7192,0.0620,-0.7139,0.610,-0.244,-0.305,175.287,-45.027,143.289
12978,0.7207,0.0601,-0.7144,0.305,-0.305,-0.488,175.281,-45.022,143.295
12988,0.7217,0.0601,-0.7134,-0.244,-0.305,-0.732,175.270,-45.022,143.306
12998,0.7192,0.0620,-0.7100,-0.793,-0.244,-0.854,175.254,-45.022,143.317
13008,0.7192,0.0640,-0.7070,-1.160,-0.244,-0.854,175.226,-45.022,143.328
13018,0.7173,0.0674,-0.7075,-0.977,-0.183,-0.671,175.204,-45.022,143.339
13028,0.7139,0.0708,-0.7041,-0.610,-0.122,-0.366,175.188,-45.022,143.344
13038,0.7109,0.0723,-0.7051,0.000,0.000,0.061,175.177,-45.027,143.339
13048,0.7100,0.0708,-0.7085,0.549,0.183,0.366,175.177,-45.027,143.339
13058,0.7109,0.0698,-0.7085,0.732,0.366,0.427,175.182,-45.027,143.333
13069,0.7163,0.0679,-0.7080,0.305,0.610,0.305,175.177,-45.038,143.328
13078,0.7202,0.0703,-0.7085,-0.488,0.671,0.061,175.166,-45.049,143.328
13088,0.7236,0.0664,-0.7104,-1.282,0.549,-0.122,175.144,-45.055,143.328
13098,0.7212,0.0601,-0.7139,-1.892,0.305,-0.549,175.122,-45.060,143.339
13108,0.7236,0.0601,-0.7134,-2.441,0.244,-0.793,175.089,-45.066,143.350
13119,0.7251,0.0576,-0.7153,-2.686,0.061,-0.671,175.062,-45.066,143.361
13129,0.7256,0.0552,-0.7178,-2.625,-0.122,-0.366,175.034,-45.066,143.361
13139,0.7275,0.0566,-0.7144,-2.380,-0.305,-0.061,175.018,-45.066,143.366
13149,0.7261,0.0576,-0.7168,-1.648,-0.427,0.183,175.007,-45.066,143.361
13159,0.7231,0.0586,-0.7178,-1.038,-0.427,0.305,175.001,-45.060,143.355
13169,0.7236,0.0596,-0.7163,-0.610,-0.366,0.244,175.001,-45.060,143.350
13179,0.7222,0.0615,-0.7187,-0.610,-0.305,0.000,174.996,-45.060,143.350
13189,0.7202,0.0620,-0.7197,-0.916,-0.183,-0.427,174.985,-45.055,143.355
13203,0.7183,0.0640,-0.7227,-1.404,-0.122,-0.977,174.963,-45.049,143.372
13209,0.7163,0.0679,-0.7217,-2.014,-0.305,-1.465,174.924,-45.038,143.394
13219,0.7134,0.0728,-0.7187,-2.747,-0.732,-1.770,174.875,-45.027,143.416
13229,0.7124,0.0771,-0.7153,-2.991,-1.221,-1.892,174.814,-45.011,143.443
13239,0.7114,0.0801,-0.7139,-2.747,-1.587,-1.831,174.760,-44.989,143.465
13248,0.7095,0.0815,-0.7129,-1.953,-1.770,-1.770,174.710,-44.967,143.487
13258,0.7070,0.0850,-0.7124,-0.977,-1.770,-1.709,174.672,-44.945,143.509
13268,0.7051,0.0815,-0.7129,-0.183,-1.587,-1.648,174.644,-44.923,143.531
13278,0.7041,0.0806,-0.7153,0.366,-1.160,-1.709,174.622,-44.907,143.553
13288,0.7061,0.0801,-0.7187,0.610,-0.488,-1.892,174.600,-44.896,143.580
13298,0.7085,0.0786,-0.7212,0.671,0.122,-2.258,174.573,-44.890,143.608
13308,0.7119,0.0786,-0.7207,0.793,0.427,-2.625,174.545,-44.885,143.646
13318,0.7124,0.0820,-0.7207,0.854,0.366,-2.869,174.518,-44.885,143.690
13328,0.7119,0.0791,-0.7227,0.977,0.122,-3.174,174.490,-44.874,143.734
13338,0.7134,0.0747,-0.7187,0.061,-0.305,-4.150,174.441,-44.868,143.789
13348,0.7144,0.0771,-0.7207,-2.014,-0.977,-5.554,174.364,-44.852,143.866
13358,0.7139,0.0757,-0.7144,-4.089,-1.892,-6.287,174.260,-44.824,143.954
13368,0.7197,0.0767,-0.7100,-5.798,-2.380,-6.592,174.139,-44.797,144.042
13378,0.7183,0.0762,-0.7041,-6.531,-2.441,-6.714,174.007,-44.775,144.135
13389,0.7217,0.0693,-0.7036,-6.287,-2.197,-6.470,173.886,-44.753,144.223
13399,0.7178,0.0698,-0.6968,-5.920,-2.075,-5.859,173.776,-44.736,144.300
13409,0.7163,0.0693,-0.6953,-5.493,-1.770,-4.639,173.683,-44.725,144.360
13418,0.7148,0.0732,-0.6924,-5.005,-1.465,-3.174,173.606,-44.714,144.404
13429,0.7114,0.0796,-0.6919,-3.662,-0.916,-1.526,173.557,-44.714,144.421
13439,0.7104,0.0815,-0.6968,-1.282,-0.183,0.183,173.540,-44.720,144.421
13449,0.7114,0.0830,-0.7017,1.038,0.732,1.648,173.568,-44.736,144.399
13459,0.7124,0.0796,-0.7075,2.563,1.465,2.625,173.617,-44.753,144.366
13469,0.7129,0.0796,-0.7134,2.686,2.014,2.991,173.666,-44.780,144.327
13479,0.7139,0.0850,-0.7212,1.770,2.380,2.808,173.705,-44.802,144.289
13488,0.7148,0.0894,-0.7227,0.488,2.258,2.258,173.721,-44.824,144.261
13498,0.7134,0.0942,-0.7227,-0.488,1.770,1.465,173.721,-44.841,144.245
13509,0.7109,0.0972,-0.7227,-0.977,0.977,0.793,173.705,-44.841,144.234
13519,0.7065,0.1030,-0.7187,-0.977,0.122,0.305,173.677,-44.841,144.229
13529,0.7041,0.1030,-0.7192,-0.610,-0.610,0.061,173.655,-44.824,144.229
13539,0.7012,0.1030,-0.7144,0.000,-1.038,-0.061,173.639,-44.808,144.229
13549,0.7002,0.1016,-0.7144,0.793,-0.977,-0.244,173.628,-44.791,144.229
13559,0.7041,0.0991,-0.7139,1.587,-0.732,-0.427,173.622,-44.780,144.234
13569,0.7061,0.0928,-0.7104,2.075,-0.122,-0.793,173.622,-44.775,144.245
13579,0.7080,0.0889,-0.7104,2.197,0.610,-1.282,173.628,-44.780,144.267
13589,0.7100,0.0854,-0.7109,1.953,1.221,-1.770,173.622,-44.791,144.289
13599,0.7134,0.0869,-0.7139,1.648,1.587,-2.258,173.606,-44.802,144.327
13609,0.7144,0.0859,-0.7124,1.343,1.648,-2.502,173.589,-44.819,144.360
13619,0.7163,0.0850,-0.7119,1.343,1.465,-2.441,173.573,-44.830,144.399
13629,0.7187,0.0825,-0.7134,1.526,1.099,-2.197,173.568,-44.841,144.432
13639,0.7212,0.0801,-0.7134,1.831,0.732,-2.014,173.562,-44.852,144.459
13649,0.7212,0.0752,-0.7139,1.953,0.427,-1.770,173.568,-44.852,144.487
13659,0.7212,0.0698,-0.7158,1.831,0.061,-1.587,173.578,-44.857,144.509
13669,0.7192,0.0684,-0.7129,1.404,-0.122,-1.465,173.589,-44.857,144.531
13679,0.7207,0.0688,-0.7080,0.977,-0.183,-1.282,173.595,-44.857,144.547
13689,0.7148,0.0703,-0.7085,0.732,0.061,-1.038,173.600,-44.857,144.564
13699,0.7114,0.0728,-0.7109,0.854,0.427,-0.793,173.606,-44.863,144.575
13709,0.7100,0.0771,-0.7124,1.038,0.854,-0.549,173.611,-44.868,144.580
13719,0.7090,0.0781,-0.7158,1.282,1.282,-0.366,173.622,-44.879,144.591
13729,0.7119,0.0771,-0.7187,1.282,1.465,-0.122,173.633,-44.890,144.591
13739,0.7114,0.0796,-0.7187,1.099,1.343,0.000,173.644,-44.901,144.597
13749,0.7158,0.0815,-0.7197,0.916,1.099,-0.061,173.650,-44.907,144.597
13759,0.7183,0.0820,-0.7192,0.854,0.549,-0.183,173.655,-44.912,144.602
13769,0.7202,0.0811,-0.7202,0.671,-0.061,-0.366,173.655,-44.912,144.608
13779,0.7217,0.0811,-0.7173,0.366,-0.854,-0.610,173.655,-44.901,144.613
13789,0.7192,0.0801,-0.7129,-0.061,-1.404,-0.793,173.644,-44.890,144.624
13799,0.7144,0.0835,-0.7061,-0.366,-1.770,-0.793,173.633,-44.874,144.630
13809,0.7124,0.0845,-0.7031,-0.183,-1.648,-0.732,173.622,-44.863,144.641
13819,0.7104,0.0864,-0.7061,0.305,-1.160,-0.610,173.611,-44.852,144.646
13829,0.7085,0.0850,-0.7051,0.916,-0.366,-0.366,173.611,-44.846,144.651
13839,0.7095,0.0850,-0.7075,1.465,0.366,-0.183,173.622,-44.852,144.651
13849,0.7100,0.0864,-0.7070,1.648,1.160,-0.061,173.628,-44.863,144.657
13859,0.7114,0.0845,-0.7129,1.648,1.587,0.000,173.639,-44.879,144.657
13869,0.7148,0.0869,-0.7153,1.465,1.648,0.061,173.650,-44.890,144.662
13879,0.7168,0.0854,-0.7168,1.343,1.404,0.061,173.655,-44.907,144.662
13889,0.7183,0.0830,-0.7187,1.221,1.038,-0.122,173.661,-44.912,144.662
13899,0.7183,0.0820,-0.7197,0.916,0.488,-0.305,173.666,-44.918,144.668
13909,0.7178,0.0815,-0.7183,0.610,0.000,-0.488,173.666,-44.918,144.679
13919,0.7173,0.0806,-0.7187,0.244,-0.427,-0.610,173.661,-44.907,144.684
13929,0.7153,0.0791,-0.7163,0.183,-0.671,-0.732,173.661,-44.901,144.695
13939,0.7153,0.0767,-0.7104,0.183,-0.732,-0.732,173.655,-44.896,144.701
13949,0.7148,0.0767,-0.7109,0.366,-0.610,-0.671,173.655,-44.890,144.712
13959,0.7163,0.0752,-0.7090,0.427,-0.427,-0.488,173.661,-44.885,144.717
13969,0.7148,0.0762,-0.7090,0.488,-0.122,-0.244,173.661,-44.885,144.723
13979,0.7153,0.0786,-0.7100,0.549,0.122,0.061,173.666,-44.890,144.723
13989,0.7158,0.0776,-0.7109,0.549,0.366,0.122,173.677,-44.896,144.717
13999,0.7187,0.0791,-0.7134,0.366,0.488,0.183,173.683,-44.901,144.717
14009,0.7192,0.0830,-0.7139,0.122,0.427,0.183,173.683,-44.907,144.717
14019,0.7168,0.0850,-0.7119,0.061,0.305,0.305,173.677,-44.912,144.712
14029,0.7148,0.0840,-0.7139,0.122,0.061,0.183,173.677,-44.912,144.712
14039,0.7119,0.0884,-0.7124,0.122,-0.183,0.061,173.672,-44.907,144.706
14049,0.7114,0.0889,-0.7100,0.183,-0.305,-0.061,173.666,-44.907,144.706
14059,0.7109,0.0874,-0.7085,0.000,-0.305,-0.183,173.655,-44.901,144.712
14069,0.7114,0.0874,-0.7085,-0.183,-0.183,-0.366,173.644,-44.901,144.717
14079,0.7144,0.0879,-0.7109,-0.183,0.000,-0.488,173.633,-44.901,144.723
14089,0.7173,0.0864,-0.7134,-0.122,0.122,-0.549,173.617,-44.901,144.728
14099,0.7183,0.0840,-0.7139,0.122,0.183,-0.610,173.611,-44.901,144.739
14109,0.7178,0.0796,-0.7124,0.427,0.183,-0.732,173.606,-44.907,144.750
14119,0.7163,0.0801,-0.7153,0.427,0.244,-0.854,173.606,-44.907,144.761
14129,0.7163,0.0801,-0.7144,0.244,0.183,-0.916,173.595,-44.907,144.778
14139,0.7129,0.0811,-0.7134,0.122,0.122,-0.916,173.589,-44.907,144.789
14149,0.7134,0.0811,-0.7134,0.183,0.305,-0.916,173.578,-44.907,144.800
14159,0.7124,0.0830,-0.7144,0.427,0.366,-0.916,173.573,-44.907,144.816
14169,0.7114,0.0830,-0.7153,0.793,0.488,-0.793,173.573,-44.907,144.827
14179,0.7124,0.0811,-0.7168,1.099,0.427,-0.732,173.573,-44.912,144.838
14189,0.7114,0.0801,-0.7163,1.282,0.244,-0.793,173.578,-44.907,144.849
14199,0.7114,0.0815,-0.7153,1.160,0.061,-0.854,173.578,-44.907,144.860
14209,0.7134,0.0811,-0.7153,0.977,-0.122,-0.854,173.584,-44.901,144.871
14219,0.7129,0.0845,-0.7173,0.732,-0.305,-0.977,173.578,-44.896,144.888
14229,0.7114,0.0850,-0.7134,0.549,-0.366,-0.977,173.568,-44.890,144.899
14239,0.7104,0.0845,-0.7148,0.488,-0.305,-1.038,173.562,-44.885,144.915
14249,0.7129,0.0835,-0.7134,0.549,-0.244,-1.099,173.551,-44.879,144.926
14259,0.7144,0.0835,-0.7109,0.549,-0.122,-1.099,173.546,-44.874,144.943
14269,0.7148,0.0815,-0.7124,0.610,-0.061,-0.977,173.540,-44.874,144.959
14279,0.7168,0.0820,-0.7095,0.610,0.000,-0.854,173.540,-44.879,144.970
14289,0.7183,0.0806,-0.7095,0.610,-0.122,-0.732,173.535,-44.879,144.981
14299,0.7187,0.0815,-0.7070,0.549,-0.183,-0.610,173.535,-44.879,144.987
14309,0.7197,0.0811,-0.7075,0.427,-0.244,-0.549,173.535,-44.879,144.998
14319,0.7192,0.0815,-0.7070,0.244,-0.244,-0.427,173.529,-44.879,145.003
14329,0.7202,0.0820,-0.7065,0.000,-0.183,-0.427,173.524,-44.885,145.009
14339,0.7217,0.0806,-0.7085,-0.183,-0.061,-0.366,173.518,-44.890,145.014
14349,0.7207,0.0825,-0.7056,-0.244,0.183,-0.244,173.513,-44.896,145.014
14359,0.7158,0.0830,-0.7070,-0.183,0.305,-0.244,173.507,-44.901,145.020
14369,0.7144,0.0791,-0.7109,-0.183,0.549,-0.183,173.502,-44.907,145.025
14379,0.7139,0.0791,-0.7129,-0.366,0.549,-0.122,173.502,-44.912,145.025
14389,0.7168,0.0771,-0.7119,-0.671,0.427,0.000,173.496,-44.918,145.025
14399,0.7153,0.0811,-0.7153,-0.916,0.244,0.122,173.491,-44.918,145.025
14409,0.7183,0.0835,-0.7173,-0.854,0.122,0.244,173.480,-44.918,145.020
14419,0.7178,0.0835,-0.7168,-0.671,-0.061,0.244,173.474,-44.918,145.020
14429,0.7163,0.0850,-0.7153,-0.427,-0.183,0.122,173.469,-44.918,145.014
14439,0.7124,0.0859,-0.7178,-0.366,-0.244,-0.061,173.463,-44.912,145.014
14449,0.7109,0.0854,-0.7158,-0.610,-0.183,-0.366,173.452,-44.907,145.020
14459,0.7095,0.0854,-0.7163,-0.793,-0.183,-0.549,173.436,-44.901,145.031
14469,0.7104,0.0884,-0.7158,-0.854,-0.061,-0.671,173.414,-44.896,145.036
14479,0.7104,0.0864,-0.7163,-0.671,0.061,-0.793,173.397,-44.890,145.047
14489,0.7124,0.0859,-0.7148,-0.427,0.061,-0.854,173.381,-44.890,145.063
14499,0.7144,0.0869,-0.7119,-0.366,-0.183,-0.854,173.370,-44.885,145.074
14509,0.7153,0.0850,-0.7100,-0.427,-0.366,-0.793,173.353,-44.885,145.085
14519,0.7148,0.0884,-0.7095,-0.488,-0.549,-0.671,173.337,-44.879,145.091
14529,0.7139,0.0898,-0.7109,-0.244,-0.671,-0.549,173.326,-44.868,145.096
14539,0.7134,0.0903,-0.7080,0.061,-0.610,-0.488,173.315,-44.868,145.102
14549,0.7114,0.0889,-0.7109,0.488,-0.427,-0.427,173.315,-44.863,145.107
14559,0.7124,0.0894,-0.7095,0.671,-0.061,-0.488,173.309,-44.857,145.118
14570,0.7119,0.0889,-0.7095,0.671,0.366,-0.610,173.304,-44.863,145.124
14579,0.7139,0.0908,-0.7153,0.549,0.671,-0.793,173.298,-44.868,145.140
14589,0.7163,0.0889,-0.7139,0.366,0.854,-1.038,173.287,-44.874,145.151
14599,0.7168,0.0898,-0.7129,0.244,0.793,-1.160,173.271,-44.879,145.173
14609,0.7168,0.0898,-0.7124,0.244,0.549,-1.221,173.254,-44.885,145.190
14619,0.7148,0.0894,-0.7114,0.366,0.183,-1.282,173.243,-44.885,145.206
14629,0.7148,0.0869,-0.7124,0.549,-0.122,-1.221,173.232,-44.885,145.223
14639,0.7144,0.0854,-0.7085,0.732,-0.305,-1.038,173.232,-44.879,145.239
14649,0.7129,0.0830,-0.7080,0.671,-0.366,-0.916,173.232,-44.879,145.250
14659,0.7119,0.0859,-0.7070,0.549,-0.244,-0.732,173.227,-44.879,145.261
14669,0.7124,0.0869,-0.7090,0.549,0.000,-0.549,173.227,-44.874,145.267
14679,0.7134,0.0889,-0.7075,0.793,0.305,-0.488,173.221,-44.879,145.278
14689,0.7163,0.0864,-0.7100,1.160,0.610,-0.366,173.227,-44.890,145.283
14699,0.7158,0.0874,-0.7114,1.465,0.854,-0.305,173.238,-44.896,145.289
14709,0.7178,0.0894,-0.7124,1.587,0.793,-0.305,173.243,-44.907,145.294
14719,0.7187,0.0889,-0.7144,1.648,0.671,-0.305,173.254,-44.912,145.300
14729,0.7197,0.0898,-0.7173,1.770,0.427,-0.366,173.265,-44.918,145.305
14739,0.7197,0.0854,-0.7139,1.831,0.244,-0.610,173.276,-44.918,145.311
14749,0.7173,0.0850,-0.7144,1.709,0.061,-0.916,173.282,-44.918,145.327
14759,0.7139,0.0864,-0.7139,1.404,0.000,-1.221,173.282,-44.918,145.344
14769,0.7119,0.0874,-0.7129,0.916,-0.122,-1.404,173.276,-44.912,145.360
14779,0.7095,0.0937,-0.7119,0.488,-0.183,-1.587,173.254,-44.907,145.382
14789,0.7085,0.0952,-0.7095,0.671,0.000,-1.587,173.238,-44.901,145.410
14799,0.7109,0.0957,-0.7085,1.282,0.305,-1.526,173.227,-44.901,145.432
14809,0.7080,0.0928,-0.7114,1.892,0.549,-1.587,173.221,-44.901,145.453
14819,0.7109,0.0889,-0.7144,2.197,0.732,-1.709,173.221,-44.907,145.475
14829,0.7139,0.0850,-0.7168,1.953,0.793,-1.892,173.221,-44.907,145.503
14839,0.7163,0.0820,-0.7183,1.465,0.793,-2.136,173.221,-44.912,145.536
14849,0.7192,0.0815,-0.7183,0.977,0.671,-2.319,173.210,-44.918,145.569
14859,0.7197,0.0781,-0.7187,0.671,0.488,-2.502,173.194,-44.918,145.607
14869,0.7183,0.0762,-0.7153,0.427,0.061,-2.563,173.183,-44.918,145.640
14879,0.7187,0.0767,-0.7124,0.244,-0.366,-2.319,173.167,-44.912,145.673
14889,0.7168,0.0776,-0.7090,0.427,-0.671,-1.831,173.161,-44.907,145.701
14899,0.7173,0.0781,-0.7080,0.916,-0.732,-1.343,173.161,-44.901,145.717
14909,0.7183,0.0791,-0.7061,1.404,-0.549,-1.038,173.172,-44.896,145.728
14919,0.7178,0.0815,-0.7090,1.709,-0.244,-0.732,173.183,-44.896,145.739
14929,0.7173,0.0811,-0.7119,1.587,0.000,-0.610,173.199,-44.896,145.750
14939,0.7187,0.0830,-0.7119,1.160,0.244,-0.671,173.205,-44.901,145.756
14949,0.7187,0.0859,-0.7109,0.671,0.427,-0.732,173.199,-44.907,145.767
14959,0.7197,0.0850,-0.7129,0.427,0.488,-0.854,173.199,-44.912,145.783
14969,0.7207,0.0850,-0.7119,0.122,0.366,-0.916,173.188,-44.918,145.794
14979,0.7212,0.0845,-0.7129,0.061,0.000,-1.038,173.177,-44.918,145.811
14989,0.7197,0.0820,-0.7114,-0.183,-0.488,-1.099,173.172,-44.912,145.822
14999,0.7168,0.0830,-0.7109,-0.549,-0.916,-1.160,173.156,-44.907,145.838
15009,0.7192,0.0835,-0.7114,-1.038,-1.160,-1.221,173.139,-44.896,145.854
15019,0.7163,0.0854,-0.7095,-1.587,-1.221,-1.160,173.112,-44.885,145.871
15029,0.7139,0.0874,-0.7056,-1.709,-1.160,-1.099,173.084,-44.874,145.882
15039,0.7119,0.0884,-0.7085,-1.404,-0.977,-0.916,173.062,-44.863,145.893
15049,0.7109,0.0918,-0.7075,-0.916,-0.610,-0.732,173.040,-44.857,145.904
15059,0.7100,0.0937,-0.7085,-0.366,-0.244,-0.610,173.024,-44.852,145.909
15070,0.7095,0.0957,-0.7100,-0.061,0.183,-0.549,173.013,-44.852,145.920
15079,0.7104,0.0967,-0.7109,0.305,0.488,-0.549,173.002,-44.857,145.926
15089,0.7080,0.0967,-0.7144,0.488,0.671,-0.732,172.991,-44.857,145.937
15099,0.7061,0.0972,-0.7163,0.549,0.732,-0.977,172.980,-44.857,145.953
15109,0.7056,0.0986,-0.7168,0.488,0.732,-1.160,172.963,-44.857,145.970
15119,0.7090,0.0957,-0.7187,0.427,0.610,-1.404,172.947,-44.857,145.992
15129,0.7119,0.0962,-0.7178,0.366,0.366,-1.587,172.930,-44.857,146.014
15139,0.7153,0.0923,-0.7178,0.183,-0.061,-1.831,172.908,-44.852,146.041
15149,0.7139,0.0889,-0.7192,-0.061,-0.488,-1.892,172.892,-44.841,146.063
15159,0.7129,0.0874,-0.7158,-0.244,-0.854,-1.892,172.875,-44.830,146.091
15169,0.7134,0.0859,-0.7148,-0.366,-1.160,-1.648,172.859,-44.813,146.113
15179,0.7124,0.0840,-0.7114,-0.244,-1.282,-1.343,172.848,-44.802,146.129
15189,0.7124,0.0850,-0.7119,0.122,-1.160,-1.038,172.842,-44.791,146.140
15204,0.7124,0.0835,-0.7085,0.488,-0.854,-0.671,172.848,-44.780,146.146
15210,0.7124,0.0811,-0.7075,0.671,-0.488,-0.366,172.859,-44.780,146.151
15219,0.7129,0.0825,-0.7100,0.671,-0.183,-0.122,172.870,-44.780,146.157
15229,0.7139,0.0825,-0.7119,0.488,0.061,0.122,172.881,-44.780,146.151
15239,0.7163,0.0845,-0.7124,0.305,0.244,0.122,172.886,-44.786,146.151
15250,0.7139,0.0869,-0.7144,0.122,0.244,0.183,172.892,-44.786,146.151
15259,0.7139,0.0898,-0.7139,0.061,0.122,0.244,172.892,-44.791,146.146
15269,0.7119,0.0898,-0.7124,-0.061,0.000,0.244,172.892,-44.791,146.140
15279,0.7124,0.0918,-0.7158,-0.244,-0.122,0.122,172.892,-44.786,146.140
15290,0.7124,0.0913,-0.7153,-0.427,-0.183,0.061,172.886,-44.786,146.140
15299,0.7129,0.0923,-0.7178,-0.671,-0.305,0.000,172.875,-44.780,146.140
15310,0.7124,0.0942,-0.7134,-0.854,-0.366,-0.061,172.864,-44.775,146.140
15320,0.7134,0.0952,-0.7114,-0.793,-0.427,-0.122,172.853,-44.769,146.140
15330,0.7109,0.0942,-0.7100,-0.671,-0.488,-0.122,172.842,-44.764,146.140
15340,0.7129,0.0928,-0.7114,-0.305,-0.427,-0.183,172.831,-44.764,146.140
15350,0.7129,0.0937,-0.7119,0.000,-0.427,-0.183,172.831,-44.758,146.146
15360,0.7139,0.0928,-0.7104,0.183,-0.244,-0.244,172.826,-44.758,146.146
15370,0.7144,0.0913,-0.7124,0.183,-0.122,-0.427,172.820,-44.758,146.151
15380,0.7139,0.0898,-0.7129,0.183,0.183,-0.549,172.820,-44.758,146.162
15390,0.7134,0.0923,-0.7148,0.122,0.427,-0.671,172.809,-44.764,146.173
15400,0.7124,0.0913,-0.7183,0.244,0.671,-0.854,172.804,-44.764,146.184
15410,0.7100,0.0898,-0.7202,0.305,0.732,-1.038,172.798,-44.769,146.201
15420,0.7065,0.0923,-0.7163,0.061,0.610,-1.221,172.782,-44.769,146.217
15430,0.7061,0.0991,-0.7124,-0.183,0.427,-1.099,172.760,-44.769,146.234
15440,0.7051,0.1030,-0.7104,-0.061,0.244,-0.793,172.744,-44.764,146.245
15450,0.7036,0.1074,-0.7114,0.732,0.244,-0.488,172.733,-44.764,146.255
15460,0.7046,0.1040,-0.7158,1.953,0.427,-0.366,172.738,-44.764,146.261
15470,0.7046,0.0977,-0.7148,2.808,0.732,-0.488,172.755,-44.764,146.266
15480,0.7080,0.0937,-0.7173,2.625,0.977,-0.793,172.771,-44.769,146.277
15490,0.7100,0.0913,-0.7153,1.465,0.854,-1.221,172.771,-44.775,146.299
15500,0.7144,0.0937,-0.7144,0.000,0.610,-1.465,172.755,-44.780,146.321
15510,0.7144,0.1001,-0.7134,-0.549,0.366,-1.587,172.727,-44.780,146.343
15520,0.7109,0.1055,-0.7090,0.061,0.305,-1.343,172.700,-44.780,146.360
15530,0.7090,0.1079,-0.7046,1.465,0.244,-1.160,172.689,-44.786,146.376
15540,0.7056,0.1099,-0.7026,2.808,0.427,-0.977,172.689,-44.786,146.393
15550,0.7036,0.1118,-0.7061,3.540,0.793,-1.099,172.700,-44.791,146.409
15560,0.7046,0.1118,-0.7041,3.479,1.221,-1.465,172.700,-44.797,146.431
15570,0.7080,0.1123,-0.7061,3.052,1.770,-2.136,172.689,-44.813,146.464
15580,0.7124,0.1113,-0.7075,2.625,2.258,-2.869,172.667,-44.835,146.508
15590,0.7163,0.1089,-0.7080,2.380,2.563,-3.418,172.639,-44.857,146.563
15600,0.7163,0.1055,-0.7104,2.380,2.563,-3.723,172.612,-44.874,146.618
15610,0.7231,0.1016,-0.7119,2.502,2.197,-3.784,172.590,-44.896,146.678
15620,0.7271,0.0952,-0.7119,2.625,1.465,-3.662,172.579,-44.912,146.728
15630,0.7295,0.0894,-0.7100,2.686,0.671,-3.418,172.573,-44.918,146.777
15640,0.7310,0.0854,-0.7080,2.869,-0.122,-3.174,172.573,-44.923,146.821
15650,0.7300,0.0830,-0.7070,2.930,-0.610,-3.052,172.584,-44.918,146.865
15660,0.7295,0.0811,-0.7061,2.869,-0.671,-2.991,172.590,-44.918,146.904
15670,0.7261,0.0815,-0.7021,2.747,-0.305,-2.991,172.595,-44.918,146.948
15680,0.7241,0.0786,-0.7017,2.747,0.366,-3.052,172.606,-44.929,146.992
15690,0.7197,0.0776,-0.7026,2.808,1.099,-3.235,172.612,-44.940,147.036
15700,0.7217,0.0781,-0.7065,2.747,1.648,-3.296,172.612,-44.956,147.085
15710,0.7231,0.0791,-0.7109,2.502,1.831,-3.052,172.617,-44.973,147.134
15720,0.7231,0.0796,-0.7114,2.197,1.648,-2.625,172.617,-44.989,147.173
15730,0.7227,0.0806,-0.7148,2.075,1.282,-2.136,172.628,-45.000,147.206
15740,0.7222,0.0801,-0.7139,2.258,0.732,-1.770,172.639,-45.011,147.233
15750,0.7202,0.0796,-0.7163,2.319,0.061,-1.465,172.661,-45.005,147.250
15760,0.7178,0.0791,-0.7144,2.136,-0.549,-1.221,172.678,-45.000,147.266
15770,0.7168,0.0845,-0.7158,1.526,-0.854,-1.221,172.689,-44.989,147.283
15780,0.7153,0.0869,-0.7144,0.793,-0.854,-1.404,172.689,-44.978,147.299
15790,0.7119,0.0903,-0.7114,0.244,-0.610,-1.770,172.672,-44.967,147.327
15800,0.7104,0.0942,-0.7104,-0.122,-0.305,-2.136,172.650,-44.962,147.354
15810,0.7109,0.0937,-0.7095,-0.244,-0.122,-2.441,172.623,-44.956,147.387
15820,0.7119,0.0947,-0.7095,-0.305,0.061,-2.441,172.595,-44.951,147.426
15830,0.7148,0.0923,-0.7119,-0.061,0.122,-2.197,172.573,-44.951,147.453
15840,0.7187,0.0840,-0.7119,0.305,0.061,-1.892,172.562,-44.951,147.480
15850,0.7227,0.0757,-0.7119,0.244,-0.244,-1.587,172.562,-44.945,147.502
15860,0.7275,0.0708,-0.7114,-0.366,-0.793,-1.282,172.568,-44.945,147.519
15870,0.7300,0.0752,-0.7100,-1.404,-1.404,-0.732,172.562,-44.934,147.524
15880,0.7266,0.0845,-0.7085,-2.075,-1.831,0.000,172.551,-44.923,147.524
15890,0.7187,0.0913,-0.7065,-1.587,-1.953,0.488,172.540,-44.907,147.513
15900,0.7095,0.1006,-0.7026,-0.305,-1.709,0.671,172.540,-44.890,147.502
15910,0.7012,0.1030,-0.7012,1.038,-0.916,0.610,172.546,-44.885,147.491
15920,0.6953,0.1099,-0.7090,1.770,0.244,0.305,172.557,-44.879,147.486
15930,0.6958,0.1128,-0.7129,1.770,1.709,-0.122,172.551,-44.885,147.491
15940,0.6992,0.1157,-0.7178,1.526,2.930,-0.732,172.540,-44.901,147.508
15950,0.7065,0.1133,-0.7231,1.526,3.479,-1.526,172.524,-44.929,147.535
15960,0.7148,0.1094,-0.7246,1.526,3.113,-2.258,172.502,-44.945,147.574
15970,0.7217,0.1045,-0.7256,1.343,1.770,-2.869,172.474,-44.956,147.618
15980,0.7256,0.0952,-0.7222,0.610,-0.122,-3.296,172.452,-44.951,147.662
15990,0.7266,0.0869,-0.7183,-0.488,-2.075,-3.540,172.419,-44.929,147.706
16000,0.7256,0.0776,-0.7153,-1.465,-3.601,-3.723,172.386,-44.890,147.750
16010,0.7227,0.0698,-0.7065,-2.258,-4.395,-3.662,172.354,-44.852,147.794
16020,0.7236,0.0669,-0.6997,-2.869,-4.333,-3.357,172.321,-44.813,147.832
16030,0.7202,0.0674,-0.6958,-3.296,-3.479,-2.686,172.288,-44.786,147.865
16040,0.7192,0.0708,-0.6938,-2.991,-2.197,-1.648,172.266,-44.775,147.881
16050,0.7173,0.0723,-0.6953,-2.136,-0.610,-0.488,172.255,-44.775,147.887
16060,0.7153,0.0747,-0.6982,-1.099,0.854,0.610,172.266,-44.791,147.881
16071,0.7129,0.0796,-0.7075,-0.183,1.953,1.526,172.293,-44.819,147.865
16080,0.7114,0.0903,-0.7139,0.122,2.563,2.197,172.315,-44.846,147.838
16090,0.7085,0.1025,-0.7202,0.183,2.747,2.625,172.337,-44.868,147.810
16100,0.7041,0.1182,-0.7227,0.488,2.441,2.625,172.348,-44.885,147.777
16110,0.6992,0.1265,-0.7305,1.160,1.892,2.136,172.354,-44.890,147.750
16120,0.6938,0.1299,-0.7310,1.831,1.221,1.038,172.354,-44.885,147.739
16130,0.6895,0.1338,-0.7334,1.892,0.610,-0.305,172.343,-44.874,147.744
16140,0.6890,0.1372,-0.7305,1.526,0.000,-1.587,172.315,-44.846,147.766
16150,0.6914,0.1372,-0.7231,1.282,-0.488,-2.808,172.271,-44.824,147.805
16160,0.6963,0.1353,-0.7158,1.404,-0.732,-3.906,172.216,-44.802,147.854
16170,0.7026,0.1279,-0.7139,2.014,-0.793,-4.822,172.167,-44.780,147.920
16180,0.7104,0.1167,-0.7124,2.502,-0.916,-5.432,172.123,-44.758,147.997
16190,0.7168,0.1069,-0.7046,2.502,-1.160,-5.737,172.090,-44.747,148.074
16200,0.7246,0.0972,-0.7007,2.197,-1.282,-5.737,172.057,-44.736,148.151
16210,0.7300,0.0894,-0.6968,1.709,-1.221,-5.554,172.024,-44.731,148.228
16220,0.7349,0.0791,-0.6914,1.526,-1.038,-5.066,172.007,-44.731,148.293
16230,0.7378,0.0698,-0.6904,1.587,-0.854,-4.395,172.002,-44.736,148.354
16240,0.7407,0.0615,-0.6919,1.526,-0.610,-3.540,172.013,-44.747,148.403
16250,0.7407,0.0566,-0.6968,1.282,-0.305,-2.502,172.035,-44.758,148.436
16260,0.7397,0.0537,-0.6968,0.793,0.000,-1.343,172.068,-44.775,148.458
16270,0.7363,0.0503,-0.7021,0.305,0.427,-0.183,172.106,-44.797,148.458
16280,0.7358,0.0498,-0.7070,-0.061,0.732,0.854,172.150,-44.819,148.447
16290,0.7324,0.0459,-0.7085,-0.549,0.854,1.770,172.205,-44.841,148.425
16300,0.7344,0.0376,-0.7178,-1.526,0.854,2.502,172.260,-44.857,148.392
16310,0.7339,0.0317,-0.7246,-3.296,0.549,3.113,172.310,-44.874,148.348
16320,0.7334,0.0298,-0.7295,-5.737,-0.122,3.784,172.343,-44.879,148.299
16330,0.7290,0.0303,-0.7319,-8.179,-1.038,4.639,172.365,-44.874,148.228
16340,0.7222,0.0381,-0.7314,-10.071,-2.258,5.859,172.370,-44.857,148.145
16350,0.7148,0.0488,-0.7300,-10.925,-3.479,7.446,172.375,-44.830,148.035
16360,0.7065,0.0649,-0.7241,-10.559,-4.456,9.399,172.392,-44.791,147.892
16370,0.6968,0.0820,-0.7212,-9.216,-4.944,11.353,172.430,-44.747,147.728
16380,0.6904,0.0996,-0.7241,-7.202,-4.822,13.000,172.491,-44.703,147.535
16390,0.6831,0.1147,-0.7241,-5.127,-4.028,13.855,172.562,-44.665,147.332
16400,0.6846,0.1245,-0.7285,-3.784,-2.991,13.855,172.639,-44.632,147.134
16410,0.6855,0.1362,-0.7329,-3.296,-1.831,12.878,172.705,-44.610,146.953
16420,0.6895,0.1426,-0.7329,-3.723,-1.160,11.108,172.738,-44.594,146.794
16430,0.6948,0.1499,-0.7334,-4.761,-1.038,8.911,172.738,-44.577,146.673
16440,0.6953,0.1616,-0.7280,-5.676,-1.648,6.592,172.694,-44.555,146.574
16450,0.6934,0.1753,-0.7192,-5.920,-2.686,4.700,172.623,-44.522,146.503
16460,0.6934,0.1841,-0.7080,-5.066,-3.845,3.235,172.535,-44.478,146.453
16470,0.6934,0.1846,-0.7007,-3.052,-4.517,2.014,172.458,-44.429,146.415
16480,0.6963,0.1758,-0.6973,-0.549,-4.456,0.732,172.397,-44.379,146.398
16490,0.7007,0.1646,-0.6865,0.854,-3.845,-0.610,172.348,-44.346,146.398
16500,0.7046,0.1494,-0.6841,1.221,-2.808,-2.014,172.299,-44.324,146.420
16510,0.7119,0.1392,-0.6855,0.671,-1.465,-3.357,172.233,-44.319,146.464
16520,0.7148,0.1309,-0.6831,0.000,0.183,-4.456,172.161,-44.330,146.530
16530,0.7197,0.1211,-0.6855,-0.305,1.831,-5.127,172.084,-44.357,146.602
16540,0.7236,0.1123,-0.6899,-0.244,2.991,-5.310,172.013,-44.396,146.684
16550,0.7246,0.1055,-0.6934,0.183,3.723,-4.944,171.958,-44.440,146.761
16560,0.7275,0.0991,-0.7021,0.610,3.723,-4.395,171.914,-44.484,146.827
16571,0.7271,0.0908,-0.7095,0.977,3.601,-3.784,171.892,-44.522,146.887
16580,0.7290,0.0796,-0.7197,0.610,3.357,-3.540,171.876,-44.561,146.942
16590,0.7261,0.0854,-0.7231,-0.854,2.930,-4.089,171.837,-44.588,147.003
16600,0.7183,0.0874,-0.7251,-1.953,2.502,-4.272,171.788,-44.604,147.068
16610,0.7104,0.0903,-0.7222,-2.380,1.953,-3.967,171.733,-44.615,147.129
16620,0.7036,0.0937,-0.7236,-1.648,1.709,-3.540,171.689,-44.621,147.178
16630,0.6963,0.0947,-0.7256,-0.244,1.526,-2.930,171.667,-44.621,147.222
16640,0.6938,0.0957,-0.7271,1.343,1.282,-2.258,171.661,-44.615,147.261
16650,0.6953,0.0928,-0.7285,2.319,1.221,-1.709,171.678,-44.615,147.283
16660,0.6968,0.0967,-0.7295,2.441,1.282,-1.465,171.694,-44.615,147.310
16670,0.7002,0.1001,-0.7280,2.380,1.404,-1.526,171.705,-44.615,147.332
16680,0.7031,0.1040,-0.7275,2.502,1.404,-1.587,171.716,-44.621,147.354
