elapsed_ms,acc_x_g,acc_y_g,acc_z_g,gyro_x_dps,gyro_y_dps,gyro_z_dps,angle_x_deg,angle_y_deg,angle_z_deg
0,0.6807,0.1250,-0.7407,0.610,0.183,0.549,170.612,-42.204,150.112
10,0.6792,0.1230,-0.7432,0.732,0.183,0.488,170.623,-42.204,150.106
20,0.6772,0.1216,-0.7412,0.916,0.122,0.366,170.640,-42.204,150.101
30,0.6787,0.1206,-0.7412,0.977,0.122,0.183,170.651,-42.204,150.101
40,0.6792,0.1196,-0.7412,0.854,0.122,0.061,170.662,-42.204,150.101
50,0.6826,0.1182,-0.7417,0.671,0.122,0.000,170.673,-42.209,150.101
60,0.6831,0.1143,-0.7388,0.549,0.183,0.061,170.684,-42.209,150.101
70,0.6836,0.1157,-0.7383,0.427,0.183,0.000,170.689,-42.215,150.101
80,0.6826,0.1123,-0.7427,0.366,0.183,0.000,170.700,-42.220,150.101
90,0.6816,0.1133,-0.7412,0.305,0.183,0.061,170.711,-42.220,150.101
100,0.6792,0.1104,-0.7422,0.000,0.122,0.061,170.717,-42.220,150.101
111,0.6797,0.1123,-0.7441,-0.244,0.061,0.183,170.722,-42.220,150.095
120,0.6782,0.1133,-0.7427,-0.366,0.061,0.366,170.728,-42.220,150.090
130,0.6787,0.1177,-0.7422,-0.305,0.183,0.488,170.733,-42.220,150.084
140,0.6792,0.1196,-0.7417,-0.061,0.122,0.671,170.739,-42.226,150.079
150,0.6821,0.1196,-0.7437,0.366,0.122,0.854,170.750,-42.226,150.068
160,0.6812,0.1206,-0.7437,0.610,0.000,0.916,170.766,-42.226,150.051
170,0.6807,0.1201,-0.7412,0.671,-0.061,0.916,170.782,-42.226,150.040
180,0.6821,0.1177,-0.7417,0.488,-0.183,0.793,170.793,-42.226,150.029
190,0.6831,0.1182,-0.7432,0.244,-0.305,0.549,170.804,-42.226,150.024
200,0.6807,0.1172,-0.7407,-0.183,-0.244,0.122,170.804,-42.220,150.018
210,0.6821,0.1172,-0.7412,-0.610,-0.183,-0.183,170.799,-42.220,150.024
220,0.6826,0.1182,-0.7427,-0.916,-0.122,-0.366,170.793,-42.220,150.029
230,0.6812,0.1201,-0.7407,-1.038,-0.061,-0.305,170.777,-42.220,150.029
240,0.6816,0.1172,-0.7427,-0.854,0.183,-0.183,170.771,-42.220,150.035
250,0.6812,0.1157,-0.7427,-0.549,0.366,0.000,170.766,-42.220,150.035
260,0.6802,0.1133,-0.7402,-0.244,0.488,0.183,170.771,-42.226,150.035
270,0.6777,0.1147,-0.7412,-0.061,0.488,0.427,170.777,-42.231,150.029
280,0.6792,0.1177,-0.7417,0.183,0.305,0.732,170.788,-42.237,150.018
290,0.6792,0.1177,-0.7437,0.366,0.122,0.977,170.804,-42.237,150.007
300,0.6797,0.1191,-0.7427,0.488,0.061,1.038,170.815,-42.237,149.991
310,0.6797,0.1187,-0.7432,0.671,0.000,1.038,170.832,-42.237,149.980
320,0.6821,0.1172,-0.7412,0.671,0.061,0.916,170.848,-42.242,149.969
330,0.6816,0.1162,-0.7422,0.366,0.244,0.671,170.865,-42.242,149.958
340,0.6821,0.1133,-0.7441,-0.061,0.488,0.427,170.870,-42.248,149.952
350,0.6812,0.1157,-0.7422,-0.488,0.549,0.244,170.870,-42.253,149.952
360,0.6792,0.1177,-0.7422,-0.732,0.549,0.061,170.865,-42.259,149.952
370,0.6782,0.1191,-0.7427,-0.732,0.427,0.061,170.854,-42.259,149.952
380,0.6782,0.1187,-0.7393,-0.549,0.183,0.122,170.854,-42.264,149.952
390,0.6782,0.1211,-0.7393,-0.244,0.061,0.244,170.848,-42.264,149.947
400,0.6797,0.1196,-0.7402,0.061,0.000,0.366,170.854,-42.264,149.941
410,0.6807,0.1177,-0.7417,0.305,0.000,0.488,170.859,-42.264,149.936
420,0.6826,0.1172,-0.7417,0.305,0.122,0.488,170.870,-42.264,149.930
430,0.6851,0.1152,-0.7397,0.183,0.183,0.488,170.881,-42.270,149.925
440,0.6841,0.1162,-0.7412,-0.061,0.183,0.427,170.881,-42.270,149.919
450,0.6836,0.1152,-0.7402,-0.305,0.061,0.366,170.887,-42.275,149.914
460,0.6816,0.1172,-0.7407,-0.427,-0.061,0.427,170.887,-42.275,149.908
470,0.6807,0.1157,-0.7397,-0.366,-0.122,0.488,170.892,-42.275,149.903
480,0.6787,0.1147,-0.7412,-0.183,-0.183,0.549,170.898,-42.270,149.892
490,0.6787,0.1182,-0.7407,-0.061,-0.183,0.671,170.903,-42.270,149.886
500,0.6787,0.1187,-0.7412,0.061,-0.061,0.793,170.909,-42.270,149.875
510,0.6797,0.1196,-0.7417,0.183,0.061,0.916,170.920,-42.270,149.859
520,0.6792,0.1206,-0.7393,0.244,0.183,0.977,170.931,-42.275,149.848
530,0.6782,0.1211,-0.7407,0.366,0.244,1.038,170.942,-42.275,149.837
540,0.6782,0.1196,-0.7412,0.305,0.244,0.916,170.947,-42.275,149.826
550,0.6782,0.1182,-0.7417,0.122,0.061,0.610,170.953,-42.275,149.815
560,0.6797,0.1206,-0.7427,-0.244,0.000,0.305,170.953,-42.275,149.810
570,0.6807,0.1182,-0.7417,-0.732,-0.061,0.000,170.947,-42.275,149.810
580,0.6807,0.1182,-0.7441,-1.099,-0.061,-0.183,170.936,-42.270,149.815
590,0.6792,0.1191,-0.7427,-1.038,0.000,-0.244,170.920,-42.270,149.815
600,0.6802,0.1191,-0.7422,-0.671,0.183,-0.183,170.914,-42.270,149.821
611,0.6792,0.1177,-0.7427,-0.122,0.305,-0.061,170.909,-42.270,149.821
620,0.6787,0.1167,-0.7437,0.305,0.366,0.183,170.914,-42.275,149.821
630,0.6802,0.1162,-0.7427,0.488,0.244,0.427,170.925,-42.275,149.815
640,0.6831,0.1157,-0.7422,0.488,0.122,0.488,170.936,-42.275,149.810
650,0.6846,0.1177,-0.7446,0.366,0.000,0.488,170.947,-42.275,149.804
660,0.6831,0.1201,-0.7451,0.305,0.000,0.488,170.953,-42.275,149.793
670,0.6821,0.1216,-0.7427,0.183,-0.122,0.366,170.958,-42.275,149.793
680,0.6807,0.1230,-0.7388,0.122,-0.244,0.305,170.958,-42.275,149.788
690,0.6777,0.1230,-0.7368,0.244,-0.305,0.183,170.958,-42.270,149.782
700,0.6772,0.1201,-0.7349,0.305,-0.244,0.183,170.958,-42.270,149.782
710,0.6797,0.1201,-0.7393,0.427,-0.061,0.122,170.964,-42.270,149.777
720,0.6787,0.1177,-0.7373,0.488,0.061,0.000,170.969,-42.270,149.777
731,0.6821,0.1147,-0.7417,0.305,0.305,-0.244,170.969,-42.270,149.782
741,0.6826,0.1099,-0.7422,-0.122,0.488,-0.427,170.969,-42.275,149.788
751,0.6836,0.1108,-0.7417,-0.549,0.549,-0.427,170.964,-42.281,149.793
761,0.6816,0.1108,-0.7417,-0.793,0.610,-0.366,170.958,-42.286,149.804
771,0.6816,0.1147,-0.7422,-0.366,0.427,0.122,170.958,-42.292,149.799
781,0.6802,0.1172,-0.7437,0.061,0.183,0.488,170.964,-42.292,149.793
791,0.6797,0.1157,-0.7417,0.549,-0.122,0.732,170.975,-42.292,149.788
801,0.6807,0.1162,-0.7441,0.793,-0.366,0.854,170.997,-42.286,149.771
811,0.6821,0.1157,-0.7451,0.793,-0.488,0.854,171.013,-42.281,149.760
821,0.6826,0.1162,-0.7461,0.671,-0.244,0.916,171.030,-42.281,149.749
831,0.6802,0.1162,-0.7446,0.427,0.061,0.793,171.041,-42.275,149.738
841,0.6768,0.1206,-0.7422,0.244,0.366,0.732,171.046,-42.281,149.727
851,0.6763,0.1221,-0.7388,0.244,0.549,0.610,171.052,-42.286,149.722
861,0.6777,0.1245,-0.7397,0.366,0.549,0.366,171.052,-42.286,149.716
871,0.6797,0.1279,-0.7383,0.427,0.366,0.183,171.046,-42.292,149.716
881,0.6797,0.1284,-0.7378,0.610,-0.061,0.122,171.046,-42.292,149.716
891,0.6816,0.1294,-0.7383,0.854,-0.366,0.122,171.046,-42.286,149.711
901,0.6812,0.1284,-0.7383,1.160,-0.549,0.061,171.046,-42.281,149.711
911,0.6816,0.1240,-0.7358,1.404,-0.549,-0.061,171.057,-42.281,149.711
921,0.6787,0.1196,-0.7368,1.465,-0.305,-0.244,171.068,-42.275,149.711
931,0.6802,0.1147,-0.7368,1.160,-0.061,-0.549,171.074,-42.275,149.722
941,0.6807,0.1113,-0.7402,0.671,0.427,-0.793,171.074,-42.275,149.733
951,0.6826,0.1084,-0.7446,0.122,1.038,-1.038,171.074,-42.286,149.749
961,0.6841,0.1040,-0.7417,-0.488,1.526,-1.282,171.063,-42.297,149.766
971,0.6870,0.1011,-0.7461,-0.854,1.770,-1.404,171.052,-42.314,149.788
981,0.6836,0.1006,-0.7505,-1.160,1.770,-1.282,171.041,-42.330,149.810
991,0.6831,0.1016,-0.7515,-1.343,1.404,-0.916,171.030,-42.336,149.826
1001,0.6826,0.1040,-0.7495,-1.282,0.916,-0.427,171.024,-42.341,149.832
1011,0.6807,0.1079,-0.7480,-0.977,0.305,0.244,171.024,-42.341,149.832
1021,0.6792,0.1152,-0.7451,-0.305,-0.366,0.854,171.030,-42.336,149.821
1031,0.6846,0.1177,-0.7471,0.549,-0.916,1.465,171.052,-42.330,149.799
1041,0.6826,0.1187,-0.7432,1.221,-0.977,1.770,171.079,-42.319,149.771
1051,0.6821,0.1162,-0.7427,1.343,-0.793,1.587,171.107,-42.314,149.749
1061,0.6855,0.1157,-0.7397,0.671,-0.671,1.099,171.123,-42.314,149.733
1071,0.6841,0.1172,-0.7368,-0.488,-0.610,0.427,171.123,-42.308,149.727
1081,0.6812,0.1216,-0.7339,-1.465,-0.732,-0.122,171.101,-42.303,149.727
1091,0.6816,0.1289,-0.7358,-1.831,-0.732,-0.366,171.068,-42.297,149.727
1101,0.6792,0.1323,-0.7324,-1.404,-0.671,-0.366,171.041,-42.292,149.733
1111,0.6782,0.1299,-0.7339,-0.305,-0.488,-0.244,171.024,-42.286,149.733
1121,0.6777,0.1279,-0.7349,0.732,-0.305,0.000,171.024,-42.281,149.733
1131,0.6748,0.1260,-0.7363,1.404,0.000,0.122,171.035,-42.281,149.733
1141,0.6748,0.1230,-0.7373,1.526,0.427,0.061,171.041,-42.281,149.733
1151,0.6758,0.1216,-0.7412,1.221,0.977,-0.244,171.046,-42.286,149.738
1161,0.6797,0.1196,-0.7427,0.671,1.404,-0.732,171.046,-42.297,149.749
1171,0.6821,0.1191,-0.7383,0.122,1.587,-1.160,171.030,-42.314,149.771
1181,0.6826,0.1177,-0.7427,-0.244,1.587,-1.404,171.013,-42.325,149.793
1191,0.6821,0.1147,-0.7456,-0.366,1.343,-1.526,170.997,-42.336,149.815
1201,0.6821,0.1133,-0.7441,-0.366,0.977,-1.465,170.980,-42.341,149.837
1211,0.6821,0.1118,-0.7456,-0.244,0.488,-1.282,170.969,-42.341,149.854
1221,0.6821,0.1118,-0.7417,-0.061,-0.061,-0.916,170.969,-42.341,149.865
1231,0.6807,0.1108,-0.7422,0.305,-0.366,-0.427,170.975,-42.336,149.870
1241,0.6812,0.1108,-0.7422,0.549,-0.488,-0.061,170.986,-42.330,149.870
1251,0.6816,0.1094,-0.7437,0.793,-0.427,0.183,171.002,-42.325,149.870
1261,0.6821,0.1094,-0.7402,0.732,-0.366,0.244,171.013,-42.319,149.865
1271,0.6841,0.1094,-0.7427,0.427,-0.244,0.183,171.030,-42.319,149.859
1281,0.6831,0.1099,-0.7422,-0.061,-0.122,0.061,171.035,-42.319,149.859
1291,0.6831,0.1128,-0.7422,-0.488,0.183,-0.061,171.030,-42.319,149.859
1301,0.6851,0.1133,-0.7441,-0.793,0.549,-0.122,171.024,-42.325,149.865
1311,0.6821,0.1143,-0.7427,-0.854,0.732,-0.122,171.019,-42.330,149.865
1321,0.6812,0.1143,-0.7427,-0.793,0.732,0.000,171.008,-42.336,149.870
1331,0.6812,0.1128,-0.7427,-0.671,0.671,0.183,171.008,-42.341,149.865
1341,0.6821,0.1152,-0.7471,-0.671,0.366,0.366,171.008,-42.341,149.865
1351,0.6831,0.1167,-0.7451,-0.671,0.122,0.488,171.002,-42.347,149.859
1361,0.6831,0.1167,-0.7437,-0.610,-0.244,0.610,171.002,-42.341,149.848
1371,0.6821,0.1182,-0.7422,-0.610,-0.427,0.610,171.002,-42.336,149.837
1381,0.6841,0.1177,-0.7422,-0.671,-0.549,0.549,171.002,-42.330,149.832
1391,0.6812,0.1216,-0.7422,-0.732,-0.610,0.488,170.997,-42.325,149.821
1401,0.6792,0.1221,-0.7412,-0.793,-0.549,0.366,170.991,-42.319,149.815
1411,0.6802,0.1235,-0.7383,-0.793,-0.305,0.305,170.980,-42.314,149.810
1421,0.6768,0.1230,-0.7378,-0.732,-0.183,0.305,170.975,-42.314,149.810
1431,0.6797,0.1250,-0.7378,-0.549,-0.122,0.244,170.964,-42.314,149.804
1441,0.6802,0.1250,-0.7378,-0.427,-0.061,0.183,170.953,-42.308,149.799
1451,0.6782,0.1270,-0.7397,-0.305,-0.122,0.122,170.947,-42.308,149.799
1461,0.6787,0.1284,-0.7383,-0.122,-0.061,0.122,170.936,-42.308,149.799
1471,0.6787,0.1284,-0.7368,0.122,-0.061,0.061,170.931,-42.303,149.799
1481,0.6787,0.1279,-0.7393,0.366,0.000,-0.061,170.925,-42.303,149.799
1491,0.6787,0.1245,-0.7397,0.549,0.183,-0.183,170.925,-42.303,149.799
1501,0.6807,0.1265,-0.7383,0.610,0.427,-0.366,170.920,-42.308,149.804
1511,0.6816,0.1201,-0.7402,0.427,0.671,-0.488,170.920,-42.314,149.815
1521,0.6826,0.1157,-0.7432,0.122,0.793,-0.671,170.914,-42.319,149.826
1531,0.6836,0.1138,-0.7432,-0.366,0.854,-0.977,170.903,-42.325,149.837
1541,0.6851,0.1138,-0.7437,-0.793,0.671,-1.160,170.892,-42.330,149.859
1551,0.6860,0.1143,-0.7441,-1.038,0.427,-1.099,170.876,-42.330,149.870
1561,0.6836,0.1147,-0.7451,-1.038,0.244,-0.854,170.859,-42.330,149.886
1571,0.6826,0.1138,-0.7432,-0.671,0.000,-0.427,170.854,-42.330,149.892
1581,0.6812,0.1138,-0.7427,-0.122,-0.061,0.061,170.854,-42.330,149.886
1591,0.6802,0.1123,-0.7417,0.305,-0.122,0.488,170.870,-42.325,149.881
1601,0.6826,0.1128,-0.7427,0.488,-0.061,0.732,170.887,-42.325,149.870
1612,0.6807,0.1167,-0.7422,0.366,0.000,0.916,170.898,-42.325,149.859
1621,0.6807,0.1177,-0.7402,0.122,0.122,0.977,170.909,-42.330,149.848
1631,0.6831,0.1201,-0.7412,-0.061,0.122,0.854,170.914,-42.330,149.837
1641,0.6831,0.1230,-0.7427,-0.183,0.122,0.732,170.914,-42.330,149.826
1651,0.6787,0.1255,-0.7417,-0.244,0.061,0.610,170.914,-42.330,149.821
1661,0.6763,0.1289,-0.7407,0.000,0.000,0.549,170.909,-42.330,149.810
1671,0.6777,0.1250,-0.7402,0.305,0.061,0.427,170.914,-42.330,149.804
1681,0.6787,0.1250,-0.7412,0.549,0.122,0.305,170.914,-42.325,149.804
1691,0.6782,0.1250,-0.7397,0.488,0.061,0.122,170.914,-42.325,149.799
1701,0.6797,0.1245,-0.7383,0.305,0.000,0.000,170.914,-42.325,149.799
1711,0.6816,0.1206,-0.7407,0.122,0.061,-0.061,170.914,-42.325,149.799
1721,0.6846,0.1191,-0.7397,-0.061,0.183,-0.244,170.909,-42.325,149.804
1731,0.6836,0.1162,-0.7412,-0.305,0.183,-0.366,170.903,-42.330,149.810
1741,0.6836,0.1162,-0.7378,-0.488,0.183,-0.305,170.898,-42.330,149.815
1751,0.6821,0.1157,-0.7412,-0.488,0.122,-0.183,170.892,-42.330,149.815
1761,0.6812,0.1177,-0.7412,-0.305,0.122,0.061,170.892,-42.330,149.815
1771,0.6812,0.1182,-0.7402,-0.061,0.183,0.305,170.892,-42.336,149.815
1781,0.6802,0.1182,-0.7437,0.183,0.366,0.488,170.903,-42.336,149.810
1791,0.6797,0.1191,-0.7451,0.305,0.610,0.549,170.909,-42.341,149.799
1801,0.6797,0.1191,-0.7441,0.183,0.732,0.610,170.914,-42.347,149.793
1811,0.6792,0.1191,-0.7417,0.000,0.671,0.549,170.920,-42.352,149.788
1821,0.6826,0.1211,-0.7432,-0.244,0.549,0.427,170.914,-42.352,149.782
1831,0.6836,0.1206,-0.7427,-0.366,0.305,0.305,170.914,-42.358,149.782
1841,0.6846,0.1182,-0.7422,-0.427,0.061,0.183,170.914,-42.358,149.777
1851,0.6831,0.1201,-0.7412,-0.366,-0.122,0.183,170.909,-42.358,149.777
1861,0.6821,0.1167,-0.7388,-0.366,-0.183,0.122,170.909,-42.358,149.771
1871,0.6797,0.1172,-0.7402,-0.427,-0.183,0.122,170.903,-42.352,149.771
1881,0.6768,0.1162,-0.7383,-0.549,0.000,0.183,170.903,-42.352,149.771
1892,0.6787,0.1177,-0.7397,-0.671,0.061,0.366,170.898,-42.352,149.766
1902,0.6797,0.1196,-0.7397,-0.610,0.244,0.549,170.898,-42.352,149.760
1912,0.6821,0.1211,-0.7378,-0.366,0.366,0.793,170.898,-42.358,149.749
1922,0.6846,0.1221,-0.7363,0.000,0.427,0.977,170.903,-42.363,149.738
1932,0.6865,0.1226,-0.7383,0.305,0.549,1.038,170.914,-42.374,149.722
1942,0.6860,0.1221,-0.7407,0.366,0.793,0.977,170.920,-42.385,149.711
1952,0.6846,0.1211,-0.7393,0.122,0.916,0.793,170.925,-42.396,149.705
1962,0.6846,0.1201,-0.7417,-0.305,0.977,0.610,170.925,-42.407,149.700
1972,0.6851,0.1226,-0.7422,-0.793,0.977,0.366,170.914,-42.413,149.694
1982,0.6851,0.1250,-0.7388,-0.977,0.793,0.244,170.903,-42.424,149.694
1992,0.6841,0.1240,-0.7402,-0.854,0.610,0.183,170.892,-42.429,149.689
2002,0.6836,0.1221,-0.7402,-0.488,0.488,0.183,170.881,-42.435,149.689
2012,0.6846,0.1206,-0.7407,-0.183,0.366,0.183,170.881,-42.435,149.689
2022,0.6826,0.1191,-0.7422,-0.122,0.183,0.244,170.881,-42.435,149.683
2032,0.6831,0.1187,-0.7402,-0.244,0.122,0.244,170.881,-42.435,149.683
2042,0.6802,0.1206,-0.7393,-0.366,0.000,0.305,170.881,-42.435,149.678
2052,0.6802,0.1211,-0.7407,-0.366,-0.061,0.305,170.876,-42.435,149.672
2062,0.6821,0.1226,-0.7388,-0.183,-0.061,0.366,170.876,-42.429,149.667
2072,0.6807,0.1201,-0.7397,0.061,0.061,0.427,170.881,-42.429,149.661
2082,0.6816,0.1221,-0.7422,0.183,0.183,0.488,170.881,-42.429,149.656
2092,0.6826,0.1201,-0.7412,0.122,0.305,0.549,170.887,-42.435,149.650
2102,0.6841,0.1191,-0.7427,-0.061,0.305,0.366,170.892,-42.435,149.645
2112,0.6846,0.1221,-0.7393,-0.244,0.183,0.244,170.887,-42.440,149.645
2122,0.6841,0.1206,-0.7373,-0.366,0.122,0.122,170.881,-42.440,149.645
2132,0.6826,0.1201,-0.7383,-0.305,0.122,0.122,170.881,-42.440,149.639
2142,0.6826,0.1211,-0.7407,-0.183,0.122,0.122,170.876,-42.440,149.639
2152,0.6851,0.1177,-0.7422,0.000,0.122,0.122,170.876,-42.440,149.639
2162,0.6841,0.1177,-0.7407,0.000,0.122,0.183,170.881,-42.440,149.634
2172,0.6836,0.1177,-0.7422,-0.122,0.061,0.122,170.881,-42.440,149.634
2182,0.6821,0.1187,-0.7427,-0.305,-0.061,0.183,170.881,-42.440,149.634
2192,0.6841,0.1191,-0.7393,-0.427,-0.305,0.244,170.876,-42.435,149.628
2202,0.6816,0.1230,-0.7378,-0.427,-0.549,0.305,170.876,-42.429,149.623
2212,0.6821,0.1226,-0.7397,-0.183,-0.671,0.366,170.876,-42.424,149.617
2222,0.6821,0.1226,-0.7393,0.122,-0.793,0.488,170.876,-42.413,149.606
2232,0.6816,0.1230,-0.7388,0.366,-0.793,0.549,170.881,-42.407,149.601
2242,0.6816,0.1240,-0.7368,0.305,-0.732,0.488,170.887,-42.402,149.590
2252,0.6792,0.1235,-0.7373,0.244,-0.732,0.427,170.892,-42.391,149.584
2262,0.6831,0.1260,-0.7363,0.122,-0.732,0.305,170.892,-42.385,149.579
2272,0.6821,0.1270,-0.7378,0.244,-0.671,0.183,170.887,-42.380,149.573
2282,0.6812,0.1270,-0.7378,0.549,-0.549,0.183,170.892,-42.374,149.568
2292,0.6807,0.1245,-0.7388,0.732,-0.427,0.122,170.892,-42.369,149.568
2302,0.6807,0.1221,-0.7407,0.793,-0.305,0.061,170.903,-42.363,149.568
2312,0.6812,0.1211,-0.7378,0.610,-0.122,-0.061,170.903,-42.363,149.568
2322,0.6792,0.1206,-0.7393,0.427,0.122,-0.061,170.903,-42.363,149.568
2332,0.6807,0.1196,-0.7393,0.366,0.305,-0.061,170.909,-42.363,149.568
2342,0.6812,0.1216,-0.7412,0.366,0.427,-0.061,170.909,-42.369,149.573
2352,0.6816,0.1211,-0.7402,0.488,0.488,0.000,170.909,-42.369,149.573
2362,0.6836,0.1177,-0.7422,0.549,0.427,0.122,170.914,-42.374,149.573
2372,0.6841,0.1172,-0.7407,0.610,0.366,0.244,170.925,-42.380,149.568
2382,0.6870,0.1143,-0.7407,0.488,0.244,0.244,170.936,-42.385,149.568
2392,0.6841,0.1123,-0.7432,0.305,0.122,0.183,170.942,-42.385,149.562
2402,0.6870,0.1118,-0.7422,0.000,0.122,0.122,170.947,-42.385,149.562
2412,0.6860,0.1118,-0.7417,-0.366,0.183,0.061,170.953,-42.391,149.562
2422,0.6836,0.1113,-0.7437,-0.671,0.305,0.061,170.953,-42.391,149.562
2432,0.6846,0.1099,-0.7451,-0.916,0.488,0.183,170.947,-42.396,149.562
2442,0.6831,0.1108,-0.7427,-0.977,0.610,0.366,170.947,-42.402,149.557
2452,0.6836,0.1152,-0.7432,-0.916,0.488,0.671,170.947,-42.407,149.551
2462,0.6821,0.1162,-0.7432,-0.732,0.244,1.038,170.947,-42.407,149.535
2472,0.6816,0.1201,-0.7412,-0.366,-0.183,1.404,170.958,-42.407,149.518
2482,0.6836,0.1250,-0.7422,0.122,-0.427,1.709,170.969,-42.402,149.491
2492,0.6812,0.1274,-0.7373,0.671,-0.732,1.953,170.986,-42.396,149.464
2502,0.6802,0.1284,-0.7388,1.038,-0.854,1.892,171.008,-42.391,149.436
2512,0.6797,0.1279,-0.7393,0.916,-0.854,1.526,171.019,-42.385,149.414
2522,0.6802,0.1279,-0.7383,0.488,-0.793,1.038,171.030,-42.374,149.403
2532,0.6821,0.1289,-0.7368,-0.061,-0.549,0.488,171.024,-42.369,149.392
2542,0.6802,0.1289,-0.7363,-0.488,-0.183,0.061,171.008,-42.369,149.392
2552,0.6807,0.1255,-0.7397,-0.732,0.183,-0.366,170.991,-42.369,149.398
2562,0.6792,0.1230,-0.7388,-0.671,0.427,-0.549,170.975,-42.369,149.403
2572,0.6763,0.1211,-0.7388,-0.610,0.549,-0.610,170.958,-42.374,149.414
2582,0.6787,0.1216,-0.7402,-0.427,0.610,-0.488,170.947,-42.374,149.425
2592,0.6816,0.1201,-0.7422,-0.244,0.610,-0.366,170.942,-42.380,149.431
2602,0.6812,0.1172,-0.7437,0.061,0.671,-0.122,170.942,-42.380,149.431
2613,0.6826,0.1143,-0.7466,0.244,0.671,0.061,170.947,-42.385,149.431
2622,0.6841,0.1133,-0.7461,0.244,0.610,0.122,170.953,-42.391,149.431
2632,0.6836,0.1123,-0.7476,0.000,0.427,0.122,170.958,-42.391,149.431
2642,0.6821,0.1128,-0.7456,-0.366,0.122,0.122,170.958,-42.391,149.431
2652,0.6812,0.1152,-0.7422,-0.610,-0.183,0.183,170.958,-42.385,149.425
2662,0.6816,0.1182,-0.7422,-0.610,-0.488,0.305,170.953,-42.380,149.420
2672,0.6787,0.1187,-0.7402,-0.244,-0.732,0.488,170.958,-42.374,149.414
2682,0.6787,0.1177,-0.7388,0.244,-0.854,0.671,170.964,-42.363,149.403
2692,0.6807,0.1196,-0.7393,0.610,-0.854,0.793,170.980,-42.358,149.392
2702,0.6826,0.1187,-0.7378,0.671,-0.732,0.793,170.991,-42.352,149.381
2712,0.6802,0.1167,-0.7373,0.366,-0.427,0.671,171.002,-42.347,149.370
2722,0.6816,0.1182,-0.7358,-0.122,-0.183,0.488,171.008,-42.347,149.359
2732,0.6802,0.1191,-0.7368,-0.610,0.122,0.305,171.002,-42.352,149.359
2742,0.6812,0.1196,-0.7383,-0.793,0.366,0.244,170.991,-42.352,149.354
2752,0.6831,0.1221,-0.7383,-0.732,0.366,0.244,170.980,-42.358,149.354
2762,0.6821,0.1221,-0.7388,-0.488,0.305,0.305,170.975,-42.363,149.348
2772,0.6826,0.1211,-0.7417,-0.244,0.305,0.366,170.975,-42.363,149.343
2782,0.6816,0.1235,-0.7412,-0.061,0.183,0.488,170.975,-42.363,149.337
2792,0.6802,0.1216,-0.7417,0.122,0.183,0.610,170.975,-42.363,149.332
2802,0.6797,0.1211,-0.7417,0.183,0.122,0.610,170.980,-42.363,149.321
2812,0.6802,0.1206,-0.7397,0.122,0.061,0.488,170.986,-42.363,149.315
2822,0.6816,0.1211,-0.7397,0.061,0.000,0.366,170.986,-42.363,149.310
2832,0.6821,0.1201,-0.7412,0.000,-0.061,0.244,170.986,-42.363,149.310
2842,0.6802,0.1201,-0.7407,-0.122,0.000,0.122,170.986,-42.363,149.310
2852,0.6807,0.1172,-0.7397,-0.305,0.000,0.000,170.980,-42.363,149.310
2862,0.6777,0.1172,-0.7407,-0.488,0.061,-0.061,170.975,-42.358,149.310
2872,0.6802,0.1182,-0.7393,-0.610,0.061,0.000,170.969,-42.358,149.310
2882,0.6807,0.1201,-0.7402,-0.427,0.122,0.183,170.964,-42.358,149.304
2892,0.6812,0.1187,-0.7407,0.000,0.305,0.366,170.964,-42.363,149.304
2902,0.6831,0.1182,-0.7402,0.366,0.427,0.549,170.975,-42.369,149.293
2912,0.6836,0.1147,-0.7402,0.488,0.488,0.610,170.986,-42.374,149.288
2922,0.6826,0.1147,-0.7422,0.305,0.366,0.549,170.997,-42.374,149.282
2932,0.6841,0.1138,-0.7402,-0.122,0.305,0.549,171.002,-42.380,149.277
2942,0.6826,0.1152,-0.7407,-0.549,0.244,0.488,171.002,-42.385,149.271
2952,0.6836,0.1167,-0.7402,-0.732,0.305,0.488,170.997,-42.385,149.260
2962,0.6816,0.1187,-0.7412,-0.732,0.244,0.610,170.997,-42.391,149.255
2972,0.6802,0.1201,-0.7407,-0.488,0.122,0.732,170.997,-42.391,149.244
2982,0.6812,0.1182,-0.7393,-0.122,0.061,0.916,171.002,-42.391,149.233
2992,0.6797,0.1196,-0.7407,0.061,0.061,1.038,171.008,-42.391,149.222
3002,0.6782,0.1187,-0.7397,0.061,0.122,1.099,171.019,-42.391,149.205
3012,0.6807,0.1187,-0.7427,-0.122,0.244,1.038,171.024,-42.391,149.194
3022,0.6792,0.1196,-0.7397,-0.366,0.305,0.916,171.024,-42.396,149.178
3032,0.6802,0.1235,-0.7402,-0.488,0.305,0.793,171.024,-42.396,149.172
3043,0.6812,0.1255,-0.7368,-0.427,0.488,0.732,171.019,-42.402,149.161
3053,0.6812,0.1265,-0.7383,-0.244,0.549,0.610,171.013,-42.407,149.156
3063,0.6836,0.1260,-0.7388,-0.122,0.671,0.488,171.008,-42.413,149.150
3073,0.6836,0.1226,-0.7393,0.000,0.671,0.305,171.008,-42.424,149.145
3083,0.6846,0.1211,-0.7383,-0.183,0.610,0.122,171.002,-42.429,149.145
3093,0.6855,0.1187,-0.7407,-0.366,0.549,-0.061,170.997,-42.435,149.150
3103,0.6860,0.1177,-0.7388,-0.610,0.427,-0.183,170.986,-42.440,149.150
3113,0.6846,0.1182,-0.7373,-0.671,0.366,-0.183,170.975,-42.440,149.156
3123,0.6836,0.1187,-0.7358,-0.549,0.305,-0.061,170.969,-42.446,149.156
3133,0.6836,0.1167,-0.7363,-0.244,0.244,0.061,170.964,-42.451,149.156
3143,0.6826,0.1162,-0.7407,0.000,0.244,0.366,170.969,-42.451,149.150
3153,0.6841,0.1167,-0.7422,0.183,0.244,0.549,170.980,-42.451,149.145
3163,0.6826,0.1157,-0.7393,0.183,0.244,0.732,170.986,-42.457,149.134
3173,0.6836,0.1167,-0.7407,0.183,0.244,0.732,170.997,-42.457,149.128
3183,0.6855,0.1143,-0.7412,0.183,0.366,0.732,171.008,-42.462,149.117
3193,0.6855,0.1138,-0.7427,0.061,0.427,0.610,171.013,-42.468,149.112
3203,0.6851,0.1147,-0.7417,-0.183,0.122,0.488,171.019,-42.468,149.106
3213,0.6851,0.1187,-0.7417,-0.427,-0.366,0.427,171.019,-42.468,149.095
3223,0.6831,0.1206,-0.7393,-0.366,-0.854,0.488,171.019,-42.457,149.090
3233,0.6816,0.1221,-0.7393,-0.183,-1.221,0.610,171.019,-42.446,149.079
3243,0.6797,0.1230,-0.7388,0.183,-1.343,0.671,171.024,-42.429,149.068
3253,0.6802,0.1235,-0.7349,0.488,-1.282,0.671,171.030,-42.418,149.057
3263,0.6787,0.1245,-0.7319,0.549,-1.099,0.610,171.035,-42.407,149.046
3273,0.6782,0.1245,-0.7363,0.549,-0.854,0.488,171.041,-42.396,149.035
3283,0.6772,0.1284,-0.7349,0.427,-0.549,0.244,171.035,-42.391,149.030
3293,0.6772,0.1255,-0.7334,0.366,-0.244,0.000,171.035,-42.391,149.030
3303,0.6802,0.1260,-0.7368,0.366,-0.061,-0.244,171.030,-42.385,149.035
3313,0.6797,0.1245,-0.7368,0.366,0.061,-0.488,171.019,-42.385,149.041
3323,0.6802,0.1230,-0.7393,0.427,0.183,-0.488,171.013,-42.385,149.046
3333,0.6816,0.1211,-0.7422,0.366,0.244,-0.488,171.013,-42.385,149.057
3343,0.6812,0.1211,-0.7412,0.305,0.305,-0.427,171.008,-42.385,149.062
3353,0.6826,0.1191,-0.7451,0.305,0.244,-0.305,171.008,-42.385,149.068
3363,0.6821,0.1187,-0.7441,0.427,0.122,-0.244,171.008,-42.385,149.068
3373,0.6816,0.1201,-0.7407,0.610,0.061,-0.061,171.013,-42.385,149.068
3383,0.6821,0.1172,-0.7432,0.916,0.061,0.122,171.024,-42.385,149.068
3393,0.6831,0.1143,-0.7422,1.038,0.305,0.183,171.035,-42.385,149.068
3403,0.6831,0.1138,-0.7427,0.732,0.427,0.122,171.046,-42.391,149.068
3413,0.6836,0.1128,-0.7437,0.305,0.366,0.000,171.052,-42.391,149.068
3423,0.6846,0.1104,-0.7412,-0.122,0.366,0.061,171.057,-42.396,149.068
3433,0.6870,0.1118,-0.7393,-0.305,0.244,0.122,171.057,-42.402,149.068
3443,0.6860,0.1113,-0.7397,-0.305,0.122,0.305,171.057,-42.402,149.062
3453,0.6851,0.1108,-0.7397,-0.122,-0.061,0.549,171.068,-42.402,149.057
3463,0.6831,0.1138,-0.7412,0.000,-0.122,0.854,171.079,-42.402,149.041
3473,0.6821,0.1143,-0.7383,0.122,-0.122,1.160,171.090,-42.402,149.030
3483,0.6812,0.1187,-0.7393,0.183,0.000,1.221,171.101,-42.407,149.013
3493,0.6826,0.1211,-0.7446,0.122,0.122,1.282,171.112,-42.407,148.997
3503,0.6821,0.1201,-0.7437,0.061,0.244,1.160,171.118,-42.407,148.980
3513,0.6826,0.1221,-0.7407,-0.183,0.305,0.916,171.118,-42.413,148.969
3523,0.6812,0.1250,-0.7427,-0.427,0.305,0.610,171.112,-42.413,148.958
3533,0.6821,0.1255,-0.7427,-0.610,0.061,0.305,171.101,-42.413,148.958
3543,0.6821,0.1265,-0.7427,-0.793,-0.183,0.061,171.090,-42.407,148.953
3553,0.6836,0.1245,-0.7412,-0.793,-0.366,-0.183,171.074,-42.402,148.958
3563,0.6846,0.1221,-0.7393,-0.671,-0.366,-0.244,171.057,-42.396,148.958
3573,0.6831,0.1187,-0.7407,-0.549,-0.244,-0.366,171.052,-42.396,148.964
3583,0.6812,0.1143,-0.7393,-0.549,-0.061,-0.366,171.041,-42.391,148.969
3593,0.6787,0.1162,-0.7393,-0.549,0.122,-0.244,171.035,-42.391,148.969
3603,0.6797,0.1177,-0.7397,-0.427,0.244,-0.061,171.030,-42.391,148.975
3614,0.6821,0.1172,-0.7402,-0.122,0.244,0.122,171.030,-42.396,148.969
3623,0.6816,0.1201,-0.7407,0.244,0.183,0.366,171.030,-42.396,148.969
3633,0.6826,0.1187,-0.7437,0.671,0.122,0.610,171.041,-42.396,148.958
3643,0.6846,0.1177,-0.7422,0.793,0.061,0.671,171.057,-42.396,148.953
3653,0.6831,0.1182,-0.7417,0.732,-0.061,0.610,171.068,-42.396,148.942
3663,0.6807,0.1196,-0.7412,0.427,-0.061,0.488,171.074,-42.396,148.936
3673,0.6821,0.1216,-0.7402,0.061,-0.061,0.305,171.074,-42.391,148.931
3683,0.6797,0.1221,-0.7393,-0.122,0.061,0.244,171.068,-42.391,148.931
3693,0.6797,0.1226,-0.7383,-0.061,0.061,0.061,171.063,-42.391,148.925
3703,0.6807,0.1221,-0.7393,0.000,0.061,0.000,171.057,-42.391,148.925
3713,0.6812,0.1211,-0.7412,0.122,-0.061,-0.122,171.057,-42.391,148.931
3723,0.6816,0.1191,-0.7402,0.244,-0.122,-0.061,171.057,-42.385,148.931
3733,0.6802,0.1182,-0.7393,0.366,0.000,-0.061,171.057,-42.385,148.931
3743,0.6792,0.1191,-0.7383,0.366,0.122,-0.061,171.057,-42.385,148.931
3753,0.6812,0.1182,-0.7378,0.305,0.183,-0.122,171.057,-42.385,148.936
3763,0.6807,0.1172,-0.7407,0.183,0.183,-0.122,171.057,-42.385,148.936
3773,0.6821,0.1196,-0.7412,0.122,0.061,0.000,171.057,-42.385,148.936
3783,0.6807,0.1206,-0.7388,0.427,-0.061,0.244,171.063,-42.385,148.931
3793,0.6826,0.1182,-0.7402,1.038,-0.122,0.610,171.074,-42.385,148.925
3803,0.6855,0.1172,-0.7397,1.526,-0.183,0.793,171.096,-42.385,148.914
3813,0.6836,0.1128,-0.7393,1.648,-0.305,0.793,171.123,-42.380,148.903
3823,0.6851,0.1108,-0.7427,1.404,-0.244,0.793,171.151,-42.380,148.892
3833,0.6826,0.1099,-0.7412,0.916,-0.061,0.732,171.167,-42.380,148.881
3843,0.6831,0.1099,-0.7383,0.305,0.366,0.549,171.178,-42.385,148.876
3853,0.6807,0.1113,-0.7407,-0.183,0.610,0.366,171.183,-42.391,148.870
3863,0.6816,0.1147,-0.7397,-0.488,0.671,0.305,171.178,-42.396,148.870
3873,0.6812,0.1162,-0.7427,-0.549,0.427,0.305,171.178,-42.402,148.865
3883,0.6821,0.1187,-0.7432,-0.305,0.244,0.427,171.172,-42.402,148.859
3893,0.6846,0.1182,-0.7446,0.000,0.061,0.610,171.178,-42.402,148.854
3903,0.6846,0.1162,-0.7427,0.244,-0.061,0.671,171.183,-42.402,148.843
3913,0.6812,0.1157,-0.7446,0.244,-0.122,0.671,171.194,-42.396,148.832
3923,0.6782,0.1167,-0.7480,-0.061,-0.183,0.610,171.200,-42.391,148.826
3933,0.6782,0.1182,-0.7427,-0.427,-0.244,0.549,171.194,-42.385,148.815
3943,0.6787,0.1211,-0.7407,-0.671,-0.183,0.549,171.189,-42.385,148.810
3953,0.6807,0.1240,-0.7383,-0.549,-0.244,0.488,171.183,-42.380,148.804
3963,0.6807,0.1235,-0.7393,-0.061,-0.244,0.549,171.178,-42.380,148.793
3973,0.6821,0.1216,-0.7368,0.305,-0.183,0.488,171.183,-42.380,148.788
3983,0.6821,0.1201,-0.7373,0.549,0.000,0.366,171.183,-42.380,148.782
3993,0.6826,0.1196,-0.7388,0.427,0.244,0.183,171.189,-42.380,148.782
4003,0.6821,0.1196,-0.7422,0.183,0.488,-0.061,171.183,-42.385,148.782
4013,0.6812,0.1167,-0.7417,-0.183,0.732,-0.244,171.178,-42.391,148.788
4023,0.6816,0.1167,-0.7427,-0.427,0.854,-0.305,171.167,-42.396,148.793
4033,0.6821,0.1167,-0.7402,-0.427,0.793,-0.366,171.161,-42.402,148.799
4043,0.6831,0.1177,-0.7397,-0.244,0.671,-0.244,171.151,-42.407,148.804
4053,0.6812,0.1182,-0.7393,0.061,0.427,-0.061,171.151,-42.413,148.804
4063,0.6836,0.1187,-0.7407,0.366,0.183,0.122,171.151,-42.413,148.804
4073,0.6831,0.1167,-0.7393,0.549,0.061,0.244,171.156,-42.413,148.799
4083,0.6831,0.1143,-0.7412,0.610,0.000,0.183,171.167,-42.413,148.799
4093,0.6831,0.1143,-0.7427,0.305,0.000,0.061,171.172,-42.413,148.799
4103,0.6812,0.1143,-0.7407,-0.061,0.061,-0.061,171.167,-42.413,148.799
4114,0.6807,0.1143,-0.7407,-0.366,0.244,-0.122,171.167,-42.413,148.799
4123,0.6787,0.1187,-0.7417,-0.427,0.366,-0.061,171.156,-42.413,148.804
4133,0.6782,0.1216,-0.7388,-0.183,0.427,0.061,171.151,-42.413,148.804
4143,0.6812,0.1211,-0.7393,0.366,0.366,0.244,171.151,-42.418,148.799
4153,0.6826,0.1196,-0.7402,0.793,0.244,0.366,171.156,-42.418,148.793
4163,0.6855,0.1187,-0.7417,0.977,0.122,0.366,171.167,-42.418,148.793
4173,0.6855,0.1167,-0.7427,0.854,0.122,0.244,171.178,-42.424,148.788
4183,0.6875,0.1138,-0.7422,0.427,0.061,-0.061,171.183,-42.424,148.788
4193,0.6851,0.1128,-0.7402,-0.061,0.122,-0.305,171.183,-42.424,148.793
4203,0.6841,0.1147,-0.7383,-0.549,0.122,-0.549,171.172,-42.424,148.799
4213,0.6826,0.1182,-0.7417,-0.793,0.183,-0.671,171.156,-42.424,148.810
4223,0.6816,0.1182,-0.7407,-0.732,0.183,-0.488,171.140,-42.424,148.815
4233,0.6802,0.1182,-0.7407,-0.305,0.244,-0.244,171.134,-42.424,148.821
4243,0.6802,0.1177,-0.7393,0.305,0.305,0.122,171.134,-42.424,148.821
4253,0.6826,0.1167,-0.7397,0.793,0.427,0.366,171.145,-42.429,148.815
4263,0.6836,0.1157,-0.7378,0.977,0.549,0.366,171.156,-42.435,148.810
4273,0.6836,0.1138,-0.7383,0.671,0.549,0.244,171.161,-42.440,148.810
4283,0.6831,0.1162,-0.7407,0.122,0.549,0.061,171.161,-42.446,148.810
4293,0.6802,0.1211,-0.7388,-0.305,0.549,-0.122,171.156,-42.451,148.815
4303,0.6802,0.1235,-0.7388,-0.366,0.610,-0.244,171.140,-42.451,148.815
4313,0.6797,0.1230,-0.7402,-0.061,0.427,-0.305,171.134,-42.457,148.821
4323,0.6831,0.1245,-0.7417,0.183,0.122,-0.366,171.123,-42.451,148.826
4333,0.6841,0.1211,-0.7407,0.427,-0.061,-0.366,171.118,-42.451,148.832
4344,0.6870,0.1157,-0.7412,0.488,-0.061,-0.366,171.123,-42.451,148.837
4354,0.6875,0.1123,-0.7417,0.183,-0.061,-0.427,171.123,-42.451,148.843
4364,0.6855,0.1108,-0.7417,-0.122,-0.061,-0.549,171.118,-42.451,148.848
4373,0.6846,0.1113,-0.7417,-0.488,0.000,-0.549,171.112,-42.446,148.859
4384,0.6802,0.1118,-0.7388,-0.732,0.122,-0.366,171.107,-42.446,148.865
4394,0.6772,0.1138,-0.7412,-0.732,0.305,-0.122,171.101,-42.446,148.865
4404,0.6792,0.1167,-0.7383,-0.549,0.549,0.183,171.096,-42.451,148.865
4414,0.6802,0.1196,-0.7412,-0.244,0.854,0.427,171.090,-42.457,148.859
4424,0.6821,0.1206,-0.7412,0.000,0.977,0.549,171.090,-42.462,148.854
4434,0.6846,0.1191,-0.7393,0.122,1.038,0.549,171.096,-42.473,148.848
4444,0.6855,0.1201,-0.7407,0.061,1.099,0.427,171.096,-42.484,148.848
4454,0.6851,0.1167,-0.7446,-0.244,0.977,0.183,171.090,-42.495,148.843
4464,0.6860,0.1152,-0.7441,-0.732,0.671,-0.244,171.079,-42.501,148.848
4474,0.6851,0.1162,-0.7441,-1.221,0.427,-0.488,171.063,-42.501,148.859
4484,0.6826,0.1152,-0.7432,-1.587,0.183,-0.671,171.046,-42.501,148.865
4494,0.6831,0.1152,-0.7397,-1.709,0.000,-0.549,171.024,-42.495,148.876
4504,0.6812,0.1138,-0.7397,-1.587,-0.122,-0.366,171.008,-42.495,148.876
4514,0.6812,0.1152,-0.7368,-1.221,-0.305,-0.122,170.997,-42.490,148.876
4524,0.6821,0.1172,-0.7378,-0.732,-0.488,0.305,170.991,-42.484,148.876
4534,0.6831,0.1221,-0.7363,-0.061,-0.610,0.671,170.991,-42.479,148.876
4544,0.6826,0.1255,-0.7378,0.488,-0.793,0.977,171.002,-42.473,148.876
4554,0.6841,0.1255,-0.7407,0.916,-0.977,1.099,171.013,-42.462,148.859
4564,0.6836,0.1250,-0.7383,1.099,-0.977,0.977,171.030,-42.451,148.843
4574,0.6831,0.1270,-0.7368,0.916,-0.854,0.732,171.041,-42.446,148.832
4584,0.6821,0.1304,-0.7373,0.488,-0.732,0.427,171.041,-42.440,148.821
4594,0.6782,0.1348,-0.7344,0.183,-0.671,0.061,171.024,-42.429,148.821
4604,0.6792,0.1357,-0.7319,0.244,-0.732,-0.305,171.013,-42.424,148.826
4614,0.6802,0.1392,-0.7339,0.610,-0.916,-0.610,170.997,-42.413,148.832
4624,0.6812,0.1421,-0.7319,1.160,-1.160,-0.793,170.980,-42.402,148.837
4634,0.6787,0.1367,-0.7334,1.831,-1.404,-0.732,170.980,-42.385,148.843
4644,0.6797,0.1309,-0.7329,2.502,-1.343,-0.610,170.991,-42.369,148.848
4654,0.6768,0.1230,-0.7373,2.747,-0.732,-0.671,171.008,-42.358,148.859
4664,0.6748,0.1118,-0.7388,2.319,0.488,-1.038,171.024,-42.358,148.870
4674,0.6758,0.1050,-0.7393,1.160,1.892,-1.587,171.030,-42.374,148.898
4684,0.6782,0.1011,-0.7446,-0.366,2.808,-2.075,171.013,-42.396,148.931
4694,0.6821,0.1050,-0.7437,-1.526,3.113,-2.136,170.986,-42.418,148.969
4704,0.6855,0.1074,-0.7446,-1.709,2.930,-1.648,170.958,-42.446,148.997
4714,0.6865,0.1064,-0.7441,-0.854,2.197,-0.854,170.947,-42.468,149.013
4724,0.6875,0.1060,-0.7466,0.549,1.038,0.061,170.964,-42.473,149.013
4734,0.6880,0.1050,-0.7461,1.831,-0.244,0.854,170.997,-42.473,149.002
4744,0.6875,0.1040,-0.7480,2.380,-1.282,1.343,171.046,-42.462,148.980
4754,0.6865,0.1025,-0.7476,1.953,-1.831,1.587,171.096,-42.446,148.953
4764,0.6841,0.1045,-0.7451,0.977,-1.770,1.526,171.129,-42.429,148.931
4774,0.6821,0.1074,-0.7393,-0.244,-1.282,1.099,171.145,-42.418,148.914
4784,0.6812,0.1128,-0.7368,-1.282,-0.732,0.671,171.140,-42.413,148.903
4794,0.6797,0.1177,-0.7373,-1.892,-0.427,0.305,171.123,-42.407,148.898
4804,0.6812,0.1226,-0.7349,-1.953,-0.183,0.244,171.101,-42.407,148.892
4814,0.6826,0.1245,-0.7368,-1.648,-0.122,0.305,171.079,-42.407,148.892
4824,0.6860,0.1230,-0.7378,-0.977,-0.122,0.488,171.068,-42.407,148.881
4834,0.6821,0.1230,-0.7412,-0.427,0.000,0.732,171.068,-42.407,148.876
4844,0.6821,0.1196,-0.7427,-0.183,0.305,0.854,171.068,-42.407,148.865
4854,0.6826,0.1167,-0.7412,-0.305,0.793,0.854,171.074,-42.418,148.854
4864,0.6787,0.1143,-0.7422,-0.732,1.404,0.671,171.074,-42.429,148.848
4874,0.6826,0.1162,-0.7422,-1.404,1.587,0.366,171.057,-42.440,148.843
4884,0.6831,0.1221,-0.7412,-1.892,1.282,0.122,171.035,-42.451,148.848
4894,0.6836,0.1289,-0.7383,-1.770,0.610,0.244,171.008,-42.457,148.843
4904,0.6826,0.1318,-0.7378,-1.038,-0.061,0.610,170.991,-42.457,148.837
4914,0.6841,0.1323,-0.7383,0.183,-0.610,0.916,170.991,-42.451,148.821
4924,0.6836,0.1284,-0.7373,1.221,-0.977,1.160,171.008,-42.446,148.804
4934,0.6797,0.1240,-0.7383,1.648,-1.038,1.038,171.030,-42.435,148.788
4944,0.6787,0.1196,-0.7363,1.282,-0.732,0.610,171.046,-42.429,148.777
4954,0.6768,0.1216,-0.7383,0.305,-0.122,0.061,171.046,-42.424,148.777
4964,0.6792,0.1235,-0.7373,-0.610,0.610,-0.427,171.030,-42.429,148.782
4974,0.6797,0.1235,-0.7363,-1.160,1.099,-0.854,171.002,-42.435,148.799
4984,0.6807,0.1245,-0.7339,-1.038,1.343,-1.038,170.975,-42.446,148.815
4994,0.6816,0.1226,-0.7354,-0.488,1.160,-0.977,170.958,-42.457,148.832
5004,0.6831,0.1201,-0.7388,0.183,0.977,-0.732,170.947,-42.462,148.843
5014,0.6851,0.1147,-0.7412,0.671,0.793,-0.427,170.953,-42.473,148.848
5024,0.6851,0.1123,-0.7437,0.732,0.610,0.061,170.964,-42.473,148.848
5034,0.6846,0.1118,-0.7451,0.427,0.549,0.183,170.975,-42.479,148.848
5044,0.6826,0.1118,-0.7417,0.122,0.427,0.183,170.980,-42.484,148.848
5054,0.6831,0.1143,-0.7437,-0.122,0.244,0.183,170.986,-42.484,148.848
5064,0.6836,0.1162,-0.7402,-0.244,0.000,0.244,170.986,-42.484,148.843
5074,0.6870,0.1172,-0.7383,-0.122,-0.183,0.305,170.986,-42.484,148.837
5084,0.6851,0.1162,-0.7388,-0.061,-0.427,0.305,170.991,-42.479,148.832
5094,0.6836,0.1152,-0.7383,0.000,-0.549,0.366,170.997,-42.473,148.826
5104,0.6821,0.1152,-0.7407,-0.122,-0.366,0.427,170.997,-42.468,148.821
5115,0.6802,0.1167,-0.7378,-0.305,0.000,0.427,171.002,-42.468,148.815
5124,0.6777,0.1182,-0.7368,-0.427,0.366,0.427,170.997,-42.468,148.810
5134,0.6782,0.1191,-0.7358,-0.427,0.549,0.488,170.997,-42.473,148.804
5144,0.6812,0.1230,-0.7358,-0.366,0.549,0.427,170.991,-42.479,148.799
5154,0.6860,0.1260,-0.7368,-0.122,0.366,0.427,170.986,-42.484,148.793
5164,0.6875,0.1245,-0.7363,0.244,0.183,0.610,170.986,-42.490,148.788
5174,0.6880,0.1226,-0.7397,0.488,0.122,0.610,170.991,-42.490,148.777
5184,0.6880,0.1172,-0.7422,0.427,0.122,0.488,171.002,-42.495,148.771
5194,0.6846,0.1157,-0.7407,0.183,0.061,0.366,171.008,-42.495,148.766
5204,0.6816,0.1187,-0.7407,-0.366,-0.122,0.305,171.008,-42.490,148.766
5214,0.6836,0.1206,-0.7402,-0.854,-0.183,0.244,170.997,-42.490,148.760
5224,0.6821,0.1240,-0.7383,-0.916,-0.122,0.305,170.986,-42.484,148.755
5234,0.6812,0.1235,-0.7373,-0.427,-0.061,0.427,170.980,-42.484,148.749
5244,0.6816,0.1230,-0.7412,0.244,0.122,0.488,170.986,-42.484,148.744
5254,0.6797,0.1196,-0.7412,0.610,0.305,0.488,170.991,-42.484,148.738
5264,0.6812,0.1201,-0.7397,0.610,0.427,0.366,170.997,-42.490,148.733
5274,0.6841,0.1187,-0.7397,0.183,0.427,0.122,170.997,-42.490,148.733
5284,0.6846,0.1196,-0.7412,-0.305,0.427,-0.061,170.991,-42.495,148.733
5294,0.6831,0.1201,-0.7407,-0.671,0.366,-0.183,170.980,-42.495,148.738
5304,0.6851,0.1187,-0.7407,-0.671,0.244,-0.244,170.975,-42.495,148.744
5314,0.6831,0.1187,-0.7397,-0.488,0.061,-0.183,170.964,-42.495,148.744
5324,0.6831,0.1172,-0.7383,-0.305,-0.122,0.000,170.964,-42.495,148.744
5334,0.6841,0.1182,-0.7378,-0.061,-0.305,0.183,170.964,-42.490,148.738
5344,0.6846,0.1187,-0.7349,0.183,-0.244,0.427,170.969,-42.490,148.733
5354,0.6831,0.1162,-0.7339,0.305,-0.122,0.610,170.975,-42.490,148.727
5364,0.6855,0.1187,-0.7358,0.366,0.061,0.671,170.986,-42.495,148.716
5374,0.6841,0.1201,-0.7358,0.305,0.305,0.671,170.991,-42.501,148.711
5384,0.6821,0.1172,-0.7383,0.183,0.427,0.671,170.997,-42.501,148.700
5394,0.6826,0.1182,-0.7368,0.000,0.549,0.610,171.002,-42.512,148.694
5404,0.6851,0.1191,-0.7344,-0.244,0.488,0.488,171.002,-42.517,148.689
5414,0.6851,0.1221,-0.7388,-0.305,0.366,0.488,170.997,-42.517,148.683
5424,0.6855,0.1226,-0.7354,-0.244,0.183,0.427,170.997,-42.523,148.678
5434,0.6821,0.1230,-0.7383,-0.122,0.000,0.488,170.991,-42.523,148.672
5444,0.6807,0.1235,-0.7378,0.061,-0.061,0.549,170.991,-42.523,148.661
5454,0.6802,0.1216,-0.7388,0.244,0.000,0.549,170.997,-42.517,148.656
5464,0.6841,0.1206,-0.7383,0.244,0.061,0.427,171.002,-42.517,148.651
5474,0.6836,0.1187,-0.7397,0.061,0.183,0.244,171.002,-42.517,148.645
5484,0.6841,0.1206,-0.7407,-0.244,0.244,0.122,170.997,-42.523,148.645
5494,0.6821,0.1191,-0.7383,-0.366,0.305,0.061,170.991,-42.523,148.645
5504,0.6836,0.1201,-0.7388,-0.305,0.305,0.061,170.986,-42.523,148.645
5514,0.6826,0.1201,-0.7402,-0.122,0.366,0.061,170.986,-42.528,148.645
5524,0.6836,0.1196,-0.7432,0.183,0.427,0.122,170.986,-42.528,148.645
5534,0.6846,0.1182,-0.7412,0.427,0.488,0.183,170.991,-42.534,148.645
5544,0.6831,0.1147,-0.7388,0.366,0.549,0.305,170.997,-42.534,148.640
5554,0.6831,0.1143,-0.7393,0.122,0.549,0.427,171.002,-42.539,148.634
5564,0.6851,0.1138,-0.7422,-0.061,0.427,0.427,171.008,-42.545,148.634
5574,0.6860,0.1147,-0.7412,-0.183,0.305,0.427,171.013,-42.545,148.629
5584,0.6865,0.1162,-0.7402,-0.305,0.061,0.366,171.013,-42.550,148.623
5594,0.6865,0.1167,-0.7393,-0.305,-0.061,0.427,171.013,-42.550,148.618
5604,0.6846,0.1182,-0.7407,-0.305,-0.183,0.549,171.013,-42.545,148.607
5615,0.6831,0.1182,-0.7412,-0.183,-0.183,0.610,171.019,-42.545,148.601
5624,0.6831,0.1191,-0.7393,-0.122,-0.183,0.671,171.024,-42.539,148.590
5634,0.6812,0.1201,-0.7373,-0.122,-0.122,0.610,171.024,-42.539,148.579
5644,0.6826,0.1182,-0.7383,-0.244,-0.061,0.610,171.024,-42.539,148.574
5654,0.6836,0.1167,-0.7354,-0.366,0.061,0.610,171.030,-42.539,148.563
5665,0.6841,0.1206,-0.7363,-0.610,0.122,0.488,171.024,-42.539,148.557
5675,0.6851,0.1211,-0.7363,-0.671,0.061,0.366,171.013,-42.545,148.552
5684,0.6841,0.1250,-0.7354,-0.549,0.000,0.366,171.008,-42.545,148.552
5695,0.6860,0.1245,-0.7354,-0.122,-0.061,0.366,171.002,-42.545,148.546
5705,0.6836,0.1216,-0.7358,0.183,-0.122,0.305,171.002,-42.545,148.541
5715,0.6836,0.1191,-0.7368,0.305,-0.183,0.122,171.008,-42.539,148.535
5725,0.6841,0.1201,-0.7397,0.183,-0.244,-0.061,171.002,-42.539,148.541
5735,0.6851,0.1211,-0.7402,-0.122,-0.427,-0.183,171.002,-42.528,148.541
5745,0.6870,0.1226,-0.7388,-0.366,-0.549,-0.244,170.991,-42.523,148.541
5755,0.6851,0.1235,-0.7363,-0.305,-0.610,-0.305,170.980,-42.517,148.546
5765,0.6821,0.1240,-0.7368,-0.061,-0.732,-0.244,170.975,-42.512,148.546
5775,0.6836,0.1250,-0.7368,0.366,-0.977,-0.061,170.969,-42.501,148.546
5785,0.6812,0.1245,-0.7368,0.854,-1.282,0.061,170.975,-42.484,148.541
5795,0.6807,0.1255,-0.7363,1.160,-1.526,0.183,170.986,-42.468,148.535
5805,0.6777,0.1274,-0.7373,1.404,-1.404,0.366,170.997,-42.457,148.530
5815,0.6787,0.1279,-0.7368,1.648,-0.916,0.549,171.013,-42.446,148.519
5825,0.6792,0.1226,-0.7373,1.587,-0.183,0.488,171.024,-42.440,148.513
5835,0.6787,0.1187,-0.7378,1.282,0.549,0.183,171.041,-42.446,148.508
5845,0.6812,0.1172,-0.7388,0.671,1.038,-0.183,171.041,-42.451,148.513
5855,0.6841,0.1167,-0.7383,0.061,1.282,-0.549,171.035,-42.468,148.524
5865,0.6880,0.1167,-0.7393,-0.305,1.221,-0.671,171.024,-42.479,148.535
5875,0.6880,0.1147,-0.7417,-0.183,1.099,-0.610,171.019,-42.490,148.546
5885,0.6890,0.1118,-0.7407,0.183,0.916,-0.366,171.019,-42.495,148.552
5895,0.6855,0.1069,-0.7412,0.549,0.610,-0.122,171.030,-42.501,148.557
5905,0.6841,0.1074,-0.7412,0.549,0.244,0.122,171.041,-42.506,148.557
5915,0.6851,0.1104,-0.7412,0.366,-0.122,0.427,171.057,-42.506,148.552
5925,0.6846,0.1089,-0.7407,0.061,-0.305,0.671,171.068,-42.501,148.541
5935,0.6851,0.1108,-0.7417,-0.061,-0.244,0.854,171.079,-42.501,148.530
5945,0.6846,0.1128,-0.7412,-0.061,-0.183,0.916,171.090,-42.495,148.513
5955,0.6841,0.1157,-0.7393,0.061,-0.122,1.038,171.101,-42.495,148.502
5965,0.6851,0.1191,-0.7368,0.000,-0.183,1.038,171.107,-42.501,148.486
5975,0.6841,0.1226,-0.7368,-0.122,-0.244,0.977,171.112,-42.495,148.475
5985,0.6807,0.1240,-0.7383,-0.122,-0.244,0.854,171.112,-42.495,148.464
5995,0.6831,0.1221,-0.7373,-0.122,-0.061,0.610,171.107,-42.495,148.453
6005,0.6821,0.1206,-0.7368,-0.244,0.061,0.366,171.107,-42.495,148.447
6015,0.6826,0.1191,-0.7402,-0.488,0.305,0.183,171.101,-42.495,148.447
6025,0.6821,0.1172,-0.7432,-0.793,0.793,0.061,171.090,-42.501,148.447
6035,0.6851,0.1138,-0.7368,-1.099,1.282,0.000,171.079,-42.512,148.453
6045,0.6865,0.1128,-0.7368,-1.282,1.465,-0.061,171.068,-42.528,148.453
6055,0.6851,0.1143,-0.7383,-1.465,1.038,-0.061,171.052,-42.539,148.458
6065,0.6860,0.1187,-0.7407,-1.221,0.366,0.183,171.041,-42.545,148.453
6075,0.6909,0.1201,-0.7378,-0.732,-0.183,0.610,171.035,-42.545,148.447
6085,0.6870,0.1172,-0.7402,-0.061,-0.549,0.977,171.041,-42.539,148.431
6095,0.6875,0.1177,-0.7397,0.366,-0.549,1.099,171.057,-42.539,148.414
6105,0.6816,0.1172,-0.7412,0.366,-0.366,0.977,171.068,-42.534,148.403
6115,0.6787,0.1172,-0.7378,-0.183,-0.122,0.732,171.074,-42.528,148.392
6125,0.6792,0.1201,-0.7378,-0.977,-0.061,0.366,171.063,-42.528,148.387
6135,0.6792,0.1235,-0.7368,-1.587,0.000,0.061,171.041,-42.523,148.387
6145,0.6807,0.1245,-0.7388,-1.587,-0.061,-0.122,171.019,-42.523,148.387
6155,0.6836,0.1230,-0.7397,-1.160,-0.122,-0.122,171.002,-42.517,148.392
6165,0.6851,0.1182,-0.7417,-0.610,-0.244,-0.061,170.997,-42.512,148.392
6175,0.6860,0.1152,-0.7402,-0.305,-0.305,0.000,170.997,-42.512,148.387
6185,0.6831,0.1147,-0.7383,-0.305,-0.305,0.122,170.997,-42.506,148.387
6195,0.6792,0.1143,-0.7388,-0.488,-0.244,0.244,170.997,-42.501,148.381
6205,0.6782,0.1196,-0.7397,-0.610,-0.122,0.366,170.991,-42.501,148.376
6215,0.6816,0.1196,-0.7383,-0.427,0.000,0.549,170.991,-42.501,148.370
6225,0.6816,0.1230,-0.7393,-0.061,0.000,0.732,170.991,-42.495,148.359
6235,0.6841,0.1235,-0.7358,0.305,-0.061,0.854,170.997,-42.501,148.348
6245,0.6851,0.1240,-0.7368,0.427,-0.183,0.916,171.002,-42.501,148.337
6255,0.6851,0.1235,-0.7368,0.427,-0.183,0.793,171.008,-42.495,148.326
6265,0.6851,0.1245,-0.7373,0.244,-0.183,0.549,171.013,-42.495,148.315
6275,0.6836,0.1235,-0.7383,-0.061,-0.244,0.244,171.008,-42.495,148.315
6285,0.6812,0.1221,-0.7388,-0.366,-0.183,-0.061,171.002,-42.490,148.315
6295,0.6816,0.1221,-0.7378,-0.488,-0.061,-0.244,170.991,-42.490,148.315
6305,0.6816,0.1226,-0.7358,-0.488,0.061,-0.244,170.975,-42.490,148.321
6315,0.6807,0.1182,-0.7354,-0.366,0.183,-0.244,170.969,-42.490,148.326
6325,0.6812,0.1177,-0.7388,-0.183,0.244,-0.183,170.964,-42.490,148.326
6335,0.6826,0.1157,-0.7402,0.000,0.366,-0.122,170.964,-42.490,148.332
6345,0.6821,0.1162,-0.7373,0.061,0.427,0.000,170.969,-42.495,148.332
6355,0.6836,0.1157,-0.7383,0.122,0.427,0.122,170.969,-42.501,148.332
6365,0.6826,0.1191,-0.7388,0.122,0.305,0.366,170.975,-42.501,148.326
6375,0.6816,0.1167,-0.7407,0.183,0.122,0.488,170.980,-42.501,148.321
6385,0.6855,0.1167,-0.7417,0.366,0.061,0.610,170.991,-42.501,148.310
6395,0.6860,0.1162,-0.7422,0.366,0.000,0.610,170.997,-42.501,148.304
6405,0.6860,0.1167,-0.7427,0.183,-0.061,0.549,171.008,-42.501,148.293
6415,0.6836,0.1196,-0.7383,-0.183,-0.122,0.549,171.008,-42.501,148.288
6425,0.6826,0.1206,-0.7378,-0.427,-0.244,0.488,171.008,-42.495,148.282
6435,0.6836,0.1226,-0.7368,-0.427,-0.305,0.427,171.002,-42.495,148.277
6445,0.6826,0.1226,-0.7373,-0.244,-0.244,0.366,170.997,-42.490,148.271
6455,0.6831,0.1206,-0.7393,0.000,-0.061,0.427,170.997,-42.490,148.266
6465,0.6831,0.1196,-0.7378,0.122,0.122,0.366,171.002,-42.490,148.260
6475,0.6826,0.1187,-0.7373,0.122,0.244,0.305,171.002,-42.495,148.255
6485,0.6826,0.1182,-0.7393,0.061,0.427,0.244,171.002,-42.495,148.255
6495,0.6821,0.1182,-0.7417,-0.183,0.549,0.183,171.002,-42.501,148.250
6505,0.6821,0.1177,-0.7417,-0.366,0.488,0.122,171.002,-42.501,148.250
6515,0.6812,0.1196,-0.7397,-0.488,0.366,0.183,170.997,-42.506,148.250
6525,0.6797,0.1177,-0.7393,-0.427,0.244,0.183,170.991,-42.506,148.250
6535,0.6812,0.1191,-0.7393,-0.244,0.183,0.305,170.991,-42.506,148.244
6545,0.6821,0.1191,-0.7397,0.061,0.183,0.366,170.991,-42.506,148.239
6555,0.6821,0.1201,-0.7383,0.244,0.183,0.488,170.997,-42.506,148.233
6565,0.6846,0.1191,-0.7397,0.305,0.122,0.549,171.002,-42.506,148.228
6575,0.6860,0.1206,-0.7378,0.305,-0.061,0.427,171.008,-42.506,148.222
6585,0.6841,0.1201,-0.7388,0.183,-0.122,0.305,171.008,-42.506,148.217
6595,0.6851,0.1191,-0.7393,0.000,-0.183,0.183,171.008,-42.506,148.211
6605,0.6846,0.1196,-0.7397,-0.122,-0.061,0.061,171.008,-42.506,148.211
6616,0.6841,0.1191,-0.7397,-0.244,0.000,-0.061,171.002,-42.501,148.211
6625,0.6841,0.1182,-0.7363,-0.305,0.122,-0.122,170.997,-42.506,148.217
6635,0.6812,0.1211,-0.7349,-0.305,0.244,0.000,170.991,-42.506,148.217
6645,0.6802,0.1206,-0.7349,-0.122,0.305,0.061,170.986,-42.506,148.217
6655,0.6831,0.1182,-0.7363,0.122,0.366,0.183,170.986,-42.512,148.211
6665,0.6831,0.1177,-0.7388,0.244,0.366,0.305,170.991,-42.517,148.211
6675,0.6831,0.1172,-0.7388,0.305,0.488,0.305,170.997,-42.517,148.206
6685,0.6821,0.1167,-0.7417,0.244,0.549,0.305,171.002,-42.523,148.206
6695,0.6841,0.1152,-0.7402,0.061,0.549,0.305,171.002,-42.528,148.200
6705,0.6841,0.1167,-0.7402,-0.244,0.488,0.244,171.002,-42.534,148.200
6715,0.6836,0.1182,-0.7427,-0.427,0.366,0.183,171.002,-42.534,148.200
6725,0.6826,0.1187,-0.7427,-0.427,0.244,0.244,170.997,-42.534,148.195
6735,0.6807,0.1187,-0.7402,-0.305,0.122,0.305,170.997,-42.534,148.189
6745,0.6792,0.1211,-0.7397,-0.183,0.061,0.488,170.997,-42.528,148.184
6755,0.6812,0.1191,-0.7368,0.000,0.122,0.610,170.997,-42.528,148.178
6765,0.6826,0.1182,-0.7407,0.122,0.061,0.549,171.002,-42.528,148.167
6775,0.6831,0.1196,-0.7363,0.122,0.122,0.366,171.008,-42.528,148.167
6785,0.6841,0.1196,-0.7363,0.000,0.183,0.244,171.008,-42.534,148.162
6795,0.6841,0.1162,-0.7388,-0.244,0.427,0.122,171.002,-42.534,148.162
6805,0.6841,0.1172,-0.7383,-0.488,0.671,0.000,170.997,-42.545,148.162
6815,0.6831,0.1177,-0.7388,-0.732,0.916,-0.061,170.986,-42.550,148.167
6825,0.6826,0.1177,-0.7388,-0.793,0.977,0.000,170.980,-42.556,148.167
6835,0.6807,0.1191,-0.7397,-0.732,0.916,0.122,170.969,-42.561,148.167
6845,0.6831,0.1191,-0.7393,-0.488,0.793,0.366,170.964,-42.572,148.167
6855,0.6826,0.1196,-0.7383,-0.244,0.671,0.610,170.964,-42.578,148.156
6865,0.6831,0.1196,-0.7407,0.122,0.610,0.732,170.969,-42.583,148.151
6876,0.6841,0.1191,-0.7393,0.305,0.427,0.793,170.980,-42.583,148.140
6886,0.6836,0.1206,-0.7393,0.244,0.305,0.732,170.986,-42.589,148.129
6896,0.6841,0.1216,-0.7383,0.061,0.122,0.549,170.986,-42.589,148.123
6906,0.6851,0.1226,-0.7388,-0.244,-0.061,0.366,170.986,-42.589,148.118
6916,0.6860,0.1211,-0.7378,-0.427,-0.183,0.183,170.980,-42.583,148.118
6926,0.6875,0.1211,-0.7393,-0.488,-0.244,0.061,170.975,-42.583,148.112
6936,0.6875,0.1206,-0.7368,-0.427,-0.244,0.000,170.964,-42.578,148.112
6946,0.6860,0.1191,-0.7358,-0.305,-0.305,-0.061,170.964,-42.578,148.112
6956,0.6885,0.1162,-0.7344,-0.305,-0.427,-0.122,170.958,-42.578,148.112
6966,0.6855,0.1162,-0.7368,-0.366,-0.488,-0.122,170.953,-42.572,148.118
6976,0.6836,0.1177,-0.7373,-0.488,-0.549,-0.061,170.953,-42.567,148.112
6986,0.6831,0.1221,-0.7363,-0.427,-0.549,0.122,170.942,-42.556,148.112
6996,0.6831,0.1221,-0.7349,-0.244,-0.549,0.244,170.942,-42.550,148.107
7006,0.6816,0.1211,-0.7383,0.061,-0.488,0.427,170.942,-42.545,148.101
7016,0.6812,0.1255,-0.7388,0.427,-0.488,0.488,170.947,-42.539,148.096
7026,0.6816,0.1265,-0.7383,0.610,-0.610,0.549,170.953,-42.534,148.085
7036,0.6792,0.1270,-0.7393,0.793,-0.793,0.488,170.958,-42.523,148.074
7046,0.6802,0.1284,-0.7407,0.854,-0.977,0.305,170.964,-42.512,148.068
7056,0.6812,0.1304,-0.7393,0.854,-1.099,0.000,170.964,-42.495,148.068
7066,0.6836,0.1299,-0.7393,0.854,-1.160,-0.244,170.964,-42.484,148.068
7076,0.6831,0.1289,-0.7378,0.854,-0.916,-0.305,170.958,-42.473,148.068
7086,0.6802,0.1299,-0.7383,0.854,-0.366,-0.305,170.958,-42.468,148.074
7096,0.6792,0.1250,-0.7339,0.854,0.122,-0.427,170.953,-42.462,148.074
7106,0.6772,0.1255,-0.7324,0.793,0.366,-0.610,170.953,-42.468,148.074
7116,0.6802,0.1230,-0.7349,0.732,0.488,-0.793,170.947,-42.468,148.074
7126,0.6816,0.1201,-0.7339,0.793,0.732,-0.854,170.942,-42.473,148.074
7136,0.6851,0.1177,-0.7368,0.916,0.916,-0.854,170.942,-42.484,148.074
7146,0.6870,0.1118,-0.7368,0.977,0.977,-0.854,170.947,-42.495,148.074
7156,0.6904,0.1069,-0.7383,0.793,1.038,-0.916,170.953,-42.506,148.074
7166,0.6885,0.1050,-0.7407,0.488,1.038,-0.854,170.958,-42.517,148.074
7176,0.6890,0.1040,-0.7441,0.122,1.099,-0.671,170.964,-42.528,148.074
7186,0.6860,0.1040,-0.7437,-0.183,0.977,-0.244,170.969,-42.534,148.074
7196,0.6865,0.1060,-0.7441,-0.183,0.732,0.183,170.975,-42.539,148.074
7206,0.6851,0.1079,-0.7441,0.000,0.366,0.610,170.991,-42.545,148.074
7216,0.6851,0.1104,-0.7432,0.244,-0.122,0.977,171.008,-42.539,148.074
7226,0.6870,0.1118,-0.7417,0.427,-0.549,1.282,171.024,-42.539,148.057
7236,0.6851,0.1143,-0.7407,0.427,-0.916,1.404,171.046,-42.528,148.035
7246,0.6826,0.1162,-0.7412,0.244,-0.977,1.404,171.063,-42.523,148.013
7256,0.6816,0.1196,-0.7368,0.000,-0.916,1.343,171.074,-42.512,147.991
7266,0.6777,0.1250,-0.7324,-0.305,-0.854,1.160,171.074,-42.506,147.975
7276,0.6807,0.1309,-0.7319,-0.366,-0.793,1.038,171.068,-42.495,147.958
7286,0.6812,0.1328,-0.7349,-0.061,-0.610,0.854,171.063,-42.490,147.947
7296,0.6836,0.1328,-0.7334,0.366,-0.305,0.671,171.063,-42.490,147.936
7306,0.6826,0.1289,-0.7324,0.610,-0.061,0.366,171.063,-42.490,147.931
7316,0.6846,0.1250,-0.7339,0.549,0.183,-0.061,171.057,-42.495,147.936
7326,0.6855,0.1201,-0.7354,0.061,0.366,-0.488,171.052,-42.501,147.942
7336,0.6841,0.1187,-0.7383,-0.549,0.916,-0.854,171.035,-42.506,147.953
7346,0.6831,0.1152,-0.7402,-1.038,1.404,-1.038,171.013,-42.517,147.975
7356,0.6807,0.1157,-0.7417,-1.221,1.709,-0.977,170.991,-42.528,147.991
7366,0.6807,0.1152,-0.7402,-0.977,1.526,-0.671,170.975,-42.539,148.002
7376,0.6816,0.1157,-0.7422,-0.427,0.977,-0.122,170.969,-42.545,148.002
7386,0.6836,0.1182,-0.7427,0.427,0.366,0.366,170.975,-42.545,148.002
7396,0.6860,0.1143,-0.7432,1.099,0.000,0.671,170.997,-42.545,147.991
7406,0.6865,0.1133,-0.7437,1.343,-0.244,0.793,171.019,-42.545,147.980
7416,0.6851,0.1118,-0.7437,0.916,-0.305,0.671,171.041,-42.539,147.969
7426,0.6841,0.1128,-0.7402,0.000,-0.366,0.366,171.046,-42.534,147.964
7436,0.6855,0.1162,-0.7397,-0.854,-0.305,0.061,171.041,-42.534,147.964
7446,0.6816,0.1187,-0.7378,-1.343,-0.183,-0.122,171.024,-42.528,147.964
7456,0.6816,0.1226,-0.7349,-1.282,0.000,-0.183,171.002,-42.528,147.969
7466,0.6831,0.1245,-0.7358,-0.732,0.000,0.000,170.991,-42.528,147.969
7476,0.6812,0.1230,-0.7344,0.000,-0.122,0.183,170.986,-42.528,147.964
7486,0.6846,0.1216,-0.7373,0.610,-0.183,0.366,170.997,-42.523,147.958
7496,0.6851,0.1191,-0.7349,0.793,-0.244,0.305,171.002,-42.523,147.953
7506,0.6851,0.1177,-0.7358,0.610,-0.122,0.122,171.008,-42.523,147.953
7516,0.6846,0.1162,-0.7383,0.122,0.061,-0.122,171.008,-42.523,147.953
7526,0.6836,0.1172,-0.7397,-0.427,0.366,-0.366,171.002,-42.523,147.958
7536,0.6821,0.1196,-0.7402,-0.854,0.549,-0.549,170.986,-42.528,147.969
7546,0.6816,0.1196,-0.7388,-1.038,0.610,-0.488,170.969,-42.528,147.975
7556,0.6836,0.1211,-0.7368,-0.793,0.549,-0.366,170.953,-42.534,147.980
7566,0.6812,0.1211,-0.7393,-0.366,0.305,-0.061,170.947,-42.534,147.986
7576,0.6846,0.1211,-0.7397,0.183,0.061,0.366,170.947,-42.534,147.980
7586,0.6821,0.1191,-0.7402,0.610,-0.122,0.732,170.958,-42.534,147.969
7596,0.6846,0.1182,-0.7422,0.916,-0.305,0.916,170.980,-42.528,147.958
7606,0.6851,0.1187,-0.7373,0.977,-0.305,0.916,170.997,-42.528,147.942
7617,0.6875,0.1172,-0.7393,0.671,-0.305,0.671,171.008,-42.528,147.936
7626,0.6846,0.1162,-0.7393,0.122,-0.244,0.366,171.013,-42.523,147.931
7636,0.6831,0.1172,-0.7373,-0.427,-0.122,0.122,171.008,-42.523,147.925
7646,0.6836,0.1201,-0.7388,-0.854,-0.122,-0.061,170.997,-42.523,147.925
7656,0.6802,0.1255,-0.7383,-0.916,-0.122,-0.122,170.980,-42.517,147.931
7666,0.6777,0.1250,-0.7388,-0.427,-0.122,0.000,170.975,-42.512,147.931
7676,0.6782,0.1279,-0.7349,0.244,-0.061,0.183,170.969,-42.506,147.925
7686,0.6821,0.1265,-0.7373,0.793,-0.122,0.305,170.969,-42.506,147.920
7696,0.6821,0.1230,-0.7393,1.038,-0.061,0.244,170.980,-42.506,147.920
7706,0.6836,0.1226,-0.7393,0.854,0.122,0.061,170.986,-42.506,147.920
7716,0.6860,0.1191,-0.7383,0.366,0.305,-0.305,170.986,-42.506,147.920
7726,0.6836,0.1177,-0.7388,-0.305,0.549,-0.671,170.975,-42.512,147.931
7736,0.6846,0.1162,-0.7388,-0.854,0.671,-0.977,170.958,-42.517,147.947
7746,0.6851,0.1167,-0.7368,-1.221,0.671,-1.099,170.936,-42.523,147.964
7756,0.6846,0.1172,-0.7349,-1.160,0.610,-0.977,170.914,-42.528,147.975
7766,0.6851,0.1201,-0.7383,-0.793,0.427,-0.671,170.898,-42.528,147.986
7776,0.6821,0.1211,-0.7388,-0.061,0.366,-0.183,170.892,-42.528,147.991
7786,0.6802,0.1172,-0.7397,0.854,0.366,0.305,170.903,-42.534,147.986
7796,0.6826,0.1147,-0.7407,1.221,0.366,0.427,170.920,-42.534,147.980
7806,0.6821,0.1157,-0.7393,0.916,0.305,0.427,170.936,-42.534,147.975
7816,0.6846,0.1157,-0.7412,0.305,0.244,0.366,170.942,-42.539,147.975
7826,0.6870,0.1152,-0.7402,-0.305,0.366,0.244,170.947,-42.539,147.969
7836,0.6880,0.1143,-0.7422,-0.793,0.488,0.000,170.942,-42.545,147.969
7846,0.6880,0.1147,-0.7393,-1.099,0.427,-0.244,170.925,-42.550,147.975
7856,0.6875,0.1147,-0.7393,-1.343,0.244,-0.305,170.914,-42.556,147.980
7866,0.6875,0.1147,-0.7402,-1.404,0.000,-0.061,170.903,-42.556,147.980
7876,0.6860,0.1157,-0.7368,-1.404,-0.122,0.305,170.892,-42.550,147.975
7886,0.6836,0.1187,-0.7397,-1.099,0.000,0.549,170.887,-42.550,147.969
7896,0.6836,0.1196,-0.7383,-0.732,0.183,0.793,170.887,-42.556,147.958
7906,0.6831,0.1206,-0.7363,-0.488,0.366,0.916,170.887,-42.556,147.947
7916,0.6821,0.1226,-0.7393,-0.488,0.427,0.854,170.887,-42.561,147.936
7926,0.6836,0.1255,-0.7363,-0.671,0.305,0.854,170.881,-42.567,147.925
7936,0.6855,0.1284,-0.7373,-0.854,0.244,0.732,170.870,-42.567,147.914
7946,0.6855,0.1284,-0.7388,-0.854,0.061,0.488,170.859,-42.567,147.909
7956,0.6846,0.1284,-0.7368,-0.793,-0.122,0.366,170.848,-42.567,147.903
7966,0.6812,0.1294,-0.7388,-0.671,-0.244,0.183,170.837,-42.561,147.903
7976,0.6802,0.1289,-0.7368,-0.610,-0.244,0.000,170.821,-42.556,147.903
7986,0.6797,0.1289,-0.7339,-0.549,-0.244,-0.061,170.810,-42.550,147.903
7996,0.6787,0.1289,-0.7344,-0.549,-0.244,-0.183,170.793,-42.545,147.903
8006,0.6807,0.1284,-0.7354,-0.366,-0.183,-0.183,170.782,-42.545,147.909
8016,0.6836,0.1279,-0.7368,-0.122,0.000,-0.183,170.771,-42.539,147.909
8027,0.6816,0.1260,-0.7354,0.244,0.183,-0.122,170.766,-42.545,147.909
8036,0.6860,0.1230,-0.7358,0.366,0.366,-0.122,170.766,-42.545,147.914
8047,0.6880,0.1206,-0.7373,0.305,0.427,-0.244,170.766,-42.550,147.920
8057,0.6895,0.1182,-0.7373,0.061,0.427,-0.427,170.766,-42.556,147.925
8067,0.6885,0.1187,-0.7383,-0.244,0.244,-0.549,170.760,-42.561,147.931
8076,0.6865,0.1206,-0.7388,-0.366,0.000,-0.427,170.750,-42.556,147.936
8087,0.6821,0.1211,-0.7388,-0.183,-0.122,-0.244,170.744,-42.556,147.942
8097,0.6841,0.1196,-0.7397,0.122,-0.305,-0.061,170.750,-42.550,147.942
8107,0.6816,0.1211,-0.7373,0.427,-0.488,0.244,170.755,-42.545,147.936
8117,0.6831,0.1206,-0.7383,0.732,-0.488,0.427,170.766,-42.539,147.931
8127,0.6860,0.1187,-0.7412,0.793,-0.549,0.488,170.782,-42.534,147.920
8137,0.6846,0.1182,-0.7397,0.671,-0.366,0.488,170.793,-42.528,147.914
8147,0.6821,0.1201,-0.7378,0.427,-0.244,0.427,170.799,-42.528,147.909
8157,0.6821,0.1221,-0.7393,0.183,-0.244,0.427,170.804,-42.523,147.903
8167,0.6797,0.1240,-0.7407,0.244,-0.183,0.488,170.810,-42.517,147.892
8177,0.6797,0.1235,-0.7388,0.366,-0.183,0.610,170.815,-42.512,147.887
8187,0.6807,0.1255,-0.7344,0.549,-0.122,0.671,170.821,-42.512,147.876
8197,0.6812,0.1255,-0.7378,0.732,-0.122,0.732,170.832,-42.512,147.865
8207,0.6860,0.1250,-0.7378,0.793,-0.244,0.610,170.843,-42.512,147.859
8217,0.6846,0.1255,-0.7397,0.732,-0.183,0.427,170.848,-42.506,147.854
8227,0.6846,0.1255,-0.7397,0.488,-0.244,0.244,170.848,-42.506,147.849
8237,0.6846,0.1230,-0.7388,0.305,-0.183,0.000,170.848,-42.501,147.849
8247,0.6831,0.1211,-0.7378,0.061,-0.183,-0.183,170.848,-42.501,147.849
8257,0.6816,0.1221,-0.7393,-0.061,-0.122,-0.305,170.843,-42.495,147.854
8267,0.6812,0.1187,-0.7388,-0.122,0.061,-0.244,170.837,-42.495,147.859
8277,0.6807,0.1177,-0.7388,0.000,0.305,-0.122,170.837,-42.495,147.859
8287,0.6821,0.1133,-0.7393,0.122,0.488,0.122,170.843,-42.495,147.859
8297,0.6841,0.1133,-0.7402,0.244,0.610,0.305,170.854,-42.501,147.854
8307,0.6855,0.1133,-0.7402,0.244,0.671,0.549,170.865,-42.512,147.849
8317,0.6860,0.1128,-0.7393,0.061,0.671,0.671,170.876,-42.517,147.843
8327,0.6841,0.1133,-0.7432,-0.183,0.488,0.732,170.881,-42.523,147.832
8337,0.6846,0.1147,-0.7412,-0.488,0.183,0.732,170.887,-42.523,147.827
8347,0.6851,0.1177,-0.7407,-0.671,-0.061,0.854,170.887,-42.523,147.816
8357,0.6851,0.1187,-0.7417,-0.671,-0.305,0.977,170.892,-42.523,147.799
8367,0.6836,0.1196,-0.7388,-0.488,-0.488,1.038,170.898,-42.517,147.783
8377,0.6841,0.1211,-0.7417,-0.244,-0.366,1.099,170.903,-42.512,147.772
8387,0.6841,0.1226,-0.7402,-0.122,-0.244,1.160,170.909,-42.512,147.755
8397,0.6831,0.1245,-0.7388,-0.183,0.000,1.160,170.914,-42.512,147.739
8407,0.6807,0.1294,-0.7334,-0.305,0.061,1.099,170.909,-42.512,147.722
8417,0.6802,0.1313,-0.7354,-0.183,-0.122,0.977,170.909,-42.512,147.711
8427,0.6802,0.1353,-0.7339,0.122,-0.305,0.916,170.903,-42.506,147.695
8437,0.6821,0.1353,-0.7329,0.671,-0.366,0.854,170.903,-42.506,147.684
8447,0.6836,0.1328,-0.7354,1.160,-0.305,0.671,170.909,-42.501,147.673
8457,0.6826,0.1289,-0.7339,1.221,0.000,0.305,170.920,-42.501,147.673
8467,0.6826,0.1255,-0.7373,0.916,0.366,-0.122,170.920,-42.506,147.673
8477,0.6851,0.1221,-0.7358,0.366,0.732,-0.549,170.914,-42.512,147.684
8487,0.6836,0.1216,-0.7393,-0.244,0.916,-0.854,170.898,-42.517,147.695
8497,0.6831,0.1196,-0.7378,-0.610,1.099,-0.977,170.881,-42.528,147.711
8507,0.6846,0.1201,-0.7373,-0.488,0.977,-0.916,170.865,-42.534,147.728
8517,0.6826,0.1191,-0.7397,0.000,0.732,-0.732,170.859,-42.539,147.739
8527,0.6821,0.1152,-0.7373,0.549,0.427,-0.305,170.865,-42.539,147.744
8537,0.6821,0.1128,-0.7393,0.977,0.305,0.061,170.876,-42.545,147.744
8547,0.6846,0.1118,-0.7407,1.099,0.244,0.427,170.898,-42.545,147.739
8557,0.6846,0.1133,-0.7407,0.916,0.183,0.549,170.914,-42.545,147.728
8567,0.6831,0.1123,-0.7412,0.671,0.122,0.610,170.931,-42.545,147.722
8577,0.6836,0.1118,-0.7417,0.366,0.061,0.488,170.942,-42.545,147.717
8587,0.6846,0.1128,-0.7412,-0.061,0.000,0.305,170.953,-42.545,147.711
8597,0.6860,0.1147,-0.7397,-0.366,-0.183,0.244,170.953,-42.545,147.706
8607,0.6855,0.1143,-0.7402,-0.427,-0.183,0.366,170.953,-42.539,147.700
8618,0.6855,0.1133,-0.7412,-0.305,-0.183,0.427,170.958,-42.539,147.695
8627,0.6831,0.1113,-0.7388,-0.244,-0.122,0.549,170.964,-42.539,147.689
8637,0.6865,0.1099,-0.7407,-0.305,-0.061,0.732,170.975,-42.539,147.678
8647,0.6846,0.1099,-0.7422,-0.549,-0.061,0.854,170.986,-42.539,147.667
8657,0.6846,0.1167,-0.7432,-0.793,-0.183,1.038,170.986,-42.534,147.651
8667,0.6826,0.1216,-0.7402,-0.854,-0.244,1.221,170.986,-42.534,147.634
8677,0.6821,0.1260,-0.7378,-0.610,-0.427,1.404,170.986,-42.528,147.618
8687,0.6802,0.1309,-0.7397,-0.183,-0.549,1.587,170.991,-42.523,147.596
8697,0.6816,0.1323,-0.7378,0.244,-0.610,1.526,170.997,-42.517,147.574
8707,0.6792,0.1348,-0.7344,0.488,-0.671,1.343,170.997,-42.512,147.552
8717,0.6812,0.1357,-0.7344,0.427,-0.671,0.854,170.997,-42.501,147.541
8727,0.6802,0.1328,-0.7378,0.183,-0.488,0.305,170.991,-42.495,147.535
8737,0.6821,0.1289,-0.7402,-0.183,-0.183,-0.366,170.975,-42.490,147.541
8747,0.6851,0.1255,-0.7378,-0.610,0.122,-0.854,170.958,-42.490,147.552
8757,0.6821,0.1206,-0.7378,-0.916,0.366,-1.282,170.931,-42.490,147.568
8767,0.6816,0.1182,-0.7388,-0.977,0.549,-1.343,170.909,-42.495,147.585
8777,0.6821,0.1172,-0.7393,-0.916,0.610,-1.160,170.892,-42.495,147.607
8787,0.6812,0.1152,-0.7373,-0.549,0.549,-0.732,170.881,-42.501,147.618
8797,0.6821,0.1133,-0.7412,0.061,0.427,-0.244,170.881,-42.501,147.618
8807,0.6841,0.1118,-0.7407,0.671,0.305,0.305,170.898,-42.506,147.618
8817,0.6851,0.1138,-0.7427,1.099,0.183,0.793,170.920,-42.506,147.607
8827,0.6870,0.1147,-0.7427,1.099,0.183,0.977,170.942,-42.506,147.596
8837,0.6880,0.1133,-0.7417,0.793,0.061,1.038,170.958,-42.512,147.579
8847,0.6860,0.1162,-0.7417,0.366,0.000,0.854,170.975,-42.512,147.568
8857,0.6846,0.1196,-0.7402,-0.061,-0.122,0.732,170.980,-42.512,147.557
8867,0.6846,0.1226,-0.7402,-0.366,-0.305,0.610,170.975,-42.506,147.546
8877,0.6816,0.1245,-0.7373,-0.427,-0.488,0.488,170.969,-42.501,147.541
8887,0.6821,0.1245,-0.7354,-0.183,-0.610,0.549,170.969,-42.495,147.535
8897,0.6807,0.1255,-0.7354,0.122,-0.610,0.610,170.969,-42.490,147.524
8907,0.6816,0.1240,-0.7368,0.366,-0.427,0.610,170.975,-42.484,147.513
8917,0.6826,0.1211,-0.7368,0.488,-0.061,0.610,170.980,-42.484,147.508
8927,0.6846,0.1201,-0.7368,0.488,0.305,0.610,170.991,-42.490,147.497
8937,0.6826,0.1211,-0.7373,0.305,0.671,0.488,170.991,-42.495,147.491
8947,0.6821,0.1221,-0.7373,0.061,0.854,0.366,170.991,-42.506,147.491
8957,0.6816,0.1255,-0.7378,0.000,0.854,0.305,170.986,-42.512,147.486
8967,0.6826,0.1265,-0.7388,0.183,0.854,0.427,170.986,-42.517,147.486
8977,0.6831,0.1270,-0.7373,0.610,0.732,0.610,170.986,-42.528,147.475
8987,0.6821,0.1265,-0.7373,1.160,0.610,0.793,170.997,-42.534,147.469
8997,0.6831,0.1270,-0.7354,1.587,0.549,0.854,171.013,-42.539,147.458
9007,0.6846,0.1226,-0.7324,1.770,0.549,0.916,171.030,-42.545,147.448
9017,0.6821,0.1196,-0.7334,1.587,0.549,0.793,171.052,-42.550,147.437
9027,0.6816,0.1196,-0.7329,1.343,0.671,0.549,171.063,-42.561,147.431
9037,0.6812,0.1206,-0.7314,0.793,0.916,0.305,171.068,-42.572,147.431
9047,0.6772,0.1270,-0.7285,0.427,1.343,0.183,171.063,-42.583,147.431
9057,0.6763,0.1250,-0.7310,0.671,2.075,0.183,171.063,-42.599,147.431
9067,0.6777,0.1235,-0.7354,1.343,3.052,0.183,171.068,-42.627,147.437
9077,0.6802,0.1240,-0.7378,1.892,4.150,0.183,171.074,-42.665,147.442
9087,0.6836,0.1196,-0.7393,2.197,4.883,0.244,171.090,-42.709,147.448
9097,0.6860,0.1113,-0.7432,2.136,5.005,0.305,171.112,-42.759,147.453
9107,0.6865,0.1045,-0.7466,1.587,4.700,0.183,171.129,-42.797,147.464
9118,0.6860,0.1001,-0.7480,0.610,4.211,-0.122,171.140,-42.836,147.475
9127,0.6841,0.0962,-0.7480,-0.183,3.845,-0.305,171.145,-42.869,147.486
9137,0.6875,0.0942,-0.7485,-0.671,3.784,-0.427,171.145,-42.896,147.497
9147,0.6909,0.0889,-0.7510,-0.793,4.028,-0.244,171.151,-42.929,147.508
9157,0.6948,0.0820,-0.7480,-0.732,4.272,0.061,171.167,-42.973,147.519
9167,0.6992,0.0796,-0.7466,-0.854,4.089,0.549,171.183,-43.011,147.519
9177,0.7021,0.0811,-0.7427,-1.221,3.418,1.282,171.205,-43.050,147.508
9187,0.7017,0.0879,-0.7417,-1.587,2.380,2.258,171.227,-43.077,147.486
9197,0.7026,0.0991,-0.7368,-1.648,1.282,3.296,171.249,-43.099,147.442
9207,0.7065,0.1025,-0.7324,-1.221,0.183,4.089,171.282,-43.116,147.387
9217,0.7070,0.1099,-0.7358,-0.549,-0.610,4.333,171.321,-43.116,147.327
9227,0.7070,0.1108,-0.7334,-0.488,-1.160,4.211,171.354,-43.116,147.266
9237,0.7036,0.1079,-0.7305,-1.404,-1.465,3.662,171.381,-43.116,147.217
9247,0.7031,0.1060,-0.7261,-3.357,-1.831,2.747,171.376,-43.110,147.173
9257,0.7144,0.0889,-0.7314,-5.554,-2.197,1.038,171.354,-43.099,147.156
9267,0.7173,0.0850,-0.7407,-8.606,-2.075,-1.404,171.277,-43.083,147.173
9277,0.6914,0.1177,-0.7402,-14.526,0.305,-3.784,171.096,-43.077,147.222
9287,0.6743,0.1440,-0.7256,-15.686,0.854,-2.686,170.892,-43.072,147.261
9297,0.6621,0.1602,-0.7158,-14.160,-0.183,-1.160,170.706,-43.061,147.277
9307,0.6616,0.1782,-0.7144,-10.498,-2.319,0.000,170.557,-43.028,147.272
9317,0.6660,0.1851,-0.7183,-5.493,-3.967,1.587,170.475,-42.979,147.239
9327,0.6719,0.1802,-0.7217,-0.366,-4.211,3.601,170.464,-42.935,147.184
9337,0.6743,0.1689,-0.7178,3.052,-3.113,4.944,170.508,-42.907,147.107
9347,0.6763,0.1587,-0.7183,4.211,-1.892,4.822,170.568,-42.896,147.041
9357,0.6807,0.1523,-0.7197,3.418,-0.916,3.235,170.607,-42.891,146.992
9367,0.6899,0.1465,-0.7236,1.526,0.122,0.916,170.607,-42.896,146.981
9377,0.6934,0.1450,-0.7251,-0.732,1.099,-1.404,170.568,-42.907,147.003
9387,0.6919,0.1460,-0.7266,-2.380,2.075,-3.113,170.491,-42.924,147.052
9397,0.6909,0.1450,-0.7271,-2.808,2.747,-4.211,170.403,-42.946,147.112
9407,0.6875,0.1411,-0.7280,-2.075,2.869,-4.517,170.327,-42.962,147.178
9418,0.6885,0.1313,-0.7300,-0.671,2.441,-4.150,170.272,-42.979,147.244
9428,0.6904,0.1201,-0.7339,0.793,1.831,-3.357,170.250,-42.990,147.294
9438,0.6929,0.1128,-0.7383,1.770,1.282,-2.258,170.255,-42.995,147.327
9448,0.6963,0.1064,-0.7397,2.258,0.793,-1.160,170.283,-43.000,147.343
9458,0.6963,0.1016,-0.7393,2.075,0.427,-0.305,170.321,-43.006,147.349
9468,0.6943,0.1016,-0.7373,1.587,0.061,0.366,170.354,-43.006,147.343
9478,0.6919,0.1040,-0.7373,1.221,-0.183,0.854,170.392,-43.006,147.332
9488,0.6890,0.1113,-0.7363,0.977,-0.244,1.221,170.425,-43.006,147.316
9498,0.6899,0.1143,-0.7354,0.977,-0.061,1.587,170.453,-43.006,147.294
9508,0.6890,0.1182,-0.7363,1.038,0.244,1.770,170.486,-43.006,147.266
9518,0.6919,0.1211,-0.7373,1.038,0.427,1.953,170.513,-43.011,147.244
9528,0.6914,0.1201,-0.7412,0.793,0.488,1.953,170.541,-43.017,147.217
9538,0.6914,0.1230,-0.7397,0.244,0.366,1.709,170.563,-43.022,147.195
9548,0.6919,0.1279,-0.7354,-0.488,-0.122,1.343,170.563,-43.017,147.178
9558,0.6929,0.1304,-0.7319,-1.160,-0.671,1.038,170.557,-43.017,147.162
9568,0.6919,0.1362,-0.7300,-1.465,-1.160,0.793,170.541,-43.006,147.151
9578,0.6899,0.1372,-0.7266,-1.282,-1.343,0.549,170.519,-42.990,147.140
9588,0.6865,0.1362,-0.7256,-0.854,-1.221,0.366,170.508,-42.979,147.129
9598,0.6855,0.1343,-0.7251,-0.427,-0.916,0.244,170.497,-42.973,147.123
9608,0.6846,0.1318,-0.7261,-0.244,-0.488,0.122,170.486,-42.968,147.123
9618,0.6851,0.1289,-0.7271,-0.122,-0.061,0.061,170.480,-42.962,147.123
9628,0.6855,0.1245,-0.7305,-0.122,0.549,0.000,170.475,-42.968,147.123
9638,0.6855,0.1245,-0.7334,-0.183,1.038,-0.061,170.475,-42.973,147.123
9648,0.6880,0.1226,-0.7319,-0.305,1.282,-0.122,170.464,-42.984,147.129
9658,0.6899,0.1187,-0.7339,-0.488,1.160,-0.061,170.464,-42.995,147.134
9668,0.6924,0.1196,-0.7349,-0.854,0.977,0.061,170.458,-43.006,147.134
9678,0.6924,0.1206,-0.7383,-1.038,0.732,0.305,170.453,-43.011,147.134
9688,0.6934,0.1226,-0.7388,-1.038,0.488,0.610,170.447,-43.011,147.123
9698,0.6929,0.1230,-0.7344,-0.793,0.061,0.916,170.447,-43.017,147.112
9708,0.6909,0.1240,-0.7339,-0.549,-0.427,1.099,170.453,-43.011,147.096
9718,0.6904,0.1274,-0.7314,-0.366,-0.854,1.221,170.458,-43.006,147.079
9728,0.6904,0.1279,-0.7329,-0.122,-1.038,1.221,170.464,-42.995,147.057
9738,0.6875,0.1270,-0.7300,0.000,-0.854,1.038,170.475,-42.984,147.047
9748,0.6855,0.1270,-0.7300,-0.122,-0.549,0.732,170.475,-42.979,147.036
9758,0.6865,0.1279,-0.7295,-0.305,-0.183,0.549,170.475,-42.979,147.025
9768,0.6870,0.1299,-0.7271,-0.366,0.183,0.427,170.469,-42.979,147.019
9778,0.6860,0.1333,-0.7271,-0.305,0.488,0.488,170.458,-42.984,147.014
9788,0.6860,0.1353,-0.7305,0.000,0.732,0.488,170.453,-42.990,147.008
9798,0.6890,0.1333,-0.7305,0.427,0.916,0.610,170.453,-43.000,147.003
9808,0.6914,0.1299,-0.7305,0.671,0.793,0.610,170.458,-43.006,146.997
9818,0.6929,0.1274,-0.7324,0.549,0.610,0.488,170.464,-43.017,146.992
9828,0.6943,0.1270,-0.7314,0.000,0.305,0.244,170.464,-43.017,146.992
9838,0.6953,0.1250,-0.7339,-0.549,0.122,0.000,170.458,-43.022,146.992
9848,0.6934,0.1221,-0.7324,-0.977,-0.061,-0.122,170.447,-43.017,146.992
9858,0.6909,0.1221,-0.7295,-1.099,-0.183,-0.244,170.436,-43.017,146.992
9868,0.6924,0.1211,-0.7295,-1.038,-0.122,-0.061,170.425,-43.017,146.997
9878,0.6885,0.1201,-0.7300,-0.854,0.000,0.244,170.420,-43.017,146.992
9888,0.6880,0.1187,-0.7319,-0.488,0.122,0.671,170.425,-43.017,146.981
9898,0.6890,0.1206,-0.7280,-0.183,0.305,1.038,170.436,-43.022,146.970
9908,0.6880,0.1240,-0.7290,0.183,0.366,1.404,170.447,-43.028,146.953
9918,0.6860,0.1255,-0.7310,0.488,0.366,1.648,170.464,-43.033,146.931
9928,0.6885,0.1279,-0.7319,0.671,0.305,1.770,170.486,-43.033,146.904
9938,0.6875,0.1265,-0.7334,0.610,0.305,1.648,170.502,-43.039,146.887
9948,0.6899,0.1274,-0.7354,0.488,0.244,1.343,170.513,-43.039,146.865
9958,0.6899,0.1294,-0.7339,0.061,0.305,0.854,170.519,-43.044,146.854
9968,0.6890,0.1309,-0.7344,-0.488,0.244,0.305,170.508,-43.044,146.854
9978,0.6909,0.1299,-0.7354,-1.038,0.183,-0.244,170.491,-43.039,146.854
9988,0.6914,0.1309,-0.7339,-1.465,0.061,-0.671,170.464,-43.039,146.865
9998,0.6904,0.1294,-0.7349,-1.465,-0.061,-0.916,170.436,-43.033,146.876
10008,0.6880,0.1304,-0.7314,-1.282,-0.122,-0.916,170.409,-43.028,146.887
10018,0.6855,0.1318,-0.7314,-0.793,-0.183,-0.854,170.387,-43.022,146.904
10028,0.6860,0.1299,-0.7295,-0.244,-0.183,-0.549,170.376,-43.017,146.909
10038,0.6870,0.1279,-0.7305,0.366,-0.061,-0.244,170.376,-43.017,146.909
10048,0.6865,0.1260,-0.7305,0.671,0.061,-0.061,170.381,-43.011,146.915
10058,0.6899,0.1250,-0.7339,0.793,0.183,0.000,170.387,-43.011,146.915
10068,0.6909,0.1235,-0.7314,0.549,0.244,-0.061,170.392,-43.017,146.915
10078,0.6904,0.1230,-0.7324,0.183,0.427,-0.183,170.392,-43.017,146.915
10088,0.6929,0.1250,-0.7324,-0.244,0.488,-0.305,170.387,-43.022,146.920
10098,0.6938,0.1240,-0.7314,-0.549,0.427,-0.427,170.376,-43.028,146.931
10108,0.6919,0.1230,-0.7329,-0.793,0.305,-0.610,170.359,-43.028,146.937
10119,0.6909,0.1255,-0.7324,-0.977,0.061,-0.671,170.343,-43.028,146.948
10128,0.6895,0.1260,-0.7324,-1.160,-0.183,-0.610,170.327,-43.022,146.953
10138,0.6890,0.1279,-0.7324,-1.099,-0.305,-0.488,170.310,-43.017,146.959
10148,0.6880,0.1255,-0.7305,-0.732,-0.305,-0.244,170.299,-43.011,146.964
10158,0.6855,0.1260,-0.7280,-0.366,-0.244,-0.183,170.294,-43.006,146.964
10168,0.6860,0.1250,-0.7310,-0.183,-0.183,-0.061,170.294,-43.006,146.964
10178,0.6890,0.1235,-0.7324,-0.244,-0.061,-0.122,170.288,-43.000,146.970
10188,0.6909,0.1250,-0.7344,-0.671,0.061,-0.244,170.283,-43.000,146.970
10198,0.6914,0.1274,-0.7339,-1.160,0.183,-0.305,170.266,-43.000,146.975
10208,0.6924,0.1309,-0.7334,-1.465,0.183,-0.488,170.244,-43.000,146.981
10218,0.6919,0.1309,-0.7334,-1.526,0.122,-0.488,170.217,-43.000,146.992
10228,0.6929,0.1304,-0.7329,-1.343,-0.183,-0.427,170.200,-42.995,146.997
10238,0.6904,0.1304,-0.7314,-1.099,-0.366,-0.366,170.184,-42.990,146.997
10248,0.6895,0.1313,-0.7314,-0.854,-0.549,-0.305,170.167,-42.984,147.003
10258,0.6914,0.1284,-0.7295,-0.732,-0.610,-0.244,170.156,-42.979,147.003
10268,0.6909,0.1313,-0.7295,-0.793,-0.610,-0.183,170.145,-42.973,147.003
10278,0.6890,0.1343,-0.7280,-0.916,-0.549,-0.122,170.129,-42.968,147.003
10288,0.6890,0.1333,-0.7285,-0.854,-0.427,0.061,170.118,-42.962,147.003
10298,0.6919,0.1323,-0.7271,-0.671,-0.244,0.122,170.107,-42.962,147.003
10308,0.6919,0.1299,-0.7285,-0.488,-0.122,0.183,170.101,-42.962,146.997
10318,0.6904,0.1328,-0.7266,-0.427,0.061,0.183,170.096,-42.962,146.997
10328,0.6895,0.1328,-0.7290,-0.488,0.122,0.244,170.090,-42.968,146.992
10338,0.6885,0.1353,-0.7290,-0.549,0.244,0.183,170.079,-42.968,146.992
10348,0.6880,0.1333,-0.7324,-0.549,0.427,0.061,170.068,-42.968,146.992
10358,0.6865,0.1353,-0.7349,-0.427,0.549,-0.122,170.057,-42.973,146.992
10368,0.6855,0.1377,-0.7339,-0.305,0.671,-0.305,170.046,-42.973,146.997
10378,0.6826,0.1357,-0.7339,-0.183,0.793,-0.427,170.035,-42.973,147.008
10388,0.6816,0.1372,-0.7354,0.000,0.793,-0.488,170.019,-42.973,147.014
10398,0.6836,0.1387,-0.7349,0.183,0.671,-0.549,170.008,-42.973,147.025
10408,0.6841,0.1382,-0.7358,0.549,0.427,-0.610,170.002,-42.973,147.036
10418,0.6846,0.1372,-0.7344,0.916,0.183,-0.671,169.997,-42.968,147.041
10428,0.6860,0.1353,-0.7339,1.160,0.122,-0.732,169.997,-42.968,147.052
10438,0.6880,0.1338,-0.7334,1.343,0.000,-0.854,170.002,-42.962,147.063
10448,0.6890,0.1343,-0.7310,1.404,-0.061,-0.916,170.002,-42.957,147.079
10458,0.6875,0.1333,-0.7295,1.526,0.061,-0.977,170.008,-42.957,147.090
10468,0.6870,0.1313,-0.7310,1.587,0.183,-1.160,170.008,-42.957,147.107
10478,0.6880,0.1294,-0.7295,1.587,0.427,-1.282,170.013,-42.957,147.123
10488,0.6895,0.1284,-0.7310,1.404,0.610,-1.465,170.013,-42.957,147.145
10498,0.6904,0.1289,-0.7305,1.099,0.732,-1.587,170.008,-42.962,147.167
10508,0.6909,0.1299,-0.7329,0.916,0.793,-1.648,169.997,-42.968,147.195
10518,0.6934,0.1294,-0.7310,0.977,0.793,-1.587,169.991,-42.973,147.217
10528,0.6958,0.1274,-0.7314,1.099,0.732,-1.587,169.986,-42.979,147.239
10538,0.6938,0.1279,-0.7324,1.160,0.549,-1.465,169.986,-42.984,147.261
10548,0.6929,0.1274,-0.7324,1.099,0.366,-1.343,169.986,-42.984,147.277
10558,0.6914,0.1260,-0.7314,0.977,0.183,-1.160,169.986,-42.984,147.294
10568,0.6924,0.1260,-0.7324,0.610,0.061,-1.038,169.986,-42.984,147.310
10578,0.6929,0.1274,-0.7305,0.366,0.000,-0.916,169.980,-42.984,147.321
10588,0.6934,0.1260,-0.7300,0.183,0.000,-0.793,169.980,-42.984,147.332
10598,0.6934,0.1265,-0.7295,0.000,-0.061,-0.732,169.975,-42.979,147.343
10608,0.6943,0.1255,-0.7295,-0.244,-0.122,-0.671,169.969,-42.979,147.349
10619,0.6914,0.1255,-0.7290,-0.549,-0.183,-0.610,169.964,-42.979,147.360
10628,0.6914,0.1270,-0.7290,-0.854,-0.305,-0.427,169.953,-42.979,147.365
10638,0.6909,0.1279,-0.7300,-1.099,-0.305,-0.305,169.937,-42.973,147.365
10648,0.6899,0.1313,-0.7275,-1.038,-0.244,-0.061,169.926,-42.973,147.365
10658,0.6904,0.1348,-0.7275,-0.793,-0.061,0.244,169.915,-42.973,147.365
10668,0.6895,0.1333,-0.7295,-0.549,0.061,0.366,169.915,-42.973,147.360
10678,0.6909,0.1333,-0.7305,-0.427,0.244,0.366,169.909,-42.973,147.354
10688,0.6909,0.1343,-0.7305,-0.549,0.183,0.244,169.904,-42.979,147.354
10698,0.6904,0.1338,-0.7324,-0.854,0.122,0.061,169.893,-42.979,147.354
10708,0.6914,0.1343,-0.7324,-1.282,0.061,-0.183,169.876,-42.979,147.354
10718,0.6914,0.1313,-0.7339,-1.648,-0.122,-0.427,169.854,-42.973,147.360
10728,0.6895,0.1323,-0.7310,-2.014,-0.305,-0.549,169.827,-42.968,147.365
10738,0.6895,0.1338,-0.7310,-2.075,-0.366,-0.549,169.799,-42.962,147.371
10748,0.6870,0.1367,-0.7324,-1.953,-0.366,-0.488,169.772,-42.957,147.376
10758,0.6851,0.1353,-0.7300,-1.709,-0.366,-0.305,169.750,-42.951,147.382
10768,0.6846,0.1353,-0.7310,-1.404,-0.305,-0.183,169.733,-42.940,147.382
10778,0.6821,0.1362,-0.7319,-1.160,-0.122,0.000,169.722,-42.935,147.382
10788,0.6836,0.1396,-0.7310,-0.977,0.061,0.061,169.706,-42.935,147.382
10798,0.6831,0.1411,-0.7319,-0.671,0.244,0.122,169.695,-42.935,147.382
10808,0.6855,0.1406,-0.7349,-0.427,0.366,0.061,169.684,-42.935,147.382
10818,0.6875,0.1401,-0.7354,-0.244,0.427,-0.122,169.673,-42.935,147.382
10828,0.6895,0.1392,-0.7349,-0.244,0.366,-0.305,169.667,-42.935,147.387
10838,0.6895,0.1362,-0.7358,-0.366,0.183,-0.488,169.656,-42.929,147.398
10848,0.6890,0.1362,-0.7329,-0.732,-0.061,-0.793,169.640,-42.929,147.409
10858,0.6899,0.1387,-0.7329,-1.038,-0.305,-0.916,169.618,-42.924,147.420
10868,0.6890,0.1382,-0.7319,-1.221,-0.488,-0.916,169.596,-42.913,147.431
10878,0.6855,0.1387,-0.7290,-1.038,-0.488,-0.793,169.574,-42.907,147.437
10888,0.6870,0.1387,-0.7305,-0.488,-0.427,-0.549,169.563,-42.902,147.448
10898,0.6860,0.1377,-0.7305,0.122,-0.183,-0.183,169.557,-42.896,147.448
10909,0.6855,0.1372,-0.7275,0.610,0.061,0.061,169.563,-42.896,147.448
10919,0.6865,0.1343,-0.7305,0.793,0.305,0.061,169.574,-42.896,147.448
10928,0.6890,0.1343,-0.7310,0.549,0.488,0.061,169.579,-42.902,147.448
10938,0.6904,0.1353,-0.7314,0.000,0.549,-0.122,169.574,-42.907,147.448
10949,0.6929,0.1323,-0.7329,-0.549,0.488,-0.244,169.568,-42.913,147.453
10959,0.6958,0.1333,-0.7339,-0.854,0.366,-0.305,169.557,-42.913,147.458
10969,0.6948,0.1357,-0.7329,-1.038,0.061,-0.305,169.547,-42.913,147.464
10979,0.6919,0.1362,-0.7344,-1.038,-0.244,-0.183,169.530,-42.913,147.464
10989,0.6890,0.1343,-0.7319,-0.854,-0.488,0.061,169.525,-42.907,147.464
10999,0.6875,0.1348,-0.7305,-0.732,-0.610,0.305,169.525,-42.902,147.458
11009,0.6851,0.1372,-0.7310,-0.488,-0.549,0.488,169.519,-42.891,147.448
11019,0.6855,0.1401,-0.7275,-0.122,-0.305,0.671,169.525,-42.891,147.442
11028,0.6855,0.1396,-0.7271,0.305,0.000,0.732,169.530,-42.891,147.431
11039,0.6875,0.1372,-0.7285,0.488,0.366,0.610,169.536,-42.896,147.426
11049,0.6899,0.1372,-0.7305,0.305,0.610,0.366,169.541,-42.902,147.420
11059,0.6899,0.1396,-0.7295,-0.244,0.610,0.183,169.536,-42.907,147.420
11069,0.6919,0.1411,-0.7295,-0.671,0.427,0.061,169.525,-42.913,147.420
11079,0.6904,0.1382,-0.7310,-0.793,0.244,0.000,169.514,-42.913,147.420
11089,0.6929,0.1401,-0.7344,-0.671,-0.061,-0.061,169.503,-42.913,147.420
11099,0.6904,0.1372,-0.7305,-0.427,-0.183,0.000,169.497,-42.913,147.420
11109,0.6895,0.1343,-0.7329,-0.305,-0.366,0.183,169.497,-42.907,147.415
11119,0.6880,0.1338,-0.7354,-0.366,-0.366,0.305,169.497,-42.902,147.409
11129,0.6875,0.1353,-0.7314,-0.549,-0.305,0.366,169.497,-42.896,147.404
11139,0.6875,0.1392,-0.7305,-0.549,-0.183,0.488,169.492,-42.896,147.398
11149,0.6885,0.1411,-0.7290,-0.244,0.000,0.549,169.492,-42.896,147.393
11159,0.6875,0.1401,-0.7314,0.061,0.305,0.488,169.492,-42.896,147.387
11169,0.6890,0.1406,-0.7295,0.122,0.488,0.427,169.492,-42.902,147.382
11179,0.6909,0.1396,-0.7324,0.061,0.488,0.244,169.492,-42.907,147.382
11189,0.6899,0.1401,-0.7334,-0.122,0.366,0.122,169.486,-42.907,147.376
11199,0.6924,0.1396,-0.7344,-0.366,0.061,-0.061,169.481,-42.907,147.382
11209,0.6919,0.1382,-0.7319,-0.671,-0.183,-0.183,169.470,-42.907,147.382
11219,0.6904,0.1372,-0.7319,-0.916,-0.427,-0.183,169.459,-42.902,147.382
11229,0.6909,0.1377,-0.7329,-0.916,-0.671,-0.061,169.453,-42.896,147.382
11239,0.6890,0.1382,-0.7285,-0.793,-0.854,0.122,169.442,-42.885,147.376
11249,0.6880,0.1387,-0.7295,-0.488,-0.916,0.305,169.442,-42.874,147.371
11259,0.6890,0.1372,-0.7271,-0.122,-0.732,0.549,169.442,-42.874,147.360
11269,0.6895,0.1372,-0.7266,0.061,-0.549,0.793,169.453,-42.869,147.349
11279,0.6885,0.1362,-0.7271,0.122,-0.183,0.793,169.459,-42.869,147.338
11289,0.6885,0.1367,-0.7310,0.000,0.183,0.732,169.464,-42.874,147.332
11299,0.6899,0.1377,-0.7334,-0.244,0.427,0.610,169.464,-42.874,147.321
11309,0.6880,0.1392,-0.7334,-0.427,0.549,0.549,169.464,-42.880,147.316
11319,0.6870,0.1426,-0.7329,-0.549,0.610,0.427,169.459,-42.885,147.310
11329,0.6885,0.1416,-0.7349,-0.671,0.488,0.366,169.448,-42.885,147.310
11339,0.6880,0.1406,-0.7334,-0.610,0.244,0.366,169.442,-42.891,147.305
11349,0.6875,0.1396,-0.7339,-0.549,-0.122,0.305,169.437,-42.885,147.299
11359,0.6885,0.1382,-0.7349,-0.610,-0.366,0.305,169.437,-42.880,147.294
11369,0.6860,0.1353,-0.7349,-0.671,-0.549,0.244,169.431,-42.874,147.288
11379,0.6870,0.1367,-0.7329,-0.793,-0.549,0.305,169.431,-42.863,147.283
11389,0.6855,0.1411,-0.7314,-0.732,-0.488,0.427,169.420,-42.858,147.277
11399,0.6865,0.1401,-0.7305,-0.488,-0.427,0.488,169.420,-42.852,147.272
11409,0.6870,0.1416,-0.7295,-0.061,-0.366,0.610,169.420,-42.852,147.261
11419,0.6885,0.1431,-0.7319,0.244,-0.305,0.671,169.426,-42.847,147.250
11429,0.6875,0.1406,-0.7295,0.366,-0.244,0.610,169.431,-42.847,147.244
11439,0.6895,0.1401,-0.7319,0.244,-0.183,0.427,169.437,-42.841,147.239
11449,0.6880,0.1421,-0.7319,0.000,-0.061,0.305,169.437,-42.841,147.233
11459,0.6875,0.1431,-0.7300,-0.183,0.061,0.183,169.431,-42.841,147.228
11469,0.6860,0.1426,-0.7295,-0.183,0.183,0.061,169.420,-42.841,147.228
11479,0.6860,0.1421,-0.7310,-0.061,0.244,0.000,169.415,-42.841,147.228
11489,0.6860,0.1401,-0.7319,0.000,0.244,0.000,169.415,-42.847,147.233
11499,0.6885,0.1401,-0.7344,0.000,0.122,0.000,169.409,-42.841,147.233
11509,0.6899,0.1387,-0.7300,-0.122,-0.061,0.000,169.409,-42.841,147.233
11519,0.6895,0.1372,-0.7314,-0.183,-0.183,0.000,169.409,-42.841,147.233
11529,0.6895,0.1387,-0.7314,-0.244,-0.183,0.061,169.404,-42.841,147.228
11539,0.6875,0.1362,-0.7300,-0.183,-0.122,0.122,169.404,-42.836,147.228
11549,0.6870,0.1362,-0.7310,-0.183,-0.061,0.244,169.404,-42.836,147.222
11559,0.6865,0.1362,-0.7329,-0.183,0.000,0.366,169.409,-42.836,147.217
11569,0.6875,0.1367,-0.7339,-0.244,0.122,0.488,169.409,-42.836,147.217
11579,0.6890,0.1353,-0.7329,-0.244,0.244,0.549,169.415,-42.841,147.217
11589,0.6890,0.1357,-0.7329,-0.305,0.183,0.671,169.415,-42.841,147.217
11599,0.6890,0.1372,-0.7329,-0.244,0.122,0.732,169.420,-42.841,147.217
11609,0.6875,0.1382,-0.7334,-0.122,-0.122,0.732,169.426,-42.841,147.217
11619,0.6875,0.1382,-0.7363,0.000,-0.244,0.793,169.431,-42.836,147.217
11629,0.6870,0.1382,-0.7354,0.000,-0.305,0.793,169.437,-42.830,147.217
11639,0.6880,0.1396,-0.7349,-0.122,-0.305,0.671,169.442,-42.830,147.217
11649,0.6880,0.1416,-0.7300,-0.244,-0.244,0.610,169.442,-42.825,147.217
11659,0.6865,0.1406,-0.7290,-0.427,-0.305,0.488,169.437,-42.825,147.217
11669,0.6865,0.1426,-0.7295,-0.366,-0.366,0.488,169.437,-42.819,147.217
11679,0.6875,0.1440,-0.7290,-0.183,-0.427,0.488,169.431,-42.819,147.217
11689,0.6885,0.1416,-0.7256,0.000,-0.366,0.488,169.431,-42.814,147.217
11699,0.6865,0.1396,-0.7305,0.061,-0.305,0.427,169.437,-42.814,147.217
11709,0.6885,0.1411,-0.7314,0.061,-0.244,0.427,169.437,-42.808,147.217
11719,0.6875,0.1392,-0.7290,-0.061,-0.122,0.427,169.437,-42.808,147.217
11729,0.6875,0.1411,-0.7314,-0.183,0.000,0.427,169.437,-42.808,147.217
11739,0.6851,0.1401,-0.7300,-0.122,0.183,0.366,169.431,-42.814,147.217
11749,0.6865,0.1401,-0.7305,0.122,0.366,0.305,169.437,-42.814,147.217
11759,0.6855,0.1401,-0.7334,0.183,0.488,0.244,169.437,-42.819,147.217
11769,0.6885,0.1382,-0.7329,0.000,0.549,0.183,169.437,-42.825,147.217
11779,0.6890,0.1372,-0.7363,-0.244,0.488,0.183,169.431,-42.825,147.217
11789,0.6890,0.1372,-0.7383,-0.427,0.427,0.122,169.431,-42.825,147.217
11799,0.6880,0.1362,-0.7354,-0.488,0.366,0.122,169.426,-42.830,147.217
11809,0.6875,0.1367,-0.7354,-0.366,0.244,0.183,169.426,-42.830,147.217
11819,0.6860,0.1343,-0.7363,-0.244,0.000,0.305,169.426,-42.825,147.217
11829,0.6836,0.1348,-0.7349,-0.122,-0.244,0.427,169.431,-42.819,147.217
11839,0.6846,0.1348,-0.7334,-0.122,-0.427,0.549,169.437,-42.814,147.217
11849,0.6846,0.1357,-0.7314,-0.061,-0.488,0.610,169.442,-42.808,147.217
11859,0.6851,0.1372,-0.7319,-0.061,-0.488,0.610,169.448,-42.803,147.217
11869,0.6855,0.1387,-0.7290,-0.122,-0.366,0.610,169.453,-42.803,147.217
11879,0.6846,0.1396,-0.7290,-0.183,-0.244,0.671,169.453,-42.797,147.217
11889,0.6860,0.1411,-0.7305,-0.183,-0.183,0.793,169.453,-42.797,147.217
11899,0.6875,0.1421,-0.7285,-0.122,-0.061,0.854,169.459,-42.797,147.217
11909,0.6904,0.1406,-0.7324,0.061,-0.061,0.854,169.464,-42.797,147.217
11919,0.6909,0.1401,-0.7305,0.122,-0.061,0.854,169.470,-42.803,147.217
11929,0.6890,0.1382,-0.7305,0.061,-0.061,0.793,169.475,-42.803,147.217
11939,0.6885,0.1377,-0.7305,-0.061,-0.061,0.732,169.475,-42.803,147.217
11949,0.6875,0.1392,-0.7314,-0.244,0.000,0.671,169.481,-42.803,147.217
11959,0.6865,0.1387,-0.7314,-0.366,0.122,0.549,169.481,-42.803,147.217
11969,0.6885,0.1396,-0.7358,-0.427,0.183,0.488,169.475,-42.803,147.217
11979,0.6875,0.1401,-0.7339,-0.549,0.122,0.427,169.470,-42.803,147.217
11989,0.6865,0.1401,-0.7344,-0.488,0.000,0.427,169.470,-42.803,147.217
11999,0.6890,0.1421,-0.7305,-0.366,-0.183,0.427,169.464,-42.803,147.217
12009,0.6880,0.1406,-0.7305,-0.244,-0.305,0.488,169.464,-42.803,147.217
12019,0.6885,0.1396,-0.7319,-0.061,-0.427,0.549,169.464,-42.797,147.217
12029,0.6846,0.1377,-0.7339,0.061,-0.427,0.549,169.470,-42.792,147.217
12039,0.6836,0.1362,-0.7314,0.000,-0.366,0.488,169.475,-42.786,147.217
12049,0.6831,0.1367,-0.7319,-0.122,-0.244,0.366,169.475,-42.781,147.217
12059,0.6851,0.1387,-0.7329,-0.244,0.000,0.305,169.475,-42.781,147.217
12069,0.6855,0.1382,-0.7319,-0.305,0.183,0.244,169.470,-42.781,147.217
12079,0.6855,0.1387,-0.7329,-0.244,0.244,0.305,169.470,-42.781,147.217
12089,0.6855,0.1382,-0.7358,-0.061,0.305,0.427,169.470,-42.781,147.217
12099,0.6885,0.1362,-0.7339,0.061,0.244,0.488,169.475,-42.786,147.217
12109,0.6880,0.1348,-0.7358,0.061,0.183,0.549,169.481,-42.786,147.217
12120,0.6895,0.1348,-0.7363,0.061,0.000,0.671,169.492,-42.786,147.217
12129,0.6895,0.1357,-0.7329,0.061,-0.183,0.671,169.497,-42.786,147.217
12139,0.6870,0.1362,-0.7329,-0.061,-0.366,0.610,169.503,-42.781,147.217
12149,0.6870,0.1392,-0.7349,-0.183,-0.488,0.549,169.503,-42.775,147.217
12159,0.6880,0.1401,-0.7334,-0.183,-0.549,0.549,169.508,-42.770,147.217
12169,0.6880,0.1396,-0.7305,-0.244,-0.549,0.488,169.503,-42.764,147.217
12179,0.6851,0.1411,-0.7300,-0.183,-0.427,0.427,169.503,-42.764,147.217
12189,0.6855,0.1416,-0.7310,-0.061,-0.305,0.366,169.503,-42.759,147.217
12199,0.6851,0.1411,-0.7314,0.061,-0.061,0.305,169.503,-42.759,147.217
12209,0.6841,0.1406,-0.7324,0.183,0.183,0.244,169.503,-42.759,147.217
12219,0.6841,0.1416,-0.7305,0.122,0.366,0.244,169.497,-42.759,147.217
12229,0.6841,0.1421,-0.7310,0.122,0.366,0.305,169.497,-42.764,147.217
12239,0.6855,0.1421,-0.7314,0.244,0.366,0.366,169.497,-42.764,147.217
12249,0.6880,0.1406,-0.7324,0.549,0.427,0.366,169.503,-42.770,147.217
12259,0.6895,0.1372,-0.7349,0.793,0.427,0.305,169.514,-42.775,147.217
12269,0.6919,0.1357,-0.7354,0.671,0.305,0.183,169.519,-42.775,147.217
12279,0.6909,0.1367,-0.7344,0.183,0.122,0.061,169.519,-42.781,147.217
12289,0.6899,0.1357,-0.7334,-0.305,-0.061,-0.061,169.519,-42.775,147.217
12299,0.6895,0.1362,-0.7324,-0.671,-0.183,-0.122,169.508,-42.775,147.217
12309,0.6875,0.1348,-0.7314,-0.732,-0.305,-0.061,169.503,-42.770,147.217
12319,0.6846,0.1333,-0.7339,-0.488,-0.244,0.000,169.503,-42.770,147.217
12329,0.6851,0.1323,-0.7314,-0.122,-0.122,0.244,169.503,-42.764,147.217
12339,0.6860,0.1318,-0.7334,0.061,0.122,0.549,169.514,-42.764,147.217
12349,0.6865,0.1333,-0.7354,0.183,0.366,0.793,169.525,-42.770,147.217
12359,0.6860,0.1348,-0.7354,0.183,0.610,0.854,169.530,-42.775,147.217
12369,0.6870,0.1362,-0.7349,0.122,0.671,0.916,169.541,-42.781,147.217
12379,0.6865,0.1372,-0.7354,0.000,0.488,0.854,169.547,-42.786,147.217
12389,0.6870,0.1382,-0.7349,-0.061,0.183,0.793,169.552,-42.786,147.217
12399,0.6865,0.1396,-0.7354,-0.122,-0.122,0.732,169.552,-42.786,147.217
12409,0.6870,0.1421,-0.7344,-0.122,-0.244,0.610,169.552,-42.781,147.217
12419,0.6855,0.1421,-0.7324,-0.061,-0.427,0.488,169.552,-42.775,147.217
12429,0.6851,0.1421,-0.7319,0.061,-0.549,0.366,169.552,-42.770,147.217
12439,0.6851,0.1416,-0.7310,0.000,-0.427,0.183,169.547,-42.764,147.217
12449,0.6860,0.1411,-0.7314,0.000,-0.305,0.061,169.547,-42.759,147.217
12459,0.6865,0.1416,-0.7310,-0.061,-0.122,0.000,169.541,-42.759,147.217
12469,0.6875,0.1406,-0.7310,0.061,0.061,-0.061,169.536,-42.759,147.217
12479,0.6870,0.1377,-0.7290,0.122,0.244,-0.122,169.530,-42.759,147.217
12489,0.6870,0.1353,-0.7305,0.183,0.427,-0.244,169.530,-42.764,147.217
12499,0.6875,0.1348,-0.7344,0.061,0.610,-0.244,169.530,-42.770,147.217
12509,0.6855,0.1313,-0.7358,-0.183,0.793,-0.305,169.525,-42.775,147.217
12519,0.6860,0.1323,-0.7368,-0.488,0.854,-0.244,169.519,-42.781,147.217
12529,0.6860,0.1333,-0.7368,-0.671,0.854,-0.122,169.514,-42.786,147.217
12539,0.6890,0.1318,-0.7349,-0.549,0.671,0.122,169.514,-42.792,147.217
12549,0.6895,0.1328,-0.7368,-0.366,0.366,0.366,169.514,-42.792,147.217
12559,0.6895,0.1377,-0.7393,-0.061,-0.061,0.671,169.519,-42.792,147.217
12569,0.6895,0.1357,-0.7354,0.183,-0.427,0.916,169.530,-42.786,147.217
12579,0.6880,0.1362,-0.7358,0.305,-0.610,0.977,169.541,-42.781,147.217
12589,0.6875,0.1416,-0.7319,0.244,-0.671,0.916,169.547,-42.775,147.217
12599,0.6865,0.1401,-0.7300,0.061,-0.671,0.854,169.552,-42.770,147.217
12609,0.6855,0.1450,-0.7300,-0.061,-0.488,0.793,169.552,-42.764,147.217
12620,0.6836,0.1460,-0.7290,-0.061,-0.244,0.549,169.547,-42.764,147.217
12629,0.6851,0.1445,-0.7305,-0.061,0.000,0.122,169.541,-42.764,147.217
12639,0.6865,0.1426,-0.7310,-0.061,0.122,-0.122,169.536,-42.764,147.217
12649,0.6880,0.1396,-0.7305,-0.122,0.244,-0.305,169.525,-42.764,147.217
12659,0.6909,0.1401,-0.7310,-0.122,0.305,-0.366,169.519,-42.770,147.217
12669,0.6904,0.1377,-0.7319,-0.244,0.366,-0.427,169.508,-42.770,147.217
12679,0.6880,0.1372,-0.7314,-0.305,0.488,-0.427,169.497,-42.775,147.217
12689,0.6865,0.1362,-0.7358,-0.183,0.549,-0.366,169.492,-42.775,147.217
12699,0.6855,0.1353,-0.7329,-0.183,0.549,-0.183,169.492,-42.781,147.217
12709,0.6865,0.1338,-0.7349,-0.122,0.488,0.061,169.492,-42.786,147.217
12719,0.6890,0.1343,-0.7358,-0.061,0.488,0.183,169.492,-42.786,147.217
12729,0.6885,0.1367,-0.7368,0.000,0.427,0.366,169.497,-42.792,147.217
12739,0.6870,0.1362,-0.7383,0.122,0.244,0.488,169.503,-42.792,147.217
12749,0.6890,0.1377,-0.7339,0.305,0.000,0.427,169.508,-42.792,147.217
12759,0.6865,0.1357,-0.7344,0.061,-0.244,0.305,169.508,-42.786,147.217
12769,0.6875,0.1372,-0.7324,-0.244,-0.488,0.183,169.508,-42.781,147.217
12779,0.6855,0.1401,-0.7324,-0.427,-0.610,0.122,169.503,-42.775,147.217
12789,0.6880,0.1396,-0.7349,-0.549,-0.488,0.061,169.497,-42.770,147.217
12799,0.6875,0.1416,-0.7329,-0.427,-0.366,0.000,169.486,-42.764,147.217
12809,0.6860,0.1392,-0.7305,-0.244,-0.183,0.000,169.486,-42.759,147.217
12819,0.6865,0.1357,-0.7300,-0.061,-0.183,0.122,169.486,-42.759,147.217
12829,0.6860,0.1367,-0.7314,-0.061,-0.061,0.061,169.486,-42.759,147.217
12839,0.6841,0.1392,-0.7295,-0.122,0.122,0.122,169.481,-42.759,147.217
12849,0.6836,0.1401,-0.7285,-0.122,0.305,0.122,169.475,-42.759,147.217
12859,0.6855,0.1440,-0.7310,0.000,0.488,0.183,169.470,-42.764,147.217
12869,0.6855,0.1421,-0.7339,0.183,0.671,0.122,169.470,-42.770,147.217
12879,0.6851,0.1426,-0.7344,0.366,0.671,0.061,169.464,-42.775,147.217
12889,0.6875,0.1416,-0.7349,0.488,0.549,0.000,169.464,-42.775,147.217
12899,0.6885,0.1377,-0.7354,0.366,0.305,-0.183,169.470,-42.775,147.217
12909,0.6899,0.1362,-0.7363,0.000,-0.061,-0.366,169.464,-42.775,147.217
12919,0.6885,0.1353,-0.7349,-0.366,-0.427,-0.549,169.459,-42.770,147.217
12929,0.6890,0.1357,-0.7334,-0.549,-0.549,-0.671,169.448,-42.764,147.217
12939,0.6865,0.1372,-0.7310,-0.671,-0.549,-0.671,169.437,-42.753,147.217
12949,0.6860,0.1372,-0.7300,-0.549,-0.366,-0.549,169.426,-42.748,147.217
12959,0.6841,0.1377,-0.7290,-0.244,-0.122,-0.244,169.420,-42.748,147.217
12969,0.6841,0.1392,-0.7295,0.183,0.122,0.244,169.420,-42.748,147.217
12979,0.6870,0.1392,-0.7275,0.610,0.427,0.549,169.431,-42.753,147.217
12989,0.6865,0.1372,-0.7290,0.916,0.610,0.732,169.442,-42.764,147.217
12999,0.6890,0.1357,-0.7310,0.977,0.732,0.549,169.459,-42.770,147.217
13009,0.6899,0.1357,-0.7324,0.549,0.854,0.244,169.464,-42.781,147.217
13019,0.6909,0.1348,-0.7344,-0.061,0.793,-0.061,169.464,-42.786,147.217
13029,0.6919,0.1377,-0.7354,-0.549,0.671,-0.244,169.453,-42.797,147.217
13039,0.6904,0.1392,-0.7354,-0.671,0.488,-0.305,169.442,-42.797,147.217
13049,0.6880,0.1401,-0.7339,-0.549,0.305,-0.305,169.431,-42.797,147.217
13059,0.6846,0.1396,-0.7329,-0.122,0.122,-0.244,169.426,-42.797,147.217
13070,0.6851,0.1387,-0.7324,0.183,0.061,-0.122,169.420,-42.797,147.217
13079,0.6836,0.1367,-0.7324,0.305,0.000,-0.061,169.426,-42.792,147.217
13089,0.6851,0.1367,-0.7305,0.305,0.183,-0.061,169.426,-42.792,147.217
13100,0.6855,0.1353,-0.7314,0.244,0.427,-0.122,169.426,-42.797,147.217
13110,0.6855,0.1353,-0.7329,0.122,0.610,-0.244,169.426,-42.797,147.217
13120,0.6870,0.1367,-0.7344,0.000,0.671,-0.305,169.426,-42.803,147.217
13129,0.6880,0.1382,-0.7344,-0.061,0.610,-0.244,169.420,-42.808,147.217
13140,0.6899,0.1382,-0.7319,0.122,0.549,-0.122,169.415,-42.814,147.217
13150,0.6880,0.1372,-0.7344,0.366,0.427,0.122,169.420,-42.814,147.217
13160,0.6841,0.1401,-0.7334,0.732,0.366,0.244,169.426,-42.819,147.217
13170,0.6777,0.1470,-0.7339,1.099,0.305,0.366,169.431,-42.814,147.217
13180,0.6743,0.1509,-0.7310,1.770,0.244,0.732,169.448,-42.808,147.217
13190,0.6733,0.1504,-0.7285,2.563,0.122,0.793,169.470,-42.808,147.217
13200,0.6748,0.1494,-0.7305,3.235,0.122,0.549,169.492,-42.803,147.217
13210,0.6777,0.1494,-0.7354,3.418,0.488,0.061,169.519,-42.803,147.217
13220,0.6802,0.1445,-0.7339,3.174,1.343,-0.305,169.536,-42.808,147.217
13230,0.6865,0.1455,-0.7305,2.441,1.892,-0.488,169.547,-42.825,147.217
13240,0.6943,0.1475,-0.7256,1.770,1.282,-0.549,169.547,-42.841,147.217
13250,0.7041,0.1421,-0.7266,1.831,0.000,-0.610,169.552,-42.847,147.217
13260,0.7075,0.1362,-0.7300,2.380,-0.854,-0.793,169.568,-42.841,147.217
13270,0.7026,0.1260,-0.7295,2.747,-0.916,-0.916,169.596,-42.841,147.217
13280,0.6938,0.1167,-0.7236,2.197,-0.488,-1.099,169.623,-42.841,147.233
13290,0.6865,0.1172,-0.7236,0.671,0.000,-1.221,169.629,-42.841,147.250
13300,0.6831,0.1201,-0.7241,-0.549,0.549,-1.099,169.623,-42.847,147.266
13310,0.6821,0.1270,-0.7231,-0.732,1.404,-0.854,169.607,-42.858,147.277
13320,0.6812,0.1328,-0.7261,0.183,2.502,-0.305,169.601,-42.880,147.288
13330,0.6807,0.1338,-0.7295,1.709,3.357,0.488,169.618,-42.907,147.294
13340,0.6826,0.1343,-0.7334,2.991,3.601,1.221,169.656,-42.940,147.283
13350,0.6846,0.1362,-0.7354,3.540,3.235,1.587,169.695,-42.973,147.272
13360,0.6875,0.1353,-0.7388,3.235,2.563,1.465,169.739,-42.995,147.255
13370,0.6919,0.1367,-0.7451,2.441,1.831,0.977,169.766,-43.011,147.250
13380,0.6934,0.1333,-0.7451,1.648,1.282,0.244,169.783,-43.017,147.250
13390,0.6958,0.1323,-0.7446,0.793,0.854,-0.549,169.788,-43.022,147.261
13400,0.6973,0.1313,-0.7388,-0.122,0.122,-1.221,169.777,-43.017,147.277
13410,0.6968,0.1328,-0.7344,-0.854,-0.671,-1.648,169.750,-43.006,147.294
13420,0.6929,0.1318,-0.7295,-1.099,-1.343,-1.709,169.728,-42.995,147.316
13430,0.6895,0.1304,-0.7236,-0.671,-1.648,-1.526,169.711,-42.979,147.332
13440,0.6875,0.1318,-0.7212,0.244,-1.404,-1.038,169.706,-42.962,147.343
13450,0.6870,0.1318,-0.7187,1.221,-0.671,-0.549,169.711,-42.957,147.349
13460,0.6914,0.1299,-0.7187,1.892,0.244,-0.183,169.728,-42.962,147.349
13470,0.6948,0.1294,-0.7222,2.197,1.160,0.061,169.750,-42.979,147.354
13480,0.6973,0.1309,-0.7256,2.075,1.709,0.244,169.772,-43.000,147.354
13490,0.6963,0.1304,-0.7300,1.709,1.953,0.305,169.788,-43.022,147.354
13500,0.6948,0.1323,-0.7290,1.404,1.770,0.244,169.799,-43.044,147.354
13510,0.6973,0.1323,-0.7290,1.099,1.343,0.122,169.810,-43.061,147.360
13520,0.6978,0.1323,-0.7310,0.793,0.854,-0.061,169.816,-43.066,147.360
13530,0.6973,0.1270,-0.7314,0.305,0.305,-0.305,169.816,-43.072,147.365
13540,0.6963,0.1221,-0.7329,-0.427,-0.122,-0.671,169.816,-43.072,147.376
13550,0.6958,0.1157,-0.7314,-1.648,-0.427,-1.038,169.805,-43.066,147.387
13560,0.6958,0.1191,-0.7295,-3.052,-0.549,-1.221,169.772,-43.061,147.404
13570,0.6968,0.1152,-0.7305,-3.723,-0.488,-0.916,169.739,-43.055,147.415
13580,0.6958,0.1143,-0.7280,-3.906,-0.244,-0.488,169.711,-43.055,147.420
13590,0.6958,0.1152,-0.7295,-3.784,-0.122,-0.183,169.684,-43.055,147.420
13600,0.6968,0.1123,-0.7295,-3.723,-0.305,0.305,169.667,-43.061,147.415
13610,0.6982,0.1128,-0.7324,-3.784,-0.488,0.854,169.651,-43.055,147.404
13620,0.6992,0.1143,-0.7324,-4.272,-0.610,1.221,169.640,-43.055,147.387
13630,0.6963,0.1201,-0.7339,-4.700,-0.671,1.465,169.618,-43.055,147.365
13640,0.6914,0.1255,-0.7339,-4.700,-0.671,1.770,169.596,-43.050,147.338
13650,0.6865,0.1353,-0.7339,-4.150,-0.732,2.136,169.574,-43.039,147.310
13660,0.6797,0.1401,-0.7354,-3.113,-0.610,2.441,169.563,-43.033,147.272
13670,0.6758,0.1465,-0.7344,-2.014,-0.427,2.686,169.557,-43.022,147.239
13680,0.6733,0.1479,-0.7358,-1.038,-0.244,2.686,169.563,-43.011,147.200
13690,0.6758,0.1509,-0.7402,-0.488,-0.183,2.441,169.568,-43.006,147.167
13700,0.6792,0.1558,-0.7397,-0.427,-0.305,1.953,169.568,-42.995,147.140
13710,0.6812,0.1567,-0.7422,-0.610,-0.549,1.282,169.563,-42.979,147.123
13720,0.6841,0.1567,-0.7407,-0.732,-0.854,0.488,169.547,-42.968,147.112
13730,0.6860,0.1562,-0.7388,-0.854,-1.282,-0.366,169.519,-42.946,147.112
13740,0.6875,0.1553,-0.7324,-0.854,-1.648,-1.099,169.492,-42.924,147.123
13750,0.6870,0.1538,-0.7285,-0.732,-2.014,-1.587,169.459,-42.896,147.140
13760,0.6870,0.1504,-0.7231,-0.549,-2.197,-2.075,169.426,-42.874,147.162
13770,0.6860,0.1499,-0.7192,-0.427,-2.136,-2.380,169.393,-42.852,147.189
13780,0.6875,0.1465,-0.7183,-0.244,-1.709,-2.625,169.360,-42.830,147.222
13790,0.6909,0.1416,-0.7178,-0.305,-0.916,-2.747,169.327,-42.825,147.255
13800,0.6948,0.1348,-0.7153,-0.549,0.000,-2.869,169.294,-42.825,147.294
13810,0.6987,0.1313,-0.7168,-0.977,0.610,-2.869,169.261,-42.836,147.332
13820,0.7021,0.1260,-0.7187,-1.526,0.854,-2.808,169.228,-42.852,147.376
13830,0.7007,0.1226,-0.7241,-2.014,0.977,-2.502,169.195,-42.863,147.409
13840,0.7017,0.1250,-0.7319,-2.319,1.221,-2.197,169.162,-42.880,147.442
13850,0.6963,0.1289,-0.7368,-2.441,1.404,-1.648,169.129,-42.891,147.469
13860,0.6909,0.1260,-0.7368,-2.197,1.404,-0.854,169.107,-42.902,147.480
13870,0.6895,0.1270,-0.7324,-2.014,0.732,-0.183,169.096,-42.907,147.486
13880,0.6860,0.1284,-0.7329,-1.953,-0.244,0.183,169.091,-42.902,147.486
13890,0.6865,0.1279,-0.7334,-1.892,-1.343,0.427,169.085,-42.885,147.475
13900,0.6870,0.1304,-0.7373,-1.770,-1.648,0.732,169.085,-42.869,147.458
13910,0.6860,0.1304,-0.7407,-1.404,-1.099,1.221,169.096,-42.858,147.442
13920,0.6851,0.1313,-0.7393,-0.977,-0.305,1.709,169.113,-42.852,147.420
13930,0.6841,0.1318,-0.7427,-0.732,0.305,1.892,169.129,-42.852,147.393
13940,0.6851,0.1304,-0.7437,-0.977,0.305,1.953,169.146,-42.852,147.371
13950,0.6855,0.1333,-0.7437,-1.770,-0.305,1.892,169.151,-42.847,147.343
13960,0.6890,0.1353,-0.7417,-2.625,-1.282,1.648,169.146,-42.836,147.316
13970,0.6904,0.1406,-0.7363,-3.357,-2.380,1.526,169.135,-42.814,147.288
13980,0.6885,0.1436,-0.7319,-3.113,-3.174,1.526,169.118,-42.781,147.261
13990,0.6855,0.1499,-0.7285,-2.258,-3.357,1.709,169.113,-42.753,147.228
14000,0.6787,0.1558,-0.7275,-0.854,-2.869,1.953,169.113,-42.726,147.195
14010,0.6738,0.1597,-0.7271,0.610,-1.892,2.258,169.129,-42.704,147.162
14020,0.6758,0.1597,-0.7256,1.892,-0.061,1.770,169.146,-42.704,147.140
14030,0.6831,0.1562,-0.7251,1.343,0.305,0.916,169.156,-42.709,147.123
14040,0.6909,0.1553,-0.7271,0.305,0.305,-0.183,169.140,-42.709,147.129
14050,0.6948,0.1587,-0.7271,-0.977,0.061,-1.160,169.107,-42.715,147.145
14060,0.6938,0.1626,-0.7261,-1.648,-0.183,-1.770,169.058,-42.709,147.167
14070,0.6899,0.1611,-0.7241,-1.282,-0.183,-2.014,169.014,-42.709,147.195
14080,0.6831,0.1592,-0.7241,-0.305,-0.061,-1.953,168.975,-42.704,147.222
14090,0.6792,0.1519,-0.7256,0.793,0.000,-1.831,168.959,-42.698,147.244
14100,0.6807,0.1426,-0.7280,1.404,0.305,-1.709,168.959,-42.698,147.266
14110,0.6875,0.1333,-0.7314,1.160,0.671,-1.709,168.959,-42.698,147.294
14121,0.6934,0.1284,-0.7310,0.183,0.916,-1.831,168.953,-42.709,147.321
14130,0.6997,0.1230,-0.7310,-0.977,0.916,-1.953,168.942,-42.720,147.349
14140,0.7036,0.1255,-0.7295,-1.831,0.549,-1.770,168.920,-42.731,147.376
14150,0.6992,0.1294,-0.7266,-1.770,0.122,-1.221,168.898,-42.737,147.393
14160,0.6924,0.1338,-0.7290,-0.916,-0.183,-0.366,168.893,-42.737,147.393
14170,0.6846,0.1328,-0.7290,0.427,-0.183,0.671,168.915,-42.737,147.387
14180,0.6797,0.1333,-0.7300,1.526,-0.061,1.587,168.953,-42.737,147.365
14190,0.6802,0.1309,-0.7310,2.014,0.183,2.136,168.997,-42.742,147.338
14200,0.6826,0.1309,-0.7368,1.526,0.427,2.258,169.041,-42.748,147.305
14210,0.6880,0.1323,-0.7378,0.366,0.671,2.014,169.069,-42.753,147.283
14220,0.6919,0.1353,-0.7373,-0.977,0.671,1.648,169.080,-42.764,147.261
14230,0.6934,0.1426,-0.7349,-1.953,0.427,1.343,169.069,-42.770,147.244
14240,0.6890,0.1421,-0.7329,-2.258,-0.061,1.160,169.058,-42.770,147.228
14250,0.6880,0.1450,-0.7310,-2.075,-0.610,1.038,169.047,-42.770,147.211
14260,0.6870,0.1450,-0.7334,-1.770,-1.038,1.160,169.041,-42.759,147.195
14270,0.6851,0.1436,-0.7324,-1.282,-1.160,1.404,169.041,-42.748,147.173
14280,0.6846,0.1421,-0.7310,-0.793,-0.977,1.587,169.047,-42.737,147.151
14290,0.6831,0.1411,-0.7314,-0.549,-0.671,1.709,169.058,-42.731,147.123
14300,0.6816,0.1401,-0.7305,-0.488,-0.244,1.648,169.069,-42.731,147.101
14310,0.6846,0.1421,-0.7285,-0.671,0.122,1.526,169.074,-42.737,147.079
14320,0.6846,0.1436,-0.7319,-0.977,0.305,1.343,169.074,-42.742,147.063
14330,0.6855,0.1465,-0.7310,-1.038,0.427,1.221,169.069,-42.742,147.052
14340,0.6855,0.1504,-0.7349,-0.793,0.488,1.160,169.069,-42.748,147.036
14350,0.6865,0.1489,-0.7383,-0.183,0.549,1.038,169.069,-42.753,147.025
14360,0.6880,0.1455,-0.7363,0.305,0.488,0.732,169.074,-42.753,147.014
14370,0.6880,0.1455,-0.7373,0.366,0.305,0.427,169.080,-42.759,147.008
14380,0.6870,0.1416,-0.7354,0.000,0.061,0.061,169.080,-42.753,147.008
14390,0.6895,0.1431,-0.7368,-0.549,-0.183,-0.244,169.074,-42.753,147.014
14400,0.6899,0.1401,-0.7363,-1.099,-0.305,-0.549,169.058,-42.748,147.019
14410,0.6890,0.1372,-0.7339,-1.465,-0.427,-0.793,169.041,-42.742,147.030
14420,0.6880,0.1377,-0.7344,-1.709,-0.671,-0.854,169.019,-42.731,147.036
14430,0.6870,0.1392,-0.7314,-1.892,-0.916,-0.671,168.997,-42.720,147.047
14440,0.6851,0.1416,-0.7295,-1.770,-1.038,-0.305,168.981,-42.709,147.047
14450,0.6860,0.1426,-0.7271,-1.221,-0.854,0.183,168.970,-42.704,147.041
14460,0.6855,0.1416,-0.7280,-0.366,-0.366,0.610,168.975,-42.698,147.030
14470,0.6836,0.1396,-0.7300,0.305,0.244,0.916,168.986,-42.704,147.019
14480,0.6831,0.1387,-0.7324,0.610,0.916,0.916,169.003,-42.715,147.008
14490,0.6846,0.1387,-0.7354,0.244,1.404,0.732,169.014,-42.726,147.003
14500,0.6870,0.1401,-0.7407,-0.549,1.526,0.427,169.008,-42.737,147.003
14510,0.6875,0.1421,-0.7412,-1.160,1.404,0.122,168.997,-42.748,147.003
14520,0.6875,0.1450,-0.7422,-1.465,0.977,-0.183,168.981,-42.753,147.008
14530,0.6885,0.1460,-0.7407,-1.404,0.305,-0.305,168.964,-42.748,147.014
14540,0.6870,0.1475,-0.7388,-1.160,-0.549,-0.305,168.948,-42.742,147.019
14550,0.6851,0.1470,-0.7368,-0.793,-1.282,-0.122,168.937,-42.726,147.014
14560,0.6855,0.1460,-0.7329,-0.366,-1.587,0.000,168.937,-42.709,147.014
14570,0.6846,0.1436,-0.7305,0.000,-1.526,0.061,168.937,-42.693,147.008
14580,0.6851,0.1387,-0.7310,0.183,-1.221,0.000,168.942,-42.676,147.003
14590,0.6841,0.1362,-0.7305,-0.061,-0.732,-0.122,168.948,-42.671,147.003
14600,0.6870,0.1353,-0.7310,-0.488,-0.305,-0.183,168.948,-42.671,147.003
14610,0.6895,0.1387,-0.7285,-0.916,0.000,-0.244,168.942,-42.671,147.008
14621,0.6890,0.1387,-0.7310,-1.160,0.183,-0.183,168.931,-42.671,147.008
14630,0.6914,0.1431,-0.7310,-1.038,0.244,0.000,168.920,-42.676,147.014
14640,0.6885,0.1440,-0.7314,-0.671,0.183,0.305,168.915,-42.682,147.008
14650,0.6855,0.1445,-0.7305,-0.183,0.000,0.549,168.915,-42.682,147.003
14660,0.6846,0.1465,-0.7314,0.122,-0.183,0.732,168.920,-42.682,146.992
14670,0.6831,0.1460,-0.7329,0.183,-0.366,0.671,168.926,-42.676,146.981
14680,0.6846,0.1445,-0.7334,0.122,-0.366,0.549,168.937,-42.671,146.970
14690,0.6841,0.1440,-0.7339,-0.244,-0.305,0.305,168.937,-42.665,146.970
14700,0.6875,0.1436,-0.7349,-0.671,-0.244,0.000,168.926,-42.665,146.964
14710,0.6890,0.1436,-0.7329,-1.160,-0.305,-0.244,168.915,-42.660,146.970
14720,0.6860,0.1421,-0.7339,-1.404,-0.305,-0.366,168.898,-42.654,146.975
14730,0.6865,0.1450,-0.7290,-1.282,-0.305,-0.366,168.882,-42.654,146.975
14740,0.6851,0.1465,-0.7290,-0.793,-0.427,-0.183,168.871,-42.649,146.981
14750,0.6831,0.1465,-0.7280,-0.305,-0.366,0.061,168.865,-42.643,146.975
14760,0.6831,0.1436,-0.7295,0.244,-0.122,0.305,168.871,-42.643,146.970
14770,0.6816,0.1416,-0.7300,0.549,0.122,0.427,168.882,-42.643,146.964
14780,0.6836,0.1411,-0.7319,0.549,0.366,0.427,168.893,-42.649,146.964
14790,0.6855,0.1421,-0.7329,0.244,0.610,0.244,168.898,-42.654,146.959
14800,0.6851,0.1426,-0.7334,-0.183,0.732,0.061,168.898,-42.660,146.964
14810,0.6875,0.1426,-0.7344,-0.488,0.732,-0.061,168.893,-42.665,146.964
14820,0.6865,0.1445,-0.7344,-0.610,0.610,-0.122,168.882,-42.671,146.970
14830,0.6865,0.1450,-0.7334,-0.488,0.305,-0.061,168.876,-42.671,146.970
14841,0.6880,0.1460,-0.7300,-0.305,-0.061,0.061,168.871,-42.671,146.970
14851,0.6870,0.1450,-0.7305,-0.061,-0.305,0.122,168.871,-42.671,146.964
14861,0.6851,0.1455,-0.7314,0.244,-0.366,0.183,168.876,-42.665,146.964
14871,0.6851,0.1431,-0.7285,0.366,-0.183,0.122,168.882,-42.665,146.959
14881,0.6836,0.1406,-0.7295,0.183,0.061,-0.061,168.882,-42.665,146.959
14891,0.6846,0.1396,-0.7324,-0.122,0.366,-0.183,168.882,-42.665,146.964
14901,0.6841,0.1416,-0.7334,-0.427,0.610,-0.244,168.876,-42.671,146.970
14911,0.6865,0.1426,-0.7334,-0.549,0.854,-0.305,168.871,-42.676,146.975
14921,0.6851,0.1431,-0.7329,-0.305,0.977,-0.183,168.865,-42.687,146.981
14931,0.6875,0.1450,-0.7329,0.061,0.916,-0.061,168.860,-42.693,146.986
14941,0.6890,0.1421,-0.7354,0.305,0.671,0.122,168.865,-42.698,146.986
14951,0.6890,0.1411,-0.7378,0.366,0.305,0.122,168.876,-42.698,146.981
14961,0.6909,0.1401,-0.7368,0.183,0.000,0.122,168.882,-42.698,146.981
14971,0.6885,0.1406,-0.7354,-0.122,-0.183,0.000,168.882,-42.698,146.981
14981,0.6899,0.1377,-0.7344,-0.488,-0.305,-0.122,168.882,-42.693,146.981
14991,0.6860,0.1392,-0.7329,-0.793,-0.366,-0.244,168.876,-42.693,146.986
15001,0.6851,0.1367,-0.7319,-0.916,-0.305,-0.183,168.871,-42.687,146.986
15011,0.6836,0.1426,-0.7290,-0.732,-0.183,0.000,168.865,-42.682,146.986
15021,0.6826,0.1431,-0.7290,-0.366,0.061,0.244,168.865,-42.682,146.981
15031,0.6831,0.1460,-0.7310,0.122,0.305,0.549,168.865,-42.687,146.975
15041,0.6816,0.1455,-0.7295,0.488,0.549,0.854,168.876,-42.693,146.964
15051,0.6846,0.1470,-0.7324,0.793,0.793,0.977,168.893,-42.698,146.953
15061,0.6870,0.1460,-0.7354,0.854,0.854,0.977,168.904,-42.709,146.942
15071,0.6870,0.1479,-0.7354,0.732,0.793,0.793,168.915,-42.715,146.937
15081,0.6899,0.1465,-0.7329,0.488,0.610,0.427,168.920,-42.720,146.931
15091,0.6899,0.1465,-0.7349,0.244,0.305,0.061,168.920,-42.726,146.931
15101,0.6904,0.1436,-0.7349,0.000,0.000,-0.366,168.920,-42.720,146.937
15111,0.6895,0.1411,-0.7363,-0.366,-0.366,-0.732,168.909,-42.715,146.948
15121,0.6909,0.1387,-0.7329,-0.793,-0.549,-0.854,168.898,-42.709,146.953
15131,0.6890,0.1367,-0.7305,-1.038,-0.793,-0.854,168.887,-42.704,146.964
15141,0.6875,0.1367,-0.7300,-0.977,-0.793,-0.610,168.882,-42.693,146.970
15151,0.6846,0.1377,-0.7266,-0.671,-0.793,-0.244,168.876,-42.687,146.970
15161,0.6816,0.1436,-0.7285,-0.122,-0.610,0.244,168.876,-42.682,146.964
15171,0.6821,0.1431,-0.7271,0.610,-0.305,0.854,168.893,-42.682,146.953
15181,0.6821,0.1431,-0.7285,1.282,0.122,1.282,168.915,-42.682,146.937
15191,0.6812,0.1421,-0.7310,1.648,0.610,1.404,168.942,-42.687,146.920
15201,0.6816,0.1445,-0.7314,1.648,0.977,1.282,168.970,-42.698,146.904
15211,0.6836,0.1465,-0.7358,1.404,1.282,0.916,168.986,-42.709,146.898
15221,0.6855,0.1484,-0.7363,0.977,1.282,0.488,168.997,-42.720,146.893
15231,0.6875,0.1509,-0.7378,0.549,1.038,0.061,168.992,-42.726,146.898
15241,0.6885,0.1509,-0.7378,0.366,0.610,-0.244,168.986,-42.731,146.898
15251,0.6880,0.1499,-0.7368,0.366,0.183,-0.427,168.981,-42.726,146.909
15261,0.6841,0.1499,-0.7339,0.671,-0.305,-0.610,168.981,-42.720,146.915
15271,0.6802,0.1436,-0.7324,1.099,-0.549,-0.488,168.986,-42.709,146.920
15281,0.6816,0.1421,-0.7314,1.587,-0.488,-0.488,168.997,-42.704,146.926
15291,0.6821,0.1396,-0.7290,1.831,-0.244,-0.366,169.014,-42.698,146.931
15301,0.6841,0.1367,-0.7285,1.831,0.061,-0.366,169.036,-42.698,146.937
15311,0.6836,0.1353,-0.7275,1.770,0.366,-0.244,169.052,-42.698,146.937
15321,0.6855,0.1367,-0.7275,1.709,0.732,-0.061,169.069,-42.709,146.942
15331,0.6885,0.1377,-0.7285,1.770,0.977,0.061,169.091,-42.720,146.942
15341,0.6899,0.1367,-0.7300,1.831,1.099,0.183,169.113,-42.731,146.942
15351,0.6934,0.1343,-0.7310,1.770,1.038,0.305,169.135,-42.748,146.942
15361,0.6934,0.1348,-0.7295,1.526,0.854,0.488,169.156,-42.759,146.937
15371,0.6914,0.1357,-0.7310,1.221,0.549,0.549,169.173,-42.770,146.931
15381,0.6890,0.1367,-0.7280,0.916,0.366,0.610,169.189,-42.775,146.926
15391,0.6875,0.1367,-0.7285,0.854,0.244,0.671,169.206,-42.781,146.915
15401,0.6875,0.1392,-0.7290,0.854,0.305,0.732,169.222,-42.781,146.909
15411,0.6895,0.1396,-0.7300,0.854,0.488,0.671,169.233,-42.792,146.898
15421,0.6885,0.1401,-0.7305,0.916,0.671,0.732,169.250,-42.797,146.893
15431,0.6880,0.1406,-0.7295,0.854,0.854,0.671,169.261,-42.808,146.882
15441,0.6904,0.1426,-0.7319,0.671,1.038,0.549,169.266,-42.819,146.882
15451,0.6919,0.1392,-0.7339,0.610,1.099,0.305,169.272,-42.830,146.876
15461,0.6929,0.1357,-0.7329,0.427,1.160,0.061,169.277,-42.841,146.882
15471,0.6938,0.1328,-0.7378,0.183,1.099,-0.244,169.283,-42.852,146.887
15481,0.6958,0.1318,-0.7368,-0.183,0.854,-0.366,169.277,-42.858,146.893
15491,0.6973,0.1274,-0.7373,-0.488,0.488,-0.366,169.277,-42.863,146.898
15501,0.6958,0.1260,-0.7354,-0.732,0.061,-0.183,169.283,-42.869,146.904
15511,0.6938,0.1250,-0.7319,-0.854,-0.366,0.122,169.283,-42.869,146.898
15521,0.6958,0.1260,-0.7314,-0.793,-0.671,0.549,169.294,-42.863,146.893
15531,0.6938,0.1270,-0.7324,-0.732,-0.793,0.916,169.305,-42.858,146.876
15541,0.6934,0.1265,-0.7295,-0.732,-0.793,1.282,169.316,-42.858,146.854
15551,0.6943,0.1313,-0.7285,-0.916,-0.732,1.465,169.327,-42.858,146.838
15561,0.6914,0.1348,-0.7314,-0.977,-0.549,1.587,169.338,-42.852,146.810
15571,0.6899,0.1348,-0.7349,-0.977,-0.366,1.404,169.343,-42.852,146.794
15581,0.6880,0.1377,-0.7378,-0.854,-0.183,1.099,169.343,-42.847,146.777
15591,0.6880,0.1406,-0.7393,-0.977,-0.061,0.854,169.343,-42.847,146.766
15601,0.6880,0.1445,-0.7388,-1.160,-0.183,0.488,169.332,-42.841,146.761
15611,0.6851,0.1465,-0.7378,-1.343,-0.488,0.244,169.316,-42.830,146.755
15622,0.6851,0.1484,-0.7349,-1.587,-0.916,-0.061,169.294,-42.819,146.755
15631,0.6851,0.1484,-0.7363,-1.526,-1.343,-0.305,169.272,-42.797,146.755
15641,0.6846,0.1484,-0.7324,-1.282,-1.709,-0.427,169.250,-42.781,146.755
15651,0.6816,0.1479,-0.7310,-0.977,-1.831,-0.610,169.228,-42.759,146.761
15661,0.6777,0.1440,-0.7324,-0.732,-1.831,-0.793,169.217,-42.731,146.766
15671,0.6777,0.1362,-0.7314,-0.793,-1.648,-1.160,169.200,-42.709,146.777
15681,0.6733,0.1313,-0.7314,-1.282,-1.160,-1.709,169.184,-42.693,146.794
15691,0.6724,0.1274,-0.7314,-1.892,-0.610,-2.014,169.156,-42.676,146.821
15701,0.6777,0.1387,-0.7344,-2.380,0.183,-2.075,169.113,-42.671,146.849
15711,0.6797,0.1348,-0.7383,-1.465,1.160,-1.587,169.091,-42.671,146.876
15721,0.6792,0.1411,-0.7412,-0.488,1.953,-0.854,169.074,-42.682,146.893
15731,0.6826,0.1460,-0.7437,0.793,2.136,-0.122,169.074,-42.698,146.898
15741,0.6851,0.1426,-0.7432,1.648,1.404,0.610,169.096,-42.709,146.893
15751,0.6885,0.1396,-0.7417,1.892,0.183,0.732,169.124,-42.704,146.882
15761,0.6938,0.1406,-0.7383,1.038,-1.404,0.305,169.140,-42.693,146.876
15771,0.7007,0.1387,-0.7358,-0.183,-2.930,-0.366,169.140,-42.671,146.871
15781,0.6982,0.1382,-0.7285,-1.221,-3.784,-0.793,169.129,-42.638,146.876
15791,0.6948,0.1421,-0.7241,-1.648,-3.723,-0.977,169.107,-42.605,146.876
15801,0.6865,0.1406,-0.7187,-1.343,-2.747,-0.854,169.091,-42.583,146.882
15811,0.6855,0.1416,-0.7183,-0.488,-1.465,-0.366,169.085,-42.572,146.882
15821,0.6821,0.1372,-0.7202,0.305,-0.061,0.244,169.091,-42.578,146.882
15831,0.6807,0.1333,-0.7207,0.854,0.854,0.793,169.107,-42.589,146.871
15841,0.6831,0.1323,-0.7251,0.732,1.343,1.160,169.129,-42.605,146.860
15851,0.6865,0.1353,-0.7295,0.366,1.343,1.343,169.146,-42.627,146.843
15861,0.6885,0.1387,-0.7344,0.122,1.282,1.587,169.162,-42.638,146.827
15871,0.6909,0.1411,-0.7393,0.183,1.038,1.770,169.178,-42.654,146.805
15881,0.6929,0.1401,-0.7407,0.671,0.854,1.953,169.200,-42.665,146.783
15891,0.6904,0.1387,-0.7402,1.038,0.610,1.892,169.228,-42.671,146.755
15901,0.6865,0.1367,-0.7422,0.793,0.183,1.648,169.255,-42.671,146.739
15911,0.6870,0.1338,-0.7412,0.061,-0.488,1.343,169.272,-42.671,146.717
15921,0.6885,0.1270,-0.7402,-0.977,-1.160,0.793,169.283,-42.654,146.706
15931,0.6909,0.1294,-0.7358,-2.319,-1.770,0.305,169.272,-42.643,146.695
15941,0.6870,0.1318,-0.7344,-3.113,-2.136,0.122,169.250,-42.621,146.689
15951,0.6821,0.1382,-0.7310,-3.052,-2.197,0.305,169.228,-42.599,146.678
15961,0.6768,0.1431,-0.7305,-2.014,-1.770,0.854,169.217,-42.578,146.662
15971,0.6719,0.1455,-0.7290,-0.427,-0.977,1.282,169.222,-42.567,146.646
15981,0.6694,0.1445,-0.7275,0.854,-0.183,1.648,169.239,-42.567,146.618
15991,0.6748,0.1436,-0.7305,1.404,0.366,1.709,169.261,-42.567,146.596
16001,0.6812,0.1411,-0.7324,0.977,0.671,1.465,169.283,-42.578,146.580
16011,0.6875,0.1382,-0.7319,-0.061,0.671,0.916,169.288,-42.583,146.569
16021,0.6953,0.1382,-0.7334,-1.526,0.488,0.061,169.277,-42.594,146.569
16031,0.6992,0.1475,-0.7329,-2.991,0.061,-0.488,169.233,-42.599,146.580
16041,0.6929,0.1533,-0.7295,-3.113,-0.488,-0.549,169.189,-42.594,146.585
16051,0.6816,0.1567,-0.7324,-1.892,-0.610,-0.305,169.156,-42.589,146.585
16061,0.6714,0.1562,-0.7295,0.061,-0.366,-0.061,169.146,-42.578,146.585
16071,0.6626,0.1523,-0.7310,1.831,0.000,-0.122,169.151,-42.567,146.585
16081,0.6641,0.1489,-0.7334,2.563,0.427,-0.244,169.167,-42.561,146.591
16091,0.6719,0.1431,-0.7354,2.136,1.038,-0.610,169.178,-42.561,146.602
16101,0.6816,0.1416,-0.7349,1.038,1.648,-1.099,169.178,-42.578,146.624
16111,0.6929,0.1382,-0.7339,-0.244,2.014,-1.709,169.156,-42.594,146.651
16122,0.7026,0.1392,-0.7349,-1.099,1.831,-2.014,169.124,-42.616,146.678
16131,0.7036,0.1396,-0.7319,-1.465,0.977,-2.075,169.091,-42.627,146.711
16141,0.6948,0.1348,-0.7314,-1.343,-0.122,-1.892,169.069,-42.627,146.739
16151,0.6982,0.1235,-0.7334,-0.977,-0.977,-1.465,169.058,-42.621,146.755
16161,0.6719,0.1265,-0.7305,-0.732,-1.465,-1.221,169.052,-42.599,146.766
16171,0.6567,0.1338,-0.7300,-0.732,-1.465,-0.488,169.052,-42.572,146.766
16181,0.6680,0.1519,-0.7236,-0.549,-0.854,1.282,169.052,-42.561,146.750
16191,0.6831,0.1514,-0.7192,1.404,0.122,2.991,169.080,-42.572,146.711
16201,0.6934,0.1265,-0.7290,4.272,1.343,3.113,169.162,-42.599,146.673
16211,0.6982,0.1196,-0.7354,4.639,2.441,1.526,169.233,-42.632,146.656
16221,0.7026,0.1235,-0.7427,2.380,3.235,0.000,169.261,-42.665,146.667
16231,0.6982,0.1221,-0.7412,-1.160,3.723,-0.793,169.250,-42.704,146.684
16241,0.6904,0.1333,-0.7407,-4.578,3.906,-1.526,169.189,-42.737,146.717
16251,0.6865,0.1460,-0.7397,-5.920,3.418,-2.197,169.102,-42.764,146.755
16261,0.6812,0.1538,-0.7412,-4.517,2.075,-2.136,169.025,-42.770,146.788
16271,0.6782,0.1528,-0.7417,-1.770,0.610,-1.221,168.992,-42.764,146.805
16281,0.6797,0.1489,-0.7432,0.366,-0.549,0.061,168.992,-42.753,146.805
16291,0.6816,0.1440,-0.7354,1.221,-1.343,1.099,169.014,-42.737,146.788
16301,0.6860,0.1387,-0.7305,0.916,-1.648,1.404,169.041,-42.720,146.761
16311,0.6909,0.1377,-0.7280,0.122,-1.709,0.977,169.058,-42.709,146.744
16321,0.6938,0.1372,-0.7266,-0.916,-1.587,-0.122,169.052,-42.698,146.744
16331,0.6929,0.1367,-0.7231,-2.075,-0.977,-1.160,169.025,-42.693,146.755
16341,0.6904,0.1387,-0.7217,-2.930,-0.061,-2.014,168.981,-42.693,146.783
16351,0.6880,0.1392,-0.7222,-3.479,1.038,-2.441,168.926,-42.704,146.816
16361,0.6851,0.1440,-0.7266,-3.479,2.014,-2.380,168.865,-42.720,146.854
16371,0.6802,0.1445,-0.7290,-2.563,2.563,-1.892,168.816,-42.737,146.887
16381,0.6802,0.1460,-0.7354,-1.160,2.686,-1.221,168.788,-42.759,146.909
16391,0.6816,0.1470,-0.7368,-0.061,2.380,-0.610,168.777,-42.775,146.926
16401,0.6851,0.1465,-0.7383,0.427,1.831,-0.244,168.777,-42.786,146.931
16411,0.6880,0.1450,-0.7393,0.244,1.221,-0.183,168.777,-42.792,146.937
16421,0.6909,0.1450,-0.7402,-0.366,0.549,-0.427,168.766,-42.797,146.948
16431,0.6904,0.1436,-0.7388,-1.221,-0.061,-0.977,168.750,-42.792,146.959
16441,0.6914,0.1426,-0.7378,-2.014,-0.427,-1.648,168.717,-42.781,146.981
16451,0.6909,0.1387,-0.7334,-2.563,-0.732,-2.136,168.679,-42.770,147.008
16461,0.6885,0.1431,-0.7314,-2.991,-0.793,-2.319,168.635,-42.759,147.036
16471,0.6831,0.1406,-0.7300,-2.869,-0.549,-2.197,168.591,-42.748,147.063
16481,0.6802,0.1431,-0.7275,-2.441,-0.244,-1.892,168.552,-42.737,147.085
16491,0.6821,0.1455,-0.7261,-1.831,0.122,-1.465,168.525,-42.737,147.107
16501,0.6821,0.1470,-0.7319,-1.038,0.366,-1.099,168.503,-42.737,147.123
16511,0.6841,0.1470,-0.7319,-0.427,0.671,-0.793,168.492,-42.737,147.134
16521,0.6870,0.1479,-0.7354,-0.183,0.916,-0.610,168.486,-42.742,147.145
16531,0.6885,0.1528,-0.7334,-0.366,1.038,-0.610,168.470,-42.748,147.156
16541,0.6885,0.1523,-0.7354,-0.427,0.854,-0.732,168.459,-42.753,147.167
16551,0.6880,0.1543,-0.7344,-0.549,0.488,-0.916,168.442,-42.753,147.184
16561,0.6890,0.1562,-0.7349,-0.610,0.122,-1.221,168.420,-42.753,147.200
16572,0.6865,0.1577,-0.7319,-0.671,-0.305,-1.465,168.393,-42.742,147.217
16582,0.6851,0.1553,-0.7305,-0.549,-0.488,-1.648,168.371,-42.731,147.239
16592,0.6836,0.1528,-0.7290,-0.610,-0.549,-1.770,168.349,-42.726,147.261
16602,0.6826,0.1543,-0.7285,-0.671,-0.488,-1.892,168.322,-42.715,147.283
16612,0.6831,0.1523,-0.7266,-0.427,-0.305,-1.892,168.300,-42.704,147.310
16622,0.6846,0.1504,-0.7261,-0.122,0.000,-1.770,168.283,-42.704,147.332
16632,0.6846,0.1523,-0.7241,0.000,0.427,-1.587,168.267,-42.704,147.354
16642,0.6836,0.1523,-0.7266,0.061,0.732,-1.465,168.250,-42.709,147.376
16652,0.6846,0.1509,-0.7271,0.000,0.977,-1.343,168.239,-42.715,147.398
16662,0.6890,0.1548,-0.7305,-0.061,1.038,-1.221,168.223,-42.720,147.415
16672,0.6909,0.1548,-0.7290,0.000,0.977,-1.160,168.206,-42.731,147.437
16682,0.6924,0.1528,-0.7280,0.244,0.793,-1.099,168.195,-42.737,147.453
16692,0.6953,0.1484,-0.7295,0.305,0.671,-1.221,168.190,-42.742,147.469
16702,0.6929,0.1494,-0.7295,0.183,0.427,-1.221,168.184,-42.748,147.486
16712,0.6904,0.1514,-0.7300,0.122,0.244,-1.160,168.173,-42.748,147.502
16722,0.6875,0.1523,-0.7275,0.305,0.183,-1.038,168.168,-42.748,147.519
16732,0.6831,0.1489,-0.7285,0.671,0.366,-0.916,168.168,-42.748,147.530
