elapsed_ms,acc_x_g,acc_y_g,acc_z_g,gyro_x_dps,gyro_y_dps,gyro_z_dps,angle_x_deg,angle_y_deg,angle_z_deg
0,0.7114,-0.0703,-0.7178,0.183,1.038,0.122,-174.820,-44.374,112.110
10,0.7104,-0.0737,-0.7212,0.549,0.854,0.244,-174.803,-44.379,112.104
20,0.7080,-0.0732,-0.7202,0.488,0.671,0.427,-174.787,-44.385,112.099
30,0.7075,-0.0728,-0.7241,0.305,0.427,0.549,-174.776,-44.390,112.088
40,0.7090,-0.0708,-0.7236,0.061,0.244,0.732,-174.765,-44.390,112.077
50,0.7080,-0.0693,-0.7222,0.244,0.183,0.793,-174.749,-44.390,112.066
60,0.7080,-0.0684,-0.7202,0.610,0.183,0.732,-174.738,-44.390,112.055
70,0.7056,-0.0684,-0.7222,0.793,0.122,0.610,-174.721,-44.390,112.050
80,0.7041,-0.0679,-0.7207,0.854,0.061,0.427,-174.705,-44.390,112.044
90,0.7041,-0.0664,-0.7207,0.610,0.061,0.183,-174.699,-44.385,112.039
100,0.7036,-0.0659,-0.7222,0.427,-0.122,0.061,-174.694,-44.385,112.039
110,0.7056,-0.0674,-0.7197,0.305,-0.061,0.000,-174.694,-44.379,112.039
120,0.7065,-0.0684,-0.7207,0.244,-0.061,-0.061,-174.688,-44.379,112.039
130,0.7065,-0.0698,-0.7187,0.244,-0.244,-0.061,-174.683,-44.379,112.044
140,0.7075,-0.0669,-0.7178,0.427,-0.366,-0.061,-174.683,-44.374,112.044
150,0.7061,-0.0669,-0.7168,0.488,-0.427,-0.061,-174.677,-44.374,112.044
160,0.7056,-0.0674,-0.7168,0.244,-0.427,-0.061,-174.677,-44.368,112.044
170,0.7061,-0.0645,-0.7139,0.122,-0.366,-0.122,-174.677,-44.368,112.050
180,0.7070,-0.0674,-0.7158,0.305,-0.305,-0.183,-174.677,-44.368,112.050
190,0.7075,-0.0674,-0.7158,0.549,-0.122,-0.305,-174.672,-44.368,112.055
200,0.7080,-0.0688,-0.7173,0.671,0.244,-0.427,-174.666,-44.374,112.061
210,0.7085,-0.0703,-0.7153,0.793,0.549,-0.366,-174.661,-44.379,112.066
220,0.7080,-0.0708,-0.7178,0.732,0.610,-0.244,-174.650,-44.385,112.066
230,0.7065,-0.0732,-0.7197,0.610,0.610,-0.122,-174.644,-44.390,112.072
240,0.7085,-0.0732,-0.7183,0.549,0.488,-0.061,-174.633,-44.396,112.072
250,0.7090,-0.0737,-0.7217,0.427,0.366,-0.061,-174.622,-44.401,112.072
260,0.7090,-0.0747,-0.7192,0.305,0.122,-0.122,-174.617,-44.401,112.072
270,0.7095,-0.0732,-0.7178,0.061,-0.122,-0.122,-174.611,-44.401,112.072
280,0.7114,-0.0728,-0.7183,-0.122,-0.244,-0.061,-174.611,-44.401,112.072
290,0.7065,-0.0728,-0.7187,-0.244,-0.244,-0.061,-174.611,-44.401,112.077
300,0.7070,-0.0742,-0.7202,-0.244,-0.183,0.061,-174.606,-44.396,112.077
310,0.7051,-0.0737,-0.7197,-0.183,-0.122,0.183,-174.600,-44.396,112.072
320,0.7056,-0.0742,-0.7183,-0.122,0.000,0.305,-174.595,-44.396,112.066
330,0.7061,-0.0718,-0.7153,-0.183,0.061,0.305,-174.589,-44.396,112.066
340,0.7046,-0.0679,-0.7153,0.000,0.061,0.366,-174.589,-44.396,112.061
350,0.7080,-0.0684,-0.7168,0.000,0.122,0.427,-174.584,-44.401,112.050
360,0.7090,-0.0674,-0.7187,0.244,0.122,0.427,-174.578,-44.401,112.044
370,0.7100,-0.0693,-0.7192,0.427,0.061,0.366,-174.567,-44.401,112.039
380,0.7075,-0.0688,-0.7192,0.427,0.061,0.244,-174.562,-44.401,112.039
390,0.7070,-0.0669,-0.7178,0.244,-0.061,0.122,-174.556,-44.401,112.039
400,0.7051,-0.0659,-0.7163,0.061,0.000,0.000,-174.562,-44.401,112.039
410,0.7051,-0.0654,-0.7153,0.061,0.000,-0.061,-174.562,-44.401,112.039
420,0.7046,-0.0640,-0.7158,0.366,0.061,-0.122,-174.562,-44.407,112.039
430,0.7051,-0.0645,-0.7158,0.977,0.122,-0.183,-174.556,-44.407,112.039
440,0.7051,-0.0654,-0.7178,1.587,0.122,-0.244,-174.545,-44.407,112.044
450,0.7056,-0.0674,-0.7173,1.953,0.183,-0.427,-174.534,-44.412,112.050
460,0.7051,-0.0674,-0.7183,1.953,0.244,-0.610,-174.518,-44.412,112.061
470,0.7036,-0.0664,-0.7178,1.648,0.183,-0.671,-174.512,-44.412,112.066
480,0.7046,-0.0640,-0.7148,1.648,0.061,-0.549,-174.501,-44.418,112.077
490,0.7021,-0.0635,-0.7119,1.953,-0.183,-0.183,-174.490,-44.418,112.077
500,0.7051,-0.0669,-0.7134,2.747,-0.366,0.183,-174.463,-44.412,112.077
510,0.7061,-0.0718,-0.7119,3.662,-0.488,0.610,-174.419,-44.412,112.066
520,0.7075,-0.0771,-0.7124,4.395,-0.427,0.854,-174.364,-44.407,112.055
530,0.7080,-0.0806,-0.7144,4.456,-0.244,0.854,-174.304,-44.407,112.044
540,0.7085,-0.0840,-0.7158,3.906,0.122,0.793,-174.243,-44.407,112.033
550,0.7085,-0.0854,-0.7178,3.052,0.610,0.610,-174.199,-44.412,112.022
560,0.7119,-0.0864,-0.7231,2.014,1.160,0.305,-174.166,-44.423,112.017
570,0.7095,-0.0859,-0.7217,0.916,1.526,-0.183,-174.144,-44.440,112.017
580,0.7134,-0.0884,-0.7227,-0.061,1.465,-0.488,-174.139,-44.451,112.022
590,0.7134,-0.0845,-0.7256,-0.854,1.221,-0.549,-174.144,-44.462,112.028
600,0.7114,-0.0845,-0.7236,-1.282,0.610,-0.427,-174.150,-44.467,112.033
610,0.7095,-0.0854,-0.7236,-1.465,-0.061,-0.183,-174.161,-44.467,112.039
620,0.7070,-0.0825,-0.7207,-1.343,-0.610,0.183,-174.166,-44.456,112.033
630,0.7061,-0.0825,-0.7168,-1.099,-1.038,0.549,-174.161,-44.445,112.028
640,0.7046,-0.0835,-0.7163,-0.793,-1.160,0.916,-174.155,-44.434,112.017
650,0.7041,-0.0815,-0.7148,-0.488,-1.038,1.343,-174.139,-44.423,112.000
660,0.7051,-0.0811,-0.7173,-0.305,-0.671,1.587,-174.122,-44.412,111.978
670,0.7056,-0.0801,-0.7173,-0.183,-0.183,1.709,-174.106,-44.407,111.956
680,0.7065,-0.0820,-0.7173,-0.183,0.305,1.770,-174.084,-44.407,111.929
690,0.7100,-0.0786,-0.7183,-0.488,0.549,1.770,-174.067,-44.412,111.907
700,0.7085,-0.0771,-0.7187,-0.610,0.671,1.770,-174.051,-44.418,111.879
710,0.7090,-0.0723,-0.7187,-0.549,0.610,1.648,-174.045,-44.423,111.857
720,0.7119,-0.0693,-0.7202,-0.488,0.366,1.404,-174.040,-44.429,111.835
730,0.7124,-0.0703,-0.7212,-0.427,0.000,1.160,-174.034,-44.429,111.819
740,0.7124,-0.0713,-0.7207,-0.488,-0.366,0.977,-174.034,-44.423,111.808
750,0.7104,-0.0713,-0.7217,-0.793,-0.732,0.732,-174.040,-44.418,111.797
760,0.7100,-0.0728,-0.7197,-1.038,-1.038,0.488,-174.051,-44.407,111.791
770,0.7065,-0.0732,-0.7173,-1.221,-1.099,0.244,-174.062,-44.396,111.791
780,0.7031,-0.0723,-0.7139,-1.282,-0.977,0.061,-174.073,-44.385,111.791
790,0.7026,-0.0688,-0.7134,-1.160,-0.610,0.000,-174.089,-44.379,111.791
800,0.7017,-0.0659,-0.7139,-0.732,-0.183,0.061,-174.106,-44.379,111.791
810,0.7036,-0.0669,-0.7144,-0.122,0.305,0.122,-174.111,-44.379,111.791
820,0.7031,-0.0664,-0.7153,0.305,0.732,0.061,-174.111,-44.390,111.786
830,0.7075,-0.0684,-0.7178,0.732,1.038,-0.061,-174.106,-44.401,111.786
840,0.7075,-0.0708,-0.7202,0.854,1.221,-0.183,-174.100,-44.412,111.786
850,0.7100,-0.0742,-0.7197,0.732,1.282,-0.427,-174.100,-44.423,111.791
860,0.7095,-0.0732,-0.7202,0.549,1.160,-0.732,-174.100,-44.440,111.802
870,0.7061,-0.0708,-0.7212,0.366,0.854,-1.160,-174.111,-44.445,111.813
880,0.7056,-0.0742,-0.7207,0.549,0.366,-1.404,-174.117,-44.451,111.835
890,0.7065,-0.0791,-0.7192,0.549,-0.061,-1.526,-174.122,-44.451,111.857
900,0.7061,-0.0771,-0.7153,0.244,-0.427,-1.404,-174.133,-44.445,111.874
910,0.7041,-0.0781,-0.7148,0.183,-0.549,-1.099,-174.139,-44.440,111.890
920,0.7046,-0.0771,-0.7129,0.366,-0.488,-0.916,-174.139,-44.440,111.907
930,0.7031,-0.0796,-0.7114,0.671,-0.061,-0.671,-174.133,-44.440,111.912
940,0.7041,-0.0796,-0.7104,1.221,0.122,-0.366,-174.122,-44.440,111.918
950,0.7041,-0.0820,-0.7109,1.709,0.244,-0.061,-174.095,-44.445,111.918
960,0.7046,-0.0845,-0.7139,1.282,0.610,0.183,-174.073,-44.451,111.918
970,0.7075,-0.0854,-0.7183,1.099,0.916,0.305,-174.051,-44.456,111.912
980,0.7080,-0.0859,-0.7168,0.732,1.221,0.305,-174.029,-44.473,111.907
990,0.7104,-0.0889,-0.7168,-0.061,1.892,0.427,-174.012,-44.489,111.896
1000,0.7085,-0.0859,-0.7148,-0.854,2.136,0.671,-174.001,-44.511,111.885
1010,0.7075,-0.0811,-0.7153,-1.038,2.136,0.671,-174.001,-44.533,111.874
1021,0.7065,-0.0767,-0.7158,-0.793,2.014,0.610,-174.001,-44.550,111.857
1030,0.7080,-0.0747,-0.7192,-0.183,1.709,0.610,-173.996,-44.566,111.846
1040,0.7080,-0.0757,-0.7178,0.366,1.343,0.977,-173.979,-44.577,111.835
1050,0.7065,-0.0786,-0.7187,0.854,0.793,1.282,-173.958,-44.577,111.813
1060,0.7100,-0.0796,-0.7187,1.160,0.122,1.404,-173.930,-44.577,111.797
1070,0.7104,-0.0796,-0.7202,1.099,-0.366,1.343,-173.903,-44.572,111.775
1080,0.7114,-0.0820,-0.7207,0.732,-0.549,1.099,-173.881,-44.566,111.764
1090,0.7124,-0.0806,-0.7192,0.061,-0.488,0.793,-173.870,-44.561,111.753
1100,0.7090,-0.0781,-0.7183,-0.549,-0.427,0.427,-173.870,-44.555,111.747
1110,0.7085,-0.0786,-0.7153,-1.099,-0.366,0.122,-173.881,-44.550,111.747
1120,0.7080,-0.0742,-0.7134,-1.221,-0.549,0.000,-173.892,-44.544,111.747
1130,0.7070,-0.0718,-0.7134,-0.977,-0.610,-0.061,-173.908,-44.539,111.747
1140,0.7085,-0.0723,-0.7139,-0.427,-0.610,0.061,-173.914,-44.533,111.747
1150,0.7090,-0.0737,-0.7144,0.549,-0.610,0.366,-173.908,-44.528,111.742
1160,0.7104,-0.0762,-0.7134,0.854,-0.732,0.366,-173.897,-44.522,111.742
1170,0.7114,-0.0786,-0.7168,0.671,-0.671,0.122,-173.892,-44.517,111.736
1180,0.7124,-0.0796,-0.7168,0.244,-0.610,-0.183,-173.886,-44.511,111.742
1190,0.7124,-0.0796,-0.7168,-0.244,-0.610,-0.427,-173.892,-44.511,111.747
1200,0.7090,-0.0796,-0.7173,-0.610,-0.671,-0.610,-173.903,-44.506,111.758
1210,0.7075,-0.0776,-0.7148,-0.732,-0.610,-0.671,-173.914,-44.500,111.769
1220,0.7056,-0.0752,-0.7144,-0.671,-0.488,-0.610,-173.930,-44.495,111.780
1230,0.7061,-0.0762,-0.7144,-0.305,-0.244,-0.488,-173.936,-44.495,111.786
1240,0.7051,-0.0762,-0.7168,0.183,-0.183,-0.366,-173.941,-44.489,111.791
1250,0.7056,-0.0776,-0.7163,0.549,-0.122,-0.183,-173.936,-44.489,111.791
1260,0.7041,-0.0776,-0.7178,0.732,-0.183,-0.122,-173.930,-44.484,111.797
1270,0.7070,-0.0776,-0.7168,0.671,-0.244,-0.183,-173.919,-44.484,111.797
1280,0.7090,-0.0786,-0.7173,0.488,-0.183,-0.366,-173.919,-44.478,111.802
1290,0.7090,-0.0776,-0.7173,0.305,-0.122,-0.549,-173.919,-44.478,111.813
1300,0.7080,-0.0781,-0.7178,0.122,-0.244,-0.732,-173.925,-44.478,111.824
1310,0.7065,-0.0791,-0.7168,-0.061,-0.244,-0.916,-173.930,-44.478,111.835
1320,0.7085,-0.0806,-0.7163,-0.244,-0.305,-0.977,-173.941,-44.473,111.846
1330,0.7080,-0.0771,-0.7144,-0.305,-0.366,-0.977,-173.952,-44.473,111.863
1340,0.7085,-0.0811,-0.7153,-0.183,-0.366,-0.916,-173.958,-44.473,111.874
1350,0.7075,-0.0806,-0.7158,0.000,-0.305,-0.793,-173.963,-44.473,111.890
1360,0.7075,-0.0811,-0.7163,0.000,-0.244,-0.671,-173.969,-44.467,111.896
1370,0.7070,-0.0811,-0.7148,0.000,-0.244,-0.610,-173.969,-44.467,111.907
1380,0.7075,-0.0811,-0.7153,-0.122,-0.122,-0.427,-173.969,-44.467,111.912
1390,0.7061,-0.0806,-0.7163,-0.122,0.000,-0.305,-173.969,-44.467,111.918
1400,0.7085,-0.0811,-0.7163,0.061,0.061,-0.122,-173.963,-44.467,111.918
1410,0.7080,-0.0820,-0.7168,0.244,0.061,-0.061,-173.958,-44.467,111.918
1420,0.7090,-0.0811,-0.7207,0.183,0.122,0.000,-173.952,-44.467,111.918
1430,0.7075,-0.0791,-0.7202,-0.183,0.122,0.061,-173.952,-44.467,111.918
1440,0.7075,-0.0786,-0.7192,-0.488,0.061,0.000,-173.958,-44.467,111.918
1450,0.7085,-0.0796,-0.7178,-0.549,-0.061,0.061,-173.958,-44.467,111.918
1460,0.7070,-0.0776,-0.7168,-0.427,-0.122,0.061,-173.958,-44.467,111.918
1470,0.7041,-0.0771,-0.7168,-0.305,-0.183,0.061,-173.963,-44.462,111.918
1480,0.7036,-0.0786,-0.7158,-0.488,-0.305,0.061,-173.963,-44.456,111.918
1490,0.7046,-0.0776,-0.7148,-0.671,-0.366,0.183,-173.969,-44.456,111.912
1500,0.7070,-0.0791,-0.7158,-0.549,-0.488,0.305,-173.969,-44.451,111.912
1510,0.7095,-0.0835,-0.7148,-0.305,-0.427,0.305,-173.963,-44.445,111.907
1521,0.7129,-0.0864,-0.7168,-0.244,-0.244,0.183,-173.952,-44.445,111.907
1530,0.7158,-0.0884,-0.7187,-0.427,0.000,0.122,-173.947,-44.451,111.901
1540,0.7139,-0.0869,-0.7192,-0.916,0.061,0.244,-173.947,-44.451,111.901
1550,0.7109,-0.0830,-0.7163,-1.282,0.061,0.305,-173.952,-44.451,111.896
1560,0.7075,-0.0796,-0.7168,-1.526,-0.061,0.427,-173.958,-44.451,111.890
1570,0.7036,-0.0762,-0.7173,-1.465,-0.061,0.610,-173.969,-44.451,111.879
1580,0.7026,-0.0723,-0.7187,-0.977,-0.122,0.793,-173.969,-44.445,111.868
1590,0.7017,-0.0693,-0.7187,-0.427,-0.061,0.977,-173.969,-44.440,111.857
1600,0.7046,-0.0684,-0.7168,0.061,0.000,0.977,-173.969,-44.440,111.841
1610,0.7061,-0.0703,-0.7183,0.305,-0.061,0.732,-173.963,-44.434,111.830
1620,0.7080,-0.0693,-0.7192,0.183,-0.061,0.305,-173.963,-44.434,111.830
1630,0.7090,-0.0713,-0.7202,-0.244,-0.061,-0.244,-173.969,-44.434,111.830
1640,0.7065,-0.0693,-0.7178,-0.916,-0.183,-0.854,-173.990,-44.434,111.846
1650,0.7041,-0.0664,-0.7153,-1.404,-0.061,-1.221,-174.023,-44.434,111.863
1660,0.7036,-0.0659,-0.7153,-1.343,-0.061,-1.343,-174.056,-44.434,111.879
1670,0.7031,-0.0674,-0.7144,-0.854,0.122,-1.282,-174.084,-44.440,111.896
1680,0.7061,-0.0708,-0.7139,0.183,0.183,-1.221,-174.095,-44.440,111.912
1690,0.7095,-0.0747,-0.7158,0.793,0.061,-1.343,-174.100,-44.445,111.934
1700,0.7104,-0.0771,-0.7187,0.916,0.000,-1.465,-174.106,-44.451,111.951
1710,0.7095,-0.0820,-0.7183,0.183,0.000,-1.587,-174.111,-44.451,111.973
1720,0.7085,-0.0811,-0.7148,-0.732,-0.061,-1.648,-174.128,-44.451,112.000
1730,0.7041,-0.0771,-0.7144,-1.343,0.061,-1.587,-174.155,-44.456,112.022
1740,0.7041,-0.0762,-0.7124,-0.977,0.061,-1.343,-174.177,-44.456,112.039
1750,0.7031,-0.0796,-0.7139,-0.305,0.244,-0.977,-174.183,-44.462,112.050
1760,0.7007,-0.0781,-0.7134,0.183,0.488,-0.610,-174.183,-44.462,112.061
1770,0.7012,-0.0781,-0.7129,0.305,0.732,-0.122,-174.172,-44.467,112.061
1780,0.7017,-0.0796,-0.7163,0.000,0.854,0.427,-174.166,-44.473,112.055
1790,0.7070,-0.0776,-0.7163,0.183,0.854,0.732,-174.150,-44.484,112.044
1800,0.7104,-0.0801,-0.7158,1.099,0.732,0.793,-174.128,-44.489,112.028
1810,0.7104,-0.0815,-0.7178,1.038,0.671,0.732,-174.100,-44.495,112.017
1820,0.7100,-0.0801,-0.7227,1.038,0.488,0.610,-174.084,-44.500,112.011
1830,0.7090,-0.0796,-0.7192,0.916,0.305,0.549,-174.062,-44.500,112.000
1840,0.7080,-0.0757,-0.7187,0.488,0.183,0.610,-174.051,-44.500,111.995
1850,0.7080,-0.0713,-0.7163,0.305,0.122,0.610,-174.045,-44.500,111.984
1860,0.7056,-0.0708,-0.7148,0.244,0.000,0.488,-174.040,-44.500,111.978
1870,0.7056,-0.0728,-0.7163,0.671,-0.183,0.366,-174.034,-44.500,111.973
1880,0.7065,-0.0747,-0.7148,0.916,-0.366,0.244,-174.018,-44.495,111.967
1890,0.7104,-0.0767,-0.7158,0.671,-0.610,0.061,-174.012,-44.489,111.967
1900,0.7124,-0.0801,-0.7153,0.427,-0.732,-0.061,-174.007,-44.484,111.973
1910,0.7129,-0.0796,-0.7139,0.122,-0.488,-0.244,-174.001,-44.484,111.978
1920,0.7114,-0.0811,-0.7158,-0.061,-0.183,-0.366,-174.001,-44.484,111.984
1930,0.7095,-0.0806,-0.7144,-0.183,0.244,-0.305,-174.001,-44.489,111.984
1940,0.7075,-0.0791,-0.7158,-0.122,0.488,-0.244,-174.001,-44.495,111.989
1950,0.7065,-0.0767,-0.7178,0.000,0.610,-0.183,-174.001,-44.500,111.989
1960,0.7075,-0.0791,-0.7163,0.000,0.549,-0.122,-174.001,-44.506,111.989
1970,0.7080,-0.0820,-0.7153,0.122,0.366,-0.061,-173.996,-44.506,111.989
1980,0.7114,-0.0869,-0.7192,-0.122,0.122,-0.122,-173.990,-44.511,111.995
1990,0.7109,-0.0889,-0.7202,-0.916,-0.061,-0.366,-173.990,-44.506,111.995
2000,0.7148,-0.0874,-0.7202,-1.892,-0.122,-0.549,-174.007,-44.511,112.006
2010,0.7139,-0.0864,-0.7202,-2.808,-0.244,-0.488,-174.029,-44.506,112.011
2021,0.7109,-0.0850,-0.7187,-3.052,-0.427,-0.305,-174.056,-44.506,112.017
2030,0.7061,-0.0811,-0.7153,-2.747,-0.488,0.000,-174.078,-44.500,112.017
2040,0.7031,-0.0791,-0.7134,-1.953,-0.488,0.427,-174.089,-44.489,112.011
2050,0.7017,-0.0796,-0.7144,-0.977,-0.427,0.854,-174.089,-44.484,112.000
2060,0.7031,-0.0786,-0.7163,-0.366,-0.366,1.221,-174.078,-44.478,111.984
2070,0.7070,-0.0781,-0.7183,-0.244,-0.183,1.526,-174.062,-44.473,111.962
2080,0.7070,-0.0737,-0.7192,-0.549,-0.061,1.587,-174.051,-44.473,111.940
2090,0.7090,-0.0752,-0.7207,-0.793,0.183,1.404,-174.045,-44.473,111.923
2100,0.7114,-0.0698,-0.7202,-0.854,0.305,1.099,-174.045,-44.473,111.907
2111,0.7100,-0.0718,-0.7192,-0.916,0.244,0.732,-174.051,-44.473,111.896
2121,0.7109,-0.0728,-0.7227,-0.977,0.061,0.305,-174.062,-44.473,111.890
2131,0.7119,-0.0718,-0.7187,-1.282,-0.366,-0.061,-174.078,-44.473,111.890
2141,0.7095,-0.0674,-0.7168,-1.709,-0.793,-0.366,-174.100,-44.467,111.901
2151,0.7075,-0.0645,-0.7153,-1.831,-1.038,-0.427,-174.133,-44.456,111.907
2161,0.7046,-0.0645,-0.7134,-1.587,-0.977,-0.366,-174.161,-44.451,111.912
2171,0.7021,-0.0649,-0.7124,-1.038,-0.793,-0.305,-174.183,-44.440,111.918
2181,0.7017,-0.0654,-0.7100,-0.427,-0.549,-0.366,-174.194,-44.440,111.923
2191,0.7026,-0.0674,-0.7100,0.061,-0.366,-0.366,-174.205,-44.434,111.929
2201,0.7070,-0.0752,-0.7134,0.366,0.000,-0.488,-174.199,-44.440,111.934
2211,0.7134,-0.0830,-0.7163,0.366,0.488,-0.793,-174.194,-44.445,111.945
2221,0.7148,-0.0894,-0.7222,-0.183,0.793,-1.160,-174.194,-44.456,111.962
2231,0.7153,-0.0933,-0.7246,-1.160,0.793,-1.465,-174.205,-44.462,111.984
2241,0.7163,-0.0923,-0.7212,-2.258,0.488,-1.404,-174.227,-44.473,112.000
2251,0.7129,-0.0908,-0.7217,-2.991,0.000,-1.038,-174.254,-44.473,112.017
2261,0.7090,-0.0889,-0.7178,-3.235,-0.549,-0.427,-174.276,-44.467,112.022
2271,0.7026,-0.0859,-0.7144,-2.869,-0.977,0.305,-174.293,-44.456,112.017
2281,0.7007,-0.0845,-0.7158,-2.197,-1.099,1.099,-174.293,-44.440,112.006
2291,0.6987,-0.0835,-0.7134,-1.526,-1.099,1.831,-174.282,-44.429,111.978
2301,0.7007,-0.0840,-0.7163,-0.977,-0.916,2.441,-174.260,-44.412,111.945
2311,0.7036,-0.0806,-0.7153,-0.732,-0.671,2.747,-174.232,-44.401,111.912
2321,0.7061,-0.0757,-0.7173,-0.793,-0.305,2.930,-174.210,-44.396,111.868
2331,0.7080,-0.0713,-0.7163,-0.854,0.061,3.113,-174.188,-44.396,111.824
2341,0.7065,-0.0659,-0.7202,-0.732,0.366,3.174,-174.172,-44.396,111.780
2351,0.7056,-0.0615,-0.7197,-0.549,0.549,3.113,-174.155,-44.396,111.736
2361,0.7026,-0.0601,-0.7207,-0.305,0.610,2.869,-174.139,-44.396,111.698
2371,0.7007,-0.0562,-0.7231,0.183,0.732,2.380,-174.128,-44.401,111.665
2381,0.7002,-0.0557,-0.7197,0.244,0.610,1.892,-174.122,-44.401,111.638
2391,0.6987,-0.0503,-0.7231,0.305,0.427,1.343,-174.128,-44.401,111.616
2401,0.7021,-0.0508,-0.7197,0.610,0.427,0.793,-174.128,-44.401,111.605
2411,0.7041,-0.0518,-0.7207,1.038,0.427,0.061,-174.139,-44.401,111.605
2421,0.7056,-0.0547,-0.7222,1.343,0.366,-0.610,-174.144,-44.407,111.610
2431,0.7080,-0.0566,-0.7197,1.404,0.183,-1.343,-174.155,-44.412,111.632
2441,0.7080,-0.0640,-0.7207,1.465,0.000,-1.953,-174.166,-44.412,111.654
2451,0.7124,-0.0693,-0.7192,1.160,-0.244,-2.502,-174.183,-44.412,111.693
2461,0.7139,-0.0747,-0.7153,0.793,-0.427,-3.052,-174.205,-44.418,111.736
2471,0.7187,-0.0815,-0.7168,0.366,-0.549,-3.601,-174.232,-44.418,111.786
2481,0.7212,-0.0830,-0.7134,-0.183,-0.793,-3.845,-174.260,-44.423,111.841
2491,0.7202,-0.0889,-0.7129,-0.916,-1.099,-3.906,-174.293,-44.423,111.896
2501,0.7192,-0.0908,-0.7139,-1.770,-1.221,-3.845,-174.337,-44.418,111.951
2511,0.7192,-0.0918,-0.7104,-2.319,-1.282,-3.479,-174.375,-44.418,112.000
2521,0.7173,-0.0913,-0.7100,-2.930,-1.221,-2.991,-174.419,-44.418,112.044
2531,0.7124,-0.0869,-0.7109,-3.174,-0.977,-2.319,-174.457,-44.412,112.077
2541,0.7065,-0.0815,-0.7056,-3.052,-0.549,-1.526,-174.496,-44.412,112.099
2551,0.7021,-0.0742,-0.7070,-2.563,-0.061,-0.610,-174.518,-44.418,112.110
2561,0.6992,-0.0674,-0.7085,-1.526,0.427,0.366,-174.534,-44.418,112.104
2571,0.6968,-0.0635,-0.7109,0.061,0.854,1.221,-174.523,-44.429,112.088
2581,0.6978,-0.0605,-0.7163,1.648,1.221,1.831,-174.496,-44.434,112.061
2591,0.6973,-0.0601,-0.7212,2.808,1.465,2.014,-174.452,-44.440,112.028
2601,0.6978,-0.0615,-0.7280,3.296,1.648,1.831,-174.408,-44.451,112.000
2611,0.6987,-0.0625,-0.7285,3.113,1.587,1.160,-174.370,-44.456,111.984
2621,0.7036,-0.0620,-0.7285,2.197,1.221,0.305,-174.353,-44.462,111.978
2631,0.7070,-0.0625,-0.7319,1.038,0.671,-0.671,-174.359,-44.462,111.984
2641,0.7065,-0.0659,-0.7285,0.061,0.000,-1.587,-174.375,-44.462,112.006
2651,0.7104,-0.0693,-0.7285,-0.610,-0.732,-2.380,-174.408,-44.451,112.044
2661,0.7095,-0.0728,-0.7212,-1.221,-1.404,-2.991,-174.446,-44.440,112.083
2671,0.7090,-0.0742,-0.7187,-2.075,-1.770,-3.235,-174.496,-44.429,112.132
2681,0.7061,-0.0742,-0.7134,-2.075,-1.892,-3.052,-174.545,-44.412,112.176
2691,0.7051,-0.0791,-0.7090,-1.770,-1.648,-2.563,-174.578,-44.401,112.214
2701,0.7026,-0.0825,-0.7075,-1.038,-1.099,-2.014,-174.600,-44.396,112.247
2711,0.7021,-0.0854,-0.7104,-0.122,-0.183,-1.404,-174.600,-44.396,112.264
2721,0.7056,-0.0869,-0.7104,0.366,0.610,-0.671,-174.584,-44.401,112.275
2731,0.7065,-0.0854,-0.7139,0.549,1.160,0.061,-174.562,-44.418,112.269
2741,0.7080,-0.0845,-0.7158,0.854,1.648,0.916,-174.534,-44.434,112.258
2751,0.7095,-0.0825,-0.7153,1.221,1.831,1.526,-174.490,-44.451,112.231
2761,0.7104,-0.0825,-0.7192,1.404,1.709,1.831,-174.446,-44.467,112.203
2771,0.7114,-0.0806,-0.7227,1.221,1.343,1.953,-174.408,-44.478,112.176
2781,0.7095,-0.0786,-0.7246,0.549,0.671,1.953,-174.375,-44.478,112.148
2791,0.7085,-0.0767,-0.7212,-0.244,0.000,1.892,-174.359,-44.473,112.121
2801,0.7090,-0.0732,-0.7212,-1.099,-0.671,1.709,-174.353,-44.467,112.099
2811,0.7085,-0.0713,-0.7183,-1.526,-1.038,1.526,-174.353,-44.456,112.077
2821,0.7095,-0.0698,-0.7178,-1.648,-1.282,1.343,-174.359,-44.440,112.061
2831,0.7070,-0.0679,-0.7163,-1.465,-1.343,1.221,-174.364,-44.429,112.044
2841,0.7075,-0.0679,-0.7119,-1.282,-1.160,1.099,-174.370,-44.418,112.033
2851,0.7056,-0.0664,-0.7090,-1.160,-0.793,0.977,-174.375,-44.412,112.022
2861,0.7065,-0.0654,-0.7085,-0.916,-0.305,0.854,-174.380,-44.412,112.011
2871,0.7090,-0.0640,-0.7090,-0.549,0.244,0.732,-174.380,-44.418,112.000
2881,0.7114,-0.0610,-0.7095,-0.183,0.671,0.671,-174.380,-44.429,111.989
2891,0.7100,-0.0591,-0.7129,0.244,0.977,0.488,-174.386,-44.445,111.978
2901,0.7100,-0.0615,-0.7139,0.671,1.038,0.366,-174.380,-44.456,111.973
2911,0.7085,-0.0615,-0.7197,1.038,1.038,0.122,-174.375,-44.467,111.967
2921,0.7080,-0.0645,-0.7217,1.099,0.793,-0.305,-174.370,-44.473,111.973
2931,0.7085,-0.0674,-0.7236,0.916,0.488,-0.732,-174.370,-44.478,111.984
2941,0.7085,-0.0684,-0.7202,0.549,0.244,-1.221,-174.380,-44.478,112.000
2951,0.7061,-0.0713,-0.7212,0.244,0.061,-1.587,-174.391,-44.478,112.022
2961,0.7070,-0.0718,-0.7192,-0.122,-0.183,-1.831,-174.408,-44.478,112.050
2971,0.7075,-0.0732,-0.7173,-0.366,-0.244,-1.892,-174.430,-44.478,112.072
2981,0.7075,-0.0762,-0.7158,-0.427,-0.549,-1.831,-174.446,-44.473,112.099
2991,0.7061,-0.0815,-0.7153,-0.549,-0.671,-1.587,-174.457,-44.467,112.121
3001,0.7051,-0.0825,-0.7144,-0.671,-0.610,-1.221,-174.468,-44.462,112.143
3011,0.7051,-0.0840,-0.7139,-0.732,-0.427,-0.732,-174.468,-44.462,112.154
3022,0.7046,-0.0825,-0.7100,-0.671,-0.244,-0.183,-174.468,-44.462,112.154
3031,0.7070,-0.0806,-0.7114,-0.427,-0.061,0.488,-174.457,-44.462,112.148
3041,0.7075,-0.0796,-0.7129,0.244,0.122,1.099,-174.435,-44.462,112.132
3051,0.7075,-0.0786,-0.7124,0.854,0.488,1.648,-174.402,-44.467,112.110
3061,0.7085,-0.0815,-0.7187,1.160,0.732,2.014,-174.364,-44.473,112.077
3071,0.7104,-0.0811,-0.7197,1.343,0.854,2.258,-174.320,-44.478,112.050
3081,0.7104,-0.0776,-0.7212,1.282,0.732,2.197,-174.282,-44.484,112.017
3091,0.7090,-0.0762,-0.7231,0.793,0.549,2.075,-174.249,-44.484,111.984
3101,0.7080,-0.0752,-0.7212,0.305,0.305,1.892,-174.227,-44.484,111.956
3111,0.7085,-0.0728,-0.7187,-0.244,-0.061,1.709,-174.210,-44.484,111.934
3121,0.7075,-0.0713,-0.7168,-0.610,-0.366,1.587,-174.205,-44.478,111.912
3131,0.7061,-0.0703,-0.7173,-0.793,-0.671,1.465,-174.199,-44.467,111.896
3141,0.7075,-0.0684,-0.7173,-0.732,-0.793,1.343,-174.199,-44.456,111.874
3151,0.7075,-0.0713,-0.7153,-0.610,-0.854,1.221,-174.194,-44.451,111.863
3161,0.7075,-0.0723,-0.7153,-0.732,-0.732,1.099,-174.194,-44.445,111.846
3171,0.7080,-0.0728,-0.7173,-0.671,-0.549,0.977,-174.188,-44.434,111.835
3181,0.7051,-0.0698,-0.7178,-0.549,-0.183,0.916,-174.188,-44.434,111.819
3191,0.7056,-0.0698,-0.7158,-0.488,0.122,0.854,-174.188,-44.434,111.808
3201,0.7041,-0.0679,-0.7144,-0.244,0.366,0.793,-174.188,-44.440,111.797
3211,0.7065,-0.0679,-0.7187,0.183,0.427,0.793,-174.183,-44.440,111.786
3221,0.7051,-0.0688,-0.7187,0.488,0.488,0.610,-174.172,-44.445,111.775
3231,0.7065,-0.0674,-0.7217,0.732,0.427,0.549,-174.166,-44.445,111.769
3241,0.7056,-0.0674,-0.7217,0.793,0.305,0.366,-174.161,-44.445,111.764
3251,0.7056,-0.0713,-0.7217,0.610,0.000,0.000,-174.155,-44.445,111.764
3261,0.7056,-0.0703,-0.7202,0.305,-0.244,-0.366,-174.161,-44.440,111.769
3271,0.7080,-0.0703,-0.7178,0.061,-0.488,-0.671,-174.166,-44.434,111.780
3281,0.7114,-0.0747,-0.7183,-0.183,-0.671,-0.916,-174.177,-44.434,111.791
3291,0.7119,-0.0747,-0.7144,-0.427,-0.793,-1.099,-174.194,-44.429,111.808
3301,0.7114,-0.0752,-0.7119,-0.671,-0.793,-1.221,-174.210,-44.429,111.824
3311,0.7100,-0.0767,-0.7124,-0.854,-0.671,-1.160,-174.227,-44.423,111.841
3321,0.7080,-0.0737,-0.7124,-0.793,-0.488,-0.977,-174.243,-44.423,111.857
3331,0.7041,-0.0723,-0.7119,-0.549,-0.122,-0.732,-174.254,-44.423,111.868
3341,0.7046,-0.0732,-0.7124,-0.061,0.305,-0.488,-174.260,-44.429,111.874
3351,0.7046,-0.0752,-0.7153,0.305,0.671,-0.305,-174.254,-44.434,111.879
3361,0.7046,-0.0713,-0.7168,0.488,0.977,-0.183,-174.249,-44.445,111.879
3371,0.7065,-0.0703,-0.7187,0.549,1.099,0.000,-174.243,-44.456,111.879
3381,0.7100,-0.0732,-0.7212,0.671,1.099,0.061,-174.238,-44.467,111.874
3391,0.7100,-0.0752,-0.7217,0.671,0.977,0.000,-174.227,-44.473,111.874
3401,0.7124,-0.0771,-0.7236,0.610,0.549,-0.244,-174.221,-44.478,111.874
3411,0.7124,-0.0771,-0.7266,0.183,0.183,-0.610,-174.221,-44.478,111.885
3421,0.7109,-0.0781,-0.7246,-0.549,-0.305,-0.916,-174.232,-44.473,111.896
3431,0.7095,-0.0767,-0.7202,-1.282,-0.671,-1.160,-174.254,-44.467,111.912
3441,0.7075,-0.0742,-0.7187,-1.709,-0.854,-1.343,-174.282,-44.462,111.934
3451,0.7080,-0.0713,-0.7158,-1.709,-0.854,-1.343,-174.315,-44.456,111.956
3461,0.7056,-0.0737,-0.7153,-1.282,-0.671,-1.282,-174.337,-44.451,111.973
3471,0.7031,-0.0718,-0.7158,-0.793,-0.427,-1.099,-174.353,-44.445,111.989
3481,0.7041,-0.0713,-0.7134,-0.549,-0.183,-0.916,-174.370,-44.445,112.000
3491,0.7026,-0.0718,-0.7109,-0.488,0.061,-0.732,-174.380,-44.445,112.011
3501,0.7051,-0.0718,-0.7153,-0.366,0.305,-0.610,-174.386,-44.451,112.022
3511,0.7070,-0.0713,-0.7134,-0.305,0.488,-0.549,-174.397,-44.456,112.028
3522,0.7090,-0.0728,-0.7168,-0.244,0.671,-0.549,-174.402,-44.467,112.033
3531,0.7109,-0.0767,-0.7163,-0.122,0.488,-0.549,-174.402,-44.473,112.044
3541,0.7124,-0.0776,-0.7173,-0.183,0.427,-0.671,-174.402,-44.478,112.050
3551,0.7114,-0.0801,-0.7212,-0.488,0.244,-0.793,-174.408,-44.484,112.061
3561,0.7109,-0.0830,-0.7231,-0.732,0.122,-0.793,-174.413,-44.484,112.072
3571,0.7100,-0.0830,-0.7197,-1.221,0.122,-0.793,-174.424,-44.484,112.083
3581,0.7085,-0.0796,-0.7197,-1.526,0.000,-0.671,-174.435,-44.484,112.094
3591,0.7061,-0.0771,-0.7202,-1.526,-0.183,-0.366,-174.452,-44.478,112.099
3601,0.7046,-0.0737,-0.7158,-1.160,-0.427,0.061,-174.457,-44.473,112.099
3611,0.7026,-0.0708,-0.7148,-0.366,-0.488,0.610,-174.457,-44.467,112.088
3621,0.7031,-0.0713,-0.7148,0.366,-0.549,1.038,-174.441,-44.462,112.077
3631,0.7051,-0.0698,-0.7163,0.732,-0.549,1.221,-174.424,-44.456,112.061
3641,0.7046,-0.0718,-0.7183,0.854,-0.488,1.282,-174.402,-44.445,112.044
3651,0.7080,-0.0713,-0.7183,0.671,-0.366,1.160,-174.380,-44.445,112.028
3661,0.7095,-0.0723,-0.7173,0.366,-0.122,0.793,-174.370,-44.440,112.017
3671,0.7109,-0.0737,-0.7183,-0.061,0.000,0.366,-174.364,-44.445,112.011
3681,0.7124,-0.0728,-0.7192,-0.549,0.061,-0.061,-174.370,-44.445,112.011
3691,0.7085,-0.0723,-0.7178,-0.916,0.061,-0.305,-174.380,-44.445,112.017
3701,0.7085,-0.0693,-0.7197,-1.343,-0.061,-0.366,-174.397,-44.445,112.022
3711,0.7085,-0.0645,-0.7183,-1.465,-0.305,-0.244,-174.419,-44.445,112.022
3721,0.7036,-0.0596,-0.7153,-0.977,-0.305,-0.183,-174.441,-44.440,112.028
3731,0.7031,-0.0576,-0.7129,-0.305,-0.366,-0.061,-174.452,-44.440,112.028
3741,0.7026,-0.0562,-0.7144,0.427,-0.366,-0.061,-174.457,-44.434,112.028
3751,0.7036,-0.0547,-0.7163,0.732,-0.305,-0.366,-174.468,-44.434,112.033
3761,0.7051,-0.0605,-0.7163,0.732,-0.183,-0.916,-174.479,-44.429,112.050
3771,0.7104,-0.0625,-0.7197,0.244,-0.122,-1.648,-174.496,-44.434,112.072
3781,0.7134,-0.0664,-0.7187,-0.427,0.061,-2.441,-174.529,-44.440,112.104
3791,0.7139,-0.0698,-0.7187,-1.221,0.122,-3.174,-174.567,-44.445,112.148
3801,0.7139,-0.0767,-0.7183,-2.136,0.000,-3.784,-174.617,-44.451,112.203
3811,0.7119,-0.0791,-0.7168,-2.808,-0.183,-3.967,-174.677,-44.456,112.258
3821,0.7085,-0.0796,-0.7144,-3.174,-0.427,-3.723,-174.732,-44.456,112.313
3831,0.7056,-0.0781,-0.7134,-3.113,-0.549,-3.174,-174.787,-44.451,112.357
3841,0.7046,-0.0757,-0.7109,-2.625,-0.488,-2.258,-174.825,-44.451,112.390
3851,0.7012,-0.0757,-0.7104,-1.770,-0.244,-1.221,-174.847,-44.451,112.407
3861,0.7026,-0.0732,-0.7114,-0.610,0.000,-0.366,-174.847,-44.451,112.412
3871,0.7021,-0.0693,-0.7139,0.366,0.427,0.366,-174.836,-44.456,112.407
3881,0.7012,-0.0684,-0.7148,1.038,1.038,0.671,-174.814,-44.462,112.396
3891,0.7046,-0.0664,-0.7222,1.160,1.648,0.549,-174.798,-44.478,112.385
3901,0.7070,-0.0625,-0.7246,0.671,2.014,0.000,-174.792,-44.495,112.379
3911,0.7095,-0.0620,-0.7290,-0.122,2.258,-0.854,-174.803,-44.511,112.390
3921,0.7119,-0.0610,-0.7300,-0.916,2.014,-1.770,-174.831,-44.533,112.412
3931,0.7114,-0.0596,-0.7295,-1.465,1.526,-2.502,-174.875,-44.544,112.445
3941,0.7100,-0.0557,-0.7266,-2.014,0.671,-3.052,-174.930,-44.550,112.489
3951,0.7070,-0.0488,-0.7231,-2.014,-0.244,-3.296,-174.996,-44.550,112.533
3961,0.7061,-0.0420,-0.7207,-1.404,-1.099,-3.357,-175.056,-44.539,112.582
3971,0.7075,-0.0400,-0.7178,-0.427,-1.587,-3.296,-175.111,-44.528,112.632
3981,0.7056,-0.0400,-0.7124,0.671,-1.587,-3.540,-175.161,-44.517,112.681
3991,0.7041,-0.0400,-0.7114,1.404,-1.343,-4.028,-175.199,-44.506,112.742
4001,0.7046,-0.0435,-0.7095,1.282,-0.793,-4.761,-175.248,-44.506,112.808
4011,0.7051,-0.0464,-0.7129,0.549,-0.061,-5.615,-175.309,-44.511,112.885
4022,0.7090,-0.0493,-0.7095,-0.427,0.610,-6.531,-175.380,-44.528,112.978
4031,0.7134,-0.0542,-0.7114,-1.221,0.977,-7.141,-175.463,-44.544,113.077
4041,0.7168,-0.0615,-0.7109,-1.465,1.038,-7.446,-175.545,-44.566,113.176
4051,0.7168,-0.0645,-0.7129,-1.648,0.916,-7.324,-175.627,-44.588,113.280
4061,0.7158,-0.0698,-0.7114,-1.465,0.366,-6.836,-175.693,-44.604,113.373
4071,0.7144,-0.0732,-0.7114,-1.282,-0.244,-6.042,-175.748,-44.610,113.461
4081,0.7134,-0.0771,-0.7085,-1.038,-0.610,-5.066,-175.792,-44.610,113.533
4091,0.7148,-0.0835,-0.7085,-0.977,-0.732,-4.150,-175.814,-44.610,113.588
4101,0.7158,-0.0859,-0.7114,-0.977,-0.671,-3.296,-175.831,-44.610,113.637
4111,0.7153,-0.0889,-0.7144,-0.854,-0.183,-2.502,-175.836,-44.610,113.670
4121,0.7109,-0.0889,-0.7144,-0.977,0.488,-1.831,-175.836,-44.615,113.698
4131,0.7061,-0.0859,-0.7197,-1.465,1.221,-1.282,-175.831,-44.626,113.714
4141,0.7036,-0.0801,-0.7227,-2.014,1.648,-0.671,-175.836,-44.637,113.719
4151,0.6997,-0.0693,-0.7246,-2.136,2.075,0.122,-175.842,-44.648,113.719
4161,0.6982,-0.0557,-0.7285,-1.648,2.380,0.854,-175.847,-44.665,113.703
4171,0.6987,-0.0449,-0.7285,-0.366,2.441,1.526,-175.842,-44.676,113.681
4181,0.7012,-0.0405,-0.7290,1.465,2.075,1.892,-175.814,-44.687,113.654
4191,0.7031,-0.0410,-0.7280,2.808,1.282,1.953,-175.776,-44.692,113.621
4201,0.7134,-0.0371,-0.7285,4.272,-0.183,1.526,-175.732,-44.687,113.599
4211,0.7168,-0.0454,-0.7256,4.272,-1.404,0.793,-175.688,-44.670,113.593
4221,0.7192,-0.0444,-0.7271,2.502,-2.014,-0.305,-175.677,-44.654,113.599
4231,0.7197,-0.0479,-0.7212,0.793,-2.319,-1.648,-175.693,-44.632,113.626
4241,0.7168,-0.0469,-0.7134,-0.916,-2.502,-2.869,-175.737,-44.615,113.665
4252,0.7129,-0.0474,-0.7109,-2.869,-2.258,-3.906,-175.809,-44.599,113.725
4262,0.7139,-0.0425,-0.7036,-3.906,-1.831,-4.456,-175.902,-44.594,113.785
4271,0.7095,-0.0508,-0.6973,-2.991,-1.465,-4.639,-175.974,-44.588,113.851
4282,0.7090,-0.0576,-0.6968,-3.052,-0.610,-4.333,-176.039,-44.594,113.917
4292,0.7168,-0.0669,-0.7002,-3.479,0.305,-3.662,-176.094,-44.610,113.967
4302,0.7197,-0.0762,-0.7065,-2.869,0.793,-2.930,-176.133,-44.626,114.005
4312,0.7222,-0.0806,-0.7119,-2.625,1.221,-2.075,-176.149,-44.648,114.033
4322,0.7241,-0.0820,-0.7139,-2.808,1.343,-1.343,-176.166,-44.665,114.055
4332,0.7261,-0.0850,-0.7197,-2.930,1.526,-0.610,-176.166,-44.687,114.060
4342,0.7178,-0.0781,-0.7192,-1.099,0.916,0.061,-176.155,-44.698,114.060
4352,0.7090,-0.0747,-0.7217,-1.465,0.854,0.977,-176.138,-44.703,114.044
4362,0.7061,-0.0645,-0.7202,-2.136,0.488,2.075,-176.127,-44.703,114.016
4372,0.7017,-0.0596,-0.7231,-1.221,0.061,3.052,-176.100,-44.692,113.972
4382,0.7002,-0.0552,-0.7227,-0.244,-0.122,3.784,-176.061,-44.681,113.917
4392,0.6997,-0.0571,-0.7241,0.793,-0.427,4.211,-176.006,-44.670,113.857
4402,0.6987,-0.0576,-0.7261,1.282,-0.549,4.333,-175.946,-44.648,113.796
4412,0.6968,-0.0571,-0.7207,0.732,-0.671,4.150,-175.897,-44.632,113.741
4422,0.6987,-0.0498,-0.7183,-0.916,-0.793,4.028,-175.864,-44.621,113.687
4432,0.7017,-0.0435,-0.7153,-2.502,-0.977,4.089,-175.858,-44.604,113.632
4442,0.7085,-0.0381,-0.7134,-3.052,-1.038,3.906,-175.864,-44.594,113.577
4452,0.7104,-0.0356,-0.7158,-2.747,-0.916,3.601,-175.869,-44.583,113.527
4462,0.7134,-0.0347,-0.7148,-2.014,-0.610,3.052,-175.869,-44.577,113.483
4472,0.7144,-0.0400,-0.7158,-1.282,-0.244,2.441,-175.869,-44.577,113.450
4482,0.7129,-0.0396,-0.7183,-0.916,0.366,1.648,-175.875,-44.583,113.428
4492,0.7095,-0.0337,-0.7212,-1.221,0.916,0.916,-175.891,-44.588,113.412
4502,0.7036,-0.0278,-0.7212,-1.465,1.648,0.366,-175.919,-44.599,113.406
4512,0.6987,-0.0220,-0.7217,-1.465,2.319,-0.061,-175.957,-44.621,113.406
4522,0.6963,-0.0137,-0.7183,-0.916,2.380,-0.610,-175.995,-44.637,113.412
4532,0.6987,-0.0068,-0.7202,-0.244,2.075,-1.221,-176.045,-44.654,113.428
4542,0.7046,-0.0020,-0.7192,0.671,1.587,-1.892,-176.094,-44.670,113.450
4552,0.7109,-0.0054,-0.7241,1.831,1.160,-2.686,-176.138,-44.681,113.489
4562,0.7129,-0.0151,-0.7202,2.869,0.732,-3.906,-176.171,-44.692,113.544
4572,0.7158,-0.0283,-0.7231,2.869,0.305,-5.737,-176.215,-44.698,113.621
4582,0.7207,-0.0381,-0.7207,1.526,-0.122,-7.812,-176.287,-44.703,113.730
4592,0.7266,-0.0474,-0.7202,-0.977,-0.366,-9.644,-176.385,-44.714,113.868
4602,0.7305,-0.0513,-0.7168,-3.357,-0.671,-10.925,-176.523,-44.720,114.022
4612,0.7275,-0.0586,-0.7129,-4.944,-0.671,-11.658,-176.677,-44.725,114.186
4622,0.7261,-0.0640,-0.7075,-6.592,-0.244,-11.719,-176.836,-44.742,114.351
4632,0.7231,-0.0732,-0.7036,-6.775,-0.183,-11.230,-176.984,-44.753,114.510
4642,0.7187,-0.0796,-0.6987,-6.836,0.061,-10.254,-177.122,-44.769,114.653
4652,0.7192,-0.0850,-0.7017,-7.141,0.061,-8.850,-177.237,-44.780,114.780
4662,0.7173,-0.0869,-0.7017,-6.409,-0.366,-7.202,-177.330,-44.786,114.879
4672,0.7153,-0.0869,-0.7041,-6.836,0.061,-5.249,-177.402,-44.797,114.950
4682,0.7163,-0.0884,-0.7031,-7.507,0.793,-3.174,-177.462,-44.808,114.999
4692,0.7153,-0.0854,-0.7095,-6.531,0.977,-1.160,-177.495,-44.824,115.010
4702,0.7173,-0.0869,-0.7139,-6.226,0.977,0.793,-177.506,-44.835,114.999
4712,0.7207,-0.0850,-0.7187,-6.165,0.732,2.625,-177.495,-44.841,114.961
4722,0.7246,-0.0791,-0.7187,-5.310,0.366,4.089,-177.473,-44.846,114.906
4732,0.7241,-0.0728,-0.7266,-4.761,0.000,5.249,-177.435,-44.841,114.829
4742,0.7207,-0.0610,-0.7256,-4.517,0.000,6.226,-177.396,-44.835,114.741
4752,0.7148,-0.0464,-0.7256,-4.395,-0.244,7.019,-177.358,-44.830,114.642
4762,0.7070,-0.0283,-0.7261,-4.333,-0.305,7.690,-177.330,-44.813,114.538
4772,0.6997,-0.0127,-0.7236,-3.052,-0.305,8.118,-177.297,-44.802,114.423
4782,0.6919,0.0005,-0.7227,-1.282,-0.244,8.362,179.956,-44.786,114.307
4792,0.6890,0.0112,-0.7212,0.549,-0.122,8.301,-179.962,-44.775,114.186
4802,0.6851,0.0137,-0.7178,2.625,-0.610,7.874,-179.874,-44.753,114.077
4812,0.6880,0.0103,-0.7187,3.479,-0.610,6.958,-179.780,-44.742,113.978
4822,0.6948,0.0024,-0.7187,3.357,-0.854,5.615,-179.692,-44.725,113.901
4832,0.7051,-0.0054,-0.7192,1.892,-0.916,3.845,-179.572,-44.709,113.846
4842,0.7168,-0.0156,-0.7217,-0.366,-0.977,1.953,-179.544,-44.703,113.818
4852,0.7212,-0.0244,-0.7187,-2.686,-1.099,0.122,-179.555,-44.698,113.818
4862,0.7192,-0.0273,-0.7153,-4.639,-1.160,-1.465,-179.599,-44.687,113.840
4872,0.7134,-0.0215,-0.7085,-6.226,-0.977,-2.319,-179.670,-44.687,113.873
4882,0.7065,-0.0093,-0.7017,-6.470,-0.732,-2.380,-179.753,-44.681,113.906
4892,0.6982,0.0029,-0.6973,-4.822,-0.305,-1.709,179.758,-44.681,113.928
4902,0.6948,0.0127,-0.6997,-1.282,0.549,-0.610,179.731,-44.692,113.939
4912,0.6929,0.0142,-0.7017,3.296,1.709,0.244,179.758,-44.709,113.934
4922,0.6953,0.0107,-0.7095,7.385,2.747,0.488,179.830,-44.731,113.928
4932,0.7007,0.0005,-0.7148,9.705,3.479,0.000,179.923,-44.764,113.928
4942,0.7100,-0.0103,-0.7227,9.888,3.662,-1.282,-179.187,-44.797,113.945
4952,0.7202,-0.0220,-0.7285,8.118,3.357,-3.113,-179.127,-44.830,113.989
4962,0.7319,-0.0347,-0.7329,5.249,2.869,-5.249,-179.105,-44.857,114.060
4972,0.7397,-0.0474,-0.7349,1.831,2.136,-7.385,-179.132,-44.885,114.164
4982,0.7441,-0.0591,-0.7334,-1.160,1.160,-9.338,-179.198,-44.901,114.296
4992,0.7388,-0.0659,-0.7285,-3.723,-0.122,-10.559,-179.297,-44.907,114.445
5002,0.7334,-0.0693,-0.7212,-5.676,-1.404,-10.742,-179.412,-44.896,114.598
5012,0.7261,-0.0688,-0.7158,-6.287,-2.197,-10.193,-179.522,-44.879,114.741
5023,0.7241,-0.0713,-0.7095,-5.798,-2.502,-9.155,-179.621,-44.863,114.873
5032,0.7231,-0.0762,-0.7051,-5.005,-2.441,-7.935,-179.687,-44.846,114.983
5042,0.7217,-0.0811,-0.7046,-4.333,-2.075,-6.653,-179.736,-44.830,115.076
5052,0.7148,-0.0718,-0.6992,-4.456,-1.587,-4.944,-179.769,-44.824,115.148
5062,0.7124,-0.0610,-0.6982,-4.517,-1.038,-2.563,-179.797,-44.819,115.186
5072,0.7104,-0.0493,-0.6973,-3.418,-0.183,-0.244,-179.791,-44.824,115.186
5082,0.7080,-0.0410,-0.7002,-1.526,0.732,1.648,-179.758,-44.835,115.164
5092,0.7036,-0.0361,-0.7070,1.038,1.770,3.296,-179.692,-44.852,115.120
5102,0.7012,-0.0303,-0.7148,2.747,2.502,4.456,-179.599,-44.874,115.054
5112,0.7021,-0.0293,-0.7207,3.418,2.808,5.188,-179.495,-44.896,114.983
5122,0.7007,-0.0229,-0.7275,3.174,2.625,5.249,-179.396,-44.912,114.906
5132,0.6987,-0.0117,-0.7280,2.380,2.258,4.761,-179.324,-44.923,114.840
5142,0.6963,0.0078,-0.7300,1.709,1.892,4.272,179.385,-44.929,114.780
5152,0.6899,0.0269,-0.7266,1.953,1.465,4.028,179.429,-44.929,114.719
5162,0.6846,0.0410,-0.7187,3.601,1.038,3.784,179.473,-44.923,114.670
5172,0.6841,0.0464,-0.7163,6.165,0.610,3.052,179.533,-44.918,114.626
5182,0.6841,0.0439,-0.7148,8.850,0.488,1.709,179.604,-44.912,114.604
5192,0.6895,0.0410,-0.7148,10.071,0.671,-0.061,179.676,-44.907,114.604
5202,0.6973,0.0342,-0.7163,10.681,0.977,-2.075,179.736,-44.912,114.631
5212,0.7031,0.0229,-0.7212,10.498,1.648,-4.333,179.786,-44.918,114.692
5222,0.7104,0.0112,-0.7217,9.521,2.502,-7.019,179.802,-44.940,114.791
5232,0.7183,-0.0039,-0.7187,8.118,3.052,-9.949,-179.687,-44.973,114.933
5242,0.7231,-0.0239,-0.7178,6.104,2.686,-12.634,-179.736,-45.000,115.109
5252,0.7290,-0.0464,-0.7168,3.784,1.709,-14.648,-179.808,-45.022,115.318
5262,0.7368,-0.0664,-0.7153,0.916,0.977,-15.686,-179.901,-45.038,115.538
5272,0.7456,-0.0913,-0.7139,-2.075,0.610,-16.174,179.989,-45.055,115.768
5282,0.7568,-0.1084,-0.7114,-5.615,0.061,-15.930,179.863,-45.071,115.994
5292,0.7617,-0.1235,-0.7114,-8.606,-0.549,-15.015,179.725,-45.077,116.208
5302,0.7695,-0.1343,-0.7021,-11.536,-1.343,-13.428,179.594,-45.088,116.395
5312,0.7710,-0.1396,-0.6978,-13.794,-2.319,-11.169,179.462,-45.082,116.554
5322,0.7671,-0.1392,-0.6899,-14.954,-3.296,-8.240,179.352,-45.077,116.669
5332,0.7563,-0.1338,-0.6865,-14.832,-3.723,-4.822,179.275,-45.060,116.741
5342,0.7466,-0.1221,-0.6831,-13.489,-3.662,-0.854,179.242,-45.044,116.752
5352,0.7368,-0.1094,-0.6807,-10.925,-3.052,3.662,179.269,-45.033,116.697
5362,0.7310,-0.0952,-0.6807,-7.263,-2.197,8.545,179.368,-45.027,116.576
5372,0.7275,-0.0835,-0.6860,-2.747,-1.099,13.367,179.550,-45.033,116.389
5382,0.7261,-0.0703,-0.6963,1.648,0.122,17.578,179.802,-45.049,116.136
5392,0.7251,-0.0571,-0.7075,5.371,1.526,20.813,-179.890,-45.066,115.845
5402,0.7207,-0.0410,-0.7148,7.935,2.686,23.071,-179.550,-45.093,115.516
5412,0.7046,-0.0264,-0.7236,9.705,3.540,24.414,-179.198,-45.121,115.170
5422,0.6875,-0.0073,-0.7305,10.010,4.150,24.902,-178.852,-45.137,114.818
5432,0.6763,0.0137,-0.7354,10.010,4.272,24.536,178.934,-45.154,114.467
5442,0.6646,0.0327,-0.7393,10.498,3.845,23.560,179.253,-45.159,114.137
5452,0.6616,0.0439,-0.7417,10.132,3.357,21.851,179.544,-45.165,113.824
5462,0.6660,0.0508,-0.7456,9.460,2.502,19.348,179.797,-45.154,113.555
5472,0.6748,0.0469,-0.7466,8.789,1.404,16.113,-179.989,-45.137,113.324
5482,0.6836,0.0415,-0.7422,6.897,-0.122,12.329,-179.830,-45.110,113.148
5492,0.6973,0.0361,-0.7373,3.784,-1.038,7.874,-179.742,-45.082,113.038
5502,0.7090,0.0298,-0.7285,-0.427,-2.380,3.296,-179.742,-45.049,112.989
5512,0.7148,0.0244,-0.7212,-3.296,-3.540,-1.099,-179.808,-45.011,113.005
5523,0.7163,0.0176,-0.7095,-4.578,-4.395,-4.700,-179.918,-44.973,113.071
5532,0.7183,0.0088,-0.6997,-5.432,-4.333,-7.385,179.951,-44.940,113.176
5542,0.7202,0.0015,-0.6929,-5.798,-3.845,-8.850,179.802,-44.912,113.302
5552,0.7227,-0.0063,-0.6875,-4.822,-3.174,-9.399,-179.467,-44.896,113.434
5562,0.7261,-0.0190,-0.6826,-3.052,-2.258,-9.399,-179.583,-44.890,113.571
5572,0.7275,-0.0332,-0.6821,-1.343,-1.038,-9.277,-179.659,-44.901,113.698
5582,0.7285,-0.0459,-0.6831,0.183,0.305,-9.033,-179.714,-44.923,113.829
5592,0.7266,-0.0566,-0.6846,1.343,1.526,-8.545,-179.742,-44.956,113.950
5602,0.7275,-0.0664,-0.6885,1.831,2.502,-7.874,-179.747,-45.000,114.060
5612,0.7285,-0.0747,-0.6938,1.221,3.418,-6.897,-179.747,-45.044,114.153
5622,0.7290,-0.0806,-0.7017,0.610,4.211,-5.615,-179.731,-45.093,114.236
5632,0.7300,-0.0854,-0.7061,0.488,4.578,-4.272,-179.703,-45.148,114.296
5642,0.7305,-0.0884,-0.7129,0.488,4.578,-2.808,-179.659,-45.198,114.335
5652,0.7300,-0.0908,-0.7168,0.793,4.272,-1.282,-179.594,-45.242,114.351
5662,0.7290,-0.0913,-0.7212,0.977,3.601,0.122,-179.517,-45.275,114.351
5672,0.7251,-0.0884,-0.7222,1.099,2.747,1.404,-179.423,-45.297,114.329
5682,0.7231,-0.0850,-0.7241,0.977,1.770,2.625,-179.324,-45.308,114.291
5692,0.7187,-0.0801,-0.7251,0.916,0.916,3.662,-179.225,-45.308,114.241
5702,0.7183,-0.0737,-0.7256,1.038,0.122,4.456,-179.121,-45.302,114.175
5712,0.7148,-0.0674,-0.7246,1.038,-0.366,5.066,-179.017,-45.291,114.104
5722,0.7124,-0.0566,-0.7202,0.916,-0.610,5.493,-178.918,-45.275,114.027
5732,0.7119,-0.0459,-0.7192,0.854,-0.793,5.920,-178.824,-45.264,113.945
5742,0.7085,-0.0366,-0.7183,0.977,-0.977,6.104,-178.737,-45.242,113.857
5752,0.7061,-0.0269,-0.7139,1.526,-0.977,6.104,-178.649,-45.225,113.769
5762,0.7065,-0.0186,-0.7124,2.441,-0.854,5.859,-178.566,-45.214,113.687
5773,0.7080,-0.0127,-0.7100,3.540,-0.610,5.371,-178.478,-45.203,113.610
5783,0.7100,-0.0132,-0.7085,4.333,-0.366,4.456,-178.396,-45.198,113.549
5793,0.7158,-0.0137,-0.7090,4.578,-0.183,3.235,-178.325,-45.192,113.505
5803,0.7202,-0.0146,-0.7100,4.150,-0.122,1.709,-178.275,-45.198,113.478
5813,0.7227,-0.0181,-0.7109,3.235,0.122,-0.061,-178.242,-45.198,113.478
5823,0.7241,-0.0239,-0.7104,1.953,0.244,-1.831,-178.242,-45.203,113.505
5833,0.7227,-0.0283,-0.7075,0.427,0.244,-3.540,-178.264,-45.214,113.555
5843,0.7207,-0.0312,-0.7056,-0.854,0.122,-4.883,-178.314,-45.220,113.626
5853,0.7212,-0.0381,-0.7046,-1.709,0.000,-5.737,-178.374,-45.225,113.708
5863,0.7212,-0.0420,-0.7056,-1.709,0.000,-6.165,-178.434,-45.231,113.796
5873,0.7231,-0.0493,-0.7061,-1.282,-0.122,-6.165,-178.484,-45.236,113.879
5883,0.7222,-0.0576,-0.7046,-0.916,-0.122,-5.798,-178.522,-45.236,113.961
5893,0.7227,-0.0649,-0.7070,-0.488,-0.061,-5.188,-178.539,-45.242,114.038
5903,0.7212,-0.0679,-0.7046,-0.061,0.000,-4.333,-178.544,-45.247,114.099
5913,0.7197,-0.0679,-0.7051,0.305,0.122,-3.418,-178.533,-45.253,114.148
5923,0.7197,-0.0708,-0.7070,0.671,0.488,-2.563,-178.511,-45.258,114.181
5933,0.7197,-0.0713,-0.7104,0.916,0.671,-1.831,-178.478,-45.264,114.208
5943,0.7168,-0.0688,-0.7090,0.854,0.793,-0.977,-178.440,-45.269,114.225
5953,0.7173,-0.0684,-0.7119,0.732,0.854,-0.183,-178.391,-45.280,114.225
5963,0.7163,-0.0640,-0.7100,0.671,0.732,0.549,-178.347,-45.286,114.219
5973,0.7168,-0.0562,-0.7095,0.854,0.610,1.160,-178.297,-45.291,114.203
5983,0.7173,-0.0518,-0.7124,1.282,0.366,1.587,-178.242,-45.291,114.175
5993,0.7178,-0.0508,-0.7139,1.587,0.122,1.770,-178.187,-45.291,114.153
6003,0.7192,-0.0522,-0.7139,1.648,-0.122,1.831,-178.127,-45.286,114.126
6013,0.7173,-0.0513,-0.7144,1.221,-0.427,1.648,-178.077,-45.280,114.104
6023,0.7178,-0.0483,-0.7114,0.366,-0.732,1.282,-178.039,-45.269,114.088
6033,0.7183,-0.0459,-0.7124,-0.366,-0.793,0.977,-178.017,-45.264,114.071
6043,0.7178,-0.0444,-0.7080,-0.916,-0.854,0.732,-178.006,-45.253,114.060
6053,0.7192,-0.0444,-0.7056,-1.099,-0.732,0.488,-177.995,-45.247,114.055
6063,0.7187,-0.0430,-0.7065,-0.916,-0.549,0.305,-177.984,-45.247,114.049
6073,0.7207,-0.0430,-0.7065,-0.610,-0.366,0.183,-177.973,-45.247,114.049
6083,0.7187,-0.0420,-0.7056,-0.366,-0.122,0.122,-177.962,-45.247,114.049
6093,0.7153,-0.0405,-0.7056,0.000,0.244,-0.122,-177.951,-45.247,114.049
6103,0.7139,-0.0420,-0.7075,0.244,0.549,-0.183,-177.940,-45.253,114.049
6113,0.7144,-0.0430,-0.7100,0.488,0.732,-0.244,-177.924,-45.264,114.055
6123,0.7178,-0.0449,-0.7114,0.610,0.610,-0.305,-177.902,-45.269,114.060
6133,0.7207,-0.0459,-0.7119,1.038,0.427,-0.549,-177.880,-45.269,114.066
6143,0.7217,-0.0479,-0.7148,0.427,0.366,-0.732,-177.869,-45.275,114.077
6153,0.7217,-0.0503,-0.7153,-0.244,0.183,-0.977,-177.863,-45.275,114.088
6163,0.7202,-0.0513,-0.7124,-0.244,-0.061,-1.160,-177.858,-45.275,114.104
6173,0.7168,-0.0527,-0.7100,-0.610,-0.305,-1.282,-177.852,-45.275,114.126
6183,0.7183,-0.0513,-0.7090,-1.526,-0.427,-1.282,-177.863,-45.269,114.142
6193,0.7144,-0.0513,-0.7080,-0.366,-0.793,-1.099,-177.858,-45.264,114.159
6203,0.7139,-0.0513,-0.7065,-1.099,-0.488,-0.671,-177.852,-45.258,114.170
6213,0.7153,-0.0483,-0.7026,-0.183,-0.549,-0.183,-177.841,-45.253,114.170
6223,0.7158,-0.0493,-0.7056,0.488,-0.244,0.183,-177.814,-45.253,114.170
6233,0.7148,-0.0503,-0.7051,0.793,-0.122,0.488,-177.781,-45.253,114.164
6243,0.7158,-0.0503,-0.7065,0.854,0.122,0.610,-177.748,-45.253,114.153
6253,0.7163,-0.0508,-0.7051,0.916,0.244,0.732,-177.715,-45.258,114.142
6263,0.7163,-0.0527,-0.7065,0.854,0.244,0.732,-177.682,-45.258,114.131
6273,0.7187,-0.0527,-0.7090,0.732,0.244,0.732,-177.643,-45.264,114.120
6283,0.7212,-0.0566,-0.7109,0.366,0.183,0.732,-177.610,-45.264,114.109
6293,0.7231,-0.0615,-0.7124,0.061,0.061,0.854,-177.578,-45.264,114.099
6303,0.7231,-0.0659,-0.7109,-0.427,-0.244,1.038,-177.545,-45.264,114.088
6313,0.7241,-0.0688,-0.7085,-1.038,-0.549,1.160,-177.512,-45.258,114.071
6323,0.7266,-0.0674,-0.7095,-1.770,-0.916,1.343,-177.484,-45.253,114.049
6333,0.7251,-0.0684,-0.7100,-2.258,-1.160,1.587,-177.462,-45.242,114.027
6343,0.7246,-0.0684,-0.7075,-2.563,-1.343,1.953,-177.440,-45.231,114.000
6353,0.7217,-0.0649,-0.7085,-2.625,-1.404,2.319,-177.418,-45.220,113.972
6363,0.7202,-0.0620,-0.7095,-2.441,-1.221,2.747,-177.391,-45.209,113.934
6373,0.7202,-0.0581,-0.7100,-2.319,-0.916,3.113,-177.363,-45.198,113.890
6383,0.7168,-0.0527,-0.7114,-2.380,-0.549,3.357,-177.336,-45.192,113.840
6393,0.7139,-0.0459,-0.7080,-2.380,-0.244,3.662,-177.314,-45.187,113.791
6403,0.7119,-0.0391,-0.7085,-2.197,0.183,3.662,-177.292,-45.187,113.736
6413,0.7114,-0.0337,-0.7104,-1.770,0.427,3.601,-177.275,-45.187,113.687
6423,0.7100,-0.0322,-0.7119,-1.160,0.549,3.357,-177.253,-45.187,113.637
6433,0.7095,-0.0308,-0.7134,-0.793,0.427,2.869,-177.237,-45.187,113.599
6443,0.7095,-0.0269,-0.7153,-0.671,0.183,2.380,-177.226,-45.181,113.560
6453,0.7104,-0.0283,-0.7173,-0.366,-0.183,1.770,-177.215,-45.176,113.538
6463,0.7070,-0.0288,-0.7139,-0.854,-0.244,1.221,-177.215,-45.165,113.522
6473,0.7114,-0.0308,-0.7139,-1.038,-0.366,0.427,-177.226,-45.159,113.516
6483,0.7129,-0.0352,-0.7129,-1.099,-0.488,-0.305,-177.237,-45.154,113.522
6493,0.7144,-0.0381,-0.7100,-1.404,-0.488,-0.916,-177.259,-45.148,113.533
6503,0.7144,-0.0410,-0.7109,-1.831,-0.427,-1.343,-177.286,-45.143,113.555
6513,0.7158,-0.0420,-0.7075,-2.014,-0.244,-1.648,-177.314,-45.143,113.577
6524,0.7144,-0.0435,-0.7056,-1.770,-0.061,-1.709,-177.341,-45.148,113.599
6533,0.7129,-0.0444,-0.7065,-1.282,0.244,-1.526,-177.358,-45.148,113.621
6543,0.7095,-0.0425,-0.7056,-0.610,0.610,-1.221,-177.369,-45.159,113.637
6553,0.7080,-0.0444,-0.7056,0.183,0.854,-0.732,-177.363,-45.165,113.648
6563,0.7119,-0.0430,-0.7075,1.160,1.099,-0.244,-177.347,-45.176,113.648
6573,0.7168,-0.0498,-0.7075,2.197,1.282,0.061,-177.308,-45.187,113.648
6583,0.7178,-0.0557,-0.7114,2.869,1.343,0.305,-177.259,-45.203,113.643
6593,0.7236,-0.0586,-0.7139,2.991,1.221,0.366,-177.209,-45.214,113.637
6603,0.7295,-0.0664,-0.7144,2.808,0.854,0.488,-177.149,-45.225,113.632
6613,0.7339,-0.0747,-0.7173,2.502,0.427,0.488,-177.089,-45.231,113.621
6623,0.7334,-0.0850,-0.7178,1.709,-0.061,0.122,-177.034,-45.236,113.621
6633,0.7310,-0.0898,-0.7192,0.061,-0.671,-0.183,-176.990,-45.225,113.626
6643,0.7241,-0.0908,-0.7124,-2.014,-1.221,-0.122,-176.968,-45.214,113.626
6653,0.7168,-0.0840,-0.7100,-4.150,-1.709,0.488,-176.968,-45.198,113.621
6663,0.7109,-0.0703,-0.7036,-5.066,-1.831,1.587,-176.979,-45.176,113.599
6673,0.7051,-0.0542,-0.6987,-4.211,-1.465,3.052,-176.979,-45.165,113.560
6683,0.6997,-0.0425,-0.6978,-1.892,-0.732,4.700,-176.946,-45.154,113.494
6693,0.6948,-0.0391,-0.6982,1.221,0.183,6.226,-176.869,-45.148,113.406
6703,0.6953,-0.0347,-0.6943,3.662,1.038,7.202,-176.765,-45.154,113.302
6713,0.6997,-0.0269,-0.7002,4.883,1.770,7.751,-176.649,-45.165,113.192
6723,0.7085,-0.0225,-0.7085,5.615,2.502,7.568,-176.528,-45.181,113.082
6733,0.7148,-0.0210,-0.7139,6.165,3.052,6.714,-176.418,-45.209,112.983
6743,0.7168,-0.0205,-0.7114,6.226,3.296,5.554,-176.320,-45.236,112.901
6753,0.7222,-0.0244,-0.7148,6.226,2.808,4.211,-176.232,-45.264,112.841
6763,0.7246,-0.0249,-0.7148,5.981,2.014,2.747,-176.160,-45.280,112.797
6773,0.7241,-0.0303,-0.7134,5.188,1.160,1.404,-176.111,-45.291,112.775
6783,0.7222,-0.0376,-0.7119,4.028,0.366,-0.122,-176.078,-45.297,112.780
6793,0.7212,-0.0435,-0.7070,2.563,-0.122,-1.709,-176.072,-45.297,112.802
6803,0.7202,-0.0537,-0.7051,1.160,-0.366,-3.113,-176.089,-45.302,112.846
6813,0.7192,-0.0610,-0.7012,-0.427,-0.183,-4.089,-176.122,-45.302,112.906
6823,0.7207,-0.0664,-0.7021,-1.526,0.244,-4.578,-176.171,-45.313,112.972
6833,0.7261,-0.0669,-0.7017,-2.014,0.916,-4.517,-176.215,-45.330,113.033
6843,0.7285,-0.0732,-0.7031,-1.770,1.587,-4.150,-176.254,-45.357,113.093
6853,0.7339,-0.0811,-0.7085,-0.977,2.136,-3.662,-176.270,-45.385,113.143
6863,0.7368,-0.0898,-0.7104,0.061,2.319,-2.991,-176.265,-45.412,113.181
6873,0.7368,-0.0972,-0.7100,0.488,2.136,-2.197,-176.237,-45.439,113.209
6883,0.7393,-0.1030,-0.7144,0.244,1.709,-1.587,-176.210,-45.461,113.231
6893,0.7417,-0.1021,-0.7168,-0.122,1.099,-1.099,-176.177,-45.472,113.247
6903,0.7427,-0.0957,-0.7183,-0.732,0.610,-0.549,-176.149,-45.483,113.253
6913,0.7358,-0.0874,-0.7144,-1.465,0.305,0.122,-176.133,-45.489,113.253
6923,0.7261,-0.0732,-0.7124,-1.526,-0.122,0.916,-176.116,-45.483,113.236
6933,0.7148,-0.0562,-0.7075,-1.160,-0.366,1.770,-176.105,-45.478,113.214
6943,0.7041,-0.0347,-0.7031,-0.183,-0.671,2.563,-176.094,-45.461,113.176
6953,0.6992,-0.0151,-0.7017,1.526,-0.427,3.174,-176.072,-45.450,113.132
6963,0.6958,0.0015,-0.7007,3.906,0.122,3.601,179.879,-45.445,113.082
6973,0.6948,0.0107,-0.6978,6.592,0.732,3.601,179.973,-45.445,113.033
6983,0.6963,0.0181,-0.6938,9.155,1.404,2.930,-179.923,-45.456,112.989
6993,0.7012,0.0186,-0.6973,11.414,1.892,1.831,-179.808,-45.472,112.961
7003,0.7104,0.0137,-0.7012,13.062,2.319,0.122,-179.692,-45.494,112.961
7013,0.7168,0.0029,-0.7070,13.672,2.869,-2.136,-179.583,-45.522,112.989
7024,0.7251,-0.0078,-0.7085,12.695,3.601,-4.883,-179.363,-45.560,113.060
7033,0.7305,-0.0195,-0.7129,10.620,4.028,-7.996,-179.330,-45.599,113.176
7043,0.7354,-0.0312,-0.7168,7.874,4.272,-11.230,-179.346,-45.648,113.335
7053,0.7363,-0.0400,-0.7139,4.578,3.967,-14.282,-179.423,-45.687,113.538
7063,0.7368,-0.0493,-0.7085,1.526,3.357,-16.785,-179.544,-45.731,113.780
7073,0.7354,-0.0527,-0.7090,-0.854,2.625,-18.555,-179.703,-45.758,114.044
7083,0.7354,-0.0625,-0.7046,-1.648,1.465,-19.470,-179.868,-45.775,114.324
7093,0.7388,-0.0728,-0.7026,-2.380,0.549,-19.714,179.967,-45.786,114.604
7103,0.7368,-0.0825,-0.7031,-2.686,-0.305,-19.348,179.808,-45.791,114.884
7113,0.7358,-0.0874,-0.7012,-2.930,-0.854,-18.372,179.665,-45.786,115.148
7123,0.7354,-0.0918,-0.6982,-3.052,-1.221,-17.029,179.544,-45.775,115.389
7133,0.7319,-0.0942,-0.6968,-2.380,-1.465,-15.564,179.440,-45.764,115.615
7143,0.7275,-0.0952,-0.6904,-1.404,-1.526,-13.916,179.368,-45.753,115.812
7153,0.7275,-0.0952,-0.6924,-0.488,-1.160,-12.024,179.330,-45.742,115.983
7163,0.7222,-0.0918,-0.6943,0.305,-0.732,-9.949,179.313,-45.736,116.125
7173,0.7217,-0.0894,-0.6914,1.038,0.061,-7.812,179.324,-45.736,116.235
7183,0.7207,-0.0820,-0.6963,2.014,0.854,-5.798,179.357,-45.747,116.323
7193,0.7222,-0.0767,-0.6963,2.808,1.587,-4.028,179.418,-45.764,116.378
7203,0.7227,-0.0693,-0.6973,3.235,2.014,-2.502,179.484,-45.786,116.417
7213,0.7227,-0.0659,-0.6978,3.540,2.197,-1.221,179.566,-45.807,116.433
7223,0.7236,-0.0615,-0.6992,3.540,2.014,-0.244,179.654,-45.829,116.439
7233,0.7241,-0.0552,-0.7007,3.174,1.648,0.427,179.736,-45.846,116.433
7243,0.7227,-0.0508,-0.7017,2.869,1.404,0.854,179.819,-45.857,116.417
7253,0.7236,-0.0444,-0.7056,2.686,1.282,1.038,179.896,-45.868,116.406
7263,0.7241,-0.0444,-0.7056,2.441,1.099,0.977,179.967,-45.879,116.389
7273,0.7222,-0.0396,-0.7051,1.953,1.099,0.732,-179.978,-45.884,116.378
7283,0.7212,-0.0356,-0.7017,1.160,1.160,0.305,-179.934,-45.895,116.373
7293,0.7227,-0.0356,-0.7021,0.244,1.160,-0.183,-179.907,-45.906,116.378
7303,0.7217,-0.0361,-0.6997,-0.244,1.038,-0.671,-179.885,-45.917,116.389
7313,0.7227,-0.0342,-0.6973,-0.305,0.854,-1.038,-179.874,-45.928,116.400
7323,0.7266,-0.0298,-0.6968,-0.061,0.610,-1.221,-179.863,-45.934,116.422
7333,0.7300,-0.0312,-0.6948,0.671,0.427,-1.160,-179.841,-45.945,116.439
7343,0.7339,-0.0366,-0.6948,1.770,0.305,-1.038,-179.808,-45.956,116.450
7353,0.7368,-0.0435,-0.6968,2.563,0.183,-0.977,-179.758,-45.961,116.466
7363,0.7358,-0.0493,-0.6978,2.747,0.061,-1.099,-179.703,-45.967,116.483
7373,0.7383,-0.0522,-0.6948,2.319,-0.183,-1.282,-179.654,-45.972,116.499
7383,0.7358,-0.0522,-0.6934,1.221,-0.366,-1.343,-179.615,-45.972,116.521
7393,0.7339,-0.0503,-0.6909,0.427,-0.366,-1.221,-179.588,-45.978,116.537
7403,0.7295,-0.0464,-0.6904,0.244,-0.061,-1.038,-179.561,-45.983,116.554
7413,0.7285,-0.0454,-0.6919,0.549,0.183,-0.732,-179.528,-45.989,116.559
7423,0.7261,-0.0459,-0.6919,1.282,0.427,-0.305,-179.484,-46.000,116.565
7433,0.7275,-0.0459,-0.6929,1.831,0.671,0.183,-179.434,-46.005,116.565
7443,0.7256,-0.0469,-0.6948,2.075,0.793,0.549,-179.374,-46.016,116.554
7453,0.7275,-0.0474,-0.6973,2.075,0.916,0.793,-179.313,-46.027,116.543
7463,0.7295,-0.0483,-0.6997,2.258,1.160,0.732,-179.247,-46.038,116.532
7473,0.7310,-0.0488,-0.7012,2.502,1.221,0.671,-179.187,-46.055,116.521
7483,0.7310,-0.0483,-0.7036,2.319,1.038,0.610,-179.127,-46.060,116.516
7493,0.7324,-0.0498,-0.7012,2.075,0.793,0.488,-179.066,-46.071,116.505
7503,0.7305,-0.0488,-0.7007,2.075,0.549,0.366,-179.011,-46.077,116.499
7513,0.7295,-0.0483,-0.6992,1.221,0.183,0.305,-178.967,-46.082,116.499
7524,0.7319,-0.0483,-0.7002,0.671,-0.366,0.244,-178.929,-46.077,116.494
7533,0.7305,-0.0488,-0.6978,0.549,-0.549,0.244,-178.890,-46.077,116.488
7543,0.7314,-0.0488,-0.6978,0.732,-0.549,0.305,-178.852,-46.071,116.488
7553,0.7314,-0.0493,-0.6968,0.977,-0.549,0.366,-178.808,-46.066,116.483
7563,0.7314,-0.0518,-0.6968,1.282,-0.488,0.427,-178.764,-46.066,116.477
7573,0.7305,-0.0532,-0.6968,1.526,-0.366,0.366,-178.715,-46.066,116.472
7583,0.7290,-0.0518,-0.6953,1.465,-0.244,0.305,-178.665,-46.066,116.466
7593,0.7295,-0.0498,-0.6943,0.977,-0.122,0.366,-178.627,-46.066,116.461
7603,0.7305,-0.0474,-0.6963,0.732,0.122,0.427,-178.588,-46.071,116.455
7614,0.7314,-0.0479,-0.6963,0.854,0.305,0.427,-178.550,-46.077,116.450
7624,0.7295,-0.0483,-0.6963,1.099,0.366,0.427,-178.511,-46.082,116.444
7634,0.7295,-0.0503,-0.6968,1.160,0.305,0.305,-178.467,-46.088,116.439
7644,0.7280,-0.0498,-0.6982,0.732,0.183,0.305,-178.429,-46.088,116.433
7654,0.7280,-0.0469,-0.6982,0.244,0.122,0.305,-178.401,-46.088,116.428
7664,0.7275,-0.0474,-0.7012,-0.061,0.122,0.305,-178.380,-46.088,116.422
7674,0.7280,-0.0474,-0.6997,0.061,0.244,0.305,-178.352,-46.093,116.417
7684,0.7275,-0.0493,-0.7007,0.366,0.305,0.366,-178.319,-46.093,116.417
7694,0.7275,-0.0508,-0.7007,0.671,0.244,0.366,-178.286,-46.093,116.411
7704,0.7295,-0.0552,-0.6987,0.671,0.122,0.244,-178.248,-46.099,116.406
7714,0.7305,-0.0625,-0.7007,0.366,0.000,0.061,-178.209,-46.099,116.406
7724,0.7324,-0.0630,-0.7017,-0.244,-0.183,-0.122,-178.182,-46.093,116.406
7734,0.7300,-0.0649,-0.6997,-1.038,-0.183,-0.122,-178.160,-46.093,116.406
7744,0.7285,-0.0615,-0.7002,-1.709,-0.183,-0.061,-178.143,-46.093,116.411
7754,0.7280,-0.0562,-0.6987,-2.136,-0.183,0.244,-178.132,-46.088,116.406
7764,0.7246,-0.0527,-0.6958,-2.136,-0.183,0.732,-178.121,-46.088,116.395
7774,0.7222,-0.0483,-0.6953,-1.709,-0.122,1.282,-178.105,-46.082,116.378
7784,0.7231,-0.0449,-0.6958,-0.916,-0.061,1.892,-178.077,-46.082,116.351
7794,0.7222,-0.0449,-0.6963,0.122,0.061,2.380,-178.033,-46.082,116.312
7804,0.7241,-0.0474,-0.6958,0.854,0.244,2.563,-177.979,-46.082,116.279
7814,0.7280,-0.0474,-0.6982,1.221,0.488,2.563,-177.924,-46.088,116.241
7824,0.7285,-0.0459,-0.6982,1.038,0.610,2.258,-177.874,-46.093,116.208
7834,0.7300,-0.0474,-0.7012,0.793,0.549,1.892,-177.825,-46.099,116.180
7844,0.7339,-0.0444,-0.6992,0.549,0.305,1.526,-177.792,-46.104,116.158
7854,0.7339,-0.0479,-0.6973,0.488,0.000,1.221,-177.759,-46.104,116.142
7864,0.7329,-0.0493,-0.6953,0.244,-0.488,0.793,-177.726,-46.104,116.131
7874,0.7344,-0.0518,-0.6987,-0.305,-0.916,0.549,-177.704,-46.099,116.120
7884,0.7319,-0.0522,-0.6958,-0.977,-1.160,0.427,-177.693,-46.088,116.115
7894,0.7314,-0.0508,-0.6919,-1.343,-1.038,0.488,-177.682,-46.082,116.109
7904,0.7310,-0.0498,-0.6914,-1.343,-0.732,0.610,-177.671,-46.082,116.104
7914,0.7285,-0.0493,-0.6899,-0.793,-0.244,0.732,-177.654,-46.082,116.093
7924,0.7290,-0.0483,-0.6919,-0.122,0.183,0.854,-177.632,-46.088,116.076
7934,0.7300,-0.0493,-0.6948,0.488,0.610,0.916,-177.599,-46.093,116.065
7944,0.7290,-0.0483,-0.6968,0.916,0.916,0.916,-177.567,-46.104,116.054
7954,0.7285,-0.0469,-0.6958,1.221,1.038,0.916,-177.528,-46.115,116.038
7964,0.7275,-0.0469,-0.6992,1.465,1.038,0.732,-177.490,-46.126,116.027
7974,0.7275,-0.0493,-0.7007,1.465,0.854,0.549,-177.457,-46.132,116.016
7984,0.7280,-0.0518,-0.7002,1.160,0.610,0.305,-177.424,-46.137,116.016
7994,0.7329,-0.0542,-0.7007,0.427,0.183,0.061,-177.402,-46.143,116.010
8004,0.7363,-0.0547,-0.7012,-0.366,-0.305,-0.183,-177.385,-46.143,116.016
8014,0.7334,-0.0586,-0.6973,-0.977,-0.610,-0.427,-177.380,-46.137,116.021
8024,0.7314,-0.0601,-0.6963,-1.526,-0.732,-0.549,-177.380,-46.132,116.032
8034,0.7266,-0.0605,-0.6948,-2.136,-0.732,-0.671,-177.385,-46.126,116.038
8044,0.7251,-0.0615,-0.6943,-2.686,-0.671,-0.671,-177.391,-46.121,116.049
8054,0.7271,-0.0649,-0.6934,-2.991,-0.427,-0.610,-177.402,-46.115,116.060
8064,0.7354,-0.0698,-0.6943,-2.930,-0.061,-0.488,-177.402,-46.121,116.065
8074,0.7437,-0.0781,-0.7007,-2.686,0.183,-0.488,-177.396,-46.126,116.076
8084,0.7471,-0.0859,-0.7041,-2.808,0.244,-0.427,-177.385,-46.132,116.082
8094,0.7466,-0.0889,-0.7017,-3.601,0.000,-0.122,-177.374,-46.137,116.082
8104,0.7412,-0.0820,-0.6997,-4.883,-0.610,0.366,-177.380,-46.132,116.076
8114,0.7344,-0.0688,-0.6938,-5.737,-1.526,1.160,-177.396,-46.121,116.060
8124,0.7305,-0.0547,-0.6914,-5.432,-2.197,2.197,-177.407,-46.104,116.032
8134,0.7246,-0.0449,-0.6899,-3.906,-2.319,3.296,-177.402,-46.082,115.983
8144,0.7163,-0.0366,-0.6890,-1.892,-1.831,4.211,-177.374,-46.060,115.922
8154,0.7148,-0.0298,-0.6919,-0.122,-0.916,4.944,-177.330,-46.049,115.856
8164,0.7153,-0.0215,-0.6924,1.099,0.244,5.310,-177.270,-46.049,115.779
8174,0.7144,-0.0166,-0.6963,1.892,1.343,5.127,-177.215,-46.055,115.703
8184,0.7148,-0.0122,-0.6978,2.258,2.380,4.395,-177.160,-46.071,115.637
8194,0.7163,-0.0132,-0.7017,2.808,2.808,3.357,-177.116,-46.093,115.587
8204,0.7212,-0.0161,-0.7051,2.747,2.869,2.014,-177.083,-46.115,115.554
8214,0.7261,-0.0195,-0.7085,2.197,2.380,0.549,-177.067,-46.137,115.549
8224,0.7285,-0.0229,-0.7100,1.465,1.648,-0.854,-177.072,-46.148,115.560
8234,0.7305,-0.0269,-0.7070,0.488,0.671,-2.258,-177.094,-46.154,115.593
8244,0.7324,-0.0303,-0.7026,-0.061,-0.305,-3.479,-177.138,-46.154,115.642
8254,0.7344,-0.0342,-0.7002,-0.366,-1.221,-4.456,-177.187,-46.148,115.708
8264,0.7368,-0.0386,-0.6958,-0.549,-1.709,-5.127,-177.242,-46.137,115.779
8274,0.7368,-0.0469,-0.6948,-0.549,-1.831,-5.554,-177.297,-46.126,115.862
8284,0.7329,-0.0552,-0.6909,-0.732,-1.526,-5.859,-177.347,-46.115,115.950
8294,0.7295,-0.0669,-0.6914,-1.343,-0.977,-6.104,-177.396,-46.115,116.038
8304,0.7275,-0.0752,-0.6890,-2.319,-0.305,-6.226,-177.446,-46.115,116.125
8314,0.7266,-0.0820,-0.6934,-3.479,0.549,-6.042,-177.501,-46.126,116.213
8324,0.7305,-0.0864,-0.6934,-4.517,1.465,-5.371,-177.550,-46.143,116.290
8334,0.7285,-0.0879,-0.6978,-5.005,2.136,-4.272,-177.599,-46.165,116.351
8344,0.7300,-0.0894,-0.6992,-5.127,2.197,-2.869,-177.627,-46.187,116.389
8354,0.7305,-0.0884,-0.6997,-4.639,1.648,-1.221,-177.638,-46.203,116.406
8364,0.7324,-0.0854,-0.6987,-3.723,0.671,0.671,-177.621,-46.208,116.395
8374,0.7339,-0.0830,-0.7012,-2.747,-0.488,2.502,-177.578,-46.203,116.362
8384,0.7354,-0.0781,-0.7002,-1.831,-1.282,4.211,-177.517,-46.187,116.301
8394,0.7368,-0.0752,-0.7012,-0.549,-1.831,5.676,-177.424,-46.165,116.219
8404,0.7363,-0.0688,-0.6973,0.732,-1.770,6.836,-177.319,-46.148,116.120
8414,0.7319,-0.0679,-0.6987,1.465,-1.404,7.568,-177.198,-46.132,116.016
8424,0.7280,-0.0654,-0.6958,1.587,-0.793,7.935,-177.078,-46.121,115.900
8434,0.7222,-0.0635,-0.6973,1.038,-0.305,7.996,-176.962,-46.110,115.785
8444,0.7192,-0.0610,-0.6968,-0.427,-0.061,7.874,-176.863,-46.104,115.670
8454,0.7192,-0.0532,-0.6968,-1.953,0.000,7.751,-176.792,-46.099,115.560
8464,0.7222,-0.0469,-0.6963,-3.235,0.000,7.690,-176.737,-46.093,115.450
8474,0.7246,-0.0396,-0.6963,-3.784,-0.061,7.812,-176.693,-46.088,115.334
8484,0.7285,-0.0376,-0.6943,-3.479,-0.122,7.935,-176.649,-46.082,115.225
8494,0.7319,-0.0312,-0.6934,-2.686,-0.488,7.874,-176.605,-46.082,115.109
8504,0.7373,-0.0308,-0.6958,-1.526,-0.977,7.690,-176.550,-46.071,114.999
8514,0.7402,-0.0269,-0.6978,-0.732,-1.282,7.324,-176.495,-46.060,114.895
8525,0.7417,-0.0239,-0.6978,0.183,-1.221,6.714,-176.440,-46.049,114.802
8534,0.7441,-0.0254,-0.6953,0.916,-0.671,5.798,-176.385,-46.049,114.719
8544,0.7412,-0.0254,-0.6953,0.854,0.000,4.517,-176.347,-46.055,114.653
8554,0.7383,-0.0273,-0.6924,0.549,0.366,3.174,-176.325,-46.066,114.604
8564,0.7344,-0.0215,-0.6924,-0.183,0.488,1.831,-176.325,-46.071,114.582
8574,0.7290,-0.0200,-0.6934,-0.366,0.122,0.610,-176.342,-46.077,114.571
8584,0.7212,-0.0225,-0.6924,-0.061,0.000,-0.427,-176.364,-46.077,114.576
8594,0.7163,-0.0259,-0.6919,0.000,0.122,-1.160,-176.391,-46.082,114.593
8604,0.7148,-0.0322,-0.6909,0.183,0.244,-1.831,-176.418,-46.082,114.620
8614,0.7144,-0.0366,-0.6914,-0.122,0.305,-2.319,-176.446,-46.082,114.653
8624,0.7183,-0.0415,-0.6958,-0.549,0.305,-2.563,-176.479,-46.088,114.692
8634,0.7236,-0.0459,-0.6973,-0.305,0.427,-2.625,-176.506,-46.093,114.725
8644,0.7290,-0.0518,-0.6982,0.366,0.732,-2.625,-176.523,-46.104,114.763
8654,0.7305,-0.0596,-0.7012,1.282,1.038,-2.563,-176.523,-46.115,114.802
8664,0.7305,-0.0635,-0.7017,1.892,1.160,-2.380,-176.512,-46.126,114.835
8674,0.7300,-0.0659,-0.7046,2.319,1.160,-2.075,-176.490,-46.137,114.862
8684,0.7324,-0.0640,-0.7051,2.686,1.160,-1.709,-176.462,-46.148,114.884
8694,0.7329,-0.0615,-0.7061,3.296,1.160,-1.465,-176.429,-46.159,114.906
8704,0.7319,-0.0586,-0.7046,3.723,1.038,-1.221,-176.396,-46.165,114.922
8714,0.7300,-0.0547,-0.6982,4.272,0.671,-0.977,-176.353,-46.176,114.933
8724,0.7261,-0.0537,-0.7002,4.395,0.183,-1.038,-176.314,-46.176,114.950
8734,0.7251,-0.0557,-0.7002,3.845,-0.305,-1.343,-176.281,-46.170,114.972
8744,0.7251,-0.0557,-0.6973,2.869,-0.671,-1.831,-176.259,-46.165,114.999
8754,0.7207,-0.0576,-0.6948,1.709,-0.610,-2.319,-176.259,-46.159,115.032
8764,0.7207,-0.0581,-0.6943,0.488,-0.366,-2.747,-176.270,-46.154,115.071
8774,0.7217,-0.0610,-0.6934,-0.366,-0.122,-2.930,-176.292,-46.154,115.115
8784,0.7246,-0.0635,-0.6890,-0.610,0.122,-2.747,-176.314,-46.159,115.153
8794,0.7261,-0.0688,-0.6890,-0.549,0.244,-2.380,-176.320,-46.165,115.186
8804,0.7329,-0.0723,-0.6914,-0.366,0.244,-1.770,-176.320,-46.170,115.214
8814,0.7368,-0.0776,-0.6914,-0.122,0.244,-1.099,-176.303,-46.181,115.230
8824,0.7388,-0.0806,-0.6948,0.061,0.244,-0.366,-176.281,-46.187,115.236
8834,0.7412,-0.0815,-0.6973,0.061,0.305,0.244,-176.248,-46.192,115.230
8844,0.7427,-0.0845,-0.7007,0.122,0.427,0.732,-176.204,-46.198,115.219
8854,0.7427,-0.0835,-0.7036,-0.061,0.366,1.099,-176.166,-46.203,115.203
8864,0.7412,-0.0811,-0.7041,-0.427,0.244,1.465,-176.127,-46.203,115.181
8874,0.7354,-0.0781,-0.6997,-0.732,0.000,1.831,-176.089,-46.203,115.153
8884,0.7324,-0.0713,-0.7007,-1.038,-0.305,2.197,-176.061,-46.198,115.120
8894,0.7271,-0.0649,-0.6978,-1.160,-0.732,2.563,-176.028,-46.187,115.087
8904,0.7256,-0.0576,-0.6973,-1.038,-1.038,2.991,-176.001,-46.176,115.043
8914,0.7251,-0.0527,-0.6973,-0.427,-1.099,3.357,-175.968,-46.159,114.999
8924,0.7241,-0.0518,-0.6953,0.122,-0.916,3.540,-175.930,-46.148,114.950
8934,0.7246,-0.0493,-0.6948,0.488,-0.671,3.540,-175.891,-46.137,114.895
8944,0.7256,-0.0488,-0.6963,0.549,-0.427,3.418,-175.853,-46.132,114.846
8954,0.7261,-0.0488,-0.6973,0.366,-0.183,2.991,-175.820,-46.126,114.807
8964,0.7275,-0.0503,-0.6943,0.183,0.061,2.380,-175.792,-46.126,114.769
8974,0.7256,-0.0493,-0.6968,-0.061,0.183,1.648,-175.776,-46.132,114.747
8984,0.7246,-0.0493,-0.6982,-0.366,0.183,0.916,-175.776,-46.132,114.736
8994,0.7256,-0.0503,-0.7007,-0.916,0.122,0.305,-175.781,-46.126,114.730
9004,0.7256,-0.0522,-0.6992,-1.526,0.061,-0.122,-175.798,-46.126,114.730
9014,0.7280,-0.0518,-0.7017,-1.831,-0.061,-0.427,-175.820,-46.126,114.736
9025,0.7285,-0.0518,-0.7007,-1.709,-0.244,-0.610,-175.842,-46.121,114.747
9034,0.7285,-0.0547,-0.7007,-1.343,-0.427,-0.610,-175.858,-46.121,114.758
9044,0.7310,-0.0576,-0.6982,-1.160,-0.610,-0.610,-175.869,-46.115,114.763
9054,0.7314,-0.0601,-0.6973,-0.916,-0.793,-0.549,-175.880,-46.110,114.774
9064,0.7329,-0.0625,-0.6968,-0.793,-0.854,-0.549,-175.880,-46.104,114.785
9074,0.7329,-0.0640,-0.6968,-0.854,-0.793,-0.488,-175.886,-46.099,114.791
9084,0.7329,-0.0669,-0.6948,-0.732,-0.549,-0.366,-175.880,-46.093,114.796
9094,0.7300,-0.0659,-0.6973,-0.549,-0.183,-0.366,-175.880,-46.093,114.802
9104,0.7275,-0.0645,-0.6968,-0.366,0.183,-0.244,-175.875,-46.099,114.807
9114,0.7266,-0.0654,-0.6963,-0.366,0.427,-0.061,-175.864,-46.099,114.807
9124,0.7256,-0.0576,-0.6978,-0.305,0.427,0.183,-175.858,-46.104,114.802
9134,0.7241,-0.0576,-0.6992,-0.122,0.305,0.427,-175.853,-46.104,114.796
9144,0.7256,-0.0566,-0.7012,0.061,0.183,0.549,-175.842,-46.104,114.785
9154,0.7261,-0.0596,-0.6978,0.000,0.000,0.549,-175.825,-46.104,114.780
9164,0.7251,-0.0596,-0.6992,-0.305,-0.183,0.366,-175.820,-46.099,114.774
9174,0.7256,-0.0615,-0.6973,-0.977,-0.427,0.122,-175.820,-46.093,114.774
9184,0.7266,-0.0610,-0.6982,-1.709,-0.610,-0.122,-175.831,-46.088,114.774
9194,0.7290,-0.0625,-0.6978,-2.319,-0.671,-0.122,-175.847,-46.082,114.780
9204,0.7295,-0.0620,-0.6968,-2.319,-0.549,-0.061,-175.858,-46.077,114.780
9215,0.7310,-0.0645,-0.6943,-2.136,-0.488,0.122,-175.869,-46.077,114.780
9225,0.7314,-0.0649,-0.6943,-1.770,-0.549,0.366,-175.869,-46.077,114.774
9235,0.7329,-0.0649,-0.6943,-1.465,-0.732,0.793,-175.864,-46.071,114.763
9245,0.7319,-0.0625,-0.6948,-0.977,-0.732,1.282,-175.853,-46.066,114.747
9255,0.7310,-0.0610,-0.6938,-0.488,-0.610,1.709,-175.831,-46.060,114.719
9265,0.7300,-0.0591,-0.6924,0.061,-0.427,2.014,-175.803,-46.060,114.692
9275,0.7271,-0.0557,-0.6938,0.427,-0.183,2.197,-175.770,-46.060,114.664
9285,0.7266,-0.0537,-0.6938,0.549,0.122,2.258,-175.743,-46.060,114.631
9295,0.7241,-0.0513,-0.6948,0.427,0.305,2.197,-175.715,-46.060,114.598
9305,0.7271,-0.0483,-0.6953,0.305,0.488,1.953,-175.693,-46.066,114.571
9315,0.7280,-0.0464,-0.6992,0.366,0.732,1.709,-175.677,-46.071,114.543
9325,0.7280,-0.0459,-0.7007,0.488,0.916,1.221,-175.666,-46.082,114.527
9335,0.7285,-0.0444,-0.6982,0.671,0.854,0.732,-175.660,-46.088,114.510
9345,0.7280,-0.0439,-0.7002,0.732,0.732,0.244,-175.655,-46.099,114.510
9355,0.7261,-0.0439,-0.7007,0.916,0.427,-0.244,-175.655,-46.099,114.510
9365,0.7261,-0.0444,-0.6982,0.977,0.122,-0.732,-175.660,-46.099,114.521
9375,0.7236,-0.0430,-0.6997,1.038,0.000,-1.160,-175.671,-46.099,114.538
9385,0.7241,-0.0469,-0.6987,1.160,0.000,-1.526,-175.677,-46.099,114.560
9395,0.7227,-0.0508,-0.7002,1.282,0.000,-1.953,-175.688,-46.099,114.587
9405,0.7231,-0.0522,-0.6987,1.465,0.061,-2.319,-175.699,-46.099,114.620
9415,0.7241,-0.0552,-0.6978,1.587,0.122,-2.563,-175.704,-46.099,114.659
9425,0.7236,-0.0591,-0.6997,1.587,0.244,-2.625,-175.710,-46.104,114.697
9435,0.7241,-0.0620,-0.6997,1.587,0.244,-2.563,-175.715,-46.104,114.736
9445,0.7236,-0.0679,-0.6973,1.648,0.305,-2.380,-175.710,-46.110,114.769
9455,0.7251,-0.0708,-0.6973,1.648,0.244,-2.075,-175.699,-46.110,114.796
9465,0.7266,-0.0723,-0.6982,1.587,0.183,-1.648,-175.682,-46.115,114.818
9475,0.7280,-0.0757,-0.7007,1.709,0.061,-1.038,-175.660,-46.115,114.835
9485,0.7305,-0.0815,-0.7007,1.648,-0.183,-0.427,-175.622,-46.110,114.840
9495,0.7275,-0.0840,-0.6982,1.465,-0.427,0.183,-175.583,-46.104,114.840
9505,0.7251,-0.0869,-0.6982,1.099,-0.671,0.732,-175.540,-46.093,114.829
9515,0.7246,-0.0884,-0.6973,0.427,-0.732,1.343,-175.496,-46.082,114.813
9525,0.7227,-0.0864,-0.6982,0.122,-0.916,1.831,-175.452,-46.071,114.785
9535,0.7251,-0.0859,-0.6987,-0.916,-0.549,2.258,-175.413,-46.060,114.752
9545,0.7271,-0.0850,-0.6987,-1.465,-0.244,2.808,-175.375,-46.055,114.714
9555,0.7271,-0.0825,-0.7007,-1.465,-0.061,3.357,-175.331,-46.049,114.664
9565,0.7295,-0.0786,-0.6992,-1.465,0.061,3.906,-175.287,-46.049,114.609
9575,0.7334,-0.0747,-0.7026,-1.099,-0.122,4.272,-175.243,-46.044,114.549
9585,0.7363,-0.0698,-0.7021,-0.671,-0.244,4.700,-175.193,-46.038,114.483
9595,0.7354,-0.0625,-0.6997,-0.183,-0.305,5.066,-175.139,-46.033,114.406
9605,0.7310,-0.0547,-0.6987,0.427,-0.366,5.310,-175.084,-46.027,114.335
9615,0.7285,-0.0464,-0.6948,1.099,-0.305,5.249,-175.034,-46.027,114.258
9625,0.7241,-0.0391,-0.6943,1.831,-0.183,4.944,-174.979,-46.022,114.186
9635,0.7212,-0.0327,-0.6938,2.197,0.000,4.333,-174.941,-46.016,114.126
9645,0.7212,-0.0317,-0.6934,2.197,0.183,3.418,-174.908,-46.016,114.077
9655,0.7227,-0.0308,-0.6973,2.014,0.305,2.380,-174.886,-46.016,114.044
9665,0.7236,-0.0337,-0.6963,1.648,0.427,1.160,-174.880,-46.022,114.022
9675,0.7266,-0.0415,-0.6997,1.221,0.549,0.000,-174.886,-46.027,114.022
9685,0.7285,-0.0469,-0.7002,0.671,0.610,-1.221,-174.902,-46.033,114.038
9695,0.7310,-0.0532,-0.7017,-0.061,0.610,-2.441,-174.935,-46.044,114.077
9705,0.7324,-0.0586,-0.7007,-0.916,0.488,-3.357,-174.985,-46.055,114.120
9715,0.7324,-0.0630,-0.7021,-1.587,0.427,-3.906,-175.040,-46.060,114.175
9725,0.7305,-0.0718,-0.6963,-1.892,0.305,-4.211,-175.089,-46.071,114.236
9735,0.7310,-0.0762,-0.6953,-1.892,0.000,-4.089,-175.139,-46.077,114.296
9745,0.7310,-0.0781,-0.6953,-1.770,-0.244,-3.723,-175.177,-46.077,114.351
9755,0.7300,-0.0825,-0.6978,-1.526,-0.549,-3.174,-175.204,-46.077,114.395
9765,0.7300,-0.0845,-0.6978,-1.221,-0.488,-2.441,-175.221,-46.071,114.434
9775,0.7275,-0.0869,-0.6968,-0.916,-0.244,-1.587,-175.226,-46.071,114.456
9785,0.7261,-0.0864,-0.6968,-0.732,0.000,-0.793,-175.215,-46.071,114.467
9795,0.7261,-0.0825,-0.6953,-0.549,0.244,-0.122,-175.204,-46.071,114.467
9805,0.7246,-0.0771,-0.6982,-0.427,0.366,0.427,-175.188,-46.077,114.461
9815,0.7236,-0.0728,-0.6997,-0.366,0.488,0.977,-175.172,-46.077,114.445
9825,0.7231,-0.0679,-0.6992,-0.183,0.549,1.465,-175.150,-46.077,114.423
9835,0.7241,-0.0688,-0.6992,0.244,0.488,1.770,-175.122,-46.077,114.401
9845,0.7251,-0.0669,-0.7017,0.488,0.366,1.831,-175.089,-46.077,114.373
9855,0.7266,-0.0664,-0.7021,0.549,0.122,1.770,-175.062,-46.077,114.346
9865,0.7266,-0.0654,-0.7017,0.366,-0.061,1.587,-175.040,-46.071,114.324
9875,0.7241,-0.0649,-0.7031,0.000,-0.244,1.343,-175.023,-46.066,114.307
9885,0.7275,-0.0649,-0.7012,-0.366,-0.427,1.099,-175.012,-46.060,114.291
9895,0.7275,-0.0664,-0.6987,-0.671,-0.549,0.732,-175.007,-46.055,114.280
9905,0.7266,-0.0684,-0.6982,-0.916,-0.732,0.427,-175.007,-46.044,114.274
9915,0.7261,-0.0703,-0.6963,-1.282,-0.916,0.366,-175.007,-46.038,114.269
9925,0.7261,-0.0732,-0.6943,-1.709,-1.099,0.488,-175.012,-46.027,114.263
9935,0.7285,-0.0762,-0.6929,-2.014,-1.160,0.610,-175.012,-46.016,114.258
9945,0.7319,-0.0771,-0.6948,-1.953,-1.038,0.916,-175.007,-46.011,114.247
9955,0.7324,-0.0757,-0.6929,-1.648,-0.854,1.343,-175.001,-46.005,114.230
9965,0.7329,-0.0757,-0.6914,-1.343,-0.610,1.770,-174.985,-46.000,114.203
9975,0.7334,-0.0713,-0.6904,-1.038,-0.305,2.258,-174.963,-46.000,114.170
9985,0.7300,-0.0688,-0.6904,-0.732,-0.122,2.808,-174.935,-46.005,114.131
9995,0.7271,-0.0645,-0.6919,-0.366,0.122,3.174,-174.902,-46.005,114.088
10005,0.7256,-0.0581,-0.6929,0.122,0.305,3.418,-174.869,-46.005,114.038
10015,0.7231,-0.0542,-0.6943,0.671,0.549,3.540,-174.831,-46.011,113.983
10026,0.7241,-0.0518,-0.6987,1.343,0.671,3.479,-174.792,-46.011,113.934
10035,0.7246,-0.0527,-0.7002,1.953,0.793,3.113,-174.749,-46.016,113.890
10045,0.7256,-0.0542,-0.7026,2.014,0.793,2.563,-174.710,-46.022,113.851
10055,0.7271,-0.0537,-0.7012,1.465,0.610,1.770,-174.688,-46.022,113.824
10065,0.7275,-0.0532,-0.7012,0.671,0.305,0.854,-174.683,-46.027,113.813
10075,0.7271,-0.0552,-0.7036,-0.061,0.061,0.000,-174.688,-46.027,113.813
10085,0.7261,-0.0581,-0.7026,-0.549,-0.183,-0.793,-174.710,-46.022,113.824
10095,0.7290,-0.0610,-0.6997,-0.977,-0.366,-1.404,-174.738,-46.022,113.846
10105,0.7300,-0.0620,-0.6953,-1.221,-0.488,-1.831,-174.771,-46.022,113.868
10115,0.7271,-0.0630,-0.6948,-1.282,-0.549,-1.953,-174.803,-46.016,113.901
10125,0.7256,-0.0654,-0.6943,-1.221,-0.427,-1.892,-174.831,-46.016,113.928
10135,0.7256,-0.0659,-0.6924,-0.977,-0.122,-1.648,-174.858,-46.016,113.950
10145,0.7261,-0.0693,-0.6943,-0.427,0.122,-1.465,-174.869,-46.022,113.972
10155,0.7275,-0.0752,-0.6968,0.122,0.366,-1.343,-174.875,-46.027,113.989
10165,0.7285,-0.0781,-0.6963,0.305,0.610,-1.221,-174.869,-46.038,114.005
10175,0.7300,-0.0796,-0.6997,0.061,0.732,-1.160,-174.864,-46.044,114.022
10185,0.7310,-0.0776,-0.6997,-0.549,0.610,-1.038,-174.869,-46.049,114.038
10195,0.7300,-0.0781,-0.6992,-1.160,0.427,-0.793,-174.875,-46.055,114.049
10205,0.7271,-0.0742,-0.7007,-1.343,0.305,-0.488,-174.886,-46.060,114.055
10215,0.7256,-0.0703,-0.6978,-1.038,0.183,-0.122,-174.891,-46.060,114.055
10225,0.7241,-0.0688,-0.6973,-0.427,-0.122,0.305,-174.886,-46.060,114.049
10235,0.7246,-0.0645,-0.6982,0.305,-0.183,0.671,-174.875,-46.055,114.044
10245,0.7236,-0.0654,-0.6973,0.732,-0.122,0.854,-174.858,-46.049,114.033
10255,0.7246,-0.0654,-0.6987,0.854,0.000,0.793,-174.836,-46.049,114.016
10265,0.7256,-0.0635,-0.6997,0.671,0.122,0.549,-174.825,-46.049,114.011
10275,0.7256,-0.0605,-0.6987,0.305,0.244,0.183,-174.820,-46.049,114.005
10285,0.7280,-0.0591,-0.6992,-0.061,0.488,-0.183,-174.825,-46.055,114.011
10295,0.7290,-0.0591,-0.6992,-0.244,0.488,-0.610,-174.836,-46.060,114.016
10305,0.7290,-0.0586,-0.6987,-0.366,0.305,-0.854,-174.853,-46.066,114.027
10315,0.7275,-0.0605,-0.6958,-0.366,0.061,-0.977,-174.869,-46.066,114.044
10325,0.7295,-0.0610,-0.6953,-0.305,-0.244,-1.160,-174.886,-46.071,114.060
10335,0.7290,-0.0620,-0.6973,-0.061,-0.366,-1.160,-174.897,-46.066,114.077
10345,0.7300,-0.0645,-0.6963,0.244,-0.427,-1.282,-174.908,-46.066,114.099
10355,0.7295,-0.0669,-0.6953,0.244,-0.366,-1.404,-174.919,-46.066,114.115
10365,0.7290,-0.0698,-0.6968,0.061,-0.244,-1.526,-174.924,-46.066,114.137
10375,0.7261,-0.0713,-0.6953,-0.366,-0.061,-1.526,-174.935,-46.066,114.159
10385,0.7261,-0.0698,-0.6953,-0.732,0.122,-1.465,-174.952,-46.071,114.181
10395,0.7271,-0.0703,-0.6943,-0.854,0.427,-1.282,-174.968,-46.077,114.197
10405,0.7251,-0.0708,-0.6968,-0.671,0.610,-0.977,-174.974,-46.082,114.214
10415,0.7261,-0.0718,-0.6963,-0.427,0.610,-0.549,-174.974,-46.088,114.219
10425,0.7261,-0.0737,-0.6958,-0.061,0.610,-0.122,-174.968,-46.093,114.219
10435,0.7266,-0.0718,-0.6987,0.305,0.488,0.244,-174.952,-46.099,114.219
10445,0.7285,-0.0747,-0.6978,0.549,0.366,0.549,-174.930,-46.099,114.208
10455,0.7290,-0.0723,-0.7012,0.671,0.244,0.732,-174.908,-46.104,114.197
10465,0.7310,-0.0728,-0.7007,0.793,0.061,0.793,-174.880,-46.099,114.186
10475,0.7300,-0.0718,-0.6992,0.610,-0.183,0.732,-174.864,-46.099,114.175
10485,0.7290,-0.0688,-0.6992,0.244,-0.305,0.549,-174.847,-46.093,114.170
10495,0.7290,-0.0669,-0.6958,-0.366,-0.549,0.427,-174.847,-46.088,114.164
10505,0.7261,-0.0630,-0.6958,-0.732,-0.610,0.305,-174.847,-46.082,114.159
10515,0.7251,-0.0601,-0.6919,-0.854,-0.488,0.183,-174.858,-46.082,114.159
10526,0.7246,-0.0601,-0.6929,-0.793,-0.305,0.122,-174.869,-46.077,114.159
10535,0.7251,-0.0601,-0.6934,-0.610,-0.061,0.122,-174.875,-46.077,114.153
10545,0.7266,-0.0625,-0.6929,-0.244,0.183,0.122,-174.875,-46.082,114.153
10555,0.7285,-0.0635,-0.6978,0.061,0.305,0.061,-174.875,-46.088,114.153
10565,0.7300,-0.0630,-0.6973,0.244,0.488,-0.061,-174.869,-46.093,114.153
10575,0.7310,-0.0654,-0.7021,0.122,0.549,-0.244,-174.869,-46.099,114.153
10585,0.7300,-0.0659,-0.7021,0.000,0.549,-0.366,-174.869,-46.104,114.159
10595,0.7285,-0.0664,-0.6997,-0.183,0.488,-0.549,-174.875,-46.104,114.164
10605,0.7266,-0.0664,-0.6958,-0.488,0.305,-0.732,-174.880,-46.110,114.175
10615,0.7266,-0.0649,-0.6978,-0.732,0.122,-0.793,-174.897,-46.110,114.186
10625,0.7261,-0.0635,-0.6973,-0.793,0.000,-0.671,-174.908,-46.110,114.197
10635,0.7261,-0.0659,-0.6997,-0.427,-0.122,-0.488,-174.919,-46.110,114.203
10645,0.7261,-0.0693,-0.6987,-0.122,-0.183,-0.366,-174.913,-46.104,114.208
10655,0.7290,-0.0703,-0.6987,0.000,-0.244,-0.305,-174.913,-46.104,114.214
10665,0.7310,-0.0713,-0.6992,-0.061,-0.366,-0.244,-174.908,-46.099,114.219
10675,0.7319,-0.0723,-0.6978,-0.244,-0.366,-0.122,-174.902,-46.099,114.219
10685,0.7310,-0.0718,-0.6968,-0.427,-0.305,0.000,-174.902,-46.099,114.219
10695,0.7295,-0.0703,-0.6958,-0.488,-0.122,0.122,-174.897,-46.099,114.219
10705,0.7280,-0.0674,-0.6968,-0.427,0.000,0.183,-174.897,-46.099,114.219
10715,0.7246,-0.0654,-0.6963,-0.366,0.061,0.366,-174.891,-46.099,114.214
10725,0.7246,-0.0625,-0.6973,-0.305,0.183,0.549,-174.891,-46.099,114.203
10735,0.7246,-0.0625,-0.6963,-0.183,0.305,0.732,-174.886,-46.099,114.192
10745,0.7246,-0.0610,-0.6973,0.000,0.427,0.793,-174.875,-46.099,114.181
10755,0.7241,-0.0605,-0.7007,0.244,0.427,0.671,-174.869,-46.104,114.170
10765,0.7266,-0.0620,-0.7012,0.244,0.366,0.549,-174.858,-46.104,114.164
10776,0.7300,-0.0640,-0.6987,-0.183,0.061,-0.122,-174.864,-46.104,114.164
10786,0.7285,-0.0645,-0.6997,-0.549,-0.122,-0.427,-174.869,-46.104,114.170
10796,0.7266,-0.0649,-0.6978,-0.916,-0.244,-0.671,-174.886,-46.099,114.181
10806,0.7285,-0.0659,-0.6968,-1.221,-0.366,-0.732,-174.902,-46.099,114.192
10816,0.7285,-0.0654,-0.6973,-1.160,-0.488,-0.671,-174.919,-46.093,114.203
10826,0.7280,-0.0659,-0.6973,-0.916,-0.488,-0.549,-174.930,-46.093,114.208
10836,0.7261,-0.0674,-0.6958,-0.488,-0.488,-0.366,-174.935,-46.088,114.214
10846,0.7266,-0.0679,-0.6929,-0.183,-0.305,-0.122,-174.935,-46.088,114.219
10856,0.7271,-0.0684,-0.6953,0.122,-0.183,0.061,-174.924,-46.082,114.219
10866,0.7271,-0.0688,-0.6982,0.244,0.000,0.183,-174.919,-46.082,114.214
10876,0.7275,-0.0679,-0.6973,0.183,0.183,0.305,-174.908,-46.082,114.208
10886,0.7305,-0.0688,-0.6973,0.122,0.366,0.366,-174.897,-46.088,114.203
10896,0.7319,-0.0664,-0.7007,0.244,0.427,0.427,-174.886,-46.093,114.197
10906,0.7329,-0.0659,-0.6982,0.305,0.305,0.488,-174.875,-46.099,114.192
10916,0.7310,-0.0664,-0.6992,0.488,0.122,0.488,-174.858,-46.099,114.181
10926,0.7290,-0.0654,-0.6978,0.366,-0.122,0.366,-174.853,-46.099,114.175
10936,0.7280,-0.0654,-0.6997,0.061,-0.305,0.244,-174.847,-46.093,114.175
10946,0.7246,-0.0649,-0.6982,-0.183,-0.366,0.122,-174.847,-46.088,114.175
10956,0.7251,-0.0635,-0.6978,-0.366,-0.244,0.000,-174.847,-46.088,114.175
10966,0.7246,-0.0630,-0.6958,-0.488,-0.061,-0.061,-174.853,-46.082,114.175
10976,0.7256,-0.0645,-0.6953,-0.427,0.000,-0.061,-174.858,-46.082,114.175
10986,0.7256,-0.0659,-0.6973,-0.244,0.061,-0.061,-174.858,-46.082,114.175
10996,0.7275,-0.0679,-0.6978,-0.183,0.061,-0.061,-174.858,-46.088,114.175
11006,0.7285,-0.0684,-0.6968,-0.244,0.061,0.000,-174.853,-46.088,114.175
11016,0.7310,-0.0688,-0.6968,-0.427,-0.061,0.061,-174.853,-46.088,114.175
11026,0.7305,-0.0708,-0.6968,-0.488,-0.122,0.122,-174.853,-46.088,114.175
11036,0.7285,-0.0713,-0.6973,-0.366,-0.183,0.244,-174.842,-46.088,114.170
11046,0.7295,-0.0703,-0.6968,-0.305,-0.244,0.305,-174.836,-46.082,114.170
11056,0.7290,-0.0688,-0.6968,-0.366,-0.244,0.366,-174.836,-46.082,114.164
11066,0.7290,-0.0679,-0.6953,-0.488,-0.305,0.488,-174.831,-46.082,114.153
11076,0.7275,-0.0664,-0.6958,-0.488,-0.183,0.671,-174.825,-46.077,114.148
11086,0.7285,-0.0664,-0.6948,-0.366,-0.122,0.793,-174.820,-46.077,114.137
11096,0.7295,-0.0645,-0.6968,-0.122,0.000,0.916,-174.809,-46.077,114.120
11106,0.7290,-0.0645,-0.6968,0.122,0.061,0.977,-174.798,-46.077,114.109
11116,0.7280,-0.0640,-0.6963,0.244,0.061,0.977,-174.781,-46.082,114.093
11126,0.7256,-0.0625,-0.6978,0.122,0.061,0.854,-174.776,-46.077,114.082
11136,0.7256,-0.0630,-0.6968,-0.183,0.122,0.671,-174.771,-46.077,114.071
11146,0.7261,-0.0610,-0.6978,-0.366,0.183,0.488,-174.771,-46.082,114.066
11156,0.7251,-0.0605,-0.6997,-0.305,0.122,0.305,-174.771,-46.077,114.060
11166,0.7275,-0.0630,-0.6992,-0.183,0.122,0.183,-174.776,-46.082,114.055
11176,0.7251,-0.0620,-0.7021,-0.061,0.000,0.000,-174.776,-46.077,114.055
11186,0.7266,-0.0645,-0.6997,0.000,-0.122,-0.122,-174.776,-46.077,114.060
11196,0.7300,-0.0659,-0.6987,0.000,-0.244,-0.244,-174.776,-46.071,114.066
11206,0.7275,-0.0649,-0.6978,-0.061,-0.366,-0.305,-174.781,-46.071,114.066
11216,0.7275,-0.0679,-0.6973,-0.122,-0.366,-0.366,-174.781,-46.066,114.071
11226,0.7280,-0.0679,-0.6943,-0.244,-0.244,-0.488,-174.787,-46.066,114.082
11236,0.7280,-0.0688,-0.6953,-0.366,-0.122,-0.549,-174.792,-46.066,114.088
11246,0.7271,-0.0698,-0.6973,-0.427,-0.061,-0.610,-174.798,-46.066,114.099
11256,0.7266,-0.0679,-0.6978,-0.488,0.000,-0.549,-174.803,-46.066,114.104
11266,0.7256,-0.0674,-0.6987,-0.427,0.122,-0.427,-174.809,-46.066,114.109
11276,0.7271,-0.0688,-0.6978,-0.366,0.183,-0.244,-174.809,-46.071,114.115
11286,0.7275,-0.0684,-0.7012,-0.061,0.305,-0.061,-174.809,-46.071,114.115
11296,0.7256,-0.0693,-0.6978,0.183,0.305,0.122,-174.798,-46.071,114.115
11306,0.7285,-0.0693,-0.6987,0.244,0.305,0.122,-174.792,-46.077,114.109
11316,0.7290,-0.0684,-0.6958,0.122,0.122,0.061,-174.787,-46.077,114.109
11326,0.7300,-0.0703,-0.6973,-0.061,-0.061,0.000,-174.781,-46.077,114.109
11336,0.7300,-0.0698,-0.6987,-0.366,-0.183,-0.061,-174.781,-46.077,114.109
11346,0.7285,-0.0679,-0.6968,-0.549,-0.183,-0.061,-174.781,-46.077,114.115
11356,0.7271,-0.0645,-0.6963,-0.610,-0.183,0.000,-174.787,-46.077,114.115
11366,0.7266,-0.0664,-0.6958,-0.488,-0.183,0.061,-174.792,-46.077,114.109
11376,0.7275,-0.0654,-0.6982,-0.122,-0.122,0.183,-174.787,-46.071,114.109
11386,0.7290,-0.0664,-0.6982,0.122,-0.061,0.305,-174.781,-46.071,114.104
11396,0.7285,-0.0649,-0.6968,0.244,0.061,0.366,-174.776,-46.071,114.104
11406,0.7285,-0.0664,-0.6968,0.244,0.122,0.244,-174.765,-46.077,114.104
11416,0.7280,-0.0649,-0.6987,0.183,0.183,0.122,-174.765,-46.077,114.104
11426,0.7295,-0.0688,-0.6978,-0.061,0.183,-0.061,-174.760,-46.082,114.104
11436,0.7295,-0.0684,-0.6978,-0.366,0.122,-0.183,-174.760,-46.082,114.104
11446,0.7290,-0.0684,-0.6982,-0.549,0.000,-0.305,-174.765,-46.082,114.104
11456,0.7290,-0.0684,-0.6987,-0.610,-0.061,-0.244,-174.771,-46.082,114.104
11466,0.7280,-0.0674,-0.6982,-0.488,-0.061,-0.183,-174.776,-46.082,114.104
11476,0.7285,-0.0664,-0.6978,-0.305,-0.122,-0.061,-174.776,-46.082,114.104
11486,0.7275,-0.0674,-0.6958,-0.061,-0.183,0.061,-174.776,-46.077,114.104
11496,0.7275,-0.0674,-0.6987,0.000,-0.183,0.244,-174.771,-46.077,114.104
11506,0.7271,-0.0649,-0.6973,0.061,-0.122,0.183,-174.765,-46.077,114.104
11516,0.7280,-0.0664,-0.6968,0.000,0.000,0.183,-174.760,-46.077,114.104
11527,0.7256,-0.0640,-0.6968,-0.122,0.183,0.061,-174.765,-46.077,114.104
11536,0.7261,-0.0635,-0.6973,-0.122,0.305,-0.061,-174.765,-46.082,114.104
11546,0.7275,-0.0635,-0.6968,-0.061,0.305,-0.122,-174.765,-46.082,114.104
11556,0.7266,-0.0654,-0.6943,0.000,0.244,-0.122,-174.765,-46.088,114.104
11566,0.7280,-0.0679,-0.6934,0.061,0.061,-0.183,-174.765,-46.088,114.104
11576,0.7290,-0.0688,-0.6948,0.000,-0.122,-0.183,-174.760,-46.093,114.104
11586,0.7300,-0.0693,-0.6982,-0.183,-0.244,-0.183,-174.760,-46.088,114.104
11596,0.7305,-0.0693,-0.6992,-0.366,-0.305,-0.122,-174.760,-46.088,114.104
11606,0.7310,-0.0703,-0.6987,-0.366,-0.244,0.061,-174.760,-46.082,114.104
11616,0.7295,-0.0693,-0.6978,-0.305,-0.122,0.183,-174.754,-46.082,114.104
11626,0.7285,-0.0684,-0.6978,-0.305,0.000,0.244,-174.754,-46.082,114.104
11636,0.7275,-0.0664,-0.6992,-0.305,0.000,0.305,-174.754,-46.082,114.104
11646,0.7280,-0.0649,-0.7002,-0.244,0.000,0.427,-174.749,-46.082,114.104
11656,0.7290,-0.0659,-0.6987,-0.183,-0.061,0.488,-174.743,-46.082,114.104
11666,0.7261,-0.0630,-0.6978,0.000,-0.061,0.549,-174.738,-46.082,114.104
11676,0.7261,-0.0620,-0.6992,0.122,-0.061,0.488,-174.738,-46.077,114.104
11686,0.7266,-0.0630,-0.7007,0.061,-0.122,0.366,-174.732,-46.077,114.104
11696,0.7246,-0.0635,-0.6987,-0.061,-0.244,0.183,-174.732,-46.071,114.104
11706,0.7271,-0.0635,-0.6992,-0.244,-0.244,0.061,-174.738,-46.066,114.104
11716,0.7266,-0.0615,-0.6973,-0.305,-0.305,-0.061,-174.743,-46.066,114.104
11726,0.7266,-0.0620,-0.6948,-0.244,-0.122,-0.122,-174.749,-46.066,114.104
11736,0.7285,-0.0630,-0.6938,-0.061,0.000,-0.183,-174.749,-46.066,114.104
11746,0.7300,-0.0659,-0.6968,0.000,0.000,-0.305,-174.754,-46.071,114.104
11756,0.7295,-0.0679,-0.6968,0.000,-0.122,-0.305,-174.754,-46.071,114.104
11766,0.7266,-0.0684,-0.6973,0.000,-0.244,-0.427,-174.754,-46.066,114.104
11776,0.7261,-0.0688,-0.6982,-0.244,-0.183,-0.427,-174.754,-46.066,114.104
11786,0.7266,-0.0698,-0.6978,-0.427,-0.061,-0.488,-174.760,-46.066,114.104
11796,0.7251,-0.0693,-0.6963,-0.305,0.061,-0.427,-174.765,-46.066,114.104
11806,0.7275,-0.0688,-0.6973,-0.244,0.122,-0.183,-174.765,-46.066,114.104
11816,0.7251,-0.0693,-0.6948,-0.061,0.061,0.000,-174.760,-46.066,114.104
11826,0.7266,-0.0674,-0.6968,0.305,0.061,0.183,-174.749,-46.066,114.104
11836,0.7275,-0.0684,-0.6953,0.671,0.061,0.305,-174.738,-46.071,114.104
11846,0.7271,-0.0718,-0.6963,0.549,0.000,0.305,-174.721,-46.071,114.104
11856,0.7266,-0.0713,-0.6973,0.183,-0.122,0.244,-174.716,-46.066,114.104
11866,0.7280,-0.0713,-0.6968,-0.305,-0.183,0.183,-174.710,-46.066,114.104
11876,0.7271,-0.0703,-0.6978,-0.671,-0.183,0.183,-174.710,-46.066,114.104
11886,0.7266,-0.0693,-0.6978,-0.732,-0.183,0.305,-174.710,-46.060,114.104
11896,0.7271,-0.0679,-0.6963,-0.488,-0.122,0.488,-174.705,-46.060,114.104
11906,0.7256,-0.0674,-0.6982,-0.122,-0.061,0.671,-174.699,-46.060,114.104
11916,0.7266,-0.0693,-0.7012,0.183,0.000,0.793,-174.688,-46.055,114.104
11926,0.7290,-0.0693,-0.6987,0.183,0.000,0.916,-174.672,-46.055,114.104
11936,0.7285,-0.0669,-0.7007,-0.061,0.000,0.916,-174.661,-46.055,114.104
11946,0.7295,-0.0664,-0.6978,-0.244,0.000,0.732,-174.655,-46.055,114.104
11956,0.7295,-0.0669,-0.6992,-0.488,-0.061,0.671,-174.650,-46.055,114.104
11966,0.7300,-0.0674,-0.6987,-0.610,-0.061,0.610,-174.650,-46.055,114.104
11976,0.7300,-0.0674,-0.6982,-0.671,-0.122,0.549,-174.650,-46.055,114.104
11986,0.7280,-0.0684,-0.6992,-0.610,-0.183,0.549,-174.650,-46.049,114.104
11996,0.7275,-0.0659,-0.6973,-0.549,-0.244,0.610,-174.644,-46.049,114.104
12006,0.7271,-0.0635,-0.6958,-0.366,-0.244,0.732,-174.644,-46.044,114.104
12016,0.7261,-0.0649,-0.6963,-0.183,-0.122,0.732,-174.639,-46.044,114.104
12027,0.7275,-0.0640,-0.6973,0.122,-0.061,0.732,-174.633,-46.044,114.104
12036,0.7275,-0.0640,-0.6978,0.427,0.061,0.549,-174.622,-46.044,114.104
12046,0.7266,-0.0645,-0.6978,0.488,0.122,0.488,-174.611,-46.044,114.104
12056,0.7271,-0.0625,-0.6992,0.427,0.244,0.366,-174.606,-46.049,114.104
12066,0.7271,-0.0625,-0.7007,0.427,0.305,0.183,-174.606,-46.049,114.104
12076,0.7251,-0.0620,-0.7012,0.488,0.366,0.061,-174.600,-46.049,114.104
12086,0.7236,-0.0625,-0.6987,0.488,0.305,-0.183,-174.600,-46.055,114.104
12096,0.7266,-0.0620,-0.7002,0.366,0.183,-0.427,-174.606,-46.055,114.104
12106,0.7275,-0.0640,-0.6992,0.244,0.061,-0.610,-174.611,-46.055,114.104
12116,0.7290,-0.0654,-0.6997,0.122,-0.061,-0.854,-174.617,-46.055,114.104
12126,0.7305,-0.0669,-0.6978,0.000,-0.122,-1.099,-174.628,-46.055,114.120
12136,0.7310,-0.0679,-0.7017,-0.061,-0.183,-1.221,-174.639,-46.055,114.137
12146,0.7295,-0.0688,-0.7002,-0.183,-0.244,-1.282,-174.655,-46.055,114.159
12156,0.7275,-0.0693,-0.6978,-0.244,-0.244,-1.282,-174.666,-46.055,114.175
12166,0.7256,-0.0688,-0.6973,-0.183,-0.183,-1.160,-174.677,-46.055,114.192
12176,0.7251,-0.0693,-0.6958,0.000,-0.061,-0.916,-174.683,-46.055,114.208
12186,0.7266,-0.0708,-0.6953,0.305,0.122,-0.732,-174.683,-46.055,114.219
12196,0.7261,-0.0698,-0.6963,0.610,0.305,-0.488,-174.677,-46.060,114.225
12206,0.7266,-0.0728,-0.6997,0.793,0.427,-0.366,-174.666,-46.060,114.230
12216,0.7295,-0.0708,-0.6982,0.732,0.488,-0.244,-174.655,-46.066,114.230
12226,0.7275,-0.0713,-0.6997,0.549,0.549,-0.244,-174.650,-46.071,114.236
12237,0.7285,-0.0708,-0.6992,0.244,0.366,-0.305,-174.644,-46.077,114.236
12247,0.7280,-0.0703,-0.6992,0.000,0.244,-0.244,-174.644,-46.077,114.241
12257,0.7271,-0.0688,-0.7007,-0.122,0.061,-0.183,-174.644,-46.077,114.241
12267,0.7275,-0.0684,-0.6992,-0.061,-0.061,-0.061,-174.644,-46.077,114.247
12277,0.7275,-0.0659,-0.7002,0.122,-0.122,0.061,-174.639,-46.071,114.241
12287,0.7266,-0.0654,-0.6973,0.305,-0.244,0.061,-174.639,-46.071,114.241
12297,0.7256,-0.0674,-0.6997,0.366,-0.183,0.061,-174.633,-46.066,114.241
12307,0.7251,-0.0674,-0.6987,0.183,-0.183,0.000,-174.628,-46.066,114.241
12316,0.7256,-0.0664,-0.6953,0.061,0.000,0.000,-174.628,-46.066,114.241
12327,0.7275,-0.0659,-0.6973,-0.061,0.183,-0.061,-174.628,-46.066,114.241
12337,0.7285,-0.0659,-0.7007,0.000,0.305,-0.122,-174.628,-46.071,114.247
12347,0.7285,-0.0684,-0.6978,0.183,0.366,-0.122,-174.628,-46.071,114.247
12357,0.7310,-0.0674,-0.6968,0.305,0.305,-0.183,-174.622,-46.077,114.247
12367,0.7300,-0.0684,-0.6982,0.366,0.122,-0.122,-174.617,-46.082,114.252
12377,0.7305,-0.0688,-0.6973,0.244,0.000,-0.183,-174.617,-46.082,114.252
12387,0.7305,-0.0664,-0.6958,0.183,-0.061,-0.183,-174.611,-46.082,114.252
12397,0.7280,-0.0679,-0.6938,0.183,-0.122,-0.183,-174.611,-46.082,114.258
12407,0.7256,-0.0659,-0.6953,0.244,-0.122,-0.183,-174.611,-46.082,114.263
12417,0.7256,-0.0659,-0.6968,0.305,-0.061,-0.244,-174.611,-46.082,114.263
12427,0.7251,-0.0659,-0.6963,0.305,0.061,-0.305,-174.611,-46.082,114.269
12437,0.7280,-0.0640,-0.6982,0.305,0.244,-0.366,-174.611,-46.088,114.274
12447,0.7275,-0.0645,-0.6978,0.244,0.366,-0.366,-174.617,-46.088,114.280
12457,0.7266,-0.0659,-0.6997,0.244,0.488,-0.488,-174.617,-46.093,114.285
12467,0.7280,-0.0669,-0.6973,0.244,0.427,-0.610,-174.617,-46.099,114.291
12477,0.7280,-0.0645,-0.6987,0.122,0.366,-0.671,-174.628,-46.104,114.302
12487,0.7271,-0.0649,-0.7002,0.183,0.122,-0.671,-174.633,-46.104,114.313
12497,0.7266,-0.0654,-0.6978,0.366,0.000,-0.671,-174.633,-46.104,114.318
12507,0.7266,-0.0684,-0.6963,0.610,-0.061,-0.671,-174.633,-46.104,114.329
12517,0.7261,-0.0664,-0.6958,0.977,-0.366,-0.732,-174.628,-46.099,114.340
12527,0.7261,-0.0684,-0.6973,0.427,-0.183,-0.732,-174.633,-46.099,114.351
12537,0.7246,-0.0698,-0.6963,0.122,0.000,-0.671,-174.633,-46.099,114.362
12547,0.7266,-0.0718,-0.6929,-0.061,0.061,-0.671,-174.633,-46.099,114.373
12557,0.7280,-0.0737,-0.6968,-0.244,0.061,-0.610,-174.639,-46.104,114.379
12567,0.7285,-0.0752,-0.6987,-0.183,0.000,-0.488,-174.639,-46.099,114.390
12577,0.7310,-0.0752,-0.6982,-0.061,0.061,-0.305,-174.633,-46.104,114.390
12587,0.7314,-0.0757,-0.6958,-0.061,0.000,-0.061,-174.622,-46.104,114.395
12597,0.7300,-0.0723,-0.6958,-0.122,0.183,0.244,-174.617,-46.110,114.390
12607,0.7275,-0.0723,-0.6963,-0.305,0.244,0.366,-174.611,-46.110,114.384
12617,0.7261,-0.0698,-0.6953,-0.366,0.305,0.549,-174.606,-46.110,114.373
12627,0.7261,-0.0679,-0.6973,-0.183,0.305,0.671,-174.600,-46.115,114.362
12637,0.7256,-0.0645,-0.7002,-0.061,0.305,0.732,-174.595,-46.115,114.351
12647,0.7271,-0.0620,-0.7002,0.183,0.305,0.732,-174.584,-46.115,114.340
12657,0.7275,-0.0645,-0.7002,0.366,0.244,0.610,-174.578,-46.115,114.335
12667,0.7275,-0.0669,-0.6978,0.366,0.183,0.488,-174.567,-46.115,114.329
12677,0.7271,-0.0659,-0.6987,0.183,0.061,0.244,-174.562,-46.115,114.324
12687,0.7285,-0.0674,-0.7002,-0.122,-0.122,0.000,-174.567,-46.115,114.324
12697,0.7300,-0.0664,-0.7002,-0.366,-0.244,-0.183,-174.573,-46.110,114.324
12707,0.7290,-0.0664,-0.6978,-0.366,-0.366,-0.244,-174.578,-46.110,114.329
12717,0.7300,-0.0664,-0.6973,-0.305,-0.244,-0.305,-174.584,-46.104,114.335
12727,0.7285,-0.0679,-0.6958,-0.244,-0.305,-0.305,-174.589,-46.104,114.340
12737,0.7275,-0.0703,-0.6943,-0.244,-0.305,-0.305,-174.589,-46.104,114.346
12747,0.7275,-0.0688,-0.6924,-0.183,-0.183,-0.183,-174.589,-46.104,114.346
12757,0.7271,-0.0679,-0.6929,-0.122,0.000,-0.122,-174.589,-46.104,114.351
12767,0.7280,-0.0664,-0.6948,0.061,0.244,0.061,-174.589,-46.110,114.346
12777,0.7271,-0.0703,-0.6973,0.366,0.427,0.183,-174.578,-46.110,114.346
12787,0.7280,-0.0708,-0.6968,0.488,0.549,0.244,-174.567,-46.115,114.340
12797,0.7300,-0.0684,-0.6987,0.427,0.549,0.244,-174.562,-46.121,114.335
12807,0.7280,-0.0674,-0.6992,0.366,0.366,0.183,-174.551,-46.126,114.335
12817,0.7285,-0.0669,-0.6987,0.366,0.244,0.122,-174.545,-46.126,114.329
12827,0.7275,-0.0649,-0.6973,0.366,0.061,-0.061,-174.545,-46.126,114.329
12837,0.7285,-0.0640,-0.6973,0.366,-0.122,-0.183,-174.545,-46.126,114.335
12847,0.7256,-0.0640,-0.6973,0.488,-0.305,-0.366,-174.545,-46.121,114.340
12857,0.7236,-0.0635,-0.7002,0.488,-0.366,-0.488,-174.551,-46.115,114.346
12867,0.7231,-0.0635,-0.6997,0.488,-0.183,-0.671,-174.556,-46.115,114.357
12877,0.7251,-0.0654,-0.6968,0.488,0.000,-0.671,-174.556,-46.115,114.368
12887,0.7256,-0.0664,-0.6973,0.549,0.122,-0.793,-174.562,-46.115,114.379
12897,0.7271,-0.0708,-0.6982,0.488,0.183,-0.977,-174.562,-46.115,114.390
12907,0.7290,-0.0718,-0.6968,0.183,0.183,-1.099,-174.567,-46.121,114.406
12917,0.7271,-0.0742,-0.6997,-0.305,0.122,-1.160,-174.578,-46.121,114.423
12927,0.7290,-0.0737,-0.6992,-0.671,-0.061,-1.099,-174.589,-46.121,114.439
12937,0.7290,-0.0713,-0.6982,-0.916,-0.122,-0.916,-174.600,-46.121,114.456
12947,0.7285,-0.0742,-0.6982,-0.793,-0.183,-0.732,-174.611,-46.115,114.467
12957,0.7305,-0.0718,-0.6934,-0.488,-0.244,-0.488,-174.617,-46.115,114.472
12967,0.7300,-0.0728,-0.6924,-0.122,-0.305,-0.244,-174.611,-46.115,114.478
12977,0.7290,-0.0737,-0.6953,0.061,-0.305,0.122,-174.606,-46.115,114.472
12987,0.7275,-0.0747,-0.6948,0.183,-0.183,0.366,-174.595,-46.115,114.467
12997,0.7285,-0.0703,-0.6968,0.244,0.000,0.549,-174.584,-46.115,114.461
13007,0.7280,-0.0703,-0.6963,0.305,0.183,0.671,-174.567,-46.115,114.450
13017,0.7285,-0.0669,-0.6963,0.366,0.366,0.732,-174.556,-46.121,114.439
13028,0.7305,-0.0649,-0.6973,0.427,0.488,0.732,-174.545,-46.121,114.428
13037,0.7280,-0.0620,-0.6992,0.427,0.488,0.671,-174.534,-46.126,114.417
13047,0.7266,-0.0605,-0.6992,0.366,0.366,0.488,-174.534,-46.126,114.412
13057,0.7285,-0.0615,-0.6997,0.183,0.305,0.183,-174.534,-46.132,114.406
13067,0.7271,-0.0630,-0.7007,-0.061,0.183,-0.183,-174.540,-46.132,114.412
13077,0.7256,-0.0620,-0.6987,-0.366,0.000,-0.610,-174.551,-46.132,114.417
13087,0.7261,-0.0630,-0.6963,-0.549,-0.122,-0.916,-174.573,-46.132,114.434
13097,0.7256,-0.0630,-0.6968,-0.549,-0.244,-1.221,-174.589,-46.126,114.450
13107,0.7280,-0.0659,-0.6963,-0.488,-0.305,-1.282,-174.611,-46.126,114.472
13117,0.7280,-0.0684,-0.6948,-0.366,-0.305,-1.343,-174.622,-46.126,114.489
13127,0.7271,-0.0684,-0.6968,-0.183,-0.183,-1.343,-174.639,-46.126,114.510
13137,0.7271,-0.0684,-0.6973,0.000,0.000,-1.221,-174.650,-46.126,114.527
13147,0.7266,-0.0698,-0.6953,0.183,0.122,-1.221,-174.655,-46.126,114.543
13157,0.7271,-0.0698,-0.6934,0.244,0.305,-1.099,-174.661,-46.132,114.560
13167,0.7275,-0.0698,-0.6958,0.183,0.427,-1.099,-174.666,-46.137,114.576
13177,0.7271,-0.0698,-0.6963,0.122,0.427,-1.038,-174.672,-46.143,114.587
13187,0.7275,-0.0684,-0.6973,0.061,0.366,-0.977,-174.677,-46.148,114.604
13197,0.7280,-0.0679,-0.6978,0.061,0.305,-0.854,-174.683,-46.148,114.615
13207,0.7271,-0.0688,-0.6973,0.000,0.122,-0.854,-174.688,-46.154,114.626
13217,0.7266,-0.0703,-0.6992,-0.122,0.061,-0.793,-174.694,-46.148,114.637
13227,0.7261,-0.0693,-0.6987,-0.305,-0.061,-0.854,-174.699,-46.148,114.648
13237,0.7285,-0.0698,-0.6968,-0.610,-0.122,-0.732,-174.710,-46.148,114.659
13247,0.7285,-0.0674,-0.6958,-0.732,-0.122,-0.610,-174.721,-46.148,114.670
13257,0.7290,-0.0654,-0.6943,-0.671,-0.122,-0.488,-174.732,-46.148,114.675
13267,0.7285,-0.0645,-0.6963,-0.305,0.000,-0.305,-174.738,-46.148,114.681
13277,0.7261,-0.0664,-0.6963,0.061,0.122,-0.122,-174.738,-46.148,114.681
13287,0.7271,-0.0649,-0.6948,0.366,0.244,-0.061,-174.732,-46.154,114.681
13297,0.7280,-0.0664,-0.6958,0.488,0.366,-0.061,-174.727,-46.159,114.681
13307,0.7261,-0.0669,-0.6978,0.305,0.427,-0.183,-174.721,-46.159,114.686
13317,0.7290,-0.0645,-0.6963,0.000,0.427,-0.305,-174.727,-46.165,114.692
13327,0.7285,-0.0654,-0.6992,-0.244,0.427,-0.488,-174.732,-46.170,114.697
13337,0.7290,-0.0630,-0.6982,-0.488,0.305,-0.671,-174.743,-46.170,114.703
13347,0.7280,-0.0649,-0.6987,-0.427,0.183,-0.671,-174.754,-46.176,114.714
13357,0.7290,-0.0659,-0.6973,-0.366,0.000,-0.610,-174.765,-46.176,114.725
13367,0.7285,-0.0664,-0.6973,-0.183,-0.061,-0.549,-174.771,-46.176,114.730
13377,0.7280,-0.0654,-0.6953,-0.122,-0.183,-0.549,-174.776,-46.170,114.741
13387,0.7271,-0.0684,-0.6943,-0.061,-0.122,-0.488,-174.776,-46.170,114.747
13397,0.7266,-0.0684,-0.6968,-0.122,0.000,-0.488,-174.776,-46.170,114.752
13407,0.7275,-0.0693,-0.6958,-0.244,0.122,-0.427,-174.781,-46.170,114.758
13417,0.7280,-0.0669,-0.6958,-0.244,0.244,-0.427,-174.781,-46.176,114.763
13427,0.7280,-0.0635,-0.6943,-0.183,0.366,-0.305,-174.787,-46.181,114.769
13437,0.7295,-0.0630,-0.6968,0.122,0.305,-0.122,-174.787,-46.181,114.769
13447,0.7310,-0.0635,-0.6973,0.427,0.366,-0.061,-174.781,-46.187,114.769
13457,0.7324,-0.0630,-0.6968,0.610,0.366,-0.061,-174.781,-46.192,114.769
13467,0.7295,-0.0630,-0.6997,0.732,0.305,-0.183,-174.776,-46.198,114.774
13477,0.7295,-0.0635,-0.6968,0.671,0.244,-0.366,-174.771,-46.198,114.780
13487,0.7295,-0.0615,-0.6968,0.488,0.244,-0.671,-174.776,-46.203,114.791
13497,0.7290,-0.0596,-0.6968,0.244,0.244,-0.916,-174.787,-46.203,114.802
13507,0.7285,-0.0581,-0.6982,0.183,0.244,-1.038,-174.798,-46.208,114.818
13517,0.7280,-0.0605,-0.6958,0.244,0.122,-1.160,-174.809,-46.208,114.835
13528,0.7266,-0.0630,-0.6958,0.427,0.122,-1.343,-174.820,-46.208,114.851
13537,0.7285,-0.0659,-0.6938,0.427,-0.061,-1.404,-174.825,-46.214,114.873
13547,0.7300,-0.0679,-0.6963,0.244,-0.183,-1.465,-174.836,-46.214,114.895
13557,0.7319,-0.0698,-0.6973,-0.061,-0.244,-1.526,-174.847,-46.208,114.917
13567,0.7314,-0.0693,-0.6973,-0.305,-0.122,-1.404,-174.858,-46.208,114.933
13577,0.7305,-0.0693,-0.6963,-0.427,0.000,-1.282,-174.869,-46.214,114.955
13587,0.7271,-0.0718,-0.6948,-0.366,0.183,-1.099,-174.880,-46.214,114.972
13597,0.7256,-0.0698,-0.6968,-0.244,0.305,-0.793,-174.880,-46.219,114.983
13607,0.7261,-0.0659,-0.6958,0.000,0.366,-0.488,-174.886,-46.219,114.988
13617,0.7280,-0.0635,-0.6968,0.244,0.427,-0.183,-174.880,-46.225,114.988
13627,0.7271,-0.0649,-0.6982,0.610,0.488,-0.061,-174.875,-46.225,114.988
13637,0.7271,-0.0649,-0.6978,0.793,0.488,-0.061,-174.864,-46.230,114.988
13647,0.7261,-0.0635,-0.7007,0.732,0.366,-0.183,-174.858,-46.230,114.994
13657,0.7285,-0.0640,-0.6968,0.610,0.122,-0.366,-174.853,-46.230,114.999
13667,0.7290,-0.0659,-0.6982,0.305,0.000,-0.549,-174.853,-46.230,115.005
13677,0.7300,-0.0640,-0.6997,0.122,-0.122,-0.732,-174.858,-46.230,115.016
13687,0.7305,-0.0630,-0.6953,0.000,-0.244,-0.793,-174.869,-46.230,115.027
13697,0.7275,-0.0630,-0.6938,-0.183,-0.366,-0.793,-174.880,-46.225,115.038
13707,0.7285,-0.0649,-0.6938,-0.244,-0.366,-0.793,-174.886,-46.225,115.049
13717,0.7295,-0.0645,-0.6953,-0.244,-0.305,-0.671,-174.897,-46.219,115.060
13727,0.7285,-0.0654,-0.6963,-0.244,-0.183,-0.671,-174.902,-46.219,115.071
13737,0.7285,-0.0659,-0.6934,-0.244,0.061,-0.610,-174.908,-46.219,115.082
13747,0.7275,-0.0669,-0.6958,-0.244,0.305,-0.488,-174.908,-46.225,115.087
13757,0.7285,-0.0674,-0.6958,-0.305,0.427,-0.427,-174.913,-46.230,115.093
13767,0.7295,-0.0664,-0.6958,-0.183,0.488,-0.305,-174.913,-46.230,115.098
13777,0.7285,-0.0669,-0.6948,0.122,0.488,-0.061,-174.908,-46.236,115.098
13787,0.7290,-0.0654,-0.6953,0.427,0.366,0.061,-174.902,-46.241,115.093
13797,0.7275,-0.0659,-0.6978,0.671,0.244,0.122,-174.891,-46.241,115.093
13807,0.7295,-0.0669,-0.6978,0.732,0.061,0.183,-174.875,-46.241,115.087
13817,0.7285,-0.0649,-0.6968,0.610,-0.122,0.183,-174.869,-46.241,115.087
13828,0.7285,-0.0635,-0.6953,0.366,-0.305,0.061,-174.864,-46.236,115.087
13837,0.7275,-0.0645,-0.6963,0.122,-0.305,0.000,-174.858,-46.230,115.087
13847,0.7261,-0.0620,-0.6953,0.061,-0.244,0.000,-174.858,-46.230,115.087
13858,0.7261,-0.0645,-0.6948,0.061,-0.122,-0.061,-174.858,-46.230,115.087
13867,0.7271,-0.0659,-0.6953,0.122,0.000,-0.183,-174.858,-46.225,115.093
13878,0.7285,-0.0654,-0.6968,0.122,0.061,-0.183,-174.853,-46.225,115.093
13888,0.7300,-0.0674,-0.6953,-0.061,0.061,-0.183,-174.853,-46.230,115.098
13898,0.7305,-0.0669,-0.6973,-0.183,0.122,-0.183,-174.853,-46.230,115.098
13908,0.7275,-0.0659,-0.6982,-0.244,0.061,-0.183,-174.853,-46.230,115.104
13918,0.7280,-0.0669,-0.6973,-0.122,0.000,-0.061,-174.853,-46.230,115.104
13928,0.7280,-0.0659,-0.6978,0.000,-0.061,0.061,-174.847,-46.225,115.104
13938,0.7285,-0.0679,-0.6963,0.061,-0.061,0.244,-174.842,-46.225,115.098
13948,0.7266,-0.0679,-0.6958,0.183,-0.061,0.305,-174.836,-46.225,115.093
13958,0.7290,-0.0664,-0.6953,0.183,-0.061,0.366,-174.825,-46.219,115.087
13968,0.7300,-0.0664,-0.6948,0.183,0.000,0.427,-174.814,-46.225,115.082
13978,0.7290,-0.0669,-0.6973,0.183,0.061,0.488,-174.809,-46.219,115.076
13988,0.7280,-0.0649,-0.6973,0.122,0.183,0.427,-174.798,-46.225,115.071
13998,0.7275,-0.0645,-0.7002,0.000,0.183,0.366,-174.792,-46.219,115.065
14008,0.7275,-0.0649,-0.6987,-0.122,0.122,0.305,-174.792,-46.219,115.060
14018,0.7290,-0.0615,-0.6997,-0.183,0.000,0.305,-174.792,-46.219,115.054
14028,0.7285,-0.0630,-0.6953,-0.122,0.000,0.305,-174.792,-46.219,115.049
14038,0.7280,-0.0640,-0.6953,0.000,-0.061,0.305,-174.787,-46.219,115.043
14048,0.7285,-0.0654,-0.6943,0.122,-0.122,0.366,-174.781,-46.214,115.038
14058,0.7280,-0.0640,-0.6963,0.183,-0.122,0.305,-174.776,-46.214,115.038
14068,0.7305,-0.0645,-0.6968,0.122,-0.122,0.305,-174.771,-46.214,115.032
14078,0.7285,-0.0649,-0.6948,0.061,0.000,0.183,-174.765,-46.214,115.027
14088,0.7295,-0.0659,-0.6968,0.000,0.122,0.061,-174.765,-46.214,115.027
14098,0.7305,-0.0654,-0.7002,0.000,0.122,-0.061,-174.765,-46.214,115.027
14108,0.7305,-0.0649,-0.7017,-0.061,0.122,-0.183,-174.765,-46.214,115.032
14118,0.7295,-0.0649,-0.6973,-0.061,0.061,-0.183,-174.765,-46.214,115.032
14128,0.7280,-0.0640,-0.6963,-0.061,0.000,-0.244,-174.771,-46.214,115.038
14138,0.7280,-0.0635,-0.6958,0.000,0.061,-0.244,-174.771,-46.214,115.043
14148,0.7275,-0.0659,-0.6963,0.122,0.061,-0.244,-174.771,-46.214,115.043
14158,0.7285,-0.0640,-0.6973,0.244,0.122,-0.183,-174.771,-46.214,115.049
14168,0.7285,-0.0654,-0.6963,0.366,0.122,-0.183,-174.771,-46.219,115.049
14178,0.7271,-0.0669,-0.6973,0.366,0.122,-0.244,-174.765,-46.219,115.054
14188,0.7275,-0.0669,-0.6982,0.366,0.122,-0.305,-174.760,-46.219,115.054
14198,0.7295,-0.0669,-0.6973,0.305,0.122,-0.366,-174.760,-46.219,115.060
14208,0.7280,-0.0688,-0.6992,0.183,0.122,-0.427,-174.760,-46.219,115.071
14218,0.7271,-0.0688,-0.6978,0.061,0.061,-0.427,-174.760,-46.219,115.076
14228,0.7275,-0.0664,-0.6963,0.000,0.000,-0.427,-174.760,-46.214,115.082
14238,0.7290,-0.0649,-0.6958,0.000,0.000,-0.305,-174.760,-46.219,115.087
14248,0.7280,-0.0635,-0.6963,0.061,0.061,-0.244,-174.765,-46.219,115.087
14258,0.7290,-0.0649,-0.6973,0.183,0.000,-0.183,-174.765,-46.214,115.093
14268,0.7285,-0.0674,-0.6938,0.366,0.000,-0.183,-174.760,-46.219,115.093
14278,0.7295,-0.0664,-0.6943,0.366,0.000,-0.183,-174.754,-46.219,115.098
14288,0.7280,-0.0708,-0.6963,0.244,-0.061,-0.244,-174.749,-46.219,115.098
14298,0.7275,-0.0684,-0.6943,0.000,0.061,-0.244,-174.749,-46.219,115.104
14308,0.7271,-0.0693,-0.6973,-0.183,0.122,-0.305,-174.749,-46.219,115.109
14318,0.7275,-0.0664,-0.6948,-0.366,0.244,-0.244,-174.754,-46.219,115.109
14328,0.7256,-0.0635,-0.6963,-0.244,0.366,-0.183,-174.754,-46.225,115.115
14338,0.7271,-0.0586,-0.6948,0.061,0.366,-0.061,-174.760,-46.225,115.115
14348,0.7295,-0.0581,-0.6953,0.610,0.366,0.061,-174.760,-46.230,115.109
14358,0.7305,-0.0596,-0.6982,1.160,0.244,0.061,-174.749,-46.230,115.109
14368,0.7305,-0.0625,-0.6987,1.526,0.183,-0.122,-174.738,-46.236,115.109
14378,0.7305,-0.0630,-0.6963,1.282,0.061,-0.427,-174.727,-46.236,115.120
14388,0.7300,-0.0645,-0.6958,0.793,0.122,-0.732,-174.727,-46.236,115.126
14398,0.7261,-0.0649,-0.6968,0.183,0.122,-1.038,-174.738,-46.236,115.142
14408,0.7275,-0.0649,-0.6958,-0.366,0.183,-1.282,-174.754,-46.241,115.159
14418,0.7266,-0.0649,-0.6963,-0.549,0.122,-1.282,-174.771,-46.241,115.181
14428,0.7285,-0.0664,-0.6958,-0.305,0.122,-1.099,-174.781,-46.241,115.197
14438,0.7300,-0.0713,-0.6938,0.122,0.061,-0.732,-174.781,-46.247,115.208
14448,0.7339,-0.0752,-0.6943,0.488,-0.122,-0.488,-174.771,-46.247,115.214
14458,0.7334,-0.0786,-0.6953,0.427,-0.244,-0.244,-174.760,-46.247,115.219
14468,0.7334,-0.0806,-0.6978,0.183,-0.305,0.000,-174.743,-46.241,115.219
14478,0.7305,-0.0806,-0.6963,-0.122,-0.244,0.305,-174.727,-46.236,115.214
14488,0.7310,-0.0762,-0.6973,-0.244,-0.061,0.610,-174.716,-46.236,115.203
14498,0.7290,-0.0713,-0.6943,-0.122,0.061,0.977,-174.699,-46.236,115.192
14508,0.7266,-0.0693,-0.6938,0.183,0.244,1.282,-174.683,-46.236,115.170
14518,0.7275,-0.0649,-0.6929,0.488,0.305,1.465,-174.661,-46.241,115.148
14529,0.7285,-0.0605,-0.6953,0.732,0.305,1.526,-174.639,-46.241,115.126
14538,0.7285,-0.0576,-0.6978,0.732,0.244,1.526,-174.622,-46.241,115.104
14548,0.7271,-0.0547,-0.6973,0.793,0.244,1.160,-174.611,-46.241,115.087
14558,0.7280,-0.0542,-0.6982,0.610,0.122,0.610,-174.611,-46.241,115.082
14568,0.7275,-0.0571,-0.6973,0.244,-0.061,0.000,-174.617,-46.241,115.082
14578,0.7285,-0.0591,-0.6992,-0.305,-0.244,-0.549,-174.628,-46.236,115.087
14588,0.7280,-0.0605,-0.6992,-0.793,-0.427,-1.038,-174.655,-46.230,115.104
14598,0.7290,-0.0625,-0.6953,-1.099,-0.549,-1.404,-174.683,-46.225,115.126
14608,0.7290,-0.0640,-0.6943,-1.160,-0.488,-1.526,-174.710,-46.225,115.148
14618,0.7295,-0.0669,-0.6953,-1.099,-0.488,-1.526,-174.732,-46.219,115.170
14628,0.7271,-0.0703,-0.6978,-0.854,-0.366,-1.404,-174.754,-46.219,115.192
14638,0.7305,-0.0698,-0.6948,-0.488,-0.305,-1.160,-174.765,-46.214,115.208
14648,0.7295,-0.0728,-0.6953,-0.305,-0.122,-0.916,-174.771,-46.214,115.219
14658,0.7295,-0.0732,-0.6968,0.000,0.122,-0.671,-174.771,-46.219,115.230
14668,0.7280,-0.0737,-0.6968,0.244,0.427,-0.366,-174.760,-46.219,115.236
14678,0.7271,-0.0728,-0.6953,0.366,0.549,0.000,-174.749,-46.225,115.236
14688,0.7280,-0.0708,-0.6973,0.549,0.671,0.244,-174.738,-46.230,115.230
14698,0.7280,-0.0693,-0.6982,0.549,0.549,0.488,-174.721,-46.236,115.225
14708,0.7280,-0.0688,-0.6992,0.549,0.366,0.610,-174.705,-46.236,115.214
14718,0.7290,-0.0679,-0.6978,0.427,0.122,0.549,-174.694,-46.236,115.203
14728,0.7271,-0.0674,-0.6997,0.305,-0.122,0.488,-174.683,-46.230,115.197
14738,0.7280,-0.0679,-0.6987,0.000,-0.366,0.366,-174.677,-46.225,115.192
14748,0.7261,-0.0659,-0.6968,-0.366,-0.549,0.244,-174.677,-46.214,115.192
14758,0.7256,-0.0630,-0.6938,-0.549,-0.549,0.183,-174.683,-46.208,115.186
14768,0.7275,-0.0635,-0.6943,-0.427,-0.488,0.122,-174.688,-46.208,115.186
14778,0.7285,-0.0640,-0.6934,-0.183,-0.183,0.061,-174.688,-46.203,115.186
14788,0.7285,-0.0659,-0.6938,0.061,0.000,0.000,-174.688,-46.208,115.186
14798,0.7246,-0.0659,-0.6953,0.061,0.244,0.000,-174.683,-46.208,115.186
14808,0.7271,-0.0669,-0.6973,-0.061,0.366,-0.061,-174.683,-46.208,115.186
14818,0.7285,-0.0669,-0.6978,-0.183,0.366,-0.122,-174.688,-46.214,115.186
14828,0.7275,-0.0708,-0.6987,-0.122,0.427,-0.122,-174.683,-46.214,115.192
14838,0.7271,-0.0693,-0.6978,-0.122,0.366,-0.061,-174.683,-46.214,115.192
14848,0.7290,-0.0713,-0.6982,-0.183,0.183,0.061,-174.677,-46.219,115.186
14858,0.7295,-0.0723,-0.6987,-0.305,-0.122,0.122,-174.672,-46.214,115.186
14868,0.7300,-0.0718,-0.6968,-0.488,-0.305,0.183,-174.672,-46.214,115.186
14878,0.7295,-0.0703,-0.6973,-0.549,-0.427,0.305,-174.666,-46.208,115.181
14888,0.7290,-0.0708,-0.6978,-0.549,-0.366,0.427,-174.666,-46.203,115.175
14898,0.7280,-0.0698,-0.6934,-0.488,-0.305,0.488,-174.661,-46.198,115.170
14908,0.7290,-0.0693,-0.6948,-0.305,-0.122,0.671,-174.655,-46.198,115.159
14918,0.7271,-0.0664,-0.6963,-0.122,0.122,0.793,-174.644,-46.198,115.148
14928,0.7271,-0.0659,-0.6968,0.061,0.366,0.793,-174.639,-46.198,115.137
14938,0.7271,-0.0620,-0.6968,0.122,0.488,0.732,-174.628,-46.203,115.126
14948,0.7300,-0.0620,-0.6987,0.183,0.549,0.610,-174.622,-46.208,115.115
14958,0.7300,-0.0620,-0.6992,0.183,0.488,0.366,-174.622,-46.208,115.109
14968,0.7295,-0.0620,-0.6997,0.122,0.366,0.122,-174.622,-46.214,115.104
14978,0.7295,-0.0620,-0.6968,-0.061,0.122,-0.244,-174.628,-46.214,115.109
14988,0.7295,-0.0649,-0.6978,-0.366,-0.061,-0.549,-174.639,-46.214,115.120
14998,0.7305,-0.0654,-0.6978,-0.610,-0.244,-0.793,-174.650,-46.214,115.131
15008,0.7300,-0.0654,-0.6953,-0.732,-0.366,-0.977,-174.672,-46.208,115.142
15018,0.7280,-0.0669,-0.6948,-0.610,-0.427,-1.038,-174.683,-46.208,115.159
15029,0.7300,-0.0688,-0.6953,-0.427,-0.427,-0.916,-174.694,-46.203,115.175
15038,0.7275,-0.0693,-0.6943,-0.183,-0.244,-0.793,-174.699,-46.203,115.186
15048,0.7271,-0.0708,-0.6924,0.000,-0.061,-0.671,-174.705,-46.203,115.197
15058,0.7271,-0.0728,-0.6948,0.122,0.183,-0.427,-174.699,-46.203,115.203
15068,0.7275,-0.0737,-0.6958,0.244,0.366,-0.244,-174.694,-46.208,115.203
15078,0.7295,-0.0728,-0.6963,0.244,0.488,-0.122,-174.683,-46.214,115.203
15088,0.7300,-0.0718,-0.6978,0.244,0.549,0.000,-174.677,-46.219,115.203
15098,0.7295,-0.0703,-0.6948,0.000,0.427,0.061,-174.666,-46.219,115.203
15108,0.7314,-0.0703,-0.6973,-0.183,0.244,0.183,-174.666,-46.225,115.197
15118,0.7305,-0.0693,-0.6973,-0.244,-0.061,0.244,-174.661,-46.225,115.197
15128,0.7295,-0.0679,-0.6982,-0.183,-0.305,0.305,-174.655,-46.219,115.192
15138,0.7295,-0.0688,-0.6953,-0.122,-0.488,0.366,-174.650,-46.214,115.186
15148,0.7280,-0.0679,-0.6938,-0.061,-0.549,0.427,-174.644,-46.208,115.181
15158,0.7271,-0.0684,-0.6973,0.000,-0.488,0.427,-174.639,-46.203,115.175
15168,0.7271,-0.0664,-0.6919,0.000,-0.305,0.427,-174.633,-46.198,115.170
15178,0.7271,-0.0635,-0.6943,0.061,-0.061,0.366,-174.633,-46.198,115.164
15188,0.7266,-0.0625,-0.6953,0.183,0.244,0.244,-174.628,-46.198,115.164
15198,0.7275,-0.0620,-0.6963,0.183,0.366,0.061,-174.628,-46.203,115.159
15208,0.7280,-0.0630,-0.6978,0.183,0.427,-0.122,-174.633,-46.208,115.164
15218,0.7295,-0.0645,-0.6978,0.061,0.366,-0.305,-174.633,-46.208,115.164
15228,0.7295,-0.0654,-0.6987,-0.061,0.183,-0.427,-174.639,-46.214,115.170
15238,0.7314,-0.0679,-0.6982,-0.183,0.061,-0.610,-174.644,-46.214,115.181
15248,0.7310,-0.0684,-0.6987,-0.244,-0.183,-0.671,-174.650,-46.208,115.192
15258,0.7305,-0.0708,-0.6958,-0.305,-0.305,-0.671,-174.655,-46.208,115.203
15268,0.7271,-0.0708,-0.6963,-0.427,-0.366,-0.671,-174.666,-46.203,115.208
15278,0.7261,-0.0713,-0.6943,-0.488,-0.366,-0.610,-174.672,-46.203,115.219
15288,0.7280,-0.0713,-0.6924,-0.427,-0.244,-0.427,-174.672,-46.203,115.225
15298,0.7285,-0.0718,-0.6929,-0.305,-0.061,-0.244,-174.672,-46.203,115.230
15308,0.7271,-0.0728,-0.6958,-0.122,0.122,-0.122,-174.672,-46.203,115.230
15318,0.7280,-0.0718,-0.6953,-0.061,0.244,0.000,-174.666,-46.203,115.230
15328,0.7295,-0.0698,-0.6934,0.000,0.305,0.183,-174.661,-46.208,115.230
15338,0.7310,-0.0664,-0.6943,0.183,0.366,0.366,-174.650,-46.214,115.225
15348,0.7280,-0.0654,-0.6978,0.366,0.305,0.427,-174.644,-46.214,115.214
15358,0.7271,-0.0654,-0.6987,0.549,0.244,0.366,-174.633,-46.214,115.208
15368,0.7280,-0.0645,-0.6958,0.366,0.061,0.000,-174.628,-46.214,115.208
15378,0.7280,-0.0635,-0.6973,0.122,-0.183,-0.122,-174.633,-46.214,115.214
15388,0.7280,-0.0649,-0.6968,-0.122,-0.244,-0.305,-174.639,-46.208,115.219
15398,0.7280,-0.0688,-0.6934,-0.366,-0.305,-0.488,-174.644,-46.208,115.225
15408,0.7295,-0.0698,-0.6934,-0.488,-0.427,-0.549,-174.650,-46.203,115.230
15418,0.7300,-0.0728,-0.6934,-0.610,-0.427,-0.549,-174.655,-46.203,115.241
15428,0.7295,-0.0708,-0.6938,-0.610,-0.366,-0.366,-174.661,-46.198,115.247
15439,0.7280,-0.0713,-0.6938,-0.549,-0.061,-0.183,-174.661,-46.198,115.252
15449,0.7275,-0.0708,-0.6963,-0.305,0.244,0.061,-174.661,-46.203,115.247
15459,0.7280,-0.0698,-0.6948,0.000,0.427,0.122,-174.655,-46.203,115.247
15469,0.7256,-0.0698,-0.6973,0.061,0.427,0.122,-174.650,-46.208,115.241
15479,0.7285,-0.0684,-0.6978,-0.061,0.488,0.183,-174.644,-46.208,115.241
15489,0.7280,-0.0654,-0.7007,-0.061,0.427,0.183,-174.644,-46.214,115.236
15499,0.7285,-0.0649,-0.7007,0.000,0.244,0.183,-174.639,-46.214,115.236
15509,0.7266,-0.0659,-0.6982,0.183,0.061,0.122,-174.639,-46.214,115.230
15519,0.7271,-0.0664,-0.7012,0.305,-0.244,0.000,-174.633,-46.208,115.230
15529,0.7280,-0.0659,-0.6992,0.244,-0.488,-0.122,-174.633,-46.198,115.236
15539,0.7295,-0.0679,-0.6968,0.061,-0.610,-0.366,-174.633,-46.192,115.241
15549,0.7305,-0.0669,-0.6958,-0.305,-0.549,-0.549,-174.644,-46.192,115.252
15559,0.7310,-0.0669,-0.6934,-0.488,-0.488,-0.732,-174.655,-46.187,115.263
15569,0.7310,-0.0679,-0.6938,-0.610,-0.305,-0.732,-174.666,-46.187,115.274
15579,0.7300,-0.0679,-0.6929,-0.610,-0.122,-0.732,-174.677,-46.187,115.285
15589,0.7271,-0.0693,-0.6924,-0.610,0.061,-0.671,-174.688,-46.192,115.291
15599,0.7271,-0.0718,-0.6924,-0.427,0.244,-0.488,-174.688,-46.192,115.302
15609,0.7256,-0.0718,-0.6943,-0.183,0.305,-0.244,-174.688,-46.198,115.302
15619,0.7280,-0.0718,-0.6968,0.061,0.366,0.000,-174.683,-46.198,115.302
15629,0.7310,-0.0728,-0.6943,0.244,0.427,0.122,-174.672,-46.203,115.302
15639,0.7290,-0.0728,-0.6973,0.183,0.366,0.122,-174.661,-46.208,115.296
15649,0.7300,-0.0708,-0.6978,0.000,0.183,0.122,-174.655,-46.208,115.296
15659,0.7295,-0.0708,-0.6992,-0.244,0.061,0.061,-174.650,-46.208,115.296
15669,0.7305,-0.0679,-0.6968,-0.427,-0.061,0.122,-174.650,-46.208,115.291
15679,0.7290,-0.0674,-0.6968,-0.366,-0.244,0.122,-174.655,-46.203,115.291
15689,0.7241,-0.0693,-0.6958,-0.122,-0.427,0.122,-174.650,-46.198,115.291
15699,0.7246,-0.0698,-0.6938,0.061,-0.427,0.061,-174.644,-46.192,115.291
15709,0.7236,-0.0698,-0.6943,-0.061,-0.305,0.122,-174.639,-46.187,115.291
15719,0.7261,-0.0693,-0.6943,-0.183,-0.061,0.244,-174.639,-46.187,115.285
15729,0.7275,-0.0688,-0.6973,-0.122,0.122,0.427,-174.633,-46.187,115.280
15739,0.7295,-0.0698,-0.6987,-0.061,0.305,0.366,-174.622,-46.187,115.274
15749,0.7290,-0.0698,-0.7002,-0.061,0.305,0.244,-174.617,-46.192,115.269
15759,0.7285,-0.0708,-0.7012,-0.122,0.244,0.122,-174.617,-46.192,115.269
15769,0.7285,-0.0688,-0.6978,-0.488,0.122,0.183,-174.617,-46.192,115.263
15779,0.7285,-0.0688,-0.6968,-0.732,-0.183,0.183,-174.617,-46.187,115.263
15789,0.7290,-0.0674,-0.6958,-0.793,-0.366,0.244,-174.622,-46.187,115.258
15799,0.7310,-0.0688,-0.6958,-0.610,-0.549,0.244,-174.622,-46.181,115.258
15809,0.7300,-0.0679,-0.6953,-0.305,-0.549,0.366,-174.622,-46.176,115.252
15819,0.7305,-0.0703,-0.6953,-0.183,-0.427,0.427,-174.617,-46.170,115.247
15829,0.7295,-0.0674,-0.6953,-0.122,-0.305,0.427,-174.611,-46.170,115.241
15839,0.7285,-0.0669,-0.6938,-0.183,-0.061,0.366,-174.606,-46.170,115.236
15849,0.7285,-0.0659,-0.6948,-0.183,0.183,0.305,-174.606,-46.170,115.230
15859,0.7271,-0.0674,-0.6958,-0.183,0.305,0.244,-174.600,-46.176,115.225
15869,0.7280,-0.0669,-0.6968,-0.122,0.366,0.183,-174.600,-46.176,115.225
15879,0.7300,-0.0659,-0.6978,-0.122,0.366,0.122,-174.600,-46.181,115.219
15889,0.7290,-0.0654,-0.6978,-0.061,0.244,0.061,-174.600,-46.181,115.219
15899,0.7271,-0.0659,-0.6992,0.000,0.122,-0.061,-174.600,-46.181,115.219
15909,0.7280,-0.0669,-0.6987,-0.061,0.061,-0.183,-174.600,-46.181,115.225
15919,0.7275,-0.0693,-0.6982,-0.122,-0.061,-0.305,-174.606,-46.181,115.225
15929,0.7280,-0.0664,-0.6987,-0.244,-0.061,-0.488,-174.611,-46.176,115.236
15939,0.7271,-0.0679,-0.6968,-0.366,-0.061,-0.610,-174.622,-46.176,115.241
15949,0.7290,-0.0708,-0.6958,-0.549,-0.061,-0.732,-174.628,-46.176,115.252
15959,0.7280,-0.0708,-0.6963,-0.549,-0.061,-0.793,-174.639,-46.176,115.263
15969,0.7290,-0.0698,-0.6953,-0.488,-0.061,-0.854,-174.650,-46.176,115.280
15979,0.7300,-0.0684,-0.6929,-0.366,-0.061,-0.793,-174.655,-46.181,115.291
15989,0.7300,-0.0693,-0.6924,-0.061,0.000,-0.671,-174.661,-46.181,115.302
15999,0.7305,-0.0703,-0.6943,0.183,-0.061,-0.488,-174.661,-46.181,115.307
16009,0.7295,-0.0698,-0.6958,0.244,0.000,-0.366,-174.655,-46.187,115.313
16019,0.7300,-0.0713,-0.6938,0.305,0.061,-0.305,-174.650,-46.187,115.313
16029,0.7314,-0.0718,-0.6943,0.244,0.061,-0.244,-174.644,-46.187,115.313
16039,0.7324,-0.0713,-0.6953,0.061,0.122,-0.244,-174.644,-46.192,115.313
16049,0.7310,-0.0703,-0.6968,-0.122,0.122,-0.366,-174.644,-46.192,115.313
16059,0.7300,-0.0688,-0.6958,-0.244,0.183,-0.366,-174.644,-46.198,115.313
16069,0.7305,-0.0688,-0.6978,-0.244,0.183,-0.366,-174.650,-46.198,115.313
16079,0.7285,-0.0684,-0.6958,-0.183,0.122,-0.244,-174.650,-46.198,115.313
16089,0.7280,-0.0669,-0.6958,0.000,0.061,-0.122,-174.650,-46.203,115.313
16099,0.7280,-0.0664,-0.6953,0.122,0.061,-0.061,-174.650,-46.203,115.313
16109,0.7266,-0.0679,-0.6987,0.183,0.000,-0.122,-174.644,-46.198,115.313
16119,0.7290,-0.0679,-0.7007,0.122,-0.061,-0.244,-174.644,-46.198,115.313
16129,0.7290,-0.0688,-0.6987,0.000,0.000,-0.366,-174.650,-46.198,115.313
16139,0.7280,-0.0684,-0.6982,-0.244,0.000,-0.610,-174.655,-46.198,115.313
16149,0.7280,-0.0688,-0.6982,-0.427,0.061,-0.671,-174.661,-46.198,115.313
16159,0.7275,-0.0679,-0.6987,-0.488,0.000,-0.671,-174.672,-46.192,115.313
16169,0.7275,-0.0679,-0.6963,-0.366,0.000,-0.610,-174.677,-46.192,115.313
16179,0.7290,-0.0684,-0.6958,-0.122,0.000,-0.488,-174.683,-46.198,115.313
16189,0.7305,-0.0693,-0.6963,0.183,0.061,-0.427,-174.683,-46.198,115.313
16199,0.7290,-0.0698,-0.6958,0.305,0.000,-0.366,-174.677,-46.198,115.313
16209,0.7280,-0.0708,-0.6953,0.122,-0.122,-0.427,-174.677,-46.198,115.313
16219,0.7285,-0.0679,-0.6982,-0.244,0.000,-0.549,-174.683,-46.198,115.313
16229,0.7290,-0.0693,-0.6958,-0.549,0.061,-0.610,-174.688,-46.198,115.313
16239,0.7271,-0.0659,-0.6973,-0.671,0.183,-0.671,-174.705,-46.198,115.313
16249,0.7266,-0.0640,-0.6953,-0.549,0.244,-0.671,-174.716,-46.203,115.313
