elapsed_ms,acc_x_g,acc_y_g,acc_z_g,gyro_x_dps,gyro_y_dps,gyro_z_dps,angle_x_deg,angle_y_deg,angle_z_deg
0,-0.2168,-0.3545,-0.8848,3.540,0.671,5.859,-156.874,12.261,-69.648
10,-0.2202,-0.3501,-0.8892,2.502,1.831,5.859,-156.879,12.272,-69.708
20,-0.2212,-0.3496,-0.8960,0.122,2.319,5.676,-156.912,12.283,-69.774
30,-0.2261,-0.3423,-0.9038,-0.793,3.235,4.639,-156.956,12.277,-69.829
40,-0.2363,-0.3369,-0.9067,-0.977,4.211,2.991,-157.000,12.266,-69.873
50,-0.2480,-0.3359,-0.9063,-0.244,4.028,1.099,-157.033,12.255,-69.901
60,-0.2534,-0.3477,-0.9072,1.099,3.967,-0.854,-157.044,12.239,-69.906
70,-0.2549,-0.3560,-0.9043,1.770,3.357,-2.502,-157.039,12.222,-69.901
80,-0.2534,-0.3662,-0.8994,2.502,1.892,-3.723,-157.017,12.217,-69.873
90,-0.2515,-0.3774,-0.8936,2.380,0.000,-4.395,-156.984,12.222,-69.829
100,-0.2515,-0.3882,-0.8872,1.282,-1.526,-4.883,-156.956,12.239,-69.780
110,-0.2480,-0.3926,-0.8843,-0.610,-2.563,-4.944,-156.940,12.266,-69.719
120,-0.2490,-0.4004,-0.8853,-2.747,-3.113,-4.395,-156.945,12.299,-69.664
130,-0.2500,-0.4048,-0.8838,-4.211,-2.991,-3.601,-156.962,12.332,-69.620
140,-0.2534,-0.4038,-0.8877,-5.615,-2.197,-2.502,-156.995,12.365,-69.587
150,-0.2524,-0.4048,-0.8848,-6.348,-0.916,-1.343,-157.039,12.393,-69.571
160,-0.2480,-0.4067,-0.8843,-6.226,0.610,-0.244,-157.083,12.404,-69.571
170,-0.2417,-0.4067,-0.8828,-5.859,2.014,0.854,-157.126,12.404,-69.587
180,-0.2329,-0.4014,-0.8853,-5.310,3.418,2.197,-157.170,12.393,-69.620
190,-0.2305,-0.3975,-0.8892,-4.700,5.066,3.723,-157.214,12.371,-69.681
200,-0.2246,-0.3955,-0.8926,-4.333,6.592,5.371,-157.264,12.332,-69.752
210,-0.2197,-0.3906,-0.8975,-4.150,7.568,6.714,-157.319,12.294,-69.846
220,-0.2134,-0.3872,-0.9053,-3.967,8.057,7.385,-157.374,12.250,-69.950
230,-0.2080,-0.3848,-0.9131,-3.784,7.935,7.568,-157.429,12.200,-70.054
240,-0.2080,-0.3779,-0.9189,-3.479,7.080,7.446,-157.489,12.162,-70.153
250,-0.2075,-0.3765,-0.9219,-2.625,5.859,6.958,-157.533,12.129,-70.241
260,-0.2056,-0.3730,-0.9248,-1.465,4.639,6.409,-157.571,12.107,-70.318
270,-0.2051,-0.3701,-0.9272,-0.183,3.845,5.859,-157.593,12.090,-70.389
280,-0.2046,-0.3701,-0.9258,1.404,3.357,5.676,-157.599,12.074,-70.455
290,-0.2041,-0.3682,-0.9258,2.808,2.869,5.676,-157.593,12.063,-70.521
300,-0.2031,-0.3687,-0.9272,4.089,2.136,5.615,-157.571,12.063,-70.582
310,-0.2036,-0.3667,-0.9214,4.944,1.343,5.493,-157.544,12.063,-70.637
321,-0.2051,-0.3667,-0.9209,5.615,0.549,5.432,-157.505,12.074,-70.692
330,-0.2090,-0.3623,-0.9180,5.554,-0.122,5.554,-157.473,12.096,-70.746
340,-0.2144,-0.3608,-0.9146,5.066,-0.427,5.615,-157.440,12.123,-70.796
350,-0.2178,-0.3604,-0.9121,4.822,-0.183,5.432,-157.412,12.151,-70.845
360,-0.2192,-0.3599,-0.9067,4.578,0.305,4.944,-157.390,12.173,-70.895
370,-0.2163,-0.3599,-0.9014,3.967,0.977,4.272,-157.368,12.184,-70.939
380,-0.2178,-0.3623,-0.8984,2.991,1.709,3.601,-157.352,12.184,-70.977
390,-0.2163,-0.3633,-0.8970,1.709,2.319,3.052,-157.346,12.178,-71.016
400,-0.2148,-0.3662,-0.8940,0.122,3.235,2.441,-157.357,12.162,-71.054
410,-0.2095,-0.3677,-0.8984,-2.136,4.150,1.892,-157.390,12.134,-71.087
420,-0.2095,-0.3657,-0.9092,-4.517,5.005,1.465,-157.451,12.090,-71.120
430,-0.2051,-0.3652,-0.9116,-5.493,6.287,1.099,-157.516,12.036,-71.153
440,-0.2051,-0.3643,-0.9189,-6.104,6.287,0.671,-157.593,11.981,-71.186
450,-0.2007,-0.3647,-0.9243,-5.676,5.859,0.183,-157.665,11.920,-71.213
460,-0.2007,-0.3633,-0.9307,-5.066,4.700,-0.061,-157.725,11.871,-71.230
470,-0.1963,-0.3652,-0.9321,-3.601,3.052,0.061,-157.775,11.838,-71.241
480,-0.1978,-0.3647,-0.9316,-2.014,0.916,0.183,-157.802,11.821,-71.246
490,-0.2031,-0.3643,-0.9312,-0.549,-0.671,0.244,-157.819,11.827,-71.246
500,-0.2041,-0.3682,-0.9272,1.038,-1.587,-0.061,-157.813,11.838,-71.241
510,-0.2046,-0.3711,-0.9224,2.197,-2.319,-0.610,-157.791,11.854,-71.224
520,-0.2065,-0.3760,-0.9150,2.686,-3.052,-0.916,-157.758,11.876,-71.202
530,-0.2075,-0.3789,-0.9121,2.808,-3.784,-1.099,-157.720,11.909,-71.180
540,-0.2114,-0.3804,-0.9097,2.625,-4.578,-0.916,-157.687,11.948,-71.153
550,-0.2119,-0.3813,-0.9043,2.502,-5.005,-0.671,-157.648,11.992,-71.125
560,-0.2148,-0.3804,-0.9048,2.563,-5.188,-0.366,-157.615,12.041,-71.104
570,-0.2178,-0.3809,-0.9033,2.747,-4.883,-0.183,-157.577,12.090,-71.082
580,-0.2192,-0.3809,-0.8999,2.747,-4.211,-0.122,-157.544,12.134,-71.065
590,-0.2183,-0.3823,-0.8960,2.747,-3.418,0.122,-157.505,12.173,-71.054
600,-0.2178,-0.3818,-0.8921,2.563,-2.686,0.366,-157.473,12.206,-71.043
610,-0.2178,-0.3843,-0.8921,2.197,-1.953,0.610,-157.445,12.228,-71.043
620,-0.2148,-0.3887,-0.8916,1.221,-1.465,0.854,-157.423,12.244,-71.049
630,-0.2173,-0.3867,-0.8940,-0.061,-1.282,1.038,-157.412,12.266,-71.049
640,-0.2153,-0.3838,-0.8950,-0.732,-0.977,1.221,-157.418,12.283,-71.060
650,-0.2168,-0.3809,-0.8989,-1.038,-0.610,1.465,-157.429,12.294,-71.071
660,-0.2192,-0.3770,-0.8965,-0.916,-0.244,1.526,-157.434,12.305,-71.082
670,-0.2178,-0.3770,-0.8975,-0.793,0.000,1.526,-157.445,12.316,-71.098
680,-0.2168,-0.3774,-0.8994,-1.282,-0.122,1.587,-157.456,12.327,-71.115
690,-0.2183,-0.3770,-0.9014,-1.099,-0.244,1.587,-157.473,12.338,-71.125
700,-0.2212,-0.3779,-0.9004,0.122,-0.122,1.465,-157.467,12.349,-71.142
710,-0.2183,-0.3779,-0.8979,0.671,0.061,1.282,-157.462,12.354,-71.153
720,-0.2153,-0.3774,-0.8999,0.610,-0.061,1.221,-157.456,12.360,-71.164
730,-0.2144,-0.3765,-0.9033,0.244,-0.305,1.343,-157.456,12.371,-71.175
740,-0.2148,-0.3730,-0.9019,0.305,-0.427,1.404,-157.456,12.376,-71.186
750,-0.2163,-0.3721,-0.8989,1.038,-0.671,1.282,-157.451,12.393,-71.197
760,-0.2187,-0.3726,-0.8955,1.404,-1.099,0.977,-157.434,12.409,-71.202
770,-0.2207,-0.3716,-0.8921,1.099,-1.282,0.671,-157.423,12.426,-71.202
780,-0.2187,-0.3740,-0.8901,0.916,-0.793,0.366,-157.412,12.437,-71.202
790,-0.2178,-0.3765,-0.8892,0.732,-0.183,0.122,-157.401,12.442,-71.202
800,-0.2183,-0.3740,-0.8892,0.183,0.549,-0.122,-157.396,12.442,-71.202
810,-0.2197,-0.3730,-0.8921,-0.549,0.977,-0.366,-157.401,12.437,-71.202
821,-0.2202,-0.3745,-0.8945,-1.221,1.343,-0.732,-157.412,12.420,-71.202
830,-0.2197,-0.3765,-0.8979,-1.770,1.526,-0.916,-157.429,12.409,-71.202
840,-0.2192,-0.3760,-0.9019,-1.953,1.709,-0.916,-157.445,12.393,-71.197
850,-0.2197,-0.3770,-0.9014,-1.953,1.892,-0.793,-157.467,12.376,-71.197
860,-0.2187,-0.3804,-0.9033,-1.892,2.136,-0.854,-157.478,12.354,-71.197
870,-0.2148,-0.3823,-0.9063,-1.953,2.380,-0.854,-157.495,12.327,-71.202
880,-0.2100,-0.3823,-0.9072,-2.075,2.502,-0.610,-157.516,12.299,-71.202
890,-0.2090,-0.3823,-0.9121,-2.075,2.380,-0.122,-157.533,12.272,-71.213
900,-0.2119,-0.3784,-0.9131,-1.892,2.258,0.305,-157.555,12.255,-71.224
910,-0.2148,-0.3760,-0.9146,-1.343,2.075,0.671,-157.571,12.239,-71.235
920,-0.2134,-0.3721,-0.9150,-0.671,1.953,0.793,-157.582,12.222,-71.252
930,-0.2124,-0.3711,-0.9141,-0.061,1.709,0.732,-157.593,12.206,-71.268
940,-0.2124,-0.3706,-0.9126,0.305,1.526,0.488,-157.593,12.195,-71.279
950,-0.2129,-0.3711,-0.9092,0.427,1.343,0.366,-157.593,12.184,-71.285
960,-0.2114,-0.3735,-0.9058,0.122,1.160,0.366,-157.593,12.173,-71.296
970,-0.2104,-0.3774,-0.9087,-0.549,1.160,0.305,-157.599,12.162,-71.301
980,-0.2065,-0.3779,-0.9106,-1.465,1.343,0.122,-157.615,12.151,-71.307
990,-0.2051,-0.3760,-0.9189,-2.502,1.648,0.000,-157.643,12.129,-71.312
1000,-0.2070,-0.3716,-0.9204,-2.686,2.136,-0.061,-157.670,12.107,-71.323
1010,-0.2065,-0.3701,-0.9219,-2.319,2.563,0.000,-157.703,12.079,-71.334
1020,-0.2070,-0.3657,-0.9224,-1.343,2.625,0.122,-157.725,12.052,-71.345
1030,-0.2075,-0.3638,-0.9209,-0.122,2.380,0.183,-157.736,12.030,-71.356
1040,-0.2051,-0.3662,-0.9185,-0.549,0.977,0.366,-157.747,12.019,-71.362
1050,-0.2100,-0.3638,-0.9175,-0.122,-0.061,0.549,-157.758,12.019,-71.367
1060,-0.2090,-0.3672,-0.9102,0.671,-0.488,0.427,-157.753,12.025,-71.367
1070,-0.2148,-0.3667,-0.9058,0.977,-1.587,0.061,-157.742,12.047,-71.362
1080,-0.2124,-0.3667,-0.9038,0.732,-2.258,-0.427,-157.736,12.068,-71.351
1090,-0.2148,-0.3691,-0.8999,0.305,-2.319,-0.793,-157.731,12.090,-71.334
1100,-0.2129,-0.3711,-0.8955,-0.244,-2.319,-1.282,-157.725,12.107,-71.312
1110,-0.2119,-0.3726,-0.8921,-1.038,-2.808,-1.465,-157.725,12.129,-71.290
1120,-0.2124,-0.3740,-0.8960,-1.953,-3.235,-1.343,-157.736,12.156,-71.263
1130,-0.2129,-0.3770,-0.8970,-1.770,-2.991,-1.221,-157.742,12.184,-71.241
1140,-0.2134,-0.3730,-0.8940,-0.854,-2.380,-0.916,-157.742,12.206,-71.219
1150,-0.2153,-0.3750,-0.8936,-0.244,-2.014,-0.549,-157.736,12.222,-71.208
1160,-0.2153,-0.3750,-0.8940,0.244,-1.770,-0.244,-157.731,12.244,-71.197
1170,-0.2139,-0.3755,-0.8926,0.671,-1.404,0.000,-157.714,12.255,-71.191
1180,-0.2119,-0.3765,-0.8906,0.916,-1.404,0.061,-157.698,12.272,-71.191
1190,-0.2144,-0.3755,-0.8892,0.916,-1.587,0.061,-157.681,12.288,-71.186
1200,-0.2134,-0.3784,-0.8887,0.488,-1.404,-0.061,-157.670,12.305,-71.175
1210,-0.2129,-0.3784,-0.8921,-0.366,-0.793,-0.122,-157.665,12.310,-71.175
1220,-0.2124,-0.3804,-0.8926,-1.343,-0.183,-0.183,-157.670,12.310,-71.169
1230,-0.2109,-0.3789,-0.8960,-1.953,0.427,-0.061,-157.687,12.305,-71.169
1240,-0.2129,-0.3730,-0.9014,-1.953,1.221,-0.061,-157.703,12.294,-71.175
1250,-0.2148,-0.3745,-0.9038,-1.465,1.770,-0.061,-157.714,12.277,-71.180
1260,-0.2129,-0.3745,-0.9067,-0.916,2.014,-0.061,-157.725,12.261,-71.191
1270,-0.2109,-0.3740,-0.9063,-0.610,1.831,0.061,-157.731,12.244,-71.197
1280,-0.2124,-0.3740,-0.9063,-0.244,1.465,0.244,-157.736,12.228,-71.208
1290,-0.2129,-0.3730,-0.9102,0.000,1.160,0.488,-157.736,12.222,-71.213
1300,-0.2144,-0.3706,-0.9092,0.122,0.793,0.610,-157.736,12.217,-71.224
1310,-0.2153,-0.3687,-0.9102,0.000,0.427,0.671,-157.742,12.217,-71.230
1321,-0.2173,-0.3711,-0.9102,-0.244,0.244,0.488,-157.747,12.217,-71.235
1330,-0.2183,-0.3696,-0.9063,-0.488,0.183,0.244,-157.753,12.222,-71.241
1340,-0.2178,-0.3696,-0.9053,-0.732,0.366,-0.061,-157.758,12.222,-71.241
1350,-0.2168,-0.3726,-0.9072,-0.916,0.549,-0.305,-157.769,12.217,-71.241
1360,-0.2158,-0.3711,-0.9072,-1.099,0.549,-0.488,-157.780,12.211,-71.235
1370,-0.2139,-0.3721,-0.9106,-1.099,0.427,-0.610,-157.786,12.206,-71.235
1380,-0.2124,-0.3726,-0.9106,-0.854,0.122,-0.793,-157.797,12.206,-71.224
1390,-0.2119,-0.3755,-0.9126,-0.671,-0.122,-0.793,-157.797,12.200,-71.219
1400,-0.2129,-0.3765,-0.9092,-0.488,-0.183,-0.610,-157.797,12.200,-71.213
1410,-0.2139,-0.3760,-0.9082,-0.366,-0.244,-0.244,-157.797,12.200,-71.208
1420,-0.2104,-0.3774,-0.9102,-0.183,-0.305,0.122,-157.797,12.206,-71.208
1430,-0.2109,-0.3784,-0.9092,0.061,-0.305,0.244,-157.791,12.206,-71.208
1440,-0.2095,-0.3770,-0.9087,0.183,-0.122,0.366,-157.786,12.206,-71.213
1450,-0.2109,-0.3735,-0.9082,0.305,0.061,0.549,-157.786,12.206,-71.219
1460,-0.2104,-0.3701,-0.9058,0.427,0.061,0.793,-157.780,12.211,-71.224
1470,-0.2104,-0.3716,-0.9077,0.427,0.000,1.038,-157.780,12.211,-71.235
1480,-0.2090,-0.3687,-0.9058,0.366,-0.183,1.099,-157.780,12.217,-71.246
1490,-0.2100,-0.3647,-0.9067,0.244,-0.244,1.160,-157.780,12.222,-71.257
1500,-0.2109,-0.3618,-0.9063,0.244,-0.122,0.977,-157.786,12.228,-71.263
1510,-0.2119,-0.3633,-0.9033,0.183,0.000,0.732,-157.786,12.228,-71.274
1520,-0.2104,-0.3643,-0.8999,-0.122,0.122,0.427,-157.791,12.233,-71.274
1530,-0.2095,-0.3682,-0.8999,-0.732,0.244,0.061,-157.797,12.228,-71.279
1540,-0.2070,-0.3706,-0.9038,-1.587,0.366,-0.244,-157.813,12.222,-71.274
1550,-0.2041,-0.3721,-0.9063,-2.380,0.610,-0.366,-157.835,12.211,-71.274
1560,-0.2046,-0.3672,-0.9102,-2.869,0.854,-0.427,-157.868,12.195,-71.274
1570,-0.2061,-0.3643,-0.9106,-2.625,1.038,-0.305,-157.896,12.184,-71.274
1580,-0.2090,-0.3608,-0.9116,-1.648,1.099,-0.244,-157.917,12.167,-71.279
1590,-0.2109,-0.3633,-0.9106,-0.488,1.038,-0.366,-157.923,12.156,-71.279
1600,-0.2114,-0.3652,-0.9067,0.305,0.977,-0.610,-157.923,12.145,-71.274
1610,-0.2134,-0.3706,-0.9082,0.549,1.038,-0.732,-157.917,12.134,-71.274
1620,-0.2104,-0.3735,-0.9043,0.061,1.221,-0.916,-157.912,12.123,-71.268
1630,-0.2090,-0.3740,-0.9053,-0.977,1.221,-0.916,-157.917,12.107,-71.263
1640,-0.2119,-0.3677,-0.9097,-1.892,1.038,-0.732,-157.934,12.096,-71.263
1650,-0.2153,-0.3643,-0.9077,-2.197,0.549,-0.488,-157.956,12.090,-71.257
1660,-0.2168,-0.3623,-0.9121,-1.709,0.305,-0.549,-157.978,12.090,-71.257
1670,-0.2173,-0.3633,-0.9126,-0.854,0.000,-0.793,-157.989,12.090,-71.246
1680,-0.2158,-0.3662,-0.9102,-0.244,-0.061,-1.038,-157.989,12.090,-71.235
1690,-0.2144,-0.3726,-0.9067,-0.183,0.000,-0.977,-157.983,12.090,-71.230
1700,-0.2144,-0.3760,-0.9058,-0.488,0.061,-0.793,-157.983,12.090,-71.219
1710,-0.2119,-0.3779,-0.9077,-1.099,0.122,-0.610,-157.989,12.085,-71.213
1720,-0.2134,-0.3779,-0.9092,-1.587,0.122,-0.549,-157.994,12.085,-71.213
1730,-0.2109,-0.3755,-0.9116,-1.770,0.244,-0.549,-158.011,12.079,-71.208
1740,-0.2090,-0.3755,-0.9146,-1.526,0.244,-0.488,-158.022,12.074,-71.202
1750,-0.2085,-0.3740,-0.9111,-0.854,-0.183,-0.244,-158.027,12.074,-71.202
1760,-0.2080,-0.3750,-0.9116,-0.061,-0.671,0.000,-158.022,12.079,-71.197
1770,-0.2075,-0.3765,-0.9102,0.488,-1.038,0.305,-158.011,12.085,-71.197
1780,-0.2085,-0.3750,-0.9092,0.793,-1.099,0.549,-158.000,12.096,-71.197
1790,-0.2109,-0.3716,-0.9077,1.038,-0.977,0.854,-157.989,12.112,-71.202
1800,-0.2109,-0.3691,-0.9058,1.282,-0.610,1.038,-157.972,12.123,-71.208
1810,-0.2104,-0.3696,-0.9058,1.343,-0.305,0.977,-157.961,12.129,-71.219
1821,-0.2100,-0.3682,-0.9038,1.099,-0.122,0.732,-157.950,12.129,-71.224
1830,-0.2104,-0.3696,-0.9028,0.610,-0.061,0.549,-157.945,12.134,-71.230
1840,-0.2095,-0.3682,-0.9028,-0.061,0.122,0.427,-157.945,12.134,-71.235
1850,-0.2109,-0.3647,-0.9028,-0.610,0.244,0.427,-157.950,12.134,-71.241
1860,-0.2134,-0.3657,-0.9038,-0.793,0.488,0.427,-157.961,12.134,-71.246
1870,-0.2124,-0.3643,-0.9033,-0.671,0.549,0.122,-157.967,12.129,-71.246
1880,-0.2104,-0.3657,-0.9043,-0.488,0.427,0.061,-157.972,12.129,-71.252
1890,-0.2100,-0.3677,-0.9058,-0.488,0.122,0.061,-157.978,12.129,-71.252
1900,-0.2119,-0.3682,-0.9048,-0.549,-0.061,0.183,-157.983,12.129,-71.252
1910,-0.2124,-0.3696,-0.9028,-0.610,0.061,0.427,-157.989,12.134,-71.257
1920,-0.2124,-0.3657,-0.9033,-0.671,0.366,0.610,-157.994,12.134,-71.263
1930,-0.2104,-0.3662,-0.9063,-0.610,0.671,0.549,-158.000,12.129,-71.274
1940,-0.2109,-0.3687,-0.9072,-0.671,0.977,0.366,-158.011,12.123,-71.279
1950,-0.2100,-0.3696,-0.9082,-0.793,1.282,0.244,-158.016,12.112,-71.285
1960,-0.2090,-0.3672,-0.9072,-0.977,1.465,0.366,-158.027,12.096,-71.296
1970,-0.2085,-0.3691,-0.9116,-1.099,1.587,0.549,-158.038,12.085,-71.307
1980,-0.2100,-0.3657,-0.9126,-1.038,1.343,0.610,-158.055,12.074,-71.318
1990,-0.2100,-0.3643,-0.9146,-0.916,0.977,0.549,-158.066,12.068,-71.329
2000,-0.2085,-0.3633,-0.9180,-0.671,0.732,0.305,-158.077,12.057,-71.334
2011,-0.2095,-0.3647,-0.9155,-0.427,0.488,0.122,-158.088,12.052,-71.334
2021,-0.2095,-0.3652,-0.9106,-0.183,0.488,0.305,-158.088,12.052,-71.340
2031,-0.2085,-0.3652,-0.9126,0.122,0.427,0.366,-158.088,12.047,-71.345
2041,-0.2085,-0.3657,-0.9102,0.305,0.244,0.488,-158.088,12.047,-71.351
2051,-0.2109,-0.3662,-0.9106,0.427,0.122,0.488,-158.082,12.047,-71.356
2061,-0.2095,-0.3652,-0.9146,0.366,0.183,0.488,-158.082,12.047,-71.362
2071,-0.2114,-0.3662,-0.9097,0.122,0.244,0.305,-158.082,12.047,-71.367
2081,-0.2085,-0.3706,-0.9111,-0.122,0.488,0.244,-158.082,12.047,-71.367
2091,-0.2085,-0.3687,-0.9111,-0.488,0.244,0.183,-158.088,12.041,-71.373
2101,-0.2070,-0.3657,-0.9106,-0.610,-0.122,0.305,-158.093,12.041,-71.373
2111,-0.2095,-0.3687,-0.9116,-0.244,-0.427,0.305,-158.093,12.047,-71.373
2121,-0.2065,-0.3691,-0.9121,0.000,-0.549,0.183,-158.093,12.052,-71.373
2131,-0.2095,-0.3677,-0.9126,0.122,-0.549,0.122,-158.093,12.057,-71.373
2141,-0.2080,-0.3672,-0.9097,0.244,-0.244,0.183,-158.088,12.057,-71.373
2151,-0.2124,-0.3667,-0.9102,0.244,0.122,0.305,-158.088,12.057,-71.378
2161,-0.2090,-0.3672,-0.9048,0.305,0.244,0.366,-158.082,12.057,-71.384
2171,-0.2090,-0.3682,-0.9058,0.366,0.183,0.488,-158.077,12.057,-71.389
2181,-0.2100,-0.3696,-0.9077,0.244,-0.061,0.488,-158.077,12.063,-71.395
2191,-0.2080,-0.3687,-0.9087,0.061,-0.122,0.488,-158.071,12.063,-71.395
2201,-0.2070,-0.3662,-0.9121,-0.305,0.061,0.488,-158.077,12.063,-71.400
2211,-0.2080,-0.3628,-0.9121,-0.549,0.366,0.549,-158.088,12.063,-71.406
2221,-0.2090,-0.3618,-0.9126,-0.549,0.488,0.610,-158.099,12.057,-71.417
2231,-0.2104,-0.3623,-0.9131,-0.305,0.366,0.610,-158.104,12.057,-71.422
2241,-0.2114,-0.3623,-0.9121,0.244,0.000,0.549,-158.104,12.063,-71.428
2251,-0.2124,-0.3623,-0.9102,0.793,-0.366,0.488,-158.099,12.068,-71.433
2261,-0.2124,-0.3638,-0.9077,0.977,-0.610,0.366,-158.093,12.079,-71.433
2271,-0.2119,-0.3667,-0.9092,0.793,-0.488,0.305,-158.082,12.085,-71.433
2281,-0.2119,-0.3667,-0.9063,0.183,-0.061,0.305,-158.082,12.085,-71.439
2291,-0.2119,-0.3638,-0.9097,-0.549,0.305,0.427,-158.088,12.085,-71.439
2301,-0.2114,-0.3638,-0.9111,-0.916,0.549,0.427,-158.099,12.085,-71.450
2311,-0.2129,-0.3638,-0.9126,-0.916,0.610,0.244,-158.110,12.079,-71.450
2321,-0.2104,-0.3643,-0.9141,-0.610,0.488,-0.061,-158.121,12.074,-71.455
2331,-0.2085,-0.3633,-0.9136,-0.305,0.244,-0.244,-158.126,12.074,-71.450
2341,-0.2061,-0.3662,-0.9131,-0.305,-0.061,-0.183,-158.126,12.068,-71.450
2351,-0.2061,-0.3682,-0.9141,-0.305,-0.488,0.061,-158.126,12.074,-71.450
2361,-0.2065,-0.3667,-0.9121,-0.305,-0.916,0.366,-158.132,12.079,-71.450
2371,-0.2095,-0.3638,-0.9121,-0.061,-1.099,0.427,-158.132,12.090,-71.450
2381,-0.2104,-0.3613,-0.9121,0.488,-0.977,0.305,-158.132,12.101,-71.450
2391,-0.2104,-0.3652,-0.9121,1.038,-0.793,0.183,-158.121,12.107,-71.444
2401,-0.2085,-0.3672,-0.9058,1.282,-0.671,0.122,-158.104,12.112,-71.444
2411,-0.2085,-0.3672,-0.9028,1.099,-0.671,0.244,-158.093,12.123,-71.444
2421,-0.2114,-0.3647,-0.9053,0.610,-0.671,0.488,-158.088,12.129,-71.450
2431,-0.2129,-0.3633,-0.9048,0.061,-0.671,0.610,-158.088,12.140,-71.450
2441,-0.2163,-0.3589,-0.9048,-0.183,-0.671,0.549,-158.093,12.151,-71.455
2451,-0.2124,-0.3623,-0.9077,-0.305,-0.610,0.244,-158.099,12.162,-71.455
2461,-0.2109,-0.3628,-0.9077,-0.366,-0.610,0.000,-158.099,12.167,-71.450
2471,-0.2090,-0.3628,-0.9063,-0.549,-0.488,-0.122,-158.104,12.167,-71.450
2481,-0.2065,-0.3647,-0.9077,-1.038,-0.244,-0.244,-158.115,12.167,-71.444
2491,-0.2061,-0.3647,-0.9077,-1.526,-0.122,-0.183,-158.132,12.167,-71.444
2501,-0.2085,-0.3613,-0.9116,-1.709,-0.061,-0.244,-158.148,12.162,-71.439
2511,-0.2100,-0.3604,-0.9136,-1.465,0.000,-0.305,-158.165,12.162,-71.439
2521,-0.2124,-0.3574,-0.9146,-0.854,-0.061,-0.427,-158.181,12.162,-71.433
2531,-0.2104,-0.3594,-0.9126,0.000,-0.183,-0.610,-158.181,12.162,-71.428
2541,-0.2075,-0.3604,-0.9067,0.122,-0.427,-0.732,-158.181,12.162,-71.417
2551,-0.2095,-0.3647,-0.9097,-0.061,-0.549,-0.793,-158.176,12.162,-71.406
2561,-0.2095,-0.3687,-0.9067,-0.732,-0.549,-0.977,-158.181,12.162,-71.395
2571,-0.2100,-0.3682,-0.9092,-1.770,-0.549,-1.099,-158.192,12.162,-71.384
2581,-0.2085,-0.3667,-0.9082,-2.747,-0.549,-1.221,-158.214,12.162,-71.373
2591,-0.2114,-0.3623,-0.9121,-3.174,-0.427,-1.099,-158.247,12.162,-71.356
2601,-0.2114,-0.3638,-0.9111,-2.808,-0.305,-0.977,-158.269,12.162,-71.345
2611,-0.2109,-0.3643,-0.9116,-2.258,-0.183,-0.854,-158.291,12.156,-71.340
2621,-0.2114,-0.3667,-0.9131,-1.526,-0.061,-0.732,-158.302,12.156,-71.334
2631,-0.2109,-0.3691,-0.9136,-0.793,0.244,-0.610,-158.307,12.151,-71.329
2641,-0.2085,-0.3721,-0.9146,-0.427,0.610,-0.488,-158.307,12.140,-71.323
2651,-0.2119,-0.3696,-0.9150,-0.488,0.732,-0.305,-158.307,12.134,-71.323
2661,-0.2148,-0.3706,-0.9131,-0.549,0.671,0.000,-158.307,12.129,-71.329
2671,-0.2144,-0.3691,-0.9111,-0.488,0.610,0.061,-158.313,12.123,-71.329
2681,-0.2163,-0.3677,-0.9136,-0.488,0.488,-0.061,-158.313,12.123,-71.329
2691,-0.2148,-0.3696,-0.9141,-0.671,0.549,-0.122,-158.318,12.118,-71.334
2701,-0.2178,-0.3696,-0.9165,-0.977,0.671,-0.061,-158.324,12.118,-71.334
2711,-0.2187,-0.3760,-0.9175,-1.099,0.854,-0.061,-158.329,12.112,-71.334
2721,-0.2158,-0.3784,-0.9185,-1.099,0.916,-0.061,-158.335,12.101,-71.340
2731,-0.2168,-0.3750,-0.9180,-1.038,0.549,0.244,-158.340,12.101,-71.345
2741,-0.2178,-0.3730,-0.9243,-0.549,0.122,0.793,-158.340,12.107,-71.351
2751,-0.2192,-0.3721,-0.9209,0.305,-0.244,1.221,-158.340,12.118,-71.362
2761,-0.2197,-0.3691,-0.9199,1.160,-0.549,1.526,-158.329,12.129,-71.373
2771,-0.2153,-0.3677,-0.9185,1.831,-0.793,1.648,-158.313,12.145,-71.389
2781,-0.2134,-0.3682,-0.9165,2.075,-1.038,1.770,-158.291,12.162,-71.400
2791,-0.2109,-0.3657,-0.9141,2.014,-1.343,2.014,-158.275,12.178,-71.417
2801,-0.2090,-0.3608,-0.9111,2.319,-1.587,2.319,-158.253,12.200,-71.433
2811,-0.2124,-0.3584,-0.9126,2.625,-2.014,2.563,-158.236,12.228,-71.450
2821,-0.2148,-0.3560,-0.9082,3.052,-2.197,2.625,-158.214,12.261,-71.466
2831,-0.2144,-0.3540,-0.9038,3.296,-1.892,2.502,-158.187,12.288,-71.483
2841,-0.2090,-0.3555,-0.8994,2.991,-1.343,2.197,-158.165,12.310,-71.494
2851,-0.2095,-0.3569,-0.8960,2.014,-0.671,1.953,-158.148,12.321,-71.510
2861,-0.2065,-0.3545,-0.8960,0.732,-0.061,1.831,-158.148,12.327,-71.532
2871,-0.2056,-0.3555,-0.8975,-0.549,0.366,1.648,-158.159,12.327,-71.548
2881,-0.2041,-0.3540,-0.9023,-1.526,0.610,1.343,-158.181,12.321,-71.559
2891,-0.1997,-0.3569,-0.9072,-1.953,0.977,0.549,-158.203,12.310,-71.570
2901,-0.2002,-0.3530,-0.9102,-2.075,1.099,0.183,-158.231,12.294,-71.576
2911,-0.2002,-0.3530,-0.9053,-1.587,1.465,0.000,-158.253,12.272,-71.581
2921,-0.2017,-0.3501,-0.9087,-1.160,2.014,0.244,-158.275,12.250,-71.592
2931,-0.2036,-0.3486,-0.9067,-0.366,2.014,0.244,-158.286,12.228,-71.603
2941,-0.2075,-0.3511,-0.9043,0.000,1.892,0.061,-158.297,12.206,-71.609
2951,-0.2104,-0.3540,-0.9033,0.122,1.648,-0.244,-158.297,12.189,-71.614
2961,-0.2124,-0.3550,-0.9009,-0.488,1.648,-0.488,-158.302,12.178,-71.614
2971,-0.2148,-0.3574,-0.8994,-1.831,2.014,-0.610,-158.324,12.162,-71.614
2981,-0.2134,-0.3569,-0.9038,-3.418,2.563,-0.854,-158.357,12.134,-71.620
2991,-0.2148,-0.3550,-0.9097,-4.761,2.930,-0.977,-158.406,12.107,-71.620
3001,-0.2144,-0.3521,-0.9121,-5.371,3.296,-0.977,-158.467,12.074,-71.625
3011,-0.2134,-0.3486,-0.9229,-5.554,3.357,-1.038,-158.533,12.041,-71.625
3021,-0.2124,-0.3491,-0.9219,-5.188,2.808,-1.038,-158.588,12.014,-71.625
3031,-0.2124,-0.3506,-0.9229,-4.517,2.136,-1.160,-158.643,11.992,-71.625
3041,-0.2119,-0.3540,-0.9209,-3.723,1.343,-1.343,-158.681,11.975,-71.614
3051,-0.2085,-0.3594,-0.9199,-3.113,0.793,-1.587,-158.708,11.964,-71.603
3061,-0.2046,-0.3623,-0.9204,-2.991,0.488,-1.709,-158.730,11.948,-71.587
3071,-0.2085,-0.3623,-0.9209,-2.991,0.366,-1.648,-158.758,11.937,-71.576
3081,-0.2080,-0.3623,-0.9194,-2.869,0.305,-1.465,-158.780,11.931,-71.559
3091,-0.2075,-0.3633,-0.9199,-2.441,0.366,-1.282,-158.796,11.920,-71.548
3101,-0.2080,-0.3652,-0.9219,-1.831,0.305,-1.282,-158.807,11.915,-71.537
3111,-0.2085,-0.3638,-0.9194,-1.160,0.061,-1.160,-158.813,11.909,-71.526
3121,-0.2085,-0.3633,-0.9131,-0.366,-0.183,-1.038,-158.813,11.909,-71.521
3131,-0.2095,-0.3662,-0.9136,0.122,-0.244,-0.854,-158.802,11.909,-71.510
3141,-0.2085,-0.3662,-0.9126,0.305,-0.488,-0.610,-158.791,11.909,-71.505
3151,-0.2080,-0.3652,-0.9121,0.244,-0.671,-0.244,-158.780,11.915,-71.499
3161,-0.2080,-0.3613,-0.9116,0.244,-0.793,0.183,-158.774,11.926,-71.494
3171,-0.2070,-0.3574,-0.9102,0.427,-0.854,0.427,-158.769,11.937,-71.499
3181,-0.2075,-0.3540,-0.9097,0.671,-0.916,0.671,-158.763,11.948,-71.499
3191,-0.2070,-0.3550,-0.9053,1.038,-0.793,0.793,-158.752,11.959,-71.505
3201,-0.2075,-0.3550,-0.9043,1.282,-0.488,0.671,-158.736,11.964,-71.510
3211,-0.2080,-0.3613,-0.9038,1.099,-0.305,0.610,-158.719,11.970,-71.516
3221,-0.2070,-0.3618,-0.9038,0.427,-0.122,0.610,-158.714,11.975,-71.521
3231,-0.2061,-0.3594,-0.9067,-0.366,0.122,0.671,-158.714,11.975,-71.526
3241,-0.2065,-0.3540,-0.9067,-0.732,0.305,0.793,-158.725,11.975,-71.532
3251,-0.2085,-0.3530,-0.9087,-0.610,0.244,0.793,-158.730,11.975,-71.543
3261,-0.2085,-0.3545,-0.9082,-0.183,0.061,0.671,-158.736,11.981,-71.548
3271,-0.2065,-0.3555,-0.9106,0.183,-0.061,0.610,-158.730,11.981,-71.554
3281,-0.2085,-0.3560,-0.9121,0.244,-0.183,0.671,-158.730,11.986,-71.559
3291,-0.2100,-0.3569,-0.9126,0.122,-0.183,0.732,-158.730,11.992,-71.565
3301,-0.2085,-0.3594,-0.9121,0.000,0.000,0.610,-158.730,11.997,-71.576
3311,-0.2080,-0.3608,-0.9131,0.000,0.549,0.244,-158.725,11.992,-71.576
3321,-0.2075,-0.3599,-0.9150,-0.427,0.854,0.000,-158.730,11.981,-71.581
3331,-0.2070,-0.3599,-0.9136,-0.671,1.282,-0.122,-158.736,11.970,-71.587
3341,-0.2065,-0.3613,-0.9175,-0.916,1.404,-0.061,-158.741,11.953,-71.587
3351,-0.2075,-0.3589,-0.9229,-1.099,1.221,0.122,-158.752,11.942,-71.592
3361,-0.2070,-0.3589,-0.9224,-0.854,0.977,0.305,-158.763,11.931,-71.603
3371,-0.2056,-0.3589,-0.9243,-0.305,0.610,0.366,-158.769,11.926,-71.609
3381,-0.2056,-0.3618,-0.9194,0.244,0.305,0.427,-158.763,11.926,-71.614
3391,-0.2036,-0.3633,-0.9146,0.488,0.000,0.793,-158.758,11.926,-71.620
3401,-0.2056,-0.3608,-0.9141,0.305,0.061,1.465,-158.752,11.926,-71.636
3411,-0.2065,-0.3574,-0.9121,-0.122,0.427,2.014,-158.758,11.931,-71.653
3421,-0.2085,-0.3564,-0.9116,-0.488,1.221,2.197,-158.769,11.926,-71.680
3431,-0.2065,-0.3516,-0.9126,-0.854,1.953,2.014,-158.780,11.915,-71.708
3441,-0.2041,-0.3511,-0.9131,-1.099,2.625,1.648,-158.802,11.898,-71.730
3451,-0.2017,-0.3530,-0.9155,-1.648,3.113,1.282,-158.824,11.871,-71.757
3461,-0.2017,-0.3535,-0.9199,-2.563,3.113,1.221,-158.851,11.843,-71.779
3471,-0.2017,-0.3506,-0.9209,-3.357,2.686,1.343,-158.895,11.821,-71.801
3481,-0.2056,-0.3516,-0.9233,-4.150,2.136,1.404,-158.945,11.805,-71.823
3491,-0.2056,-0.3472,-0.9282,-5.066,1.587,1.160,-159.000,11.794,-71.840
3501,-0.2070,-0.3423,-0.9307,-5.554,1.221,0.916,-159.066,11.783,-71.851
3511,-0.2056,-0.3403,-0.9307,-5.920,0.793,0.793,-159.137,11.777,-71.862
3521,-0.2065,-0.3413,-0.9297,-6.042,0.366,0.488,-159.203,11.777,-71.867
3531,-0.2051,-0.3394,-0.9341,-5.920,0.122,0.061,-159.274,11.777,-71.873
3541,-0.2041,-0.3364,-0.9326,-5.432,-0.305,0.000,-159.335,11.777,-71.867
3551,-0.2061,-0.3325,-0.9326,-4.517,-0.427,0.061,-159.390,11.783,-71.867
3561,-0.2080,-0.3325,-0.9292,-2.991,-0.305,-0.061,-159.428,11.783,-71.867
3571,-0.2075,-0.3354,-0.9282,-1.282,-0.183,-0.244,-159.445,11.788,-71.862
3581,-0.2065,-0.3384,-0.9248,0.061,-0.122,-0.366,-159.450,11.788,-71.862
3591,-0.2061,-0.3437,-0.9224,0.977,-0.183,-0.427,-159.439,11.788,-71.856
3601,-0.2085,-0.3486,-0.9170,1.221,-0.427,-0.366,-159.423,11.794,-71.851
3611,-0.2075,-0.3535,-0.9165,0.671,-0.610,-0.427,-159.412,11.799,-71.845
3621,-0.2080,-0.3555,-0.9141,-0.183,-0.610,-0.549,-159.406,11.805,-71.834
3631,-0.2075,-0.3569,-0.9180,-1.038,-0.488,-0.671,-159.406,11.805,-71.829
3641,-0.2041,-0.3560,-0.9214,-1.709,-0.427,-0.671,-159.417,11.805,-71.818
3651,-0.2031,-0.3545,-0.9214,-2.014,-0.610,-0.427,-159.434,11.810,-71.812
3661,-0.2026,-0.3525,-0.9194,-1.709,-0.793,-0.122,-159.445,11.816,-71.812
3671,-0.2046,-0.3501,-0.9170,-1.221,-0.977,0.122,-159.450,11.821,-71.807
3681,-0.2070,-0.3481,-0.9180,-0.732,-1.282,0.427,-159.456,11.838,-71.807
3691,-0.2085,-0.3496,-0.9146,0.732,-1.282,0.549,-159.445,11.854,-71.807
3701,-0.2085,-0.3521,-0.9111,1.953,-0.854,0.610,-159.423,11.865,-71.812
3711,-0.2134,-0.3506,-0.9082,2.258,-0.549,0.793,-159.395,11.876,-71.818
3721,-0.2153,-0.3535,-0.9038,2.075,-0.305,0.854,-159.368,11.893,-71.823
3731,-0.2168,-0.3574,-0.9028,1.465,0.061,0.671,-159.346,11.898,-71.829
3741,-0.2158,-0.3599,-0.9023,0.732,0.244,0.549,-159.329,11.904,-71.834
3751,-0.2144,-0.3604,-0.9023,-0.122,0.183,0.671,-159.318,11.909,-71.845
3761,-0.2124,-0.3579,-0.9063,-0.977,0.000,0.916,-159.324,11.920,-71.851
3771,-0.2095,-0.3564,-0.9058,-1.404,-0.061,1.343,-159.329,11.926,-71.862
3781,-0.2104,-0.3540,-0.9097,-1.404,-0.183,1.953,-159.340,11.937,-71.884
3791,-0.2124,-0.3525,-0.9092,-0.732,-0.183,2.441,-159.351,11.953,-71.906
3801,-0.2100,-0.3501,-0.9102,0.122,0.183,2.808,-159.351,11.959,-71.933
3811,-0.2109,-0.3491,-0.9121,1.038,0.671,3.235,-159.346,11.970,-71.966
3822,-0.2109,-0.3481,-0.9121,1.953,1.099,3.418,-159.329,11.970,-72.004
3831,-0.2090,-0.3472,-0.9116,2.319,1.404,3.479,-159.313,11.975,-72.043
3841,-0.2100,-0.3462,-0.9126,1.953,1.587,3.296,-159.302,11.970,-72.076
3851,-0.2065,-0.3462,-0.9131,1.160,1.587,3.052,-159.296,11.964,-72.114
3861,-0.2090,-0.3447,-0.9155,0.366,1.709,2.747,-159.296,11.959,-72.147
3871,-0.2070,-0.3428,-0.9180,-0.244,1.892,2.441,-159.307,11.953,-72.175
3881,-0.2026,-0.3418,-0.9214,-0.671,2.075,2.136,-159.324,11.937,-72.202
3891,-0.1982,-0.3418,-0.9253,-0.793,2.197,2.014,-159.340,11.920,-72.230
3901,-0.1978,-0.3423,-0.9287,-0.671,2.136,2.075,-159.357,11.898,-72.257
3911,-0.1953,-0.3403,-0.9341,0.000,1.953,2.380,-159.373,11.882,-72.290
3921,-0.1973,-0.3403,-0.9336,1.038,1.404,2.563,-159.373,11.871,-72.318
3931,-0.1958,-0.3413,-0.9302,1.892,0.732,2.625,-159.362,11.865,-72.345
3941,-0.1963,-0.3408,-0.9282,2.319,0.183,2.441,-159.351,11.865,-72.367
3951,-0.1953,-0.3408,-0.9248,2.258,-0.244,2.258,-159.335,11.871,-72.389
3961,-0.1973,-0.3379,-0.9238,2.014,-0.610,2.319,-159.329,11.882,-72.411
3971,-0.1997,-0.3325,-0.9194,1.892,-0.916,2.258,-159.318,11.893,-72.427
3981,-0.2026,-0.3291,-0.9214,2.014,-1.160,2.014,-159.313,11.909,-72.444
3991,-0.2075,-0.3267,-0.9194,2.075,-1.343,1.648,-159.307,11.926,-72.455
4001,-0.2075,-0.3301,-0.9199,2.197,-1.343,1.099,-159.296,11.942,-72.460
4011,-0.2075,-0.3335,-0.9180,2.075,-0.854,0.427,-159.280,11.953,-72.460
4021,-0.2051,-0.3369,-0.9180,1.343,-0.305,-0.061,-159.274,11.953,-72.460
4031,-0.2031,-0.3374,-0.9199,0.183,-0.061,-0.366,-159.280,11.953,-72.455
4041,-0.2070,-0.3379,-0.9229,-0.793,-0.183,-0.366,-159.291,11.953,-72.449
4051,-0.2090,-0.3345,-0.9248,-1.038,-0.366,-0.488,-159.307,11.953,-72.444
4061,-0.2075,-0.3379,-0.9243,-0.671,-0.671,-0.732,-159.318,11.959,-72.438
4071,-0.2075,-0.3423,-0.9263,-0.061,-0.916,-0.916,-159.318,11.964,-72.422
4081,-0.2051,-0.3462,-0.9243,0.427,-1.038,-0.977,-159.313,11.964,-72.411
4091,-0.2051,-0.3506,-0.9219,0.549,-1.038,-0.977,-159.307,11.970,-72.400
4101,-0.2041,-0.3525,-0.9219,0.244,-1.282,-0.671,-159.296,11.975,-72.389
4111,-0.2056,-0.3516,-0.9204,0.122,-1.465,-0.488,-159.291,11.986,-72.378
4121,-0.2080,-0.3501,-0.9189,0.305,-1.526,-0.427,-159.285,11.997,-72.367
4131,-0.2085,-0.3491,-0.9185,0.610,-1.526,-0.366,-159.280,12.014,-72.356
4141,-0.2075,-0.3525,-0.9165,0.732,-1.404,-0.488,-159.263,12.025,-72.350
4151,-0.2056,-0.3545,-0.9189,0.610,-1.343,-0.488,-159.252,12.030,-72.339
4161,-0.2056,-0.3535,-0.9194,0.488,-1.282,-0.305,-159.247,12.041,-72.328
4171,-0.2061,-0.3535,-0.9170,0.427,-1.282,-0.183,-159.236,12.047,-72.323
4181,-0.2070,-0.3521,-0.9185,0.427,-1.404,-0.244,-159.230,12.057,-72.318
4191,-0.2090,-0.3530,-0.9170,0.671,-1.343,-0.183,-159.219,12.068,-72.312
4201,-0.2114,-0.3530,-0.9146,0.916,-1.282,0.061,-159.203,12.085,-72.307
4211,-0.2148,-0.3530,-0.9111,1.160,-1.038,0.183,-159.186,12.096,-72.307
4221,-0.2148,-0.3525,-0.9111,1.160,-0.793,0.122,-159.170,12.107,-72.301
4231,-0.2153,-0.3525,-0.9111,0.854,-0.549,0.183,-159.159,12.118,-72.301
4241,-0.2148,-0.3521,-0.9097,0.549,-0.305,0.244,-159.153,12.123,-72.307
4251,-0.2144,-0.3501,-0.9082,0.305,-0.061,0.244,-159.148,12.129,-72.307
4261,-0.2124,-0.3501,-0.9121,0.061,0.061,0.122,-159.148,12.129,-72.307
4271,-0.2139,-0.3530,-0.9097,-0.061,0.183,0.000,-159.142,12.129,-72.307
4281,-0.2114,-0.3521,-0.9102,-0.183,0.244,-0.183,-159.142,12.129,-72.307
4291,-0.2124,-0.3550,-0.9082,-0.427,0.244,-0.183,-159.142,12.123,-72.307
4301,-0.2119,-0.3579,-0.9053,-1.404,0.000,0.000,-159.148,12.129,-72.307
4311,-0.2100,-0.3613,-0.9111,-3.113,-0.366,0.305,-159.170,12.129,-72.307
4322,-0.2119,-0.3589,-0.9121,-3.479,-0.366,0.488,-159.197,12.140,-72.312
4331,-0.2153,-0.3530,-0.9160,-2.625,0.122,0.671,-159.225,12.140,-72.318
4341,-0.2134,-0.3535,-0.9194,-0.916,0.854,0.854,-159.230,12.134,-72.328
4351,-0.2124,-0.3530,-0.9189,-0.061,1.282,1.221,-159.236,12.129,-72.345
4361,-0.2124,-0.3506,-0.9224,-0.061,0.916,1.465,-159.236,12.129,-72.361
4371,-0.2129,-0.3477,-0.9233,0.183,0.671,1.709,-159.241,12.129,-72.383
4381,-0.2129,-0.3437,-0.9253,0.793,0.427,1.770,-159.241,12.129,-72.400
4391,-0.2124,-0.3408,-0.9219,1.221,0.122,1.587,-159.236,12.134,-72.416
4401,-0.2124,-0.3428,-0.9243,1.282,-0.122,1.343,-159.230,12.140,-72.427
4411,-0.2090,-0.3442,-0.9209,0.977,-0.183,1.221,-159.225,12.145,-72.438
4421,-0.2109,-0.3408,-0.9204,0.366,-0.427,1.160,-159.230,12.151,-72.449
4431,-0.2124,-0.3389,-0.9194,0.183,-0.488,0.854,-159.236,12.162,-72.455
4441,-0.2090,-0.3423,-0.9199,0.305,-0.610,0.671,-159.236,12.167,-72.460
4451,-0.2095,-0.3467,-0.9170,0.305,-0.916,0.549,-159.236,12.178,-72.460
4461,-0.2090,-0.3477,-0.9165,-0.122,-1.282,0.488,-159.236,12.189,-72.460
4471,-0.2090,-0.3506,-0.9170,-0.977,-1.587,0.610,-159.241,12.206,-72.460
4481,-0.2090,-0.3501,-0.9160,-1.221,-1.526,0.732,-159.252,12.217,-72.460
4491,-0.2090,-0.3491,-0.9160,-0.305,-0.916,0.854,-159.258,12.228,-72.466
4501,-0.2100,-0.3486,-0.9160,0.488,-0.122,1.038,-159.252,12.233,-72.477
4511,-0.2085,-0.3481,-0.9189,0.732,0.122,1.160,-159.247,12.233,-72.488
4521,-0.2100,-0.3457,-0.9219,0.916,0.061,1.282,-159.241,12.233,-72.499
4531,-0.2104,-0.3433,-0.9170,1.160,0.061,1.160,-159.236,12.239,-72.515
4541,-0.2119,-0.3428,-0.9131,1.465,-0.122,1.099,-159.225,12.244,-72.521
4551,-0.2134,-0.3428,-0.9097,1.404,-0.305,0.916,-159.214,12.250,-72.532
4561,-0.2109,-0.3447,-0.9111,0.916,-0.427,0.732,-159.208,12.255,-72.537
4571,-0.2119,-0.3457,-0.9106,0.183,-0.427,0.488,-159.208,12.261,-72.537
4581,-0.2090,-0.3452,-0.9121,-0.488,-0.122,0.183,-159.214,12.261,-72.543
4591,-0.2070,-0.3452,-0.9131,-0.916,0.244,-0.061,-159.219,12.255,-72.543
4601,-0.2085,-0.3423,-0.9146,-1.221,0.610,-0.183,-159.236,12.250,-72.543
4611,-0.2100,-0.3403,-0.9121,-1.282,0.671,-0.122,-159.252,12.239,-72.543
4621,-0.2144,-0.3413,-0.9092,-1.465,0.488,0.061,-159.269,12.239,-72.543
4631,-0.2163,-0.3369,-0.9116,-1.465,1.160,0.061,-159.291,12.233,-72.548
4641,-0.2139,-0.3403,-0.9097,-0.916,1.587,-0.488,-159.302,12.217,-72.548
4651,-0.2095,-0.3447,-0.9067,-0.427,2.319,-1.160,-159.302,12.189,-72.548
4661,-0.2075,-0.3501,-0.9072,-1.038,2.441,-1.526,-159.307,12.162,-72.543
4671,-0.2075,-0.3540,-0.9077,-2.014,2.258,-1.587,-159.318,12.134,-72.537
4681,-0.2065,-0.3545,-0.9141,-2.686,2.380,-1.404,-159.340,12.107,-72.532
4691,-0.2065,-0.3491,-0.9185,-3.052,2.441,-1.038,-159.368,12.074,-72.532
4701,-0.2075,-0.3481,-0.9214,-2.808,2.380,-0.854,-159.395,12.047,-72.532
4711,-0.2046,-0.3491,-0.9258,-2.014,2.380,-0.793,-159.417,12.019,-72.532
4721,-0.2046,-0.3491,-0.9272,-1.099,2.075,-0.549,-159.428,11.997,-72.532
4731,-0.2021,-0.3472,-0.9248,-0.244,1.831,-0.122,-159.428,11.975,-72.537
4741,-0.2051,-0.3462,-0.9238,0.488,1.526,0.427,-159.428,11.959,-72.548
4751,-0.2065,-0.3437,-0.9233,1.099,1.404,0.732,-159.423,11.948,-72.559
4761,-0.2119,-0.3428,-0.9243,1.465,1.526,0.732,-159.412,11.937,-72.570
4771,-0.2104,-0.3437,-0.9199,1.526,1.587,0.549,-159.401,11.926,-72.581
4781,-0.2100,-0.3462,-0.9170,1.099,1.526,0.183,-159.390,11.915,-72.592
4791,-0.2095,-0.3472,-0.9170,0.610,1.343,-0.183,-159.384,11.904,-72.592
4801,-0.2065,-0.3486,-0.9165,-0.061,1.038,-0.427,-159.379,11.893,-72.592
4811,-0.2070,-0.3481,-0.9165,-0.549,0.732,-0.549,-159.384,11.882,-72.592
4822,-0.2080,-0.3477,-0.9136,-0.793,0.549,-0.610,-159.390,11.876,-72.587
4831,-0.2095,-0.3491,-0.9126,-0.732,0.427,-0.488,-159.390,11.876,-72.581
4841,-0.2090,-0.3491,-0.9150,-0.488,0.610,-0.305,-159.395,11.871,-72.581
4851,-0.2065,-0.3506,-0.9146,-0.061,0.854,-0.061,-159.390,11.860,-72.587
4861,-0.2070,-0.3525,-0.9185,0.122,1.282,0.122,-159.390,11.849,-72.592
4871,-0.2080,-0.3525,-0.9194,0.061,1.648,0.305,-159.384,11.838,-72.598
4881,-0.2075,-0.3496,-0.9209,-0.244,1.953,0.427,-159.390,11.821,-72.609
4891,-0.2080,-0.3491,-0.9209,-0.427,1.953,0.549,-159.395,11.805,-72.625
4901,-0.2070,-0.3491,-0.9214,-0.488,1.709,0.610,-159.401,11.794,-72.636
4911,-0.2051,-0.3486,-0.9248,-0.427,1.160,0.610,-159.406,11.783,-72.647
4921,-0.2061,-0.3472,-0.9219,-0.183,0.488,0.732,-159.406,11.783,-72.653
4931,-0.2036,-0.3486,-0.9233,0.122,0.122,0.610,-159.406,11.783,-72.658
4941,-0.2026,-0.3467,-0.9233,0.366,0.000,0.366,-159.406,11.783,-72.664
4951,-0.2021,-0.3477,-0.9238,0.488,-0.122,0.305,-159.401,11.783,-72.664
4961,-0.2046,-0.3472,-0.9209,0.732,-0.122,0.488,-159.390,11.783,-72.669
4971,-0.2041,-0.3491,-0.9180,1.099,-0.244,0.671,-159.379,11.788,-72.675
4981,-0.2051,-0.3501,-0.9170,1.404,-0.366,0.793,-159.362,11.794,-72.680
4991,-0.2051,-0.3486,-0.9165,1.465,-0.366,0.854,-159.351,11.799,-72.691
5001,-0.2031,-0.3491,-0.9160,1.404,-0.183,0.793,-159.335,11.805,-72.697
5011,-0.2041,-0.3467,-0.9165,1.282,0.244,0.793,-159.324,11.805,-72.702
5021,-0.2046,-0.3457,-0.9141,1.221,0.732,0.793,-159.313,11.799,-72.713
5031,-0.2017,-0.3442,-0.9136,1.343,1.282,0.793,-159.302,11.788,-72.729
5041,-0.1987,-0.3481,-0.9121,1.465,1.526,0.793,-159.291,11.777,-72.740
5051,-0.1982,-0.3486,-0.9136,1.343,1.709,0.610,-159.274,11.761,-72.751
5061,-0.1997,-0.3477,-0.9121,1.099,2.258,0.549,-159.269,11.739,-72.768
5071,-0.2007,-0.3452,-0.9121,1.160,3.235,0.549,-159.258,11.711,-72.784
5081,-0.1992,-0.3462,-0.9116,1.587,4.700,0.427,-159.247,11.667,-72.801
5091,-0.1992,-0.3477,-0.9131,1.648,5.981,0.305,-159.236,11.607,-72.828
5101,-0.1973,-0.3477,-0.9160,1.282,6.958,0.305,-159.225,11.547,-72.856
5111,-0.1953,-0.3472,-0.9180,0.671,7.324,0.549,-159.225,11.475,-72.889
5121,-0.1943,-0.3442,-0.9214,-0.122,6.897,1.099,-159.236,11.415,-72.922
5131,-0.1938,-0.3418,-0.9224,-0.427,5.615,1.526,-159.252,11.365,-72.960
5141,-0.1953,-0.3359,-0.9229,-0.305,3.784,1.648,-159.269,11.332,-72.988
5151,-0.1973,-0.3345,-0.9243,0.000,1.892,1.404,-159.280,11.321,-73.010
5161,-0.1992,-0.3354,-0.9189,0.427,0.488,0.916,-159.285,11.321,-73.021
5171,-0.1987,-0.3389,-0.9199,0.427,-0.183,0.427,-159.285,11.327,-73.021
5181,-0.1992,-0.3433,-0.9194,-0.122,0.000,-0.122,-159.291,11.327,-73.021
5191,-0.1968,-0.3467,-0.9204,-0.916,0.549,-0.427,-159.302,11.321,-73.021
5201,-0.1963,-0.3467,-0.9238,-1.587,0.854,-0.610,-159.318,11.310,-73.015
5211,-0.1973,-0.3481,-0.9238,-1.648,0.793,-0.671,-159.335,11.299,-73.010
5221,-0.1953,-0.3511,-0.9263,-1.343,0.549,-0.671,-159.346,11.288,-73.010
5231,-0.1948,-0.3525,-0.9277,-0.977,0.244,-0.671,-159.351,11.283,-73.004
5241,-0.1963,-0.3545,-0.9263,-0.549,0.061,-0.549,-159.351,11.283,-72.999
5251,-0.1958,-0.3535,-0.9233,0.000,-0.061,-0.244,-159.351,11.277,-72.993
5261,-0.1953,-0.3560,-0.9233,0.488,-0.183,0.000,-159.340,11.277,-72.993
5271,-0.1934,-0.3564,-0.9233,0.793,-0.366,0.305,-159.329,11.283,-72.993
5281,-0.1953,-0.3530,-0.9209,1.099,-0.732,0.671,-159.313,11.288,-72.999
5291,-0.1953,-0.3550,-0.9194,1.282,-0.854,0.854,-159.296,11.299,-73.004
5301,-0.1973,-0.3516,-0.9194,1.282,-0.793,0.854,-159.285,11.310,-73.010
5311,-0.1968,-0.3501,-0.9189,1.160,-0.366,0.854,-159.274,11.316,-73.015
5322,-0.1978,-0.3501,-0.9199,0.854,0.244,0.854,-159.263,11.321,-73.026
5331,-0.1973,-0.3481,-0.9199,0.610,0.793,0.732,-159.263,11.316,-73.037
5341,-0.1978,-0.3467,-0.9209,0.488,1.038,0.732,-159.258,11.305,-73.048
5351,-0.1982,-0.3452,-0.9224,0.610,0.916,0.732,-159.258,11.305,-73.059
5361,-0.1992,-0.3442,-0.9199,0.732,0.549,0.671,-159.252,11.299,-73.065
5371,-0.1968,-0.3442,-0.9199,0.916,0.183,0.610,-159.247,11.299,-73.070
5381,-0.1982,-0.3433,-0.9194,0.916,-0.061,0.671,-159.241,11.305,-73.076
5391,-0.1982,-0.3428,-0.9185,0.671,-0.061,0.671,-159.241,11.310,-73.081
5401,-0.1978,-0.3423,-0.9204,0.366,0.000,0.549,-159.241,11.310,-73.087
5411,-0.1938,-0.3442,-0.9219,0.183,0.061,0.305,-159.241,11.310,-73.092
5421,-0.1948,-0.3447,-0.9189,-0.061,-0.183,0.061,-159.247,11.310,-73.092
5431,-0.1934,-0.3467,-0.9185,-0.183,-0.488,-0.183,-159.247,11.316,-73.087
5441,-0.1919,-0.3477,-0.9160,-0.244,-0.916,-0.305,-159.247,11.321,-73.081
5451,-0.1909,-0.3486,-0.9165,-0.244,-1.038,-0.366,-159.247,11.327,-73.076
5461,-0.1929,-0.3506,-0.9185,-0.183,-0.854,-0.305,-159.247,11.332,-73.070
5471,-0.1929,-0.3501,-0.9150,-0.122,-0.488,-0.183,-159.247,11.332,-73.065
5481,-0.1914,-0.3516,-0.9165,0.183,-0.061,-0.061,-159.241,11.327,-73.065
5491,-0.1914,-0.3535,-0.9136,0.305,0.366,0.061,-159.236,11.321,-73.065
5501,-0.1909,-0.3521,-0.9121,0.305,0.671,0.244,-159.230,11.316,-73.070
5511,-0.1943,-0.3511,-0.9150,0.305,0.793,0.427,-159.225,11.310,-73.081
5521,-0.1963,-0.3530,-0.9141,0.427,0.977,0.549,-159.219,11.299,-73.087
5531,-0.1953,-0.3535,-0.9160,0.366,1.160,0.610,-159.214,11.294,-73.098
5541,-0.1953,-0.3525,-0.9175,0.244,1.221,0.671,-159.214,11.283,-73.109
5551,-0.1948,-0.3535,-0.9180,0.244,1.221,0.671,-159.208,11.272,-73.120
5561,-0.1909,-0.3457,-0.9219,0.732,1.221,0.793,-159.208,11.261,-73.130
5571,-0.1895,-0.3525,-0.9199,1.953,1.282,1.099,-159.186,11.250,-73.147
5581,-0.1924,-0.3516,-0.9170,2.625,1.221,1.343,-159.164,11.239,-73.163
5591,-0.1899,-0.3530,-0.9136,3.296,1.099,1.282,-159.131,11.234,-73.180
5601,-0.1953,-0.3530,-0.9121,3.052,1.221,1.465,-159.104,11.228,-73.196
5611,-0.1968,-0.3550,-0.9126,2.747,1.709,1.526,-159.077,11.217,-73.218
5621,-0.1968,-0.3521,-0.9150,1.770,2.197,1.526,-159.060,11.206,-73.240
5631,-0.1958,-0.3506,-0.9185,0.793,2.502,1.282,-159.060,11.190,-73.262
5641,-0.1943,-0.3467,-0.9224,-0.183,2.258,0.916,-159.066,11.168,-73.279
5651,-0.1963,-0.3442,-0.9248,-0.854,1.648,0.671,-159.082,11.157,-73.290
5661,-0.1958,-0.3462,-0.9287,-1.099,1.160,0.549,-159.099,11.151,-73.301
5671,-0.1943,-0.3521,-0.9292,-1.221,0.916,0.244,-159.115,11.140,-73.306
5681,-0.1929,-0.3486,-0.9302,-1.343,0.488,-0.061,-159.131,11.135,-73.306
5691,-0.1929,-0.3481,-0.9282,-1.038,0.122,-0.061,-159.142,11.129,-73.306
5701,-0.1958,-0.3491,-0.9248,-0.366,-0.183,0.183,-159.148,11.135,-73.306
5711,-0.1963,-0.3506,-0.9233,0.427,-0.549,0.366,-159.148,11.140,-73.312
5721,-0.1963,-0.3550,-0.9238,1.160,-0.854,0.488,-159.131,11.151,-73.312
5731,-0.1963,-0.3555,-0.9214,1.648,-0.854,0.610,-159.115,11.162,-73.317
5741,-0.1958,-0.3555,-0.9204,1.648,-0.671,0.793,-159.099,11.173,-73.317
5751,-0.1968,-0.3550,-0.9199,1.343,-0.366,0.854,-159.082,11.179,-73.328
5761,-0.1958,-0.3540,-0.9175,1.038,0.000,0.854,-159.071,11.184,-73.334
5771,-0.1948,-0.3535,-0.9180,0.732,0.122,0.854,-159.066,11.184,-73.345
5781,-0.1953,-0.3486,-0.9199,0.488,0.000,0.854,-159.066,11.190,-73.350
5791,-0.1953,-0.3472,-0.9229,0.549,-0.061,0.916,-159.066,11.195,-73.361
5801,-0.1938,-0.3467,-0.9209,0.610,-0.183,0.793,-159.060,11.195,-73.367
5811,-0.1934,-0.3467,-0.9199,0.732,-0.305,0.671,-159.060,11.201,-73.372
5822,-0.1938,-0.3477,-0.9224,0.793,-0.366,0.488,-159.055,11.206,-73.378
5831,-0.1963,-0.3486,-0.9219,0.732,-0.427,0.305,-159.049,11.212,-73.378
5841,-0.1963,-0.3506,-0.9155,0.427,-0.610,0.244,-159.044,11.217,-73.378
5851,-0.1968,-0.3516,-0.9170,-0.488,-0.977,0.305,-159.049,11.234,-73.378
5861,-0.1982,-0.3521,-0.9141,-0.977,-1.221,0.305,-159.060,11.245,-73.372
5871,-0.1958,-0.3521,-0.9175,-0.732,-0.977,0.183,-159.066,11.255,-73.372
5881,-0.1934,-0.3516,-0.9189,-0.366,-0.549,0.000,-159.066,11.261,-73.372
5891,-0.1899,-0.3521,-0.9165,-0.488,-0.305,0.122,-159.071,11.261,-73.372
5901,-0.1914,-0.3506,-0.9189,-0.488,-0.244,0.244,-159.077,11.261,-73.372
5911,-0.1904,-0.3496,-0.9150,-0.061,-0.183,0.305,-159.077,11.261,-73.372
5921,-0.1899,-0.3511,-0.9165,0.671,-0.122,0.305,-159.071,11.261,-73.378
5931,-0.1875,-0.3516,-0.9141,1.404,-0.122,0.244,-159.060,11.255,-73.378
5941,-0.1865,-0.3550,-0.9072,1.770,-0.305,0.244,-159.038,11.255,-73.378
5951,-0.1855,-0.3535,-0.9048,1.648,-0.244,0.427,-159.016,11.255,-73.383
5961,-0.1875,-0.3496,-0.9063,1.160,0.366,0.610,-159.005,11.250,-73.389
5971,-0.1919,-0.3437,-0.9082,0.732,1.404,0.793,-159.005,11.239,-73.405
5982,-0.1938,-0.3433,-0.9111,0.366,2.747,0.916,-159.005,11.217,-73.422
5991,-0.1924,-0.3350,-0.9175,0.549,3.784,0.854,-159.016,11.184,-73.444
6002,-0.1948,-0.3433,-0.9194,1.160,4.395,0.671,-159.011,11.146,-73.466
6011,-0.1919,-0.3457,-0.9243,0.671,4.395,0.366,-159.016,11.107,-73.488
6021,-0.1909,-0.3442,-0.9292,0.000,4.272,0.000,-159.022,11.063,-73.499
6032,-0.1899,-0.3467,-0.9331,-0.977,3.723,-0.183,-159.044,11.030,-73.515
6042,-0.1914,-0.3472,-0.9365,-2.075,2.686,-0.488,-159.071,10.997,-73.521
6052,-0.1904,-0.3472,-0.9414,-2.930,1.465,-0.977,-159.104,10.981,-73.515
6062,-0.1909,-0.3457,-0.9399,-3.235,0.244,-1.648,-159.142,10.970,-73.499
6072,-0.1895,-0.3491,-0.9404,-2.991,-0.732,-2.136,-159.170,10.964,-73.477
6082,-0.1904,-0.3516,-0.9365,-2.380,-1.465,-2.319,-159.192,10.970,-73.449
6092,-0.1875,-0.3574,-0.9292,-1.526,-1.953,-2.319,-159.197,10.975,-73.422
6102,-0.1885,-0.3604,-0.9253,-0.671,-2.197,-2.136,-159.197,10.986,-73.394
6112,-0.1885,-0.3628,-0.9233,0.000,-2.258,-1.770,-159.186,10.997,-73.367
6122,-0.1895,-0.3652,-0.9189,0.549,-2.136,-1.343,-159.164,11.014,-73.345
6132,-0.1909,-0.3638,-0.9141,0.977,-1.953,-0.977,-159.142,11.030,-73.328
6142,-0.1934,-0.3633,-0.9116,1.343,-1.648,-0.671,-159.120,11.041,-73.317
6152,-0.1958,-0.3628,-0.9102,1.526,-1.465,-0.366,-159.093,11.058,-73.306
6162,-0.1963,-0.3604,-0.9063,1.526,-1.282,0.000,-159.071,11.074,-73.306
6172,-0.1997,-0.3594,-0.9043,1.221,-1.038,0.183,-159.049,11.085,-73.301
6182,-0.1987,-0.3560,-0.9058,0.671,-0.854,0.366,-159.038,11.102,-73.301
6192,-0.2026,-0.3530,-0.9038,0.122,-0.427,0.549,-159.038,11.113,-73.306
6202,-0.2012,-0.3540,-0.9063,-0.366,0.122,0.488,-159.038,11.118,-73.312
6212,-0.2002,-0.3521,-0.9111,-0.854,0.732,0.366,-159.044,11.118,-73.317
6222,-0.1982,-0.3521,-0.9165,-1.038,1.282,0.244,-159.055,11.113,-73.323
6232,-0.1973,-0.3521,-0.9180,-1.160,1.404,0.244,-159.066,11.102,-73.334
6242,-0.1973,-0.3501,-0.9185,-1.160,1.221,0.305,-159.082,11.096,-73.339
6252,-0.1958,-0.3496,-0.9214,-0.854,0.793,0.305,-159.093,11.091,-73.345
6262,-0.1943,-0.3525,-0.9209,-0.488,0.366,0.183,-159.099,11.085,-73.350
6272,-0.1938,-0.3545,-0.9219,-0.366,0.000,0.122,-159.099,11.085,-73.350
6282,-0.1919,-0.3555,-0.9229,-0.427,-0.122,0.122,-159.104,11.085,-73.350
6292,-0.1899,-0.3574,-0.9233,-0.427,-0.122,0.122,-159.104,11.085,-73.350
6302,-0.1914,-0.3540,-0.9219,-0.427,-0.061,0.183,-159.109,11.085,-73.350
6312,-0.1904,-0.3555,-0.9233,-0.183,0.000,0.305,-159.109,11.085,-73.356
6322,-0.1895,-0.3555,-0.9243,0.122,0.061,0.488,-159.109,11.085,-73.361
6332,-0.1919,-0.3525,-0.9248,0.427,-0.061,0.793,-159.104,11.085,-73.367
6342,-0.1909,-0.3491,-0.9248,0.977,-0.366,1.099,-159.099,11.091,-73.378
6352,-0.1914,-0.3477,-0.9224,1.465,-0.488,1.221,-159.088,11.102,-73.389
6362,-0.1924,-0.3486,-0.9204,1.831,-0.427,1.160,-159.071,11.107,-73.394
6372,-0.1909,-0.3467,-0.9175,1.648,-0.366,1.038,-159.060,11.113,-73.405
6382,-0.1909,-0.3472,-0.9155,1.343,-0.183,0.916,-159.049,11.118,-73.411
6392,-0.1929,-0.3477,-0.9146,0.793,0.000,0.671,-159.044,11.124,-73.416
6402,-0.1919,-0.3472,-0.9116,0.000,0.122,0.366,-159.049,11.124,-73.422
6412,-0.1909,-0.3481,-0.9160,-0.854,0.366,0.122,-159.060,11.118,-73.427
6422,-0.1904,-0.3467,-0.9170,-1.343,0.610,-0.061,-159.071,11.113,-73.427
6432,-0.1914,-0.3467,-0.9209,-1.526,0.732,-0.183,-159.093,11.102,-73.427
6442,-0.1904,-0.3481,-0.9243,-1.404,0.671,-0.183,-159.109,11.091,-73.427
6452,-0.1895,-0.3477,-0.9263,-1.038,0.610,-0.183,-159.120,11.085,-73.427
6462,-0.1909,-0.3481,-0.9233,-0.549,0.427,-0.122,-159.131,11.080,-73.427
6472,-0.1899,-0.3496,-0.9224,-0.061,0.122,-0.122,-159.131,11.074,-73.427
6482,-0.1895,-0.3506,-0.9199,0.183,-0.305,-0.122,-159.131,11.074,-73.427
6492,-0.1914,-0.3516,-0.9170,0.305,-0.610,-0.122,-159.126,11.080,-73.422
6502,-0.1924,-0.3501,-0.9189,0.183,-0.732,-0.183,-159.120,11.085,-73.416
6512,-0.1943,-0.3506,-0.9165,0.061,-0.671,-0.061,-159.120,11.096,-73.416
6522,-0.1943,-0.3545,-0.9185,-0.122,-0.366,-0.122,-159.120,11.096,-73.411
6532,-0.1924,-0.3555,-0.9170,-0.366,-0.122,-0.244,-159.120,11.096,-73.411
6542,-0.1899,-0.3540,-0.9180,-0.610,0.183,-0.122,-159.120,11.091,-73.411
6552,-0.1904,-0.3545,-0.9194,-0.854,0.427,0.061,-159.131,11.091,-73.411
6562,-0.1899,-0.3501,-0.9204,-0.854,0.610,0.244,-159.137,11.080,-73.416
6572,-0.1919,-0.3472,-0.9219,-0.488,0.549,0.488,-159.148,11.080,-73.422
6582,-0.1934,-0.3452,-0.9194,0.244,0.305,0.549,-159.148,11.080,-73.427
6592,-0.1938,-0.3457,-0.9199,0.916,0.061,0.488,-159.142,11.080,-73.433
6602,-0.1963,-0.3467,-0.9150,1.160,-0.183,0.244,-159.131,11.085,-73.438
6612,-0.1938,-0.3481,-0.9150,0.977,-0.305,-0.122,-159.126,11.091,-73.433
6622,-0.1914,-0.3481,-0.9146,0.366,-0.061,-0.549,-159.120,11.085,-73.427
6632,-0.1904,-0.3472,-0.9150,-0.366,0.122,-0.854,-159.120,11.080,-73.422
6642,-0.1890,-0.3481,-0.9160,-0.854,0.061,-1.038,-159.131,11.074,-73.411
6652,-0.1890,-0.3486,-0.9165,-0.977,-0.183,-0.977,-159.137,11.074,-73.400
6662,-0.1919,-0.3501,-0.9170,-0.671,-0.610,-0.732,-159.142,11.074,-73.394
6672,-0.1924,-0.3535,-0.9185,-0.061,-0.854,-0.610,-159.137,11.080,-73.383
6682,-0.1929,-0.3550,-0.9146,0.305,-0.916,-0.549,-159.131,11.085,-73.372
6692,-0.1919,-0.3560,-0.9126,0.366,-0.671,-0.427,-159.120,11.091,-73.367
6702,-0.1899,-0.3584,-0.9165,0.000,-0.244,-0.244,-159.115,11.091,-73.367
6712,-0.1929,-0.3569,-0.9180,-0.427,0.183,-0.061,-159.115,11.091,-73.367
6722,-0.1914,-0.3564,-0.9224,-0.732,0.366,0.061,-159.120,11.085,-73.367
6732,-0.1924,-0.3540,-0.9248,-0.793,0.549,0.122,-159.131,11.080,-73.367
6742,-0.1963,-0.3540,-0.9243,-0.427,0.549,0.061,-159.131,11.074,-73.372
6752,-0.1934,-0.3550,-0.9238,-0.183,0.366,0.061,-159.131,11.074,-73.372
6762,-0.1924,-0.3550,-0.9233,0.000,0.305,0.122,-159.131,11.069,-73.378
6772,-0.1929,-0.3540,-0.9229,0.000,0.183,0.244,-159.131,11.069,-73.378
6782,-0.1943,-0.3530,-0.9238,0.061,0.183,0.488,-159.131,11.069,-73.383
6792,-0.1934,-0.3516,-0.9214,0.305,0.244,0.671,-159.131,11.069,-73.394
6802,-0.1982,-0.3511,-0.9204,0.732,0.305,0.732,-159.126,11.074,-73.400
6812,-0.1987,-0.3496,-0.9185,0.977,0.305,0.793,-159.115,11.074,-73.411
6823,-0.1973,-0.3501,-0.9185,0.854,0.244,0.732,-159.109,11.080,-73.416
6832,-0.1973,-0.3477,-0.9214,0.366,0.183,0.549,-159.109,11.080,-73.422
6842,-0.1973,-0.3486,-0.9185,-0.183,0.244,0.488,-159.115,11.085,-73.427
6852,-0.1943,-0.3477,-0.9194,-0.732,0.366,0.366,-159.126,11.085,-73.433
6862,-0.1934,-0.3472,-0.9248,-0.916,0.488,0.366,-159.137,11.080,-73.438
6872,-0.1909,-0.3506,-0.9258,-0.732,0.549,0.244,-159.148,11.074,-73.444
6882,-0.1895,-0.3516,-0.9272,-0.366,0.427,0.183,-159.153,11.069,-73.444
6892,-0.1880,-0.3491,-0.9248,-0.061,0.122,0.305,-159.153,11.063,-73.449
6902,-0.1914,-0.3496,-0.9248,0.305,-0.305,0.427,-159.153,11.069,-73.449
6912,-0.1904,-0.3486,-0.9199,0.549,-0.610,0.488,-159.148,11.074,-73.455
6922,-0.1919,-0.3486,-0.9175,0.671,-0.732,0.427,-159.142,11.085,-73.455
6932,-0.1919,-0.3481,-0.9185,0.793,-0.549,0.366,-159.137,11.091,-73.455
6942,-0.1924,-0.3481,-0.9199,0.793,-0.305,0.244,-159.131,11.091,-73.460
6952,-0.1934,-0.3511,-0.9170,0.671,-0.122,0.183,-159.120,11.096,-73.460
6962,-0.1929,-0.3511,-0.9194,0.366,-0.061,0.122,-159.120,11.096,-73.460
6972,-0.1919,-0.3521,-0.9189,-0.061,-0.122,0.122,-159.120,11.096,-73.460
6982,-0.1914,-0.3511,-0.9204,-0.366,-0.183,0.183,-159.120,11.096,-73.460
6992,-0.1899,-0.3516,-0.9194,-0.427,-0.366,0.183,-159.126,11.102,-73.460
7002,-0.1890,-0.3501,-0.9194,-0.183,-0.488,0.183,-159.126,11.102,-73.460
7012,-0.1904,-0.3501,-0.9199,0.122,-0.488,0.183,-159.126,11.107,-73.460
7022,-0.1875,-0.3511,-0.9189,0.427,-0.610,0.244,-159.120,11.107,-73.466
7032,-0.1885,-0.3511,-0.9180,0.671,-0.793,0.244,-159.115,11.118,-73.460
7042,-0.1914,-0.3516,-0.9150,0.854,-0.916,0.244,-159.104,11.124,-73.460
7052,-0.1953,-0.3491,-0.9170,0.916,-0.916,0.122,-159.099,11.135,-73.460
7062,-0.1958,-0.3501,-0.9180,0.977,-0.671,0.061,-159.088,11.140,-73.455
7072,-0.1943,-0.3521,-0.9165,0.916,-0.366,-0.061,-159.077,11.146,-73.455
7082,-0.1958,-0.3525,-0.9155,0.854,-0.244,-0.244,-159.066,11.151,-73.455
7092,-0.1938,-0.3545,-0.9170,0.671,-0.305,-0.488,-159.055,11.151,-73.449
7102,-0.1919,-0.3501,-0.9199,0.366,-0.244,-0.610,-159.055,11.151,-73.438
7112,-0.1934,-0.3511,-0.9229,0.244,-0.122,-0.610,-159.049,11.146,-73.433
7122,-0.1929,-0.3486,-0.9243,0.549,-0.122,-0.427,-159.049,11.146,-73.427
7132,-0.1958,-0.3477,-0.9214,1.099,-0.366,-0.305,-159.038,11.151,-73.427
7142,-0.1958,-0.3481,-0.9214,1.648,-0.793,-0.244,-159.022,11.157,-73.422
7152,-0.1948,-0.3496,-0.9170,1.892,-1.038,-0.305,-159.005,11.168,-73.411
7162,-0.1943,-0.3540,-0.9141,1.343,-1.160,-0.366,-158.989,11.173,-73.405
7172,-0.1934,-0.3550,-0.9136,0.366,-1.099,-0.549,-158.978,11.184,-73.394
7182,-0.1914,-0.3560,-0.9131,-0.732,-0.793,-0.610,-158.983,11.190,-73.389
7192,-0.1909,-0.3535,-0.9136,-1.343,-0.366,-0.610,-158.994,11.190,-73.378
7202,-0.1899,-0.3540,-0.9170,-1.221,0.000,-0.549,-159.005,11.184,-73.372
7212,-0.1904,-0.3540,-0.9204,-0.916,0.305,-0.427,-159.011,11.173,-73.372
7222,-0.1899,-0.3560,-0.9199,-0.610,0.366,-0.305,-159.016,11.168,-73.372
7232,-0.1909,-0.3579,-0.9214,-0.427,0.549,-0.244,-159.016,11.162,-73.372
7242,-0.1895,-0.3594,-0.9224,-0.427,0.793,-0.183,-159.016,11.151,-73.372
7252,-0.1904,-0.3584,-0.9219,-0.488,0.977,0.000,-159.022,11.140,-73.372
7262,-0.1909,-0.3555,-0.9224,-0.305,1.038,0.183,-159.022,11.129,-73.378
7272,-0.1914,-0.3535,-0.9258,-0.122,0.854,0.427,-159.027,11.118,-73.389
7282,-0.1919,-0.3511,-0.9229,0.305,0.427,0.488,-159.027,11.113,-73.394
7292,-0.1934,-0.3516,-0.9248,0.610,0.061,0.427,-159.022,11.113,-73.400
7302,-0.1938,-0.3477,-0.9263,0.916,-0.305,0.305,-159.016,11.118,-73.400
7312,-0.1953,-0.3486,-0.9233,1.160,-0.610,0.183,-159.011,11.124,-73.400
7323,-0.1973,-0.3481,-0.9209,1.221,-0.793,0.000,-159.000,11.135,-73.394
7332,-0.1982,-0.3481,-0.9199,1.038,-0.916,-0.122,-158.994,11.146,-73.394
7342,-0.1973,-0.3525,-0.9185,0.854,-0.916,-0.305,-158.983,11.157,-73.383
7352,-0.1978,-0.3530,-0.9175,0.427,-0.977,-0.305,-158.978,11.168,-73.378
7362,-0.1958,-0.3535,-0.9185,0.000,-0.916,-0.305,-158.972,11.173,-73.372
7372,-0.1953,-0.3545,-0.9180,-0.183,-0.793,-0.244,-158.972,11.179,-73.367
7382,-0.1943,-0.3540,-0.9189,-0.122,-0.732,-0.122,-158.972,11.184,-73.361
7392,-0.1948,-0.3540,-0.9209,0.061,-0.610,-0.061,-158.972,11.190,-73.361
7402,-0.1948,-0.3535,-0.9194,0.427,-0.610,0.061,-158.967,11.195,-73.361
7412,-0.1929,-0.3574,-0.9189,0.671,-0.427,0.122,-158.961,11.201,-73.361
7422,-0.1904,-0.3628,-0.9189,0.671,-0.244,0.244,-158.950,11.201,-73.361
7432,-0.1885,-0.3618,-0.9165,0.427,-0.305,0.366,-158.939,11.201,-73.361
7442,-0.1914,-0.3579,-0.9194,0.305,-0.305,0.732,-158.934,11.206,-73.367
7452,-0.1943,-0.3555,-0.9209,0.366,-0.366,0.916,-158.934,11.212,-73.378
7462,-0.1982,-0.3545,-0.9199,0.732,-0.305,0.916,-158.928,11.217,-73.383
7472,-0.1987,-0.3545,-0.9199,1.099,-0.122,0.854,-158.917,11.223,-73.389
7482,-0.2007,-0.3545,-0.9180,1.282,0.000,0.732,-158.906,11.228,-73.400
7492,-0.1987,-0.3560,-0.9150,1.221,0.000,0.732,-158.895,11.234,-73.405
7502,-0.1978,-0.3555,-0.9150,0.916,-0.122,0.732,-158.884,11.239,-73.411
7512,-0.1973,-0.3540,-0.9141,0.244,-0.427,0.671,-158.884,11.250,-73.416
7522,-0.1978,-0.3521,-0.9136,0.122,-0.549,0.610,-158.884,11.255,-73.422
7532,-0.1982,-0.3501,-0.9141,0.183,-0.732,0.671,-158.884,11.266,-73.422
7542,-0.1968,-0.3521,-0.9141,0.427,-0.549,0.671,-158.879,11.277,-73.427
7552,-0.1958,-0.3535,-0.9126,0.732,-0.488,0.549,-158.873,11.283,-73.433
7562,-0.1948,-0.3530,-0.9131,0.793,-0.488,0.427,-158.868,11.288,-73.433
7572,-0.1973,-0.3521,-0.9116,0.732,-0.427,0.366,-158.857,11.294,-73.438
7582,-0.1982,-0.3545,-0.9121,0.671,-0.427,0.427,-158.851,11.305,-73.438
7592,-0.1958,-0.3569,-0.9126,0.488,-0.244,0.488,-158.846,11.305,-73.444
7602,-0.1958,-0.3569,-0.9102,0.427,-0.183,0.488,-158.840,11.310,-73.444
7612,-0.1938,-0.3550,-0.9102,0.366,-0.122,0.610,-158.835,11.310,-73.449
7622,-0.1934,-0.3579,-0.9106,0.122,0.000,0.732,-158.835,11.316,-73.460
7632,-0.1934,-0.3574,-0.9106,-0.122,0.305,0.671,-158.835,11.310,-73.466
7642,-0.1929,-0.3550,-0.9111,-0.305,0.610,0.671,-158.835,11.305,-73.466
7652,-0.1919,-0.3516,-0.9146,-0.366,0.793,0.916,-158.840,11.299,-73.466
7662,-0.1929,-0.3486,-0.9150,-0.122,0.854,1.099,-158.851,11.294,-73.482
7672,-0.1938,-0.3477,-0.9165,0.244,0.854,1.160,-158.851,11.288,-73.493
7682,-0.1943,-0.3477,-0.9180,0.488,0.732,1.038,-158.857,11.288,-73.504
7692,-0.1953,-0.3491,-0.9199,0.549,0.549,0.793,-158.857,11.283,-73.515
7702,-0.1968,-0.3496,-0.9199,0.305,0.305,0.549,-158.857,11.283,-73.521
7712,-0.1963,-0.3506,-0.9209,-0.061,0.244,0.183,-158.862,11.283,-73.526
7722,-0.1948,-0.3496,-0.9180,-0.549,0.183,-0.122,-158.868,11.277,-73.526
7732,-0.1924,-0.3496,-0.9209,-0.854,0.183,-0.427,-158.879,11.272,-73.521
7742,-0.1924,-0.3511,-0.9209,-0.916,0.061,-0.549,-158.890,11.266,-73.515
7752,-0.1934,-0.3540,-0.9209,-0.793,-0.061,-0.671,-158.901,11.266,-73.510
7762,-0.1909,-0.3545,-0.9209,-0.610,0.000,-0.610,-158.906,11.261,-73.504
7772,-0.1899,-0.3555,-0.9204,-0.305,0.061,-0.488,-158.906,11.255,-73.499
7782,-0.1895,-0.3560,-0.9204,0.122,0.366,-0.366,-158.906,11.245,-73.499
7792,-0.1890,-0.3540,-0.9219,0.610,0.549,-0.061,-158.901,11.234,-73.499
7802,-0.1895,-0.3525,-0.9214,0.916,0.488,0.183,-158.890,11.228,-73.504
7812,-0.1880,-0.3496,-0.9204,0.977,0.244,0.183,-158.884,11.223,-73.504
7823,-0.1895,-0.3525,-0.9214,0.977,0.122,-0.061,-158.879,11.217,-73.504
7832,-0.1890,-0.3545,-0.9189,0.671,-0.122,-0.427,-158.873,11.212,-73.499
7842,-0.1914,-0.3535,-0.9214,0.366,-0.061,-0.732,-158.868,11.212,-73.493
7852,-0.1885,-0.3555,-0.9224,0.305,0.183,-0.793,-158.862,11.201,-73.488
7862,-0.1919,-0.3569,-0.9248,0.366,0.366,-0.671,-158.857,11.190,-73.482
7872,-0.1963,-0.3535,-0.9214,0.977,1.099,-0.732,-158.851,11.179,-73.477
7882,-0.1987,-0.3506,-0.9194,1.221,1.770,-0.793,-158.840,11.162,-73.477
7892,-0.1914,-0.3608,-0.9146,1.587,2.014,-0.732,-158.824,11.140,-73.477
7902,-0.1958,-0.3550,-0.9160,1.160,1.465,-0.488,-158.807,11.129,-73.477
7912,-0.1982,-0.3555,-0.9097,0.732,0.244,-0.244,-158.802,11.129,-73.477
7922,-0.2002,-0.3613,-0.9038,0.305,-0.671,-0.122,-158.791,11.140,-73.471
7932,-0.2046,-0.3560,-0.9058,-1.221,-1.099,-0.488,-158.802,11.151,-73.466
7942,-0.2012,-0.3550,-0.9063,-2.747,-0.671,-0.916,-158.824,11.162,-73.455
7952,-0.2002,-0.3535,-0.9116,-3.723,0.305,-0.916,-158.857,11.162,-73.444
7962,-0.1978,-0.3511,-0.9165,-4.089,1.282,-0.854,-158.901,11.146,-73.444
7972,-0.1963,-0.3521,-0.9199,-3.601,1.953,-0.854,-158.934,11.129,-73.444
7982,-0.1938,-0.3530,-0.9233,-2.808,1.953,-0.854,-158.967,11.107,-73.438
7992,-0.1938,-0.3550,-0.9253,-2.197,1.587,-0.610,-158.989,11.091,-73.438
8002,-0.1919,-0.3564,-0.9272,-1.770,0.916,-0.305,-159.005,11.080,-73.438
8012,-0.1938,-0.3579,-0.9243,-1.465,0.366,0.061,-159.016,11.074,-73.444
8022,-0.1953,-0.3550,-0.9248,-1.282,0.061,0.183,-159.033,11.074,-73.444
8032,-0.1963,-0.3501,-0.9214,-0.977,-0.061,0.244,-159.044,11.080,-73.449
8042,-0.1982,-0.3506,-0.9180,-0.488,-0.122,0.244,-159.049,11.085,-73.449
8052,-0.2007,-0.3530,-0.9106,-0.122,-0.122,0.244,-159.049,11.091,-73.449
8062,-0.1997,-0.3569,-0.9092,-0.183,-0.122,0.122,-159.044,11.096,-73.449
8072,-0.1963,-0.3599,-0.9087,-0.854,0.000,-0.061,-159.044,11.102,-73.449
8082,-0.1938,-0.3618,-0.9102,-2.075,0.366,-0.183,-159.060,11.096,-73.449
8092,-0.1934,-0.3579,-0.9150,-3.296,0.977,-0.183,-159.088,11.085,-73.455
8102,-0.1938,-0.3540,-0.9194,-3.845,1.587,0.000,-159.126,11.074,-73.460
8112,-0.1919,-0.3496,-0.9219,-3.479,2.014,0.244,-159.164,11.052,-73.466
8122,-0.1904,-0.3472,-0.9287,-2.441,2.014,0.488,-159.192,11.036,-73.477
8132,-0.1904,-0.3481,-0.9302,-1.160,1.709,0.732,-159.208,11.019,-73.493
8142,-0.1895,-0.3496,-0.9312,-0.061,1.282,0.854,-159.214,11.008,-73.504
8152,-0.1895,-0.3486,-0.9321,0.610,0.916,0.916,-159.214,11.003,-73.515
8162,-0.1885,-0.3486,-0.9307,0.854,0.488,0.793,-159.208,10.997,-73.526
8172,-0.1899,-0.3452,-0.9272,0.793,0.122,0.549,-159.208,10.997,-73.531
8182,-0.1904,-0.3452,-0.9263,0.610,-0.244,0.305,-159.203,10.997,-73.531
8192,-0.1895,-0.3467,-0.9287,0.061,-0.732,0.122,-159.208,11.003,-73.531
8202,-0.1895,-0.3452,-0.9248,-0.305,-1.038,0.061,-159.214,11.014,-73.531
8212,-0.1875,-0.3457,-0.9272,-0.793,-1.282,0.061,-159.225,11.025,-73.526
8222,-0.1885,-0.3413,-0.9253,-0.610,-1.465,0.000,-159.236,11.036,-73.521
8232,-0.1909,-0.3384,-0.9233,0.122,-1.526,-0.122,-159.236,11.047,-73.515
8242,-0.1909,-0.3403,-0.9214,0.549,-1.526,-0.244,-159.236,11.058,-73.504
8252,-0.1899,-0.3423,-0.9160,0.671,-1.526,-0.549,-159.230,11.069,-73.493
8262,-0.1904,-0.3467,-0.9141,0.549,-1.343,-0.732,-159.219,11.080,-73.482
8272,-0.1904,-0.3467,-0.9141,0.183,-1.160,-0.793,-159.219,11.091,-73.471
8282,-0.1909,-0.3472,-0.9141,-0.305,-1.038,-0.916,-159.219,11.096,-73.460
8292,-0.1919,-0.3481,-0.9136,-0.793,-0.732,-1.038,-159.225,11.096,-73.449
8302,-0.1895,-0.3496,-0.9160,-1.099,-0.366,-1.160,-159.230,11.096,-73.433
8312,-0.1909,-0.3496,-0.9165,-1.160,-0.061,-1.160,-159.236,11.091,-73.422
8323,-0.1919,-0.3506,-0.9155,-0.977,0.061,-1.038,-159.241,11.085,-73.411
8332,-0.1899,-0.3530,-0.9165,-0.732,0.183,-0.977,-159.247,11.080,-73.405
8342,-0.1904,-0.3511,-0.9165,-0.488,0.122,-0.854,-159.247,11.074,-73.394
8352,-0.1899,-0.3525,-0.9141,-0.366,-0.061,-0.671,-159.247,11.074,-73.389
8362,-0.1924,-0.3525,-0.9136,-0.244,-0.122,-0.488,-159.247,11.074,-73.383
8372,-0.1958,-0.3535,-0.9150,-0.244,-0.061,-0.427,-159.241,11.074,-73.383
8382,-0.1987,-0.3521,-0.9155,-0.244,0.122,-0.488,-159.241,11.074,-73.378
8392,-0.1973,-0.3525,-0.9175,-0.244,0.305,-0.488,-159.241,11.074,-73.372
8402,-0.1978,-0.3545,-0.9141,-0.366,0.488,-0.488,-159.241,11.069,-73.372
8412,-0.1963,-0.3560,-0.9165,-0.671,0.488,-0.488,-159.241,11.063,-73.367
8422,-0.1943,-0.3530,-0.9185,-0.854,0.366,-0.366,-159.247,11.063,-73.367
8432,-0.1948,-0.3540,-0.9180,-0.854,0.244,-0.244,-159.252,11.058,-73.361
8442,-0.1963,-0.3545,-0.9189,-0.793,0.183,-0.122,-159.252,11.058,-73.361
8452,-0.1958,-0.3555,-0.9209,-0.488,0.305,0.000,-159.258,11.058,-73.367
8462,-0.1958,-0.3530,-0.9204,-0.183,0.488,0.122,-159.258,11.058,-73.367
8472,-0.1953,-0.3550,-0.9204,-0.122,0.549,0.305,-159.252,11.052,-73.372
8482,-0.1953,-0.3555,-0.9180,-0.183,0.366,0.549,-159.252,11.052,-73.378
8492,-0.1958,-0.3545,-0.9180,-0.122,0.122,0.610,-159.252,11.058,-73.383
8502,-0.1934,-0.3535,-0.9189,-0.061,-0.061,0.488,-159.252,11.058,-73.389
8512,-0.1948,-0.3516,-0.9199,-0.061,-0.122,0.427,-159.252,11.063,-73.394
8522,-0.1958,-0.3506,-0.9189,0.122,0.061,0.427,-159.247,11.069,-73.400
8532,-0.1948,-0.3491,-0.9189,0.244,0.427,0.488,-159.247,11.063,-73.405
8542,-0.1934,-0.3521,-0.9180,0.366,0.610,0.610,-159.241,11.063,-73.411
8552,-0.1934,-0.3501,-0.9185,0.366,0.549,0.732,-159.241,11.063,-73.422
8562,-0.1953,-0.3511,-0.9189,0.427,0.610,0.854,-159.236,11.058,-73.433
8572,-0.1968,-0.3486,-0.9233,0.305,0.854,0.854,-159.236,11.058,-73.444
8582,-0.1968,-0.3486,-0.9263,0.244,1.038,0.671,-159.236,11.052,-73.455
8592,-0.1948,-0.3481,-0.9282,0.427,0.916,0.549,-159.236,11.047,-73.460
8602,-0.1899,-0.3472,-0.9302,0.671,0.244,0.366,-159.236,11.041,-73.466
8612,-0.1919,-0.3467,-0.9297,1.099,-0.732,0.305,-159.225,11.052,-73.466
8622,-0.1924,-0.3481,-0.9287,1.587,-1.648,0.244,-159.214,11.063,-73.460
8632,-0.1938,-0.3516,-0.9229,2.014,-2.075,0.183,-159.192,11.085,-73.455
8642,-0.1943,-0.3550,-0.9204,2.258,-2.014,0.122,-159.164,11.107,-73.449
8652,-0.1919,-0.3560,-0.9165,2.136,-1.587,0.244,-159.137,11.118,-73.444
8662,-0.1904,-0.3564,-0.9141,1.709,-0.916,0.488,-159.115,11.129,-73.449
8672,-0.1914,-0.3574,-0.9141,1.221,-0.305,0.793,-159.099,11.135,-73.455
8682,-0.1919,-0.3560,-0.9165,1.282,0.122,1.099,-159.088,11.135,-73.466
8692,-0.1899,-0.3535,-0.9189,1.404,0.244,1.282,-159.077,11.135,-73.477
8702,-0.1875,-0.3535,-0.9194,1.465,0.000,1.404,-159.060,11.135,-73.493
8712,-0.1895,-0.3525,-0.9175,1.404,-0.366,1.404,-159.049,11.146,-73.504
8722,-0.1890,-0.3496,-0.9141,0.977,-0.366,1.465,-159.044,11.151,-73.515
8732,-0.1919,-0.3511,-0.9150,0.122,-0.244,1.465,-159.044,11.157,-73.531
8742,-0.1934,-0.3486,-0.9170,-0.549,-0.183,1.465,-159.055,11.162,-73.542
8752,-0.1958,-0.3442,-0.9189,-0.183,0.366,1.282,-159.060,11.168,-73.553
8762,-0.1948,-0.3437,-0.9155,0.549,1.038,0.916,-159.060,11.162,-73.570
8772,-0.1943,-0.3442,-0.9146,0.732,1.282,0.671,-159.060,11.151,-73.581
8782,-0.1938,-0.3467,-0.9126,0.488,1.282,0.488,-159.055,11.140,-73.586
8792,-0.1919,-0.3472,-0.9121,0.183,1.343,0.488,-159.060,11.129,-73.597
8802,-0.1948,-0.3506,-0.9121,-0.122,1.343,0.427,-159.060,11.124,-73.608
8812,-0.1929,-0.3511,-0.9160,-0.549,1.343,0.305,-159.066,11.113,-73.614
8823,-0.1914,-0.3506,-0.9170,-1.038,1.343,0.122,-159.077,11.096,-73.619
8832,-0.1914,-0.3496,-0.9185,-1.282,1.404,0.183,-159.093,11.085,-73.630
8842,-0.1909,-0.3511,-0.9180,-1.282,1.526,0.305,-159.109,11.069,-73.636
8852,-0.1895,-0.3516,-0.9175,-0.916,1.587,0.366,-159.115,11.058,-73.647
8862,-0.1899,-0.3521,-0.9180,-0.427,1.526,0.549,-159.120,11.041,-73.658
8872,-0.1890,-0.3564,-0.9189,0.122,1.648,0.671,-159.120,11.025,-73.669
8882,-0.1885,-0.3540,-0.9214,0.244,1.526,0.793,-159.120,11.014,-73.680
8892,-0.1899,-0.3540,-0.9209,0.305,1.282,0.916,-159.115,11.003,-73.696
8902,-0.1919,-0.3525,-0.9175,0.366,1.282,1.038,-159.115,10.997,-73.707
8912,-0.1899,-0.3506,-0.9175,0.366,1.282,1.099,-159.115,10.986,-73.724
8922,-0.1929,-0.3472,-0.9185,0.183,1.404,1.038,-159.115,10.981,-73.740
8932,-0.1924,-0.3477,-0.9209,-0.122,1.526,0.916,-159.120,10.970,-73.757
8942,-0.1914,-0.3467,-0.9194,-0.244,1.648,0.854,-159.131,10.959,-73.768
8952,-0.1885,-0.3481,-0.9194,-0.305,1.770,0.732,-159.137,10.942,-73.784
8962,-0.1865,-0.3472,-0.9199,-0.366,1.587,0.671,-159.142,10.931,-73.795
8972,-0.1880,-0.3442,-0.9238,-0.549,1.404,0.671,-159.153,10.915,-73.806
8982,-0.1880,-0.3428,-0.9233,-0.549,1.160,0.671,-159.170,10.909,-73.817
8992,-0.1885,-0.3423,-0.9209,-0.366,0.977,0.671,-159.181,10.898,-73.828
9002,-0.1890,-0.3418,-0.9204,-0.183,0.854,0.549,-159.186,10.893,-73.834
9012,-0.1885,-0.3433,-0.9189,-0.183,0.916,0.305,-159.192,10.887,-73.839
9022,-0.1875,-0.3477,-0.9194,-0.305,1.038,0.183,-159.197,10.876,-73.845
9032,-0.1855,-0.3472,-0.9189,-0.793,1.099,0.061,-159.208,10.865,-73.850
9042,-0.1841,-0.3486,-0.9219,-1.343,1.038,-0.061,-159.219,10.854,-73.856
9052,-0.1851,-0.3486,-0.9253,-1.709,0.854,-0.122,-159.241,10.844,-73.856
9062,-0.1865,-0.3477,-0.9287,-1.648,0.793,-0.244,-159.258,10.833,-73.856
9072,-0.1855,-0.3491,-0.9272,-1.221,0.732,-0.244,-159.274,10.822,-73.856
9082,-0.1865,-0.3511,-0.9258,-0.732,0.610,-0.122,-159.280,10.816,-73.856
9092,-0.1831,-0.3535,-0.9277,-0.122,0.427,0.000,-159.280,10.805,-73.861
9102,-0.1821,-0.3525,-0.9253,0.183,0.244,0.061,-159.274,10.800,-73.861
9112,-0.1802,-0.3511,-0.9268,0.244,0.061,0.244,-159.274,10.794,-73.861
9122,-0.1816,-0.3496,-0.9282,0.183,-0.061,0.427,-159.274,10.794,-73.867
9132,-0.1846,-0.3462,-0.9229,0.366,-0.183,0.549,-159.274,10.794,-73.872
9142,-0.1875,-0.3428,-0.9219,0.854,-0.427,0.549,-159.269,10.800,-73.878
9152,-0.1890,-0.3442,-0.9194,1.343,-0.732,0.427,-159.258,10.811,-73.878
9162,-0.1904,-0.3437,-0.9131,1.526,-0.793,0.183,-159.241,10.822,-73.878
9172,-0.1904,-0.3481,-0.9102,1.221,-0.671,0.000,-159.230,10.827,-73.872
9182,-0.1895,-0.3511,-0.9097,0.366,-0.305,-0.183,-159.219,10.833,-73.872
9192,-0.1890,-0.3496,-0.9150,-0.671,0.061,-0.244,-159.225,10.833,-73.867
9202,-0.1875,-0.3477,-0.9209,-1.404,0.488,-0.366,-159.241,10.827,-73.867
9212,-0.1880,-0.3472,-0.9253,-1.770,0.732,-0.366,-159.258,10.816,-73.867
9222,-0.1875,-0.3462,-0.9277,-1.587,0.793,-0.305,-159.280,10.811,-73.867
9232,-0.1865,-0.3481,-0.9277,-0.977,0.671,-0.305,-159.291,10.800,-73.867
9242,-0.1875,-0.3486,-0.9287,-0.488,0.366,-0.305,-159.296,10.794,-73.861
9252,-0.1860,-0.3501,-0.9292,-0.183,-0.061,-0.122,-159.296,10.794,-73.861
9262,-0.1860,-0.3506,-0.9287,-0.061,-0.427,0.122,-159.296,10.794,-73.861
9272,-0.1870,-0.3481,-0.9287,-0.183,-0.610,0.244,-159.302,10.800,-73.861
9282,-0.1870,-0.3477,-0.9258,-0.122,-0.671,0.122,-159.302,10.805,-73.861
9292,-0.1855,-0.3477,-0.9243,0.000,-0.610,-0.061,-159.302,10.811,-73.856
9302,-0.1904,-0.3467,-0.9204,0.183,-0.732,-0.244,-159.302,10.816,-73.850
9312,-0.1895,-0.3496,-0.9229,0.305,-0.854,-0.366,-159.296,10.827,-73.845
9323,-0.1880,-0.3496,-0.9189,0.305,-0.916,-0.366,-159.291,10.833,-73.839
9332,-0.1895,-0.3516,-0.9170,0.244,-0.916,-0.305,-159.285,10.838,-73.834
9342,-0.1909,-0.3521,-0.9185,0.122,-0.793,-0.305,-159.280,10.849,-73.828
9352,-0.1919,-0.3545,-0.9165,0.061,-0.488,-0.183,-159.274,10.854,-73.823
9362,-0.1909,-0.3525,-0.9170,-0.061,-0.183,0.000,-159.274,10.854,-73.823
9372,-0.1904,-0.3511,-0.9194,-0.183,0.122,0.000,-159.274,10.854,-73.823
9382,-0.1890,-0.3530,-0.9185,-0.305,0.366,0.183,-159.274,10.854,-73.828
9392,-0.1895,-0.3506,-0.9199,-0.488,0.488,0.366,-159.280,10.849,-73.834
9402,-0.1904,-0.3501,-0.9214,-0.427,0.488,0.549,-159.280,10.849,-73.839
9412,-0.1890,-0.3501,-0.9199,-0.366,0.427,0.427,-159.285,10.849,-73.845
9422,-0.1899,-0.3481,-0.9229,-0.244,0.244,0.305,-159.291,10.849,-73.850
9432,-0.1870,-0.3496,-0.9214,-0.244,0.061,0.183,-159.291,10.844,-73.850
9442,-0.1855,-0.3496,-0.9219,-0.366,-0.122,0.183,-159.296,10.844,-73.850
9452,-0.1875,-0.3516,-0.9204,-0.427,-0.183,0.244,-159.296,10.849,-73.856
9462,-0.1895,-0.3496,-0.9219,-0.244,-0.244,0.305,-159.296,10.849,-73.856
9472,-0.1904,-0.3486,-0.9219,0.000,-0.183,0.366,-159.302,10.854,-73.856
9482,-0.1904,-0.3486,-0.9233,0.427,0.000,0.305,-159.296,10.854,-73.861
9492,-0.1890,-0.3501,-0.9233,0.732,0.061,0.305,-159.291,10.854,-73.867
9502,-0.1880,-0.3506,-0.9189,0.854,0.000,0.366,-159.280,10.860,-73.867
9512,-0.1895,-0.3491,-0.9189,0.671,-0.061,0.488,-159.274,10.860,-73.872
9522,-0.1919,-0.3491,-0.9185,0.427,-0.183,0.549,-159.269,10.865,-73.878
9532,-0.1914,-0.3477,-0.9189,0.122,0.000,0.549,-159.269,10.871,-73.883
9542,-0.1904,-0.3472,-0.9209,-0.122,0.305,0.427,-159.269,10.871,-73.889
9552,-0.1909,-0.3462,-0.9224,-0.183,0.549,0.366,-159.274,10.865,-73.894
9562,-0.1890,-0.3467,-0.9229,-0.244,0.732,0.305,-159.280,10.860,-73.900
9572,-0.1890,-0.3481,-0.9253,-0.305,0.671,0.366,-159.285,10.854,-73.905
9582,-0.1885,-0.3477,-0.9258,-0.244,0.427,0.366,-159.291,10.849,-73.911
9592,-0.1895,-0.3467,-0.9287,0.000,0.122,0.366,-159.291,10.849,-73.911
9602,-0.1885,-0.3511,-0.9243,0.122,-0.183,0.305,-159.291,10.854,-73.916
9612,-0.1885,-0.3486,-0.9253,0.122,-0.183,0.244,-159.291,10.854,-73.916
9622,-0.1895,-0.3462,-0.9238,0.122,0.000,0.244,-159.291,10.854,-73.922
9632,-0.1895,-0.3486,-0.9243,0.244,0.122,0.183,-159.291,10.854,-73.922
9642,-0.1895,-0.3521,-0.9233,0.183,0.122,0.122,-159.285,10.854,-73.922
9652,-0.1875,-0.3535,-0.9229,0.183,0.061,0.122,-159.285,10.854,-73.927
9662,-0.1880,-0.3501,-0.9268,0.122,-0.183,0.244,-159.280,10.854,-73.927
9672,-0.1899,-0.3496,-0.9253,0.244,-0.427,0.427,-159.280,10.860,-73.927
9682,-0.1899,-0.3506,-0.9253,0.488,-0.427,0.427,-159.274,10.865,-73.932
9692,-0.1904,-0.3511,-0.9214,0.732,-0.427,0.427,-159.269,10.871,-73.932
9702,-0.1875,-0.3496,-0.9233,0.916,-0.488,0.427,-159.258,10.876,-73.938
9712,-0.1865,-0.3506,-0.9199,0.793,-0.488,0.427,-159.252,10.882,-73.938
9722,-0.1885,-0.3486,-0.9180,0.549,-0.427,0.488,-159.247,10.887,-73.943
9732,-0.1880,-0.3462,-0.9194,0.305,-0.305,0.427,-159.241,10.893,-73.943
9742,-0.1880,-0.3447,-0.9189,0.366,-0.183,0.488,-159.241,10.893,-73.949
9752,-0.1895,-0.3437,-0.9170,0.610,-0.244,0.488,-159.241,10.898,-73.954
9762,-0.1895,-0.3452,-0.9136,0.977,-0.244,0.366,-159.230,10.904,-73.954
9772,-0.1904,-0.3462,-0.9136,0.916,-0.244,0.183,-159.219,10.909,-73.954
9782,-0.1904,-0.3477,-0.9146,0.549,-0.061,-0.061,-159.214,10.909,-73.954
9792,-0.1890,-0.3472,-0.9131,-0.122,0.183,-0.183,-159.214,10.904,-73.954
9802,-0.1880,-0.3462,-0.9155,-0.793,0.488,-0.244,-159.225,10.898,-73.954
9812,-0.1870,-0.3467,-0.9160,-1.221,0.549,-0.244,-159.236,10.893,-73.954
9823,-0.1865,-0.3447,-0.9199,-1.160,0.427,-0.305,-159.252,10.887,-73.949
9832,-0.1885,-0.3437,-0.9165,-0.671,0.305,-0.305,-159.258,10.882,-73.949
9842,-0.1870,-0.3477,-0.9131,-0.305,0.305,-0.427,-159.258,10.876,-73.949
9852,-0.1860,-0.3481,-0.9141,-0.122,0.366,-0.549,-159.258,10.871,-73.943
9862,-0.1870,-0.3496,-0.9116,-0.305,0.488,-0.549,-159.258,10.865,-73.938
9872,-0.1865,-0.3506,-0.9121,-0.732,0.671,-0.488,-159.263,10.860,-73.938
9882,-0.1890,-0.3535,-0.9092,-0.732,0.977,-0.366,-159.263,10.849,-73.938
9892,-0.1855,-0.3525,-0.9102,-1.099,0.793,-0.305,-159.274,10.838,-73.938
9902,-0.1865,-0.3525,-0.9136,-1.465,0.793,-0.061,-159.285,10.833,-73.938
9912,-0.1865,-0.3516,-0.9116,-1.343,1.099,0.122,-159.296,10.822,-73.943
9922,-0.1865,-0.3530,-0.9165,-1.221,1.465,0.183,-159.302,10.805,-73.943
9932,-0.1802,-0.3574,-0.9209,-1.099,1.709,0.000,-159.313,10.789,-73.943
9942,-0.1777,-0.3594,-0.9272,-1.221,1.587,0.000,-159.318,10.767,-73.943
9952,-0.1743,-0.3564,-0.9351,-1.404,1.099,0.244,-159.329,10.745,-73.943
9962,-0.1733,-0.3525,-0.9419,-1.099,0.366,0.732,-159.346,10.739,-73.943
9972,-0.1772,-0.3481,-0.9448,-0.122,-0.427,1.038,-159.351,10.739,-73.954
9982,-0.1821,-0.3394,-0.9395,1.404,-1.282,1.160,-159.346,10.750,-73.960
9992,-0.1865,-0.3359,-0.9316,3.235,-1.831,1.160,-159.324,10.767,-73.965
10002,-0.1919,-0.3335,-0.9194,4.761,-2.075,1.038,-159.285,10.794,-73.965
10012,-0.1958,-0.3364,-0.9116,5.310,-1.709,0.793,-159.236,10.822,-73.965
10022,-0.2002,-0.3403,-0.9038,4.578,-0.854,0.244,-159.192,10.838,-73.965
10032,-0.2065,-0.3418,-0.8999,2.563,0.427,-0.427,-159.170,10.844,-73.965
10042,-0.2095,-0.3462,-0.9077,-0.305,1.953,-0.916,-159.170,10.838,-73.960
10052,-0.2075,-0.3496,-0.9170,-3.174,3.479,-1.343,-159.203,10.811,-73.960
10062,-0.2036,-0.3511,-0.9272,-5.432,4.578,-1.526,-159.258,10.772,-73.965
10072,-0.1992,-0.3477,-0.9438,-6.592,4.761,-1.404,-159.329,10.728,-73.965
10082,-0.1953,-0.3486,-0.9526,-6.348,4.089,-1.038,-159.395,10.684,-73.971
10092,-0.1943,-0.3442,-0.9536,-4.211,3.357,-0.488,-159.445,10.657,-73.982
10102,-0.1938,-0.3467,-0.9575,-2.258,2.136,0.183,-159.478,10.635,-73.987
10112,-0.1909,-0.3452,-0.9536,-0.610,0.854,0.732,-159.494,10.629,-73.998
10122,-0.1899,-0.3477,-0.9448,0.549,-0.305,1.099,-159.489,10.640,-74.009
10132,-0.1875,-0.3501,-0.9409,1.282,-1.465,1.160,-159.478,10.657,-74.015
10142,-0.1875,-0.3521,-0.9316,1.404,-2.502,0.916,-159.467,10.684,-74.015
10152,-0.1851,-0.3545,-0.9263,0.977,-2.869,0.549,-159.450,10.712,-74.009
10162,-0.1812,-0.3589,-0.9214,0.183,-2.686,0.122,-159.439,10.734,-74.004
10172,-0.1802,-0.3599,-0.9204,-0.610,-2.319,-0.183,-159.434,10.750,-73.993
10182,-0.1787,-0.3589,-0.9170,-0.793,-1.892,-0.244,-159.434,10.761,-73.982
10192,-0.1797,-0.3613,-0.9126,-0.366,-1.526,0.061,-159.428,10.772,-73.976
10202,-0.1763,-0.3638,-0.9111,0.488,-0.977,0.549,-159.412,10.778,-73.976
10212,-0.1763,-0.3633,-0.9126,1.221,-0.366,1.160,-159.390,10.778,-73.987
10222,-0.1792,-0.3623,-0.9141,1.770,0.427,1.770,-159.362,10.778,-74.009
10232,-0.1807,-0.3579,-0.9180,2.075,1.404,2.380,-159.340,10.767,-74.037
10242,-0.1792,-0.3525,-0.9180,1.831,2.197,2.686,-159.324,10.750,-74.070
10252,-0.1797,-0.3442,-0.9224,1.404,2.563,2.808,-159.318,10.734,-74.103
10262,-0.1836,-0.3354,-0.9253,1.038,2.380,2.747,-159.324,10.717,-74.141
10272,-0.1860,-0.3262,-0.9258,0.854,1.892,2.441,-159.335,10.712,-74.169
10282,-0.1875,-0.3218,-0.9263,0.916,1.221,2.014,-159.346,10.706,-74.191
10292,-0.1880,-0.3208,-0.9219,1.099,0.488,1.343,-159.351,10.712,-74.207
10302,-0.1904,-0.3242,-0.9194,1.160,-0.122,0.488,-159.351,10.717,-74.213
10312,-0.1899,-0.3281,-0.9146,0.793,-0.427,-0.244,-159.351,10.723,-74.207
10323,-0.1904,-0.3354,-0.9136,0.000,-0.427,-0.854,-159.357,10.728,-74.196
10332,-0.1875,-0.3403,-0.9111,-0.977,-0.305,-1.343,-159.362,10.728,-74.185
10342,-0.1880,-0.3428,-0.9121,-1.831,-0.366,-1.831,-159.379,10.728,-74.163
10352,-0.1851,-0.3428,-0.9160,-2.380,-0.488,-2.075,-159.401,10.723,-74.141
10362,-0.1855,-0.3472,-0.9180,-2.319,-0.549,-2.014,-159.417,10.723,-74.125
10372,-0.1875,-0.3501,-0.9189,-1.831,-0.610,-1.892,-159.428,10.723,-74.103
10382,-0.1865,-0.3516,-0.9170,-1.221,-0.488,-1.587,-159.434,10.723,-74.086
10392,-0.1860,-0.3579,-0.9170,-0.671,-0.122,-1.160,-159.434,10.717,-74.075
10402,-0.1860,-0.3618,-0.9189,-0.427,0.366,-0.793,-159.428,10.712,-74.070
10412,-0.1812,-0.3628,-0.9204,-0.488,0.854,-0.366,-159.423,10.695,-74.070
10422,-0.1812,-0.3594,-0.9214,-0.610,1.160,0.061,-159.423,10.684,-74.070
10432,-0.1816,-0.3604,-0.9209,-0.610,1.465,0.488,-159.423,10.668,-74.081
10442,-0.1841,-0.3589,-0.9204,-0.427,1.526,0.977,-159.423,10.657,-74.097
10452,-0.1836,-0.3594,-0.9189,-0.366,1.465,1.465,-159.417,10.646,-74.114
10462,-0.1836,-0.3555,-0.9185,-0.732,1.709,2.014,-159.428,10.640,-74.141
10472,-0.1841,-0.3496,-0.9219,-1.526,2.258,2.625,-159.445,10.624,-74.174
10482,-0.1821,-0.3447,-0.9268,-2.258,3.113,2.991,-159.478,10.607,-74.213
10492,-0.1797,-0.3359,-0.9331,-2.625,3.845,2.930,-159.516,10.574,-74.257
10502,-0.1782,-0.3301,-0.9380,-2.441,4.028,2.625,-159.560,10.541,-74.295
10512,-0.1753,-0.3276,-0.9419,-2.075,3.479,2.197,-159.598,10.514,-74.328
10522,-0.1787,-0.3242,-0.9429,-1.526,2.502,1.709,-159.631,10.492,-74.355
10532,-0.1787,-0.3232,-0.9399,-0.916,1.282,1.099,-159.659,10.481,-74.366
10542,-0.1792,-0.3267,-0.9395,-0.488,0.061,0.366,-159.675,10.481,-74.372
10552,-0.1792,-0.3301,-0.9355,-0.183,-0.977,-0.366,-159.686,10.486,-74.366
10562,-0.1807,-0.3325,-0.9292,-0.061,-1.648,-0.977,-159.686,10.497,-74.350
10572,-0.1826,-0.3354,-0.9268,0.122,-1.953,-1.343,-159.686,10.508,-74.328
10582,-0.1865,-0.3374,-0.9229,0.305,-1.892,-1.526,-159.681,10.525,-74.312
10592,-0.1880,-0.3413,-0.9194,0.488,-1.709,-1.587,-159.675,10.536,-74.290
10602,-0.1895,-0.3457,-0.9165,0.549,-1.343,-1.709,-159.659,10.547,-74.268
10612,-0.1914,-0.3486,-0.9170,0.305,-0.977,-1.709,-159.648,10.558,-74.246
10622,-0.1904,-0.3525,-0.9170,-0.122,-0.793,-1.587,-159.642,10.563,-74.229
10632,-0.1904,-0.3535,-0.9194,-0.488,-0.732,-1.343,-159.637,10.569,-74.213
10642,-0.1885,-0.3550,-0.9189,-0.732,-0.793,-1.038,-159.631,10.574,-74.202
10652,-0.1885,-0.3555,-0.9224,-0.854,-0.854,-0.732,-159.631,10.585,-74.191
10662,-0.1885,-0.3516,-0.9214,-0.610,-0.671,-0.488,-159.631,10.591,-74.185
10672,-0.1855,-0.3516,-0.9248,-0.244,-0.427,-0.244,-159.631,10.591,-74.180
10682,-0.1870,-0.3555,-0.9263,0.244,-0.366,0.122,-159.620,10.596,-74.180
10692,-0.1841,-0.3545,-0.9233,0.732,-0.488,0.305,-159.609,10.602,-74.180
10702,-0.1865,-0.3535,-0.9204,1.038,-0.793,0.488,-159.593,10.613,-74.185
10712,-0.1865,-0.3525,-0.9243,1.221,-0.916,0.610,-159.576,10.624,-74.185
10722,-0.1875,-0.3521,-0.9229,1.404,-0.854,0.732,-159.560,10.635,-74.191
10732,-0.1890,-0.3511,-0.9248,1.404,-0.671,0.854,-159.543,10.646,-74.196
10742,-0.1855,-0.3511,-0.9224,1.465,-0.366,0.977,-159.527,10.651,-74.202
10752,-0.1846,-0.3486,-0.9243,1.404,-0.183,0.977,-159.510,10.657,-74.213
10762,-0.1860,-0.3472,-0.9243,1.343,-0.122,0.977,-159.500,10.662,-74.218
10772,-0.1860,-0.3433,-0.9258,1.404,-0.122,1.160,-159.489,10.668,-74.229
10782,-0.1836,-0.3437,-0.9272,1.709,-0.183,1.343,-159.472,10.673,-74.246
10792,-0.1836,-0.3437,-0.9248,2.014,-0.366,1.465,-159.456,10.679,-74.257
10802,-0.1831,-0.3389,-0.9233,2.319,-0.671,1.465,-159.439,10.690,-74.268
10812,-0.1860,-0.3374,-0.9233,2.502,-0.793,1.465,-159.423,10.701,-74.279
10823,-0.1885,-0.3394,-0.9185,2.319,-0.793,1.221,-159.406,10.717,-74.290
10832,-0.1875,-0.3394,-0.9160,1.770,-0.488,0.977,-159.390,10.728,-74.295
10842,-0.1865,-0.3433,-0.9175,0.977,-0.244,0.671,-159.384,10.728,-74.301
10852,-0.1870,-0.3413,-0.9209,0.244,-0.061,0.427,-159.384,10.734,-74.306
10862,-0.1860,-0.3418,-0.9194,-0.061,0.061,0.122,-159.390,10.734,-74.306
10872,-0.1851,-0.3452,-0.9209,-0.244,0.122,-0.122,-159.390,10.728,-74.306
10882,-0.1865,-0.3447,-0.9214,-0.305,0.061,-0.305,-159.395,10.728,-74.301
10892,-0.1841,-0.3486,-0.9233,-0.244,0.122,-0.366,-159.395,10.723,-74.301
10902,-0.1821,-0.3521,-0.9243,-0.366,0.061,-0.122,-159.395,10.723,-74.301
10912,-0.1826,-0.3521,-0.9253,-0.305,-0.183,0.122,-159.395,10.723,-74.301
10922,-0.1821,-0.3506,-0.9243,0.000,-0.305,0.427,-159.395,10.723,-74.301
10932,-0.1826,-0.3491,-0.9229,0.549,-0.305,0.671,-159.390,10.723,-74.306
10942,-0.1807,-0.3501,-0.9268,1.099,-0.183,0.977,-159.379,10.728,-74.317
10952,-0.1821,-0.3486,-0.9238,1.404,-0.122,1.282,-159.368,10.728,-74.328
10962,-0.1826,-0.3457,-0.9248,1.526,-0.183,1.404,-159.357,10.734,-74.339
10972,-0.1860,-0.3418,-0.9238,1.709,-0.427,1.465,-159.346,10.739,-74.355
10982,-0.1870,-0.3403,-0.9214,1.709,-0.427,1.404,-159.335,10.750,-74.366
10992,-0.1904,-0.3389,-0.9180,1.526,-0.427,1.221,-159.324,10.761,-74.377
11002,-0.1919,-0.3369,-0.9170,1.282,-0.366,0.977,-159.318,10.772,-74.383
11012,-0.1880,-0.3398,-0.9189,0.854,-0.122,0.610,-159.313,10.778,-74.388
11022,-0.1875,-0.3437,-0.9194,0.061,0.183,0.244,-159.318,10.778,-74.394
11032,-0.1851,-0.3418,-0.9224,-0.916,0.427,0.000,-159.329,10.772,-74.394
11042,-0.1851,-0.3428,-0.9248,-1.404,0.488,-0.183,-159.346,10.767,-74.394
11052,-0.1870,-0.3428,-0.9277,-1.465,0.488,-0.305,-159.362,10.756,-74.394
11062,-0.1885,-0.3398,-0.9253,-1.221,0.366,-0.427,-159.379,10.756,-74.388
11072,-0.1880,-0.3413,-0.9263,-0.732,0.122,-0.488,-159.390,10.750,-74.383
11082,-0.1870,-0.3452,-0.9268,-0.305,0.061,-0.488,-159.395,10.750,-74.383
11092,-0.1855,-0.3472,-0.9263,-0.122,0.061,-0.488,-159.395,10.745,-74.377
11102,-0.1841,-0.3496,-0.9258,-0.061,0.000,-0.427,-159.395,10.739,-74.372
11112,-0.1841,-0.3525,-0.9268,-0.244,-0.122,-0.366,-159.395,10.739,-74.366
11122,-0.1860,-0.3516,-0.9282,-0.366,-0.366,-0.244,-159.395,10.739,-74.366
11132,-0.1851,-0.3511,-0.9258,-0.305,-0.488,-0.244,-159.395,10.745,-74.361
11142,-0.1855,-0.3481,-0.9248,-0.122,-0.671,-0.305,-159.395,10.745,-74.355
11152,-0.1846,-0.3477,-0.9224,0.244,-0.793,-0.305,-159.395,10.750,-74.350
11162,-0.1855,-0.3486,-0.9199,0.671,-0.854,-0.244,-159.384,10.756,-74.344
11172,-0.1875,-0.3486,-0.9175,0.977,-0.854,-0.122,-159.373,10.767,-74.339
11182,-0.1880,-0.3521,-0.9155,1.038,-0.671,0.000,-159.357,10.772,-74.339
11192,-0.1914,-0.3496,-0.9131,0.854,-0.488,0.183,-159.346,10.783,-74.339
11202,-0.1904,-0.3516,-0.9150,0.610,-0.305,0.305,-159.335,10.789,-74.339
11212,-0.1914,-0.3525,-0.9126,0.427,0.000,0.366,-159.329,10.789,-74.344
11222,-0.1943,-0.3516,-0.9155,0.183,0.183,0.427,-159.324,10.794,-74.344
11232,-0.1929,-0.3491,-0.9155,-0.061,0.427,0.488,-159.324,10.794,-74.355
11242,-0.1948,-0.3501,-0.9146,-0.122,0.671,0.610,-159.324,10.794,-74.361
11252,-0.1914,-0.3491,-0.9185,-0.183,0.854,0.671,-159.324,10.794,-74.372
11262,-0.1904,-0.3491,-0.9214,-0.183,0.916,0.549,-159.329,10.789,-74.377
11272,-0.1899,-0.3472,-0.9214,-0.122,0.854,0.488,-159.329,10.783,-74.388
11282,-0.1880,-0.3452,-0.9248,-0.183,0.793,0.488,-159.335,10.778,-74.394
11292,-0.1855,-0.3462,-0.9287,-0.122,0.671,0.427,-159.340,10.772,-74.399
11302,-0.1860,-0.3457,-0.9297,-0.061,0.427,0.305,-159.346,10.767,-74.405
11312,-0.1841,-0.3452,-0.9277,0.000,0.244,0.244,-159.346,10.761,-74.410
11323,-0.1846,-0.3467,-0.9297,0.122,-0.061,0.061,-159.346,10.761,-74.410
11332,-0.1826,-0.3481,-0.9297,0.122,-0.305,0.000,-159.346,10.761,-74.410
11342,-0.1802,-0.3491,-0.9326,0.183,-0.427,-0.122,-159.346,10.761,-74.405
11352,-0.1831,-0.3511,-0.9351,0.183,-0.488,-0.122,-159.346,10.761,-74.405
11362,-0.1802,-0.3486,-0.9360,0.305,-0.671,-0.122,-159.346,10.761,-74.399
11372,-0.1802,-0.3472,-0.9336,0.732,-1.038,0.061,-159.340,10.767,-74.394
11382,-0.1816,-0.3467,-0.9326,1.221,-1.648,0.244,-159.329,10.778,-74.394
11392,-0.1851,-0.3423,-0.9272,2.075,-2.136,0.427,-159.313,10.794,-74.388
11402,-0.1870,-0.3413,-0.9175,2.808,-2.441,0.488,-159.285,10.822,-74.383
11412,-0.1909,-0.3437,-0.9116,3.052,-2.441,0.488,-159.252,10.849,-74.383
11422,-0.1909,-0.3457,-0.9058,2.747,-2.014,0.366,-159.225,10.871,-74.377
11432,-0.1895,-0.3462,-0.9004,1.770,-1.404,0.183,-159.203,10.887,-74.372
11442,-0.1909,-0.3452,-0.8975,0.488,-0.916,0.122,-159.197,10.898,-74.372
11452,-0.1934,-0.3394,-0.8960,-0.610,-0.427,0.000,-159.203,10.909,-74.372
11462,-0.1973,-0.3364,-0.8955,-1.221,0.000,-0.061,-159.219,10.915,-74.366
11472,-0.1997,-0.3369,-0.8926,-1.404,0.549,-0.183,-159.230,10.920,-74.366
11482,-0.2041,-0.3389,-0.8921,-1.648,1.404,-0.488,-159.247,10.915,-74.372
11492,-0.2036,-0.3457,-0.8955,-2.319,2.625,-1.038,-159.269,10.898,-74.366
11502,-0.2017,-0.3530,-0.9014,-3.784,3.845,-1.648,-159.296,10.865,-74.366
11512,-0.1958,-0.3569,-0.9116,-5.554,4.883,-2.197,-159.346,10.816,-74.366
11522,-0.1924,-0.3604,-0.9209,-7.080,5.310,-2.380,-159.406,10.761,-74.361
11532,-0.1885,-0.3613,-0.9341,-7.751,5.005,-2.197,-159.478,10.706,-74.355
11542,-0.1855,-0.3599,-0.9453,-7.324,4.089,-1.892,-159.549,10.657,-74.355
11552,-0.1787,-0.3628,-0.9521,-5.615,2.930,-1.343,-159.598,10.618,-74.350
11562,-0.1777,-0.3633,-0.9507,-3.235,1.770,-0.610,-159.626,10.596,-74.350
11572,-0.1753,-0.3633,-0.9502,-0.610,0.549,0.183,-159.626,10.580,-74.355
11582,-0.1777,-0.3633,-0.9473,1.770,-0.427,1.099,-159.604,10.585,-74.366
11592,-0.1782,-0.3608,-0.9395,3.479,-1.099,1.892,-159.565,10.596,-74.377
11602,-0.1831,-0.3569,-0.9302,4.395,-1.526,2.441,-159.521,10.613,-74.394
11612,-0.1870,-0.3535,-0.9243,4.517,-1.587,2.625,-159.478,10.640,-74.416
11622,-0.1895,-0.3506,-0.9170,3.906,-1.099,2.502,-159.434,10.662,-74.438
11632,-0.1875,-0.3496,-0.9150,2.747,-0.366,2.197,-159.406,10.673,-74.454
11642,-0.1875,-0.3457,-0.9185,1.343,0.427,1.892,-159.401,10.679,-74.476
11652,-0.1865,-0.3408,-0.9224,0.244,1.099,1.770,-159.401,10.673,-74.498
11662,-0.1851,-0.3369,-0.9258,-0.122,1.465,1.770,-159.417,10.668,-74.520
11672,-0.1846,-0.3350,-0.9282,0.122,1.465,1.831,-159.423,10.657,-74.542
11682,-0.1831,-0.3369,-0.9312,0.793,1.282,1.770,-159.428,10.651,-74.564
11692,-0.1826,-0.3369,-0.9277,1.160,1.160,1.709,-159.428,10.646,-74.581
11702,-0.1802,-0.3374,-0.9302,1.221,1.099,1.587,-159.423,10.635,-74.603
11712,-0.1772,-0.3359,-0.9331,0.854,1.099,1.526,-159.428,10.629,-74.619
11722,-0.1802,-0.3330,-0.9326,0.183,0.977,1.343,-159.439,10.618,-74.636
11732,-0.1787,-0.3301,-0.9346,-0.366,0.732,1.038,-159.456,10.613,-74.647
11742,-0.1777,-0.3296,-0.9331,-0.671,0.305,0.671,-159.472,10.607,-74.658
11752,-0.1787,-0.3296,-0.9336,-0.366,-0.183,0.244,-159.489,10.607,-74.658
11762,-0.1787,-0.3330,-0.9312,0.305,-0.732,-0.244,-159.494,10.607,-74.652
11772,-0.1797,-0.3350,-0.9302,0.793,-1.221,-0.549,-159.489,10.613,-74.641
11782,-0.1792,-0.3398,-0.9233,1.160,-1.526,-0.793,-159.478,10.624,-74.630
11792,-0.1802,-0.3447,-0.9189,1.038,-1.648,-0.977,-159.467,10.635,-74.614
11802,-0.1821,-0.3457,-0.9150,0.610,-1.648,-1.038,-159.456,10.646,-74.597
11812,-0.1841,-0.3467,-0.9146,0.183,-1.404,-0.977,-159.450,10.651,-74.586
11823,-0.1860,-0.3481,-0.9121,-0.183,-0.977,-0.854,-159.445,10.662,-74.575
11832,-0.1865,-0.3477,-0.9102,-0.366,-0.366,-0.732,-159.445,10.662,-74.564
11842,-0.1860,-0.3486,-0.9121,-0.488,0.244,-0.671,-159.445,10.662,-74.559
11852,-0.1875,-0.3511,-0.9121,-0.488,0.732,-0.488,-159.445,10.657,-74.559
11862,-0.1895,-0.3535,-0.9141,-0.610,1.038,-0.305,-159.445,10.646,-74.559
11872,-0.1890,-0.3511,-0.9209,-0.854,1.038,-0.183,-159.450,10.640,-74.559
11882,-0.1885,-0.3511,-0.9219,-0.977,0.916,0.000,-159.456,10.629,-74.564
11892,-0.1890,-0.3501,-0.9209,-0.854,0.671,0.244,-159.461,10.629,-74.570
11902,-0.1870,-0.3486,-0.9224,-0.488,0.305,0.427,-159.467,10.629,-74.575
11912,-0.1880,-0.3477,-0.9219,-0.061,0.000,0.549,-159.467,10.629,-74.581
11922,-0.1860,-0.3452,-0.9204,0.549,-0.244,0.671,-159.461,10.635,-74.586
11932,-0.1880,-0.3457,-0.9209,1.160,-0.366,0.671,-159.450,10.646,-74.592
11942,-0.1895,-0.3491,-0.9194,1.526,-0.488,0.671,-159.434,10.657,-74.592
11952,-0.1899,-0.3501,-0.9155,1.587,-0.427,0.671,-159.417,10.662,-74.597
11962,-0.1909,-0.3506,-0.9131,1.221,-0.366,0.732,-159.401,10.673,-74.603
11972,-0.1899,-0.3511,-0.9102,0.610,-0.244,0.916,-159.390,10.684,-74.614
11982,-0.1895,-0.3477,-0.9150,0.122,-0.122,1.160,-159.390,10.690,-74.625
11992,-0.1895,-0.3447,-0.9180,0.122,0.122,1.282,-159.390,10.695,-74.636
12002,-0.1899,-0.3452,-0.9199,0.427,0.366,1.282,-159.390,10.701,-74.647
12012,-0.1895,-0.3433,-0.9204,0.916,0.366,1.343,-159.384,10.701,-74.663
12022,-0.1875,-0.3457,-0.9199,1.221,0.366,1.465,-159.373,10.706,-74.680
12032,-0.1890,-0.3447,-0.9199,1.221,0.183,1.648,-159.368,10.712,-74.696
12042,-0.1890,-0.3442,-0.9199,1.160,-0.122,1.770,-159.362,10.723,-74.713
12052,-0.1885,-0.3433,-0.9214,1.038,-0.183,1.709,-159.357,10.728,-74.729
12062,-0.1875,-0.3423,-0.9160,0.977,-0.122,1.526,-159.351,10.739,-74.740
12072,-0.1851,-0.3462,-0.9175,0.671,0.061,1.221,-159.346,10.739,-74.751
12082,-0.1841,-0.3496,-0.9170,0.244,0.366,0.916,-159.340,10.739,-74.762
12092,-0.1831,-0.3491,-0.9175,-0.427,0.732,0.793,-159.346,10.734,-74.773
12102,-0.1807,-0.3521,-0.9204,-0.854,1.160,0.610,-159.351,10.723,-74.784
12112,-0.1777,-0.3506,-0.9238,-1.465,1.404,0.488,-159.368,10.706,-74.795
12122,-0.1792,-0.3486,-0.9253,-1.709,1.526,0.488,-159.390,10.690,-74.800
12132,-0.1807,-0.3481,-0.9292,-1.465,1.770,0.366,-159.406,10.668,-74.811
12142,-0.1802,-0.3491,-0.9292,-1.038,1.892,0.366,-159.417,10.651,-74.822
12152,-0.1777,-0.3530,-0.9312,-0.671,2.014,0.305,-159.423,10.624,-74.833
12162,-0.1772,-0.3535,-0.9355,-0.610,1.953,0.305,-159.428,10.602,-74.844
12173,-0.1738,-0.3501,-0.9380,-0.916,1.770,0.366,-159.439,10.580,-74.855
12183,-0.1753,-0.3467,-0.9399,-1.099,1.526,0.427,-159.456,10.563,-74.861
12192,-0.1768,-0.3428,-0.9434,-0.854,1.282,0.427,-159.472,10.547,-74.872
12202,-0.1777,-0.3384,-0.9443,-0.305,0.916,0.366,-159.483,10.530,-74.877
12213,-0.1812,-0.3359,-0.9395,0.549,0.427,0.244,-159.489,10.525,-74.883
12223,-0.1831,-0.3354,-0.9360,1.526,-0.183,0.244,-159.483,10.530,-74.883
12233,-0.1841,-0.3364,-0.9336,2.258,-0.793,0.183,-159.467,10.536,-74.883
12243,-0.1870,-0.3398,-0.9263,2.441,-1.343,0.061,-159.445,10.552,-74.877
12252,-0.1851,-0.3418,-0.9204,2.014,-1.526,-0.183,-159.428,10.569,-74.872
12262,-0.1846,-0.3403,-0.9170,1.221,-1.404,-0.305,-159.412,10.580,-74.861
12272,-0.1860,-0.3418,-0.9160,0.549,-1.038,-0.366,-159.406,10.591,-74.855
12283,-0.1875,-0.3423,-0.9155,0.183,-0.549,-0.244,-159.406,10.596,-74.850
12293,-0.1860,-0.3437,-0.9116,-0.061,-0.122,-0.244,-159.406,10.596,-74.850
12302,-0.1870,-0.3433,-0.9121,-0.061,0.183,-0.244,-159.406,10.602,-74.844
12313,-0.1875,-0.3477,-0.9146,-0.061,0.305,-0.122,-159.406,10.596,-74.844
12323,-0.1846,-0.3477,-0.9150,-0.244,0.549,0.000,-159.406,10.596,-74.850
12332,-0.1846,-0.3521,-0.9155,-0.671,0.916,0.061,-159.406,10.585,-74.855
12342,-0.1807,-0.3506,-0.9214,-1.343,1.343,0.000,-159.423,10.574,-74.855
12353,-0.1802,-0.3452,-0.9248,-1.831,1.404,0.061,-159.439,10.558,-74.861
12363,-0.1821,-0.3428,-0.9272,-1.465,1.282,0.183,-159.461,10.547,-74.872
12373,-0.1851,-0.3457,-0.9292,-0.793,0.793,0.183,-159.467,10.536,-74.872
12383,-0.1851,-0.3477,-0.9292,-0.244,0.244,-0.061,-159.472,10.536,-74.872
12393,-0.1860,-0.3447,-0.9277,-0.061,-0.061,-0.244,-159.472,10.536,-74.872
12403,-0.1860,-0.3457,-0.9263,-0.061,-0.122,-0.366,-159.472,10.536,-74.866
12413,-0.1860,-0.3477,-0.9263,-0.366,-0.122,-0.549,-159.478,10.536,-74.861
12423,-0.1885,-0.3486,-0.9268,-0.732,-0.061,-0.671,-159.483,10.536,-74.855
12433,-0.1875,-0.3481,-0.9282,-0.977,0.061,-0.793,-159.489,10.536,-74.850
12443,-0.1851,-0.3477,-0.9302,-0.916,0.122,-0.732,-159.494,10.536,-74.844
12453,-0.1831,-0.3447,-0.9316,-0.610,-0.061,-0.488,-159.505,10.530,-74.839
12463,-0.1846,-0.3413,-0.9297,0.061,-0.610,-0.183,-159.505,10.536,-74.833
12473,-0.1860,-0.3413,-0.9282,0.793,-1.282,0.122,-159.500,10.552,-74.828
12483,-0.1890,-0.3403,-0.9238,1.404,-1.953,0.244,-159.489,10.574,-74.822
12493,-0.1890,-0.3423,-0.9160,1.526,-2.136,0.305,-159.472,10.596,-74.822
12503,-0.1875,-0.3428,-0.9150,1.160,-1.953,0.183,-159.461,10.618,-74.817
12513,-0.1880,-0.3452,-0.9170,0.366,-1.404,0.122,-159.456,10.635,-74.811
12523,-0.1860,-0.3423,-0.9199,-0.427,-0.916,0.061,-159.461,10.646,-74.806
12533,-0.1865,-0.3398,-0.9209,-0.916,-0.427,0.000,-159.472,10.651,-74.806
12543,-0.1865,-0.3389,-0.9272,-1.160,-0.366,-0.122,-159.489,10.651,-74.806
12553,-0.1885,-0.3394,-0.9292,-1.038,-0.305,-0.366,-159.500,10.657,-74.800
12563,-0.1890,-0.3428,-0.9341,-0.916,-0.244,-0.732,-159.510,10.657,-74.789
12573,-0.1870,-0.3452,-0.9380,-0.977,-0.061,-0.977,-159.521,10.651,-74.784
12583,-0.1851,-0.3472,-0.9443,-1.343,0.122,-1.160,-159.538,10.646,-74.773
12593,-0.1797,-0.3477,-0.9526,-1.587,0.000,-1.465,-159.554,10.635,-74.756
12603,-0.1768,-0.3442,-0.9565,-1.526,-0.427,-1.587,-159.571,10.624,-74.740
12613,-0.1748,-0.3408,-0.9585,-0.977,-1.160,-1.587,-159.587,10.624,-74.724
12623,-0.1753,-0.3374,-0.9551,0.305,-2.075,-1.465,-159.587,10.629,-74.702
12633,-0.1787,-0.3374,-0.9478,1.831,-3.052,-1.404,-159.576,10.646,-74.674
12643,-0.1792,-0.3398,-0.9399,3.113,-3.784,-1.526,-159.543,10.673,-74.647
12653,-0.1812,-0.3423,-0.9292,3.662,-4.211,-1.648,-159.505,10.701,-74.619
12663,-0.1807,-0.3467,-0.9136,3.357,-4.211,-1.831,-159.461,10.734,-74.586
12673,-0.1841,-0.3467,-0.9019,2.258,-3.967,-1.892,-159.428,10.761,-74.553
12683,-0.1870,-0.3477,-0.8975,1.038,-3.418,-1.892,-159.406,10.789,-74.520
12693,-0.1890,-0.3496,-0.8931,-0.122,-2.625,-1.953,-159.395,10.811,-74.493
12703,-0.1885,-0.3501,-0.8940,-1.099,-1.831,-2.136,-159.395,10.822,-74.465
12713,-0.1865,-0.3506,-0.8970,-1.892,-1.160,-2.136,-159.401,10.827,-74.443
12723,-0.1846,-0.3521,-0.9019,-2.258,-0.671,-2.136,-159.412,10.827,-74.421
12733,-0.1846,-0.3521,-0.9028,-2.258,-0.671,-2.075,-159.423,10.827,-74.399
12743,-0.1836,-0.3540,-0.9072,-1.709,-1.038,-1.892,-159.428,10.827,-74.377
12753,-0.1836,-0.3535,-0.9102,-0.732,-1.465,-1.648,-159.423,10.833,-74.355
12763,-0.1870,-0.3555,-0.9087,0.305,-1.709,-1.526,-159.412,10.844,-74.333
12773,-0.1885,-0.3594,-0.9072,1.160,-1.587,-1.404,-159.384,10.854,-74.317
12783,-0.1899,-0.3608,-0.9077,1.404,-1.099,-1.282,-159.357,10.860,-74.301
12793,-0.1924,-0.3623,-0.9102,0.977,-0.488,-1.099,-159.335,10.865,-74.290
12803,-0.1938,-0.3618,-0.9155,0.183,0.305,-0.916,-159.324,10.860,-74.279
12813,-0.1948,-0.3569,-0.9199,-0.610,0.916,-0.610,-159.324,10.854,-74.279
12823,-0.1963,-0.3521,-0.9248,-0.916,1.160,-0.244,-159.329,10.844,-74.279
12833,-0.1973,-0.3467,-0.9282,-0.427,0.977,0.183,-159.340,10.844,-74.284
12843,-0.2007,-0.3481,-0.9268,0.305,0.610,0.549,-159.335,10.844,-74.290
12853,-0.2026,-0.3447,-0.9258,1.038,0.244,0.732,-159.329,10.849,-74.301
12863,-0.2021,-0.3428,-0.9233,1.343,0.183,0.732,-159.324,10.860,-74.306
12873,-0.2002,-0.3457,-0.9219,1.038,0.366,0.549,-159.313,10.865,-74.312
12883,-0.1997,-0.3452,-0.9194,0.244,0.671,0.305,-159.313,10.865,-74.317
12893,-0.1982,-0.3447,-0.9238,-0.671,0.671,0.061,-159.324,10.865,-74.323
12903,-0.1973,-0.3457,-0.9229,-1.221,0.549,-0.122,-159.335,10.865,-74.323
12913,-0.1948,-0.3467,-0.9229,-1.221,0.366,-0.244,-159.351,10.865,-74.323
12923,-0.1934,-0.3521,-0.9248,-0.977,0.244,-0.122,-159.357,10.860,-74.323
12933,-0.1909,-0.3535,-0.9268,-0.488,0.305,-0.061,-159.357,10.860,-74.323
12943,-0.1895,-0.3589,-0.9272,0.000,0.549,0.244,-159.357,10.854,-74.328
12953,-0.1890,-0.3594,-0.9282,0.305,0.549,0.671,-159.346,10.849,-74.333
12963,-0.1880,-0.3560,-0.9268,0.488,0.427,1.099,-159.340,10.849,-74.344
12973,-0.1875,-0.3545,-0.9229,0.732,0.183,1.465,-159.335,10.849,-74.361
12983,-0.1885,-0.3516,-0.9229,0.977,-0.122,1.770,-159.324,10.860,-74.377
12993,-0.1880,-0.3477,-0.9209,1.282,-0.366,1.953,-159.318,10.865,-74.394
13003,-0.1880,-0.3472,-0.9229,1.526,-0.305,2.014,-159.307,10.876,-74.416
13013,-0.1880,-0.3481,-0.9194,1.587,-0.122,1.892,-159.291,10.882,-74.432
13023,-0.1875,-0.3501,-0.9170,1.343,0.061,1.587,-159.280,10.887,-74.449
13033,-0.1860,-0.3486,-0.9185,0.793,0.244,1.404,-159.274,10.887,-74.460
13043,-0.1841,-0.3477,-0.9194,0.183,0.122,1.282,-159.274,10.893,-74.471
13053,-0.1846,-0.3486,-0.9189,0.061,0.122,1.160,-159.274,10.893,-74.487
13063,-0.1846,-0.3496,-0.9175,0.183,0.183,1.099,-159.274,10.893,-74.498
13073,-0.1836,-0.3511,-0.9189,0.427,0.244,1.160,-159.269,10.887,-74.509
13083,-0.1826,-0.3525,-0.9175,0.793,0.427,1.282,-159.263,10.887,-74.520
13093,-0.1851,-0.3491,-0.9155,1.099,0.671,1.465,-159.252,10.882,-74.537
13103,-0.1841,-0.3477,-0.9150,1.282,0.793,1.648,-159.241,10.876,-74.559
13113,-0.1870,-0.3457,-0.9155,1.343,0.854,1.831,-159.236,10.876,-74.575
13123,-0.1870,-0.3442,-0.9194,1.160,1.038,1.831,-159.230,10.871,-74.597
13133,-0.1875,-0.3418,-0.9199,0.732,1.160,1.831,-159.230,10.865,-74.619
13143,-0.1904,-0.3398,-0.9209,0.366,1.282,1.648,-159.236,10.865,-74.641
13153,-0.1904,-0.3384,-0.9233,0.000,1.343,1.465,-159.247,10.854,-74.658
13163,-0.1890,-0.3389,-0.9229,-0.244,1.282,1.099,-159.258,10.849,-74.674
13173,-0.1890,-0.3359,-0.9243,-0.244,1.099,0.854,-159.269,10.844,-74.685
13183,-0.1875,-0.3384,-0.9229,-0.305,0.854,0.671,-159.280,10.838,-74.696
13193,-0.1880,-0.3389,-0.9238,-0.305,0.610,0.488,-159.291,10.833,-74.702
13203,-0.1880,-0.3408,-0.9302,-0.366,0.427,0.366,-159.302,10.827,-74.707
13213,-0.1880,-0.3442,-0.9302,-0.366,0.366,0.305,-159.307,10.827,-74.713
13223,-0.1865,-0.3447,-0.9302,-0.488,0.366,0.061,-159.318,10.822,-74.713
13233,-0.1855,-0.3472,-0.9312,-0.610,0.305,0.000,-159.324,10.816,-74.713
13243,-0.1855,-0.3467,-0.9292,-0.488,0.183,0.061,-159.335,10.811,-74.718
13253,-0.1831,-0.3481,-0.9268,-0.061,0.061,0.183,-159.335,10.811,-74.718
13263,-0.1831,-0.3481,-0.9292,0.427,-0.061,0.183,-159.329,10.805,-74.718
13273,-0.1841,-0.3472,-0.9277,0.854,-0.122,0.244,-159.324,10.805,-74.724
13283,-0.1831,-0.3486,-0.9272,1.160,-0.122,0.244,-159.313,10.805,-74.724
13293,-0.1851,-0.3506,-0.9238,1.343,-0.183,0.183,-159.302,10.805,-74.724
13303,-0.1851,-0.3535,-0.9233,1.099,-0.427,0.183,-159.285,10.805,-74.724
13313,-0.1836,-0.3550,-0.9233,0.488,-0.732,0.183,-159.280,10.811,-74.724
13323,-0.1826,-0.3545,-0.9263,0.122,-0.916,0.122,-159.274,10.816,-74.724
13333,-0.1812,-0.3530,-0.9253,0.061,-0.854,0.122,-159.274,10.822,-74.718
13343,-0.1777,-0.3516,-0.9263,0.000,-0.854,0.183,-159.269,10.822,-74.718
13353,-0.1812,-0.3496,-0.9248,-0.061,-1.221,0.366,-159.274,10.833,-74.718
13363,-0.1836,-0.3457,-0.9214,0.366,-1.282,0.549,-159.269,10.844,-74.718
13373,-0.1860,-0.3437,-0.9204,1.160,-1.160,0.610,-159.263,10.854,-74.718
13383,-0.1895,-0.3428,-0.9141,1.770,-1.099,0.610,-159.247,10.865,-74.724
13393,-0.1914,-0.3433,-0.9087,1.953,-0.854,0.549,-159.230,10.876,-74.724
13403,-0.1938,-0.3437,-0.9087,1.465,-0.488,0.366,-159.214,10.887,-74.724
13413,-0.1963,-0.3433,-0.9087,0.549,-0.122,0.122,-159.208,10.898,-74.724
13423,-0.1968,-0.3418,-0.9087,-0.610,0.305,-0.183,-159.219,10.898,-74.724
13433,-0.1982,-0.3398,-0.9126,-1.587,0.610,-0.549,-159.236,10.898,-74.724
13443,-0.1948,-0.3369,-0.9185,-2.075,0.610,-0.916,-159.263,10.893,-74.718
13453,-0.1953,-0.3403,-0.9194,-2.075,0.366,-1.160,-159.285,10.887,-74.707
13463,-0.1948,-0.3433,-0.9219,-1.770,0.000,-1.221,-159.302,10.887,-74.696
13473,-0.1943,-0.3491,-0.9243,-1.465,-0.183,-1.404,-159.313,10.887,-74.680
13483,-0.1934,-0.3550,-0.9238,-1.221,-0.244,-1.526,-159.318,10.882,-74.663
13493,-0.1914,-0.3604,-0.9238,-1.221,0.061,-1.526,-159.324,10.876,-74.652
13503,-0.1895,-0.3618,-0.9268,-1.282,0.305,-1.343,-159.329,10.871,-74.641
13513,-0.1860,-0.3628,-0.9287,-1.160,0.305,-0.854,-159.329,10.860,-74.630
13523,-0.1836,-0.3643,-0.9292,-0.671,0.061,-0.366,-159.329,10.854,-74.630
13533,-0.1855,-0.3633,-0.9292,-0.061,-0.366,0.122,-159.324,10.854,-74.630
13543,-0.1841,-0.3608,-0.9277,0.793,-0.732,0.549,-159.313,10.860,-74.630
13553,-0.1865,-0.3574,-0.9263,1.526,-0.732,0.916,-159.291,10.871,-74.636
13563,-0.1899,-0.3540,-0.9219,1.892,-0.488,1.221,-159.274,10.876,-74.647
13573,-0.1914,-0.3501,-0.9214,2.075,-0.122,1.526,-159.252,10.887,-74.663
13583,-0.1895,-0.3486,-0.9204,1.953,0.061,1.648,-159.236,10.893,-74.680
13593,-0.1895,-0.3457,-0.9180,1.526,0.061,1.648,-159.225,10.898,-74.691
13603,-0.1899,-0.3462,-0.9189,1.099,-0.122,1.465,-159.219,10.904,-74.707
13613,-0.1914,-0.3408,-0.9189,0.549,-0.305,1.099,-159.219,10.909,-74.718
13623,-0.1904,-0.3398,-0.9175,0.183,-0.366,0.732,-159.225,10.920,-74.724
13633,-0.1895,-0.3389,-0.9194,-0.061,-0.305,0.427,-159.230,10.920,-74.724
13643,-0.1904,-0.3408,-0.9194,-0.366,-0.244,0.183,-159.236,10.926,-74.724
13653,-0.1890,-0.3403,-0.9189,-0.122,0.000,-0.061,-159.241,10.926,-74.724
13663,-0.1895,-0.3418,-0.9199,0.061,-0.122,-0.183,-159.247,10.926,-74.724
13673,-0.1899,-0.3413,-0.9160,0.183,-0.183,-0.366,-159.247,10.926,-74.718
13683,-0.1909,-0.3457,-0.9150,0.244,-0.183,-0.488,-159.241,10.926,-74.713
13693,-0.1914,-0.3511,-0.9150,-0.061,-0.183,-0.549,-159.241,10.931,-74.707
13703,-0.1890,-0.3525,-0.9121,-0.488,-0.183,-0.488,-159.241,10.931,-74.702
13713,-0.1890,-0.3560,-0.9131,-1.038,0.061,-0.305,-159.247,10.926,-74.702
13723,-0.1899,-0.3555,-0.9165,-1.465,0.305,-0.244,-159.258,10.926,-74.696
13733,-0.1904,-0.3555,-0.9199,-1.587,0.671,-0.244,-159.269,10.915,-74.696
13743,-0.1880,-0.3545,-0.9209,-1.343,0.916,-0.122,-159.280,10.909,-74.702
13753,-0.1860,-0.3545,-0.9238,-0.854,1.160,0.122,-159.285,10.893,-74.707
13763,-0.1865,-0.3550,-0.9268,-0.305,1.099,0.427,-159.285,10.882,-74.713
13773,-0.1870,-0.3550,-0.9253,0.183,0.854,0.854,-159.285,10.876,-74.724
13783,-0.1870,-0.3540,-0.9258,0.549,0.671,1.099,-159.280,10.871,-74.740
13793,-0.1855,-0.3516,-0.9277,0.732,0.549,1.282,-159.274,10.871,-74.751
13803,-0.1895,-0.3491,-0.9277,1.038,0.549,1.343,-159.269,10.865,-74.767
13813,-0.1880,-0.3467,-0.9292,1.404,0.610,1.343,-159.258,10.865,-74.784
13823,-0.1890,-0.3457,-0.9272,1.709,0.488,1.221,-159.247,10.865,-74.795
13833,-0.1880,-0.3472,-0.9248,2.075,1.038,0.916,-159.230,10.854,-74.806
13843,-0.1870,-0.3452,-0.9219,1.587,1.221,0.671,-159.219,10.849,-74.817
13853,-0.1875,-0.3462,-0.9194,1.099,1.160,0.549,-159.214,10.838,-74.828
13863,-0.1890,-0.3472,-0.9199,0.366,0.916,0.610,-159.214,10.833,-74.839
13873,-0.1870,-0.3511,-0.9233,0.061,0.793,0.549,-159.214,10.827,-74.844
13883,-0.1855,-0.3467,-0.9233,-0.183,1.038,0.427,-159.219,10.816,-74.855
13893,-0.1860,-0.3462,-0.9263,-0.061,1.160,0.610,-159.225,10.805,-74.861
13903,-0.1875,-0.3442,-0.9229,0.305,0.916,0.793,-159.225,10.800,-74.872
13913,-0.1875,-0.3442,-0.9224,0.793,0.427,0.916,-159.219,10.800,-74.883
13923,-0.1880,-0.3481,-0.9214,0.977,-0.122,0.854,-159.214,10.805,-74.894
13933,-0.1875,-0.3521,-0.9175,0.366,-0.671,0.732,-159.208,10.811,-74.894
13943,-0.1904,-0.3462,-0.9204,-1.038,-0.977,0.305,-159.219,10.822,-74.894
13953,-0.1895,-0.3433,-0.9199,-2.197,-0.732,0.305,-159.247,10.833,-74.894
13963,-0.1914,-0.3428,-0.9229,-2.747,-0.366,0.427,-159.280,10.838,-74.899
13973,-0.1919,-0.3394,-0.9248,-2.197,-0.122,0.183,-159.307,10.844,-74.899
13983,-0.1846,-0.3457,-0.9229,-2.625,-0.793,0.244,-159.335,10.849,-74.899
13993,-0.1880,-0.3452,-0.9194,-2.075,-1.038,0.427,-159.357,10.860,-74.899
14003,-0.1875,-0.3491,-0.9165,-0.977,-0.549,0.427,-159.362,10.865,-74.899
14013,-0.1914,-0.3447,-0.9209,-0.427,-0.732,0.488,-159.368,10.876,-74.905
14023,-0.1865,-0.3491,-0.9141,0.305,-0.244,0.244,-159.362,10.876,-74.905
14033,-0.1885,-0.3525,-0.9170,-0.183,0.000,-0.122,-159.362,10.876,-74.905
14043,-0.1855,-0.3511,-0.9165,-0.671,0.488,-0.305,-159.362,10.871,-74.905
14053,-0.1870,-0.3491,-0.9175,-1.160,0.244,-0.122,-159.373,10.865,-74.905
14063,-0.1885,-0.3462,-0.9185,-1.343,0.000,0.061,-159.384,10.865,-74.905
14073,-0.1904,-0.3452,-0.9209,-0.916,0.061,0.122,-159.395,10.865,-74.905
14083,-0.1899,-0.3442,-0.9180,-0.183,0.366,0.122,-159.401,10.865,-74.905
14093,-0.1890,-0.3467,-0.9175,0.305,0.610,0.244,-159.395,10.860,-74.910
14103,-0.1865,-0.3491,-0.9170,0.366,0.977,0.244,-159.390,10.849,-74.916
14113,-0.1870,-0.3477,-0.9180,-0.122,1.221,0.366,-159.390,10.844,-74.927
14123,-0.1880,-0.3457,-0.9194,-0.549,1.282,0.427,-159.401,10.833,-74.932
14133,-0.1919,-0.3437,-0.9238,-0.610,1.160,0.366,-159.406,10.822,-74.943
14143,-0.1934,-0.3472,-0.9224,-0.427,1.099,0.183,-159.412,10.816,-74.949
14153,-0.1914,-0.3496,-0.9258,-0.427,1.099,0.000,-159.417,10.805,-74.949
14163,-0.1885,-0.3525,-0.9258,-0.610,0.977,0.061,-159.423,10.800,-74.954
14173,-0.1880,-0.3511,-0.9282,-0.977,0.732,0.244,-159.428,10.794,-74.960
14183,-0.1885,-0.3496,-0.9297,-1.221,0.671,0.488,-159.445,10.789,-74.965
14193,-0.1860,-0.3486,-0.9365,-0.977,0.732,0.610,-159.456,10.778,-74.976
14203,-0.1865,-0.3467,-0.9360,-0.488,0.610,0.732,-159.467,10.772,-74.987
14213,-0.1860,-0.3467,-0.9321,0.244,0.122,0.793,-159.467,10.772,-74.993
14223,-0.1855,-0.3472,-0.9287,0.793,-0.488,0.916,-159.461,10.778,-74.998
14233,-0.1860,-0.3467,-0.9238,1.343,-0.977,1.038,-159.445,10.794,-75.004
14243,-0.1875,-0.3452,-0.9170,1.770,-1.160,1.038,-159.428,10.805,-75.015
14253,-0.1904,-0.3467,-0.9170,2.014,-0.793,0.977,-159.412,10.822,-75.020
14263,-0.1914,-0.3477,-0.9155,1.526,-0.488,1.160,-159.395,10.833,-75.026
14273,-0.1938,-0.3437,-0.9160,0.793,-0.183,1.038,-159.390,10.838,-75.037
14283,-0.1943,-0.3418,-0.9175,0.122,0.244,0.549,-159.390,10.844,-75.042
14293,-0.1919,-0.3433,-0.9170,-0.122,0.732,0.549,-159.395,10.838,-75.053
14303,-0.1899,-0.3428,-0.9209,-0.061,1.221,0.671,-159.395,10.833,-75.064
14313,-0.1899,-0.3467,-0.9224,-0.061,1.343,0.610,-159.401,10.822,-75.070
14324,-0.1895,-0.3477,-0.9233,-0.427,1.160,0.366,-159.406,10.816,-75.081
14333,-0.1880,-0.3437,-0.9238,-1.099,0.793,0.183,-159.417,10.805,-75.086
14343,-0.1875,-0.3437,-0.9282,-1.465,0.549,0.244,-159.439,10.800,-75.092
14353,-0.1851,-0.3477,-0.9287,-1.404,0.366,0.122,-159.450,10.794,-75.092
14363,-0.1846,-0.3486,-0.9316,-1.099,0.061,0.000,-159.461,10.794,-75.092
14373,-0.1841,-0.3462,-0.9336,-0.671,-0.183,-0.122,-159.472,10.789,-75.092
14383,-0.1841,-0.3467,-0.9302,-0.122,-0.610,0.061,-159.472,10.794,-75.086
14393,-0.1846,-0.3467,-0.9297,0.549,-1.038,0.244,-159.467,10.800,-75.086
14403,-0.1860,-0.3481,-0.9272,0.854,-1.404,0.488,-159.461,10.816,-75.086
14413,-0.1899,-0.3486,-0.9229,1.282,-1.709,0.732,-159.445,10.833,-75.086
14423,-0.1914,-0.3486,-0.9170,1.831,-1.831,0.793,-159.423,10.854,-75.086
14433,-0.1919,-0.3477,-0.9111,2.197,-1.587,0.793,-159.401,10.876,-75.092
14443,-0.1899,-0.3496,-0.9082,1.892,-1.221,0.854,-159.379,10.893,-75.092
14453,-0.1914,-0.3472,-0.9106,1.099,-0.854,0.854,-159.362,10.904,-75.097
14463,-0.1904,-0.3452,-0.9102,0.366,-0.305,0.916,-159.362,10.915,-75.108
14473,-0.1924,-0.3447,-0.9116,0.061,0.122,1.038,-159.362,10.920,-75.119
14483,-0.1885,-0.3442,-0.9141,-0.061,0.427,0.977,-159.362,10.915,-75.130
14493,-0.1880,-0.3433,-0.9136,0.122,0.549,0.854,-159.368,10.915,-75.135
14503,-0.1904,-0.3447,-0.9175,0.122,0.671,0.793,-159.368,10.915,-75.146
14513,-0.1895,-0.3442,-0.9141,0.000,0.732,0.732,-159.368,10.909,-75.157
14523,-0.1909,-0.3428,-0.9126,-0.122,0.793,0.610,-159.373,10.904,-75.168
14533,-0.1904,-0.3442,-0.9141,-0.366,0.854,0.488,-159.379,10.898,-75.174
14543,-0.1890,-0.3442,-0.9170,-0.610,0.854,0.305,-159.384,10.893,-75.179
14553,-0.1870,-0.3472,-0.9185,-0.732,0.854,0.122,-159.390,10.887,-75.185
14563,-0.1885,-0.3486,-0.9219,-0.793,0.854,0.000,-159.401,10.876,-75.185
14573,-0.1865,-0.3481,-0.9214,-0.671,0.671,0.061,-159.406,10.871,-75.190
14583,-0.1855,-0.3496,-0.9204,-0.366,0.366,0.244,-159.406,10.865,-75.196
14593,-0.1870,-0.3501,-0.9209,0.061,0.183,0.427,-159.406,10.865,-75.196
14603,-0.1885,-0.3491,-0.9185,0.427,0.122,0.549,-159.401,10.865,-75.207
14613,-0.1880,-0.3472,-0.9146,0.671,0.244,0.549,-159.390,10.865,-75.212
14623,-0.1880,-0.3506,-0.9131,0.610,0.549,0.427,-159.384,10.860,-75.218
14633,-0.1904,-0.3511,-0.9146,0.061,0.916,0.488,-159.379,10.854,-75.223
14643,-0.1890,-0.3477,-0.9165,-0.549,1.282,0.610,-159.384,10.844,-75.234
14653,-0.1870,-0.3467,-0.9199,-1.038,1.526,0.671,-159.401,10.833,-75.245
14663,-0.1851,-0.3452,-0.9243,-1.221,1.587,0.610,-159.412,10.816,-75.256
14673,-0.1865,-0.3437,-0.9297,-0.977,1.587,0.549,-159.428,10.805,-75.267
14683,-0.1875,-0.3428,-0.9302,-0.549,1.526,0.610,-159.439,10.794,-75.278
14693,-0.1865,-0.3447,-0.9272,-0.061,1.343,0.671,-159.445,10.778,-75.289
14703,-0.1880,-0.3452,-0.9287,0.244,1.221,0.671,-159.445,10.772,-75.300
14713,-0.1870,-0.3457,-0.9272,0.305,1.038,0.549,-159.445,10.761,-75.311
14723,-0.1885,-0.3462,-0.9258,0.183,0.977,0.549,-159.445,10.756,-75.322
14733,-0.1875,-0.3452,-0.9272,0.000,0.977,0.549,-159.450,10.750,-75.328
14743,-0.1880,-0.3437,-0.9292,0.000,1.038,0.488,-159.450,10.739,-75.339
14753,-0.1875,-0.3428,-0.9287,0.122,1.038,0.427,-159.456,10.734,-75.344
14763,-0.1909,-0.3408,-0.9268,0.427,0.916,0.488,-159.456,10.728,-75.355
14773,-0.1890,-0.3447,-0.9287,0.671,0.793,0.488,-159.450,10.723,-75.361
14783,-0.1880,-0.3472,-0.9258,0.610,0.610,0.305,-159.445,10.717,-75.366
14794,-0.1855,-0.3472,-0.9268,0.244,0.549,0.244,-159.445,10.712,-75.372
14803,-0.1855,-0.3457,-0.9277,-0.183,0.549,0.305,-159.450,10.706,-75.372
14813,-0.1855,-0.3447,-0.9287,-0.366,0.549,0.427,-159.456,10.701,-75.383
14824,-0.1826,-0.3433,-0.9312,-0.305,0.427,0.488,-159.461,10.701,-75.388
14833,-0.1812,-0.3433,-0.9302,0.061,-0.183,0.000,-159.467,10.695,-75.388
14843,-0.1816,-0.3472,-0.9292,0.488,-0.366,-0.183,-159.461,10.695,-75.383
14853,-0.1821,-0.3467,-0.9238,0.793,-0.610,-0.305,-159.450,10.701,-75.377
14863,-0.1831,-0.3481,-0.9229,0.793,-0.916,-0.305,-159.439,10.706,-75.372
14873,-0.1860,-0.3501,-0.9238,0.671,-1.160,-0.244,-159.428,10.712,-75.366
14883,-0.1836,-0.3496,-0.9170,0.488,-1.038,-0.061,-159.423,10.723,-75.361
14893,-0.1860,-0.3477,-0.9155,0.366,-0.793,0.061,-159.417,10.728,-75.361
14903,-0.1890,-0.3462,-0.9180,0.427,-0.305,0.122,-159.412,10.734,-75.361
14913,-0.1880,-0.3467,-0.9185,0.549,0.244,0.122,-159.406,10.734,-75.361
14923,-0.1885,-0.3452,-0.9175,0.549,0.549,0.061,-159.401,10.728,-75.361
14933,-0.1899,-0.3433,-0.9175,0.366,0.793,-0.061,-159.395,10.723,-75.366
14943,-0.1899,-0.3442,-0.9160,0.000,0.732,-0.061,-159.395,10.723,-75.366
14953,-0.1895,-0.3447,-0.9194,-0.305,0.671,-0.061,-159.401,10.717,-75.372
14963,-0.1885,-0.3457,-0.9209,-0.732,0.549,-0.244,-159.412,10.712,-75.372
14973,-0.1875,-0.3442,-0.9189,-1.343,0.488,-0.366,-159.423,10.706,-75.366
14983,-0.1870,-0.3433,-0.9194,-1.221,0.610,-0.427,-159.434,10.701,-75.366
14993,-0.1865,-0.3452,-0.9219,-0.671,0.793,-0.366,-159.445,10.690,-75.366
15003,-0.1875,-0.3501,-0.9199,-0.305,0.793,-0.244,-159.445,10.684,-75.366
15013,-0.1855,-0.3540,-0.9204,-0.122,0.610,-0.183,-159.439,10.679,-75.366
15023,-0.1865,-0.3535,-0.9209,-0.244,0.671,-0.061,-159.439,10.673,-75.366
15033,-0.1880,-0.3530,-0.9194,-0.244,1.038,0.061,-159.434,10.662,-75.372
15043,-0.1860,-0.3506,-0.9224,-0.183,1.465,0.244,-159.439,10.651,-75.377
15053,-0.1855,-0.3506,-0.9224,-0.183,1.770,0.244,-159.439,10.635,-75.388
15063,-0.1846,-0.3516,-0.9253,-0.183,1.953,0.305,-159.439,10.618,-75.399
15073,-0.1821,-0.3516,-0.9268,-0.305,1.892,0.549,-159.439,10.602,-75.410
15083,-0.1836,-0.3521,-0.9287,-0.366,1.709,0.793,-159.445,10.585,-75.421
15093,-0.1836,-0.3501,-0.9268,-0.366,1.343,0.854,-159.450,10.574,-75.438
15103,-0.1841,-0.3457,-0.9272,-0.244,1.099,0.977,-159.456,10.569,-75.449
15113,-0.1826,-0.3472,-0.9243,0.183,0.977,1.038,-159.456,10.563,-75.465
15123,-0.1821,-0.3437,-0.9214,0.549,1.038,1.099,-159.456,10.558,-75.476
15133,-0.1846,-0.3423,-0.9199,0.854,1.343,1.099,-159.450,10.547,-75.493
15143,-0.1826,-0.3423,-0.9175,0.854,1.648,1.099,-159.445,10.536,-75.509
15153,-0.1836,-0.3394,-0.9170,0.549,2.075,1.160,-159.445,10.525,-75.526
15163,-0.1885,-0.3398,-0.9180,0.061,2.686,0.977,-159.450,10.503,-75.547
15173,-0.1885,-0.3413,-0.9199,-0.488,3.174,0.549,-159.461,10.481,-75.564
15183,-0.1865,-0.3433,-0.9229,-1.343,3.479,0.244,-159.478,10.453,-75.575
15193,-0.1846,-0.3433,-0.9277,-2.075,3.296,0.244,-159.505,10.426,-75.591
15203,-0.1836,-0.3437,-0.9316,-2.991,3.052,0.366,-159.538,10.399,-75.608
15213,-0.1797,-0.3457,-0.9385,-3.235,2.808,0.305,-159.576,10.371,-75.619
15223,-0.1743,-0.3428,-0.9404,-2.991,2.502,0.366,-159.609,10.344,-75.630
15233,-0.1709,-0.3418,-0.9419,-2.380,2.014,0.610,-159.642,10.322,-75.646
15243,-0.1650,-0.3408,-0.9438,-2.075,1.282,0.916,-159.670,10.300,-75.657
15253,-0.1660,-0.3389,-0.9434,-1.343,0.732,1.099,-159.692,10.289,-75.668
15263,-0.1699,-0.3359,-0.9419,-0.061,0.488,1.038,-159.697,10.283,-75.679
15273,-0.1670,-0.3369,-0.9370,0.427,0.122,1.038,-159.703,10.278,-75.690
15283,-0.1689,-0.3364,-0.9331,-0.061,-0.732,0.977,-159.708,10.283,-75.701
15293,-0.1714,-0.3354,-0.9243,0.000,-1.404,0.732,-159.714,10.294,-75.701
15303,-0.1719,-0.3340,-0.9209,0.244,-1.770,0.305,-159.714,10.305,-75.696
15313,-0.1729,-0.3345,-0.9194,-0.549,-1.892,-0.061,-159.719,10.322,-75.690
15324,-0.1743,-0.3374,-0.9189,-1.038,-1.648,-0.549,-159.730,10.333,-75.679
15333,-0.1729,-0.3398,-0.9194,-0.916,-0.793,-1.038,-159.736,10.333,-75.668
15343,-0.1694,-0.3394,-0.9189,-0.793,0.061,-1.160,-159.741,10.322,-75.657
15353,-0.1694,-0.3398,-0.9248,-0.732,0.244,-1.038,-159.747,10.311,-75.646
15363,-0.1704,-0.3408,-0.9238,-0.427,0.000,-0.977,-159.752,10.305,-75.635
15373,-0.1758,-0.3369,-0.9229,0.244,-0.122,-0.916,-159.747,10.300,-75.630
15383,-0.1753,-0.3374,-0.9224,0.793,-0.305,-0.854,-159.741,10.300,-75.619
15393,-0.1729,-0.3374,-0.9243,0.793,-0.488,-0.732,-159.736,10.294,-75.608
15403,-0.1738,-0.3330,-0.9248,0.366,-0.549,-0.732,-159.730,10.294,-75.602
15413,-0.1743,-0.3325,-0.9258,-0.549,-0.732,-0.732,-159.741,10.300,-75.591
15423,-0.1748,-0.3311,-0.9258,-1.404,-1.038,-0.793,-159.758,10.305,-75.580
15433,-0.1772,-0.3301,-0.9268,-1.648,-1.404,-1.160,-159.780,10.311,-75.564
15443,-0.1777,-0.3291,-0.9282,-1.221,-1.648,-1.648,-159.796,10.322,-75.542
15453,-0.1777,-0.3320,-0.9282,-0.916,-1.770,-2.197,-159.802,10.327,-75.515
15463,-0.1777,-0.3354,-0.9272,-0.793,-1.831,-2.502,-159.807,10.333,-75.487
15473,-0.1777,-0.3403,-0.9248,-0.916,-1.831,-2.625,-159.813,10.344,-75.454
15483,-0.1787,-0.3437,-0.9258,-0.977,-1.892,-2.625,-159.813,10.349,-75.421
15493,-0.1802,-0.3442,-0.9277,-0.916,-2.075,-2.563,-159.818,10.360,-75.394
15503,-0.1812,-0.3423,-0.9272,-0.671,-2.258,-2.502,-159.818,10.371,-75.361
15513,-0.1812,-0.3413,-0.9272,-0.183,-2.075,-2.380,-159.813,10.382,-75.328
15523,-0.1812,-0.3423,-0.9238,0.305,-1.770,-2.136,-159.802,10.393,-75.300
15533,-0.1831,-0.3447,-0.9248,0.610,-1.648,-1.831,-159.791,10.404,-75.278
15543,-0.1836,-0.3447,-0.9214,0.610,-1.648,-1.709,-159.780,10.415,-75.256
15553,-0.1812,-0.3442,-0.9243,0.244,-1.770,-1.709,-159.769,10.426,-75.234
15563,-0.1826,-0.3457,-0.9209,-0.305,-1.892,-1.770,-159.763,10.437,-75.212
15573,-0.1836,-0.3442,-0.9219,-0.793,-1.648,-1.831,-159.763,10.448,-75.190
15583,-0.1841,-0.3428,-0.9229,-0.977,-1.404,-1.831,-159.769,10.459,-75.163
15593,-0.1846,-0.3428,-0.9233,-0.732,-1.099,-1.770,-159.774,10.464,-75.146
15603,-0.1812,-0.3447,-0.9214,-0.366,-1.099,-1.648,-159.769,10.464,-75.125
15613,-0.1821,-0.3462,-0.9214,-0.061,-1.160,-1.709,-159.763,10.470,-75.103
15623,-0.1812,-0.3477,-0.9219,0.061,-1.404,-1.709,-159.752,10.475,-75.086
15633,-0.1807,-0.3442,-0.9224,0.061,-1.404,-1.587,-159.747,10.486,-75.064
15643,-0.1821,-0.3423,-0.9224,0.061,-1.221,-1.526,-159.741,10.492,-75.042
15653,-0.1826,-0.3437,-0.9229,0.000,-0.977,-1.465,-159.736,10.497,-75.026
15663,-0.1836,-0.3418,-0.9253,0.000,-0.977,-1.465,-159.736,10.497,-75.009
15673,-0.1846,-0.3428,-0.9224,0.000,-1.038,-1.343,-159.730,10.508,-74.993
15683,-0.1821,-0.3452,-0.9272,0.061,-1.099,-1.221,-159.725,10.514,-74.976
15693,-0.1851,-0.3447,-0.9238,0.061,-1.221,-1.160,-159.719,10.519,-74.960
15703,-0.1846,-0.3472,-0.9243,0.122,-1.343,-1.160,-159.714,10.530,-74.949
15713,-0.1831,-0.3462,-0.9224,0.183,-1.343,-1.160,-159.703,10.536,-74.932
15723,-0.1821,-0.3477,-0.9219,0.244,-1.282,-0.977,-159.697,10.547,-74.916
15733,-0.1816,-0.3506,-0.9189,0.183,-1.099,-0.732,-159.686,10.552,-74.905
15743,-0.1821,-0.3486,-0.9180,0.000,-0.916,-0.488,-159.681,10.558,-74.899
15753,-0.1836,-0.3486,-0.9185,-0.122,-0.671,-0.305,-159.675,10.563,-74.894
15763,-0.1836,-0.3467,-0.9224,-0.122,-0.183,-0.122,-159.675,10.563,-74.894
15773,-0.1841,-0.3457,-0.9238,-0.122,0.244,-0.122,-159.675,10.563,-74.888
15783,-0.1816,-0.3428,-0.9282,-0.122,0.488,-0.122,-159.675,10.558,-74.894
15793,-0.1841,-0.3423,-0.9248,0.061,0.427,-0.061,-159.675,10.552,-74.894
15803,-0.1846,-0.3398,-0.9248,0.244,0.122,0.061,-159.675,10.552,-74.894
15813,-0.1855,-0.3394,-0.9253,0.427,-0.305,0.122,-159.670,10.558,-74.894
15824,-0.1841,-0.3389,-0.9248,0.427,-0.610,0.000,-159.670,10.563,-74.894
15833,-0.1826,-0.3398,-0.9243,0.122,-0.549,-0.244,-159.670,10.563,-74.888
15843,-0.1812,-0.3413,-0.9263,-0.427,-0.244,-0.488,-159.675,10.563,-74.883
15853,-0.1782,-0.3418,-0.9272,-0.854,0.122,-0.549,-159.681,10.558,-74.877
15863,-0.1792,-0.3408,-0.9282,-0.916,0.305,-0.549,-159.692,10.552,-74.872
15873,-0.1772,-0.3408,-0.9312,-0.488,0.061,-0.427,-159.697,10.547,-74.866
15883,-0.1802,-0.3403,-0.9297,0.244,-0.366,-0.305,-159.697,10.547,-74.866
15893,-0.1802,-0.3408,-0.9272,0.977,-0.854,-0.122,-159.686,10.552,-74.861
15903,-0.1836,-0.3428,-0.9243,1.343,-1.099,-0.183,-159.670,10.558,-74.855
15913,-0.1812,-0.3442,-0.9214,1.099,-0.977,-0.244,-159.659,10.569,-74.850
15923,-0.1821,-0.3437,-0.9238,0.488,-0.610,-0.305,-159.653,10.569,-74.844
15933,-0.1816,-0.3423,-0.9253,0.000,-0.183,-0.305,-159.653,10.569,-74.839
15943,-0.1816,-0.3428,-0.9272,-0.183,0.000,-0.366,-159.653,10.569,-74.839
15953,-0.1802,-0.3433,-0.9253,-0.122,0.000,-0.427,-159.653,10.563,-74.833
15963,-0.1812,-0.3423,-0.9272,0.122,-0.122,-0.366,-159.653,10.563,-74.828
15973,-0.1812,-0.3418,-0.9277,0.366,-0.244,-0.183,-159.648,10.563,-74.828
15983,-0.1816,-0.3403,-0.9268,0.488,-0.183,-0.122,-159.648,10.563,-74.822
15993,-0.1816,-0.3413,-0.9263,0.427,-0.305,0.000,-159.642,10.563,-74.822
16003,-0.1812,-0.3403,-0.9243,0.244,-0.305,-0.061,-159.642,10.563,-74.822
16013,-0.1826,-0.3418,-0.9238,0.061,-0.366,-0.183,-159.642,10.563,-74.817
16023,-0.1807,-0.3423,-0.9272,-0.122,-0.488,-0.183,-159.642,10.569,-74.817
16033,-0.1807,-0.3413,-0.9243,-0.183,-0.549,-0.244,-159.648,10.569,-74.811
16043,-0.1807,-0.3433,-0.9243,-0.244,-0.671,-0.366,-159.648,10.574,-74.806
16053,-0.1807,-0.3408,-0.9268,-0.183,-0.732,-0.427,-159.648,10.574,-74.800
16063,-0.1816,-0.3403,-0.9253,0.061,-0.793,-0.366,-159.648,10.580,-74.789
16073,-0.1797,-0.3423,-0.9243,0.183,-0.916,-0.366,-159.648,10.585,-74.784
16083,-0.1816,-0.3408,-0.9224,0.305,-0.854,-0.305,-159.642,10.591,-74.778
16093,-0.1846,-0.3398,-0.9233,0.427,-0.732,-0.122,-159.637,10.596,-74.773
16103,-0.1812,-0.3398,-0.9238,0.488,-0.488,-0.122,-159.637,10.602,-74.773
16113,-0.1812,-0.3408,-0.9258,0.366,-0.244,-0.244,-159.631,10.602,-74.767
16123,-0.1807,-0.3418,-0.9238,0.061,-0.183,-0.427,-159.631,10.596,-74.767
16133,-0.1821,-0.3413,-0.9229,-0.305,-0.305,-0.549,-159.631,10.596,-74.756
16143,-0.1826,-0.3389,-0.9243,-0.610,-0.427,-0.549,-159.642,10.602,-74.751
16153,-0.1831,-0.3403,-0.9258,-0.671,-0.610,-0.488,-159.648,10.602,-74.745
16163,-0.1846,-0.3394,-0.9258,-0.610,-0.732,-0.549,-159.653,10.607,-74.734
16173,-0.1836,-0.3413,-0.9268,-0.427,-0.793,-0.610,-159.659,10.613,-74.729
16183,-0.1821,-0.3418,-0.9258,-0.183,-0.793,-0.427,-159.659,10.618,-74.724
16193,-0.1836,-0.3433,-0.9248,0.000,-0.671,-0.366,-159.659,10.618,-74.718
16203,-0.1816,-0.3457,-0.9238,0.183,-0.610,-0.366,-159.653,10.624,-74.713
16213,-0.1831,-0.3457,-0.9243,0.122,-0.610,-0.366,-159.648,10.624,-74.707
16223,-0.1836,-0.3467,-0.9253,-0.061,-0.549,-0.305,-159.648,10.629,-74.702
16233,-0.1831,-0.3472,-0.9248,-0.305,-0.427,-0.183,-159.648,10.629,-74.696
16243,-0.1831,-0.3462,-0.9277,-0.427,-0.305,0.000,-159.653,10.635,-74.696
16253,-0.1812,-0.3452,-0.9272,-0.427,-0.244,0.000,-159.653,10.635,-74.696
16263,-0.1821,-0.3437,-0.9302,-0.122,-0.244,0.122,-159.659,10.635,-74.696
