elapsed_ms,acc_x_g,acc_y_g,acc_z_g,gyro_x_dps,gyro_y_dps,gyro_z_dps,angle_x_deg,angle_y_deg,angle_z_deg
0,-0.3115,-0.6128,-0.7310,1.343,0.549,1.221,-138.922,17.963,-14.414
10,-0.3179,-0.6133,-0.7275,2.441,0.183,0.854,-138.906,17.974,-14.420
20,-0.3218,-0.6123,-0.7227,2.563,0.305,0.366,-138.895,17.979,-14.425
30,-0.3213,-0.6138,-0.7266,1.404,0.427,0.122,-138.889,17.985,-14.431
40,-0.3228,-0.6138,-0.7271,-0.305,0.488,-0.061,-138.900,17.985,-14.431
50,-0.3218,-0.6123,-0.7295,-1.648,0.366,-0.244,-138.928,17.990,-14.431
60,-0.3164,-0.6133,-0.7358,-2.197,0.000,-0.549,-138.961,17.990,-14.431
70,-0.3159,-0.6167,-0.7373,-1.953,-0.488,-0.854,-138.988,17.990,-14.420
80,-0.3125,-0.6226,-0.7339,-1.282,-0.854,-0.916,-139.005,17.990,-14.403
90,-0.3042,-0.6304,-0.7314,-0.610,-1.221,-0.916,-139.010,17.990,-14.387
100,-0.3003,-0.6372,-0.7310,-0.244,-1.648,-0.671,-139.005,17.990,-14.370
110,-0.3018,-0.6367,-0.7300,-0.122,-2.197,-0.244,-138.999,17.996,-14.354
120,-0.3003,-0.6343,-0.7261,0.183,-2.747,0.061,-138.994,18.012,-14.337
130,-0.3022,-0.6328,-0.7227,0.671,-3.113,0.244,-138.977,18.029,-14.315
140,-0.3027,-0.6284,-0.7163,1.404,-3.235,0.366,-138.955,18.051,-14.299
150,-0.3047,-0.6294,-0.7114,2.075,-3.174,0.488,-138.922,18.078,-14.282
160,-0.3057,-0.6309,-0.7007,2.319,-3.052,0.610,-138.889,18.100,-14.266
170,-0.3091,-0.6284,-0.6968,2.075,-2.808,0.793,-138.851,18.127,-14.249
180,-0.3086,-0.6279,-0.6968,1.404,-2.258,0.854,-138.829,18.155,-14.244
190,-0.3071,-0.6255,-0.6978,0.549,-1.587,1.038,-138.812,18.171,-14.238
200,-0.3081,-0.6196,-0.7036,-0.122,-1.038,1.099,-138.812,18.188,-14.238
210,-0.3105,-0.6172,-0.7061,-0.427,-0.549,1.038,-138.818,18.199,-14.244
220,-0.3135,-0.6128,-0.7080,-0.366,-0.366,0.854,-138.829,18.210,-14.249
230,-0.3125,-0.6128,-0.7124,-0.061,-0.488,0.427,-138.834,18.215,-14.249
240,-0.3140,-0.6133,-0.7100,0.366,-0.916,0.122,-138.829,18.226,-14.244
250,-0.3145,-0.6123,-0.7090,0.671,-1.404,-0.183,-138.823,18.243,-14.233
260,-0.3154,-0.6172,-0.7056,0.854,-1.770,-0.610,-138.812,18.254,-14.216
270,-0.3164,-0.6221,-0.7012,0.793,-1.831,-1.038,-138.790,18.265,-14.194
280,-0.3164,-0.6240,-0.6973,0.427,-1.648,-1.160,-138.774,18.276,-14.172
290,-0.3179,-0.6270,-0.6934,0.061,-1.221,-1.099,-138.763,18.281,-14.156
300,-0.3169,-0.6279,-0.6934,-0.305,-0.488,-1.038,-138.752,18.281,-14.145
310,-0.3174,-0.6299,-0.6919,-0.610,0.305,-0.977,-138.746,18.276,-14.139
320,-0.3169,-0.6328,-0.6943,-0.977,1.160,-0.793,-138.746,18.265,-14.139
330,-0.3130,-0.6382,-0.6958,-1.404,1.770,-0.488,-138.746,18.254,-14.150
340,-0.3110,-0.6396,-0.7036,-1.770,2.075,-0.244,-138.757,18.232,-14.161
350,-0.3081,-0.6357,-0.7080,-2.014,1.953,0.061,-138.774,18.215,-14.178
360,-0.3057,-0.6338,-0.7124,-1.587,1.709,0.427,-138.790,18.204,-14.189
370,-0.3071,-0.6328,-0.7158,-0.671,1.343,0.610,-138.801,18.193,-14.205
380,-0.3101,-0.6304,-0.7139,0.671,1.160,0.732,-138.796,18.188,-14.222
390,-0.3096,-0.6299,-0.7144,1.892,0.916,0.793,-138.779,18.182,-14.233
400,-0.3115,-0.6299,-0.7144,2.625,0.916,0.854,-138.757,18.182,-14.244
410,-0.3130,-0.6279,-0.7148,2.808,0.916,0.977,-138.730,18.182,-14.260
420,-0.3159,-0.6265,-0.7153,2.502,0.977,1.038,-138.713,18.182,-14.277
430,-0.3193,-0.6255,-0.7168,1.770,1.099,0.916,-138.702,18.182,-14.288
440,-0.3184,-0.6235,-0.7207,0.977,1.221,0.793,-138.702,18.182,-14.304
450,-0.3174,-0.6221,-0.7227,0.061,1.343,0.610,-138.708,18.177,-14.321
460,-0.3149,-0.6201,-0.7222,-0.671,1.343,0.366,-138.724,18.171,-14.332
470,-0.3159,-0.6187,-0.7241,-1.038,1.221,0.122,-138.746,18.166,-14.337
480,-0.3145,-0.6172,-0.7222,-1.221,1.099,-0.122,-138.768,18.160,-14.348
490,-0.3120,-0.6235,-0.7187,-1.465,1.038,-0.610,-138.785,18.149,-14.348
500,-0.3096,-0.6270,-0.7178,-1.709,0.916,-0.793,-138.807,18.133,-14.348
510,-0.3081,-0.6343,-0.7173,-2.014,0.549,-0.732,-138.818,18.122,-14.348
520,-0.3086,-0.6387,-0.7197,-2.502,0.427,-0.427,-138.840,18.111,-14.348
530,-0.3057,-0.6411,-0.7227,-3.052,0.427,-0.061,-138.867,18.105,-14.348
540,-0.3022,-0.6406,-0.7295,-3.296,0.549,0.427,-138.900,18.094,-14.354
550,-0.3027,-0.6372,-0.7300,-2.869,0.427,0.793,-138.933,18.089,-14.365
560,-0.3027,-0.6328,-0.7285,-1.526,-0.244,1.038,-138.950,18.089,-14.370
570,-0.3032,-0.6294,-0.7256,0.183,-1.221,1.282,-138.950,18.100,-14.376
580,-0.3066,-0.6294,-0.7183,1.648,-1.831,1.526,-138.933,18.122,-14.376
590,-0.3101,-0.6270,-0.7129,2.319,-2.014,1.648,-138.906,18.149,-14.370
600,-0.3130,-0.6240,-0.7061,2.319,-1.770,1.709,-138.878,18.177,-14.376
610,-0.3149,-0.6201,-0.7056,1.770,-1.465,1.587,-138.862,18.199,-14.376
620,-0.3174,-0.6162,-0.7046,1.038,-1.099,1.343,-138.851,18.221,-14.381
630,-0.3203,-0.6143,-0.7041,0.244,-0.793,1.282,-138.851,18.243,-14.381
640,-0.3203,-0.6152,-0.7061,-0.183,-0.488,1.038,-138.856,18.259,-14.387
650,-0.3218,-0.6167,-0.7070,-0.488,-0.305,0.732,-138.862,18.276,-14.392
660,-0.3198,-0.6191,-0.7061,-0.671,-0.244,0.610,-138.867,18.287,-14.398
670,-0.3198,-0.6226,-0.7056,-0.854,-0.122,0.549,-138.873,18.292,-14.398
680,-0.3203,-0.6235,-0.7075,-1.038,0.061,0.549,-138.884,18.303,-14.403
690,-0.3203,-0.6274,-0.7080,-1.221,0.427,0.549,-138.895,18.309,-14.409
700,-0.3164,-0.6313,-0.7109,-1.465,0.732,0.549,-138.906,18.303,-14.420
710,-0.3130,-0.6323,-0.7158,-1.648,1.038,0.732,-138.922,18.303,-14.436
720,-0.3125,-0.6338,-0.7202,-1.587,1.038,0.977,-138.939,18.298,-14.447
730,-0.3110,-0.6328,-0.7222,-1.221,0.732,1.160,-138.955,18.298,-14.464
740,-0.3105,-0.6289,-0.7222,-0.427,0.244,1.282,-138.961,18.298,-14.474
750,-0.3115,-0.6265,-0.7246,0.366,-0.366,1.404,-138.966,18.309,-14.485
760,-0.3110,-0.6270,-0.7197,1.160,-1.038,1.404,-138.955,18.325,-14.485
770,-0.3096,-0.6284,-0.7163,1.648,-1.648,1.343,-138.933,18.342,-14.485
780,-0.3081,-0.6226,-0.7119,1.770,-1.953,1.404,-138.917,18.364,-14.485
790,-0.3115,-0.6177,-0.7090,1.892,-2.136,1.465,-138.895,18.386,-14.480
800,-0.3130,-0.6138,-0.7041,1.831,-2.014,1.404,-138.878,18.413,-14.480
810,-0.3135,-0.6138,-0.6982,1.831,-1.770,1.221,-138.856,18.435,-14.474
820,-0.3149,-0.6138,-0.6938,1.892,-1.343,0.916,-138.834,18.457,-14.474
830,-0.3125,-0.6138,-0.6899,1.526,-0.854,0.671,-138.812,18.468,-14.474
840,-0.3115,-0.6162,-0.6899,0.793,-0.244,0.610,-138.801,18.474,-14.474
850,-0.3115,-0.6172,-0.6904,-0.061,0.488,0.488,-138.796,18.474,-14.485
860,-0.3120,-0.6177,-0.6919,-0.854,1.343,0.305,-138.801,18.468,-14.496
870,-0.3110,-0.6187,-0.6992,-1.404,2.319,0.244,-138.818,18.452,-14.513
880,-0.3125,-0.6152,-0.7090,-1.709,3.174,0.305,-138.845,18.430,-14.535
890,-0.3115,-0.6177,-0.7134,-1.648,3.662,0.366,-138.873,18.402,-14.568
900,-0.3135,-0.6187,-0.7178,-1.404,3.906,0.366,-138.900,18.375,-14.595
910,-0.3154,-0.6172,-0.7241,-1.099,3.784,0.305,-138.928,18.347,-14.623
920,-0.3140,-0.6172,-0.7280,-0.854,3.418,0.183,-138.950,18.325,-14.650
930,-0.3140,-0.6162,-0.7300,-0.671,2.747,0.122,-138.972,18.303,-14.667
940,-0.3184,-0.6133,-0.7280,-0.671,2.197,-0.183,-138.994,18.287,-14.683
950,-0.3164,-0.6147,-0.7290,-0.610,1.526,-0.488,-139.010,18.276,-14.689
960,-0.3154,-0.6167,-0.7290,-0.610,0.854,-0.793,-139.026,18.265,-14.689
970,-0.3154,-0.6206,-0.7285,-0.366,0.244,-1.038,-139.032,18.254,-14.683
980,-0.3125,-0.6250,-0.7236,-0.183,-0.183,-1.160,-139.032,18.248,-14.672
990,-0.3125,-0.6274,-0.7227,-0.183,-0.366,-1.221,-139.026,18.237,-14.661
1000,-0.3110,-0.6299,-0.7187,-0.061,-0.366,-1.160,-139.021,18.232,-14.650
1010,-0.3105,-0.6323,-0.7178,-0.061,-0.244,-1.038,-139.016,18.226,-14.639
1020,-0.3101,-0.6333,-0.7109,0.000,-0.061,-0.916,-139.010,18.215,-14.628
1030,-0.3130,-0.6353,-0.7109,-0.061,0.183,-0.732,-138.999,18.210,-14.628
1040,-0.3159,-0.6357,-0.7100,-0.427,0.488,-0.366,-138.994,18.204,-14.628
1050,-0.3169,-0.6338,-0.7090,-0.793,0.977,0.000,-138.999,18.199,-14.634
1060,-0.3179,-0.6318,-0.7119,-1.038,1.343,0.305,-139.005,18.193,-14.645
1070,-0.3149,-0.6289,-0.7139,-1.221,1.648,0.488,-139.016,18.188,-14.661
1080,-0.3135,-0.6265,-0.7148,-1.221,1.892,0.671,-139.032,18.177,-14.678
1090,-0.3154,-0.6221,-0.7173,-1.221,1.831,0.793,-139.048,18.171,-14.700
1100,-0.3149,-0.6221,-0.7212,-1.099,1.526,0.793,-139.070,18.166,-14.716
1110,-0.3125,-0.6221,-0.7236,-1.099,1.282,0.610,-139.087,18.160,-14.727
1120,-0.3120,-0.6226,-0.7256,-0.977,0.977,0.549,-139.103,18.155,-14.738
1130,-0.3101,-0.6187,-0.7275,-0.610,0.305,0.488,-139.114,18.155,-14.744
1140,-0.3120,-0.6211,-0.7261,0.122,-0.366,0.366,-139.120,18.160,-14.744
1150,-0.3120,-0.6206,-0.7251,0.793,-0.977,0.183,-139.109,18.166,-14.738
1160,-0.3149,-0.6255,-0.7202,1.404,-1.343,0.061,-139.092,18.182,-14.733
1170,-0.3159,-0.6299,-0.7168,1.648,-1.343,0.000,-139.070,18.193,-14.722
1180,-0.3149,-0.6328,-0.7129,1.404,-1.221,0.122,-139.048,18.204,-14.716
1190,-0.3154,-0.6338,-0.7153,1.038,-0.977,0.427,-139.032,18.215,-14.711
1200,-0.3154,-0.6333,-0.7153,0.732,-0.793,0.732,-139.016,18.226,-14.711
1210,-0.3169,-0.6313,-0.7183,0.427,-0.549,1.038,-139.010,18.237,-14.716
1220,-0.3154,-0.6309,-0.7168,0.366,-0.366,1.282,-139.005,18.248,-14.722
1230,-0.3145,-0.6284,-0.7183,0.305,-0.244,1.404,-139.005,18.259,-14.733
1240,-0.3110,-0.6255,-0.7187,0.183,-0.122,1.404,-139.005,18.265,-14.744
1250,-0.3120,-0.6250,-0.7197,0.061,-0.061,1.465,-139.010,18.276,-14.755
1260,-0.3110,-0.6250,-0.7217,0.000,-0.061,1.587,-139.016,18.281,-14.766
1270,-0.3125,-0.6245,-0.7241,-0.061,-0.183,1.587,-139.021,18.292,-14.777
1280,-0.3140,-0.6221,-0.7187,0.122,-0.427,1.526,-139.021,18.309,-14.788
1290,-0.3149,-0.6240,-0.7192,0.183,-0.427,1.465,-139.021,18.320,-14.799
1300,-0.3164,-0.6255,-0.7197,0.183,-0.244,1.465,-139.026,18.331,-14.804
1310,-0.3145,-0.6216,-0.7231,0.122,-0.122,1.465,-139.032,18.342,-14.815
1320,-0.3115,-0.6201,-0.7231,0.000,-0.244,1.526,-139.037,18.347,-14.826
1330,-0.3110,-0.6172,-0.7231,0.000,-0.671,1.526,-139.043,18.364,-14.837
1340,-0.3120,-0.6143,-0.7227,0.305,-1.160,1.587,-139.048,18.380,-14.843
1350,-0.3120,-0.6133,-0.7192,0.732,-1.526,1.526,-139.048,18.402,-14.843
1360,-0.3140,-0.6128,-0.7153,1.099,-1.770,1.282,-139.037,18.424,-14.837
1370,-0.3140,-0.6143,-0.7119,1.221,-1.770,1.038,-139.026,18.441,-14.837
1380,-0.3130,-0.6138,-0.7109,1.038,-1.648,0.854,-139.016,18.463,-14.832
1390,-0.3120,-0.6162,-0.7070,0.549,-1.465,0.732,-139.010,18.474,-14.826
1400,-0.3125,-0.6157,-0.7090,0.061,-1.160,0.610,-139.010,18.490,-14.826
1410,-0.3164,-0.6133,-0.7051,-0.061,-0.854,0.427,-139.005,18.501,-14.821
1420,-0.3159,-0.6147,-0.7046,0.000,-0.610,0.183,-139.005,18.506,-14.821
1430,-0.3169,-0.6172,-0.7041,0.061,-0.488,-0.122,-138.999,18.512,-14.815
1440,-0.3164,-0.6182,-0.7031,-0.122,-0.366,-0.183,-138.999,18.512,-14.810
1450,-0.3174,-0.6211,-0.7017,-0.488,-0.366,-0.183,-138.994,18.517,-14.804
1460,-0.3184,-0.6206,-0.7031,-0.793,-0.244,-0.183,-138.999,18.523,-14.804
1470,-0.3184,-0.6240,-0.7061,-0.793,-0.061,-0.244,-138.999,18.523,-14.799
1480,-0.3174,-0.6255,-0.7065,-0.610,0.244,-0.366,-138.999,18.517,-14.799
1490,-0.3174,-0.6250,-0.7095,-0.549,0.671,-0.183,-139.005,18.512,-14.804
1500,-0.3179,-0.6294,-0.7080,-0.427,0.916,-0.061,-139.005,18.506,-14.810
1510,-0.3179,-0.6279,-0.7100,-0.305,0.916,0.122,-139.005,18.501,-14.815
1520,-0.3169,-0.6265,-0.7129,-0.244,0.732,0.244,-139.005,18.495,-14.821
1530,-0.3174,-0.6265,-0.7129,-0.061,0.549,0.305,-139.005,18.495,-14.826
1540,-0.3149,-0.6284,-0.7124,0.183,0.488,0.366,-138.999,18.490,-14.837
1550,-0.3164,-0.6265,-0.7100,0.305,0.427,0.366,-138.994,18.490,-14.843
1561,-0.3164,-0.6279,-0.7109,0.366,0.549,0.549,-138.988,18.490,-14.848
1570,-0.3154,-0.6284,-0.7124,0.305,0.610,0.671,-138.988,18.484,-14.859
1580,-0.3149,-0.6255,-0.7124,0.305,0.671,0.793,-138.983,18.484,-14.870
1590,-0.3164,-0.6250,-0.7119,0.305,0.732,0.793,-138.983,18.484,-14.881
1600,-0.3159,-0.6226,-0.7134,0.427,0.916,0.916,-138.983,18.484,-14.892
1610,-0.3169,-0.6201,-0.7158,0.427,1.099,0.916,-138.983,18.484,-14.908
1620,-0.3184,-0.6196,-0.7158,0.549,1.221,0.854,-138.983,18.479,-14.925
1630,-0.3179,-0.6167,-0.7173,0.488,1.160,0.854,-138.988,18.479,-14.941
1640,-0.3169,-0.6152,-0.7217,0.366,0.854,0.793,-138.994,18.479,-14.952
1650,-0.3208,-0.6152,-0.7212,0.427,0.488,0.610,-138.994,18.479,-14.958
1660,-0.3218,-0.6143,-0.7207,0.488,0.183,0.427,-138.999,18.484,-14.963
1670,-0.3228,-0.6162,-0.7217,0.549,0.061,0.305,-138.999,18.490,-14.969
1680,-0.3203,-0.6172,-0.7173,0.549,-0.183,0.183,-138.994,18.490,-14.969
1690,-0.3184,-0.6211,-0.7192,0.366,-0.488,0.122,-138.994,18.495,-14.963
1700,-0.3169,-0.6226,-0.7202,0.061,-0.671,0.061,-138.994,18.501,-14.963
1710,-0.3169,-0.6235,-0.7183,-0.122,-0.793,0.122,-138.994,18.506,-14.958
1720,-0.3159,-0.6240,-0.7187,0.061,-0.977,0.366,-138.994,18.517,-14.952
1730,-0.3159,-0.6221,-0.7163,0.488,-1.343,0.488,-138.988,18.528,-14.947
1740,-0.3164,-0.6230,-0.7139,1.038,-1.526,0.427,-138.972,18.539,-14.941
1750,-0.3149,-0.6240,-0.7100,1.221,-1.526,0.427,-138.955,18.556,-14.930
1760,-0.3149,-0.6260,-0.7075,1.160,-1.465,0.427,-138.939,18.567,-14.925
1770,-0.3149,-0.6250,-0.7065,0.488,-1.038,0.610,-138.928,18.578,-14.925
1780,-0.3154,-0.6235,-0.7104,-0.183,-0.610,0.732,-138.928,18.589,-14.925
1790,-0.3164,-0.6196,-0.7109,-0.549,-0.244,0.793,-138.933,18.594,-14.930
1800,-0.3174,-0.6182,-0.7139,-0.549,0.061,0.732,-138.944,18.600,-14.936
1810,-0.3193,-0.6152,-0.7129,-0.244,0.122,0.610,-138.950,18.600,-14.941
1820,-0.3198,-0.6172,-0.7158,0.061,0.061,0.427,-138.955,18.605,-14.947
1830,-0.3174,-0.6182,-0.7148,0.244,-0.244,0.305,-138.955,18.611,-14.947
1840,-0.3193,-0.6196,-0.7153,0.183,-0.549,0.061,-138.950,18.611,-14.941
1850,-0.3203,-0.6196,-0.7139,0.000,-0.854,0.000,-138.950,18.622,-14.936
1860,-0.3198,-0.6182,-0.7148,-0.183,-0.977,-0.122,-138.950,18.627,-14.930
1870,-0.3223,-0.6196,-0.7109,-0.061,-1.099,-0.183,-138.950,18.638,-14.919
1880,-0.3208,-0.6206,-0.7119,0.183,-1.038,-0.244,-138.944,18.644,-14.914
1890,-0.3198,-0.6230,-0.7100,0.427,-0.977,-0.305,-138.933,18.649,-14.903
1900,-0.3213,-0.6240,-0.7061,0.366,-0.793,-0.244,-138.922,18.655,-14.897
1910,-0.3188,-0.6245,-0.7061,-0.061,-0.549,-0.183,-138.922,18.660,-14.892
1920,-0.3174,-0.6230,-0.7070,-0.549,-0.244,0.000,-138.922,18.660,-14.886
1930,-0.3188,-0.6235,-0.7075,-0.793,-0.122,0.183,-138.928,18.666,-14.886
1940,-0.3198,-0.6226,-0.7095,-0.671,-0.061,0.183,-138.933,18.666,-14.892
1950,-0.3193,-0.6230,-0.7119,-0.427,-0.122,0.122,-138.933,18.666,-14.892
1960,-0.3184,-0.6240,-0.7119,-0.244,-0.122,0.000,-138.933,18.666,-14.886
1970,-0.3184,-0.6230,-0.7109,-0.244,-0.122,0.000,-138.933,18.666,-14.886
1980,-0.3169,-0.6211,-0.7119,-0.183,-0.244,0.061,-138.939,18.671,-14.886
1990,-0.3188,-0.6177,-0.7104,0.000,-0.427,-0.061,-138.933,18.671,-14.881
2000,-0.3208,-0.6177,-0.7104,0.366,-0.732,-0.305,-138.928,18.677,-14.875
2010,-0.3203,-0.6216,-0.7070,0.610,-0.916,-0.610,-138.917,18.682,-14.865
2020,-0.3208,-0.6245,-0.7017,0.549,-0.732,-0.732,-138.906,18.682,-14.854
2030,-0.3223,-0.6279,-0.7021,0.183,-0.366,-0.732,-138.889,18.682,-14.843
2040,-0.3188,-0.6313,-0.7026,-0.427,0.122,-0.610,-138.884,18.677,-14.843
2050,-0.3179,-0.6313,-0.7026,-0.977,0.610,-0.427,-138.889,18.671,-14.843
2061,-0.3169,-0.6313,-0.7100,-1.221,0.854,-0.061,-138.895,18.660,-14.848
2070,-0.3198,-0.6294,-0.7124,-0.977,0.977,0.244,-138.906,18.655,-14.854
2080,-0.3198,-0.6265,-0.7119,-0.610,1.160,0.427,-138.911,18.649,-14.870
2090,-0.3203,-0.6274,-0.7144,-0.305,1.221,0.488,-138.917,18.644,-14.881
2100,-0.3203,-0.6270,-0.7144,-0.244,1.282,0.488,-138.922,18.638,-14.892
2110,-0.3213,-0.6240,-0.7178,-0.366,1.099,0.610,-138.928,18.633,-14.903
2120,-0.3198,-0.6250,-0.7178,-0.610,0.793,0.671,-138.939,18.633,-14.914
2130,-0.3237,-0.6211,-0.7187,-0.671,0.549,0.671,-138.950,18.633,-14.925
2140,-0.3247,-0.6191,-0.7183,-0.488,0.244,0.549,-138.961,18.638,-14.930
2150,-0.3228,-0.6206,-0.7217,-0.122,0.122,0.488,-138.966,18.638,-14.936
2160,-0.3223,-0.6196,-0.7207,0.183,-0.122,0.366,-138.972,18.644,-14.936
2170,-0.3218,-0.6196,-0.7183,0.488,-0.488,0.427,-138.966,18.649,-14.936
2180,-0.3218,-0.6216,-0.7163,0.610,-0.732,0.427,-138.961,18.660,-14.936
2190,-0.3213,-0.6221,-0.7148,0.488,-0.793,0.427,-138.955,18.671,-14.936
2200,-0.3208,-0.6216,-0.7129,0.305,-0.671,0.366,-138.950,18.677,-14.930
2210,-0.3213,-0.6206,-0.7095,0.000,-0.488,0.305,-138.950,18.688,-14.930
2220,-0.3193,-0.6206,-0.7100,-0.183,-0.244,0.305,-138.950,18.688,-14.930
2230,-0.3174,-0.6196,-0.7109,-0.244,0.061,0.305,-138.955,18.688,-14.936
2240,-0.3179,-0.6182,-0.7109,-0.183,0.183,0.244,-138.955,18.688,-14.936
2250,-0.3174,-0.6196,-0.7104,-0.183,0.244,0.244,-138.961,18.688,-14.941
2260,-0.3188,-0.6191,-0.7119,-0.183,0.183,0.183,-138.961,18.688,-14.947
2270,-0.3179,-0.6172,-0.7119,-0.366,0.061,0.122,-138.966,18.688,-14.947
2280,-0.3174,-0.6191,-0.7104,-0.366,-0.061,0.000,-138.972,18.688,-14.947
2290,-0.3174,-0.6211,-0.7144,-0.305,-0.122,-0.122,-138.972,18.688,-14.941
2300,-0.3164,-0.6206,-0.7124,-0.244,-0.183,-0.122,-138.977,18.688,-14.941
2310,-0.3154,-0.6196,-0.7104,-0.183,-0.305,0.000,-138.977,18.688,-14.941
2320,-0.3174,-0.6196,-0.7134,0.000,-0.427,0.061,-138.977,18.688,-14.936
2330,-0.3198,-0.6216,-0.7119,0.061,-0.427,0.061,-138.972,18.693,-14.936
2340,-0.3213,-0.6211,-0.7080,0.122,-0.305,-0.061,-138.966,18.693,-14.930
2350,-0.3203,-0.6201,-0.7104,-0.122,-0.061,-0.122,-138.966,18.693,-14.930
2360,-0.3213,-0.6211,-0.7109,-0.366,0.244,-0.122,-138.972,18.693,-14.930
2370,-0.3223,-0.6211,-0.7144,-0.549,0.305,-0.061,-138.977,18.693,-14.930
2380,-0.3242,-0.6177,-0.7153,-0.732,0.122,-0.122,-138.988,18.693,-14.930
2390,-0.3247,-0.6187,-0.7187,-0.732,-0.122,-0.183,-138.994,18.693,-14.930
2400,-0.3237,-0.6196,-0.7246,-0.549,-0.244,-0.305,-139.005,18.693,-14.930
2410,-0.3242,-0.6226,-0.7241,-0.366,-0.427,-0.366,-139.010,18.699,-14.930
2420,-0.3232,-0.6250,-0.7207,-0.183,-0.610,-0.366,-139.010,18.699,-14.930
2430,-0.3223,-0.6250,-0.7197,-0.061,-0.916,-0.366,-139.010,18.704,-14.930
2440,-0.3223,-0.6260,-0.7168,0.122,-1.282,-0.305,-138.999,18.710,-14.930
2450,-0.3223,-0.6274,-0.7139,0.244,-1.526,-0.244,-138.994,18.721,-14.930
2460,-0.3237,-0.6279,-0.7114,0.183,-1.648,-0.122,-138.983,18.732,-14.930
2470,-0.3247,-0.6294,-0.7070,0.061,-1.465,0.000,-138.972,18.748,-14.930
2480,-0.3218,-0.6299,-0.7085,0.061,-1.282,0.000,-138.961,18.759,-14.930
2490,-0.3218,-0.6284,-0.7070,0.000,-1.038,0.183,-138.955,18.765,-14.930
2500,-0.3223,-0.6260,-0.7056,-0.183,-0.977,0.366,-138.950,18.776,-14.930
2510,-0.3223,-0.6226,-0.7070,-0.061,-0.916,0.366,-138.944,18.787,-14.930
2520,-0.3203,-0.6230,-0.7036,0.122,-0.977,0.305,-138.939,18.798,-14.930
2530,-0.3198,-0.6240,-0.7007,0.061,-0.793,0.244,-138.928,18.803,-14.930
2540,-0.3188,-0.6255,-0.7017,-0.122,-0.427,0.244,-138.922,18.809,-14.930
2550,-0.3188,-0.6235,-0.7026,-0.549,0.000,0.305,-138.928,18.809,-14.930
2561,-0.3213,-0.6211,-0.7051,-0.916,0.244,0.427,-138.933,18.814,-14.930
2570,-0.3218,-0.6196,-0.7070,-0.977,0.427,0.549,-138.944,18.814,-14.930
2580,-0.3218,-0.6152,-0.7100,-0.610,0.549,0.549,-138.955,18.814,-14.930
2590,-0.3232,-0.6143,-0.7075,0.061,0.488,0.488,-138.955,18.814,-14.930
2600,-0.3252,-0.6143,-0.7070,0.610,0.305,0.305,-138.950,18.820,-14.930
2610,-0.3218,-0.6162,-0.7046,0.549,0.183,0.061,-138.944,18.820,-14.930
2620,-0.3218,-0.6172,-0.7041,0.000,0.183,-0.183,-138.944,18.820,-14.930
2630,-0.3213,-0.6191,-0.7061,-0.732,0.244,-0.366,-138.950,18.814,-14.930
2640,-0.3198,-0.6182,-0.7095,-1.221,0.427,-0.488,-138.961,18.809,-14.930
2650,-0.3193,-0.6167,-0.7104,-1.282,0.732,-0.549,-138.972,18.798,-14.930
2660,-0.3213,-0.6201,-0.7124,-0.854,0.977,-0.671,-138.983,18.787,-14.930
2670,-0.3198,-0.6226,-0.7109,-0.244,1.038,-0.732,-138.983,18.770,-14.930
2680,-0.3218,-0.6230,-0.7129,0.183,0.854,-0.610,-138.983,18.765,-14.930
2690,-0.3223,-0.6250,-0.7124,0.244,0.671,-0.488,-138.977,18.754,-14.930
2700,-0.3213,-0.6284,-0.7153,-0.061,0.488,-0.305,-138.977,18.748,-14.930
2710,-0.3213,-0.6294,-0.7158,-0.427,0.488,-0.244,-138.977,18.743,-14.930
2720,-0.3198,-0.6279,-0.7187,-0.671,0.427,-0.183,-138.983,18.737,-14.930
2730,-0.3203,-0.6245,-0.7183,-0.671,0.305,-0.122,-138.988,18.732,-14.930
2740,-0.3208,-0.6245,-0.7187,-0.244,0.183,0.000,-138.994,18.726,-14.930
2750,-0.3198,-0.6260,-0.7163,0.244,0.000,0.000,-138.988,18.726,-14.930
2760,-0.3228,-0.6255,-0.7173,0.549,-0.183,0.000,-138.983,18.726,-14.930
2770,-0.3252,-0.6240,-0.7168,0.671,-0.244,0.122,-138.977,18.732,-14.930
2780,-0.3242,-0.6230,-0.7158,0.610,-0.244,0.122,-138.966,18.737,-14.930
2790,-0.3242,-0.6216,-0.7124,0.244,-0.183,0.122,-138.966,18.743,-14.930
2800,-0.3237,-0.6191,-0.7124,-0.122,-0.122,0.122,-138.966,18.743,-14.930
2810,-0.3228,-0.6211,-0.7153,-0.366,-0.122,0.122,-138.972,18.748,-14.930
2820,-0.3252,-0.6211,-0.7163,-0.488,-0.183,0.183,-138.977,18.748,-14.930
2830,-0.3247,-0.6201,-0.7144,-0.427,-0.244,0.122,-138.983,18.754,-14.930
2840,-0.3228,-0.6206,-0.7163,-0.244,-0.183,0.000,-138.983,18.759,-14.930
2850,-0.3203,-0.6201,-0.7173,-0.244,-0.305,-0.061,-138.988,18.759,-14.930
2860,-0.3193,-0.6221,-0.7158,-0.366,-0.488,-0.061,-138.988,18.759,-14.930
2870,-0.3179,-0.6245,-0.7163,-0.305,-0.854,-0.122,-138.988,18.765,-14.930
2880,-0.3188,-0.6250,-0.7158,-0.183,-1.160,-0.122,-138.988,18.770,-14.930
2890,-0.3208,-0.6226,-0.7153,0.122,-1.221,0.000,-138.983,18.776,-14.930
2900,-0.3228,-0.6230,-0.7134,0.549,-1.099,0.061,-138.977,18.787,-14.930
2910,-0.3223,-0.6240,-0.7100,0.793,-0.854,0.122,-138.961,18.792,-14.930
2920,-0.3228,-0.6235,-0.7075,0.916,-0.610,0.183,-138.950,18.798,-14.930
2930,-0.3232,-0.6201,-0.7051,0.793,-0.610,0.183,-138.939,18.809,-14.930
2940,-0.3237,-0.6206,-0.7061,0.549,-0.610,0.183,-138.928,18.814,-14.930
2950,-0.3228,-0.6196,-0.7075,0.305,-0.488,0.061,-138.922,18.820,-14.930
2960,-0.3218,-0.6201,-0.7061,0.000,-0.305,-0.061,-138.922,18.825,-14.930
2970,-0.3218,-0.6216,-0.7090,-0.305,0.000,-0.122,-138.922,18.825,-14.930
2980,-0.3203,-0.6230,-0.7090,-0.549,0.244,-0.122,-138.922,18.820,-14.930
2990,-0.3213,-0.6226,-0.7134,-0.610,0.305,0.000,-138.933,18.814,-14.930
3000,-0.3193,-0.6226,-0.7139,-0.427,0.183,0.122,-138.933,18.814,-14.930
3010,-0.3193,-0.6201,-0.7144,-0.122,0.000,0.183,-138.939,18.814,-14.930
3020,-0.3208,-0.6196,-0.7158,0.244,-0.061,0.183,-138.939,18.814,-14.930
3030,-0.3203,-0.6196,-0.7114,0.549,-0.122,0.000,-138.933,18.814,-14.930
3040,-0.3208,-0.6206,-0.7085,0.610,-0.305,-0.183,-138.922,18.814,-14.930
3050,-0.3213,-0.6201,-0.7100,0.427,-0.488,-0.183,-138.917,18.820,-14.930
3061,-0.3223,-0.6206,-0.7080,0.183,-0.610,-0.183,-138.911,18.825,-14.930
3070,-0.3228,-0.6211,-0.7065,0.061,-0.610,-0.183,-138.906,18.825,-14.930
3080,-0.3237,-0.6211,-0.7056,0.122,-0.427,-0.244,-138.900,18.831,-14.930
3090,-0.3228,-0.6235,-0.7090,0.183,-0.122,-0.305,-138.895,18.831,-14.930
3100,-0.3223,-0.6240,-0.7119,0.122,0.183,-0.305,-138.895,18.825,-14.930
3110,-0.3247,-0.6260,-0.7129,-0.061,0.366,-0.244,-138.895,18.825,-14.930
3120,-0.3237,-0.6265,-0.7129,-0.305,0.305,-0.122,-138.895,18.820,-14.930
3130,-0.3237,-0.6250,-0.7144,-0.427,0.122,0.061,-138.900,18.820,-14.930
3140,-0.3228,-0.6265,-0.7153,-0.305,-0.061,0.183,-138.900,18.820,-14.930
3150,-0.3213,-0.6260,-0.7178,-0.122,-0.183,0.244,-138.900,18.820,-14.930
3160,-0.3223,-0.6245,-0.7183,0.061,-0.183,0.244,-138.900,18.825,-14.930
3170,-0.3218,-0.6235,-0.7178,0.366,-0.305,0.244,-138.900,18.825,-14.930
3180,-0.3223,-0.6245,-0.7158,0.549,-0.488,0.366,-138.895,18.831,-14.930
3190,-0.3232,-0.6206,-0.7129,0.732,-0.732,0.427,-138.889,18.842,-14.930
3200,-0.3247,-0.6187,-0.7104,0.854,-0.977,0.427,-138.878,18.853,-14.930
3210,-0.3267,-0.6191,-0.7090,0.854,-0.916,0.305,-138.867,18.864,-14.930
3220,-0.3257,-0.6201,-0.7056,0.671,-0.671,0.122,-138.856,18.875,-14.930
3230,-0.3242,-0.6191,-0.7051,0.244,-0.244,0.000,-138.856,18.875,-14.930
3240,-0.3228,-0.6206,-0.7036,-0.183,0.061,-0.061,-138.851,18.875,-14.930
3250,-0.3232,-0.6216,-0.7095,-0.427,0.183,0.061,-138.856,18.875,-14.930
3260,-0.3237,-0.6221,-0.7119,-0.549,0.122,0.061,-138.862,18.875,-14.930
3270,-0.3242,-0.6216,-0.7124,-0.549,0.122,-0.061,-138.867,18.875,-14.930
3280,-0.3213,-0.6216,-0.7129,-0.488,0.183,-0.122,-138.873,18.869,-14.930
3290,-0.3169,-0.6226,-0.7119,-0.427,0.122,-0.122,-138.878,18.864,-14.930
3300,-0.3174,-0.6216,-0.7134,-0.488,0.000,-0.061,-138.884,18.864,-14.930
3310,-0.3213,-0.6221,-0.7148,-0.488,-0.244,0.061,-138.889,18.864,-14.930
3320,-0.3188,-0.6211,-0.7163,-0.183,-0.427,0.061,-138.889,18.864,-14.930
3330,-0.3198,-0.6206,-0.7144,0.183,-0.488,0.000,-138.889,18.864,-14.930
3340,-0.3208,-0.6230,-0.7104,0.549,-0.549,-0.183,-138.884,18.869,-14.930
3350,-0.3218,-0.6230,-0.7109,0.610,-0.427,-0.183,-138.873,18.869,-14.930
3360,-0.3237,-0.6240,-0.7109,0.427,-0.244,-0.183,-138.867,18.869,-14.930
3370,-0.3252,-0.6230,-0.7085,0.122,-0.244,-0.122,-138.862,18.875,-14.930
3380,-0.3262,-0.6235,-0.7095,-0.183,-0.244,-0.122,-138.862,18.875,-14.930
3390,-0.3276,-0.6235,-0.7070,-0.305,-0.244,-0.183,-138.862,18.880,-14.930
3400,-0.3262,-0.6230,-0.7104,-0.305,-0.305,-0.183,-138.862,18.880,-14.930
3410,-0.3242,-0.6245,-0.7085,-0.244,-0.183,-0.244,-138.862,18.880,-14.930
3420,-0.3237,-0.6260,-0.7100,-0.244,0.000,-0.244,-138.856,18.880,-14.930
3430,-0.3232,-0.6235,-0.7090,-0.244,0.061,-0.244,-138.856,18.880,-14.930
3440,-0.3223,-0.6250,-0.7090,-0.305,0.122,-0.244,-138.862,18.875,-14.930
3450,-0.3223,-0.6270,-0.7100,-0.488,0.183,-0.244,-138.862,18.875,-14.930
3460,-0.3223,-0.6250,-0.7085,-0.549,0.183,-0.122,-138.862,18.869,-14.930
3470,-0.3223,-0.6240,-0.7104,-0.610,0.000,-0.061,-138.867,18.869,-14.930
3480,-0.3247,-0.6235,-0.7090,-0.427,-0.183,0.000,-138.867,18.869,-14.930
3490,-0.3257,-0.6230,-0.7124,-0.122,-0.366,0.000,-138.867,18.875,-14.930
3500,-0.3228,-0.6221,-0.7100,0.244,-0.488,-0.061,-138.867,18.880,-14.930
3510,-0.3228,-0.6235,-0.7065,0.427,-0.549,-0.122,-138.856,18.880,-14.930
3520,-0.3232,-0.6230,-0.7026,0.488,-0.549,-0.122,-138.845,18.885,-14.930
3530,-0.3232,-0.6230,-0.7041,0.305,-0.427,-0.183,-138.840,18.891,-14.930
3540,-0.3257,-0.6250,-0.7012,0.244,0.122,-0.183,-138.829,18.891,-14.930
3550,-0.3228,-0.6235,-0.7031,0.244,1.282,-0.183,-138.823,18.880,-14.930
3561,-0.3208,-0.6265,-0.7056,0.000,2.136,-0.061,-138.823,18.864,-14.930
3570,-0.3213,-0.6279,-0.7104,-0.366,2.075,0.122,-138.829,18.847,-14.930
3580,-0.3223,-0.6289,-0.7148,-0.793,1.343,0.244,-138.840,18.836,-14.930
3590,-0.3252,-0.6255,-0.7183,-0.916,0.549,0.366,-138.851,18.836,-14.930
3600,-0.3252,-0.6206,-0.7183,-0.854,0.183,0.427,-138.867,18.836,-14.930
3610,-0.3267,-0.6191,-0.7202,-0.549,0.061,0.427,-138.878,18.842,-14.930
3620,-0.3252,-0.6196,-0.7192,0.183,-0.061,0.305,-138.878,18.842,-14.930
3630,-0.3237,-0.6216,-0.7168,0.977,-0.244,0.244,-138.873,18.847,-14.930
3640,-0.3252,-0.6221,-0.7153,1.282,-0.427,0.122,-138.862,18.853,-14.930
3650,-0.3257,-0.6221,-0.7144,1.038,-0.488,0.061,-138.851,18.858,-14.930
3660,-0.3218,-0.6230,-0.7109,0.427,-0.427,0.061,-138.845,18.858,-14.930
3670,-0.3232,-0.6201,-0.7134,-0.122,-0.305,0.000,-138.845,18.864,-14.930
3680,-0.3208,-0.6196,-0.7119,-0.488,-0.183,-0.061,-138.851,18.864,-14.930
3690,-0.3184,-0.6221,-0.7129,-0.549,-0.061,-0.061,-138.856,18.858,-14.930
3700,-0.3174,-0.6226,-0.7119,-0.427,-0.061,-0.061,-138.862,18.858,-14.930
3710,-0.3198,-0.6211,-0.7119,-0.305,-0.183,-0.061,-138.862,18.858,-14.930
3720,-0.3218,-0.6196,-0.7104,-0.061,-0.122,-0.061,-138.862,18.858,-14.930
3730,-0.3223,-0.6206,-0.7100,0.122,-0.122,-0.061,-138.862,18.858,-14.930
3740,-0.3213,-0.6201,-0.7065,0.122,-0.183,-0.244,-138.856,18.858,-14.930
3750,-0.3218,-0.6221,-0.7075,-0.061,-0.183,-0.366,-138.856,18.858,-14.930
3760,-0.3203,-0.6230,-0.7104,-0.366,-0.122,-0.488,-138.856,18.853,-14.930
3770,-0.3208,-0.6235,-0.7134,-0.549,-0.183,-0.366,-138.862,18.853,-14.930
3780,-0.3208,-0.6216,-0.7148,-0.427,-0.305,-0.366,-138.867,18.847,-14.930
3790,-0.3232,-0.6211,-0.7124,0.000,-0.549,-0.366,-138.862,18.853,-14.930
3800,-0.3247,-0.6216,-0.7100,0.549,-0.732,-0.305,-138.856,18.858,-14.930
3810,-0.3257,-0.6201,-0.7051,0.854,-0.732,-0.366,-138.840,18.864,-14.930
3820,-0.3257,-0.6216,-0.7021,0.793,-0.610,-0.488,-138.829,18.864,-14.930
3830,-0.3267,-0.6240,-0.7007,0.305,-0.305,-0.610,-138.818,18.869,-14.930
3840,-0.3223,-0.6255,-0.7012,-0.305,0.183,-0.732,-138.812,18.864,-14.930
3850,-0.3242,-0.6270,-0.7075,-0.916,0.488,-0.732,-138.818,18.853,-14.930
3860,-0.3242,-0.6274,-0.7104,-1.160,0.610,-0.549,-138.829,18.847,-14.930
3870,-0.3232,-0.6284,-0.7134,-0.977,0.549,-0.305,-138.834,18.842,-14.930
3880,-0.3252,-0.6284,-0.7124,-0.427,0.366,-0.122,-138.834,18.836,-14.930
3890,-0.3247,-0.6294,-0.7109,0.061,0.244,0.000,-138.834,18.836,-14.930
3900,-0.3232,-0.6274,-0.7104,0.366,0.183,0.183,-138.829,18.836,-14.930
3910,-0.3237,-0.6294,-0.7104,0.427,0.183,0.305,-138.823,18.836,-14.930
3920,-0.3193,-0.6260,-0.7119,0.183,0.244,0.427,-138.818,18.836,-14.930
3930,-0.3218,-0.6235,-0.7114,-0.061,0.122,0.488,-138.823,18.836,-14.930
3940,-0.3213,-0.6226,-0.7124,-0.122,-0.061,0.427,-138.823,18.842,-14.930
3950,-0.3228,-0.6230,-0.7124,0.000,-0.244,0.305,-138.823,18.842,-14.930
3960,-0.3247,-0.6255,-0.7109,0.183,-0.366,0.244,-138.818,18.847,-14.930
3970,-0.3228,-0.6240,-0.7114,0.305,-0.305,0.244,-138.818,18.853,-14.930
3980,-0.3237,-0.6284,-0.7134,0.366,-0.244,0.305,-138.812,18.853,-14.930
3990,-0.3223,-0.6279,-0.7100,0.305,-0.183,0.427,-138.807,18.858,-14.930
4000,-0.3223,-0.6240,-0.7114,0.305,-0.183,0.427,-138.801,18.864,-14.930
4010,-0.3223,-0.6240,-0.7119,0.183,-0.244,0.488,-138.801,18.869,-14.930
4020,-0.3237,-0.6216,-0.7139,0.244,-0.305,0.549,-138.801,18.875,-14.930
4030,-0.3223,-0.6196,-0.7104,0.366,-0.427,0.488,-138.796,18.880,-14.930
4040,-0.3242,-0.6182,-0.7095,0.549,-0.610,0.366,-138.796,18.885,-14.930
4050,-0.3262,-0.6196,-0.7070,0.732,-0.854,0.183,-138.785,18.896,-14.930
4061,-0.3242,-0.6216,-0.7065,0.671,-0.977,-0.061,-138.774,18.907,-14.930
4070,-0.3232,-0.6226,-0.7041,0.366,-0.916,-0.061,-138.768,18.913,-14.930
4080,-0.3228,-0.6221,-0.7031,0.122,-0.732,0.000,-138.763,18.918,-14.930
4090,-0.3252,-0.6211,-0.7026,-0.061,-0.427,0.061,-138.757,18.924,-14.930
4100,-0.3242,-0.6245,-0.7036,-0.061,0.000,0.000,-138.757,18.924,-14.930
4110,-0.3232,-0.6245,-0.7061,-0.183,0.366,0.000,-138.757,18.924,-14.930
4120,-0.3223,-0.6255,-0.7070,-0.366,0.610,0.122,-138.757,18.918,-14.930
4130,-0.3213,-0.6255,-0.7090,-0.427,0.610,0.244,-138.763,18.913,-14.930
4140,-0.3203,-0.6240,-0.7080,-0.427,0.549,0.244,-138.768,18.907,-14.930
4150,-0.3218,-0.6226,-0.7100,-0.244,0.427,0.183,-138.768,18.907,-14.930
4160,-0.3223,-0.6221,-0.7080,-0.061,0.427,0.183,-138.774,18.902,-14.930
4170,-0.3242,-0.6216,-0.7090,0.122,0.488,0.183,-138.774,18.902,-14.930
4180,-0.3247,-0.6230,-0.7104,0.183,0.671,0.183,-138.774,18.902,-14.930
4190,-0.3228,-0.6196,-0.7104,-0.061,0.671,0.122,-138.774,18.896,-14.930
4200,-0.3237,-0.6211,-0.7109,-0.305,0.610,0.122,-138.779,18.891,-14.930
4210,-0.3257,-0.6211,-0.7114,-0.427,0.549,0.000,-138.785,18.891,-14.930
4220,-0.3257,-0.6226,-0.7119,-0.366,0.488,-0.122,-138.790,18.885,-14.930
4230,-0.3252,-0.6245,-0.7119,-0.305,0.549,-0.183,-138.796,18.880,-14.930
4240,-0.3242,-0.6260,-0.7114,-0.366,0.610,-0.122,-138.801,18.875,-14.930
4250,-0.3247,-0.6260,-0.7129,-0.305,0.488,0.061,-138.801,18.875,-14.930
4260,-0.3257,-0.6260,-0.7148,-0.244,0.305,0.061,-138.807,18.869,-14.930
4270,-0.3247,-0.6260,-0.7173,-0.122,0.122,0.000,-138.807,18.869,-14.930
4280,-0.3271,-0.6265,-0.7144,-0.061,0.122,0.061,-138.807,18.869,-14.930
4290,-0.3247,-0.6274,-0.7124,0.000,0.183,0.061,-138.807,18.869,-14.930
4300,-0.3242,-0.6265,-0.7144,0.000,0.000,0.000,-138.807,18.869,-14.930
4310,-0.3237,-0.6289,-0.7114,-0.061,-0.183,0.000,-138.801,18.869,-14.930
4320,-0.3242,-0.6274,-0.7100,-0.122,-0.305,0.061,-138.801,18.875,-14.930
4330,-0.3247,-0.6265,-0.7104,-0.061,-0.305,0.183,-138.801,18.880,-14.930
4340,-0.3242,-0.6250,-0.7090,0.000,-0.061,0.244,-138.796,18.880,-14.930
4350,-0.3257,-0.6260,-0.7051,0.061,0.244,0.244,-138.796,18.880,-14.930
4360,-0.3267,-0.6235,-0.7075,0.061,0.427,0.305,-138.796,18.885,-14.930
4370,-0.3262,-0.6240,-0.7070,0.000,0.427,0.305,-138.796,18.885,-14.930
4380,-0.3247,-0.6221,-0.7075,-0.061,0.427,0.305,-138.796,18.885,-14.930
4390,-0.3237,-0.6216,-0.7051,-0.122,0.427,0.305,-138.796,18.885,-14.930
4400,-0.3262,-0.6235,-0.7065,-0.122,0.549,0.244,-138.796,18.885,-14.930
4410,-0.3232,-0.6260,-0.7065,-0.183,0.732,0.183,-138.796,18.880,-14.930
4420,-0.3193,-0.6250,-0.7061,-0.366,0.916,0.244,-138.801,18.875,-14.930
4430,-0.3179,-0.6274,-0.7095,-0.488,1.038,0.366,-138.807,18.864,-14.930
4440,-0.3203,-0.6235,-0.7119,-0.488,0.977,0.549,-138.812,18.858,-14.930
4450,-0.3218,-0.6191,-0.7129,-0.122,0.854,0.671,-138.818,18.858,-14.930
4460,-0.3237,-0.6177,-0.7080,0.366,0.793,0.610,-138.823,18.858,-14.930
4470,-0.3247,-0.6162,-0.7080,0.671,0.671,0.427,-138.818,18.858,-14.930
4480,-0.3257,-0.6206,-0.7065,0.549,0.549,0.305,-138.812,18.858,-14.930
4490,-0.3228,-0.6211,-0.7061,0.000,0.549,0.183,-138.812,18.853,-14.930
4500,-0.3203,-0.6211,-0.7129,-0.671,0.610,0.122,-138.823,18.847,-14.930
4510,-0.3198,-0.6211,-0.7173,-1.038,0.671,0.122,-138.840,18.842,-14.930
4520,-0.3232,-0.6226,-0.7139,-0.916,0.549,0.183,-138.851,18.842,-14.930
4530,-0.3242,-0.6245,-0.7163,-0.427,0.488,0.244,-138.856,18.836,-14.930
4540,-0.3232,-0.6279,-0.7158,0.122,0.366,0.366,-138.856,18.836,-14.930
4550,-0.3247,-0.6250,-0.7139,0.427,0.305,0.427,-138.851,18.836,-14.930
4561,-0.3237,-0.6260,-0.7134,0.427,0.244,0.488,-138.851,18.842,-14.930
4570,-0.3242,-0.6250,-0.7153,0.244,0.061,0.732,-138.851,18.842,-14.930
4580,-0.3257,-0.6221,-0.7139,0.061,-0.122,0.793,-138.851,18.853,-14.930
4590,-0.3232,-0.6201,-0.7124,0.061,-0.244,0.610,-138.851,18.858,-14.930
4600,-0.3228,-0.6206,-0.7114,0.183,-0.488,0.488,-138.851,18.864,-14.930
4610,-0.3237,-0.6211,-0.7134,0.183,-0.549,0.427,-138.851,18.875,-14.930
4620,-0.3237,-0.6230,-0.7129,0.183,-0.549,0.366,-138.845,18.880,-14.930
4630,-0.3232,-0.6226,-0.7114,0.122,-0.488,0.244,-138.845,18.885,-14.930
4640,-0.3232,-0.6250,-0.7085,0.061,-0.305,0.244,-138.840,18.885,-14.930
4650,-0.3237,-0.6235,-0.7065,0.000,-0.122,0.305,-138.840,18.891,-14.930
4660,-0.3252,-0.6235,-0.7090,0.061,0.000,0.427,-138.840,18.896,-14.930
4670,-0.3271,-0.6240,-0.7080,0.061,0.183,0.427,-138.840,18.896,-14.930
4680,-0.3262,-0.6260,-0.7070,0.061,0.244,0.366,-138.834,18.902,-14.930
4690,-0.3242,-0.6240,-0.7090,-0.122,0.183,0.427,-138.834,18.902,-14.930
4700,-0.3252,-0.6240,-0.7070,-0.244,0.122,0.488,-138.834,18.907,-14.930
4710,-0.3262,-0.6230,-0.7075,-0.427,0.061,0.488,-138.840,18.913,-14.930
4720,-0.3257,-0.6230,-0.7061,-0.427,0.122,0.366,-138.845,18.913,-14.930
4730,-0.3232,-0.6235,-0.7061,-0.366,0.122,0.305,-138.845,18.913,-14.930
4740,-0.3252,-0.6245,-0.7056,-0.305,0.183,0.427,-138.845,18.918,-14.930
4750,-0.3242,-0.6226,-0.7041,0.061,0.305,0.488,-138.845,18.918,-14.930
4760,-0.3247,-0.6245,-0.7007,0.244,0.366,0.488,-138.840,18.924,-14.930
4770,-0.3237,-0.6240,-0.7031,0.244,0.488,0.549,-138.834,18.924,-14.930
4780,-0.3252,-0.6230,-0.7002,0.000,0.671,0.671,-138.834,18.924,-14.930
4790,-0.3242,-0.6235,-0.7031,-0.183,0.854,0.671,-138.834,18.924,-14.930
4800,-0.3228,-0.6216,-0.7046,-0.366,1.038,0.610,-138.840,18.918,-14.930
4810,-0.3228,-0.6221,-0.7061,-0.549,1.282,0.549,-138.845,18.913,-14.930
4820,-0.3208,-0.6221,-0.7075,-0.732,1.587,0.488,-138.856,18.902,-14.930
4830,-0.3213,-0.6201,-0.7100,-0.793,1.709,0.488,-138.867,18.896,-14.930
4840,-0.3223,-0.6182,-0.7114,-0.732,1.648,0.549,-138.884,18.885,-14.930
4850,-0.3218,-0.6201,-0.7139,-0.427,1.465,0.488,-138.895,18.875,-14.930
4860,-0.3203,-0.6191,-0.7168,-0.122,1.160,0.549,-138.900,18.869,-14.930
4870,-0.3203,-0.6157,-0.7173,0.305,0.793,0.610,-138.906,18.864,-14.930
4880,-0.3203,-0.6167,-0.7153,0.732,0.427,0.671,-138.906,18.864,-14.930
4890,-0.3237,-0.6191,-0.7144,1.038,0.122,0.610,-138.900,18.869,-14.930
4900,-0.3242,-0.6191,-0.7134,1.099,0.000,0.488,-138.889,18.875,-14.930
4910,-0.3232,-0.6191,-0.7124,0.916,0.122,0.366,-138.884,18.875,-14.930
4920,-0.3242,-0.6206,-0.7134,0.488,0.427,0.305,-138.878,18.875,-14.930
4930,-0.3223,-0.6211,-0.7158,0.000,0.671,0.305,-138.884,18.869,-14.930
4940,-0.3208,-0.6201,-0.7192,-0.305,0.793,0.305,-138.895,18.864,-14.930
4950,-0.3218,-0.6172,-0.7212,-0.305,0.671,0.244,-138.906,18.858,-14.930
4960,-0.3223,-0.6187,-0.7197,0.000,0.305,0.183,-138.911,18.858,-14.930
4970,-0.3247,-0.6182,-0.7163,0.549,-0.061,0.122,-138.906,18.858,-14.930
4980,-0.3242,-0.6162,-0.7134,0.977,-0.366,0.061,-138.900,18.864,-14.930
4990,-0.3252,-0.6167,-0.7100,1.160,-0.488,-0.061,-138.889,18.869,-14.930
5000,-0.3262,-0.6187,-0.7075,0.854,-0.305,-0.366,-138.878,18.875,-14.930
5010,-0.3262,-0.6206,-0.7061,0.305,0.000,-0.610,-138.873,18.869,-14.930
5020,-0.3262,-0.6226,-0.7100,-0.305,0.305,-0.854,-138.873,18.864,-14.930
5030,-0.3257,-0.6245,-0.7124,-0.854,0.610,-0.916,-138.878,18.858,-14.930
5040,-0.3247,-0.6274,-0.7148,-1.160,0.793,-0.854,-138.889,18.842,-14.930
5050,-0.3232,-0.6338,-0.7134,-1.160,0.793,-0.793,-138.895,18.831,-14.930
5061,-0.3203,-0.6309,-0.7168,-1.038,0.549,-0.610,-138.900,18.820,-14.930
5070,-0.3203,-0.6333,-0.7183,-0.793,0.122,-0.366,-138.906,18.814,-14.930
5080,-0.3237,-0.6294,-0.7178,-0.427,-0.122,-0.061,-138.906,18.814,-14.930
5090,-0.3267,-0.6240,-0.7178,0.183,-0.305,0.000,-138.906,18.820,-14.930
5100,-0.3271,-0.6226,-0.7139,0.793,-0.488,-0.061,-138.895,18.825,-14.930
5110,-0.3257,-0.6240,-0.7085,1.221,-0.671,-0.305,-138.878,18.831,-14.930
5120,-0.3247,-0.6255,-0.7065,1.099,-0.793,-0.366,-138.862,18.836,-14.930
5130,-0.3242,-0.6260,-0.7021,0.610,-0.793,-0.305,-138.845,18.842,-14.930
5140,-0.3237,-0.6255,-0.7046,-0.061,-0.732,-0.244,-138.840,18.847,-14.930
5150,-0.3237,-0.6260,-0.7021,-0.488,-0.427,-0.183,-138.840,18.847,-14.930
5160,-0.3228,-0.6226,-0.7007,-0.610,-0.061,0.000,-138.840,18.853,-14.930
5170,-0.3203,-0.6250,-0.7026,-0.244,0.305,0.000,-138.840,18.847,-14.930
5180,-0.3193,-0.6265,-0.7056,-0.061,0.671,0.061,-138.834,18.842,-14.930
5190,-0.3198,-0.6279,-0.7061,-0.122,0.854,0.122,-138.834,18.836,-14.930
5200,-0.3213,-0.6270,-0.7065,-0.427,0.854,0.244,-138.840,18.831,-14.930
5210,-0.3198,-0.6235,-0.7085,-0.732,0.732,0.366,-138.845,18.825,-14.930
5220,-0.3213,-0.6201,-0.7119,-0.793,0.671,0.427,-138.856,18.825,-14.930
5230,-0.3228,-0.6201,-0.7153,-0.610,0.671,0.366,-138.867,18.820,-14.930
5240,-0.3213,-0.6187,-0.7134,-0.366,0.732,0.305,-138.873,18.814,-14.930
5250,-0.3232,-0.6211,-0.7139,-0.183,0.671,0.183,-138.878,18.814,-14.930
5260,-0.3247,-0.6230,-0.7139,-0.183,0.610,0.061,-138.884,18.809,-14.930
5270,-0.3232,-0.6240,-0.7139,-0.305,0.610,0.061,-138.889,18.803,-14.930
5280,-0.3228,-0.6221,-0.7173,-0.549,0.549,0.183,-138.895,18.803,-14.930
5290,-0.3247,-0.6226,-0.7187,-0.671,0.488,0.244,-138.906,18.803,-14.930
5300,-0.3252,-0.6216,-0.7192,-0.549,0.488,0.305,-138.917,18.798,-14.930
5311,-0.3257,-0.6221,-0.7173,-0.366,0.427,0.244,-138.922,18.798,-14.930
5321,-0.3247,-0.6226,-0.7183,-0.366,0.366,0.183,-138.928,18.798,-14.930
5331,-0.3242,-0.6216,-0.7197,-0.366,0.183,0.183,-138.939,18.798,-14.930
5341,-0.3228,-0.6221,-0.7163,-0.427,0.061,0.122,-138.944,18.798,-14.930
5350,-0.3203,-0.6201,-0.7139,-0.427,-0.061,0.122,-138.950,18.798,-14.930
5361,-0.3223,-0.6221,-0.7129,-0.366,-0.366,0.061,-138.950,18.803,-14.930
5371,-0.3223,-0.6240,-0.7114,-0.122,-0.671,0.183,-138.950,18.809,-14.930
5381,-0.3237,-0.6250,-0.7061,0.122,-0.671,0.183,-138.939,18.820,-14.930
5391,-0.3208,-0.6255,-0.7070,0.122,-0.488,0.183,-138.933,18.820,-14.930
5401,-0.3213,-0.6255,-0.7065,-0.122,-0.122,0.244,-138.933,18.825,-14.930
5411,-0.3218,-0.6216,-0.7085,-0.366,0.122,0.366,-138.933,18.825,-14.930
5421,-0.3218,-0.6196,-0.7051,-0.488,0.183,0.427,-138.939,18.831,-14.930
5431,-0.3218,-0.6157,-0.7051,-0.549,0.061,0.305,-138.944,18.831,-14.930
5441,-0.3218,-0.6177,-0.7061,-0.427,0.122,0.183,-138.950,18.831,-14.930
5451,-0.3208,-0.6191,-0.7046,-0.244,0.244,0.000,-138.950,18.831,-14.930
5461,-0.3203,-0.6196,-0.7041,-0.305,0.427,-0.122,-138.950,18.825,-14.930
5471,-0.3203,-0.6206,-0.7080,-0.427,0.549,-0.122,-138.950,18.820,-14.930
5481,-0.3223,-0.6226,-0.7075,-0.488,0.549,-0.122,-138.955,18.820,-14.930
5491,-0.3232,-0.6211,-0.7090,-0.549,0.427,-0.061,-138.961,18.814,-14.930
5501,-0.3257,-0.6196,-0.7095,-0.366,0.488,0.061,-138.961,18.814,-14.930
5511,-0.3262,-0.6206,-0.7090,0.000,0.488,0.122,-138.961,18.814,-14.930
5521,-0.3267,-0.6216,-0.7100,0.244,0.549,0.061,-138.961,18.814,-14.930
5531,-0.3252,-0.6221,-0.7124,0.305,0.671,-0.061,-138.955,18.809,-14.930
5541,-0.3237,-0.6191,-0.7124,0.122,0.732,-0.061,-138.961,18.803,-14.930
5551,-0.3213,-0.6196,-0.7124,-0.244,0.671,0.061,-138.961,18.798,-14.930
5561,-0.3223,-0.6216,-0.7153,-0.549,0.610,0.000,-138.972,18.798,-14.930
5571,-0.3228,-0.6221,-0.7163,-0.793,0.549,0.061,-138.977,18.792,-14.930
5581,-0.3213,-0.6201,-0.7158,-0.732,0.427,0.061,-138.988,18.787,-14.930
5591,-0.3198,-0.6221,-0.7192,-0.427,0.366,0.000,-138.994,18.781,-14.930
5601,-0.3208,-0.6226,-0.7183,-0.061,0.244,-0.061,-138.999,18.781,-14.930
5611,-0.3203,-0.6221,-0.7163,0.183,0.183,0.000,-138.999,18.776,-14.930
5621,-0.3203,-0.6230,-0.7168,0.244,0.183,0.183,-138.994,18.776,-14.930
5631,-0.3198,-0.6221,-0.7124,0.183,0.000,0.183,-138.994,18.776,-14.930
5641,-0.3218,-0.6187,-0.7144,0.061,-0.366,0.122,-138.994,18.781,-14.930
5651,-0.3237,-0.6196,-0.7153,0.061,-0.671,0.061,-138.994,18.787,-14.930
5661,-0.3247,-0.6187,-0.7124,0.000,-0.610,-0.061,-138.988,18.792,-14.930
5671,-0.3237,-0.6211,-0.7129,0.000,-0.488,-0.183,-138.988,18.798,-14.930
5681,-0.3223,-0.6226,-0.7109,0.000,-0.427,-0.244,-138.983,18.798,-14.930
5691,-0.3213,-0.6245,-0.7104,0.000,-0.427,-0.183,-138.983,18.798,-14.930
5701,-0.3213,-0.6235,-0.7119,-0.183,-0.488,-0.061,-138.977,18.803,-14.930
5711,-0.3228,-0.6196,-0.7124,-0.305,-0.488,0.061,-138.983,18.809,-14.930
5721,-0.3237,-0.6172,-0.7134,-0.122,-0.427,0.122,-138.983,18.814,-14.930
5731,-0.3252,-0.6187,-0.7114,0.244,-0.427,0.000,-138.977,18.820,-14.930
5741,-0.3218,-0.6177,-0.7085,0.488,-0.488,-0.183,-138.972,18.820,-14.930
5751,-0.3218,-0.6211,-0.7070,0.549,-0.366,-0.305,-138.961,18.825,-14.930
5761,-0.3203,-0.6240,-0.7046,0.366,-0.183,-0.366,-138.955,18.820,-14.930
5771,-0.3208,-0.6255,-0.7051,0.122,0.061,-0.427,-138.944,18.820,-14.930
5781,-0.3203,-0.6240,-0.7046,-0.183,0.244,-0.427,-138.944,18.814,-14.930
5791,-0.3193,-0.6270,-0.7051,-0.366,0.610,-0.305,-138.939,18.809,-14.930
5801,-0.3203,-0.6245,-0.7109,-0.549,0.916,-0.122,-138.944,18.798,-14.930
5811,-0.3228,-0.6221,-0.7114,-0.671,0.977,0.122,-138.955,18.792,-14.930
5821,-0.3247,-0.6230,-0.7139,-0.549,0.916,0.244,-138.961,18.787,-14.930
5831,-0.3262,-0.6221,-0.7139,-0.244,0.671,0.183,-138.966,18.787,-14.930
5841,-0.3237,-0.6187,-0.7158,0.000,0.366,0.061,-138.966,18.787,-14.930
5851,-0.3237,-0.6167,-0.7153,0.183,0.061,-0.061,-138.966,18.787,-14.930
5861,-0.3247,-0.6182,-0.7100,0.305,-0.122,-0.122,-138.966,18.787,-14.930
5871,-0.3237,-0.6167,-0.7114,0.244,-0.305,-0.244,-138.961,18.792,-14.930
5881,-0.3257,-0.6152,-0.7095,0.183,-0.244,-0.427,-138.961,18.792,-14.930
5891,-0.3223,-0.6182,-0.7090,-0.122,-0.061,-0.610,-138.961,18.792,-14.930
5901,-0.3218,-0.6216,-0.7090,-0.488,0.122,-0.671,-138.961,18.787,-14.930
5911,-0.3218,-0.6240,-0.7109,-0.793,0.183,-0.732,-138.966,18.781,-14.930
5921,-0.3203,-0.6265,-0.7139,-1.038,0.183,-0.610,-138.972,18.770,-14.930
5931,-0.3208,-0.6260,-0.7163,-1.038,0.122,-0.366,-138.977,18.770,-14.930
5941,-0.3208,-0.6235,-0.7124,-0.732,0.183,-0.244,-138.983,18.765,-14.930
5951,-0.3218,-0.6216,-0.7134,-0.244,0.244,-0.183,-138.988,18.759,-14.930
5961,-0.3223,-0.6226,-0.7119,0.183,0.244,-0.183,-138.983,18.759,-14.930
5971,-0.3237,-0.6216,-0.7129,0.244,0.244,-0.183,-138.983,18.759,-14.930
5981,-0.3232,-0.6211,-0.7114,0.061,0.000,-0.183,-138.977,18.759,-14.930
5991,-0.3242,-0.6235,-0.7109,-0.305,-0.244,-0.305,-138.977,18.759,-14.930
6001,-0.3247,-0.6221,-0.7134,-0.671,-0.427,-0.427,-138.983,18.759,-14.930
6011,-0.3223,-0.6235,-0.7114,-0.793,-0.427,-0.488,-138.983,18.765,-14.930
6021,-0.3223,-0.6260,-0.7100,-0.732,-0.244,-0.488,-138.988,18.759,-14.930
6031,-0.3213,-0.6279,-0.7119,-0.427,0.000,-0.366,-138.988,18.759,-14.930
6041,-0.3213,-0.6304,-0.7134,-0.183,0.122,-0.244,-138.983,18.754,-14.930
6051,-0.3208,-0.6304,-0.7114,-0.061,0.061,0.000,-138.977,18.754,-14.930
6061,-0.3198,-0.6279,-0.7100,-0.122,0.000,0.244,-138.977,18.754,-14.930
6071,-0.3203,-0.6270,-0.7090,-0.122,-0.183,0.305,-138.972,18.759,-14.930
6081,-0.3213,-0.6226,-0.7085,-0.061,-0.305,0.305,-138.972,18.759,-14.930
6091,-0.3228,-0.6221,-0.7080,0.061,-0.244,0.305,-138.966,18.765,-14.930
6101,-0.3237,-0.6196,-0.7085,0.183,-0.061,0.244,-138.966,18.770,-14.930
6111,-0.3242,-0.6201,-0.7046,0.183,0.122,0.183,-138.961,18.776,-14.930
6121,-0.3242,-0.6187,-0.7065,-0.061,0.366,0.061,-138.961,18.776,-14.930
6131,-0.3247,-0.6182,-0.7080,-0.366,0.610,0.061,-138.966,18.776,-14.930
6141,-0.3247,-0.6201,-0.7080,-0.732,0.732,0.000,-138.972,18.770,-14.930
6151,-0.3237,-0.6211,-0.7114,-0.977,0.916,0.000,-138.983,18.765,-14.930
6161,-0.3237,-0.6221,-0.7173,-1.038,0.977,0.000,-138.994,18.759,-14.930
6171,-0.3208,-0.6240,-0.7153,-0.916,0.854,0.000,-139.005,18.754,-14.930
6181,-0.3184,-0.6265,-0.7178,-0.793,0.610,0.000,-139.016,18.743,-14.930
6191,-0.3193,-0.6270,-0.7173,-0.610,0.244,0.122,-139.016,18.743,-14.930
6201,-0.3203,-0.6240,-0.7173,-0.366,0.061,0.244,-139.021,18.743,-14.930
6211,-0.3198,-0.6240,-0.7163,-0.061,0.061,0.305,-139.021,18.743,-14.930
6221,-0.3203,-0.6240,-0.7148,0.305,-0.122,0.305,-139.021,18.743,-14.930
6231,-0.3213,-0.6235,-0.7148,0.732,-0.305,0.366,-139.010,18.748,-14.930
6241,-0.3228,-0.6235,-0.7119,0.854,-0.427,0.427,-138.999,18.754,-14.930
6251,-0.3232,-0.6216,-0.7090,0.793,-0.610,0.488,-138.988,18.765,-14.930
6261,-0.3223,-0.6211,-0.7075,0.549,-0.488,0.488,-138.983,18.770,-14.930
6271,-0.3247,-0.6211,-0.7080,0.183,-0.244,0.488,-138.977,18.781,-14.930
6281,-0.3232,-0.6172,-0.7080,-0.183,0.061,0.488,-138.983,18.787,-14.930
6291,-0.3252,-0.6162,-0.7095,-0.427,0.244,0.427,-138.988,18.787,-14.930
6301,-0.3218,-0.6191,-0.7119,-0.488,0.305,0.305,-138.994,18.787,-14.930
6311,-0.3223,-0.6201,-0.7124,-0.427,0.305,0.244,-138.999,18.787,-14.930
6321,-0.3208,-0.6216,-0.7153,-0.366,0.305,0.244,-139.005,18.787,-14.930
6331,-0.3203,-0.6221,-0.7183,-0.366,0.244,0.183,-139.010,18.787,-14.930
6341,-0.3213,-0.6182,-0.7178,-0.366,0.122,0.305,-139.016,18.787,-14.930
6351,-0.3218,-0.6177,-0.7187,-0.122,-0.061,0.366,-139.021,18.787,-14.930
6361,-0.3232,-0.6172,-0.7192,0.366,-0.366,0.244,-139.021,18.792,-14.930
6371,-0.3242,-0.6162,-0.7129,0.854,-0.671,0.061,-139.010,18.798,-14.930
6381,-0.3223,-0.6177,-0.7119,1.160,-0.977,-0.061,-138.999,18.809,-14.930
6391,-0.3218,-0.6191,-0.7056,0.977,-1.099,-0.244,-138.983,18.814,-14.930
6401,-0.3237,-0.6206,-0.7046,0.488,-0.793,-0.366,-138.972,18.820,-14.930
6411,-0.3232,-0.6221,-0.7041,-0.061,-0.305,-0.427,-138.966,18.820,-14.930
6421,-0.3218,-0.6226,-0.7085,-0.549,0.183,-0.488,-138.972,18.820,-14.930
6431,-0.3213,-0.6226,-0.7119,-0.916,0.549,-0.305,-138.977,18.809,-14.930
6441,-0.3232,-0.6226,-0.7124,-0.916,0.671,-0.244,-138.988,18.803,-14.930
6451,-0.3232,-0.6221,-0.7153,-0.671,0.610,-0.244,-138.994,18.798,-14.930
6461,-0.3188,-0.6221,-0.7187,-0.366,0.366,-0.244,-138.999,18.792,-14.930
6471,-0.3193,-0.6226,-0.7183,-0.061,-0.183,-0.061,-138.999,18.792,-14.930
6481,-0.3218,-0.6211,-0.7173,0.061,-0.427,-0.061,-138.999,18.792,-14.930
6491,-0.3232,-0.6196,-0.7139,0.244,-0.610,-0.122,-138.994,18.798,-14.930
6501,-0.3223,-0.6230,-0.7139,0.488,-0.732,-0.244,-138.988,18.803,-14.930
6511,-0.3213,-0.6226,-0.7114,0.549,-0.916,-0.244,-138.977,18.809,-14.930
6521,-0.3228,-0.6221,-0.7085,0.488,-0.977,-0.244,-138.966,18.814,-14.930
6531,-0.3232,-0.6230,-0.7075,0.427,-0.977,-0.183,-138.955,18.820,-14.930
6541,-0.3242,-0.6226,-0.7051,0.366,-0.732,-0.183,-138.944,18.825,-14.930
6551,-0.3242,-0.6211,-0.7080,0.305,-0.366,-0.244,-138.939,18.831,-14.930
6562,-0.3223,-0.6226,-0.7080,0.061,0.000,-0.305,-138.933,18.831,-14.930
6571,-0.3223,-0.6230,-0.7075,-0.244,0.427,-0.305,-138.933,18.825,-14.930
6581,-0.3237,-0.6226,-0.7100,-0.427,0.549,-0.183,-138.939,18.820,-14.930
6591,-0.3237,-0.6221,-0.7119,-0.427,0.671,-0.122,-138.944,18.814,-14.930
6601,-0.3218,-0.6216,-0.7144,-0.183,0.488,-0.122,-138.944,18.809,-14.930
6611,-0.3208,-0.6211,-0.7173,0.183,0.122,-0.061,-138.944,18.809,-14.930
6621,-0.3198,-0.6270,-0.7178,0.610,-0.488,0.061,-138.939,18.809,-14.930
6631,-0.3213,-0.6304,-0.7163,0.977,-1.099,0.244,-138.922,18.814,-14.930
6641,-0.3218,-0.6328,-0.7144,1.221,-1.465,0.305,-138.906,18.825,-14.930
6651,-0.3252,-0.6323,-0.7134,1.526,-1.587,0.366,-138.884,18.842,-14.930
6661,-0.3252,-0.6313,-0.7090,1.953,-1.404,0.488,-138.856,18.858,-14.930
6671,-0.3276,-0.6309,-0.7065,2.258,-1.099,0.671,-138.823,18.869,-14.930
6681,-0.3296,-0.6333,-0.7051,2.197,-0.671,0.854,-138.796,18.885,-14.930
6691,-0.3311,-0.6333,-0.7046,1.770,-0.305,0.916,-138.774,18.896,-14.930
6701,-0.3301,-0.6289,-0.7056,1.099,-0.061,1.038,-138.763,18.907,-14.941
6711,-0.3306,-0.6216,-0.7065,0.488,0.122,1.099,-138.757,18.918,-14.947
6721,-0.3291,-0.6211,-0.7100,0.305,0.244,1.038,-138.757,18.924,-14.958
6731,-0.3276,-0.6216,-0.7104,0.427,0.427,0.916,-138.757,18.929,-14.969
6741,-0.3286,-0.6206,-0.7139,0.549,0.549,0.793,-138.757,18.935,-14.980
6751,-0.3257,-0.6206,-0.7139,0.549,0.793,0.732,-138.757,18.935,-14.991
6761,-0.3223,-0.6191,-0.7119,0.488,1.038,0.916,-138.763,18.929,-15.007
6771,-0.3223,-0.6187,-0.7114,0.549,0.854,0.854,-138.763,18.929,-15.018
6781,-0.3232,-0.6182,-0.7109,0.427,0.427,0.427,-138.763,18.929,-15.024
6791,-0.3232,-0.6177,-0.7095,0.488,-0.061,0.061,-138.757,18.929,-15.024
6801,-0.3228,-0.6177,-0.7065,0.488,-0.244,0.000,-138.757,18.935,-15.024
6811,-0.3228,-0.6201,-0.7046,0.183,-0.122,-0.061,-138.752,18.935,-15.024
6821,-0.3223,-0.6191,-0.7026,-0.122,0.122,-0.183,-138.752,18.935,-15.018
6831,-0.3213,-0.6187,-0.7031,-0.305,0.427,-0.366,-138.752,18.929,-15.018
6841,-0.3213,-0.6226,-0.7061,-0.488,0.671,-0.549,-138.757,18.918,-15.018
6851,-0.3213,-0.6221,-0.7070,-0.610,0.793,-0.671,-138.763,18.907,-15.024
6861,-0.3223,-0.6201,-0.7061,-0.671,0.916,-0.610,-138.768,18.896,-15.024
6871,-0.3218,-0.6211,-0.7075,-0.610,0.916,-0.549,-138.774,18.885,-15.024
6881,-0.3228,-0.6201,-0.7095,-0.610,0.916,-0.549,-138.779,18.875,-15.029
6891,-0.3208,-0.6211,-0.7090,-0.671,0.916,-0.549,-138.790,18.864,-15.029
6901,-0.3218,-0.6206,-0.7095,-0.793,0.732,-0.488,-138.796,18.858,-15.029
6911,-0.3237,-0.6201,-0.7129,-0.793,0.488,-0.488,-138.807,18.847,-15.029
6921,-0.3232,-0.6182,-0.7114,-0.671,0.305,-0.610,-138.812,18.842,-15.029
6931,-0.3252,-0.6216,-0.7109,-0.488,0.122,-0.671,-138.818,18.842,-15.024
6941,-0.3242,-0.6221,-0.7119,-0.305,0.061,-0.732,-138.818,18.836,-15.018
6951,-0.3252,-0.6250,-0.7109,-0.122,-0.061,-0.671,-138.818,18.836,-15.013
6961,-0.3228,-0.6279,-0.7109,-0.122,-0.061,-0.671,-138.812,18.831,-15.007
6971,-0.3252,-0.6284,-0.7114,-0.305,-0.122,-0.549,-138.812,18.825,-15.002
6981,-0.3252,-0.6260,-0.7119,-0.427,-0.183,-0.427,-138.812,18.825,-14.996
6991,-0.3257,-0.6240,-0.7114,-0.305,-0.244,-0.244,-138.818,18.831,-14.991
7001,-0.3242,-0.6260,-0.7124,0.061,-0.427,-0.183,-138.812,18.831,-14.985
7011,-0.3223,-0.6230,-0.7095,0.488,-0.732,-0.122,-138.807,18.836,-14.980
7021,-0.3247,-0.6226,-0.7109,0.793,-1.038,0.000,-138.796,18.847,-14.974
7031,-0.3276,-0.6211,-0.7085,0.793,-1.099,0.000,-138.785,18.858,-14.969
7041,-0.3276,-0.6255,-0.7061,0.549,-0.854,-0.244,-138.774,18.864,-14.958
7051,-0.3267,-0.6270,-0.7056,0.183,-0.549,-0.366,-138.763,18.869,-14.952
7062,-0.3271,-0.6274,-0.7056,-0.183,-0.305,-0.366,-138.763,18.869,-14.947
7071,-0.3247,-0.6294,-0.7075,-0.366,-0.122,-0.244,-138.757,18.869,-14.941
7081,-0.3262,-0.6284,-0.7085,-0.244,0.000,-0.183,-138.757,18.869,-14.941
7091,-0.3257,-0.6304,-0.7080,-0.183,0.061,-0.122,-138.757,18.869,-14.941
7101,-0.3257,-0.6294,-0.7080,-0.061,0.122,0.122,-138.752,18.869,-14.941
7111,-0.3247,-0.6289,-0.7070,0.122,0.305,0.305,-138.746,18.875,-14.947
7121,-0.3208,-0.6250,-0.7100,0.183,0.427,0.427,-138.746,18.869,-14.952
7131,-0.3223,-0.6230,-0.7124,0.183,0.488,0.427,-138.746,18.869,-14.963
7141,-0.3203,-0.6216,-0.7100,0.061,0.427,0.366,-138.752,18.869,-14.969
7151,-0.3208,-0.6196,-0.7119,-0.061,0.122,0.305,-138.752,18.869,-14.969
7161,-0.3213,-0.6206,-0.7114,0.000,-0.183,0.305,-138.757,18.869,-14.974
7171,-0.3223,-0.6211,-0.7114,0.183,-0.366,0.122,-138.757,18.875,-14.969
7181,-0.3252,-0.6216,-0.7090,0.488,-0.305,0.000,-138.752,18.875,-14.969
7191,-0.3271,-0.6245,-0.7070,0.732,-0.061,-0.122,-138.741,18.880,-14.969
7201,-0.3276,-0.6245,-0.7046,0.732,0.122,-0.183,-138.730,18.880,-14.963
7211,-0.3281,-0.6221,-0.7061,0.427,0.244,-0.244,-138.724,18.880,-14.963
7221,-0.3252,-0.6230,-0.7051,-0.122,0.305,-0.305,-138.724,18.880,-14.963
7231,-0.3257,-0.6216,-0.7046,-0.549,0.427,-0.183,-138.730,18.875,-14.969
7241,-0.3262,-0.6211,-0.7090,-0.732,0.427,-0.122,-138.735,18.875,-14.969
7251,-0.3257,-0.6245,-0.7085,-0.549,0.366,-0.244,-138.741,18.869,-14.969
7261,-0.3247,-0.6245,-0.7114,-0.305,0.244,-0.305,-138.741,18.869,-14.969
7271,-0.3232,-0.6245,-0.7144,-0.183,0.122,-0.366,-138.746,18.864,-14.969
7281,-0.3208,-0.6255,-0.7109,-0.061,0.122,-0.366,-138.746,18.858,-14.963
7291,-0.3223,-0.6255,-0.7104,0.061,0.061,-0.427,-138.741,18.858,-14.963
7301,-0.3242,-0.6279,-0.7085,0.122,0.061,-0.427,-138.735,18.853,-14.958
7311,-0.3223,-0.6270,-0.7085,0.183,0.061,-0.305,-138.730,18.853,-14.958
7321,-0.3218,-0.6274,-0.7046,0.122,0.122,-0.183,-138.724,18.847,-14.958
7331,-0.3228,-0.6279,-0.7046,0.061,0.305,-0.061,-138.719,18.847,-14.958
7341,-0.3247,-0.6240,-0.7046,0.000,0.549,0.000,-138.719,18.842,-14.963
7351,-0.3242,-0.6196,-0.7090,-0.061,0.793,-0.061,-138.724,18.836,-14.969
7361,-0.3237,-0.6196,-0.7095,0.061,0.977,-0.183,-138.724,18.831,-14.974
7371,-0.3247,-0.6216,-0.7119,0.183,0.977,-0.366,-138.724,18.825,-14.974
7381,-0.3228,-0.6211,-0.7119,0.183,0.793,-0.488,-138.724,18.814,-14.980
7391,-0.3232,-0.6250,-0.7139,0.122,0.488,-0.610,-138.724,18.809,-14.974
7401,-0.3242,-0.6265,-0.7139,0.061,0.061,-0.610,-138.724,18.803,-14.974
7411,-0.3247,-0.6265,-0.7168,0.122,-0.305,-0.488,-138.724,18.803,-14.963
7421,-0.3247,-0.6274,-0.7163,0.183,-0.549,-0.366,-138.719,18.803,-14.958
7431,-0.3257,-0.6270,-0.7168,0.427,-0.610,-0.305,-138.713,18.809,-14.952
7441,-0.3262,-0.6284,-0.7119,0.610,-0.549,-0.244,-138.702,18.814,-14.947
7451,-0.3271,-0.6270,-0.7119,0.732,-0.610,-0.183,-138.697,18.820,-14.941
7461,-0.3247,-0.6284,-0.7104,0.610,-0.671,-0.122,-138.686,18.820,-14.936
7471,-0.3237,-0.6279,-0.7061,0.366,-0.671,-0.122,-138.675,18.825,-14.930
7481,-0.3232,-0.6274,-0.7061,0.061,-0.549,-0.061,-138.669,18.831,-14.925
7491,-0.3232,-0.6279,-0.7085,-0.122,-0.427,0.000,-138.669,18.836,-14.925
7501,-0.3232,-0.6279,-0.7085,-0.305,-0.183,0.061,-138.669,18.836,-14.919
7511,-0.3223,-0.6274,-0.7080,-0.305,-0.061,0.122,-138.669,18.836,-14.919
7521,-0.3223,-0.6270,-0.7046,-0.183,0.000,0.183,-138.669,18.842,-14.925
7531,-0.3242,-0.6260,-0.7061,-0.061,-0.122,0.305,-138.669,18.842,-14.925
7541,-0.3223,-0.6230,-0.7051,0.122,-0.061,0.366,-138.664,18.847,-14.925
7551,-0.3267,-0.6235,-0.7041,0.183,-0.061,0.427,-138.664,18.853,-14.930
7562,-0.3262,-0.6226,-0.7051,0.183,0.000,0.244,-138.658,18.858,-14.930
7571,-0.3257,-0.6211,-0.7046,0.244,-0.061,0.183,-138.658,18.864,-14.936
7581,-0.3276,-0.6221,-0.7041,0.244,0.000,0.122,-138.653,18.869,-14.936
7591,-0.3267,-0.6245,-0.7056,0.244,0.000,-0.061,-138.653,18.869,-14.936
7601,-0.3232,-0.6255,-0.7051,0.183,0.000,-0.244,-138.647,18.869,-14.930
7611,-0.3232,-0.6265,-0.7051,-0.061,0.000,-0.244,-138.642,18.869,-14.930
7621,-0.3228,-0.6265,-0.7036,-0.305,0.122,-0.122,-138.642,18.864,-14.930
7631,-0.3213,-0.6265,-0.7061,-0.366,0.244,0.000,-138.647,18.864,-14.930
7641,-0.3237,-0.6245,-0.7056,-0.244,0.305,0.183,-138.647,18.864,-14.936
7651,-0.3237,-0.6235,-0.7065,0.183,0.366,0.244,-138.647,18.864,-14.941
7661,-0.3257,-0.6226,-0.7065,0.610,0.366,0.183,-138.642,18.864,-14.941
7671,-0.3271,-0.6245,-0.7026,0.793,0.488,0.122,-138.631,18.864,-14.947
7681,-0.3267,-0.6240,-0.7061,0.488,0.549,0.000,-138.625,18.864,-14.952
7691,-0.3237,-0.6221,-0.7056,-0.061,0.549,-0.183,-138.625,18.858,-14.952
7702,-0.3247,-0.6235,-0.7065,-0.549,0.427,-0.305,-138.631,18.853,-14.952
7711,-0.3262,-0.6226,-0.7114,-0.793,0.427,-0.305,-138.642,18.853,-14.958
7721,-0.3267,-0.6245,-0.7109,-0.671,0.549,-0.366,-138.647,18.847,-14.958
7731,-0.3237,-0.6279,-0.7124,-0.366,0.671,-0.366,-138.653,18.842,-14.958
7741,-0.3232,-0.6299,-0.7139,-0.122,0.671,-0.366,-138.653,18.831,-14.958
7751,-0.3228,-0.6294,-0.7114,-0.061,0.610,-0.122,-138.653,18.825,-14.958
7761,-0.3237,-0.6279,-0.7129,-0.061,0.488,0.122,-138.658,18.820,-14.958
7771,-0.3223,-0.6284,-0.7134,-0.122,0.305,0.244,-138.658,18.820,-14.958
7781,-0.3223,-0.6250,-0.7158,-0.061,0.122,0.305,-138.664,18.820,-14.958
7791,-0.3218,-0.6255,-0.7134,0.183,-0.244,0.366,-138.664,18.825,-14.958
7801,-0.3203,-0.6265,-0.7114,0.549,-0.610,0.244,-138.653,18.831,-14.958
7811,-0.3223,-0.6270,-0.7090,0.854,-0.854,0.183,-138.642,18.836,-14.958
7821,-0.3242,-0.6226,-0.7041,0.977,-0.854,0.122,-138.631,18.847,-14.958
7831,-0.3252,-0.6226,-0.7031,0.916,-0.671,0.122,-138.620,18.853,-14.958
7841,-0.3276,-0.6235,-0.6978,0.732,-0.549,0.061,-138.609,18.864,-14.958
7851,-0.3271,-0.6226,-0.6978,0.427,-0.366,-0.061,-138.598,18.869,-14.958
7861,-0.3276,-0.6206,-0.6987,-0.061,0.000,-0.122,-138.598,18.875,-14.958
7871,-0.3276,-0.6216,-0.7036,-0.488,0.427,-0.122,-138.604,18.875,-14.958
7881,-0.3247,-0.6230,-0.7036,-0.854,0.671,-0.122,-138.609,18.869,-14.958
7891,-0.3247,-0.6240,-0.7095,-0.854,0.610,-0.244,-138.620,18.864,-14.958
7901,-0.3252,-0.6260,-0.7085,-0.671,0.366,-0.305,-138.625,18.858,-14.958
7911,-0.3232,-0.6274,-0.7109,-0.427,0.244,-0.366,-138.631,18.858,-14.958
7922,-0.3232,-0.6299,-0.7100,-0.366,0.122,-0.244,-138.631,18.853,-14.958
7932,-0.3223,-0.6294,-0.7080,-0.305,-0.061,-0.244,-138.631,18.853,-14.958
7942,-0.3247,-0.6304,-0.7100,-0.183,-0.183,-0.244,-138.625,18.853,-14.958
7952,-0.3281,-0.6294,-0.7085,-0.061,-0.122,-0.122,-138.625,18.853,-14.958
7961,-0.3267,-0.6304,-0.7065,0.122,0.000,0.000,-138.620,18.853,-14.958
7972,-0.3242,-0.6274,-0.7065,0.305,0.122,0.122,-138.615,18.858,-14.958
7982,-0.3271,-0.6294,-0.7056,0.366,0.183,0.122,-138.609,18.858,-14.958
7992,-0.3276,-0.6274,-0.7051,0.305,0.183,0.122,-138.604,18.858,-14.958
8002,-0.3271,-0.6284,-0.7046,0.122,0.122,0.183,-138.598,18.864,-14.958
8012,-0.3252,-0.6274,-0.7051,-0.122,0.122,0.244,-138.598,18.864,-14.958
8022,-0.3247,-0.6265,-0.7051,-0.305,0.122,0.305,-138.604,18.869,-14.958
8032,-0.3252,-0.6279,-0.7080,-0.366,0.183,0.305,-138.604,18.869,-14.958
8042,-0.3247,-0.6274,-0.7090,-0.183,0.366,0.366,-138.609,18.869,-14.958
8052,-0.3262,-0.6270,-0.7061,-0.061,0.610,0.366,-138.609,18.869,-14.958
8062,-0.3267,-0.6265,-0.7095,0.061,0.732,0.488,-138.609,18.869,-14.958
8072,-0.3262,-0.6245,-0.7104,0.122,0.793,0.488,-138.615,18.869,-14.958
8082,-0.3281,-0.6260,-0.7090,0.122,0.732,0.427,-138.615,18.869,-14.958
8092,-0.3262,-0.6235,-0.7104,0.000,0.732,0.427,-138.615,18.869,-14.958
8102,-0.3267,-0.6226,-0.7090,-0.122,0.610,0.366,-138.620,18.869,-14.958
8112,-0.3276,-0.6206,-0.7114,-0.183,0.366,0.305,-138.625,18.869,-14.958
8122,-0.3252,-0.6196,-0.7100,-0.183,0.183,0.183,-138.631,18.869,-14.958
8132,-0.3267,-0.6226,-0.7100,-0.183,0.061,0.122,-138.636,18.875,-14.958
8141,-0.3252,-0.6250,-0.7085,-0.183,0.000,0.000,-138.636,18.875,-14.958
8152,-0.3232,-0.6250,-0.7085,-0.244,-0.183,-0.183,-138.636,18.875,-14.958
8162,-0.3228,-0.6250,-0.7085,-0.244,-0.366,-0.183,-138.642,18.875,-14.958
8172,-0.3218,-0.6255,-0.7070,-0.183,-0.305,-0.122,-138.636,18.875,-14.958
8182,-0.3242,-0.6255,-0.7041,0.061,-0.061,-0.061,-138.636,18.880,-14.958
8192,-0.3247,-0.6250,-0.7056,0.305,0.122,-0.061,-138.631,18.880,-14.958
8202,-0.3247,-0.6255,-0.7046,0.305,0.244,-0.122,-138.625,18.875,-14.958
8212,-0.3237,-0.6255,-0.7031,0.061,0.305,-0.061,-138.620,18.875,-14.958
8222,-0.3232,-0.6270,-0.7031,-0.366,0.488,-0.061,-138.625,18.875,-14.958
8232,-0.3232,-0.6250,-0.7031,-0.549,0.671,-0.061,-138.625,18.869,-14.958
8242,-0.3247,-0.6250,-0.7046,-0.488,0.793,-0.061,-138.631,18.864,-14.958
8252,-0.3247,-0.6235,-0.7046,-0.122,0.671,-0.122,-138.631,18.858,-14.958
8262,-0.3247,-0.6250,-0.7041,0.244,0.549,-0.183,-138.631,18.853,-14.958
8272,-0.3252,-0.6265,-0.7061,0.366,0.610,-0.183,-138.625,18.853,-14.958
8282,-0.3247,-0.6279,-0.7031,0.183,0.732,-0.122,-138.620,18.847,-14.958
8292,-0.3228,-0.6289,-0.7065,-0.305,0.916,-0.122,-138.620,18.842,-14.958
8302,-0.3237,-0.6250,-0.7109,-0.671,1.038,-0.061,-138.631,18.831,-14.958
8312,-0.3262,-0.6216,-0.7124,-0.610,0.977,-0.061,-138.642,18.825,-14.958
8322,-0.3267,-0.6201,-0.7109,-0.183,0.854,-0.122,-138.647,18.820,-14.958
8332,-0.3267,-0.6226,-0.7109,0.183,0.610,-0.183,-138.647,18.820,-14.958
8342,-0.3262,-0.6260,-0.7100,0.366,0.244,-0.244,-138.642,18.814,-14.958
8352,-0.3247,-0.6279,-0.7085,0.183,0.061,-0.305,-138.642,18.814,-14.958
8362,-0.3228,-0.6294,-0.7095,-0.122,0.000,-0.305,-138.636,18.814,-14.958
8372,-0.3252,-0.6299,-0.7100,-0.427,-0.061,-0.183,-138.642,18.814,-14.958
8382,-0.3247,-0.6270,-0.7104,-0.427,-0.122,-0.061,-138.642,18.814,-14.958
8392,-0.3257,-0.6279,-0.7100,-0.122,-0.122,0.061,-138.642,18.820,-14.958
8402,-0.3262,-0.6270,-0.7104,0.305,-0.122,0.061,-138.636,18.820,-14.958
8412,-0.3267,-0.6270,-0.7090,0.427,-0.061,0.122,-138.631,18.825,-14.958
8422,-0.3247,-0.6279,-0.7085,0.305,-0.122,0.305,-138.631,18.831,-14.958
8432,-0.3223,-0.6284,-0.7080,0.122,-0.183,0.366,-138.625,18.831,-14.958
8442,-0.3213,-0.6304,-0.7109,-0.183,-0.244,0.427,-138.625,18.836,-14.958
8452,-0.3208,-0.6265,-0.7119,-0.427,-0.244,0.488,-138.631,18.836,-14.958
8462,-0.3218,-0.6284,-0.7139,-0.549,-0.244,0.610,-138.636,18.842,-14.958
8472,-0.3232,-0.6250,-0.7114,-0.427,-0.183,0.610,-138.642,18.847,-14.958
8482,-0.3237,-0.6235,-0.7070,0.000,-0.183,0.488,-138.642,18.853,-14.958
8492,-0.3237,-0.6226,-0.7075,0.488,-0.122,0.244,-138.642,18.858,-14.958
8502,-0.3237,-0.6187,-0.7061,0.671,-0.061,0.122,-138.636,18.858,-14.958
8512,-0.3281,-0.6196,-0.7051,0.549,0.061,0.000,-138.631,18.864,-14.958
8522,-0.3296,-0.6172,-0.7017,0.244,0.183,-0.122,-138.625,18.869,-14.958
8532,-0.3286,-0.6157,-0.7021,-0.061,0.305,-0.305,-138.631,18.869,-14.958
8542,-0.3296,-0.6177,-0.7012,-0.427,0.427,-0.610,-138.631,18.869,-14.958
8552,-0.3286,-0.6196,-0.7026,-0.793,0.671,-0.854,-138.642,18.864,-14.958
8563,-0.3262,-0.6240,-0.7031,-1.099,0.977,-1.099,-138.647,18.847,-14.952
8572,-0.3218,-0.6284,-0.7080,-1.404,0.977,-1.160,-138.658,18.836,-14.952
8582,-0.3223,-0.6313,-0.7124,-1.648,0.916,-1.099,-138.669,18.820,-14.947
8592,-0.3208,-0.6328,-0.7139,-1.526,0.732,-0.977,-138.686,18.803,-14.947
8602,-0.3174,-0.6338,-0.7144,-1.099,0.488,-0.732,-138.691,18.792,-14.941
8612,-0.3203,-0.6343,-0.7109,-0.427,0.122,-0.427,-138.691,18.787,-14.941
8622,-0.3218,-0.6333,-0.7070,0.427,-0.061,-0.122,-138.680,18.787,-14.941
8632,-0.3223,-0.6309,-0.7046,0.977,-0.183,0.000,-138.664,18.787,-14.941
8642,-0.3247,-0.6309,-0.7007,1.221,-0.305,0.244,-138.647,18.792,-14.936
8652,-0.3267,-0.6270,-0.7007,1.160,-0.244,0.427,-138.631,18.803,-14.941
8662,-0.3291,-0.6240,-0.6973,0.854,-0.061,0.427,-138.620,18.809,-14.941
8672,-0.3262,-0.6245,-0.6978,0.366,0.305,0.305,-138.609,18.814,-14.947
8682,-0.3276,-0.6260,-0.7026,-0.183,0.671,0.244,-138.615,18.814,-14.952
8692,-0.3267,-0.6270,-0.7031,-0.793,0.977,0.244,-138.620,18.814,-14.963
8702,-0.3252,-0.6279,-0.7090,-1.160,0.977,0.244,-138.631,18.809,-14.974
8712,-0.3237,-0.6260,-0.7124,-1.282,0.854,0.244,-138.647,18.803,-14.980
8722,-0.3242,-0.6235,-0.7134,-1.038,0.793,0.244,-138.664,18.798,-14.985
8732,-0.3242,-0.6255,-0.7139,-0.549,0.793,0.305,-138.669,18.798,-14.996
8742,-0.3237,-0.6270,-0.7119,-0.122,0.671,0.366,-138.675,18.792,-15.002
8752,-0.3247,-0.6274,-0.7124,0.183,0.427,0.427,-138.675,18.798,-15.007
8762,-0.3242,-0.6255,-0.7109,0.305,0.244,0.427,-138.675,18.798,-15.013
8772,-0.3237,-0.6250,-0.7090,0.244,0.183,0.488,-138.669,18.798,-15.018
8782,-0.3257,-0.6240,-0.7095,0.122,0.183,0.427,-138.669,18.803,-15.024
8792,-0.3223,-0.6245,-0.7119,-0.061,0.244,0.305,-138.675,18.803,-15.029
8802,-0.3228,-0.6250,-0.7134,-0.244,0.305,0.305,-138.680,18.803,-15.035
8812,-0.3228,-0.6245,-0.7124,-0.366,0.305,0.305,-138.686,18.803,-15.035
8822,-0.3252,-0.6270,-0.7139,-0.366,0.305,0.366,-138.691,18.803,-15.040
8832,-0.3242,-0.6235,-0.7139,-0.305,0.183,0.366,-138.697,18.809,-15.046
8842,-0.3223,-0.6230,-0.7109,-0.122,0.183,0.305,-138.702,18.809,-15.051
8852,-0.3237,-0.6245,-0.7095,0.061,0.183,0.305,-138.702,18.809,-15.051
8862,-0.3218,-0.6230,-0.7090,0.122,0.244,0.366,-138.702,18.809,-15.057
8872,-0.3218,-0.6235,-0.7085,0.000,0.366,0.366,-138.702,18.809,-15.062
8882,-0.3247,-0.6230,-0.7056,-0.305,0.488,0.427,-138.702,18.809,-15.073
8892,-0.3252,-0.6211,-0.7075,-0.549,0.549,0.427,-138.713,18.814,-15.079
8902,-0.3262,-0.6187,-0.7095,-0.671,0.610,0.305,-138.724,18.814,-15.084
8912,-0.3262,-0.6201,-0.7139,-0.671,0.488,0.244,-138.735,18.814,-15.090
8922,-0.3262,-0.6201,-0.7119,-0.549,0.427,0.061,-138.741,18.814,-15.095
8932,-0.3252,-0.6221,-0.7095,-0.610,0.305,-0.122,-138.752,18.809,-15.095
8942,-0.3193,-0.6230,-0.7109,-0.732,0.244,-0.244,-138.757,18.809,-15.095
8952,-0.3188,-0.6230,-0.7129,-0.916,0.122,-0.122,-138.768,18.803,-15.095
8962,-0.3203,-0.6206,-0.7134,-1.099,0.000,-0.061,-138.779,18.803,-15.095
8972,-0.3208,-0.6187,-0.7144,-0.854,0.000,0.000,-138.790,18.803,-15.095
8982,-0.3228,-0.6162,-0.7104,-0.305,-0.061,-0.061,-138.796,18.803,-15.095
8992,-0.3242,-0.6196,-0.7080,0.244,-0.122,-0.183,-138.796,18.803,-15.090
9002,-0.3242,-0.6206,-0.7080,0.366,-0.061,-0.305,-138.790,18.803,-15.090
9012,-0.3232,-0.6240,-0.7095,0.061,0.122,-0.427,-138.785,18.803,-15.084
9022,-0.3228,-0.6265,-0.7070,-0.549,0.305,-0.427,-138.790,18.798,-15.084
9032,-0.3218,-0.6270,-0.7095,-1.160,0.366,-0.427,-138.796,18.792,-15.084
9042,-0.3208,-0.6265,-0.7134,-1.343,0.427,-0.305,-138.812,18.787,-15.084
9052,-0.3193,-0.6265,-0.7144,-1.038,0.366,-0.183,-138.818,18.781,-15.084
9063,-0.3218,-0.6279,-0.7139,-0.488,0.366,-0.122,-138.823,18.776,-15.084
9072,-0.3198,-0.6304,-0.7139,-0.122,0.305,-0.061,-138.823,18.770,-15.090
9082,-0.3218,-0.6309,-0.7124,0.061,0.183,0.000,-138.818,18.770,-15.090
9092,-0.3228,-0.6279,-0.7139,0.122,0.183,0.244,-138.818,18.770,-15.090
9102,-0.3242,-0.6245,-0.7119,0.122,0.122,0.488,-138.818,18.770,-15.095
9112,-0.3232,-0.6245,-0.7080,0.183,0.061,0.488,-138.812,18.776,-15.101
9122,-0.3237,-0.6240,-0.7075,0.183,-0.122,0.427,-138.812,18.781,-15.106
9132,-0.3247,-0.6245,-0.7085,0.183,-0.244,0.366,-138.807,18.787,-15.106
9142,-0.3218,-0.6226,-0.7109,0.000,-0.183,0.366,-138.807,18.792,-15.106
9152,-0.3242,-0.6240,-0.7085,-0.183,-0.122,0.427,-138.807,18.798,-15.112
9162,-0.3242,-0.6250,-0.7114,-0.366,0.061,0.488,-138.812,18.798,-15.112
9172,-0.3232,-0.6221,-0.7114,-0.366,0.305,0.427,-138.818,18.803,-15.117
9182,-0.3228,-0.6216,-0.7139,-0.183,0.488,0.427,-138.823,18.803,-15.128
9192,-0.3208,-0.6245,-0.7148,0.000,0.366,0.427,-138.823,18.798,-15.134
9202,-0.3213,-0.6240,-0.7124,0.122,0.122,0.366,-138.823,18.803,-15.134
9212,-0.3237,-0.6216,-0.7134,0.183,-0.183,0.488,-138.823,18.809,-15.139
9222,-0.3247,-0.6216,-0.7119,0.305,-0.427,0.488,-138.823,18.814,-15.139
9232,-0.3237,-0.6226,-0.7085,0.488,-0.427,0.488,-138.818,18.820,-15.139
9242,-0.3262,-0.6235,-0.7090,0.427,-0.366,0.427,-138.812,18.831,-15.139
9252,-0.3271,-0.6245,-0.7075,0.244,-0.183,0.366,-138.807,18.836,-15.145
9262,-0.3252,-0.6255,-0.7061,0.000,-0.122,0.427,-138.807,18.842,-15.145
9272,-0.3237,-0.6240,-0.7070,-0.244,-0.183,0.427,-138.807,18.847,-15.145
9282,-0.3228,-0.6255,-0.7104,-0.366,-0.305,0.427,-138.807,18.853,-15.150
9292,-0.3218,-0.6245,-0.7090,-0.183,-0.366,0.549,-138.807,18.858,-15.150
9302,-0.3218,-0.6235,-0.7080,0.122,-0.305,0.610,-138.807,18.864,-15.156
9312,-0.3223,-0.6235,-0.7065,0.488,-0.122,0.610,-138.801,18.869,-15.156
9322,-0.3198,-0.6240,-0.7046,0.549,0.061,0.610,-138.790,18.869,-15.161
9332,-0.3198,-0.6240,-0.7046,0.366,0.488,0.488,-138.790,18.869,-15.172
9342,-0.3198,-0.6230,-0.7065,-0.122,0.793,0.549,-138.790,18.869,-15.178
9352,-0.3237,-0.6235,-0.7085,-0.488,0.977,0.610,-138.796,18.864,-15.189
9362,-0.3232,-0.6201,-0.7104,-0.610,1.099,0.671,-138.807,18.858,-15.205
9372,-0.3218,-0.6182,-0.7124,-0.488,1.038,0.671,-138.818,18.858,-15.216
9382,-0.3237,-0.6162,-0.7124,-0.305,0.854,0.610,-138.829,18.858,-15.227
9392,-0.3232,-0.6157,-0.7100,0.000,0.732,0.488,-138.834,18.853,-15.238
9402,-0.3237,-0.6152,-0.7080,0.122,0.732,0.366,-138.840,18.853,-15.244
9412,-0.3218,-0.6147,-0.7090,0.122,0.671,0.183,-138.840,18.853,-15.249
9422,-0.3203,-0.6147,-0.7070,-0.061,0.671,0.000,-138.845,18.847,-15.255
9432,-0.3208,-0.6133,-0.7070,-0.244,0.671,-0.183,-138.851,18.842,-15.260
9442,-0.3179,-0.6123,-0.7041,-0.488,0.671,-0.305,-138.856,18.831,-15.260
9452,-0.3169,-0.6089,-0.7031,-0.793,0.732,-0.488,-138.867,18.825,-15.260
9462,-0.3159,-0.6118,-0.7051,-1.038,0.916,-0.671,-138.878,18.814,-15.266
9472,-0.3154,-0.6123,-0.7056,-1.099,1.221,-0.916,-138.895,18.798,-15.266
9482,-0.3135,-0.6162,-0.7070,-0.916,1.648,-1.160,-138.906,18.770,-15.266
9492,-0.3145,-0.6206,-0.7095,-0.977,1.953,-1.282,-138.911,18.748,-15.271
9502,-0.3125,-0.6226,-0.7124,-1.099,2.014,-1.282,-138.922,18.721,-15.271
9512,-0.3145,-0.6221,-0.7163,-1.221,1.709,-1.160,-138.939,18.693,-15.276
9522,-0.3193,-0.6250,-0.7163,-1.160,1.404,-1.038,-138.950,18.677,-15.276
9532,-0.3232,-0.6250,-0.7187,-0.854,1.343,-0.977,-138.961,18.660,-15.276
9542,-0.3242,-0.6250,-0.7202,-0.488,1.465,-0.916,-138.966,18.644,-15.282
9552,-0.3218,-0.6255,-0.7212,-0.122,1.343,-0.854,-138.966,18.627,-15.282
9563,-0.3252,-0.6260,-0.7207,0.122,1.038,-0.793,-138.966,18.616,-15.287
9572,-0.3247,-0.6289,-0.7192,0.183,0.549,-0.732,-138.966,18.611,-15.282
9582,-0.3242,-0.6299,-0.7227,0.061,0.061,-0.671,-138.961,18.605,-15.276
9592,-0.3237,-0.6323,-0.7222,-0.305,-0.305,-0.610,-138.961,18.605,-15.271
9602,-0.3228,-0.6294,-0.7187,-0.488,-0.488,-0.427,-138.961,18.605,-15.266
9612,-0.3247,-0.6284,-0.7187,-0.305,-0.549,-0.305,-138.961,18.611,-15.260
9622,-0.3257,-0.6279,-0.7144,0.122,-0.488,-0.244,-138.955,18.616,-15.255
9632,-0.3232,-0.6270,-0.7090,0.488,-0.366,-0.305,-138.944,18.616,-15.249
9642,-0.3213,-0.6265,-0.7065,0.610,-0.244,-0.244,-138.933,18.622,-15.244
9652,-0.3203,-0.6270,-0.7041,0.427,0.000,-0.061,-138.922,18.622,-15.244
9662,-0.3203,-0.6274,-0.7036,-0.122,0.244,0.305,-138.917,18.622,-15.249
9672,-0.3213,-0.6250,-0.7075,-0.793,0.671,0.427,-138.928,18.622,-15.255
9682,-0.3198,-0.6245,-0.7153,-1.343,1.160,0.610,-138.944,18.616,-15.271
9692,-0.3179,-0.6221,-0.7192,-1.587,1.404,0.610,-138.966,18.611,-15.282
9703,-0.3164,-0.6187,-0.7217,-1.465,1.282,0.549,-138.988,18.600,-15.298
9712,-0.3125,-0.6172,-0.7251,-1.221,0.854,0.549,-139.010,18.594,-15.309
9722,-0.3105,-0.6172,-0.7256,-0.793,0.183,0.488,-139.026,18.589,-15.315
9732,-0.3120,-0.6138,-0.7217,-0.305,-0.427,0.427,-139.032,18.594,-15.315
9742,-0.3105,-0.6123,-0.7236,0.366,-0.916,0.244,-139.037,18.600,-15.309
9752,-0.3145,-0.6104,-0.7187,0.977,-1.099,-0.061,-139.032,18.605,-15.298
9762,-0.3174,-0.6113,-0.7148,1.282,-1.099,-0.305,-139.016,18.611,-15.293
9772,-0.3193,-0.6128,-0.7129,1.221,-0.916,-0.549,-139.005,18.616,-15.282
9782,-0.3188,-0.6152,-0.7109,0.671,-0.793,-0.671,-138.999,18.616,-15.271
9792,-0.3213,-0.6191,-0.7104,0.000,-0.732,-0.854,-138.994,18.622,-15.255
9802,-0.3193,-0.6196,-0.7124,-0.854,-0.671,-0.916,-138.999,18.622,-15.244
9812,-0.3193,-0.6226,-0.7163,-1.343,-0.671,-0.793,-139.005,18.622,-15.233
9822,-0.3193,-0.6221,-0.7183,-1.343,-0.549,-0.793,-139.016,18.616,-15.222
9832,-0.3193,-0.6230,-0.7178,-0.977,-0.305,-0.793,-139.026,18.616,-15.216
9842,-0.3218,-0.6226,-0.7178,-0.549,-0.122,-0.732,-139.026,18.611,-15.211
9852,-0.3223,-0.6245,-0.7158,-0.061,0.000,-0.671,-139.026,18.611,-15.205
9862,-0.3223,-0.6250,-0.7153,0.183,-0.061,-0.610,-139.021,18.605,-15.200
9872,-0.3223,-0.6270,-0.7163,0.183,-0.244,-0.610,-139.016,18.605,-15.194
9882,-0.3213,-0.6279,-0.7158,-0.061,-0.610,-0.488,-139.010,18.605,-15.183
9893,-0.3208,-0.6284,-0.7163,-0.183,-1.099,-0.305,-139.005,18.611,-15.172
9903,-0.3223,-0.6279,-0.7148,-0.061,-1.465,-0.244,-138.999,18.622,-15.161
9913,-0.3228,-0.6284,-0.7114,0.183,-1.648,-0.244,-138.988,18.638,-15.150
9923,-0.3198,-0.6294,-0.7100,0.427,-1.648,-0.183,-138.977,18.649,-15.134
9933,-0.3179,-0.6294,-0.7085,0.671,-1.526,0.061,-138.961,18.660,-15.123
9943,-0.3179,-0.6270,-0.7041,0.793,-1.343,0.244,-138.944,18.671,-15.117
9953,-0.3198,-0.6260,-0.7017,0.732,-1.221,0.305,-138.928,18.682,-15.112
9963,-0.3208,-0.6255,-0.6982,0.610,-0.977,0.427,-138.911,18.693,-15.106
9973,-0.3179,-0.6255,-0.6992,0.305,-0.610,0.549,-138.900,18.704,-15.106
9983,-0.3184,-0.6235,-0.6992,0.061,-0.122,0.549,-138.895,18.710,-15.112
9993,-0.3179,-0.6221,-0.7051,-0.122,0.305,0.549,-138.895,18.710,-15.117
10003,-0.3184,-0.6245,-0.7090,-0.244,0.488,0.488,-138.900,18.704,-15.128
10013,-0.3198,-0.6211,-0.7075,-0.305,0.610,0.549,-138.900,18.704,-15.134
10023,-0.3198,-0.6177,-0.7104,-0.244,0.671,0.610,-138.906,18.704,-15.145
10033,-0.3218,-0.6182,-0.7109,0.061,0.671,0.549,-138.911,18.704,-15.150
10043,-0.3208,-0.6187,-0.7129,0.244,0.549,0.305,-138.911,18.704,-15.161
10053,-0.3179,-0.6187,-0.7124,0.366,0.488,0.183,-138.911,18.699,-15.167
10063,-0.3193,-0.6206,-0.7148,0.305,0.305,0.061,-138.911,18.699,-15.167
10073,-0.3193,-0.6201,-0.7163,0.244,0.122,0.000,-138.911,18.699,-15.167
10083,-0.3188,-0.6201,-0.7144,0.122,0.061,0.000,-138.911,18.699,-15.167
10092,-0.3193,-0.6201,-0.7148,0.122,0.000,0.000,-138.911,18.693,-15.167
10103,-0.3193,-0.6226,-0.7158,0.183,0.000,0.061,-138.911,18.693,-15.167
10113,-0.3184,-0.6240,-0.7129,0.244,0.122,0.183,-138.906,18.693,-15.172
10123,-0.3174,-0.6235,-0.7144,0.244,0.183,0.183,-138.906,18.693,-15.172
10133,-0.3179,-0.6230,-0.7129,0.122,0.244,0.244,-138.906,18.693,-15.178
10143,-0.3193,-0.6201,-0.7134,-0.122,0.305,0.305,-138.906,18.688,-15.183
10153,-0.3188,-0.6167,-0.7100,-0.244,0.366,0.305,-138.911,18.688,-15.189
10163,-0.3203,-0.6162,-0.7153,-0.244,0.488,0.305,-138.922,18.688,-15.194
10173,-0.3218,-0.6157,-0.7153,-0.183,0.488,0.122,-138.928,18.688,-15.194
10183,-0.3228,-0.6187,-0.7148,-0.183,0.488,-0.061,-138.933,18.688,-15.200
10193,-0.3213,-0.6201,-0.7139,-0.244,0.427,-0.183,-138.939,18.682,-15.200
10203,-0.3193,-0.6230,-0.7153,-0.549,0.305,-0.183,-138.944,18.677,-15.200
10213,-0.3184,-0.6221,-0.7163,-0.732,0.244,-0.122,-138.950,18.671,-15.205
10223,-0.3169,-0.6211,-0.7168,-0.732,0.061,0.000,-138.961,18.671,-15.205
10233,-0.3164,-0.6182,-0.7197,-0.305,-0.122,0.000,-138.966,18.671,-15.200
10243,-0.3188,-0.6172,-0.7148,0.427,-0.488,-0.061,-138.961,18.671,-15.200
10253,-0.3198,-0.6206,-0.7114,1.099,-0.732,-0.244,-138.950,18.677,-15.189
10263,-0.3213,-0.6230,-0.7085,1.404,-0.854,-0.366,-138.928,18.682,-15.183
10273,-0.3232,-0.6235,-0.7046,1.160,-0.732,-0.305,-138.911,18.688,-15.172
10283,-0.3218,-0.6265,-0.7021,0.671,-0.427,-0.305,-138.895,18.693,-15.172
10293,-0.3218,-0.6270,-0.7026,0.061,0.122,-0.427,-138.889,18.688,-15.167
10303,-0.3198,-0.6255,-0.7080,-0.610,0.671,-0.305,-138.889,18.682,-15.167
10313,-0.3198,-0.6250,-0.7114,-0.916,1.038,-0.122,-138.900,18.677,-15.178
10323,-0.3213,-0.6250,-0.7192,-0.854,1.160,0.061,-138.911,18.666,-15.183
10333,-0.3208,-0.6240,-0.7202,-0.549,0.977,0.183,-138.922,18.660,-15.194
10343,-0.3203,-0.6245,-0.7202,-0.244,0.610,0.244,-138.928,18.655,-15.200
10353,-0.3179,-0.6240,-0.7231,-0.061,0.305,0.244,-138.933,18.649,-15.200
10363,-0.3184,-0.6221,-0.7251,0.122,0.000,0.305,-138.939,18.649,-15.205
10373,-0.3184,-0.6226,-0.7236,0.366,-0.244,0.366,-138.939,18.655,-15.205
10383,-0.3193,-0.6211,-0.7217,0.549,-0.549,0.305,-138.933,18.660,-15.205
10393,-0.3193,-0.6196,-0.7217,0.671,-0.916,0.244,-138.933,18.666,-15.200
10403,-0.3193,-0.6216,-0.7173,0.854,-1.038,0.305,-138.922,18.677,-15.194
10413,-0.3174,-0.6216,-0.7173,0.916,-1.099,0.183,-138.911,18.682,-15.189
10423,-0.3179,-0.6196,-0.7148,0.854,-1.160,0.122,-138.906,18.693,-15.183
10433,-0.3188,-0.6201,-0.7109,0.793,-1.221,0.000,-138.895,18.699,-15.172
10443,-0.3184,-0.6187,-0.7095,0.549,-1.099,-0.061,-138.884,18.710,-15.167
10453,-0.3174,-0.6187,-0.7100,0.183,-0.854,-0.061,-138.884,18.715,-15.161
10463,-0.3203,-0.6172,-0.7075,-0.061,-0.549,-0.061,-138.884,18.721,-15.156
10473,-0.3218,-0.6182,-0.7080,-0.244,-0.122,-0.183,-138.884,18.721,-15.150
10483,-0.3208,-0.6182,-0.7114,-0.366,0.183,-0.305,-138.889,18.715,-15.150
10493,-0.3198,-0.6187,-0.7095,-0.427,0.366,-0.427,-138.889,18.710,-15.150
10503,-0.3203,-0.6172,-0.7100,-0.366,0.366,-0.488,-138.895,18.710,-15.150
10513,-0.3203,-0.6182,-0.7090,-0.366,0.122,-0.671,-138.900,18.704,-15.145
10523,-0.3188,-0.6206,-0.7080,-0.366,-0.183,-0.854,-138.900,18.699,-15.145
10533,-0.3179,-0.6235,-0.7085,-0.366,-0.549,-0.854,-138.895,18.699,-15.145
10543,-0.3179,-0.6270,-0.7100,-0.366,-0.671,-0.854,-138.895,18.693,-15.145
10553,-0.3184,-0.6274,-0.7085,-0.305,-0.549,-0.793,-138.889,18.693,-15.145
10564,-0.3169,-0.6274,-0.7075,-0.183,-0.305,-0.610,-138.884,18.688,-15.145
10573,-0.3184,-0.6274,-0.7075,0.061,0.000,-0.305,-138.878,18.688,-15.145
10583,-0.3193,-0.6250,-0.7061,0.305,0.244,-0.183,-138.873,18.682,-15.145
10593,-0.3193,-0.6245,-0.7080,0.366,0.427,-0.061,-138.867,18.682,-15.145
10603,-0.3208,-0.6235,-0.7119,0.305,0.366,0.000,-138.862,18.677,-15.145
10613,-0.3208,-0.6226,-0.7114,0.183,0.427,0.000,-138.862,18.677,-15.145
10623,-0.3228,-0.6216,-0.7129,0.000,0.549,-0.122,-138.862,18.671,-15.145
10633,-0.3228,-0.6216,-0.7144,-0.183,0.610,-0.183,-138.867,18.666,-15.145
10643,-0.3218,-0.6235,-0.7158,-0.244,0.549,-0.244,-138.867,18.660,-15.145
10653,-0.3208,-0.6240,-0.7178,-0.183,0.366,-0.244,-138.873,18.660,-15.145
10663,-0.3228,-0.6255,-0.7163,-0.061,0.183,-0.244,-138.873,18.655,-15.145
10673,-0.3218,-0.6270,-0.7183,-0.061,0.122,-0.183,-138.873,18.655,-15.145
10683,-0.3218,-0.6284,-0.7187,-0.061,0.000,-0.122,-138.873,18.655,-15.145
10693,-0.3188,-0.6279,-0.7197,-0.061,0.061,0.000,-138.873,18.649,-15.145
10703,-0.3174,-0.6270,-0.7197,0.000,-0.122,0.183,-138.873,18.649,-15.145
10713,-0.3164,-0.6274,-0.7212,0.244,-0.305,0.305,-138.873,18.649,-15.145
10723,-0.3193,-0.6260,-0.7163,0.488,-0.427,0.305,-138.867,18.655,-15.145
10733,-0.3198,-0.6255,-0.7148,0.732,-0.610,0.305,-138.862,18.660,-15.145
10743,-0.3193,-0.6235,-0.7139,0.854,-0.549,0.305,-138.851,18.666,-15.145
10753,-0.3198,-0.6245,-0.7139,0.793,-0.549,0.244,-138.840,18.671,-15.145
10763,-0.3208,-0.6226,-0.7109,0.610,-0.610,0.244,-138.834,18.677,-15.145
10773,-0.3208,-0.6235,-0.7085,0.366,-0.610,0.305,-138.829,18.688,-15.145
10783,-0.3208,-0.6221,-0.7085,0.183,-0.488,0.244,-138.823,18.693,-15.145
10793,-0.3193,-0.6216,-0.7114,0.244,-0.366,0.183,-138.823,18.699,-15.145
10803,-0.3188,-0.6235,-0.7070,0.366,-0.244,0.061,-138.818,18.699,-15.145
10813,-0.3193,-0.6245,-0.7080,0.366,-0.122,0.061,-138.812,18.699,-15.145
10823,-0.3164,-0.6265,-0.7051,0.244,0.061,0.061,-138.801,18.699,-15.145
10833,-0.3159,-0.6265,-0.7051,-0.122,0.244,0.183,-138.801,18.699,-15.145
10843,-0.3169,-0.6221,-0.7095,-0.427,0.427,0.366,-138.807,18.693,-15.145
10853,-0.3174,-0.6196,-0.7124,-0.488,0.549,0.488,-138.818,18.693,-15.145
10863,-0.3198,-0.6172,-0.7109,-0.305,0.610,0.488,-138.823,18.693,-15.145
10873,-0.3179,-0.6133,-0.7100,0.122,0.671,0.305,-138.829,18.688,-15.145
10883,-0.3188,-0.6138,-0.7100,0.427,0.610,0.122,-138.829,18.688,-15.145
10893,-0.3213,-0.6162,-0.7119,0.427,0.488,-0.183,-138.829,18.682,-15.145
10903,-0.3198,-0.6201,-0.7104,0.122,0.366,-0.427,-138.829,18.677,-15.145
10913,-0.3198,-0.6206,-0.7114,-0.366,0.305,-0.610,-138.829,18.671,-15.145
10923,-0.3179,-0.6230,-0.7153,-0.671,0.183,-0.671,-138.840,18.666,-15.145
10933,-0.3179,-0.6245,-0.7163,-0.610,0.061,-0.610,-138.845,18.660,-15.145
10943,-0.3193,-0.6255,-0.7153,-0.366,0.000,-0.549,-138.845,18.655,-15.145
10953,-0.3213,-0.6274,-0.7148,-0.122,0.122,-0.366,-138.845,18.649,-15.145
10963,-0.3203,-0.6284,-0.7168,0.122,0.305,-0.183,-138.845,18.644,-15.145
10973,-0.3164,-0.6279,-0.7158,0.061,0.488,-0.061,-138.840,18.638,-15.145
10983,-0.3174,-0.6270,-0.7173,-0.122,0.488,0.122,-138.845,18.633,-15.145
10993,-0.3188,-0.6250,-0.7173,-0.183,0.305,0.183,-138.851,18.633,-15.145
11003,-0.3198,-0.6226,-0.7202,-0.183,0.061,0.183,-138.856,18.633,-15.145
11013,-0.3198,-0.6201,-0.7197,-0.183,-0.183,0.061,-138.862,18.633,-15.145
11023,-0.3188,-0.6211,-0.7178,0.000,-0.305,0.000,-138.862,18.638,-15.145
11033,-0.3179,-0.6226,-0.7158,0.244,-0.488,0.000,-138.862,18.638,-15.145
11043,-0.3203,-0.6216,-0.7153,0.427,-0.610,-0.061,-138.856,18.644,-15.145
11053,-0.3184,-0.6216,-0.7144,0.488,-0.732,-0.122,-138.851,18.649,-15.145
11064,-0.3203,-0.6230,-0.7139,0.427,-0.854,-0.183,-138.845,18.655,-15.145
11073,-0.3213,-0.6240,-0.7095,0.366,-0.916,-0.183,-138.834,18.660,-15.145
11083,-0.3228,-0.6250,-0.7104,0.122,-0.977,-0.244,-138.829,18.666,-15.145
11093,-0.3218,-0.6245,-0.7070,-0.061,-0.793,-0.244,-138.823,18.671,-15.145
11103,-0.3228,-0.6265,-0.7090,-0.305,-0.488,-0.183,-138.823,18.677,-15.145
11113,-0.3218,-0.6260,-0.7100,-0.305,-0.244,-0.122,-138.823,18.677,-15.145
11123,-0.3198,-0.6279,-0.7080,-0.244,0.000,-0.061,-138.823,18.677,-15.145
11133,-0.3198,-0.6260,-0.7114,-0.183,0.000,0.061,-138.823,18.677,-15.145
11143,-0.3198,-0.6270,-0.7090,-0.061,-0.061,0.183,-138.818,18.682,-15.145
11153,-0.3169,-0.6250,-0.7090,0.000,-0.061,0.244,-138.818,18.682,-15.145
11163,-0.3198,-0.6250,-0.7075,0.122,-0.122,0.305,-138.812,18.682,-15.145
11173,-0.3179,-0.6270,-0.7075,0.244,0.000,0.244,-138.807,18.688,-15.145
11183,-0.3198,-0.6240,-0.7070,0.183,0.061,0.244,-138.807,18.688,-15.145
11193,-0.3208,-0.6230,-0.7070,0.122,0.061,0.366,-138.801,18.688,-15.145
11203,-0.3193,-0.6221,-0.7065,0.122,0.061,0.305,-138.801,18.693,-15.145
11213,-0.3203,-0.6216,-0.7070,0.183,0.122,0.183,-138.801,18.693,-15.145
11223,-0.3198,-0.6211,-0.7090,0.305,0.183,0.122,-138.796,18.693,-15.145
11233,-0.3203,-0.6240,-0.7070,0.366,0.244,0.122,-138.790,18.693,-15.145
11243,-0.3193,-0.6230,-0.7065,0.244,0.427,0.122,-138.790,18.693,-15.145
11253,-0.3169,-0.6250,-0.7085,-0.061,0.610,0.305,-138.790,18.688,-15.145
11263,-0.3193,-0.6240,-0.7129,-0.366,0.854,0.366,-138.796,18.682,-15.145
11273,-0.3193,-0.6230,-0.7163,-0.549,1.099,0.305,-138.807,18.677,-15.145
11283,-0.3193,-0.6221,-0.7158,-0.488,1.160,0.305,-138.818,18.666,-15.145
11293,-0.3179,-0.6206,-0.7207,-0.305,0.977,0.305,-138.829,18.660,-15.145
11303,-0.3188,-0.6187,-0.7197,-0.061,0.732,0.244,-138.834,18.655,-15.145
11313,-0.3184,-0.6187,-0.7207,0.244,0.427,0.183,-138.840,18.655,-15.145
11323,-0.3179,-0.6201,-0.7207,0.427,0.061,0.061,-138.840,18.649,-15.145
11333,-0.3188,-0.6206,-0.7187,0.488,-0.305,-0.061,-138.834,18.655,-15.145
11343,-0.3193,-0.6216,-0.7148,0.488,-0.488,-0.244,-138.834,18.655,-15.145
11353,-0.3198,-0.6235,-0.7144,0.366,-0.488,-0.244,-138.829,18.655,-15.145
11363,-0.3184,-0.6235,-0.7129,0.183,-0.427,-0.244,-138.823,18.655,-15.145
11373,-0.3179,-0.6226,-0.7124,0.061,-0.427,-0.061,-138.823,18.660,-15.145
11383,-0.3193,-0.6230,-0.7144,0.000,-0.366,0.000,-138.823,18.660,-15.145
11393,-0.3179,-0.6245,-0.7129,-0.061,-0.244,0.000,-138.823,18.660,-15.145
11403,-0.3169,-0.6230,-0.7134,-0.061,-0.183,0.000,-138.823,18.660,-15.145
11413,-0.3188,-0.6226,-0.7153,-0.061,-0.183,0.061,-138.823,18.660,-15.145
11423,-0.3208,-0.6226,-0.7139,0.000,-0.244,0.061,-138.823,18.666,-15.145
11433,-0.3198,-0.6221,-0.7114,0.122,-0.244,0.000,-138.823,18.666,-15.145
11443,-0.3198,-0.6221,-0.7100,0.183,-0.305,0.000,-138.818,18.671,-15.145
11453,-0.3179,-0.6245,-0.7109,0.000,-0.366,0.061,-138.818,18.671,-15.145
11463,-0.3188,-0.6230,-0.7124,-0.183,-0.427,0.122,-138.818,18.677,-15.145
11473,-0.3188,-0.6206,-0.7114,-0.244,-0.366,0.061,-138.823,18.677,-15.145
11483,-0.3188,-0.6206,-0.7114,-0.061,-0.366,-0.061,-138.823,18.682,-15.145
11493,-0.3203,-0.6187,-0.7090,0.122,-0.366,-0.122,-138.823,18.682,-15.145
11503,-0.3228,-0.6206,-0.7065,0.305,-0.427,-0.244,-138.812,18.688,-15.145
11513,-0.3232,-0.6226,-0.7085,0.244,-0.366,-0.305,-138.812,18.693,-15.145
11523,-0.3198,-0.6230,-0.7056,-0.061,-0.305,-0.427,-138.807,18.693,-15.145
11533,-0.3188,-0.6235,-0.7085,-0.427,-0.183,-0.427,-138.807,18.688,-15.145
11543,-0.3193,-0.6250,-0.7119,-0.610,-0.061,-0.427,-138.812,18.688,-15.145
11553,-0.3179,-0.6245,-0.7148,-0.488,0.061,-0.366,-138.818,18.682,-15.145
11564,-0.3198,-0.6250,-0.7114,-0.122,0.122,-0.305,-138.818,18.677,-15.145
11573,-0.3203,-0.6260,-0.7095,0.183,0.061,-0.244,-138.812,18.677,-15.145
11583,-0.3198,-0.6265,-0.7104,0.366,0.000,-0.183,-138.807,18.677,-15.145
11593,-0.3179,-0.6274,-0.7095,0.183,-0.061,-0.183,-138.801,18.671,-15.145
11603,-0.3188,-0.6270,-0.7124,-0.122,-0.122,0.000,-138.796,18.671,-15.145
11613,-0.3188,-0.6255,-0.7134,-0.244,-0.122,0.061,-138.801,18.677,-15.145
11623,-0.3169,-0.6240,-0.7129,-0.183,-0.122,0.061,-138.801,18.671,-15.145
11633,-0.3174,-0.6255,-0.7134,0.000,-0.183,0.000,-138.801,18.671,-15.145
11643,-0.3154,-0.6255,-0.7119,0.183,-0.244,0.061,-138.796,18.671,-15.145
11653,-0.3179,-0.6255,-0.7114,0.366,-0.366,0.061,-138.790,18.677,-15.145
11663,-0.3208,-0.6216,-0.7129,0.366,-0.366,0.061,-138.790,18.677,-15.145
11673,-0.3208,-0.6206,-0.7100,0.305,-0.244,0.000,-138.785,18.682,-15.145
11683,-0.3218,-0.6211,-0.7085,0.244,-0.122,-0.061,-138.785,18.682,-15.145
11693,-0.3237,-0.6211,-0.7090,0.244,-0.061,-0.061,-138.779,18.688,-15.145
11704,-0.3232,-0.6230,-0.7109,0.061,0.061,-0.122,-138.779,18.688,-15.145
11713,-0.3223,-0.6235,-0.7109,-0.122,0.122,-0.122,-138.779,18.688,-15.145
11723,-0.3198,-0.6245,-0.7124,-0.305,0.122,-0.183,-138.785,18.682,-15.145
11733,-0.3213,-0.6265,-0.7124,-0.366,0.061,-0.244,-138.785,18.682,-15.145
11743,-0.3193,-0.6255,-0.7144,-0.366,0.000,-0.244,-138.790,18.682,-15.145
11753,-0.3184,-0.6279,-0.7139,-0.366,-0.122,-0.183,-138.790,18.677,-15.145
11763,-0.3174,-0.6289,-0.7153,-0.305,-0.244,-0.061,-138.790,18.677,-15.145
11773,-0.3164,-0.6279,-0.7134,-0.183,-0.366,0.122,-138.790,18.677,-15.145
11783,-0.3169,-0.6309,-0.7114,0.061,-0.305,0.244,-138.785,18.682,-15.145
11793,-0.3179,-0.6299,-0.7080,0.122,-0.122,0.427,-138.779,18.682,-15.145
11803,-0.3184,-0.6279,-0.7026,0.000,0.244,0.671,-138.779,18.682,-15.145
11813,-0.3203,-0.6240,-0.7065,-0.061,0.732,0.732,-138.779,18.682,-15.145
11823,-0.3223,-0.6230,-0.7070,0.000,1.221,0.671,-138.785,18.682,-15.145
11833,-0.3213,-0.6226,-0.7100,-0.244,1.282,0.732,-138.790,18.677,-15.145
11843,-0.3203,-0.6206,-0.7129,-0.427,1.038,0.671,-138.801,18.677,-15.145
11853,-0.3198,-0.6196,-0.7129,-0.427,0.854,0.610,-138.807,18.671,-15.145
11863,-0.3193,-0.6201,-0.7134,-0.305,0.671,0.427,-138.818,18.671,-15.145
11873,-0.3188,-0.6216,-0.7153,-0.244,0.427,0.305,-138.823,18.671,-15.145
11883,-0.3188,-0.6216,-0.7173,-0.061,0.183,0.244,-138.829,18.666,-15.145
11893,-0.3174,-0.6211,-0.7173,0.183,0.000,0.183,-138.829,18.666,-15.145
11903,-0.3179,-0.6187,-0.7163,0.427,-0.244,0.122,-138.829,18.671,-15.145
11913,-0.3188,-0.6211,-0.7148,0.610,-0.488,0.061,-138.823,18.671,-15.145
11923,-0.3203,-0.6196,-0.7134,0.671,-0.671,-0.061,-138.818,18.677,-15.145
11933,-0.3208,-0.6211,-0.7124,0.671,-0.610,-0.122,-138.807,18.682,-15.145
11943,-0.3213,-0.6250,-0.7144,0.549,-0.305,-0.122,-138.801,18.682,-15.145
11953,-0.3203,-0.6265,-0.7153,0.305,-0.061,-0.183,-138.796,18.682,-15.145
11963,-0.3179,-0.6284,-0.7168,0.061,0.061,-0.122,-138.796,18.677,-15.145
11973,-0.3179,-0.6265,-0.7202,-0.183,-0.122,-0.061,-138.801,18.677,-15.145
11983,-0.3188,-0.6245,-0.7202,-0.183,-0.305,0.122,-138.807,18.677,-15.145
11993,-0.3184,-0.6245,-0.7202,-0.061,-0.549,0.305,-138.807,18.682,-15.145
12003,-0.3188,-0.6226,-0.7183,0.305,-0.793,0.427,-138.807,18.688,-15.145
12013,-0.3188,-0.6201,-0.7148,0.610,-0.977,0.427,-138.801,18.699,-15.145
12023,-0.3213,-0.6206,-0.7119,0.732,-1.038,0.366,-138.796,18.710,-15.145
12033,-0.3193,-0.6226,-0.7124,0.732,-0.854,0.122,-138.785,18.715,-15.145
12043,-0.3193,-0.6211,-0.7061,0.488,-0.732,0.000,-138.779,18.721,-15.145
12053,-0.3198,-0.6211,-0.7046,0.305,-0.610,-0.061,-138.774,18.726,-15.145
12064,-0.3213,-0.6221,-0.7056,0.122,-0.549,-0.183,-138.768,18.732,-15.145
12073,-0.3184,-0.6260,-0.7065,-0.183,-0.549,-0.183,-138.763,18.732,-15.145
12083,-0.3174,-0.6270,-0.7056,-0.488,-0.549,0.000,-138.763,18.737,-15.145
12093,-0.3169,-0.6274,-0.7061,-0.610,-0.427,0.244,-138.763,18.737,-15.145
12103,-0.3198,-0.6255,-0.7090,-0.488,-0.244,0.366,-138.768,18.743,-15.145
12113,-0.3208,-0.6226,-0.7090,-0.183,-0.061,0.427,-138.774,18.748,-15.145
12123,-0.3198,-0.6221,-0.7080,0.305,0.122,0.305,-138.768,18.748,-15.145
12133,-0.3203,-0.6221,-0.7070,0.488,0.244,0.244,-138.763,18.748,-15.145
12143,-0.3198,-0.6216,-0.7065,0.488,0.244,0.183,-138.757,18.748,-15.145
12153,-0.3223,-0.6226,-0.7061,0.183,0.305,0.122,-138.757,18.748,-15.145
12163,-0.3228,-0.6221,-0.7065,-0.244,0.305,0.061,-138.757,18.748,-15.145
12173,-0.3228,-0.6216,-0.7056,-0.427,0.366,0.061,-138.763,18.748,-15.145
12183,-0.3218,-0.6245,-0.7061,-0.305,0.610,0.000,-138.763,18.743,-15.145
12193,-0.3198,-0.6279,-0.7056,-0.183,0.732,-0.061,-138.763,18.737,-15.145
12203,-0.3213,-0.6338,-0.7095,-0.183,0.732,-0.061,-138.763,18.732,-15.145
12213,-0.3159,-0.6318,-0.7090,-0.366,0.854,0.122,-138.763,18.721,-15.145
12223,-0.3179,-0.6323,-0.7100,-0.610,0.854,0.366,-138.768,18.715,-15.145
12233,-0.3174,-0.6333,-0.7129,-0.549,0.854,0.549,-138.768,18.710,-15.145
12243,-0.3169,-0.6289,-0.7124,-0.366,0.793,0.732,-138.774,18.704,-15.145
12253,-0.3184,-0.6245,-0.7144,-0.061,0.732,0.916,-138.779,18.704,-15.145
12263,-0.3198,-0.6240,-0.7158,0.366,0.610,0.916,-138.785,18.704,-15.145
12273,-0.3213,-0.6226,-0.7168,0.549,0.488,0.916,-138.785,18.710,-15.145
12283,-0.3223,-0.6196,-0.7129,0.610,0.427,0.854,-138.785,18.710,-15.145
12293,-0.3213,-0.6216,-0.7134,0.366,0.427,0.793,-138.785,18.715,-15.145
12303,-0.3223,-0.6221,-0.7139,0.122,0.366,0.610,-138.785,18.715,-15.145
12313,-0.3232,-0.6216,-0.7129,-0.122,0.427,0.427,-138.790,18.715,-15.145
12323,-0.3228,-0.6191,-0.7124,-0.305,0.427,0.305,-138.796,18.715,-15.145
12333,-0.3223,-0.6201,-0.7148,-0.366,0.488,0.366,-138.807,18.715,-15.145
12344,-0.3198,-0.6206,-0.7173,-0.305,0.366,0.305,-138.812,18.715,-15.145
12354,-0.3208,-0.6226,-0.7163,-0.305,0.183,0.244,-138.818,18.715,-15.145
12364,-0.3198,-0.6250,-0.7158,-0.305,0.122,0.183,-138.823,18.715,-15.145
12374,-0.3213,-0.6255,-0.7153,-0.305,0.061,0.244,-138.829,18.715,-15.145
12383,-0.3203,-0.6240,-0.7144,-0.305,0.000,0.244,-138.829,18.715,-15.145
12393,-0.3179,-0.6235,-0.7129,-0.122,0.000,0.244,-138.834,18.715,-15.145
12404,-0.3179,-0.6240,-0.7148,-0.122,0.000,0.244,-138.834,18.715,-15.145
12414,-0.3179,-0.6250,-0.7124,-0.122,-0.183,0.305,-138.834,18.715,-15.145
12423,-0.3193,-0.6240,-0.7100,-0.122,-0.183,0.366,-138.834,18.721,-15.145
12434,-0.3193,-0.6216,-0.7090,-0.061,-0.061,0.366,-138.834,18.726,-15.145
12444,-0.3208,-0.6226,-0.7075,-0.061,0.122,0.366,-138.834,18.726,-15.145
12454,-0.3213,-0.6226,-0.7080,-0.183,0.305,0.305,-138.840,18.726,-15.145
12464,-0.3228,-0.6206,-0.7100,-0.366,0.549,0.305,-138.845,18.726,-15.145
12474,-0.3242,-0.6211,-0.7090,-0.610,0.732,0.183,-138.851,18.726,-15.145
12484,-0.3223,-0.6216,-0.7124,-0.854,0.854,0.244,-138.862,18.721,-15.145
12494,-0.3213,-0.6226,-0.7168,-1.038,0.916,0.305,-138.878,18.715,-15.145
12504,-0.3203,-0.6230,-0.7187,-1.038,0.854,0.305,-138.895,18.710,-15.145
12514,-0.3208,-0.6226,-0.7217,-0.977,0.732,0.244,-138.906,18.704,-15.145
12524,-0.3193,-0.6235,-0.7202,-0.671,0.488,0.244,-138.917,18.704,-15.145
12534,-0.3218,-0.6260,-0.7197,-0.366,0.244,0.244,-138.922,18.699,-15.145
12544,-0.3218,-0.6245,-0.7212,-0.061,-0.061,0.366,-138.928,18.704,-15.145
12554,-0.3218,-0.6250,-0.7207,0.244,-0.244,0.427,-138.928,18.710,-15.145
12564,-0.3188,-0.6255,-0.7197,0.427,-0.488,0.427,-138.922,18.710,-15.145
12574,-0.3188,-0.6255,-0.7148,0.427,-0.610,0.427,-138.917,18.715,-15.145
12584,-0.3198,-0.6245,-0.7148,0.366,-0.610,0.488,-138.911,18.726,-15.145
12594,-0.3184,-0.6230,-0.7124,0.244,-0.549,0.549,-138.911,18.732,-15.145
12604,-0.3198,-0.6221,-0.7114,0.061,-0.427,0.549,-138.906,18.737,-15.145
12614,-0.3223,-0.6221,-0.7129,-0.122,-0.366,0.610,-138.911,18.743,-15.145
12624,-0.3213,-0.6235,-0.7100,-0.183,-0.183,0.671,-138.911,18.748,-15.145
12634,-0.3188,-0.6235,-0.7100,-0.366,-0.061,0.671,-138.917,18.754,-15.145
12644,-0.3184,-0.6221,-0.7104,-0.427,-0.061,0.732,-138.917,18.759,-15.145
12654,-0.3169,-0.6191,-0.7124,-0.122,-0.061,0.732,-138.922,18.759,-15.145
12664,-0.3184,-0.6201,-0.7158,0.122,-0.183,0.671,-138.922,18.765,-15.145
12674,-0.3174,-0.6187,-0.7085,0.366,-0.488,0.549,-138.922,18.770,-15.145
12684,-0.3169,-0.6206,-0.7085,0.488,-0.732,0.427,-138.917,18.776,-15.145
12694,-0.3198,-0.6216,-0.7036,0.244,-0.732,0.488,-138.906,18.787,-15.145
12704,-0.3213,-0.6221,-0.7031,-0.183,-0.366,0.427,-138.906,18.792,-15.145
12714,-0.3218,-0.6211,-0.7036,-0.549,0.244,0.427,-138.911,18.798,-15.145
12724,-0.3208,-0.6201,-0.7065,-0.732,0.854,0.488,-138.917,18.792,-15.145
12734,-0.3193,-0.6201,-0.7090,-0.732,1.282,0.610,-138.928,18.787,-15.145
12744,-0.3198,-0.6172,-0.7119,-0.610,1.221,0.732,-138.939,18.781,-15.145
12754,-0.3203,-0.6143,-0.7163,-0.305,0.916,0.671,-138.950,18.781,-15.145
12764,-0.3213,-0.6147,-0.7124,0.061,0.488,0.427,-138.955,18.781,-15.145
12774,-0.3218,-0.6138,-0.7080,0.366,0.183,0.122,-138.955,18.781,-15.145
12784,-0.3237,-0.6167,-0.7075,0.366,-0.061,-0.244,-138.950,18.781,-15.145
12794,-0.3228,-0.6187,-0.7070,-0.122,0.122,-0.366,-138.950,18.781,-15.145
12804,-0.3198,-0.6230,-0.7090,-0.732,0.488,-0.549,-138.955,18.770,-15.145
12814,-0.3188,-0.6240,-0.7129,-1.221,0.916,-0.610,-138.966,18.759,-15.145
12824,-0.3179,-0.6260,-0.7183,-1.404,1.160,-0.488,-138.977,18.743,-15.145
12834,-0.3188,-0.6270,-0.7192,-1.038,1.099,-0.183,-138.988,18.732,-15.145
12844,-0.3198,-0.6274,-0.7207,-0.427,0.793,0.061,-138.994,18.726,-15.145
12854,-0.3213,-0.6274,-0.7207,0.122,0.427,0.183,-138.994,18.721,-15.145
12864,-0.3198,-0.6260,-0.7217,0.366,0.183,0.305,-138.994,18.721,-15.145
12874,-0.3213,-0.6250,-0.7197,0.366,-0.061,0.427,-138.994,18.721,-15.145
12884,-0.3218,-0.6216,-0.7192,0.122,-0.305,0.488,-138.994,18.726,-15.145
12894,-0.3213,-0.6182,-0.7222,0.122,-0.549,0.488,-138.994,18.737,-15.145
12904,-0.3203,-0.6177,-0.7183,0.122,-0.671,0.366,-138.999,18.743,-15.145
12914,-0.3184,-0.6172,-0.7183,0.305,-0.793,0.244,-138.999,18.748,-15.145
12924,-0.3174,-0.6191,-0.7153,0.366,-0.977,0.183,-138.994,18.754,-15.145
12934,-0.3203,-0.6196,-0.7134,0.427,-0.977,0.122,-138.988,18.759,-15.145
12944,-0.3193,-0.6216,-0.7129,0.427,-0.977,0.183,-138.983,18.770,-15.145
12954,-0.3213,-0.6201,-0.7119,0.366,-0.916,0.244,-138.977,18.776,-15.145
12964,-0.3218,-0.6201,-0.7119,0.305,-0.732,0.305,-138.972,18.787,-15.145
12974,-0.3213,-0.6187,-0.7100,0.244,-0.488,0.244,-138.966,18.792,-15.145
12984,-0.3208,-0.6177,-0.7104,0.122,-0.366,0.122,-138.966,18.798,-15.145
12994,-0.3208,-0.6167,-0.7109,0.000,-0.244,0.000,-138.966,18.798,-15.145
13004,-0.3203,-0.6162,-0.7085,-0.061,-0.305,0.000,-138.966,18.798,-15.145
13014,-0.3228,-0.6162,-0.7080,-0.122,-0.366,0.000,-138.966,18.803,-15.145
13024,-0.3218,-0.6177,-0.7075,-0.122,-0.488,-0.244,-138.966,18.809,-15.145
13034,-0.3218,-0.6206,-0.7090,-0.305,-0.488,-0.366,-138.966,18.809,-15.145
13044,-0.3218,-0.6211,-0.7095,-0.427,-0.488,-0.366,-138.966,18.809,-15.145
13054,-0.3208,-0.6240,-0.7085,-0.366,-0.305,-0.427,-138.961,18.809,-15.145
13064,-0.3184,-0.6255,-0.7095,-0.244,-0.183,-0.427,-138.961,18.809,-15.145
13074,-0.3198,-0.6245,-0.7085,-0.183,0.000,-0.305,-138.961,18.803,-15.145
13084,-0.3203,-0.6226,-0.7119,-0.061,0.122,-0.122,-138.955,18.803,-15.145
13094,-0.3223,-0.6206,-0.7119,0.122,0.061,0.000,-138.955,18.803,-15.145
13104,-0.3228,-0.6230,-0.7129,0.305,0.183,0.000,-138.950,18.798,-15.145
13114,-0.3223,-0.6211,-0.7109,0.305,0.183,-0.122,-138.950,18.798,-15.145
13124,-0.3232,-0.6201,-0.7080,0.122,0.244,-0.122,-138.944,18.798,-15.145
13134,-0.3237,-0.6196,-0.7109,-0.183,0.244,-0.122,-138.950,18.798,-15.145
13144,-0.3232,-0.6211,-0.7139,-0.366,0.183,-0.122,-138.950,18.792,-15.145
13154,-0.3232,-0.6196,-0.7158,-0.366,0.122,-0.183,-138.955,18.792,-15.145
13164,-0.3218,-0.6206,-0.7144,-0.183,0.122,-0.244,-138.961,18.792,-15.145
13174,-0.3218,-0.6216,-0.7139,0.061,0.183,-0.183,-138.955,18.787,-15.145
13184,-0.3223,-0.6230,-0.7158,0.183,0.244,-0.183,-138.955,18.787,-15.145
13194,-0.3237,-0.6230,-0.7173,0.244,0.244,-0.122,-138.955,18.781,-15.145
13204,-0.3213,-0.6226,-0.7173,0.183,0.183,-0.122,-138.955,18.781,-15.145
13214,-0.3203,-0.6211,-0.7168,0.061,0.000,-0.061,-138.955,18.776,-15.145
13224,-0.3203,-0.6211,-0.7153,-0.122,-0.122,-0.061,-138.955,18.776,-15.145
13234,-0.3188,-0.6226,-0.7158,-0.244,-0.122,-0.061,-138.961,18.776,-15.145
13244,-0.3184,-0.6226,-0.7158,-0.366,0.000,-0.122,-138.961,18.770,-15.145
13254,-0.3174,-0.6211,-0.7148,-0.427,0.000,-0.061,-138.966,18.770,-15.145
13264,-0.3174,-0.6196,-0.7178,-0.244,0.000,0.122,-138.972,18.770,-15.145
13274,-0.3174,-0.6187,-0.7183,-0.061,-0.122,0.122,-138.977,18.765,-15.145
13284,-0.3193,-0.6177,-0.7158,0.061,-0.244,0.061,-138.977,18.770,-15.145
13294,-0.3218,-0.6167,-0.7158,0.244,-0.366,0.061,-138.977,18.770,-15.145
13304,-0.3223,-0.6172,-0.7148,0.427,-0.488,0.000,-138.972,18.776,-15.145
13314,-0.3213,-0.6191,-0.7139,0.366,-0.549,-0.183,-138.966,18.781,-15.145
13324,-0.3203,-0.6187,-0.7129,0.244,-0.610,-0.305,-138.966,18.781,-15.145
13334,-0.3203,-0.6177,-0.7114,0.000,-0.671,-0.366,-138.961,18.787,-15.145
13344,-0.3218,-0.6187,-0.7104,-0.244,-0.671,-0.427,-138.961,18.787,-15.145
13354,-0.3218,-0.6177,-0.7090,-0.366,-0.610,-0.427,-138.961,18.792,-15.145
13364,-0.3203,-0.6206,-0.7080,-0.427,-0.488,-0.488,-138.961,18.792,-15.145
13374,-0.3193,-0.6221,-0.7124,-0.549,-0.305,-0.488,-138.966,18.787,-15.145
13384,-0.3164,-0.6221,-0.7114,-0.610,-0.061,-0.366,-138.972,18.781,-15.145
13394,-0.3164,-0.6201,-0.7134,-0.549,0.122,-0.244,-138.977,18.781,-15.145
13404,-0.3179,-0.6167,-0.7109,-0.244,0.061,-0.244,-138.977,18.776,-15.145
13414,-0.3203,-0.6152,-0.7100,0.305,-0.183,-0.305,-138.977,18.776,-15.145
13424,-0.3228,-0.6182,-0.7061,0.732,-0.366,-0.549,-138.961,18.776,-15.145
13434,-0.3232,-0.6221,-0.7026,0.610,-0.366,-0.793,-138.950,18.776,-15.145
13444,-0.3218,-0.6240,-0.7017,0.061,-0.061,-0.916,-138.939,18.770,-15.145
13454,-0.3228,-0.6245,-0.7041,-0.732,0.366,-0.916,-138.939,18.765,-15.145
13464,-0.3237,-0.6265,-0.7075,-1.343,0.854,-0.793,-138.950,18.754,-15.145
13474,-0.3237,-0.6270,-0.7114,-1.648,1.282,-0.610,-138.966,18.743,-15.145
13484,-0.3218,-0.6255,-0.7178,-1.526,1.648,-0.366,-138.983,18.726,-15.145
13494,-0.3232,-0.6265,-0.7212,-1.099,1.770,-0.183,-138.994,18.710,-15.145
13504,-0.3203,-0.6270,-0.7227,-0.610,1.526,0.000,-139.005,18.699,-15.145
13514,-0.3188,-0.6240,-0.7222,-0.244,1.038,0.000,-139.010,18.688,-15.145
13524,-0.3223,-0.6235,-0.7227,0.061,0.427,0.061,-139.016,18.688,-15.145
13534,-0.3228,-0.6211,-0.7227,0.183,-0.061,0.061,-139.016,18.688,-15.145
13544,-0.3242,-0.6206,-0.7202,0.183,-0.366,0.000,-139.016,18.693,-15.145
13554,-0.3223,-0.6206,-0.7212,0.366,-0.488,-0.122,-139.016,18.693,-15.145
13565,-0.3213,-0.6230,-0.7183,0.549,-0.610,-0.183,-139.005,18.699,-15.145
13574,-0.3179,-0.6250,-0.7168,0.610,-0.793,-0.122,-138.999,18.699,-15.145
13584,-0.3184,-0.6270,-0.7144,0.610,-0.916,-0.122,-138.988,18.704,-15.145
13594,-0.3198,-0.6284,-0.7139,0.610,-0.977,-0.061,-138.972,18.710,-15.145
13604,-0.3203,-0.6284,-0.7144,0.549,-0.732,0.000,-138.966,18.715,-15.145
13614,-0.3208,-0.6279,-0.7129,0.549,-0.488,0.244,-138.955,18.721,-15.145
13624,-0.3218,-0.6255,-0.7124,0.488,-0.183,0.488,-138.950,18.726,-15.145
13634,-0.3228,-0.6226,-0.7139,0.488,0.061,0.610,-138.944,18.732,-15.145
13644,-0.3247,-0.6230,-0.7168,0.366,0.244,0.671,-138.944,18.732,-15.145
13654,-0.3237,-0.6201,-0.7173,0.183,0.183,0.610,-138.944,18.737,-15.145
13664,-0.3218,-0.6191,-0.7183,-0.061,-0.122,0.488,-138.950,18.743,-15.145
13674,-0.3208,-0.6182,-0.7207,-0.061,-0.610,0.366,-138.955,18.748,-15.145
13684,-0.3198,-0.6191,-0.7207,0.122,-1.099,0.244,-138.955,18.754,-15.145
13694,-0.3179,-0.6187,-0.7158,0.366,-1.526,0.244,-138.950,18.765,-15.145
13705,-0.3188,-0.6191,-0.7090,0.793,-1.770,0.122,-138.939,18.781,-15.145
13714,-0.3198,-0.6230,-0.7095,1.038,-1.648,0.061,-138.922,18.792,-15.145
13724,-0.3188,-0.6221,-0.7056,0.916,-1.343,0.122,-138.906,18.803,-15.145
13734,-0.3193,-0.6240,-0.7017,0.732,-0.916,0.305,-138.895,18.809,-15.145
13744,-0.3208,-0.6230,-0.7026,0.488,-0.488,0.427,-138.884,18.820,-15.145
13754,-0.3203,-0.6187,-0.7021,0.244,-0.122,0.488,-138.878,18.825,-15.145
13764,-0.3188,-0.6196,-0.7061,0.122,0.183,0.549,-138.878,18.825,-15.145
13774,-0.3198,-0.6191,-0.7080,-0.061,0.366,0.549,-138.884,18.825,-15.145
13784,-0.3193,-0.6182,-0.7100,-0.244,0.549,0.427,-138.889,18.825,-15.145
13794,-0.3208,-0.6177,-0.7129,-0.305,0.610,0.244,-138.895,18.820,-15.145
13804,-0.3203,-0.6172,-0.7119,-0.366,0.671,0.000,-138.900,18.814,-15.145
13814,-0.3188,-0.6162,-0.7168,-0.305,0.610,-0.122,-138.911,18.809,-15.145
13824,-0.3179,-0.6177,-0.7168,-0.122,0.427,-0.183,-138.917,18.798,-15.145
13834,-0.3203,-0.6177,-0.7144,0.183,0.122,-0.305,-138.917,18.798,-15.145
13844,-0.3193,-0.6191,-0.7178,0.427,-0.061,-0.427,-138.911,18.792,-15.145
13854,-0.3223,-0.6211,-0.7153,0.427,-0.244,-0.488,-138.906,18.792,-15.145
13864,-0.3228,-0.6235,-0.7148,0.305,-0.366,-0.488,-138.900,18.792,-15.145
13874,-0.3228,-0.6226,-0.7139,0.183,-0.305,-0.488,-138.900,18.792,-15.145
13884,-0.3208,-0.6221,-0.7134,0.061,-0.122,-0.549,-138.895,18.787,-15.145
13894,-0.3179,-0.6240,-0.7129,-0.061,0.000,-0.610,-138.895,18.781,-15.145
13904,-0.3174,-0.6250,-0.7129,-0.183,0.122,-0.427,-138.895,18.776,-15.145
13914,-0.3184,-0.6240,-0.7134,-0.244,0.122,-0.244,-138.895,18.770,-15.145
13924,-0.3188,-0.6240,-0.7148,-0.244,0.122,-0.183,-138.895,18.765,-15.145
13934,-0.3193,-0.6226,-0.7178,-0.122,0.122,-0.122,-138.900,18.759,-15.145
13944,-0.3232,-0.6201,-0.7163,0.000,0.061,-0.061,-138.900,18.759,-15.145
13954,-0.3223,-0.6216,-0.7178,0.183,-0.061,-0.061,-138.900,18.759,-15.145
13964,-0.3223,-0.6226,-0.7197,0.122,-0.183,-0.183,-138.900,18.759,-15.145
13974,-0.3232,-0.6206,-0.7178,0.000,-0.305,-0.305,-138.906,18.765,-15.145
13984,-0.3223,-0.6206,-0.7168,-0.122,-0.427,-0.366,-138.906,18.765,-15.145
13994,-0.3232,-0.6211,-0.7168,-0.183,-0.549,-0.427,-138.906,18.765,-15.145
14004,-0.3228,-0.6226,-0.7158,-0.061,-0.732,-0.427,-138.906,18.770,-15.145
14014,-0.3208,-0.6255,-0.7129,0.122,-0.793,-0.549,-138.900,18.770,-15.145
14024,-0.3198,-0.6260,-0.7119,0.183,-0.916,-0.549,-138.889,18.770,-15.145
14034,-0.3188,-0.6289,-0.7095,0.183,-0.854,-0.366,-138.884,18.776,-15.145
14044,-0.3198,-0.6289,-0.7114,0.000,-0.610,-0.183,-138.878,18.776,-15.145
14054,-0.3203,-0.6265,-0.7100,-0.122,-0.366,0.061,-138.873,18.776,-15.145
14065,-0.3193,-0.6235,-0.7104,-0.061,-0.244,0.122,-138.873,18.781,-15.145
14074,-0.3213,-0.6201,-0.7114,0.122,-0.183,0.244,-138.873,18.781,-15.145
14084,-0.3228,-0.6182,-0.7090,0.488,-0.244,0.183,-138.867,18.787,-15.145
14094,-0.3213,-0.6206,-0.7080,0.671,-0.366,0.000,-138.862,18.792,-15.145
14104,-0.3228,-0.6196,-0.7061,0.427,-0.488,-0.183,-138.851,18.792,-15.145
14114,-0.3223,-0.6211,-0.7046,0.000,-0.366,-0.244,-138.851,18.798,-15.145
14124,-0.3223,-0.6221,-0.7065,-0.427,-0.061,-0.305,-138.851,18.798,-15.145
14134,-0.3208,-0.6235,-0.7080,-0.671,0.183,-0.305,-138.856,18.792,-15.145
14144,-0.3228,-0.6211,-0.7100,-0.671,0.366,-0.244,-138.862,18.792,-15.145
14154,-0.3218,-0.6235,-0.7109,-0.427,0.366,-0.122,-138.862,18.787,-15.145
14164,-0.3218,-0.6250,-0.7114,-0.061,0.305,-0.061,-138.862,18.781,-15.145
14174,-0.3213,-0.6265,-0.7114,0.244,0.244,-0.061,-138.862,18.781,-15.145
14184,-0.3223,-0.6270,-0.7124,0.244,0.122,0.000,-138.856,18.781,-15.145
14194,-0.3208,-0.6270,-0.7139,0.122,0.122,0.183,-138.851,18.781,-15.145
14204,-0.3179,-0.6240,-0.7139,0.000,0.122,0.183,-138.851,18.776,-15.145
14214,-0.3188,-0.6226,-0.7163,-0.061,0.061,0.183,-138.856,18.776,-15.145
14224,-0.3203,-0.6230,-0.7168,0.000,-0.061,0.183,-138.856,18.776,-15.145
14234,-0.3198,-0.6201,-0.7168,0.122,-0.183,0.122,-138.862,18.776,-15.145
14244,-0.3213,-0.6235,-0.7124,0.183,-0.366,0.061,-138.856,18.781,-15.145
14254,-0.3198,-0.6221,-0.7144,0.305,-0.305,0.000,-138.856,18.781,-15.145
14264,-0.3208,-0.6235,-0.7114,0.366,-0.244,0.000,-138.851,18.781,-15.145
14274,-0.3242,-0.6230,-0.7114,0.427,-0.244,0.000,-138.845,18.787,-15.145
14284,-0.3237,-0.6211,-0.7104,0.427,-0.244,0.000,-138.840,18.787,-15.145
14294,-0.3232,-0.6226,-0.7090,0.427,-0.244,0.000,-138.834,18.792,-15.145
14304,-0.3232,-0.6250,-0.7109,0.305,-0.122,0.000,-138.829,18.792,-15.145
14314,-0.3267,-0.6226,-0.7095,0.122,0.061,0.061,-138.823,18.798,-15.145
14324,-0.3247,-0.6235,-0.7109,0.000,0.122,0.000,-138.823,18.798,-15.145
14334,-0.3223,-0.6240,-0.7124,-0.061,0.061,0.061,-138.823,18.798,-15.145
14344,-0.3218,-0.6255,-0.7139,-0.183,-0.061,-0.061,-138.829,18.798,-15.145
14354,-0.3203,-0.6255,-0.7144,-0.244,-0.183,0.000,-138.829,18.798,-15.145
14364,-0.3193,-0.6260,-0.7144,-0.244,-0.244,0.122,-138.829,18.798,-15.145
14374,-0.3193,-0.6235,-0.7139,-0.061,-0.305,0.244,-138.829,18.798,-15.145
14384,-0.3193,-0.6250,-0.7119,0.305,-0.305,0.244,-138.829,18.803,-15.145
14394,-0.3193,-0.6255,-0.7109,0.549,-0.183,0.183,-138.818,18.803,-15.145
14404,-0.3193,-0.6235,-0.7090,0.610,-0.061,0.244,-138.812,18.803,-15.145
14414,-0.3198,-0.6216,-0.7109,0.488,0.000,0.305,-138.807,18.803,-15.145
14424,-0.3203,-0.6206,-0.7080,0.305,0.061,0.305,-138.807,18.803,-15.145
14434,-0.3218,-0.6191,-0.7061,0.183,0.061,0.244,-138.807,18.809,-15.145
14444,-0.3198,-0.6191,-0.7085,0.122,0.122,0.183,-138.807,18.809,-15.145
14454,-0.3193,-0.6201,-0.7114,0.000,0.305,0.122,-138.807,18.803,-15.145
14464,-0.3193,-0.6226,-0.7095,-0.183,0.488,0.061,-138.807,18.798,-15.145
14474,-0.3193,-0.6235,-0.7100,-0.427,0.671,0.000,-138.812,18.792,-15.145
14484,-0.3198,-0.6206,-0.7148,-0.610,0.671,-0.122,-138.823,18.787,-15.145
14494,-0.3208,-0.6211,-0.7139,-0.671,0.610,-0.183,-138.834,18.781,-15.145
14504,-0.3213,-0.6206,-0.7183,-0.549,0.427,-0.183,-138.840,18.776,-15.145
14514,-0.3193,-0.6221,-0.7178,-0.366,0.305,-0.183,-138.845,18.770,-15.145
14524,-0.3208,-0.6226,-0.7163,-0.061,0.183,-0.183,-138.851,18.765,-15.145
14534,-0.3193,-0.6216,-0.7153,0.244,-0.122,-0.183,-138.845,18.765,-15.145
14544,-0.3213,-0.6230,-0.7173,0.488,-0.427,-0.122,-138.845,18.765,-15.145
14554,-0.3218,-0.6260,-0.7144,0.610,-0.610,-0.061,-138.834,18.770,-15.145
14565,-0.3223,-0.6260,-0.7134,0.549,-0.732,-0.122,-138.829,18.776,-15.145
14574,-0.3237,-0.6270,-0.7139,0.366,-0.732,-0.183,-138.818,18.781,-15.145
14584,-0.3208,-0.6279,-0.7124,0.122,-0.732,-0.061,-138.812,18.781,-15.145
14594,-0.3193,-0.6279,-0.7114,-0.122,-0.732,0.122,-138.812,18.787,-15.145
14604,-0.3188,-0.6284,-0.7119,-0.122,-0.732,0.183,-138.812,18.792,-15.145
14614,-0.3203,-0.6265,-0.7104,0.061,-0.610,0.244,-138.807,18.798,-15.145
14624,-0.3228,-0.6245,-0.7104,0.305,-0.244,0.366,-138.801,18.803,-15.145
14634,-0.3223,-0.6255,-0.7070,0.488,0.000,0.366,-138.796,18.803,-15.145
14644,-0.3242,-0.6260,-0.7090,0.427,0.061,0.366,-138.790,18.809,-15.145
14654,-0.3213,-0.6216,-0.7085,0.122,0.061,0.427,-138.790,18.809,-15.145
14664,-0.3218,-0.6216,-0.7100,-0.183,0.000,0.488,-138.790,18.814,-15.145
14674,-0.3218,-0.6196,-0.7100,-0.366,0.000,0.427,-138.796,18.820,-15.145
14684,-0.3218,-0.6187,-0.7104,-0.244,-0.122,0.305,-138.801,18.820,-15.145
14694,-0.3208,-0.6172,-0.7124,0.000,-0.183,0.183,-138.807,18.825,-15.145
14704,-0.3228,-0.6191,-0.7095,0.305,-0.366,0.122,-138.801,18.825,-15.145
14714,-0.3242,-0.6196,-0.7095,0.549,-0.427,0.061,-138.796,18.831,-15.145
14724,-0.3208,-0.6226,-0.7080,0.488,-0.305,0.000,-138.790,18.836,-15.145
14734,-0.3198,-0.6255,-0.7090,0.305,-0.183,-0.122,-138.785,18.836,-15.145
14744,-0.3193,-0.6260,-0.7065,-0.122,-0.183,-0.061,-138.779,18.831,-15.145
14754,-0.3193,-0.6240,-0.7095,-0.488,-0.061,0.000,-138.785,18.831,-15.145
14764,-0.3198,-0.6226,-0.7109,-0.610,0.000,0.183,-138.790,18.831,-15.145
14774,-0.3213,-0.6196,-0.7129,-0.305,0.122,0.244,-138.796,18.831,-15.145
14784,-0.3213,-0.6206,-0.7124,0.244,0.122,0.122,-138.796,18.831,-15.145
14794,-0.3228,-0.6216,-0.7114,0.671,0.000,-0.061,-138.790,18.831,-15.145
14804,-0.3203,-0.6235,-0.7085,0.610,0.000,-0.061,-138.785,18.831,-15.145
14814,-0.3208,-0.6240,-0.7085,0.183,0.000,-0.061,-138.779,18.831,-15.145
14824,-0.3218,-0.6240,-0.7129,-0.366,0.183,-0.183,-138.785,18.825,-15.145
14834,-0.3223,-0.6221,-0.7114,-0.732,0.305,-0.244,-138.790,18.820,-15.145
14844,-0.3203,-0.6240,-0.7134,-0.732,0.366,-0.183,-138.801,18.814,-15.145
14854,-0.3228,-0.6240,-0.7109,-0.305,0.183,-0.061,-138.801,18.814,-15.145
14864,-0.3242,-0.6250,-0.7104,0.122,0.061,0.000,-138.801,18.814,-15.145
14874,-0.3213,-0.6250,-0.7124,0.427,-0.061,0.000,-138.796,18.814,-15.145
14884,-0.3228,-0.6260,-0.7134,0.427,-0.183,0.061,-138.790,18.814,-15.145
14894,-0.3218,-0.6260,-0.7124,0.244,-0.305,0.122,-138.785,18.820,-15.145
14904,-0.3203,-0.6226,-0.7095,-0.061,-0.366,0.122,-138.785,18.820,-15.145
14914,-0.3193,-0.6226,-0.7129,-0.183,-0.427,0.061,-138.785,18.825,-15.145
14924,-0.3184,-0.6260,-0.7095,-0.183,-0.427,0.061,-138.785,18.825,-15.145
14934,-0.3179,-0.6240,-0.7090,-0.122,-0.366,0.061,-138.785,18.825,-15.145
14944,-0.3188,-0.6240,-0.7109,0.000,-0.305,0.183,-138.785,18.825,-15.145
14954,-0.3198,-0.6230,-0.7114,0.244,-0.122,0.122,-138.779,18.825,-15.145
14964,-0.3228,-0.6226,-0.7119,0.366,0.061,0.061,-138.779,18.831,-15.145
14974,-0.3267,-0.6196,-0.7104,0.427,0.244,-0.061,-138.774,18.831,-15.145
14984,-0.3291,-0.6172,-0.7119,0.427,0.366,-0.183,-138.774,18.831,-15.145
14994,-0.3291,-0.6187,-0.7144,0.427,0.366,-0.488,-138.774,18.825,-15.145
15004,-0.3276,-0.6221,-0.7144,0.366,0.244,-0.854,-138.768,18.820,-15.145
15014,-0.3271,-0.6274,-0.7148,0.061,-0.183,-0.977,-138.768,18.820,-15.145
15024,-0.3267,-0.6284,-0.7168,-0.244,-0.549,-0.916,-138.763,18.820,-15.145
15034,-0.3281,-0.6328,-0.7207,-0.305,-0.793,-0.732,-138.763,18.820,-15.145
15044,-0.3242,-0.6357,-0.7207,-0.305,-0.916,-0.549,-138.763,18.820,-15.145
15054,-0.3213,-0.6353,-0.7212,-0.122,-0.977,-0.244,-138.757,18.825,-15.145
15065,-0.3208,-0.6348,-0.7178,0.244,-1.099,0.122,-138.752,18.831,-15.145
15074,-0.3213,-0.6333,-0.7148,0.732,-1.343,0.488,-138.741,18.842,-15.145
15084,-0.3213,-0.6323,-0.7100,1.160,-1.587,0.732,-138.724,18.853,-15.145
15094,-0.3193,-0.6299,-0.7041,1.404,-1.648,0.977,-138.702,18.875,-15.145
15104,-0.3218,-0.6260,-0.6997,1.404,-1.465,1.221,-138.680,18.891,-15.145
15114,-0.3223,-0.6245,-0.6958,1.160,-1.038,1.343,-138.664,18.907,-15.150
15124,-0.3223,-0.6196,-0.6938,0.671,-0.488,1.221,-138.658,18.924,-15.156
15134,-0.3223,-0.6187,-0.6978,0.122,0.000,1.160,-138.658,18.929,-15.161
15144,-0.3237,-0.6157,-0.7007,-0.183,0.366,1.038,-138.664,18.935,-15.172
15154,-0.3232,-0.6187,-0.7056,-0.427,0.671,0.854,-138.669,18.940,-15.183
15164,-0.3228,-0.6187,-0.7061,-0.549,0.854,0.671,-138.680,18.935,-15.194
15174,-0.3203,-0.6172,-0.7075,-0.549,0.854,0.549,-138.691,18.935,-15.205
15184,-0.3213,-0.6177,-0.7085,-0.427,0.671,0.610,-138.702,18.929,-15.216
15194,-0.3223,-0.6191,-0.7100,-0.305,0.427,0.427,-138.708,18.929,-15.222
15204,-0.3208,-0.6201,-0.7085,-0.122,0.305,0.244,-138.713,18.929,-15.227
15214,-0.3213,-0.6216,-0.7109,0.000,0.305,0.183,-138.713,18.929,-15.233
15224,-0.3213,-0.6211,-0.7090,0.061,0.427,0.122,-138.713,18.924,-15.233
15234,-0.3228,-0.6235,-0.7080,0.000,0.549,0.061,-138.719,18.918,-15.238
15245,-0.3218,-0.6260,-0.7046,-0.061,0.671,0.061,-138.713,18.913,-15.244
15254,-0.3208,-0.6255,-0.7070,-0.122,0.732,0.122,-138.719,18.907,-15.249
15265,-0.3223,-0.6270,-0.7051,-0.244,0.610,0.183,-138.719,18.902,-15.255
15274,-0.3223,-0.6270,-0.7090,-0.366,0.610,0.244,-138.719,18.902,-15.260
15285,-0.3237,-0.6250,-0.7100,-0.488,0.671,0.244,-138.724,18.896,-15.271
15295,-0.3242,-0.6270,-0.7085,-0.549,0.793,0.244,-138.730,18.891,-15.276
15305,-0.3247,-0.6265,-0.7095,-0.549,0.916,0.244,-138.741,18.885,-15.282
15315,-0.3247,-0.6265,-0.7109,-0.671,1.038,0.366,-138.746,18.885,-15.293
15325,-0.3237,-0.6274,-0.7114,-0.732,1.221,0.488,-138.757,18.875,-15.309
15335,-0.3252,-0.6270,-0.7173,-0.610,1.221,0.549,-138.768,18.869,-15.320
15345,-0.3242,-0.6270,-0.7153,-0.427,1.160,0.610,-138.774,18.864,-15.331
15355,-0.3232,-0.6250,-0.7163,-0.244,0.854,0.671,-138.785,18.864,-15.342
15365,-0.3262,-0.6221,-0.7139,-0.183,0.488,0.732,-138.790,18.864,-15.353
15375,-0.3276,-0.6216,-0.7148,0.061,0.305,0.793,-138.796,18.869,-15.364
15385,-0.3271,-0.6211,-0.7124,0.122,0.183,0.793,-138.796,18.875,-15.370
15395,-0.3257,-0.6221,-0.7144,0.244,0.183,0.732,-138.796,18.880,-15.375
15405,-0.3262,-0.6226,-0.7134,0.122,0.122,0.671,-138.801,18.885,-15.381
15415,-0.3232,-0.6221,-0.7148,-0.183,0.122,0.610,-138.807,18.891,-15.386
15425,-0.3213,-0.6230,-0.7124,-0.366,0.183,0.549,-138.812,18.891,-15.392
15435,-0.3232,-0.6216,-0.7139,-0.366,0.122,0.488,-138.818,18.891,-15.397
15445,-0.3228,-0.6245,-0.7100,-0.183,0.000,0.610,-138.818,18.896,-15.403
15455,-0.3193,-0.6245,-0.7085,0.061,0.000,0.610,-138.818,18.896,-15.408
15465,-0.3193,-0.6250,-0.7109,0.000,0.122,0.671,-138.818,18.896,-15.414
15475,-0.3203,-0.6226,-0.7095,-0.183,0.366,0.916,-138.823,18.902,-15.425
15485,-0.3223,-0.6187,-0.7104,-0.244,0.549,0.977,-138.829,18.902,-15.436
15495,-0.3242,-0.6143,-0.7114,0.061,0.610,0.916,-138.834,18.902,-15.447
15505,-0.3228,-0.6143,-0.7129,0.549,0.549,0.549,-138.840,18.902,-15.458
15515,-0.3232,-0.6172,-0.7104,0.793,0.427,0.244,-138.834,18.902,-15.463
15525,-0.3218,-0.6187,-0.7104,0.732,0.061,-0.061,-138.829,18.902,-15.458
15535,-0.3228,-0.6235,-0.7090,0.244,-0.244,-0.244,-138.823,18.902,-15.458
15545,-0.3213,-0.6221,-0.7095,-0.305,-0.488,-0.305,-138.823,18.902,-15.452
15555,-0.3208,-0.6240,-0.7090,-0.549,-0.427,-0.244,-138.823,18.902,-15.447
15565,-0.3228,-0.6245,-0.7080,-0.488,-0.061,-0.061,-138.829,18.902,-15.447
15575,-0.3223,-0.6265,-0.7090,-0.061,0.305,0.183,-138.823,18.902,-15.447
15585,-0.3198,-0.6289,-0.7080,0.366,0.610,0.427,-138.818,18.896,-15.458
15595,-0.3228,-0.6289,-0.7119,0.427,0.854,0.610,-138.818,18.891,-15.469
15605,-0.3228,-0.6265,-0.7129,0.244,0.916,0.854,-138.818,18.891,-15.480
15615,-0.3237,-0.6230,-0.7153,-0.061,0.793,0.977,-138.823,18.891,-15.496
15625,-0.3218,-0.6196,-0.7183,-0.366,0.549,1.038,-138.834,18.891,-15.507
15635,-0.3232,-0.6162,-0.7183,-0.366,0.305,1.038,-138.845,18.896,-15.518
15645,-0.3213,-0.6157,-0.7187,-0.122,0.122,0.793,-138.856,18.896,-15.524
15655,-0.3232,-0.6182,-0.7153,0.122,-0.122,0.549,-138.856,18.902,-15.529
15665,-0.3232,-0.6201,-0.7148,0.305,-0.305,0.427,-138.856,18.907,-15.529
15675,-0.3218,-0.6196,-0.7158,0.183,-0.366,0.366,-138.856,18.913,-15.529
15685,-0.3208,-0.6201,-0.7144,0.000,-0.305,0.366,-138.862,18.913,-15.529
15695,-0.3218,-0.6211,-0.7109,-0.122,-0.244,0.366,-138.862,18.918,-15.529
15706,-0.3228,-0.6196,-0.7109,-0.061,-0.122,0.305,-138.862,18.918,-15.535
15715,-0.3242,-0.6201,-0.7119,0.061,0.061,0.305,-138.867,18.924,-15.535
15725,-0.3237,-0.6216,-0.7114,0.000,0.183,0.305,-138.867,18.924,-15.540
15735,-0.3262,-0.6187,-0.7095,-0.305,0.183,0.366,-138.873,18.924,-15.540
15745,-0.3252,-0.6177,-0.7114,-0.488,0.305,0.244,-138.878,18.924,-15.546
15755,-0.3232,-0.6177,-0.7104,-0.488,0.305,0.061,-138.884,18.924,-15.551
15765,-0.3203,-0.6201,-0.7124,-0.549,0.122,-0.061,-138.889,18.918,-15.551
15775,-0.3223,-0.6230,-0.7100,-0.549,-0.061,-0.061,-138.895,18.918,-15.551
15785,-0.3223,-0.6226,-0.7114,-0.366,-0.305,-0.061,-138.895,18.924,-15.546
15795,-0.3218,-0.6216,-0.7095,-0.122,-0.488,-0.122,-138.895,18.924,-15.540
15805,-0.3198,-0.6206,-0.7090,0.061,-0.488,-0.305,-138.895,18.924,-15.535
15815,-0.3203,-0.6211,-0.7056,0.122,-0.366,-0.244,-138.889,18.924,-15.529
15825,-0.3213,-0.6226,-0.7061,0.061,-0.244,-0.183,-138.884,18.924,-15.529
15835,-0.3232,-0.6221,-0.7051,-0.061,-0.122,-0.183,-138.878,18.924,-15.524
15845,-0.3242,-0.6216,-0.7041,-0.122,0.061,-0.244,-138.878,18.924,-15.524
15855,-0.3228,-0.6230,-0.7065,-0.244,0.366,-0.305,-138.878,18.918,-15.524
15865,-0.3232,-0.6240,-0.7095,-0.366,0.671,-0.244,-138.878,18.913,-15.529
15875,-0.3237,-0.6240,-0.7119,-0.549,0.854,-0.122,-138.884,18.902,-15.535
15885,-0.3242,-0.6226,-0.7134,-0.549,0.916,-0.061,-138.895,18.896,-15.540
15895,-0.3242,-0.6216,-0.7153,-0.427,0.916,-0.122,-138.900,18.891,-15.546
15905,-0.3242,-0.6206,-0.7163,-0.183,0.793,-0.122,-138.906,18.880,-15.546
15915,-0.3232,-0.6221,-0.7158,0.061,0.549,-0.244,-138.906,18.875,-15.551
15925,-0.3247,-0.6216,-0.7163,0.183,0.305,-0.244,-138.906,18.875,-15.551
15935,-0.3232,-0.6221,-0.7168,0.244,0.122,-0.305,-138.906,18.869,-15.551
15945,-0.3252,-0.6240,-0.7163,0.183,-0.122,-0.366,-138.900,18.869,-15.546
15955,-0.3237,-0.6221,-0.7119,0.122,-0.244,-0.305,-138.900,18.869,-15.540
15965,-0.3257,-0.6235,-0.7129,0.122,-0.244,-0.183,-138.895,18.869,-15.540
15975,-0.3242,-0.6250,-0.7119,0.244,-0.122,-0.122,-138.889,18.869,-15.535
15985,-0.3218,-0.6260,-0.7129,0.244,-0.122,-0.061,-138.884,18.869,-15.535
15995,-0.3203,-0.6250,-0.7104,0.061,-0.122,0.122,-138.884,18.869,-15.535
16005,-0.3232,-0.6250,-0.7124,-0.061,-0.122,0.366,-138.884,18.875,-15.535
16015,-0.3232,-0.6226,-0.7124,-0.122,-0.061,0.488,-138.884,18.875,-15.540
16025,-0.3223,-0.6240,-0.7129,-0.183,0.061,0.488,-138.889,18.875,-15.546
16035,-0.3198,-0.6230,-0.7134,-0.122,0.122,0.488,-138.889,18.880,-15.551
16045,-0.3198,-0.6211,-0.7148,-0.122,0.122,0.549,-138.895,18.880,-15.557
16055,-0.3252,-0.6191,-0.7129,0.061,-0.061,0.610,-138.895,18.885,-15.557
16065,-0.3237,-0.6182,-0.7109,0.244,-0.122,0.488,-138.895,18.891,-15.562
16075,-0.3223,-0.6182,-0.7109,0.366,-0.122,0.305,-138.895,18.891,-15.562
16085,-0.3213,-0.6182,-0.7100,0.244,-0.183,0.244,-138.889,18.891,-15.562
16095,-0.3242,-0.6182,-0.7109,-0.061,-0.244,0.244,-138.895,18.896,-15.562
16105,-0.3247,-0.6187,-0.7114,-0.305,-0.305,0.122,-138.895,18.902,-15.562
16115,-0.3232,-0.6211,-0.7124,-0.305,-0.366,-0.061,-138.900,18.902,-15.562
16125,-0.3218,-0.6187,-0.7070,-0.244,-0.427,-0.122,-138.900,18.907,-15.557
16135,-0.3203,-0.6221,-0.7095,-0.061,-0.427,0.000,-138.895,18.907,-15.551
16145,-0.3184,-0.6255,-0.7075,0.122,-0.305,0.000,-138.889,18.907,-15.551
16155,-0.3184,-0.6240,-0.7056,0.061,-0.244,0.183,-138.889,18.907,-15.551
16165,-0.3184,-0.6201,-0.7090,-0.061,0.000,0.305,-138.889,18.907,-15.551
16175,-0.3198,-0.6172,-0.7104,0.000,0.427,0.366,-138.889,18.907,-15.557
16185,-0.3232,-0.6167,-0.7095,0.183,0.610,0.244,-138.895,18.902,-15.568
16195,-0.3252,-0.6172,-0.7065,0.305,0.671,0.000,-138.889,18.902,-15.568
16205,-0.3247,-0.6196,-0.7061,0.122,0.610,-0.122,-138.889,18.896,-15.573
16215,-0.3237,-0.6201,-0.7100,-0.366,0.671,-0.183,-138.895,18.891,-15.579
16225,-0.3232,-0.6196,-0.7119,-0.977,0.732,-0.244,-138.906,18.885,-15.579
16235,-0.3208,-0.6196,-0.7144,-1.343,0.916,-0.366,-138.922,18.875,-15.584
16245,-0.3228,-0.6226,-0.7163,-1.343,1.038,-0.366,-138.933,18.864,-15.590
16255,-0.3232,-0.6230,-0.7202,-1.038,1.099,-0.244,-138.950,18.853,-15.595
16265,-0.3208,-0.6230,-0.7222,-0.427,0.977,-0.183,-138.961,18.842,-15.601
