elapsed_ms,acc_x_g,acc_y_g,acc_z_g,gyro_x_dps,gyro_y_dps,gyro_z_dps,angle_x_deg,angle_y_deg,angle_z_deg
0,-0.3252,-0.6265,-0.6924,-0.488,-0.122,-0.732,-138.235,18.693,-15.035
10,-0.3252,-0.6260,-0.6992,-1.221,0.549,-0.732,-138.246,18.688,-15.035
20,-0.3232,-0.6260,-0.7046,-1.526,0.916,-0.610,-138.268,18.682,-15.035
30,-0.3203,-0.6284,-0.7075,-1.404,0.977,-0.671,-138.279,18.671,-15.035
40,-0.3174,-0.6313,-0.7109,-1.221,0.793,-0.732,-138.296,18.660,-15.035
50,-0.3149,-0.6333,-0.7119,-0.916,0.427,-0.732,-138.301,18.644,-15.035
60,-0.3159,-0.6357,-0.7124,-0.610,0.122,-0.610,-138.307,18.638,-15.035
70,-0.3149,-0.6382,-0.7119,-0.244,-0.061,-0.488,-138.307,18.633,-15.035
80,-0.3140,-0.6387,-0.7124,0.061,0.000,-0.305,-138.301,18.622,-15.035
90,-0.3145,-0.6396,-0.7129,0.244,0.244,-0.061,-138.301,18.616,-15.035
100,-0.3154,-0.6377,-0.7139,0.244,0.427,0.366,-138.296,18.611,-15.035
110,-0.3184,-0.6328,-0.7183,0.305,0.549,0.732,-138.301,18.611,-15.035
120,-0.3218,-0.6274,-0.7158,0.549,0.488,0.916,-138.301,18.616,-15.035
130,-0.3213,-0.6211,-0.7158,0.916,0.366,0.916,-138.307,18.622,-15.035
140,-0.3228,-0.6211,-0.7163,1.099,0.061,0.793,-138.307,18.627,-15.035
150,-0.3232,-0.6187,-0.7158,1.099,-0.244,0.549,-138.301,18.633,-15.035
161,-0.3223,-0.6147,-0.7139,0.732,-0.610,0.305,-138.307,18.644,-15.035
170,-0.3218,-0.6182,-0.7139,0.366,-1.099,-0.061,-138.307,18.655,-15.035
180,-0.3203,-0.6182,-0.7134,0.061,-1.587,-0.427,-138.307,18.660,-15.035
190,-0.3169,-0.6182,-0.7153,0.000,-2.075,-0.793,-138.312,18.671,-15.035
200,-0.3154,-0.6235,-0.7104,0.061,-2.380,-0.977,-138.307,18.682,-15.035
210,-0.3154,-0.6299,-0.7046,0.366,-2.502,-1.221,-138.296,18.688,-15.007
220,-0.3149,-0.6328,-0.7012,0.610,-2.380,-1.343,-138.274,18.693,-14.980
230,-0.3159,-0.6362,-0.6968,0.793,-2.258,-1.160,-138.252,18.704,-14.952
240,-0.3184,-0.6367,-0.6953,1.038,-2.014,-0.916,-138.230,18.710,-14.930
250,-0.3179,-0.6367,-0.6914,0.977,-1.648,-0.671,-138.203,18.715,-14.914
260,-0.3193,-0.6396,-0.6870,0.793,-1.221,-0.366,-138.181,18.726,-14.903
270,-0.3208,-0.6372,-0.6885,0.305,-0.671,-0.061,-138.164,18.732,-14.897
280,-0.3232,-0.6348,-0.6943,-0.244,0.061,0.183,-138.164,18.732,-14.903
290,-0.3242,-0.6318,-0.6992,-0.488,0.671,0.305,-138.170,18.732,-14.908
300,-0.3237,-0.6313,-0.7036,-0.549,1.099,0.305,-138.175,18.732,-14.919
310,-0.3242,-0.6274,-0.7070,-0.366,1.099,0.244,-138.186,18.726,-14.925
320,-0.3237,-0.6270,-0.7065,-0.061,0.793,0.183,-138.192,18.721,-14.936
330,-0.3208,-0.6284,-0.7070,0.305,0.305,0.061,-138.192,18.721,-14.936
340,-0.3213,-0.6284,-0.7070,0.488,-0.183,-0.061,-138.186,18.721,-14.936
350,-0.3218,-0.6289,-0.7095,0.427,-0.305,-0.244,-138.181,18.721,-14.930
360,-0.3228,-0.6323,-0.7070,0.366,-0.183,-0.305,-138.181,18.721,-14.930
370,-0.3203,-0.6313,-0.7080,0.305,0.000,-0.244,-138.175,18.721,-14.925
380,-0.3203,-0.6348,-0.7100,0.427,0.061,-0.122,-138.170,18.721,-14.925
390,-0.3208,-0.6338,-0.7095,0.610,-0.061,0.122,-138.164,18.721,-14.925
400,-0.3198,-0.6328,-0.7075,0.732,-0.244,0.305,-138.159,18.721,-14.925
410,-0.3203,-0.6323,-0.7075,0.916,-0.427,0.427,-138.153,18.726,-14.925
420,-0.3213,-0.6304,-0.7085,0.916,-0.366,0.549,-138.142,18.732,-14.930
430,-0.3179,-0.6294,-0.7065,0.793,-0.244,0.671,-138.137,18.737,-14.930
440,-0.3174,-0.6265,-0.7065,0.549,-0.183,0.671,-138.137,18.743,-14.936
450,-0.3179,-0.6270,-0.7065,0.366,-0.183,0.610,-138.137,18.748,-14.941
460,-0.3169,-0.6260,-0.7070,0.244,-0.427,0.488,-138.142,18.748,-14.941
470,-0.3169,-0.6240,-0.7080,0.183,-0.610,0.305,-138.142,18.754,-14.936
480,-0.3169,-0.6245,-0.7061,0.183,-0.610,0.122,-138.142,18.759,-14.936
490,-0.3193,-0.6245,-0.7051,0.244,-0.549,-0.061,-138.142,18.759,-14.930
500,-0.3188,-0.6255,-0.7026,0.244,-0.427,-0.183,-138.142,18.765,-14.925
510,-0.3208,-0.6274,-0.7012,0.183,-0.183,-0.244,-138.137,18.765,-14.925
520,-0.3218,-0.6274,-0.7021,-0.061,0.061,-0.305,-138.137,18.765,-14.919
530,-0.3228,-0.6270,-0.7017,-0.305,0.244,-0.305,-138.142,18.759,-14.919
540,-0.3228,-0.6270,-0.7012,-0.488,0.488,-0.305,-138.148,18.759,-14.919
550,-0.3218,-0.6279,-0.7021,-0.488,0.610,-0.305,-138.153,18.754,-14.925
560,-0.3218,-0.6289,-0.7012,-0.427,0.549,-0.427,-138.159,18.743,-14.925
570,-0.3193,-0.6313,-0.7031,-0.366,0.366,-0.488,-138.159,18.737,-14.925
580,-0.3174,-0.6318,-0.7051,-0.366,0.122,-0.549,-138.164,18.732,-14.919
590,-0.3193,-0.6343,-0.7065,-0.427,-0.305,-0.549,-138.164,18.732,-14.914
600,-0.3198,-0.6353,-0.7090,-0.366,-0.610,-0.488,-138.164,18.732,-14.903
610,-0.3193,-0.6353,-0.7104,-0.122,-0.671,-0.366,-138.164,18.732,-14.897
620,-0.3213,-0.6357,-0.7070,0.244,-0.488,-0.061,-138.159,18.732,-14.892
630,-0.3203,-0.6372,-0.7100,0.610,-0.183,0.244,-138.153,18.732,-14.892
640,-0.3228,-0.6338,-0.7100,0.977,0.000,0.427,-138.142,18.737,-14.897
650,-0.3223,-0.6328,-0.7065,1.221,0.183,0.549,-138.131,18.737,-14.903
661,-0.3257,-0.6313,-0.7061,1.221,0.305,0.610,-138.126,18.743,-14.908
670,-0.3247,-0.6289,-0.7056,0.977,0.366,0.610,-138.120,18.748,-14.919
680,-0.3223,-0.6289,-0.7061,0.549,0.305,0.549,-138.115,18.748,-14.925
690,-0.3203,-0.6255,-0.7100,0.122,0.305,0.427,-138.120,18.748,-14.930
700,-0.3198,-0.6274,-0.7100,-0.305,0.122,0.305,-138.131,18.748,-14.930
710,-0.3188,-0.6279,-0.7109,-0.549,-0.061,0.122,-138.142,18.748,-14.930
720,-0.3203,-0.6250,-0.7119,-0.366,-0.427,0.061,-138.148,18.754,-14.930
730,-0.3193,-0.6240,-0.7100,0.061,-0.610,0.061,-138.153,18.754,-14.925
740,-0.3193,-0.6255,-0.7095,0.488,-0.732,-0.122,-138.153,18.759,-14.919
750,-0.3174,-0.6270,-0.7065,0.793,-0.854,-0.183,-138.142,18.765,-14.914
760,-0.3184,-0.6289,-0.7026,0.916,-0.793,-0.122,-138.131,18.765,-14.908
770,-0.3188,-0.6299,-0.6997,0.854,-0.793,-0.061,-138.120,18.770,-14.903
780,-0.3188,-0.6299,-0.6997,0.549,-0.671,-0.061,-138.115,18.776,-14.897
790,-0.3203,-0.6279,-0.6978,0.305,-0.427,-0.122,-138.109,18.776,-14.892
800,-0.3198,-0.6279,-0.6968,0.122,-0.183,-0.122,-138.104,18.781,-14.886
811,-0.3203,-0.6265,-0.6987,0.061,0.122,-0.122,-138.104,18.776,-14.886
820,-0.3208,-0.6284,-0.7007,0.000,0.305,-0.122,-138.104,18.776,-14.892
830,-0.3184,-0.6299,-0.7017,-0.122,0.366,-0.244,-138.104,18.770,-14.892
841,-0.3193,-0.6304,-0.7002,-0.244,0.488,-0.366,-138.104,18.765,-14.892
850,-0.3188,-0.6289,-0.7021,-0.366,0.488,-0.366,-138.109,18.759,-14.892
860,-0.3213,-0.6294,-0.7026,-0.488,0.610,-0.305,-138.115,18.754,-14.892
870,-0.3208,-0.6304,-0.7026,-0.549,0.854,-0.427,-138.120,18.743,-14.897
880,-0.3198,-0.6323,-0.7061,-0.549,0.977,-0.427,-138.131,18.732,-14.897
890,-0.3213,-0.6348,-0.7080,-0.427,1.099,-0.366,-138.137,18.721,-14.903
900,-0.3213,-0.6357,-0.7144,-0.305,0.977,-0.244,-138.142,18.710,-14.908
910,-0.3198,-0.6328,-0.7134,-0.183,0.671,-0.122,-138.148,18.704,-14.914
921,-0.3218,-0.6304,-0.7134,0.061,0.366,-0.061,-138.153,18.699,-14.914
930,-0.3218,-0.6313,-0.7070,0.366,0.061,0.000,-138.148,18.699,-14.914
941,-0.3237,-0.6313,-0.7051,0.671,-0.122,-0.061,-138.142,18.699,-14.914
950,-0.3213,-0.6299,-0.7070,0.732,-0.183,-0.061,-138.137,18.704,-14.914
960,-0.3223,-0.6304,-0.7041,0.488,-0.122,-0.061,-138.131,18.704,-14.914
971,-0.3208,-0.6323,-0.7061,0.122,-0.061,-0.183,-138.131,18.704,-14.908
981,-0.3203,-0.6304,-0.7075,-0.183,0.061,-0.183,-138.131,18.704,-14.908
991,-0.3188,-0.6304,-0.7085,-0.244,0.122,-0.122,-138.137,18.699,-14.908
1001,-0.3198,-0.6299,-0.7070,-0.061,0.061,-0.061,-138.137,18.699,-14.908
1010,-0.3164,-0.6304,-0.7075,0.244,-0.061,0.000,-138.137,18.693,-14.908
1021,-0.3184,-0.6289,-0.7036,0.610,-0.244,0.122,-138.131,18.699,-14.908
1031,-0.3188,-0.6294,-0.7046,0.732,-0.427,0.244,-138.126,18.704,-14.908
1041,-0.3198,-0.6284,-0.7061,0.610,-0.488,0.305,-138.120,18.710,-14.903
1051,-0.3184,-0.6284,-0.7021,0.366,-0.366,0.244,-138.120,18.710,-14.903
1061,-0.3169,-0.6299,-0.7046,0.122,-0.244,0.122,-138.115,18.715,-14.903
1071,-0.3145,-0.6289,-0.7070,-0.122,-0.183,0.122,-138.120,18.710,-14.903
1081,-0.3145,-0.6294,-0.7065,-0.183,-0.244,0.122,-138.126,18.710,-14.903
1091,-0.3130,-0.6289,-0.7080,-0.061,-0.427,0.061,-138.126,18.710,-14.897
1101,-0.3164,-0.6260,-0.7056,0.427,-0.488,0.122,-138.126,18.715,-14.897
1111,-0.3184,-0.6245,-0.7041,0.854,-0.427,0.061,-138.120,18.715,-14.897
1120,-0.3213,-0.6260,-0.7002,1.038,-0.122,0.000,-138.109,18.721,-14.892
1131,-0.3218,-0.6245,-0.7002,0.732,0.183,-0.122,-138.104,18.721,-14.892
1141,-0.3247,-0.6240,-0.6992,0.183,0.549,-0.244,-138.104,18.715,-14.897
1151,-0.3252,-0.6216,-0.7031,-0.366,0.793,-0.305,-138.109,18.715,-14.897
1161,-0.3223,-0.6235,-0.7090,-0.732,0.916,-0.488,-138.126,18.704,-14.903
1171,-0.3218,-0.6265,-0.7075,-0.916,0.854,-0.732,-138.137,18.693,-14.903
1181,-0.3223,-0.6270,-0.7085,-0.854,0.549,-0.854,-138.148,18.688,-14.897
1191,-0.3184,-0.6309,-0.7104,-0.671,0.244,-0.854,-138.159,18.677,-14.897
1201,-0.3174,-0.6343,-0.7109,-0.488,0.000,-0.854,-138.159,18.671,-14.886
1211,-0.3164,-0.6323,-0.7129,-0.305,-0.183,-0.793,-138.164,18.660,-14.881
1221,-0.3169,-0.6362,-0.7114,0.000,-0.305,-0.732,-138.159,18.655,-14.870
1231,-0.3164,-0.6387,-0.7114,0.366,-0.366,-0.549,-138.153,18.655,-14.870
1241,-0.3193,-0.6401,-0.7051,0.610,-0.427,-0.366,-138.142,18.649,-14.870
1251,-0.3188,-0.6401,-0.7036,0.793,-0.488,-0.122,-138.131,18.655,-14.870
1261,-0.3208,-0.6372,-0.7012,0.732,-0.366,0.183,-138.120,18.660,-14.870
1271,-0.3208,-0.6377,-0.7026,0.488,-0.122,0.366,-138.109,18.660,-14.870
1281,-0.3232,-0.6357,-0.7051,0.122,0.122,0.488,-138.109,18.666,-14.870
1294,-0.3203,-0.6338,-0.7065,-0.244,0.427,0.549,-138.115,18.666,-14.870
1301,-0.3232,-0.6323,-0.7085,-0.305,0.671,0.671,-138.120,18.666,-14.870
1311,-0.3218,-0.6299,-0.7114,-0.183,0.671,0.732,-138.131,18.666,-14.870
1321,-0.3193,-0.6284,-0.7109,0.061,0.488,0.671,-138.137,18.666,-14.870
1331,-0.3218,-0.6255,-0.7095,0.244,0.061,0.671,-138.142,18.671,-14.870
1341,-0.3208,-0.6260,-0.7100,0.366,-0.366,0.610,-138.142,18.677,-14.870
1351,-0.3218,-0.6245,-0.7090,0.488,-0.671,0.488,-138.142,18.688,-14.870
1361,-0.3223,-0.6226,-0.7080,0.549,-0.732,0.305,-138.142,18.699,-14.870
1371,-0.3184,-0.6235,-0.7051,0.488,-0.671,0.061,-138.137,18.704,-14.870
1381,-0.3174,-0.6289,-0.7056,0.305,-0.488,-0.183,-138.137,18.704,-14.870
1391,-0.3159,-0.6294,-0.7036,-0.305,-0.427,-0.366,-138.137,18.704,-14.870
1401,-0.3188,-0.6304,-0.7051,-0.793,-0.183,-0.244,-138.142,18.704,-14.870
1411,-0.3184,-0.6304,-0.7056,-0.793,0.122,-0.061,-138.153,18.699,-14.870
1421,-0.3188,-0.6299,-0.7080,-0.427,0.366,0.061,-138.159,18.699,-14.870
1431,-0.3179,-0.6309,-0.7070,0.000,0.427,0.122,-138.164,18.693,-14.870
1441,-0.3184,-0.6309,-0.7080,0.183,0.427,0.183,-138.164,18.688,-14.870
1451,-0.3184,-0.6318,-0.7075,0.061,0.244,0.244,-138.164,18.688,-14.870
1461,-0.3169,-0.6284,-0.7085,-0.122,-0.183,0.366,-138.170,18.688,-14.870
1471,-0.3179,-0.6255,-0.7080,-0.061,-0.610,0.305,-138.170,18.693,-14.870
1481,-0.3208,-0.6230,-0.7075,0.427,-0.854,0.244,-138.170,18.704,-14.870
1491,-0.3213,-0.6260,-0.7041,0.977,-0.916,0.061,-138.159,18.715,-14.870
1501,-0.3223,-0.6309,-0.7007,1.221,-0.732,-0.122,-138.148,18.721,-14.870
1511,-0.3179,-0.6333,-0.7026,0.793,-0.488,-0.183,-138.137,18.721,-14.870
1521,-0.3164,-0.6323,-0.7031,-0.061,-0.305,-0.122,-138.131,18.721,-14.870
1531,-0.3164,-0.6274,-0.7046,-0.610,-0.183,0.061,-138.142,18.721,-14.870
1541,-0.3203,-0.6274,-0.7041,-0.549,-0.061,0.183,-138.148,18.721,-14.870
1551,-0.3223,-0.6279,-0.7051,0.061,0.122,0.061,-138.148,18.721,-14.870
1561,-0.3232,-0.6289,-0.6997,0.671,0.366,-0.122,-138.142,18.721,-14.870
1571,-0.3237,-0.6323,-0.6958,0.732,0.732,-0.061,-138.131,18.715,-14.870
1581,-0.3223,-0.6353,-0.6992,0.000,0.916,-0.061,-138.131,18.710,-14.870
1591,-0.3237,-0.6353,-0.7046,-0.977,1.038,-0.061,-138.142,18.704,-14.870
1601,-0.3218,-0.6333,-0.7100,-1.709,1.038,0.061,-138.159,18.699,-14.870
1611,-0.3203,-0.6343,-0.7153,-1.709,0.977,0.061,-138.181,18.688,-14.870
1621,-0.3203,-0.6362,-0.7202,-1.038,0.488,0.183,-138.197,18.682,-14.870
1631,-0.3193,-0.6362,-0.7163,0.000,-0.061,0.366,-138.203,18.682,-14.870
1641,-0.3193,-0.6338,-0.7139,0.793,-0.610,0.671,-138.197,18.693,-14.870
1651,-0.3198,-0.6318,-0.7119,1.404,-1.099,0.916,-138.186,18.704,-14.870
1661,-0.3169,-0.6294,-0.7080,1.587,-1.221,0.977,-138.170,18.721,-14.870
1671,-0.3184,-0.6255,-0.7041,1.465,-1.160,0.916,-138.159,18.732,-14.870
1681,-0.3184,-0.6245,-0.7021,1.099,-0.977,0.916,-138.148,18.748,-14.870
1691,-0.3213,-0.6240,-0.7017,0.793,-0.671,0.671,-138.142,18.754,-14.870
1701,-0.3193,-0.6250,-0.7021,0.488,-0.488,0.488,-138.137,18.765,-14.870
1711,-0.3184,-0.6250,-0.7041,0.122,-0.488,0.305,-138.142,18.770,-14.870
1721,-0.3174,-0.6255,-0.7070,-0.122,-0.366,0.183,-138.142,18.770,-14.870
1731,-0.3179,-0.6265,-0.7065,-0.305,-0.244,0.183,-138.153,18.770,-14.870
1741,-0.3184,-0.6235,-0.7095,-0.183,-0.183,0.122,-138.159,18.770,-14.870
1751,-0.3193,-0.6230,-0.7056,0.122,-0.183,0.122,-138.159,18.776,-14.870
1761,-0.3193,-0.6206,-0.7056,0.488,-0.122,0.000,-138.159,18.776,-14.870
1771,-0.3179,-0.6211,-0.7041,0.671,-0.061,-0.122,-138.159,18.776,-14.870
1781,-0.3203,-0.6230,-0.7026,0.610,-0.183,-0.244,-138.153,18.776,-14.870
1791,-0.3203,-0.6230,-0.7002,0.488,-0.305,-0.366,-138.148,18.776,-14.870
1801,-0.3208,-0.6240,-0.7002,0.183,-0.366,-0.549,-138.148,18.776,-14.870
1811,-0.3213,-0.6260,-0.7007,-0.183,-0.244,-0.732,-138.148,18.776,-14.870
1821,-0.3213,-0.6289,-0.7007,-0.549,0.061,-0.854,-138.148,18.770,-14.870
1831,-0.3188,-0.6309,-0.7002,-0.854,0.366,-0.854,-138.153,18.759,-14.870
1841,-0.3184,-0.6333,-0.7046,-0.977,0.549,-0.793,-138.164,18.748,-14.870
1851,-0.3184,-0.6343,-0.7051,-0.793,0.610,-0.671,-138.170,18.737,-14.870
1861,-0.3159,-0.6328,-0.7075,-0.366,0.488,-0.427,-138.170,18.726,-14.870
1871,-0.3174,-0.6323,-0.7065,0.183,0.366,-0.183,-138.170,18.721,-14.870
1881,-0.3208,-0.6328,-0.7041,0.549,0.244,-0.061,-138.164,18.721,-14.870
1891,-0.3247,-0.6294,-0.7026,0.610,0.305,0.000,-138.159,18.721,-14.870
1901,-0.3228,-0.6304,-0.7021,0.488,0.488,0.000,-138.153,18.715,-14.870
1911,-0.3237,-0.6294,-0.7046,0.183,0.610,-0.183,-138.153,18.715,-14.870
1921,-0.3267,-0.6294,-0.7070,-0.244,0.732,-0.183,-138.159,18.710,-14.870
1931,-0.3247,-0.6294,-0.7095,-0.610,0.854,-0.244,-138.170,18.704,-14.870
1941,-0.3208,-0.6304,-0.7114,-0.854,0.732,-0.305,-138.181,18.699,-14.870
1951,-0.3203,-0.6294,-0.7124,-0.732,0.427,-0.244,-138.192,18.693,-14.870
1961,-0.3203,-0.6299,-0.7144,-0.305,0.122,-0.305,-138.197,18.688,-14.870
1971,-0.3179,-0.6323,-0.7114,0.183,-0.122,-0.244,-138.197,18.682,-14.870
1981,-0.3188,-0.6318,-0.7124,0.549,-0.427,-0.183,-138.192,18.682,-14.870
1991,-0.3193,-0.6333,-0.7080,0.732,-0.488,-0.122,-138.186,18.688,-14.870
2001,-0.3208,-0.6338,-0.7061,0.732,-0.488,-0.061,-138.175,18.688,-14.870
2011,-0.3184,-0.6338,-0.7056,0.610,-0.549,0.000,-138.170,18.693,-14.870
2021,-0.3174,-0.6318,-0.7031,0.488,-0.488,0.183,-138.159,18.693,-14.870
2031,-0.3179,-0.6323,-0.7036,0.427,-0.427,0.305,-138.153,18.699,-14.870
2041,-0.3179,-0.6313,-0.7065,0.427,-0.183,0.427,-138.153,18.704,-14.870
2051,-0.3203,-0.6299,-0.7061,0.366,0.122,0.488,-138.153,18.704,-14.870
2061,-0.3208,-0.6289,-0.7056,0.244,0.305,0.488,-138.153,18.704,-14.870
2071,-0.3203,-0.6265,-0.7051,0.122,0.305,0.366,-138.153,18.704,-14.870
2081,-0.3208,-0.6279,-0.7051,0.000,0.061,0.183,-138.159,18.710,-14.870
2091,-0.3188,-0.6289,-0.7075,-0.183,-0.183,0.061,-138.159,18.710,-14.870
2101,-0.3169,-0.6299,-0.7070,-0.366,-0.305,0.061,-138.164,18.710,-14.870
2111,-0.3188,-0.6289,-0.7065,-0.427,-0.305,0.122,-138.170,18.710,-14.870
2121,-0.3203,-0.6270,-0.7085,-0.183,-0.183,0.183,-138.175,18.715,-14.870
2131,-0.3218,-0.6265,-0.7070,0.244,-0.122,0.122,-138.175,18.715,-14.870
2141,-0.3213,-0.6270,-0.7061,0.610,-0.122,0.000,-138.170,18.721,-14.870
2151,-0.3208,-0.6284,-0.7065,0.732,-0.183,-0.061,-138.164,18.721,-14.870
2161,-0.3208,-0.6284,-0.7026,0.549,-0.183,-0.122,-138.159,18.721,-14.870
2171,-0.3198,-0.6284,-0.7046,0.122,-0.244,-0.061,-138.159,18.721,-14.870
2181,-0.3184,-0.6299,-0.7026,-0.244,-0.244,-0.061,-138.159,18.721,-14.870
2191,-0.3198,-0.6279,-0.7051,-0.488,-0.183,0.000,-138.164,18.726,-14.870
2201,-0.3198,-0.6279,-0.7051,-0.427,-0.061,0.000,-138.170,18.726,-14.870
2211,-0.3198,-0.6265,-0.7065,-0.244,0.061,-0.061,-138.175,18.726,-14.870
2221,-0.3198,-0.6250,-0.7075,-0.061,0.244,-0.183,-138.181,18.721,-14.870
2231,-0.3213,-0.6260,-0.7046,-0.061,0.427,-0.366,-138.186,18.715,-14.870
2241,-0.3203,-0.6260,-0.7051,-0.183,0.610,-0.488,-138.186,18.710,-14.870
2251,-0.3193,-0.6260,-0.7080,-0.244,0.610,-0.549,-138.192,18.699,-14.870
2261,-0.3184,-0.6289,-0.7095,-0.244,0.366,-0.488,-138.197,18.693,-14.870
2271,-0.3159,-0.6304,-0.7100,-0.122,0.122,-0.549,-138.203,18.688,-14.870
2281,-0.3154,-0.6328,-0.7109,0.000,0.000,-0.549,-138.197,18.677,-14.870
2291,-0.3145,-0.6372,-0.7075,-0.122,0.061,-0.549,-138.197,18.671,-14.870
2301,-0.3140,-0.6372,-0.7085,-0.244,0.183,-0.488,-138.197,18.660,-14.870
2311,-0.3164,-0.6367,-0.7085,-0.244,0.305,-0.122,-138.197,18.655,-14.870
2321,-0.3164,-0.6353,-0.7100,0.122,0.488,0.183,-138.197,18.649,-14.870
2331,-0.3208,-0.6313,-0.7070,0.671,0.671,0.366,-138.197,18.649,-14.870
2341,-0.3228,-0.6289,-0.7070,1.099,0.793,0.366,-138.186,18.649,-14.870
2351,-0.3232,-0.6294,-0.7070,1.221,0.854,0.366,-138.181,18.644,-14.870
2361,-0.3232,-0.6284,-0.7056,0.916,0.671,0.244,-138.175,18.644,-14.870
2371,-0.3228,-0.6270,-0.7080,0.305,0.244,0.183,-138.175,18.644,-14.870
2381,-0.3232,-0.6279,-0.7100,-0.244,-0.122,0.061,-138.181,18.649,-14.870
2391,-0.3223,-0.6284,-0.7104,-0.366,-0.488,0.000,-138.186,18.655,-14.870
2401,-0.3208,-0.6289,-0.7085,-0.183,-0.610,-0.061,-138.192,18.660,-14.870
2411,-0.3198,-0.6328,-0.7070,0.244,-0.549,-0.061,-138.186,18.660,-14.870
2421,-0.3179,-0.6343,-0.7056,0.549,-0.427,0.000,-138.175,18.666,-14.870
2431,-0.3179,-0.6338,-0.7056,0.671,-0.427,0.122,-138.170,18.666,-14.870
2441,-0.3174,-0.6323,-0.7017,0.610,-0.366,0.305,-138.159,18.671,-14.870
2451,-0.3159,-0.6323,-0.7021,0.549,-0.244,0.488,-138.153,18.671,-14.870
2461,-0.3174,-0.6284,-0.7017,0.488,-0.061,0.610,-138.153,18.677,-14.870
2471,-0.3179,-0.6270,-0.7026,0.366,0.000,0.549,-138.148,18.682,-14.870
2481,-0.3193,-0.6265,-0.7031,0.305,0.122,0.549,-138.148,18.682,-14.870
2491,-0.3193,-0.6265,-0.7031,0.183,0.244,0.488,-138.153,18.688,-14.870
2501,-0.3184,-0.6270,-0.7056,0.061,0.305,0.366,-138.153,18.688,-14.870
2511,-0.3184,-0.6265,-0.7056,-0.122,0.305,0.244,-138.159,18.682,-14.870
2521,-0.3179,-0.6245,-0.7095,-0.244,0.305,0.244,-138.170,18.682,-14.870
2531,-0.3203,-0.6230,-0.7100,-0.305,0.244,0.061,-138.175,18.682,-14.870
2541,-0.3188,-0.6230,-0.7114,-0.244,0.122,-0.061,-138.186,18.682,-14.870
2551,-0.3198,-0.6235,-0.7129,0.061,-0.061,-0.244,-138.192,18.677,-14.870
2561,-0.3184,-0.6279,-0.7104,0.305,-0.366,-0.366,-138.192,18.677,-14.870
2571,-0.3179,-0.6309,-0.7100,0.366,-0.671,-0.427,-138.186,18.677,-14.870
2581,-0.3174,-0.6323,-0.7056,0.244,-0.916,-0.366,-138.181,18.682,-14.870
2591,-0.3193,-0.6333,-0.7065,0.183,-0.916,-0.305,-138.175,18.688,-14.870
2601,-0.3169,-0.6309,-0.7046,0.122,-0.732,-0.183,-138.170,18.688,-14.870
2611,-0.3203,-0.6309,-0.7021,0.000,-0.427,-0.183,-138.170,18.688,-14.870
2621,-0.3198,-0.6294,-0.7021,0.000,-0.122,-0.122,-138.170,18.693,-14.870
2631,-0.3198,-0.6299,-0.7036,-0.122,0.000,-0.122,-138.170,18.688,-14.870
2641,-0.3198,-0.6294,-0.7056,-0.244,0.000,-0.183,-138.170,18.688,-14.870
2651,-0.3184,-0.6294,-0.7056,-0.305,-0.061,-0.183,-138.175,18.688,-14.870
2662,-0.3208,-0.6294,-0.7036,-0.244,-0.244,-0.183,-138.175,18.688,-14.870
2671,-0.3188,-0.6328,-0.7046,-0.183,-0.183,-0.305,-138.175,18.688,-14.870
2681,-0.3174,-0.6353,-0.7090,-0.183,-0.122,-0.305,-138.175,18.682,-14.870
2691,-0.3184,-0.6338,-0.7085,-0.366,0.000,-0.183,-138.181,18.682,-14.870
2701,-0.3179,-0.6304,-0.7070,-0.427,0.061,0.000,-138.186,18.677,-14.870
2711,-0.3213,-0.6299,-0.7070,-0.183,0.000,0.122,-138.186,18.682,-14.870
2721,-0.3208,-0.6294,-0.7080,0.244,-0.244,0.122,-138.186,18.682,-14.870
2731,-0.3203,-0.6284,-0.7056,0.610,-0.366,0.122,-138.181,18.688,-14.870
2741,-0.3218,-0.6294,-0.7046,0.793,-0.427,0.000,-138.175,18.693,-14.870
2751,-0.3228,-0.6289,-0.7046,0.549,-0.244,-0.061,-138.170,18.693,-14.870
2761,-0.3213,-0.6294,-0.7036,0.122,0.061,-0.122,-138.164,18.693,-14.870
2771,-0.3232,-0.6299,-0.7046,-0.366,0.305,-0.122,-138.170,18.693,-14.870
2781,-0.3193,-0.6294,-0.7095,-0.610,0.488,-0.061,-138.181,18.688,-14.870
2791,-0.3159,-0.6299,-0.7095,-0.549,0.488,-0.061,-138.192,18.682,-14.870
2801,-0.3154,-0.6299,-0.7109,-0.366,0.244,0.000,-138.197,18.677,-14.870
2811,-0.3164,-0.6304,-0.7109,-0.061,-0.061,0.061,-138.197,18.677,-14.870
2821,-0.3169,-0.6309,-0.7104,0.244,-0.305,0.122,-138.197,18.677,-14.870
2831,-0.3159,-0.6309,-0.7114,0.427,-0.427,0.183,-138.197,18.677,-14.870
2841,-0.3184,-0.6284,-0.7085,0.488,-0.427,0.122,-138.192,18.682,-14.870
2851,-0.3174,-0.6274,-0.7070,0.305,-0.305,0.061,-138.192,18.682,-14.870
2861,-0.3174,-0.6274,-0.7031,0.122,-0.183,-0.061,-138.192,18.682,-14.870
2871,-0.3184,-0.6265,-0.7041,0.061,-0.061,-0.122,-138.192,18.682,-14.870
2881,-0.3193,-0.6284,-0.7036,0.061,0.000,-0.366,-138.192,18.682,-14.870
2891,-0.3179,-0.6284,-0.7036,0.061,0.000,-0.488,-138.186,18.677,-14.870
2901,-0.3179,-0.6260,-0.7051,0.122,0.000,-0.549,-138.186,18.671,-14.870
2911,-0.3208,-0.6294,-0.7012,0.183,0.061,-0.549,-138.181,18.671,-14.870
2921,-0.3193,-0.6338,-0.7046,0.183,0.061,-0.671,-138.181,18.666,-14.870
2931,-0.3198,-0.6343,-0.7026,0.122,0.061,-0.671,-138.175,18.660,-14.870
2941,-0.3184,-0.6353,-0.7051,0.000,0.000,-0.549,-138.170,18.655,-14.870
2951,-0.3184,-0.6348,-0.7051,-0.061,0.000,-0.305,-138.170,18.649,-14.870
2961,-0.3198,-0.6338,-0.7031,0.061,0.061,-0.122,-138.164,18.649,-14.870
2971,-0.3218,-0.6338,-0.7036,0.244,0.244,-0.061,-138.159,18.649,-14.870
2981,-0.3193,-0.6323,-0.7031,0.427,0.427,0.000,-138.159,18.644,-14.870
2991,-0.3203,-0.6323,-0.7046,0.427,0.549,0.122,-138.153,18.644,-14.870
3001,-0.3228,-0.6313,-0.7061,0.427,0.427,0.244,-138.153,18.644,-14.870
3011,-0.3208,-0.6294,-0.7085,0.305,0.305,0.122,-138.153,18.644,-14.870
3021,-0.3203,-0.6270,-0.7085,0.244,0.122,0.061,-138.153,18.644,-14.870
3031,-0.3188,-0.6270,-0.7109,0.183,-0.122,0.000,-138.153,18.644,-14.870
3041,-0.3188,-0.6274,-0.7109,0.244,-0.427,-0.061,-138.153,18.644,-14.870
3051,-0.3184,-0.6284,-0.7085,0.305,-0.549,-0.183,-138.153,18.649,-14.870
3061,-0.3188,-0.6313,-0.7065,0.366,-0.549,-0.244,-138.148,18.649,-14.870
3071,-0.3188,-0.6338,-0.7075,0.427,-0.305,-0.305,-138.142,18.649,-14.870
3081,-0.3159,-0.6328,-0.7070,0.427,0.000,-0.183,-138.137,18.644,-14.870
3091,-0.3164,-0.6348,-0.7070,0.366,0.183,0.000,-138.137,18.644,-14.870
3101,-0.3159,-0.6328,-0.7100,0.122,0.122,0.183,-138.137,18.638,-14.870
3111,-0.3184,-0.6318,-0.7114,0.061,0.061,0.366,-138.137,18.638,-14.870
3121,-0.3198,-0.6274,-0.7124,0.061,0.000,0.305,-138.142,18.644,-14.870
3131,-0.3169,-0.6255,-0.7129,0.244,0.061,0.244,-138.148,18.644,-14.870
3141,-0.3179,-0.6230,-0.7129,0.366,0.000,0.061,-138.153,18.638,-14.870
3151,-0.3203,-0.6245,-0.7114,0.427,-0.244,-0.061,-138.153,18.644,-14.870
3162,-0.3203,-0.6265,-0.7095,0.427,-0.488,-0.122,-138.153,18.644,-14.870
3171,-0.3188,-0.6270,-0.7104,0.183,-0.732,-0.244,-138.153,18.649,-14.870
3181,-0.3198,-0.6313,-0.7085,-0.061,-1.038,-0.305,-138.148,18.655,-14.870
3191,-0.3193,-0.6323,-0.7090,-0.183,-1.160,-0.305,-138.148,18.660,-14.870
3201,-0.3188,-0.6362,-0.7080,-0.244,-1.221,-0.305,-138.148,18.666,-14.870
3211,-0.3164,-0.6387,-0.7061,-0.244,-1.099,-0.305,-138.142,18.671,-14.870
3221,-0.3174,-0.6392,-0.7051,-0.244,-0.977,-0.122,-138.142,18.671,-14.870
3231,-0.3203,-0.6372,-0.7041,-0.122,-0.916,0.122,-138.137,18.682,-14.870
3241,-0.3213,-0.6382,-0.7021,0.122,-0.793,0.305,-138.131,18.688,-14.870
3251,-0.3193,-0.6387,-0.6978,0.244,-0.610,0.366,-138.120,18.693,-14.870
3261,-0.3174,-0.6367,-0.6987,0.122,-0.305,0.488,-138.115,18.699,-14.870
3271,-0.3188,-0.6362,-0.6973,-0.244,-0.122,0.671,-138.115,18.704,-14.870
3281,-0.3193,-0.6323,-0.7007,-0.671,0.000,0.793,-138.120,18.710,-14.870
3295,-0.3237,-0.6250,-0.7051,-0.793,0.000,0.916,-138.137,18.721,-14.870
3301,-0.3247,-0.6216,-0.7061,-0.366,0.000,0.793,-138.148,18.726,-14.870
3311,-0.3232,-0.6230,-0.7041,0.122,-0.122,0.427,-138.148,18.732,-14.870
3321,-0.3218,-0.6270,-0.7021,0.366,-0.305,0.122,-138.148,18.737,-14.870
3331,-0.3198,-0.6289,-0.6982,0.305,-0.610,0.000,-138.142,18.743,-14.870
3341,-0.3193,-0.6309,-0.6997,0.061,-0.610,-0.061,-138.137,18.748,-14.870
3351,-0.3179,-0.6313,-0.6992,-0.183,-0.488,-0.061,-138.137,18.748,-14.870
3361,-0.3149,-0.6313,-0.6992,-0.305,-0.183,-0.061,-138.137,18.748,-14.870
3371,-0.3154,-0.6313,-0.7002,-0.244,0.061,0.061,-138.137,18.743,-14.870
3381,-0.3149,-0.6318,-0.7017,-0.061,0.305,0.244,-138.137,18.743,-14.870
3391,-0.3169,-0.6309,-0.7012,-0.061,0.427,0.427,-138.137,18.737,-14.870
3401,-0.3164,-0.6299,-0.7031,-0.061,0.549,0.488,-138.142,18.737,-14.870
3411,-0.3179,-0.6284,-0.7031,-0.122,0.732,0.549,-138.148,18.732,-14.870
3421,-0.3203,-0.6270,-0.7056,-0.183,0.854,0.610,-138.153,18.732,-14.870
3431,-0.3198,-0.6289,-0.7056,-0.183,0.977,0.610,-138.159,18.726,-14.870
3441,-0.3193,-0.6294,-0.7075,-0.305,0.977,0.488,-138.170,18.721,-14.870
3451,-0.3193,-0.6304,-0.7129,-0.488,0.916,0.366,-138.181,18.715,-14.870
3461,-0.3193,-0.6265,-0.7134,-0.671,0.793,0.305,-138.192,18.710,-14.870
3471,-0.3198,-0.6260,-0.7119,-0.732,0.610,0.244,-138.208,18.710,-14.870
3481,-0.3198,-0.6260,-0.7114,-0.610,0.366,0.183,-138.219,18.704,-14.870
3491,-0.3213,-0.6279,-0.7114,-0.427,0.183,0.122,-138.230,18.704,-14.870
3501,-0.3208,-0.6294,-0.7119,-0.122,0.061,0.000,-138.230,18.704,-14.870
3511,-0.3213,-0.6318,-0.7104,0.061,-0.122,-0.061,-138.230,18.704,-14.870
3521,-0.3188,-0.6328,-0.7109,0.183,-0.366,0.000,-138.230,18.704,-14.870
3531,-0.3208,-0.6323,-0.7080,0.122,-0.488,0.061,-138.230,18.710,-14.870
3541,-0.3223,-0.6313,-0.7080,0.061,-0.427,0.183,-138.230,18.715,-14.870
3551,-0.3218,-0.6304,-0.7061,0.000,-0.305,0.244,-138.230,18.721,-14.870
3561,-0.3193,-0.6318,-0.7070,0.000,-0.061,0.244,-138.230,18.721,-14.870
3571,-0.3193,-0.6294,-0.7056,-0.183,-0.122,0.244,-138.230,18.721,-14.870
3581,-0.3184,-0.6289,-0.7021,-0.305,-0.305,0.305,-138.235,18.726,-14.870
3591,-0.3193,-0.6299,-0.7041,-0.244,-0.366,0.305,-138.235,18.732,-14.870
3601,-0.3193,-0.6284,-0.7041,-0.183,-0.366,0.244,-138.235,18.732,-14.870
3611,-0.3203,-0.6265,-0.7026,-0.061,-0.183,0.183,-138.235,18.737,-14.870
3621,-0.3198,-0.6265,-0.7021,-0.122,-0.061,0.183,-138.241,18.737,-14.870
3631,-0.3179,-0.6279,-0.7031,-0.183,0.061,0.183,-138.241,18.737,-14.870
3641,-0.3169,-0.6289,-0.6992,-0.244,0.183,0.122,-138.241,18.737,-14.870
3651,-0.3188,-0.6279,-0.7002,-0.488,0.244,0.122,-138.246,18.737,-14.870
3662,-0.3213,-0.6284,-0.7002,-0.488,0.427,0.183,-138.252,18.737,-14.870
3671,-0.3198,-0.6299,-0.6997,-0.305,0.549,0.122,-138.252,18.732,-14.870
3681,-0.3184,-0.6284,-0.7036,-0.305,0.732,0.061,-138.257,18.726,-14.870
3691,-0.3203,-0.6284,-0.7051,-0.305,0.732,0.000,-138.263,18.721,-14.870
3701,-0.3193,-0.6284,-0.7036,-0.427,0.732,0.061,-138.268,18.715,-14.870
3711,-0.3188,-0.6274,-0.7046,-0.488,0.671,0.061,-138.274,18.710,-14.870
3721,-0.3193,-0.6260,-0.7090,-0.610,0.732,0.000,-138.285,18.704,-14.870
3731,-0.3193,-0.6265,-0.7104,-0.549,0.793,0.000,-138.296,18.699,-14.870
3741,-0.3198,-0.6289,-0.7134,-0.366,0.671,0.061,-138.307,18.693,-14.870
3751,-0.3193,-0.6304,-0.7124,-0.244,0.549,0.000,-138.312,18.688,-14.870
3761,-0.3184,-0.6304,-0.7129,-0.305,0.366,-0.061,-138.318,18.682,-14.870
3771,-0.3203,-0.6309,-0.7109,-0.244,0.244,0.000,-138.318,18.682,-14.870
3781,-0.3198,-0.6304,-0.7109,-0.183,0.244,0.061,-138.323,18.677,-14.870
3791,-0.3198,-0.6313,-0.7095,-0.061,0.305,0.061,-138.323,18.677,-14.870
3801,-0.3198,-0.6323,-0.7119,-0.122,0.244,0.061,-138.329,18.671,-14.870
3811,-0.3193,-0.6323,-0.7085,-0.244,0.183,0.122,-138.329,18.671,-14.870
3821,-0.3193,-0.6309,-0.7070,-0.488,0.000,0.305,-138.334,18.671,-14.870
3831,-0.3174,-0.6289,-0.7090,-0.549,-0.122,0.427,-138.340,18.677,-14.870
3841,-0.3198,-0.6279,-0.7085,-0.366,-0.244,0.366,-138.345,18.677,-14.870
3851,-0.3198,-0.6309,-0.7095,-0.122,-0.305,0.244,-138.351,18.682,-14.870
3861,-0.3174,-0.6338,-0.7104,-0.183,-0.305,0.305,-138.351,18.682,-14.870
3871,-0.3159,-0.6309,-0.7109,-0.427,-0.244,0.427,-138.356,18.688,-14.870
3881,-0.3149,-0.6274,-0.7100,-0.488,-0.183,0.610,-138.362,18.688,-14.870
3891,-0.3179,-0.6250,-0.7100,-0.183,-0.305,0.549,-138.367,18.693,-14.870
3901,-0.3203,-0.6226,-0.7056,0.488,-0.427,0.427,-138.367,18.699,-14.870
3911,-0.3203,-0.6230,-0.7021,1.038,-0.671,0.244,-138.356,18.710,-14.870
3921,-0.3193,-0.6230,-0.6982,1.099,-0.793,0.122,-138.340,18.715,-14.870
3931,-0.3174,-0.6294,-0.6968,0.671,-0.671,0.061,-138.329,18.721,-14.870
3941,-0.3159,-0.6270,-0.6973,0.061,-0.488,0.000,-138.323,18.726,-14.870
3951,-0.3145,-0.6245,-0.6992,-0.610,-0.122,0.000,-138.329,18.721,-14.870
3961,-0.3135,-0.6279,-0.7012,-0.854,0.305,0.000,-138.334,18.715,-14.870
3971,-0.3154,-0.6245,-0.7036,-0.732,0.610,0.061,-138.345,18.710,-14.870
3981,-0.3164,-0.6245,-0.7041,-0.366,0.732,0.061,-138.351,18.704,-14.870
3991,-0.3188,-0.6245,-0.7061,0.000,0.610,0.061,-138.356,18.699,-14.870
4001,-0.3188,-0.6255,-0.7051,0.305,0.488,-0.061,-138.356,18.699,-14.870
4011,-0.3213,-0.6265,-0.7070,0.244,0.427,-0.122,-138.351,18.693,-14.870
4021,-0.3179,-0.6274,-0.7056,0.000,0.305,-0.122,-138.351,18.688,-14.870
4031,-0.3188,-0.6270,-0.7065,-0.427,0.305,-0.122,-138.356,18.688,-14.870
4041,-0.3198,-0.6284,-0.7070,-0.610,0.366,-0.122,-138.367,18.682,-14.870
4051,-0.3198,-0.6299,-0.7129,-0.793,0.549,-0.183,-138.373,18.677,-14.870
4061,-0.3228,-0.6289,-0.7139,-0.916,0.732,-0.183,-138.389,18.671,-14.870
4071,-0.3208,-0.6323,-0.7183,-0.916,0.793,-0.122,-138.400,18.660,-14.870
4081,-0.3193,-0.6313,-0.7222,-0.671,0.610,-0.122,-138.411,18.655,-14.870
4091,-0.3218,-0.6323,-0.7212,-0.305,0.122,-0.122,-138.417,18.655,-14.870
4101,-0.3203,-0.6318,-0.7192,0.122,-0.366,-0.061,-138.422,18.655,-14.870
4111,-0.3193,-0.6318,-0.7187,0.549,-0.732,0.000,-138.417,18.655,-14.870
4121,-0.3184,-0.6304,-0.7153,0.793,-0.916,0.122,-138.406,18.660,-14.870
4131,-0.3213,-0.6274,-0.7124,0.916,-1.038,0.183,-138.400,18.671,-14.870
4141,-0.3218,-0.6274,-0.7095,0.916,-1.038,0.244,-138.389,18.682,-14.870
4151,-0.3223,-0.6289,-0.7085,0.732,-0.916,0.183,-138.378,18.693,-14.870
4162,-0.3208,-0.6270,-0.7061,0.366,-0.977,0.122,-138.373,18.699,-14.870
4171,-0.3193,-0.6274,-0.7041,0.122,-1.099,0.122,-138.373,18.710,-14.870
4181,-0.3188,-0.6289,-0.7036,0.000,-1.221,0.122,-138.367,18.715,-14.870
4191,-0.3164,-0.6289,-0.7012,-0.183,-1.099,0.061,-138.362,18.726,-14.870
4201,-0.3169,-0.6304,-0.7007,-0.244,-0.977,0.122,-138.362,18.732,-14.870
4211,-0.3169,-0.6279,-0.6997,-0.183,-0.732,0.305,-138.362,18.737,-14.870
4221,-0.3184,-0.6260,-0.7007,-0.061,-0.488,0.427,-138.356,18.743,-14.870
4231,-0.3184,-0.6265,-0.6997,0.000,-0.183,0.305,-138.356,18.748,-14.870
4241,-0.3174,-0.6250,-0.7026,0.061,0.000,0.122,-138.356,18.748,-14.870
4251,-0.3159,-0.6270,-0.7017,0.000,0.122,0.000,-138.356,18.743,-14.870
4261,-0.3188,-0.6250,-0.7012,-0.244,0.122,-0.061,-138.356,18.743,-14.870
4271,-0.3184,-0.6274,-0.7026,-0.488,0.122,-0.061,-138.362,18.743,-14.870
4281,-0.3188,-0.6265,-0.7041,-0.488,0.244,-0.122,-138.367,18.737,-14.870
4291,-0.3179,-0.6270,-0.7056,-0.488,0.366,-0.183,-138.373,18.732,-14.870
4301,-0.3193,-0.6250,-0.7061,-0.366,0.488,-0.122,-138.378,18.726,-14.870
4311,-0.3184,-0.6274,-0.7061,-0.305,0.488,-0.122,-138.378,18.721,-14.870
4321,-0.3208,-0.6255,-0.7065,-0.244,0.366,-0.122,-138.384,18.721,-14.870
4331,-0.3208,-0.6250,-0.7075,-0.244,0.122,-0.122,-138.389,18.721,-14.870
4341,-0.3218,-0.6255,-0.7061,-0.183,0.061,-0.244,-138.389,18.721,-14.870
4351,-0.3223,-0.6274,-0.7075,-0.122,0.061,-0.366,-138.389,18.715,-14.870
4361,-0.3223,-0.6270,-0.7065,-0.183,0.061,-0.427,-138.395,18.715,-14.870
4371,-0.3198,-0.6304,-0.7065,-0.305,0.000,-0.427,-138.395,18.710,-14.870
4381,-0.3208,-0.6338,-0.7080,-0.488,0.061,-0.427,-138.395,18.704,-14.870
4391,-0.3184,-0.6333,-0.7085,-0.610,0.305,-0.366,-138.400,18.699,-14.870
4401,-0.3198,-0.6353,-0.7090,-0.610,0.427,-0.244,-138.400,18.693,-14.870
4411,-0.3179,-0.6323,-0.7090,-0.488,0.366,-0.061,-138.406,18.688,-14.870
4421,-0.3179,-0.6323,-0.7109,-0.244,0.183,0.122,-138.411,18.688,-14.870
4431,-0.3193,-0.6309,-0.7114,0.000,-0.122,0.183,-138.411,18.688,-14.870
4441,-0.3203,-0.6304,-0.7085,0.122,-0.305,0.244,-138.406,18.693,-14.870
4451,-0.3218,-0.6294,-0.7080,0.122,-0.244,0.244,-138.406,18.693,-14.870
4461,-0.3203,-0.6289,-0.7085,-0.061,-0.122,0.305,-138.406,18.699,-14.870
4471,-0.3184,-0.6284,-0.7080,-0.305,0.061,0.305,-138.411,18.699,-14.870
4481,-0.3218,-0.6240,-0.7100,-0.305,0.122,0.305,-138.417,18.699,-14.870
4491,-0.3208,-0.6245,-0.7104,-0.122,0.000,0.183,-138.422,18.704,-14.870
4501,-0.3203,-0.6226,-0.7080,0.183,-0.366,0.061,-138.422,18.704,-14.870
4511,-0.3198,-0.6235,-0.7036,0.427,-0.854,-0.061,-138.417,18.715,-14.870
4521,-0.3188,-0.6250,-0.7017,0.488,-1.099,-0.244,-138.406,18.721,-14.870
4531,-0.3174,-0.6279,-0.7002,0.244,-0.854,-0.427,-138.400,18.721,-14.870
4541,-0.3188,-0.6299,-0.6992,-0.305,-0.427,-0.610,-138.395,18.721,-14.870
4551,-0.3154,-0.6323,-0.7017,-0.854,0.122,-0.549,-138.400,18.715,-14.870
4561,-0.3188,-0.6318,-0.7041,-1.160,0.671,-0.427,-138.406,18.704,-14.870
4571,-0.3179,-0.6304,-0.7114,-1.099,0.977,-0.244,-138.422,18.693,-14.870
4581,-0.3174,-0.6299,-0.7124,-0.793,0.916,-0.061,-138.428,18.688,-14.870
4591,-0.3188,-0.6294,-0.7129,-0.488,0.732,0.122,-138.439,18.677,-14.870
4601,-0.3174,-0.6279,-0.7129,-0.183,0.427,0.122,-138.444,18.677,-14.870
4611,-0.3203,-0.6260,-0.7114,-0.122,0.183,0.122,-138.450,18.677,-14.870
4621,-0.3213,-0.6270,-0.7109,-0.061,0.000,0.061,-138.450,18.677,-14.870
4631,-0.3198,-0.6260,-0.7144,-0.061,-0.122,-0.122,-138.455,18.677,-14.870
4641,-0.3174,-0.6289,-0.7144,-0.183,-0.366,-0.305,-138.455,18.671,-14.870
4651,-0.3193,-0.6304,-0.7119,-0.305,-0.671,-0.366,-138.455,18.677,-14.870
4662,-0.3179,-0.6318,-0.7090,-0.305,-0.854,-0.244,-138.455,18.677,-14.870
4671,-0.3179,-0.6309,-0.7100,-0.122,-0.977,-0.244,-138.450,18.682,-14.870
4681,-0.3188,-0.6309,-0.7065,0.183,-0.977,-0.183,-138.444,18.688,-14.870
4691,-0.3218,-0.6299,-0.7065,0.427,-0.854,-0.122,-138.439,18.693,-14.870
4701,-0.3213,-0.6338,-0.7036,0.488,-0.610,-0.061,-138.428,18.699,-14.870
4711,-0.3237,-0.6309,-0.7017,0.183,-0.244,0.000,-138.422,18.704,-14.870
4721,-0.3213,-0.6294,-0.7036,-0.244,0.061,0.061,-138.422,18.704,-14.870
4731,-0.3203,-0.6284,-0.7046,-0.549,0.244,0.061,-138.428,18.704,-14.870
4741,-0.3188,-0.6279,-0.7075,-0.671,0.122,0.122,-138.433,18.704,-14.870
4751,-0.3188,-0.6274,-0.7080,-0.488,-0.122,0.061,-138.439,18.704,-14.870
4761,-0.3179,-0.6279,-0.7080,0.000,-0.427,0.000,-138.439,18.704,-14.870
4771,-0.3193,-0.6289,-0.7056,0.488,-0.671,-0.061,-138.428,18.710,-14.870
4781,-0.3174,-0.6304,-0.7036,0.793,-0.732,-0.122,-138.417,18.710,-14.870
4791,-0.3174,-0.6318,-0.6987,0.916,-0.793,-0.122,-138.400,18.715,-14.870
4801,-0.3164,-0.6318,-0.6982,0.732,-0.610,-0.061,-138.384,18.721,-14.870
4811,-0.3188,-0.6304,-0.6973,0.366,-0.366,0.183,-138.378,18.721,-14.870
4821,-0.3169,-0.6279,-0.6963,0.000,-0.061,0.366,-138.373,18.726,-14.870
4831,-0.3174,-0.6250,-0.6982,-0.305,0.305,0.366,-138.373,18.726,-14.870
4841,-0.3184,-0.6240,-0.7012,-0.305,0.671,0.305,-138.378,18.721,-14.870
4851,-0.3208,-0.6240,-0.7012,-0.305,0.977,0.183,-138.384,18.715,-14.870
4861,-0.3188,-0.6245,-0.7036,-0.244,1.160,0.000,-138.389,18.710,-14.870
4871,-0.3174,-0.6255,-0.7056,-0.244,1.038,-0.122,-138.395,18.699,-14.870
4881,-0.3179,-0.6274,-0.7070,-0.427,0.854,-0.122,-138.400,18.693,-14.870
4891,-0.3198,-0.6265,-0.7129,-0.610,0.671,-0.122,-138.411,18.682,-14.870
4901,-0.3203,-0.6270,-0.7148,-0.671,0.732,0.000,-138.422,18.677,-14.870
4911,-0.3208,-0.6294,-0.7153,-0.488,0.854,-0.061,-138.433,18.671,-14.870
4921,-0.3203,-0.6299,-0.7168,-0.305,0.977,-0.061,-138.439,18.660,-14.870
4931,-0.3184,-0.6318,-0.7148,-0.061,0.916,-0.061,-138.444,18.655,-14.870
4941,-0.3179,-0.6328,-0.7163,0.061,0.549,0.000,-138.444,18.649,-14.870
4951,-0.3154,-0.6333,-0.7158,0.061,0.000,0.061,-138.444,18.644,-14.870
4961,-0.3145,-0.6309,-0.7139,0.061,-0.488,0.122,-138.444,18.644,-14.870
4971,-0.3154,-0.6289,-0.7129,0.061,-0.732,0.183,-138.444,18.649,-14.870
4981,-0.3184,-0.6270,-0.7124,0.122,-0.732,0.244,-138.444,18.655,-14.870
4991,-0.3193,-0.6245,-0.7100,0.244,-0.610,0.244,-138.444,18.660,-14.870
5001,-0.3203,-0.6265,-0.7070,0.427,-0.427,0.183,-138.439,18.666,-14.870
5011,-0.3193,-0.6274,-0.7090,0.366,-0.305,0.122,-138.433,18.666,-14.870
5021,-0.3198,-0.6270,-0.7070,0.122,-0.183,0.183,-138.433,18.671,-14.870
5031,-0.3179,-0.6245,-0.7090,-0.305,-0.122,0.183,-138.439,18.671,-14.870
5041,-0.3164,-0.6221,-0.7104,-0.488,-0.183,0.122,-138.444,18.671,-14.870
5051,-0.3169,-0.6230,-0.7085,-0.488,-0.427,-0.061,-138.450,18.677,-14.870
5061,-0.3164,-0.6230,-0.7065,-0.244,-0.610,-0.244,-138.455,18.677,-14.870
5071,-0.3149,-0.6274,-0.7051,-0.122,-0.854,-0.366,-138.450,18.677,-14.870
5081,-0.3154,-0.6289,-0.7051,-0.244,-0.793,-0.366,-138.450,18.682,-14.870
5091,-0.3179,-0.6294,-0.7085,-0.366,-0.610,-0.305,-138.450,18.682,-14.870
5101,-0.3174,-0.6265,-0.7085,-0.366,-0.366,-0.244,-138.455,18.682,-14.870
5111,-0.3193,-0.6240,-0.7080,-0.061,-0.305,-0.305,-138.455,18.682,-14.870
5121,-0.3203,-0.6255,-0.7041,0.305,-0.366,-0.366,-138.450,18.682,-14.870
5131,-0.3203,-0.6250,-0.7012,0.549,-0.488,-0.427,-138.439,18.682,-14.870
5141,-0.3208,-0.6279,-0.7002,0.488,-0.366,-0.488,-138.428,18.688,-14.870
5151,-0.3188,-0.6299,-0.6982,0.061,-0.244,-0.549,-138.422,18.682,-14.870
5162,-0.3184,-0.6294,-0.7007,-0.488,-0.122,-0.549,-138.422,18.682,-14.870
5171,-0.3188,-0.6289,-0.7021,-0.854,0.305,-0.488,-138.428,18.677,-14.870
5181,-0.3169,-0.6294,-0.7085,-0.916,0.671,-0.427,-138.433,18.666,-14.870
5191,-0.3179,-0.6318,-0.7080,-0.732,0.854,-0.366,-138.444,18.655,-14.870
5201,-0.3193,-0.6348,-0.7080,-0.427,0.854,-0.366,-138.444,18.649,-14.870
5211,-0.3203,-0.6357,-0.7109,-0.244,0.610,-0.244,-138.444,18.638,-14.870
5221,-0.3169,-0.6348,-0.7134,-0.244,0.000,0.183,-138.444,18.638,-14.870
5231,-0.3164,-0.6333,-0.7144,-0.244,-0.183,0.244,-138.450,18.638,-14.870
5241,-0.3169,-0.6323,-0.7153,-0.061,-0.366,0.305,-138.450,18.638,-14.870
5251,-0.3140,-0.6313,-0.7124,0.244,-0.427,0.244,-138.450,18.638,-14.870
5261,-0.3164,-0.6299,-0.7109,0.549,-0.488,0.305,-138.439,18.644,-14.870
5271,-0.3179,-0.6284,-0.7080,0.793,-0.671,0.305,-138.433,18.649,-14.870
5281,-0.3184,-0.6284,-0.7075,0.977,-0.793,0.305,-138.422,18.660,-14.870
5296,-0.3203,-0.6284,-0.7031,0.977,-0.732,0.183,-138.406,18.666,-14.870
5301,-0.3203,-0.6274,-0.7021,0.610,-0.549,0.183,-138.400,18.671,-14.870
5311,-0.3193,-0.6265,-0.7017,0.183,-0.183,0.183,-138.395,18.677,-14.870
5321,-0.3203,-0.6279,-0.7041,-0.183,0.061,0.122,-138.395,18.677,-14.870
5331,-0.3188,-0.6284,-0.7031,-0.549,0.244,0.000,-138.400,18.677,-14.870
5341,-0.3169,-0.6279,-0.7075,-0.610,0.366,0.000,-138.406,18.671,-14.870
5351,-0.3169,-0.6274,-0.7080,-0.549,0.366,0.122,-138.417,18.666,-14.870
5361,-0.3184,-0.6279,-0.7080,-0.366,0.183,0.061,-138.422,18.666,-14.870
5371,-0.3169,-0.6279,-0.7090,-0.061,0.061,-0.061,-138.422,18.666,-14.870
5381,-0.3179,-0.6294,-0.7104,0.061,-0.122,-0.122,-138.422,18.660,-14.870
5391,-0.3164,-0.6299,-0.7070,0.122,-0.061,-0.183,-138.417,18.660,-14.870
5401,-0.3164,-0.6328,-0.7075,0.122,-0.122,-0.122,-138.411,18.655,-14.870
5411,-0.3164,-0.6313,-0.7056,0.244,-0.122,-0.061,-138.406,18.655,-14.870
5421,-0.3179,-0.6309,-0.7041,0.305,-0.122,0.000,-138.400,18.655,-14.870
5431,-0.3174,-0.6323,-0.7007,0.366,0.000,0.061,-138.395,18.655,-14.870
5441,-0.3149,-0.6309,-0.7002,0.366,0.061,0.061,-138.384,18.655,-14.870
5451,-0.3169,-0.6299,-0.7017,0.183,0.244,0.183,-138.384,18.655,-14.870
5461,-0.3184,-0.6294,-0.7026,0.061,0.427,0.305,-138.378,18.649,-14.870
5471,-0.3184,-0.6279,-0.7041,-0.061,0.549,0.244,-138.384,18.649,-14.870
5481,-0.3174,-0.6265,-0.7061,-0.122,0.732,0.244,-138.384,18.644,-14.870
5491,-0.3169,-0.6270,-0.7090,-0.244,0.854,0.122,-138.389,18.638,-14.870
5501,-0.3184,-0.6265,-0.7114,-0.366,0.854,0.061,-138.400,18.633,-14.870
5511,-0.3188,-0.6245,-0.7095,-0.427,0.793,0.061,-138.406,18.627,-14.870
5521,-0.3208,-0.6235,-0.7124,-0.305,0.671,0.122,-138.417,18.622,-14.870
5531,-0.3198,-0.6240,-0.7124,-0.061,0.427,0.000,-138.422,18.622,-14.870
5541,-0.3188,-0.6255,-0.7119,0.244,0.305,-0.183,-138.422,18.616,-14.870
5551,-0.3179,-0.6294,-0.7114,0.244,0.183,-0.305,-138.422,18.611,-14.870
5561,-0.3174,-0.6333,-0.7114,0.061,-0.183,-0.305,-138.417,18.611,-14.870
5571,-0.3159,-0.6333,-0.7100,-0.244,-0.610,-0.183,-138.417,18.611,-14.870
5581,-0.3184,-0.6333,-0.7085,-0.305,-0.793,-0.061,-138.417,18.616,-14.870
5591,-0.3193,-0.6323,-0.7080,-0.183,-0.732,-0.061,-138.417,18.622,-14.870
5601,-0.3203,-0.6313,-0.7085,0.061,-0.488,0.000,-138.411,18.622,-14.870
5611,-0.3223,-0.6318,-0.7031,0.305,-0.183,0.000,-138.406,18.627,-14.870
5621,-0.3218,-0.6304,-0.7012,0.366,0.000,0.000,-138.395,18.627,-14.870
5631,-0.3218,-0.6274,-0.7017,0.244,0.305,0.061,-138.395,18.627,-14.870
5641,-0.3198,-0.6284,-0.7017,-0.122,0.488,0.183,-138.395,18.627,-14.870
5651,-0.3203,-0.6284,-0.7051,-0.488,0.549,0.244,-138.400,18.627,-14.870
5662,-0.3203,-0.6284,-0.7061,-0.671,0.488,0.122,-138.406,18.627,-14.870
5671,-0.3203,-0.6289,-0.7085,-0.671,0.427,0.000,-138.417,18.622,-14.870
5681,-0.3174,-0.6284,-0.7090,-0.549,0.244,-0.122,-138.422,18.616,-14.870
5691,-0.3169,-0.6299,-0.7080,-0.427,0.000,-0.122,-138.422,18.616,-14.870
5701,-0.3159,-0.6333,-0.7080,-0.244,-0.122,-0.061,-138.422,18.616,-14.870
5711,-0.3149,-0.6333,-0.7080,-0.183,-0.061,0.000,-138.422,18.611,-14.870
5721,-0.3130,-0.6362,-0.7090,0.000,0.061,0.244,-138.422,18.611,-14.870
5731,-0.3149,-0.6353,-0.7095,0.061,0.183,0.427,-138.417,18.605,-14.870
5741,-0.3169,-0.6309,-0.7070,0.244,0.122,0.549,-138.417,18.611,-14.870
5751,-0.3184,-0.6289,-0.7056,0.549,0.061,0.671,-138.411,18.611,-14.870
5761,-0.3184,-0.6284,-0.7061,0.793,0.061,0.671,-138.406,18.616,-14.870
5771,-0.3184,-0.6265,-0.7026,0.732,0.061,0.610,-138.395,18.622,-14.870
5781,-0.3198,-0.6245,-0.7026,0.366,0.244,0.488,-138.395,18.627,-14.870
5791,-0.3193,-0.6250,-0.7041,-0.122,0.610,0.366,-138.400,18.622,-14.870
5801,-0.3208,-0.6230,-0.7085,-0.610,0.916,0.244,-138.411,18.622,-14.870
5811,-0.3213,-0.6240,-0.7148,-0.854,1.099,0.244,-138.428,18.616,-14.870
5821,-0.3188,-0.6230,-0.7187,-0.854,0.916,0.244,-138.444,18.611,-14.870
5831,-0.3188,-0.6226,-0.7202,-0.732,0.671,0.000,-138.461,18.605,-14.870
5841,-0.3159,-0.6255,-0.7183,-0.549,0.244,-0.244,-138.472,18.594,-14.870
5851,-0.3149,-0.6289,-0.7183,-0.366,-0.183,-0.305,-138.477,18.594,-14.870
5861,-0.3135,-0.6313,-0.7183,-0.183,-0.549,-0.244,-138.477,18.589,-14.870
5871,-0.3125,-0.6318,-0.7153,0.061,-0.854,-0.122,-138.477,18.594,-14.870
5881,-0.3135,-0.6313,-0.7144,0.366,-1.160,0.061,-138.472,18.594,-14.870
5891,-0.3140,-0.6333,-0.7134,0.732,-1.343,0.183,-138.461,18.605,-14.870
5901,-0.3164,-0.6323,-0.7075,0.854,-1.404,0.305,-138.444,18.616,-14.870
5911,-0.3179,-0.6318,-0.7041,0.793,-1.282,0.366,-138.433,18.627,-14.870
5921,-0.3198,-0.6299,-0.7041,0.488,-0.854,0.366,-138.422,18.638,-14.870
5931,-0.3208,-0.6289,-0.7031,0.122,-0.427,0.366,-138.422,18.644,-14.870
5941,-0.3203,-0.6250,-0.7021,-0.183,0.000,0.366,-138.422,18.649,-14.870
5951,-0.3213,-0.6240,-0.7041,-0.366,0.244,0.305,-138.428,18.649,-14.870
5961,-0.3198,-0.6240,-0.7070,-0.427,0.244,0.122,-138.433,18.649,-14.870
5971,-0.3213,-0.6221,-0.7065,-0.488,0.061,0.000,-138.439,18.649,-14.870
5981,-0.3203,-0.6260,-0.7075,-0.427,-0.366,-0.122,-138.444,18.655,-14.870
5991,-0.3203,-0.6250,-0.7051,-0.305,-0.793,-0.366,-138.444,18.660,-14.870
6001,-0.3179,-0.6279,-0.7051,-0.122,-1.038,-0.488,-138.439,18.660,-14.870
6011,-0.3174,-0.6304,-0.7041,0.061,-1.099,-0.488,-138.433,18.666,-14.870
6021,-0.3188,-0.6323,-0.7021,0.183,-0.977,-0.488,-138.422,18.671,-14.870
6031,-0.3179,-0.6338,-0.6978,0.122,-0.671,-0.427,-138.417,18.671,-14.870
6041,-0.3198,-0.6328,-0.6978,0.061,-0.366,-0.366,-138.406,18.671,-14.870
6051,-0.3203,-0.6338,-0.6968,-0.122,-0.183,-0.183,-138.400,18.677,-14.870
6061,-0.3188,-0.6333,-0.6992,-0.122,0.000,-0.061,-138.395,18.677,-14.870
6071,-0.3193,-0.6333,-0.6987,0.000,0.183,0.122,-138.389,18.671,-14.870
6081,-0.3188,-0.6333,-0.7026,0.061,0.427,0.244,-138.384,18.671,-14.870
6091,-0.3198,-0.6304,-0.7031,-0.061,0.488,0.366,-138.384,18.671,-14.870
6101,-0.3213,-0.6294,-0.7036,-0.122,0.488,0.427,-138.389,18.671,-14.870
6111,-0.3203,-0.6284,-0.7046,-0.122,0.610,0.427,-138.389,18.671,-14.870
6121,-0.3213,-0.6279,-0.7046,-0.183,0.732,0.366,-138.395,18.671,-14.870
6131,-0.3198,-0.6279,-0.7046,-0.244,0.916,0.244,-138.395,18.666,-14.870
6141,-0.3193,-0.6270,-0.7080,-0.427,1.038,0.183,-138.406,18.660,-14.870
6151,-0.3198,-0.6270,-0.7090,-0.488,0.916,0.183,-138.411,18.655,-14.870
6162,-0.3188,-0.6265,-0.7119,-0.427,0.610,0.183,-138.422,18.649,-14.870
6171,-0.3188,-0.6270,-0.7139,-0.183,0.366,0.000,-138.428,18.644,-14.870
6181,-0.3174,-0.6274,-0.7134,0.122,0.122,-0.061,-138.428,18.644,-14.870
6191,-0.3179,-0.6294,-0.7134,0.305,0.000,-0.061,-138.428,18.638,-14.870
6201,-0.3164,-0.6304,-0.7124,0.366,-0.122,-0.061,-138.422,18.638,-14.870
6211,-0.3184,-0.6299,-0.7085,0.366,-0.183,0.061,-138.417,18.638,-14.870
6221,-0.3174,-0.6289,-0.7080,0.305,-0.122,0.061,-138.417,18.638,-14.870
6231,-0.3174,-0.6289,-0.7075,0.122,-0.061,0.061,-138.411,18.638,-14.870
6241,-0.3164,-0.6284,-0.7065,0.000,0.061,0.061,-138.411,18.638,-14.870
6251,-0.3174,-0.6284,-0.7070,-0.183,0.000,0.000,-138.417,18.638,-14.870
6261,-0.3188,-0.6279,-0.7085,-0.305,0.061,0.000,-138.417,18.638,-14.870
6271,-0.3193,-0.6270,-0.7065,-0.305,0.061,0.061,-138.422,18.638,-14.870
6281,-0.3188,-0.6279,-0.7080,-0.305,0.061,0.000,-138.422,18.633,-14.870
6291,-0.3188,-0.6294,-0.7070,-0.305,0.061,-0.061,-138.428,18.633,-14.870
6301,-0.3188,-0.6274,-0.7085,-0.305,0.122,-0.122,-138.428,18.633,-14.870
6311,-0.3193,-0.6255,-0.7085,-0.305,0.061,-0.122,-138.433,18.633,-14.870
6322,-0.3203,-0.6245,-0.7085,-0.244,-0.061,-0.061,-138.439,18.633,-14.870
6331,-0.3203,-0.6240,-0.7075,-0.061,-0.244,-0.183,-138.439,18.633,-14.870
6341,-0.3218,-0.6240,-0.7065,0.000,-0.366,-0.305,-138.439,18.638,-14.870
6351,-0.3193,-0.6255,-0.7036,0.000,-0.305,-0.427,-138.433,18.638,-14.870
6362,-0.3188,-0.6289,-0.7056,-0.061,-0.122,-0.549,-138.433,18.633,-14.870
6372,-0.3188,-0.6318,-0.7075,-0.305,-0.061,-0.610,-138.433,18.633,-14.870
6382,-0.3159,-0.6353,-0.7070,-0.549,0.122,-0.488,-138.433,18.627,-14.870
6392,-0.3159,-0.6367,-0.7100,-0.671,0.122,-0.305,-138.439,18.616,-14.870
6402,-0.3164,-0.6323,-0.7109,-0.610,-0.061,-0.122,-138.439,18.616,-14.870
6412,-0.3169,-0.6304,-0.7090,-0.183,-0.244,0.122,-138.444,18.616,-14.870
6422,-0.3164,-0.6294,-0.7075,0.427,-0.305,0.183,-138.439,18.622,-14.870
6432,-0.3174,-0.6270,-0.7070,0.732,-0.244,0.183,-138.428,18.622,-14.870
6442,-0.3223,-0.6274,-0.7021,0.732,-0.183,0.122,-138.422,18.627,-14.870
6452,-0.3223,-0.6279,-0.7041,0.488,0.061,0.000,-138.411,18.627,-14.870
6462,-0.3213,-0.6265,-0.7051,0.061,0.305,-0.122,-138.411,18.627,-14.870
6472,-0.3218,-0.6265,-0.7046,-0.305,0.488,-0.183,-138.417,18.627,-14.870
6482,-0.3208,-0.6284,-0.7061,-0.488,0.549,-0.183,-138.422,18.622,-14.870
6492,-0.3218,-0.6313,-0.7061,-0.610,0.427,-0.244,-138.422,18.616,-14.870
6502,-0.3184,-0.6343,-0.7075,-0.488,0.183,-0.244,-138.428,18.616,-14.870
6512,-0.3154,-0.6323,-0.7061,-0.488,0.000,-0.122,-138.428,18.611,-14.870
6522,-0.3149,-0.6313,-0.7070,-0.427,0.000,0.061,-138.428,18.611,-14.870
6532,-0.3159,-0.6309,-0.7070,-0.427,0.183,0.244,-138.433,18.605,-14.870
6542,-0.3149,-0.6299,-0.7095,-0.366,0.427,0.366,-138.439,18.605,-14.870
6552,-0.3154,-0.6274,-0.7085,-0.061,0.671,0.366,-138.444,18.600,-14.870
6562,-0.3174,-0.6299,-0.7075,0.183,0.732,0.366,-138.444,18.594,-14.870
6572,-0.3179,-0.6299,-0.7114,0.244,0.488,0.305,-138.444,18.594,-14.870
6582,-0.3198,-0.6284,-0.7090,0.244,0.183,0.244,-138.439,18.594,-14.870
6592,-0.3174,-0.6299,-0.7090,0.305,-0.122,0.183,-138.439,18.594,-14.870
6602,-0.3179,-0.6289,-0.7095,0.183,-0.305,0.183,-138.433,18.600,-14.870
6612,-0.3193,-0.6279,-0.7090,0.061,-0.427,0.183,-138.433,18.605,-14.870
6622,-0.3203,-0.6260,-0.7070,0.061,-0.427,0.122,-138.433,18.611,-14.870
6632,-0.3213,-0.6255,-0.7095,0.122,-0.305,0.122,-138.433,18.611,-14.870
6642,-0.3218,-0.6240,-0.7026,0.305,-0.122,0.000,-138.428,18.616,-14.870
6652,-0.3208,-0.6260,-0.7041,0.366,0.061,-0.122,-138.428,18.616,-14.870
6663,-0.3203,-0.6274,-0.7026,0.244,0.183,-0.183,-138.422,18.616,-14.870
6672,-0.3203,-0.6294,-0.7041,0.061,0.061,-0.183,-138.417,18.616,-14.870
6682,-0.3159,-0.6289,-0.7046,-0.305,0.000,-0.183,-138.417,18.616,-14.870
6692,-0.3154,-0.6299,-0.7056,-0.610,-0.061,-0.183,-138.422,18.611,-14.870
6702,-0.3145,-0.6299,-0.7061,-0.610,-0.244,-0.122,-138.428,18.611,-14.870
6712,-0.3159,-0.6299,-0.7056,-0.305,-0.366,-0.061,-138.428,18.611,-14.870
6722,-0.3159,-0.6299,-0.7031,0.183,-0.183,0.000,-138.422,18.611,-14.870
6732,-0.3164,-0.6270,-0.7017,0.549,0.122,0.061,-138.411,18.611,-14.870
6742,-0.3188,-0.6279,-0.7017,0.732,0.427,0.122,-138.406,18.611,-14.870
6752,-0.3188,-0.6289,-0.7002,0.549,0.610,0.061,-138.400,18.605,-14.870
6762,-0.3208,-0.6260,-0.7021,0.122,0.610,0.061,-138.395,18.605,-14.870
6772,-0.3223,-0.6284,-0.7046,-0.244,0.610,0.061,-138.400,18.605,-14.870
6782,-0.3218,-0.6274,-0.7065,-0.549,0.732,-0.061,-138.406,18.600,-14.870
6792,-0.3203,-0.6279,-0.7119,-0.732,0.793,-0.122,-138.417,18.594,-14.870
6802,-0.3188,-0.6294,-0.7144,-0.671,0.793,-0.183,-138.428,18.583,-14.870
6812,-0.3174,-0.6294,-0.7139,-0.488,0.671,-0.244,-138.433,18.578,-14.870
6822,-0.3169,-0.6299,-0.7148,-0.244,0.305,-0.183,-138.439,18.572,-14.870
6832,-0.3179,-0.6299,-0.7114,-0.061,0.061,-0.061,-138.439,18.572,-14.870
6842,-0.3208,-0.6279,-0.7129,0.061,-0.122,0.000,-138.439,18.572,-14.870
6852,-0.3213,-0.6274,-0.7109,0.183,-0.122,0.000,-138.439,18.572,-14.870
6862,-0.3179,-0.6294,-0.7109,0.305,-0.061,-0.122,-138.439,18.572,-14.870
6872,-0.3198,-0.6304,-0.7114,0.305,-0.122,-0.122,-138.433,18.572,-14.870
6882,-0.3169,-0.6299,-0.7114,0.183,-0.244,-0.183,-138.433,18.572,-14.870
6892,-0.3164,-0.6313,-0.7109,0.122,-0.610,-0.122,-138.428,18.578,-14.870
6902,-0.3188,-0.6313,-0.7109,0.061,-0.671,-0.183,-138.422,18.578,-14.870
6912,-0.3164,-0.6313,-0.7070,0.061,-0.732,-0.122,-138.422,18.583,-14.870
6922,-0.3174,-0.6318,-0.7056,0.000,-0.732,-0.061,-138.417,18.589,-14.870
6932,-0.3179,-0.6318,-0.7051,0.000,-0.610,0.061,-138.411,18.589,-14.870
6942,-0.3198,-0.6328,-0.7046,-0.122,-0.366,0.122,-138.411,18.594,-14.870
6952,-0.3184,-0.6323,-0.7070,-0.183,-0.061,0.183,-138.411,18.594,-14.870
6962,-0.3174,-0.6323,-0.7085,-0.183,-0.061,0.366,-138.411,18.600,-14.870
6972,-0.3188,-0.6304,-0.7095,-0.061,0.000,0.488,-138.411,18.600,-14.870
6982,-0.3174,-0.6309,-0.7065,0.000,-0.183,0.549,-138.411,18.605,-14.870
6992,-0.3169,-0.6294,-0.7046,0.122,-0.244,0.488,-138.406,18.611,-14.870
7002,-0.3179,-0.6274,-0.7041,0.183,-0.305,0.488,-138.406,18.616,-14.870
7012,-0.3164,-0.6274,-0.7041,0.244,-0.244,0.427,-138.400,18.622,-14.870
7022,-0.3184,-0.6245,-0.7026,0.183,-0.183,0.305,-138.400,18.622,-14.870
7032,-0.3184,-0.6240,-0.7026,0.183,0.000,0.244,-138.400,18.627,-14.870
7042,-0.3188,-0.6250,-0.7021,0.122,0.122,0.122,-138.400,18.627,-14.870
7052,-0.3208,-0.6265,-0.6992,0.000,0.122,0.000,-138.395,18.627,-14.870
7062,-0.3213,-0.6260,-0.7007,-0.183,0.183,-0.061,-138.395,18.627,-14.870
7072,-0.3193,-0.6274,-0.7036,-0.366,0.305,-0.061,-138.400,18.627,-14.870
7082,-0.3184,-0.6284,-0.7026,-0.488,0.305,0.000,-138.400,18.627,-14.870
7092,-0.3188,-0.6284,-0.7085,-0.488,0.305,0.061,-138.411,18.622,-14.870
7102,-0.3184,-0.6270,-0.7080,-0.427,0.244,0.122,-138.417,18.622,-14.870
7112,-0.3193,-0.6270,-0.7095,-0.244,0.305,0.061,-138.417,18.622,-14.870
7122,-0.3223,-0.6255,-0.7090,-0.061,0.305,-0.061,-138.422,18.622,-14.870
7132,-0.3203,-0.6279,-0.7085,0.061,0.427,-0.122,-138.422,18.616,-14.870
7142,-0.3184,-0.6299,-0.7114,0.061,0.366,-0.183,-138.422,18.611,-14.870
7152,-0.3184,-0.6304,-0.7090,0.000,0.122,-0.183,-138.422,18.611,-14.870
7163,-0.3203,-0.6309,-0.7100,0.061,-0.122,-0.061,-138.422,18.611,-14.870
7172,-0.3198,-0.6299,-0.7095,0.183,-0.305,0.000,-138.417,18.611,-14.870
7182,-0.3198,-0.6270,-0.7119,0.305,-0.366,0.000,-138.417,18.616,-14.870
7192,-0.3208,-0.6284,-0.7080,0.549,-0.244,-0.061,-138.411,18.616,-14.870
7202,-0.3203,-0.6318,-0.7085,0.610,-0.244,-0.122,-138.400,18.622,-14.870
7212,-0.3198,-0.6309,-0.7080,0.305,-0.183,-0.122,-138.395,18.622,-14.870
7222,-0.3188,-0.6294,-0.7080,-0.122,-0.122,-0.061,-138.395,18.622,-14.870
7232,-0.3169,-0.6299,-0.7100,-0.488,-0.061,0.122,-138.400,18.622,-14.870
7242,-0.3149,-0.6284,-0.7104,-0.427,0.000,0.183,-138.406,18.622,-14.870
7252,-0.3169,-0.6270,-0.7104,-0.183,-0.122,0.183,-138.411,18.622,-14.870
7262,-0.3154,-0.6274,-0.7090,0.244,-0.305,0.061,-138.411,18.622,-14.870
7272,-0.3188,-0.6255,-0.7070,0.488,-0.488,0.000,-138.406,18.627,-14.870
7282,-0.3213,-0.6230,-0.7065,0.488,-0.427,-0.122,-138.400,18.627,-14.870
7292,-0.3193,-0.6255,-0.7051,0.244,-0.183,-0.244,-138.395,18.627,-14.870
7302,-0.3179,-0.6255,-0.7031,-0.183,0.000,-0.366,-138.395,18.627,-14.870
7312,-0.3174,-0.6284,-0.7051,-0.732,0.122,-0.427,-138.400,18.622,-14.870
7322,-0.3174,-0.6245,-0.7095,-0.977,0.122,-0.366,-138.411,18.622,-14.870
7332,-0.3198,-0.6270,-0.7109,-0.793,0.122,-0.366,-138.422,18.616,-14.870
7342,-0.3213,-0.6270,-0.7090,-0.366,0.000,-0.488,-138.428,18.616,-14.870
7352,-0.3213,-0.6294,-0.7095,0.061,-0.183,-0.549,-138.422,18.616,-14.870
7362,-0.3218,-0.6313,-0.7080,0.366,-0.305,-0.549,-138.417,18.616,-14.870
7372,-0.3188,-0.6328,-0.7085,0.488,-0.366,-0.549,-138.406,18.611,-14.870
7382,-0.3193,-0.6338,-0.7046,0.366,-0.488,-0.610,-138.395,18.611,-14.870
7392,-0.3184,-0.6338,-0.7051,0.061,-0.610,-0.488,-138.389,18.611,-14.870
7402,-0.3184,-0.6357,-0.7012,0.000,-0.671,-0.366,-138.384,18.616,-14.870
7412,-0.3213,-0.6343,-0.7012,0.244,-0.549,-0.244,-138.373,18.616,-14.870
7422,-0.3198,-0.6333,-0.6997,0.610,-0.244,-0.061,-138.362,18.622,-14.870
7432,-0.3198,-0.6343,-0.6968,0.977,0.061,0.061,-138.345,18.622,-14.870
7442,-0.3193,-0.6348,-0.6963,1.038,0.366,0.244,-138.329,18.622,-14.870
7452,-0.3203,-0.6323,-0.6997,0.732,0.610,0.366,-138.318,18.622,-14.870
7462,-0.3208,-0.6309,-0.6997,0.183,0.916,0.488,-138.318,18.622,-14.870
7472,-0.3228,-0.6289,-0.7041,-0.366,1.160,0.427,-138.323,18.616,-14.870
7482,-0.3203,-0.6279,-0.7080,-0.732,1.221,0.366,-138.334,18.611,-14.870
7492,-0.3169,-0.6274,-0.7109,-0.793,1.099,0.366,-138.351,18.605,-14.870
7502,-0.3188,-0.6265,-0.7124,-0.671,0.854,0.305,-138.362,18.600,-14.870
7512,-0.3188,-0.6279,-0.7139,-0.244,0.488,0.244,-138.367,18.594,-14.870
7522,-0.3184,-0.6279,-0.7109,0.183,0.366,0.061,-138.367,18.594,-14.870
7532,-0.3198,-0.6294,-0.7124,0.549,0.244,0.061,-138.367,18.594,-14.870
7542,-0.3203,-0.6279,-0.7090,0.610,0.305,0.061,-138.362,18.594,-14.870
7552,-0.3184,-0.6309,-0.7114,0.305,0.305,0.122,-138.362,18.589,-14.870
7562,-0.3188,-0.6313,-0.7124,0.061,0.183,0.244,-138.362,18.589,-14.870
7572,-0.3198,-0.6299,-0.7100,-0.122,0.061,0.305,-138.367,18.589,-14.870
7582,-0.3193,-0.6289,-0.7109,-0.122,-0.122,0.305,-138.367,18.594,-14.870
7592,-0.3198,-0.6279,-0.7056,0.061,-0.183,0.244,-138.367,18.600,-14.870
7602,-0.3193,-0.6299,-0.7095,0.244,-0.244,0.183,-138.367,18.600,-14.870
7612,-0.3184,-0.6318,-0.7070,0.183,-0.122,0.183,-138.362,18.605,-14.870
7622,-0.3174,-0.6299,-0.7070,-0.122,0.183,0.244,-138.362,18.600,-14.870
7632,-0.3169,-0.6294,-0.7070,-0.366,0.488,0.366,-138.367,18.600,-14.870
7642,-0.3184,-0.6294,-0.7104,-0.488,0.549,0.427,-138.378,18.600,-14.870
7652,-0.3184,-0.6270,-0.7090,-0.366,0.488,0.488,-138.384,18.600,-14.870
7663,-0.3198,-0.6260,-0.7095,-0.061,0.244,0.366,-138.389,18.600,-14.870
7672,-0.3218,-0.6250,-0.7095,0.183,0.000,0.305,-138.389,18.605,-14.870
7682,-0.3228,-0.6294,-0.7080,0.305,-0.183,0.244,-138.384,18.611,-14.870
7692,-0.3208,-0.6279,-0.7075,0.305,-0.244,0.122,-138.384,18.611,-14.870
7702,-0.3184,-0.6299,-0.7046,0.000,-0.244,0.061,-138.378,18.616,-14.870
7712,-0.3198,-0.6294,-0.7036,-0.305,-0.183,0.061,-138.384,18.616,-14.870
7722,-0.3203,-0.6255,-0.7036,-0.305,-0.061,0.122,-138.384,18.622,-14.870
7732,-0.3198,-0.6279,-0.7026,-0.183,0.061,0.061,-138.384,18.622,-14.870
7742,-0.3203,-0.6309,-0.7031,0.000,0.061,0.000,-138.384,18.622,-14.870
7752,-0.3193,-0.6338,-0.7026,0.061,0.061,0.122,-138.378,18.622,-14.870
7762,-0.3179,-0.6333,-0.7036,-0.122,0.122,0.244,-138.378,18.622,-14.870
7772,-0.3174,-0.6323,-0.7026,-0.305,0.244,0.366,-138.378,18.622,-14.870
7782,-0.3184,-0.6284,-0.7036,-0.305,0.427,0.488,-138.378,18.622,-14.870
7792,-0.3198,-0.6240,-0.7056,-0.061,0.610,0.549,-138.384,18.622,-14.870
7802,-0.3193,-0.6255,-0.7036,0.305,0.732,0.366,-138.384,18.622,-14.870
7812,-0.3188,-0.6265,-0.7007,0.366,0.671,0.183,-138.378,18.622,-14.870
7822,-0.3179,-0.6274,-0.7017,0.183,0.549,0.122,-138.378,18.616,-14.870
7832,-0.3179,-0.6299,-0.7046,-0.305,0.549,0.000,-138.384,18.611,-14.870
7842,-0.3188,-0.6299,-0.7075,-0.854,0.732,-0.061,-138.389,18.605,-14.870
7852,-0.3188,-0.6294,-0.7100,-1.038,0.977,0.000,-138.406,18.600,-14.870
7862,-0.3184,-0.6304,-0.7114,-0.732,1.099,0.061,-138.411,18.589,-14.870
7872,-0.3179,-0.6304,-0.7109,-0.366,1.160,0.183,-138.422,18.583,-14.870
7882,-0.3203,-0.6284,-0.7124,0.000,1.099,0.305,-138.428,18.578,-14.870
7892,-0.3193,-0.6270,-0.7114,0.244,0.977,0.366,-138.428,18.572,-14.870
7902,-0.3174,-0.6255,-0.7104,0.366,0.793,0.366,-138.428,18.567,-14.870
7912,-0.3179,-0.6250,-0.7100,0.488,0.610,0.244,-138.428,18.567,-14.870
7922,-0.3198,-0.6255,-0.7080,0.366,0.366,0.183,-138.428,18.567,-14.870
7932,-0.3174,-0.6270,-0.7104,0.061,0.183,0.183,-138.428,18.567,-14.870
7942,-0.3179,-0.6274,-0.7104,-0.366,0.061,0.122,-138.433,18.567,-14.870
7952,-0.3169,-0.6284,-0.7100,-0.793,0.122,-0.061,-138.444,18.561,-14.870
7962,-0.3174,-0.6294,-0.7119,-0.977,0.183,-0.122,-138.455,18.561,-14.870
7972,-0.3145,-0.6279,-0.7119,-0.671,0.305,-0.061,-138.461,18.556,-14.870
7982,-0.3164,-0.6289,-0.7144,-0.244,0.427,0.061,-138.466,18.550,-14.870
7992,-0.3193,-0.6304,-0.7124,0.244,0.427,0.122,-138.466,18.550,-14.870
8002,-0.3193,-0.6299,-0.7119,0.549,0.366,0.122,-138.461,18.545,-14.870
8012,-0.3198,-0.6284,-0.7090,0.427,0.366,0.122,-138.461,18.545,-14.870
8022,-0.3208,-0.6289,-0.7085,0.000,0.305,0.244,-138.461,18.545,-14.870
8032,-0.3242,-0.6270,-0.7109,-0.488,0.244,0.244,-138.466,18.550,-14.870
8042,-0.3213,-0.6250,-0.7109,-0.793,0.122,0.122,-138.477,18.550,-14.870
8052,-0.3228,-0.6274,-0.7119,-0.732,0.061,0.000,-138.488,18.556,-14.870
8062,-0.3198,-0.6279,-0.7134,-0.427,-0.061,0.000,-138.494,18.556,-14.870
8072,-0.3159,-0.6309,-0.7104,0.000,-0.244,-0.061,-138.488,18.556,-14.870
8082,-0.3159,-0.6309,-0.7070,0.244,-0.488,0.000,-138.483,18.556,-14.870
8092,-0.3179,-0.6294,-0.7041,0.366,-0.488,0.061,-138.477,18.561,-14.870
8102,-0.3193,-0.6289,-0.7012,0.427,-0.427,0.244,-138.466,18.567,-14.870
8112,-0.3184,-0.6284,-0.6982,0.427,-0.244,0.427,-138.461,18.572,-14.870
8122,-0.3198,-0.6260,-0.6997,0.244,-0.061,0.549,-138.455,18.578,-14.870
8132,-0.3184,-0.6265,-0.6973,0.000,0.183,0.427,-138.455,18.583,-14.870
8142,-0.3193,-0.6255,-0.6978,-0.244,0.549,0.366,-138.455,18.583,-14.870
8152,-0.3174,-0.6255,-0.6973,-0.488,0.916,0.244,-138.461,18.578,-14.870
8163,-0.3174,-0.6250,-0.7017,-0.732,1.343,0.183,-138.466,18.572,-14.870
8172,-0.3193,-0.6240,-0.7041,-0.854,1.709,0.122,-138.483,18.561,-14.870
8182,-0.3193,-0.6235,-0.7085,-0.916,2.014,0.061,-138.494,18.550,-14.870
8192,-0.3184,-0.6255,-0.7085,-0.916,2.136,0.061,-138.510,18.534,-14.870
8202,-0.3184,-0.6260,-0.7095,-0.854,2.136,0.061,-138.527,18.517,-14.870
8212,-0.3184,-0.6265,-0.7139,-0.854,2.014,0.122,-138.538,18.506,-14.870
8222,-0.3193,-0.6284,-0.7168,-0.793,1.831,0.122,-138.554,18.495,-14.870
8232,-0.3179,-0.6270,-0.7183,-0.793,1.526,0.122,-138.571,18.484,-14.870
8242,-0.3184,-0.6260,-0.7192,-0.732,1.221,0.122,-138.582,18.474,-14.870
8252,-0.3169,-0.6260,-0.7173,-0.610,0.916,0.061,-138.593,18.468,-14.870
8262,-0.3169,-0.6265,-0.7187,-0.427,0.671,0.000,-138.604,18.463,-14.870
8272,-0.3154,-0.6265,-0.7197,-0.183,0.488,0.000,-138.609,18.457,-14.870
8282,-0.3159,-0.6279,-0.7217,-0.061,0.305,0.000,-138.615,18.452,-14.870
8292,-0.3154,-0.6289,-0.7163,0.000,0.122,0.061,-138.615,18.452,-14.870
8302,-0.3135,-0.6260,-0.7163,0.122,0.000,0.183,-138.615,18.446,-14.870
8312,-0.3135,-0.6289,-0.7109,0.244,-0.122,0.244,-138.615,18.452,-14.870
8322,-0.3149,-0.6289,-0.7119,0.305,-0.244,0.183,-138.609,18.452,-14.870
8332,-0.3169,-0.6274,-0.7119,0.305,-0.183,0.305,-138.609,18.457,-14.870
8342,-0.3179,-0.6250,-0.7119,0.305,0.000,0.366,-138.604,18.457,-14.870
8352,-0.3169,-0.6255,-0.7124,0.244,0.061,0.366,-138.604,18.463,-14.870
8362,-0.3145,-0.6260,-0.7124,0.061,0.000,0.305,-138.609,18.463,-14.870
8372,-0.3164,-0.6255,-0.7109,-0.122,-0.244,0.305,-138.609,18.468,-14.870
8382,-0.3179,-0.6260,-0.7109,-0.305,-0.427,0.244,-138.615,18.474,-14.870
8392,-0.3174,-0.6270,-0.7119,-0.244,-0.671,0.183,-138.615,18.479,-14.870
8402,-0.3169,-0.6270,-0.7124,-0.122,-0.793,0.000,-138.615,18.484,-14.870
8412,-0.3154,-0.6294,-0.7114,0.000,-0.793,0.000,-138.609,18.490,-14.870
8422,-0.3120,-0.6304,-0.7139,0.061,-0.793,0.061,-138.609,18.490,-14.870
8432,-0.3140,-0.6270,-0.7090,0.122,-0.854,0.244,-138.604,18.495,-14.870
8442,-0.3159,-0.6245,-0.7100,0.305,-0.854,0.366,-138.598,18.506,-14.870
8452,-0.3169,-0.6235,-0.7061,0.671,-0.793,0.305,-138.593,18.512,-14.870
8462,-0.3203,-0.6245,-0.7031,1.038,-0.671,0.183,-138.582,18.523,-14.870
8472,-0.3193,-0.6284,-0.7007,0.977,-0.549,0.061,-138.565,18.528,-14.870
8482,-0.3184,-0.6289,-0.6978,0.549,-0.366,0.061,-138.554,18.534,-14.870
8492,-0.3193,-0.6294,-0.6992,-0.305,0.000,0.122,-138.549,18.539,-14.870
8502,-0.3208,-0.6284,-0.7041,-0.916,0.366,0.244,-138.560,18.539,-14.870
8512,-0.3203,-0.6260,-0.7100,-1.038,0.793,0.244,-138.571,18.539,-14.870
8522,-0.3174,-0.6255,-0.7109,-0.854,0.977,0.244,-138.582,18.534,-14.870
8532,-0.3164,-0.6245,-0.7144,-0.366,0.793,0.244,-138.593,18.528,-14.870
8542,-0.3164,-0.6250,-0.7129,0.061,0.366,0.183,-138.593,18.523,-14.870
8552,-0.3154,-0.6270,-0.7114,0.183,-0.061,0.183,-138.593,18.523,-14.870
8562,-0.3159,-0.6240,-0.7124,0.183,-0.427,0.183,-138.593,18.528,-14.870
8572,-0.3145,-0.6221,-0.7114,0.244,-0.488,0.244,-138.593,18.534,-14.870
8582,-0.3164,-0.6240,-0.7095,0.183,-0.427,0.244,-138.587,18.539,-14.870
8592,-0.3193,-0.6235,-0.7100,0.122,-0.183,0.122,-138.587,18.539,-14.870
8602,-0.3184,-0.6255,-0.7109,0.122,0.122,-0.061,-138.587,18.539,-14.870
8612,-0.3208,-0.6240,-0.7100,0.122,0.305,-0.122,-138.587,18.539,-14.870
8622,-0.3188,-0.6250,-0.7109,-0.122,0.366,-0.183,-138.593,18.534,-14.870
8632,-0.3193,-0.6265,-0.7104,-0.488,0.244,-0.244,-138.598,18.534,-14.870
8642,-0.3203,-0.6250,-0.7134,-0.732,0.183,-0.183,-138.604,18.534,-14.870
8652,-0.3213,-0.6226,-0.7139,-0.793,0.122,-0.122,-138.615,18.534,-14.870
8663,-0.3198,-0.6230,-0.7139,-0.732,0.183,-0.183,-138.625,18.528,-14.870
8672,-0.3188,-0.6240,-0.7158,-0.610,0.183,-0.244,-138.636,18.528,-14.870
8682,-0.3193,-0.6230,-0.7134,-0.549,0.183,-0.366,-138.642,18.523,-14.870
8692,-0.3179,-0.6260,-0.7134,-0.671,0.061,-0.488,-138.647,18.523,-14.870
8702,-0.3154,-0.6284,-0.7158,-0.977,-0.122,-0.549,-138.658,18.517,-14.870
8712,-0.3135,-0.6299,-0.7144,-1.160,-0.366,-0.488,-138.664,18.512,-14.870
8722,-0.3120,-0.6313,-0.7144,-0.916,-0.732,-0.366,-138.669,18.512,-14.870
8732,-0.3120,-0.6313,-0.7080,-0.366,-1.099,-0.244,-138.669,18.517,-14.870
8742,-0.3140,-0.6328,-0.7056,0.305,-1.160,-0.061,-138.658,18.523,-14.870
8752,-0.3145,-0.6333,-0.7036,0.793,-0.854,0.183,-138.642,18.528,-14.870
8762,-0.3140,-0.6299,-0.6992,0.793,-0.549,0.366,-138.625,18.534,-14.870
8772,-0.3174,-0.6265,-0.6982,0.610,-0.183,0.610,-138.615,18.539,-14.870
8782,-0.3193,-0.6221,-0.6992,0.366,0.122,0.610,-138.609,18.545,-14.870
8792,-0.3208,-0.6191,-0.7021,0.000,0.427,0.366,-138.615,18.550,-14.870
8802,-0.3208,-0.6211,-0.7017,-0.305,0.732,0.122,-138.615,18.550,-14.870
8812,-0.3208,-0.6216,-0.7026,-0.610,0.916,-0.061,-138.625,18.545,-14.870
8822,-0.3188,-0.6240,-0.7051,-0.793,0.854,-0.122,-138.631,18.539,-14.870
8832,-0.3164,-0.6240,-0.7085,-0.732,0.793,-0.183,-138.642,18.534,-14.870
8842,-0.3174,-0.6260,-0.7119,-0.732,0.671,-0.244,-138.647,18.528,-14.870
8852,-0.3174,-0.6260,-0.7144,-0.610,0.610,-0.122,-138.658,18.517,-14.870
8862,-0.3169,-0.6284,-0.7139,-0.305,0.549,0.061,-138.658,18.517,-14.870
8872,-0.3198,-0.6265,-0.7129,0.061,0.366,0.122,-138.664,18.512,-14.870
8882,-0.3174,-0.6279,-0.7144,0.366,0.244,0.122,-138.658,18.512,-14.870
8892,-0.3184,-0.6274,-0.7134,0.610,0.061,0.122,-138.653,18.512,-14.870
8902,-0.3184,-0.6299,-0.7119,0.549,0.000,0.244,-138.647,18.517,-14.870
8912,-0.3184,-0.6304,-0.7104,0.427,-0.061,0.305,-138.642,18.517,-14.870
8922,-0.3149,-0.6284,-0.7090,0.183,0.000,0.305,-138.636,18.517,-14.870
8932,-0.3179,-0.6265,-0.7114,0.061,0.122,0.305,-138.636,18.517,-14.870
8942,-0.3169,-0.6255,-0.7100,-0.061,0.244,0.305,-138.642,18.517,-14.870
8952,-0.3174,-0.6255,-0.7124,-0.061,0.305,0.305,-138.642,18.517,-14.870
8962,-0.3169,-0.6250,-0.7144,-0.061,0.244,0.244,-138.647,18.517,-14.870
8972,-0.3159,-0.6230,-0.7139,0.000,0.122,0.305,-138.647,18.517,-14.870
8982,-0.3193,-0.6230,-0.7168,-0.061,0.061,0.305,-138.653,18.523,-14.870
8992,-0.3188,-0.6235,-0.7158,-0.183,0.061,0.244,-138.658,18.523,-14.870
9002,-0.3184,-0.6230,-0.7144,-0.244,-0.061,0.183,-138.664,18.523,-14.870
9012,-0.3179,-0.6235,-0.7144,-0.122,-0.244,0.122,-138.669,18.528,-14.870
9022,-0.3179,-0.6216,-0.7124,0.000,-0.366,0.000,-138.669,18.528,-14.870
9032,-0.3164,-0.6226,-0.7109,0.183,-0.366,0.000,-138.669,18.534,-14.870
9042,-0.3179,-0.6235,-0.7090,0.305,-0.427,-0.061,-138.664,18.539,-14.870
9052,-0.3164,-0.6240,-0.7085,0.305,-0.427,-0.122,-138.658,18.539,-14.870
9062,-0.3159,-0.6230,-0.7070,0.183,-0.366,-0.122,-138.658,18.539,-14.870
9072,-0.3149,-0.6206,-0.7085,0.061,-0.244,-0.122,-138.658,18.539,-14.870
9082,-0.3174,-0.6201,-0.7109,0.061,-0.305,-0.061,-138.658,18.545,-14.870
9092,-0.3193,-0.6206,-0.7080,0.305,-0.427,-0.183,-138.653,18.550,-14.870
9102,-0.3188,-0.6216,-0.7075,0.549,-0.488,-0.366,-138.647,18.550,-14.870
9112,-0.3184,-0.6255,-0.7021,0.549,-0.366,-0.488,-138.636,18.550,-14.870
9122,-0.3203,-0.6274,-0.7002,0.305,-0.122,-0.488,-138.625,18.550,-14.870
9132,-0.3184,-0.6294,-0.7017,-0.305,0.183,-0.488,-138.625,18.550,-14.870
9142,-0.3154,-0.6289,-0.7041,-0.854,0.427,-0.488,-138.625,18.539,-14.870
9152,-0.3149,-0.6284,-0.7100,-1.160,0.610,-0.427,-138.636,18.534,-14.870
9163,-0.3164,-0.6289,-0.7124,-1.038,0.793,-0.305,-138.647,18.523,-14.870
9172,-0.3164,-0.6289,-0.7148,-0.732,0.793,-0.122,-138.658,18.517,-14.870
9182,-0.3179,-0.6279,-0.7144,-0.244,0.610,-0.061,-138.658,18.512,-14.870
9192,-0.3184,-0.6260,-0.7173,0.183,0.305,-0.061,-138.664,18.506,-14.870
9202,-0.3193,-0.6245,-0.7173,0.305,0.000,-0.061,-138.664,18.506,-14.870
9212,-0.3174,-0.6240,-0.7158,0.244,-0.244,-0.061,-138.658,18.506,-14.870
9222,-0.3184,-0.6230,-0.7144,0.122,-0.366,-0.061,-138.658,18.512,-14.870
9232,-0.3193,-0.6230,-0.7134,0.122,-0.549,-0.061,-138.658,18.517,-14.870
9242,-0.3169,-0.6250,-0.7148,0.183,-0.671,-0.183,-138.658,18.517,-14.870
9252,-0.3164,-0.6284,-0.7129,0.122,-0.793,-0.244,-138.653,18.523,-14.870
9262,-0.3169,-0.6289,-0.7114,0.000,-0.793,-0.183,-138.653,18.528,-14.870
9272,-0.3164,-0.6294,-0.7100,-0.122,-0.732,-0.122,-138.647,18.528,-14.870
9282,-0.3184,-0.6284,-0.7129,-0.183,-0.610,-0.122,-138.647,18.534,-14.870
9292,-0.3184,-0.6279,-0.7090,-0.183,-0.427,-0.183,-138.647,18.539,-14.870
9302,-0.3179,-0.6279,-0.7095,-0.183,-0.305,-0.061,-138.647,18.539,-14.870
9312,-0.3164,-0.6260,-0.7070,-0.183,-0.244,0.000,-138.647,18.539,-14.870
9322,-0.3184,-0.6250,-0.7075,-0.183,-0.183,0.061,-138.647,18.545,-14.870
9332,-0.3193,-0.6265,-0.7056,-0.305,-0.061,0.000,-138.647,18.545,-14.870
9342,-0.3188,-0.6230,-0.7070,-0.427,0.061,-0.061,-138.647,18.545,-14.870
9352,-0.3188,-0.6260,-0.7065,-0.427,0.122,-0.183,-138.653,18.545,-14.870
9362,-0.3184,-0.6274,-0.7070,-0.427,0.000,-0.183,-138.653,18.545,-14.870
9372,-0.3179,-0.6318,-0.7026,-0.305,-0.366,-0.183,-138.647,18.545,-14.870
9382,-0.3174,-0.6392,-0.6914,-0.488,-0.549,0.000,-138.636,18.550,-14.870
9392,-0.3174,-0.6416,-0.6890,-1.221,-0.305,0.549,-138.636,18.556,-14.870
9402,-0.3184,-0.6377,-0.6875,-2.563,0.854,1.465,-138.653,18.561,-14.892
9412,-0.3179,-0.6309,-0.6958,-3.906,2.747,2.319,-138.691,18.561,-14.930
9422,-0.3154,-0.6211,-0.7056,-4.822,4.761,2.686,-138.757,18.539,-14.980
9432,-0.3140,-0.6138,-0.7173,-4.944,5.981,2.563,-138.834,18.512,-15.046
9442,-0.3110,-0.6079,-0.7261,-4.456,5.981,2.136,-138.906,18.479,-15.101
9452,-0.3135,-0.6040,-0.7329,-3.601,5.005,1.526,-138.972,18.452,-15.150
9462,-0.3145,-0.6006,-0.7358,-2.747,3.235,0.916,-139.026,18.430,-15.178
9472,-0.3154,-0.6021,-0.7388,-1.953,1.404,0.000,-139.070,18.419,-15.189
9482,-0.3154,-0.6055,-0.7344,-1.160,-0.061,-0.916,-139.092,18.413,-15.183
9492,-0.3159,-0.6089,-0.7271,-0.427,-1.099,-1.526,-139.098,18.408,-15.161
9502,-0.3149,-0.6162,-0.7227,0.244,-1.526,-1.892,-139.092,18.408,-15.134
9512,-0.3149,-0.6221,-0.7183,0.671,-1.526,-1.953,-139.081,18.408,-15.112
9522,-0.3159,-0.6265,-0.7153,0.916,-1.160,-1.831,-139.059,18.402,-15.090
9532,-0.3179,-0.6294,-0.7144,0.793,-0.793,-1.465,-139.043,18.402,-15.068
9542,-0.3174,-0.6323,-0.7104,0.671,-0.427,-1.160,-139.026,18.397,-15.057
9552,-0.3179,-0.6304,-0.7114,0.305,-0.305,-0.916,-139.016,18.391,-15.046
9562,-0.3174,-0.6289,-0.7139,0.000,-0.366,-0.732,-139.005,18.391,-15.040
9572,-0.3184,-0.6294,-0.7129,-0.305,-0.427,-0.549,-139.005,18.391,-15.035
9582,-0.3184,-0.6279,-0.7148,-0.427,-0.305,-0.427,-139.005,18.391,-15.029
9592,-0.3164,-0.6274,-0.7139,-0.366,-0.183,-0.305,-138.999,18.391,-15.024
9602,-0.3169,-0.6260,-0.7178,-0.183,0.000,-0.244,-139.005,18.391,-15.024
9612,-0.3164,-0.6255,-0.7192,0.183,-0.061,-0.244,-138.999,18.391,-15.018
9622,-0.3179,-0.6255,-0.7222,0.610,-0.183,-0.244,-138.994,18.391,-15.018
9632,-0.3184,-0.6255,-0.7212,1.038,-0.671,-0.305,-138.983,18.397,-15.007
9642,-0.3184,-0.6250,-0.7183,1.221,-1.160,-0.305,-138.966,18.402,-14.996
9652,-0.3169,-0.6260,-0.7109,1.343,-1.526,-0.305,-138.944,18.413,-14.985
9663,-0.3188,-0.6255,-0.7080,1.343,-1.831,-0.244,-138.922,18.424,-14.969
9672,-0.3193,-0.6260,-0.7085,1.221,-1.831,-0.305,-138.900,18.441,-14.958
9682,-0.3174,-0.6289,-0.7061,1.038,-1.526,-0.244,-138.884,18.452,-14.941
9692,-0.3164,-0.6274,-0.7065,0.732,-1.038,-0.122,-138.867,18.457,-14.936
9702,-0.3130,-0.6270,-0.7051,0.366,-0.488,0.061,-138.856,18.463,-14.930
9712,-0.3140,-0.6240,-0.7100,0.122,0.000,0.183,-138.856,18.463,-14.936
9722,-0.3149,-0.6206,-0.7095,0.000,0.183,0.366,-138.856,18.463,-14.936
9732,-0.3169,-0.6182,-0.7139,0.305,0.244,0.488,-138.856,18.468,-14.941
9742,-0.3169,-0.6167,-0.7144,0.793,0.122,0.305,-138.856,18.468,-14.947
9752,-0.3188,-0.6167,-0.7119,0.977,-0.122,0.000,-138.845,18.474,-14.947
9762,-0.3169,-0.6177,-0.7095,0.916,-0.305,-0.244,-138.840,18.474,-14.941
9773,-0.3169,-0.6201,-0.7129,0.549,-0.244,-0.488,-138.834,18.474,-14.936
9782,-0.3145,-0.6216,-0.7119,0.000,-0.122,-0.671,-138.829,18.468,-14.930
9793,-0.3130,-0.6226,-0.7134,-0.305,0.061,-0.854,-138.834,18.463,-14.925
9802,-0.3140,-0.6221,-0.7158,-0.366,0.183,-0.793,-138.834,18.452,-14.919
9813,-0.3149,-0.6255,-0.7144,-0.183,0.183,-0.671,-138.834,18.446,-14.914
9823,-0.3149,-0.6250,-0.7144,0.122,0.061,-0.427,-138.834,18.441,-14.914
9833,-0.3154,-0.6270,-0.7173,0.305,0.061,-0.183,-138.829,18.441,-14.908
9843,-0.3145,-0.6270,-0.7163,0.427,0.122,-0.122,-138.823,18.435,-14.908
9853,-0.3135,-0.6245,-0.7158,0.427,0.061,0.061,-138.823,18.435,-14.914
9863,-0.3159,-0.6235,-0.7158,0.244,0.000,0.122,-138.823,18.435,-14.914
9873,-0.3184,-0.6221,-0.7163,0.000,-0.122,0.061,-138.823,18.435,-14.914
9883,-0.3179,-0.6226,-0.7178,-0.183,-0.244,-0.061,-138.829,18.441,-14.908
9893,-0.3159,-0.6226,-0.7202,-0.305,-0.366,-0.183,-138.834,18.441,-14.903
9903,-0.3154,-0.6226,-0.7197,-0.244,-0.549,-0.244,-138.834,18.441,-14.897
9913,-0.3169,-0.6240,-0.7187,0.000,-0.732,-0.488,-138.834,18.446,-14.892
9923,-0.3154,-0.6235,-0.7144,0.244,-0.854,-0.549,-138.829,18.446,-14.881
9933,-0.3145,-0.6255,-0.7119,0.427,-0.916,-0.488,-138.823,18.446,-14.870
9943,-0.3154,-0.6255,-0.7090,0.549,-0.854,-0.427,-138.812,18.452,-14.859
9953,-0.3188,-0.6245,-0.7075,0.488,-0.732,-0.366,-138.801,18.457,-14.854
9963,-0.3184,-0.6245,-0.7065,0.305,-0.488,-0.427,-138.790,18.463,-14.848
9973,-0.3203,-0.6245,-0.7065,0.061,-0.183,-0.427,-138.785,18.463,-14.843
9983,-0.3169,-0.6245,-0.7065,-0.244,0.000,-0.305,-138.785,18.463,-14.837
9993,-0.3184,-0.6245,-0.7080,-0.488,0.122,-0.305,-138.790,18.463,-14.837
10003,-0.3174,-0.6240,-0.7119,-0.671,0.122,-0.305,-138.796,18.457,-14.837
10013,-0.3164,-0.6245,-0.7129,-0.671,0.061,-0.305,-138.801,18.457,-14.832
10023,-0.3154,-0.6265,-0.7139,-0.488,0.000,-0.366,-138.801,18.452,-14.832
10033,-0.3145,-0.6265,-0.7104,-0.305,-0.122,-0.366,-138.801,18.452,-14.826
10043,-0.3149,-0.6274,-0.7114,0.000,-0.183,-0.305,-138.801,18.446,-14.826
10053,-0.3140,-0.6274,-0.7119,0.122,-0.183,-0.183,-138.796,18.446,-14.821
10063,-0.3140,-0.6270,-0.7104,0.244,-0.244,-0.061,-138.790,18.446,-14.821
10073,-0.3140,-0.6279,-0.7104,0.427,-0.305,0.000,-138.785,18.446,-14.815
10083,-0.3159,-0.6274,-0.7075,0.488,-0.305,0.061,-138.774,18.452,-14.815
10093,-0.3174,-0.6245,-0.7026,0.427,-0.061,0.122,-138.768,18.457,-14.815
10103,-0.3188,-0.6240,-0.7065,0.122,0.427,0.183,-138.763,18.457,-14.821
10113,-0.3174,-0.6235,-0.7085,-0.183,0.916,0.183,-138.768,18.452,-14.826
10123,-0.3169,-0.6230,-0.7124,-0.488,1.282,0.061,-138.774,18.441,-14.837
10133,-0.3149,-0.6216,-0.7173,-0.671,1.282,0.061,-138.790,18.430,-14.848
10143,-0.3135,-0.6191,-0.7212,-0.610,0.977,0.000,-138.801,18.424,-14.854
10153,-0.3135,-0.6206,-0.7202,-0.366,0.488,-0.061,-138.812,18.419,-14.859
10163,-0.3159,-0.6216,-0.7192,-0.061,0.061,-0.122,-138.818,18.419,-14.854
10173,-0.3154,-0.6235,-0.7192,0.122,-0.122,-0.183,-138.818,18.413,-14.854
10183,-0.3164,-0.6240,-0.7153,0.244,-0.183,-0.183,-138.812,18.413,-14.854
10193,-0.3145,-0.6235,-0.7153,0.305,-0.122,-0.183,-138.812,18.413,-14.848
10203,-0.3149,-0.6245,-0.7139,0.244,-0.122,-0.244,-138.807,18.413,-14.848
10213,-0.3154,-0.6250,-0.7134,0.183,-0.061,-0.305,-138.807,18.413,-14.843
10223,-0.3135,-0.6270,-0.7148,0.122,-0.122,-0.305,-138.801,18.408,-14.837
10233,-0.3135,-0.6274,-0.7144,0.122,-0.244,-0.244,-138.796,18.408,-14.837
10243,-0.3154,-0.6265,-0.7109,0.244,-0.427,-0.244,-138.790,18.408,-14.832
10253,-0.3154,-0.6270,-0.7104,0.305,-0.549,-0.183,-138.785,18.413,-14.826
10263,-0.3154,-0.6260,-0.7095,0.244,-0.488,0.000,-138.779,18.413,-14.821
10273,-0.3154,-0.6250,-0.7104,0.061,-0.183,0.122,-138.779,18.419,-14.821
10283,-0.3174,-0.6245,-0.7134,-0.061,0.183,0.183,-138.779,18.419,-14.826
10293,-0.3198,-0.6226,-0.7158,-0.061,0.427,0.122,-138.785,18.419,-14.826
10303,-0.3179,-0.6216,-0.7134,0.061,0.488,0.061,-138.785,18.419,-14.832
10313,-0.3188,-0.6206,-0.7148,0.122,0.305,0.061,-138.790,18.419,-14.837
10323,-0.3203,-0.6226,-0.7129,0.000,0.061,0.061,-138.790,18.419,-14.837
10333,-0.3169,-0.6201,-0.7114,-0.122,-0.183,0.000,-138.790,18.424,-14.837
10343,-0.3154,-0.6226,-0.7124,-0.305,-0.366,-0.122,-138.796,18.424,-14.832
10353,-0.3125,-0.6265,-0.7119,-0.427,-0.366,-0.244,-138.796,18.424,-14.826
10363,-0.3149,-0.6250,-0.7158,-0.427,-0.122,-0.244,-138.801,18.424,-14.826
10373,-0.3149,-0.6240,-0.7158,-0.183,-0.122,-0.244,-138.801,18.419,-14.821
10383,-0.3145,-0.6240,-0.7119,0.305,-0.244,-0.183,-138.796,18.419,-14.821
10393,-0.3164,-0.6250,-0.7100,0.732,-0.488,-0.244,-138.785,18.424,-14.815
10403,-0.3154,-0.6265,-0.7070,0.916,-0.732,-0.305,-138.774,18.430,-14.804
10413,-0.3145,-0.6270,-0.7031,0.610,-0.610,-0.305,-138.757,18.430,-14.799
10423,-0.3159,-0.6260,-0.7041,0.000,-0.244,-0.122,-138.752,18.435,-14.799
10433,-0.3149,-0.6240,-0.7070,-0.549,0.122,-0.061,-138.757,18.430,-14.799
10443,-0.3154,-0.6235,-0.7095,-0.671,0.549,-0.061,-138.763,18.430,-14.799
10453,-0.3149,-0.6235,-0.7119,-0.488,0.793,-0.061,-138.768,18.419,-14.804
10463,-0.3154,-0.6235,-0.7148,-0.183,0.793,0.000,-138.774,18.413,-14.810
10473,-0.3174,-0.6235,-0.7134,0.061,0.671,0.122,-138.779,18.413,-14.815
10483,-0.3159,-0.6221,-0.7148,0.244,0.488,0.061,-138.779,18.408,-14.821
10493,-0.3140,-0.6230,-0.7163,0.183,0.122,0.000,-138.779,18.408,-14.821
10503,-0.3135,-0.6235,-0.7183,0.000,-0.061,-0.061,-138.779,18.408,-14.821
10513,-0.3140,-0.6230,-0.7178,-0.183,-0.305,-0.122,-138.785,18.408,-14.815
10523,-0.3145,-0.6230,-0.7173,-0.183,-0.488,-0.183,-138.785,18.408,-14.810
10533,-0.3140,-0.6250,-0.7153,0.000,-0.549,-0.305,-138.785,18.408,-14.804
10543,-0.3135,-0.6279,-0.7134,0.183,-0.549,-0.366,-138.779,18.408,-14.804
10553,-0.3130,-0.6284,-0.7139,0.305,-0.427,-0.244,-138.774,18.408,-14.804
10563,-0.3154,-0.6260,-0.7109,0.305,-0.244,-0.122,-138.768,18.408,-14.804
10573,-0.3159,-0.6260,-0.7124,0.244,-0.061,-0.061,-138.768,18.408,-14.804
10583,-0.3140,-0.6250,-0.7139,0.061,0.000,0.061,-138.763,18.408,-14.804
10593,-0.3164,-0.6240,-0.7148,-0.061,-0.061,0.122,-138.768,18.413,-14.804
10603,-0.3169,-0.6226,-0.7163,-0.061,-0.122,0.122,-138.768,18.413,-14.804
10613,-0.3184,-0.6201,-0.7163,0.000,-0.244,0.061,-138.774,18.419,-14.804
10623,-0.3188,-0.6216,-0.7134,0.183,-0.366,-0.061,-138.774,18.419,-14.804
10633,-0.3169,-0.6245,-0.7129,0.244,-0.366,-0.183,-138.768,18.424,-14.804
10643,-0.3179,-0.6255,-0.7124,0.122,-0.488,-0.183,-138.763,18.430,-14.804
10653,-0.3164,-0.6274,-0.7114,0.000,-0.671,-0.122,-138.763,18.430,-14.804
10664,-0.3159,-0.6270,-0.7114,-0.183,-0.854,-0.183,-138.757,18.435,-14.804
10673,-0.3154,-0.6279,-0.7104,-0.122,-0.854,0.000,-138.757,18.441,-14.804
10683,-0.3145,-0.6270,-0.7144,0.183,-0.793,0.122,-138.752,18.446,-14.804
10693,-0.3164,-0.6270,-0.7095,0.610,-0.671,0.183,-138.746,18.457,-14.804
10703,-0.3174,-0.6279,-0.7041,0.977,-0.610,0.305,-138.730,18.463,-14.804
10713,-0.3159,-0.6289,-0.7046,0.977,-0.427,0.366,-138.713,18.468,-14.804
10723,-0.3164,-0.6265,-0.7061,0.732,-0.244,0.366,-138.702,18.474,-14.804
10733,-0.3159,-0.6260,-0.7051,0.366,-0.122,0.427,-138.697,18.479,-14.804
10743,-0.3174,-0.6240,-0.7065,0.000,0.061,0.488,-138.697,18.479,-14.804
10753,-0.3184,-0.6221,-0.7080,-0.244,0.305,0.366,-138.702,18.484,-14.804
10763,-0.3164,-0.6226,-0.7109,-0.244,0.488,0.305,-138.708,18.484,-14.804
10773,-0.3169,-0.6245,-0.7119,-0.122,0.671,0.244,-138.713,18.479,-14.804
10783,-0.3149,-0.6245,-0.7119,-0.061,0.671,0.305,-138.713,18.474,-14.804
10793,-0.3159,-0.6250,-0.7139,-0.061,0.671,0.305,-138.719,18.474,-14.804
10803,-0.3154,-0.6226,-0.7153,0.000,0.488,0.244,-138.724,18.468,-14.804
10813,-0.3159,-0.6235,-0.7144,0.061,0.366,0.244,-138.724,18.468,-14.804
10823,-0.3154,-0.6230,-0.7139,0.183,0.122,0.183,-138.724,18.468,-14.804
10833,-0.3149,-0.6240,-0.7119,0.305,-0.061,0.122,-138.724,18.468,-14.804
10843,-0.3159,-0.6250,-0.7148,0.366,-0.244,0.000,-138.719,18.468,-14.804
10853,-0.3179,-0.6260,-0.7124,0.366,-0.305,0.000,-138.713,18.474,-14.804
10863,-0.3184,-0.6250,-0.7124,0.244,-0.305,-0.061,-138.713,18.474,-14.804
10873,-0.3159,-0.6260,-0.7109,0.183,-0.244,0.000,-138.708,18.474,-14.804
10883,-0.3135,-0.6260,-0.7100,0.061,-0.183,0.061,-138.708,18.474,-14.804
10893,-0.3149,-0.6270,-0.7119,0.061,-0.122,0.061,-138.708,18.479,-14.804
10903,-0.3154,-0.6260,-0.7119,0.122,0.000,0.183,-138.702,18.479,-14.804
10913,-0.3169,-0.6221,-0.7104,0.183,0.061,0.244,-138.702,18.479,-14.804
10923,-0.3169,-0.6240,-0.7104,0.122,0.244,0.183,-138.702,18.479,-14.804
10933,-0.3145,-0.6255,-0.7124,0.061,0.366,0.183,-138.702,18.474,-14.804
10943,-0.3169,-0.6250,-0.7144,-0.061,0.366,0.122,-138.708,18.474,-14.804
10953,-0.3193,-0.6245,-0.7139,-0.244,0.305,0.244,-138.713,18.474,-14.804
10963,-0.3193,-0.6235,-0.7119,-0.305,0.305,0.244,-138.719,18.474,-14.804
10973,-0.3188,-0.6226,-0.7104,-0.183,0.183,0.122,-138.719,18.479,-14.804
10983,-0.3164,-0.6240,-0.7070,-0.061,0.061,0.061,-138.719,18.479,-14.804
10993,-0.3164,-0.6255,-0.7095,-0.061,0.061,0.122,-138.719,18.479,-14.804
11003,-0.3169,-0.6245,-0.7090,-0.244,0.183,0.122,-138.719,18.479,-14.804
11013,-0.3169,-0.6245,-0.7129,-0.366,0.305,0.061,-138.724,18.479,-14.804
11023,-0.3145,-0.6255,-0.7158,-0.305,0.305,0.061,-138.730,18.474,-14.804
11033,-0.3174,-0.6221,-0.7139,-0.061,0.122,0.122,-138.735,18.474,-14.804
11043,-0.3193,-0.6211,-0.7148,0.793,-0.061,0.122,-138.730,18.474,-14.804
11053,-0.3193,-0.6226,-0.7109,0.854,-0.122,-0.061,-138.719,18.479,-14.804
11063,-0.3188,-0.6260,-0.7109,0.488,0.000,-0.122,-138.713,18.479,-14.804
11073,-0.3184,-0.6255,-0.7100,-0.061,0.183,-0.244,-138.713,18.479,-14.804
11083,-0.3154,-0.6245,-0.7139,-0.488,0.366,-0.305,-138.719,18.474,-14.804
11093,-0.3154,-0.6245,-0.7134,-0.549,0.305,-0.244,-138.724,18.468,-14.804
11103,-0.3154,-0.6265,-0.7124,-0.366,0.122,-0.183,-138.730,18.463,-14.804
11113,-0.3135,-0.6274,-0.7129,0.000,0.000,-0.183,-138.730,18.463,-14.804
11123,-0.3164,-0.6274,-0.7144,0.305,0.000,0.000,-138.724,18.463,-14.804
11133,-0.3149,-0.6284,-0.7134,0.366,0.000,0.122,-138.719,18.463,-14.804
11143,-0.3135,-0.6255,-0.7134,0.366,0.000,0.244,-138.719,18.463,-14.804
11153,-0.3154,-0.6245,-0.7124,0.305,0.000,0.305,-138.719,18.463,-14.804
11163,-0.3145,-0.6245,-0.7129,0.244,-0.061,0.244,-138.713,18.463,-14.804
11173,-0.3159,-0.6250,-0.7148,0.183,-0.244,0.244,-138.713,18.468,-14.804
11183,-0.3154,-0.6230,-0.7153,0.183,-0.549,0.122,-138.713,18.468,-14.804
11193,-0.3179,-0.6221,-0.7114,0.244,-0.854,0.122,-138.713,18.479,-14.804
11203,-0.3188,-0.6230,-0.7104,0.366,-0.977,0.122,-138.708,18.490,-14.804
11213,-0.3184,-0.6235,-0.7114,0.549,-0.977,-0.061,-138.697,18.495,-14.804
11223,-0.3208,-0.6245,-0.7119,0.488,-0.916,-0.122,-138.691,18.506,-14.804
11233,-0.3193,-0.6255,-0.7104,0.305,-0.732,-0.061,-138.686,18.512,-14.804
11243,-0.3184,-0.6274,-0.7056,0.122,-0.549,-0.122,-138.680,18.517,-14.804
11253,-0.3184,-0.6274,-0.7075,-0.061,-0.366,-0.122,-138.680,18.517,-14.804
11263,-0.3198,-0.6265,-0.7100,-0.183,-0.183,-0.122,-138.680,18.517,-14.804
11273,-0.3203,-0.6265,-0.7095,-0.244,-0.061,0.000,-138.680,18.523,-14.804
11283,-0.3184,-0.6255,-0.7075,-0.061,0.000,0.122,-138.680,18.523,-14.804
11293,-0.3179,-0.6270,-0.7070,0.061,0.061,0.000,-138.675,18.523,-14.804
11303,-0.3169,-0.6284,-0.7070,0.061,0.122,-0.061,-138.669,18.523,-14.804
11313,-0.3188,-0.6274,-0.7085,0.061,0.061,0.061,-138.669,18.523,-14.804
11323,-0.3188,-0.6274,-0.7114,0.061,-0.061,0.122,-138.669,18.528,-14.804
11333,-0.3179,-0.6289,-0.7070,0.122,-0.122,0.122,-138.664,18.528,-14.804
11343,-0.3154,-0.6289,-0.7065,0.183,-0.122,0.183,-138.658,18.528,-14.804
11353,-0.3184,-0.6294,-0.7065,0.244,-0.244,0.305,-138.653,18.534,-14.804
11363,-0.3184,-0.6279,-0.7056,0.244,-0.244,0.366,-138.647,18.539,-14.804
11373,-0.3179,-0.6274,-0.7065,0.244,-0.122,0.427,-138.642,18.545,-14.804
11383,-0.3179,-0.6265,-0.7070,0.183,0.122,0.427,-138.642,18.545,-14.804
11393,-0.3179,-0.6284,-0.7080,0.122,0.549,0.427,-138.642,18.545,-14.804
11403,-0.3164,-0.6265,-0.7114,0.061,0.854,0.488,-138.642,18.539,-14.804
11413,-0.3174,-0.6265,-0.7134,-0.061,0.916,0.488,-138.647,18.534,-14.804
11423,-0.3174,-0.6245,-0.7134,-0.061,0.916,0.427,-138.653,18.534,-14.804
11433,-0.3193,-0.6196,-0.7148,-0.122,0.793,0.427,-138.658,18.528,-14.804
11443,-0.3198,-0.6206,-0.7153,0.000,0.671,0.427,-138.669,18.528,-14.804
11453,-0.3203,-0.6211,-0.7173,0.122,0.549,0.305,-138.669,18.528,-14.804
11463,-0.3179,-0.6226,-0.7168,0.122,0.549,0.122,-138.675,18.523,-14.804
11473,-0.3174,-0.6206,-0.7187,0.061,0.366,0.000,-138.680,18.523,-14.804
11483,-0.3154,-0.6221,-0.7183,0.000,0.122,-0.061,-138.686,18.517,-14.804
11493,-0.3164,-0.6216,-0.7192,0.000,-0.183,-0.122,-138.691,18.517,-14.804
11503,-0.3174,-0.6235,-0.7173,0.000,-0.366,-0.122,-138.691,18.517,-14.804
11513,-0.3188,-0.6265,-0.7148,0.061,-0.427,-0.122,-138.691,18.523,-14.804
11523,-0.3188,-0.6255,-0.7139,0.000,-0.183,-0.183,-138.691,18.523,-14.804
11533,-0.3154,-0.6279,-0.7163,-0.122,-0.122,-0.061,-138.691,18.523,-14.804
11543,-0.3174,-0.6260,-0.7158,-0.244,-0.122,0.061,-138.697,18.523,-14.804
11553,-0.3174,-0.6260,-0.7148,-0.305,-0.122,0.244,-138.702,18.523,-14.804
11563,-0.3159,-0.6245,-0.7153,-0.183,-0.183,0.305,-138.702,18.528,-14.804
11573,-0.3169,-0.6221,-0.7144,-0.061,-0.366,0.244,-138.708,18.528,-14.804
11583,-0.3174,-0.6230,-0.7129,0.183,-0.488,0.122,-138.708,18.534,-14.804
11593,-0.3188,-0.6211,-0.7104,0.244,-0.610,0.061,-138.702,18.539,-14.804
11603,-0.3198,-0.6230,-0.7051,0.305,-0.610,-0.061,-138.697,18.550,-14.804
11613,-0.3193,-0.6250,-0.7051,0.183,-0.610,-0.183,-138.691,18.550,-14.804
11623,-0.3198,-0.6235,-0.7036,0.000,-0.549,-0.183,-138.686,18.556,-14.804
11633,-0.3188,-0.6240,-0.6997,-0.122,-0.366,-0.244,-138.680,18.561,-14.804
11643,-0.3193,-0.6245,-0.7041,-0.122,-0.122,-0.244,-138.680,18.561,-14.804
11653,-0.3188,-0.6235,-0.7041,-0.122,0.000,-0.183,-138.680,18.561,-14.804
11664,-0.3179,-0.6299,-0.7056,-0.183,0.061,-0.244,-138.675,18.561,-14.804
11673,-0.3154,-0.6304,-0.7070,-0.122,0.000,-0.244,-138.675,18.556,-14.804
11683,-0.3184,-0.6294,-0.7046,0.000,-0.122,-0.244,-138.669,18.556,-14.804
11693,-0.3193,-0.6279,-0.7036,0.122,-0.244,-0.183,-138.658,18.561,-14.804
11703,-0.3198,-0.6270,-0.7017,0.244,-0.061,-0.122,-138.653,18.561,-14.804
11713,-0.3213,-0.6279,-0.6987,0.305,0.244,-0.122,-138.642,18.561,-14.804
11723,-0.3193,-0.6304,-0.7026,0.244,0.793,-0.183,-138.636,18.556,-14.804
11733,-0.3184,-0.6304,-0.7065,-0.061,1.160,-0.061,-138.636,18.550,-14.804
11743,-0.3188,-0.6309,-0.7075,-0.305,1.221,0.183,-138.642,18.539,-14.804
11753,-0.3198,-0.6309,-0.7104,-0.366,1.160,0.305,-138.642,18.534,-14.804
11763,-0.3193,-0.6304,-0.7129,-0.244,1.038,0.305,-138.647,18.528,-14.804
11773,-0.3169,-0.6294,-0.7134,-0.183,0.854,0.244,-138.653,18.523,-14.804
11783,-0.3184,-0.6299,-0.7148,-0.061,0.610,0.427,-138.653,18.523,-14.804
11793,-0.3198,-0.6289,-0.7163,0.122,0.610,0.671,-138.658,18.523,-14.804
11803,-0.3193,-0.6265,-0.7158,0.427,0.488,0.793,-138.658,18.523,-14.804
11813,-0.3179,-0.6270,-0.7183,0.549,0.427,0.916,-138.658,18.523,-14.804
11823,-0.3184,-0.6260,-0.7168,0.732,0.366,0.977,-138.653,18.528,-14.804
11833,-0.3184,-0.6245,-0.7158,0.732,0.305,0.854,-138.653,18.534,-14.804
11843,-0.3154,-0.6255,-0.7148,0.610,0.122,0.671,-138.653,18.534,-14.804
11853,-0.3149,-0.6221,-0.7104,0.488,-0.061,0.549,-138.647,18.539,-14.804
11863,-0.3179,-0.6235,-0.7109,0.305,-0.183,0.549,-138.647,18.545,-14.804
11873,-0.3169,-0.6250,-0.7085,0.305,-0.122,0.610,-138.647,18.545,-14.804
11883,-0.3193,-0.6226,-0.7095,0.366,0.061,0.549,-138.642,18.550,-14.804
11893,-0.3203,-0.6216,-0.7104,0.305,0.244,0.549,-138.642,18.556,-14.804
11903,-0.3208,-0.6230,-0.7095,0.305,0.610,0.488,-138.642,18.556,-14.804
11913,-0.3198,-0.6235,-0.7134,0.061,0.854,0.366,-138.647,18.556,-14.804
11923,-0.3179,-0.6211,-0.7144,-0.183,0.916,0.244,-138.658,18.550,-14.804
11933,-0.3169,-0.6206,-0.7168,-0.366,0.671,0.183,-138.664,18.545,-14.804
11943,-0.3174,-0.6226,-0.7129,-0.427,0.305,0.061,-138.675,18.539,-14.804
11953,-0.3159,-0.6230,-0.7119,-0.427,-0.183,-0.061,-138.680,18.545,-14.804
11963,-0.3154,-0.6211,-0.7139,-0.244,-0.488,-0.122,-138.680,18.545,-14.804
11973,-0.3159,-0.6250,-0.7104,0.000,-0.671,-0.122,-138.680,18.545,-14.804
11983,-0.3159,-0.6235,-0.7070,0.305,-0.610,0.000,-138.675,18.550,-14.804
11993,-0.3164,-0.6255,-0.7056,0.549,-0.305,0.000,-138.669,18.556,-14.804
12003,-0.3154,-0.6265,-0.7056,0.549,0.000,0.000,-138.658,18.556,-14.804
12013,-0.3149,-0.6274,-0.7046,0.183,0.183,0.122,-138.653,18.550,-14.804
12023,-0.3154,-0.6299,-0.7075,-0.244,0.305,0.244,-138.653,18.550,-14.804
12033,-0.3169,-0.6299,-0.7080,-0.610,0.366,0.305,-138.658,18.550,-14.804
12043,-0.3184,-0.6265,-0.7085,-0.732,0.427,0.244,-138.664,18.545,-14.804
12053,-0.3179,-0.6260,-0.7070,-0.549,0.610,0.244,-138.669,18.545,-14.804
12063,-0.3169,-0.6250,-0.7090,-0.244,0.793,0.183,-138.675,18.539,-14.804
12073,-0.3179,-0.6255,-0.7085,-0.061,0.977,0.122,-138.675,18.534,-14.804
12083,-0.3154,-0.6245,-0.7065,-0.061,1.099,0.122,-138.680,18.528,-14.804
12093,-0.3179,-0.6235,-0.7109,-0.061,1.099,0.122,-138.686,18.517,-14.804
12103,-0.3213,-0.6216,-0.7085,-0.061,0.977,0.122,-138.686,18.517,-14.804
12113,-0.3223,-0.6211,-0.7119,0.000,0.793,0.000,-138.691,18.512,-14.804
12123,-0.3203,-0.6230,-0.7104,0.061,0.549,-0.061,-138.691,18.512,-14.804
12133,-0.3184,-0.6245,-0.7119,0.000,0.366,-0.061,-138.691,18.506,-14.804
12143,-0.3198,-0.6274,-0.7109,-0.244,0.305,-0.122,-138.697,18.506,-14.804
12153,-0.3174,-0.6265,-0.7100,-0.366,0.366,-0.061,-138.697,18.506,-14.804
12164,-0.3174,-0.6265,-0.7100,-0.366,0.488,-0.061,-138.702,18.501,-14.804
12173,-0.3159,-0.6279,-0.7114,-0.366,0.671,0.000,-138.702,18.495,-14.804
12183,-0.3140,-0.6323,-0.7139,-0.244,0.916,0.122,-138.708,18.484,-14.804
12193,-0.3125,-0.6328,-0.7134,-0.244,0.916,0.305,-138.708,18.479,-14.804
12203,-0.3130,-0.6299,-0.7144,-0.305,0.732,0.549,-138.713,18.474,-14.804
12213,-0.3154,-0.6279,-0.7129,-0.305,0.488,0.671,-138.719,18.474,-14.804
12223,-0.3130,-0.6235,-0.7104,-0.061,0.366,0.793,-138.724,18.474,-14.804
12233,-0.3174,-0.6226,-0.7100,0.305,0.305,0.732,-138.724,18.479,-14.804
12243,-0.3193,-0.6196,-0.7065,0.610,0.488,0.549,-138.719,18.479,-14.804
12253,-0.3198,-0.6206,-0.7056,0.671,0.610,0.366,-138.713,18.479,-14.804
12263,-0.3184,-0.6226,-0.7046,0.488,0.732,0.305,-138.708,18.479,-14.804
12273,-0.3198,-0.6201,-0.7041,0.061,0.732,0.244,-138.708,18.479,-14.804
12283,-0.3188,-0.6235,-0.7070,-0.488,0.732,0.183,-138.713,18.479,-14.804
12293,-0.3159,-0.6211,-0.7090,-1.038,0.671,0.244,-138.730,18.474,-14.804
12303,-0.3164,-0.6206,-0.7144,-1.282,0.671,0.427,-138.746,18.474,-14.804
12313,-0.3179,-0.6172,-0.7144,-1.038,0.671,0.305,-138.763,18.474,-14.804
12323,-0.3164,-0.6187,-0.7114,-0.427,0.549,0.000,-138.774,18.468,-14.804
12333,-0.3154,-0.6196,-0.7104,0.122,0.549,-0.305,-138.774,18.463,-14.804
12343,-0.3164,-0.6211,-0.7090,0.366,0.488,-0.427,-138.768,18.457,-14.804
12353,-0.3149,-0.6255,-0.7080,0.244,0.488,-0.488,-138.763,18.452,-14.804
12363,-0.3164,-0.6274,-0.7095,-0.183,0.488,-0.488,-138.763,18.441,-14.804
12373,-0.3169,-0.6284,-0.7114,-0.549,0.549,-0.427,-138.768,18.435,-14.804
12383,-0.3169,-0.6294,-0.7168,-0.732,0.610,-0.244,-138.774,18.430,-14.804
12393,-0.3159,-0.6299,-0.7192,-0.671,0.732,-0.061,-138.779,18.424,-14.804
12403,-0.3193,-0.6279,-0.7217,-0.366,0.732,0.122,-138.790,18.419,-14.804
12413,-0.3179,-0.6265,-0.7217,0.061,0.671,0.183,-138.790,18.413,-14.804
12423,-0.3179,-0.6265,-0.7207,0.427,0.427,0.244,-138.790,18.413,-14.804
12433,-0.3164,-0.6255,-0.7173,0.549,0.061,0.305,-138.790,18.413,-14.804
12443,-0.3164,-0.6265,-0.7158,0.366,-0.305,0.244,-138.785,18.419,-14.804
12453,-0.3154,-0.6245,-0.7144,0.061,-0.488,0.183,-138.785,18.424,-14.804
12463,-0.3184,-0.6255,-0.7148,-0.122,-0.671,0.183,-138.785,18.430,-14.804
12473,-0.3198,-0.6274,-0.7134,-0.244,-0.610,0.122,-138.785,18.435,-14.804
12483,-0.3184,-0.6299,-0.7129,-0.244,-0.549,0.061,-138.785,18.441,-14.804
12493,-0.3169,-0.6299,-0.7139,-0.183,-0.305,0.122,-138.785,18.446,-14.804
12503,-0.3159,-0.6309,-0.7134,-0.061,-0.122,0.244,-138.779,18.446,-14.804
12513,-0.3159,-0.6274,-0.7124,0.061,-0.061,0.488,-138.779,18.452,-14.804
12523,-0.3154,-0.6250,-0.7134,0.183,-0.122,0.671,-138.779,18.452,-14.804
12533,-0.3164,-0.6201,-0.7119,0.183,-0.305,0.793,-138.779,18.463,-14.804
12543,-0.3174,-0.6182,-0.7100,0.244,-0.488,0.732,-138.779,18.474,-14.804
12553,-0.3198,-0.6157,-0.7085,0.244,-0.549,0.549,-138.779,18.484,-14.804
12563,-0.3208,-0.6152,-0.7109,0.305,-0.549,0.244,-138.779,18.490,-14.804
12573,-0.3169,-0.6152,-0.7100,0.244,-0.488,0.000,-138.779,18.495,-14.804
12583,-0.3164,-0.6172,-0.7085,0.183,-0.549,-0.122,-138.779,18.501,-14.804
12593,-0.3154,-0.6211,-0.7085,0.122,-0.732,-0.305,-138.774,18.506,-14.804
12603,-0.3164,-0.6235,-0.7061,0.061,-0.916,-0.366,-138.768,18.512,-14.804
12613,-0.3169,-0.6265,-0.7021,-0.061,-0.977,-0.427,-138.763,18.517,-14.804
12623,-0.3154,-0.6284,-0.7031,-0.183,-0.732,-0.305,-138.757,18.517,-14.804
12633,-0.3140,-0.6299,-0.7041,-0.305,-0.366,-0.122,-138.752,18.523,-14.804
12643,-0.3145,-0.6274,-0.7036,-0.244,0.183,0.061,-138.752,18.517,-14.804
12653,-0.3154,-0.6274,-0.7041,-0.061,0.671,0.183,-138.746,18.512,-14.804
12664,-0.3149,-0.6289,-0.7041,-0.061,1.099,0.244,-138.746,18.506,-14.804
12673,-0.3164,-0.6284,-0.7070,-0.183,1.404,0.366,-138.746,18.501,-14.804
12683,-0.3188,-0.6250,-0.7104,-0.366,1.526,0.488,-138.757,18.490,-14.804
12693,-0.3184,-0.6211,-0.7119,-0.488,1.404,0.427,-138.768,18.484,-14.804
12703,-0.3184,-0.6201,-0.7153,-0.427,1.160,0.244,-138.774,18.479,-14.804
12713,-0.3208,-0.6201,-0.7153,-0.305,0.916,0.000,-138.785,18.474,-14.804
12723,-0.3223,-0.6206,-0.7139,-0.183,0.671,-0.244,-138.790,18.474,-14.804
12733,-0.3208,-0.6216,-0.7168,-0.244,0.488,-0.305,-138.796,18.468,-14.804
12743,-0.3193,-0.6250,-0.7178,-0.183,0.305,-0.366,-138.796,18.463,-14.804
12753,-0.3159,-0.6265,-0.7173,-0.122,0.122,-0.488,-138.801,18.463,-14.804
12763,-0.3164,-0.6294,-0.7192,0.061,-0.183,-0.305,-138.796,18.457,-14.804
12773,-0.3159,-0.6289,-0.7178,0.183,-0.305,-0.122,-138.796,18.457,-14.804
12783,-0.3135,-0.6313,-0.7153,0.183,-0.305,-0.122,-138.790,18.457,-14.804
12794,-0.3159,-0.6284,-0.7163,0.122,-0.183,-0.061,-138.785,18.457,-14.804
12804,-0.3130,-0.6304,-0.7173,0.000,-0.122,0.061,-138.785,18.457,-14.804
12814,-0.3145,-0.6279,-0.7124,-0.061,-0.061,0.244,-138.785,18.457,-14.804
12823,-0.3159,-0.6255,-0.7124,-0.122,0.000,0.427,-138.785,18.457,-14.804
12834,-0.3169,-0.6240,-0.7158,-0.122,0.122,0.488,-138.790,18.463,-14.804
12844,-0.3154,-0.6221,-0.7158,-0.122,0.183,0.549,-138.796,18.463,-14.804
12853,-0.3174,-0.6216,-0.7158,0.000,0.122,0.610,-138.801,18.468,-14.804
12864,-0.3188,-0.6206,-0.7148,0.122,-0.122,0.427,-138.801,18.474,-14.804
12874,-0.3193,-0.6187,-0.7134,0.122,-0.427,0.305,-138.801,18.479,-14.804
12884,-0.3198,-0.6211,-0.7114,0.061,-0.549,0.061,-138.801,18.484,-14.804
12894,-0.3174,-0.6211,-0.7100,-0.061,-0.671,-0.061,-138.801,18.490,-14.804
12904,-0.3169,-0.6245,-0.7095,-0.061,-0.732,-0.122,-138.796,18.495,-14.804
12914,-0.3135,-0.6265,-0.7085,-0.122,-0.793,-0.061,-138.796,18.501,-14.804
12924,-0.3125,-0.6235,-0.7104,-0.122,-0.854,0.061,-138.796,18.506,-14.804
12934,-0.3169,-0.6221,-0.7070,0.244,-0.854,0.183,-138.790,18.512,-14.804
12944,-0.3198,-0.6216,-0.7056,0.732,-0.671,0.122,-138.779,18.523,-14.804
12954,-0.3198,-0.6201,-0.7012,1.099,-0.488,0.000,-138.763,18.528,-14.804
12964,-0.3184,-0.6216,-0.6997,0.977,-0.183,-0.061,-138.752,18.534,-14.804
12974,-0.3184,-0.6230,-0.6987,0.488,0.183,-0.122,-138.741,18.534,-14.804
12984,-0.3174,-0.6245,-0.6968,-0.366,0.549,-0.305,-138.735,18.528,-14.804
12994,-0.3154,-0.6245,-0.7031,-1.221,0.977,-0.305,-138.746,18.517,-14.804
13004,-0.3125,-0.6240,-0.7065,-1.709,1.404,-0.366,-138.763,18.506,-14.804
13014,-0.3110,-0.6230,-0.7100,-1.465,1.648,-0.305,-138.779,18.490,-14.804
13024,-0.3105,-0.6221,-0.7124,-0.854,1.648,-0.305,-138.796,18.468,-14.804
13034,-0.3115,-0.6250,-0.7100,-0.122,1.587,-0.366,-138.796,18.452,-14.804
13044,-0.3140,-0.6250,-0.7070,0.244,1.709,-0.305,-138.796,18.441,-14.804
13054,-0.3164,-0.6240,-0.7051,0.183,2.014,-0.183,-138.790,18.424,-14.804
13064,-0.3188,-0.6201,-0.7051,-0.427,2.502,-0.183,-138.801,18.408,-14.804
13074,-0.3169,-0.6206,-0.7114,-1.221,2.869,-0.183,-138.818,18.386,-14.804
13084,-0.3159,-0.6162,-0.7168,-1.953,2.930,-0.305,-138.851,18.364,-14.804
13094,-0.3179,-0.6172,-0.7222,-2.502,2.686,-0.427,-138.884,18.342,-14.804
13104,-0.3159,-0.6172,-0.7280,-2.625,2.380,-0.671,-138.922,18.320,-14.804
13114,-0.3169,-0.6191,-0.7334,-2.319,1.953,-0.854,-138.955,18.298,-14.804
13124,-0.3169,-0.6211,-0.7354,-1.648,1.343,-1.038,-138.983,18.281,-14.804
13134,-0.3154,-0.6245,-0.7329,-0.793,0.549,-1.221,-138.994,18.270,-14.799
13144,-0.3159,-0.6299,-0.7314,0.000,-0.244,-1.221,-138.994,18.259,-14.788
13154,-0.3169,-0.6338,-0.7280,0.427,-0.916,-1.160,-138.983,18.259,-14.771
13164,-0.3179,-0.6357,-0.7241,0.671,-1.343,-0.977,-138.972,18.265,-14.755
13174,-0.3184,-0.6338,-0.7217,0.732,-1.587,-0.671,-138.955,18.270,-14.738
13184,-0.3203,-0.6348,-0.7158,0.610,-1.648,-0.366,-138.939,18.281,-14.727
13194,-0.3218,-0.6333,-0.7134,0.549,-1.526,-0.061,-138.922,18.298,-14.716
13204,-0.3213,-0.6299,-0.7139,0.549,-1.282,0.183,-138.911,18.314,-14.705
13214,-0.3203,-0.6299,-0.7129,0.488,-1.160,0.244,-138.900,18.325,-14.700
13224,-0.3169,-0.6284,-0.7153,0.549,-1.099,0.366,-138.895,18.336,-14.694
13234,-0.3179,-0.6274,-0.7134,0.610,-1.282,0.366,-138.884,18.353,-14.689
13244,-0.3169,-0.6274,-0.7129,0.732,-1.709,0.305,-138.873,18.364,-14.683
13254,-0.3145,-0.6279,-0.7109,0.793,-1.953,0.427,-138.856,18.386,-14.672
13264,-0.3154,-0.6245,-0.7070,0.854,-2.075,0.488,-138.840,18.402,-14.661
13274,-0.3125,-0.6255,-0.7061,0.854,-1.892,0.610,-138.829,18.419,-14.650
13284,-0.3149,-0.6230,-0.7051,0.793,-1.587,0.610,-138.812,18.435,-14.645
13294,-0.3184,-0.6226,-0.6997,0.916,-1.038,0.610,-138.801,18.452,-14.645
13304,-0.3179,-0.6206,-0.7012,0.793,-0.549,0.549,-138.790,18.463,-14.645
13314,-0.3159,-0.6201,-0.7026,0.610,-0.061,0.427,-138.779,18.468,-14.650
13324,-0.3145,-0.6201,-0.7056,0.244,0.183,0.427,-138.779,18.468,-14.650
13334,-0.3140,-0.6211,-0.7090,-0.122,0.183,0.305,-138.779,18.468,-14.656
13344,-0.3154,-0.6221,-0.7100,-0.488,0.061,0.244,-138.785,18.474,-14.656
13354,-0.3159,-0.6167,-0.7124,-0.549,0.000,0.183,-138.796,18.474,-14.661
13364,-0.3184,-0.6187,-0.7153,-0.427,0.122,-0.061,-138.807,18.474,-14.661
13374,-0.3179,-0.6182,-0.7148,-0.122,0.244,-0.244,-138.807,18.468,-14.661
13384,-0.3159,-0.6201,-0.7129,0.183,0.244,-0.366,-138.807,18.468,-14.661
13394,-0.3135,-0.6221,-0.7119,0.305,0.122,-0.488,-138.807,18.463,-14.656
13404,-0.3140,-0.6250,-0.7129,0.244,-0.061,-0.488,-138.801,18.457,-14.650
13414,-0.3135,-0.6265,-0.7144,0.061,-0.366,-0.366,-138.796,18.457,-14.645
13424,-0.3164,-0.6270,-0.7114,-0.122,-0.488,-0.305,-138.796,18.457,-14.639
13434,-0.3149,-0.6270,-0.7119,-0.061,-0.427,-0.244,-138.790,18.457,-14.634
13444,-0.3174,-0.6270,-0.7109,0.061,-0.183,-0.244,-138.790,18.457,-14.634
13454,-0.3174,-0.6279,-0.7109,0.061,0.122,-0.122,-138.785,18.457,-14.634
13464,-0.3184,-0.6274,-0.7104,-0.122,0.427,0.000,-138.785,18.457,-14.634
13474,-0.3179,-0.6245,-0.7124,-0.366,0.671,0.122,-138.790,18.452,-14.639
13484,-0.3184,-0.6230,-0.7144,-0.610,0.671,0.122,-138.801,18.446,-14.645
13494,-0.3184,-0.6221,-0.7163,-0.671,0.488,0.122,-138.812,18.446,-14.650
13504,-0.3179,-0.6235,-0.7192,-0.549,0.305,0.061,-138.818,18.446,-14.650
13514,-0.3184,-0.6230,-0.7163,-0.305,0.122,-0.122,-138.823,18.446,-14.650
13524,-0.3179,-0.6250,-0.7148,-0.061,-0.061,-0.183,-138.823,18.446,-14.650
13534,-0.3164,-0.6250,-0.7168,0.000,-0.183,-0.183,-138.823,18.446,-14.650
13544,-0.3154,-0.6230,-0.7168,0.000,-0.305,-0.122,-138.823,18.446,-14.645
13554,-0.3169,-0.6221,-0.7183,0.122,-0.488,-0.061,-138.823,18.446,-14.639
13564,-0.3184,-0.6216,-0.7129,0.549,-0.793,-0.061,-138.818,18.457,-14.634
13574,-0.3188,-0.6235,-0.7095,1.038,-1.038,-0.122,-138.807,18.463,-14.628
13584,-0.3184,-0.6245,-0.7070,1.282,-1.160,-0.305,-138.785,18.474,-14.617
13594,-0.3188,-0.6260,-0.6992,1.038,-1.038,-0.427,-138.768,18.479,-14.606
13604,-0.3179,-0.6284,-0.6987,0.305,-0.671,-0.488,-138.752,18.484,-14.595
13614,-0.3169,-0.6289,-0.6992,-0.610,0.000,-0.427,-138.752,18.484,-14.595
13624,-0.3149,-0.6265,-0.7012,-1.343,0.610,-0.244,-138.757,18.479,-14.595
13634,-0.3145,-0.6265,-0.7090,-1.587,1.160,0.000,-138.774,18.468,-14.606
13644,-0.3135,-0.6260,-0.7144,-1.343,1.465,0.183,-138.790,18.457,-14.617
13654,-0.3140,-0.6240,-0.7153,-0.732,1.465,0.366,-138.807,18.446,-14.628
13665,-0.3169,-0.6255,-0.7178,-0.122,1.160,0.427,-138.812,18.441,-14.639
13674,-0.3145,-0.6230,-0.7187,0.244,0.732,0.305,-138.812,18.435,-14.650
13684,-0.3145,-0.6206,-0.7163,0.366,0.305,0.122,-138.812,18.435,-14.650
13694,-0.3125,-0.6196,-0.7139,0.305,0.000,0.000,-138.812,18.430,-14.650
13704,-0.3154,-0.6196,-0.7153,0.122,-0.305,-0.122,-138.812,18.435,-14.650
13714,-0.3169,-0.6221,-0.7153,0.061,-0.488,-0.244,-138.812,18.435,-14.645
13724,-0.3179,-0.6216,-0.7129,0.244,-0.549,-0.366,-138.807,18.441,-14.634
13734,-0.3169,-0.6240,-0.7095,0.549,-0.549,-0.488,-138.801,18.441,-14.628
13744,-0.3159,-0.6260,-0.7095,0.549,-0.366,-0.488,-138.790,18.441,-14.623
13754,-0.3154,-0.6265,-0.7090,0.366,0.000,-0.427,-138.785,18.435,-14.617
13764,-0.3184,-0.6274,-0.7090,0.061,0.366,-0.305,-138.779,18.435,-14.617
13774,-0.3203,-0.6260,-0.7095,-0.244,0.671,-0.305,-138.779,18.430,-14.623
13784,-0.3174,-0.6265,-0.7104,-0.427,0.732,-0.183,-138.785,18.424,-14.623
13794,-0.3169,-0.6240,-0.7119,-0.549,0.610,-0.061,-138.790,18.419,-14.628
13804,-0.3169,-0.6235,-0.7139,-0.488,0.610,0.000,-138.796,18.419,-14.634
13814,-0.3188,-0.6265,-0.7148,-0.488,0.549,0.000,-138.801,18.413,-14.634
13824,-0.3198,-0.6245,-0.7163,-0.366,0.488,-0.061,-138.807,18.413,-14.639
13834,-0.3174,-0.6250,-0.7168,-0.305,0.427,-0.183,-138.812,18.408,-14.639
13844,-0.3159,-0.6274,-0.7148,-0.244,0.244,-0.244,-138.812,18.402,-14.639
13854,-0.3145,-0.6270,-0.7134,-0.244,0.000,-0.183,-138.818,18.402,-14.639
13864,-0.3164,-0.6284,-0.7144,-0.061,-0.244,-0.122,-138.812,18.402,-14.634
13874,-0.3184,-0.6284,-0.7119,0.183,-0.305,-0.061,-138.807,18.408,-14.634
13884,-0.3179,-0.6279,-0.7104,0.427,-0.244,0.122,-138.801,18.408,-14.634
13894,-0.3179,-0.6284,-0.7095,0.488,-0.122,0.122,-138.790,18.413,-14.634
13904,-0.3154,-0.6274,-0.7051,0.366,-0.061,0.244,-138.785,18.413,-14.634
13914,-0.3130,-0.6270,-0.7075,0.122,0.061,0.366,-138.779,18.419,-14.639
13924,-0.3154,-0.6255,-0.7124,-0.183,0.183,0.427,-138.785,18.419,-14.645
13934,-0.3130,-0.6235,-0.7109,-0.122,0.305,0.427,-138.785,18.419,-14.650
13944,-0.3135,-0.6235,-0.7129,0.000,0.366,0.366,-138.790,18.419,-14.656
13954,-0.3164,-0.6216,-0.7109,0.305,0.427,0.366,-138.790,18.419,-14.661
13964,-0.3149,-0.6240,-0.7119,0.488,0.366,0.427,-138.785,18.419,-14.667
13974,-0.3174,-0.6235,-0.7129,0.427,0.305,0.366,-138.785,18.419,-14.672
13984,-0.3169,-0.6206,-0.7139,0.183,0.122,0.244,-138.785,18.419,-14.672
13994,-0.3149,-0.6201,-0.7119,0.000,0.061,0.122,-138.785,18.419,-14.672
14004,-0.3159,-0.6201,-0.7114,-0.183,0.183,0.000,-138.790,18.419,-14.678
14014,-0.3164,-0.6196,-0.7129,-0.305,0.122,-0.122,-138.796,18.419,-14.678
14024,-0.3154,-0.6201,-0.7139,-0.305,0.061,-0.183,-138.801,18.419,-14.672
14034,-0.3145,-0.6226,-0.7104,-0.183,0.061,-0.244,-138.801,18.413,-14.672
14044,-0.3140,-0.6250,-0.7124,-0.061,-0.122,-0.366,-138.801,18.413,-14.672
14054,-0.3154,-0.6240,-0.7134,0.000,-0.122,-0.305,-138.796,18.413,-14.667
14064,-0.3169,-0.6270,-0.7134,0.061,0.061,-0.244,-138.796,18.408,-14.667
14074,-0.3154,-0.6274,-0.7144,0.000,0.366,-0.244,-138.796,18.408,-14.667
14084,-0.3154,-0.6289,-0.7134,-0.061,0.488,-0.183,-138.796,18.402,-14.667
14094,-0.3169,-0.6294,-0.7148,-0.183,0.427,-0.061,-138.796,18.397,-14.672
14104,-0.3154,-0.6274,-0.7173,-0.366,0.244,0.061,-138.801,18.397,-14.672
14114,-0.3169,-0.6260,-0.7163,-0.305,0.061,0.061,-138.801,18.397,-14.672
14124,-0.3174,-0.6255,-0.7158,-0.061,-0.183,0.122,-138.807,18.397,-14.672
14134,-0.3188,-0.6245,-0.7144,0.244,-0.427,0.122,-138.801,18.402,-14.672
14144,-0.3184,-0.6255,-0.7144,0.488,-0.488,0.122,-138.796,18.408,-14.667
14154,-0.3193,-0.6260,-0.7119,0.488,-0.366,0.122,-138.790,18.413,-14.667
14165,-0.3193,-0.6265,-0.7109,0.183,-0.244,0.122,-138.785,18.419,-14.667
14174,-0.3149,-0.6245,-0.7129,-0.305,-0.183,0.122,-138.790,18.419,-14.667
14184,-0.3159,-0.6230,-0.7144,-0.488,-0.244,0.183,-138.796,18.424,-14.667
14194,-0.3188,-0.6201,-0.7124,-0.427,-0.366,0.183,-138.801,18.430,-14.667
14204,-0.3188,-0.6182,-0.7129,0.000,-0.427,0.061,-138.801,18.435,-14.667
14214,-0.3203,-0.6201,-0.7134,0.488,-0.610,-0.122,-138.796,18.441,-14.667
14224,-0.3237,-0.6216,-0.7095,0.732,-0.671,-0.366,-138.790,18.452,-14.667
14234,-0.3228,-0.6265,-0.7114,0.610,-0.488,-0.549,-138.779,18.452,-14.667
14244,-0.3208,-0.6284,-0.7104,0.122,-0.244,-0.671,-138.774,18.452,-14.667
14254,-0.3198,-0.6318,-0.7139,-0.488,0.061,-0.610,-138.774,18.452,-14.667
14264,-0.3174,-0.6318,-0.7178,-0.916,0.244,-0.366,-138.779,18.446,-14.667
14274,-0.3159,-0.6333,-0.7202,-0.977,0.122,-0.061,-138.790,18.441,-14.667
14284,-0.3120,-0.6333,-0.7217,-0.610,-0.183,0.183,-138.796,18.441,-14.667
14294,-0.3125,-0.6318,-0.7192,-0.061,-0.549,0.366,-138.796,18.441,-14.667
14304,-0.3130,-0.6289,-0.7187,0.488,-0.854,0.610,-138.790,18.452,-14.667
14314,-0.3130,-0.6260,-0.7148,0.916,-1.099,0.732,-138.779,18.463,-14.667
14324,-0.3140,-0.6221,-0.7109,1.221,-1.160,0.793,-138.768,18.474,-14.667
14334,-0.3135,-0.6191,-0.7070,1.282,-1.160,0.793,-138.752,18.490,-14.667
14344,-0.3184,-0.6187,-0.7070,1.099,-1.099,0.671,-138.741,18.501,-14.667
14354,-0.3184,-0.6172,-0.7041,0.854,-0.977,0.488,-138.735,18.517,-14.667
14364,-0.3169,-0.6167,-0.7056,0.610,-0.916,0.244,-138.724,18.528,-14.667
14374,-0.3169,-0.6216,-0.7031,0.244,-0.671,0.061,-138.719,18.534,-14.667
14384,-0.3169,-0.6206,-0.7041,0.000,-0.549,0.000,-138.719,18.539,-14.667
14394,-0.3184,-0.6191,-0.7036,-0.427,-0.488,-0.061,-138.719,18.545,-14.667
14404,-0.3169,-0.6206,-0.7051,-0.427,-0.366,-0.183,-138.724,18.545,-14.667
14414,-0.3149,-0.6230,-0.7051,-0.183,-0.183,-0.305,-138.724,18.545,-14.667
14424,-0.3140,-0.6265,-0.7061,0.000,0.000,-0.427,-138.719,18.539,-14.667
14434,-0.3145,-0.6274,-0.7080,-0.122,0.122,-0.427,-138.713,18.534,-14.667
14444,-0.3159,-0.6279,-0.7085,-0.244,0.244,-0.244,-138.713,18.534,-14.667
14454,-0.3174,-0.6226,-0.7070,0.000,0.183,-0.122,-138.713,18.528,-14.667
14464,-0.3179,-0.6260,-0.7046,0.366,0.061,-0.183,-138.708,18.528,-14.667
14474,-0.3174,-0.6250,-0.7051,0.488,-0.061,-0.305,-138.697,18.528,-14.667
14484,-0.3184,-0.6260,-0.7036,0.488,-0.061,-0.427,-138.691,18.528,-14.667
14494,-0.3184,-0.6255,-0.7026,0.427,-0.061,-0.366,-138.680,18.528,-14.667
14504,-0.3213,-0.6265,-0.6997,0.427,0.122,-0.366,-138.669,18.528,-14.667
14514,-0.3188,-0.6265,-0.6992,0.305,0.244,-0.305,-138.664,18.528,-14.667
14524,-0.3198,-0.6279,-0.6992,0.244,0.610,-0.183,-138.653,18.523,-14.667
14534,-0.3203,-0.6265,-0.7021,0.061,0.916,-0.061,-138.653,18.517,-14.667
14544,-0.3198,-0.6255,-0.7065,-0.183,1.221,0.061,-138.653,18.512,-14.667
14554,-0.3188,-0.6274,-0.7090,-0.366,1.465,0.061,-138.658,18.501,-14.667
14564,-0.3184,-0.6265,-0.7114,-0.488,1.587,0.061,-138.669,18.495,-14.667
14574,-0.3164,-0.6260,-0.7129,-0.549,1.587,0.122,-138.675,18.479,-14.667
14584,-0.3174,-0.6279,-0.7158,-0.610,1.587,0.183,-138.686,18.468,-14.667
14594,-0.3164,-0.6255,-0.7197,-0.671,1.526,0.244,-138.702,18.457,-14.667
14604,-0.3169,-0.6235,-0.7236,-0.549,1.404,0.244,-138.719,18.452,-14.667
14614,-0.3169,-0.6221,-0.7246,-0.244,1.099,0.183,-138.730,18.441,-14.667
14624,-0.3198,-0.6245,-0.7227,0.183,0.671,0.061,-138.730,18.435,-14.667
14634,-0.3203,-0.6245,-0.7217,0.610,0.244,-0.061,-138.730,18.435,-14.667
14644,-0.3208,-0.6255,-0.7187,0.732,-0.122,-0.061,-138.724,18.441,-14.667
14654,-0.3198,-0.6255,-0.7192,0.671,-0.427,-0.122,-138.719,18.441,-14.667
14665,-0.3188,-0.6260,-0.7163,0.488,-0.610,0.000,-138.713,18.446,-14.667
14674,-0.3179,-0.6270,-0.7173,0.244,-0.732,-0.061,-138.713,18.452,-14.667
14684,-0.3164,-0.6260,-0.7134,0.000,-0.671,-0.122,-138.708,18.457,-14.667
14694,-0.3169,-0.6284,-0.7129,-0.122,-0.610,-0.061,-138.708,18.463,-14.667
14704,-0.3169,-0.6250,-0.7095,-0.122,-0.671,0.061,-138.708,18.468,-14.667
14714,-0.3164,-0.6260,-0.7114,0.000,-0.610,0.183,-138.708,18.474,-14.667
14724,-0.3154,-0.6270,-0.7124,0.122,-0.427,0.305,-138.702,18.479,-14.667
14734,-0.3145,-0.6284,-0.7114,0.122,-0.244,0.305,-138.702,18.479,-14.667
14744,-0.3149,-0.6270,-0.7119,0.000,-0.061,0.366,-138.702,18.479,-14.667
14754,-0.3149,-0.6235,-0.7119,-0.183,0.061,0.427,-138.708,18.484,-14.667
14764,-0.3164,-0.6221,-0.7153,-0.244,-0.061,0.427,-138.713,18.484,-14.667
14774,-0.3188,-0.6221,-0.7114,0.000,-0.366,0.305,-138.713,18.490,-14.667
14784,-0.3193,-0.6216,-0.7095,0.305,-0.549,0.183,-138.708,18.501,-14.667
14794,-0.3198,-0.6211,-0.7070,0.610,-0.610,0.000,-138.702,18.506,-14.667
14804,-0.3198,-0.6230,-0.7075,0.610,-0.671,-0.122,-138.691,18.512,-14.667
14814,-0.3179,-0.6255,-0.7061,0.305,-0.610,-0.122,-138.686,18.517,-14.667
14824,-0.3174,-0.6265,-0.7075,-0.061,-0.427,-0.122,-138.686,18.523,-14.667
14834,-0.3184,-0.6245,-0.7070,-0.366,-0.305,-0.061,-138.686,18.523,-14.667
14844,-0.3179,-0.6245,-0.7070,-0.244,-0.305,0.000,-138.686,18.528,-14.667
14854,-0.3203,-0.6235,-0.7056,0.244,-0.366,0.000,-138.680,18.534,-14.667
14864,-0.3198,-0.6265,-0.7017,0.671,-0.366,-0.061,-138.669,18.539,-14.667
14874,-0.3203,-0.6260,-0.7012,0.732,-0.305,-0.183,-138.658,18.539,-14.667
14884,-0.3184,-0.6265,-0.6997,0.305,0.000,-0.122,-138.647,18.545,-14.667
14894,-0.3184,-0.6265,-0.7012,-0.366,0.427,-0.061,-138.647,18.539,-14.667
14904,-0.3179,-0.6265,-0.7046,-0.793,0.793,0.000,-138.653,18.534,-14.667
14914,-0.3179,-0.6260,-0.7085,-0.916,0.854,0.000,-138.664,18.528,-14.667
14924,-0.3174,-0.6265,-0.7104,-0.610,0.671,0.000,-138.669,18.523,-14.667
14934,-0.3188,-0.6260,-0.7144,-0.305,0.427,0.000,-138.675,18.523,-14.667
14944,-0.3188,-0.6260,-0.7163,0.000,0.305,0.000,-138.680,18.517,-14.667
14954,-0.3179,-0.6270,-0.7153,0.122,0.427,0.000,-138.680,18.517,-14.667
14964,-0.3169,-0.6279,-0.7153,0.122,0.488,0.122,-138.680,18.512,-14.667
14974,-0.3145,-0.6270,-0.7139,0.122,0.366,0.244,-138.680,18.512,-14.667
14984,-0.3164,-0.6260,-0.7178,0.061,0.061,0.366,-138.680,18.512,-14.667
14994,-0.3159,-0.6250,-0.7134,0.183,-0.244,0.244,-138.680,18.512,-14.667
15004,-0.3184,-0.6240,-0.7124,0.366,-0.427,0.122,-138.680,18.517,-14.667
15014,-0.3184,-0.6240,-0.7119,0.488,-0.427,0.000,-138.675,18.523,-14.667
15024,-0.3213,-0.6240,-0.7109,0.610,-0.305,0.000,-138.669,18.528,-14.667
15034,-0.3198,-0.6235,-0.7070,0.610,0.000,-0.061,-138.658,18.528,-14.667
15044,-0.3188,-0.6265,-0.7075,0.427,0.244,-0.122,-138.653,18.528,-14.667
15054,-0.3188,-0.6260,-0.7119,0.061,0.427,0.000,-138.653,18.523,-14.667
15064,-0.3174,-0.6245,-0.7095,-0.305,0.427,0.122,-138.658,18.523,-14.667
15074,-0.3213,-0.6235,-0.7100,-0.488,0.488,0.122,-138.664,18.523,-14.667
15084,-0.3218,-0.6226,-0.7100,-0.549,0.488,0.000,-138.675,18.523,-14.667
15094,-0.3198,-0.6216,-0.7109,-0.366,0.427,-0.122,-138.680,18.517,-14.667
15104,-0.3198,-0.6226,-0.7104,-0.122,0.366,-0.305,-138.680,18.517,-14.667
15114,-0.3174,-0.6260,-0.7114,0.000,0.183,-0.427,-138.680,18.512,-14.667
15124,-0.3169,-0.6279,-0.7100,0.061,-0.061,-0.549,-138.675,18.506,-14.667
15134,-0.3174,-0.6309,-0.7095,0.122,-0.244,-0.549,-138.669,18.506,-14.667
15144,-0.3193,-0.6309,-0.7090,0.244,-0.427,-0.427,-138.664,18.506,-14.667
15154,-0.3184,-0.6338,-0.7051,0.305,-0.488,-0.244,-138.653,18.512,-14.667
15165,-0.3184,-0.6323,-0.7036,0.183,-0.305,0.000,-138.642,18.512,-14.667
15174,-0.3193,-0.6333,-0.7026,0.000,0.183,0.305,-138.636,18.517,-14.667
15184,-0.3174,-0.6304,-0.7051,-0.183,0.610,0.488,-138.636,18.517,-14.667
15194,-0.3174,-0.6284,-0.7070,-0.305,0.977,0.549,-138.642,18.512,-14.667
15204,-0.3188,-0.6260,-0.7109,-0.305,1.099,0.671,-138.647,18.506,-14.667
15214,-0.3188,-0.6245,-0.7114,-0.183,1.099,0.671,-138.653,18.506,-14.667
15224,-0.3218,-0.6226,-0.7158,0.000,1.160,0.488,-138.664,18.501,-14.667
15234,-0.3198,-0.6250,-0.7144,0.183,1.099,0.366,-138.664,18.501,-14.667
15244,-0.3223,-0.6235,-0.7129,0.122,0.977,0.244,-138.669,18.495,-14.667
15254,-0.3193,-0.6240,-0.7139,-0.061,0.916,0.305,-138.675,18.490,-14.667
15264,-0.3174,-0.6260,-0.7139,-0.122,0.793,0.305,-138.680,18.490,-14.667
15274,-0.3174,-0.6270,-0.7129,-0.244,0.610,0.305,-138.680,18.484,-14.667
15284,-0.3179,-0.6235,-0.7148,-0.183,0.427,0.305,-138.686,18.484,-14.667
15294,-0.3174,-0.6250,-0.7139,-0.061,0.488,0.305,-138.691,18.484,-14.667
15304,-0.3198,-0.6250,-0.7158,0.000,0.488,0.305,-138.697,18.484,-14.667
15314,-0.3179,-0.6270,-0.7129,0.183,0.549,0.183,-138.697,18.479,-14.667
15324,-0.3188,-0.6270,-0.7124,0.183,0.366,0.244,-138.691,18.479,-14.667
15334,-0.3154,-0.6289,-0.7114,0.061,0.244,0.305,-138.691,18.479,-14.667
15344,-0.3159,-0.6279,-0.7134,-0.122,0.122,0.305,-138.697,18.479,-14.667
15354,-0.3135,-0.6274,-0.7144,-0.183,0.000,0.427,-138.697,18.479,-14.667
15364,-0.3154,-0.6265,-0.7124,-0.061,0.000,0.488,-138.697,18.484,-14.667
15374,-0.3159,-0.6265,-0.7134,0.122,0.122,0.549,-138.697,18.484,-14.667
15384,-0.3169,-0.6250,-0.7114,0.305,0.122,0.610,-138.697,18.484,-14.667
15394,-0.3184,-0.6235,-0.7114,0.427,0.183,0.610,-138.697,18.490,-14.667
15404,-0.3198,-0.6221,-0.7100,0.366,0.183,0.488,-138.697,18.495,-14.667
15414,-0.3184,-0.6211,-0.7085,0.244,0.244,0.366,-138.697,18.495,-14.667
15424,-0.3193,-0.6216,-0.7095,-0.061,0.427,0.244,-138.697,18.495,-14.667
15434,-0.3159,-0.6221,-0.7095,-0.305,0.427,0.183,-138.702,18.495,-14.667
15444,-0.3193,-0.6221,-0.7095,-0.488,0.366,0.122,-138.708,18.495,-14.667
15454,-0.3184,-0.6235,-0.7119,-0.549,0.366,0.122,-138.719,18.495,-14.667
15464,-0.3164,-0.6250,-0.7124,-0.549,0.427,0.061,-138.724,18.490,-14.667
15474,-0.3184,-0.6226,-0.7153,-0.549,0.427,0.061,-138.730,18.490,-14.667
15484,-0.3188,-0.6206,-0.7158,-0.427,0.244,0.183,-138.741,18.490,-14.667
15494,-0.3198,-0.6201,-0.7168,-0.061,0.000,0.183,-138.746,18.495,-14.667
15504,-0.3179,-0.6221,-0.7100,0.488,-0.366,-0.061,-138.741,18.495,-14.667
15514,-0.3169,-0.6250,-0.7065,0.793,-0.610,-0.305,-138.730,18.501,-14.667
15524,-0.3188,-0.6279,-0.7041,0.793,-0.549,-0.305,-138.713,18.506,-14.667
15534,-0.3174,-0.6313,-0.7036,0.305,-0.183,-0.244,-138.702,18.506,-14.667
15544,-0.3188,-0.6313,-0.7021,-0.427,0.305,-0.122,-138.702,18.501,-14.667
15554,-0.3169,-0.6289,-0.7070,-1.038,0.916,0.061,-138.708,18.495,-14.667
15564,-0.3169,-0.6304,-0.7124,-1.282,1.343,0.183,-138.724,18.484,-14.667
15575,-0.3164,-0.6294,-0.7134,-1.221,1.648,0.305,-138.741,18.474,-14.667
15585,-0.3169,-0.6284,-0.7148,-0.916,1.648,0.366,-138.752,18.468,-14.667
15595,-0.3159,-0.6265,-0.7183,-0.549,1.404,0.488,-138.763,18.457,-14.667
15605,-0.3154,-0.6250,-0.7202,-0.122,0.916,0.488,-138.768,18.452,-14.667
15615,-0.3169,-0.6226,-0.7197,0.244,0.366,0.427,-138.774,18.452,-14.667
15625,-0.3213,-0.6226,-0.7183,0.427,-0.244,0.366,-138.774,18.457,-14.667
15635,-0.3218,-0.6221,-0.7178,0.488,-0.671,0.244,-138.768,18.468,-14.667
15645,-0.3223,-0.6240,-0.7129,0.488,-0.916,0.061,-138.763,18.479,-14.667
15655,-0.3208,-0.6260,-0.7119,0.488,-0.977,-0.122,-138.757,18.484,-14.667
15665,-0.3188,-0.6284,-0.7109,0.366,-0.916,-0.183,-138.746,18.495,-14.667
15674,-0.3174,-0.6304,-0.7061,0.305,-0.793,-0.061,-138.735,18.501,-14.667
15685,-0.3174,-0.6313,-0.7065,0.244,-0.610,0.183,-138.730,18.506,-14.667
15695,-0.3188,-0.6304,-0.7041,0.183,-0.244,0.366,-138.724,18.512,-14.667
15705,-0.3203,-0.6294,-0.7036,0.000,0.061,0.488,-138.719,18.517,-14.667
15715,-0.3193,-0.6279,-0.7017,-0.244,0.549,0.610,-138.719,18.517,-14.667
15725,-0.3203,-0.6260,-0.7070,-0.427,0.854,0.671,-138.724,18.517,-14.667
15735,-0.3179,-0.6260,-0.7085,-0.549,1.038,0.671,-138.730,18.517,-14.667
15745,-0.3174,-0.6240,-0.7109,-0.549,1.160,0.671,-138.741,18.512,-14.667
15755,-0.3193,-0.6226,-0.7109,-0.427,0.977,0.671,-138.746,18.512,-14.667
15765,-0.3164,-0.6240,-0.7134,-0.244,0.732,0.549,-138.752,18.506,-14.667
15775,-0.3164,-0.6235,-0.7129,-0.244,0.488,0.427,-138.757,18.506,-14.667
15785,-0.3188,-0.6230,-0.7090,-0.122,0.122,0.427,-138.763,18.512,-14.667
15795,-0.3169,-0.6240,-0.7085,0.183,-0.061,0.244,-138.757,18.512,-14.667
15805,-0.3164,-0.6250,-0.7090,0.366,-0.061,0.183,-138.752,18.512,-14.667
15815,-0.3179,-0.6260,-0.7061,0.488,0.000,0.305,-138.746,18.517,-14.667
15825,-0.3184,-0.6270,-0.7061,0.610,0.122,0.427,-138.741,18.517,-14.667
15835,-0.3179,-0.6270,-0.7026,0.488,0.305,0.488,-138.730,18.523,-14.667
15845,-0.3174,-0.6260,-0.7017,0.244,0.610,0.427,-138.724,18.523,-14.667
15855,-0.3179,-0.6255,-0.7026,-0.183,1.038,0.427,-138.724,18.517,-14.667
15865,-0.3159,-0.6240,-0.7046,-0.671,1.465,0.427,-138.735,18.512,-14.667
15875,-0.3169,-0.6211,-0.7075,-0.977,1.831,0.488,-138.752,18.501,-14.667
15885,-0.3184,-0.6206,-0.7129,-1.038,2.075,0.427,-138.768,18.490,-14.667
15895,-0.3174,-0.6172,-0.7173,-0.854,2.014,0.366,-138.785,18.479,-14.667
15905,-0.3174,-0.6187,-0.7183,-0.549,1.892,0.244,-138.801,18.468,-14.667
15915,-0.3174,-0.6191,-0.7202,-0.122,1.709,0.183,-138.812,18.452,-14.667
15925,-0.3179,-0.6191,-0.7192,0.183,1.465,0.061,-138.818,18.446,-14.667
15935,-0.3174,-0.6216,-0.7217,0.488,1.160,-0.061,-138.818,18.435,-14.667
15945,-0.3159,-0.6230,-0.7207,0.549,0.854,-0.183,-138.818,18.424,-14.667
15955,-0.3154,-0.6245,-0.7202,0.488,0.488,-0.183,-138.818,18.419,-14.667
15965,-0.3188,-0.6250,-0.7192,0.427,0.183,-0.061,-138.818,18.419,-14.667
15975,-0.3184,-0.6250,-0.7187,0.366,-0.061,0.000,-138.812,18.419,-14.667
15985,-0.3164,-0.6245,-0.7197,0.366,-0.122,-0.061,-138.812,18.419,-14.667
15995,-0.3164,-0.6250,-0.7202,0.183,-0.122,-0.122,-138.812,18.419,-14.667
16005,-0.3174,-0.6274,-0.7144,-0.061,-0.122,-0.183,-138.812,18.419,-14.667
16015,-0.3164,-0.6265,-0.7114,-0.305,-0.183,-0.122,-138.812,18.424,-14.667
16025,-0.3140,-0.6240,-0.7134,-0.549,-0.244,-0.122,-138.818,18.424,-14.667
16035,-0.3154,-0.6230,-0.7144,-0.671,-0.183,0.000,-138.823,18.424,-14.667
16045,-0.3174,-0.6255,-0.7148,-0.488,-0.061,0.000,-138.829,18.424,-14.667
16055,-0.3169,-0.6255,-0.7153,-0.122,0.000,0.000,-138.829,18.424,-14.667
16065,-0.3154,-0.6265,-0.7148,0.183,-0.061,0.000,-138.829,18.424,-14.667
16075,-0.3164,-0.6260,-0.7119,0.244,-0.183,0.000,-138.823,18.424,-14.667
16085,-0.3188,-0.6265,-0.7119,0.244,-0.366,0.000,-138.818,18.430,-14.667
16095,-0.3179,-0.6235,-0.7109,0.183,-0.610,0.000,-138.812,18.435,-14.667
16105,-0.3164,-0.6230,-0.7109,0.122,-0.732,0.061,-138.812,18.441,-14.667
16115,-0.3154,-0.6260,-0.7051,0.061,-0.793,0.061,-138.801,18.452,-14.667
16125,-0.3169,-0.6235,-0.7056,0.000,-0.732,0.122,-138.801,18.457,-14.667
16135,-0.3184,-0.6216,-0.7070,0.061,-0.793,0.183,-138.796,18.468,-14.667
16145,-0.3203,-0.6206,-0.7036,0.366,-0.671,0.122,-138.790,18.474,-14.667
16155,-0.3208,-0.6216,-0.7017,0.610,-0.427,-0.183,-138.779,18.484,-14.667
16166,-0.3198,-0.6245,-0.6987,0.610,-0.061,-0.366,-138.768,18.484,-14.667
16175,-0.3188,-0.6260,-0.6968,0.122,0.000,-0.549,-138.757,18.484,-14.667
16185,-0.3164,-0.6270,-0.7017,-0.610,0.427,-0.488,-138.757,18.479,-14.667
16195,-0.3140,-0.6279,-0.7036,-1.282,0.671,-0.366,-138.763,18.468,-14.667
16205,-0.3149,-0.6279,-0.7114,-1.587,0.793,-0.244,-138.779,18.463,-14.667
16215,-0.3154,-0.6245,-0.7173,-1.343,0.916,0.000,-138.796,18.452,-14.667
16225,-0.3164,-0.6250,-0.7192,-0.671,0.916,0.122,-138.807,18.446,-14.667
16235,-0.3159,-0.6245,-0.7197,0.122,0.671,0.061,-138.812,18.441,-14.667
16245,-0.3154,-0.6240,-0.7173,0.732,0.366,0.000,-138.807,18.435,-14.667
16255,-0.3159,-0.6240,-0.7168,0.977,0.122,0.061,-138.796,18.435,-14.667
16265,-0.3184,-0.6230,-0.7168,0.916,-0.122,0.061,-138.790,18.441,-14.667
