elapsed_ms,acc_x_g,acc_y_g,acc_z_g,gyro_x_dps,gyro_y_dps,gyro_z_dps,angle_x_deg,angle_y_deg,angle_z_deg
0,-0.3267,-0.6406,-0.6748,0.000,0.183,0.366,-136.780,18.710,-13.859
10,-0.3262,-0.6416,-0.6748,-0.488,0.793,0.183,-136.785,18.710,-13.865
20,-0.3232,-0.6406,-0.6787,-0.916,1.282,0.122,-136.796,18.704,-13.876
31,-0.3208,-0.6431,-0.6792,-1.282,1.404,-0.061,-136.813,18.699,-13.887
40,-0.3188,-0.6450,-0.6836,-1.526,1.465,-0.183,-136.829,18.688,-13.898
50,-0.3188,-0.6460,-0.6826,-1.709,1.465,-0.244,-136.846,18.677,-13.903
61,-0.3179,-0.6465,-0.6851,-1.770,1.404,-0.305,-136.862,18.660,-13.914
70,-0.3159,-0.6460,-0.6890,-1.587,1.343,-0.366,-136.879,18.649,-13.920
80,-0.3149,-0.6489,-0.6914,-1.221,1.221,-0.366,-136.895,18.633,-13.925
91,-0.3145,-0.6509,-0.6904,-0.671,0.977,-0.244,-136.901,18.622,-13.931
101,-0.3159,-0.6548,-0.6919,-0.122,0.732,-0.244,-136.901,18.611,-13.936
111,-0.3169,-0.6553,-0.6870,0.244,0.610,-0.061,-136.890,18.605,-13.936
120,-0.3164,-0.6562,-0.6875,0.305,0.732,0.183,-136.884,18.600,-13.936
130,-0.3174,-0.6553,-0.6904,0.183,0.793,0.488,-136.884,18.594,-13.936
140,-0.3188,-0.6548,-0.6909,-0.183,1.038,0.671,-136.884,18.594,-13.936
150,-0.3213,-0.6528,-0.6958,-0.427,1.343,0.916,-136.895,18.589,-13.936
160,-0.3203,-0.6509,-0.6987,-0.610,1.587,0.916,-136.906,18.583,-13.936
170,-0.3184,-0.6465,-0.7007,-0.610,1.526,0.854,-136.923,18.578,-13.936
180,-0.3164,-0.6450,-0.7036,-0.427,0.977,0.793,-136.939,18.572,-13.936
190,-0.3184,-0.6445,-0.7051,0.000,0.305,0.671,-136.945,18.572,-13.936
200,-0.3208,-0.6440,-0.7041,0.549,-0.488,0.549,-136.945,18.583,-13.936
210,-0.3223,-0.6411,-0.6992,1.282,-1.099,0.366,-136.939,18.594,-13.936
220,-0.3237,-0.6416,-0.6943,1.953,-1.343,0.244,-136.917,18.611,-13.936
230,-0.3257,-0.6426,-0.6890,2.258,-1.465,0.183,-136.895,18.627,-13.936
240,-0.3218,-0.6455,-0.6860,2.258,-1.282,0.122,-136.868,18.638,-13.936
251,-0.3232,-0.6504,-0.6846,1.709,-0.916,0.061,-136.846,18.649,-13.936
261,-0.3228,-0.6489,-0.6851,0.854,-0.549,0.183,-136.835,18.655,-13.936
270,-0.3237,-0.6504,-0.6855,0.000,-0.122,0.427,-136.829,18.660,-13.936
281,-0.3223,-0.6504,-0.6870,-0.610,0.305,0.610,-136.835,18.666,-13.936
291,-0.3188,-0.6489,-0.6899,-0.793,0.427,0.610,-136.846,18.666,-13.936
301,-0.3169,-0.6460,-0.6919,-0.732,0.366,0.732,-136.857,18.666,-13.936
311,-0.3174,-0.6470,-0.6919,-0.427,0.244,0.916,-136.862,18.666,-13.936
321,-0.3179,-0.6436,-0.6899,0.061,0.061,1.099,-136.868,18.677,-13.947
331,-0.3174,-0.6416,-0.6895,0.488,-0.061,1.099,-136.868,18.682,-13.953
341,-0.3164,-0.6392,-0.6875,0.793,-0.183,0.977,-136.862,18.688,-13.958
351,-0.3154,-0.6396,-0.6890,0.916,-0.122,0.671,-136.857,18.693,-13.964
361,-0.3140,-0.6426,-0.6851,0.854,-0.244,0.305,-136.851,18.693,-13.964
371,-0.3145,-0.6421,-0.6855,0.610,-0.549,0.061,-136.840,18.699,-13.964
381,-0.3169,-0.6431,-0.6841,0.244,-0.916,-0.061,-136.835,18.704,-13.953
391,-0.3164,-0.6455,-0.6821,0.122,-1.099,-0.183,-136.829,18.710,-13.947
401,-0.3169,-0.6465,-0.6807,0.000,-0.977,-0.244,-136.824,18.715,-13.936
411,-0.3179,-0.6479,-0.6787,-0.122,-0.427,-0.244,-136.818,18.715,-13.931
421,-0.3154,-0.6470,-0.6807,-0.183,0.244,-0.183,-136.818,18.710,-13.931
431,-0.3184,-0.6470,-0.6841,-0.183,0.732,-0.061,-136.818,18.704,-13.936
441,-0.3184,-0.6431,-0.6836,-0.244,0.854,-0.061,-136.824,18.699,-13.942
451,-0.3169,-0.6411,-0.6831,-0.183,0.549,-0.183,-136.824,18.693,-13.947
461,-0.3213,-0.6426,-0.6826,-0.244,0.122,-0.366,-136.824,18.693,-13.942
471,-0.3228,-0.6445,-0.6826,-0.427,0.000,-0.610,-136.824,18.693,-13.936
481,-0.3237,-0.6479,-0.6797,-0.793,0.183,-0.916,-136.829,18.688,-13.931
491,-0.3218,-0.6489,-0.6836,-1.343,0.671,-1.160,-136.835,18.677,-13.931
501,-0.3213,-0.6523,-0.6895,-1.953,1.343,-1.160,-136.851,18.660,-13.931
511,-0.3193,-0.6543,-0.6919,-2.258,1.770,-0.977,-136.873,18.638,-13.936
521,-0.3193,-0.6548,-0.6919,-2.197,1.770,-0.732,-136.895,18.622,-13.942
531,-0.3213,-0.6538,-0.6943,-1.709,1.404,-0.488,-136.912,18.605,-13.947
541,-0.3193,-0.6548,-0.6953,-0.977,0.793,-0.183,-136.923,18.600,-13.953
551,-0.3208,-0.6553,-0.6963,-0.366,0.366,0.244,-136.923,18.594,-13.958
561,-0.3174,-0.6538,-0.7007,0.244,0.122,0.488,-136.923,18.594,-13.964
571,-0.3174,-0.6533,-0.7012,0.793,0.061,0.610,-136.917,18.600,-13.969
581,-0.3159,-0.6499,-0.6982,1.038,-0.122,0.671,-136.912,18.600,-13.969
591,-0.3169,-0.6499,-0.6982,1.160,-0.488,0.793,-136.901,18.605,-13.975
601,-0.3169,-0.6484,-0.6943,1.160,-0.854,0.916,-136.890,18.616,-13.975
611,-0.3179,-0.6431,-0.6919,1.038,-0.977,0.854,-136.884,18.633,-13.975
621,-0.3232,-0.6426,-0.6919,0.854,-0.977,0.671,-136.879,18.644,-13.975
631,-0.3237,-0.6411,-0.6875,0.732,-0.732,0.549,-136.868,18.655,-13.969
641,-0.3232,-0.6426,-0.6904,0.488,-0.244,0.366,-136.868,18.666,-13.975
651,-0.3257,-0.6421,-0.6885,0.122,0.244,0.305,-136.868,18.666,-13.975
661,-0.3237,-0.6431,-0.6899,-0.305,0.610,0.183,-136.873,18.666,-13.980
671,-0.3213,-0.6450,-0.6924,-0.732,0.549,0.122,-136.884,18.666,-13.986
681,-0.3169,-0.6450,-0.6938,-1.099,0.061,0.244,-136.901,18.666,-13.991
691,-0.3149,-0.6436,-0.6963,-1.160,-0.610,0.183,-136.912,18.666,-13.986
701,-0.3145,-0.6445,-0.6958,-0.854,-1.160,0.000,-136.923,18.671,-13.980
711,-0.3149,-0.6440,-0.6938,-0.244,-1.465,-0.244,-136.923,18.677,-13.964
721,-0.3145,-0.6450,-0.6904,0.610,-1.587,-0.305,-136.912,18.688,-13.953
731,-0.3154,-0.6494,-0.6865,1.343,-1.648,-0.366,-136.890,18.693,-13.936
741,-0.3135,-0.6523,-0.6836,1.770,-1.587,-0.366,-136.862,18.699,-13.925
751,-0.3164,-0.6509,-0.6792,1.709,-1.343,-0.061,-136.835,18.710,-13.914
761,-0.3213,-0.6499,-0.6782,1.404,-1.038,0.305,-136.813,18.721,-13.909
771,-0.3232,-0.6465,-0.6758,0.977,-0.488,0.488,-136.802,18.726,-13.909
781,-0.3252,-0.6440,-0.6758,0.549,0.183,0.488,-136.791,18.737,-13.914
791,-0.3247,-0.6421,-0.6758,-0.061,0.916,0.427,-136.791,18.737,-13.925
801,-0.3232,-0.6440,-0.6768,-0.671,1.465,0.244,-136.796,18.732,-13.936
811,-0.3223,-0.6431,-0.6807,-1.282,1.953,0.244,-136.813,18.721,-13.953
821,-0.3179,-0.6431,-0.6846,-1.831,1.953,0.122,-136.840,18.710,-13.969
831,-0.3174,-0.6416,-0.6919,-1.953,1.709,-0.061,-136.862,18.693,-13.980
841,-0.3188,-0.6411,-0.6958,-1.770,1.160,-0.183,-136.890,18.682,-13.986
851,-0.3198,-0.6421,-0.6963,-1.099,0.793,-0.305,-136.906,18.677,-13.991
861,-0.3179,-0.6450,-0.6934,-0.305,0.427,-0.427,-136.912,18.671,-13.991
871,-0.3179,-0.6484,-0.6929,0.366,0.366,-0.671,-136.906,18.660,-13.986
881,-0.3179,-0.6514,-0.6924,0.671,0.305,-0.610,-136.895,18.649,-13.986
891,-0.3193,-0.6548,-0.6890,0.549,0.305,-0.488,-136.884,18.644,-13.980
901,-0.3208,-0.6519,-0.6870,0.244,0.366,-0.305,-136.879,18.644,-13.980
911,-0.3203,-0.6523,-0.6909,-0.183,0.427,-0.122,-136.879,18.638,-13.986
921,-0.3193,-0.6523,-0.6919,-0.488,0.488,0.122,-136.884,18.633,-13.991
931,-0.3169,-0.6499,-0.6934,-0.549,0.366,0.244,-136.890,18.633,-13.991
941,-0.3159,-0.6465,-0.6934,-0.488,0.244,0.366,-136.895,18.627,-13.997
951,-0.3164,-0.6426,-0.6934,-0.305,0.183,0.305,-136.906,18.627,-14.002
961,-0.3164,-0.6436,-0.6899,-0.061,0.122,0.183,-136.906,18.627,-14.002
971,-0.3164,-0.6421,-0.6934,0.122,0.061,0.122,-136.906,18.627,-14.008
981,-0.3174,-0.6411,-0.6904,0.366,0.183,0.122,-136.906,18.627,-14.008
991,-0.3198,-0.6426,-0.6924,0.427,0.305,0.000,-136.906,18.627,-14.008
1001,-0.3208,-0.6440,-0.6924,0.366,0.549,-0.183,-136.906,18.622,-14.013
1011,-0.3223,-0.6445,-0.6914,0.122,0.610,-0.305,-136.906,18.616,-14.013
1021,-0.3223,-0.6460,-0.6914,-0.183,0.610,-0.305,-136.906,18.611,-14.019
1031,-0.3218,-0.6475,-0.6934,-0.549,0.549,-0.244,-136.917,18.611,-14.019
1041,-0.3208,-0.6470,-0.6934,-0.854,0.427,-0.183,-136.923,18.605,-14.019
1051,-0.3208,-0.6479,-0.6963,-0.854,0.366,-0.061,-136.934,18.600,-14.024
1062,-0.3188,-0.6475,-0.6992,-0.610,0.183,0.061,-136.945,18.600,-14.024
1071,-0.3179,-0.6484,-0.7021,-0.366,-0.183,0.122,-136.950,18.600,-14.024
1081,-0.3184,-0.6455,-0.7012,0.122,-0.610,0.183,-136.956,18.605,-14.019
1091,-0.3188,-0.6436,-0.7002,0.671,-0.977,0.183,-136.950,18.611,-14.013
1101,-0.3193,-0.6421,-0.6963,1.282,-1.343,-0.061,-136.939,18.622,-14.008
1111,-0.3203,-0.6436,-0.6899,1.709,-1.587,-0.427,-136.917,18.633,-13.991
1121,-0.3198,-0.6460,-0.6846,1.648,-1.526,-0.671,-136.890,18.638,-13.975
1131,-0.3188,-0.6484,-0.6802,1.038,-1.282,-0.854,-136.873,18.644,-13.958
1141,-0.3188,-0.6504,-0.6797,0.061,-0.977,-0.854,-136.862,18.649,-13.947
1151,-0.3174,-0.6523,-0.6841,-0.793,-0.671,-0.732,-136.862,18.644,-13.936
1161,-0.3179,-0.6533,-0.6841,-1.343,-0.366,-0.488,-136.868,18.644,-13.925
1171,-0.3198,-0.6519,-0.6890,-1.404,-0.061,-0.244,-136.879,18.644,-13.925
1182,-0.3208,-0.6519,-0.6904,-1.038,0.061,-0.061,-136.884,18.644,-13.925
1191,-0.3213,-0.6499,-0.6890,-0.366,0.122,0.000,-136.884,18.644,-13.925
1201,-0.3218,-0.6519,-0.6875,0.244,0.122,0.061,-136.879,18.644,-13.925
1211,-0.3184,-0.6514,-0.6875,0.549,0.000,0.244,-136.873,18.644,-13.931
1221,-0.3198,-0.6494,-0.6855,0.488,-0.244,0.366,-136.862,18.649,-13.931
1231,-0.3184,-0.6489,-0.6851,0.183,-0.488,0.488,-136.862,18.655,-13.931
1241,-0.3179,-0.6455,-0.6865,-0.122,-0.671,0.549,-136.862,18.666,-13.931
1251,-0.3184,-0.6455,-0.6865,-0.061,-0.549,0.427,-136.857,18.671,-13.931
1261,-0.3164,-0.6431,-0.6860,0.244,-0.366,0.183,-136.857,18.677,-13.931
1271,-0.3179,-0.6450,-0.6870,0.610,-0.061,0.061,-136.851,18.677,-13.931
1281,-0.3179,-0.6460,-0.6860,0.854,0.305,0.000,-136.840,18.671,-13.931
1291,-0.3179,-0.6470,-0.6860,0.732,0.549,0.061,-136.835,18.671,-13.936
1301,-0.3184,-0.6460,-0.6870,0.366,0.549,0.122,-136.829,18.666,-13.942
1311,-0.3198,-0.6440,-0.6895,-0.122,0.488,0.183,-136.835,18.666,-13.947
1321,-0.3228,-0.6401,-0.6895,-0.427,0.488,0.122,-136.840,18.666,-13.947
1331,-0.3208,-0.6392,-0.6875,-0.671,0.427,0.000,-136.851,18.660,-13.953
1341,-0.3228,-0.6392,-0.6895,-0.732,0.427,-0.183,-136.862,18.660,-13.953
1351,-0.3223,-0.6416,-0.6919,-0.793,0.549,-0.305,-136.873,18.655,-13.958
1361,-0.3198,-0.6436,-0.6909,-0.793,0.488,-0.427,-136.884,18.649,-13.958
1371,-0.3184,-0.6479,-0.6914,-0.916,0.183,-0.549,-136.890,18.644,-13.953
1381,-0.3169,-0.6489,-0.6924,-0.916,-0.183,-0.549,-136.901,18.644,-13.947
1391,-0.3179,-0.6484,-0.6890,-0.671,-0.427,-0.549,-136.901,18.638,-13.942
1401,-0.3184,-0.6504,-0.6899,-0.244,-0.549,-0.610,-136.901,18.638,-13.931
1411,-0.3188,-0.6528,-0.6880,0.122,-0.549,-0.549,-136.890,18.638,-13.925
1421,-0.3184,-0.6562,-0.6846,0.366,-0.366,-0.366,-136.879,18.638,-13.920
1431,-0.3193,-0.6553,-0.6836,0.305,-0.183,-0.122,-136.868,18.638,-13.914
1441,-0.3174,-0.6562,-0.6841,0.244,-0.122,0.122,-136.862,18.638,-13.914
1451,-0.3203,-0.6533,-0.6855,0.244,-0.122,0.305,-136.851,18.644,-13.914
1461,-0.3198,-0.6514,-0.6851,0.305,0.061,0.427,-136.846,18.644,-13.920
1471,-0.3198,-0.6514,-0.6870,0.366,0.366,0.549,-136.840,18.649,-13.925
1481,-0.3223,-0.6475,-0.6895,0.244,0.610,0.549,-136.840,18.649,-13.936
1491,-0.3228,-0.6479,-0.6914,0.122,0.854,0.488,-136.846,18.644,-13.947
1501,-0.3237,-0.6475,-0.6914,-0.122,0.854,0.427,-136.851,18.644,-13.947
1511,-0.3223,-0.6440,-0.6948,-0.305,0.977,0.427,-136.857,18.644,-13.947
1521,-0.3218,-0.6426,-0.6973,-0.366,0.977,0.427,-136.868,18.638,-13.947
1531,-0.3198,-0.6431,-0.6997,-0.244,0.671,0.366,-136.879,18.638,-13.947
1541,-0.3213,-0.6426,-0.7002,0.183,0.183,0.244,-136.884,18.638,-13.947
1551,-0.3213,-0.6445,-0.6978,0.549,-0.366,0.122,-136.884,18.644,-13.947
1562,-0.3203,-0.6445,-0.6968,0.732,-0.732,0.000,-136.879,18.649,-13.947
1571,-0.3184,-0.6440,-0.6929,0.732,-0.854,0.000,-136.868,18.655,-13.947
1581,-0.3174,-0.6450,-0.6948,0.549,-0.977,-0.061,-136.868,18.660,-13.947
1591,-0.3169,-0.6484,-0.6943,0.427,-0.916,-0.061,-136.862,18.660,-13.947
1601,-0.3169,-0.6465,-0.6958,0.244,-0.916,0.000,-136.857,18.666,-13.947
1611,-0.3174,-0.6455,-0.6904,0.366,-0.854,0.122,-136.851,18.671,-13.947
1621,-0.3169,-0.6455,-0.6860,0.610,-0.854,0.183,-136.846,18.677,-13.947
1631,-0.3232,-0.6445,-0.6841,0.793,-0.854,0.122,-136.835,18.688,-13.947
1641,-0.3208,-0.6450,-0.6797,0.793,-0.671,0.122,-136.818,18.699,-13.947
1651,-0.3184,-0.6470,-0.6787,0.549,-0.366,0.122,-136.813,18.699,-13.947
1661,-0.3188,-0.6455,-0.6763,0.122,-0.122,0.122,-136.802,18.704,-13.947
1671,-0.3228,-0.6440,-0.6797,-0.366,0.244,0.183,-136.807,18.704,-13.947
1681,-0.3223,-0.6460,-0.6816,-0.793,0.549,0.122,-136.813,18.704,-13.947
1691,-0.3203,-0.6436,-0.6831,-0.916,0.854,0.061,-136.824,18.704,-13.947
1701,-0.3198,-0.6470,-0.6855,-0.854,1.099,0.000,-136.835,18.693,-13.947
1711,-0.3184,-0.6479,-0.6919,-0.793,1.221,-0.061,-136.846,18.682,-13.947
1721,-0.3164,-0.6479,-0.6934,-0.793,1.160,-0.061,-136.857,18.671,-13.947
1731,-0.3174,-0.6479,-0.6938,-0.732,0.977,-0.061,-136.862,18.666,-13.947
1741,-0.3184,-0.6431,-0.6948,-0.488,0.610,0.000,-136.873,18.660,-13.947
1751,-0.3203,-0.6426,-0.6943,0.000,0.244,0.061,-136.879,18.655,-13.947
1761,-0.3232,-0.6436,-0.6890,0.427,0.000,-0.183,-136.873,18.660,-13.947
1771,-0.3208,-0.6431,-0.6875,0.488,-0.061,-0.427,-136.868,18.660,-13.947
1781,-0.3203,-0.6470,-0.6860,0.183,0.000,-0.671,-136.862,18.655,-13.947
1791,-0.3198,-0.6494,-0.6860,-0.427,0.183,-0.732,-136.862,18.649,-13.947
1801,-0.3203,-0.6519,-0.6885,-0.977,0.305,-0.610,-136.868,18.644,-13.947
1811,-0.3188,-0.6509,-0.6899,-1.160,0.427,-0.427,-136.879,18.638,-13.947
1821,-0.3184,-0.6509,-0.6904,-0.854,0.305,-0.305,-136.884,18.633,-13.947
1831,-0.3208,-0.6514,-0.6938,-0.366,0.305,-0.183,-136.890,18.627,-13.947
1841,-0.3164,-0.6509,-0.6914,0.183,0.244,-0.122,-136.884,18.622,-13.947
1851,-0.3145,-0.6499,-0.6909,0.427,0.122,-0.061,-136.879,18.616,-13.947
1861,-0.3149,-0.6489,-0.6904,0.305,0.000,0.061,-136.873,18.616,-13.947
1871,-0.3149,-0.6450,-0.6890,0.122,-0.122,0.244,-136.873,18.616,-13.947
1881,-0.3184,-0.6431,-0.6899,0.061,-0.183,0.366,-136.879,18.622,-13.947
1891,-0.3184,-0.6416,-0.6899,0.183,-0.122,0.244,-136.879,18.627,-13.947
1901,-0.3193,-0.6411,-0.6929,0.427,0.122,0.061,-136.879,18.627,-13.947
1911,-0.3208,-0.6426,-0.6919,0.610,0.183,-0.122,-136.873,18.622,-13.947
1921,-0.3188,-0.6450,-0.6895,0.610,0.122,-0.305,-136.868,18.622,-13.947
1931,-0.3188,-0.6455,-0.6895,0.305,-0.061,-0.427,-136.862,18.622,-13.947
1941,-0.3213,-0.6460,-0.6895,-0.061,-0.122,-0.427,-136.862,18.622,-13.947
1951,-0.3203,-0.6465,-0.6885,-0.244,-0.061,-0.488,-136.862,18.616,-13.947
1961,-0.3218,-0.6470,-0.6875,-0.244,0.183,-0.549,-136.862,18.616,-13.947
1971,-0.3208,-0.6489,-0.6919,-0.427,0.732,-0.488,-136.868,18.605,-13.947
1981,-0.3218,-0.6514,-0.6938,-0.610,0.854,-0.366,-136.873,18.600,-13.947
1991,-0.3203,-0.6494,-0.6987,-0.854,0.793,-0.366,-136.884,18.589,-13.947
2001,-0.3198,-0.6475,-0.6992,-0.977,0.427,-0.183,-136.901,18.583,-13.947
2011,-0.3213,-0.6479,-0.7002,-0.793,0.061,-0.122,-136.912,18.583,-13.947
2021,-0.3198,-0.6484,-0.6997,-0.366,-0.366,-0.183,-136.912,18.583,-13.947
2031,-0.3184,-0.6479,-0.6958,0.244,-0.793,-0.305,-136.912,18.589,-13.947
2041,-0.3184,-0.6489,-0.6963,0.854,-1.099,-0.427,-136.901,18.594,-13.947
2051,-0.3179,-0.6514,-0.6919,1.160,-1.404,-0.366,-136.884,18.600,-13.947
2062,-0.3184,-0.6514,-0.6890,1.221,-1.526,-0.244,-136.862,18.611,-13.947
2071,-0.3174,-0.6494,-0.6855,1.160,-1.587,0.061,-136.846,18.622,-13.947
2081,-0.3188,-0.6494,-0.6841,1.099,-1.587,0.122,-136.829,18.633,-13.947
2091,-0.3188,-0.6465,-0.6812,1.038,-1.526,0.122,-136.813,18.644,-13.947
2101,-0.3198,-0.6479,-0.6782,1.038,-1.160,0.061,-136.791,18.655,-13.947
2111,-0.3198,-0.6519,-0.6763,0.793,-0.732,0.061,-136.774,18.666,-13.947
2121,-0.3184,-0.6504,-0.6792,0.244,-0.183,0.061,-136.769,18.666,-13.947
2131,-0.3188,-0.6489,-0.6802,-0.366,0.305,0.244,-136.769,18.666,-13.947
2141,-0.3169,-0.6470,-0.6841,-0.854,0.671,0.244,-136.780,18.660,-13.947
2151,-0.3193,-0.6455,-0.6865,-1.038,0.916,0.244,-136.791,18.660,-13.947
2161,-0.3193,-0.6445,-0.6880,-0.977,1.038,0.244,-136.802,18.655,-13.947
2171,-0.3208,-0.6455,-0.6870,-0.671,0.977,0.244,-136.813,18.649,-13.947
2181,-0.3198,-0.6455,-0.6899,-0.305,0.977,0.183,-136.818,18.644,-13.947
2191,-0.3218,-0.6484,-0.6885,0.000,0.793,0.122,-136.818,18.638,-13.947
2201,-0.3218,-0.6489,-0.6895,0.061,0.549,0.061,-136.818,18.638,-13.947
2211,-0.3188,-0.6499,-0.6870,-0.061,0.366,0.000,-136.818,18.633,-13.947
2221,-0.3193,-0.6538,-0.6899,-0.244,0.305,0.061,-136.818,18.633,-13.947
2231,-0.3169,-0.6533,-0.6909,-0.427,0.183,0.183,-136.824,18.633,-13.947
2241,-0.3169,-0.6528,-0.6914,-0.427,0.122,0.366,-136.829,18.633,-13.947
2251,-0.3184,-0.6528,-0.6895,-0.183,0.122,0.488,-136.829,18.633,-13.947
2261,-0.3198,-0.6519,-0.6904,0.305,0.244,0.671,-136.824,18.633,-13.947
2271,-0.3193,-0.6494,-0.6914,0.671,0.366,0.732,-136.818,18.638,-13.947
2281,-0.3203,-0.6470,-0.6919,0.977,0.488,0.793,-136.813,18.638,-13.947
2291,-0.3213,-0.6460,-0.6948,0.977,0.488,0.793,-136.813,18.644,-13.947
2301,-0.3213,-0.6436,-0.6924,0.854,0.305,0.793,-136.807,18.644,-13.947
2311,-0.3242,-0.6445,-0.6934,0.671,0.000,0.671,-136.807,18.655,-13.947
2321,-0.3237,-0.6431,-0.6914,0.610,-0.366,0.427,-136.802,18.660,-13.947
2331,-0.3213,-0.6436,-0.6909,0.549,-0.610,0.244,-136.796,18.671,-13.947
2341,-0.3218,-0.6460,-0.6890,0.427,-0.671,0.122,-136.791,18.677,-13.947
2351,-0.3179,-0.6514,-0.6851,0.183,-0.549,0.000,-136.785,18.677,-13.947
2361,-0.3179,-0.6519,-0.6885,-0.305,-0.305,0.061,-136.785,18.682,-13.947
2371,-0.3184,-0.6499,-0.6890,-0.793,0.122,0.183,-136.796,18.682,-13.947
2381,-0.3164,-0.6470,-0.6919,-1.038,0.488,0.366,-136.807,18.677,-13.947
2391,-0.3169,-0.6421,-0.6943,-0.916,0.610,0.488,-136.824,18.671,-13.947
2401,-0.3174,-0.6416,-0.6943,-0.488,0.488,0.366,-136.835,18.671,-13.947
2411,-0.3164,-0.6436,-0.6934,0.000,0.305,0.183,-136.840,18.671,-13.947
2421,-0.3164,-0.6440,-0.6899,0.305,0.000,0.122,-136.840,18.671,-13.947
2431,-0.3188,-0.6426,-0.6875,0.366,-0.244,-0.061,-136.835,18.671,-13.947
2441,-0.3208,-0.6455,-0.6870,0.366,-0.244,-0.183,-136.829,18.671,-13.947
2451,-0.3203,-0.6475,-0.6880,0.122,-0.183,-0.366,-136.824,18.671,-13.947
2461,-0.3198,-0.6484,-0.6870,-0.061,-0.183,-0.427,-136.824,18.671,-13.947
2471,-0.3223,-0.6504,-0.6904,-0.244,-0.183,-0.244,-136.824,18.671,-13.947
2481,-0.3213,-0.6504,-0.6870,-0.244,-0.122,-0.061,-136.824,18.671,-13.947
2491,-0.3213,-0.6499,-0.6890,-0.183,-0.061,0.000,-136.824,18.671,-13.947
2501,-0.3228,-0.6489,-0.6870,0.061,0.183,0.122,-136.824,18.677,-13.947
2511,-0.3228,-0.6499,-0.6855,0.183,0.427,0.183,-136.818,18.677,-13.947
2521,-0.3228,-0.6489,-0.6870,0.122,0.732,0.183,-136.818,18.671,-13.947
2531,-0.3218,-0.6499,-0.6890,-0.122,0.854,0.183,-136.818,18.671,-13.947
2541,-0.3213,-0.6489,-0.6875,-0.366,0.854,0.122,-136.824,18.666,-13.947
2551,-0.3174,-0.6494,-0.6914,-0.610,0.671,0.183,-136.829,18.660,-13.947
2562,-0.3179,-0.6509,-0.6934,-0.671,0.427,0.183,-136.840,18.655,-13.947
2571,-0.3154,-0.6494,-0.6924,-0.488,0.122,0.244,-136.846,18.655,-13.947
2581,-0.3174,-0.6523,-0.6924,-0.183,-0.061,0.305,-136.846,18.655,-13.947
2591,-0.3188,-0.6514,-0.6929,0.244,0.000,0.366,-136.840,18.655,-13.947
2601,-0.3193,-0.6499,-0.6929,0.610,0.122,0.427,-136.840,18.655,-13.947
2611,-0.3208,-0.6479,-0.6904,0.671,0.122,0.549,-136.835,18.660,-13.947
2621,-0.3232,-0.6489,-0.6909,0.610,0.183,0.610,-136.829,18.666,-13.947
2631,-0.3228,-0.6465,-0.6929,0.427,0.122,0.671,-136.829,18.671,-13.947
2641,-0.3242,-0.6455,-0.6909,0.366,-0.122,0.610,-136.824,18.677,-13.947
2651,-0.3237,-0.6431,-0.6909,0.305,-0.305,0.427,-136.824,18.688,-13.947
2661,-0.3237,-0.6436,-0.6914,0.305,-0.549,0.244,-136.824,18.693,-13.947
2671,-0.3208,-0.6440,-0.6895,0.244,-0.854,0.061,-136.824,18.699,-13.947
2681,-0.3193,-0.6460,-0.6880,0.183,-1.099,0.000,-136.818,18.710,-13.947
2691,-0.3208,-0.6509,-0.6821,0.183,-1.038,0.000,-136.807,18.715,-13.947
2701,-0.3208,-0.6509,-0.6821,0.061,-0.793,0.061,-136.802,18.726,-13.947
2711,-0.3208,-0.6494,-0.6792,0.061,-0.305,0.244,-136.796,18.726,-13.947
2721,-0.3203,-0.6519,-0.6821,0.061,0.244,0.427,-136.791,18.732,-13.947
2731,-0.3213,-0.6519,-0.6807,-0.122,0.793,0.488,-136.791,18.726,-13.947
2741,-0.3193,-0.6499,-0.6836,-0.488,1.160,0.610,-136.796,18.726,-13.947
2751,-0.3174,-0.6494,-0.6855,-0.793,1.343,0.732,-136.807,18.721,-13.947
2761,-0.3159,-0.6499,-0.6899,-0.916,1.343,0.793,-136.818,18.710,-13.947
2771,-0.3159,-0.6475,-0.6909,-0.793,1.160,0.793,-136.829,18.704,-13.947
2781,-0.3164,-0.6455,-0.6934,-0.427,0.977,0.793,-136.840,18.699,-13.947
2791,-0.3198,-0.6426,-0.6934,-0.061,0.793,0.854,-136.851,18.699,-13.947
2802,-0.3203,-0.6445,-0.6953,0.366,0.610,0.793,-136.851,18.704,-13.947
2812,-0.3218,-0.6426,-0.6938,0.671,0.427,0.671,-136.851,18.704,-13.947
2821,-0.3228,-0.6436,-0.6909,0.854,0.244,0.549,-136.846,18.710,-13.947
2832,-0.3213,-0.6450,-0.6890,0.793,0.122,0.366,-136.840,18.710,-13.947
2842,-0.3213,-0.6421,-0.6865,0.549,0.061,0.244,-136.835,18.715,-13.947
2852,-0.3208,-0.6440,-0.6895,0.305,-0.061,0.183,-136.835,18.715,-13.947
2862,-0.3218,-0.6475,-0.6870,-0.122,-0.122,0.122,-136.835,18.721,-13.947
2872,-0.3213,-0.6489,-0.6895,-0.549,-0.183,0.061,-136.840,18.721,-13.947
2882,-0.3213,-0.6484,-0.6875,-0.671,-0.122,0.122,-136.846,18.721,-13.947
2892,-0.3203,-0.6494,-0.6899,-0.610,0.061,0.183,-136.851,18.721,-13.947
2902,-0.3203,-0.6499,-0.6870,-0.366,0.427,0.183,-136.851,18.721,-13.947
2912,-0.3198,-0.6504,-0.6870,-0.244,0.793,0.305,-136.857,18.715,-13.947
2922,-0.3203,-0.6499,-0.6865,-0.122,1.099,0.488,-136.857,18.715,-13.947
2932,-0.3203,-0.6494,-0.6851,-0.061,1.282,0.671,-136.857,18.710,-13.947
2942,-0.3188,-0.6489,-0.6875,-0.122,1.282,0.732,-136.862,18.704,-13.947
2952,-0.3198,-0.6484,-0.6890,-0.244,1.221,0.732,-136.868,18.699,-13.947
2962,-0.3193,-0.6489,-0.6929,-0.488,0.977,0.854,-136.879,18.699,-13.947
2972,-0.3213,-0.6475,-0.6953,-0.671,0.732,0.854,-136.890,18.699,-13.947
2982,-0.3218,-0.6455,-0.6948,-0.549,0.549,0.793,-136.901,18.699,-13.947
2992,-0.3193,-0.6475,-0.6953,-0.183,0.366,0.671,-136.906,18.699,-13.947
3002,-0.3149,-0.6465,-0.6963,0.122,0.061,0.610,-136.906,18.699,-13.947
3012,-0.3159,-0.6440,-0.6963,0.366,-0.244,0.732,-136.912,18.704,-13.947
3022,-0.3169,-0.6416,-0.6968,0.671,-0.305,0.977,-136.906,18.710,-13.947
3032,-0.3203,-0.6372,-0.6934,0.977,-0.427,0.977,-136.906,18.721,-13.947
3042,-0.3208,-0.6387,-0.6924,1.160,-0.427,0.671,-136.901,18.732,-13.947
3052,-0.3203,-0.6396,-0.6880,1.282,-0.366,0.305,-136.890,18.737,-13.947
3062,-0.3198,-0.6416,-0.6860,1.038,-0.427,0.061,-136.879,18.737,-13.947
3072,-0.3198,-0.6440,-0.6826,0.427,-0.366,-0.122,-136.868,18.743,-13.947
3082,-0.3203,-0.6426,-0.6841,-0.305,-0.244,-0.183,-136.873,18.743,-13.947
3092,-0.3208,-0.6460,-0.6851,-0.854,-0.061,-0.122,-136.879,18.743,-13.947
3102,-0.3208,-0.6484,-0.6865,-1.160,0.183,0.000,-136.884,18.743,-13.947
3112,-0.3198,-0.6484,-0.6880,-1.099,0.366,0.122,-136.895,18.743,-13.947
3122,-0.3193,-0.6470,-0.6924,-0.793,0.488,0.183,-136.906,18.737,-13.947
3132,-0.3198,-0.6470,-0.6904,-0.427,0.610,0.244,-136.912,18.732,-13.947
3142,-0.3193,-0.6465,-0.6904,-0.061,0.549,0.366,-136.912,18.732,-13.947
3152,-0.3184,-0.6455,-0.6899,0.061,0.366,0.488,-136.917,18.732,-13.947
3162,-0.3179,-0.6426,-0.6909,0.122,-0.061,0.549,-136.917,18.732,-13.947
3172,-0.3193,-0.6436,-0.6899,0.183,-0.488,0.549,-136.917,18.743,-13.947
3183,-0.3184,-0.6431,-0.6875,0.244,-0.732,0.366,-136.912,18.748,-13.947
3192,-0.3164,-0.6465,-0.6865,0.244,-0.854,0.122,-136.906,18.754,-13.947
3202,-0.3179,-0.6455,-0.6885,0.183,-0.854,-0.061,-136.901,18.759,-13.947
3212,-0.3169,-0.6460,-0.6885,0.183,-0.671,-0.122,-136.901,18.759,-13.947
3222,-0.3184,-0.6450,-0.6865,0.183,-0.488,-0.122,-136.895,18.759,-13.947
3232,-0.3193,-0.6455,-0.6851,0.183,-0.366,-0.061,-136.890,18.765,-13.947
3242,-0.3223,-0.6460,-0.6826,0.122,-0.244,0.000,-136.884,18.765,-13.947
3252,-0.3247,-0.6475,-0.6841,-0.061,-0.061,0.061,-136.884,18.770,-13.947
3262,-0.3252,-0.6455,-0.6851,-0.366,0.244,0.061,-136.884,18.770,-13.947
3272,-0.3242,-0.6436,-0.6880,-0.671,0.732,0.061,-136.895,18.770,-13.947
3282,-0.3242,-0.6416,-0.6890,-0.732,0.977,0.000,-136.906,18.765,-13.947
3292,-0.3262,-0.6440,-0.6899,-0.610,0.977,-0.122,-136.912,18.759,-13.947
3302,-0.3223,-0.6465,-0.6875,-0.305,0.671,-0.244,-136.917,18.754,-13.947
3312,-0.3213,-0.6455,-0.6895,-0.122,0.122,-0.366,-136.917,18.754,-13.947
3322,-0.3223,-0.6484,-0.6875,-0.061,-0.305,-0.244,-136.912,18.754,-13.947
3332,-0.3184,-0.6514,-0.6855,-0.122,-0.427,-0.183,-136.906,18.754,-13.947
3342,-0.3188,-0.6509,-0.6860,-0.244,-0.244,-0.122,-136.906,18.754,-13.947
3352,-0.3193,-0.6499,-0.6855,-0.244,0.061,0.061,-136.906,18.754,-13.947
3362,-0.3208,-0.6489,-0.6880,-0.061,0.549,0.244,-136.906,18.748,-13.947
3372,-0.3193,-0.6489,-0.6890,0.000,0.977,0.366,-136.906,18.743,-13.947
3382,-0.3174,-0.6479,-0.6880,-0.122,1.160,0.427,-136.906,18.737,-13.947
3392,-0.3179,-0.6470,-0.6890,-0.366,1.160,0.488,-136.912,18.732,-13.947
3402,-0.3179,-0.6475,-0.6929,-0.610,1.099,0.488,-136.923,18.721,-13.947
3412,-0.3184,-0.6426,-0.6948,-0.854,0.793,0.488,-136.939,18.721,-13.947
3422,-0.3179,-0.6411,-0.6953,-0.793,0.549,0.305,-136.950,18.715,-13.947
3432,-0.3208,-0.6411,-0.6978,-0.549,0.305,0.061,-136.961,18.715,-13.947
3442,-0.3174,-0.6406,-0.6953,-0.061,0.061,-0.122,-136.967,18.710,-13.947
3452,-0.3179,-0.6416,-0.6958,0.427,-0.244,-0.244,-136.967,18.710,-13.947
3462,-0.3179,-0.6440,-0.6934,0.671,-0.488,-0.305,-136.961,18.710,-13.947
3472,-0.3169,-0.6431,-0.6899,0.732,-0.732,-0.366,-136.950,18.710,-13.947
3482,-0.3188,-0.6440,-0.6880,0.610,-0.854,-0.427,-136.939,18.715,-13.947
3492,-0.3218,-0.6440,-0.6836,0.488,-0.732,-0.427,-136.928,18.721,-13.947
3502,-0.3218,-0.6479,-0.6855,0.427,-0.488,-0.427,-136.923,18.721,-13.947
3512,-0.3223,-0.6465,-0.6836,0.366,-0.061,-0.488,-136.912,18.721,-13.947
3522,-0.3213,-0.6475,-0.6846,0.122,0.366,-0.549,-136.906,18.715,-13.947
3532,-0.3193,-0.6494,-0.6855,-0.366,0.610,-0.427,-136.906,18.710,-13.947
3542,-0.3188,-0.6504,-0.6870,-0.854,0.732,-0.244,-136.912,18.699,-13.947
3552,-0.3203,-0.6479,-0.6899,-1.221,0.732,0.000,-136.928,18.693,-13.947
3562,-0.3213,-0.6479,-0.6934,-1.282,0.671,0.122,-136.939,18.688,-13.947
3572,-0.3208,-0.6470,-0.6938,-0.854,0.610,0.061,-136.950,18.688,-13.947
3582,-0.3208,-0.6475,-0.6963,-0.305,0.671,-0.061,-136.956,18.682,-13.947
3592,-0.3208,-0.6470,-0.6982,0.122,0.671,-0.122,-136.961,18.677,-13.947
3602,-0.3223,-0.6494,-0.7002,0.305,0.549,-0.122,-136.961,18.671,-13.947
3612,-0.3218,-0.6509,-0.6953,0.244,0.122,-0.122,-136.956,18.666,-13.947
3622,-0.3208,-0.6494,-0.6943,0.183,-0.244,-0.122,-136.956,18.671,-13.947
3632,-0.3193,-0.6509,-0.6958,0.000,-0.488,-0.061,-136.950,18.671,-13.947
3642,-0.3174,-0.6509,-0.6973,-0.122,-0.610,0.061,-136.950,18.671,-13.947
3652,-0.3174,-0.6494,-0.6958,-0.122,-0.732,0.244,-136.950,18.677,-13.947
3662,-0.3198,-0.6445,-0.6968,0.122,-0.732,0.549,-136.956,18.688,-13.947
3672,-0.3208,-0.6431,-0.6929,0.732,-0.671,0.610,-136.950,18.693,-13.947
3682,-0.3228,-0.6396,-0.6885,1.282,-0.671,0.427,-136.934,18.704,-13.947
3692,-0.3218,-0.6396,-0.6846,1.404,-0.732,0.122,-136.923,18.715,-13.947
3702,-0.3228,-0.6416,-0.6831,1.099,-0.671,-0.061,-136.906,18.721,-13.947
3712,-0.3213,-0.6440,-0.6812,0.305,-0.488,-0.305,-136.901,18.726,-13.947
3722,-0.3218,-0.6460,-0.6821,-0.732,-0.244,-0.427,-136.901,18.726,-13.947
3732,-0.3213,-0.6445,-0.6870,-1.465,-0.183,-0.366,-136.912,18.726,-13.947
3742,-0.3208,-0.6440,-0.6880,-1.648,-0.122,-0.305,-136.928,18.726,-13.947
3752,-0.3193,-0.6460,-0.6924,-1.343,-0.061,-0.244,-136.939,18.721,-13.947
3762,-0.3198,-0.6460,-0.6924,-0.671,0.000,-0.244,-136.950,18.721,-13.947
3772,-0.3188,-0.6489,-0.6899,0.000,-0.061,-0.305,-136.945,18.721,-13.947
3782,-0.3164,-0.6514,-0.6851,0.366,0.000,-0.244,-136.934,18.715,-13.947
3792,-0.3174,-0.6499,-0.6875,0.427,-0.061,0.000,-136.928,18.715,-13.947
3802,-0.3184,-0.6489,-0.6860,0.305,-0.061,0.183,-136.923,18.715,-13.947
3812,-0.3174,-0.6475,-0.6880,0.061,0.000,0.305,-136.923,18.715,-13.947
3822,-0.3188,-0.6470,-0.6914,-0.061,0.000,0.305,-136.923,18.715,-13.947
3832,-0.3203,-0.6470,-0.6904,-0.061,-0.061,0.244,-136.923,18.721,-13.947
3842,-0.3218,-0.6479,-0.6895,-0.061,-0.061,0.183,-136.923,18.721,-13.947
3852,-0.3232,-0.6450,-0.6870,-0.183,0.000,0.122,-136.923,18.721,-13.947
3862,-0.3208,-0.6431,-0.6885,-0.244,0.122,0.000,-136.928,18.721,-13.947
3872,-0.3228,-0.6436,-0.6885,-0.366,0.244,-0.061,-136.928,18.721,-13.947
3882,-0.3237,-0.6445,-0.6914,-0.305,0.244,-0.122,-136.934,18.721,-13.947
3892,-0.3213,-0.6465,-0.6924,-0.244,0.122,-0.183,-136.934,18.721,-13.947
3902,-0.3198,-0.6455,-0.6924,-0.183,0.000,-0.244,-136.939,18.715,-13.947
3912,-0.3193,-0.6470,-0.6909,-0.061,0.000,-0.122,-136.939,18.715,-13.947
3922,-0.3188,-0.6475,-0.6909,0.061,0.000,0.000,-136.934,18.715,-13.947
3932,-0.3193,-0.6494,-0.6895,0.183,0.122,0.061,-136.934,18.715,-13.947
3942,-0.3193,-0.6475,-0.6890,0.183,0.244,0.000,-136.928,18.710,-13.947
3952,-0.3208,-0.6470,-0.6895,0.122,0.305,-0.061,-136.928,18.710,-13.947
3962,-0.3198,-0.6470,-0.6875,0.000,0.305,0.000,-136.928,18.710,-13.947
3972,-0.3188,-0.6484,-0.6880,-0.061,0.366,0.061,-136.928,18.704,-13.947
3982,-0.3184,-0.6455,-0.6885,-0.183,0.427,0.061,-136.928,18.699,-13.947
3992,-0.3179,-0.6450,-0.6904,-0.244,0.427,0.061,-136.934,18.699,-13.947
4002,-0.3184,-0.6440,-0.6919,-0.122,0.427,0.061,-136.934,18.693,-13.947
4012,-0.3179,-0.6450,-0.6953,-0.061,0.244,-0.061,-136.939,18.688,-13.947
4022,-0.3213,-0.6445,-0.6934,0.122,0.183,0.000,-136.939,18.688,-13.947
4032,-0.3203,-0.6440,-0.6934,0.183,0.183,-0.061,-136.939,18.688,-13.947
4042,-0.3184,-0.6426,-0.6938,0.305,0.183,-0.061,-136.939,18.688,-13.947
4052,-0.3193,-0.6450,-0.6919,0.488,0.244,-0.122,-136.934,18.682,-13.947
4063,-0.3184,-0.6465,-0.6890,0.305,0.122,-0.183,-136.934,18.682,-13.947
4072,-0.3193,-0.6475,-0.6904,-0.061,0.000,-0.244,-136.928,18.677,-13.947
4082,-0.3188,-0.6494,-0.6909,-0.488,0.061,-0.244,-136.934,18.677,-13.947
4092,-0.3203,-0.6479,-0.6934,-0.916,0.183,-0.122,-136.945,18.671,-13.947
4102,-0.3228,-0.6445,-0.6938,-1.038,0.427,-0.061,-136.956,18.671,-13.947
4112,-0.3203,-0.6455,-0.6963,-0.854,0.488,-0.061,-136.967,18.666,-13.947
4122,-0.3164,-0.6450,-0.6958,-0.549,0.427,-0.122,-136.972,18.660,-13.947
4132,-0.3169,-0.6460,-0.6973,-0.305,0.061,-0.061,-136.978,18.655,-13.947
4142,-0.3174,-0.6465,-0.6938,-0.183,-0.488,-0.061,-136.983,18.660,-13.947
4152,-0.3179,-0.6479,-0.6919,-0.244,-0.916,0.000,-136.978,18.666,-13.947
4162,-0.3198,-0.6489,-0.6924,-0.427,-1.099,0.061,-136.983,18.671,-13.947
4172,-0.3223,-0.6460,-0.6914,-0.488,-1.038,0.122,-136.983,18.682,-13.947
4182,-0.3228,-0.6470,-0.6880,-0.549,-0.732,0.061,-136.983,18.688,-13.947
4192,-0.3228,-0.6470,-0.6865,-0.732,-0.549,0.061,-136.989,18.693,-13.947
4202,-0.3198,-0.6450,-0.6885,-1.038,-0.427,0.000,-136.994,18.699,-13.947
4212,-0.3174,-0.6509,-0.6909,-1.160,-0.366,0.122,-137.005,18.699,-13.947
4222,-0.3184,-0.6465,-0.6919,-1.404,-0.488,0.183,-137.016,18.704,-13.947
4232,-0.3184,-0.6489,-0.6885,-1.038,-0.244,0.244,-137.021,18.704,-13.947
4242,-0.3174,-0.6479,-0.6904,-0.549,-0.061,0.366,-137.027,18.710,-13.947
4252,-0.3169,-0.6519,-0.6904,-0.122,0.061,0.427,-137.027,18.710,-13.947
4262,-0.3105,-0.6670,-0.6890,0.000,0.122,0.366,-137.016,18.704,-13.947
4272,-0.3125,-0.6543,-0.6919,-0.671,-0.244,0.732,-137.021,18.704,-13.947
4282,-0.3164,-0.6484,-0.6929,-0.671,-0.488,1.709,-137.027,18.715,-13.958
4292,-0.3203,-0.6479,-0.6924,0.061,-0.366,1.953,-137.032,18.732,-13.969
4302,-0.3193,-0.6470,-0.6899,0.732,-0.183,1.709,-137.027,18.743,-13.980
4312,-0.3213,-0.6465,-0.6890,1.038,-0.061,1.587,-137.016,18.754,-13.991
4322,-0.3218,-0.6489,-0.6855,0.977,0.061,1.648,-137.005,18.765,-14.008
4332,-0.3242,-0.6455,-0.6826,0.244,-0.122,1.770,-137.005,18.781,-14.019
4342,-0.3276,-0.6377,-0.6865,-0.427,-0.366,1.831,-137.010,18.803,-14.030
4352,-0.3286,-0.6343,-0.6880,-0.549,-0.305,1.526,-137.027,18.820,-14.041
4362,-0.3296,-0.6357,-0.6875,-0.244,-0.061,1.343,-137.032,18.836,-14.052
4372,-0.3286,-0.6377,-0.6865,0.305,0.183,1.099,-137.032,18.847,-14.057
4382,-0.3267,-0.6387,-0.6890,0.671,0.244,0.916,-137.032,18.853,-14.068
4392,-0.3267,-0.6372,-0.6885,0.732,0.305,0.732,-137.027,18.858,-14.073
4402,-0.3252,-0.6382,-0.6880,0.488,0.183,0.488,-137.027,18.864,-14.079
4412,-0.3223,-0.6392,-0.6890,0.122,0.061,0.305,-137.027,18.869,-14.084
4422,-0.3203,-0.6411,-0.6899,-0.305,0.000,0.183,-137.032,18.869,-14.084
4432,-0.3188,-0.6392,-0.6890,-0.732,-0.122,0.122,-137.038,18.869,-14.084
4442,-0.3169,-0.6431,-0.6929,-0.854,-0.122,0.061,-137.049,18.864,-14.084
4452,-0.3105,-0.6479,-0.6934,-0.793,-0.061,0.000,-137.054,18.858,-14.084
4462,-0.3076,-0.6494,-0.6938,-0.793,0.000,0.000,-137.060,18.847,-14.084
4472,-0.3091,-0.6475,-0.6934,-0.671,0.061,0.183,-137.065,18.842,-14.084
4482,-0.3135,-0.6450,-0.6919,-0.244,0.244,0.427,-137.071,18.836,-14.090
4492,-0.3188,-0.6421,-0.6934,0.610,0.427,0.610,-137.071,18.836,-14.101
4502,-0.3232,-0.6411,-0.6895,1.465,0.732,0.549,-137.060,18.836,-14.106
4512,-0.3262,-0.6401,-0.6875,1.831,0.916,0.427,-137.043,18.836,-14.117
4522,-0.3257,-0.6396,-0.6865,1.465,0.977,0.305,-137.032,18.836,-14.128
4532,-0.3286,-0.6421,-0.6880,0.549,0.977,0.183,-137.027,18.831,-14.134
4542,-0.3267,-0.6401,-0.6880,-0.610,0.854,0.000,-137.038,18.831,-14.139
4552,-0.3262,-0.6387,-0.6929,-1.526,0.671,-0.061,-137.054,18.825,-14.145
4563,-0.3242,-0.6396,-0.6958,-1.648,0.549,-0.183,-137.076,18.825,-14.150
4572,-0.3242,-0.6401,-0.6953,-1.160,0.366,-0.244,-137.093,18.820,-14.150
4582,-0.3228,-0.6445,-0.6943,-0.305,0.244,-0.366,-137.093,18.814,-14.150
4592,-0.3223,-0.6499,-0.6934,0.427,0.122,-0.366,-137.087,18.809,-14.145
4602,-0.3184,-0.6519,-0.6929,0.732,-0.122,-0.244,-137.076,18.809,-14.145
4612,-0.3203,-0.6533,-0.6904,0.854,-0.366,-0.122,-137.060,18.809,-14.139
4622,-0.3242,-0.6499,-0.6870,0.732,-0.610,0.122,-137.049,18.814,-14.139
4632,-0.3232,-0.6538,-0.6870,0.610,-0.732,0.305,-137.032,18.820,-14.134
4642,-0.3223,-0.6538,-0.6846,0.549,-0.488,0.427,-137.021,18.825,-14.134
4652,-0.3257,-0.6504,-0.6855,0.122,-0.305,0.671,-137.016,18.836,-14.139
4662,-0.3276,-0.6475,-0.6851,-0.061,0.183,0.916,-137.016,18.842,-14.145
4672,-0.3281,-0.6479,-0.6855,-0.061,0.610,0.916,-137.016,18.847,-14.156
4682,-0.3237,-0.6455,-0.6865,-0.122,0.732,0.854,-137.016,18.853,-14.167
4692,-0.3242,-0.6445,-0.6895,-0.122,0.793,0.793,-137.021,18.853,-14.178
4702,-0.3237,-0.6440,-0.6890,-0.122,0.671,0.793,-137.027,18.853,-14.189
4712,-0.3228,-0.6406,-0.6919,-0.122,0.366,0.793,-137.032,18.858,-14.200
4722,-0.3208,-0.6392,-0.6934,-0.122,0.122,0.732,-137.038,18.858,-14.205
4732,-0.3228,-0.6401,-0.6904,0.122,-0.061,0.549,-137.038,18.864,-14.211
4742,-0.3237,-0.6401,-0.6899,0.366,-0.061,0.549,-137.038,18.869,-14.216
4752,-0.3242,-0.6411,-0.6885,0.549,0.061,0.366,-137.032,18.875,-14.216
4762,-0.3232,-0.6416,-0.6860,0.549,0.244,0.244,-137.027,18.875,-14.222
4772,-0.3218,-0.6445,-0.6885,0.305,0.305,0.122,-137.021,18.875,-14.222
4782,-0.3193,-0.6440,-0.6870,0.000,0.244,0.122,-137.021,18.869,-14.227
4792,-0.3203,-0.6421,-0.6890,-0.488,0.122,0.183,-137.027,18.869,-14.227
4802,-0.3193,-0.6426,-0.6919,-0.671,0.122,0.122,-137.038,18.869,-14.233
4812,-0.3213,-0.6436,-0.6919,-0.549,0.122,0.061,-137.043,18.869,-14.233
4822,-0.3198,-0.6411,-0.6938,-0.244,0.183,-0.061,-137.049,18.864,-14.233
4832,-0.3203,-0.6416,-0.6929,0.061,0.305,-0.183,-137.049,18.858,-14.233
4842,-0.3218,-0.6436,-0.6929,0.244,0.427,-0.305,-137.049,18.853,-14.233
4852,-0.3213,-0.6431,-0.6919,0.183,0.366,-0.366,-137.043,18.847,-14.233
4862,-0.3228,-0.6431,-0.6924,-0.061,0.366,-0.366,-137.049,18.842,-14.233
4872,-0.3213,-0.6426,-0.6938,-0.366,0.305,-0.305,-137.054,18.836,-14.233
4882,-0.3218,-0.6431,-0.6934,-0.610,0.244,-0.183,-137.060,18.836,-14.233
4892,-0.3208,-0.6445,-0.6997,-0.671,0.305,-0.183,-137.071,18.831,-14.233
4902,-0.3218,-0.6455,-0.6987,-0.366,0.244,-0.122,-137.076,18.825,-14.238
4912,-0.3213,-0.6440,-0.6948,0.244,-0.061,-0.122,-137.071,18.825,-14.233
4922,-0.3237,-0.6436,-0.6909,0.977,-0.427,-0.183,-137.060,18.825,-14.233
4932,-0.3228,-0.6450,-0.6890,1.526,-0.793,-0.305,-137.043,18.831,-14.222
4942,-0.3218,-0.6465,-0.6846,1.465,-0.854,-0.305,-137.021,18.836,-14.216
4952,-0.3203,-0.6475,-0.6846,0.977,-0.671,-0.183,-137.005,18.836,-14.205
4962,-0.3208,-0.6475,-0.6851,0.183,-0.366,-0.061,-137.000,18.842,-14.205
4972,-0.3188,-0.6450,-0.6865,-0.610,-0.122,0.000,-137.000,18.842,-14.205
4982,-0.3213,-0.6440,-0.6875,-0.793,0.061,0.000,-137.010,18.836,-14.205
4992,-0.3223,-0.6445,-0.6875,-0.610,0.122,-0.122,-137.010,18.836,-14.205
5002,-0.3193,-0.6426,-0.6885,-0.061,0.000,-0.244,-137.010,18.836,-14.200
5012,-0.3213,-0.6460,-0.6890,0.366,-0.122,-0.305,-137.005,18.831,-14.200
5022,-0.3218,-0.6455,-0.6865,0.549,-0.061,-0.366,-137.000,18.831,-14.194
5032,-0.3198,-0.6455,-0.6865,0.366,0.183,-0.366,-136.989,18.825,-14.194
5042,-0.3223,-0.6465,-0.6870,-0.183,0.366,-0.366,-136.989,18.820,-14.194
5052,-0.3218,-0.6475,-0.6880,-0.610,0.427,-0.366,-136.994,18.814,-14.194
5063,-0.3198,-0.6460,-0.6885,-0.793,0.427,-0.366,-137.000,18.809,-14.194
5072,-0.3232,-0.6455,-0.6895,-0.671,0.305,-0.183,-137.005,18.809,-14.194
5082,-0.3228,-0.6475,-0.6909,-0.305,0.122,-0.061,-137.005,18.803,-14.194
5092,-0.3218,-0.6489,-0.6914,0.122,0.122,-0.061,-137.005,18.803,-14.194
5102,-0.3203,-0.6484,-0.6934,0.244,0.183,0.000,-137.000,18.803,-14.200
5112,-0.3208,-0.6475,-0.6914,0.305,0.244,0.061,-137.000,18.798,-14.200
5122,-0.3188,-0.6494,-0.6919,0.305,0.244,0.061,-136.994,18.798,-14.200
5132,-0.3198,-0.6494,-0.6909,0.244,0.122,0.000,-136.989,18.792,-14.205
5142,-0.3193,-0.6479,-0.6899,0.244,-0.061,0.000,-136.983,18.792,-14.200
5152,-0.3218,-0.6460,-0.6875,0.244,-0.122,0.061,-136.978,18.792,-14.200
5162,-0.3208,-0.6479,-0.6865,0.183,0.000,0.122,-136.978,18.792,-14.205
5172,-0.3208,-0.6460,-0.6880,0.122,0.183,0.244,-136.972,18.792,-14.205
5184,-0.3228,-0.6440,-0.6924,0.122,0.366,0.305,-136.972,18.792,-14.211
5192,-0.3232,-0.6465,-0.6929,0.122,0.427,0.244,-136.978,18.792,-14.216
5202,-0.3232,-0.6460,-0.6919,0.000,0.427,0.183,-136.978,18.792,-14.222
5212,-0.3242,-0.6475,-0.6914,-0.183,0.427,0.183,-136.978,18.792,-14.227
5222,-0.3218,-0.6440,-0.6948,-0.427,0.427,0.122,-136.989,18.787,-14.227
5232,-0.3213,-0.6440,-0.6938,-0.488,0.305,0.244,-136.994,18.787,-14.233
5242,-0.3213,-0.6445,-0.6938,-0.366,0.122,0.183,-137.000,18.787,-14.233
5252,-0.3208,-0.6455,-0.6938,0.000,-0.122,0.122,-137.000,18.787,-14.233
5262,-0.3213,-0.6455,-0.6924,0.305,-0.305,0.000,-136.994,18.792,-14.233
5272,-0.3223,-0.6450,-0.6909,0.488,-0.427,0.061,-136.989,18.792,-14.233
5282,-0.3232,-0.6475,-0.6865,0.610,-0.366,0.061,-136.978,18.798,-14.227
5292,-0.3218,-0.6479,-0.6865,0.549,-0.183,0.061,-136.972,18.798,-14.227
5302,-0.3213,-0.6465,-0.6870,0.244,0.061,0.061,-136.967,18.798,-14.227
5312,-0.3198,-0.6470,-0.6890,-0.183,0.244,0.183,-136.967,18.798,-14.233
5322,-0.3174,-0.6455,-0.6880,-0.488,0.305,0.305,-136.972,18.798,-14.238
5332,-0.3174,-0.6431,-0.6855,-0.549,0.244,0.427,-136.978,18.798,-14.244
5342,-0.3184,-0.6440,-0.6875,-0.427,0.305,0.549,-136.983,18.798,-14.249
5352,-0.3203,-0.6416,-0.6919,-0.183,0.488,0.488,-136.989,18.798,-14.255
5362,-0.3188,-0.6436,-0.6919,0.122,0.610,0.366,-136.989,18.792,-14.260
5372,-0.3208,-0.6440,-0.6895,0.244,0.610,0.244,-136.989,18.792,-14.260
5382,-0.3218,-0.6416,-0.6909,0.244,0.610,0.183,-136.989,18.787,-14.260
5392,-0.3228,-0.6436,-0.6938,0.061,0.549,0.122,-136.994,18.787,-14.260
5402,-0.3228,-0.6416,-0.6953,-0.122,0.427,0.061,-137.000,18.781,-14.260
5412,-0.3218,-0.6431,-0.6938,-0.183,0.305,0.061,-137.005,18.781,-14.260
5422,-0.3228,-0.6421,-0.6948,-0.244,0.122,0.061,-137.010,18.781,-14.260
5432,-0.3223,-0.6436,-0.6958,-0.183,0.000,0.000,-137.010,18.781,-14.260
5442,-0.3213,-0.6445,-0.6953,0.000,-0.122,-0.122,-137.016,18.781,-14.260
5452,-0.3213,-0.6465,-0.6914,0.122,-0.244,-0.183,-137.010,18.781,-14.260
5462,-0.3218,-0.6479,-0.6914,0.244,-0.305,-0.183,-137.005,18.781,-14.260
5472,-0.3218,-0.6489,-0.6899,0.122,-0.305,-0.122,-137.000,18.781,-14.260
5482,-0.3208,-0.6509,-0.6919,-0.061,-0.122,0.000,-137.000,18.781,-14.260
5492,-0.3198,-0.6479,-0.6924,-0.244,-0.061,0.122,-137.000,18.781,-14.260
5502,-0.3208,-0.6479,-0.6948,-0.244,0.000,0.244,-137.005,18.781,-14.260
5512,-0.3208,-0.6465,-0.6934,0.000,-0.122,0.305,-137.005,18.787,-14.260
5522,-0.3223,-0.6470,-0.6929,0.244,-0.244,0.427,-137.000,18.787,-14.260
5532,-0.3218,-0.6489,-0.6895,0.427,-0.366,0.427,-136.994,18.792,-14.260
5542,-0.3247,-0.6479,-0.6924,0.549,-0.305,0.488,-136.989,18.803,-14.260
5552,-0.3242,-0.6470,-0.6909,0.610,-0.244,0.549,-136.983,18.809,-14.260
5563,-0.3242,-0.6445,-0.6914,0.427,-0.183,0.549,-136.978,18.814,-14.260
5572,-0.3232,-0.6426,-0.6895,0.244,-0.244,0.610,-136.978,18.820,-14.260
5582,-0.3237,-0.6421,-0.6885,0.061,-0.244,0.610,-136.978,18.831,-14.260
5592,-0.3208,-0.6411,-0.6870,0.000,-0.305,0.488,-136.978,18.836,-14.260
5602,-0.3208,-0.6426,-0.6870,0.061,-0.366,0.305,-136.978,18.836,-14.260
5612,-0.3223,-0.6440,-0.6899,0.244,-0.488,0.183,-136.972,18.842,-14.260
5622,-0.3193,-0.6440,-0.6875,0.549,-0.549,0.183,-136.967,18.847,-14.260
5632,-0.3203,-0.6445,-0.6860,0.671,-0.610,0.183,-136.956,18.853,-14.260
5642,-0.3188,-0.6455,-0.6865,0.610,-0.488,0.122,-136.950,18.858,-14.260
5652,-0.3184,-0.6465,-0.6855,0.183,-0.244,0.183,-136.945,18.858,-14.260
5662,-0.3208,-0.6450,-0.6870,-0.244,0.061,0.244,-136.945,18.858,-14.260
5672,-0.3218,-0.6440,-0.6865,-0.488,0.183,0.366,-136.950,18.858,-14.260
5682,-0.3228,-0.6426,-0.6870,-0.305,0.244,0.366,-136.956,18.858,-14.260
5692,-0.3223,-0.6406,-0.6890,0.061,0.183,0.244,-136.956,18.864,-14.260
5702,-0.3213,-0.6406,-0.6890,0.488,0.183,0.122,-136.956,18.858,-14.260
5712,-0.3242,-0.6426,-0.6851,0.732,0.122,-0.061,-136.945,18.864,-14.260
5722,-0.3257,-0.6455,-0.6860,0.610,0.122,-0.183,-136.939,18.864,-14.260
5732,-0.3267,-0.6465,-0.6855,0.122,0.122,-0.305,-136.934,18.864,-14.260
5742,-0.3242,-0.6465,-0.6855,-0.488,0.122,-0.366,-136.934,18.858,-14.260
5752,-0.3232,-0.6479,-0.6890,-0.916,0.061,-0.305,-136.939,18.858,-14.260
5762,-0.3237,-0.6475,-0.6924,-0.916,-0.061,-0.183,-136.950,18.858,-14.260
5772,-0.3218,-0.6479,-0.6919,-0.671,-0.122,-0.122,-136.956,18.853,-14.260
5782,-0.3198,-0.6494,-0.6929,-0.305,0.000,0.000,-136.956,18.853,-14.260
5792,-0.3203,-0.6509,-0.6895,0.122,0.122,0.183,-136.956,18.853,-14.260
5802,-0.3188,-0.6523,-0.6919,0.305,0.305,0.366,-136.950,18.847,-14.260
5812,-0.3213,-0.6504,-0.6899,0.305,0.366,0.427,-136.945,18.847,-14.260
5822,-0.3223,-0.6509,-0.6875,0.244,0.366,0.549,-136.939,18.847,-14.260
5832,-0.3218,-0.6475,-0.6875,0.061,0.366,0.610,-136.939,18.847,-14.260
5842,-0.3232,-0.6445,-0.6890,0.000,0.244,0.671,-136.945,18.853,-14.260
5852,-0.3247,-0.6455,-0.6860,0.000,0.244,0.671,-136.945,18.858,-14.260
5862,-0.3242,-0.6460,-0.6895,0.000,0.366,0.549,-136.945,18.858,-14.260
5872,-0.3247,-0.6445,-0.6909,0.000,0.366,0.488,-136.945,18.858,-14.260
5882,-0.3257,-0.6431,-0.6890,-0.061,0.366,0.427,-136.950,18.864,-14.260
5892,-0.3286,-0.6436,-0.6890,0.000,0.305,0.427,-136.950,18.869,-14.260
5902,-0.3267,-0.6450,-0.6899,0.061,0.366,0.366,-136.950,18.869,-14.260
5913,-0.3262,-0.6465,-0.6904,0.122,0.488,0.305,-136.950,18.869,-14.260
5923,-0.3237,-0.6494,-0.6914,-0.061,0.427,0.366,-136.956,18.869,-14.260
5932,-0.3208,-0.6479,-0.6885,-0.244,0.366,0.427,-136.956,18.869,-14.260
5943,-0.3208,-0.6494,-0.6914,-0.427,0.244,0.488,-136.961,18.869,-14.260
5953,-0.3188,-0.6475,-0.6924,-0.488,0.122,0.549,-136.967,18.869,-14.260
5963,-0.3203,-0.6470,-0.6919,-0.305,0.061,0.488,-136.972,18.869,-14.260
5973,-0.3193,-0.6465,-0.6880,0.122,0.061,0.549,-136.967,18.869,-14.260
5983,-0.3208,-0.6475,-0.6860,0.427,0.122,0.549,-136.961,18.869,-14.260
5993,-0.3188,-0.6470,-0.6870,0.549,0.244,0.671,-136.956,18.875,-14.260
6003,-0.3193,-0.6479,-0.6870,0.427,0.305,0.854,-136.950,18.875,-14.260
6013,-0.3213,-0.6450,-0.6860,0.244,0.305,0.977,-136.950,18.880,-14.260
6023,-0.3218,-0.6450,-0.6851,0.061,0.366,0.977,-136.950,18.880,-14.260
6033,-0.3257,-0.6445,-0.6880,-0.061,0.488,0.916,-136.956,18.885,-14.260
6043,-0.3242,-0.6445,-0.6895,-0.061,0.671,0.854,-136.961,18.885,-14.260
6052,-0.3242,-0.6445,-0.6895,-0.061,1.038,0.732,-136.961,18.885,-14.260
6063,-0.3237,-0.6455,-0.6899,-0.183,1.282,0.732,-136.967,18.880,-14.260
6073,-0.3232,-0.6426,-0.6909,-0.610,1.343,0.671,-136.983,18.875,-14.260
6083,-0.3218,-0.6416,-0.6909,-0.916,1.160,0.793,-136.994,18.875,-14.260
6093,-0.3213,-0.6416,-0.6924,-0.916,0.793,0.793,-137.010,18.875,-14.260
6103,-0.3203,-0.6396,-0.6948,-0.549,0.488,0.610,-137.021,18.875,-14.260
6113,-0.3198,-0.6421,-0.6938,0.061,0.244,0.427,-137.027,18.869,-14.260
6123,-0.3213,-0.6416,-0.6929,0.427,0.305,0.427,-137.027,18.869,-14.260
6133,-0.3223,-0.6421,-0.6909,0.488,0.549,0.549,-137.021,18.869,-14.260
6143,-0.3237,-0.6431,-0.6899,0.366,0.793,0.610,-137.021,18.869,-14.260
6153,-0.3228,-0.6440,-0.6870,0.061,0.732,0.549,-137.021,18.869,-14.260
6163,-0.3213,-0.6421,-0.6880,-0.244,0.549,0.427,-137.027,18.869,-14.260
6173,-0.3218,-0.6426,-0.6904,-0.427,0.366,0.427,-137.032,18.869,-14.260
6183,-0.3198,-0.6411,-0.6919,-0.488,0.366,0.427,-137.043,18.869,-14.260
6193,-0.3193,-0.6431,-0.6938,-0.488,0.488,0.366,-137.049,18.864,-14.260
6203,-0.3193,-0.6431,-0.6914,-0.488,0.610,0.183,-137.054,18.858,-14.260
6213,-0.3218,-0.6431,-0.6914,-0.488,0.793,0.122,-137.065,18.853,-14.260
6223,-0.3213,-0.6421,-0.6914,-0.549,0.793,0.183,-137.071,18.847,-14.260
6233,-0.3228,-0.6426,-0.6934,-0.549,0.793,0.244,-137.082,18.842,-14.260
6243,-0.3237,-0.6421,-0.6924,-0.549,0.793,0.244,-137.087,18.842,-14.260
6253,-0.3232,-0.6426,-0.6929,-0.427,0.793,0.183,-137.098,18.836,-14.260
6263,-0.3228,-0.6436,-0.6909,-0.305,0.732,0.183,-137.104,18.831,-14.260
6273,-0.3218,-0.6440,-0.6909,-0.305,0.671,0.183,-137.104,18.831,-14.260
6283,-0.3228,-0.6431,-0.6919,-0.366,0.488,0.244,-137.109,18.825,-14.260
6293,-0.3237,-0.6431,-0.6934,-0.488,0.366,0.244,-137.115,18.825,-14.260
6303,-0.3257,-0.6455,-0.6909,-0.610,0.427,0.183,-137.126,18.825,-14.260
6313,-0.3223,-0.6460,-0.6904,-0.671,0.488,0.183,-137.131,18.825,-14.260
6323,-0.3213,-0.6440,-0.6919,-0.793,0.549,0.183,-137.137,18.820,-14.260
6333,-0.3188,-0.6479,-0.6938,-0.977,0.488,0.305,-137.148,18.820,-14.260
6343,-0.3188,-0.6440,-0.6943,-1.038,0.427,0.488,-137.159,18.814,-14.260
6353,-0.3184,-0.6406,-0.6924,-0.793,0.305,0.549,-137.170,18.814,-14.260
6363,-0.3188,-0.6387,-0.6904,-0.183,0.061,0.427,-137.175,18.820,-14.260
6373,-0.3208,-0.6387,-0.6909,0.427,-0.122,0.244,-137.170,18.820,-14.260
6383,-0.3208,-0.6387,-0.6855,0.793,0.000,0.183,-137.164,18.820,-14.260
6393,-0.3208,-0.6411,-0.6860,0.610,0.427,0.000,-137.153,18.820,-14.260
6403,-0.3218,-0.6436,-0.6860,-0.061,0.854,-0.061,-137.153,18.814,-14.260
6413,-0.3184,-0.6440,-0.6899,-0.793,1.160,-0.183,-137.164,18.803,-14.260
6423,-0.3169,-0.6450,-0.6973,-1.404,1.038,-0.183,-137.181,18.792,-14.260
6433,-0.3179,-0.6436,-0.7007,-1.404,0.610,-0.122,-137.197,18.781,-14.260
6443,-0.3188,-0.6436,-0.7012,-0.916,0.061,0.000,-137.208,18.776,-14.260
6453,-0.3203,-0.6426,-0.7017,-0.061,-0.244,0.061,-137.214,18.781,-14.260
6463,-0.3223,-0.6426,-0.6968,0.732,-0.366,0.122,-137.203,18.781,-14.260
6473,-0.3208,-0.6426,-0.6973,1.282,-0.427,0.183,-137.192,18.787,-14.260
6483,-0.3242,-0.6431,-0.6914,1.343,-0.549,0.244,-137.175,18.792,-14.260
6493,-0.3203,-0.6445,-0.6914,0.916,-0.732,0.244,-137.164,18.798,-14.260
6503,-0.3193,-0.6450,-0.6904,0.305,-0.793,0.122,-137.159,18.803,-14.260
6513,-0.3203,-0.6436,-0.6895,-0.305,-0.732,0.061,-137.159,18.809,-14.260
6523,-0.3203,-0.6431,-0.6909,-0.671,-0.488,0.000,-137.164,18.814,-14.260
6533,-0.3228,-0.6460,-0.6919,-0.671,-0.244,0.061,-137.170,18.814,-14.260
6543,-0.3218,-0.6470,-0.6943,-0.488,0.061,0.122,-137.170,18.814,-14.260
6553,-0.3228,-0.6455,-0.6948,-0.244,0.244,0.244,-137.175,18.814,-14.260
6563,-0.3237,-0.6465,-0.6973,-0.061,0.305,0.366,-137.175,18.814,-14.260
6573,-0.3218,-0.6431,-0.6953,0.061,0.122,0.366,-137.175,18.814,-14.260
6583,-0.3242,-0.6426,-0.6953,0.122,-0.061,0.427,-137.175,18.820,-14.260
6593,-0.3247,-0.6392,-0.6958,0.305,-0.244,0.427,-137.175,18.825,-14.260
6603,-0.3218,-0.6387,-0.6924,0.427,-0.488,0.244,-137.175,18.831,-14.260
6613,-0.3237,-0.6382,-0.6929,0.549,-0.732,0.122,-137.170,18.842,-14.260
6623,-0.3228,-0.6382,-0.6899,0.427,-0.916,0.000,-137.164,18.847,-14.260
6633,-0.3247,-0.6401,-0.6875,0.366,-0.977,-0.061,-137.159,18.858,-14.260
6643,-0.3232,-0.6440,-0.6855,0.305,-1.038,-0.244,-137.148,18.864,-14.260
6653,-0.3223,-0.6450,-0.6855,0.061,-0.916,-0.244,-137.137,18.869,-14.260
6663,-0.3198,-0.6450,-0.6875,-0.061,-0.671,-0.122,-137.137,18.869,-14.260
6673,-0.3188,-0.6450,-0.6851,-0.061,-0.305,0.122,-137.131,18.875,-14.260
6683,-0.3208,-0.6436,-0.6860,0.000,0.061,0.244,-137.126,18.875,-14.260
6693,-0.3228,-0.6411,-0.6870,0.183,0.305,0.305,-137.126,18.875,-14.260
6703,-0.3218,-0.6396,-0.6890,0.183,0.549,0.244,-137.126,18.875,-14.260
6713,-0.3203,-0.6406,-0.6870,0.000,0.671,0.183,-137.126,18.869,-14.260
6723,-0.3203,-0.6392,-0.6855,-0.427,0.732,0.061,-137.131,18.864,-14.260
6733,-0.3213,-0.6396,-0.6909,-0.793,0.793,-0.061,-137.142,18.858,-14.260
6743,-0.3228,-0.6392,-0.6904,-0.854,0.793,-0.122,-137.153,18.853,-14.260
6753,-0.3228,-0.6426,-0.6968,-0.671,0.793,-0.244,-137.164,18.842,-14.260
6763,-0.3232,-0.6396,-0.6958,-0.366,0.671,-0.305,-137.170,18.836,-14.260
6773,-0.3223,-0.6431,-0.6953,0.000,0.488,-0.305,-137.170,18.831,-14.260
6783,-0.3208,-0.6436,-0.6958,0.183,0.244,-0.366,-137.170,18.825,-14.260
6793,-0.3218,-0.6450,-0.6909,0.122,0.000,-0.305,-137.164,18.825,-14.260
6803,-0.3213,-0.6455,-0.6924,-0.061,-0.122,-0.183,-137.164,18.820,-14.260
6813,-0.3218,-0.6440,-0.6929,-0.305,-0.183,-0.061,-137.164,18.820,-14.260
6823,-0.3232,-0.6411,-0.6934,-0.427,-0.122,0.000,-137.170,18.825,-14.260
6833,-0.3232,-0.6426,-0.6943,-0.305,0.061,-0.061,-137.175,18.825,-14.260
6843,-0.3223,-0.6450,-0.6982,-0.061,0.183,-0.122,-137.175,18.820,-14.260
6853,-0.3208,-0.6475,-0.6987,0.122,0.122,-0.122,-137.175,18.814,-14.260
6863,-0.3188,-0.6484,-0.6987,0.122,0.000,-0.061,-137.170,18.814,-14.260
6873,-0.3208,-0.6475,-0.6958,0.000,-0.244,0.000,-137.170,18.814,-14.260
6883,-0.3208,-0.6470,-0.6938,-0.061,-0.488,0.061,-137.170,18.814,-14.260
6893,-0.3218,-0.6450,-0.6929,-0.061,-0.610,0.122,-137.164,18.820,-14.260
6903,-0.3228,-0.6421,-0.6938,0.061,-0.549,0.183,-137.164,18.825,-14.260
6913,-0.3228,-0.6416,-0.6934,0.244,-0.427,0.183,-137.164,18.831,-14.260
6923,-0.3218,-0.6436,-0.6919,0.366,-0.305,0.122,-137.159,18.836,-14.260
6933,-0.3208,-0.6455,-0.6909,0.305,-0.366,0.122,-137.153,18.836,-14.260
6943,-0.3208,-0.6460,-0.6895,0.183,-0.427,0.061,-137.148,18.842,-14.260
6953,-0.3213,-0.6450,-0.6909,0.122,-0.549,0.183,-137.142,18.842,-14.260
6963,-0.3223,-0.6431,-0.6870,0.122,-0.610,0.366,-137.137,18.853,-14.260
6973,-0.3242,-0.6440,-0.6904,0.183,-0.610,0.305,-137.137,18.858,-14.260
6983,-0.3213,-0.6426,-0.6899,0.244,-0.305,0.244,-137.131,18.864,-14.260
6993,-0.3203,-0.6411,-0.6899,0.183,-0.061,0.244,-137.131,18.864,-14.260
7003,-0.3184,-0.6367,-0.6914,-0.061,0.000,0.244,-137.131,18.864,-14.260
7013,-0.3218,-0.6367,-0.6899,-0.061,-0.122,0.244,-137.137,18.869,-14.260
7023,-0.3257,-0.6367,-0.6885,0.183,-0.366,0.061,-137.131,18.875,-14.260
7033,-0.3208,-0.6377,-0.6880,0.488,-0.427,-0.244,-137.126,18.875,-14.260
7043,-0.3193,-0.6416,-0.6851,0.549,-0.366,-0.366,-137.120,18.875,-14.260
7053,-0.3198,-0.6431,-0.6831,0.366,-0.122,-0.366,-137.109,18.869,-14.260
7064,-0.3179,-0.6465,-0.6870,-0.061,0.183,-0.427,-137.104,18.864,-14.260
7073,-0.3193,-0.6450,-0.6860,-0.549,0.549,-0.488,-137.109,18.858,-14.260
7083,-0.3203,-0.6465,-0.6875,-0.916,0.854,-0.366,-137.115,18.847,-14.260
7093,-0.3203,-0.6450,-0.6914,-0.977,1.099,-0.183,-137.126,18.836,-14.260
7103,-0.3208,-0.6465,-0.6948,-0.854,1.099,0.061,-137.137,18.825,-14.260
7113,-0.3203,-0.6431,-0.6938,-0.488,1.038,0.183,-137.142,18.820,-14.260
7123,-0.3184,-0.6411,-0.6943,0.000,0.854,0.183,-137.148,18.814,-14.260
7133,-0.3208,-0.6416,-0.6948,0.366,0.793,0.183,-137.148,18.809,-14.260
7143,-0.3242,-0.6392,-0.6958,0.610,0.732,0.183,-137.148,18.803,-14.260
7153,-0.3237,-0.6406,-0.6973,0.610,0.549,0.061,-137.142,18.803,-14.260
7163,-0.3267,-0.6426,-0.6963,0.244,0.244,-0.183,-137.142,18.803,-14.260
7173,-0.3257,-0.6421,-0.6968,-0.122,-0.122,-0.366,-137.148,18.803,-14.260
7185,-0.3267,-0.6431,-0.6992,-0.488,-0.366,-0.488,-137.148,18.803,-14.260
7193,-0.3257,-0.6436,-0.6982,-0.610,-0.488,-0.549,-137.153,18.803,-14.260
7203,-0.3247,-0.6475,-0.6978,-0.549,-0.488,-0.488,-137.159,18.803,-14.260
7213,-0.3237,-0.6504,-0.6973,-0.366,-0.427,-0.366,-137.159,18.803,-14.260
7223,-0.3232,-0.6514,-0.6948,-0.183,-0.305,-0.183,-137.159,18.803,-14.260
7233,-0.3223,-0.6509,-0.6963,0.000,-0.427,-0.122,-137.153,18.803,-14.260
7243,-0.3228,-0.6499,-0.6948,0.061,-0.610,0.122,-137.148,18.809,-14.260
7253,-0.3242,-0.6465,-0.6914,0.122,-0.793,0.244,-137.142,18.820,-14.260
7263,-0.3228,-0.6445,-0.6909,0.244,-0.854,0.305,-137.137,18.825,-14.260
7273,-0.3232,-0.6445,-0.6895,0.305,-0.732,0.183,-137.131,18.836,-14.260
7283,-0.3223,-0.6445,-0.6909,0.305,-0.793,0.122,-137.126,18.842,-14.260
7293,-0.3208,-0.6436,-0.6909,0.305,-0.793,0.061,-137.120,18.847,-14.260
7303,-0.3208,-0.6470,-0.6899,0.061,-0.916,-0.061,-137.115,18.853,-14.260
7313,-0.3203,-0.6455,-0.6865,-0.061,-0.854,-0.061,-137.109,18.858,-14.260
7323,-0.3203,-0.6440,-0.6865,-0.122,-0.793,0.000,-137.104,18.864,-14.260
7333,-0.3198,-0.6426,-0.6841,0.000,-0.610,0.122,-137.104,18.869,-14.260
7343,-0.3184,-0.6416,-0.6831,0.305,-0.366,0.244,-137.098,18.869,-14.260
7353,-0.3198,-0.6426,-0.6812,0.366,-0.183,0.366,-137.087,18.875,-14.260
7363,-0.3218,-0.6426,-0.6851,0.488,-0.122,0.488,-137.082,18.880,-14.260
7373,-0.3232,-0.6426,-0.6841,0.427,0.000,0.366,-137.076,18.880,-14.260
7383,-0.3223,-0.6431,-0.6836,0.183,0.244,0.305,-137.071,18.885,-14.260
7393,-0.3218,-0.6421,-0.6831,-0.183,0.427,0.183,-137.071,18.880,-14.260
7403,-0.3213,-0.6421,-0.6841,-0.427,0.610,0.183,-137.076,18.880,-14.260
7413,-0.3228,-0.6421,-0.6846,-0.549,0.671,0.183,-137.082,18.875,-14.260
7423,-0.3228,-0.6421,-0.6880,-0.549,0.793,0.183,-137.087,18.875,-14.260
7433,-0.3247,-0.6416,-0.6929,-0.366,0.916,0.061,-137.093,18.869,-14.260
7443,-0.3228,-0.6431,-0.6919,-0.122,0.977,0.000,-137.098,18.858,-14.260
7453,-0.3208,-0.6455,-0.6934,0.061,0.854,0.000,-137.098,18.853,-14.260
7463,-0.3228,-0.6455,-0.6934,0.122,0.549,0.000,-137.098,18.847,-14.260
7473,-0.3203,-0.6460,-0.6914,0.183,0.183,0.000,-137.093,18.847,-14.260
7483,-0.3208,-0.6450,-0.6895,0.183,0.000,0.061,-137.093,18.847,-14.260
7493,-0.3218,-0.6436,-0.6929,0.244,-0.122,0.061,-137.087,18.847,-14.260
7503,-0.3203,-0.6440,-0.6885,0.183,-0.061,0.000,-137.087,18.847,-14.260
7513,-0.3198,-0.6465,-0.6895,0.122,0.183,-0.061,-137.082,18.842,-14.260
7523,-0.3188,-0.6440,-0.6914,0.000,0.427,-0.061,-137.082,18.836,-14.260
7533,-0.3208,-0.6465,-0.6909,-0.366,0.854,0.122,-137.087,18.831,-14.260
7543,-0.3218,-0.6470,-0.6880,-0.488,1.099,0.183,-137.093,18.825,-14.260
7553,-0.3232,-0.6455,-0.6899,-0.732,1.404,0.305,-137.098,18.814,-14.260
7564,-0.3242,-0.6431,-0.6919,-0.916,1.709,0.427,-137.115,18.809,-14.260
7573,-0.3232,-0.6416,-0.6953,-0.916,1.892,0.427,-137.131,18.798,-14.260
7583,-0.3237,-0.6416,-0.6973,-0.732,1.831,0.305,-137.148,18.787,-14.260
7593,-0.3218,-0.6426,-0.6987,-0.488,1.343,0.122,-137.153,18.776,-14.260
7603,-0.3232,-0.6455,-0.7031,-0.183,0.671,0.061,-137.164,18.770,-14.260
7613,-0.3223,-0.6460,-0.6973,0.122,0.061,0.122,-137.164,18.770,-14.260
7623,-0.3232,-0.6460,-0.6982,0.366,-0.427,0.122,-137.159,18.776,-14.260
7633,-0.3218,-0.6465,-0.6948,0.427,-0.488,0.244,-137.153,18.781,-14.260
7643,-0.3208,-0.6460,-0.6948,0.305,-0.366,0.305,-137.148,18.787,-14.260
7653,-0.3198,-0.6470,-0.6943,0.061,-0.244,0.366,-137.148,18.787,-14.260
7663,-0.3213,-0.6411,-0.6934,-0.122,-0.244,0.427,-137.148,18.792,-14.260
7673,-0.3232,-0.6353,-0.6929,-0.061,-0.244,0.427,-137.153,18.798,-14.260
7683,-0.3208,-0.6372,-0.6919,0.427,-0.305,0.122,-137.153,18.803,-14.260
7693,-0.3198,-0.6401,-0.6880,0.793,-0.305,-0.183,-137.142,18.803,-14.260
7703,-0.3179,-0.6416,-0.6880,0.732,-0.244,-0.366,-137.131,18.803,-14.260
7713,-0.3174,-0.6426,-0.6846,0.244,-0.122,-0.305,-137.126,18.798,-14.260
7723,-0.3154,-0.6440,-0.6865,-0.488,0.061,-0.244,-137.126,18.792,-14.260
7733,-0.3188,-0.6445,-0.6899,-0.916,0.183,-0.122,-137.131,18.792,-14.260
7743,-0.3188,-0.6440,-0.6938,-0.977,0.305,0.000,-137.142,18.787,-14.260
7753,-0.3203,-0.6436,-0.6948,-0.549,0.366,0.061,-137.153,18.781,-14.260
7763,-0.3208,-0.6431,-0.6968,-0.061,0.427,0.183,-137.153,18.781,-14.260
7773,-0.3203,-0.6436,-0.6963,0.366,0.427,0.183,-137.153,18.776,-14.260
7783,-0.3213,-0.6426,-0.6948,0.305,0.305,0.183,-137.153,18.776,-14.260
7793,-0.3213,-0.6426,-0.6943,0.061,0.122,0.244,-137.153,18.776,-14.260
7803,-0.3232,-0.6401,-0.6963,-0.244,-0.183,0.366,-137.159,18.781,-14.260
7813,-0.3223,-0.6392,-0.6958,-0.366,-0.427,0.244,-137.164,18.787,-14.260
7823,-0.3232,-0.6396,-0.6982,-0.305,-0.610,0.000,-137.170,18.792,-14.260
7833,-0.3213,-0.6431,-0.6958,-0.122,-0.671,-0.244,-137.170,18.792,-14.260
7843,-0.3184,-0.6465,-0.6987,-0.122,-0.671,-0.366,-137.170,18.792,-14.260
7853,-0.3188,-0.6484,-0.6968,-0.183,-0.610,-0.366,-137.164,18.792,-14.260
7863,-0.3193,-0.6489,-0.6968,-0.122,-0.671,-0.183,-137.164,18.792,-14.260
7873,-0.3223,-0.6489,-0.6943,0.061,-0.732,0.061,-137.159,18.798,-14.260
7883,-0.3242,-0.6484,-0.6929,0.427,-0.793,0.183,-137.153,18.809,-14.260
7893,-0.3252,-0.6450,-0.6885,0.732,-0.732,0.183,-137.142,18.814,-14.260
7903,-0.3242,-0.6455,-0.6885,0.854,-0.610,0.244,-137.126,18.825,-14.260
7913,-0.3247,-0.6421,-0.6880,0.732,-0.366,0.305,-137.120,18.831,-14.260
7923,-0.3228,-0.6426,-0.6904,0.366,-0.183,0.305,-137.115,18.836,-14.260
7933,-0.3218,-0.6431,-0.6895,-0.122,-0.061,0.244,-137.115,18.836,-14.260
7943,-0.3218,-0.6421,-0.6865,-0.549,-0.305,0.183,-137.120,18.842,-14.260
7953,-0.3223,-0.6411,-0.6875,-0.610,-0.488,0.183,-137.126,18.847,-14.260
7963,-0.3198,-0.6411,-0.6899,-0.488,-0.671,0.061,-137.126,18.853,-14.260
7973,-0.3188,-0.6411,-0.6895,-0.061,-0.732,-0.061,-137.126,18.853,-14.260
7983,-0.3179,-0.6445,-0.6885,0.305,-0.671,-0.122,-137.115,18.858,-14.260
7993,-0.3198,-0.6445,-0.6875,0.610,-0.549,-0.061,-137.109,18.858,-14.260
8003,-0.3179,-0.6470,-0.6860,0.732,-0.427,0.000,-137.093,18.858,-14.260
8013,-0.3179,-0.6460,-0.6831,0.610,-0.366,0.122,-137.082,18.858,-14.260
8023,-0.3203,-0.6436,-0.6831,0.427,-0.305,0.244,-137.076,18.864,-14.260
8033,-0.3232,-0.6426,-0.6821,0.305,0.000,0.183,-137.071,18.869,-14.260
8043,-0.3218,-0.6411,-0.6816,0.061,0.488,0.122,-137.065,18.864,-14.260
8053,-0.3208,-0.6426,-0.6860,-0.122,0.916,0.122,-137.065,18.858,-14.260
8064,-0.3203,-0.6426,-0.6895,-0.366,1.282,0.061,-137.076,18.853,-14.260
8073,-0.3208,-0.6431,-0.6914,-0.671,1.343,0.061,-137.082,18.842,-14.260
8083,-0.3223,-0.6411,-0.6948,-0.854,1.282,0.061,-137.098,18.831,-14.260
8093,-0.3223,-0.6416,-0.6948,-0.671,1.099,0.000,-137.109,18.825,-14.260
8103,-0.3218,-0.6411,-0.6963,-0.366,0.854,0.000,-137.115,18.814,-14.260
8113,-0.3237,-0.6416,-0.6978,-0.061,0.549,-0.061,-137.120,18.814,-14.260
8123,-0.3237,-0.6426,-0.6982,0.244,0.366,-0.122,-137.120,18.809,-14.260
8133,-0.3228,-0.6401,-0.6943,0.366,0.183,-0.183,-137.120,18.809,-14.260
8143,-0.3213,-0.6436,-0.6943,0.366,-0.061,-0.244,-137.115,18.803,-14.260
8153,-0.3198,-0.6470,-0.6943,0.244,-0.244,-0.366,-137.109,18.803,-14.260
8163,-0.3203,-0.6475,-0.6919,0.000,-0.488,-0.305,-137.109,18.803,-14.260
8173,-0.3174,-0.6494,-0.6943,-0.183,-0.549,-0.244,-137.104,18.803,-14.260
8183,-0.3174,-0.6484,-0.6938,-0.305,-0.427,-0.244,-137.104,18.798,-14.260
8193,-0.3188,-0.6460,-0.6943,-0.183,-0.366,-0.122,-137.104,18.798,-14.260
8203,-0.3184,-0.6489,-0.6919,0.122,-0.244,0.061,-137.104,18.798,-14.260
8213,-0.3203,-0.6484,-0.6895,0.366,-0.061,0.244,-137.093,18.803,-14.260
8223,-0.3198,-0.6460,-0.6880,0.610,0.183,0.366,-137.087,18.803,-14.260
8233,-0.3198,-0.6460,-0.6885,0.671,0.366,0.427,-137.082,18.798,-14.260
8243,-0.3198,-0.6445,-0.6875,0.610,0.488,0.488,-137.071,18.798,-14.260
8253,-0.3208,-0.6411,-0.6899,0.427,0.671,0.549,-137.071,18.798,-14.260
8263,-0.3203,-0.6421,-0.6870,0.305,0.793,0.488,-137.071,18.798,-14.260
8273,-0.3188,-0.6411,-0.6865,0.305,0.793,0.305,-137.071,18.792,-14.260
8283,-0.3208,-0.6416,-0.6851,0.183,0.671,0.183,-137.065,18.787,-14.260
8293,-0.3208,-0.6406,-0.6851,0.061,0.488,0.122,-137.065,18.787,-14.260
8303,-0.3208,-0.6421,-0.6860,-0.122,0.488,0.000,-137.065,18.787,-14.260
8313,-0.3208,-0.6445,-0.6880,-0.427,0.610,-0.183,-137.071,18.781,-14.260
8323,-0.3232,-0.6465,-0.6914,-0.854,0.793,-0.305,-137.076,18.770,-14.260
8333,-0.3237,-0.6475,-0.6948,-1.221,0.977,-0.183,-137.093,18.765,-14.260
8343,-0.3228,-0.6455,-0.6992,-1.282,1.038,-0.122,-137.109,18.754,-14.260
8353,-0.3203,-0.6440,-0.6978,-1.038,0.916,0.000,-137.120,18.748,-14.260
8363,-0.3218,-0.6436,-0.6948,-0.366,0.549,0.061,-137.126,18.743,-14.260
8373,-0.3232,-0.6431,-0.6953,0.366,0.183,0.061,-137.126,18.743,-14.260
8383,-0.3257,-0.6455,-0.6929,0.732,-0.061,0.000,-137.120,18.748,-14.260
8393,-0.3242,-0.6455,-0.6890,0.671,-0.061,-0.122,-137.109,18.748,-14.260
8403,-0.3276,-0.6460,-0.6909,0.244,0.122,-0.061,-137.104,18.754,-14.260
8413,-0.3262,-0.6455,-0.6914,-0.305,0.305,-0.061,-137.104,18.754,-14.260
8423,-0.3252,-0.6465,-0.6914,-0.854,0.427,0.000,-137.115,18.748,-14.260
8433,-0.3242,-0.6475,-0.6958,-1.160,0.488,0.061,-137.126,18.748,-14.260
8443,-0.3218,-0.6470,-0.6982,-0.977,0.427,0.244,-137.137,18.748,-14.260
8453,-0.3228,-0.6489,-0.7021,-0.610,0.305,0.427,-137.148,18.748,-14.260
8463,-0.3218,-0.6479,-0.7026,-0.122,0.122,0.610,-137.153,18.748,-14.260
8473,-0.3218,-0.6479,-0.7026,0.305,0.122,0.671,-137.153,18.748,-14.260
8483,-0.3213,-0.6445,-0.6987,0.488,-0.061,0.732,-137.153,18.754,-14.260
8493,-0.3213,-0.6440,-0.6973,0.366,-0.427,0.793,-137.148,18.765,-14.260
8503,-0.3198,-0.6445,-0.7007,0.000,-0.916,0.854,-137.153,18.770,-14.260
8513,-0.3198,-0.6421,-0.6992,-0.427,-1.282,0.793,-137.159,18.787,-14.260
8523,-0.3193,-0.6406,-0.6997,-0.549,-1.526,0.793,-137.164,18.803,-14.260
8533,-0.3193,-0.6392,-0.6992,-0.244,-1.587,0.793,-137.170,18.814,-14.260
8543,-0.3228,-0.6348,-0.6997,0.183,-1.404,0.671,-137.175,18.831,-14.260
8553,-0.3208,-0.6343,-0.6948,0.671,-1.282,0.488,-137.170,18.842,-14.260
8564,-0.3203,-0.6367,-0.6929,0.916,-1.221,0.244,-137.159,18.853,-14.260
8573,-0.3203,-0.6387,-0.6904,0.793,-1.099,0.000,-137.148,18.864,-14.260
8583,-0.3188,-0.6392,-0.6919,0.244,-1.160,-0.122,-137.148,18.869,-14.260
8593,-0.3218,-0.6367,-0.6934,-0.366,-1.160,-0.122,-137.148,18.875,-14.260
8603,-0.3203,-0.6348,-0.6934,-0.732,-1.221,-0.244,-137.159,18.880,-14.260
8613,-0.3218,-0.6367,-0.6914,-0.732,-1.221,-0.427,-137.164,18.885,-14.260
8623,-0.3213,-0.6382,-0.6909,-0.427,-1.526,-0.732,-137.164,18.891,-14.260
8633,-0.3218,-0.6431,-0.6860,-0.061,-1.831,-0.916,-137.153,18.902,-14.260
8643,-0.3198,-0.6484,-0.6821,0.183,-2.014,-0.916,-137.137,18.907,-14.260
8653,-0.3213,-0.6499,-0.6841,0.305,-2.136,-0.732,-137.120,18.918,-14.260
8663,-0.3213,-0.6528,-0.6797,0.427,-1.892,-0.549,-137.104,18.924,-14.260
8673,-0.3218,-0.6538,-0.6772,0.488,-1.465,-0.305,-137.082,18.935,-14.260
8683,-0.3228,-0.6538,-0.6792,0.549,-0.916,-0.061,-137.065,18.940,-14.260
8693,-0.3237,-0.6514,-0.6777,0.549,-0.366,0.183,-137.049,18.946,-14.260
8703,-0.3228,-0.6494,-0.6777,0.427,0.061,0.488,-137.038,18.946,-14.260
8713,-0.3257,-0.6460,-0.6802,0.305,0.305,0.549,-137.032,18.951,-14.260
8723,-0.3271,-0.6445,-0.6782,0.183,0.427,0.549,-137.027,18.957,-14.260
8733,-0.3286,-0.6440,-0.6807,-0.061,0.549,0.610,-137.027,18.957,-14.260
8743,-0.3257,-0.6440,-0.6826,-0.244,0.671,0.488,-137.027,18.962,-14.260
8753,-0.3252,-0.6421,-0.6851,-0.610,0.854,0.366,-137.032,18.957,-14.260
8763,-0.3262,-0.6426,-0.6899,-0.793,0.977,0.244,-137.043,18.951,-14.260
8773,-0.3257,-0.6421,-0.6914,-0.732,1.038,0.305,-137.054,18.951,-14.260
8783,-0.3247,-0.6401,-0.6938,-0.427,0.977,0.183,-137.065,18.946,-14.260
8793,-0.3242,-0.6411,-0.6924,0.122,0.854,0.122,-137.065,18.940,-14.260
8803,-0.3237,-0.6411,-0.6919,0.549,0.549,0.000,-137.065,18.935,-14.260
8813,-0.3232,-0.6455,-0.6895,0.671,0.244,0.000,-137.054,18.929,-14.260
8823,-0.3208,-0.6450,-0.6904,0.488,0.000,0.122,-137.049,18.929,-14.260
8833,-0.3203,-0.6460,-0.6909,0.183,0.000,0.183,-137.049,18.929,-14.260
8844,-0.3193,-0.6440,-0.6904,0.000,0.061,0.244,-137.049,18.929,-14.260
8854,-0.3218,-0.6436,-0.6909,0.000,0.244,0.244,-137.049,18.929,-14.260
8864,-0.3223,-0.6416,-0.6924,0.183,0.549,0.366,-137.049,18.924,-14.260
8874,-0.3213,-0.6450,-0.6899,0.183,0.793,0.366,-137.049,18.918,-14.260
8884,-0.3203,-0.6431,-0.6943,0.061,1.038,0.305,-137.054,18.913,-14.260
8894,-0.3213,-0.6426,-0.6953,-0.244,1.038,0.305,-137.060,18.907,-14.260
8904,-0.3208,-0.6421,-0.6948,-0.610,0.916,0.427,-137.071,18.902,-14.260
8914,-0.3208,-0.6396,-0.6953,-0.610,0.732,0.427,-137.087,18.896,-14.260
8924,-0.3228,-0.6357,-0.6973,-0.427,0.610,0.244,-137.098,18.891,-14.260
8934,-0.3247,-0.6387,-0.6938,-0.061,0.488,0.122,-137.104,18.891,-14.260
8944,-0.3242,-0.6387,-0.6958,0.244,0.366,0.061,-137.104,18.891,-14.260
8954,-0.3262,-0.6392,-0.6968,0.244,0.183,-0.061,-137.104,18.891,-14.260
8964,-0.3247,-0.6440,-0.6948,0.122,-0.061,-0.244,-137.104,18.891,-14.260
8974,-0.3252,-0.6445,-0.6963,-0.061,-0.305,-0.366,-137.104,18.891,-14.260
8984,-0.3237,-0.6460,-0.6934,-0.183,-0.488,-0.366,-137.104,18.891,-14.260
8994,-0.3223,-0.6465,-0.6929,-0.183,-0.366,-0.244,-137.104,18.891,-14.260
9004,-0.3228,-0.6465,-0.6929,-0.122,-0.244,-0.122,-137.098,18.891,-14.260
9014,-0.3223,-0.6460,-0.6904,0.000,-0.183,0.061,-137.098,18.891,-14.260
9024,-0.3223,-0.6431,-0.6914,0.305,-0.122,0.183,-137.098,18.891,-14.260
9034,-0.3218,-0.6426,-0.6904,0.366,-0.305,0.305,-137.093,18.896,-14.260
9044,-0.3242,-0.6436,-0.6899,0.366,-0.305,0.305,-137.087,18.902,-14.260
9054,-0.3262,-0.6421,-0.6865,0.244,-0.305,0.061,-137.082,18.907,-14.260
9064,-0.3252,-0.6440,-0.6831,0.061,-0.122,-0.061,-137.076,18.907,-14.260
9074,-0.3242,-0.6470,-0.6851,-0.122,0.061,-0.122,-137.076,18.907,-14.260
9084,-0.3242,-0.6460,-0.6885,-0.366,0.122,-0.183,-137.076,18.907,-14.260
9094,-0.3228,-0.6455,-0.6899,-0.488,0.244,-0.122,-137.076,18.902,-14.260
9104,-0.3232,-0.6436,-0.6899,-0.427,0.305,-0.061,-137.082,18.902,-14.260
9114,-0.3237,-0.6465,-0.6899,-0.305,0.305,0.000,-137.082,18.902,-14.260
9124,-0.3223,-0.6484,-0.6890,-0.061,0.183,0.061,-137.082,18.896,-14.260
9134,-0.3208,-0.6479,-0.6919,0.000,0.061,0.244,-137.082,18.896,-14.260
9144,-0.3218,-0.6450,-0.6904,0.122,0.000,0.427,-137.076,18.896,-14.260
9154,-0.3242,-0.6455,-0.6899,0.183,0.000,0.549,-137.076,18.902,-14.260
9164,-0.3218,-0.6450,-0.6875,0.183,0.061,0.549,-137.071,18.907,-14.260
9174,-0.3228,-0.6475,-0.6899,0.183,0.183,0.549,-137.071,18.907,-14.260
9186,-0.3203,-0.6455,-0.6899,0.183,0.244,0.366,-137.071,18.907,-14.260
9194,-0.3218,-0.6470,-0.6904,0.122,0.366,0.305,-137.065,18.902,-14.260
9204,-0.3223,-0.6470,-0.6890,0.000,0.549,0.427,-137.065,18.902,-14.260
9214,-0.3232,-0.6465,-0.6899,-0.183,0.671,0.488,-137.071,18.902,-14.260
9224,-0.3242,-0.6436,-0.6895,-0.183,0.793,0.610,-137.071,18.902,-14.260
9234,-0.3252,-0.6406,-0.6914,-0.061,0.916,0.671,-137.076,18.896,-14.260
9244,-0.3262,-0.6387,-0.6924,0.000,1.038,0.671,-137.087,18.896,-14.260
9254,-0.3252,-0.6387,-0.6943,0.000,1.160,0.610,-137.093,18.896,-14.260
9264,-0.3257,-0.6421,-0.6963,-0.183,1.160,0.427,-137.098,18.891,-14.260
9274,-0.3208,-0.6426,-0.6953,-0.549,0.977,0.183,-137.109,18.880,-14.260
9284,-0.3188,-0.6406,-0.6968,-0.854,0.610,0.122,-137.120,18.875,-14.260
9294,-0.3213,-0.6377,-0.6987,-0.916,0.366,0.183,-137.137,18.875,-14.260
9304,-0.3223,-0.6367,-0.6978,-0.549,0.061,0.122,-137.148,18.875,-14.260
9314,-0.3232,-0.6367,-0.6953,0.061,-0.183,0.000,-137.153,18.875,-14.260
9324,-0.3228,-0.6401,-0.6934,0.549,-0.305,-0.183,-137.148,18.875,-14.260
9334,-0.3252,-0.6426,-0.6909,0.610,-0.183,-0.244,-137.137,18.880,-14.260
9344,-0.3237,-0.6460,-0.6909,0.366,0.183,-0.061,-137.131,18.875,-14.260
9354,-0.3223,-0.6455,-0.6909,-0.122,0.427,0.122,-137.131,18.875,-14.260
9364,-0.3213,-0.6445,-0.6929,-0.610,0.488,0.122,-137.142,18.869,-14.260
9374,-0.3208,-0.6445,-0.6924,-0.854,0.305,0.061,-137.148,18.869,-14.260
9384,-0.3213,-0.6445,-0.6909,-0.732,-0.122,0.061,-137.153,18.869,-14.260
9394,-0.3184,-0.6460,-0.6938,-0.366,-0.488,0.122,-137.153,18.869,-14.260
9404,-0.3193,-0.6470,-0.6929,0.061,-0.732,0.122,-137.153,18.875,-14.260
9414,-0.3203,-0.6479,-0.6904,0.366,-0.671,0.122,-137.142,18.875,-14.260
9424,-0.3198,-0.6494,-0.6899,0.549,-0.244,0.244,-137.137,18.875,-14.260
9434,-0.3198,-0.6494,-0.6875,0.549,0.183,0.366,-137.126,18.875,-14.260
9444,-0.3232,-0.6465,-0.6855,0.488,0.427,0.488,-137.120,18.875,-14.260
9454,-0.3262,-0.6445,-0.6855,0.427,0.488,0.671,-137.115,18.880,-14.260
9464,-0.3267,-0.6426,-0.6841,0.366,0.610,0.854,-137.109,18.885,-14.260
9474,-0.3262,-0.6416,-0.6851,0.305,0.671,0.916,-137.109,18.891,-14.260
9484,-0.3276,-0.6411,-0.6865,0.183,0.854,0.854,-137.109,18.891,-14.260
9494,-0.3262,-0.6406,-0.6885,0.061,1.099,0.793,-137.115,18.891,-14.260
9504,-0.3237,-0.6426,-0.6885,-0.183,1.221,0.732,-137.115,18.891,-14.260
9514,-0.3237,-0.6431,-0.6929,-0.488,1.282,0.671,-137.126,18.885,-14.260
9524,-0.3232,-0.6421,-0.6938,-0.610,1.160,0.610,-137.137,18.880,-14.260
9534,-0.3198,-0.6421,-0.6953,-0.671,0.977,0.549,-137.148,18.875,-14.260
9544,-0.3203,-0.6436,-0.6963,-0.610,0.610,0.549,-137.159,18.869,-14.260
9554,-0.3218,-0.6436,-0.6982,-0.366,0.305,0.549,-137.164,18.869,-14.260
9564,-0.3193,-0.6426,-0.6968,0.122,0.061,0.610,-137.170,18.875,-14.260
9574,-0.3232,-0.6440,-0.6934,0.488,0.000,0.488,-137.164,18.875,-14.260
9584,-0.3223,-0.6436,-0.6890,0.793,0.000,0.427,-137.153,18.880,-14.260
9594,-0.3228,-0.6436,-0.6885,0.732,0.061,0.427,-137.148,18.880,-14.260
9604,-0.3228,-0.6426,-0.6899,0.427,0.183,0.549,-137.142,18.885,-14.260
9614,-0.3223,-0.6426,-0.6919,0.000,0.305,0.549,-137.148,18.885,-14.260
9624,-0.3208,-0.6426,-0.6934,-0.549,0.427,0.549,-137.153,18.885,-14.260
9634,-0.3193,-0.6436,-0.6948,-0.732,0.366,0.549,-137.164,18.880,-14.260
9644,-0.3174,-0.6416,-0.6987,-0.549,0.244,0.610,-137.175,18.880,-14.260
9654,-0.3184,-0.6387,-0.6987,-0.183,-0.061,0.610,-137.181,18.880,-14.260
9664,-0.3213,-0.6313,-0.6968,0.366,-0.244,0.610,-137.186,18.891,-14.260
9674,-0.3237,-0.6289,-0.6934,1.038,-0.366,0.488,-137.181,18.896,-14.260
9684,-0.3237,-0.6318,-0.6909,1.526,-0.305,0.183,-137.170,18.902,-14.260
9694,-0.3262,-0.6313,-0.6860,1.526,-0.183,-0.122,-137.153,18.907,-14.260
9704,-0.3247,-0.6333,-0.6846,0.916,-0.061,-0.305,-137.148,18.907,-14.260
9714,-0.3247,-0.6377,-0.6841,-0.061,0.244,-0.427,-137.142,18.907,-14.260
9724,-0.3223,-0.6382,-0.6860,-0.916,0.549,-0.427,-137.153,18.896,-14.260
9734,-0.3213,-0.6396,-0.6909,-1.404,0.916,-0.427,-137.170,18.891,-14.260
9744,-0.3208,-0.6401,-0.6973,-1.343,1.099,-0.244,-137.186,18.880,-14.260
9754,-0.3193,-0.6411,-0.6987,-0.977,1.160,-0.183,-137.203,18.864,-14.260
9764,-0.3159,-0.6426,-0.7007,-0.366,0.977,-0.061,-137.208,18.853,-14.260
9774,-0.3159,-0.6455,-0.6973,0.183,0.549,0.061,-137.208,18.847,-14.260
9784,-0.3169,-0.6470,-0.7002,0.488,0.061,0.061,-137.203,18.842,-14.260
9794,-0.3188,-0.6445,-0.6978,0.732,-0.366,0.000,-137.197,18.842,-14.260
9804,-0.3208,-0.6431,-0.6943,0.793,-0.671,-0.122,-137.186,18.842,-14.260
9814,-0.3223,-0.6426,-0.6924,0.854,-0.793,-0.183,-137.175,18.847,-14.260
9824,-0.3223,-0.6426,-0.6909,0.916,-0.854,-0.305,-137.164,18.853,-14.260
9834,-0.3203,-0.6445,-0.6885,0.793,-0.854,-0.488,-137.148,18.853,-14.260
9844,-0.3208,-0.6475,-0.6880,0.427,-0.854,-0.488,-137.137,18.858,-14.260
9854,-0.3213,-0.6494,-0.6870,-0.061,-0.854,-0.549,-137.131,18.858,-14.260
9864,-0.3228,-0.6470,-0.6875,-0.427,-0.732,-0.549,-137.126,18.858,-14.260
9874,-0.3223,-0.6475,-0.6890,-0.549,-0.488,-0.427,-137.126,18.858,-14.260
9884,-0.3237,-0.6494,-0.6880,-0.488,-0.244,-0.305,-137.126,18.858,-14.260
9894,-0.3232,-0.6494,-0.6865,-0.183,0.061,-0.244,-137.120,18.858,-14.260
9904,-0.3247,-0.6489,-0.6860,0.122,0.183,-0.122,-137.115,18.858,-14.260
9914,-0.3228,-0.6484,-0.6895,0.244,0.183,0.061,-137.109,18.858,-14.260
9924,-0.3247,-0.6475,-0.6895,0.244,0.061,0.183,-137.104,18.858,-14.260
9934,-0.3276,-0.6470,-0.6904,0.183,0.061,0.305,-137.104,18.864,-14.260
9944,-0.3281,-0.6426,-0.6919,0.183,0.244,0.427,-137.104,18.864,-14.260
9954,-0.3286,-0.6411,-0.6914,0.183,0.427,0.427,-137.104,18.869,-14.260
9964,-0.3247,-0.6431,-0.6934,0.122,0.610,0.366,-137.104,18.869,-14.260
9974,-0.3228,-0.6440,-0.6924,0.061,0.549,0.305,-137.104,18.864,-14.260
9984,-0.3213,-0.6445,-0.6948,-0.183,0.427,0.488,-137.109,18.864,-14.260
9994,-0.3208,-0.6416,-0.6968,-0.305,0.305,0.793,-137.120,18.864,-14.260
10004,-0.3208,-0.6401,-0.6987,-0.244,0.183,0.732,-137.126,18.869,-14.260
10014,-0.3228,-0.6377,-0.6978,-0.061,0.122,0.549,-137.131,18.869,-14.260
10024,-0.3198,-0.6377,-0.6948,0.183,0.183,0.244,-137.137,18.869,-14.260
10034,-0.3188,-0.6377,-0.6997,0.122,0.183,0.061,-137.142,18.869,-14.260
10044,-0.3188,-0.6382,-0.6968,0.061,0.061,-0.061,-137.142,18.864,-14.260
10054,-0.3203,-0.6377,-0.6982,-0.183,-0.183,-0.061,-137.148,18.864,-14.260
10064,-0.3213,-0.6392,-0.6992,-0.366,-0.427,-0.183,-137.153,18.864,-14.260
10074,-0.3179,-0.6396,-0.6997,-0.488,-0.671,-0.366,-137.164,18.864,-14.260
10084,-0.3198,-0.6392,-0.6953,-0.488,-0.916,-0.427,-137.164,18.864,-14.260
10094,-0.3218,-0.6396,-0.6948,-0.366,-1.099,-0.610,-137.170,18.869,-14.260
10104,-0.3213,-0.6401,-0.6943,-0.183,-1.221,-0.793,-137.164,18.869,-14.260
10114,-0.3203,-0.6421,-0.6914,0.000,-1.221,-0.854,-137.159,18.875,-14.260
10124,-0.3203,-0.6455,-0.6899,0.061,-1.282,-0.977,-137.153,18.875,-14.260
10134,-0.3213,-0.6470,-0.6870,0.061,-1.404,-0.916,-137.142,18.880,-14.260
10144,-0.3232,-0.6470,-0.6826,0.000,-1.343,-0.793,-137.131,18.885,-14.260
10154,-0.3237,-0.6504,-0.6831,-0.122,-1.160,-0.793,-137.120,18.885,-14.260
10164,-0.3228,-0.6484,-0.6821,-0.305,-0.854,-0.671,-137.115,18.891,-14.260
10174,-0.3228,-0.6489,-0.6812,-0.427,-0.488,-0.549,-137.109,18.891,-14.260
10184,-0.3218,-0.6514,-0.6841,-0.549,-0.061,-0.366,-137.104,18.885,-14.260
10194,-0.3213,-0.6489,-0.6860,-0.610,0.305,-0.122,-137.104,18.880,-14.260
10204,-0.3242,-0.6465,-0.6875,-0.427,0.549,0.122,-137.109,18.880,-14.260
10214,-0.3242,-0.6450,-0.6890,-0.305,0.732,0.305,-137.109,18.880,-14.260
10224,-0.3252,-0.6421,-0.6909,-0.061,0.732,0.305,-137.115,18.875,-14.260
10234,-0.3262,-0.6421,-0.6895,0.000,0.793,0.244,-137.115,18.875,-14.260
10244,-0.3247,-0.6421,-0.6890,-0.061,0.610,0.183,-137.115,18.875,-14.260
10254,-0.3257,-0.6421,-0.6904,-0.244,0.427,0.122,-137.120,18.875,-14.260
10264,-0.3262,-0.6436,-0.6919,-0.427,0.244,0.000,-137.126,18.875,-14.260
10274,-0.3242,-0.6445,-0.6919,-0.549,0.183,-0.122,-137.131,18.869,-14.260
10284,-0.3228,-0.6455,-0.6934,-0.427,0.122,-0.061,-137.131,18.869,-14.260
10294,-0.3223,-0.6460,-0.6958,-0.183,0.061,0.000,-137.137,18.869,-14.260
10304,-0.3223,-0.6450,-0.6958,0.122,0.000,0.061,-137.131,18.864,-14.260
10314,-0.3203,-0.6436,-0.6924,0.488,-0.122,0.122,-137.126,18.869,-14.260
10324,-0.3203,-0.6436,-0.6899,0.671,-0.244,0.061,-137.120,18.869,-14.260
10334,-0.3223,-0.6421,-0.6870,0.671,-0.183,0.061,-137.109,18.869,-14.260
10344,-0.3223,-0.6440,-0.6851,0.488,0.061,0.000,-137.104,18.869,-14.260
10354,-0.3228,-0.6436,-0.6860,0.122,0.305,0.000,-137.098,18.869,-14.260
10364,-0.3223,-0.6450,-0.6855,-0.244,0.549,0.000,-137.098,18.864,-14.260
10374,-0.3223,-0.6450,-0.6895,-0.488,0.671,-0.061,-137.104,18.858,-14.260
10384,-0.3223,-0.6406,-0.6919,-0.610,0.793,0.000,-137.115,18.853,-14.260
10394,-0.3223,-0.6421,-0.6934,-0.427,0.793,0.061,-137.120,18.847,-14.260
10404,-0.3208,-0.6440,-0.6938,-0.183,0.671,0.000,-137.126,18.842,-14.260
10414,-0.3228,-0.6431,-0.6973,0.000,0.549,-0.061,-137.126,18.836,-14.260
10424,-0.3237,-0.6411,-0.6938,0.122,0.366,0.061,-137.126,18.836,-14.260
10434,-0.3208,-0.6411,-0.6953,0.183,0.122,0.122,-137.126,18.836,-14.260
10444,-0.3208,-0.6421,-0.6938,0.305,-0.244,0.122,-137.126,18.836,-14.260
10454,-0.3203,-0.6411,-0.6934,0.366,-0.488,0.061,-137.120,18.842,-14.260
10464,-0.3218,-0.6426,-0.6938,0.366,-0.549,-0.061,-137.120,18.842,-14.260
10474,-0.3223,-0.6445,-0.6914,0.305,-0.549,-0.122,-137.115,18.847,-14.260
10484,-0.3218,-0.6440,-0.6909,0.244,-0.427,-0.183,-137.109,18.847,-14.260
10494,-0.3213,-0.6445,-0.6914,0.122,-0.305,-0.183,-137.104,18.847,-14.260
10504,-0.3218,-0.6445,-0.6909,0.061,-0.244,-0.183,-137.104,18.847,-14.260
10514,-0.3228,-0.6465,-0.6934,0.000,0.000,-0.244,-137.098,18.847,-14.260
10524,-0.3242,-0.6455,-0.6943,-0.061,0.061,-0.183,-137.098,18.842,-14.260
10534,-0.3242,-0.6440,-0.6924,-0.061,0.061,-0.183,-137.098,18.842,-14.260
10544,-0.3252,-0.6436,-0.6909,-0.122,-0.061,-0.122,-137.098,18.842,-14.260
10554,-0.3257,-0.6445,-0.6914,-0.122,-0.305,-0.122,-137.098,18.847,-14.260
10565,-0.3262,-0.6460,-0.6895,-0.061,-0.427,-0.183,-137.098,18.853,-14.260
10574,-0.3247,-0.6479,-0.6914,-0.122,-0.427,-0.183,-137.093,18.853,-14.260
10584,-0.3218,-0.6484,-0.6895,-0.183,-0.427,-0.122,-137.093,18.853,-14.260
10594,-0.3213,-0.6475,-0.6909,-0.244,-0.305,-0.061,-137.087,18.858,-14.260
10604,-0.3218,-0.6489,-0.6919,-0.244,-0.244,0.000,-137.087,18.858,-14.260
10614,-0.3208,-0.6455,-0.6914,-0.244,-0.183,0.183,-137.093,18.858,-14.260
10624,-0.3188,-0.6450,-0.6880,0.000,-0.122,0.244,-137.087,18.858,-14.260
10634,-0.3184,-0.6455,-0.6880,0.366,-0.183,0.305,-137.082,18.858,-14.260
10644,-0.3184,-0.6450,-0.6909,0.610,-0.305,0.244,-137.076,18.864,-14.260
10654,-0.3213,-0.6465,-0.6875,0.549,-0.366,0.244,-137.065,18.864,-14.260
10664,-0.3213,-0.6455,-0.6875,0.488,-0.366,0.305,-137.060,18.869,-14.260
10674,-0.3208,-0.6455,-0.6851,0.427,-0.183,0.305,-137.049,18.875,-14.260
10684,-0.3232,-0.6440,-0.6851,0.305,0.122,0.183,-137.043,18.875,-14.260
10694,-0.3232,-0.6445,-0.6909,0.122,0.427,0.183,-137.043,18.875,-14.260
10704,-0.3228,-0.6450,-0.6890,-0.122,0.610,0.183,-137.049,18.869,-14.260
10714,-0.3232,-0.6436,-0.6899,-0.366,0.732,0.244,-137.054,18.864,-14.260
10724,-0.3252,-0.6411,-0.6904,-0.488,0.732,0.305,-137.060,18.864,-14.260
10734,-0.3252,-0.6411,-0.6899,-0.488,0.671,0.305,-137.065,18.864,-14.260
10744,-0.3257,-0.6401,-0.6929,-0.305,0.610,0.305,-137.076,18.864,-14.260
10754,-0.3252,-0.6411,-0.6948,0.000,0.671,0.244,-137.082,18.858,-14.260
10764,-0.3228,-0.6440,-0.6909,0.183,0.549,0.122,-137.076,18.858,-14.260
10774,-0.3223,-0.6421,-0.6953,0.061,0.427,0.000,-137.082,18.853,-14.260
10784,-0.3198,-0.6450,-0.6978,-0.183,0.244,0.000,-137.087,18.847,-14.260
10794,-0.3208,-0.6450,-0.6973,-0.488,0.000,-0.061,-137.093,18.847,-14.260
10804,-0.3179,-0.6431,-0.7002,-0.549,-0.305,0.000,-137.098,18.847,-14.260
10814,-0.3208,-0.6445,-0.6978,-0.183,-0.610,0.000,-137.098,18.847,-14.260
10824,-0.3208,-0.6455,-0.6948,0.366,-0.732,0.061,-137.098,18.853,-14.260
10834,-0.3208,-0.6475,-0.6914,0.854,-0.793,0.061,-137.082,18.858,-14.260
10844,-0.3208,-0.6470,-0.6885,1.038,-0.732,0.061,-137.071,18.864,-14.260
10854,-0.3223,-0.6460,-0.6841,0.854,-0.610,0.183,-137.054,18.869,-14.260
10864,-0.3218,-0.6465,-0.6846,0.488,-0.488,0.366,-137.043,18.875,-14.260
10874,-0.3232,-0.6450,-0.6865,0.061,-0.427,0.427,-137.043,18.880,-14.260
10884,-0.3223,-0.6455,-0.6855,-0.183,-0.305,0.427,-137.043,18.885,-14.260
10894,-0.3232,-0.6450,-0.6846,-0.305,-0.122,0.427,-137.043,18.891,-14.260
10904,-0.3208,-0.6421,-0.6870,-0.305,0.122,0.427,-137.043,18.891,-14.260
10914,-0.3188,-0.6431,-0.6875,-0.305,0.244,0.427,-137.049,18.891,-14.260
10924,-0.3198,-0.6396,-0.6895,-0.183,0.244,0.366,-137.054,18.891,-14.260
10934,-0.3223,-0.6411,-0.6904,0.000,0.000,0.366,-137.054,18.896,-14.260
10944,-0.3237,-0.6411,-0.6890,0.366,-0.183,0.244,-137.049,18.896,-14.260
10954,-0.3237,-0.6431,-0.6846,0.549,-0.244,0.000,-137.043,18.902,-14.260
10964,-0.3262,-0.6445,-0.6821,0.366,-0.061,-0.183,-137.032,18.902,-14.260
10974,-0.3257,-0.6460,-0.6816,0.000,0.427,-0.244,-137.027,18.902,-14.260
10984,-0.3242,-0.6455,-0.6846,-0.549,0.916,-0.183,-137.032,18.891,-14.260
10994,-0.3228,-0.6484,-0.6895,-0.916,1.221,-0.061,-137.043,18.885,-14.260
11004,-0.3232,-0.6465,-0.6909,-1.038,1.282,0.122,-137.054,18.875,-14.260
11014,-0.3232,-0.6484,-0.6929,-0.916,1.160,0.244,-137.065,18.869,-14.260
11024,-0.3213,-0.6470,-0.6982,-0.610,0.977,0.244,-137.076,18.858,-14.260
11034,-0.3213,-0.6484,-0.6987,-0.305,0.671,0.305,-137.082,18.853,-14.260
11044,-0.3198,-0.6455,-0.6982,0.061,0.366,0.488,-137.082,18.853,-14.260
11054,-0.3218,-0.6445,-0.6978,0.427,0.000,0.610,-137.082,18.858,-14.260
11065,-0.3193,-0.6445,-0.6958,0.732,-0.305,0.671,-137.076,18.858,-14.260
11074,-0.3228,-0.6416,-0.6948,0.977,-0.305,0.549,-137.071,18.864,-14.260
11084,-0.3213,-0.6436,-0.6934,0.916,-0.183,0.427,-137.065,18.869,-14.260
11094,-0.3208,-0.6436,-0.6934,0.549,0.061,0.366,-137.060,18.869,-14.260
11104,-0.3208,-0.6440,-0.6934,0.122,0.244,0.305,-137.060,18.869,-14.260
11114,-0.3213,-0.6426,-0.6943,-0.183,0.305,0.305,-137.065,18.869,-14.260
11124,-0.3218,-0.6421,-0.6938,-0.366,0.244,0.244,-137.071,18.864,-14.260
11134,-0.3228,-0.6406,-0.6938,-0.427,0.061,0.244,-137.076,18.869,-14.260
11144,-0.3223,-0.6411,-0.6953,-0.305,-0.305,0.244,-137.082,18.869,-14.260
11154,-0.3213,-0.6411,-0.6958,0.000,-0.488,0.122,-137.087,18.875,-14.260
11164,-0.3218,-0.6406,-0.6924,0.183,-0.488,0.061,-137.082,18.880,-14.260
11174,-0.3208,-0.6387,-0.6909,0.244,-0.366,-0.061,-137.082,18.880,-14.260
11187,-0.3232,-0.6416,-0.6929,0.183,-0.244,-0.061,-137.082,18.880,-14.260
11194,-0.3247,-0.6440,-0.6890,0.061,-0.183,-0.183,-137.076,18.880,-14.260
11204,-0.3242,-0.6455,-0.6890,-0.122,-0.244,-0.244,-137.076,18.885,-14.260
11214,-0.3203,-0.6475,-0.6885,-0.305,-0.366,-0.305,-137.071,18.880,-14.260
11224,-0.3203,-0.6460,-0.6904,-0.427,-0.488,-0.305,-137.076,18.880,-14.260
11234,-0.3203,-0.6470,-0.6890,-0.427,-0.366,-0.183,-137.076,18.880,-14.260
11244,-0.3223,-0.6479,-0.6895,-0.244,-0.183,-0.122,-137.071,18.880,-14.260
11254,-0.3218,-0.6475,-0.6885,0.061,0.061,-0.061,-137.071,18.880,-14.260
11264,-0.3228,-0.6479,-0.6895,0.244,0.244,0.061,-137.065,18.880,-14.260
11274,-0.3213,-0.6450,-0.6851,0.427,0.427,0.122,-137.060,18.875,-14.260
11284,-0.3198,-0.6450,-0.6826,0.244,0.427,0.183,-137.054,18.875,-14.260
11294,-0.3203,-0.6431,-0.6851,0.000,0.366,0.244,-137.054,18.869,-14.260
11304,-0.3228,-0.6406,-0.6870,-0.183,0.366,0.305,-137.054,18.875,-14.260
11314,-0.3232,-0.6406,-0.6885,-0.122,0.549,0.183,-137.060,18.869,-14.260
11324,-0.3218,-0.6426,-0.6885,-0.183,0.671,0.061,-137.060,18.864,-14.260
11334,-0.3228,-0.6436,-0.6904,-0.244,0.854,0.000,-137.065,18.858,-14.260
11344,-0.3208,-0.6436,-0.6914,-0.305,0.916,0.061,-137.071,18.853,-14.260
11354,-0.3213,-0.6440,-0.6943,-0.305,0.793,0.122,-137.076,18.847,-14.260
11364,-0.3213,-0.6455,-0.6938,-0.305,0.610,0.244,-137.082,18.842,-14.260
11374,-0.3213,-0.6440,-0.6948,-0.122,0.427,0.244,-137.082,18.842,-14.260
11384,-0.3228,-0.6450,-0.6924,0.000,0.305,0.244,-137.082,18.842,-14.260
11394,-0.3228,-0.6445,-0.6934,0.061,0.305,0.244,-137.087,18.836,-14.260
11404,-0.3228,-0.6436,-0.6919,0.061,0.244,0.183,-137.087,18.836,-14.260
11414,-0.3228,-0.6426,-0.6909,0.183,0.122,0.061,-137.082,18.836,-14.260
11424,-0.3218,-0.6450,-0.6904,0.183,0.000,0.000,-137.082,18.836,-14.260
11434,-0.3232,-0.6445,-0.6929,0.061,-0.061,0.000,-137.082,18.836,-14.260
11444,-0.3223,-0.6450,-0.6895,0.000,0.061,0.000,-137.076,18.836,-14.260
11454,-0.3228,-0.6460,-0.6899,-0.305,0.305,0.061,-137.082,18.836,-14.260
11464,-0.3198,-0.6450,-0.6919,-0.610,0.488,0.122,-137.087,18.831,-14.260
11474,-0.3188,-0.6440,-0.6953,-0.671,0.610,0.305,-137.098,18.831,-14.260
11484,-0.3193,-0.6431,-0.6953,-0.488,0.610,0.366,-137.104,18.825,-14.260
11494,-0.3223,-0.6436,-0.6968,-0.244,0.427,0.366,-137.109,18.825,-14.260
11504,-0.3252,-0.6411,-0.6982,0.183,0.000,0.366,-137.115,18.825,-14.260
11514,-0.3237,-0.6431,-0.6987,0.549,-0.305,0.305,-137.109,18.831,-14.260
11524,-0.3228,-0.6465,-0.6973,0.610,-0.549,0.244,-137.104,18.836,-14.260
11534,-0.3223,-0.6431,-0.6978,0.488,-0.732,0.305,-137.104,18.842,-14.260
11544,-0.3218,-0.6445,-0.6973,0.366,-0.793,0.305,-137.098,18.847,-14.260
11554,-0.3232,-0.6411,-0.6963,0.366,-0.916,0.244,-137.093,18.858,-14.260
11565,-0.3247,-0.6396,-0.6958,0.610,-1.099,0.183,-137.093,18.869,-14.260
11574,-0.3252,-0.6396,-0.6899,0.916,-1.099,0.000,-137.082,18.880,-14.260
11584,-0.3247,-0.6426,-0.6870,1.099,-1.038,-0.122,-137.065,18.885,-14.260
11594,-0.3228,-0.6416,-0.6846,0.916,-0.793,-0.122,-137.049,18.891,-14.260
11604,-0.3228,-0.6450,-0.6841,0.366,-0.366,-0.183,-137.043,18.891,-14.260
11614,-0.3223,-0.6436,-0.6851,-0.244,0.061,-0.183,-137.043,18.891,-14.260
11624,-0.3208,-0.6440,-0.6880,-0.793,0.366,0.000,-137.049,18.891,-14.260
11634,-0.3203,-0.6445,-0.6909,-0.916,0.366,0.061,-137.060,18.885,-14.260
11644,-0.3193,-0.6421,-0.6938,-0.610,0.183,0.061,-137.065,18.880,-14.260
11654,-0.3203,-0.6416,-0.6953,-0.183,-0.061,0.000,-137.071,18.880,-14.260
11664,-0.3208,-0.6431,-0.6895,0.366,-0.244,-0.061,-137.065,18.880,-14.260
11674,-0.3203,-0.6445,-0.6909,0.610,-0.305,-0.122,-137.060,18.880,-14.260
11684,-0.3198,-0.6455,-0.6904,0.610,-0.488,-0.183,-137.049,18.880,-14.260
11694,-0.3193,-0.6470,-0.6880,0.427,-0.549,-0.122,-137.038,18.880,-14.260
11704,-0.3218,-0.6475,-0.6899,0.183,-0.610,-0.061,-137.032,18.885,-14.260
11714,-0.3228,-0.6484,-0.6895,-0.061,-0.427,0.061,-137.032,18.891,-14.260
11724,-0.3232,-0.6475,-0.6875,-0.183,-0.305,0.061,-137.027,18.891,-14.260
11734,-0.3232,-0.6460,-0.6851,-0.122,-0.183,0.122,-137.027,18.896,-14.260
11744,-0.3237,-0.6445,-0.6875,0.061,-0.061,0.244,-137.027,18.896,-14.260
11754,-0.3242,-0.6450,-0.6875,0.183,0.122,0.244,-137.021,18.896,-14.260
11764,-0.3237,-0.6450,-0.6890,0.183,0.183,0.244,-137.021,18.896,-14.260
11774,-0.3257,-0.6455,-0.6895,0.061,0.061,0.244,-137.021,18.902,-14.260
11784,-0.3247,-0.6431,-0.6914,-0.061,-0.061,0.183,-137.021,18.902,-14.260
11794,-0.3257,-0.6411,-0.6904,-0.122,-0.183,0.183,-137.021,18.907,-14.260
11804,-0.3262,-0.6411,-0.6895,-0.061,-0.244,0.061,-137.021,18.913,-14.260
11814,-0.3267,-0.6411,-0.6885,0.061,-0.305,-0.122,-137.021,18.918,-14.260
11824,-0.3252,-0.6440,-0.6855,0.122,-0.305,-0.305,-137.016,18.918,-14.260
11834,-0.3252,-0.6484,-0.6890,0.061,-0.061,-0.366,-137.010,18.918,-14.260
11844,-0.3203,-0.6494,-0.6865,-0.122,0.061,-0.305,-137.010,18.913,-14.260
11854,-0.3203,-0.6475,-0.6870,-0.488,0.061,-0.061,-137.010,18.907,-14.260
11864,-0.3188,-0.6460,-0.6914,-0.671,0.183,0.122,-137.016,18.907,-14.260
11874,-0.3213,-0.6455,-0.6890,-0.549,0.305,0.244,-137.021,18.902,-14.260
11884,-0.3218,-0.6440,-0.6885,-0.122,0.366,0.305,-137.021,18.902,-14.260
11894,-0.3218,-0.6431,-0.6880,0.183,0.427,0.305,-137.021,18.902,-14.260
11904,-0.3203,-0.6431,-0.6904,0.366,0.427,0.183,-137.021,18.896,-14.260
11914,-0.3203,-0.6431,-0.6880,0.366,0.366,0.061,-137.016,18.896,-14.260
11924,-0.3203,-0.6440,-0.6855,0.183,0.244,0.061,-137.016,18.891,-14.260
11934,-0.3242,-0.6436,-0.6851,-0.061,0.122,0.061,-137.010,18.896,-14.260
11944,-0.3252,-0.6436,-0.6855,-0.305,0.305,-0.061,-137.016,18.891,-14.260
11954,-0.3242,-0.6455,-0.6880,-0.610,0.671,-0.061,-137.021,18.891,-14.260
11964,-0.3242,-0.6455,-0.6890,-0.793,0.977,-0.122,-137.027,18.880,-14.260
11974,-0.3232,-0.6470,-0.6904,-0.916,1.160,-0.061,-137.038,18.875,-14.260
11984,-0.3242,-0.6455,-0.6938,-0.916,1.221,0.000,-137.049,18.864,-14.260
11994,-0.3247,-0.6455,-0.6953,-0.793,1.221,0.000,-137.060,18.853,-14.260
12004,-0.3237,-0.6455,-0.6948,-0.732,1.038,0.122,-137.071,18.847,-14.260
12014,-0.3232,-0.6450,-0.6958,-0.427,0.732,0.183,-137.076,18.842,-14.260
12024,-0.3237,-0.6436,-0.6963,-0.183,0.488,0.244,-137.082,18.842,-14.260
12034,-0.3242,-0.6450,-0.6953,0.000,0.366,0.244,-137.087,18.842,-14.260
12044,-0.3228,-0.6455,-0.6968,0.061,0.366,0.122,-137.087,18.842,-14.260
12054,-0.3237,-0.6489,-0.6938,0.122,0.366,0.061,-137.087,18.836,-14.260
12065,-0.3218,-0.6494,-0.6963,0.061,0.305,0.061,-137.087,18.831,-14.260
12074,-0.3208,-0.6514,-0.6968,-0.061,0.061,0.305,-137.087,18.831,-14.260
12084,-0.3203,-0.6494,-0.6948,-0.061,-0.061,0.549,-137.087,18.836,-14.260
12094,-0.3242,-0.6450,-0.6953,0.061,-0.061,0.732,-137.087,18.842,-14.260
12104,-0.3228,-0.6460,-0.6963,0.366,0.061,0.671,-137.087,18.842,-14.260
12114,-0.3213,-0.6445,-0.6943,0.671,0.061,0.610,-137.082,18.847,-14.260
12124,-0.3223,-0.6421,-0.6924,0.732,0.000,0.549,-137.076,18.853,-14.260
12134,-0.3228,-0.6431,-0.6909,0.549,-0.122,0.549,-137.071,18.853,-14.260
12144,-0.3232,-0.6421,-0.6909,0.122,-0.305,0.488,-137.071,18.864,-14.260
12154,-0.3223,-0.6440,-0.6899,-0.305,-0.305,0.488,-137.071,18.869,-14.260
12164,-0.3208,-0.6445,-0.6904,-0.488,-0.244,0.488,-137.076,18.869,-14.260
12174,-0.3208,-0.6411,-0.6934,-0.427,-0.122,0.488,-137.087,18.875,-14.260
12184,-0.3208,-0.6396,-0.6924,0.061,0.122,0.488,-137.087,18.875,-14.260
12194,-0.3213,-0.6382,-0.6890,0.488,0.305,0.488,-137.087,18.875,-14.260
12204,-0.3228,-0.6401,-0.6851,0.916,0.305,0.305,-137.076,18.880,-14.260
12214,-0.3218,-0.6431,-0.6841,0.916,0.183,0.061,-137.065,18.875,-14.260
12224,-0.3223,-0.6440,-0.6846,0.366,0.061,0.000,-137.060,18.875,-14.260
12234,-0.3218,-0.6436,-0.6875,-0.244,0.061,0.000,-137.060,18.875,-14.260
12244,-0.3223,-0.6426,-0.6870,-0.793,0.183,0.000,-137.065,18.875,-14.260
12254,-0.3232,-0.6416,-0.6890,-0.854,0.366,-0.061,-137.076,18.875,-14.260
12264,-0.3223,-0.6436,-0.6929,-0.549,0.549,-0.122,-137.082,18.869,-14.260
12274,-0.3228,-0.6460,-0.6924,-0.122,0.671,-0.061,-137.082,18.864,-14.260
12284,-0.3228,-0.6499,-0.6938,0.122,0.732,0.061,-137.082,18.858,-14.260
12294,-0.3223,-0.6484,-0.6924,0.122,0.549,0.183,-137.082,18.853,-14.260
12304,-0.3237,-0.6450,-0.6914,0.061,0.305,0.305,-137.082,18.853,-14.260
12314,-0.3232,-0.6455,-0.6919,0.000,0.122,0.366,-137.082,18.853,-14.260
12324,-0.3237,-0.6455,-0.6924,0.061,0.244,0.366,-137.082,18.858,-14.260
12334,-0.3247,-0.6460,-0.6904,0.061,0.366,0.305,-137.082,18.858,-14.260
12344,-0.3218,-0.6475,-0.6914,0.061,0.366,0.366,-137.076,18.853,-14.260
12354,-0.3223,-0.6484,-0.6924,-0.122,0.305,0.488,-137.082,18.853,-14.260
12364,-0.3213,-0.6455,-0.6929,-0.366,0.305,0.610,-137.087,18.858,-14.260
12374,-0.3232,-0.6445,-0.6938,-0.427,0.183,0.671,-137.093,18.858,-14.260
12384,-0.3242,-0.6431,-0.6934,-0.305,0.183,0.732,-137.098,18.864,-14.260
12394,-0.3237,-0.6401,-0.6934,0.061,0.183,0.610,-137.098,18.869,-14.260
12404,-0.3252,-0.6401,-0.6924,0.427,0.122,0.488,-137.098,18.869,-14.260
12414,-0.3237,-0.6421,-0.6919,0.488,0.000,0.366,-137.098,18.875,-14.260
12424,-0.3237,-0.6440,-0.6899,0.244,0.061,0.305,-137.093,18.875,-14.260
12434,-0.3242,-0.6436,-0.6909,-0.183,0.000,0.305,-137.093,18.880,-14.260
12444,-0.3247,-0.6421,-0.6899,-0.549,-0.122,0.305,-137.098,18.885,-14.260
12454,-0.3247,-0.6431,-0.6924,-0.610,-0.244,0.305,-137.109,18.885,-14.260
12464,-0.3252,-0.6445,-0.6899,-0.427,-0.061,0.244,-137.109,18.891,-14.260
12474,-0.3247,-0.6465,-0.6895,-0.061,0.061,0.183,-137.109,18.891,-14.260
12484,-0.3223,-0.6450,-0.6919,0.183,0.183,0.183,-137.104,18.891,-14.260
12494,-0.3208,-0.6470,-0.6914,0.244,0.183,0.244,-137.104,18.891,-14.260
12504,-0.3203,-0.6465,-0.6875,0.122,0.000,0.427,-137.098,18.891,-14.260
12514,-0.3208,-0.6445,-0.6885,-0.122,-0.122,0.671,-137.098,18.896,-14.260
12524,-0.3208,-0.6445,-0.6890,-0.244,-0.122,0.793,-137.104,18.902,-14.260
12534,-0.3203,-0.6421,-0.6885,-0.244,-0.061,0.732,-137.104,18.907,-14.260
12544,-0.3213,-0.6426,-0.6885,-0.122,0.244,0.610,-137.109,18.907,-14.260
12554,-0.3218,-0.6440,-0.6855,0.000,0.549,0.488,-137.104,18.907,-14.260
12565,-0.3203,-0.6450,-0.6875,0.061,0.732,0.427,-137.104,18.902,-14.260
12574,-0.3198,-0.6440,-0.6904,0.000,0.854,0.549,-137.109,18.896,-14.260
12584,-0.3208,-0.6436,-0.6899,-0.244,0.732,0.610,-137.109,18.896,-14.260
12594,-0.3228,-0.6406,-0.6934,-0.305,0.610,0.671,-137.120,18.896,-14.260
12604,-0.3232,-0.6406,-0.6943,-0.305,0.610,0.671,-137.126,18.896,-14.260
12614,-0.3252,-0.6401,-0.6924,-0.122,0.732,0.549,-137.131,18.896,-14.260
12624,-0.3242,-0.6401,-0.6934,0.000,0.854,0.366,-137.137,18.891,-14.260
12634,-0.3223,-0.6436,-0.6924,0.122,0.793,0.366,-137.137,18.891,-14.260
12644,-0.3218,-0.6455,-0.6924,0.061,0.488,0.366,-137.137,18.885,-14.260
12654,-0.3237,-0.6440,-0.6904,0.000,0.122,0.427,-137.137,18.891,-14.260
12664,-0.3247,-0.6436,-0.6934,0.000,0.000,0.427,-137.137,18.891,-14.260
12674,-0.3247,-0.6426,-0.6943,0.000,0.061,0.366,-137.142,18.896,-14.260
12684,-0.3247,-0.6445,-0.6938,-0.122,0.366,0.305,-137.142,18.896,-14.260
12694,-0.3228,-0.6455,-0.6948,-0.305,0.610,0.305,-137.148,18.891,-14.260
12704,-0.3213,-0.6465,-0.6953,-0.488,0.732,0.488,-137.153,18.885,-14.260
12714,-0.3203,-0.6475,-0.6963,-0.671,0.610,0.671,-137.164,18.885,-14.260
12724,-0.3218,-0.6455,-0.6978,-0.732,0.366,0.854,-137.175,18.885,-14.260
12734,-0.3228,-0.6406,-0.6973,-0.427,0.000,0.916,-137.186,18.891,-14.260
12744,-0.3237,-0.6396,-0.6958,0.061,-0.183,0.854,-137.186,18.896,-14.260
12754,-0.3252,-0.6401,-0.6948,0.488,-0.305,0.671,-137.186,18.907,-14.260
12764,-0.3247,-0.6396,-0.6895,0.610,-0.366,0.549,-137.181,18.913,-14.260
12774,-0.3237,-0.6455,-0.6885,0.366,-0.305,0.488,-137.175,18.918,-14.260
12784,-0.3213,-0.6411,-0.6924,-0.305,-0.183,0.488,-137.175,18.924,-14.260
12794,-0.3198,-0.6387,-0.6934,-0.854,-0.183,0.671,-137.186,18.929,-14.260
12804,-0.3223,-0.6353,-0.6963,-0.916,-0.244,0.793,-137.203,18.935,-14.260
12814,-0.3228,-0.6318,-0.6924,-0.427,-0.488,0.732,-137.214,18.946,-14.260
12824,-0.3213,-0.6304,-0.6919,0.305,-0.732,0.427,-137.214,18.951,-14.260
12834,-0.3208,-0.6328,-0.6880,0.916,-0.854,0.122,-137.203,18.957,-14.260
12844,-0.3223,-0.6348,-0.6865,1.099,-0.916,-0.061,-137.192,18.968,-14.260
12854,-0.3218,-0.6372,-0.6846,0.671,-0.793,-0.244,-137.181,18.968,-14.260
12864,-0.3228,-0.6401,-0.6836,-0.061,-0.610,-0.427,-137.175,18.973,-14.260
12874,-0.3208,-0.6396,-0.6870,-0.732,-0.244,-0.549,-137.181,18.968,-14.260
12884,-0.3213,-0.6416,-0.6895,-1.099,0.122,-0.427,-137.186,18.962,-14.260
12894,-0.3242,-0.6431,-0.6880,-0.916,0.366,-0.305,-137.197,18.957,-14.260
12904,-0.3232,-0.6426,-0.6885,-0.549,0.488,-0.305,-137.197,18.951,-14.260
12914,-0.3213,-0.6426,-0.6909,-0.366,0.549,-0.366,-137.203,18.946,-14.260
12924,-0.3213,-0.6450,-0.6914,-0.244,0.549,-0.244,-137.203,18.940,-14.260
12934,-0.3223,-0.6450,-0.6914,-0.244,0.488,-0.183,-137.203,18.935,-14.260
12944,-0.3247,-0.6445,-0.6934,-0.427,0.366,-0.122,-137.208,18.929,-14.260
12954,-0.3262,-0.6416,-0.6963,-0.488,0.244,-0.183,-137.214,18.929,-14.260
12964,-0.3252,-0.6426,-0.6948,-0.366,0.000,-0.183,-137.219,18.924,-14.260
12974,-0.3276,-0.6455,-0.6953,-0.061,-0.183,-0.183,-137.214,18.929,-14.260
12984,-0.3247,-0.6465,-0.6929,0.183,-0.305,-0.183,-137.208,18.929,-14.260
12994,-0.3252,-0.6470,-0.6895,0.366,-0.305,-0.183,-137.203,18.929,-14.260
13004,-0.3242,-0.6470,-0.6885,0.244,-0.305,-0.061,-137.192,18.929,-14.260
13014,-0.3247,-0.6475,-0.6899,0.000,-0.183,0.000,-137.192,18.935,-14.260
13024,-0.3252,-0.6445,-0.6909,-0.122,-0.061,0.183,-137.192,18.935,-14.260
13034,-0.3276,-0.6445,-0.6880,-0.061,0.061,0.244,-137.186,18.940,-14.260
13044,-0.3271,-0.6440,-0.6895,0.061,0.244,0.244,-137.186,18.940,-14.260
13054,-0.3276,-0.6450,-0.6880,0.122,0.427,0.244,-137.181,18.940,-14.260
13065,-0.3262,-0.6479,-0.6851,-0.061,0.549,0.366,-137.181,18.940,-14.260
13074,-0.3237,-0.6465,-0.6865,-0.549,0.793,0.488,-137.181,18.940,-14.260
13084,-0.3223,-0.6440,-0.6870,-1.282,1.099,0.732,-137.197,18.935,-14.260
13094,-0.3203,-0.6401,-0.6904,-1.831,1.465,0.916,-137.219,18.929,-14.260
13104,-0.3208,-0.6392,-0.6909,-2.014,1.770,0.977,-137.247,18.924,-14.260
13114,-0.3184,-0.6367,-0.6914,-1.892,2.075,0.854,-137.274,18.913,-14.260
13124,-0.3169,-0.6338,-0.6987,-1.465,2.319,0.732,-137.302,18.896,-14.260
13134,-0.3149,-0.6343,-0.7002,-0.916,2.014,0.671,-137.324,18.880,-14.260
13144,-0.3164,-0.6348,-0.7007,-0.488,1.282,0.549,-137.335,18.869,-14.260
13154,-0.3198,-0.6313,-0.6958,-0.183,0.549,0.366,-137.346,18.869,-14.260
13164,-0.3223,-0.6309,-0.6948,-0.061,0.122,0.000,-137.351,18.869,-14.260
13174,-0.3218,-0.6328,-0.6948,-0.061,0.000,-0.305,-137.351,18.869,-14.260
13188,-0.3237,-0.6353,-0.6938,-0.183,0.061,-0.610,-137.351,18.864,-14.260
13194,-0.3228,-0.6372,-0.6948,-0.366,0.183,-0.732,-137.357,18.858,-14.260
13204,-0.3242,-0.6396,-0.6978,-0.488,0.122,-0.793,-137.362,18.853,-14.260
13214,-0.3252,-0.6431,-0.7007,-0.488,0.061,-0.793,-137.368,18.847,-14.260
13224,-0.3237,-0.6460,-0.6992,-0.366,0.061,-0.732,-137.368,18.842,-14.260
13234,-0.3242,-0.6460,-0.6987,0.000,-0.061,-0.549,-137.362,18.836,-14.260
13244,-0.3247,-0.6460,-0.6973,0.183,-0.244,-0.366,-137.357,18.836,-14.260
13254,-0.3242,-0.6465,-0.6978,0.305,-0.366,-0.183,-137.351,18.836,-14.260
13264,-0.3247,-0.6465,-0.6978,0.244,-0.366,0.000,-137.346,18.842,-14.260
13274,-0.3228,-0.6455,-0.6978,0.183,-0.366,0.122,-137.346,18.842,-14.260
13284,-0.3232,-0.6455,-0.6997,0.122,-0.610,0.183,-137.340,18.847,-14.260
13294,-0.3232,-0.6460,-0.6997,0.061,-0.854,0.183,-137.340,18.853,-14.260
13304,-0.3218,-0.6426,-0.6968,0.061,-1.099,0.183,-137.335,18.864,-14.260
13314,-0.3223,-0.6421,-0.6968,0.244,-1.282,0.183,-137.329,18.875,-14.260
13324,-0.3228,-0.6431,-0.6987,0.549,-1.343,0.122,-137.324,18.880,-14.260
13334,-0.3228,-0.6406,-0.6943,0.793,-1.282,0.061,-137.313,18.891,-14.260
13344,-0.3198,-0.6426,-0.6885,0.916,-1.282,0.122,-137.296,18.902,-14.260
13354,-0.3218,-0.6436,-0.6836,0.854,-1.282,0.244,-137.280,18.913,-14.260
13364,-0.3242,-0.6445,-0.6836,0.549,-1.160,0.305,-137.269,18.924,-14.260
13374,-0.3257,-0.6431,-0.6831,0.183,-0.916,0.366,-137.258,18.935,-14.260
13384,-0.3237,-0.6426,-0.6836,-0.122,-0.488,0.427,-137.258,18.940,-14.260
13394,-0.3223,-0.6426,-0.6860,-0.427,-0.122,0.427,-137.258,18.946,-14.260
13404,-0.3188,-0.6411,-0.6885,-0.610,0.183,0.427,-137.263,18.946,-14.260
13414,-0.3193,-0.6396,-0.6899,-0.610,0.366,0.488,-137.269,18.946,-14.260
13424,-0.3208,-0.6367,-0.6914,-0.366,0.244,0.549,-137.274,18.946,-14.260
13434,-0.3232,-0.6348,-0.6904,0.061,0.122,0.427,-137.280,18.946,-14.260
13444,-0.3223,-0.6333,-0.6885,0.427,0.061,0.244,-137.274,18.951,-14.260
13454,-0.3208,-0.6328,-0.6851,0.610,0.000,0.061,-137.269,18.951,-14.260
13464,-0.3232,-0.6372,-0.6841,0.122,0.183,-0.427,-137.263,18.946,-14.260
13474,-0.3237,-0.6382,-0.6860,-0.366,0.549,-0.610,-137.269,18.940,-14.260
13484,-0.3257,-0.6392,-0.6899,-0.793,1.038,-0.610,-137.274,18.929,-14.260
13494,-0.3252,-0.6431,-0.6929,-0.916,1.404,-0.610,-137.285,18.918,-14.260
13504,-0.3242,-0.6431,-0.6958,-0.977,1.465,-0.549,-137.296,18.902,-14.260
13514,-0.3232,-0.6450,-0.6987,-0.916,1.343,-0.488,-137.307,18.885,-14.260
13524,-0.3237,-0.6450,-0.7021,-0.916,1.038,-0.366,-137.318,18.875,-14.260
13534,-0.3198,-0.6450,-0.7061,-0.793,0.793,-0.244,-137.329,18.864,-14.260
13544,-0.3213,-0.6440,-0.7075,-0.671,0.549,-0.061,-137.340,18.858,-14.260
13554,-0.3223,-0.6416,-0.7080,-0.244,0.366,0.000,-137.351,18.853,-14.260
13565,-0.3223,-0.6411,-0.7095,0.244,0.122,-0.061,-137.351,18.847,-14.260
13574,-0.3213,-0.6436,-0.7085,0.793,-0.305,-0.183,-137.346,18.847,-14.260
13584,-0.3208,-0.6421,-0.7065,1.099,-0.793,-0.366,-137.335,18.847,-14.260
13594,-0.3232,-0.6416,-0.7036,1.038,-1.404,-0.366,-137.324,18.853,-14.260
13604,-0.3228,-0.6421,-0.6968,0.977,-1.709,-0.305,-137.313,18.864,-14.260
13614,-0.3237,-0.6421,-0.6948,0.977,-1.953,-0.366,-137.296,18.880,-14.260
13624,-0.3237,-0.6421,-0.6880,0.977,-1.892,-0.427,-137.280,18.891,-14.260
13634,-0.3218,-0.6426,-0.6870,0.854,-1.648,-0.549,-137.258,18.896,-14.260
13644,-0.3223,-0.6426,-0.6851,0.549,-1.099,-0.427,-137.247,18.902,-14.260
13654,-0.3247,-0.6401,-0.6851,0.061,-0.549,-0.244,-137.241,18.907,-14.260
13664,-0.3242,-0.6396,-0.6841,-0.366,-0.122,0.000,-137.241,18.907,-14.260
13674,-0.3262,-0.6392,-0.6831,-0.549,0.122,0.000,-137.241,18.913,-14.260
13684,-0.3232,-0.6387,-0.6846,-0.610,0.305,-0.183,-137.247,18.913,-14.260
13694,-0.3223,-0.6382,-0.6851,-0.671,0.305,-0.305,-137.252,18.907,-14.260
13704,-0.3213,-0.6382,-0.6855,-0.732,0.061,-0.305,-137.258,18.907,-14.260
13714,-0.3218,-0.6392,-0.6841,-0.671,-0.183,-0.366,-137.258,18.902,-14.260
13724,-0.3237,-0.6406,-0.6826,-0.549,-0.244,-0.427,-137.258,18.907,-14.260
13734,-0.3232,-0.6396,-0.6860,-0.366,-0.122,-0.549,-137.258,18.902,-14.260
13744,-0.3237,-0.6440,-0.6860,-0.183,0.244,-0.549,-137.252,18.896,-14.260
13754,-0.3223,-0.6470,-0.6890,-0.183,0.488,-0.427,-137.252,18.891,-14.260
13764,-0.3232,-0.6455,-0.6875,-0.305,0.671,-0.305,-137.252,18.885,-14.260
13774,-0.3228,-0.6445,-0.6885,-0.366,0.671,-0.305,-137.252,18.880,-14.260
13784,-0.3242,-0.6436,-0.6895,-0.305,0.732,-0.183,-137.252,18.875,-14.260
13794,-0.3247,-0.6465,-0.6895,-0.183,0.977,-0.122,-137.252,18.864,-14.260
13804,-0.3247,-0.6479,-0.6904,-0.183,1.282,0.000,-137.252,18.858,-14.260
13814,-0.3252,-0.6475,-0.6938,-0.366,1.404,0.061,-137.258,18.847,-14.260
13824,-0.3237,-0.6450,-0.6963,-0.610,1.526,0.183,-137.269,18.836,-14.260
13834,-0.3228,-0.6440,-0.6997,-0.732,1.343,0.305,-137.280,18.831,-14.260
13844,-0.3223,-0.6436,-0.7036,-0.732,0.977,0.366,-137.291,18.825,-14.260
13854,-0.3262,-0.6426,-0.7021,-0.488,0.671,0.366,-137.302,18.820,-14.260
13864,-0.3237,-0.6416,-0.7021,-0.061,0.366,0.366,-137.307,18.820,-14.260
13874,-0.3242,-0.6426,-0.6992,0.366,0.122,0.244,-137.302,18.820,-14.260
13884,-0.3203,-0.6416,-0.7002,0.671,0.000,0.244,-137.302,18.820,-14.260
13894,-0.3198,-0.6411,-0.6978,0.610,-0.183,0.061,-137.296,18.820,-14.260
13904,-0.3188,-0.6440,-0.6982,0.305,-0.366,0.183,-137.291,18.825,-14.260
13914,-0.3184,-0.6440,-0.6948,0.000,-0.549,0.305,-137.291,18.825,-14.260
13924,-0.3188,-0.6431,-0.6963,-0.122,-0.671,0.366,-137.291,18.831,-14.260
13934,-0.3203,-0.6416,-0.6963,-0.061,-0.610,0.366,-137.291,18.836,-14.260
13944,-0.3213,-0.6401,-0.6948,0.183,-0.488,0.427,-137.291,18.842,-14.260
13954,-0.3203,-0.6401,-0.6929,0.488,-0.366,0.488,-137.285,18.847,-14.260
13964,-0.3208,-0.6411,-0.6924,0.427,-0.305,0.488,-137.280,18.853,-14.260
13974,-0.3198,-0.6416,-0.6909,0.244,-0.183,0.549,-137.280,18.858,-14.260
13984,-0.3193,-0.6396,-0.6909,-0.061,-0.061,0.549,-137.280,18.858,-14.260
13994,-0.3213,-0.6377,-0.6904,-0.244,-0.122,0.427,-137.280,18.864,-14.260
14004,-0.3208,-0.6357,-0.6899,-0.183,-0.122,0.305,-137.285,18.869,-14.260
14014,-0.3203,-0.6396,-0.6895,-0.061,-0.122,0.122,-137.285,18.869,-14.260
14024,-0.3198,-0.6396,-0.6929,-0.061,0.000,0.061,-137.285,18.869,-14.260
14034,-0.3198,-0.6396,-0.6934,-0.183,0.122,0.122,-137.285,18.864,-14.260
14044,-0.3223,-0.6377,-0.6958,-0.305,0.122,0.061,-137.291,18.864,-14.260
14054,-0.3213,-0.6372,-0.6909,-0.305,0.000,0.000,-137.296,18.864,-14.260
14065,-0.3218,-0.6367,-0.6909,-0.061,-0.305,-0.061,-137.296,18.869,-14.260
14074,-0.3223,-0.6367,-0.6880,0.305,-0.549,-0.122,-137.291,18.869,-14.260
14084,-0.3223,-0.6396,-0.6880,0.610,-0.488,-0.244,-137.280,18.875,-14.260
14094,-0.3237,-0.6436,-0.6860,0.488,-0.122,-0.488,-137.269,18.875,-14.260
14104,-0.3218,-0.6455,-0.6870,-0.061,0.366,-0.610,-137.263,18.864,-14.260
14114,-0.3193,-0.6455,-0.6895,-0.732,0.732,-0.427,-137.269,18.858,-14.260
14124,-0.3218,-0.6460,-0.6934,-1.099,0.854,-0.244,-137.280,18.847,-14.260
14134,-0.3232,-0.6440,-0.6948,-1.038,0.732,-0.122,-137.291,18.842,-14.260
14144,-0.3218,-0.6436,-0.6958,-0.610,0.671,0.000,-137.296,18.836,-14.260
14154,-0.3228,-0.6440,-0.6963,-0.122,0.427,0.000,-137.296,18.831,-14.260
14164,-0.3228,-0.6436,-0.6973,0.305,0.305,0.061,-137.296,18.831,-14.260
14174,-0.3218,-0.6421,-0.6958,0.427,0.183,0.122,-137.291,18.831,-14.260
14184,-0.3218,-0.6436,-0.6938,0.366,0.061,0.183,-137.285,18.831,-14.260
14194,-0.3208,-0.6436,-0.6929,0.122,-0.122,0.122,-137.285,18.831,-14.260
14204,-0.3213,-0.6426,-0.6948,-0.122,-0.305,0.061,-137.285,18.831,-14.260
14214,-0.3198,-0.6436,-0.6968,-0.305,-0.305,0.122,-137.285,18.831,-14.260
14224,-0.3208,-0.6421,-0.6963,-0.183,-0.305,0.183,-137.291,18.836,-14.260
14234,-0.3218,-0.6431,-0.6958,0.122,-0.244,0.183,-137.285,18.836,-14.260
14244,-0.3218,-0.6421,-0.6943,0.488,-0.061,0.244,-137.285,18.836,-14.260
14254,-0.3223,-0.6440,-0.6929,0.610,0.061,0.183,-137.274,18.842,-14.260
14264,-0.3232,-0.6440,-0.6919,0.549,0.122,0.183,-137.269,18.842,-14.260
14274,-0.3242,-0.6440,-0.6914,0.183,0.061,0.244,-137.263,18.842,-14.260
14284,-0.3252,-0.6406,-0.6919,-0.244,0.061,0.244,-137.269,18.847,-14.260
14294,-0.3257,-0.6387,-0.6934,-0.549,0.061,0.183,-137.274,18.847,-14.260
14304,-0.3242,-0.6377,-0.6909,-0.549,0.122,0.000,-137.280,18.847,-14.260
14314,-0.3228,-0.6416,-0.6943,-0.366,0.244,-0.061,-137.285,18.847,-14.260
14324,-0.3228,-0.6406,-0.6968,-0.122,0.244,-0.122,-137.285,18.842,-14.260
14334,-0.3213,-0.6421,-0.6973,0.122,0.183,-0.061,-137.285,18.842,-14.260
14344,-0.3208,-0.6416,-0.6958,0.183,0.183,-0.183,-137.285,18.836,-14.260
14354,-0.3218,-0.6416,-0.6948,0.122,0.061,-0.244,-137.285,18.836,-14.260
14364,-0.3213,-0.6416,-0.6938,0.061,0.000,-0.305,-137.280,18.831,-14.260
14374,-0.3237,-0.6416,-0.6934,-0.061,0.000,-0.244,-137.280,18.831,-14.260
14384,-0.3223,-0.6455,-0.6963,-0.183,0.000,-0.183,-137.280,18.831,-14.260
14394,-0.3228,-0.6436,-0.6973,-0.244,-0.061,-0.061,-137.285,18.831,-14.260
14404,-0.3208,-0.6426,-0.6963,-0.244,0.000,0.122,-137.285,18.831,-14.260
14414,-0.3198,-0.6421,-0.6948,0.000,0.000,0.122,-137.285,18.831,-14.260
14424,-0.3203,-0.6421,-0.6958,0.305,0.000,0.122,-137.285,18.825,-14.260
14434,-0.3188,-0.6440,-0.6943,0.427,-0.061,0.122,-137.280,18.825,-14.260
14444,-0.3203,-0.6455,-0.6938,0.427,-0.183,0.183,-137.269,18.831,-14.260
14454,-0.3228,-0.6421,-0.6934,0.244,-0.183,0.244,-137.269,18.831,-14.260
14464,-0.3223,-0.6426,-0.6953,0.122,-0.183,0.305,-137.269,18.836,-14.260
14474,-0.3218,-0.6421,-0.6934,0.122,-0.244,0.305,-137.263,18.836,-14.260
14484,-0.3232,-0.6401,-0.6914,0.244,-0.305,0.305,-137.263,18.842,-14.260
14494,-0.3242,-0.6377,-0.6904,0.427,-0.244,0.305,-137.258,18.847,-14.260
14504,-0.3232,-0.6411,-0.6909,0.610,-0.183,0.244,-137.252,18.853,-14.260
14514,-0.3223,-0.6431,-0.6914,0.488,0.000,0.122,-137.247,18.853,-14.260
14524,-0.3237,-0.6406,-0.6895,0.183,0.183,0.061,-137.241,18.853,-14.260
14534,-0.3218,-0.6421,-0.6914,-0.061,0.244,0.061,-137.241,18.853,-14.260
14544,-0.3193,-0.6421,-0.6899,-0.366,0.183,0.000,-137.247,18.847,-14.260
14554,-0.3223,-0.6416,-0.6924,-0.610,0.000,-0.061,-137.252,18.847,-14.260
14565,-0.3208,-0.6421,-0.6963,-0.488,-0.244,0.000,-137.258,18.847,-14.260
14574,-0.3193,-0.6445,-0.6953,-0.305,-0.305,0.061,-137.258,18.847,-14.260
14584,-0.3218,-0.6445,-0.6938,0.061,-0.305,0.061,-137.252,18.853,-14.260
14594,-0.3237,-0.6431,-0.6924,0.305,-0.061,0.061,-137.252,18.853,-14.260
14604,-0.3223,-0.6426,-0.6929,0.305,0.244,0.183,-137.247,18.853,-14.260
14614,-0.3237,-0.6440,-0.6919,0.183,0.549,0.305,-137.247,18.853,-14.260
14624,-0.3228,-0.6431,-0.6909,0.061,0.549,0.244,-137.247,18.847,-14.260
14634,-0.3237,-0.6406,-0.6919,0.061,0.427,0.244,-137.247,18.847,-14.260
14644,-0.3247,-0.6416,-0.6895,0.000,0.244,0.244,-137.241,18.853,-14.260
14654,-0.3262,-0.6445,-0.6909,-0.061,0.061,0.244,-137.241,18.853,-14.260
14665,-0.3237,-0.6445,-0.6943,-0.305,0.122,0.305,-137.247,18.853,-14.260
14675,-0.3213,-0.6440,-0.6973,-0.549,0.305,0.305,-137.252,18.853,-14.260
14684,-0.3208,-0.6421,-0.6968,-0.610,0.366,0.305,-137.263,18.853,-14.260
14694,-0.3198,-0.6406,-0.6973,-0.305,0.305,0.366,-137.269,18.847,-14.260
14704,-0.3193,-0.6372,-0.6953,0.183,-0.061,0.305,-137.269,18.853,-14.260
14714,-0.3232,-0.6372,-0.6938,0.732,-0.366,0.183,-137.263,18.853,-14.260
14724,-0.3242,-0.6396,-0.6904,1.099,-0.488,0.000,-137.252,18.858,-14.260
14735,-0.3218,-0.6431,-0.6899,0.916,-0.488,-0.122,-137.236,18.864,-14.260
14745,-0.3184,-0.6416,-0.6885,0.244,-0.366,-0.122,-137.230,18.864,-14.260
14755,-0.3208,-0.6406,-0.6885,-0.488,-0.122,-0.122,-137.236,18.864,-14.260
14765,-0.3232,-0.6396,-0.6924,-0.916,0.244,-0.122,-137.241,18.858,-14.260
14775,-0.3242,-0.6382,-0.6934,-0.916,0.488,-0.122,-137.252,18.858,-14.260
14784,-0.3213,-0.6392,-0.6963,-0.549,0.610,-0.183,-137.263,18.853,-14.260
14795,-0.3223,-0.6416,-0.6948,-0.061,0.549,-0.183,-137.263,18.847,-14.260
14805,-0.3218,-0.6445,-0.6953,0.061,0.427,-0.244,-137.263,18.842,-14.260
14815,-0.3208,-0.6475,-0.6958,-0.061,0.427,-0.061,-137.263,18.836,-14.260
14825,-0.3193,-0.6445,-0.6982,-0.366,0.366,0.122,-137.269,18.831,-14.260
14835,-0.3169,-0.6436,-0.6963,-0.488,0.305,0.122,-137.274,18.825,-14.260
14845,-0.3213,-0.6396,-0.6968,-0.427,0.183,0.122,-137.280,18.825,-14.260
14855,-0.3213,-0.6406,-0.6982,-0.122,0.061,0.000,-137.285,18.825,-14.260
14865,-0.3208,-0.6421,-0.6963,0.183,0.000,-0.122,-137.280,18.820,-14.260
14875,-0.3208,-0.6431,-0.6968,0.366,-0.122,-0.122,-137.280,18.820,-14.260
14885,-0.3213,-0.6440,-0.6934,0.366,-0.122,-0.061,-137.274,18.820,-14.260
14895,-0.3223,-0.6436,-0.6948,0.244,-0.122,-0.061,-137.269,18.820,-14.260
14904,-0.3228,-0.6436,-0.6934,0.061,-0.122,0.000,-137.263,18.820,-14.260
14915,-0.3242,-0.6440,-0.6929,0.061,-0.061,0.000,-137.263,18.820,-14.260
14925,-0.3262,-0.6440,-0.6904,0.061,-0.061,0.000,-137.258,18.825,-14.260
14935,-0.3257,-0.6440,-0.6914,0.122,-0.061,0.000,-137.258,18.825,-14.260
14945,-0.3252,-0.6426,-0.6938,0.061,-0.061,0.000,-137.252,18.831,-14.260
14955,-0.3247,-0.6436,-0.6938,-0.061,-0.061,0.000,-137.252,18.831,-14.260
14965,-0.3223,-0.6431,-0.6934,-0.183,-0.061,0.000,-137.252,18.831,-14.260
14974,-0.3203,-0.6431,-0.6948,-0.305,0.000,0.061,-137.258,18.831,-14.260
14985,-0.3223,-0.6445,-0.6938,-0.244,-0.061,0.122,-137.258,18.831,-14.260
14995,-0.3223,-0.6440,-0.6929,0.061,-0.061,0.183,-137.258,18.831,-14.260
15005,-0.3213,-0.6450,-0.6895,0.366,0.000,0.122,-137.252,18.831,-14.260
15015,-0.3203,-0.6455,-0.6890,0.427,-0.061,0.183,-137.241,18.836,-14.260
15025,-0.3198,-0.6445,-0.6865,0.427,0.000,0.427,-137.236,18.836,-14.260
15035,-0.3213,-0.6440,-0.6851,0.244,0.244,0.549,-137.230,18.836,-14.260
15045,-0.3208,-0.6440,-0.6880,0.000,0.427,0.488,-137.230,18.836,-14.260
15055,-0.3179,-0.6436,-0.6890,-0.061,0.549,0.549,-137.230,18.836,-14.260
15065,-0.3198,-0.6401,-0.6909,0.000,0.488,0.671,-137.230,18.836,-14.260
15075,-0.3232,-0.6392,-0.6909,0.183,0.366,0.610,-137.230,18.836,-14.260
15085,-0.3237,-0.6401,-0.6914,0.244,0.488,0.549,-137.230,18.842,-14.260
15095,-0.3232,-0.6377,-0.6934,0.122,0.732,0.427,-137.236,18.836,-14.260
15105,-0.3193,-0.6396,-0.6958,-0.122,0.793,0.366,-137.241,18.836,-14.260
15115,-0.3208,-0.6387,-0.6963,-0.366,0.610,0.427,-137.247,18.831,-14.260
15125,-0.3218,-0.6353,-0.6978,-0.427,0.305,0.366,-137.258,18.831,-14.260
15135,-0.3213,-0.6362,-0.7002,-0.244,0.000,0.305,-137.269,18.831,-14.260
15145,-0.3237,-0.6372,-0.6997,0.000,-0.305,0.183,-137.269,18.836,-14.260
15155,-0.3232,-0.6382,-0.7002,0.305,-0.549,-0.061,-137.269,18.842,-14.260
15165,-0.3232,-0.6416,-0.6997,0.427,-0.793,-0.305,-137.263,18.842,-14.260
15175,-0.3208,-0.6431,-0.6978,0.244,-0.854,-0.488,-137.258,18.847,-14.260
15189,-0.3223,-0.6431,-0.6953,-0.244,-0.793,-0.549,-137.258,18.847,-14.260
15195,-0.3228,-0.6440,-0.6968,-0.549,-0.549,-0.427,-137.263,18.847,-14.260
15205,-0.3223,-0.6450,-0.6943,-0.671,-0.183,-0.305,-137.263,18.847,-14.260
15215,-0.3223,-0.6450,-0.6997,-0.671,0.061,-0.244,-137.274,18.842,-14.260
15225,-0.3223,-0.6440,-0.6982,-0.671,0.183,-0.183,-137.280,18.842,-14.260
15235,-0.3232,-0.6436,-0.6982,-0.671,0.122,-0.061,-137.285,18.836,-14.260
15245,-0.3242,-0.6440,-0.6982,-0.549,0.000,0.061,-137.291,18.836,-14.260
15255,-0.3223,-0.6460,-0.6978,-0.488,-0.122,0.061,-137.296,18.836,-14.260
15265,-0.3232,-0.6416,-0.6992,-0.427,-0.183,0.000,-137.302,18.842,-14.260
15275,-0.3237,-0.6416,-0.6978,-0.183,-0.305,0.000,-137.302,18.842,-14.260
15285,-0.3242,-0.6416,-0.6963,0.122,-0.549,0.000,-137.302,18.847,-14.260
15295,-0.3237,-0.6431,-0.6953,0.427,-0.916,0.061,-137.296,18.853,-14.260
15305,-0.3242,-0.6436,-0.6924,0.549,-1.221,0.061,-137.285,18.864,-14.260
15315,-0.3237,-0.6440,-0.6895,0.488,-1.343,0.000,-137.274,18.875,-14.260
15325,-0.3228,-0.6431,-0.6895,0.183,-1.221,0.061,-137.269,18.885,-14.260
15335,-0.3237,-0.6431,-0.6885,-0.122,-0.916,0.183,-137.263,18.891,-14.260
15345,-0.3223,-0.6421,-0.6890,-0.183,-0.671,0.244,-137.263,18.896,-14.260
15355,-0.3237,-0.6411,-0.6880,0.000,-0.549,0.244,-137.258,18.907,-14.260
15365,-0.3203,-0.6416,-0.6885,0.183,-0.488,0.183,-137.252,18.907,-14.260
15375,-0.3208,-0.6436,-0.6890,0.366,-0.488,0.244,-137.247,18.913,-14.260
15385,-0.3228,-0.6426,-0.6885,0.305,-0.427,0.305,-137.241,18.918,-14.260
15395,-0.3237,-0.6411,-0.6870,0.183,-0.305,0.305,-137.236,18.924,-14.260
15405,-0.3242,-0.6387,-0.6875,-0.061,0.000,0.183,-137.236,18.924,-14.260
15415,-0.3247,-0.6401,-0.6895,-0.183,0.244,0.061,-137.236,18.924,-14.260
15425,-0.3228,-0.6431,-0.6885,-0.305,0.305,0.000,-137.236,18.924,-14.260
15435,-0.3237,-0.6431,-0.6890,-0.488,0.366,-0.061,-137.241,18.918,-14.260
15445,-0.3208,-0.6450,-0.6919,-0.671,0.305,0.000,-137.247,18.918,-14.260
15455,-0.3213,-0.6440,-0.6943,-0.671,0.183,0.122,-137.252,18.913,-14.260
15465,-0.3203,-0.6436,-0.6958,-0.488,0.183,0.183,-137.258,18.913,-14.260
15475,-0.3237,-0.6431,-0.6963,-0.366,0.366,0.244,-137.263,18.913,-14.260
15485,-0.3232,-0.6431,-0.6953,-0.183,0.610,0.427,-137.269,18.907,-14.260
15495,-0.3223,-0.6406,-0.6948,0.061,0.671,0.427,-137.269,18.907,-14.260
15505,-0.3223,-0.6401,-0.6958,0.122,0.427,0.244,-137.269,18.902,-14.260
15515,-0.3218,-0.6411,-0.6958,0.000,0.122,0.122,-137.274,18.902,-14.260
15525,-0.3228,-0.6411,-0.6968,-0.244,-0.061,0.122,-137.274,18.902,-14.260
15535,-0.3232,-0.6382,-0.6992,-0.549,-0.305,0.122,-137.285,18.907,-14.260
15545,-0.3247,-0.6387,-0.6968,-0.488,-0.427,0.122,-137.291,18.907,-14.260
15555,-0.3262,-0.6367,-0.6982,-0.183,-0.549,0.000,-137.296,18.913,-14.260
15565,-0.3257,-0.6377,-0.6968,0.305,-0.610,-0.061,-137.291,18.918,-14.260
15575,-0.3252,-0.6387,-0.6943,0.671,-0.671,-0.061,-137.285,18.924,-14.260
15585,-0.3232,-0.6387,-0.6929,0.732,-0.793,-0.122,-137.274,18.929,-14.260
15595,-0.3242,-0.6396,-0.6899,0.427,-0.854,-0.122,-137.269,18.935,-14.260
15605,-0.3237,-0.6396,-0.6914,0.061,-0.854,-0.122,-137.263,18.940,-14.260
15615,-0.3218,-0.6382,-0.6914,-0.305,-0.854,-0.122,-137.263,18.946,-14.260
15625,-0.3228,-0.6382,-0.6890,-0.549,-0.854,-0.061,-137.269,18.951,-14.260
15635,-0.3223,-0.6396,-0.6909,-0.488,-0.610,-0.244,-137.269,18.957,-14.260
15645,-0.3218,-0.6377,-0.6909,-0.244,-0.427,-0.366,-137.269,18.957,-14.260
15655,-0.3208,-0.6421,-0.6885,0.061,-0.305,-0.427,-137.263,18.951,-14.260
15665,-0.3218,-0.6426,-0.6895,0.244,-0.427,-0.366,-137.258,18.951,-14.260
15675,-0.3232,-0.6411,-0.6880,0.366,-0.488,-0.244,-137.252,18.957,-14.260
15685,-0.3247,-0.6426,-0.6860,0.244,-0.549,-0.244,-137.241,18.957,-14.260
15695,-0.3252,-0.6426,-0.6851,0.183,-0.427,-0.427,-137.236,18.962,-14.260
15705,-0.3267,-0.6431,-0.6855,0.061,-0.183,-0.488,-137.230,18.962,-14.260
15715,-0.3257,-0.6445,-0.6821,-0.061,0.183,-0.427,-137.225,18.957,-14.260
15725,-0.3242,-0.6475,-0.6885,-0.122,0.427,-0.366,-137.219,18.951,-14.260
15735,-0.3237,-0.6475,-0.6895,-0.305,0.610,-0.244,-137.219,18.946,-14.260
15745,-0.3267,-0.6465,-0.6909,-0.427,0.793,-0.122,-137.219,18.940,-14.260
15755,-0.3257,-0.6465,-0.6895,-0.488,0.977,0.000,-137.225,18.935,-14.260
15765,-0.3242,-0.6455,-0.6914,-0.427,0.977,0.000,-137.230,18.929,-14.260
15775,-0.3228,-0.6460,-0.6929,-0.305,0.854,0.061,-137.230,18.918,-14.260
15785,-0.3257,-0.6436,-0.6924,-0.183,0.671,0.122,-137.236,18.918,-14.260
15795,-0.3252,-0.6440,-0.6924,0.000,0.610,0.244,-137.236,18.913,-14.260
15805,-0.3257,-0.6445,-0.6909,0.183,0.671,0.244,-137.230,18.913,-14.260
15815,-0.3262,-0.6440,-0.6904,0.305,0.610,0.183,-137.230,18.913,-14.260
15825,-0.3247,-0.6460,-0.6890,0.244,0.610,0.244,-137.225,18.907,-14.260
15835,-0.3247,-0.6475,-0.6899,0.183,0.488,0.122,-137.219,18.907,-14.260
15845,-0.3228,-0.6475,-0.6880,-0.061,0.488,0.122,-137.219,18.902,-14.260
15855,-0.3208,-0.6499,-0.6914,-0.305,0.610,0.305,-137.219,18.896,-14.260
15865,-0.3213,-0.6509,-0.6909,-0.549,0.793,0.488,-137.219,18.896,-14.260
15875,-0.3203,-0.6494,-0.6929,-0.610,0.916,0.854,-137.230,18.891,-14.260
15885,-0.3232,-0.6460,-0.6943,-0.366,1.099,1.160,-137.236,18.891,-14.277
15895,-0.3247,-0.6436,-0.6924,0.122,1.282,1.282,-137.236,18.891,-14.299
15905,-0.3242,-0.6421,-0.6948,0.488,1.404,1.343,-137.241,18.891,-14.321
15915,-0.3247,-0.6401,-0.6953,0.671,1.526,1.343,-137.241,18.885,-14.343
15925,-0.3247,-0.6377,-0.6982,0.549,1.343,1.343,-137.247,18.885,-14.359
15935,-0.3237,-0.6401,-0.6958,0.305,1.038,1.282,-137.252,18.891,-14.376
15945,-0.3252,-0.6377,-0.6934,0.000,0.732,1.282,-137.258,18.891,-14.392
15955,-0.3237,-0.6357,-0.6929,-0.244,0.488,1.160,-137.263,18.896,-14.403
15965,-0.3242,-0.6372,-0.6968,-0.305,0.488,1.038,-137.274,18.902,-14.414
15975,-0.3223,-0.6387,-0.6992,-0.366,0.671,0.854,-137.285,18.902,-14.431
15985,-0.3174,-0.6396,-0.7012,-0.366,0.854,0.793,-137.296,18.896,-14.442
15995,-0.3159,-0.6406,-0.6997,-0.366,0.916,0.793,-137.307,18.891,-14.453
16005,-0.3174,-0.6348,-0.7021,-0.305,0.671,0.793,-137.318,18.891,-14.464
16015,-0.3179,-0.6343,-0.7021,0.122,0.305,0.854,-137.324,18.891,-14.474
16025,-0.3213,-0.6323,-0.6982,0.671,0.000,0.671,-137.324,18.891,-14.480
16035,-0.3232,-0.6328,-0.6924,1.160,-0.122,0.488,-137.318,18.896,-14.480
16045,-0.3228,-0.6353,-0.6895,1.282,0.000,0.366,-137.307,18.902,-14.485
16055,-0.3223,-0.6367,-0.6880,0.854,0.305,0.183,-137.296,18.902,-14.485
16065,-0.3208,-0.6377,-0.6909,-0.061,0.671,0.000,-137.302,18.896,-14.491
16075,-0.3208,-0.6377,-0.6929,-0.916,0.854,-0.061,-137.313,18.891,-14.496
16085,-0.3237,-0.6367,-0.6943,-1.404,0.977,0.000,-137.329,18.880,-14.507
16095,-0.3237,-0.6392,-0.6997,-1.343,0.854,-0.061,-137.346,18.875,-14.513
16105,-0.3228,-0.6416,-0.7002,-1.038,0.671,0.000,-137.362,18.869,-14.513
16115,-0.3208,-0.6421,-0.6992,-0.549,0.488,0.000,-137.368,18.864,-14.518
16125,-0.3188,-0.6411,-0.6982,-0.061,0.305,0.061,-137.368,18.858,-14.524
16135,-0.3164,-0.6426,-0.6987,0.366,0.122,0.183,-137.368,18.858,-14.524
16145,-0.3193,-0.6401,-0.6987,0.549,-0.122,0.183,-137.362,18.858,-14.524
16155,-0.3198,-0.6387,-0.6953,0.549,-0.366,0.183,-137.357,18.858,-14.524
16165,-0.3213,-0.6387,-0.6899,0.427,-0.610,0.061,-137.351,18.864,-14.518
16175,-0.3203,-0.6387,-0.6899,0.305,-0.732,-0.061,-137.346,18.869,-14.513
16185,-0.3213,-0.6392,-0.6904,0.183,-0.610,-0.244,-137.340,18.869,-14.507
16195,-0.3228,-0.6416,-0.6880,0.183,-0.244,-0.305,-137.335,18.869,-14.502
16205,-0.3213,-0.6431,-0.6899,0.122,0.000,-0.305,-137.329,18.869,-14.502
16215,-0.3208,-0.6450,-0.6880,0.061,0.305,-0.244,-137.324,18.864,-14.502
16225,-0.3223,-0.6436,-0.6875,-0.244,0.671,-0.183,-137.324,18.858,-14.502
16235,-0.3262,-0.6436,-0.6909,-0.610,1.038,0.000,-137.329,18.853,-14.513
16245,-0.3262,-0.6445,-0.6899,-0.793,1.343,0.244,-137.335,18.847,-14.524
16255,-0.3276,-0.6431,-0.6899,-0.916,1.526,0.305,-137.346,18.842,-14.535
16265,-0.3247,-0.6406,-0.6963,-0.793,1.526,0.244,-137.357,18.831,-14.551
16275,-0.3232,-0.6406,-0.6978,-0.732,1.282,0.244,-137.368,18.825,-14.562
16285,-0.3228,-0.6421,-0.7031,-0.488,0.854,0.183,-137.379,18.820,-14.568
16295,-0.3218,-0.6401,-0.6987,-0.366,0.427,0.122,-137.384,18.814,-14.573
