elapsed_ms,acc_x_g,acc_y_g,acc_z_g,gyro_x_dps,gyro_y_dps,gyro_z_dps,angle_x_deg,angle_y_deg,angle_z_deg
0,-0.3408,-0.4663,-0.8291,-0.854,-0.305,-0.732,-150.754,19.698,-13.271
11,-0.3423,-0.4683,-0.8286,-0.305,-0.732,-0.732,-150.749,19.704,-13.260
20,-0.3413,-0.4697,-0.8276,0.366,-1.160,-0.671,-150.738,19.709,-13.250
30,-0.3398,-0.4712,-0.8242,0.732,-1.526,-0.671,-150.721,19.720,-13.233
40,-0.3398,-0.4697,-0.8223,0.916,-1.770,-0.610,-150.705,19.731,-13.222
50,-0.3433,-0.4717,-0.8203,0.916,-1.770,-0.549,-150.683,19.748,-13.206
60,-0.3433,-0.4717,-0.8164,0.732,-1.648,-0.427,-150.667,19.764,-13.195
70,-0.3413,-0.4697,-0.8154,0.488,-1.526,-0.305,-150.650,19.775,-13.195
80,-0.3423,-0.4678,-0.8154,0.366,-1.404,-0.122,-150.639,19.786,-13.195
90,-0.3413,-0.4668,-0.8145,0.366,-1.221,0.061,-150.628,19.803,-13.195
100,-0.3413,-0.4653,-0.8159,0.488,-0.977,0.183,-150.623,19.814,-13.195
110,-0.3413,-0.4634,-0.8145,0.610,-0.610,0.183,-150.612,19.819,-13.195
120,-0.3433,-0.4624,-0.8154,0.671,-0.183,0.122,-150.601,19.825,-13.195
130,-0.3428,-0.4634,-0.8159,0.549,0.061,0.183,-150.595,19.830,-13.195
140,-0.3403,-0.4624,-0.8164,0.427,0.061,0.244,-150.590,19.830,-13.195
150,-0.3403,-0.4629,-0.8179,0.244,0.000,0.366,-150.590,19.836,-13.195
160,-0.3394,-0.4624,-0.8188,0.061,0.061,0.488,-150.590,19.836,-13.195
170,-0.3408,-0.4614,-0.8223,-0.122,0.183,0.610,-150.595,19.836,-13.195
180,-0.3418,-0.4595,-0.8228,-0.122,0.427,0.671,-150.601,19.836,-13.195
190,-0.3394,-0.4604,-0.8271,0.000,0.610,0.610,-150.606,19.836,-13.195
200,-0.3394,-0.4604,-0.8281,0.183,0.732,0.488,-150.612,19.830,-13.195
210,-0.3384,-0.4585,-0.8276,0.183,0.732,0.427,-150.617,19.825,-13.195
220,-0.3389,-0.4595,-0.8276,-0.061,0.610,0.427,-150.623,19.819,-13.195
230,-0.3403,-0.4580,-0.8311,-0.305,0.427,0.488,-150.634,19.819,-13.195
240,-0.3408,-0.4561,-0.8325,-0.366,0.244,0.488,-150.645,19.814,-13.195
250,-0.3403,-0.4556,-0.8306,-0.183,0.122,0.366,-150.656,19.814,-13.195
260,-0.3408,-0.4536,-0.8306,0.061,0.061,0.183,-150.661,19.819,-13.195
270,-0.3428,-0.4551,-0.8286,0.366,-0.122,0.122,-150.661,19.819,-13.195
280,-0.3447,-0.4570,-0.8281,0.427,-0.244,0.061,-150.661,19.825,-13.195
290,-0.3433,-0.4575,-0.8262,0.305,-0.305,-0.061,-150.661,19.830,-13.195
300,-0.3423,-0.4561,-0.8252,0.122,-0.244,-0.122,-150.667,19.830,-13.195
310,-0.3428,-0.4565,-0.8237,0.000,-0.244,-0.244,-150.667,19.836,-13.195
320,-0.3433,-0.4570,-0.8228,0.000,-0.305,-0.366,-150.667,19.836,-13.195
330,-0.3442,-0.4565,-0.8223,0.000,-0.610,-0.549,-150.667,19.841,-13.195
340,-0.3418,-0.4609,-0.8208,-0.061,-0.854,-0.671,-150.667,19.847,-13.195
350,-0.3428,-0.4619,-0.8203,-0.183,-0.916,-0.793,-150.661,19.852,-13.195
360,-0.3413,-0.4653,-0.8169,-0.305,-0.854,-0.854,-150.656,19.858,-13.195
370,-0.3389,-0.4668,-0.8145,-0.427,-0.793,-0.854,-150.656,19.858,-13.195
380,-0.3413,-0.4687,-0.8145,-0.366,-0.610,-0.732,-150.650,19.863,-13.195
390,-0.3428,-0.4702,-0.8135,-0.061,-0.549,-0.671,-150.639,19.863,-13.195
400,-0.3428,-0.4722,-0.8140,0.122,-0.488,-0.488,-150.628,19.869,-13.195
410,-0.3428,-0.4741,-0.8130,0.183,-0.366,-0.244,-150.617,19.874,-13.195
420,-0.3398,-0.4761,-0.8149,0.183,-0.183,0.061,-150.606,19.874,-13.195
430,-0.3423,-0.4771,-0.8159,0.061,0.061,0.366,-150.595,19.874,-13.195
440,-0.3408,-0.4736,-0.8184,-0.061,0.305,0.610,-150.595,19.874,-13.195
450,-0.3418,-0.4712,-0.8213,0.061,0.488,0.854,-150.590,19.874,-13.195
460,-0.3408,-0.4673,-0.8193,0.305,0.610,1.099,-150.590,19.874,-13.206
470,-0.3433,-0.4639,-0.8203,0.732,0.671,1.282,-150.584,19.874,-13.222
480,-0.3433,-0.4595,-0.8174,1.099,0.671,1.282,-150.584,19.880,-13.239
490,-0.3423,-0.4580,-0.8154,1.221,0.793,1.282,-150.579,19.880,-13.255
500,-0.3428,-0.4585,-0.8159,0.977,0.977,1.282,-150.573,19.880,-13.271
511,-0.3418,-0.4595,-0.8154,0.366,1.404,1.221,-150.573,19.874,-13.288
520,-0.3428,-0.4546,-0.8169,-0.244,1.892,1.099,-150.590,19.869,-13.310
530,-0.3408,-0.4502,-0.8257,-0.732,2.319,1.038,-150.612,19.852,-13.332
540,-0.3403,-0.4487,-0.8286,-0.854,2.258,0.854,-150.634,19.841,-13.348
550,-0.3423,-0.4482,-0.8281,-0.671,2.014,0.610,-150.656,19.825,-13.365
560,-0.3423,-0.4507,-0.8301,-0.427,1.465,0.366,-150.672,19.814,-13.376
570,-0.3423,-0.4536,-0.8296,-0.183,0.977,0.061,-150.683,19.808,-13.381
580,-0.3403,-0.4565,-0.8301,-0.183,0.671,-0.183,-150.688,19.803,-13.387
590,-0.3379,-0.4580,-0.8306,-0.305,0.427,-0.366,-150.699,19.792,-13.381
600,-0.3398,-0.4609,-0.8320,-0.427,0.122,-0.427,-150.705,19.792,-13.381
610,-0.3384,-0.4624,-0.8330,-0.488,-0.061,-0.488,-150.710,19.786,-13.376
620,-0.3389,-0.4648,-0.8340,-0.427,-0.183,-0.549,-150.716,19.781,-13.370
630,-0.3384,-0.4687,-0.8311,-0.305,-0.305,-0.549,-150.710,19.781,-13.365
640,-0.3398,-0.4702,-0.8340,-0.122,-0.488,-0.610,-150.710,19.781,-13.354
650,-0.3437,-0.4692,-0.8311,0.183,-0.671,-0.549,-150.705,19.781,-13.348
660,-0.3437,-0.4707,-0.8296,0.488,-0.793,-0.427,-150.694,19.786,-13.337
671,-0.3442,-0.4712,-0.8257,0.793,-0.916,-0.244,-150.677,19.797,-13.332
681,-0.3452,-0.4712,-0.8208,0.977,-0.977,-0.061,-150.661,19.803,-13.326
691,-0.3437,-0.4697,-0.8193,0.916,-0.916,0.244,-150.650,19.814,-13.321
701,-0.3442,-0.4668,-0.8174,0.854,-0.732,0.488,-150.634,19.830,-13.321
710,-0.3442,-0.4614,-0.8169,0.671,-0.305,0.610,-150.628,19.836,-13.326
721,-0.3437,-0.4595,-0.8154,0.610,0.061,0.671,-150.623,19.841,-13.332
731,-0.3423,-0.4600,-0.8154,0.488,0.122,0.671,-150.623,19.847,-13.343
741,-0.3398,-0.4580,-0.8135,0.427,0.244,0.610,-150.623,19.852,-13.348
751,-0.3384,-0.4565,-0.8130,0.305,0.305,0.427,-150.617,19.852,-13.354
761,-0.3394,-0.4556,-0.8154,0.244,0.488,0.244,-150.623,19.847,-13.359
771,-0.3384,-0.4575,-0.8159,0.122,0.732,0.183,-150.623,19.841,-13.365
781,-0.3384,-0.4585,-0.8169,-0.122,0.916,0.183,-150.628,19.836,-13.370
791,-0.3403,-0.4609,-0.8169,-0.305,1.282,0.122,-150.634,19.825,-13.376
801,-0.3389,-0.4614,-0.8188,-0.549,1.587,0.061,-150.639,19.814,-13.387
811,-0.3389,-0.4624,-0.8213,-0.854,1.831,0.061,-150.650,19.797,-13.398
821,-0.3428,-0.4609,-0.8242,-0.916,1.831,0.061,-150.667,19.786,-13.409
831,-0.3423,-0.4639,-0.8262,-0.793,1.770,0.000,-150.677,19.770,-13.414
841,-0.3418,-0.4639,-0.8306,-0.671,1.587,-0.061,-150.688,19.753,-13.425
851,-0.3403,-0.4644,-0.8306,-0.549,1.221,-0.061,-150.694,19.742,-13.431
861,-0.3418,-0.4658,-0.8320,-0.427,0.977,0.061,-150.699,19.737,-13.436
871,-0.3423,-0.4663,-0.8335,-0.366,0.671,0.061,-150.705,19.731,-13.442
881,-0.3428,-0.4668,-0.8325,-0.122,0.427,0.061,-150.710,19.726,-13.442
891,-0.3408,-0.4648,-0.8306,0.244,0.122,0.183,-150.710,19.726,-13.447
901,-0.3428,-0.4663,-0.8291,0.610,-0.061,0.305,-150.705,19.731,-13.447
911,-0.3428,-0.4653,-0.8242,0.854,-0.244,0.427,-150.694,19.737,-13.447
921,-0.3403,-0.4629,-0.8247,0.916,-0.305,0.488,-150.683,19.742,-13.453
931,-0.3403,-0.4600,-0.8242,0.854,-0.366,0.671,-150.677,19.748,-13.458
941,-0.3403,-0.4575,-0.8223,0.793,-0.244,0.732,-150.677,19.753,-13.464
951,-0.3413,-0.4561,-0.8223,0.732,-0.244,0.732,-150.672,19.764,-13.469
961,-0.3418,-0.4556,-0.8223,0.671,-0.244,0.610,-150.672,19.770,-13.475
971,-0.3413,-0.4526,-0.8213,0.488,-0.244,0.366,-150.672,19.775,-13.475
981,-0.3403,-0.4497,-0.8188,0.305,-0.183,0.183,-150.677,19.781,-13.475
991,-0.3398,-0.4531,-0.8203,0.244,0.000,0.061,-150.677,19.781,-13.475
1001,-0.3398,-0.4546,-0.8188,0.183,0.366,-0.122,-150.677,19.781,-13.475
1011,-0.3384,-0.4565,-0.8208,0.061,0.549,-0.244,-150.677,19.775,-13.475
1021,-0.3403,-0.4590,-0.8228,-0.244,0.671,-0.305,-150.683,19.770,-13.480
1031,-0.3394,-0.4604,-0.8271,-0.671,0.671,-0.366,-150.694,19.759,-13.480
1041,-0.3398,-0.4619,-0.8247,-0.916,0.427,-0.427,-150.705,19.753,-13.475
1051,-0.3403,-0.4624,-0.8252,-0.916,0.183,-0.488,-150.710,19.753,-13.475
1061,-0.3413,-0.4639,-0.8271,-0.671,-0.061,-0.549,-150.716,19.748,-13.469
1071,-0.3418,-0.4673,-0.8257,-0.244,-0.122,-0.427,-150.716,19.748,-13.464
1081,-0.3408,-0.4707,-0.8291,0.061,0.000,-0.366,-150.710,19.748,-13.458
1091,-0.3408,-0.4712,-0.8267,0.305,0.061,-0.122,-150.699,19.748,-13.458
1101,-0.3389,-0.4702,-0.8286,0.366,0.061,0.061,-150.694,19.742,-13.458
1111,-0.3398,-0.4668,-0.8276,0.427,-0.183,0.305,-150.688,19.748,-13.464
1121,-0.3428,-0.4668,-0.8232,0.610,-0.488,0.427,-150.683,19.753,-13.464
1131,-0.3428,-0.4629,-0.8193,0.732,-0.732,0.366,-150.672,19.764,-13.464
1141,-0.3428,-0.4639,-0.8159,0.793,-0.793,0.305,-150.661,19.775,-13.458
1151,-0.3447,-0.4634,-0.8140,0.610,-0.549,0.366,-150.656,19.786,-13.464
1161,-0.3394,-0.4644,-0.8140,0.305,-0.061,0.305,-150.650,19.792,-13.464
1171,-0.3389,-0.4644,-0.8154,0.122,0.366,0.305,-150.645,19.792,-13.469
1181,-0.3394,-0.4634,-0.8159,0.000,0.671,0.366,-150.645,19.786,-13.475
1191,-0.3413,-0.4609,-0.8154,0.000,0.916,0.488,-150.645,19.781,-13.486
1201,-0.3413,-0.4609,-0.8105,0.000,1.038,0.610,-150.650,19.781,-13.497
1211,-0.3403,-0.4609,-0.8130,-0.061,1.221,0.610,-150.650,19.775,-13.508
1221,-0.3403,-0.4619,-0.8145,-0.183,1.404,0.610,-150.656,19.770,-13.519
1231,-0.3398,-0.4604,-0.8135,-0.305,1.526,0.610,-150.661,19.759,-13.535
1241,-0.3389,-0.4570,-0.8145,-0.549,1.770,0.610,-150.672,19.748,-13.552
1251,-0.3374,-0.4580,-0.8154,-0.793,2.136,0.549,-150.683,19.737,-13.568
1261,-0.3354,-0.4604,-0.8169,-1.038,2.563,0.427,-150.699,19.715,-13.585
1271,-0.3384,-0.4624,-0.8223,-1.465,2.991,0.244,-150.721,19.687,-13.601
1281,-0.3364,-0.4629,-0.8276,-1.770,3.113,0.122,-150.743,19.660,-13.618
1291,-0.3384,-0.4604,-0.8315,-1.953,3.113,0.122,-150.771,19.633,-13.634
1301,-0.3413,-0.4624,-0.8369,-1.648,2.869,0.061,-150.798,19.611,-13.651
1311,-0.3433,-0.4648,-0.8384,-1.099,2.441,0.000,-150.815,19.589,-13.661
1321,-0.3442,-0.4644,-0.8394,-0.488,1.953,-0.061,-150.826,19.572,-13.672
1331,-0.3433,-0.4663,-0.8379,-0.061,1.465,-0.061,-150.826,19.561,-13.678
1341,-0.3413,-0.4663,-0.8369,0.183,0.916,0.061,-150.826,19.556,-13.683
1351,-0.3398,-0.4678,-0.8350,0.305,0.549,0.183,-150.826,19.550,-13.689
1361,-0.3379,-0.4668,-0.8325,0.427,0.244,0.366,-150.820,19.550,-13.694
1371,-0.3364,-0.4653,-0.8311,0.549,-0.061,0.549,-150.815,19.556,-13.700
1381,-0.3369,-0.4648,-0.8296,0.732,-0.183,0.732,-150.809,19.556,-13.705
1391,-0.3335,-0.4600,-0.8276,0.854,-0.366,0.671,-150.804,19.561,-13.711
1401,-0.3350,-0.4570,-0.8247,0.916,-0.427,0.854,-150.798,19.572,-13.716
1411,-0.3350,-0.4541,-0.8237,0.916,-0.305,0.854,-150.798,19.578,-13.722
1421,-0.3364,-0.4517,-0.8218,0.916,-0.061,0.610,-150.793,19.583,-13.727
1431,-0.3374,-0.4521,-0.8198,0.854,0.061,0.366,-150.787,19.589,-13.733
1441,-0.3359,-0.4536,-0.8184,0.671,0.122,0.183,-150.787,19.589,-13.733
1451,-0.3364,-0.4561,-0.8174,0.122,0.244,0.122,-150.787,19.589,-13.733
1461,-0.3374,-0.4561,-0.8179,-0.488,0.366,0.000,-150.793,19.589,-13.738
1471,-0.3369,-0.4556,-0.8184,-0.854,0.610,-0.122,-150.804,19.583,-13.738
1481,-0.3379,-0.4556,-0.8193,-0.854,0.916,-0.122,-150.815,19.578,-13.744
1491,-0.3364,-0.4580,-0.8193,-0.732,1.282,-0.122,-150.820,19.567,-13.749
1501,-0.3354,-0.4619,-0.8242,-0.610,1.526,-0.183,-150.826,19.556,-13.755
1512,-0.3350,-0.4639,-0.8267,-0.610,1.526,-0.183,-150.837,19.539,-13.760
1521,-0.3369,-0.4639,-0.8286,-0.732,1.465,-0.244,-150.842,19.523,-13.766
1531,-0.3369,-0.4619,-0.8315,-0.916,1.160,-0.122,-150.853,19.512,-13.766
1541,-0.3389,-0.4634,-0.8320,-0.854,0.793,0.061,-150.864,19.506,-13.766
1551,-0.3384,-0.4619,-0.8296,-0.549,0.488,0.000,-150.870,19.506,-13.766
1561,-0.3403,-0.4624,-0.8311,-0.061,0.366,-0.122,-150.875,19.501,-13.766
1571,-0.3384,-0.4648,-0.8301,0.244,0.366,0.061,-150.870,19.501,-13.766
1581,-0.3374,-0.4639,-0.8267,0.244,0.488,0.183,-150.870,19.501,-13.766
1591,-0.3403,-0.4619,-0.8257,0.061,0.732,0.244,-150.870,19.495,-13.766
1601,-0.3369,-0.4604,-0.8276,-0.244,0.854,0.244,-150.875,19.490,-13.766
1611,-0.3354,-0.4595,-0.8276,-0.549,0.732,0.183,-150.881,19.484,-13.766
1621,-0.3359,-0.4570,-0.8281,-0.671,0.488,0.305,-150.892,19.484,-13.766
1631,-0.3374,-0.4575,-0.8296,-0.549,0.183,0.244,-150.903,19.484,-13.766
1641,-0.3369,-0.4561,-0.8281,-0.244,-0.061,0.061,-150.903,19.484,-13.766
1651,-0.3354,-0.4551,-0.8281,0.122,-0.122,-0.122,-150.908,19.490,-13.766
1661,-0.3359,-0.4575,-0.8286,0.488,0.000,-0.122,-150.903,19.490,-13.766
1671,-0.3340,-0.4595,-0.8262,0.671,0.000,-0.183,-150.897,19.484,-13.766
1681,-0.3354,-0.4619,-0.8247,0.488,-0.183,-0.122,-150.892,19.490,-13.766
1691,-0.3340,-0.4624,-0.8247,0.122,-0.305,-0.061,-150.886,19.490,-13.766
1701,-0.3350,-0.4600,-0.8213,-0.244,-0.244,0.061,-150.886,19.495,-13.766
1711,-0.3335,-0.4580,-0.8242,-0.244,-0.183,0.244,-150.892,19.495,-13.766
1721,-0.3354,-0.4590,-0.8257,-0.061,0.000,0.183,-150.892,19.495,-13.766
1731,-0.3364,-0.4600,-0.8237,0.183,0.244,0.122,-150.892,19.495,-13.766
1741,-0.3354,-0.4629,-0.8262,0.366,0.427,0.122,-150.886,19.495,-13.766
1751,-0.3335,-0.4614,-0.8262,0.366,0.549,0.183,-150.881,19.490,-13.766
1761,-0.3340,-0.4595,-0.8257,0.183,0.549,0.305,-150.881,19.484,-13.766
1771,-0.3384,-0.4565,-0.8237,-0.061,0.549,0.427,-150.886,19.484,-13.766
1781,-0.3389,-0.4536,-0.8237,-0.061,0.549,0.366,-150.892,19.484,-13.766
1791,-0.3433,-0.4536,-0.8262,0.183,0.610,0.122,-150.897,19.484,-13.766
1801,-0.3403,-0.4561,-0.8262,0.366,0.610,-0.061,-150.897,19.484,-13.766
1811,-0.3379,-0.4580,-0.8223,0.305,0.671,-0.305,-150.892,19.479,-13.766
1821,-0.3364,-0.4614,-0.8213,0.061,0.671,-0.488,-150.886,19.473,-13.766
1831,-0.3354,-0.4639,-0.8208,-0.427,0.854,-0.488,-150.886,19.468,-13.766
1841,-0.3325,-0.4644,-0.8257,-0.977,1.160,-0.305,-150.897,19.451,-13.766
1851,-0.3335,-0.4614,-0.8306,-1.343,1.343,0.000,-150.914,19.440,-13.766
1861,-0.3354,-0.4609,-0.8330,-1.160,1.343,0.244,-150.930,19.429,-13.766
1871,-0.3350,-0.4570,-0.8354,-0.549,1.221,0.305,-150.941,19.418,-13.766
1881,-0.3354,-0.4565,-0.8379,0.244,0.916,0.305,-150.947,19.413,-13.766
1891,-0.3350,-0.4575,-0.8379,0.916,0.549,0.366,-150.941,19.407,-13.766
1901,-0.3364,-0.4561,-0.8345,1.282,-0.061,0.366,-150.936,19.413,-13.766
1911,-0.3354,-0.4531,-0.8325,1.282,-0.732,0.183,-150.925,19.418,-13.766
1921,-0.3359,-0.4536,-0.8276,0.977,-1.282,0.000,-150.919,19.435,-13.766
1931,-0.3359,-0.4575,-0.8252,0.488,-1.404,-0.122,-150.914,19.446,-13.766
1941,-0.3340,-0.4590,-0.8218,0.061,-1.221,-0.305,-150.908,19.457,-13.766
1951,-0.3354,-0.4600,-0.8223,-0.305,-0.793,-0.366,-150.908,19.462,-13.766
1961,-0.3335,-0.4604,-0.8213,-0.427,-0.244,-0.366,-150.908,19.462,-13.766
1971,-0.3335,-0.4624,-0.8218,-0.366,0.122,-0.366,-150.908,19.462,-13.766
1981,-0.3350,-0.4614,-0.8242,-0.122,0.366,-0.305,-150.908,19.457,-13.766
1991,-0.3379,-0.4590,-0.8237,0.061,0.305,-0.183,-150.908,19.457,-13.766
2001,-0.3364,-0.4604,-0.8252,0.183,0.244,-0.183,-150.903,19.451,-13.766
2012,-0.3374,-0.4624,-0.8247,0.183,0.061,-0.183,-150.897,19.457,-13.766
2021,-0.3359,-0.4624,-0.8252,0.183,0.000,-0.183,-150.897,19.457,-13.766
2031,-0.3374,-0.4614,-0.8242,0.122,0.000,-0.122,-150.892,19.457,-13.766
2041,-0.3359,-0.4595,-0.8203,0.000,0.122,-0.061,-150.892,19.457,-13.766
2051,-0.3374,-0.4570,-0.8198,0.061,0.122,0.000,-150.892,19.457,-13.766
2061,-0.3364,-0.4585,-0.8218,0.183,0.000,-0.061,-150.886,19.462,-13.766
2071,-0.3354,-0.4614,-0.8213,0.244,0.061,-0.122,-150.881,19.462,-13.766
2081,-0.3350,-0.4609,-0.8203,0.122,0.122,-0.061,-150.881,19.462,-13.766
2091,-0.3330,-0.4614,-0.8184,-0.061,0.305,0.122,-150.875,19.462,-13.766
2101,-0.3369,-0.4609,-0.8198,-0.183,0.549,0.183,-150.881,19.457,-13.766
2111,-0.3335,-0.4600,-0.8218,-0.244,0.854,0.183,-150.881,19.451,-13.766
2121,-0.3335,-0.4600,-0.8232,-0.305,0.977,0.183,-150.886,19.446,-13.766
2131,-0.3335,-0.4614,-0.8237,-0.305,1.038,0.183,-150.892,19.435,-13.766
2141,-0.3340,-0.4639,-0.8271,-0.366,1.099,0.183,-150.897,19.429,-13.766
2151,-0.3335,-0.4639,-0.8267,-0.366,1.038,0.183,-150.897,19.418,-13.766
2161,-0.3340,-0.4624,-0.8306,-0.366,1.099,0.305,-150.903,19.413,-13.766
2171,-0.3364,-0.4609,-0.8311,-0.305,1.221,0.427,-150.914,19.402,-13.766
2181,-0.3379,-0.4600,-0.8315,-0.183,1.282,0.427,-150.919,19.396,-13.766
2191,-0.3384,-0.4590,-0.8325,0.000,1.343,0.427,-150.925,19.391,-13.766
2201,-0.3359,-0.4590,-0.8350,0.183,1.099,0.427,-150.930,19.380,-13.766
2211,-0.3374,-0.4575,-0.8350,0.244,0.671,0.488,-150.930,19.380,-13.766
2221,-0.3354,-0.4565,-0.8354,0.366,0.244,0.366,-150.936,19.380,-13.766
2231,-0.3345,-0.4580,-0.8330,0.427,-0.244,0.183,-150.930,19.380,-13.766
2241,-0.3350,-0.4575,-0.8296,0.427,-0.488,0.122,-150.930,19.385,-13.766
2251,-0.3354,-0.4580,-0.8262,0.427,-0.427,0.122,-150.925,19.396,-13.766
2261,-0.3330,-0.4575,-0.8247,0.427,-0.183,0.000,-150.925,19.396,-13.766
2271,-0.3350,-0.4580,-0.8257,0.244,0.000,0.000,-150.919,19.396,-13.766
2281,-0.3350,-0.4590,-0.8257,0.122,0.244,0.122,-150.919,19.396,-13.766
2291,-0.3354,-0.4580,-0.8257,-0.061,0.427,0.183,-150.925,19.396,-13.766
2301,-0.3364,-0.4580,-0.8247,-0.183,0.427,0.183,-150.925,19.396,-13.766
2311,-0.3335,-0.4585,-0.8218,-0.244,0.427,0.061,-150.930,19.391,-13.766
2321,-0.3350,-0.4565,-0.8232,-0.305,0.366,-0.061,-150.930,19.391,-13.766
2331,-0.3359,-0.4570,-0.8252,-0.305,0.183,-0.061,-150.936,19.391,-13.766
2341,-0.3354,-0.4590,-0.8247,-0.183,0.183,-0.183,-150.936,19.391,-13.766
2351,-0.3354,-0.4619,-0.8262,-0.061,0.305,-0.305,-150.936,19.391,-13.766
2361,-0.3335,-0.4614,-0.8262,-0.244,0.366,-0.305,-150.936,19.385,-13.766
2371,-0.3350,-0.4644,-0.8276,-0.366,0.549,-0.183,-150.941,19.380,-13.766
2381,-0.3320,-0.4629,-0.8301,-0.549,0.610,-0.061,-150.947,19.374,-13.766
2391,-0.3311,-0.4604,-0.8320,-0.488,0.549,0.061,-150.952,19.363,-13.766
2401,-0.3320,-0.4590,-0.8315,-0.244,0.366,0.305,-150.958,19.363,-13.766
2411,-0.3359,-0.4570,-0.8286,0.244,0.122,0.305,-150.958,19.363,-13.766
2421,-0.3359,-0.4580,-0.8267,0.854,-0.061,0.061,-150.947,19.369,-13.766
2431,-0.3364,-0.4585,-0.8223,1.038,-0.061,-0.061,-150.936,19.374,-13.766
2441,-0.3354,-0.4614,-0.8228,0.671,0.061,-0.061,-150.930,19.374,-13.766
2451,-0.3335,-0.4609,-0.8237,0.000,0.366,0.000,-150.925,19.369,-13.766
2461,-0.3315,-0.4619,-0.8262,-0.610,0.610,0.061,-150.936,19.363,-13.766
2471,-0.3335,-0.4600,-0.8311,-0.793,0.671,0.183,-150.941,19.358,-13.766
2481,-0.3335,-0.4595,-0.8311,-0.671,0.549,0.305,-150.952,19.358,-13.766
2491,-0.3335,-0.4585,-0.8286,-0.305,0.549,0.305,-150.958,19.352,-13.766
2501,-0.3330,-0.4575,-0.8325,0.122,0.427,0.305,-150.963,19.352,-13.766
2512,-0.3311,-0.4580,-0.8301,0.427,0.427,0.244,-150.963,19.347,-13.766
2521,-0.3330,-0.4556,-0.8315,0.427,-0.183,0.122,-150.958,19.352,-13.766
2531,-0.3345,-0.4561,-0.8320,0.305,-0.366,0.183,-150.958,19.352,-13.766
2541,-0.3350,-0.4556,-0.8325,0.244,-0.671,0.183,-150.958,19.363,-13.766
2551,-0.3374,-0.4546,-0.8296,0.366,-0.916,0.000,-150.958,19.374,-13.766
2561,-0.3354,-0.4551,-0.8271,0.427,-1.038,-0.183,-150.952,19.385,-13.766
2571,-0.3350,-0.4556,-0.8247,0.366,-1.038,-0.305,-150.947,19.391,-13.766
2581,-0.3354,-0.4580,-0.8242,0.305,-0.916,-0.366,-150.941,19.402,-13.766
2591,-0.3359,-0.4614,-0.8242,-0.061,-0.671,-0.427,-150.941,19.407,-13.766
2601,-0.3330,-0.4604,-0.8232,-0.427,-0.305,-0.366,-150.941,19.407,-13.766
2611,-0.3359,-0.4580,-0.8267,-0.549,-0.061,-0.183,-150.947,19.407,-13.766
2621,-0.3345,-0.4600,-0.8262,-0.488,0.061,-0.122,-150.952,19.407,-13.766
2631,-0.3340,-0.4609,-0.8281,-0.244,0.061,-0.122,-150.952,19.407,-13.766
2641,-0.3354,-0.4600,-0.8281,0.000,-0.061,-0.244,-150.952,19.407,-13.766
2651,-0.3354,-0.4614,-0.8286,0.244,-0.244,-0.244,-150.947,19.407,-13.766
2661,-0.3364,-0.4624,-0.8247,0.488,-0.366,-0.244,-150.936,19.413,-13.766
2671,-0.3354,-0.4614,-0.8228,0.549,-0.427,-0.183,-150.930,19.418,-13.766
2681,-0.3350,-0.4619,-0.8213,0.488,-0.427,-0.122,-150.919,19.424,-13.766
2691,-0.3320,-0.4639,-0.8223,0.305,-0.488,-0.122,-150.914,19.424,-13.766
2701,-0.3335,-0.4634,-0.8193,0.183,-0.427,0.000,-150.908,19.429,-13.766
2711,-0.3359,-0.4639,-0.8213,-0.061,-0.183,0.000,-150.903,19.435,-13.766
2721,-0.3354,-0.4634,-0.8232,-0.183,0.244,0.061,-150.903,19.435,-13.766
2731,-0.3325,-0.4629,-0.8223,-0.183,0.549,0.122,-150.903,19.429,-13.766
2741,-0.3335,-0.4639,-0.8257,-0.061,0.671,0.183,-150.903,19.424,-13.766
2751,-0.3340,-0.4624,-0.8262,0.000,0.671,0.244,-150.903,19.418,-13.766
2761,-0.3325,-0.4619,-0.8276,0.000,0.793,0.183,-150.903,19.413,-13.766
2771,-0.3335,-0.4614,-0.8281,-0.122,0.793,0.305,-150.908,19.407,-13.766
2781,-0.3345,-0.4614,-0.8286,-0.122,0.916,0.366,-150.908,19.402,-13.766
2791,-0.3364,-0.4609,-0.8320,-0.061,0.977,0.366,-150.914,19.396,-13.766
2801,-0.3330,-0.4604,-0.8296,0.000,0.977,0.305,-150.919,19.385,-13.766
2812,-0.3364,-0.4614,-0.8330,0.061,0.854,0.305,-150.919,19.380,-13.766
2821,-0.3354,-0.4619,-0.8379,0.061,0.549,0.305,-150.925,19.380,-13.766
2831,-0.3354,-0.4619,-0.8354,0.000,0.244,0.244,-150.925,19.374,-13.766
2841,-0.3330,-0.4619,-0.8384,-0.061,0.000,0.244,-150.930,19.374,-13.766
2852,-0.3345,-0.4604,-0.8384,0.061,-0.305,0.366,-150.936,19.380,-13.766
2862,-0.3320,-0.4580,-0.8340,0.427,-0.671,0.488,-150.930,19.385,-13.766
2872,-0.3335,-0.4570,-0.8296,1.038,-1.038,0.549,-150.925,19.396,-13.766
2882,-0.3364,-0.4541,-0.8262,1.526,-1.465,0.488,-150.908,19.413,-13.766
2891,-0.3379,-0.4487,-0.8223,1.892,-1.526,0.671,-150.897,19.435,-13.766
2902,-0.3413,-0.4434,-0.8188,2.014,-1.282,0.854,-150.881,19.457,-13.766
2911,-0.3389,-0.4414,-0.8149,2.075,-1.038,0.793,-150.870,19.479,-13.766
2922,-0.3359,-0.4429,-0.8115,1.831,-1.160,0.305,-150.859,19.495,-13.766
2932,-0.3315,-0.4482,-0.8145,1.099,-1.282,-0.183,-150.848,19.506,-13.766
2942,-0.3281,-0.4541,-0.8159,-0.305,-0.977,-0.549,-150.848,19.512,-13.766
2952,-0.3237,-0.4580,-0.8203,-2.075,-0.244,-0.671,-150.864,19.501,-13.766
2962,-0.3237,-0.4561,-0.8276,-3.113,0.366,-0.549,-150.897,19.490,-13.766
2972,-0.3242,-0.4541,-0.8335,-2.747,0.610,-0.610,-150.930,19.479,-13.766
2982,-0.3252,-0.4561,-0.8374,-1.404,0.427,-0.671,-150.947,19.462,-13.766
2992,-0.3267,-0.4590,-0.8403,0.244,0.000,-0.610,-150.947,19.457,-13.766
3002,-0.3354,-0.4604,-0.8403,1.404,-0.671,-0.488,-150.930,19.457,-13.766
3012,-0.3384,-0.4580,-0.8320,1.892,-1.282,-0.366,-150.914,19.468,-13.766
3022,-0.3428,-0.4556,-0.8276,1.770,-2.014,-0.427,-150.892,19.490,-13.766
3032,-0.3467,-0.4531,-0.8213,1.343,-2.625,-0.793,-150.875,19.512,-13.766
3042,-0.3472,-0.4570,-0.8174,0.854,-2.869,-1.221,-150.859,19.539,-13.738
3052,-0.3462,-0.4653,-0.8169,0.122,-2.686,-1.587,-150.842,19.561,-13.711
3062,-0.3394,-0.4736,-0.8159,-0.793,-2.014,-1.770,-150.831,19.572,-13.683
3072,-0.3350,-0.4766,-0.8179,-1.709,-1.038,-1.648,-150.831,19.572,-13.661
3082,-0.3301,-0.4771,-0.8232,-2.258,-0.183,-1.221,-150.837,19.567,-13.651
3092,-0.3291,-0.4756,-0.8296,-2.136,0.305,-0.671,-150.853,19.556,-13.645
3102,-0.3306,-0.4717,-0.8315,-1.160,0.488,-0.305,-150.859,19.545,-13.645
3112,-0.3340,-0.4687,-0.8267,0.183,0.305,0.061,-150.853,19.539,-13.651
3122,-0.3340,-0.4629,-0.8223,1.404,-0.122,0.305,-150.837,19.545,-13.651
3132,-0.3398,-0.4590,-0.8149,2.014,-0.488,0.549,-150.815,19.556,-13.656
3142,-0.3413,-0.4565,-0.8086,1.831,-0.610,0.488,-150.798,19.567,-13.656
3152,-0.3394,-0.4556,-0.8091,0.916,-0.183,0.183,-150.787,19.572,-13.656
3162,-0.3335,-0.4546,-0.8115,-0.671,0.610,0.061,-150.793,19.572,-13.661
3172,-0.3325,-0.4521,-0.8188,-2.319,1.587,0.183,-150.820,19.556,-13.667
3182,-0.3306,-0.4507,-0.8286,-3.113,2.136,0.244,-150.864,19.539,-13.683
3192,-0.3296,-0.4492,-0.8350,-2.747,1.953,0.061,-150.903,19.517,-13.694
3202,-0.3286,-0.4502,-0.8384,-1.465,1.221,-0.244,-150.925,19.501,-13.700
3212,-0.3296,-0.4561,-0.8379,0.061,0.366,-0.610,-150.930,19.490,-13.694
3222,-0.3296,-0.4614,-0.8330,0.977,-0.366,-0.854,-150.919,19.484,-13.683
3232,-0.3340,-0.4609,-0.8301,1.282,-0.916,-0.793,-150.903,19.490,-13.672
3242,-0.3364,-0.4619,-0.8276,0.977,-1.099,-0.671,-150.886,19.495,-13.661
3252,-0.3384,-0.4624,-0.8257,0.549,-0.916,-0.549,-150.875,19.506,-13.651
3262,-0.3413,-0.4624,-0.8257,0.061,-0.488,-0.488,-150.875,19.506,-13.645
3272,-0.3374,-0.4648,-0.8291,-0.305,0.122,-0.366,-150.875,19.506,-13.640
3282,-0.3345,-0.4624,-0.8320,-0.671,0.488,-0.366,-150.881,19.501,-13.640
3292,-0.3320,-0.4619,-0.8350,-0.854,0.549,-0.244,-150.892,19.490,-13.640
3302,-0.3315,-0.4658,-0.8369,-0.916,0.427,-0.183,-150.903,19.479,-13.640
3312,-0.3315,-0.4668,-0.8403,-0.977,0.366,-0.122,-150.908,19.473,-13.640
3322,-0.3325,-0.4609,-0.8467,-0.977,0.183,0.000,-150.925,19.468,-13.640
3332,-0.3335,-0.4595,-0.8462,-0.366,-0.427,0.183,-150.936,19.468,-13.640
3342,-0.3345,-0.4604,-0.8418,0.732,-1.404,0.061,-150.930,19.479,-13.634
3352,-0.3350,-0.4634,-0.8359,1.770,-2.563,-0.183,-150.908,19.495,-13.618
3362,-0.3335,-0.4653,-0.8291,2.075,-3.235,-0.183,-150.881,19.523,-13.601
3372,-0.3325,-0.4624,-0.8213,1.831,-3.357,0.061,-150.853,19.550,-13.585
3382,-0.3350,-0.4604,-0.8203,1.404,-3.113,0.244,-150.831,19.578,-13.574
3392,-0.3359,-0.4585,-0.8188,0.671,-2.319,0.305,-150.820,19.605,-13.563
3402,-0.3359,-0.4551,-0.8154,0.427,-1.709,0.305,-150.815,19.622,-13.557
3412,-0.3369,-0.4526,-0.8149,0.427,-1.221,0.183,-150.809,19.633,-13.552
3422,-0.3389,-0.4497,-0.8149,0.732,-0.854,0.061,-150.804,19.644,-13.546
3432,-0.3423,-0.4492,-0.8135,1.038,-0.610,-0.122,-150.798,19.655,-13.541
3442,-0.3452,-0.4531,-0.8145,1.221,-0.305,-0.366,-150.787,19.666,-13.541
3452,-0.3423,-0.4565,-0.8125,0.854,0.061,-0.549,-150.771,19.666,-13.535
3462,-0.3408,-0.4590,-0.8174,-0.061,0.305,-0.671,-150.771,19.666,-13.530
3472,-0.3379,-0.4702,-0.8223,-1.038,0.427,-0.549,-150.776,19.655,-13.524
3482,-0.3359,-0.4707,-0.8237,-1.831,0.305,-0.366,-150.787,19.649,-13.524
3492,-0.3364,-0.4658,-0.8276,-1.648,-0.061,0.122,-150.804,19.649,-13.524
3502,-0.3350,-0.4692,-0.8276,-0.366,-0.122,0.427,-150.804,19.649,-13.530
3513,-0.3286,-0.4717,-0.8271,1.038,-0.122,0.305,-150.787,19.649,-13.530
3522,-0.3242,-0.4741,-0.8237,1.709,-0.183,0.427,-150.765,19.644,-13.535
3532,-0.3257,-0.4722,-0.8223,1.526,-0.183,0.854,-150.749,19.644,-13.541
3542,-0.3301,-0.4683,-0.8232,1.038,-0.305,1.160,-150.738,19.644,-13.552
3552,-0.3330,-0.4634,-0.8228,0.671,-0.427,1.221,-150.732,19.655,-13.557
3562,-0.3369,-0.4609,-0.8213,0.610,-0.183,1.099,-150.727,19.660,-13.568
3572,-0.3350,-0.4590,-0.8193,0.732,0.427,0.977,-150.727,19.660,-13.579
3582,-0.3340,-0.4575,-0.8228,0.671,0.977,1.099,-150.727,19.655,-13.596
3592,-0.3364,-0.4590,-0.8252,0.427,1.343,1.160,-150.727,19.649,-13.612
3602,-0.3384,-0.4595,-0.8267,0.000,1.404,1.099,-150.738,19.644,-13.629
3612,-0.3423,-0.4570,-0.8354,-0.488,1.465,1.099,-150.754,19.638,-13.645
3622,-0.3389,-0.4575,-0.8398,-1.038,1.526,0.977,-150.776,19.627,-13.661
3632,-0.3364,-0.4561,-0.8452,-1.343,1.343,0.793,-150.804,19.616,-13.678
3642,-0.3340,-0.4536,-0.8486,-1.099,0.671,0.732,-150.826,19.611,-13.689
3652,-0.3374,-0.4482,-0.8467,-0.366,-0.305,0.732,-150.848,19.616,-13.694
3662,-0.3379,-0.4468,-0.8403,0.732,-1.465,0.671,-150.848,19.627,-13.694
3672,-0.3428,-0.4453,-0.8301,1.831,-2.380,0.305,-150.837,19.655,-13.683
3682,-0.3413,-0.4453,-0.8228,2.563,-2.625,-0.061,-150.815,19.682,-13.667
3692,-0.3433,-0.4468,-0.8154,2.380,-2.258,-0.427,-150.793,19.704,-13.656
3702,-0.3433,-0.4512,-0.8086,1.587,-1.465,-0.732,-150.771,19.720,-13.640
3712,-0.3403,-0.4531,-0.8096,0.305,-0.610,-0.977,-150.765,19.726,-13.629
3722,-0.3369,-0.4536,-0.8115,-1.282,0.244,-1.160,-150.771,19.720,-13.618
3732,-0.3345,-0.4556,-0.8159,-2.563,0.916,-1.282,-150.798,19.704,-13.612
3742,-0.3315,-0.4600,-0.8247,-3.174,1.160,-1.343,-150.826,19.687,-13.601
3752,-0.3296,-0.4634,-0.8257,-2.930,1.099,-1.343,-150.853,19.666,-13.596
3762,-0.3281,-0.4668,-0.8291,-2.258,0.793,-1.282,-150.870,19.644,-13.590
3772,-0.3291,-0.4683,-0.8311,-1.282,0.305,-1.160,-150.875,19.633,-13.579
3782,-0.3291,-0.4722,-0.8301,-0.366,-0.122,-0.916,-150.870,19.622,-13.568
3792,-0.3311,-0.4741,-0.8267,0.305,-0.427,-0.610,-150.859,19.616,-13.563
3802,-0.3335,-0.4761,-0.8267,0.549,-0.549,-0.305,-150.842,19.616,-13.557
3812,-0.3345,-0.4746,-0.8286,0.488,-0.366,0.122,-150.831,19.616,-13.557
3822,-0.3350,-0.4722,-0.8296,0.366,0.000,0.610,-150.826,19.616,-13.563
3832,-0.3389,-0.4687,-0.8291,0.000,0.366,0.977,-150.826,19.622,-13.574
3842,-0.3394,-0.4653,-0.8340,-0.427,0.549,1.160,-150.837,19.622,-13.585
3852,-0.3389,-0.4575,-0.8345,-0.549,0.549,1.099,-150.848,19.622,-13.601
3862,-0.3398,-0.4531,-0.8354,-0.305,0.244,1.099,-150.864,19.622,-13.612
3872,-0.3423,-0.4531,-0.8330,0.183,-0.183,0.916,-150.870,19.633,-13.618
3882,-0.3418,-0.4531,-0.8296,0.671,-0.671,0.610,-150.870,19.644,-13.623
3892,-0.3433,-0.4536,-0.8271,0.916,-1.038,0.305,-150.864,19.655,-13.618
3902,-0.3437,-0.4526,-0.8242,0.977,-1.343,0.122,-150.853,19.671,-13.612
3912,-0.3418,-0.4536,-0.8193,0.854,-1.404,0.000,-150.842,19.687,-13.607
3922,-0.3403,-0.4546,-0.8135,0.610,-1.404,-0.122,-150.837,19.704,-13.596
3932,-0.3389,-0.4551,-0.8120,0.305,-1.099,-0.244,-150.831,19.715,-13.590
3942,-0.3354,-0.4595,-0.8125,-0.061,-0.549,-0.549,-150.826,19.720,-13.579
3952,-0.3320,-0.4644,-0.8149,-0.488,0.305,-0.671,-150.820,19.709,-13.574
3962,-0.3301,-0.4658,-0.8169,-0.732,0.977,-0.549,-150.826,19.698,-13.574
3972,-0.3271,-0.4702,-0.8174,-0.916,1.404,-0.183,-150.826,19.677,-13.585
3982,-0.3296,-0.4751,-0.8184,-0.977,1.526,0.183,-150.831,19.660,-13.590
3992,-0.3281,-0.4722,-0.8213,-0.793,1.587,0.549,-150.837,19.644,-13.607
4002,-0.3320,-0.4717,-0.8223,-0.366,1.648,0.793,-150.837,19.627,-13.623
4013,-0.3315,-0.4707,-0.8242,0.000,1.831,1.160,-150.837,19.616,-13.640
4022,-0.3311,-0.4687,-0.8228,0.244,2.014,1.587,-150.837,19.605,-13.667
4032,-0.3354,-0.4648,-0.8276,0.244,2.075,1.892,-150.842,19.594,-13.694
4042,-0.3350,-0.4653,-0.8257,0.000,1.892,2.075,-150.853,19.583,-13.722
4052,-0.3369,-0.4570,-0.8340,-0.793,1.526,2.197,-150.875,19.583,-13.749
4062,-0.3374,-0.4497,-0.8325,-0.854,1.404,2.258,-150.897,19.583,-13.782
4072,-0.3384,-0.4482,-0.8394,-0.610,1.343,2.258,-150.925,19.578,-13.810
4082,-0.3369,-0.4526,-0.8428,0.061,1.099,1.770,-150.941,19.578,-13.832
4092,-0.3330,-0.4580,-0.8447,0.244,0.854,1.404,-150.947,19.572,-13.848
4102,-0.3374,-0.4517,-0.8418,-0.183,0.183,1.648,-150.963,19.578,-13.865
4112,-0.3428,-0.4526,-0.8428,0.183,-0.244,1.953,-150.974,19.589,-13.881
4122,-0.3423,-0.4507,-0.8418,0.793,-0.732,1.587,-150.980,19.605,-13.892
4132,-0.3369,-0.4526,-0.8379,1.160,-0.854,1.038,-150.974,19.616,-13.898
4142,-0.3374,-0.4517,-0.8354,0.977,-1.099,0.854,-150.974,19.627,-13.898
4152,-0.3394,-0.4497,-0.8291,0.854,-1.343,0.977,-150.974,19.649,-13.903
4162,-0.3369,-0.4497,-0.8267,0.671,-1.709,0.793,-150.969,19.666,-13.898
4172,-0.3364,-0.4502,-0.8242,0.427,-1.892,0.366,-150.969,19.687,-13.892
4182,-0.3345,-0.4541,-0.8237,0.122,-1.831,-0.061,-150.963,19.698,-13.881
4192,-0.3296,-0.4590,-0.8252,-0.305,-1.465,-0.061,-150.963,19.709,-13.876
4202,-0.3301,-0.4595,-0.8252,-0.671,-1.282,0.000,-150.969,19.715,-13.870
4212,-0.3311,-0.4580,-0.8218,-0.671,-1.221,0.183,-150.974,19.720,-13.865
4222,-0.3306,-0.4561,-0.8257,-0.183,-1.160,0.427,-150.974,19.731,-13.859
4232,-0.3306,-0.4580,-0.8237,0.427,-0.977,0.488,-150.969,19.737,-13.859
4242,-0.3345,-0.4565,-0.8257,0.732,-0.732,0.610,-150.963,19.742,-13.865
4252,-0.3359,-0.4561,-0.8276,0.793,-0.671,0.671,-150.958,19.753,-13.865
4262,-0.3379,-0.4507,-0.8262,0.793,-0.854,0.732,-150.958,19.764,-13.870
4272,-0.3442,-0.4478,-0.8257,0.916,-1.282,0.610,-150.952,19.781,-13.865
4282,-0.3462,-0.4468,-0.8232,1.160,-1.587,0.305,-150.941,19.803,-13.865
4292,-0.3462,-0.4492,-0.8213,1.221,-1.587,-0.122,-150.930,19.819,-13.854
4302,-0.3452,-0.4517,-0.8169,0.732,-1.282,-0.366,-150.925,19.830,-13.843
4312,-0.3413,-0.4507,-0.8169,-0.183,-0.732,-0.610,-150.925,19.836,-13.832
4322,-0.3403,-0.4497,-0.8213,-0.854,-0.183,-0.732,-150.936,19.836,-13.826
4332,-0.3423,-0.4521,-0.8218,-1.282,0.305,-0.977,-150.947,19.830,-13.815
4342,-0.3389,-0.4546,-0.8262,-1.465,0.549,-1.160,-150.958,19.819,-13.810
4352,-0.3364,-0.4565,-0.8286,-1.343,0.549,-1.343,-150.974,19.808,-13.799
4362,-0.3354,-0.4590,-0.8311,-1.038,0.244,-1.404,-150.980,19.797,-13.788
4372,-0.3350,-0.4619,-0.8296,-0.671,-0.305,-1.282,-150.980,19.786,-13.777
4382,-0.3359,-0.4614,-0.8291,-0.122,-0.977,-1.099,-150.974,19.786,-13.760
4392,-0.3364,-0.4634,-0.8267,0.366,-1.221,-0.916,-150.963,19.792,-13.744
4402,-0.3354,-0.4668,-0.8237,0.427,-1.160,-0.793,-150.952,19.797,-13.733
4412,-0.3320,-0.4668,-0.8237,0.244,-1.038,-0.610,-150.941,19.797,-13.722
4422,-0.3325,-0.4683,-0.8252,0.061,-0.854,-0.366,-150.930,19.797,-13.711
4432,-0.3306,-0.4673,-0.8242,-0.122,-0.732,-0.061,-150.925,19.797,-13.711
4442,-0.3345,-0.4644,-0.8271,-0.122,-0.549,0.122,-150.925,19.803,-13.705
4452,-0.3354,-0.4629,-0.8252,0.000,-0.244,0.305,-150.925,19.803,-13.711
4462,-0.3374,-0.4614,-0.8267,0.305,0.122,0.366,-150.919,19.797,-13.711
4472,-0.3379,-0.4590,-0.8257,0.488,0.549,0.366,-150.919,19.797,-13.716
4482,-0.3398,-0.4561,-0.8267,0.366,0.610,0.488,-150.919,19.792,-13.727
4492,-0.3394,-0.4546,-0.8252,0.122,0.488,0.549,-150.925,19.792,-13.733
4502,-0.3433,-0.4526,-0.8286,-0.183,0.305,0.366,-150.930,19.792,-13.738
4513,-0.3418,-0.4517,-0.8281,-0.305,0.061,0.183,-150.936,19.792,-13.738
4522,-0.3403,-0.4512,-0.8271,-0.183,0.000,-0.122,-150.947,19.792,-13.738
4532,-0.3423,-0.4526,-0.8286,0.000,-0.061,-0.244,-150.947,19.797,-13.738
4542,-0.3408,-0.4561,-0.8276,0.122,-0.183,-0.366,-150.947,19.797,-13.733
4552,-0.3374,-0.4570,-0.8271,0.122,-0.427,-0.488,-150.947,19.797,-13.727
4562,-0.3364,-0.4595,-0.8276,-0.061,-0.610,-0.549,-150.941,19.797,-13.716
4572,-0.3345,-0.4580,-0.8267,-0.366,-0.671,-0.488,-150.947,19.797,-13.711
4582,-0.3354,-0.4565,-0.8286,-0.427,-0.793,-0.366,-150.947,19.797,-13.700
4592,-0.3369,-0.4561,-0.8267,-0.122,-0.793,-0.366,-150.947,19.803,-13.694
4602,-0.3354,-0.4580,-0.8247,0.183,-0.610,-0.366,-150.947,19.803,-13.689
4612,-0.3359,-0.4585,-0.8208,0.244,-0.427,-0.244,-150.941,19.803,-13.683
4622,-0.3359,-0.4585,-0.8223,0.122,-0.183,-0.122,-150.936,19.803,-13.683
4632,-0.3359,-0.4580,-0.8228,0.000,0.122,-0.122,-150.936,19.803,-13.683
4642,-0.3350,-0.4580,-0.8262,-0.366,0.305,-0.244,-150.941,19.792,-13.678
4652,-0.3345,-0.4595,-0.8271,-0.671,0.305,-0.305,-150.947,19.786,-13.678
4662,-0.3354,-0.4595,-0.8267,-0.854,0.305,-0.244,-150.952,19.781,-13.678
4672,-0.3374,-0.4590,-0.8315,-0.732,0.122,-0.122,-150.963,19.775,-13.678
4682,-0.3384,-0.4585,-0.8325,-0.427,0.061,-0.122,-150.969,19.775,-13.678
4692,-0.3389,-0.4570,-0.8350,-0.061,-0.061,-0.122,-150.974,19.770,-13.678
4702,-0.3389,-0.4565,-0.8335,0.183,-0.122,-0.122,-150.974,19.770,-13.672
4712,-0.3389,-0.4575,-0.8330,0.305,-0.305,-0.183,-150.969,19.770,-13.672
4722,-0.3374,-0.4585,-0.8315,0.305,-0.671,-0.183,-150.969,19.775,-13.667
4732,-0.3359,-0.4585,-0.8296,0.122,-0.977,-0.061,-150.963,19.781,-13.661
4742,-0.3379,-0.4570,-0.8320,0.000,-1.282,-0.061,-150.963,19.786,-13.651
4752,-0.3398,-0.4570,-0.8315,-0.061,-1.343,-0.122,-150.969,19.797,-13.645
4762,-0.3379,-0.4561,-0.8286,0.122,-1.404,-0.244,-150.963,19.808,-13.634
4772,-0.3369,-0.4556,-0.8291,0.305,-1.343,-0.427,-150.958,19.814,-13.623
4782,-0.3369,-0.4580,-0.8247,0.488,-1.343,-0.549,-150.952,19.825,-13.612
4792,-0.3398,-0.4600,-0.8247,0.610,-1.404,-0.488,-150.941,19.830,-13.601
4802,-0.3389,-0.4604,-0.8208,0.488,-1.343,-0.427,-150.930,19.841,-13.590
4812,-0.3379,-0.4619,-0.8188,0.244,-1.160,-0.366,-150.919,19.847,-13.579
4823,-0.3379,-0.4600,-0.8218,-0.122,-0.854,-0.183,-150.919,19.852,-13.574
4832,-0.3379,-0.4590,-0.8203,-0.366,-0.488,-0.122,-150.919,19.858,-13.568
4843,-0.3359,-0.4585,-0.8179,-0.427,-0.183,-0.061,-150.919,19.858,-13.568
4852,-0.3369,-0.4575,-0.8184,-0.366,-0.061,-0.061,-150.919,19.858,-13.568
4862,-0.3379,-0.4575,-0.8223,-0.183,0.061,0.061,-150.925,19.858,-13.568
4873,-0.3374,-0.4595,-0.8232,0.000,0.183,0.061,-150.925,19.852,-13.568
4882,-0.3359,-0.4570,-0.8232,-0.061,0.244,0.000,-150.925,19.847,-13.574
4892,-0.3374,-0.4556,-0.8257,-0.122,0.244,0.000,-150.930,19.847,-13.574
4903,-0.3379,-0.4551,-0.8257,-0.183,0.122,0.000,-150.930,19.841,-13.574
4913,-0.3389,-0.4565,-0.8267,-0.122,-0.122,0.061,-150.936,19.841,-13.574
4923,-0.3408,-0.4526,-0.8271,0.000,-0.244,-0.061,-150.936,19.847,-13.574
4933,-0.3398,-0.4570,-0.8257,0.183,-0.122,-0.244,-150.936,19.847,-13.568
4943,-0.3369,-0.4619,-0.8286,0.244,0.183,-0.427,-150.930,19.836,-13.568
4953,-0.3354,-0.4653,-0.8291,0.061,0.549,-0.366,-150.930,19.825,-13.563
4963,-0.3369,-0.4658,-0.8325,-0.366,0.732,-0.183,-150.930,19.814,-13.568
4973,-0.3364,-0.4634,-0.8340,-0.610,0.732,0.061,-150.941,19.808,-13.574
4983,-0.3384,-0.4600,-0.8364,-0.427,0.732,0.305,-150.947,19.797,-13.579
4993,-0.3403,-0.4585,-0.8374,0.061,0.610,0.427,-150.952,19.792,-13.585
5003,-0.3413,-0.4551,-0.8374,0.549,0.305,0.427,-150.958,19.792,-13.590
5013,-0.3403,-0.4546,-0.8359,0.916,-0.061,0.488,-150.952,19.792,-13.596
5023,-0.3403,-0.4502,-0.8301,1.099,-0.610,0.549,-150.947,19.803,-13.596
5033,-0.3398,-0.4482,-0.8252,1.038,-1.160,0.427,-150.941,19.814,-13.596
5043,-0.3374,-0.4492,-0.8257,0.793,-1.526,0.122,-150.936,19.830,-13.590
5053,-0.3379,-0.4482,-0.8247,0.427,-1.465,-0.244,-150.936,19.841,-13.579
5063,-0.3379,-0.4482,-0.8237,0.000,-1.282,-0.488,-150.936,19.847,-13.568
5073,-0.3359,-0.4512,-0.8218,-0.244,-0.854,-0.732,-150.936,19.852,-13.557
5083,-0.3364,-0.4561,-0.8184,-0.305,-0.488,-0.977,-150.936,19.847,-13.546
5093,-0.3364,-0.4600,-0.8184,-0.305,-0.061,-1.038,-150.936,19.841,-13.535
5103,-0.3374,-0.4634,-0.8237,-0.366,0.305,-1.038,-150.930,19.836,-13.524
5113,-0.3379,-0.4683,-0.8232,-0.549,0.671,-0.854,-150.930,19.819,-13.524
5123,-0.3403,-0.4692,-0.8237,-0.671,0.977,-0.610,-150.930,19.808,-13.524
5133,-0.3398,-0.4692,-0.8271,-0.671,1.099,-0.366,-150.930,19.797,-13.524
5143,-0.3398,-0.4668,-0.8286,-0.549,1.038,-0.122,-150.936,19.786,-13.530
5153,-0.3408,-0.4624,-0.8311,-0.305,0.916,0.061,-150.941,19.775,-13.535
5163,-0.3398,-0.4590,-0.8325,0.061,0.793,0.122,-150.941,19.770,-13.541
5173,-0.3403,-0.4590,-0.8315,0.366,0.610,0.122,-150.941,19.764,-13.541
5183,-0.3389,-0.4604,-0.8325,0.549,0.183,0.122,-150.941,19.764,-13.546
5193,-0.3379,-0.4585,-0.8286,0.610,-0.305,0.061,-150.936,19.764,-13.546
5203,-0.3364,-0.4570,-0.8267,0.610,-0.854,0.061,-150.930,19.770,-13.541
5213,-0.3384,-0.4565,-0.8228,0.793,-1.099,0.122,-150.919,19.781,-13.535
5223,-0.3379,-0.4575,-0.8188,1.038,-1.038,0.122,-150.908,19.792,-13.530
5233,-0.3369,-0.4570,-0.8174,1.099,-0.732,0.122,-150.892,19.797,-13.530
5243,-0.3345,-0.4609,-0.8198,0.793,-0.183,0.183,-150.881,19.797,-13.530
5253,-0.3340,-0.4570,-0.8179,0.183,0.305,0.244,-150.881,19.792,-13.535
5263,-0.3306,-0.4565,-0.8203,-0.427,0.671,0.183,-150.886,19.786,-13.541
5273,-0.3301,-0.4570,-0.8252,-0.854,0.977,0.122,-150.897,19.775,-13.546
5283,-0.3286,-0.4546,-0.8237,-0.854,0.854,0.000,-150.914,19.759,-13.552
5293,-0.3296,-0.4580,-0.8218,-0.122,0.427,-0.366,-150.914,19.748,-13.546
5303,-0.3291,-0.4648,-0.8184,0.671,0.549,-0.793,-150.897,19.737,-13.541
5313,-0.3276,-0.4683,-0.8188,0.916,1.038,-0.854,-150.881,19.720,-13.541
5323,-0.3291,-0.4683,-0.8164,0.732,1.892,-0.610,-150.870,19.693,-13.546
5333,-0.3350,-0.4663,-0.8188,0.610,2.563,-0.305,-150.859,19.671,-13.557
5343,-0.3374,-0.4668,-0.8188,0.671,2.808,-0.061,-150.853,19.644,-13.568
5353,-0.3398,-0.4619,-0.8247,0.671,2.686,0.244,-150.853,19.627,-13.585
5363,-0.3413,-0.4629,-0.8213,0.671,2.441,0.610,-150.848,19.611,-13.601
5373,-0.3413,-0.4600,-0.8223,0.549,2.197,0.977,-150.848,19.600,-13.623
5383,-0.3428,-0.4580,-0.8242,0.488,2.014,1.160,-150.853,19.589,-13.645
5393,-0.3433,-0.4556,-0.8267,0.244,1.892,1.160,-150.859,19.583,-13.667
5403,-0.3394,-0.4541,-0.8306,-0.061,1.892,1.221,-150.870,19.572,-13.689
5413,-0.3354,-0.4526,-0.8325,-0.427,1.892,1.221,-150.886,19.561,-13.705
5423,-0.3315,-0.4512,-0.8369,-0.610,1.770,1.221,-150.908,19.550,-13.727
5433,-0.3291,-0.4512,-0.8423,-0.549,1.465,1.099,-150.930,19.539,-13.744
5443,-0.3291,-0.4507,-0.8428,-0.305,1.099,0.916,-150.947,19.528,-13.760
5453,-0.3291,-0.4507,-0.8423,0.183,0.732,0.549,-150.958,19.517,-13.771
5463,-0.3291,-0.4512,-0.8428,0.549,0.488,0.305,-150.963,19.512,-13.777
5473,-0.3306,-0.4502,-0.8442,0.732,0.305,0.122,-150.963,19.501,-13.777
5483,-0.3315,-0.4492,-0.8413,0.732,0.061,0.000,-150.969,19.501,-13.777
5493,-0.3330,-0.4521,-0.8418,0.671,-0.244,-0.183,-150.969,19.495,-13.777
5503,-0.3350,-0.4521,-0.8354,0.366,-0.610,-0.366,-150.969,19.501,-13.766
5513,-0.3345,-0.4536,-0.8354,0.000,-0.977,-0.488,-150.969,19.506,-13.760
5523,-0.3325,-0.4526,-0.8374,-0.244,-1.160,-0.549,-150.974,19.512,-13.749
5533,-0.3306,-0.4531,-0.8335,-0.427,-1.282,-0.610,-150.980,19.517,-13.733
5543,-0.3311,-0.4531,-0.8320,-0.488,-1.343,-0.793,-150.985,19.523,-13.722
5553,-0.3291,-0.4570,-0.8311,-0.427,-1.465,-1.038,-150.985,19.523,-13.705
5563,-0.3296,-0.4580,-0.8262,-0.366,-1.587,-1.099,-150.985,19.528,-13.683
5573,-0.3315,-0.4614,-0.8296,-0.244,-1.587,-1.038,-150.980,19.539,-13.667
5583,-0.3320,-0.4644,-0.8237,-0.061,-1.526,-0.854,-150.969,19.545,-13.651
5593,-0.3335,-0.4668,-0.8218,0.061,-1.404,-0.732,-150.958,19.550,-13.640
5603,-0.3330,-0.4673,-0.8223,0.061,-1.160,-0.549,-150.952,19.556,-13.629
5613,-0.3335,-0.4668,-0.8223,-0.061,-0.854,-0.244,-150.941,19.561,-13.618
5623,-0.3330,-0.4639,-0.8237,-0.366,-0.610,-0.061,-150.941,19.567,-13.618
5633,-0.3350,-0.4604,-0.8228,-0.549,-0.427,0.061,-150.947,19.572,-13.612
5643,-0.3359,-0.4585,-0.8242,-0.427,-0.549,0.000,-150.947,19.572,-13.612
5653,-0.3345,-0.4575,-0.8262,-0.183,-0.732,-0.122,-150.947,19.578,-13.607
5663,-0.3315,-0.4585,-0.8267,0.183,-1.099,-0.183,-150.947,19.583,-13.601
5673,-0.3350,-0.4556,-0.8247,0.488,-1.465,-0.244,-150.936,19.600,-13.590
5683,-0.3340,-0.4580,-0.8257,0.671,-1.526,-0.244,-150.930,19.611,-13.579
5693,-0.3350,-0.4590,-0.8232,0.549,-1.282,-0.244,-150.919,19.616,-13.568
5703,-0.3345,-0.4600,-0.8198,0.244,-0.854,-0.305,-150.914,19.622,-13.563
5713,-0.3320,-0.4590,-0.8232,-0.122,-0.427,-0.244,-150.914,19.622,-13.557
5723,-0.3325,-0.4595,-0.8223,-0.427,-0.122,-0.122,-150.914,19.622,-13.557
5733,-0.3311,-0.4604,-0.8223,-0.549,0.061,-0.061,-150.919,19.622,-13.557
5743,-0.3311,-0.4595,-0.8262,-0.549,0.122,-0.122,-150.925,19.616,-13.557
5753,-0.3306,-0.4604,-0.8257,-0.366,0.061,-0.061,-150.925,19.611,-13.557
5763,-0.3311,-0.4609,-0.8262,-0.122,0.061,-0.122,-150.925,19.605,-13.557
5773,-0.3330,-0.4634,-0.8257,-0.061,0.122,-0.061,-150.925,19.600,-13.557
5783,-0.3345,-0.4629,-0.8257,-0.122,0.183,0.000,-150.925,19.600,-13.557
5793,-0.3345,-0.4590,-0.8296,-0.183,0.183,0.000,-150.925,19.594,-13.557
5803,-0.3359,-0.4585,-0.8301,-0.183,0.061,0.122,-150.930,19.594,-13.557
5813,-0.3364,-0.4590,-0.8296,0.000,-0.122,0.061,-150.930,19.594,-13.557
5823,-0.3384,-0.4600,-0.8286,0.244,-0.427,0.000,-150.930,19.600,-13.557
5833,-0.3364,-0.4604,-0.8286,0.427,-0.549,-0.061,-150.925,19.605,-13.552
5843,-0.3340,-0.4619,-0.8271,0.366,-0.488,-0.061,-150.919,19.605,-13.552
5853,-0.3340,-0.4600,-0.8257,0.122,-0.244,0.183,-150.919,19.605,-13.552
5863,-0.3315,-0.4590,-0.8276,-0.122,0.061,0.305,-150.919,19.605,-13.552
5873,-0.3315,-0.4585,-0.8281,-0.244,0.427,0.244,-150.925,19.600,-13.557
5883,-0.3330,-0.4551,-0.8311,-0.366,0.671,0.183,-150.936,19.594,-13.563
5893,-0.3325,-0.4556,-0.8325,-0.366,0.732,0.061,-150.941,19.583,-13.568
5903,-0.3335,-0.4536,-0.8325,-0.366,0.610,0.000,-150.952,19.578,-13.568
5913,-0.3320,-0.4546,-0.8330,-0.244,0.305,0.000,-150.958,19.572,-13.574
5923,-0.3320,-0.4565,-0.8340,-0.122,0.061,-0.061,-150.963,19.567,-13.574
5933,-0.3330,-0.4604,-0.8330,0.000,-0.122,-0.061,-150.963,19.567,-13.574
5943,-0.3325,-0.4590,-0.8345,0.061,-0.244,0.000,-150.963,19.561,-13.568
5953,-0.3350,-0.4595,-0.8335,0.244,-0.366,0.000,-150.963,19.567,-13.568
5963,-0.3315,-0.4590,-0.8301,0.427,-0.488,0.000,-150.958,19.567,-13.563
5973,-0.3296,-0.4590,-0.8296,0.549,-0.549,0.000,-150.952,19.567,-13.563
5983,-0.3286,-0.4580,-0.8276,0.427,-0.610,0.000,-150.952,19.567,-13.557
5993,-0.3311,-0.4570,-0.8257,0.061,-0.549,0.000,-150.947,19.572,-13.557
6003,-0.3315,-0.4551,-0.8276,-0.244,-0.549,0.122,-150.952,19.572,-13.557
6013,-0.3335,-0.4536,-0.8281,-0.427,-0.610,0.244,-150.963,19.578,-13.552
6023,-0.3354,-0.4531,-0.8306,-0.366,-0.671,0.244,-150.969,19.583,-13.552
6033,-0.3379,-0.4492,-0.8330,-0.122,-0.793,0.183,-150.974,19.594,-13.552
6043,-0.3394,-0.4487,-0.8359,0.183,-0.977,0.061,-150.980,19.605,-13.546
6053,-0.3418,-0.4497,-0.8374,0.427,-1.099,-0.122,-150.980,19.616,-13.541
6063,-0.3428,-0.4517,-0.8335,0.488,-1.343,-0.366,-150.980,19.627,-13.530
6073,-0.3408,-0.4546,-0.8340,0.122,-1.648,-0.549,-150.980,19.638,-13.513
6083,-0.3379,-0.4570,-0.8335,-0.610,-1.892,-0.732,-150.980,19.655,-13.497
6093,-0.3311,-0.4575,-0.8354,-1.465,-2.014,-0.916,-150.991,19.660,-13.480
6103,-0.3320,-0.4580,-0.8374,-1.892,-2.136,-0.793,-151.007,19.671,-13.464
6113,-0.3281,-0.4570,-0.8379,-1.831,-2.258,-0.671,-151.024,19.682,-13.442
6123,-0.3291,-0.4546,-0.8359,-1.038,-2.625,-0.610,-151.035,19.693,-13.425
6133,-0.3315,-0.4541,-0.8276,0.488,-3.113,-0.610,-151.024,19.715,-13.403
6143,-0.3359,-0.4551,-0.8213,2.014,-3.723,-0.732,-150.991,19.742,-13.376
6153,-0.3394,-0.4600,-0.8096,2.808,-3.906,-1.038,-150.952,19.775,-13.348
6163,-0.3403,-0.4634,-0.8032,2.563,-3.601,-1.160,-150.903,19.803,-13.315
6173,-0.3403,-0.4683,-0.7988,1.404,-2.808,-1.160,-150.870,19.825,-13.293
6183,-0.3354,-0.4741,-0.7974,-0.244,-1.770,-1.099,-150.848,19.836,-13.271
6193,-0.3315,-0.4751,-0.8022,-1.709,-0.793,-0.732,-150.848,19.836,-13.260
6203,-0.3301,-0.4756,-0.8125,-2.380,0.061,-0.305,-150.859,19.830,-13.260
6213,-0.3296,-0.4771,-0.8188,-2.197,0.854,0.122,-150.870,19.819,-13.266
6223,-0.3267,-0.4741,-0.8252,-1.404,1.465,0.610,-150.881,19.797,-13.277
6233,-0.3286,-0.4702,-0.8306,-0.427,1.831,1.099,-150.892,19.781,-13.299
6243,-0.3364,-0.4595,-0.8286,0.671,1.709,1.587,-150.892,19.770,-13.321
6253,-0.3462,-0.4507,-0.8247,1.709,1.343,1.892,-150.886,19.770,-13.348
6263,-0.3521,-0.4458,-0.8193,2.197,1.099,1.587,-150.875,19.781,-13.365
6273,-0.3525,-0.4453,-0.8188,1.892,1.160,1.038,-150.870,19.786,-13.381
6283,-0.3477,-0.4458,-0.8213,0.793,1.404,0.549,-150.875,19.781,-13.392
6293,-0.3428,-0.4473,-0.8252,-0.732,1.587,0.244,-150.892,19.770,-13.403
6303,-0.3374,-0.4478,-0.8340,-2.075,1.343,-0.061,-150.919,19.759,-13.409
6313,-0.3335,-0.4492,-0.8403,-2.686,1.038,-0.244,-150.958,19.742,-13.414
6323,-0.3276,-0.4546,-0.8457,-2.319,0.671,-0.488,-150.991,19.726,-13.414
6333,-0.3257,-0.4580,-0.8472,-1.343,0.061,-0.549,-151.007,19.709,-13.409
6343,-0.3257,-0.4590,-0.8457,-0.061,-0.610,-0.427,-151.013,19.704,-13.403
6353,-0.3262,-0.4614,-0.8413,1.038,-1.038,-0.183,-151.002,19.704,-13.392
6363,-0.3271,-0.4634,-0.8345,1.648,-1.221,0.000,-150.980,19.709,-13.387
6373,-0.3311,-0.4609,-0.8286,1.709,-1.221,0.183,-150.963,19.715,-13.381
6383,-0.3359,-0.4565,-0.8291,1.282,-1.099,0.366,-150.952,19.726,-13.381
6393,-0.3384,-0.4526,-0.8252,0.671,-0.732,0.305,-150.947,19.731,-13.381
6403,-0.3413,-0.4531,-0.8276,-0.061,-0.305,0.061,-150.952,19.737,-13.381
6413,-0.3394,-0.4551,-0.8296,-0.732,0.061,-0.244,-150.958,19.737,-13.376
6423,-0.3364,-0.4580,-0.8335,-1.343,0.122,-0.427,-150.974,19.731,-13.376
6433,-0.3369,-0.4590,-0.8364,-1.709,-0.183,-0.427,-150.991,19.726,-13.370
6443,-0.3384,-0.4565,-0.8389,-1.526,-0.732,-0.305,-151.013,19.726,-13.365
6453,-0.3379,-0.4575,-0.8374,-0.732,-1.282,-0.183,-151.018,19.737,-13.354
6463,-0.3374,-0.4570,-0.8345,0.427,-1.587,-0.244,-151.013,19.748,-13.343
6473,-0.3379,-0.4604,-0.8286,1.282,-1.770,-0.244,-150.996,19.759,-13.332
6483,-0.3350,-0.4600,-0.8218,1.648,-1.953,0.000,-150.974,19.775,-13.321
6493,-0.3359,-0.4551,-0.8218,1.526,-2.380,0.305,-150.958,19.797,-13.315
6503,-0.3379,-0.4507,-0.8169,1.404,-2.808,0.366,-150.941,19.825,-13.304
6514,-0.3403,-0.4492,-0.8091,1.099,-2.686,0.061,-150.925,19.852,-13.288
6523,-0.3369,-0.4502,-0.8052,0.610,-1.831,-0.366,-150.914,19.869,-13.277
6533,-0.3359,-0.4517,-0.8057,-0.244,-0.671,-0.549,-150.908,19.869,-13.266
6543,-0.3379,-0.4541,-0.8086,-1.099,0.610,-0.610,-150.919,19.863,-13.266
6553,-0.3350,-0.4556,-0.8154,-1.770,1.404,-0.671,-150.936,19.847,-13.266
6563,-0.3330,-0.4600,-0.8203,-1.953,1.526,-0.732,-150.952,19.825,-13.266
6573,-0.3350,-0.4634,-0.8257,-1.709,1.221,-0.732,-150.969,19.808,-13.266
6583,-0.3369,-0.4644,-0.8296,-1.221,0.854,-0.549,-150.974,19.797,-13.266
6593,-0.3345,-0.4668,-0.8271,-0.610,0.610,-0.427,-150.980,19.786,-13.266
6603,-0.3364,-0.4678,-0.8301,-0.122,0.610,-0.244,-150.974,19.775,-13.266
6613,-0.3374,-0.4673,-0.8286,0.183,0.427,0.122,-150.969,19.770,-13.271
6623,-0.3374,-0.4668,-0.8252,0.427,0.122,0.427,-150.963,19.770,-13.271
6633,-0.3398,-0.4644,-0.8271,0.549,0.000,0.610,-150.958,19.770,-13.277
6643,-0.3374,-0.4653,-0.8271,0.427,0.061,0.671,-150.952,19.770,-13.288
6653,-0.3354,-0.4634,-0.8301,0.061,0.427,0.671,-150.952,19.770,-13.293
6663,-0.3335,-0.4600,-0.8345,-0.366,0.793,0.732,-150.963,19.759,-13.304
6673,-0.3325,-0.4551,-0.8335,-0.549,0.854,0.793,-150.974,19.753,-13.315
6683,-0.3359,-0.4565,-0.8335,-0.427,0.732,0.671,-150.985,19.748,-13.326
6693,-0.3374,-0.4531,-0.8340,-0.122,0.427,0.549,-150.996,19.742,-13.332
6703,-0.3374,-0.4531,-0.8325,0.183,0.244,0.427,-151.002,19.742,-13.337
6713,-0.3403,-0.4551,-0.8315,0.244,0.244,0.305,-151.002,19.742,-13.343
6723,-0.3369,-0.4556,-0.8325,0.122,0.244,0.183,-151.002,19.737,-13.348
6733,-0.3379,-0.4541,-0.8335,-0.122,0.061,0.183,-151.013,19.737,-13.348
6743,-0.3374,-0.4556,-0.8330,-0.366,-0.061,0.122,-151.018,19.737,-13.348
6753,-0.3359,-0.4546,-0.8345,-0.305,-0.366,0.122,-151.024,19.737,-13.348
6763,-0.3359,-0.4536,-0.8350,-0.244,-0.610,0.061,-151.029,19.742,-13.348
6773,-0.3330,-0.4512,-0.8345,0.061,-0.854,0.061,-151.035,19.742,-13.343
6783,-0.3335,-0.4517,-0.8335,0.305,-1.038,0.122,-151.035,19.748,-13.337
6793,-0.3315,-0.4512,-0.8320,0.427,-1.160,0.061,-151.035,19.753,-13.332
6803,-0.3306,-0.4487,-0.8315,0.427,-1.282,-0.061,-151.035,19.764,-13.326
6813,-0.3320,-0.4448,-0.8281,0.610,-1.404,-0.183,-151.029,19.770,-13.315
6823,-0.3354,-0.4463,-0.8223,1.038,-1.587,-0.488,-151.024,19.781,-13.304
6833,-0.3379,-0.4497,-0.8213,1.160,-1.404,-0.916,-151.007,19.792,-13.288
6843,-0.3359,-0.4531,-0.8198,0.732,-0.977,-1.160,-150.996,19.792,-13.271
6853,-0.3369,-0.4556,-0.8208,0.000,-0.366,-1.099,-150.991,19.792,-13.260
6863,-0.3394,-0.4531,-0.8242,-0.732,0.061,-0.977,-150.996,19.786,-13.250
6873,-0.3413,-0.4502,-0.8271,-1.038,0.366,-0.977,-151.007,19.781,-13.244
6883,-0.3413,-0.4517,-0.8271,-0.793,0.366,-1.160,-151.018,19.770,-13.233
6893,-0.3418,-0.4541,-0.8286,-0.366,0.244,-1.343,-151.018,19.764,-13.222
6903,-0.3413,-0.4595,-0.8301,-0.122,0.061,-1.465,-151.018,19.759,-13.211
6913,-0.3384,-0.4595,-0.8296,-0.061,-0.366,-1.404,-151.013,19.753,-13.195
6923,-0.3369,-0.4619,-0.8291,0.000,-0.854,-1.282,-151.007,19.753,-13.178
6933,-0.3359,-0.4624,-0.8291,0.061,-1.404,-1.038,-150.996,19.753,-13.162
6943,-0.3350,-0.4653,-0.8237,0.061,-1.709,-0.732,-150.985,19.764,-13.145
6953,-0.3325,-0.4678,-0.8223,0.061,-1.709,-0.488,-150.974,19.770,-13.134
6963,-0.3335,-0.4668,-0.8228,0.122,-1.465,-0.183,-150.969,19.781,-13.123
6973,-0.3340,-0.4639,-0.8242,0.122,-1.099,0.061,-150.958,19.786,-13.118
6983,-0.3345,-0.4629,-0.8237,0.366,-0.732,0.244,-150.952,19.792,-13.118
6993,-0.3335,-0.4639,-0.8262,0.610,-0.549,0.183,-150.947,19.792,-13.118
7003,-0.3350,-0.4609,-0.8281,0.671,-0.488,0.244,-150.936,19.797,-13.118
7014,-0.3359,-0.4600,-0.8271,0.427,-0.366,0.305,-150.930,19.797,-13.118
7023,-0.3398,-0.4585,-0.8262,0.000,-0.183,0.366,-150.936,19.803,-13.118
7033,-0.3389,-0.4570,-0.8301,-0.366,0.061,0.305,-150.941,19.803,-13.123
7043,-0.3384,-0.4541,-0.8306,-0.610,0.183,0.183,-150.952,19.797,-13.123
7053,-0.3413,-0.4541,-0.8340,-0.610,0.122,0.000,-150.963,19.797,-13.129
7063,-0.3413,-0.4536,-0.8330,-0.366,-0.183,-0.122,-150.969,19.797,-13.123
7073,-0.3398,-0.4546,-0.8320,0.000,-0.488,-0.305,-150.974,19.803,-13.118
7083,-0.3398,-0.4561,-0.8291,0.366,-0.793,-0.427,-150.969,19.803,-13.112
7093,-0.3384,-0.4565,-0.8296,0.488,-1.221,-0.305,-150.963,19.814,-13.101
7103,-0.3379,-0.4551,-0.8271,0.488,-1.465,-0.244,-150.958,19.825,-13.090
7113,-0.3364,-0.4561,-0.8223,0.488,-1.526,-0.305,-150.947,19.836,-13.079
7123,-0.3384,-0.4556,-0.8198,0.549,-1.343,-0.427,-150.941,19.841,-13.068
7133,-0.3364,-0.4580,-0.8179,0.427,-1.160,-0.488,-150.930,19.852,-13.057
7143,-0.3359,-0.4600,-0.8203,0.244,-0.916,-0.427,-150.919,19.852,-13.052
7153,-0.3379,-0.4609,-0.8188,0.000,-0.610,-0.366,-150.919,19.858,-13.046
7163,-0.3369,-0.4585,-0.8169,-0.183,-0.366,-0.305,-150.914,19.858,-13.041
7173,-0.3350,-0.4590,-0.8193,-0.244,-0.183,-0.305,-150.914,19.858,-13.035
7183,-0.3369,-0.4624,-0.8188,-0.305,0.061,-0.183,-150.914,19.852,-13.035
7193,-0.3354,-0.4639,-0.8188,-0.366,0.366,-0.183,-150.914,19.847,-13.035
7203,-0.3354,-0.4644,-0.8242,-0.488,0.732,-0.122,-150.914,19.836,-13.035
7213,-0.3345,-0.4624,-0.8262,-0.549,0.977,0.122,-150.919,19.825,-13.041
7223,-0.3350,-0.4604,-0.8281,-0.549,1.038,0.305,-150.930,19.814,-13.052
7233,-0.3374,-0.4595,-0.8306,-0.305,1.038,0.427,-150.936,19.803,-13.063
7243,-0.3398,-0.4575,-0.8330,0.000,0.854,0.427,-150.941,19.797,-13.068
7253,-0.3418,-0.4546,-0.8345,0.488,0.610,0.427,-150.947,19.792,-13.074
7263,-0.3418,-0.4536,-0.8330,0.732,0.366,0.366,-150.941,19.792,-13.079
7273,-0.3418,-0.4551,-0.8325,0.671,0.183,0.183,-150.941,19.792,-13.085
7283,-0.3394,-0.4531,-0.8325,0.305,0.122,0.122,-150.947,19.792,-13.085
7293,-0.3379,-0.4541,-0.8311,-0.061,-0.061,0.061,-150.947,19.792,-13.085
7303,-0.3379,-0.4565,-0.8296,-0.305,-0.244,0.061,-150.952,19.792,-13.085
7313,-0.3354,-0.4565,-0.8325,-0.366,-0.366,-0.061,-150.958,19.792,-13.085
7323,-0.3350,-0.4561,-0.8296,-0.366,-0.427,-0.122,-150.963,19.792,-13.079
7333,-0.3359,-0.4561,-0.8320,-0.305,-0.549,-0.122,-150.969,19.792,-13.074
7343,-0.3374,-0.4585,-0.8306,-0.183,-0.549,-0.122,-150.969,19.792,-13.074
7353,-0.3345,-0.4595,-0.8276,-0.061,-0.549,-0.183,-150.969,19.792,-13.068
7363,-0.3335,-0.4609,-0.8286,0.000,-0.549,-0.183,-150.969,19.792,-13.063
7373,-0.3325,-0.4609,-0.8271,0.000,-0.488,-0.061,-150.969,19.792,-13.057
7383,-0.3345,-0.4614,-0.8271,-0.061,-0.549,0.122,-150.963,19.797,-13.057
7393,-0.3359,-0.4604,-0.8286,-0.061,-0.549,0.366,-150.963,19.797,-13.057
7403,-0.3369,-0.4565,-0.8320,0.122,-0.549,0.488,-150.969,19.803,-13.063
7413,-0.3379,-0.4551,-0.8281,0.366,-0.427,0.549,-150.969,19.808,-13.063
7423,-0.3384,-0.4546,-0.8262,0.610,-0.366,0.427,-150.963,19.814,-13.063
7433,-0.3379,-0.4541,-0.8271,0.549,-0.366,0.244,-150.963,19.819,-13.068
7443,-0.3379,-0.4517,-0.8296,0.244,-0.305,0.122,-150.963,19.819,-13.063
7453,-0.3374,-0.4492,-0.8276,-0.122,-0.305,0.000,-150.969,19.819,-13.063
7463,-0.3350,-0.4492,-0.8271,-0.305,-0.427,-0.061,-150.974,19.819,-13.063
7473,-0.3389,-0.4487,-0.8281,-0.122,-0.549,-0.244,-150.980,19.825,-13.057
7483,-0.3384,-0.4497,-0.8276,0.122,-0.671,-0.549,-150.985,19.825,-13.046
7493,-0.3374,-0.4531,-0.8247,0.183,-0.671,-0.854,-150.980,19.830,-13.035
7503,-0.3384,-0.4570,-0.8247,0.122,-0.610,-0.916,-150.974,19.830,-13.024
7514,-0.3364,-0.4595,-0.8232,-0.183,-0.549,-0.916,-150.969,19.825,-13.013
7523,-0.3379,-0.4614,-0.8242,-0.427,-0.549,-0.793,-150.969,19.825,-13.002
7533,-0.3384,-0.4595,-0.8247,-0.488,-0.610,-0.610,-150.969,19.825,-12.991
7543,-0.3403,-0.4600,-0.8232,-0.061,-0.610,-0.488,-150.969,19.830,-12.986
7553,-0.3423,-0.4609,-0.8198,0.427,-0.427,-0.427,-150.958,19.836,-12.980
7563,-0.3403,-0.4639,-0.8159,0.671,-0.244,-0.488,-150.941,19.836,-12.975
7573,-0.3379,-0.4692,-0.8184,0.427,0.000,-0.427,-150.930,19.830,-12.969
7583,-0.3350,-0.4697,-0.8179,-0.366,0.305,-0.305,-150.925,19.825,-12.969
7593,-0.3315,-0.4683,-0.8213,-1.038,0.427,0.061,-150.930,19.814,-12.969
7603,-0.3291,-0.4678,-0.8257,-1.160,0.244,0.427,-150.941,19.808,-12.975
7613,-0.3311,-0.4639,-0.8271,-0.610,0.122,0.671,-150.947,19.803,-12.986
7623,-0.3330,-0.4624,-0.8267,0.122,0.183,0.854,-150.947,19.803,-12.991
7633,-0.3354,-0.4614,-0.8237,0.977,0.366,0.977,-150.936,19.803,-13.002
7643,-0.3374,-0.4590,-0.8247,1.404,0.671,1.038,-150.925,19.803,-13.019
7653,-0.3379,-0.4556,-0.8247,1.343,0.854,1.099,-150.919,19.797,-13.030
7663,-0.3389,-0.4507,-0.8252,0.977,0.854,1.099,-150.919,19.797,-13.046
7673,-0.3408,-0.4482,-0.8286,0.427,0.854,1.038,-150.925,19.792,-13.063
7683,-0.3398,-0.4482,-0.8286,-0.061,0.793,0.854,-150.936,19.792,-13.074
7693,-0.3389,-0.4463,-0.8267,-0.488,0.671,0.549,-150.952,19.792,-13.079
7703,-0.3359,-0.4478,-0.8267,-0.671,0.427,0.183,-150.969,19.786,-13.085
7713,-0.3345,-0.4517,-0.8301,-0.610,0.366,-0.244,-150.980,19.775,-13.085
7723,-0.3340,-0.4565,-0.8330,-0.549,0.488,-0.488,-150.985,19.770,-13.085
7733,-0.3325,-0.4614,-0.8320,-0.549,0.427,-0.488,-150.991,19.759,-13.079
7743,-0.3325,-0.4624,-0.8340,-0.366,0.183,-0.244,-150.991,19.748,-13.079
7753,-0.3359,-0.4624,-0.8340,0.000,-0.122,0.061,-150.991,19.748,-13.079
7763,-0.3364,-0.4648,-0.8350,0.305,-0.427,0.244,-150.991,19.748,-13.079
7773,-0.3359,-0.4609,-0.8330,0.549,-0.427,0.427,-150.985,19.748,-13.079
7783,-0.3364,-0.4561,-0.8335,0.732,-0.305,0.549,-150.980,19.753,-13.085
7793,-0.3379,-0.4512,-0.8291,0.916,-0.183,0.549,-150.980,19.759,-13.090
7803,-0.3384,-0.4507,-0.8267,0.916,-0.183,0.488,-150.974,19.759,-13.090
7813,-0.3374,-0.4507,-0.8267,0.671,-0.305,0.244,-150.974,19.764,-13.090
7823,-0.3369,-0.4517,-0.8276,0.122,-0.244,0.000,-150.974,19.764,-13.090
7833,-0.3384,-0.4497,-0.8267,-0.427,-0.183,-0.183,-150.985,19.764,-13.090
7843,-0.3413,-0.4478,-0.8271,-0.732,-0.244,-0.305,-150.996,19.770,-13.085
7853,-0.3379,-0.4502,-0.8247,-0.610,-0.244,-0.549,-151.002,19.770,-13.079
7863,-0.3330,-0.4546,-0.8267,-0.366,-0.244,-0.793,-151.007,19.764,-13.068
7873,-0.3320,-0.4565,-0.8271,-0.122,-0.305,-0.854,-151.007,19.759,-13.057
7883,-0.3306,-0.4585,-0.8271,0.061,-0.427,-0.854,-151.002,19.753,-13.052
7893,-0.3311,-0.4614,-0.8267,0.061,-0.610,-0.671,-150.996,19.748,-13.041
7903,-0.3306,-0.4624,-0.8232,0.183,-0.610,-0.549,-150.985,19.748,-13.030
7913,-0.3311,-0.4658,-0.8232,0.183,-0.427,-0.488,-150.980,19.742,-13.024
7923,-0.3315,-0.4658,-0.8247,-0.061,0.000,-0.305,-150.974,19.737,-13.024
7933,-0.3325,-0.4648,-0.8247,-0.366,0.427,0.122,-150.974,19.731,-13.024
7943,-0.3364,-0.4614,-0.8281,-0.549,0.732,0.305,-150.980,19.726,-13.030
7953,-0.3379,-0.4570,-0.8335,-0.427,0.793,0.305,-150.991,19.720,-13.041
7963,-0.3379,-0.4551,-0.8345,-0.183,0.732,0.244,-150.996,19.709,-13.046
7973,-0.3403,-0.4541,-0.8350,-0.061,0.549,0.183,-151.007,19.709,-13.052
7983,-0.3394,-0.4541,-0.8359,0.000,0.183,0.122,-151.013,19.704,-13.052
7994,-0.3408,-0.4561,-0.8364,0.061,-0.244,-0.061,-151.013,19.709,-13.052
8003,-0.3394,-0.4546,-0.8340,0.061,-0.671,-0.183,-151.013,19.709,-13.046
8014,-0.3394,-0.4556,-0.8330,0.000,-0.977,-0.183,-151.018,19.720,-13.041
8023,-0.3384,-0.4580,-0.8296,0.061,-1.160,-0.122,-151.013,19.726,-13.030
8033,-0.3345,-0.4590,-0.8296,0.244,-1.221,-0.183,-151.007,19.737,-13.024
8044,-0.3315,-0.4624,-0.8291,0.122,-1.160,-0.122,-151.002,19.737,-13.013
8054,-0.3296,-0.4619,-0.8281,0.000,-1.038,0.061,-151.002,19.742,-13.013
8064,-0.3296,-0.4604,-0.8311,0.061,-0.977,0.244,-150.996,19.748,-13.008
8074,-0.3286,-0.4585,-0.8276,0.427,-0.977,0.366,-150.996,19.753,-13.008
8083,-0.3315,-0.4541,-0.8213,0.854,-1.038,0.488,-150.985,19.759,-13.008
8093,-0.3369,-0.4536,-0.8188,1.099,-0.732,0.610,-150.974,19.770,-13.008
8103,-0.3389,-0.4492,-0.8188,1.038,-0.244,0.549,-150.969,19.775,-13.013
8114,-0.3384,-0.4487,-0.8193,0.549,0.488,0.305,-150.969,19.775,-13.019
8123,-0.3384,-0.4458,-0.8198,-0.244,0.977,0.000,-150.980,19.770,-13.024
8134,-0.3384,-0.4429,-0.8271,-1.099,1.160,-0.305,-150.996,19.759,-13.024
8144,-0.3394,-0.4438,-0.8291,-1.587,0.793,-0.732,-151.024,19.748,-13.024
8154,-0.3389,-0.4482,-0.8262,-1.587,0.305,-1.282,-151.040,19.737,-13.013
8164,-0.3398,-0.4546,-0.8252,-1.526,0.061,-1.709,-151.051,19.731,-12.997
8174,-0.3364,-0.4658,-0.8218,-1.770,0.305,-1.648,-151.057,19.720,-12.980
8184,-0.3350,-0.4741,-0.8252,-2.563,1.160,-1.099,-151.073,19.698,-12.980
8194,-0.3306,-0.4746,-0.8286,-3.601,2.502,-0.305,-151.100,19.671,-12.991
8204,-0.3296,-0.4697,-0.8354,-4.028,3.662,0.366,-151.144,19.633,-13.013
8214,-0.3306,-0.4619,-0.8438,-3.235,4.028,0.977,-151.188,19.600,-13.041
8224,-0.3340,-0.4580,-0.8418,-1.526,3.479,1.465,-151.216,19.572,-13.074
8234,-0.3408,-0.4561,-0.8345,0.244,3.540,1.770,-151.227,19.550,-13.107
8244,-0.3437,-0.4590,-0.8359,0.977,4.639,1.953,-151.232,19.523,-13.151
8254,-0.3291,-0.4585,-0.8311,0.793,4.822,1.038,-151.232,19.479,-13.184
8264,-0.3262,-0.4575,-0.8359,-0.244,3.296,0.366,-151.243,19.446,-13.206
8274,-0.3252,-0.4556,-0.8369,-0.793,0.549,0.122,-151.254,19.440,-13.206
8284,-0.3276,-0.4531,-0.8384,-0.854,-1.465,0.305,-151.265,19.446,-13.200
8294,-0.3296,-0.4492,-0.8354,-0.488,-2.441,0.244,-151.271,19.468,-13.195
8304,-0.3325,-0.4478,-0.8340,0.427,-2.502,0.061,-151.265,19.490,-13.178
8314,-0.3345,-0.4468,-0.8315,1.587,-2.197,0.000,-151.254,19.506,-13.167
8324,-0.3394,-0.4473,-0.8296,2.197,-1.709,0.061,-151.232,19.523,-13.162
8334,-0.3428,-0.4492,-0.8311,1.953,-1.221,0.122,-151.216,19.539,-13.156
8344,-0.3408,-0.4492,-0.8301,0.916,-1.099,0.244,-151.210,19.556,-13.151
8354,-0.3398,-0.4453,-0.8359,-0.305,-1.282,0.305,-151.216,19.567,-13.151
8364,-0.3374,-0.4419,-0.8364,-1.343,-1.587,0.061,-151.238,19.583,-13.140
8374,-0.3345,-0.4399,-0.8369,-1.831,-1.709,-0.366,-151.260,19.594,-13.129
8384,-0.3350,-0.4419,-0.8369,-1.648,-1.526,-0.732,-151.282,19.605,-13.112
8394,-0.3286,-0.4458,-0.8374,-1.038,-1.282,-1.099,-151.293,19.605,-13.096
8404,-0.3257,-0.4502,-0.8384,-0.427,-1.038,-1.282,-151.298,19.600,-13.079
8414,-0.3252,-0.4570,-0.8335,0.061,-1.038,-1.526,-151.287,19.594,-13.063
8424,-0.3271,-0.4609,-0.8340,0.061,-1.221,-1.465,-151.282,19.594,-13.041
8434,-0.3291,-0.4639,-0.8311,-0.061,-1.526,-1.099,-151.271,19.594,-13.024
8444,-0.3340,-0.4639,-0.8330,-0.061,-1.709,-0.671,-151.260,19.605,-13.008
8454,-0.3374,-0.4629,-0.8320,0.183,-1.831,-0.366,-151.254,19.616,-12.997
8464,-0.3379,-0.4609,-0.8286,0.671,-1.892,-0.305,-151.238,19.633,-12.980
8474,-0.3374,-0.4609,-0.8262,0.977,-2.014,-0.183,-151.221,19.649,-12.969
8484,-0.3369,-0.4580,-0.8237,0.916,-2.014,0.000,-151.205,19.666,-12.958
8494,-0.3359,-0.4570,-0.8218,0.671,-1.953,0.122,-151.194,19.682,-12.953
8504,-0.3345,-0.4575,-0.8242,0.427,-1.892,0.061,-151.183,19.698,-12.942
8514,-0.3301,-0.4590,-0.8247,0.244,-1.892,0.061,-151.177,19.715,-12.931
8524,-0.3286,-0.4595,-0.8218,0.244,-1.831,0.122,-151.166,19.726,-12.925
8534,-0.3301,-0.4624,-0.8223,0.488,-1.709,0.183,-151.155,19.737,-12.920
8544,-0.3315,-0.4629,-0.8213,0.793,-1.404,0.305,-151.139,19.748,-12.914
8554,-0.3364,-0.4619,-0.8223,1.160,-1.099,0.488,-151.122,19.759,-12.914
8564,-0.3379,-0.4585,-0.8223,1.404,-0.793,0.671,-151.106,19.764,-12.914
8574,-0.3403,-0.4561,-0.8203,1.465,-0.488,0.793,-151.089,19.775,-12.920
8584,-0.3433,-0.4546,-0.8228,1.282,-0.061,0.854,-151.084,19.781,-12.925
8594,-0.3457,-0.4517,-0.8228,0.916,0.427,0.732,-151.078,19.786,-12.936
8604,-0.3457,-0.4482,-0.8247,0.244,0.916,0.427,-151.084,19.786,-12.947
8614,-0.3462,-0.4453,-0.8257,-0.366,1.099,0.122,-151.095,19.781,-12.953
8624,-0.3447,-0.4473,-0.8325,-0.854,1.099,-0.183,-151.111,19.775,-12.953
8634,-0.3408,-0.4458,-0.8364,-1.038,0.732,-0.488,-151.128,19.764,-12.953
8644,-0.3384,-0.4492,-0.8384,-0.854,0.183,-0.793,-151.139,19.759,-12.947
8654,-0.3374,-0.4526,-0.8374,-0.427,-0.488,-1.221,-151.144,19.753,-12.936
8664,-0.3335,-0.4565,-0.8345,0.000,-1.221,-1.465,-151.139,19.753,-12.914
8674,-0.3320,-0.4609,-0.8296,0.244,-1.648,-1.465,-151.128,19.759,-12.892
8684,-0.3291,-0.4644,-0.8262,0.366,-1.831,-1.343,-151.111,19.759,-12.870
8694,-0.3271,-0.4663,-0.8267,0.305,-1.648,-1.038,-151.100,19.759,-12.854
8704,-0.3281,-0.4692,-0.8223,0.122,-1.282,-0.732,-151.084,19.764,-12.838
8714,-0.3276,-0.4687,-0.8203,-0.183,-0.671,-0.488,-151.073,19.759,-12.832
8724,-0.3267,-0.4673,-0.8252,-0.488,0.000,-0.122,-151.073,19.753,-12.832
8734,-0.3281,-0.4614,-0.8257,-0.610,0.610,0.305,-151.078,19.742,-12.838
8744,-0.3320,-0.4590,-0.8311,-0.488,1.099,0.610,-151.089,19.731,-12.849
8754,-0.3335,-0.4565,-0.8359,-0.122,1.282,0.793,-151.095,19.720,-12.859
8764,-0.3384,-0.4517,-0.8350,0.366,1.099,0.793,-151.100,19.715,-12.876
8774,-0.3384,-0.4482,-0.8384,0.732,0.610,0.671,-151.106,19.709,-12.881
8784,-0.3398,-0.4463,-0.8403,1.038,0.122,0.549,-151.106,19.709,-12.887
8794,-0.3413,-0.4463,-0.8389,1.038,-0.427,0.305,-151.106,19.715,-12.892
8804,-0.3408,-0.4443,-0.8384,0.793,-0.793,0.183,-151.106,19.726,-12.887
8814,-0.3423,-0.4385,-0.8384,0.549,-1.099,0.000,-151.111,19.737,-12.881
8824,-0.3452,-0.4365,-0.8408,0.488,-1.465,-0.244,-151.117,19.748,-12.870
8834,-0.3437,-0.4380,-0.8350,0.793,-1.709,-0.671,-151.117,19.764,-12.859
8844,-0.3423,-0.4409,-0.8311,0.793,-1.953,-1.160,-151.111,19.775,-12.838
8854,-0.3384,-0.4453,-0.8291,0.488,-2.014,-1.526,-151.106,19.786,-12.810
8864,-0.3359,-0.4521,-0.8262,0.000,-1.892,-1.831,-151.100,19.792,-12.783
8874,-0.3311,-0.4556,-0.8281,-0.671,-1.770,-2.014,-151.095,19.797,-12.755
8884,-0.3306,-0.4614,-0.8291,-1.282,-1.526,-1.831,-151.100,19.792,-12.733
8894,-0.3335,-0.4619,-0.8281,-0.916,-1.404,-1.587,-151.095,19.792,-12.711
8904,-0.3345,-0.4619,-0.8276,-0.305,-1.282,-1.282,-151.089,19.797,-12.689
8914,-0.3340,-0.4663,-0.8262,0.366,-1.282,-1.282,-151.078,19.797,-12.673
8924,-0.3350,-0.4678,-0.8237,0.610,-1.282,-1.343,-151.057,19.797,-12.656
8934,-0.3340,-0.4697,-0.8223,0.427,-1.282,-1.160,-151.040,19.797,-12.634
8944,-0.3359,-0.4683,-0.8218,0.061,-1.221,-0.854,-151.029,19.803,-12.623
8954,-0.3379,-0.4678,-0.8237,-0.305,-1.160,-0.549,-151.018,19.808,-12.612
8964,-0.3384,-0.4678,-0.8242,-0.427,-1.038,-0.488,-151.013,19.814,-12.601
8974,-0.3374,-0.4697,-0.8252,-0.305,-0.977,-0.366,-151.007,19.819,-12.596
8984,-0.3374,-0.4692,-0.8237,-0.061,-0.916,-0.183,-151.002,19.825,-12.585
8994,-0.3379,-0.4731,-0.8228,0.122,-0.732,0.122,-150.991,19.830,-12.585
9004,-0.3384,-0.4692,-0.8237,0.366,-0.549,0.549,-150.980,19.836,-12.585
9014,-0.3398,-0.4658,-0.8223,0.732,-0.427,1.038,-150.969,19.841,-12.596
9024,-0.3413,-0.4600,-0.8223,1.160,-0.488,1.404,-150.958,19.852,-12.607
9034,-0.3433,-0.4546,-0.8188,1.404,-0.671,1.465,-150.947,19.869,-12.612
9044,-0.3442,-0.4497,-0.8140,1.404,-0.671,1.343,-150.941,19.885,-12.623
9054,-0.3462,-0.4468,-0.8110,1.282,-0.183,1.221,-150.930,19.902,-12.634
9064,-0.3452,-0.4448,-0.8096,0.916,0.671,0.854,-150.930,19.902,-12.645
9074,-0.3418,-0.4478,-0.8140,0.305,1.465,0.427,-150.936,19.896,-12.656
9084,-0.3398,-0.4492,-0.8193,-0.549,1.892,0.061,-150.947,19.880,-12.667
9094,-0.3369,-0.4521,-0.8228,-1.343,2.075,-0.183,-150.963,19.863,-12.678
9104,-0.3330,-0.4536,-0.8281,-1.831,2.075,-0.366,-150.991,19.836,-12.684
9114,-0.3311,-0.4556,-0.8369,-1.892,2.136,-0.366,-151.013,19.808,-12.689
9124,-0.3291,-0.4546,-0.8418,-1.465,2.136,-0.122,-151.040,19.781,-12.700
9134,-0.3286,-0.4531,-0.8423,-0.549,1.709,0.061,-151.051,19.759,-12.711
9144,-0.3301,-0.4556,-0.8423,0.671,0.977,0.244,-151.057,19.742,-12.717
9154,-0.3306,-0.4595,-0.8403,1.343,0.305,0.122,-151.046,19.737,-12.722
9164,-0.3320,-0.4604,-0.8403,1.160,0.061,0.122,-151.035,19.731,-12.722
9174,-0.3330,-0.4600,-0.8408,0.183,0.244,0.244,-151.040,19.726,-12.728
9184,-0.3369,-0.4551,-0.8447,-0.732,0.488,0.488,-151.057,19.715,-12.733
9194,-0.3389,-0.4497,-0.8477,-0.977,0.610,0.488,-151.078,19.709,-12.739
9204,-0.3408,-0.4497,-0.8486,-0.488,0.305,0.183,-151.095,19.709,-12.744
9214,-0.3384,-0.4497,-0.8472,0.244,-0.427,-0.122,-151.100,19.709,-12.739
9224,-0.3369,-0.4507,-0.8452,0.793,-1.221,-0.366,-151.095,19.715,-12.733
9234,-0.3389,-0.4512,-0.8433,0.916,-2.014,-0.549,-151.089,19.726,-12.717
9244,-0.3403,-0.4497,-0.8369,0.732,-2.686,-0.732,-151.084,19.748,-12.695
9254,-0.3398,-0.4512,-0.8335,0.549,-3.113,-0.793,-151.073,19.770,-12.673
9264,-0.3423,-0.4502,-0.8291,0.549,-3.357,-0.916,-151.062,19.797,-12.645
9274,-0.3433,-0.4531,-0.8188,0.732,-3.235,-1.038,-151.046,19.825,-12.618
9284,-0.3433,-0.4580,-0.8154,0.854,-2.930,-1.221,-151.024,19.847,-12.590
9294,-0.3379,-0.4600,-0.8130,0.549,-2.441,-1.221,-151.007,19.863,-12.568
9304,-0.3394,-0.4614,-0.8135,0.061,-1.953,-1.099,-150.996,19.874,-12.546
9314,-0.3364,-0.4619,-0.8140,-0.305,-1.465,-0.916,-150.985,19.880,-12.530
9324,-0.3340,-0.4614,-0.8159,-0.488,-1.160,-0.854,-150.980,19.885,-12.519
9334,-0.3335,-0.4614,-0.8149,-0.366,-1.099,-0.854,-150.974,19.885,-12.502
9344,-0.3340,-0.4614,-0.8145,0.061,-1.038,-0.732,-150.963,19.891,-12.491
9354,-0.3320,-0.4648,-0.8130,0.427,-1.038,-0.549,-150.952,19.891,-12.480
9364,-0.3335,-0.4634,-0.8115,0.549,-0.793,-0.366,-150.936,19.896,-12.475
9374,-0.3354,-0.4634,-0.8120,0.488,-0.183,-0.122,-150.925,19.896,-12.475
9384,-0.3389,-0.4624,-0.8110,0.305,0.488,0.061,-150.914,19.891,-12.475
9394,-0.3384,-0.4629,-0.8140,0.000,1.160,0.244,-150.914,19.880,-12.486
9404,-0.3379,-0.4604,-0.8164,-0.305,1.465,0.366,-150.914,19.869,-12.497
9414,-0.3384,-0.4609,-0.8218,-0.549,1.648,0.427,-150.925,19.858,-12.508
9424,-0.3408,-0.4595,-0.8247,-0.610,1.465,0.488,-150.936,19.847,-12.519
9434,-0.3403,-0.4580,-0.8271,-0.488,1.160,0.549,-150.941,19.841,-12.530
9444,-0.3408,-0.4590,-0.8301,-0.122,0.916,0.488,-150.947,19.830,-12.541
9454,-0.3389,-0.4604,-0.8281,0.183,0.793,0.427,-150.947,19.825,-12.546
9464,-0.3369,-0.4609,-0.8286,0.122,0.793,0.549,-150.952,19.819,-12.557
9474,-0.3369,-0.4609,-0.8306,-0.122,0.916,0.610,-150.958,19.814,-12.568
9484,-0.3335,-0.4580,-0.8364,-0.427,0.854,0.732,-150.969,19.803,-12.579
9494,-0.3369,-0.4541,-0.8374,-0.427,0.549,0.793,-150.980,19.797,-12.590
9504,-0.3369,-0.4512,-0.8335,0.061,0.183,0.671,-150.985,19.797,-12.596
9515,-0.3379,-0.4517,-0.8306,0.671,-0.122,0.427,-150.985,19.797,-12.601
9524,-0.3394,-0.4531,-0.8281,1.099,-0.244,0.305,-150.980,19.803,-12.601
9534,-0.3394,-0.4521,-0.8262,0.977,-0.061,0.122,-150.974,19.803,-12.601
9544,-0.3394,-0.4531,-0.8262,0.366,0.244,0.000,-150.974,19.803,-12.601
9554,-0.3369,-0.4512,-0.8286,-0.427,0.488,-0.061,-150.985,19.797,-12.607
9564,-0.3359,-0.4473,-0.8320,-0.916,0.549,-0.183,-151.002,19.786,-12.607
9574,-0.3364,-0.4463,-0.8364,-0.977,0.488,-0.244,-151.018,19.781,-12.607
9584,-0.3340,-0.4473,-0.8354,-0.671,0.244,-0.427,-151.035,19.775,-12.601
9594,-0.3350,-0.4512,-0.8345,-0.183,0.000,-0.610,-151.040,19.764,-12.596
9604,-0.3340,-0.4531,-0.8330,0.122,-0.305,-0.732,-151.040,19.764,-12.590
9614,-0.3315,-0.4561,-0.8306,0.183,-0.488,-0.732,-151.035,19.759,-12.579
9624,-0.3301,-0.4580,-0.8306,0.061,-0.610,-0.610,-151.035,19.753,-12.574
9634,-0.3315,-0.4595,-0.8296,-0.183,-0.610,-0.488,-151.029,19.753,-12.563
9644,-0.3330,-0.4595,-0.8311,-0.427,-0.549,-0.427,-151.035,19.753,-12.557
9654,-0.3330,-0.4585,-0.8306,-0.549,-0.488,-0.366,-151.040,19.748,-12.552
9664,-0.3335,-0.4580,-0.8311,-0.427,-0.549,-0.305,-151.040,19.748,-12.546
9674,-0.3364,-0.4561,-0.8271,-0.183,-0.610,-0.305,-151.040,19.753,-12.541
9684,-0.3369,-0.4565,-0.8281,0.122,-0.732,-0.427,-151.040,19.753,-12.530
9694,-0.3389,-0.4575,-0.8271,0.244,-0.732,-0.488,-151.035,19.759,-12.524
9704,-0.3389,-0.4585,-0.8262,0.000,-0.671,-0.488,-151.029,19.759,-12.513
9714,-0.3408,-0.4565,-0.8262,-0.183,-0.488,-0.549,-151.029,19.764,-12.508
9724,-0.3408,-0.4590,-0.8267,-0.305,-0.366,-0.549,-151.029,19.764,-12.502
9734,-0.3403,-0.4580,-0.8306,-0.366,-0.366,-0.549,-151.035,19.764,-12.491
9744,-0.3403,-0.4595,-0.8257,-0.244,-0.549,-0.488,-151.029,19.770,-12.486
9754,-0.3398,-0.4595,-0.8257,0.122,-0.793,-0.549,-151.024,19.775,-12.475
9764,-0.3398,-0.4604,-0.8252,0.305,-0.977,-0.427,-151.018,19.781,-12.469
9774,-0.3384,-0.4614,-0.8218,0.305,-0.916,-0.366,-151.007,19.786,-12.458
9784,-0.3354,-0.4644,-0.8203,0.000,-0.671,-0.244,-151.002,19.786,-12.453
9794,-0.3354,-0.4668,-0.8188,-0.244,-0.244,-0.122,-150.996,19.786,-12.453
9804,-0.3335,-0.4697,-0.8228,-0.549,0.000,0.061,-150.996,19.786,-12.453
9814,-0.3340,-0.4658,-0.8247,-0.732,0.305,0.427,-151.002,19.781,-12.458
9824,-0.3359,-0.4619,-0.8276,-0.488,0.610,0.793,-151.007,19.775,-12.469
9834,-0.3394,-0.4590,-0.8296,-0.061,0.916,0.916,-151.013,19.770,-12.480
9844,-0.3398,-0.4551,-0.8281,0.427,1.099,0.916,-151.013,19.764,-12.497
9854,-0.3408,-0.4536,-0.8286,0.732,1.099,0.854,-151.013,19.764,-12.508
9864,-0.3394,-0.4512,-0.8320,0.610,0.916,0.793,-151.018,19.759,-12.524
9874,-0.3428,-0.4497,-0.8340,0.305,0.366,0.732,-151.024,19.759,-12.530
9884,-0.3408,-0.4473,-0.8369,0.183,-0.183,0.549,-151.029,19.764,-12.535
9894,-0.3379,-0.4458,-0.8384,0.366,-0.610,0.244,-151.035,19.770,-12.535
9904,-0.3350,-0.4458,-0.8374,0.610,-0.916,0.000,-151.040,19.770,-12.530
9914,-0.3320,-0.4497,-0.8345,0.793,-1.038,-0.183,-151.035,19.775,-12.524
9924,-0.3296,-0.4502,-0.8340,0.854,-1.099,-0.122,-151.029,19.781,-12.513
9934,-0.3291,-0.4521,-0.8335,0.793,-1.099,-0.122,-151.024,19.781,-12.508
9944,-0.3301,-0.4502,-0.8345,0.427,-0.977,0.000,-151.024,19.786,-12.502
9954,-0.3306,-0.4517,-0.8340,0.061,-0.793,0.122,-151.029,19.786,-12.502
9964,-0.3320,-0.4502,-0.8359,-0.061,-0.610,0.183,-151.035,19.786,-12.497
9974,-0.3335,-0.4507,-0.8335,0.000,-0.671,0.000,-151.040,19.786,-12.497
9984,-0.3364,-0.4497,-0.8350,0.183,-0.854,-0.305,-151.040,19.792,-12.486
9994,-0.3374,-0.4507,-0.8315,0.244,-1.221,-0.732,-151.040,19.797,-12.475
10004,-0.3379,-0.4551,-0.8296,0.122,-1.526,-0.977,-151.035,19.803,-12.458
10015,-0.3394,-0.4570,-0.8306,-0.305,-1.648,-1.099,-151.035,19.814,-12.442
10024,-0.3433,-0.4556,-0.8296,-0.610,-1.648,-1.160,-151.035,19.825,-12.420
10034,-0.3462,-0.4561,-0.8311,-0.549,-1.648,-1.221,-151.035,19.836,-12.398
10044,-0.3452,-0.4595,-0.8271,-0.305,-1.526,-1.282,-151.035,19.841,-12.382
10054,-0.3442,-0.4619,-0.8271,0.061,-1.526,-1.282,-151.024,19.852,-12.360
10064,-0.3423,-0.4629,-0.8286,0.244,-1.709,-1.221,-151.013,19.858,-12.343
10074,-0.3384,-0.4629,-0.8247,0.244,-1.892,-1.160,-150.996,19.869,-12.321
10084,-0.3369,-0.4624,-0.8257,0.244,-2.258,-0.977,-150.985,19.880,-12.299
10094,-0.3389,-0.4604,-0.8232,0.427,-2.686,-0.854,-150.974,19.902,-12.277
10104,-0.3374,-0.4600,-0.8198,0.977,-2.930,-0.793,-150.952,19.918,-12.255
10114,-0.3330,-0.4634,-0.8140,1.404,-2.930,-0.793,-150.925,19.940,-12.233
10124,-0.3340,-0.4648,-0.8057,1.648,-2.686,-0.671,-150.892,19.957,-12.211
10134,-0.3340,-0.4658,-0.8037,1.587,-2.136,-0.305,-150.864,19.973,-12.200
10144,-0.3335,-0.4648,-0.8022,0.977,-1.343,0.061,-150.842,19.979,-12.195
10154,-0.3340,-0.4604,-0.8057,0.244,-0.366,0.366,-150.831,19.984,-12.195
10164,-0.3354,-0.4575,-0.8057,-0.366,0.732,0.549,-150.837,19.979,-12.200
10174,-0.3379,-0.4536,-0.8086,-0.732,1.587,0.488,-150.848,19.968,-12.217
10184,-0.3403,-0.4570,-0.8159,-0.916,2.197,0.366,-150.859,19.951,-12.228
10194,-0.3403,-0.4604,-0.8198,-1.038,2.441,0.244,-150.875,19.929,-12.244
10204,-0.3389,-0.4619,-0.8267,-1.221,2.380,0.183,-150.892,19.907,-12.261
10214,-0.3394,-0.4595,-0.8354,-1.465,2.136,0.244,-150.914,19.891,-12.272
10224,-0.3389,-0.4590,-0.8389,-1.404,1.648,0.183,-150.930,19.874,-12.283
10234,-0.3398,-0.4575,-0.8433,-1.038,1.160,0.183,-150.952,19.858,-12.288
10244,-0.3408,-0.4580,-0.8433,-0.244,0.671,0.244,-150.963,19.852,-12.294
10254,-0.3408,-0.4565,-0.8413,0.610,0.244,0.244,-150.963,19.847,-12.299
10264,-0.3452,-0.4551,-0.8389,1.221,-0.122,0.305,-150.958,19.852,-12.299
10274,-0.3447,-0.4561,-0.8350,1.465,-0.366,0.183,-150.947,19.858,-12.299
10284,-0.3423,-0.4546,-0.8311,1.282,-0.427,0.061,-150.936,19.858,-12.299
10294,-0.3418,-0.4531,-0.8311,0.549,-0.366,-0.061,-150.936,19.863,-12.299
10304,-0.3403,-0.4507,-0.8315,-0.122,-0.427,-0.122,-150.941,19.863,-12.294
10314,-0.3374,-0.4526,-0.8330,-0.488,-0.671,-0.244,-150.947,19.869,-12.288
10324,-0.3340,-0.4561,-0.8340,-0.549,-1.099,-0.488,-150.952,19.869,-12.277
10334,-0.3315,-0.4565,-0.8325,-0.427,-1.404,-0.610,-150.958,19.874,-12.266
10344,-0.3301,-0.4556,-0.8296,-0.061,-1.648,-0.488,-150.958,19.880,-12.250
10354,-0.3325,-0.4575,-0.8262,0.488,-1.770,-0.366,-150.947,19.885,-12.239
10364,-0.3325,-0.4580,-0.8237,1.038,-1.709,-0.244,-150.936,19.896,-12.228
10374,-0.3369,-0.4595,-0.8193,1.343,-1.526,-0.061,-150.914,19.907,-12.222
10384,-0.3359,-0.4580,-0.8154,1.160,-1.038,0.061,-150.897,19.913,-12.217
10394,-0.3398,-0.4561,-0.8154,0.488,-0.427,0.122,-150.892,19.918,-12.217
10404,-0.3403,-0.4531,-0.8145,-0.183,0.122,0.183,-150.897,19.918,-12.217
10414,-0.3418,-0.4517,-0.8188,-0.732,0.549,0.000,-150.908,19.918,-12.217
10424,-0.3418,-0.4502,-0.8208,-1.038,0.732,-0.244,-150.919,19.913,-12.222
10434,-0.3408,-0.4536,-0.8257,-1.038,0.793,-0.488,-150.936,19.902,-12.222
10444,-0.3394,-0.4565,-0.8301,-1.038,0.793,-0.793,-150.947,19.891,-12.217
10454,-0.3384,-0.4590,-0.8340,-1.038,0.549,-0.916,-150.958,19.880,-12.211
10464,-0.3369,-0.4619,-0.8335,-0.916,0.061,-0.977,-150.963,19.869,-12.200
10474,-0.3389,-0.4648,-0.8345,-0.671,-0.366,-0.977,-150.963,19.863,-12.189
10484,-0.3398,-0.4648,-0.8335,-0.244,-0.854,-0.732,-150.963,19.863,-12.178
10494,-0.3413,-0.4639,-0.8306,0.366,-1.221,-0.427,-150.952,19.874,-12.173
10504,-0.3428,-0.4644,-0.8267,0.977,-1.343,-0.366,-150.936,19.880,-12.162
10515,-0.3428,-0.4668,-0.8228,1.160,-1.282,-0.366,-150.919,19.891,-12.151
10524,-0.3389,-0.4663,-0.8232,0.793,-1.038,-0.183,-150.903,19.896,-12.145
10534,-0.3359,-0.4663,-0.8247,0.122,-0.793,0.122,-150.897,19.902,-12.140
10544,-0.3325,-0.4639,-0.8237,-0.427,-0.610,0.366,-150.897,19.902,-12.140
10554,-0.3350,-0.4580,-0.8262,-0.549,-0.427,0.488,-150.903,19.907,-12.140
10564,-0.3354,-0.4561,-0.8237,-0.122,-0.305,0.427,-150.908,19.907,-12.145
10574,-0.3369,-0.4541,-0.8228,0.488,-0.061,0.488,-150.908,19.907,-12.151
10584,-0.3364,-0.4551,-0.8232,0.916,0.244,0.366,-150.903,19.907,-12.156
10594,-0.3350,-0.4556,-0.8247,0.793,0.366,0.305,-150.897,19.902,-12.156
10604,-0.3374,-0.4521,-0.8252,0.305,0.305,0.366,-150.897,19.896,-12.162
10614,-0.3389,-0.4512,-0.8276,-0.183,0.183,0.305,-150.908,19.896,-12.167
10624,-0.3384,-0.4517,-0.8291,-0.427,0.122,0.244,-150.919,19.896,-12.173
10634,-0.3394,-0.4517,-0.8320,-0.549,0.000,0.122,-150.930,19.896,-12.173
10644,-0.3394,-0.4541,-0.8345,-0.488,-0.122,0.122,-150.941,19.891,-12.173
10654,-0.3384,-0.4536,-0.8389,-0.366,-0.244,0.061,-150.947,19.891,-12.173
10664,-0.3384,-0.4526,-0.8394,-0.122,-0.488,0.000,-150.958,19.891,-12.167
10674,-0.3384,-0.4531,-0.8340,0.183,-0.854,-0.183,-150.958,19.896,-12.162
10684,-0.3374,-0.4565,-0.8325,0.427,-1.160,-0.366,-150.952,19.902,-12.151
10694,-0.3364,-0.4565,-0.8257,0.488,-1.526,-0.427,-150.947,19.907,-12.140
10704,-0.3398,-0.4536,-0.8257,0.366,-1.770,-0.244,-150.941,19.924,-12.129
10714,-0.3408,-0.4585,-0.8232,0.244,-1.648,-0.183,-150.936,19.935,-12.118
10724,-0.3408,-0.4580,-0.8223,0.061,-1.221,-0.366,-150.930,19.946,-12.112
10734,-0.3389,-0.4600,-0.8223,-0.244,-0.732,-0.488,-150.930,19.946,-12.101
10744,-0.3379,-0.4604,-0.8213,-0.549,-0.305,-0.549,-150.930,19.946,-12.096
10754,-0.3359,-0.4624,-0.8267,-0.671,-0.122,-0.488,-150.930,19.940,-12.090
10764,-0.3364,-0.4619,-0.8281,-0.549,-0.305,-0.427,-150.936,19.935,-12.085
10774,-0.3384,-0.4653,-0.8257,-0.244,-0.610,-0.366,-150.930,19.935,-12.079
10784,-0.3374,-0.4648,-0.8247,0.244,-0.793,-0.183,-150.925,19.940,-12.074
10794,-0.3379,-0.4624,-0.8218,0.610,-0.854,0.000,-150.914,19.946,-12.068
10804,-0.3408,-0.4624,-0.8193,0.732,-0.671,0.061,-150.903,19.951,-12.063
10814,-0.3403,-0.4619,-0.8208,0.488,-0.427,0.183,-150.892,19.957,-12.063
10824,-0.3423,-0.4585,-0.8198,0.244,-0.183,0.366,-150.892,19.957,-12.068
10834,-0.3433,-0.4561,-0.8203,0.061,-0.061,0.549,-150.892,19.962,-12.074
10844,-0.3442,-0.4551,-0.8188,0.061,-0.122,0.427,-150.892,19.968,-12.074
10854,-0.3413,-0.4551,-0.8179,0.122,-0.122,0.244,-150.892,19.973,-12.074
10864,-0.3413,-0.4565,-0.8184,0.122,-0.122,0.183,-150.892,19.973,-12.079
10874,-0.3374,-0.4570,-0.8193,0.061,0.122,0.122,-150.892,19.973,-12.079
10884,-0.3364,-0.4561,-0.8223,-0.183,0.366,0.061,-150.897,19.968,-12.079
10894,-0.3384,-0.4546,-0.8228,-0.305,0.488,0.122,-150.903,19.962,-12.085
10904,-0.3374,-0.4565,-0.8213,-0.244,0.610,0.122,-150.903,19.951,-12.090
10914,-0.3364,-0.4565,-0.8218,-0.122,0.854,0.000,-150.908,19.946,-12.096
10924,-0.3374,-0.4561,-0.8247,-0.183,1.099,-0.122,-150.914,19.929,-12.096
10934,-0.3374,-0.4575,-0.8262,-0.305,1.282,-0.061,-150.919,19.918,-12.107
10944,-0.3374,-0.4595,-0.8281,-0.427,1.282,0.000,-150.925,19.902,-12.112
10954,-0.3374,-0.4595,-0.8354,-0.549,1.038,0.061,-150.936,19.891,-12.118
10964,-0.3379,-0.4590,-0.8364,-0.549,0.732,0.061,-150.947,19.880,-12.123
10974,-0.3379,-0.4595,-0.8354,-0.366,0.549,0.122,-150.952,19.874,-12.123
10984,-0.3374,-0.4595,-0.8379,-0.061,0.305,0.183,-150.958,19.869,-12.129
10994,-0.3369,-0.4600,-0.8379,0.183,0.061,0.244,-150.963,19.863,-12.129
11004,-0.3379,-0.4595,-0.8350,0.427,-0.244,0.244,-150.958,19.863,-12.134
11015,-0.3384,-0.4604,-0.8315,0.427,-0.488,0.366,-150.958,19.863,-12.134
11024,-0.3403,-0.4575,-0.8306,0.427,-0.671,0.305,-150.952,19.874,-12.134
11034,-0.3403,-0.4551,-0.8252,0.427,-0.610,0.244,-150.952,19.880,-12.134
11044,-0.3408,-0.4531,-0.8262,0.366,-0.549,0.183,-150.947,19.885,-12.129
11054,-0.3403,-0.4521,-0.8262,0.305,-0.427,0.183,-150.952,19.891,-12.129
11064,-0.3394,-0.4502,-0.8247,0.122,-0.305,0.061,-150.952,19.891,-12.129
11074,-0.3364,-0.4512,-0.8257,-0.122,-0.305,-0.061,-150.958,19.891,-12.129
11084,-0.3359,-0.4507,-0.8271,-0.305,-0.305,-0.122,-150.963,19.891,-12.129
11094,-0.3379,-0.4521,-0.8271,-0.366,-0.366,-0.183,-150.969,19.891,-12.129
11104,-0.3389,-0.4517,-0.8262,-0.244,-0.305,-0.305,-150.974,19.891,-12.129
11114,-0.3389,-0.4551,-0.8232,-0.061,-0.244,-0.427,-150.974,19.891,-12.129
11124,-0.3384,-0.4551,-0.8262,0.000,-0.183,-0.549,-150.974,19.891,-12.129
11134,-0.3394,-0.4575,-0.8242,0.000,-0.122,-0.549,-150.969,19.885,-12.129
11144,-0.3413,-0.4575,-0.8242,0.000,-0.183,-0.488,-150.969,19.885,-12.129
11154,-0.3403,-0.4570,-0.8247,-0.061,-0.427,-0.366,-150.969,19.885,-12.129
11164,-0.3394,-0.4575,-0.8237,-0.061,-0.366,-0.305,-150.969,19.885,-12.129
11174,-0.3369,-0.4580,-0.8213,0.000,-0.183,-0.305,-150.963,19.885,-12.129
11185,-0.3345,-0.4585,-0.8232,-0.061,0.061,-0.305,-150.963,19.880,-12.129
11194,-0.3359,-0.4609,-0.8247,-0.122,0.183,-0.183,-150.963,19.874,-12.129
11204,-0.3359,-0.4590,-0.8276,-0.122,0.122,-0.122,-150.963,19.869,-12.129
11214,-0.3374,-0.4570,-0.8271,-0.122,0.244,-0.122,-150.969,19.863,-12.129
11224,-0.3369,-0.4561,-0.8301,-0.122,0.366,-0.061,-150.969,19.858,-12.129
11234,-0.3369,-0.4565,-0.8281,-0.244,0.488,0.000,-150.974,19.852,-12.129
11244,-0.3364,-0.4565,-0.8291,-0.305,0.427,0.061,-150.980,19.847,-12.129
11254,-0.3389,-0.4556,-0.8306,-0.183,0.305,0.061,-150.985,19.841,-12.129
11264,-0.3374,-0.4570,-0.8325,0.000,0.183,0.000,-150.991,19.836,-12.129
11274,-0.3379,-0.4551,-0.8340,0.061,0.000,-0.061,-150.991,19.836,-12.129
11284,-0.3369,-0.4561,-0.8315,0.244,-0.183,-0.061,-150.991,19.836,-12.129
11294,-0.3394,-0.4561,-0.8345,0.305,-0.366,-0.122,-150.991,19.836,-12.129
11304,-0.3379,-0.4561,-0.8350,0.244,-0.610,-0.183,-150.991,19.836,-12.129
11314,-0.3374,-0.4546,-0.8354,0.183,-0.793,-0.305,-150.991,19.836,-12.129
11324,-0.3374,-0.4556,-0.8325,0.122,-0.977,-0.305,-150.991,19.841,-12.129
11334,-0.3374,-0.4556,-0.8315,0.183,-1.099,-0.305,-150.991,19.847,-12.129
11344,-0.3374,-0.4565,-0.8301,0.366,-1.038,-0.305,-150.985,19.852,-12.129
11354,-0.3384,-0.4590,-0.8281,0.366,-0.977,-0.305,-150.980,19.858,-12.129
11364,-0.3359,-0.4585,-0.8276,0.244,-0.916,-0.183,-150.974,19.863,-12.129
11374,-0.3369,-0.4575,-0.8276,0.183,-0.916,-0.122,-150.974,19.869,-12.129
11384,-0.3374,-0.4570,-0.8257,0.122,-1.038,-0.122,-150.969,19.874,-12.129
11394,-0.3359,-0.4561,-0.8218,0.244,-1.099,-0.183,-150.963,19.880,-12.129
11404,-0.3379,-0.4551,-0.8203,0.305,-1.038,-0.183,-150.958,19.885,-12.129
11414,-0.3398,-0.4551,-0.8213,0.305,-1.038,-0.305,-150.952,19.896,-12.129
11424,-0.3403,-0.4561,-0.8174,0.244,-0.793,-0.366,-150.947,19.902,-12.129
11434,-0.3384,-0.4580,-0.8208,-0.061,-0.671,-0.366,-150.947,19.902,-12.129
11444,-0.3359,-0.4570,-0.8213,-0.427,-0.549,-0.366,-150.947,19.907,-12.129
11454,-0.3364,-0.4556,-0.8237,-0.549,-0.610,-0.305,-150.952,19.907,-12.129
11464,-0.3384,-0.4585,-0.8242,-0.305,-0.610,-0.305,-150.952,19.907,-12.129
11474,-0.3398,-0.4590,-0.8237,0.000,-0.549,-0.366,-150.947,19.913,-12.129
11484,-0.3408,-0.4600,-0.8184,0.305,-0.305,-0.427,-150.941,19.913,-12.129
11494,-0.3394,-0.4644,-0.8169,0.305,-0.122,-0.366,-150.930,19.913,-12.129
11504,-0.3398,-0.4644,-0.8203,-0.061,0.122,-0.183,-150.925,19.907,-12.129
11515,-0.3369,-0.4634,-0.8203,-0.610,0.427,-0.061,-150.930,19.902,-12.129
11524,-0.3364,-0.4595,-0.8262,-0.916,0.732,0.122,-150.941,19.891,-12.129
11534,-0.3379,-0.4565,-0.8291,-0.732,0.854,0.244,-150.952,19.885,-12.129
11544,-0.3379,-0.4551,-0.8315,-0.183,0.793,0.244,-150.958,19.874,-12.129
11554,-0.3389,-0.4531,-0.8325,0.427,0.671,0.183,-150.963,19.869,-12.129
11564,-0.3374,-0.4551,-0.8320,0.854,0.366,0.061,-150.958,19.863,-12.129
11574,-0.3369,-0.4536,-0.8325,0.916,-0.122,-0.061,-150.952,19.858,-12.129
11584,-0.3389,-0.4507,-0.8340,0.671,-0.610,-0.183,-150.952,19.863,-12.129
11594,-0.3423,-0.4517,-0.8320,0.366,-0.977,-0.244,-150.952,19.869,-12.129
11604,-0.3403,-0.4517,-0.8350,0.061,-1.160,-0.366,-150.952,19.880,-12.129
11614,-0.3359,-0.4521,-0.8335,-0.061,-1.221,-0.366,-150.958,19.880,-12.129
11624,-0.3335,-0.4521,-0.8359,-0.061,-1.282,-0.427,-150.958,19.885,-12.129
11634,-0.3340,-0.4531,-0.8345,0.183,-1.404,-0.610,-150.958,19.891,-12.129
11644,-0.3350,-0.4541,-0.8345,0.427,-1.526,-0.732,-150.952,19.896,-12.129
11654,-0.3354,-0.4536,-0.8325,0.671,-1.648,-0.732,-150.947,19.902,-12.129
11664,-0.3384,-0.4561,-0.8301,0.854,-1.770,-0.732,-150.936,19.913,-12.129
11674,-0.3384,-0.4575,-0.8286,0.793,-1.831,-0.916,-150.925,19.918,-12.129
11685,-0.3394,-0.4570,-0.8306,0.610,-1.831,-1.038,-150.914,19.929,-12.112
11695,-0.3408,-0.4585,-0.8271,0.305,-1.709,-1.099,-150.903,19.935,-12.090
11705,-0.3403,-0.4585,-0.8237,0.122,-1.587,-0.977,-150.897,19.946,-12.074
11715,-0.3389,-0.4590,-0.8218,0.244,-1.648,-0.916,-150.886,19.957,-12.057
11725,-0.3398,-0.4609,-0.8193,0.488,-1.709,-0.854,-150.875,19.962,-12.041
11735,-0.3418,-0.4614,-0.8164,0.732,-1.709,-0.854,-150.859,19.973,-12.025
11745,-0.3413,-0.4604,-0.8125,0.610,-1.526,-0.732,-150.842,19.984,-12.008
11755,-0.3408,-0.4639,-0.8125,0.427,-1.343,-0.732,-150.831,19.995,-11.997
11765,-0.3403,-0.4648,-0.8110,0.061,-1.099,-0.793,-150.820,20.001,-11.981
11775,-0.3394,-0.4639,-0.8145,-0.122,-0.977,-0.610,-150.809,20.006,-11.970
11785,-0.3398,-0.4653,-0.8120,-0.122,-0.793,-0.427,-150.804,20.006,-11.964
11795,-0.3408,-0.4673,-0.8130,0.000,-0.427,-0.305,-150.793,20.012,-11.959
11805,-0.3394,-0.4673,-0.8149,0.000,0.000,-0.244,-150.787,20.006,-11.953
11815,-0.3384,-0.4683,-0.8149,0.000,0.427,0.000,-150.782,20.001,-11.959
11825,-0.3389,-0.4678,-0.8145,-0.122,0.793,0.244,-150.776,19.995,-11.964
11835,-0.3384,-0.4668,-0.8184,-0.305,1.099,0.427,-150.782,19.984,-11.975
11845,-0.3384,-0.4639,-0.8218,-0.488,1.282,0.488,-150.787,19.973,-11.986
11855,-0.3398,-0.4639,-0.8232,-0.549,1.404,0.671,-150.793,19.962,-11.997
11865,-0.3408,-0.4609,-0.8267,-0.427,1.404,0.854,-150.804,19.951,-12.014
11875,-0.3413,-0.4595,-0.8267,-0.183,1.221,0.793,-150.809,19.946,-12.025
11885,-0.3408,-0.4585,-0.8271,0.122,1.038,0.732,-150.815,19.940,-12.041
11895,-0.3428,-0.4565,-0.8262,0.305,0.916,0.671,-150.820,19.935,-12.052
11905,-0.3398,-0.4556,-0.8271,0.183,0.671,0.732,-150.826,19.929,-12.063
11915,-0.3384,-0.4546,-0.8301,0.061,0.427,0.732,-150.831,19.929,-12.068
11925,-0.3394,-0.4565,-0.8306,-0.122,0.244,0.732,-150.837,19.929,-12.079
11935,-0.3408,-0.4546,-0.8320,-0.183,0.183,0.610,-150.848,19.929,-12.085
11945,-0.3374,-0.4551,-0.8340,-0.061,0.244,0.488,-150.859,19.924,-12.090
11955,-0.3384,-0.4536,-0.8335,0.061,0.183,0.488,-150.864,19.924,-12.096
11965,-0.3389,-0.4546,-0.8340,0.122,0.122,0.488,-150.870,19.918,-12.101
11975,-0.3379,-0.4531,-0.8340,0.183,0.000,0.488,-150.875,19.918,-12.107
11985,-0.3389,-0.4507,-0.8350,0.183,-0.244,0.427,-150.881,19.918,-12.107
11995,-0.3389,-0.4487,-0.8311,0.305,-0.427,0.305,-150.886,19.924,-12.107
12005,-0.3394,-0.4497,-0.8301,0.305,-0.488,0.122,-150.892,19.929,-12.107
12016,-0.3408,-0.4517,-0.8296,0.244,-0.671,-0.122,-150.892,19.929,-12.101
12025,-0.3389,-0.4512,-0.8296,0.061,-0.427,-0.366,-150.892,19.929,-12.096
12035,-0.3394,-0.4517,-0.8301,-0.061,-0.549,-0.549,-150.897,19.935,-12.090
12045,-0.3413,-0.4536,-0.8271,-0.122,-0.671,-0.671,-150.897,19.935,-12.079
12055,-0.3408,-0.4575,-0.8262,-0.122,-0.732,-0.732,-150.897,19.935,-12.068
12065,-0.3374,-0.4595,-0.8252,-0.183,-0.854,-0.793,-150.897,19.935,-12.057
12075,-0.3369,-0.4609,-0.8208,-0.305,-0.793,-0.671,-150.892,19.940,-12.047
12085,-0.3364,-0.4614,-0.8262,-0.427,-0.610,-0.488,-150.892,19.940,-12.041
12095,-0.3364,-0.4629,-0.8242,-0.488,-0.488,-0.427,-150.892,19.935,-12.030
12105,-0.3389,-0.4604,-0.8228,-0.366,-0.305,-0.366,-150.897,19.935,-12.030
12115,-0.3408,-0.4604,-0.8237,-0.061,-0.244,-0.366,-150.892,19.935,-12.025
12125,-0.3413,-0.4600,-0.8208,0.305,-0.366,-0.366,-150.886,19.935,-12.019
12135,-0.3428,-0.4648,-0.8184,0.427,-0.488,-0.366,-150.875,19.940,-12.014
12145,-0.3423,-0.4644,-0.8193,0.183,-0.427,-0.244,-150.870,19.940,-12.008
12155,-0.3418,-0.4648,-0.8184,-0.244,-0.244,-0.122,-150.864,19.946,-12.003
12165,-0.3398,-0.4663,-0.8179,-0.610,0.000,0.000,-150.864,19.946,-12.003
12175,-0.3398,-0.4629,-0.8218,-0.671,0.122,0.061,-150.870,19.940,-12.008
12185,-0.3408,-0.4614,-0.8208,-0.549,0.366,0.244,-150.875,19.940,-12.008
12195,-0.3394,-0.4595,-0.8208,-0.183,0.427,0.366,-150.875,19.935,-12.014
12205,-0.3369,-0.4595,-0.8218,0.244,0.427,0.366,-150.875,19.935,-12.019
12215,-0.3379,-0.4595,-0.8247,0.488,0.244,0.305,-150.870,19.929,-12.025
12225,-0.3379,-0.4585,-0.8257,0.366,0.183,0.366,-150.870,19.929,-12.030
12235,-0.3403,-0.4575,-0.8232,0.000,0.244,0.427,-150.875,19.924,-12.036
12245,-0.3398,-0.4561,-0.8232,-0.305,0.244,0.427,-150.881,19.924,-12.041
12255,-0.3403,-0.4551,-0.8257,-0.427,0.366,0.366,-150.886,19.924,-12.047
12265,-0.3403,-0.4546,-0.8296,-0.427,0.488,0.366,-150.897,19.918,-12.052
12275,-0.3408,-0.4551,-0.8296,-0.366,0.610,0.305,-150.908,19.913,-12.057
12285,-0.3408,-0.4565,-0.8306,-0.183,0.732,0.305,-150.914,19.907,-12.063
12295,-0.3403,-0.4551,-0.8315,0.000,0.732,0.183,-150.919,19.902,-12.068
12305,-0.3384,-0.4575,-0.8320,-0.122,0.671,0.061,-150.925,19.891,-12.074
12315,-0.3398,-0.4575,-0.8330,-0.183,0.488,0.000,-150.930,19.885,-12.074
12325,-0.3403,-0.4575,-0.8320,-0.244,0.122,0.000,-150.936,19.885,-12.079
12335,-0.3418,-0.4565,-0.8320,-0.122,-0.122,0.000,-150.941,19.885,-12.074
12345,-0.3398,-0.4575,-0.8286,0.122,-0.183,-0.061,-150.941,19.885,-12.074
12355,-0.3394,-0.4561,-0.8286,0.305,-0.183,0.000,-150.941,19.885,-12.074
12365,-0.3403,-0.4556,-0.8262,0.366,-0.183,0.000,-150.936,19.885,-12.074
12375,-0.3389,-0.4531,-0.8252,0.305,-0.183,0.061,-150.936,19.885,-12.074
12385,-0.3403,-0.4546,-0.8262,0.244,-0.183,-0.061,-150.936,19.885,-12.068
12395,-0.3408,-0.4580,-0.8252,0.244,-0.183,-0.244,-150.930,19.885,-12.068
12405,-0.3369,-0.4570,-0.8232,0.122,-0.183,-0.366,-150.930,19.885,-12.063
12415,-0.3359,-0.4575,-0.8247,-0.183,-0.122,-0.366,-150.930,19.880,-12.057
12425,-0.3364,-0.4590,-0.8232,-0.305,-0.183,-0.183,-150.930,19.880,-12.057
12435,-0.3398,-0.4590,-0.8242,-0.183,-0.244,-0.122,-150.936,19.880,-12.052
12445,-0.3403,-0.4585,-0.8232,0.061,-0.183,-0.183,-150.930,19.880,-12.052
12455,-0.3398,-0.4585,-0.8228,0.305,-0.061,-0.244,-150.925,19.880,-12.047
12465,-0.3369,-0.4595,-0.8242,0.244,0.122,-0.244,-150.925,19.874,-12.047
12475,-0.3394,-0.4575,-0.8252,0.000,0.183,-0.122,-150.925,19.874,-12.047
12485,-0.3394,-0.4595,-0.8262,-0.183,0.244,-0.061,-150.925,19.869,-12.047
12495,-0.3408,-0.4590,-0.8247,-0.183,0.244,0.000,-150.930,19.869,-12.047
12505,-0.3394,-0.4570,-0.8276,-0.122,0.244,0.000,-150.930,19.863,-12.052
12516,-0.3398,-0.4580,-0.8296,0.000,0.183,0.000,-150.936,19.863,-12.052
12525,-0.3394,-0.4600,-0.8281,0.244,0.061,-0.183,-150.930,19.858,-12.052
12535,-0.3389,-0.4595,-0.8291,0.366,-0.061,-0.183,-150.925,19.858,-12.047
12545,-0.3398,-0.4604,-0.8276,0.427,-0.183,-0.183,-150.919,19.858,-12.047
12555,-0.3398,-0.4614,-0.8242,0.366,-0.183,-0.183,-150.914,19.858,-12.041
12565,-0.3403,-0.4600,-0.8257,0.183,-0.122,-0.122,-150.914,19.858,-12.041
12575,-0.3403,-0.4590,-0.8286,0.061,0.000,-0.061,-150.914,19.852,-12.041
12585,-0.3403,-0.4604,-0.8276,-0.061,0.061,0.000,-150.914,19.852,-12.041
12595,-0.3389,-0.4595,-0.8276,-0.122,0.061,0.000,-150.914,19.852,-12.041
12605,-0.3394,-0.4604,-0.8267,-0.122,-0.061,-0.061,-150.914,19.852,-12.041
12615,-0.3403,-0.4590,-0.8281,-0.061,-0.244,-0.183,-150.914,19.852,-12.036
12625,-0.3394,-0.4604,-0.8267,0.000,-0.549,-0.244,-150.914,19.852,-12.030
12635,-0.3403,-0.4614,-0.8228,0.061,-0.854,-0.244,-150.908,19.858,-12.025
12645,-0.3408,-0.4609,-0.8228,-0.061,-0.916,-0.183,-150.908,19.863,-12.019
12655,-0.3408,-0.4604,-0.8232,-0.061,-0.793,-0.183,-150.903,19.874,-12.014
12665,-0.3413,-0.4614,-0.8208,0.061,-0.610,-0.122,-150.897,19.874,-12.008
12675,-0.3403,-0.4609,-0.8193,0.183,-0.427,-0.122,-150.892,19.880,-12.008
12685,-0.3398,-0.4624,-0.8174,0.061,-0.366,0.000,-150.886,19.885,-12.003
12695,-0.3384,-0.4619,-0.8169,-0.183,-0.183,0.061,-150.886,19.885,-12.003
12705,-0.3384,-0.4634,-0.8184,-0.488,0.122,0.122,-150.886,19.885,-12.003
12715,-0.3374,-0.4609,-0.8228,-0.671,0.366,0.244,-150.892,19.880,-12.003
12725,-0.3379,-0.4561,-0.8252,-0.610,0.671,0.366,-150.903,19.874,-12.003
12735,-0.3389,-0.4536,-0.8252,-0.122,0.732,0.427,-150.908,19.869,-12.003
12745,-0.3394,-0.4546,-0.8218,0.549,0.671,0.244,-150.908,19.863,-12.003
12755,-0.3408,-0.4561,-0.8184,0.854,0.427,0.122,-150.903,19.863,-12.003
12765,-0.3433,-0.4546,-0.8159,0.610,0.305,0.000,-150.897,19.863,-12.003
12775,-0.3403,-0.4570,-0.8174,0.061,0.610,-0.061,-150.892,19.858,-12.003
12785,-0.3398,-0.4565,-0.8213,-0.671,1.099,-0.061,-150.903,19.847,-12.003
12795,-0.3379,-0.4580,-0.8242,-1.221,1.587,-0.061,-150.919,19.836,-12.003
12805,-0.3384,-0.4570,-0.8291,-1.465,1.831,0.000,-150.936,19.814,-12.003
12815,-0.3359,-0.4575,-0.8325,-1.160,1.770,0.061,-150.958,19.797,-12.003
12825,-0.3364,-0.4575,-0.8359,-0.549,1.465,0.061,-150.969,19.781,-12.003
12835,-0.3384,-0.4565,-0.8345,0.122,0.977,0.061,-150.969,19.770,-12.003
12845,-0.3379,-0.4595,-0.8301,0.610,0.549,-0.061,-150.969,19.764,-12.003
12855,-0.3384,-0.4609,-0.8291,0.732,0.305,-0.061,-150.958,19.759,-12.003
12865,-0.3394,-0.4600,-0.8291,0.549,0.305,0.061,-150.952,19.759,-12.003
12875,-0.3398,-0.4609,-0.8281,0.305,0.305,0.183,-150.952,19.753,-12.003
12885,-0.3394,-0.4595,-0.8276,0.183,0.305,0.122,-150.952,19.753,-12.003
12895,-0.3403,-0.4590,-0.8271,0.183,0.366,0.061,-150.952,19.753,-12.003
12905,-0.3394,-0.4595,-0.8247,0.305,0.427,0.061,-150.947,19.748,-12.003
12915,-0.3389,-0.4600,-0.8232,0.427,0.549,0.000,-150.941,19.742,-12.003
12925,-0.3379,-0.4595,-0.8223,0.488,0.610,-0.061,-150.936,19.737,-12.003
12935,-0.3374,-0.4604,-0.8237,0.366,0.488,-0.061,-150.930,19.731,-12.003
12945,-0.3379,-0.4604,-0.8232,0.183,0.366,0.000,-150.930,19.731,-12.003
12955,-0.3389,-0.4604,-0.8228,0.000,0.305,0.122,-150.930,19.726,-12.003
12965,-0.3394,-0.4580,-0.8213,-0.061,0.488,0.122,-150.930,19.726,-12.003
12975,-0.3398,-0.4600,-0.8218,0.061,0.671,0.244,-150.930,19.720,-12.003
12985,-0.3379,-0.4590,-0.8232,0.244,0.977,0.183,-150.930,19.715,-12.003
12995,-0.3369,-0.4604,-0.8237,0.305,1.038,0.183,-150.925,19.704,-12.003
13005,-0.3379,-0.4590,-0.8247,0.061,0.916,0.183,-150.930,19.698,-12.003
13016,-0.3369,-0.4619,-0.8228,-0.244,0.854,0.122,-150.930,19.693,-12.003
13025,-0.3369,-0.4609,-0.8218,-0.549,0.916,0.122,-150.936,19.682,-12.003
13035,-0.3369,-0.4624,-0.8257,-0.732,1.038,0.061,-150.941,19.671,-12.003
13045,-0.3345,-0.4624,-0.8276,-0.793,1.282,0.061,-150.952,19.660,-12.003
13055,-0.3354,-0.4609,-0.8306,-0.732,1.404,0.244,-150.963,19.649,-12.003
13065,-0.3379,-0.4609,-0.8296,-0.427,1.221,0.427,-150.969,19.638,-12.003
13075,-0.3369,-0.4600,-0.8281,0.000,1.038,0.488,-150.974,19.633,-12.003
13085,-0.3359,-0.4614,-0.8262,0.366,0.977,0.488,-150.969,19.622,-12.003
13095,-0.3369,-0.4609,-0.8257,0.366,1.160,0.488,-150.969,19.616,-12.003
13105,-0.3374,-0.4595,-0.8281,-0.061,1.343,0.549,-150.974,19.605,-12.003
13115,-0.3359,-0.4561,-0.8301,-0.549,1.465,0.671,-150.985,19.600,-12.003
13125,-0.3374,-0.4541,-0.8335,-0.916,1.404,0.610,-151.002,19.589,-12.003
13135,-0.3359,-0.4507,-0.8364,-0.916,1.221,0.427,-151.024,19.578,-12.003
13145,-0.3354,-0.4517,-0.8350,-0.488,0.854,0.061,-151.035,19.572,-12.003
13155,-0.3350,-0.4546,-0.8350,0.000,0.488,-0.122,-151.040,19.561,-12.003
13165,-0.3354,-0.4551,-0.8354,0.305,0.122,-0.244,-151.040,19.561,-12.003
13175,-0.3359,-0.4551,-0.8325,0.427,-0.122,-0.366,-151.035,19.561,-12.003
13186,-0.3379,-0.4565,-0.8296,0.549,-0.183,-0.305,-151.035,19.561,-12.003
13195,-0.3374,-0.4600,-0.8286,0.549,-0.061,-0.305,-151.024,19.561,-12.003
13205,-0.3369,-0.4604,-0.8262,0.244,0.000,-0.244,-151.018,19.556,-12.003
13215,-0.3364,-0.4595,-0.8242,0.000,0.122,-0.183,-151.018,19.556,-12.003
13225,-0.3379,-0.4575,-0.8232,-0.183,0.244,-0.122,-151.018,19.556,-12.003
13235,-0.3350,-0.4556,-0.8247,-0.122,0.366,0.000,-151.024,19.556,-12.003
13245,-0.3369,-0.4561,-0.8223,0.061,0.549,0.000,-151.024,19.550,-12.003
13255,-0.3350,-0.4551,-0.8218,0.122,0.732,0.000,-151.024,19.545,-12.003
13265,-0.3335,-0.4541,-0.8242,0.000,0.793,-0.061,-151.024,19.539,-12.003
13275,-0.3335,-0.4556,-0.8267,-0.244,0.854,-0.061,-151.029,19.528,-12.003
13285,-0.3340,-0.4570,-0.8271,-0.610,0.732,-0.122,-151.035,19.523,-12.003
13295,-0.3350,-0.4585,-0.8257,-0.793,0.610,-0.122,-151.046,19.517,-12.003
13305,-0.3335,-0.4590,-0.8267,-0.732,0.549,-0.183,-151.051,19.506,-12.003
13315,-0.3345,-0.4595,-0.8271,-0.549,0.610,-0.244,-151.057,19.501,-12.003
13325,-0.3350,-0.4580,-0.8262,-0.305,0.732,-0.244,-151.057,19.495,-12.003
13335,-0.3325,-0.4600,-0.8286,-0.122,0.793,-0.244,-151.057,19.484,-12.003
13345,-0.3354,-0.4600,-0.8281,-0.122,0.732,-0.183,-151.062,19.479,-12.003
13355,-0.3345,-0.4604,-0.8296,-0.244,0.671,-0.122,-151.062,19.473,-12.003
13365,-0.3340,-0.4585,-0.8315,-0.305,0.610,-0.061,-151.068,19.462,-12.003
13375,-0.3345,-0.4570,-0.8296,-0.183,0.427,-0.122,-151.068,19.462,-12.003
13385,-0.3364,-0.4580,-0.8262,0.183,0.122,-0.244,-151.068,19.457,-12.003
13395,-0.3350,-0.4590,-0.8223,0.610,-0.183,-0.366,-151.057,19.462,-12.003
13405,-0.3340,-0.4639,-0.8203,0.732,-0.122,-0.366,-151.040,19.462,-12.003
13415,-0.3340,-0.4648,-0.8213,0.366,0.183,-0.366,-151.035,19.457,-12.003
13425,-0.3320,-0.4634,-0.8218,-0.061,0.793,-0.183,-151.029,19.451,-12.003
13435,-0.3325,-0.4639,-0.8247,-0.488,1.343,0.122,-151.035,19.435,-12.003
13445,-0.3340,-0.4639,-0.8271,-0.610,1.587,0.366,-151.040,19.424,-12.003
13455,-0.3320,-0.4629,-0.8281,-0.610,1.587,0.427,-151.046,19.413,-12.003
13465,-0.3325,-0.4600,-0.8335,-0.366,1.404,0.488,-151.057,19.402,-12.003
13475,-0.3330,-0.4585,-0.8350,-0.061,1.160,0.549,-151.062,19.391,-12.003
13485,-0.3315,-0.4565,-0.8359,0.122,0.916,0.488,-151.068,19.385,-12.003
13495,-0.3325,-0.4551,-0.8340,0.122,0.610,0.427,-151.068,19.380,-12.003
13505,-0.3306,-0.4517,-0.8345,0.183,0.183,0.244,-151.073,19.380,-12.003
13516,-0.3335,-0.4512,-0.8359,0.366,-0.244,0.183,-151.078,19.380,-12.003
13525,-0.3325,-0.4536,-0.8335,0.610,-0.549,0.061,-151.073,19.385,-12.003
13535,-0.3315,-0.4565,-0.8306,0.793,-0.732,-0.122,-151.068,19.391,-12.003
13545,-0.3301,-0.4561,-0.8296,0.793,-0.732,-0.244,-151.057,19.391,-12.003
13555,-0.3315,-0.4565,-0.8281,0.671,-0.732,-0.244,-151.051,19.396,-12.003
13565,-0.3315,-0.4575,-0.8301,0.488,-0.549,-0.244,-151.046,19.402,-12.003
13575,-0.3311,-0.4575,-0.8301,0.305,-0.427,-0.183,-151.040,19.402,-12.003
13585,-0.3335,-0.4565,-0.8315,0.183,-0.244,-0.183,-151.040,19.402,-12.003
13595,-0.3345,-0.4570,-0.8301,0.183,-0.183,-0.183,-151.040,19.402,-12.003
13605,-0.3330,-0.4575,-0.8330,0.244,-0.122,-0.183,-151.035,19.402,-12.003
13615,-0.3335,-0.4556,-0.8350,0.366,-0.244,-0.183,-151.035,19.402,-12.003
13625,-0.3340,-0.4556,-0.8315,0.427,-0.366,-0.244,-151.035,19.407,-12.003
13635,-0.3350,-0.4565,-0.8306,0.244,-0.549,-0.305,-151.029,19.407,-12.003
13645,-0.3359,-0.4561,-0.8286,0.183,-0.671,-0.488,-151.024,19.413,-12.003
13655,-0.3330,-0.4590,-0.8276,0.122,-0.793,-0.610,-151.024,19.418,-12.003
13665,-0.3335,-0.4604,-0.8252,0.122,-0.854,-0.610,-151.013,19.424,-12.003
13675,-0.3359,-0.4614,-0.8252,0.000,-0.671,-0.549,-151.013,19.429,-12.003
13685,-0.3340,-0.4619,-0.8228,0.000,-0.549,-0.366,-151.007,19.429,-12.003
13695,-0.3315,-0.4580,-0.8237,0.122,-0.427,-0.366,-151.002,19.429,-12.003
13705,-0.3325,-0.4600,-0.8223,0.305,-0.427,-0.488,-150.991,19.435,-12.003
13715,-0.3325,-0.4639,-0.8198,0.366,-0.427,-0.610,-150.980,19.435,-12.003
13725,-0.3325,-0.4639,-0.8193,0.122,-0.305,-0.732,-150.974,19.435,-12.003
13735,-0.3325,-0.4648,-0.8169,-0.427,-0.061,-0.610,-150.969,19.429,-12.003
13745,-0.3325,-0.4653,-0.8184,-0.732,0.183,-0.488,-150.969,19.429,-12.003
13755,-0.3325,-0.4668,-0.8174,-0.793,0.366,-0.366,-150.969,19.424,-12.003
13765,-0.3345,-0.4663,-0.8193,-0.610,0.549,-0.305,-150.969,19.418,-12.003
13775,-0.3345,-0.4673,-0.8228,-0.305,0.610,-0.183,-150.969,19.413,-12.003
13785,-0.3340,-0.4663,-0.8223,-0.061,0.671,0.061,-150.963,19.407,-12.003
13795,-0.3359,-0.4658,-0.8228,0.122,0.671,0.244,-150.958,19.407,-12.003
13805,-0.3369,-0.4653,-0.8213,0.183,0.732,0.305,-150.958,19.402,-12.003
13815,-0.3335,-0.4619,-0.8232,0.122,0.854,0.305,-150.952,19.396,-12.003
13825,-0.3330,-0.4629,-0.8242,0.000,0.854,0.305,-150.952,19.391,-12.003
13835,-0.3345,-0.4609,-0.8247,-0.122,0.854,0.366,-150.958,19.385,-12.003
13845,-0.3320,-0.4600,-0.8237,-0.122,0.793,0.366,-150.958,19.380,-12.003
13855,-0.3345,-0.4590,-0.8232,0.000,0.854,0.427,-150.958,19.380,-12.003
13865,-0.3345,-0.4565,-0.8232,0.183,1.099,0.488,-150.963,19.374,-12.003
13875,-0.3345,-0.4565,-0.8228,0.183,1.404,0.549,-150.963,19.363,-12.003
13885,-0.3364,-0.4575,-0.8242,0.000,1.892,0.610,-150.969,19.352,-12.003
13895,-0.3354,-0.4570,-0.8267,-0.366,2.258,0.610,-150.980,19.341,-12.003
13905,-0.3335,-0.4536,-0.8311,-0.732,2.258,0.488,-150.996,19.325,-12.003
13915,-0.3335,-0.4521,-0.8306,-0.793,2.014,0.305,-151.013,19.308,-12.003
13925,-0.3345,-0.4517,-0.8364,-0.610,1.526,0.122,-151.029,19.297,-12.003
13935,-0.3311,-0.4565,-0.8345,-0.183,1.099,-0.183,-151.035,19.286,-12.003
13945,-0.3296,-0.4595,-0.8364,-0.122,0.732,-0.366,-151.035,19.276,-12.003
13955,-0.3262,-0.4604,-0.8345,-0.305,0.488,-0.244,-151.040,19.265,-12.003
13965,-0.3271,-0.4595,-0.8354,-0.549,0.305,0.061,-151.046,19.259,-12.003
13975,-0.3301,-0.4556,-0.8330,-0.427,0.244,0.122,-151.057,19.259,-12.003
13985,-0.3306,-0.4536,-0.8350,0.000,0.061,-0.061,-151.062,19.254,-12.003
13995,-0.3325,-0.4536,-0.8340,0.610,-0.244,-0.244,-151.057,19.259,-12.003
14005,-0.3306,-0.4556,-0.8281,0.977,-0.488,-0.488,-151.046,19.259,-12.003
14016,-0.3315,-0.4609,-0.8218,0.793,-0.549,-0.610,-151.029,19.265,-12.003
14025,-0.3320,-0.4644,-0.8218,0.122,-0.305,-0.671,-151.024,19.265,-12.003
14035,-0.3320,-0.4653,-0.8237,-0.793,0.244,-0.610,-151.024,19.259,-12.003
14045,-0.3325,-0.4653,-0.8286,-1.404,0.793,-0.366,-151.035,19.248,-12.003
14055,-0.3311,-0.4648,-0.8301,-1.709,1.282,-0.183,-151.051,19.237,-12.003
14065,-0.3301,-0.4614,-0.8325,-1.465,1.526,0.061,-151.068,19.226,-12.003
14075,-0.3301,-0.4590,-0.8350,-1.038,1.465,0.244,-151.084,19.210,-12.003
14085,-0.3311,-0.4570,-0.8384,-0.488,1.099,0.305,-151.095,19.204,-12.003
14095,-0.3330,-0.4575,-0.8354,0.000,0.610,0.305,-151.095,19.199,-12.003
14105,-0.3320,-0.4585,-0.8350,0.122,0.122,0.183,-151.100,19.199,-12.003
14115,-0.3320,-0.4575,-0.8350,-0.061,-0.122,0.122,-151.100,19.199,-12.003
14125,-0.3311,-0.4551,-0.8369,-0.305,-0.244,0.183,-151.106,19.204,-12.003
14135,-0.3315,-0.4526,-0.8359,-0.427,-0.305,0.244,-151.117,19.210,-12.003
14145,-0.3315,-0.4521,-0.8345,-0.366,-0.305,0.183,-151.122,19.210,-12.003
14155,-0.3306,-0.4521,-0.8320,-0.244,-0.427,0.000,-151.128,19.215,-12.003
14165,-0.3281,-0.4512,-0.8320,0.000,-0.793,-0.183,-151.133,19.221,-12.003
14175,-0.3286,-0.4546,-0.8315,0.244,-1.160,-0.366,-151.128,19.226,-12.003
14185,-0.3286,-0.4556,-0.8281,0.305,-1.526,-0.610,-151.122,19.237,-12.003
14195,-0.3315,-0.4561,-0.8262,0.061,-1.770,-0.671,-151.117,19.254,-12.003
14205,-0.3301,-0.4565,-0.8223,-0.122,-1.648,-0.671,-151.111,19.265,-12.003
14215,-0.3281,-0.4580,-0.8193,-0.122,-1.343,-0.671,-151.106,19.270,-12.003
14225,-0.3306,-0.4604,-0.8169,-0.244,-0.854,-0.671,-151.100,19.276,-12.003
14235,-0.3315,-0.4609,-0.8154,-0.183,-0.305,-0.671,-151.089,19.281,-12.003
14245,-0.3320,-0.4619,-0.8213,-0.366,0.122,-0.427,-151.089,19.276,-12.003
14255,-0.3306,-0.4609,-0.8223,-0.549,0.366,-0.305,-151.089,19.276,-12.003
14265,-0.3330,-0.4604,-0.8237,-0.793,0.427,-0.305,-151.095,19.270,-12.003
14275,-0.3315,-0.4609,-0.8242,-0.854,0.305,-0.366,-151.100,19.265,-12.003
14285,-0.3315,-0.4609,-0.8262,-0.732,0.183,-0.366,-151.106,19.265,-12.003
14295,-0.3320,-0.4609,-0.8267,-0.488,-0.183,-0.427,-151.106,19.265,-12.003
14305,-0.3345,-0.4609,-0.8267,-0.244,-0.549,-0.427,-151.100,19.270,-12.003
14315,-0.3350,-0.4629,-0.8271,-0.061,-0.732,-0.427,-151.095,19.276,-12.003
14325,-0.3354,-0.4634,-0.8247,0.061,-0.854,-0.427,-151.089,19.281,-12.003
14335,-0.3340,-0.4648,-0.8213,0.061,-0.671,-0.427,-151.078,19.286,-12.003
14345,-0.3325,-0.4692,-0.8223,-0.122,-0.488,-0.305,-151.073,19.292,-12.003
14355,-0.3311,-0.4717,-0.8247,-0.427,-0.305,-0.061,-151.068,19.292,-12.003
14365,-0.3301,-0.4702,-0.8267,-0.671,-0.122,0.305,-151.068,19.292,-12.003
14375,-0.3315,-0.4668,-0.8276,-0.793,0.061,0.610,-151.073,19.297,-12.003
14385,-0.3330,-0.4634,-0.8315,-0.671,0.183,0.854,-151.078,19.297,-12.003
14395,-0.3320,-0.4600,-0.8296,-0.305,0.244,0.916,-151.084,19.303,-12.003
14405,-0.3325,-0.4565,-0.8296,0.183,0.244,0.977,-151.089,19.303,-12.003
14415,-0.3325,-0.4541,-0.8276,0.488,0.122,1.099,-151.089,19.308,-12.014
14425,-0.3315,-0.4521,-0.8242,0.549,0.000,0.977,-151.089,19.314,-12.025
14435,-0.3340,-0.4502,-0.8208,0.427,-0.061,0.916,-151.089,19.325,-12.030
14445,-0.3345,-0.4517,-0.8213,0.183,0.061,0.793,-151.089,19.330,-12.041
14455,-0.3325,-0.4517,-0.8223,-0.183,0.183,0.732,-151.095,19.330,-12.047
14465,-0.3335,-0.4517,-0.8232,-0.610,0.488,0.610,-151.106,19.336,-12.057
14475,-0.3325,-0.4512,-0.8237,-0.916,0.732,0.549,-151.117,19.330,-12.063
14485,-0.3306,-0.4497,-0.8276,-1.099,0.977,0.427,-151.133,19.325,-12.074
14495,-0.3291,-0.4521,-0.8311,-1.160,1.038,0.183,-151.155,19.314,-12.079
14505,-0.3306,-0.4546,-0.8335,-1.038,0.854,0.061,-151.166,19.308,-12.085
14516,-0.3296,-0.4561,-0.8340,-0.793,0.488,-0.122,-151.177,19.303,-12.085
14525,-0.3311,-0.4575,-0.8311,-0.427,0.000,-0.244,-151.183,19.297,-12.085
14535,-0.3306,-0.4609,-0.8286,0.000,-0.488,-0.305,-151.177,19.303,-12.079
14545,-0.3335,-0.4648,-0.8306,0.244,-0.366,-0.244,-151.166,19.303,-12.074
14556,-0.3340,-0.4634,-0.8301,0.244,0.061,-0.061,-151.161,19.303,-12.074
14565,-0.3335,-0.4644,-0.8311,0.488,0.427,0.000,-151.155,19.297,-12.074
14576,-0.3354,-0.4624,-0.8281,0.244,0.183,0.305,-151.150,19.303,-12.079
14586,-0.3359,-0.4590,-0.8291,0.183,0.122,0.061,-151.150,19.303,-12.079
14596,-0.3335,-0.4634,-0.8281,0.427,0.305,-0.061,-151.139,19.303,-12.085
14606,-0.3306,-0.4619,-0.8350,0.183,0.610,0.183,-151.139,19.292,-12.085
14616,-0.3271,-0.4624,-0.8379,-0.549,0.671,0.244,-151.144,19.286,-12.090
14626,-0.3267,-0.4600,-0.8408,-0.916,0.366,0.366,-151.155,19.281,-12.096
14636,-0.3271,-0.4556,-0.8447,-0.549,-0.183,0.549,-151.172,19.281,-12.101
14646,-0.3296,-0.4536,-0.8428,0.366,-0.854,0.671,-151.172,19.286,-12.107
14656,-0.3296,-0.4502,-0.8389,1.404,-1.465,0.671,-151.166,19.303,-12.101
14666,-0.3335,-0.4492,-0.8345,2.136,-1.892,0.488,-151.144,19.319,-12.096
14676,-0.3340,-0.4487,-0.8267,2.441,-1.831,0.366,-151.122,19.341,-12.090
14685,-0.3320,-0.4473,-0.8213,2.014,-1.587,0.244,-151.106,19.358,-12.085
14695,-0.3335,-0.4478,-0.8223,0.977,-0.977,0.122,-151.095,19.369,-12.079
14706,-0.3335,-0.4463,-0.8242,-0.244,-0.244,-0.122,-151.106,19.374,-12.079
14716,-0.3311,-0.4478,-0.8291,-1.343,0.305,-0.488,-151.122,19.369,-12.079
14726,-0.3301,-0.4502,-0.8340,-2.014,0.488,-0.854,-151.144,19.358,-12.074
14736,-0.3311,-0.4507,-0.8403,-2.197,0.366,-1.099,-151.172,19.347,-12.063
14746,-0.3320,-0.4517,-0.8413,-1.770,-0.061,-1.282,-151.188,19.341,-12.052
14756,-0.3330,-0.4565,-0.8413,-0.854,-0.732,-1.465,-151.194,19.336,-12.036
14766,-0.3374,-0.4590,-0.8369,0.244,-1.526,-1.648,-151.188,19.341,-12.008
14776,-0.3369,-0.4639,-0.8301,1.038,-2.197,-1.648,-151.161,19.358,-11.986
14786,-0.3364,-0.4707,-0.8213,1.343,-2.686,-1.709,-151.128,19.374,-11.953
14796,-0.3335,-0.4751,-0.8179,0.916,-2.502,-1.709,-151.100,19.391,-11.926
14806,-0.3335,-0.4775,-0.8135,0.061,-1.953,-1.465,-151.073,19.396,-11.904
14816,-0.3320,-0.4751,-0.8135,-0.732,-1.099,-0.977,-151.062,19.402,-11.887
14826,-0.3325,-0.4766,-0.8169,-0.916,-0.244,-0.549,-151.057,19.402,-11.882
14836,-0.3315,-0.4761,-0.8193,-0.610,0.427,-0.305,-151.051,19.396,-11.882
14846,-0.3291,-0.4756,-0.8169,-0.183,0.793,0.061,-151.040,19.391,-11.887
14856,-0.3296,-0.4731,-0.8154,0.305,0.793,0.671,-151.029,19.385,-11.893
14866,-0.3315,-0.4702,-0.8169,0.549,0.671,1.160,-151.018,19.385,-11.909
14876,-0.3311,-0.4653,-0.8179,0.610,0.610,1.526,-151.013,19.385,-11.926
14886,-0.3325,-0.4565,-0.8179,0.610,0.427,1.892,-151.013,19.391,-11.948
14896,-0.3359,-0.4497,-0.8164,0.671,0.427,2.075,-151.013,19.402,-11.970
14906,-0.3384,-0.4453,-0.8145,0.793,0.488,1.953,-151.018,19.413,-11.986
14916,-0.3389,-0.4438,-0.8130,0.854,0.732,1.709,-151.018,19.424,-12.008
14926,-0.3408,-0.4390,-0.8086,0.732,0.977,1.404,-151.024,19.429,-12.025
14936,-0.3428,-0.4375,-0.8052,0.366,1.343,1.099,-151.029,19.435,-12.041
14946,-0.3452,-0.4365,-0.8081,0.000,1.831,0.427,-151.040,19.435,-12.057
14956,-0.3433,-0.4360,-0.8130,-0.427,2.380,-0.183,-151.051,19.418,-12.068
14966,-0.3413,-0.4434,-0.8149,-0.977,2.869,-0.732,-151.068,19.402,-12.074
14976,-0.3389,-0.4497,-0.8208,-1.648,3.113,-1.038,-151.089,19.374,-12.079
14986,-0.3359,-0.4565,-0.8286,-2.075,3.113,-1.221,-151.111,19.341,-12.085
14996,-0.3301,-0.4644,-0.8364,-2.441,2.747,-1.221,-151.133,19.308,-12.090
15006,-0.3252,-0.4702,-0.8408,-2.380,2.075,-1.099,-151.155,19.281,-12.090
15016,-0.3232,-0.4761,-0.8428,-1.953,1.343,-0.854,-151.166,19.254,-12.090
15026,-0.3213,-0.4790,-0.8442,-1.343,0.610,-0.549,-151.172,19.237,-12.085
15036,-0.3193,-0.4800,-0.8447,-0.549,0.244,-0.061,-151.172,19.226,-12.085
15046,-0.3184,-0.4814,-0.8379,0.366,0.122,0.427,-151.161,19.215,-12.090
15056,-0.3223,-0.4761,-0.8418,0.916,0.244,1.160,-151.150,19.215,-12.101
15066,-0.3228,-0.4692,-0.8413,1.465,0.610,1.770,-151.139,19.210,-12.123
15076,-0.3301,-0.4565,-0.8423,1.709,1.160,1.953,-151.133,19.204,-12.145
15086,-0.3296,-0.4443,-0.8403,2.380,1.221,1.587,-151.122,19.204,-12.167
15096,-0.3311,-0.4453,-0.8433,2.991,1.282,1.038,-151.111,19.193,-12.184
15106,-0.3247,-0.4517,-0.8389,2.869,0.977,0.427,-151.089,19.188,-12.195
15116,-0.3262,-0.4468,-0.8384,1.221,0.305,0.122,-151.089,19.182,-12.195
15126,-0.3306,-0.4497,-0.8394,-0.488,-0.244,0.061,-151.100,19.182,-12.195
15136,-0.3315,-0.4443,-0.8442,-1.831,-0.183,-0.122,-151.128,19.182,-12.195
15146,-0.3340,-0.4395,-0.8477,-2.258,0.183,-0.305,-151.166,19.182,-12.189
15156,-0.3394,-0.4390,-0.8491,-1.221,0.488,-0.732,-151.194,19.177,-12.189
15166,-0.3408,-0.4429,-0.8472,0.244,0.488,-1.160,-151.199,19.171,-12.178
15176,-0.3413,-0.4478,-0.8413,1.160,0.183,-1.526,-151.188,19.171,-12.167
15187,-0.3413,-0.4507,-0.8374,1.160,-0.427,-1.770,-151.177,19.171,-12.145
15196,-0.3437,-0.4517,-0.8340,0.549,-0.977,-1.953,-151.166,19.177,-12.123
15206,-0.3398,-0.4546,-0.8335,-0.549,-1.404,-2.197,-151.166,19.182,-12.096
15216,-0.3364,-0.4595,-0.8315,-1.282,-1.587,-2.502,-151.166,19.188,-12.063
15226,-0.3296,-0.4629,-0.8335,-1.648,-1.770,-2.686,-151.172,19.188,-12.030
15236,-0.3257,-0.4673,-0.8311,-1.282,-2.014,-2.502,-151.166,19.193,-11.997
15246,-0.3213,-0.4722,-0.8262,-0.488,-2.319,-2.197,-151.155,19.199,-11.964
15256,-0.3174,-0.4736,-0.8188,0.366,-2.686,-1.831,-151.128,19.204,-11.937
15266,-0.3188,-0.4746,-0.8120,1.038,-2.563,-1.465,-151.095,19.215,-11.909
15276,-0.3203,-0.4771,-0.8066,1.099,-1.831,-0.916,-151.062,19.221,-11.887
15286,-0.3188,-0.4780,-0.8066,0.305,-0.549,-0.427,-151.040,19.221,-11.882
15296,-0.3159,-0.4751,-0.8101,-0.732,0.610,-0.061,-151.035,19.210,-11.887
15306,-0.3193,-0.4692,-0.8164,-1.770,1.160,0.305,-151.046,19.199,-11.893
15316,-0.3228,-0.4658,-0.8184,-2.075,1.526,0.549,-151.062,19.182,-11.909
15326,-0.3271,-0.4629,-0.8223,-1.770,1.587,0.488,-151.078,19.171,-11.920
15336,-0.3320,-0.4585,-0.8247,-0.854,1.526,0.488,-151.089,19.160,-11.931
15346,-0.3330,-0.4565,-0.8242,0.183,1.160,0.610,-151.089,19.160,-11.942
15356,-0.3369,-0.4561,-0.8213,1.160,0.732,0.549,-151.078,19.160,-11.953
15366,-0.3423,-0.4541,-0.8188,1.587,0.488,0.427,-151.068,19.166,-11.959
15376,-0.3462,-0.4517,-0.8135,1.526,0.427,0.366,-151.051,19.177,-11.964
15386,-0.3491,-0.4541,-0.8115,1.099,0.671,0.183,-151.040,19.188,-11.970
15396,-0.3472,-0.4580,-0.8149,0.244,1.282,-0.122,-151.035,19.188,-11.975
15406,-0.3428,-0.4600,-0.8179,-0.916,1.953,-0.366,-151.040,19.177,-11.981
15416,-0.3379,-0.4624,-0.8237,-2.014,2.502,-0.549,-151.062,19.160,-11.992
15426,-0.3296,-0.4644,-0.8315,-2.747,2.869,-0.549,-151.089,19.127,-11.997
15436,-0.3237,-0.4663,-0.8418,-2.869,2.869,-0.610,-151.122,19.094,-12.008
15446,-0.3213,-0.4683,-0.8462,-2.319,2.502,-0.488,-151.144,19.067,-12.019
15456,-0.3213,-0.4678,-0.8477,-1.282,1.953,-0.366,-151.161,19.039,-12.025
15466,-0.3232,-0.4668,-0.8491,0.061,1.404,-0.122,-151.161,19.023,-12.030
15476,-0.3276,-0.4692,-0.8486,1.221,1.160,0.000,-151.150,19.006,-12.036
15486,-0.3257,-0.4741,-0.8418,1.953,0.916,0.000,-151.128,18.995,-12.041
15496,-0.3228,-0.4785,-0.8379,2.014,0.366,-0.122,-151.100,18.984,-12.041
15506,-0.3252,-0.4775,-0.8374,1.526,-0.305,0.244,-151.073,18.990,-12.041
15516,-0.3262,-0.4727,-0.8359,0.854,-0.610,0.854,-151.062,18.995,-12.047
15526,-0.3267,-0.4658,-0.8394,0.610,-0.610,1.343,-151.057,19.006,-12.057
15536,-0.3271,-0.4604,-0.8413,0.854,-0.610,1.709,-151.057,19.017,-12.068
15546,-0.3271,-0.4541,-0.8403,1.648,-0.671,1.831,-151.051,19.028,-12.079
15556,-0.3271,-0.4521,-0.8379,2.319,-0.854,1.831,-151.040,19.045,-12.096
15566,-0.3271,-0.4517,-0.8315,2.808,-1.038,1.648,-151.018,19.061,-12.101
15576,-0.3257,-0.4468,-0.8271,2.808,-1.282,1.526,-150.996,19.083,-12.112
15586,-0.3262,-0.4458,-0.8213,2.380,-1.465,1.465,-150.980,19.100,-12.118
15596,-0.3320,-0.4429,-0.8198,1.709,-1.404,1.282,-150.974,19.127,-12.123
15606,-0.3311,-0.4434,-0.8164,0.854,-0.916,0.977,-150.969,19.144,-12.129
15616,-0.3325,-0.4419,-0.8164,0.061,-0.183,0.671,-150.980,19.155,-12.134
15626,-0.3315,-0.4419,-0.8193,-0.549,0.549,0.427,-150.991,19.155,-12.140
15636,-0.3345,-0.4463,-0.8223,-0.977,1.099,0.122,-151.007,19.149,-12.145
15646,-0.3374,-0.4482,-0.8267,-1.160,1.343,-0.122,-151.029,19.144,-12.151
15656,-0.3354,-0.4497,-0.8306,-1.465,1.282,-0.244,-151.051,19.138,-12.156
15666,-0.3330,-0.4526,-0.8364,-1.831,1.160,-0.244,-151.073,19.127,-12.162
15676,-0.3306,-0.4556,-0.8447,-2.136,0.854,-0.305,-151.100,19.116,-12.162
15686,-0.3276,-0.4561,-0.8511,-2.197,0.366,-0.549,-151.128,19.111,-12.156
15696,-0.3228,-0.4531,-0.8555,-1.587,-0.549,-0.854,-151.150,19.100,-12.145
15706,-0.3193,-0.4570,-0.8501,-0.244,-1.831,-1.160,-151.155,19.105,-12.129
15716,-0.3203,-0.4648,-0.8428,1.282,-3.174,-1.343,-151.128,19.116,-12.096
15726,-0.3179,-0.4697,-0.8359,2.380,-4.150,-1.221,-151.089,19.144,-12.063
15736,-0.3184,-0.4736,-0.8271,2.747,-4.456,-0.854,-151.046,19.171,-12.036
15746,-0.3208,-0.4722,-0.8203,2.502,-4.211,-0.488,-151.002,19.199,-12.008
15756,-0.3262,-0.4697,-0.8174,1.953,-3.418,-0.061,-150.969,19.226,-11.992
15766,-0.3330,-0.4634,-0.8188,1.526,-2.319,0.122,-150.947,19.248,-11.981
15776,-0.3364,-0.4609,-0.8218,1.282,-1.404,0.122,-150.930,19.265,-11.975
15786,-0.3374,-0.4609,-0.8262,1.465,-1.160,-0.183,-150.908,19.281,-11.964
15796,-0.3394,-0.4629,-0.8291,1.770,-1.770,-0.854,-150.886,19.292,-11.948
15806,-0.3413,-0.4663,-0.8306,1.953,-2.808,-1.404,-150.853,19.314,-11.920
15816,-0.3442,-0.4697,-0.8301,2.136,-3.967,-1.526,-150.820,19.347,-11.887
15826,-0.3462,-0.4731,-0.8262,2.563,-4.822,-1.526,-150.776,19.391,-11.849
15836,-0.3491,-0.4795,-0.8242,3.052,-5.066,-1.526,-150.721,19.435,-11.810
15846,-0.3481,-0.4849,-0.8218,3.296,-4.883,-1.282,-150.667,19.473,-11.772
15856,-0.3477,-0.4873,-0.8188,3.296,-4.211,-0.732,-150.606,19.512,-11.744
15866,-0.3442,-0.4834,-0.8164,3.113,-3.418,0.000,-150.557,19.545,-11.722
15876,-0.3408,-0.4814,-0.8159,2.625,-2.930,0.732,-150.518,19.578,-11.717
15886,-0.3369,-0.4712,-0.8140,2.014,-2.502,1.221,-150.491,19.605,-11.711
15896,-0.3335,-0.4663,-0.8159,1.587,-2.136,1.648,-150.474,19.633,-11.717
15906,-0.3320,-0.4604,-0.8184,1.160,-2.014,1.831,-150.469,19.660,-11.722
15916,-0.3276,-0.4546,-0.8164,0.977,-2.014,1.648,-150.463,19.682,-11.728
15926,-0.3267,-0.4517,-0.8159,0.916,-2.014,1.221,-150.463,19.698,-11.728
15936,-0.3257,-0.4517,-0.8110,1.099,-2.014,0.793,-150.452,19.715,-11.728
15946,-0.3257,-0.4531,-0.8086,1.160,-1.831,0.366,-150.441,19.731,-11.722
15956,-0.3257,-0.4546,-0.8037,1.038,-1.526,0.061,-150.430,19.742,-11.711
15966,-0.3271,-0.4570,-0.8037,0.549,-1.038,0.000,-150.425,19.748,-11.706
15976,-0.3296,-0.4580,-0.8027,-0.183,-0.183,0.000,-150.425,19.748,-11.706
15986,-0.3345,-0.4604,-0.8047,-0.916,0.793,-0.061,-150.430,19.742,-11.711
15996,-0.3384,-0.4634,-0.8101,-1.465,1.770,0.000,-150.447,19.731,-11.717
16006,-0.3384,-0.4619,-0.8154,-1.831,2.502,0.061,-150.469,19.709,-11.733
16017,-0.3398,-0.4624,-0.8184,-2.197,2.930,0.061,-150.496,19.687,-11.750
16026,-0.3398,-0.4634,-0.8237,-2.258,2.869,0.061,-150.524,19.660,-11.766
16036,-0.3408,-0.4644,-0.8320,-2.258,2.502,0.000,-150.557,19.644,-11.777
16046,-0.3408,-0.4683,-0.8374,-2.197,1.892,-0.183,-150.584,19.622,-11.788
16056,-0.3398,-0.4673,-0.8403,-1.953,1.221,-0.244,-150.606,19.611,-11.788
16066,-0.3413,-0.4673,-0.8413,-1.465,0.488,-0.366,-150.623,19.605,-11.788
16076,-0.3437,-0.4702,-0.8374,-0.793,-0.244,-0.427,-150.634,19.605,-11.783
16086,-0.3433,-0.4727,-0.8325,-0.061,-0.793,-0.488,-150.628,19.611,-11.777
16096,-0.3447,-0.4727,-0.8301,0.305,-1.343,-0.427,-150.617,19.622,-11.766
16106,-0.3447,-0.4736,-0.8213,0.488,-1.587,-0.244,-150.601,19.638,-11.755
16116,-0.3437,-0.4731,-0.8164,0.549,-1.404,-0.061,-150.590,19.655,-11.744
16126,-0.3433,-0.4702,-0.8154,0.305,-1.038,0.061,-150.579,19.666,-11.739
16136,-0.3423,-0.4692,-0.8130,0.000,-0.488,0.244,-150.573,19.677,-11.739
16146,-0.3398,-0.4663,-0.8149,-0.305,-0.061,0.305,-150.573,19.682,-11.744
16156,-0.3394,-0.4639,-0.8164,-0.488,0.000,0.366,-150.579,19.682,-11.744
16166,-0.3364,-0.4639,-0.8188,-0.488,-0.061,0.305,-150.579,19.687,-11.750
16176,-0.3320,-0.4600,-0.8164,-0.427,0.000,0.305,-150.584,19.687,-11.750
16186,-0.3335,-0.4609,-0.8169,-0.305,0.122,0.305,-150.590,19.682,-11.755
16196,-0.3350,-0.4595,-0.8154,-0.122,0.244,0.366,-150.595,19.682,-11.761
16206,-0.3330,-0.4595,-0.8115,0.122,0.305,0.366,-150.595,19.682,-11.766
16216,-0.3350,-0.4580,-0.8115,0.183,0.488,0.366,-150.590,19.682,-11.772
16226,-0.3374,-0.4590,-0.8115,-0.061,0.916,0.366,-150.595,19.677,-11.777
16236,-0.3354,-0.4600,-0.8105,-0.366,1.343,0.366,-150.601,19.671,-11.788
16246,-0.3389,-0.4619,-0.8154,-0.793,1.709,0.244,-150.612,19.660,-11.799
