elapsed_ms,acc_x_g,acc_y_g,acc_z_g,gyro_x_dps,gyro_y_dps,gyro_z_dps,angle_x_deg,angle_y_deg,angle_z_deg
0,-0.4917,0.0068,-0.9082,-1.770,3.479,1.099,179.566,28.674,-114.774
10,-0.4902,0.0156,-0.9131,-2.197,2.563,0.000,179.539,28.647,-114.774
20,-0.4873,0.0190,-0.9150,-1.953,1.831,-1.160,179.517,28.625,-114.763
30,-0.4868,0.0186,-0.9150,-1.099,0.854,-2.563,179.517,28.608,-114.730
40,-0.4907,0.0127,-0.9077,0.122,0.000,-3.723,179.533,28.608,-114.686
50,-0.4907,0.0015,-0.8999,1.038,-0.793,-4.578,179.572,28.614,-114.637
60,-0.4873,-0.0063,-0.8965,1.160,-1.282,-5.188,-179.594,28.625,-114.576
70,-0.4873,-0.0166,-0.8901,0.793,-1.709,-5.554,-179.550,28.647,-114.516
80,-0.4878,-0.0273,-0.8867,0.366,-2.075,-5.920,-179.500,28.663,-114.445
90,-0.4858,-0.0400,-0.8833,-0.366,-2.319,-5.798,-179.451,28.691,-114.379
100,-0.4849,-0.0498,-0.8799,-1.160,-2.380,-5.310,-179.407,28.713,-114.318
110,-0.4858,-0.0586,-0.8828,-1.953,-1.831,-4.456,-179.368,28.735,-114.269
120,-0.4883,-0.0620,-0.8833,-2.930,-1.282,-3.418,-179.346,28.746,-114.230
130,-0.4873,-0.0605,-0.8833,-3.845,-0.977,-2.197,-179.335,28.757,-114.203
140,-0.4844,-0.0552,-0.8857,-4.395,-0.671,-1.099,-179.346,28.762,-114.192
150,-0.4829,-0.0532,-0.8911,-3.601,-0.977,-0.183,-179.352,28.768,-114.192
160,-0.4790,-0.0513,-0.8906,-2.869,-0.916,0.488,-179.357,28.773,-114.197
170,-0.4819,-0.0449,-0.8926,-2.197,-1.404,1.038,-179.363,28.779,-114.208
180,-0.4854,-0.0415,-0.8950,-1.526,-1.831,1.587,-179.368,28.795,-114.225
190,-0.4932,-0.0386,-0.8970,-1.465,-2.563,1.892,-179.374,28.823,-114.247
200,-0.5029,-0.0332,-0.8960,-1.099,-2.563,2.075,-179.379,28.850,-114.269
211,-0.5015,-0.0269,-0.8960,-0.610,-1.892,2.075,-179.385,28.878,-114.291
220,-0.4912,-0.0146,-0.8940,0.244,-2.014,1.953,-179.390,28.894,-114.313
230,-0.4834,-0.0093,-0.8892,1.587,-2.869,1.526,-179.385,28.922,-114.329
240,-0.4810,-0.0093,-0.8789,2.563,-3.479,0.793,-179.363,28.949,-114.340
250,-0.4849,-0.0034,-0.8716,3.296,-4.211,0.122,-179.335,28.993,-114.340
260,-0.4907,-0.0054,-0.8638,3.662,-3.601,-0.305,-179.297,29.037,-114.335
270,-0.4995,-0.0063,-0.8618,3.235,-2.197,-0.610,-179.264,29.070,-114.329
280,-0.5068,-0.0063,-0.8589,2.319,-0.732,-0.732,-179.242,29.092,-114.324
290,-0.5044,-0.0059,-0.8608,1.404,0.183,-1.160,-179.225,29.103,-114.307
300,-0.4961,-0.0059,-0.8633,0.854,0.244,-1.770,-179.209,29.108,-114.291
310,-0.4902,-0.0068,-0.8608,0.732,0.000,-2.563,-179.193,29.114,-114.258
320,-0.4888,-0.0122,-0.8574,0.793,0.244,-3.174,-179.165,29.114,-114.225
330,-0.4897,-0.0210,-0.8613,0.671,1.404,-3.357,-179.138,29.103,-114.186
340,-0.4883,-0.0293,-0.8662,-0.244,3.174,-2.869,-179.116,29.075,-114.153
350,-0.4868,-0.0337,-0.8750,-1.953,4.700,-1.953,-179.110,29.031,-114.131
360,-0.4863,-0.0337,-0.8853,-4.211,5.554,-1.038,-179.132,28.971,-114.120
370,-0.4834,-0.0317,-0.8989,-5.493,5.493,-0.549,-179.171,28.911,-114.115
380,-0.4873,-0.0312,-0.9092,-5.554,4.700,-0.732,-179.214,28.856,-114.104
390,-0.4873,-0.0327,-0.9116,-4.456,3.601,-0.977,-179.236,28.812,-114.099
400,-0.4932,-0.0410,-0.9111,-2.930,2.747,-1.038,-179.242,28.784,-114.082
410,-0.4946,-0.0469,-0.9116,-1.709,1.953,-0.793,-179.236,28.757,-114.077
420,-0.4932,-0.0454,-0.9106,-0.549,1.343,-0.183,-179.220,28.740,-114.077
430,-0.4897,-0.0469,-0.9077,0.366,0.610,0.244,-179.193,28.735,-114.077
440,-0.4839,-0.0425,-0.9043,0.977,-0.305,0.488,-179.171,28.729,-114.082
450,-0.4829,-0.0405,-0.9004,1.160,-1.282,0.732,-179.143,28.735,-114.093
460,-0.4814,-0.0361,-0.8979,1.099,-2.075,1.099,-179.127,28.751,-114.104
470,-0.4829,-0.0327,-0.8936,0.854,-2.625,1.526,-179.110,28.773,-114.120
480,-0.4868,-0.0273,-0.8882,0.488,-2.869,1.953,-179.110,28.801,-114.142
490,-0.4922,-0.0229,-0.8882,0.122,-2.686,2.258,-179.116,28.834,-114.164
500,-0.4917,-0.0181,-0.8882,0.061,-2.258,2.319,-179.121,28.856,-114.192
510,-0.4927,-0.0127,-0.8838,0.183,-2.075,2.136,-179.132,28.878,-114.219
520,-0.4902,-0.0107,-0.8774,0.793,-2.258,1.648,-179.138,28.905,-114.236
530,-0.4907,-0.0103,-0.8760,1.404,-2.502,0.977,-179.127,28.932,-114.247
540,-0.4907,-0.0093,-0.8774,1.587,-2.441,0.549,-179.116,28.960,-114.252
550,-0.4888,-0.0107,-0.8740,1.526,-1.953,0.305,-179.105,28.982,-114.252
560,-0.4917,-0.0117,-0.8735,1.099,-1.343,0.244,-179.099,28.998,-114.258
570,-0.4932,-0.0117,-0.8701,0.366,-0.671,0.122,-179.094,29.009,-114.258
580,-0.4946,-0.0122,-0.8726,-0.366,-0.183,-0.183,-179.099,29.020,-114.258
590,-0.4927,-0.0142,-0.8745,-0.610,0.061,-0.671,-179.099,29.020,-114.247
600,-0.4912,-0.0181,-0.8750,-0.732,0.305,-1.038,-179.099,29.020,-114.236
610,-0.4927,-0.0244,-0.8789,-1.038,0.793,-1.221,-179.099,29.015,-114.225
620,-0.4897,-0.0254,-0.8794,-1.465,1.404,-1.038,-179.099,29.004,-114.214
630,-0.4873,-0.0298,-0.8823,-1.892,1.892,-0.793,-179.105,28.982,-114.203
640,-0.4907,-0.0361,-0.8877,-2.258,1.892,-0.366,-179.110,28.965,-114.197
650,-0.4873,-0.0356,-0.8926,-2.563,1.648,-0.061,-179.121,28.943,-114.197
660,-0.4883,-0.0337,-0.8975,-2.441,1.099,0.305,-179.132,28.927,-114.203
670,-0.4897,-0.0337,-0.8999,-1.770,0.549,0.488,-179.143,28.922,-114.208
680,-0.4917,-0.0317,-0.9004,-0.732,-0.061,0.610,-179.138,28.916,-114.214
690,-0.4932,-0.0293,-0.8965,0.305,-0.366,0.671,-179.132,28.922,-114.225
700,-0.4937,-0.0288,-0.8926,1.221,-0.610,0.732,-179.110,28.927,-114.230
711,-0.4917,-0.0283,-0.8853,1.892,-0.732,0.610,-179.088,28.932,-114.236
720,-0.4907,-0.0298,-0.8818,1.953,-0.671,0.671,-179.061,28.943,-114.247
730,-0.4907,-0.0288,-0.8833,1.343,-0.549,0.854,-179.044,28.949,-114.252
740,-0.4893,-0.0273,-0.8833,0.427,-0.549,1.038,-179.039,28.954,-114.269
750,-0.4868,-0.0215,-0.8833,-0.366,-0.610,1.343,-179.044,28.960,-114.280
760,-0.4863,-0.0166,-0.8843,-0.671,-0.854,1.465,-179.055,28.965,-114.296
770,-0.4912,-0.0137,-0.8867,-0.671,-0.732,1.343,-179.072,28.976,-114.313
780,-0.4937,-0.0107,-0.8867,-0.305,-0.549,1.038,-179.083,28.982,-114.324
790,-0.4951,-0.0078,-0.8853,0.244,-0.427,0.671,-179.088,28.987,-114.335
800,-0.4941,-0.0093,-0.8809,0.916,-0.061,0.183,-179.083,28.993,-114.335
810,-0.4956,-0.0117,-0.8789,1.160,0.061,-0.366,-179.072,28.998,-114.329
820,-0.4927,-0.0146,-0.8779,1.160,0.183,-0.854,-179.055,28.998,-114.324
830,-0.4932,-0.0200,-0.8755,0.671,0.305,-1.160,-179.039,28.998,-114.307
840,-0.4907,-0.0220,-0.8755,-0.305,0.610,-1.221,-179.028,28.993,-114.296
850,-0.4888,-0.0259,-0.8779,-1.526,0.916,-0.977,-179.033,28.987,-114.285
860,-0.4888,-0.0273,-0.8833,-2.563,0.977,-0.610,-179.044,28.976,-114.274
870,-0.4897,-0.0259,-0.8862,-2.930,0.916,-0.427,-179.066,28.965,-114.274
880,-0.4907,-0.0244,-0.8882,-2.319,0.549,-0.488,-179.077,28.960,-114.269
890,-0.4907,-0.0254,-0.8848,-1.038,0.244,-0.671,-179.077,28.960,-114.258
900,-0.4907,-0.0293,-0.8867,0.244,0.183,-0.793,-179.061,28.954,-114.252
910,-0.4888,-0.0332,-0.8853,0.977,0.366,-0.671,-179.039,28.954,-114.241
920,-0.4888,-0.0376,-0.8867,0.916,0.732,-0.183,-179.011,28.943,-114.241
930,-0.4897,-0.0347,-0.8887,0.122,1.038,0.366,-179.000,28.932,-114.247
940,-0.4893,-0.0327,-0.8867,-0.854,1.038,0.610,-179.000,28.922,-114.252
950,-0.4893,-0.0269,-0.8892,-1.465,0.916,0.549,-179.011,28.911,-114.258
960,-0.4888,-0.0234,-0.8926,-1.648,0.793,0.427,-179.022,28.900,-114.263
970,-0.4897,-0.0239,-0.8931,-1.404,0.610,0.366,-179.033,28.894,-114.269
980,-0.4888,-0.0205,-0.8955,-1.038,0.305,0.488,-179.044,28.889,-114.274
990,-0.4897,-0.0205,-0.8936,-0.549,-0.061,0.671,-179.050,28.889,-114.280
1000,-0.4902,-0.0190,-0.8882,0.122,-0.427,0.610,-179.050,28.894,-114.285
1010,-0.4912,-0.0161,-0.8887,0.671,-0.793,0.427,-179.044,28.900,-114.291
1020,-0.4917,-0.0195,-0.8857,1.038,-0.977,0.122,-179.033,28.911,-114.296
1030,-0.4917,-0.0210,-0.8818,1.282,-0.977,-0.244,-179.011,28.922,-114.291
1040,-0.4878,-0.0220,-0.8818,0.977,-0.916,-0.427,-178.995,28.932,-114.285
1050,-0.4873,-0.0229,-0.8789,0.305,-0.916,-0.366,-178.989,28.943,-114.280
1060,-0.4873,-0.0220,-0.8799,-0.305,-0.854,-0.305,-178.984,28.949,-114.280
1070,-0.4946,-0.0234,-0.8809,-0.793,-0.732,0.061,-178.989,28.960,-114.280
1080,-0.4951,-0.0264,-0.8872,-1.526,-0.061,0.427,-178.995,28.965,-114.285
1090,-0.4834,-0.0156,-0.8872,-1.160,0.061,0.000,-179.011,28.960,-114.285
1100,-0.4839,-0.0200,-0.8872,0.366,-0.671,-0.488,-179.000,28.965,-114.280
1110,-0.4956,-0.0283,-0.8833,1.465,-1.282,-0.671,-178.973,28.976,-114.269
1120,-0.4976,-0.0303,-0.8823,1.648,-0.610,-0.427,-178.945,28.987,-114.263
1130,-0.4917,-0.0278,-0.8779,1.404,-0.061,-0.061,-178.923,28.993,-114.263
1140,-0.4922,-0.0249,-0.8794,1.038,-0.122,0.122,-178.907,28.998,-114.263
1150,-0.4980,-0.0278,-0.8809,0.488,-0.488,0.061,-178.896,29.004,-114.263
1160,-0.4927,-0.0273,-0.8828,0.000,-0.610,-0.366,-178.885,29.015,-114.263
1170,-0.4854,-0.0215,-0.8848,-0.122,-0.610,-0.488,-178.885,29.015,-114.258
1180,-0.4854,-0.0176,-0.8828,0.244,-0.793,-0.366,-178.879,29.020,-114.252
1190,-0.4922,-0.0195,-0.8823,0.793,-0.549,-0.305,-178.868,29.031,-114.247
1200,-0.4951,-0.0225,-0.8823,0.854,0.183,-0.244,-178.852,29.031,-114.247
1211,-0.4917,-0.0220,-0.8853,0.427,0.793,-0.244,-178.846,29.020,-114.241
1220,-0.4883,-0.0186,-0.8882,0.061,0.854,-0.305,-178.841,29.009,-114.241
1230,-0.4902,-0.0161,-0.8892,-0.122,0.427,-0.366,-178.841,29.004,-114.236
1240,-0.4951,-0.0142,-0.8882,-0.183,0.000,-0.488,-178.846,29.004,-114.230
1250,-0.4966,-0.0137,-0.8892,0.122,-0.183,-0.854,-178.841,29.009,-114.219
1260,-0.4985,-0.0132,-0.8848,0.610,-0.122,-1.343,-178.830,29.015,-114.203
1270,-0.4956,-0.0137,-0.8804,1.221,0.000,-1.892,-178.813,29.020,-114.181
1280,-0.4937,-0.0166,-0.8784,1.648,0.122,-2.319,-178.786,29.020,-114.153
1290,-0.4893,-0.0186,-0.8774,1.831,0.000,-2.686,-178.753,29.020,-114.126
1300,-0.4907,-0.0254,-0.8740,1.526,-0.183,-2.869,-178.715,29.026,-114.093
1310,-0.4883,-0.0249,-0.8760,0.610,0.183,-2.686,-178.693,29.020,-114.060
1320,-0.4873,-0.0288,-0.8750,0.244,0.671,-2.441,-178.671,29.015,-114.033
1330,-0.4883,-0.0337,-0.8774,-0.366,1.404,-2.197,-178.654,29.004,-114.011
1340,-0.4902,-0.0376,-0.8823,-1.160,2.197,-2.075,-178.643,28.982,-113.989
1350,-0.4912,-0.0386,-0.8862,-2.563,2.502,-1.831,-178.649,28.954,-113.967
1360,-0.4907,-0.0352,-0.8960,-3.113,2.319,-1.587,-178.660,28.932,-113.950
1370,-0.4922,-0.0347,-0.8994,-2.686,1.770,-1.465,-178.671,28.911,-113.934
1380,-0.4888,-0.0293,-0.9014,-1.526,1.038,-1.526,-178.671,28.894,-113.917
1390,-0.4888,-0.0283,-0.8970,0.549,0.488,-1.709,-178.654,28.889,-113.895
1400,-0.4873,-0.0283,-0.8921,2.075,0.122,-1.892,-178.616,28.883,-113.873
1410,-0.4878,-0.0317,-0.8867,2.991,-0.183,-1.953,-178.572,28.883,-113.851
1420,-0.4883,-0.0332,-0.8838,2.991,-0.305,-1.770,-178.522,28.883,-113.829
1430,-0.4927,-0.0327,-0.8770,1.953,-0.061,-1.587,-178.489,28.889,-113.813
1440,-0.4932,-0.0332,-0.8760,0.854,0.427,-1.404,-178.467,28.889,-113.796
1450,-0.4897,-0.0386,-0.8779,-0.183,1.160,-1.160,-178.451,28.883,-113.785
1460,-0.4863,-0.0459,-0.8896,-1.343,1.892,-0.671,-178.445,28.861,-113.780
1470,-0.4829,-0.0483,-0.8975,-3.357,2.258,0.427,-178.467,28.834,-113.785
1480,-0.4834,-0.0449,-0.9053,-5.615,1.892,1.770,-178.522,28.806,-113.802
1490,-0.4858,-0.0327,-0.9136,-6.409,0.549,2.502,-178.594,28.795,-113.835
1500,-0.4897,-0.0215,-0.9116,-4.639,-1.160,2.136,-178.649,28.801,-113.857
1510,-0.4932,-0.0190,-0.9033,-0.793,-2.686,0.916,-178.665,28.823,-113.868
1520,-0.4922,-0.0181,-0.8931,3.906,-3.662,-0.427,-178.621,28.861,-113.862
1530,-0.4917,-0.0264,-0.8784,7.690,-3.784,-1.343,-178.539,28.900,-113.846
1540,-0.4883,-0.0322,-0.8657,9.155,-3.296,-1.709,-178.429,28.938,-113.824
1550,-0.4897,-0.0356,-0.8545,8.179,-2.563,-1.526,-178.330,28.971,-113.807
1560,-0.4888,-0.0371,-0.8496,5.493,-1.648,-1.099,-178.264,28.998,-113.791
1570,-0.4897,-0.0356,-0.8457,2.380,-0.610,-0.793,-178.226,29.015,-113.785
1580,-0.4883,-0.0352,-0.8481,-0.305,0.793,-0.488,-178.220,29.015,-113.780
1590,-0.4839,-0.0303,-0.8545,-2.258,2.319,0.000,-178.242,28.998,-113.780
1600,-0.4819,-0.0259,-0.8657,-3.296,3.662,0.488,-178.281,28.960,-113.785
1610,-0.4819,-0.0264,-0.8750,-3.662,4.822,0.854,-178.319,28.916,-113.796
1620,-0.4868,-0.0293,-0.8848,-3.723,5.676,0.854,-178.363,28.856,-113.807
1630,-0.4878,-0.0298,-0.8984,-3.784,5.981,0.854,-178.401,28.795,-113.818
1640,-0.4897,-0.0293,-0.9033,-3.662,5.432,0.854,-178.440,28.735,-113.829
1650,-0.4902,-0.0283,-0.9087,-3.113,4.395,0.916,-178.473,28.691,-113.846
1660,-0.4912,-0.0254,-0.9106,-2.319,3.235,0.793,-178.500,28.652,-113.851
1670,-0.4897,-0.0259,-0.9082,-0.732,2.625,0.305,-178.511,28.625,-113.857
1680,-0.4858,-0.0278,-0.9053,1.038,2.075,-0.488,-178.495,28.603,-113.851
1690,-0.4795,-0.0322,-0.9009,2.136,1.648,-1.038,-178.462,28.575,-113.840
1700,-0.4795,-0.0396,-0.8994,1.953,0.977,-0.977,-178.429,28.564,-113.829
1711,-0.4800,-0.0381,-0.8940,0.854,0.427,-0.549,-178.407,28.553,-113.824
1720,-0.4844,-0.0356,-0.8950,0.061,0.061,-0.061,-178.401,28.553,-113.824
1730,-0.4854,-0.0303,-0.8960,-0.427,-0.244,0.244,-178.401,28.553,-113.824
1740,-0.4888,-0.0264,-0.8945,-0.305,-0.549,0.244,-178.407,28.559,-113.829
1750,-0.4878,-0.0254,-0.8896,0.305,-0.732,0.122,-178.401,28.570,-113.829
1760,-0.4878,-0.0273,-0.8877,0.916,-0.671,0.000,-178.391,28.581,-113.829
1770,-0.4844,-0.0303,-0.8892,1.099,-0.488,0.122,-178.380,28.581,-113.829
1780,-0.4829,-0.0332,-0.8853,0.671,-0.366,0.427,-178.369,28.586,-113.835
1790,-0.4824,-0.0327,-0.8843,-0.183,-0.366,0.732,-178.369,28.592,-113.846
1800,-0.4814,-0.0298,-0.8838,-0.916,-0.427,0.916,-178.380,28.597,-113.857
1810,-0.4819,-0.0273,-0.8853,-1.282,-0.549,0.916,-178.396,28.603,-113.862
1820,-0.4858,-0.0273,-0.8843,-0.916,-0.427,0.732,-178.407,28.608,-113.873
1830,-0.4868,-0.0288,-0.8853,-0.305,-0.122,0.488,-178.407,28.608,-113.879
1840,-0.4863,-0.0303,-0.8823,0.061,0.183,0.366,-178.407,28.608,-113.884
1850,-0.4854,-0.0293,-0.8848,0.122,0.488,0.427,-178.407,28.608,-113.890
1860,-0.4863,-0.0303,-0.8862,0.000,0.549,0.549,-178.407,28.603,-113.895
1870,-0.4883,-0.0303,-0.8862,-0.366,0.549,0.732,-178.407,28.603,-113.901
1880,-0.4883,-0.0308,-0.8896,-0.916,0.488,0.793,-178.418,28.597,-113.912
1890,-0.4858,-0.0288,-0.8906,-1.404,0.488,0.793,-178.434,28.592,-113.923
1900,-0.4868,-0.0259,-0.8911,-1.526,0.366,0.793,-178.451,28.592,-113.928
1912,-0.4849,-0.0269,-0.8931,-1.282,0.122,0.671,-178.467,28.586,-113.939
1920,-0.4863,-0.0259,-0.8936,-1.038,0.000,0.488,-178.478,28.586,-113.945
1930,-0.4863,-0.0278,-0.8926,-0.916,-0.061,0.305,-178.484,28.586,-113.945
1940,-0.4844,-0.0278,-0.8901,-0.793,-0.122,0.183,-178.495,28.586,-113.950
1950,-0.4863,-0.0269,-0.8872,-0.610,-0.244,0.122,-178.495,28.592,-113.950
1960,-0.4854,-0.0269,-0.8901,-0.244,-0.305,0.000,-178.495,28.597,-113.950
1970,-0.4854,-0.0278,-0.8877,0.061,-0.183,-0.061,-178.495,28.597,-113.950
1980,-0.4839,-0.0288,-0.8896,0.183,-0.244,0.000,-178.489,28.597,-113.950
1990,-0.4829,-0.0283,-0.8853,-0.061,-0.366,0.122,-178.484,28.603,-113.950
2000,-0.4868,-0.0293,-0.8848,-0.366,-0.671,0.305,-178.489,28.614,-113.956
2010,-0.4868,-0.0293,-0.8867,-0.610,-0.549,0.366,-178.489,28.619,-113.956
2020,-0.4868,-0.0278,-0.8867,-0.549,-0.183,0.305,-178.495,28.625,-113.961
2030,-0.4873,-0.0249,-0.8833,-0.366,0.122,0.305,-178.500,28.625,-113.967
2040,-0.4883,-0.0259,-0.8804,0.061,0.366,0.244,-178.500,28.625,-113.967
2050,-0.4863,-0.0278,-0.8784,0.366,0.610,0.061,-178.489,28.619,-113.967
2060,-0.4834,-0.0312,-0.8789,0.183,0.854,0.061,-178.484,28.614,-113.967
2070,-0.4868,-0.0322,-0.8828,-0.366,0.977,0.427,-178.484,28.608,-113.972
2080,-0.4844,-0.0322,-0.8867,-0.916,0.977,0.793,-178.495,28.597,-113.983
2090,-0.4834,-0.0298,-0.8901,-1.282,0.916,1.099,-178.506,28.586,-113.994
2100,-0.4858,-0.0298,-0.8916,-1.404,0.854,1.160,-178.522,28.581,-114.011
2110,-0.4854,-0.0278,-0.8921,-1.221,0.916,0.977,-178.539,28.570,-114.022
2120,-0.4844,-0.0269,-0.8945,-0.977,0.916,0.854,-178.550,28.559,-114.033
2130,-0.4829,-0.0283,-0.8975,-0.732,0.671,0.732,-178.555,28.553,-114.038
2140,-0.4844,-0.0244,-0.8926,-0.427,0.244,0.671,-178.566,28.548,-114.049
2150,-0.4858,-0.0234,-0.8955,0.000,-0.122,0.610,-178.566,28.548,-114.055
2160,-0.4858,-0.0215,-0.8882,0.427,-0.305,0.610,-178.566,28.553,-114.060
2170,-0.4863,-0.0225,-0.8882,0.793,-0.305,0.488,-178.561,28.559,-114.066
2180,-0.4873,-0.0239,-0.8838,1.038,-0.244,0.305,-178.550,28.564,-114.071
2190,-0.4839,-0.0249,-0.8818,0.977,-0.244,0.244,-178.539,28.570,-114.071
2200,-0.4834,-0.0234,-0.8799,0.610,-0.183,0.183,-178.533,28.570,-114.077
2211,-0.4819,-0.0234,-0.8813,0.061,0.122,0.183,-178.533,28.570,-114.077
2220,-0.4849,-0.0234,-0.8862,-0.549,0.366,0.244,-178.544,28.570,-114.082
2230,-0.4863,-0.0225,-0.8853,-0.854,0.671,0.122,-178.550,28.564,-114.082
2240,-0.4873,-0.0239,-0.8887,-1.160,1.099,-0.061,-178.561,28.553,-114.082
2250,-0.4844,-0.0244,-0.8882,-1.343,1.160,-0.061,-178.572,28.542,-114.082
2260,-0.4839,-0.0259,-0.8901,-1.221,1.038,-0.061,-178.583,28.537,-114.082
2270,-0.4854,-0.0239,-0.8921,-1.099,0.793,-0.061,-178.594,28.526,-114.082
2280,-0.4849,-0.0259,-0.8936,-0.793,0.732,-0.183,-178.594,28.521,-114.077
2290,-0.4839,-0.0283,-0.8950,-0.488,0.549,-0.366,-178.594,28.515,-114.077
2300,-0.4858,-0.0288,-0.8970,-0.244,0.305,-0.427,-178.588,28.510,-114.071
2310,-0.4839,-0.0278,-0.8950,0.000,0.061,-0.366,-178.583,28.504,-114.066
2320,-0.4844,-0.0288,-0.8945,0.122,-0.305,-0.305,-178.577,28.510,-114.060
2330,-0.4844,-0.0264,-0.8931,0.305,-0.549,-0.244,-178.572,28.515,-114.060
2340,-0.4849,-0.0239,-0.8926,0.488,-0.671,-0.244,-178.561,28.521,-114.055
2350,-0.4854,-0.0239,-0.8882,0.732,-0.732,-0.366,-178.555,28.526,-114.049
2360,-0.4873,-0.0278,-0.8853,0.793,-0.671,-0.366,-178.539,28.537,-114.049
2370,-0.4858,-0.0278,-0.8848,0.610,-0.549,-0.366,-178.528,28.548,-114.044
2380,-0.4858,-0.0264,-0.8818,0.244,-0.427,-0.305,-178.522,28.553,-114.038
2390,-0.4854,-0.0278,-0.8828,-0.061,-0.305,-0.244,-178.517,28.559,-114.038
2400,-0.4844,-0.0298,-0.8843,-0.488,0.000,-0.183,-178.517,28.559,-114.033
2410,-0.4824,-0.0327,-0.8853,-0.916,0.305,-0.061,-178.517,28.559,-114.033
2420,-0.4810,-0.0303,-0.8867,-1.221,0.488,0.183,-178.528,28.553,-114.038
2430,-0.4824,-0.0288,-0.8892,-1.038,0.427,0.305,-178.533,28.548,-114.038
2440,-0.4849,-0.0259,-0.8882,-0.488,0.305,0.305,-178.539,28.542,-114.044
2450,-0.4849,-0.0249,-0.8887,0.061,0.244,0.061,-178.539,28.542,-114.044
2460,-0.4854,-0.0244,-0.8906,0.488,0.183,-0.122,-178.533,28.542,-114.044
2470,-0.4858,-0.0259,-0.8877,0.671,0.061,-0.244,-178.522,28.542,-114.038
2480,-0.4844,-0.0273,-0.8857,0.549,0.000,-0.244,-178.511,28.542,-114.038
2490,-0.4849,-0.0293,-0.8857,0.183,0.061,-0.183,-178.506,28.542,-114.033
2500,-0.4844,-0.0298,-0.8867,-0.427,0.122,0.000,-178.506,28.542,-114.033
2510,-0.4839,-0.0312,-0.8901,-0.977,0.183,0.122,-178.511,28.542,-114.038
2520,-0.4814,-0.0273,-0.8906,-1.221,0.183,0.183,-178.522,28.537,-114.038
2530,-0.4839,-0.0244,-0.8926,-1.099,0.122,0.244,-178.533,28.537,-114.044
2540,-0.4873,-0.0215,-0.8906,-0.610,0.122,0.183,-178.539,28.537,-114.044
2550,-0.4844,-0.0229,-0.8896,-0.122,0.244,-0.061,-178.539,28.537,-114.044
2560,-0.4839,-0.0249,-0.8931,0.061,0.061,-0.183,-178.539,28.531,-114.038
2570,-0.4854,-0.0269,-0.8916,-0.061,-0.122,-0.122,-178.533,28.537,-114.038
2580,-0.4854,-0.0254,-0.8926,-0.305,-0.488,0.000,-178.539,28.537,-114.038
2590,-0.4854,-0.0249,-0.8892,-0.427,-0.610,-0.061,-178.539,28.548,-114.038
2600,-0.4844,-0.0264,-0.8892,-0.488,-0.610,-0.061,-178.539,28.553,-114.038
2610,-0.4829,-0.0288,-0.8872,-0.244,-0.549,-0.183,-178.539,28.559,-114.033
2620,-0.4839,-0.0293,-0.8867,-0.122,-0.549,-0.122,-178.533,28.564,-114.033
2630,-0.4854,-0.0293,-0.8867,0.061,-0.488,-0.061,-178.528,28.570,-114.033
2640,-0.4839,-0.0298,-0.8848,0.061,-0.549,0.122,-178.522,28.575,-114.033
2650,-0.4829,-0.0273,-0.8818,0.183,-0.549,0.305,-178.522,28.581,-114.038
2660,-0.4854,-0.0269,-0.8823,0.244,-0.549,0.366,-178.517,28.592,-114.044
2670,-0.4878,-0.0273,-0.8823,0.183,-0.427,0.366,-178.517,28.597,-114.044
2680,-0.4854,-0.0264,-0.8813,0.061,0.000,0.305,-178.511,28.603,-114.049
2690,-0.4814,-0.0293,-0.8789,-0.244,0.549,0.305,-178.511,28.597,-114.055
2700,-0.4795,-0.0303,-0.8838,-0.610,0.916,0.427,-178.517,28.586,-114.060
2711,-0.4805,-0.0308,-0.8877,-1.282,0.854,0.671,-178.528,28.575,-114.066
2720,-0.4844,-0.0273,-0.8906,-1.587,0.610,0.916,-178.544,28.570,-114.077
2730,-0.4868,-0.0278,-0.8945,-1.343,0.488,0.916,-178.561,28.564,-114.088
2740,-0.4863,-0.0269,-0.8955,-0.854,0.488,0.916,-178.572,28.559,-114.099
2750,-0.4858,-0.0220,-0.8936,-0.061,0.427,0.854,-178.577,28.553,-114.109
2760,-0.4849,-0.0186,-0.8906,0.916,0.183,0.610,-178.572,28.553,-114.115
2770,-0.4868,-0.0205,-0.8896,1.526,-0.122,0.366,-178.561,28.559,-114.120
2780,-0.4863,-0.0205,-0.8862,1.770,-0.305,0.061,-178.544,28.559,-114.120
2790,-0.4854,-0.0234,-0.8843,1.465,-0.244,-0.122,-178.528,28.564,-114.115
2800,-0.4839,-0.0254,-0.8823,0.610,-0.061,-0.061,-178.522,28.570,-114.115
2810,-0.4839,-0.0244,-0.8862,-0.488,0.244,0.061,-178.528,28.564,-114.115
2820,-0.4834,-0.0269,-0.8877,-1.404,0.488,0.122,-178.539,28.559,-114.120
2830,-0.4849,-0.0269,-0.8901,-1.831,0.549,0.183,-178.555,28.559,-114.120
2840,-0.4834,-0.0254,-0.8887,-1.587,0.488,0.183,-178.572,28.553,-114.126
2850,-0.4844,-0.0273,-0.8896,-0.793,0.427,0.122,-178.577,28.548,-114.126
2860,-0.4854,-0.0293,-0.8887,0.061,0.366,0.061,-178.572,28.542,-114.126
2870,-0.4863,-0.0332,-0.8872,0.671,0.488,0.000,-178.555,28.542,-114.126
2880,-0.4844,-0.0352,-0.8887,0.671,0.488,0.061,-178.539,28.537,-114.126
2890,-0.4844,-0.0361,-0.8877,0.061,0.366,0.366,-178.533,28.531,-114.131
2900,-0.4849,-0.0332,-0.8887,-0.549,0.244,0.793,-178.539,28.531,-114.142
2910,-0.4854,-0.0269,-0.8896,-0.854,0.183,1.038,-178.550,28.531,-114.153
2920,-0.4858,-0.0264,-0.8901,-0.671,0.244,1.038,-178.561,28.531,-114.164
2930,-0.4858,-0.0269,-0.8906,-0.305,0.549,0.793,-178.561,28.526,-114.175
2940,-0.4844,-0.0269,-0.8921,-0.061,0.610,0.671,-178.566,28.521,-114.181
2950,-0.4824,-0.0278,-0.8916,0.061,0.549,0.793,-178.566,28.515,-114.192
2960,-0.4824,-0.0308,-0.8906,0.000,0.244,1.099,-178.566,28.510,-114.203
2970,-0.4839,-0.0278,-0.8921,-0.183,-0.183,1.404,-178.572,28.510,-114.219
2980,-0.4854,-0.0288,-0.8906,-0.305,-0.305,1.648,-178.577,28.515,-114.236
2990,-0.4863,-0.0273,-0.8901,-0.305,-0.244,1.648,-178.588,28.521,-114.258
3000,-0.4839,-0.0283,-0.8877,-0.305,-0.061,1.526,-178.594,28.521,-114.274
3010,-0.4839,-0.0293,-0.8892,-0.427,0.122,1.587,-178.599,28.521,-114.291
3020,-0.4819,-0.0254,-0.8940,-0.610,0.183,1.648,-178.616,28.521,-114.307
3030,-0.4839,-0.0195,-0.8945,-0.305,-0.122,1.709,-178.627,28.521,-114.329
3040,-0.4844,-0.0161,-0.8896,0.366,-0.366,1.587,-178.638,28.521,-114.346
3050,-0.4893,-0.0166,-0.8833,1.221,-0.488,1.221,-178.632,28.531,-114.362
3060,-0.4873,-0.0151,-0.8804,1.831,-0.366,0.793,-178.621,28.542,-114.368
3070,-0.4858,-0.0166,-0.8774,2.075,-0.122,0.488,-178.610,28.548,-114.373
3080,-0.4834,-0.0210,-0.8755,1.465,0.244,0.549,-178.599,28.548,-114.384
3090,-0.4844,-0.0215,-0.8784,0.305,0.610,0.671,-178.599,28.542,-114.390
3100,-0.4829,-0.0225,-0.8789,-0.854,1.221,0.732,-178.610,28.537,-114.401
3110,-0.4814,-0.0225,-0.8843,-1.892,1.587,0.793,-178.632,28.521,-114.406
3120,-0.4844,-0.0210,-0.8921,-2.502,1.709,0.854,-178.660,28.504,-114.417
3130,-0.4854,-0.0200,-0.8945,-2.625,1.587,0.732,-178.693,28.488,-114.428
3140,-0.4854,-0.0186,-0.8989,-2.075,1.404,0.610,-178.720,28.471,-114.434
3150,-0.4858,-0.0156,-0.9009,-1.038,0.916,0.305,-178.731,28.460,-114.439
3160,-0.4873,-0.0171,-0.8970,0.427,0.366,-0.122,-178.731,28.460,-114.439
3170,-0.4858,-0.0181,-0.8926,1.831,-0.061,-0.671,-178.709,28.460,-114.428
3180,-0.4854,-0.0205,-0.8857,2.563,-0.244,-0.916,-178.676,28.466,-114.417
3190,-0.4839,-0.0239,-0.8833,2.380,-0.305,-1.038,-178.649,28.471,-114.406
3200,-0.4819,-0.0259,-0.8809,1.526,-0.122,-0.977,-178.621,28.471,-114.395
3211,-0.4829,-0.0273,-0.8774,0.366,0.244,-0.916,-178.610,28.477,-114.384
3220,-0.4805,-0.0312,-0.8794,-0.671,0.793,-0.854,-178.605,28.466,-114.373
3230,-0.4780,-0.0308,-0.8833,-1.526,1.282,-0.488,-178.610,28.455,-114.368
3240,-0.4785,-0.0303,-0.8853,-1.953,1.465,-0.061,-178.627,28.438,-114.368
3250,-0.4814,-0.0254,-0.8901,-1.831,1.526,0.244,-178.643,28.422,-114.373
3260,-0.4834,-0.0171,-0.8931,-1.160,1.404,0.244,-178.660,28.411,-114.379
3270,-0.4858,-0.0024,-0.8965,0.244,0.977,-0.183,-178.665,28.400,-114.373
3280,-0.4907,0.0068,-0.8877,2.441,0.549,-1.221,179.555,28.400,-114.362
3290,-0.4927,0.0029,-0.8804,4.333,0.244,-2.563,179.615,28.405,-114.329
3300,-0.4883,0.0010,-0.8760,5.066,0.183,-3.845,179.687,28.411,-114.285
3310,-0.4858,-0.0044,-0.8687,4.822,0.122,-4.456,-179.709,28.422,-114.236
3320,-0.4814,-0.0073,-0.8657,3.052,0.366,-4.578,-179.648,28.422,-114.186
3330,-0.4854,-0.0151,-0.8647,0.732,0.977,-4.700,-179.610,28.422,-114.131
3340,-0.4775,-0.0195,-0.8687,-1.343,2.441,-4.761,-179.588,28.400,-114.077
3350,-0.4751,-0.0254,-0.8721,-2.380,3.845,-4.944,-179.577,28.367,-114.022
3360,-0.4746,-0.0337,-0.8784,-3.723,5.127,-4.944,-179.566,28.312,-113.967
3370,-0.4751,-0.0405,-0.8892,-5.554,7.019,-4.700,-179.577,28.240,-113.912
3380,-0.4707,-0.0420,-0.8999,-5.371,6.958,-4.333,-179.583,28.163,-113.862
3390,-0.4746,-0.0488,-0.9067,-4.333,5.371,-4.028,-179.577,28.109,-113.818
3400,-0.4761,-0.0479,-0.9131,-2.991,4.395,-3.845,-179.561,28.059,-113.774
3410,-0.4785,-0.0474,-0.9136,-0.977,3.906,-3.662,-179.528,28.015,-113.736
3420,-0.4780,-0.0479,-0.9111,1.099,3.479,-3.540,-179.473,27.977,-113.698
3430,-0.4761,-0.0503,-0.9097,1.648,2.441,-3.113,-179.412,27.944,-113.659
3440,-0.4746,-0.0483,-0.9043,1.770,1.099,-2.625,-179.357,27.933,-113.632
3450,-0.4731,-0.0474,-0.9023,1.465,0.488,-2.136,-179.308,27.927,-113.604
3460,-0.4722,-0.0454,-0.8989,1.831,0.610,-1.770,-179.258,27.916,-113.588
3470,-0.4707,-0.0430,-0.8955,2.136,0.977,-1.404,-179.209,27.905,-113.571
3480,-0.4727,-0.0435,-0.8916,1.831,1.343,-0.793,-179.171,27.889,-113.560
3490,-0.4683,-0.0420,-0.8916,0.610,1.038,-0.366,-179.143,27.878,-113.560
3500,-0.4707,-0.0386,-0.8906,-0.366,0.732,0.061,-179.132,27.872,-113.560
3510,-0.4722,-0.0356,-0.8965,-1.099,0.671,0.427,-179.127,27.861,-113.566
3520,-0.4751,-0.0356,-0.8979,-1.099,0.977,0.610,-179.127,27.856,-113.571
3530,-0.4761,-0.0366,-0.8989,-1.282,1.343,0.610,-179.132,27.839,-113.577
3540,-0.4722,-0.0381,-0.9014,-1.587,1.221,0.793,-179.138,27.828,-113.588
3550,-0.4717,-0.0361,-0.9033,-2.075,0.549,1.221,-179.149,27.817,-113.599
3560,-0.4717,-0.0342,-0.9072,-2.136,-0.305,1.587,-179.165,27.817,-113.621
3570,-0.4731,-0.0273,-0.9072,-1.465,-0.916,1.465,-179.176,27.823,-113.637
3580,-0.4771,-0.0215,-0.9053,-0.122,-1.343,0.977,-179.176,27.839,-113.648
3590,-0.4785,-0.0249,-0.8975,1.526,-1.343,0.183,-179.154,27.856,-113.648
3600,-0.4775,-0.0288,-0.8950,2.502,-1.221,-0.305,-179.121,27.867,-113.643
3610,-0.4736,-0.0317,-0.8906,2.625,-1.160,-0.183,-179.083,27.878,-113.643
3620,-0.4702,-0.0356,-0.8848,2.075,-1.221,0.183,-179.050,27.894,-113.643
3630,-0.4727,-0.0342,-0.8804,1.099,-1.221,0.610,-179.028,27.911,-113.654
3640,-0.4746,-0.0332,-0.8779,0.061,-0.977,0.793,-179.017,27.922,-113.659
3650,-0.4751,-0.0327,-0.8818,-0.732,-0.427,0.793,-179.017,27.933,-113.670
3660,-0.4717,-0.0347,-0.8853,-1.404,0.366,0.854,-179.022,27.927,-113.681
3670,-0.4717,-0.0342,-0.8931,-2.136,0.977,1.099,-179.039,27.916,-113.692
3680,-0.4692,-0.0327,-0.8965,-2.869,1.160,1.282,-179.061,27.905,-113.703
3690,-0.4722,-0.0288,-0.9048,-3.235,0.916,1.404,-179.094,27.894,-113.719
3700,-0.4775,-0.0288,-0.9097,-2.930,0.366,1.465,-179.121,27.889,-113.736
3711,-0.4795,-0.0283,-0.9087,-2.075,-0.244,1.221,-179.138,27.889,-113.752
3720,-0.4766,-0.0288,-0.9067,-1.038,-0.610,1.038,-179.143,27.894,-113.763
3730,-0.4775,-0.0283,-0.9067,0.000,-0.854,0.793,-179.138,27.900,-113.774
3740,-0.4751,-0.0288,-0.9019,1.038,-1.282,0.610,-179.121,27.911,-113.780
3750,-0.4751,-0.0298,-0.8970,1.343,-1.587,0.671,-179.105,27.927,-113.785
3760,-0.4741,-0.0288,-0.8945,1.160,-1.892,0.854,-179.088,27.944,-113.796
3770,-0.4746,-0.0269,-0.8882,0.732,-2.075,0.916,-179.077,27.971,-113.807
3780,-0.4761,-0.0239,-0.8843,0.610,-1.953,0.916,-179.066,27.993,-113.818
3790,-0.4766,-0.0234,-0.8823,0.854,-1.770,0.732,-179.055,28.015,-113.824
3800,-0.4775,-0.0210,-0.8809,0.916,-1.343,0.488,-179.044,28.032,-113.829
3810,-0.4751,-0.0229,-0.8779,0.549,-0.854,0.427,-179.039,28.043,-113.835
3820,-0.4761,-0.0239,-0.8809,-0.183,-0.488,0.549,-179.033,28.054,-113.840
3830,-0.4775,-0.0239,-0.8818,-1.160,0.000,0.549,-179.044,28.054,-113.846
3840,-0.4780,-0.0244,-0.8857,-1.953,0.488,0.488,-179.061,28.054,-113.851
3850,-0.4785,-0.0244,-0.8916,-2.441,0.671,0.305,-179.077,28.048,-113.857
3860,-0.4790,-0.0259,-0.8984,-2.686,0.854,0.122,-179.099,28.043,-113.857
3870,-0.4766,-0.0259,-0.9028,-2.136,0.916,0.061,-179.116,28.032,-113.857
3880,-0.4771,-0.0298,-0.8989,-1.587,0.488,0.000,-179.121,28.021,-113.857
3890,-0.4766,-0.0298,-0.9014,-0.854,0.122,0.000,-179.116,28.021,-113.857
3900,-0.4780,-0.0322,-0.9009,-0.061,-0.305,0.000,-179.105,28.021,-113.857
3913,-0.4761,-0.0332,-0.8965,0.610,-0.793,0.061,-179.088,28.032,-113.857
3920,-0.4756,-0.0312,-0.8945,0.854,-0.916,0.122,-179.072,28.037,-113.862
3930,-0.4761,-0.0332,-0.8906,0.793,-0.916,0.183,-179.050,28.048,-113.862
3940,-0.4761,-0.0352,-0.8867,0.366,-0.732,0.305,-179.033,28.059,-113.862
3950,-0.4766,-0.0356,-0.8892,-0.244,-0.427,0.610,-179.028,28.065,-113.873
3960,-0.4741,-0.0327,-0.8921,-0.854,-0.122,0.854,-179.028,28.065,-113.879
3970,-0.4731,-0.0308,-0.8931,-1.038,0.000,1.160,-179.033,28.065,-113.895
3980,-0.4766,-0.0303,-0.8916,-1.343,-0.183,1.343,-179.044,28.065,-113.912
3990,-0.4771,-0.0259,-0.8931,-1.099,-0.305,1.465,-179.055,28.070,-113.928
4000,-0.4766,-0.0254,-0.8916,-0.549,-0.366,1.343,-179.061,28.070,-113.939
4010,-0.4785,-0.0283,-0.8921,-0.122,-0.305,1.282,-179.061,28.076,-113.956
4020,-0.4785,-0.0269,-0.8911,0.305,-0.122,1.221,-179.055,28.081,-113.972
4030,-0.4790,-0.0278,-0.8906,0.305,0.000,1.221,-179.055,28.081,-113.983
4040,-0.4771,-0.0273,-0.8882,0.000,0.122,1.404,-179.050,28.081,-114.000
4050,-0.4780,-0.0229,-0.8887,-0.488,0.000,1.526,-179.061,28.087,-114.016
4060,-0.4775,-0.0200,-0.8896,-0.671,-0.244,1.404,-179.072,28.087,-114.033
4070,-0.4785,-0.0200,-0.8906,-0.427,-0.122,1.099,-179.077,28.092,-114.044
4080,-0.4790,-0.0181,-0.8882,-0.122,0.061,0.732,-179.077,28.092,-114.055
4090,-0.4785,-0.0195,-0.8901,0.122,0.427,0.427,-179.077,28.092,-114.060
4100,-0.4780,-0.0215,-0.8887,0.244,0.854,0.305,-179.072,28.087,-114.060
4110,-0.4766,-0.0239,-0.8892,-0.122,1.038,0.244,-179.066,28.076,-114.066
4120,-0.4761,-0.0225,-0.8906,-0.732,1.038,0.244,-179.072,28.065,-114.066
4130,-0.4761,-0.0225,-0.8950,-1.221,0.916,0.244,-179.077,28.054,-114.071
4140,-0.4771,-0.0234,-0.8945,-1.343,0.854,0.122,-179.088,28.048,-114.071
4150,-0.4780,-0.0278,-0.8975,-1.099,0.793,0.000,-179.088,28.037,-114.071
4160,-0.4785,-0.0303,-0.9009,-0.916,0.549,0.061,-179.088,28.032,-114.071
4170,-0.4761,-0.0308,-0.9019,-0.977,0.122,0.244,-179.088,28.032,-114.077
4180,-0.4746,-0.0298,-0.8999,-0.977,-0.427,0.488,-179.094,28.032,-114.082
4190,-0.4785,-0.0273,-0.8970,-0.732,-0.977,0.549,-179.094,28.043,-114.088
4200,-0.4785,-0.0259,-0.8945,-0.122,-1.221,0.427,-179.088,28.054,-114.093
4211,-0.4790,-0.0215,-0.8901,0.793,-1.160,0.061,-179.077,28.070,-114.093
4220,-0.4785,-0.0215,-0.8848,1.709,-0.916,-0.183,-179.055,28.081,-114.093
4230,-0.4775,-0.0234,-0.8804,2.136,-0.854,-0.244,-179.028,28.092,-114.088
4240,-0.4771,-0.0220,-0.8765,2.014,-0.732,-0.122,-179.000,28.103,-114.088
4250,-0.4785,-0.0225,-0.8774,1.404,-0.427,0.122,-178.984,28.114,-114.088
4260,-0.4785,-0.0225,-0.8774,0.488,0.000,0.183,-178.973,28.120,-114.088
4270,-0.4790,-0.0215,-0.8799,-0.488,0.610,0.000,-178.978,28.120,-114.088
4280,-0.4775,-0.0215,-0.8823,-1.221,1.343,-0.122,-178.984,28.109,-114.088
4290,-0.4741,-0.0249,-0.8882,-1.770,1.892,-0.244,-178.995,28.087,-114.088
4300,-0.4741,-0.0273,-0.8916,-2.136,2.258,-0.244,-179.006,28.065,-114.082
4310,-0.4741,-0.0298,-0.8979,-2.380,2.258,-0.122,-179.022,28.043,-114.082
4320,-0.4751,-0.0303,-0.9023,-2.258,2.075,0.000,-179.033,28.015,-114.082
4330,-0.4785,-0.0283,-0.9072,-1.892,1.526,0.122,-179.044,27.999,-114.082
4340,-0.4795,-0.0264,-0.9092,-1.038,0.916,0.122,-179.050,27.988,-114.088
4350,-0.4800,-0.0264,-0.9067,-0.061,0.244,-0.122,-179.044,27.988,-114.088
4360,-0.4766,-0.0269,-0.9038,0.916,-0.183,-0.366,-179.022,27.988,-114.082
4370,-0.4756,-0.0283,-0.8984,1.465,-0.610,-0.366,-179.000,27.993,-114.077
4380,-0.4751,-0.0283,-0.8926,1.587,-1.038,-0.244,-178.973,27.999,-114.071
4390,-0.4741,-0.0283,-0.8896,1.343,-1.221,-0.122,-178.951,28.015,-114.071
4400,-0.4771,-0.0269,-0.8882,0.916,-1.221,0.061,-178.934,28.026,-114.071
4410,-0.4785,-0.0264,-0.8848,0.488,-0.977,0.061,-178.923,28.043,-114.071
4420,-0.4761,-0.0254,-0.8823,0.183,-0.549,0.061,-178.918,28.048,-114.071
4430,-0.4751,-0.0239,-0.8833,0.000,-0.183,0.244,-178.912,28.054,-114.077
4440,-0.4756,-0.0229,-0.8828,0.061,-0.183,0.305,-178.912,28.059,-114.082
4450,-0.4771,-0.0200,-0.8828,0.000,0.061,0.183,-178.907,28.059,-114.082
4460,-0.4785,-0.0210,-0.8833,-0.244,0.366,0.000,-178.907,28.059,-114.082
4470,-0.4761,-0.0234,-0.8877,-0.610,0.793,-0.122,-178.912,28.054,-114.082
4480,-0.4751,-0.0254,-0.8916,-1.038,1.160,-0.122,-178.912,28.043,-114.082
4490,-0.4756,-0.0288,-0.8926,-1.404,1.343,-0.122,-178.918,28.032,-114.077
4500,-0.4766,-0.0288,-0.8984,-1.648,1.465,0.000,-178.929,28.015,-114.077
4510,-0.4761,-0.0293,-0.8984,-1.709,1.282,0.183,-178.940,27.999,-114.082
4520,-0.4751,-0.0283,-0.8989,-1.404,0.977,0.183,-178.945,27.988,-114.082
4530,-0.4746,-0.0312,-0.9004,-0.916,0.671,0.244,-178.945,27.982,-114.088
4540,-0.4741,-0.0337,-0.9009,-0.549,0.305,0.366,-178.945,27.977,-114.093
4550,-0.4751,-0.0337,-0.9023,-0.427,-0.183,0.549,-178.940,27.977,-114.099
4560,-0.4756,-0.0303,-0.9019,-0.244,-0.549,0.732,-178.940,27.977,-114.104
4570,-0.4741,-0.0288,-0.9014,0.000,-0.916,0.854,-178.934,27.988,-114.115
4580,-0.4761,-0.0288,-0.8984,0.366,-1.160,1.038,-178.929,27.999,-114.126
4590,-0.4751,-0.0269,-0.8965,0.671,-1.343,1.221,-178.923,28.010,-114.137
4600,-0.4766,-0.0234,-0.8911,0.977,-1.648,1.282,-178.912,28.026,-114.153
4610,-0.4790,-0.0190,-0.8892,1.282,-1.587,1.160,-178.907,28.048,-114.164
4620,-0.4780,-0.0171,-0.8857,1.648,-1.343,0.916,-178.896,28.065,-114.175
4630,-0.4800,-0.0171,-0.8804,1.526,-0.977,0.549,-178.885,28.076,-114.181
4640,-0.4805,-0.0176,-0.8760,1.099,-0.305,0.366,-178.874,28.087,-114.186
4650,-0.4775,-0.0210,-0.8745,0.122,0.244,0.305,-178.868,28.092,-114.192
4660,-0.4775,-0.0200,-0.8809,-0.977,0.732,0.488,-178.879,28.087,-114.197
4670,-0.4761,-0.0200,-0.8833,-1.770,1.160,0.549,-178.901,28.076,-114.203
4680,-0.4751,-0.0200,-0.8911,-2.319,1.465,0.549,-178.923,28.065,-114.208
4690,-0.4771,-0.0215,-0.8945,-2.502,1.465,0.549,-178.951,28.048,-114.214
4700,-0.4775,-0.0234,-0.8975,-2.563,1.282,0.427,-178.973,28.037,-114.219
4711,-0.4780,-0.0234,-0.9009,-2.258,1.099,0.366,-178.995,28.026,-114.225
4720,-0.4766,-0.0244,-0.9023,-1.709,1.038,0.305,-179.006,28.010,-114.230
4730,-0.4785,-0.0273,-0.9043,-1.221,0.854,0.244,-179.011,28.004,-114.230
4740,-0.4761,-0.0293,-0.9048,-0.793,0.549,0.244,-179.011,27.993,-114.236
4750,-0.4751,-0.0273,-0.9019,-0.305,-0.061,0.305,-179.011,27.993,-114.236
4760,-0.4761,-0.0239,-0.8994,0.122,-0.427,0.427,-179.006,27.999,-114.241
4770,-0.4766,-0.0225,-0.8975,0.671,-0.549,0.427,-178.995,28.004,-114.247
4780,-0.4766,-0.0234,-0.8906,0.977,-0.671,0.305,-178.984,28.010,-114.252
4790,-0.4785,-0.0244,-0.8887,0.610,-0.610,0.305,-178.973,28.021,-114.252
4800,-0.4751,-0.0244,-0.8882,-0.122,-0.427,0.488,-178.973,28.026,-114.258
4810,-0.4717,-0.0229,-0.8877,-0.977,-0.183,0.610,-178.978,28.026,-114.263
4820,-0.4736,-0.0186,-0.8853,-1.282,-0.061,0.671,-178.995,28.026,-114.274
4830,-0.4761,-0.0151,-0.8887,-1.038,0.244,0.488,-179.006,28.026,-114.280
4840,-0.4766,-0.0171,-0.8887,-0.366,0.488,0.244,-179.011,28.026,-114.280
4850,-0.4766,-0.0215,-0.8862,0.061,0.427,0.183,-179.006,28.021,-114.285
4860,-0.4771,-0.0225,-0.8887,0.183,0.305,0.244,-179.000,28.021,-114.285
4870,-0.4761,-0.0225,-0.8936,-0.061,0.244,0.366,-179.000,28.021,-114.291
4880,-0.4775,-0.0200,-0.8931,-0.244,0.122,0.366,-179.000,28.021,-114.296
4890,-0.4795,-0.0161,-0.8916,-0.244,0.061,0.244,-179.006,28.021,-114.296
4900,-0.4810,-0.0190,-0.8911,0.061,0.000,0.000,-179.000,28.026,-114.296
4910,-0.4780,-0.0190,-0.8892,0.366,0.183,-0.488,-178.995,28.026,-114.291
4920,-0.4736,-0.0156,-0.8882,0.549,0.549,-0.610,-178.984,28.021,-114.285
4930,-0.4746,-0.0186,-0.8896,0.549,0.671,-0.610,-178.973,28.015,-114.280
4940,-0.4751,-0.0195,-0.8872,0.366,0.671,-0.488,-178.967,28.010,-114.274
4950,-0.4741,-0.0229,-0.8896,-0.061,0.916,-0.488,-178.962,27.999,-114.269
4960,-0.4746,-0.0200,-0.8911,-0.610,1.282,-0.488,-178.962,27.988,-114.263
4970,-0.4746,-0.0205,-0.8955,-1.038,1.465,-0.427,-178.967,27.971,-114.258
4980,-0.4751,-0.0210,-0.8940,-1.099,1.526,-0.488,-178.973,27.955,-114.252
4990,-0.4766,-0.0220,-0.8989,-1.160,1.465,-0.488,-178.978,27.944,-114.247
5000,-0.4761,-0.0254,-0.8975,-1.160,1.282,-0.549,-178.978,27.927,-114.241
5010,-0.4746,-0.0273,-0.8989,-0.916,1.099,-0.549,-178.978,27.916,-114.236
5020,-0.4746,-0.0273,-0.8979,-0.732,0.977,-0.366,-178.978,27.905,-114.230
5030,-0.4736,-0.0269,-0.8999,-0.488,0.793,-0.122,-178.973,27.900,-114.230
5040,-0.4751,-0.0259,-0.8970,-0.122,0.671,0.000,-178.967,27.889,-114.230
5050,-0.4722,-0.0269,-0.8994,0.122,0.366,0.000,-178.962,27.883,-114.230
5060,-0.4746,-0.0220,-0.8960,0.061,-0.061,-0.061,-178.956,27.883,-114.230
5070,-0.4736,-0.0229,-0.8960,0.061,-0.366,-0.183,-178.951,27.889,-114.230
5080,-0.4741,-0.0225,-0.8955,0.183,-0.366,-0.122,-178.945,27.894,-114.225
5090,-0.4731,-0.0210,-0.8960,0.183,-0.366,-0.061,-178.940,27.894,-114.225
5100,-0.4766,-0.0210,-0.8950,0.305,-0.305,-0.122,-178.934,27.900,-114.225
5110,-0.4775,-0.0234,-0.8916,0.244,-0.183,-0.122,-178.923,27.905,-114.225
5120,-0.4746,-0.0225,-0.8901,0.000,-0.122,-0.061,-178.923,27.905,-114.225
5130,-0.4756,-0.0234,-0.8921,-0.366,-0.061,0.061,-178.918,27.911,-114.225
5140,-0.4746,-0.0234,-0.8945,-0.610,-0.061,0.061,-178.923,27.911,-114.225
5150,-0.4746,-0.0234,-0.8965,-0.793,-0.122,0.061,-178.929,27.911,-114.225
5160,-0.4746,-0.0249,-0.8965,-0.916,0.061,0.000,-178.929,27.911,-114.225
5170,-0.4731,-0.0244,-0.8975,-0.916,0.061,0.000,-178.934,27.911,-114.225
5180,-0.4756,-0.0249,-0.8979,-0.793,0.000,0.122,-178.940,27.911,-114.225
5190,-0.4736,-0.0225,-0.8984,-0.549,-0.305,0.244,-178.940,27.911,-114.230
5200,-0.4780,-0.0239,-0.8955,0.061,-0.610,0.366,-178.940,27.916,-114.230
5211,-0.4780,-0.0273,-0.8955,0.610,-0.732,0.305,-178.923,27.927,-114.236
5220,-0.4775,-0.0298,-0.8950,0.793,-0.610,0.244,-178.912,27.933,-114.236
5230,-0.4741,-0.0332,-0.8901,0.305,-0.305,0.427,-178.901,27.938,-114.241
5240,-0.4707,-0.0361,-0.8931,-0.793,0.061,0.854,-178.901,27.938,-114.252
5250,-0.4702,-0.0327,-0.8975,-2.014,0.183,1.587,-178.918,27.933,-114.269
5260,-0.4707,-0.0269,-0.9019,-2.808,0.244,2.075,-178.951,27.927,-114.296
5270,-0.4766,-0.0264,-0.9038,-2.869,-0.061,2.258,-178.984,27.927,-114.318
5280,-0.4780,-0.0244,-0.9063,-2.319,-0.366,2.136,-179.011,27.927,-114.346
5290,-0.4790,-0.0200,-0.9063,-0.854,-0.610,1.831,-179.028,27.933,-114.362
5300,-0.4775,-0.0195,-0.8994,0.549,-1.404,1.587,-179.028,27.949,-114.384
5310,-0.4790,-0.0156,-0.8936,1.587,-1.953,1.404,-179.022,27.971,-114.401
5320,-0.4805,-0.0156,-0.8857,2.502,-2.258,1.282,-179.000,27.999,-114.412
5330,-0.4775,-0.0161,-0.8813,2.686,-2.258,1.099,-178.978,28.026,-114.423
5340,-0.4790,-0.0156,-0.8770,2.258,-1.953,1.038,-178.962,28.054,-114.434
5350,-0.4775,-0.0171,-0.8779,1.343,-1.404,1.099,-178.956,28.070,-114.450
5360,-0.4746,-0.0210,-0.8804,-0.244,-0.488,1.282,-178.962,28.081,-114.461
5370,-0.4741,-0.0225,-0.8872,-2.197,0.305,1.709,-178.989,28.076,-114.483
5380,-0.4766,-0.0200,-0.8936,-3.601,0.610,2.136,-179.033,28.070,-114.505
5390,-0.4775,-0.0181,-0.9004,-4.395,0.549,2.258,-179.083,28.065,-114.532
5400,-0.4741,-0.0176,-0.9028,-4.150,0.305,2.075,-179.132,28.059,-114.554
5410,-0.4795,-0.0142,-0.9072,-3.296,-0.061,1.770,-179.176,28.059,-114.576
5420,-0.4790,-0.0117,-0.9092,-1.465,-0.732,1.526,-179.198,28.065,-114.593
5430,-0.4819,-0.0137,-0.9048,0.122,-1.587,1.282,-179.203,28.076,-114.604
5440,-0.4810,-0.0127,-0.8989,1.343,-2.258,0.916,-179.198,28.103,-114.615
5450,-0.4805,-0.0088,-0.8911,2.686,-2.563,0.488,-179.176,28.130,-114.620
5460,-0.4800,-0.0068,-0.8809,3.540,-2.563,0.122,-179.143,28.158,-114.620
5470,-0.4800,-0.0073,-0.8735,3.479,-2.441,-0.244,-179.110,28.191,-114.620
5480,-0.4790,-0.0088,-0.8696,2.441,-2.136,-0.549,-179.088,28.218,-114.615
5490,-0.4780,-0.0103,-0.8716,1.099,-1.404,-0.732,-179.072,28.235,-114.604
5500,-0.4780,-0.0098,-0.8701,0.000,-0.427,-0.793,-179.072,28.246,-114.593
5510,-0.4761,-0.0117,-0.8701,-1.038,0.610,-0.732,-179.083,28.246,-114.587
5520,-0.4795,-0.0142,-0.8784,-2.075,1.343,-0.671,-179.099,28.235,-114.582
5530,-0.4790,-0.0156,-0.8848,-2.502,1.831,-0.732,-179.116,28.218,-114.571
5540,-0.4775,-0.0205,-0.8916,-2.380,2.136,-0.732,-179.132,28.196,-114.565
5550,-0.4800,-0.0225,-0.8960,-2.075,2.014,-0.671,-179.143,28.174,-114.554
5560,-0.4795,-0.0239,-0.8979,-1.526,1.770,-0.610,-179.149,28.158,-114.549
5570,-0.4790,-0.0234,-0.9009,-0.854,1.465,-0.549,-179.149,28.141,-114.543
5580,-0.4785,-0.0215,-0.9023,-0.183,1.099,-0.610,-179.143,28.130,-114.538
5590,-0.4790,-0.0205,-0.8994,0.488,0.732,-0.732,-179.127,28.120,-114.527
5600,-0.4790,-0.0210,-0.8950,1.099,0.549,-0.916,-179.110,28.114,-114.516
5610,-0.4771,-0.0205,-0.8921,1.343,0.549,-0.977,-179.088,28.109,-114.505
5620,-0.4761,-0.0220,-0.8916,1.099,0.488,-0.854,-179.066,28.103,-114.500
5630,-0.4761,-0.0200,-0.8896,0.732,0.549,-0.671,-179.050,28.098,-114.489
5640,-0.4746,-0.0225,-0.8901,0.183,0.549,-0.427,-179.044,28.092,-114.489
5650,-0.4780,-0.0239,-0.8896,-0.427,0.488,-0.244,-179.039,28.092,-114.483
5660,-0.4790,-0.0225,-0.8911,-0.671,0.549,-0.244,-179.039,28.087,-114.483
5670,-0.4775,-0.0215,-0.8945,-0.732,0.671,-0.244,-179.044,28.081,-114.478
5680,-0.4771,-0.0244,-0.8945,-0.732,0.916,-0.183,-179.044,28.070,-114.478
5690,-0.4766,-0.0249,-0.8999,-0.916,0.854,-0.061,-179.044,28.059,-114.478
5700,-0.4761,-0.0264,-0.8965,-1.038,0.549,0.183,-179.050,28.054,-114.478
5711,-0.4771,-0.0269,-0.8994,-1.038,0.183,0.366,-179.055,28.048,-114.483
5720,-0.4761,-0.0244,-0.9028,-0.793,-0.244,0.488,-179.055,28.054,-114.489
5730,-0.4771,-0.0229,-0.8984,-0.244,-0.610,0.549,-179.055,28.054,-114.494
5740,-0.4771,-0.0220,-0.8950,0.366,-0.793,0.610,-179.055,28.065,-114.500
5750,-0.4785,-0.0215,-0.8921,0.793,-0.854,0.610,-179.044,28.076,-114.505
5760,-0.4810,-0.0215,-0.8896,0.916,-0.793,0.610,-179.033,28.087,-114.516
5770,-0.4761,-0.0186,-0.8892,0.916,-0.671,0.549,-179.022,28.092,-114.521
5780,-0.4766,-0.0161,-0.8862,0.610,-0.610,0.671,-179.022,28.103,-114.527
5790,-0.4790,-0.0137,-0.8867,0.183,-0.549,0.732,-179.022,28.109,-114.538
5800,-0.4780,-0.0132,-0.8857,-0.122,-0.427,0.671,-179.028,28.114,-114.543
5810,-0.4785,-0.0117,-0.8853,-0.183,-0.122,0.488,-179.039,28.120,-114.549
5820,-0.4790,-0.0137,-0.8872,-0.183,0.183,0.183,-179.039,28.120,-114.549
5830,-0.4800,-0.0146,-0.8857,-0.244,0.427,0.061,-179.044,28.120,-114.549
5840,-0.4795,-0.0146,-0.8872,-0.305,0.671,-0.061,-179.044,28.114,-114.549
5850,-0.4775,-0.0186,-0.8896,-0.610,0.854,-0.061,-179.050,28.109,-114.549
5860,-0.4756,-0.0210,-0.8896,-1.099,0.916,0.061,-179.055,28.098,-114.549
5870,-0.4766,-0.0181,-0.8926,-1.526,0.854,0.122,-179.072,28.092,-114.554
5880,-0.4780,-0.0166,-0.8940,-1.587,0.732,0.244,-179.088,28.087,-114.554
5890,-0.4814,-0.0171,-0.8955,-1.038,0.549,0.122,-179.094,28.081,-114.554
5900,-0.4785,-0.0161,-0.8955,-0.183,0.488,-0.183,-179.094,28.076,-114.554
5914,-0.4780,-0.0166,-0.8955,0.488,0.305,-0.427,-179.088,28.076,-114.549
5920,-0.4761,-0.0215,-0.8926,0.854,0.244,-0.427,-179.072,28.070,-114.543
5930,-0.4766,-0.0239,-0.8911,0.549,0.183,-0.244,-179.061,28.070,-114.543
5940,-0.4790,-0.0249,-0.8911,-0.061,0.183,0.000,-179.050,28.070,-114.543
5950,-0.4771,-0.0229,-0.8940,-0.549,0.305,0.122,-179.055,28.065,-114.543
5960,-0.4741,-0.0205,-0.8931,-0.854,0.549,0.244,-179.061,28.059,-114.549
5970,-0.4736,-0.0195,-0.8926,-0.977,0.549,0.366,-179.066,28.054,-114.549
5980,-0.4766,-0.0190,-0.8940,-0.916,0.549,0.366,-179.077,28.048,-114.554
5990,-0.4775,-0.0210,-0.8945,-0.671,0.488,0.366,-179.083,28.043,-114.560
6000,-0.4766,-0.0195,-0.8965,-0.427,0.427,0.305,-179.083,28.037,-114.565
6010,-0.4771,-0.0210,-0.8965,-0.244,0.366,0.366,-179.083,28.037,-114.565
6020,-0.4780,-0.0190,-0.8970,-0.183,0.122,0.549,-179.083,28.037,-114.576
6030,-0.4785,-0.0190,-0.8955,-0.183,0.000,0.671,-179.088,28.037,-114.582
6040,-0.4780,-0.0186,-0.8975,-0.244,-0.061,0.671,-179.088,28.037,-114.587
6050,-0.4785,-0.0166,-0.8945,-0.183,-0.061,0.610,-179.094,28.037,-114.598
6060,-0.4756,-0.0186,-0.8955,-0.305,-0.061,0.610,-179.099,28.037,-114.604
6070,-0.4775,-0.0146,-0.8945,-0.366,-0.183,0.610,-179.105,28.043,-114.609
6080,-0.4761,-0.0137,-0.8940,-0.244,-0.305,0.488,-179.110,28.043,-114.615
6090,-0.4805,-0.0142,-0.8931,0.000,-0.366,0.305,-179.110,28.048,-114.620
6100,-0.4775,-0.0161,-0.8901,0.244,-0.244,0.061,-179.105,28.054,-114.620
6110,-0.4780,-0.0190,-0.8892,0.061,0.000,0.122,-179.105,28.054,-114.620
6120,-0.4751,-0.0205,-0.8892,-0.488,0.183,0.427,-179.105,28.054,-114.626
6130,-0.4780,-0.0210,-0.8936,-1.160,0.244,0.732,-179.116,28.054,-114.631
6140,-0.4761,-0.0181,-0.8955,-1.648,0.244,0.854,-179.132,28.048,-114.642
6150,-0.4766,-0.0166,-0.8989,-1.770,0.061,0.916,-179.154,28.048,-114.653
6160,-0.4780,-0.0127,-0.8999,-1.282,-0.061,0.671,-179.171,28.048,-114.659
6170,-0.4785,-0.0117,-0.9023,-0.488,-0.244,0.305,-179.182,28.048,-114.664
6180,-0.4775,-0.0137,-0.8984,0.305,-0.488,0.000,-179.176,28.054,-114.664
6190,-0.4785,-0.0156,-0.8965,1.038,-0.732,-0.183,-179.160,28.065,-114.664
6200,-0.4775,-0.0166,-0.8926,1.221,-0.916,-0.244,-179.149,28.070,-114.659
6211,-0.4785,-0.0171,-0.8887,1.038,-0.977,-0.122,-179.132,28.087,-114.659
6220,-0.4785,-0.0190,-0.8872,0.732,-0.977,-0.122,-179.121,28.098,-114.659
6230,-0.4780,-0.0171,-0.8843,0.305,-0.549,-0.061,-179.116,28.103,-114.653
6240,-0.4785,-0.0176,-0.8823,-0.122,0.061,-0.061,-179.116,28.109,-114.653
6250,-0.4761,-0.0195,-0.8838,-0.427,0.671,-0.061,-179.116,28.103,-114.653
6260,-0.4756,-0.0210,-0.8862,-0.793,0.916,0.122,-179.116,28.098,-114.659
6270,-0.4775,-0.0181,-0.8887,-0.916,0.977,0.305,-179.127,28.087,-114.659
6280,-0.4790,-0.0151,-0.8916,-0.732,1.038,0.305,-179.132,28.081,-114.664
6290,-0.4810,-0.0137,-0.8926,-0.488,1.160,0.122,-179.138,28.070,-114.664
6300,-0.4775,-0.0156,-0.8906,-0.366,1.343,-0.061,-179.143,28.059,-114.664
6310,-0.4751,-0.0161,-0.8931,-0.244,1.404,-0.122,-179.143,28.043,-114.664
6320,-0.4746,-0.0156,-0.8970,-0.305,1.404,-0.183,-179.143,28.026,-114.659
6330,-0.4766,-0.0151,-0.8975,-0.488,1.038,-0.061,-179.143,28.015,-114.659
6340,-0.4785,-0.0098,-0.8975,-0.488,0.488,0.000,-179.154,28.015,-114.659
6350,-0.4800,-0.0083,-0.8999,-0.061,0.000,-0.244,-179.154,28.015,-114.659
6360,-0.4829,-0.0049,-0.8940,0.549,-0.183,-0.732,-179.149,28.021,-114.648
6370,-0.4819,-0.0098,-0.8887,1.404,-0.061,-1.221,-179.132,28.026,-114.637
6380,-0.4805,-0.0112,-0.8833,1.831,0.244,-1.709,-179.105,28.026,-114.615
6390,-0.4771,-0.0151,-0.8784,1.587,0.549,-1.953,-179.083,28.026,-114.593
6400,-0.4731,-0.0190,-0.8789,0.977,0.916,-1.892,-179.055,28.021,-114.571
6410,-0.4702,-0.0220,-0.8809,0.122,1.343,-1.587,-179.044,28.004,-114.554
6420,-0.4717,-0.0225,-0.8857,-0.977,1.709,-1.099,-179.044,27.988,-114.543
6430,-0.4731,-0.0234,-0.8911,-2.075,2.014,-0.732,-179.055,27.971,-114.538
6440,-0.4751,-0.0244,-0.9019,-2.747,2.136,-0.549,-179.072,27.944,-114.532
6450,-0.4746,-0.0259,-0.9087,-2.930,2.136,-0.488,-179.094,27.922,-114.527
6460,-0.4756,-0.0244,-0.9121,-2.625,1.770,-0.488,-179.110,27.900,-114.521
6470,-0.4761,-0.0269,-0.9160,-1.831,0.916,-0.427,-179.116,27.883,-114.516
6480,-0.4746,-0.0273,-0.9165,-0.671,-0.183,-0.122,-179.116,27.883,-114.516
6490,-0.4761,-0.0278,-0.9121,0.427,-1.282,0.122,-179.105,27.894,-114.516
6500,-0.4795,-0.0225,-0.9048,1.465,-2.136,0.244,-179.083,27.911,-114.516
6510,-0.4771,-0.0225,-0.8970,2.563,-2.441,0.122,-179.055,27.938,-114.516
6520,-0.4736,-0.0229,-0.8867,2.930,-2.319,-0.061,-179.017,27.960,-114.516
6530,-0.4722,-0.0249,-0.8804,2.625,-1.831,0.000,-178.984,27.982,-114.516
6540,-0.4717,-0.0220,-0.8784,1.587,-1.099,0.366,-178.967,27.999,-114.521
6550,-0.4712,-0.0229,-0.8789,0.244,-0.549,0.793,-178.967,28.004,-114.527
6560,-0.4736,-0.0205,-0.8813,-1.221,-0.061,1.160,-178.978,28.010,-114.543
6570,-0.4751,-0.0186,-0.8857,-2.197,0.305,1.282,-179.006,28.004,-114.554
6580,-0.4761,-0.0181,-0.8906,-2.502,0.610,1.343,-179.039,28.004,-114.571
6590,-0.4751,-0.0156,-0.8950,-2.258,0.793,1.526,-179.066,27.993,-114.587
6600,-0.4727,-0.0142,-0.8970,-1.587,0.610,1.526,-179.094,27.988,-114.609
6610,-0.4761,-0.0146,-0.8979,-0.854,0.244,1.343,-179.105,27.982,-114.620
6620,-0.4810,-0.0132,-0.8989,0.000,-0.305,1.038,-179.110,27.988,-114.637
6630,-0.4800,-0.0132,-0.8979,0.732,-0.671,0.732,-179.110,27.999,-114.642
6640,-0.4800,-0.0112,-0.8975,1.099,-0.793,0.427,-179.105,28.004,-114.648
6650,-0.4761,-0.0098,-0.8936,1.221,-0.671,0.122,-179.094,28.015,-114.648
6660,-0.4771,-0.0098,-0.8931,1.160,-0.549,0.000,-179.083,28.021,-114.648
6670,-0.4785,-0.0107,-0.8872,0.854,-0.366,-0.305,-179.077,28.026,-114.642
6680,-0.4766,-0.0122,-0.8882,0.061,-0.183,-0.427,-179.077,28.032,-114.642
6690,-0.4771,-0.0146,-0.8877,-0.793,0.000,-0.488,-179.083,28.032,-114.637
6700,-0.4761,-0.0176,-0.8911,-1.526,0.122,-0.488,-179.088,28.032,-114.631
6711,-0.4756,-0.0181,-0.8955,-1.770,0.183,-0.427,-179.105,28.032,-114.626
6720,-0.4795,-0.0205,-0.8955,-1.587,0.183,-0.427,-179.110,28.026,-114.620
6730,-0.4795,-0.0205,-0.8965,-1.099,0.183,-0.549,-179.116,28.026,-114.615
6740,-0.4790,-0.0239,-0.8979,-0.610,0.244,-0.549,-179.116,28.026,-114.609
6750,-0.4751,-0.0244,-0.8979,-0.366,0.061,-0.427,-179.110,28.026,-114.604
6760,-0.4766,-0.0234,-0.8979,-0.305,-0.244,-0.122,-179.105,28.026,-114.598
6770,-0.4751,-0.0234,-0.8955,-0.244,-0.610,0.061,-179.099,28.032,-114.598
6780,-0.4780,-0.0215,-0.8926,0.061,-0.854,0.061,-179.094,28.043,-114.604
6790,-0.4780,-0.0210,-0.8911,0.244,-0.916,0.061,-179.088,28.054,-114.604
6800,-0.4775,-0.0205,-0.8877,0.427,-0.793,0.122,-179.083,28.059,-114.604
6810,-0.4766,-0.0176,-0.8887,0.549,-0.671,0.244,-179.077,28.070,-114.604
6820,-0.4790,-0.0156,-0.8887,0.366,-0.610,0.366,-179.072,28.076,-114.609
6830,-0.4790,-0.0166,-0.8882,0.244,-0.305,0.183,-179.072,28.087,-114.615
6840,-0.4780,-0.0200,-0.8877,-0.061,0.183,0.183,-179.066,28.087,-114.615
6850,-0.4771,-0.0195,-0.8911,-0.732,0.488,0.427,-179.072,28.081,-114.620
6860,-0.4766,-0.0171,-0.8931,-1.343,0.427,0.732,-179.088,28.076,-114.626
6870,-0.4775,-0.0107,-0.8945,-1.404,0.000,0.916,-179.110,28.076,-114.637
6880,-0.4819,-0.0093,-0.8950,-0.732,-0.427,0.610,-179.121,28.081,-114.642
6890,-0.4795,-0.0122,-0.8945,0.183,-0.488,0.061,-179.121,28.092,-114.648
6900,-0.4790,-0.0142,-0.8906,0.732,-0.122,-0.549,-179.110,28.092,-114.637
6910,-0.4761,-0.0171,-0.8936,0.854,0.183,-0.671,-179.099,28.092,-114.631
6920,-0.4731,-0.0186,-0.8921,0.366,0.305,-0.488,-179.088,28.087,-114.626
6930,-0.4756,-0.0200,-0.8911,-0.366,0.122,-0.366,-179.088,28.087,-114.620
6940,-0.4766,-0.0205,-0.8896,-0.854,0.000,-0.427,-179.088,28.087,-114.615
6950,-0.4761,-0.0190,-0.8926,-0.916,0.000,-0.366,-179.094,28.087,-114.615
6960,-0.4766,-0.0225,-0.8926,-0.732,0.000,-0.183,-179.094,28.087,-114.609
6970,-0.4761,-0.0229,-0.8916,-0.366,0.061,0.000,-179.094,28.087,-114.609
6980,-0.4780,-0.0229,-0.8916,-0.061,0.061,0.122,-179.088,28.087,-114.615
6990,-0.4790,-0.0190,-0.8926,0.305,-0.061,0.183,-179.083,28.087,-114.615
7000,-0.4790,-0.0156,-0.8911,0.793,-0.122,0.061,-179.072,28.092,-114.615
7010,-0.4790,-0.0166,-0.8867,1.160,0.000,-0.122,-179.061,28.092,-114.615
7020,-0.4766,-0.0161,-0.8848,1.099,0.244,-0.183,-179.050,28.092,-114.609
7030,-0.4775,-0.0151,-0.8862,0.488,0.427,-0.122,-179.044,28.092,-114.609
7040,-0.4780,-0.0142,-0.8877,-0.183,0.488,0.122,-179.044,28.087,-114.609
7050,-0.4766,-0.0151,-0.8887,-0.854,0.671,0.183,-179.055,28.081,-114.615
7060,-0.4771,-0.0146,-0.8931,-1.282,0.732,0.183,-179.066,28.076,-114.615
7070,-0.4785,-0.0161,-0.8960,-1.465,0.854,0.183,-179.083,28.065,-114.620
7080,-0.4771,-0.0181,-0.8984,-1.343,0.916,0.183,-179.094,28.059,-114.620
7090,-0.4766,-0.0190,-0.9014,-1.099,0.793,0.183,-179.105,28.048,-114.620
7100,-0.4805,-0.0190,-0.9009,-0.671,0.427,0.061,-179.105,28.043,-114.626
7110,-0.4795,-0.0166,-0.8999,-0.183,-0.061,-0.061,-179.105,28.043,-114.620
7120,-0.4775,-0.0171,-0.8979,0.305,-0.427,-0.305,-179.099,28.048,-114.620
7130,-0.4785,-0.0161,-0.8970,0.793,-0.671,-0.427,-179.088,28.054,-114.615
7140,-0.4761,-0.0186,-0.8911,1.038,-0.610,-0.427,-179.072,28.059,-114.609
7150,-0.4751,-0.0181,-0.8872,0.916,-0.549,-0.427,-179.061,28.070,-114.604
7160,-0.4756,-0.0181,-0.8872,0.366,-0.488,-0.244,-179.050,28.076,-114.604
7170,-0.4751,-0.0171,-0.8911,-0.244,-0.427,-0.061,-179.055,28.076,-114.598
7180,-0.4780,-0.0186,-0.8916,-0.732,-0.122,0.000,-179.055,28.081,-114.598
7190,-0.4771,-0.0205,-0.8921,-0.977,0.183,0.000,-179.061,28.081,-114.598
7200,-0.4751,-0.0195,-0.8926,-0.854,0.488,0.061,-179.066,28.076,-114.604
7211,-0.4746,-0.0186,-0.8926,-0.610,0.610,0.183,-179.072,28.065,-114.604
7220,-0.4766,-0.0190,-0.8906,-0.244,0.366,0.244,-179.072,28.065,-114.609
7230,-0.4800,-0.0171,-0.8911,0.122,0.122,0.122,-179.072,28.065,-114.609
7240,-0.4800,-0.0176,-0.8916,0.488,0.061,0.061,-179.066,28.065,-114.609
7250,-0.4780,-0.0190,-0.8921,0.610,0.122,0.061,-179.055,28.065,-114.609
7260,-0.4775,-0.0171,-0.8955,0.244,0.244,0.244,-179.055,28.065,-114.615
7270,-0.4771,-0.0176,-0.8906,-0.305,0.305,0.305,-179.055,28.065,-114.615
7280,-0.4780,-0.0190,-0.8906,-0.793,0.488,0.366,-179.066,28.059,-114.620
7290,-0.4771,-0.0181,-0.8945,-1.038,0.610,0.366,-179.072,28.054,-114.626
7300,-0.4766,-0.0200,-0.8955,-1.099,0.610,0.427,-179.083,28.048,-114.631
7310,-0.4766,-0.0186,-0.8970,-0.854,0.488,0.366,-179.094,28.043,-114.631
7320,-0.4785,-0.0195,-0.8979,-0.610,0.427,0.366,-179.094,28.037,-114.637
7330,-0.4775,-0.0195,-0.8960,-0.427,0.427,0.305,-179.099,28.032,-114.642
7340,-0.4756,-0.0195,-0.8955,-0.366,0.122,0.366,-179.099,28.032,-114.648
7350,-0.4761,-0.0200,-0.8960,-0.244,-0.366,0.427,-179.099,28.037,-114.648
7360,-0.4771,-0.0190,-0.8965,-0.061,-0.671,0.488,-179.099,28.043,-114.653
7370,-0.4771,-0.0176,-0.8950,0.183,-0.793,0.488,-179.099,28.048,-114.659
7380,-0.4790,-0.0161,-0.8931,0.366,-0.732,0.427,-179.099,28.059,-114.664
7390,-0.4780,-0.0137,-0.8921,0.488,-0.671,0.305,-179.094,28.065,-114.670
7400,-0.4771,-0.0151,-0.8887,0.610,-0.610,0.183,-179.088,28.076,-114.670
7410,-0.4775,-0.0112,-0.8848,0.549,-0.427,0.000,-179.083,28.081,-114.670
7420,-0.4771,-0.0117,-0.8809,0.488,-0.061,-0.244,-179.077,28.087,-114.670
7430,-0.4771,-0.0122,-0.8799,0.305,0.427,-0.366,-179.077,28.087,-114.664
7440,-0.4766,-0.0146,-0.8818,-0.122,0.732,-0.366,-179.077,28.081,-114.659
7450,-0.4756,-0.0161,-0.8843,-0.549,1.038,-0.305,-179.077,28.070,-114.659
7460,-0.4756,-0.0146,-0.8906,-0.854,1.160,-0.122,-179.083,28.059,-114.653
7470,-0.4775,-0.0181,-0.8911,-1.221,1.221,-0.061,-179.094,28.048,-114.653
7480,-0.4771,-0.0229,-0.8965,-1.526,1.404,-0.061,-179.105,28.037,-114.653
7490,-0.4780,-0.0229,-0.8984,-1.770,1.526,-0.061,-179.116,28.021,-114.653
7500,-0.4766,-0.0229,-0.9043,-1.831,1.465,-0.061,-179.127,28.004,-114.653
7510,-0.4751,-0.0239,-0.9058,-1.587,1.160,0.061,-179.138,27.988,-114.653
7520,-0.4766,-0.0225,-0.9077,-1.099,0.671,0.183,-179.143,27.982,-114.659
7530,-0.4761,-0.0200,-0.9063,-0.427,0.122,0.305,-179.143,27.977,-114.659
7540,-0.4790,-0.0171,-0.9023,0.305,-0.488,0.427,-179.143,27.982,-114.664
7550,-0.4761,-0.0161,-0.8984,1.099,-1.099,0.427,-179.132,27.993,-114.670
7560,-0.4780,-0.0132,-0.8945,1.831,-1.587,0.244,-179.116,28.010,-114.670
7570,-0.4785,-0.0127,-0.8872,2.197,-1.770,-0.061,-179.094,28.032,-114.670
7580,-0.4766,-0.0137,-0.8833,2.197,-1.587,-0.305,-179.072,28.048,-114.670
7590,-0.4766,-0.0151,-0.8804,1.648,-1.038,-0.366,-179.050,28.065,-114.664
7600,-0.4766,-0.0186,-0.8789,0.671,-0.244,-0.366,-179.039,28.070,-114.659
7610,-0.4761,-0.0195,-0.8789,-0.549,0.488,-0.183,-179.039,28.070,-114.659
7620,-0.4741,-0.0215,-0.8838,-1.831,1.038,0.122,-179.055,28.059,-114.659
7630,-0.4712,-0.0200,-0.8882,-2.502,1.343,0.427,-179.077,28.043,-114.659
7640,-0.4727,-0.0171,-0.8936,-2.441,1.343,0.671,-179.105,28.032,-114.659
7650,-0.4785,-0.0171,-0.8989,-1.709,1.221,0.671,-179.127,28.015,-114.659
7660,-0.4790,-0.0181,-0.9028,-0.732,1.160,0.366,-179.132,28.004,-114.659
7670,-0.4785,-0.0195,-0.9038,0.061,0.977,0.122,-179.127,27.993,-114.659
7680,-0.4790,-0.0205,-0.9023,0.488,0.610,0.122,-179.121,27.988,-114.659
7690,-0.4785,-0.0195,-0.9004,0.610,0.183,0.183,-179.110,27.988,-114.659
7700,-0.4780,-0.0166,-0.8975,0.549,-0.183,0.183,-179.105,27.988,-114.659
7711,-0.4785,-0.0137,-0.8945,0.549,-0.366,0.122,-179.099,27.993,-114.659
7720,-0.4771,-0.0161,-0.8906,0.671,-0.305,-0.061,-179.088,27.999,-114.659
7730,-0.4751,-0.0181,-0.8906,0.488,-0.244,-0.061,-179.083,28.004,-114.659
7740,-0.4741,-0.0161,-0.8950,0.244,-0.244,0.000,-179.077,28.004,-114.659
7750,-0.4756,-0.0156,-0.8921,0.061,-0.244,0.000,-179.077,28.004,-114.659
7760,-0.4766,-0.0146,-0.8892,-0.061,-0.183,0.061,-179.077,28.010,-114.659
7770,-0.4771,-0.0161,-0.8906,-0.061,-0.122,0.000,-179.077,28.015,-114.659
7780,-0.4780,-0.0151,-0.8926,-0.061,-0.061,0.000,-179.077,28.015,-114.659
7790,-0.4790,-0.0176,-0.8931,-0.061,0.000,-0.061,-179.077,28.015,-114.659
7800,-0.4766,-0.0156,-0.8955,-0.183,0.183,-0.061,-179.077,28.015,-114.659
7810,-0.4790,-0.0122,-0.8950,-0.366,0.366,-0.122,-179.083,28.015,-114.659
7820,-0.4780,-0.0142,-0.8916,-0.366,0.366,-0.244,-179.083,28.010,-114.659
7830,-0.4761,-0.0142,-0.8901,-0.305,0.244,-0.488,-179.083,28.010,-114.659
7840,-0.4780,-0.0171,-0.8945,-0.488,0.122,-0.549,-179.083,28.010,-114.659
7850,-0.4771,-0.0205,-0.8950,-0.549,0.122,-0.488,-179.083,28.010,-114.659
7860,-0.4751,-0.0215,-0.8950,-0.671,0.122,-0.366,-179.083,28.010,-114.659
7870,-0.4736,-0.0229,-0.8970,-0.671,0.244,-0.305,-179.083,28.004,-114.659
7880,-0.4751,-0.0239,-0.8955,-0.610,0.244,-0.244,-179.083,27.999,-114.659
7890,-0.4751,-0.0234,-0.8950,-0.610,0.122,-0.061,-179.083,27.999,-114.659
7900,-0.4771,-0.0220,-0.8965,-0.427,-0.061,0.122,-179.083,27.999,-114.659
7915,-0.4785,-0.0171,-0.8970,-0.122,-0.183,0.183,-179.083,28.004,-114.659
7920,-0.4785,-0.0151,-0.8950,0.305,-0.305,0.122,-179.077,28.004,-114.659
7930,-0.4790,-0.0107,-0.8911,0.671,-0.366,-0.061,-179.072,28.015,-114.659
7940,-0.4785,-0.0137,-0.8877,0.854,-0.488,-0.305,-179.066,28.021,-114.659
7950,-0.4771,-0.0137,-0.8862,0.122,-0.244,-0.305,-179.061,28.026,-114.659
7960,-0.4751,-0.0127,-0.8857,-0.244,0.122,-0.427,-179.066,28.026,-114.659
7970,-0.4751,-0.0142,-0.8848,-0.549,0.488,-0.549,-179.066,28.026,-114.659
7980,-0.4741,-0.0186,-0.8872,-0.916,0.793,-0.549,-179.072,28.015,-114.659
7990,-0.4751,-0.0195,-0.8901,-1.282,0.793,-0.427,-179.077,28.010,-114.659
8000,-0.4756,-0.0239,-0.8970,-1.465,0.732,-0.244,-179.083,28.004,-114.659
8010,-0.4756,-0.0229,-0.9014,-1.587,0.610,-0.061,-179.094,27.993,-114.659
8020,-0.4771,-0.0200,-0.9019,-1.282,0.427,0.061,-179.105,27.988,-114.659
8030,-0.4761,-0.0200,-0.9014,-0.671,0.183,0.122,-179.105,27.982,-114.659
8040,-0.4775,-0.0210,-0.8989,0.061,-0.122,0.061,-179.105,27.988,-114.659
8050,-0.4756,-0.0210,-0.8965,0.549,-0.366,0.061,-179.094,27.988,-114.659
8060,-0.4771,-0.0229,-0.8950,0.610,-0.732,0.122,-179.083,27.999,-114.659
8070,-0.4766,-0.0210,-0.8916,0.427,-0.793,0.305,-179.077,28.004,-114.659
8080,-0.4771,-0.0186,-0.8911,0.366,-0.854,0.366,-179.072,28.015,-114.659
8090,-0.4771,-0.0151,-0.8892,0.366,-0.732,0.305,-179.066,28.026,-114.659
8100,-0.4780,-0.0117,-0.8877,0.488,-0.488,0.244,-179.066,28.032,-114.659
8110,-0.4766,-0.0122,-0.8857,0.671,-0.183,0.122,-179.061,28.037,-114.659
8120,-0.4756,-0.0132,-0.8799,0.793,0.061,0.000,-179.055,28.043,-114.659
8130,-0.4766,-0.0132,-0.8823,0.549,0.244,0.000,-179.050,28.043,-114.659
8140,-0.4756,-0.0146,-0.8838,0.061,0.488,0.000,-179.050,28.037,-114.659
8150,-0.4771,-0.0142,-0.8862,-0.732,0.732,0.000,-179.055,28.037,-114.659
8160,-0.4751,-0.0137,-0.8916,-1.404,0.977,0.000,-179.072,28.026,-114.659
8170,-0.4775,-0.0171,-0.8989,-1.831,0.977,0.061,-179.088,28.015,-114.659
8180,-0.4761,-0.0195,-0.9033,-1.953,0.854,0.122,-179.105,28.004,-114.659
8190,-0.4775,-0.0190,-0.9082,-1.831,0.488,0.183,-179.121,27.999,-114.659
8200,-0.4780,-0.0195,-0.9087,-1.221,0.061,0.122,-179.132,27.993,-114.659
8211,-0.4780,-0.0229,-0.9072,-0.305,-0.366,0.000,-179.127,27.993,-114.659
8220,-0.4766,-0.0220,-0.9043,0.488,-0.793,-0.061,-179.116,27.999,-114.659
8230,-0.4761,-0.0210,-0.8970,1.221,-1.221,0.183,-179.099,28.015,-114.659
8240,-0.4766,-0.0229,-0.8921,1.648,-1.526,0.305,-179.083,28.032,-114.659
8250,-0.4775,-0.0229,-0.8892,1.709,-1.526,0.366,-179.061,28.048,-114.659
8260,-0.4761,-0.0195,-0.8843,1.343,-1.282,0.549,-179.044,28.059,-114.659
8270,-0.4771,-0.0166,-0.8823,0.732,-1.038,0.854,-179.044,28.076,-114.659
8280,-0.4780,-0.0156,-0.8809,0.244,-0.854,0.977,-179.044,28.087,-114.659
8290,-0.4785,-0.0112,-0.8828,-0.244,-0.427,0.977,-179.055,28.098,-114.659
8300,-0.4785,-0.0088,-0.8862,-0.549,-0.244,0.916,-179.066,28.103,-114.659
8310,-0.4800,-0.0088,-0.8857,-0.488,0.061,0.732,-179.077,28.103,-114.659
8320,-0.4795,-0.0073,-0.8862,-0.244,0.366,0.488,-179.088,28.103,-114.659
8330,-0.4785,-0.0088,-0.8887,-0.122,0.671,0.061,-179.094,28.098,-114.659
8340,-0.4785,-0.0103,-0.8892,-0.122,0.854,-0.366,-179.094,28.092,-114.659
8350,-0.4771,-0.0132,-0.8906,-0.244,0.916,-0.488,-179.099,28.087,-114.659
8360,-0.4785,-0.0161,-0.8921,-0.549,0.916,-0.549,-179.099,28.076,-114.659
8370,-0.4780,-0.0210,-0.8926,-0.793,0.916,-0.549,-179.099,28.070,-114.659
8380,-0.4756,-0.0229,-0.8955,-1.038,0.854,-0.366,-179.099,28.059,-114.659
8390,-0.4751,-0.0249,-0.8965,-1.099,0.610,0.000,-179.105,28.054,-114.659
8400,-0.4766,-0.0239,-0.9009,-0.854,0.305,0.183,-179.110,28.048,-114.659
8410,-0.4780,-0.0234,-0.8989,-0.366,0.183,0.305,-179.110,28.043,-114.659
8420,-0.4761,-0.0264,-0.8984,0.061,0.183,0.366,-179.099,28.043,-114.659
8430,-0.4766,-0.0244,-0.9004,0.366,0.061,0.488,-179.094,28.037,-114.659
8440,-0.4771,-0.0229,-0.9009,0.671,-0.305,0.732,-179.083,28.043,-114.659
8450,-0.4805,-0.0171,-0.8989,0.977,-0.671,0.854,-179.077,28.048,-114.659
8460,-0.4810,-0.0142,-0.8970,1.404,-0.854,0.732,-179.066,28.059,-114.659
8470,-0.4785,-0.0132,-0.8901,1.709,-0.732,0.488,-179.055,28.070,-114.659
8480,-0.4780,-0.0132,-0.8857,1.709,-0.427,0.305,-179.039,28.076,-114.659
8490,-0.4780,-0.0137,-0.8867,1.343,-0.366,0.244,-179.028,28.081,-114.659
8500,-0.4785,-0.0122,-0.8848,0.671,-0.305,0.305,-179.028,28.087,-114.659
8510,-0.4780,-0.0103,-0.8862,-0.122,-0.183,0.305,-179.033,28.092,-114.659
8520,-0.4785,-0.0093,-0.8892,-0.610,0.122,0.122,-179.044,28.092,-114.659
8530,-0.4780,-0.0117,-0.8931,-0.671,0.427,0.000,-179.050,28.092,-114.659
8540,-0.4771,-0.0127,-0.8926,-0.549,0.488,-0.183,-179.055,28.087,-114.659
8550,-0.4795,-0.0161,-0.8960,-0.366,0.488,-0.427,-179.055,28.081,-114.659
8560,-0.4766,-0.0195,-0.8960,-0.305,0.549,-0.488,-179.055,28.076,-114.659
8570,-0.4756,-0.0205,-0.8955,-0.366,0.610,-0.488,-179.050,28.070,-114.659
8580,-0.4761,-0.0229,-0.8965,-0.366,0.488,-0.305,-179.050,28.059,-114.659
8590,-0.4756,-0.0283,-0.8989,-0.488,0.244,-0.061,-179.044,28.059,-114.659
8600,-0.4761,-0.0259,-0.8999,-0.793,-0.061,0.244,-179.044,28.054,-114.659
8610,-0.4785,-0.0239,-0.8994,-0.854,-0.305,0.427,-179.050,28.059,-114.659
8620,-0.4771,-0.0215,-0.8994,-0.427,-0.366,0.610,-179.055,28.059,-114.659
8630,-0.4785,-0.0186,-0.9014,0.122,-0.671,0.671,-179.055,28.065,-114.659
8640,-0.4800,-0.0186,-0.8965,0.610,-0.916,0.671,-179.050,28.076,-114.659
8650,-0.4771,-0.0181,-0.8931,0.854,-0.977,0.671,-179.044,28.087,-114.659
8660,-0.4766,-0.0161,-0.8916,0.732,-1.099,0.671,-179.039,28.098,-114.659
8670,-0.4761,-0.0156,-0.8887,0.671,-1.282,0.671,-179.033,28.114,-114.659
8680,-0.4795,-0.0156,-0.8843,0.671,-1.282,0.671,-179.033,28.130,-114.659
8690,-0.4790,-0.0161,-0.8828,0.427,-0.977,0.549,-179.028,28.141,-114.659
8700,-0.4766,-0.0176,-0.8843,0.061,-0.488,0.488,-179.028,28.147,-114.659
8711,-0.4785,-0.0181,-0.8843,-0.427,-0.061,0.671,-179.033,28.152,-114.659
8720,-0.4756,-0.0186,-0.8867,-1.099,0.305,0.793,-179.050,28.147,-114.659
8730,-0.4766,-0.0195,-0.8896,-1.587,0.671,0.916,-179.066,28.141,-114.659
8740,-0.4785,-0.0195,-0.8901,-1.953,0.916,1.038,-179.088,28.136,-114.670
8750,-0.4800,-0.0190,-0.8960,-1.953,0.854,1.160,-179.110,28.125,-114.681
8760,-0.4800,-0.0200,-0.9004,-1.770,0.610,1.221,-179.127,28.120,-114.697
8770,-0.4810,-0.0200,-0.9019,-1.343,0.366,1.160,-179.143,28.120,-114.708
8780,-0.4785,-0.0195,-0.8994,-0.793,0.183,1.099,-179.154,28.114,-114.725
8790,-0.4785,-0.0186,-0.8950,-0.183,-0.061,1.099,-179.160,28.114,-114.736
8800,-0.4775,-0.0190,-0.8950,0.366,-0.305,1.099,-179.154,28.120,-114.747
8810,-0.4761,-0.0195,-0.8901,0.671,-0.671,1.282,-179.154,28.125,-114.763
8820,-0.4766,-0.0186,-0.8887,0.427,-0.793,1.465,-179.154,28.136,-114.780
8830,-0.4771,-0.0210,-0.8848,0.122,-0.610,1.770,-179.154,28.141,-114.796
8840,-0.4751,-0.0200,-0.8828,-0.610,-0.305,2.075,-179.171,28.147,-114.824
8850,-0.4771,-0.0215,-0.8813,-1.526,0.305,2.502,-179.193,28.147,-114.851
8860,-0.4785,-0.0181,-0.8843,-2.441,0.793,2.869,-179.225,28.141,-114.884
8870,-0.4795,-0.0151,-0.8862,-3.174,0.977,3.235,-179.275,28.136,-114.917
8881,-0.4814,-0.0132,-0.8936,-3.662,1.038,3.296,-179.324,28.130,-114.955
8891,-0.4790,-0.0073,-0.9004,-3.052,1.221,3.052,-179.374,28.114,-114.994
8901,-0.4795,-0.0029,-0.9023,-1.953,1.343,2.686,-179.412,28.103,-115.021
8911,-0.4795,-0.0029,-0.9014,-0.610,1.282,2.380,-179.434,28.087,-115.049
8920,-0.4780,0.0015,-0.8975,0.671,0.916,1.953,179.901,28.081,-115.071
8931,-0.4785,0.0020,-0.8975,1.526,0.366,1.404,179.912,28.076,-115.087
8940,-0.4790,-0.0015,-0.8970,1.770,-0.122,0.916,-179.901,28.076,-115.098
8951,-0.4800,-0.0010,-0.8984,1.526,-0.366,0.610,-179.890,28.081,-115.104
8961,-0.4800,-0.0005,-0.8926,0.977,-0.427,0.366,-179.885,28.087,-115.109
8971,-0.4795,-0.0024,-0.8911,0.122,-0.305,0.183,-179.885,28.092,-115.109
8981,-0.4814,-0.0063,-0.8911,-0.610,-0.244,-0.061,-179.885,28.098,-115.109
8991,-0.4805,-0.0093,-0.8921,-1.221,0.122,-0.244,-179.896,28.098,-115.109
9001,-0.4775,-0.0107,-0.8945,-1.953,0.366,-0.183,-179.907,28.092,-115.104
9011,-0.4780,-0.0093,-0.8979,-2.380,0.183,-0.061,-179.923,28.092,-115.104
9021,-0.4771,-0.0098,-0.8975,-2.319,-0.366,0.061,-179.940,28.092,-115.104
9031,-0.4795,-0.0083,-0.8999,-1.526,-0.854,0.000,-179.951,28.103,-115.104
9041,-0.4795,-0.0078,-0.8955,-0.122,-1.343,-0.305,-179.945,28.114,-115.104
9051,-0.4810,-0.0122,-0.8892,0.916,-1.343,-0.549,-179.929,28.130,-115.098
9061,-0.4785,-0.0137,-0.8867,1.221,-1.099,-0.549,-179.907,28.147,-115.087
9071,-0.4780,-0.0156,-0.8818,0.854,-0.854,-0.366,-179.885,28.158,-115.087
9081,-0.4780,-0.0151,-0.8809,0.183,-0.671,-0.244,-179.874,28.169,-115.082
9091,-0.4790,-0.0146,-0.8828,-0.183,-0.488,-0.244,-179.868,28.174,-115.082
9101,-0.4829,-0.0176,-0.8848,-0.610,-0.061,-0.183,-179.863,28.180,-115.076
9111,-0.4824,-0.0181,-0.8892,-1.099,0.610,0.000,-179.863,28.180,-115.076
9121,-0.4741,-0.0195,-0.8901,-1.404,0.977,0.244,-179.863,28.169,-115.082
9131,-0.4731,-0.0151,-0.8955,-1.465,0.671,0.610,-179.874,28.158,-115.087
9141,-0.4780,-0.0117,-0.8970,-1.038,0.244,0.793,-179.885,28.152,-115.098
9151,-0.4795,-0.0049,-0.8984,-0.183,0.122,0.671,-179.885,28.152,-115.104
9161,-0.4785,-0.0039,-0.8940,0.854,0.122,0.366,-179.879,28.152,-115.109
9171,-0.4810,-0.0059,-0.8965,1.465,0.122,0.122,-179.863,28.152,-115.109
9181,-0.4863,-0.0073,-0.8926,1.648,0.061,0.000,-179.841,28.152,-115.109
9191,-0.4810,-0.0078,-0.8882,1.404,-0.061,-0.122,-179.824,28.158,-115.109
9201,-0.4761,-0.0083,-0.8877,0.854,-0.244,-0.122,-179.813,28.158,-115.109
9211,-0.4780,-0.0098,-0.8857,0.427,-0.427,-0.122,-179.802,28.169,-115.104
9221,-0.4795,-0.0127,-0.8857,0.183,-0.305,-0.366,-179.791,28.174,-115.104
9231,-0.4780,-0.0156,-0.8882,-0.122,0.244,-0.488,-179.780,28.169,-115.098
9241,-0.4736,-0.0171,-0.8911,-0.671,0.671,-0.366,-179.780,28.163,-115.093
9251,-0.4761,-0.0156,-0.8955,-1.099,0.732,-0.061,-179.780,28.152,-115.093
9261,-0.4771,-0.0137,-0.8989,-1.038,0.610,0.183,-179.786,28.147,-115.093
9271,-0.4795,-0.0103,-0.8970,-0.488,0.427,0.183,-179.786,28.141,-115.093
9280,-0.4800,-0.0112,-0.8965,0.427,0.000,0.000,-179.780,28.141,-115.093
9291,-0.4800,-0.0137,-0.8906,1.282,-0.305,-0.122,-179.758,28.147,-115.093
9301,-0.4795,-0.0156,-0.8887,1.709,-0.366,-0.244,-179.731,28.152,-115.093
9311,-0.4814,-0.0186,-0.8892,1.343,-0.061,-0.122,-179.709,28.152,-115.087
9321,-0.4771,-0.0151,-0.8857,0.488,0.366,0.122,-179.698,28.152,-115.093
9331,-0.4741,-0.0156,-0.8857,-0.183,0.488,0.305,-179.692,28.147,-115.093
9341,-0.4771,-0.0171,-0.8887,-0.671,0.488,0.610,-179.698,28.147,-115.104
9351,-0.4800,-0.0186,-0.8916,-0.977,0.427,0.671,-179.698,28.141,-115.109
9361,-0.4790,-0.0146,-0.8916,-0.916,0.488,0.793,-179.709,28.136,-115.120
9371,-0.4751,-0.0181,-0.8936,-0.549,0.488,0.977,-179.709,28.130,-115.131
9381,-0.4785,-0.0190,-0.8931,-0.305,0.488,1.221,-179.709,28.125,-115.142
9391,-0.4775,-0.0176,-0.8950,-0.305,0.549,1.526,-179.714,28.120,-115.159
9401,-0.4785,-0.0166,-0.8936,-0.305,0.427,1.709,-179.714,28.120,-115.181
9411,-0.4771,-0.0117,-0.8926,-0.183,0.122,1.709,-179.720,28.120,-115.197
9421,-0.4785,-0.0093,-0.8955,0.122,-0.122,1.526,-179.725,28.120,-115.214
9431,-0.4839,-0.0088,-0.8931,0.549,-0.305,1.221,-179.725,28.125,-115.230
9441,-0.4814,-0.0049,-0.8906,1.038,-0.305,0.916,-179.720,28.130,-115.241
9451,-0.4771,-0.0044,-0.8906,1.221,-0.183,0.732,-179.709,28.130,-115.247
9461,-0.4780,-0.0024,-0.8887,1.160,0.000,0.671,-179.703,28.136,-115.258
9471,-0.4785,-0.0020,-0.8853,0.610,0.122,0.671,-179.703,28.136,-115.263
9481,-0.4775,-0.0015,-0.8857,-0.061,0.244,0.671,-179.709,28.136,-115.274
9490,-0.4766,0.0000,-0.8862,-0.671,0.427,0.549,-180.000,28.130,-115.280
9500,-0.4790,-0.0020,-0.8916,-1.160,0.305,0.366,-179.874,28.130,-115.280
9511,-0.4810,-0.0044,-0.8940,-1.282,0.244,0.122,-179.885,28.130,-115.285
9521,-0.4814,-0.0068,-0.8945,-1.221,0.366,-0.122,-179.890,28.130,-115.280
9531,-0.4810,-0.0107,-0.8965,-1.221,0.427,-0.305,-179.896,28.125,-115.280
9541,-0.4780,-0.0151,-0.8989,-0.977,0.366,-0.427,-179.896,28.120,-115.274
9551,-0.4771,-0.0161,-0.8979,-0.793,0.122,-0.305,-179.890,28.120,-115.269
9561,-0.4780,-0.0142,-0.8970,-0.488,-0.305,-0.061,-179.890,28.120,-115.269
9571,-0.4785,-0.0122,-0.8926,0.061,-0.732,0.000,-179.879,28.130,-115.269
9581,-0.4795,-0.0151,-0.8921,0.916,-0.916,-0.122,-179.863,28.136,-115.269
9591,-0.4805,-0.0142,-0.8911,1.282,-0.732,-0.244,-179.841,28.147,-115.263
9601,-0.4785,-0.0161,-0.8882,1.282,-0.427,-0.183,-179.819,28.152,-115.263
9611,-0.4751,-0.0161,-0.8843,0.916,-0.122,0.061,-179.802,28.158,-115.263
9621,-0.4775,-0.0156,-0.8843,0.244,0.000,0.305,-179.791,28.158,-115.269
9631,-0.4800,-0.0151,-0.8838,-0.305,0.183,0.488,-179.791,28.158,-115.274
9641,-0.4780,-0.0137,-0.8843,-0.610,0.488,0.488,-179.791,28.158,-115.280
9651,-0.4771,-0.0132,-0.8877,-0.732,0.732,0.610,-179.797,28.152,-115.285
9661,-0.4780,-0.0122,-0.8921,-0.732,0.854,0.793,-179.802,28.141,-115.296
9671,-0.4805,-0.0098,-0.8936,-0.793,0.916,0.854,-179.808,28.136,-115.302
9681,-0.4810,-0.0073,-0.8960,-0.793,0.793,0.793,-179.819,28.130,-115.313
9691,-0.4810,-0.0059,-0.8965,-0.549,0.610,0.549,-179.824,28.125,-115.318
9701,-0.4819,-0.0068,-0.8989,-0.183,0.366,0.305,-179.824,28.120,-115.323
9711,-0.4795,-0.0073,-0.8999,0.000,0.244,0.122,-179.824,28.120,-115.323
9721,-0.4775,-0.0083,-0.8984,-0.122,0.183,0.061,-179.824,28.114,-115.323
9731,-0.4771,-0.0083,-0.8970,-0.427,0.000,0.061,-179.824,28.114,-115.323
9741,-0.4775,-0.0093,-0.9014,-0.488,-0.183,0.061,-179.824,28.114,-115.329
9751,-0.4800,-0.0083,-0.8975,-0.366,-0.610,0.000,-179.824,28.120,-115.329
9761,-0.4814,-0.0088,-0.8965,0.244,-1.099,-0.122,-179.819,28.130,-115.323
9771,-0.4795,-0.0068,-0.8901,0.977,-1.404,-0.366,-179.802,28.147,-115.323
9781,-0.4775,-0.0083,-0.8877,1.465,-1.282,-0.610,-179.780,28.163,-115.313
9791,-0.4780,-0.0117,-0.8833,1.404,-0.977,-0.610,-179.758,28.174,-115.307
9801,-0.4795,-0.0166,-0.8813,0.549,-0.671,-0.366,-179.742,28.185,-115.302
9811,-0.4810,-0.0186,-0.8823,-0.610,-0.427,0.061,-179.742,28.191,-115.302
9821,-0.4790,-0.0142,-0.8838,-1.343,-0.183,0.427,-179.747,28.196,-115.307
9831,-0.4795,-0.0112,-0.8853,-1.343,0.183,0.427,-179.758,28.196,-115.313
9841,-0.4819,-0.0137,-0.8862,-1.099,0.488,0.244,-179.764,28.196,-115.318
9851,-0.4795,-0.0146,-0.8887,-0.732,0.793,0.061,-179.764,28.191,-115.318
9861,-0.4775,-0.0156,-0.8945,-0.610,0.916,0.061,-179.764,28.180,-115.318
9871,-0.4771,-0.0137,-0.8950,-0.549,0.671,0.305,-179.764,28.169,-115.323
9881,-0.4800,-0.0088,-0.8994,-0.305,0.183,0.610,-179.769,28.169,-115.329
9891,-0.4814,-0.0054,-0.8975,0.366,-0.183,0.610,-179.769,28.169,-115.334
9901,-0.4819,-0.0059,-0.8960,1.282,-0.427,0.305,-179.753,28.174,-115.340
9911,-0.4810,-0.0063,-0.8887,1.831,-0.305,-0.183,-179.731,28.180,-115.334
9921,-0.4819,-0.0078,-0.8872,1.709,-0.061,-0.366,-179.714,28.185,-115.334
9931,-0.4800,-0.0088,-0.8862,0.916,0.183,-0.427,-179.698,28.185,-115.329
9941,-0.4805,-0.0068,-0.8838,-0.122,0.366,-0.366,-179.698,28.185,-115.323
9951,-0.4785,-0.0078,-0.8882,-0.916,0.488,-0.366,-179.703,28.185,-115.318
9961,-0.4805,-0.0098,-0.8901,-1.160,0.610,-0.488,-179.709,28.180,-115.313
9971,-0.4790,-0.0137,-0.8911,-1.282,0.854,-0.549,-179.709,28.169,-115.307
9981,-0.4771,-0.0171,-0.8916,-1.343,1.038,-0.427,-179.714,28.158,-115.302
9991,-0.4751,-0.0151,-0.8975,-1.343,1.038,-0.183,-179.720,28.147,-115.302
10001,-0.4736,-0.0146,-0.8965,-0.732,0.671,-0.061,-179.720,28.136,-115.302
10011,-0.4800,-0.0195,-0.8994,0.000,0.549,0.000,-179.709,28.130,-115.302
10021,-0.4819,-0.0146,-0.8984,0.183,0.427,0.000,-179.703,28.130,-115.302
10031,-0.4795,-0.0127,-0.8936,0.427,0.366,0.000,-179.692,28.125,-115.302
10041,-0.4795,-0.0127,-0.8916,0.549,0.244,0.122,-179.681,28.125,-115.302
10051,-0.4805,-0.0112,-0.8926,0.427,0.000,0.000,-179.676,28.125,-115.302
10061,-0.4790,-0.0137,-0.8926,0.305,-0.122,0.000,-179.665,28.130,-115.302
10071,-0.4775,-0.0127,-0.8916,-0.061,-0.183,0.061,-179.659,28.130,-115.302
10081,-0.4761,-0.0112,-0.8882,-0.488,-0.061,0.183,-179.665,28.130,-115.302
10091,-0.4766,-0.0093,-0.8901,-0.488,0.244,0.305,-179.665,28.130,-115.307
10101,-0.4766,-0.0088,-0.8901,-0.305,0.427,0.244,-179.670,28.125,-115.313
10111,-0.4771,-0.0088,-0.8926,-0.122,0.488,0.000,-179.670,28.120,-115.313
10121,-0.4800,-0.0073,-0.8931,-0.061,0.427,-0.122,-179.665,28.120,-115.307
10131,-0.4790,-0.0059,-0.8906,0.000,0.366,-0.122,-179.665,28.120,-115.307
10141,-0.4824,-0.0054,-0.8940,-0.122,0.244,-0.122,-179.665,28.120,-115.307
10151,-0.4829,-0.0068,-0.8921,-0.122,0.244,-0.183,-179.665,28.120,-115.302
10161,-0.4814,-0.0103,-0.8906,-0.122,0.366,-0.366,-179.659,28.120,-115.302
10171,-0.4800,-0.0122,-0.8906,-0.488,0.549,-0.549,-179.659,28.114,-115.296
10181,-0.4761,-0.0151,-0.8911,-0.916,0.549,-0.610,-179.659,28.109,-115.285
10191,-0.4756,-0.0171,-0.8931,-1.160,0.488,-0.549,-179.659,28.103,-115.280
10201,-0.4717,-0.0161,-0.8936,-1.099,0.488,-0.366,-179.659,28.092,-115.274
10211,-0.4741,-0.0156,-0.8940,-0.671,0.427,-0.061,-179.659,28.087,-115.274
10221,-0.4761,-0.0166,-0.8911,-0.305,0.366,0.305,-179.659,28.087,-115.280
10231,-0.4780,-0.0146,-0.8950,-0.122,0.183,0.488,-179.654,28.087,-115.285
10241,-0.4800,-0.0137,-0.8950,0.061,0.000,0.549,-179.654,28.087,-115.291
10251,-0.4790,-0.0142,-0.8936,0.244,-0.061,0.549,-179.648,28.087,-115.296
10261,-0.4790,-0.0117,-0.8936,0.122,-0.183,0.488,-179.643,28.092,-115.302
10271,-0.4805,-0.0112,-0.8921,0.122,-0.183,0.488,-179.643,28.092,-115.307
10281,-0.4785,-0.0103,-0.8945,-0.183,-0.122,0.488,-179.643,28.098,-115.313
10291,-0.4761,-0.0098,-0.8921,-0.427,-0.122,0.488,-179.648,28.098,-115.318
10301,-0.4761,-0.0068,-0.8906,-0.305,-0.061,0.488,-179.654,28.098,-115.323
10311,-0.4800,-0.0088,-0.8901,0.061,0.061,0.427,-179.654,28.098,-115.329
10321,-0.4785,-0.0088,-0.8867,0.244,0.244,0.244,-179.648,28.098,-115.334
10331,-0.4775,-0.0044,-0.8862,0.183,0.305,0.122,-179.648,28.098,-115.334
10341,-0.4800,-0.0054,-0.8887,0.000,0.366,0.000,-179.648,28.098,-115.334
10351,-0.4814,-0.0059,-0.8916,-0.427,0.488,-0.244,-179.654,28.098,-115.329
10361,-0.4800,-0.0073,-0.8901,-0.793,0.732,-0.427,-179.654,28.092,-115.329
10371,-0.4805,-0.0093,-0.8901,-1.099,0.916,-0.488,-179.659,28.087,-115.323
10381,-0.4766,-0.0098,-0.8931,-1.343,0.916,-0.549,-179.670,28.076,-115.313
10391,-0.4780,-0.0083,-0.8950,-1.465,0.732,-0.549,-179.676,28.070,-115.307
10401,-0.4775,-0.0103,-0.8999,-1.221,0.366,-0.549,-179.687,28.065,-115.302
10411,-0.4780,-0.0083,-0.8994,-0.671,0.000,-0.732,-179.687,28.065,-115.296
10421,-0.4780,-0.0112,-0.8955,0.122,-0.305,-0.916,-179.676,28.065,-115.285
10431,-0.4790,-0.0132,-0.8960,0.610,-0.305,-0.977,-179.659,28.070,-115.285
10441,-0.4800,-0.0156,-0.8940,0.488,-0.122,-0.916,-179.643,28.076,-115.285
10451,-0.4775,-0.0210,-0.8945,-0.122,0.000,-0.610,-179.632,28.076,-115.285
10461,-0.4766,-0.0210,-0.8960,-1.038,-0.061,-0.183,-179.632,28.076,-115.285
10471,-0.4722,-0.0142,-0.8999,-1.770,-0.305,0.305,-179.643,28.070,-115.285
10481,-0.4785,-0.0088,-0.9023,-2.014,-0.488,0.671,-179.665,28.076,-115.285
10491,-0.4829,-0.0054,-0.8975,-0.977,-0.427,0.244,-179.676,28.081,-115.285
10501,-0.4795,-0.0029,-0.8979,-0.061,-0.549,-0.610,-179.676,28.087,-115.285
10511,-0.4785,-0.0063,-0.8911,1.221,-0.854,-1.038,-179.654,28.098,-115.274
10521,-0.4775,-0.0112,-0.8853,2.075,-1.099,-1.099,-179.626,28.109,-115.258
10531,-0.4790,-0.0122,-0.8828,1.831,-1.221,-0.854,-179.599,28.125,-115.252
10541,-0.4775,-0.0112,-0.8813,0.977,-0.977,-0.610,-179.583,28.141,-115.241
10551,-0.4771,-0.0103,-0.8789,0.122,-0.488,-0.610,-179.577,28.147,-115.236
10561,-0.4771,-0.0112,-0.8809,-0.793,0.000,-0.610,-179.577,28.152,-115.230
10571,-0.4795,-0.0103,-0.8853,-1.404,0.366,-0.671,-179.583,28.152,-115.219
10581,-0.4790,-0.0117,-0.8872,-1.587,0.793,-0.793,-179.594,28.147,-115.214
10591,-0.4746,-0.0137,-0.8906,-1.526,1.160,-0.793,-179.599,28.130,-115.203
10601,-0.4727,-0.0132,-0.8926,-1.221,1.160,-0.671,-179.604,28.120,-115.197
10611,-0.4751,-0.0190,-0.8950,-0.916,0.916,-0.305,-179.604,28.109,-115.192
10621,-0.4790,-0.0186,-0.8975,-0.793,0.549,0.000,-179.604,28.103,-115.192
10631,-0.4785,-0.0122,-0.8965,-0.671,0.244,0.122,-179.604,28.098,-115.192
10641,-0.4805,-0.0117,-0.8965,-0.122,0.122,0.061,-179.604,28.098,-115.197
10651,-0.4795,-0.0112,-0.8936,0.610,0.122,-0.122,-179.594,28.098,-115.192
10661,-0.4800,-0.0127,-0.8921,1.038,0.305,-0.366,-179.577,28.098,-115.192
10671,-0.4785,-0.0137,-0.8906,0.916,0.427,-0.366,-179.561,28.098,-115.186
10681,-0.4780,-0.0151,-0.8892,0.427,0.549,-0.244,-179.550,28.092,-115.181
10691,-0.4775,-0.0146,-0.8896,-0.244,0.610,0.000,-179.550,28.087,-115.181
10701,-0.4751,-0.0142,-0.8887,-0.854,0.671,0.183,-179.555,28.081,-115.186
10712,-0.4746,-0.0161,-0.8877,-1.038,0.793,0.244,-179.561,28.076,-115.186
10721,-0.4731,-0.0176,-0.8911,-0.793,0.793,0.549,-179.561,28.065,-115.192
10731,-0.4766,-0.0176,-0.8936,-0.916,0.732,0.916,-179.572,28.059,-115.203
10741,-0.4775,-0.0161,-0.8955,-0.916,0.732,1.160,-179.577,28.048,-115.219
10751,-0.4785,-0.0142,-0.8950,-0.793,0.732,1.282,-179.588,28.043,-115.230
10761,-0.4795,-0.0112,-0.8999,-0.488,0.610,1.282,-179.599,28.037,-115.247
10771,-0.4785,-0.0088,-0.9014,0.000,0.183,1.160,-179.604,28.037,-115.258
10781,-0.4780,-0.0083,-0.9033,0.427,-0.305,1.038,-179.604,28.037,-115.269
10791,-0.4775,-0.0049,-0.9014,0.549,-0.732,0.977,-179.604,28.043,-115.280
10801,-0.4800,-0.0039,-0.8999,0.671,-1.038,0.854,-179.604,28.054,-115.291
10811,-0.4795,0.0015,-0.8936,0.916,-1.160,0.610,179.901,28.065,-115.296
10821,-0.4805,-0.0010,-0.8887,1.038,-1.099,0.183,-179.934,28.081,-115.302
10831,-0.4795,-0.0015,-0.8887,0.977,-0.854,-0.183,-179.923,28.092,-115.296
10841,-0.4775,-0.0024,-0.8872,0.671,-0.610,-0.366,-179.912,28.103,-115.296
10851,-0.4795,-0.0059,-0.8853,0.183,-0.427,-0.427,-179.907,28.109,-115.291
10861,-0.4795,-0.0078,-0.8877,-0.366,-0.305,-0.427,-179.907,28.114,-115.285
10871,-0.4775,-0.0103,-0.8901,-0.793,-0.183,-0.488,-179.901,28.120,-115.280
10881,-0.4761,-0.0146,-0.8955,-1.160,-0.122,-0.305,-179.907,28.120,-115.274
10891,-0.4771,-0.0151,-0.8975,-1.404,-0.122,0.000,-179.912,28.120,-115.274
10901,-0.4780,-0.0151,-0.9004,-1.404,-0.305,0.244,-179.918,28.120,-115.280
10911,-0.4775,-0.0171,-0.9009,-0.854,-0.488,0.305,-179.918,28.120,-115.280
10921,-0.4780,-0.0176,-0.8999,-0.183,-0.610,0.244,-179.912,28.125,-115.285
10931,-0.4785,-0.0161,-0.8994,0.488,-0.854,0.244,-179.896,28.136,-115.285
10941,-0.4800,-0.0151,-0.8955,0.977,-1.038,0.305,-179.879,28.147,-115.291
10951,-0.4795,-0.0112,-0.8901,0.977,-1.160,0.488,-179.868,28.158,-115.296
10961,-0.4780,-0.0098,-0.8872,0.854,-1.282,0.671,-179.857,28.174,-115.302
10971,-0.4785,-0.0107,-0.8887,0.854,-1.465,0.854,-179.846,28.185,-115.313
10981,-0.4785,-0.0112,-0.8862,0.854,-1.404,0.916,-179.835,28.202,-115.323
10991,-0.4771,-0.0112,-0.8853,0.793,-1.282,0.916,-179.830,28.218,-115.334
11001,-0.4771,-0.0107,-0.8857,0.061,-0.977,0.916,-179.830,28.229,-115.345
11011,-0.4771,-0.0093,-0.8843,-0.366,-0.488,0.916,-179.830,28.235,-115.356
11021,-0.4785,-0.0117,-0.8867,-0.549,-0.183,0.977,-179.835,28.235,-115.367
11031,-0.4795,-0.0122,-0.8896,-0.671,-0.061,0.916,-179.841,28.240,-115.378
11041,-0.4824,-0.0103,-0.8911,-0.610,-0.061,0.916,-179.846,28.240,-115.389
11051,-0.4824,-0.0103,-0.8921,-0.427,0.061,0.977,-179.852,28.240,-115.400
11061,-0.4805,-0.0112,-0.8931,-0.244,0.061,0.916,-179.852,28.240,-115.406
11071,-0.4795,-0.0103,-0.8940,0.000,0.000,0.793,-179.852,28.240,-115.417
11081,-0.4805,-0.0127,-0.8936,0.305,-0.061,0.671,-179.846,28.240,-115.428
11091,-0.4785,-0.0151,-0.8911,0.366,-0.061,0.671,-179.841,28.246,-115.433
11101,-0.4761,-0.0137,-0.8906,0.122,-0.061,0.854,-179.835,28.240,-115.444
11111,-0.4771,-0.0112,-0.8906,0.000,-0.183,1.160,-179.835,28.246,-115.455
11121,-0.4785,-0.0068,-0.8896,0.244,-0.305,1.221,-179.835,28.246,-115.472
11131,-0.4819,-0.0073,-0.8901,0.732,-0.244,0.977,-179.830,28.251,-115.483
11141,-0.4819,-0.0029,-0.8896,0.854,0.061,0.732,-179.824,28.251,-115.488
11151,-0.4810,-0.0034,-0.8916,0.488,0.366,0.549,-179.824,28.251,-115.494
11161,-0.4805,-0.0029,-0.8916,-0.061,0.305,0.488,-179.830,28.246,-115.499
11171,-0.4790,0.0034,-0.8950,-0.549,-0.061,0.488,179.780,28.246,-115.505
11181,-0.4824,0.0034,-0.8984,-0.488,-0.610,0.244,179.775,28.251,-115.510
11191,-0.4854,-0.0005,-0.8936,0.122,-0.854,-0.122,-179.967,28.262,-115.510
11201,-0.4849,-0.0039,-0.8911,0.793,-0.977,-0.549,-179.951,28.279,-115.499
11212,-0.4805,-0.0068,-0.8916,1.160,-1.038,-0.793,-179.934,28.290,-115.494
11221,-0.4795,-0.0107,-0.8906,1.099,-1.038,-0.916,-179.912,28.301,-115.483
11231,-0.4790,-0.0122,-0.8848,0.610,-1.038,-0.793,-179.896,28.312,-115.472
11241,-0.4810,-0.0151,-0.8857,0.061,-0.916,-0.610,-179.879,28.323,-115.466
11251,-0.4810,-0.0151,-0.8872,-0.366,-0.671,-0.488,-179.874,28.328,-115.461
11261,-0.4805,-0.0142,-0.8848,-0.427,-0.366,-0.427,-179.868,28.334,-115.455
11271,-0.4805,-0.0151,-0.8857,-0.244,-0.061,-0.305,-179.863,28.339,-115.450
11281,-0.4814,-0.0171,-0.8882,0.000,0.122,-0.122,-179.852,28.339,-115.450
11291,-0.4810,-0.0161,-0.8887,0.122,0.305,0.000,-179.841,28.334,-115.450
11301,-0.4761,-0.0142,-0.8901,0.183,0.305,0.122,-179.830,28.328,-115.450
11311,-0.4775,-0.0166,-0.8906,0.061,0.244,0.366,-179.824,28.328,-115.455
11321,-0.4795,-0.0132,-0.8916,-0.305,0.183,0.671,-179.824,28.323,-115.466
11331,-0.4805,-0.0127,-0.8955,-0.488,0.122,0.916,-179.824,28.323,-115.472
11341,-0.4800,-0.0083,-0.8970,-0.488,0.122,0.854,-179.830,28.317,-115.483
11351,-0.4824,-0.0078,-0.8955,-0.305,0.183,0.671,-179.835,28.317,-115.494
11361,-0.4814,-0.0054,-0.8945,-0.061,0.305,0.427,-179.835,28.312,-115.499
11371,-0.4824,-0.0029,-0.8955,0.061,0.366,0.244,-179.835,28.312,-115.499
11381,-0.4829,0.0015,-0.8921,0.366,0.183,0.061,179.901,28.312,-115.499
11391,-0.4849,0.0059,-0.8872,0.610,-0.122,-0.305,179.907,28.312,-115.499
11401,-0.4854,0.0098,-0.8853,1.038,-0.244,-0.916,179.918,28.323,-115.488
11411,-0.4810,0.0063,-0.8799,1.648,-0.122,-1.587,179.940,28.323,-115.466
11421,-0.4795,0.0039,-0.8740,1.648,0.122,-2.136,179.967,28.328,-115.444
11431,-0.4800,0.0059,-0.8735,1.343,0.610,-2.380,179.989,28.328,-115.417
11441,-0.4819,0.0098,-0.8740,1.282,1.099,-2.563,-179.995,28.323,-115.389
11451,-0.4819,0.0029,-0.8740,1.343,1.892,-2.930,-179.967,28.306,-115.356
11461,-0.4771,-0.0010,-0.8760,0.549,2.502,-3.296,-179.934,28.284,-115.318
11471,-0.4746,-0.0083,-0.8838,-0.671,2.686,-3.418,-179.918,28.257,-115.280
11481,-0.4761,-0.0142,-0.8926,-2.380,2.686,-3.235,-179.918,28.229,-115.241
11491,-0.4785,-0.0166,-0.9033,-3.845,2.502,-2.991,-179.929,28.202,-115.208
11501,-0.4785,-0.0195,-0.9092,-3.784,2.319,-2.930,-179.940,28.174,-115.175
11511,-0.4785,-0.0234,-0.9136,-2.625,2.258,-2.991,-179.934,28.147,-115.142
11521,-0.4780,-0.0298,-0.9121,-1.221,1.831,-2.869,-179.912,28.125,-115.109
11531,-0.4761,-0.0327,-0.9116,0.244,1.038,-2.563,-179.879,28.109,-115.076
11541,-0.4746,-0.0347,-0.9092,1.282,0.122,-2.014,-179.835,28.103,-115.054
11551,-0.4746,-0.0342,-0.9063,1.648,-0.732,-1.587,-179.786,28.103,-115.038
11561,-0.4717,-0.0352,-0.9014,1.953,-1.160,-1.099,-179.742,28.109,-115.027
11571,-0.4746,-0.0371,-0.8955,1.831,-1.038,-0.488,-179.703,28.120,-115.021
11581,-0.4741,-0.0308,-0.8921,1.404,-0.732,0.000,-179.670,28.125,-115.021
11591,-0.4761,-0.0278,-0.8906,1.221,-0.244,0.488,-179.648,28.125,-115.027
11601,-0.4746,-0.0269,-0.8906,0.488,-0.061,0.916,-179.632,28.125,-115.038
11611,-0.4741,-0.0186,-0.8906,-0.061,-0.305,1.404,-179.632,28.130,-115.054
11621,-0.4780,-0.0142,-0.8926,0.061,-0.549,1.709,-179.637,28.136,-115.071
11631,-0.4780,-0.0063,-0.8896,0.610,-0.549,1.709,-179.637,28.141,-115.093
11641,-0.4780,-0.0034,-0.8887,1.099,-0.244,1.404,-179.637,28.147,-115.104
11651,-0.4795,0.0020,-0.8911,1.038,0.183,1.038,179.874,28.147,-115.120
11661,-0.4795,0.0044,-0.8926,0.549,0.427,0.549,179.874,28.141,-115.126
11671,-0.4795,0.0039,-0.8936,-0.488,0.549,0.061,179.868,28.136,-115.126
11681,-0.4790,0.0059,-0.8950,-1.587,0.427,-0.366,179.852,28.136,-115.120
11691,-0.4819,0.0049,-0.8979,-2.197,0.183,-0.793,179.830,28.130,-115.109
11701,-0.4795,-0.0029,-0.9019,-2.258,-0.061,-1.221,-179.813,28.130,-115.098
11712,-0.4771,-0.0059,-0.9023,-2.014,-0.488,-1.526,-179.819,28.136,-115.082
11721,-0.4761,-0.0107,-0.9004,-1.526,-1.099,-1.831,-179.824,28.141,-115.060
11731,-0.4766,-0.0161,-0.9009,-0.793,-1.709,-1.953,-179.808,28.158,-115.038
11741,-0.4771,-0.0254,-0.8960,0.000,-2.136,-2.014,-179.786,28.174,-115.016
11751,-0.4756,-0.0288,-0.8892,0.854,-2.197,-1.831,-179.753,28.196,-114.994
11761,-0.4746,-0.0312,-0.8857,1.526,-2.014,-1.404,-179.709,28.218,-114.977
11771,-0.4751,-0.0322,-0.8794,1.770,-1.648,-0.916,-179.670,28.235,-114.966
11781,-0.4780,-0.0337,-0.8740,1.526,-0.977,-0.366,-179.632,28.251,-114.961
11791,-0.4780,-0.0337,-0.8765,0.732,-0.183,0.183,-179.610,28.257,-114.966
11801,-0.4771,-0.0298,-0.8804,-0.366,0.366,0.854,-179.604,28.251,-114.977
11811,-0.4766,-0.0249,-0.8828,-1.099,0.366,1.526,-179.610,28.251,-114.994
11821,-0.4790,-0.0200,-0.8857,-1.038,0.183,1.953,-179.621,28.251,-115.016
11831,-0.4790,-0.0137,-0.8906,-0.183,0.183,1.953,-179.626,28.251,-115.038
11841,-0.4775,-0.0093,-0.8906,0.793,0.488,1.648,-179.626,28.246,-115.054
11851,-0.4785,-0.0088,-0.8877,1.465,0.854,1.404,-179.615,28.235,-115.071
11861,-0.4775,-0.0073,-0.8887,1.526,1.038,1.221,-179.610,28.224,-115.087
11871,-0.4795,-0.0068,-0.8892,1.099,1.160,0.977,-179.599,28.218,-115.098
11881,-0.4824,-0.0059,-0.8916,0.366,1.343,0.732,-179.604,28.202,-115.104
11891,-0.4819,-0.0068,-0.8911,-0.549,1.465,0.610,-179.610,28.191,-115.115
11901,-0.4785,-0.0068,-0.8965,-1.404,1.404,0.549,-179.626,28.180,-115.120
11911,-0.4766,-0.0093,-0.8989,-1.709,1.038,0.610,-179.643,28.163,-115.126
11921,-0.4766,-0.0127,-0.9009,-1.526,0.610,0.549,-179.659,28.158,-115.131
11931,-0.4756,-0.0146,-0.9038,-1.099,0.427,0.488,-179.665,28.147,-115.137
11941,-0.4746,-0.0137,-0.9058,-0.549,0.305,0.366,-179.670,28.141,-115.142
11951,-0.4761,-0.0151,-0.9038,0.122,0.122,0.244,-179.659,28.136,-115.142
11961,-0.4746,-0.0161,-0.9004,0.732,-0.122,0.244,-179.648,28.130,-115.148
11971,-0.4741,-0.0166,-0.8955,0.977,-0.549,0.366,-179.632,28.136,-115.153
11981,-0.4771,-0.0171,-0.8940,0.977,-0.854,0.549,-179.621,28.141,-115.159
11991,-0.4775,-0.0181,-0.8926,0.732,-1.160,0.793,-179.610,28.158,-115.164
12001,-0.4771,-0.0171,-0.8931,0.366,-1.221,0.916,-179.604,28.169,-115.175
12011,-0.4761,-0.0176,-0.8911,0.061,-1.160,0.916,-179.599,28.180,-115.186
12021,-0.4775,-0.0190,-0.8882,0.061,-0.977,0.916,-179.594,28.191,-115.197
12031,-0.4756,-0.0181,-0.8896,0.061,-0.793,0.977,-179.594,28.196,-115.208
12041,-0.4756,-0.0166,-0.8911,0.000,-0.671,1.221,-179.594,28.202,-115.219
12051,-0.4766,-0.0156,-0.8931,0.000,-0.610,1.404,-179.594,28.207,-115.236
12061,-0.4805,-0.0142,-0.8906,0.122,-0.671,1.526,-179.594,28.213,-115.258
12071,-0.4810,-0.0127,-0.8916,0.183,-0.610,1.526,-179.599,28.224,-115.274
12081,-0.4814,-0.0098,-0.8926,0.183,-0.183,1.526,-179.604,28.224,-115.291
12091,-0.4810,-0.0088,-0.8906,0.305,-0.244,1.587,-179.604,28.229,-115.307
12101,-0.4829,-0.0093,-0.8926,0.244,-0.366,1.587,-179.610,28.235,-115.323
12111,-0.4824,-0.0098,-0.8887,0.000,-0.366,1.465,-179.615,28.240,-115.340
12121,-0.4795,-0.0078,-0.8896,-0.366,-0.488,1.282,-179.626,28.246,-115.356
12131,-0.4751,-0.0093,-0.8892,-0.244,-0.427,1.282,-179.632,28.251,-115.373
12141,-0.4775,-0.0117,-0.8887,-0.183,-0.549,1.343,-179.637,28.257,-115.384
12151,-0.4751,-0.0073,-0.8916,-0.244,-0.488,1.221,-179.643,28.257,-115.400
12161,-0.4771,-0.0068,-0.8940,-0.183,-0.427,1.160,-179.648,28.262,-115.411
12171,-0.4780,-0.0049,-0.8916,-0.122,-0.305,1.038,-179.659,28.262,-115.422
12181,-0.4800,-0.0039,-0.8936,0.061,-0.305,0.916,-179.665,28.268,-115.433
12191,-0.4814,-0.0068,-0.8921,0.244,-0.366,0.732,-179.665,28.273,-115.444
12201,-0.4839,-0.0078,-0.8906,0.366,-0.244,0.488,-179.659,28.279,-115.450
12212,-0.4834,-0.0112,-0.8931,0.122,-0.244,0.366,-179.659,28.279,-115.455
12221,-0.4795,-0.0127,-0.8936,-0.427,-0.488,0.427,-179.659,28.284,-115.461
12231,-0.4780,-0.0132,-0.8940,-0.671,-0.793,0.549,-179.665,28.290,-115.466
12241,-0.4790,-0.0122,-0.8916,-0.610,-0.977,0.549,-179.670,28.301,-115.472
12251,-0.4810,-0.0117,-0.8901,-0.122,-0.916,0.427,-179.670,28.312,-115.477
12261,-0.4805,-0.0122,-0.8901,0.488,-0.549,0.366,-179.659,28.317,-115.477
12271,-0.4805,-0.0122,-0.8882,0.793,-0.305,0.427,-179.648,28.323,-115.483
12281,-0.4780,-0.0112,-0.8857,0.854,-0.305,0.549,-179.643,28.323,-115.488
12291,-0.4805,-0.0137,-0.8853,0.671,-0.427,0.610,-179.632,28.328,-115.499
12301,-0.4829,-0.0132,-0.8872,0.183,-0.244,0.732,-179.632,28.334,-115.505
12311,-0.4819,-0.0127,-0.8901,-0.305,-0.122,0.671,-179.632,28.339,-115.516
12321,-0.4795,-0.0122,-0.8936,-0.549,0.122,0.671,-179.637,28.334,-115.521
12331,-0.4790,-0.0107,-0.8906,-0.549,0.122,0.671,-179.643,28.334,-115.527
12341,-0.4805,-0.0137,-0.8926,-0.366,0.000,0.732,-179.643,28.334,-115.538
12351,-0.4780,-0.0122,-0.8945,-0.061,-0.122,0.671,-179.643,28.334,-115.543
12361,-0.4766,-0.0078,-0.8950,0.122,-0.305,0.732,-179.643,28.334,-115.554
12371,-0.4790,-0.0059,-0.8975,0.427,-0.549,0.793,-179.643,28.334,-115.560
12381,-0.4805,-0.0068,-0.8945,0.732,-0.610,0.610,-179.643,28.339,-115.571
12391,-0.4819,-0.0068,-0.8916,0.916,-0.488,0.427,-179.632,28.345,-115.576
12401,-0.4800,-0.0078,-0.8882,0.610,-0.366,0.305,-179.626,28.350,-115.576
12411,-0.4790,-0.0098,-0.8916,0.000,-0.366,0.366,-179.626,28.350,-115.582
12421,-0.4810,-0.0088,-0.8945,-0.671,-0.671,0.610,-179.632,28.356,-115.587
12431,-0.4834,-0.0107,-0.8965,-0.854,-0.854,0.671,-179.643,28.367,-115.598
12441,-0.4805,-0.0112,-0.8950,-0.549,-0.671,0.427,-179.648,28.372,-115.598
12451,-0.4795,-0.0142,-0.8940,0.000,-0.610,0.305,-179.643,28.378,-115.604
12461,-0.4790,-0.0146,-0.8940,0.183,-0.732,0.244,-179.637,28.383,-115.609
12471,-0.4785,-0.0142,-0.8926,0.610,-0.793,0.305,-179.626,28.389,-115.609
12481,-0.4800,-0.0112,-0.8931,0.916,-1.160,0.427,-179.615,28.400,-115.615
12491,-0.4814,-0.0103,-0.8896,1.282,-1.221,0.427,-179.604,28.411,-115.620
12501,-0.4849,-0.0103,-0.8887,1.648,-1.038,0.244,-179.588,28.422,-115.620
12511,-0.4824,-0.0093,-0.8833,1.770,-0.610,0.122,-179.566,28.433,-115.626
12521,-0.4834,-0.0088,-0.8823,1.282,-0.305,0.000,-179.555,28.438,-115.626
12531,-0.4810,-0.0093,-0.8848,0.488,-0.061,0.061,-179.544,28.438,-115.626
12541,-0.4810,-0.0088,-0.8848,-0.305,0.000,0.244,-179.550,28.438,-115.626
12551,-0.4810,-0.0107,-0.8882,-0.732,0.183,0.305,-179.555,28.438,-115.631
12561,-0.4810,-0.0107,-0.8877,-0.732,0.549,0.244,-179.561,28.433,-115.631
12571,-0.4800,-0.0098,-0.8936,-0.488,0.671,0.244,-179.566,28.422,-115.637
12581,-0.4824,-0.0117,-0.8945,-0.244,0.488,0.427,-179.566,28.416,-115.642
12591,-0.4844,-0.0151,-0.8945,0.122,0.244,0.549,-179.566,28.416,-115.648
12601,-0.4844,-0.0122,-0.8970,0.183,0.122,0.488,-179.561,28.416,-115.653
12611,-0.4839,-0.0146,-0.8960,0.244,0.000,0.488,-179.555,28.416,-115.659
12621,-0.4824,-0.0156,-0.8965,0.305,-0.061,0.488,-179.550,28.411,-115.664
12631,-0.4829,-0.0137,-0.8950,0.183,-0.183,0.549,-179.550,28.416,-115.670
12641,-0.4814,-0.0146,-0.8970,0.122,-0.427,0.610,-179.544,28.416,-115.675
12651,-0.4810,-0.0127,-0.8955,0.122,-0.671,0.610,-179.544,28.422,-115.686
12661,-0.4819,-0.0117,-0.8945,0.305,-0.793,0.671,-179.539,28.427,-115.692
12671,-0.4805,-0.0098,-0.8916,0.488,-0.916,0.671,-179.539,28.438,-115.697
12681,-0.4805,-0.0078,-0.8896,0.854,-0.977,0.610,-179.533,28.444,-115.708
12691,-0.4795,-0.0073,-0.8867,1.221,-0.854,0.488,-179.522,28.455,-115.714
12701,-0.4785,-0.0068,-0.8857,1.160,-0.671,0.488,-179.517,28.460,-115.719
12712,-0.4819,-0.0063,-0.8804,0.793,-0.305,0.427,-179.511,28.466,-115.719
12721,-0.4834,-0.0049,-0.8833,0.244,0.122,0.244,-179.511,28.466,-115.724
12731,-0.4824,-0.0068,-0.8813,-0.366,0.488,0.061,-179.517,28.466,-115.724
12741,-0.4819,-0.0073,-0.8867,-0.854,0.671,0.000,-179.522,28.460,-115.724
12751,-0.4829,-0.0093,-0.8887,-1.099,0.793,-0.061,-179.533,28.449,-115.724
12761,-0.4824,-0.0107,-0.8906,-1.099,0.793,-0.061,-179.539,28.444,-115.724
12771,-0.4800,-0.0151,-0.8940,-0.916,0.549,0.122,-179.544,28.433,-115.724
12781,-0.4829,-0.0156,-0.8955,-0.610,0.122,0.366,-179.550,28.433,-115.730
12791,-0.4844,-0.0156,-0.8955,-0.061,-0.122,0.427,-179.544,28.433,-115.735
12801,-0.4844,-0.0151,-0.8921,0.427,-0.122,0.366,-179.539,28.438,-115.741
12811,-0.4824,-0.0171,-0.8926,0.549,0.122,0.366,-179.528,28.433,-115.741
12821,-0.4805,-0.0161,-0.8916,0.488,0.183,0.549,-179.522,28.433,-115.746
12831,-0.4819,-0.0127,-0.8906,0.244,0.000,0.732,-179.517,28.433,-115.757
12841,-0.4844,-0.0112,-0.8887,0.183,-0.122,0.793,-179.517,28.433,-115.768
12851,-0.4834,-0.0098,-0.8872,0.183,-0.122,0.732,-179.517,28.438,-115.774
12861,-0.4810,-0.0078,-0.8867,0.122,0.061,0.671,-179.522,28.438,-115.785
12871,-0.4800,-0.0063,-0.8892,0.183,0.183,0.671,-179.522,28.433,-115.790
12881,-0.4824,-0.0083,-0.8887,0.305,0.366,0.610,-179.522,28.433,-115.796
12891,-0.4814,-0.0083,-0.8911,0.183,0.427,0.488,-179.522,28.427,-115.801
12901,-0.4814,-0.0093,-0.8896,-0.061,0.488,0.488,-179.528,28.422,-115.807
12911,-0.4819,-0.0122,-0.8901,-0.183,0.427,0.488,-179.528,28.416,-115.812
12921,-0.4829,-0.0083,-0.8901,-0.488,0.488,0.488,-179.533,28.416,-115.818
12931,-0.4819,-0.0088,-0.8940,-0.671,0.366,0.549,-179.544,28.411,-115.823
12941,-0.4819,-0.0088,-0.8945,-0.732,0.061,0.610,-179.550,28.411,-115.834
12951,-0.4824,-0.0098,-0.8975,-0.610,-0.061,0.610,-179.561,28.405,-115.840
12961,-0.4824,-0.0103,-0.8960,-0.366,0.000,0.488,-179.566,28.405,-115.845
12971,-0.4795,-0.0093,-0.8955,-0.061,0.061,0.366,-179.566,28.405,-115.851
12981,-0.4766,-0.0093,-0.8921,0.305,0.000,0.244,-179.561,28.400,-115.851
12991,-0.4800,-0.0098,-0.8887,0.610,-0.183,0.244,-179.555,28.400,-115.856
13001,-0.4819,-0.0146,-0.8872,0.793,-0.366,0.244,-179.544,28.405,-115.856
13011,-0.4805,-0.0122,-0.8867,0.549,-0.366,0.305,-179.533,28.411,-115.862
13021,-0.4819,-0.0127,-0.8853,0.183,-0.366,0.549,-179.533,28.416,-115.867
13031,-0.4834,-0.0112,-0.8867,0.000,-0.244,0.610,-179.533,28.422,-115.873
13041,-0.4829,-0.0098,-0.8853,0.000,-0.061,0.488,-179.533,28.422,-115.878
13051,-0.4814,-0.0093,-0.8862,0.122,0.122,0.366,-179.533,28.422,-115.884
13061,-0.4795,-0.0117,-0.8882,0.122,0.183,0.305,-179.533,28.422,-115.889
13071,-0.4775,-0.0093,-0.8882,-0.061,0.305,0.366,-179.533,28.416,-115.889
13081,-0.4785,-0.0073,-0.8892,-0.061,0.244,0.427,-179.533,28.411,-115.895
13091,-0.4814,-0.0103,-0.8911,-0.122,0.305,0.366,-179.539,28.411,-115.900
13101,-0.4814,-0.0083,-0.8901,-0.122,0.549,0.305,-179.539,28.405,-115.906
13111,-0.4790,-0.0083,-0.8906,-0.183,0.732,0.427,-179.544,28.394,-115.911
13121,-0.4780,-0.0093,-0.8931,-0.305,0.854,0.549,-179.550,28.383,-115.917
13131,-0.4805,-0.0073,-0.8945,-0.366,0.732,0.488,-179.555,28.378,-115.922
13141,-0.4819,-0.0093,-0.8970,-0.366,0.610,0.366,-179.555,28.367,-115.928
13151,-0.4834,-0.0107,-0.8975,-0.305,0.427,0.183,-179.561,28.361,-115.928
13161,-0.4814,-0.0112,-0.8975,-0.183,0.061,0.183,-179.561,28.361,-115.928
13171,-0.4814,-0.0107,-0.8965,0.122,-0.244,0.183,-179.555,28.361,-115.928
13181,-0.4800,-0.0107,-0.8945,0.549,-0.488,0.183,-179.550,28.367,-115.928
13191,-0.4780,-0.0098,-0.8965,0.854,-0.549,0.061,-179.539,28.367,-115.928
13201,-0.4761,-0.0112,-0.8906,1.038,-0.610,0.061,-179.528,28.372,-115.928
13212,-0.4785,-0.0098,-0.8896,0.977,-0.916,0.244,-179.517,28.383,-115.928
13221,-0.4810,-0.0103,-0.8867,0.854,-0.977,0.366,-179.506,28.389,-115.928
13231,-0.4814,-0.0078,-0.8828,0.732,-0.732,0.305,-179.500,28.400,-115.928
13241,-0.4819,-0.0059,-0.8843,0.671,-0.305,0.183,-179.500,28.405,-115.928
13251,-0.4814,-0.0073,-0.8833,0.549,0.122,0.000,-179.495,28.405,-115.928
13261,-0.4829,-0.0117,-0.8818,0.122,0.488,0.000,-179.489,28.405,-115.928
13271,-0.4814,-0.0137,-0.8838,-0.488,0.854,0.000,-179.489,28.400,-115.928
13281,-0.4795,-0.0132,-0.8867,-1.038,0.977,0.000,-179.495,28.389,-115.928
13291,-0.4795,-0.0142,-0.8926,-1.282,0.977,0.183,-179.506,28.378,-115.928
13301,-0.4800,-0.0132,-0.8955,-1.099,0.854,0.427,-179.517,28.367,-115.928
13311,-0.4810,-0.0137,-0.8979,-0.732,0.610,0.549,-179.522,28.361,-115.928
13321,-0.4810,-0.0132,-0.8989,-0.305,0.488,0.671,-179.528,28.350,-115.928
13331,-0.4805,-0.0107,-0.9033,0.000,0.244,0.610,-179.528,28.345,-115.928
13341,-0.4805,-0.0063,-0.8989,0.305,-0.244,0.610,-179.528,28.345,-115.928
13351,-0.4824,-0.0059,-0.8999,0.732,-0.671,0.610,-179.522,28.350,-115.928
13361,-0.4829,-0.0054,-0.8965,0.977,-1.099,0.549,-179.517,28.361,-115.928
13371,-0.4844,-0.0063,-0.8936,1.099,-1.160,0.366,-179.511,28.372,-115.928
13381,-0.4819,-0.0083,-0.8892,1.099,-1.099,0.183,-179.500,28.389,-115.928
13391,-0.4824,-0.0083,-0.8882,0.793,-0.916,0.122,-179.495,28.394,-115.928
13401,-0.4810,-0.0083,-0.8853,0.549,-0.732,0.061,-179.489,28.405,-115.928
13411,-0.4810,-0.0088,-0.8857,0.244,-0.488,0.000,-179.484,28.411,-115.928
13421,-0.4800,-0.0068,-0.8848,-0.061,-0.183,-0.061,-179.484,28.416,-115.928
13431,-0.4795,-0.0068,-0.8862,-0.122,0.122,-0.061,-179.489,28.411,-115.928
13441,-0.4814,-0.0093,-0.8862,-0.061,0.183,0.061,-179.489,28.411,-115.928
13451,-0.4829,-0.0112,-0.8862,-0.183,0.183,0.183,-179.489,28.411,-115.928
13461,-0.4849,-0.0127,-0.8906,-0.427,0.366,0.183,-179.489,28.411,-115.928
13471,-0.4824,-0.0122,-0.8931,-0.671,0.549,0.122,-179.495,28.405,-115.928
13481,-0.4819,-0.0142,-0.8950,-0.732,0.671,0.122,-179.500,28.394,-115.928
13491,-0.4795,-0.0146,-0.8940,-0.610,0.732,0.061,-179.500,28.389,-115.928
13501,-0.4746,-0.0156,-0.8960,-0.427,0.610,0.244,-179.500,28.378,-115.928
13511,-0.4756,-0.0146,-0.8984,-0.305,0.122,0.549,-179.500,28.372,-115.928
13521,-0.4780,-0.0132,-0.8979,0.000,-0.427,0.854,-179.506,28.372,-115.928
13531,-0.4819,-0.0127,-0.8955,0.488,-0.610,0.854,-179.500,28.378,-115.928
13541,-0.4800,-0.0103,-0.8945,0.916,-0.610,0.854,-179.495,28.383,-115.928
13551,-0.4814,-0.0098,-0.8936,1.038,-0.366,0.854,-179.489,28.383,-115.928
13561,-0.4814,-0.0117,-0.8940,0.732,-0.366,0.916,-179.484,28.389,-115.928
13571,-0.4834,-0.0112,-0.8926,0.061,-0.488,1.038,-179.484,28.394,-115.939
13581,-0.4824,-0.0083,-0.8916,-0.427,-0.610,1.099,-179.495,28.400,-115.955
13591,-0.4810,-0.0063,-0.8950,-0.488,-0.671,1.038,-179.506,28.405,-115.966
13601,-0.4800,-0.0073,-0.8955,-0.244,-0.671,0.854,-179.511,28.411,-115.977
13611,-0.4810,-0.0063,-0.8931,0.366,-0.793,0.610,-179.511,28.416,-115.983
13621,-0.4814,-0.0044,-0.8921,0.610,-1.038,0.549,-179.511,28.427,-115.988
13631,-0.4829,-0.0054,-0.8906,0.610,-1.038,0.427,-179.511,28.438,-115.994
13641,-0.4844,-0.0059,-0.8931,0.671,-0.977,0.427,-179.506,28.449,-115.999
13651,-0.4834,-0.0068,-0.8906,0.549,-0.916,0.427,-179.506,28.455,-116.005
13661,-0.4824,-0.0098,-0.8896,0.427,-0.793,0.366,-179.500,28.466,-116.005
13671,-0.4829,-0.0151,-0.8887,0.122,-0.671,0.366,-179.495,28.471,-116.010
13681,-0.4819,-0.0151,-0.8911,-0.427,-0.671,0.549,-179.500,28.477,-116.016
13691,-0.4819,-0.0146,-0.8926,-1.038,-0.854,0.671,-179.506,28.488,-116.027
13701,-0.4819,-0.0137,-0.8896,-1.282,-0.977,0.793,-179.522,28.493,-116.032
13712,-0.4824,-0.0132,-0.8921,-0.854,-1.038,0.854,-179.533,28.504,-116.043
13721,-0.4839,-0.0142,-0.8916,0.122,-1.099,0.916,-179.528,28.515,-116.054
13731,-0.4805,-0.0127,-0.8896,0.916,-0.977,0.977,-179.522,28.521,-116.065
13741,-0.4805,-0.0122,-0.8862,1.343,-0.916,1.038,-179.511,28.531,-116.076
13751,-0.4829,-0.0146,-0.8828,1.526,-0.916,1.221,-179.500,28.542,-116.087
13761,-0.4858,-0.0112,-0.8784,1.343,-0.793,1.343,-179.489,28.553,-116.104
13771,-0.4863,-0.0088,-0.8794,0.977,-0.488,1.343,-179.489,28.564,-116.120
13781,-0.4858,-0.0093,-0.8813,0.671,-0.061,1.282,-179.484,28.564,-116.136
13791,-0.4839,-0.0078,-0.8813,0.305,0.427,1.221,-179.489,28.564,-116.147
13801,-0.4805,-0.0088,-0.8818,-0.183,0.732,1.343,-179.500,28.559,-116.164
13811,-0.4795,-0.0088,-0.8838,-0.610,0.793,1.526,-179.511,28.548,-116.180
13821,-0.4810,-0.0063,-0.8901,-0.854,0.610,1.648,-179.528,28.542,-116.202
13831,-0.4829,-0.0024,-0.8926,-0.671,0.610,1.648,-179.550,28.537,-116.219
13841,-0.4834,-0.0005,-0.8940,-0.183,0.916,1.404,-179.561,28.526,-116.235
13851,-0.4849,-0.0010,-0.8965,0.122,1.221,1.038,-179.572,28.510,-116.246
13861,-0.4844,-0.0034,-0.8975,0.244,1.160,0.793,-179.577,28.499,-116.257
13871,-0.4795,-0.0039,-0.8975,0.122,0.793,0.732,-179.577,28.488,-116.263
13881,-0.4810,-0.0039,-0.8945,-0.061,0.122,0.854,-179.588,28.482,-116.274
13891,-0.4829,-0.0024,-0.8926,0.061,-0.427,0.854,-179.594,28.488,-116.285
13901,-0.4849,-0.0029,-0.8936,0.610,-0.732,0.610,-179.594,28.493,-116.290
13911,-0.4849,-0.0024,-0.8882,1.343,-0.793,0.183,-179.583,28.504,-116.290
13921,-0.4854,-0.0054,-0.8833,1.831,-0.610,-0.061,-179.566,28.515,-116.290
13931,-0.4839,-0.0054,-0.8813,1.770,-0.427,-0.183,-179.544,28.521,-116.290
13941,-0.4834,-0.0068,-0.8809,1.404,-0.305,-0.244,-179.533,28.526,-116.285
13951,-0.4829,-0.0103,-0.8809,0.671,0.061,-0.122,-179.522,28.526,-116.285
13961,-0.4810,-0.0107,-0.8813,-0.122,0.488,0.000,-179.522,28.521,-116.285
13971,-0.4814,-0.0117,-0.8857,-0.793,0.793,0.183,-179.528,28.515,-116.290
13981,-0.4829,-0.0127,-0.8867,-1.099,0.916,0.244,-179.533,28.504,-116.290
13991,-0.4819,-0.0142,-0.8936,-1.099,1.038,0.244,-179.544,28.493,-116.296
14001,-0.4805,-0.0146,-0.8960,-0.671,1.099,0.305,-179.550,28.482,-116.296
14011,-0.4795,-0.0166,-0.8955,-0.183,1.160,0.366,-179.544,28.466,-116.301
14021,-0.4795,-0.0146,-0.8955,0.183,0.916,0.549,-179.539,28.455,-116.307
14031,-0.4829,-0.0132,-0.8999,0.305,0.488,0.793,-179.539,28.449,-116.318
14041,-0.4849,-0.0068,-0.8950,0.549,0.061,0.916,-179.539,28.444,-116.329
14051,-0.4829,-0.0039,-0.8945,0.916,-0.183,0.671,-179.533,28.449,-116.334
14061,-0.4829,-0.0059,-0.8936,1.221,-0.305,0.488,-179.528,28.449,-116.340
14071,-0.4810,-0.0083,-0.8911,1.221,-0.244,0.488,-179.517,28.449,-116.345
14081,-0.4790,-0.0073,-0.8906,0.793,-0.122,0.610,-179.511,28.449,-116.351
14091,-0.4819,-0.0063,-0.8901,0.366,-0.244,0.671,-179.511,28.455,-116.362
14101,-0.4844,-0.0054,-0.8882,0.061,-0.244,0.488,-179.517,28.460,-116.367
14111,-0.4829,-0.0054,-0.8887,0.000,0.000,0.305,-179.517,28.460,-116.367
14121,-0.4839,-0.0059,-0.8911,0.000,0.427,0.122,-179.522,28.455,-116.373
14131,-0.4819,-0.0078,-0.8896,-0.122,0.610,0.122,-179.522,28.449,-116.373
14141,-0.4814,-0.0093,-0.8896,-0.244,0.488,0.122,-179.522,28.444,-116.373
14151,-0.4810,-0.0093,-0.8887,-0.244,0.427,0.122,-179.528,28.438,-116.373
14161,-0.4834,-0.0103,-0.8896,-0.061,0.488,0.061,-179.522,28.433,-116.378
14171,-0.4805,-0.0112,-0.8896,0.000,0.488,0.061,-179.522,28.427,-116.378
14181,-0.4819,-0.0117,-0.8882,0.000,0.549,0.244,-179.522,28.427,-116.378
14191,-0.4814,-0.0098,-0.8906,0.000,0.549,0.305,-179.522,28.422,-116.384
14201,-0.4790,-0.0083,-0.8921,-0.061,0.610,0.366,-179.522,28.411,-116.389
14212,-0.4785,-0.0103,-0.8945,-0.122,0.732,0.427,-179.528,28.400,-116.395
14221,-0.4814,-0.0103,-0.8950,-0.122,0.732,0.549,-179.528,28.394,-116.400
14231,-0.4819,-0.0083,-0.8965,-0.183,0.610,0.549,-179.533,28.383,-116.406
14241,-0.4814,-0.0088,-0.8950,-0.244,0.549,0.488,-179.533,28.378,-116.411
14251,-0.4810,-0.0093,-0.8940,-0.183,0.305,0.427,-179.539,28.378,-116.417
14261,-0.4805,-0.0112,-0.8945,0.183,-0.183,0.366,-179.539,28.378,-116.422
14271,-0.4800,-0.0103,-0.8940,0.244,-0.183,0.427,-179.533,28.378,-116.422
14281,-0.4805,-0.0103,-0.8945,0.122,-0.183,0.549,-179.533,28.378,-116.433
14291,-0.4785,-0.0083,-0.8901,0.061,-0.427,0.732,-179.539,28.378,-116.439
14301,-0.4795,-0.0098,-0.8916,0.122,-0.793,0.793,-179.539,28.389,-116.450
14311,-0.4824,-0.0098,-0.8872,0.244,-0.916,0.671,-179.539,28.400,-116.455
14321,-0.4834,-0.0103,-0.8882,0.305,-0.732,0.610,-179.533,28.405,-116.461
14331,-0.4829,-0.0098,-0.8867,0.305,-0.549,0.671,-179.533,28.416,-116.472
14341,-0.4844,-0.0103,-0.8843,-0.366,-0.183,0.854,-179.539,28.416,-116.477
14351,-0.4800,-0.0103,-0.8877,-0.549,0.061,0.977,-179.550,28.416,-116.488
14361,-0.4780,-0.0127,-0.8901,-0.244,0.244,0.977,-179.555,28.416,-116.505
14371,-0.4771,-0.0127,-0.8882,-0.122,0.610,1.038,-179.555,28.405,-116.516
14381,-0.4761,-0.0103,-0.8926,-0.427,0.671,1.160,-179.566,28.394,-116.526
14391,-0.4771,-0.0098,-0.8926,-0.549,0.610,1.343,-179.577,28.389,-116.543
14401,-0.4790,-0.0103,-0.8945,-0.732,0.549,1.404,-179.588,28.378,-116.559
14411,-0.4814,-0.0063,-0.8960,-0.671,0.244,1.465,-179.604,28.378,-116.576
14421,-0.4829,-0.0034,-0.8999,-0.305,-0.122,1.343,-179.615,28.378,-116.592
14431,-0.4819,-0.0020,-0.8994,0.244,-0.244,1.099,-179.621,28.378,-116.603
14441,-0.4800,-0.0024,-0.9009,0.610,-0.427,0.854,-179.621,28.378,-116.614
14451,-0.4795,-0.0049,-0.8965,0.793,-0.671,0.671,-179.615,28.383,-116.620
14461,-0.4795,-0.0020,-0.8931,0.732,-0.854,0.488,-179.615,28.389,-116.625
14471,-0.4839,-0.0020,-0.8926,0.549,-1.038,0.366,-179.615,28.400,-116.631
14481,-0.4824,-0.0039,-0.8936,0.366,-0.977,0.122,-179.610,28.411,-116.631
14491,-0.4814,-0.0059,-0.8926,0.000,-0.854,0.000,-179.610,28.416,-116.631
14501,-0.4824,-0.0073,-0.8901,-0.244,-0.916,0.122,-179.615,28.427,-116.631
14511,-0.4819,-0.0068,-0.8862,-0.305,-1.038,0.305,-179.621,28.438,-116.636
14521,-0.4805,-0.0073,-0.8843,-0.061,-1.038,0.366,-179.621,28.449,-116.642
14531,-0.4810,-0.0073,-0.8853,0.366,-0.977,0.366,-179.615,28.460,-116.642
14541,-0.4819,-0.0112,-0.8828,0.854,-0.671,0.183,-179.604,28.471,-116.647
14551,-0.4834,-0.0122,-0.8809,1.099,-0.244,0.244,-179.594,28.477,-116.647
14561,-0.4810,-0.0137,-0.8818,0.854,0.183,0.305,-179.583,28.471,-116.653
14571,-0.4810,-0.0151,-0.8833,0.427,0.549,0.610,-179.577,28.471,-116.658
14581,-0.4814,-0.0146,-0.8833,0.000,0.671,0.916,-179.572,28.466,-116.669
14591,-0.4810,-0.0132,-0.8862,-0.183,0.549,1.160,-179.577,28.460,-116.680
14601,-0.4814,-0.0142,-0.8877,-0.122,0.671,1.282,-179.583,28.455,-116.697
14611,-0.4824,-0.0127,-0.8906,-0.183,0.916,1.404,-179.588,28.444,-116.713
14621,-0.4800,-0.0132,-0.8936,-0.305,1.282,1.465,-179.594,28.427,-116.730
14631,-0.4780,-0.0078,-0.8936,-0.366,1.404,1.709,-179.604,28.411,-116.752
14641,-0.4824,-0.0034,-0.8965,-0.183,1.282,1.770,-179.615,28.400,-116.768
14651,-0.4814,-0.0029,-0.9004,0.061,0.916,1.709,-179.626,28.389,-116.790
14661,-0.4829,0.0005,-0.8984,0.244,0.488,1.465,179.967,28.383,-116.807
14671,-0.4814,0.0029,-0.8984,0.305,0.000,1.282,179.962,28.378,-116.823
14681,-0.4819,0.0044,-0.8989,0.244,-0.244,1.038,179.956,28.378,-116.834
14691,-0.4824,0.0034,-0.8970,0.366,-0.427,0.793,179.951,28.383,-116.840
14701,-0.4810,0.0015,-0.8965,0.427,-0.366,0.488,179.956,28.383,-116.845
14712,-0.4819,0.0029,-0.8945,0.305,-0.488,0.061,179.956,28.389,-116.845
14721,-0.4810,0.0015,-0.8931,0.122,-0.610,-0.183,179.956,28.394,-116.845
14731,-0.4819,0.0000,-0.8970,-0.122,-0.977,-0.305,179.956,28.400,-116.840
14741,-0.4849,-0.0049,-0.8960,-0.305,-1.282,-0.427,-179.687,28.416,-116.840
14751,-0.4824,-0.0068,-0.8965,-0.183,-1.343,-0.488,-179.681,28.427,-116.834
14761,-0.4824,-0.0088,-0.8921,0.122,-1.343,-0.488,-179.676,28.438,-116.829
14771,-0.4810,-0.0093,-0.8892,0.244,-1.221,-0.427,-179.670,28.455,-116.823
14781,-0.4805,-0.0093,-0.8882,0.366,-1.099,-0.366,-179.659,28.460,-116.818
14791,-0.4834,-0.0117,-0.8857,0.427,-0.977,-0.244,-179.648,28.471,-116.812
14801,-0.4839,-0.0156,-0.8843,0.244,-0.916,-0.183,-179.643,28.488,-116.812
14811,-0.4824,-0.0146,-0.8853,-0.061,-0.732,-0.061,-179.637,28.493,-116.812
14821,-0.4810,-0.0142,-0.8828,-0.244,-0.427,0.244,-179.632,28.499,-116.812
14831,-0.4810,-0.0132,-0.8843,-0.244,-0.183,0.549,-179.632,28.499,-116.818
14841,-0.4785,-0.0112,-0.8848,-0.305,0.061,0.732,-179.637,28.499,-116.829
14851,-0.4785,-0.0098,-0.8877,-0.366,0.183,0.916,-179.643,28.493,-116.840
14861,-0.4805,-0.0078,-0.8896,-0.366,0.122,0.977,-179.648,28.493,-116.851
14871,-0.4819,-0.0068,-0.8911,-0.305,0.000,1.038,-179.659,28.493,-116.862
14881,-0.4839,-0.0029,-0.8906,-0.122,-0.183,0.977,-179.665,28.493,-116.873
14891,-0.4824,0.0015,-0.8916,0.183,-0.244,0.793,179.901,28.499,-116.884
14901,-0.4829,0.0005,-0.8911,0.488,-0.183,0.488,179.907,28.499,-116.889
14911,-0.4849,0.0010,-0.8892,0.610,-0.183,0.244,179.912,28.499,-116.889
14921,-0.4844,-0.0015,-0.8887,0.427,-0.183,0.000,-179.901,28.504,-116.889
14931,-0.4795,-0.0024,-0.8901,-0.122,0.000,-0.183,-179.901,28.504,-116.889
14941,-0.4800,-0.0029,-0.8896,-0.671,0.000,-0.122,-179.907,28.499,-116.889
14951,-0.4805,-0.0044,-0.8906,-0.916,-0.061,0.000,-179.912,28.499,-116.889
14961,-0.4844,-0.0078,-0.8950,-0.977,-0.061,-0.061,-179.918,28.499,-116.884
14971,-0.4824,-0.0093,-0.8955,-0.916,-0.061,-0.122,-179.923,28.499,-116.884
14981,-0.4805,-0.0103,-0.8940,-0.732,-0.061,-0.061,-179.923,28.499,-116.884
14991,-0.4810,-0.0112,-0.8975,-0.427,-0.305,0.122,-179.923,28.499,-116.884
15001,-0.4829,-0.0107,-0.8960,-0.122,-0.793,0.305,-179.918,28.504,-116.889
15011,-0.4819,-0.0122,-0.8936,0.244,-1.099,0.427,-179.912,28.510,-116.895
15021,-0.4839,-0.0103,-0.8931,0.793,-1.404,0.427,-179.901,28.526,-116.900
15031,-0.4829,-0.0078,-0.8896,1.221,-1.404,0.305,-179.885,28.537,-116.900
15041,-0.4834,-0.0063,-0.8848,1.404,-1.282,0.244,-179.868,28.553,-116.906
15051,-0.4834,-0.0049,-0.8809,1.343,-0.977,0.244,-179.857,28.564,-116.906
15061,-0.4824,-0.0034,-0.8799,0.916,-0.488,0.244,-179.846,28.570,-116.911
15071,-0.4819,-0.0034,-0.8804,0.366,0.061,0.244,-179.846,28.570,-116.911
15081,-0.4829,-0.0029,-0.8843,-0.244,0.427,0.183,-179.846,28.570,-116.917
15091,-0.4824,-0.0005,-0.8882,-0.732,0.732,0.122,-179.857,28.559,-116.917
15101,-0.4849,0.0029,-0.8882,-0.916,0.854,0.000,179.808,28.553,-116.917
15111,-0.4834,-0.0005,-0.8931,-0.854,0.793,-0.305,-179.967,28.542,-116.911
15121,-0.4829,0.0005,-0.8945,-0.732,0.732,-0.427,179.967,28.537,-116.906
15131,-0.4858,-0.0029,-0.8936,-0.549,0.244,-0.488,-179.808,28.531,-116.900
15141,-0.4863,-0.0054,-0.8955,-0.366,-0.244,-0.244,-179.808,28.531,-116.900
15151,-0.4834,-0.0054,-0.8955,-0.366,-0.793,-0.061,-179.813,28.542,-116.900
15161,-0.4839,-0.0039,-0.8936,-0.122,-1.099,-0.061,-179.813,28.548,-116.900
15171,-0.4839,-0.0083,-0.8896,0.305,-1.160,-0.183,-179.802,28.559,-116.895
15181,-0.4834,-0.0103,-0.8857,0.549,-1.038,-0.366,-179.791,28.570,-116.895
15191,-0.4824,-0.0132,-0.8853,0.488,-0.732,-0.549,-179.780,28.581,-116.884
15201,-0.4795,-0.0127,-0.8857,0.061,-0.488,-0.366,-179.769,28.581,-116.884
15212,-0.4814,-0.0137,-0.8867,-0.366,-0.183,-0.183,-179.764,28.586,-116.878
15221,-0.4819,-0.0103,-0.8916,-0.671,0.000,0.000,-179.769,28.581,-116.878
15231,-0.4810,-0.0059,-0.8926,-0.488,-0.183,0.244,-179.775,28.581,-116.884
15241,-0.4795,0.0015,-0.8979,-0.305,-0.549,0.305,179.901,28.581,-116.884
15251,-0.4868,0.0034,-0.8999,0.244,-1.038,0.122,179.907,28.592,-116.889
15261,-0.4912,0.0068,-0.8955,1.099,-1.404,-0.366,179.912,28.608,-116.884
15271,-0.4897,0.0034,-0.8921,1.831,-1.831,-0.916,179.934,28.625,-116.873
15281,-0.4902,-0.0005,-0.8896,1.953,-2.075,-1.160,-179.967,28.647,-116.862
15291,-0.4878,-0.0078,-0.8857,1.587,-2.258,-1.038,-179.940,28.674,-116.845
15301,-0.4873,-0.0112,-0.8813,0.732,-2.319,-0.793,-179.923,28.702,-116.840
15311,-0.4858,-0.0122,-0.8794,0.000,-2.075,-0.671,-179.912,28.724,-116.829
15321,-0.4844,-0.0127,-0.8755,-0.427,-1.404,-0.671,-179.901,28.740,-116.823
15331,-0.4780,-0.0151,-0.8794,-0.549,-0.671,-0.671,-179.896,28.740,-116.818
15341,-0.4810,-0.0146,-0.8804,-0.793,-0.244,-0.366,-179.896,28.746,-116.812
15351,-0.4824,-0.0112,-0.8843,-1.038,-0.061,-0.122,-179.896,28.746,-116.812
15361,-0.4858,-0.0093,-0.8848,-0.793,-0.122,-0.061,-179.901,28.746,-116.807
15371,-0.4902,-0.0073,-0.8877,-0.183,-0.183,-0.183,-179.896,28.751,-116.807
15381,-0.4902,-0.0103,-0.8887,0.427,-0.244,-0.305,-179.885,28.751,-116.801
15391,-0.4883,-0.0142,-0.8867,0.732,-0.122,-0.244,-179.868,28.757,-116.801
15401,-0.4863,-0.0156,-0.8833,0.732,-0.122,0.000,-179.852,28.757,-116.801
15411,-0.4854,-0.0161,-0.8818,0.671,-0.061,0.305,-179.841,28.757,-116.807
15421,-0.4858,-0.0190,-0.8809,0.244,0.183,0.610,-179.830,28.757,-116.812
15431,-0.4839,-0.0205,-0.8813,-0.183,0.488,0.977,-179.824,28.751,-116.823
15441,-0.4829,-0.0200,-0.8833,-0.671,0.916,1.343,-179.830,28.740,-116.840
15451,-0.4829,-0.0190,-0.8867,-1.038,1.282,1.709,-179.835,28.729,-116.856
15461,-0.4844,-0.0142,-0.8906,-1.404,1.526,2.014,-179.852,28.713,-116.878
15471,-0.4844,-0.0137,-0.8931,-1.465,1.404,2.197,-179.874,28.696,-116.906
15481,-0.4878,-0.0122,-0.8940,-0.916,1.038,2.319,-179.890,28.685,-116.933
15491,-0.4854,-0.0098,-0.8931,-0.122,0.610,2.441,-179.896,28.674,-116.960
15501,-0.4858,-0.0093,-0.8892,0.793,0.244,2.625,-179.896,28.674,-116.988
15511,-0.4854,-0.0078,-0.8882,1.709,0.122,2.869,-179.890,28.674,-117.021
15521,-0.4844,-0.0029,-0.8818,2.136,0.183,3.052,-179.885,28.674,-117.059
15531,-0.4863,0.0015,-0.8784,2.380,0.366,2.991,179.901,28.669,-117.092
15541,-0.4878,0.0039,-0.8750,2.197,0.793,2.502,179.907,28.669,-117.120
15551,-0.4873,0.0039,-0.8755,1.465,1.465,2.136,179.912,28.658,-117.142
15561,-0.4868,0.0078,-0.8789,0.610,2.197,1.831,179.901,28.641,-117.164
15571,-0.4839,0.0083,-0.8813,-0.305,2.502,1.587,179.885,28.614,-117.180
15581,-0.4834,0.0122,-0.8877,-1.404,2.808,1.343,179.857,28.586,-117.197
15591,-0.4819,0.0093,-0.8940,-1.831,2.808,0.977,179.830,28.559,-117.208
15601,-0.4824,0.0117,-0.8999,-1.587,2.747,0.610,179.808,28.526,-117.219
15611,-0.4814,0.0107,-0.9043,-1.099,2.747,0.122,179.791,28.493,-117.219
15621,-0.4795,0.0063,-0.9087,-0.854,2.380,-0.305,179.780,28.466,-117.213
15631,-0.4849,0.0024,-0.9111,-1.160,1.709,-0.610,179.775,28.444,-117.208
15641,-0.4839,-0.0020,-0.9121,-1.343,1.343,-0.732,-179.874,28.427,-117.197
15651,-0.4849,-0.0063,-0.9121,-0.793,0.488,-0.916,-179.874,28.416,-117.186
15661,-0.4829,-0.0093,-0.9092,-0.061,-0.244,-0.977,-179.868,28.416,-117.175
15671,-0.4834,-0.0132,-0.9004,0.488,-0.916,-0.916,-179.846,28.422,-117.164
15681,-0.4824,-0.0171,-0.8970,0.549,-1.465,-0.732,-179.830,28.433,-117.158
15691,-0.4785,-0.0190,-0.8936,0.610,-1.831,-0.427,-179.813,28.449,-117.153
15701,-0.4766,-0.0161,-0.8892,0.671,-1.892,-0.122,-179.797,28.466,-117.153
15712,-0.4766,-0.0156,-0.8882,0.854,-1.892,0.244,-179.780,28.482,-117.153
15721,-0.4790,-0.0146,-0.8833,0.854,-1.526,0.488,-179.769,28.499,-117.158
15731,-0.4805,-0.0122,-0.8833,0.488,-1.099,0.732,-179.758,28.510,-117.169
15741,-0.4814,-0.0098,-0.8843,0.183,-0.671,1.038,-179.758,28.515,-117.180
15751,-0.4834,-0.0063,-0.8813,-0.122,-0.427,1.282,-179.764,28.521,-117.197
15761,-0.4849,-0.0044,-0.8838,-0.122,-0.427,1.343,-179.775,28.526,-117.208
15771,-0.4849,0.0000,-0.8862,-0.061,-0.366,1.404,-180.000,28.531,-117.224
15781,-0.4839,0.0005,-0.8877,0.061,-0.183,1.282,179.989,28.537,-117.241
15791,-0.4849,-0.0010,-0.8853,0.061,0.000,1.221,-179.934,28.537,-117.252
15801,-0.4834,-0.0015,-0.8882,-0.305,0.305,1.099,-179.945,28.537,-117.268
15811,-0.4819,0.0015,-0.8916,-0.854,0.427,1.099,179.901,28.531,-117.279
15821,-0.4824,0.0034,-0.8955,-1.282,0.366,0.916,179.885,28.526,-117.290
15831,-0.4844,0.0049,-0.8960,-1.221,0.122,0.732,179.868,28.521,-117.296
15841,-0.4863,0.0044,-0.8965,-0.793,-0.061,0.427,179.857,28.521,-117.301
15851,-0.4854,0.0020,-0.8965,-0.244,-0.183,0.122,179.852,28.521,-117.307
15861,-0.4824,-0.0020,-0.8975,0.305,-0.427,-0.061,-179.874,28.526,-117.301
15872,-0.4829,-0.0020,-0.8926,0.488,-0.854,-0.183,-179.868,28.531,-117.301
15881,-0.4849,-0.0029,-0.8906,0.488,-1.221,-0.244,-179.863,28.542,-117.301
15891,-0.4854,-0.0063,-0.8901,0.427,-1.404,-0.244,-179.852,28.559,-117.296
15901,-0.4854,-0.0068,-0.8838,0.427,-1.282,-0.305,-179.841,28.575,-117.290
15911,-0.4829,-0.0093,-0.8809,0.610,-0.916,-0.244,-179.830,28.586,-117.290
15921,-0.4819,-0.0093,-0.8789,0.610,-0.610,-0.183,-179.819,28.592,-117.290
15931,-0.4819,-0.0078,-0.8784,0.366,-0.427,-0.061,-179.813,28.597,-117.285
15941,-0.4839,-0.0063,-0.8794,0.061,-0.122,0.000,-179.808,28.603,-117.285
15951,-0.4839,-0.0063,-0.8813,-0.122,0.183,0.000,-179.808,28.603,-117.285
15961,-0.4844,-0.0029,-0.8843,-0.183,0.549,-0.061,-179.808,28.597,-117.285
15972,-0.4829,-0.0015,-0.8867,-0.244,0.793,0.061,-179.813,28.586,-117.285
15981,-0.4824,-0.0010,-0.8906,-0.366,0.916,0.061,-179.819,28.581,-117.290
15991,-0.4834,0.0015,-0.8940,-0.610,0.977,0.061,179.901,28.564,-117.290
16001,-0.4824,0.0029,-0.8994,-0.793,0.793,0.000,179.896,28.553,-117.290
16011,-0.4829,0.0034,-0.9014,-0.732,0.549,-0.061,179.885,28.548,-117.290
16021,-0.4849,0.0054,-0.9048,-0.610,0.183,-0.305,179.879,28.542,-117.285
16031,-0.4858,0.0044,-0.9038,-0.244,-0.366,-0.732,179.879,28.542,-117.274
16041,-0.4854,0.0020,-0.9004,0.183,-0.977,-0.977,179.885,28.548,-117.263
16051,-0.4863,0.0000,-0.8965,0.671,-1.648,-1.221,179.901,28.564,-117.252
16061,-0.4868,-0.0044,-0.8926,1.099,-2.014,-1.404,-179.714,28.586,-117.235
