elapsed_ms,acc_x_g,acc_y_g,acc_z_g,gyro_x_dps,gyro_y_dps,gyro_z_dps,angle_x_deg,angle_y_deg,angle_z_deg
0,-0.3169,-0.6157,-0.7285,-0.183,1.343,0.427,-139.471,18.369,-15.562
11,-0.3174,-0.6152,-0.7314,0.122,1.160,0.488,-139.477,18.364,-15.579
20,-0.3179,-0.6177,-0.7290,0.244,0.854,0.366,-139.482,18.358,-15.584
30,-0.3203,-0.6138,-0.7305,0.244,0.549,0.366,-139.488,18.358,-15.590
40,-0.3208,-0.6123,-0.7295,0.061,0.305,0.488,-139.493,18.364,-15.601
50,-0.3213,-0.6128,-0.7300,-0.061,0.183,0.488,-139.499,18.364,-15.601
60,-0.3208,-0.6143,-0.7310,-0.122,0.061,0.366,-139.504,18.369,-15.606
70,-0.3179,-0.6167,-0.7329,-0.244,0.061,0.366,-139.515,18.369,-15.612
80,-0.3140,-0.6167,-0.7319,-0.366,-0.122,0.427,-139.521,18.375,-15.612
90,-0.3135,-0.6172,-0.7314,-0.427,-0.244,0.488,-139.532,18.375,-15.617
100,-0.3130,-0.6143,-0.7319,-0.244,-0.549,0.549,-139.537,18.380,-15.617
110,-0.3120,-0.6133,-0.7261,0.305,-0.916,0.488,-139.537,18.391,-15.612
120,-0.3115,-0.6128,-0.7241,0.854,-1.343,0.488,-139.526,18.402,-15.606
130,-0.3101,-0.6162,-0.7187,1.160,-1.587,0.427,-139.515,18.413,-15.601
140,-0.3091,-0.6177,-0.7168,1.038,-1.709,0.427,-139.499,18.424,-15.590
150,-0.3105,-0.6157,-0.7153,0.549,-1.526,0.305,-139.488,18.435,-15.584
160,-0.3125,-0.6113,-0.7153,0.244,-1.221,0.305,-139.482,18.446,-15.579
170,-0.3145,-0.6089,-0.7153,0.061,-0.793,0.244,-139.482,18.457,-15.573
180,-0.3154,-0.6084,-0.7158,0.061,-0.488,0.122,-139.482,18.463,-15.573
190,-0.3154,-0.6089,-0.7178,0.244,-0.366,0.000,-139.482,18.463,-15.568
200,-0.3174,-0.6089,-0.7119,0.305,-0.488,-0.122,-139.477,18.468,-15.568
210,-0.3174,-0.6104,-0.7104,0.183,-0.610,-0.122,-139.471,18.474,-15.562
220,-0.3188,-0.6118,-0.7129,-0.183,-0.549,-0.183,-139.471,18.479,-15.557
230,-0.3213,-0.6113,-0.7153,-0.366,-0.305,-0.244,-139.471,18.484,-15.551
240,-0.3188,-0.6108,-0.7163,-0.366,0.000,-0.305,-139.477,18.484,-15.551
250,-0.3174,-0.6123,-0.7207,-0.366,0.183,-0.427,-139.482,18.484,-15.546
260,-0.3174,-0.6157,-0.7207,-0.305,0.305,-0.549,-139.482,18.479,-15.546
270,-0.3184,-0.6177,-0.7222,-0.305,0.366,-0.549,-139.488,18.474,-15.540
280,-0.3179,-0.6157,-0.7246,-0.305,0.305,-0.366,-139.493,18.468,-15.540
290,-0.3174,-0.6172,-0.7290,-0.122,0.183,-0.305,-139.493,18.463,-15.540
300,-0.3188,-0.6177,-0.7295,0.244,0.061,-0.244,-139.493,18.463,-15.540
310,-0.3198,-0.6172,-0.7261,0.549,-0.061,-0.244,-139.488,18.463,-15.535
320,-0.3218,-0.6191,-0.7295,0.732,-0.061,-0.061,-139.482,18.463,-15.535
330,-0.3203,-0.6177,-0.7261,0.549,-0.122,0.000,-139.477,18.463,-15.535
340,-0.3223,-0.6167,-0.7241,0.244,-0.122,0.000,-139.477,18.468,-15.535
350,-0.3228,-0.6162,-0.7227,-0.305,-0.183,0.061,-139.482,18.474,-15.535
360,-0.3232,-0.6147,-0.7227,-0.854,-0.122,0.061,-139.488,18.479,-15.535
370,-0.3213,-0.6172,-0.7251,-1.160,-0.061,0.122,-139.504,18.479,-15.535
380,-0.3174,-0.6167,-0.7251,-1.160,-0.061,0.122,-139.515,18.479,-15.535
390,-0.3140,-0.6177,-0.7275,-0.916,-0.244,0.061,-139.526,18.479,-15.535
400,-0.3140,-0.6152,-0.7280,-0.427,-0.671,0.061,-139.532,18.484,-15.529
410,-0.3130,-0.6143,-0.7231,0.122,-1.221,0.122,-139.532,18.490,-15.524
420,-0.3130,-0.6143,-0.7187,0.671,-1.709,0.183,-139.521,18.501,-15.513
430,-0.3140,-0.6143,-0.7144,1.160,-1.953,0.183,-139.499,18.517,-15.502
440,-0.3159,-0.6152,-0.7104,1.282,-1.892,0.122,-139.482,18.534,-15.485
450,-0.3193,-0.6147,-0.7065,1.221,-1.648,0.061,-139.460,18.550,-15.474
460,-0.3174,-0.6138,-0.7031,0.916,-1.160,0.061,-139.444,18.561,-15.469
470,-0.3164,-0.6143,-0.7036,0.610,-0.610,0.000,-139.433,18.567,-15.463
480,-0.3208,-0.6138,-0.7036,0.427,-0.183,-0.061,-139.422,18.572,-15.463
490,-0.3208,-0.6113,-0.7056,0.305,0.183,0.000,-139.417,18.572,-15.463
500,-0.3223,-0.6108,-0.7046,0.244,0.488,0.061,-139.411,18.578,-15.469
511,-0.3237,-0.6118,-0.7085,0.244,0.854,0.122,-139.406,18.578,-15.474
520,-0.3228,-0.6133,-0.7139,0.000,1.282,0.061,-139.411,18.572,-15.485
530,-0.3223,-0.6108,-0.7163,-0.366,1.587,0.061,-139.417,18.561,-15.496
540,-0.3237,-0.6108,-0.7202,-0.732,1.709,0.183,-139.433,18.556,-15.507
550,-0.3228,-0.6118,-0.7236,-0.732,1.831,0.244,-139.449,18.545,-15.524
560,-0.3228,-0.6123,-0.7266,-0.488,1.709,0.244,-139.460,18.534,-15.535
570,-0.3184,-0.6162,-0.7300,-0.122,1.526,0.183,-139.471,18.523,-15.551
580,-0.3184,-0.6177,-0.7310,0.122,1.160,0.183,-139.477,18.517,-15.557
590,-0.3188,-0.6182,-0.7300,0.122,0.732,0.244,-139.477,18.512,-15.568
600,-0.3164,-0.6201,-0.7329,-0.122,0.427,0.366,-139.482,18.506,-15.573
610,-0.3159,-0.6172,-0.7334,-0.244,0.183,0.488,-139.493,18.506,-15.579
620,-0.3159,-0.6157,-0.7349,-0.122,-0.061,0.610,-139.499,18.506,-15.579
630,-0.3154,-0.6152,-0.7329,0.244,-0.366,0.549,-139.504,18.512,-15.584
640,-0.3145,-0.6157,-0.7324,0.671,-0.671,0.488,-139.499,18.517,-15.584
650,-0.3149,-0.6143,-0.7275,0.916,-1.160,0.366,-139.493,18.523,-15.579
660,-0.3164,-0.6138,-0.7231,1.038,-1.587,0.305,-139.482,18.539,-15.568
670,-0.3184,-0.6118,-0.7173,1.099,-1.953,0.183,-139.466,18.556,-15.557
680,-0.3203,-0.6143,-0.7080,1.038,-2.014,0.122,-139.449,18.572,-15.546
690,-0.3208,-0.6152,-0.7051,0.793,-1.831,0.000,-139.433,18.594,-15.529
700,-0.3188,-0.6157,-0.7061,0.427,-1.404,0.061,-139.422,18.605,-15.524
710,-0.3179,-0.6133,-0.7051,-0.061,-0.854,0.305,-139.417,18.616,-15.518
720,-0.3193,-0.6089,-0.7051,-0.305,-0.244,0.549,-139.417,18.622,-15.524
730,-0.3198,-0.6074,-0.7065,-0.061,0.183,0.549,-139.417,18.627,-15.529
740,-0.3203,-0.6084,-0.7085,0.244,0.610,0.488,-139.417,18.633,-15.535
750,-0.3223,-0.6094,-0.7114,0.305,0.854,0.366,-139.417,18.633,-15.546
760,-0.3184,-0.6094,-0.7104,0.000,1.038,0.366,-139.422,18.627,-15.557
770,-0.3198,-0.6084,-0.7124,-0.488,1.343,0.366,-139.427,18.622,-15.568
780,-0.3164,-0.6069,-0.7173,-0.916,1.587,0.305,-139.444,18.611,-15.579
790,-0.3169,-0.6074,-0.7246,-0.977,1.770,0.244,-139.466,18.600,-15.595
800,-0.3164,-0.6099,-0.7266,-0.854,1.892,0.061,-139.482,18.583,-15.606
810,-0.3174,-0.6084,-0.7300,-0.610,1.892,-0.061,-139.499,18.567,-15.617
820,-0.3169,-0.6084,-0.7344,-0.366,1.587,-0.061,-139.515,18.556,-15.628
830,-0.3169,-0.6079,-0.7373,-0.183,1.038,-0.183,-139.532,18.545,-15.634
840,-0.3174,-0.6060,-0.7354,0.000,0.305,-0.366,-139.537,18.534,-15.634
850,-0.3179,-0.6104,-0.7329,0.061,-0.305,-0.488,-139.543,18.534,-15.628
860,-0.3174,-0.6099,-0.7310,0.061,-0.793,-0.610,-139.548,18.534,-15.617
870,-0.3179,-0.6108,-0.7280,0.000,-1.099,-0.732,-139.548,18.539,-15.617
880,-0.3169,-0.6123,-0.7256,0.061,-1.221,-0.793,-139.543,18.545,-15.617
890,-0.3169,-0.6162,-0.7241,0.183,-1.343,-0.793,-139.537,18.545,-15.617
900,-0.3164,-0.6162,-0.7222,0.244,-1.282,-0.793,-139.532,18.550,-15.617
910,-0.3179,-0.6157,-0.7202,0.244,-1.221,-0.732,-139.521,18.556,-15.617
920,-0.3203,-0.6182,-0.7173,0.305,-1.038,-0.671,-139.515,18.561,-15.617
930,-0.3208,-0.6182,-0.7153,0.183,-0.793,-0.610,-139.504,18.561,-15.617
940,-0.3198,-0.6187,-0.7163,-0.061,-0.549,-0.549,-139.499,18.567,-15.617
950,-0.3213,-0.6167,-0.7153,-0.366,-0.305,-0.366,-139.499,18.567,-15.617
960,-0.3218,-0.6143,-0.7173,-0.366,-0.061,-0.305,-139.499,18.567,-15.617
970,-0.3218,-0.6128,-0.7183,-0.183,0.122,-0.305,-139.504,18.567,-15.617
980,-0.3218,-0.6118,-0.7163,0.000,0.244,-0.427,-139.504,18.567,-15.617
990,-0.3213,-0.6118,-0.7148,0.000,0.305,-0.427,-139.499,18.561,-15.617
1000,-0.3218,-0.6128,-0.7124,-0.061,0.305,-0.427,-139.499,18.561,-15.617
1011,-0.3213,-0.6118,-0.7163,-0.183,0.122,-0.549,-139.499,18.561,-15.617
1020,-0.3193,-0.6138,-0.7158,-0.305,-0.061,-0.610,-139.499,18.556,-15.617
1030,-0.3164,-0.6162,-0.7144,-0.427,-0.061,-0.488,-139.499,18.556,-15.617
1040,-0.3179,-0.6157,-0.7192,-0.427,0.061,-0.305,-139.504,18.550,-15.617
1050,-0.3159,-0.6162,-0.7183,-0.122,0.183,-0.244,-139.504,18.550,-15.617
1060,-0.3159,-0.6147,-0.7197,0.244,0.244,-0.183,-139.499,18.545,-15.617
1070,-0.3154,-0.6167,-0.7178,0.488,0.366,-0.183,-139.493,18.539,-15.617
1080,-0.3179,-0.6157,-0.7197,0.549,0.427,-0.122,-139.488,18.534,-15.617
1090,-0.3188,-0.6167,-0.7207,0.427,0.549,-0.061,-139.482,18.534,-15.617
1100,-0.3213,-0.6147,-0.7212,0.122,0.671,-0.061,-139.488,18.528,-15.617
1110,-0.3179,-0.6128,-0.7251,-0.244,0.610,-0.122,-139.493,18.523,-15.617
1120,-0.3198,-0.6123,-0.7251,-0.427,0.488,-0.183,-139.499,18.517,-15.617
1130,-0.3188,-0.6128,-0.7275,-0.427,0.427,-0.305,-139.510,18.512,-15.617
1140,-0.3188,-0.6128,-0.7271,-0.427,0.183,-0.366,-139.515,18.512,-15.617
1150,-0.3203,-0.6104,-0.7261,-0.244,0.000,-0.366,-139.521,18.512,-15.617
1160,-0.3223,-0.6123,-0.7256,0.122,-0.122,-0.366,-139.521,18.512,-15.617
1170,-0.3218,-0.6167,-0.7246,0.427,-0.183,-0.366,-139.515,18.512,-15.617
1180,-0.3193,-0.6187,-0.7227,0.427,-0.183,-0.366,-139.510,18.512,-15.617
1190,-0.3184,-0.6191,-0.7236,0.183,-0.183,-0.244,-139.510,18.512,-15.617
1200,-0.3188,-0.6196,-0.7222,-0.061,-0.244,-0.122,-139.504,18.512,-15.617
1210,-0.3193,-0.6196,-0.7246,-0.183,-0.305,-0.061,-139.504,18.512,-15.617
1220,-0.3164,-0.6191,-0.7222,-0.183,-0.244,-0.061,-139.504,18.512,-15.617
1230,-0.3179,-0.6196,-0.7231,-0.122,-0.183,0.122,-139.504,18.517,-15.617
1240,-0.3184,-0.6182,-0.7246,-0.061,-0.183,0.244,-139.510,18.517,-15.617
1250,-0.3188,-0.6167,-0.7231,0.061,-0.244,0.244,-139.510,18.523,-15.617
1260,-0.3159,-0.6147,-0.7227,0.244,-0.244,0.183,-139.504,18.523,-15.617
1270,-0.3174,-0.6138,-0.7217,0.305,-0.183,0.244,-139.504,18.528,-15.617
1280,-0.3193,-0.6108,-0.7241,0.366,-0.183,0.244,-139.504,18.528,-15.617
1290,-0.3203,-0.6118,-0.7217,0.366,-0.244,0.061,-139.504,18.534,-15.617
1300,-0.3208,-0.6123,-0.7192,0.305,-0.366,-0.122,-139.499,18.539,-15.617
1310,-0.3203,-0.6113,-0.7197,0.061,-0.427,-0.122,-139.499,18.545,-15.617
1320,-0.3203,-0.6138,-0.7212,-0.244,-0.488,-0.122,-139.499,18.550,-15.617
1330,-0.3213,-0.6123,-0.7202,-0.427,-0.366,-0.183,-139.504,18.550,-15.617
1340,-0.3193,-0.6128,-0.7187,-0.305,-0.244,-0.183,-139.510,18.556,-15.617
1350,-0.3164,-0.6128,-0.7212,0.000,-0.122,-0.183,-139.510,18.550,-15.617
1360,-0.3184,-0.6138,-0.7178,0.183,-0.183,-0.122,-139.504,18.556,-15.617
1370,-0.3179,-0.6138,-0.7192,0.244,-0.244,-0.061,-139.504,18.556,-15.617
1380,-0.3154,-0.6108,-0.7173,0.183,-0.305,-0.183,-139.499,18.556,-15.617
1390,-0.3145,-0.6133,-0.7173,0.061,-0.366,-0.366,-139.499,18.556,-15.617
1400,-0.3179,-0.6118,-0.7192,-0.061,-0.305,-0.427,-139.499,18.556,-15.617
1410,-0.3179,-0.6108,-0.7173,0.000,-0.122,-0.488,-139.499,18.556,-15.617
1420,-0.3179,-0.6133,-0.7207,0.122,0.000,-0.488,-139.493,18.550,-15.617
1430,-0.3184,-0.6133,-0.7178,0.244,0.122,-0.549,-139.493,18.550,-15.617
1440,-0.3193,-0.6143,-0.7187,0.183,0.183,-0.549,-139.488,18.545,-15.617
1450,-0.3188,-0.6138,-0.7212,0.000,0.183,-0.488,-139.488,18.539,-15.617
1460,-0.3184,-0.6147,-0.7222,-0.244,0.183,-0.427,-139.493,18.534,-15.617
1470,-0.3198,-0.6138,-0.7222,-0.488,0.183,-0.427,-139.499,18.534,-15.617
1480,-0.3184,-0.6157,-0.7227,-0.488,0.183,-0.427,-139.504,18.528,-15.617
1490,-0.3145,-0.6172,-0.7266,-0.427,0.244,-0.427,-139.510,18.523,-15.617
1500,-0.3159,-0.6162,-0.7236,-0.244,0.122,-0.366,-139.510,18.517,-15.617
1511,-0.3164,-0.6143,-0.7231,0.061,-0.183,-0.305,-139.510,18.517,-15.617
1520,-0.3174,-0.6147,-0.7246,0.427,-0.488,-0.244,-139.504,18.517,-15.617
1530,-0.3208,-0.6138,-0.7241,0.732,-0.671,-0.244,-139.499,18.523,-15.617
1540,-0.3213,-0.6172,-0.7222,0.854,-0.732,-0.366,-139.488,18.528,-15.617
1550,-0.3237,-0.6162,-0.7192,0.732,-0.732,-0.488,-139.477,18.534,-15.617
1560,-0.3237,-0.6172,-0.7197,0.366,-0.610,-0.488,-139.471,18.539,-15.617
1570,-0.3247,-0.6147,-0.7202,0.122,-0.488,-0.366,-139.466,18.545,-15.617
1580,-0.3262,-0.6133,-0.7197,0.000,-0.244,-0.244,-139.466,18.550,-15.617
1590,-0.3237,-0.6128,-0.7202,0.061,-0.122,-0.183,-139.466,18.550,-15.617
1600,-0.3213,-0.6167,-0.7168,0.000,0.000,-0.183,-139.466,18.550,-15.617
1610,-0.3188,-0.6143,-0.7173,-0.183,-0.122,-0.122,-139.466,18.556,-15.617
1620,-0.3188,-0.6147,-0.7192,-0.488,-0.183,-0.061,-139.471,18.556,-15.617
1630,-0.3179,-0.6152,-0.7197,-0.732,-0.122,-0.122,-139.477,18.556,-15.617
1640,-0.3164,-0.6147,-0.7197,-0.793,-0.244,-0.183,-139.482,18.556,-15.617
1650,-0.3154,-0.6157,-0.7202,-0.488,-0.305,-0.244,-139.488,18.556,-15.617
1660,-0.3169,-0.6182,-0.7168,-0.061,-0.305,-0.183,-139.482,18.556,-15.617
1670,-0.3159,-0.6167,-0.7153,0.305,-0.244,-0.122,-139.477,18.556,-15.617
1680,-0.3154,-0.6177,-0.7139,0.610,-0.061,-0.061,-139.466,18.556,-15.617
1690,-0.3179,-0.6172,-0.7139,0.671,0.061,-0.061,-139.455,18.556,-15.617
1700,-0.3188,-0.6167,-0.7109,0.427,0.183,0.000,-139.449,18.556,-15.617
1710,-0.3169,-0.6133,-0.7139,0.061,0.305,0.061,-139.449,18.556,-15.617
1720,-0.3179,-0.6128,-0.7139,-0.183,0.488,0.122,-139.449,18.550,-15.617
1730,-0.3188,-0.6128,-0.7173,-0.427,0.671,0.000,-139.455,18.550,-15.617
1740,-0.3179,-0.6147,-0.7197,-0.488,0.793,-0.061,-139.466,18.545,-15.617
1750,-0.3184,-0.6133,-0.7207,-0.488,0.854,-0.061,-139.471,18.534,-15.617
1760,-0.3198,-0.6118,-0.7227,-0.427,0.793,-0.061,-139.482,18.534,-15.617
1770,-0.3203,-0.6118,-0.7217,-0.244,0.732,-0.061,-139.488,18.528,-15.617
1780,-0.3213,-0.6128,-0.7231,0.061,0.549,-0.183,-139.488,18.523,-15.617
1790,-0.3218,-0.6128,-0.7217,0.183,0.427,-0.183,-139.488,18.523,-15.617
1800,-0.3198,-0.6157,-0.7217,0.122,0.366,-0.122,-139.488,18.517,-15.617
1810,-0.3184,-0.6167,-0.7251,0.000,0.366,-0.061,-139.488,18.517,-15.617
1820,-0.3164,-0.6147,-0.7241,-0.122,0.366,0.000,-139.493,18.512,-15.617
1830,-0.3174,-0.6147,-0.7266,-0.244,0.305,0.122,-139.499,18.512,-15.617
1840,-0.3184,-0.6123,-0.7290,-0.122,0.305,0.122,-139.510,18.506,-15.617
1850,-0.3198,-0.6104,-0.7275,0.122,0.183,0.061,-139.510,18.506,-15.617
1860,-0.3184,-0.6123,-0.7285,0.427,-0.061,0.000,-139.510,18.506,-15.617
1870,-0.3164,-0.6133,-0.7266,0.488,-0.305,-0.061,-139.510,18.512,-15.617
1880,-0.3164,-0.6133,-0.7280,0.366,-0.610,-0.061,-139.510,18.512,-15.617
1890,-0.3154,-0.6123,-0.7271,0.183,-0.793,-0.061,-139.510,18.517,-15.617
1900,-0.3159,-0.6108,-0.7227,0.305,-0.977,-0.061,-139.504,18.523,-15.617
1910,-0.3159,-0.6099,-0.7212,0.610,-1.038,-0.122,-139.499,18.528,-15.617
1920,-0.3184,-0.6118,-0.7212,0.793,-0.977,-0.244,-139.493,18.534,-15.617
1930,-0.3174,-0.6138,-0.7178,0.732,-0.732,-0.305,-139.482,18.539,-15.617
1940,-0.3149,-0.6152,-0.7192,0.305,-0.488,-0.366,-139.477,18.539,-15.617
1950,-0.3145,-0.6157,-0.7197,-0.305,-0.305,-0.305,-139.477,18.539,-15.617
1960,-0.3154,-0.6118,-0.7197,-0.732,-0.244,-0.183,-139.482,18.539,-15.617
1970,-0.3174,-0.6118,-0.7222,-0.671,-0.183,-0.183,-139.493,18.539,-15.617
1980,-0.3208,-0.6108,-0.7212,-0.305,-0.122,-0.244,-139.499,18.539,-15.617
1990,-0.3193,-0.6113,-0.7183,0.061,-0.183,-0.488,-139.499,18.539,-15.617
2000,-0.3203,-0.6133,-0.7153,0.183,-0.244,-0.549,-139.493,18.539,-15.617
2011,-0.3198,-0.6138,-0.7153,0.061,-0.488,-0.671,-139.488,18.545,-15.617
2020,-0.3188,-0.6133,-0.7153,-0.061,-0.549,-0.671,-139.482,18.545,-15.617
2030,-0.3213,-0.6128,-0.7168,-0.122,-0.549,-0.671,-139.482,18.545,-15.617
2040,-0.3223,-0.6138,-0.7153,-0.061,-0.427,-0.610,-139.477,18.550,-15.617
2050,-0.3228,-0.6138,-0.7119,0.244,-0.244,-0.549,-139.471,18.550,-15.617
2060,-0.3218,-0.6172,-0.7139,0.366,-0.122,-0.488,-139.466,18.550,-15.617
2070,-0.3208,-0.6172,-0.7129,0.244,0.061,-0.427,-139.455,18.550,-15.617
2080,-0.3213,-0.6177,-0.7144,-0.122,0.305,-0.366,-139.455,18.550,-15.617
2090,-0.3223,-0.6187,-0.7153,-0.427,0.610,-0.183,-139.455,18.545,-15.617
2100,-0.3184,-0.6206,-0.7202,-0.610,0.793,0.000,-139.460,18.539,-15.617
2110,-0.3164,-0.6196,-0.7231,-0.549,0.793,0.061,-139.471,18.534,-15.617
2120,-0.3169,-0.6196,-0.7236,-0.305,0.610,0.061,-139.471,18.528,-15.617
2130,-0.3179,-0.6201,-0.7266,0.061,0.366,0.061,-139.471,18.523,-15.617
2140,-0.3208,-0.6201,-0.7241,0.305,0.122,0.061,-139.471,18.523,-15.617
2150,-0.3193,-0.6196,-0.7271,0.427,0.000,0.061,-139.466,18.523,-15.617
2160,-0.3198,-0.6187,-0.7241,0.427,-0.061,0.122,-139.466,18.523,-15.617
2170,-0.3228,-0.6201,-0.7256,0.366,-0.061,0.183,-139.460,18.528,-15.617
2180,-0.3223,-0.6187,-0.7251,0.305,-0.061,0.305,-139.460,18.534,-15.617
2190,-0.3242,-0.6162,-0.7261,0.244,-0.061,0.427,-139.460,18.539,-15.617
2200,-0.3237,-0.6172,-0.7241,0.244,0.000,0.549,-139.460,18.545,-15.617
2210,-0.3237,-0.6162,-0.7231,0.305,0.000,0.549,-139.460,18.550,-15.617
2220,-0.3203,-0.6152,-0.7231,0.305,-0.122,0.549,-139.460,18.556,-15.617
2230,-0.3218,-0.6157,-0.7227,0.305,-0.305,0.549,-139.455,18.561,-15.617
2240,-0.3203,-0.6157,-0.7227,0.305,-0.549,0.488,-139.455,18.572,-15.617
2250,-0.3179,-0.6196,-0.7187,0.122,-0.916,0.488,-139.449,18.583,-15.617
2260,-0.3159,-0.6177,-0.7183,0.183,-1.038,0.610,-139.449,18.589,-15.617
2270,-0.3154,-0.6138,-0.7168,0.427,-1.038,0.671,-139.444,18.605,-15.617
2280,-0.3169,-0.6147,-0.7134,0.977,-0.854,0.671,-139.433,18.611,-15.617
2290,-0.3169,-0.6157,-0.7114,1.343,-0.610,0.610,-139.417,18.622,-15.617
2300,-0.3164,-0.6147,-0.7109,1.282,-0.366,0.610,-139.400,18.627,-15.617
2310,-0.3164,-0.6152,-0.7104,0.793,-0.183,0.549,-139.389,18.633,-15.617
2320,-0.3193,-0.6118,-0.7085,0.122,0.122,0.610,-139.389,18.638,-15.617
2330,-0.3232,-0.6084,-0.7114,-0.244,0.427,0.671,-139.395,18.644,-15.617
2340,-0.3223,-0.6094,-0.7144,-0.488,0.916,0.610,-139.406,18.644,-15.617
2350,-0.3193,-0.6104,-0.7183,-0.549,1.404,0.488,-139.417,18.638,-15.617
2360,-0.3188,-0.6118,-0.7217,-0.610,1.831,0.427,-139.427,18.627,-15.617
2370,-0.3184,-0.6113,-0.7236,-0.732,1.831,0.488,-139.444,18.616,-15.617
2380,-0.3193,-0.6094,-0.7261,-0.671,1.465,0.549,-139.460,18.605,-15.617
2390,-0.3208,-0.6084,-0.7280,-0.305,0.854,0.366,-139.477,18.605,-15.617
2400,-0.3203,-0.6089,-0.7314,0.183,0.427,0.122,-139.482,18.600,-15.617
2410,-0.3193,-0.6133,-0.7285,0.427,0.183,-0.061,-139.482,18.600,-15.617
2420,-0.3188,-0.6152,-0.7285,0.366,0.000,-0.122,-139.482,18.600,-15.617
2430,-0.3179,-0.6138,-0.7236,0.122,-0.244,-0.122,-139.482,18.600,-15.617
2440,-0.3203,-0.6123,-0.7256,0.122,-0.549,-0.061,-139.482,18.600,-15.617
2450,-0.3193,-0.6157,-0.7231,0.366,-0.671,-0.061,-139.477,18.605,-15.617
2460,-0.3213,-0.6167,-0.7192,0.610,-0.671,-0.061,-139.471,18.611,-15.617
2470,-0.3213,-0.6201,-0.7173,0.549,-0.427,-0.061,-139.460,18.616,-15.617
2480,-0.3184,-0.6196,-0.7173,0.183,-0.122,-0.061,-139.455,18.616,-15.617
2490,-0.3179,-0.6162,-0.7178,-0.305,0.122,0.122,-139.460,18.616,-15.617
2500,-0.3184,-0.6157,-0.7207,-0.549,0.122,0.305,-139.466,18.616,-15.617
2511,-0.3198,-0.6147,-0.7222,-0.488,-0.061,0.366,-139.471,18.622,-15.617
2520,-0.3193,-0.6147,-0.7222,0.000,-0.244,0.366,-139.471,18.622,-15.617
2530,-0.3184,-0.6152,-0.7207,0.549,-0.549,0.244,-139.466,18.627,-15.617
2540,-0.3193,-0.6138,-0.7192,0.916,-0.793,0.244,-139.460,18.638,-15.617
2550,-0.3223,-0.6138,-0.7148,0.977,-0.916,0.183,-139.444,18.649,-15.617
2560,-0.3223,-0.6133,-0.7109,0.854,-0.793,0.061,-139.433,18.655,-15.617
2570,-0.3232,-0.6157,-0.7109,0.610,-0.366,0.000,-139.422,18.660,-15.617
2580,-0.3228,-0.6172,-0.7153,0.061,0.244,0.061,-139.422,18.660,-15.617
2590,-0.3179,-0.6157,-0.7187,-0.610,0.916,0.183,-139.427,18.655,-15.617
2600,-0.3179,-0.6118,-0.7285,-1.038,1.099,0.488,-139.449,18.649,-15.617
2610,-0.3193,-0.6104,-0.7349,-0.854,0.854,0.732,-139.471,18.644,-15.617
2620,-0.3213,-0.6069,-0.7334,0.000,0.305,0.671,-139.482,18.649,-15.617
2630,-0.3213,-0.6040,-0.7300,0.854,-0.305,0.366,-139.482,18.655,-15.617
2640,-0.3228,-0.6069,-0.7256,1.404,-0.854,0.061,-139.471,18.660,-15.617
2650,-0.3218,-0.6089,-0.7207,1.404,-1.282,-0.183,-139.460,18.671,-15.617
2660,-0.3193,-0.6123,-0.7173,0.916,-1.282,-0.427,-139.444,18.682,-15.617
2670,-0.3203,-0.6143,-0.7163,0.061,-1.221,-0.610,-139.438,18.688,-15.617
2680,-0.3169,-0.6177,-0.7148,-0.427,-0.977,-0.549,-139.438,18.688,-15.617
2690,-0.3188,-0.6177,-0.7163,-0.488,-0.671,-0.488,-139.438,18.688,-15.617
2700,-0.3193,-0.6206,-0.7158,-0.244,-0.366,-0.366,-139.433,18.688,-15.617
2710,-0.3208,-0.6211,-0.7168,0.061,-0.122,-0.244,-139.433,18.688,-15.617
2720,-0.3188,-0.6211,-0.7173,0.183,0.000,0.000,-139.427,18.688,-15.617
2730,-0.3184,-0.6187,-0.7173,0.122,-0.061,0.122,-139.422,18.688,-15.617
2740,-0.3193,-0.6187,-0.7129,0.061,-0.305,0.244,-139.417,18.693,-15.617
2750,-0.3184,-0.6172,-0.7144,0.122,-0.549,0.183,-139.411,18.699,-15.617
2760,-0.3188,-0.6143,-0.7134,0.061,-0.671,0.122,-139.411,18.704,-15.617
2770,-0.3213,-0.6133,-0.7100,0.061,-0.732,0.061,-139.406,18.710,-15.617
2780,-0.3218,-0.6143,-0.7046,0.244,-0.610,0.000,-139.400,18.715,-15.617
2790,-0.3242,-0.6152,-0.7031,0.488,-0.305,-0.061,-139.384,18.726,-15.617
2800,-0.3242,-0.6177,-0.7002,0.427,0.122,-0.061,-139.373,18.726,-15.617
2810,-0.3242,-0.6201,-0.7051,0.122,0.793,0.061,-139.367,18.726,-15.617
2820,-0.3232,-0.6196,-0.7065,-0.183,1.526,0.244,-139.367,18.715,-15.617
2830,-0.3228,-0.6187,-0.7104,-0.549,2.014,0.427,-139.373,18.704,-15.617
2840,-0.3242,-0.6182,-0.7173,-0.916,2.258,0.610,-139.389,18.693,-15.617
2850,-0.3242,-0.6157,-0.7192,-0.977,2.380,0.671,-139.406,18.682,-15.617
2860,-0.3223,-0.6157,-0.7236,-0.916,2.441,0.671,-139.422,18.671,-15.617
2870,-0.3218,-0.6143,-0.7280,-0.854,2.380,0.549,-139.444,18.655,-15.617
2880,-0.3232,-0.6133,-0.7305,-0.793,2.197,0.427,-139.460,18.644,-15.617
2890,-0.3208,-0.6152,-0.7290,-0.732,1.953,0.305,-139.477,18.633,-15.617
2900,-0.3164,-0.6143,-0.7310,-0.671,1.587,0.305,-139.493,18.616,-15.617
2910,-0.3169,-0.6167,-0.7314,-0.549,1.099,0.305,-139.504,18.605,-15.617
2920,-0.3203,-0.6162,-0.7314,-0.244,0.671,0.244,-139.515,18.605,-15.617
2930,-0.3193,-0.6167,-0.7300,0.244,0.061,0.244,-139.515,18.605,-15.617
2940,-0.3154,-0.6177,-0.7319,0.671,-0.305,0.244,-139.510,18.605,-15.617
2950,-0.3140,-0.6162,-0.7251,0.854,-0.549,0.305,-139.504,18.605,-15.617
2960,-0.3140,-0.6172,-0.7217,0.916,-0.793,0.427,-139.493,18.611,-15.617
2970,-0.3174,-0.6162,-0.7183,0.916,-0.977,0.488,-139.482,18.622,-15.617
2980,-0.3174,-0.6147,-0.7168,0.916,-0.977,0.549,-139.471,18.633,-15.617
2990,-0.3179,-0.6108,-0.7119,0.977,-0.671,0.610,-139.460,18.644,-15.617
3000,-0.3174,-0.6108,-0.7100,0.916,-0.305,0.610,-139.449,18.649,-15.617
3011,-0.3188,-0.6104,-0.7109,0.732,0.122,0.671,-139.444,18.655,-15.617
3020,-0.3198,-0.6074,-0.7114,0.305,0.427,0.488,-139.444,18.655,-15.617
3030,-0.3213,-0.6074,-0.7153,0.000,0.610,0.427,-139.449,18.655,-15.617
3040,-0.3223,-0.6055,-0.7168,-0.305,0.854,0.427,-139.460,18.655,-15.617
3050,-0.3247,-0.6045,-0.7222,-0.427,0.916,0.366,-139.471,18.655,-15.617
3060,-0.3237,-0.6055,-0.7236,-0.488,0.916,0.244,-139.488,18.655,-15.617
3070,-0.3193,-0.6055,-0.7256,-0.427,0.671,0.000,-139.499,18.649,-15.617
3080,-0.3174,-0.6069,-0.7266,-0.427,0.366,-0.305,-139.510,18.644,-15.617
3090,-0.3145,-0.6069,-0.7280,-0.427,-0.061,-0.488,-139.515,18.638,-15.617
3100,-0.3130,-0.6089,-0.7266,-0.366,-0.305,-0.610,-139.526,18.633,-15.617
3111,-0.3164,-0.6113,-0.7266,-0.122,-0.366,-0.671,-139.526,18.627,-15.617
3121,-0.3169,-0.6128,-0.7266,0.122,-0.427,-0.549,-139.526,18.627,-15.617
3131,-0.3193,-0.6138,-0.7256,0.366,-0.427,-0.488,-139.521,18.627,-15.617
3141,-0.3193,-0.6172,-0.7231,0.427,-0.366,-0.366,-139.515,18.627,-15.617
3151,-0.3188,-0.6162,-0.7231,0.183,-0.366,-0.427,-139.515,18.622,-15.617
3161,-0.3184,-0.6147,-0.7217,-0.183,-0.366,-0.549,-139.515,18.622,-15.617
3171,-0.3213,-0.6143,-0.7207,-0.549,-0.366,-0.610,-139.515,18.622,-15.617
3181,-0.3242,-0.6128,-0.7207,-0.854,-0.488,-0.610,-139.526,18.627,-15.617
3191,-0.3218,-0.6123,-0.7202,-0.793,-0.549,-0.549,-139.532,18.627,-15.617
3201,-0.3198,-0.6152,-0.7192,-0.549,-0.549,-0.610,-139.532,18.627,-15.617
3211,-0.3193,-0.6172,-0.7217,-0.427,-0.610,-0.732,-139.532,18.627,-15.617
3221,-0.3188,-0.6157,-0.7217,-0.366,-0.732,-0.671,-139.532,18.627,-15.617
3231,-0.3203,-0.6123,-0.7207,-0.244,-0.977,-0.610,-139.532,18.633,-15.617
3241,-0.3218,-0.6108,-0.7163,0.122,-1.221,-0.488,-139.526,18.644,-15.617
3251,-0.3242,-0.6123,-0.7139,0.610,-1.282,-0.549,-139.515,18.649,-15.617
3261,-0.3247,-0.6147,-0.7090,0.671,-1.099,-0.610,-139.504,18.660,-15.617
3271,-0.3247,-0.6143,-0.7056,0.427,-0.610,-0.549,-139.488,18.666,-15.617
3281,-0.3237,-0.6123,-0.7090,-0.183,-0.061,-0.488,-139.488,18.666,-15.617
3291,-0.3213,-0.6099,-0.7119,-0.793,0.427,-0.427,-139.493,18.666,-15.617
3301,-0.3208,-0.6074,-0.7139,-1.099,0.916,-0.366,-139.504,18.655,-15.617
3311,-0.3193,-0.6094,-0.7187,-1.038,1.221,-0.488,-139.521,18.644,-15.617
3321,-0.3188,-0.6108,-0.7217,-0.854,1.282,-0.610,-139.532,18.633,-15.617
3331,-0.3169,-0.6133,-0.7280,-0.671,1.099,-0.671,-139.543,18.616,-15.617
3341,-0.3169,-0.6133,-0.7290,-0.671,0.732,-0.793,-139.554,18.605,-15.617
3351,-0.3164,-0.6138,-0.7256,-0.732,0.305,-0.854,-139.559,18.594,-15.617
3361,-0.3174,-0.6138,-0.7266,-0.671,-0.183,-0.916,-139.565,18.589,-15.617
3371,-0.3125,-0.6167,-0.7285,-0.549,-0.488,-0.916,-139.570,18.583,-15.617
3381,-0.3115,-0.6182,-0.7285,-0.244,-0.671,-0.916,-139.570,18.578,-15.617
3391,-0.3130,-0.6187,-0.7280,0.061,-0.793,-0.793,-139.565,18.572,-15.617
3401,-0.3135,-0.6191,-0.7275,0.488,-0.977,-0.732,-139.559,18.572,-15.617
3411,-0.3149,-0.6191,-0.7251,0.854,-1.221,-0.732,-139.543,18.572,-15.617
3421,-0.3188,-0.6187,-0.7207,1.038,-1.465,-0.732,-139.526,18.578,-15.617
3431,-0.3208,-0.6187,-0.7158,0.854,-1.465,-0.671,-139.510,18.589,-15.617
3441,-0.3237,-0.6196,-0.7148,0.488,-1.282,-0.671,-139.499,18.594,-15.617
3451,-0.3228,-0.6162,-0.7119,-0.183,-0.854,-0.610,-139.493,18.600,-15.617
3461,-0.3252,-0.6138,-0.7129,-0.854,-0.427,-0.549,-139.499,18.605,-15.617
3471,-0.3257,-0.6118,-0.7119,-1.099,-0.061,-0.549,-139.504,18.605,-15.617
3481,-0.3271,-0.6118,-0.7163,-1.038,0.366,-0.427,-139.515,18.605,-15.617
3491,-0.3286,-0.6113,-0.7153,-0.916,0.854,-0.427,-139.521,18.605,-15.617
3501,-0.3286,-0.6143,-0.7173,-0.793,1.099,-0.610,-139.532,18.600,-15.617
3511,-0.3232,-0.6162,-0.7178,-0.916,0.977,-0.671,-139.537,18.589,-15.617
3521,-0.3228,-0.6187,-0.7187,-1.343,0.610,-0.610,-139.548,18.583,-15.617
3531,-0.3208,-0.6187,-0.7222,-1.465,0.183,-0.427,-139.559,18.578,-15.617
3541,-0.3188,-0.6196,-0.7241,-1.221,-0.183,-0.427,-139.570,18.578,-15.617
3551,-0.3184,-0.6201,-0.7217,-0.671,-0.427,-0.366,-139.576,18.578,-15.617
3561,-0.3169,-0.6235,-0.7207,0.183,-0.488,-0.183,-139.565,18.578,-15.617
3571,-0.3164,-0.6240,-0.7192,0.854,-0.366,0.122,-139.554,18.578,-15.617
3581,-0.3164,-0.6216,-0.7173,1.160,-0.427,0.427,-139.537,18.583,-15.617
3591,-0.3174,-0.6206,-0.7187,1.038,-0.488,0.549,-139.521,18.589,-15.617
3601,-0.3174,-0.6157,-0.7163,0.732,-0.549,0.610,-139.515,18.600,-15.617
3611,-0.3208,-0.6128,-0.7168,0.610,-0.427,0.610,-139.510,18.605,-15.617
3621,-0.3218,-0.6113,-0.7158,0.671,-0.183,0.549,-139.499,18.616,-15.617
3631,-0.3193,-0.6123,-0.7148,0.610,0.122,0.427,-139.493,18.616,-15.617
3641,-0.3198,-0.6133,-0.7187,0.244,0.305,0.366,-139.493,18.622,-15.617
3651,-0.3213,-0.6113,-0.7197,-0.122,0.488,0.427,-139.499,18.622,-15.617
3661,-0.3188,-0.6045,-0.7217,-0.244,0.549,0.305,-139.510,18.616,-15.617
3671,-0.3193,-0.6060,-0.7261,-0.122,0.671,0.122,-139.521,18.616,-15.617
3681,-0.3179,-0.6055,-0.7271,-0.061,0.549,-0.122,-139.526,18.611,-15.617
3691,-0.3149,-0.6079,-0.7266,-0.122,0.305,-0.183,-139.537,18.605,-15.617
3701,-0.3149,-0.6069,-0.7280,-0.061,0.061,-0.305,-139.543,18.600,-15.617
3711,-0.3179,-0.6060,-0.7271,0.122,-0.305,-0.366,-139.543,18.600,-15.617
3721,-0.3179,-0.6045,-0.7261,0.488,-0.732,-0.549,-139.543,18.600,-15.617
3731,-0.3184,-0.6060,-0.7231,0.916,-0.916,-0.793,-139.537,18.605,-15.617
3741,-0.3213,-0.6094,-0.7197,0.977,-1.038,-0.916,-139.526,18.605,-15.617
3751,-0.3184,-0.6133,-0.7202,0.610,-1.160,-1.099,-139.515,18.611,-15.601
3761,-0.3164,-0.6128,-0.7207,0.122,-1.099,-1.099,-139.510,18.611,-15.584
3771,-0.3149,-0.6147,-0.7173,-0.427,-1.038,-1.099,-139.504,18.611,-15.568
3781,-0.3140,-0.6157,-0.7192,-0.671,-0.854,-1.038,-139.510,18.605,-15.557
3791,-0.3169,-0.6152,-0.7192,-0.488,-0.610,-0.977,-139.510,18.605,-15.546
3801,-0.3184,-0.6157,-0.7217,-0.183,-0.366,-0.916,-139.504,18.600,-15.535
3811,-0.3184,-0.6147,-0.7192,0.122,-0.122,-0.793,-139.504,18.594,-15.524
3821,-0.3208,-0.6157,-0.7202,0.183,-0.061,-0.732,-139.499,18.594,-15.518
3831,-0.3213,-0.6162,-0.7217,0.000,-0.061,-0.671,-139.499,18.589,-15.513
3841,-0.3203,-0.6187,-0.7217,-0.305,-0.244,-0.610,-139.499,18.589,-15.507
3851,-0.3193,-0.6162,-0.7251,-0.610,-0.427,-0.671,-139.504,18.583,-15.502
3861,-0.3213,-0.6133,-0.7246,-0.610,-0.610,-0.671,-139.510,18.589,-15.491
3871,-0.3247,-0.6143,-0.7231,-0.244,-0.916,-0.671,-139.510,18.594,-15.480
3881,-0.3237,-0.6162,-0.7192,0.366,-1.221,-0.732,-139.499,18.600,-15.463
3891,-0.3252,-0.6157,-0.7163,0.732,-1.343,-0.854,-139.482,18.611,-15.447
3901,-0.3247,-0.6182,-0.7153,0.671,-1.343,-0.854,-139.471,18.616,-15.430
3911,-0.3232,-0.6182,-0.7134,0.305,-1.160,-0.854,-139.460,18.622,-15.419
3921,-0.3228,-0.6206,-0.7109,-0.244,-0.916,-0.854,-139.449,18.627,-15.403
3931,-0.3218,-0.6201,-0.7129,-0.671,-0.610,-0.671,-139.449,18.627,-15.392
3941,-0.3213,-0.6187,-0.7144,-0.793,-0.244,-0.488,-139.449,18.627,-15.386
3951,-0.3228,-0.6177,-0.7148,-0.610,0.000,-0.305,-139.455,18.627,-15.386
3961,-0.3218,-0.6201,-0.7129,-0.244,0.183,-0.244,-139.449,18.627,-15.386
3971,-0.3218,-0.6196,-0.7144,0.000,0.183,-0.122,-139.449,18.627,-15.386
3981,-0.3203,-0.6211,-0.7158,0.000,0.183,0.061,-139.444,18.627,-15.386
3991,-0.3203,-0.6206,-0.7183,-0.244,0.305,0.183,-139.444,18.627,-15.392
4001,-0.3169,-0.6196,-0.7222,-0.366,0.427,0.183,-139.449,18.622,-15.397
4012,-0.3179,-0.6182,-0.7236,-0.488,0.305,0.183,-139.455,18.622,-15.397
4021,-0.3184,-0.6147,-0.7212,-0.305,0.122,0.122,-139.460,18.622,-15.403
4031,-0.3169,-0.6157,-0.7217,0.122,-0.183,0.061,-139.460,18.622,-15.397
4041,-0.3193,-0.6162,-0.7227,0.488,-0.427,-0.061,-139.455,18.622,-15.397
4051,-0.3218,-0.6138,-0.7212,0.610,-0.549,-0.061,-139.449,18.627,-15.392
4061,-0.3218,-0.6143,-0.7192,0.671,-0.366,0.000,-139.444,18.633,-15.392
4071,-0.3213,-0.6138,-0.7173,0.610,-0.183,0.000,-139.433,18.633,-15.386
4081,-0.3198,-0.6147,-0.7183,0.244,0.000,0.000,-139.433,18.633,-15.386
4091,-0.3208,-0.6138,-0.7212,-0.183,0.183,0.061,-139.438,18.633,-15.392
4101,-0.3223,-0.6108,-0.7207,-0.488,0.366,0.183,-139.444,18.633,-15.392
4111,-0.3223,-0.6094,-0.7241,-0.549,0.427,0.122,-139.455,18.633,-15.397
4121,-0.3203,-0.6084,-0.7231,-0.366,0.244,0.000,-139.466,18.633,-15.397
4131,-0.3198,-0.6084,-0.7227,-0.122,-0.122,-0.244,-139.471,18.633,-15.397
4141,-0.3184,-0.6089,-0.7241,0.244,-0.427,-0.366,-139.471,18.633,-15.392
4151,-0.3174,-0.6128,-0.7246,0.427,-0.610,-0.427,-139.466,18.633,-15.381
4161,-0.3188,-0.6133,-0.7222,0.366,-0.854,-0.549,-139.460,18.638,-15.375
4171,-0.3198,-0.6167,-0.7183,0.305,-0.793,-0.488,-139.455,18.638,-15.364
4181,-0.3213,-0.6167,-0.7158,0.244,-0.610,-0.427,-139.449,18.644,-15.353
4191,-0.3193,-0.6167,-0.7183,0.183,-0.366,-0.366,-139.444,18.644,-15.353
4201,-0.3193,-0.6182,-0.7158,0.061,-0.122,-0.366,-139.438,18.644,-15.348
4211,-0.3203,-0.6177,-0.7187,-0.244,0.000,-0.244,-139.438,18.644,-15.342
4221,-0.3184,-0.6167,-0.7202,-0.610,0.122,-0.061,-139.444,18.638,-15.348
4231,-0.3179,-0.6147,-0.7227,-0.732,0.122,-0.061,-139.455,18.638,-15.348
4241,-0.3188,-0.6157,-0.7251,-0.488,-0.061,-0.061,-139.460,18.638,-15.342
4251,-0.3193,-0.6138,-0.7231,-0.122,-0.183,-0.122,-139.466,18.638,-15.342
4261,-0.3232,-0.6157,-0.7241,0.305,-0.305,-0.183,-139.460,18.638,-15.337
4271,-0.3203,-0.6172,-0.7212,0.488,-0.488,-0.183,-139.455,18.644,-15.331
4281,-0.3208,-0.6152,-0.7192,0.488,-0.671,-0.183,-139.449,18.644,-15.326
4291,-0.3228,-0.6133,-0.7178,0.427,-0.854,-0.183,-139.444,18.655,-15.320
4301,-0.3228,-0.6143,-0.7158,0.549,-0.977,-0.183,-139.433,18.660,-15.315
4311,-0.3237,-0.6143,-0.7153,0.549,-0.977,-0.244,-139.422,18.671,-15.304
4321,-0.3252,-0.6147,-0.7114,0.488,-0.793,-0.244,-139.417,18.682,-15.298
4331,-0.3228,-0.6138,-0.7139,0.244,-0.427,-0.244,-139.411,18.682,-15.293
4341,-0.3223,-0.6162,-0.7139,-0.061,-0.183,-0.305,-139.406,18.682,-15.287
4351,-0.3228,-0.6167,-0.7134,-0.244,0.000,-0.305,-139.406,18.688,-15.287
4361,-0.3198,-0.6162,-0.7148,-0.488,0.183,-0.305,-139.411,18.682,-15.282
4371,-0.3203,-0.6172,-0.7178,-0.671,0.244,-0.183,-139.417,18.677,-15.282
4381,-0.3184,-0.6177,-0.7192,-0.671,0.183,-0.122,-139.422,18.677,-15.287
4391,-0.3188,-0.6172,-0.7168,-0.427,0.122,-0.061,-139.422,18.677,-15.287
4401,-0.3218,-0.6182,-0.7178,-0.122,0.000,0.000,-139.422,18.677,-15.287
4411,-0.3223,-0.6143,-0.7187,0.122,0.122,-0.061,-139.422,18.677,-15.287
4421,-0.3198,-0.6177,-0.7183,0.183,0.244,-0.061,-139.422,18.671,-15.287
4431,-0.3218,-0.6191,-0.7168,0.061,0.427,-0.061,-139.417,18.671,-15.287
4441,-0.3228,-0.6177,-0.7187,-0.244,0.366,-0.061,-139.422,18.666,-15.293
4451,-0.3228,-0.6157,-0.7158,-0.427,0.244,0.000,-139.422,18.671,-15.293
4461,-0.3242,-0.6167,-0.7183,-0.366,0.183,0.061,-139.427,18.671,-15.293
4471,-0.3223,-0.6157,-0.7217,-0.122,0.244,0.061,-139.427,18.671,-15.298
4481,-0.3203,-0.6187,-0.7212,-0.061,0.366,0.000,-139.433,18.666,-15.298
4491,-0.3193,-0.6196,-0.7246,-0.183,0.427,0.061,-139.433,18.660,-15.304
4501,-0.3188,-0.6182,-0.7266,-0.305,0.244,0.244,-139.438,18.660,-15.304
4512,-0.3188,-0.6133,-0.7261,-0.244,-0.122,0.244,-139.444,18.660,-15.309
4521,-0.3228,-0.6108,-0.7222,0.122,-0.427,0.244,-139.449,18.666,-15.304
4531,-0.3228,-0.6113,-0.7222,0.793,-0.610,0.244,-139.444,18.677,-15.304
4541,-0.3232,-0.6118,-0.7192,1.282,-0.610,0.183,-139.433,18.682,-15.304
4551,-0.3223,-0.6113,-0.7129,1.160,-0.488,0.183,-139.417,18.693,-15.298
4561,-0.3223,-0.6133,-0.7129,0.488,-0.122,0.122,-139.411,18.693,-15.298
4571,-0.3213,-0.6094,-0.7207,-0.305,0.183,0.061,-139.417,18.693,-15.304
4581,-0.3218,-0.6069,-0.7217,-0.854,0.427,-0.061,-139.433,18.693,-15.304
4591,-0.3218,-0.6084,-0.7217,-0.916,0.305,-0.244,-139.449,18.693,-15.304
4601,-0.3188,-0.6084,-0.7231,-0.671,0.061,-0.366,-139.455,18.688,-15.304
4611,-0.3184,-0.6113,-0.7231,-0.305,-0.183,-0.488,-139.460,18.682,-15.298
4621,-0.3184,-0.6147,-0.7256,-0.122,-0.305,-0.549,-139.466,18.682,-15.287
4631,-0.3179,-0.6157,-0.7227,-0.122,-0.427,-0.549,-139.466,18.682,-15.282
4641,-0.3159,-0.6138,-0.7212,-0.244,-0.610,-0.488,-139.466,18.677,-15.276
4651,-0.3164,-0.6138,-0.7197,-0.061,-0.671,-0.488,-139.466,18.677,-15.266
4661,-0.3164,-0.6157,-0.7178,0.183,-0.732,-0.488,-139.460,18.682,-15.255
4671,-0.3159,-0.6196,-0.7187,0.305,-0.854,-0.549,-139.449,18.682,-15.249
4681,-0.3164,-0.6182,-0.7173,0.183,-1.038,-0.610,-139.444,18.682,-15.233
4691,-0.3169,-0.6172,-0.7163,-0.061,-1.038,-0.488,-139.438,18.682,-15.222
4701,-0.3193,-0.6147,-0.7168,-0.122,-0.977,-0.366,-139.433,18.688,-15.216
4711,-0.3179,-0.6138,-0.7148,0.122,-0.916,-0.305,-139.427,18.693,-15.205
4721,-0.3228,-0.6123,-0.7144,0.427,-0.793,-0.427,-139.422,18.699,-15.194
4731,-0.3257,-0.6138,-0.7134,0.610,-0.671,-0.488,-139.411,18.704,-15.189
4741,-0.3267,-0.6162,-0.7109,0.610,-0.549,-0.549,-139.400,18.710,-15.178
4751,-0.3257,-0.6172,-0.7095,0.244,-0.366,-0.671,-139.389,18.715,-15.172
4761,-0.3257,-0.6177,-0.7085,-0.305,-0.244,-0.732,-139.389,18.715,-15.167
4771,-0.3281,-0.6201,-0.7114,-0.916,-0.061,-0.671,-139.389,18.715,-15.161
4781,-0.3271,-0.6221,-0.7114,-1.221,0.061,-0.549,-139.395,18.715,-15.161
4791,-0.3232,-0.6196,-0.7148,-1.221,0.244,-0.427,-139.406,18.710,-15.161
4801,-0.3223,-0.6206,-0.7158,-0.916,0.427,-0.244,-139.411,18.710,-15.161
4811,-0.3228,-0.6191,-0.7183,-0.549,0.488,-0.061,-139.417,18.704,-15.161
4821,-0.3242,-0.6177,-0.7173,-0.122,0.488,0.061,-139.417,18.704,-15.161
4831,-0.3228,-0.6206,-0.7158,0.244,0.366,0.061,-139.411,18.704,-15.161
4841,-0.3208,-0.6221,-0.7173,0.427,0.183,0.061,-139.400,18.699,-15.161
4851,-0.3198,-0.6216,-0.7148,0.366,0.000,0.061,-139.395,18.699,-15.161
4861,-0.3203,-0.6235,-0.7139,0.122,0.000,0.122,-139.389,18.699,-15.161
4871,-0.3218,-0.6201,-0.7173,-0.183,0.122,0.244,-139.389,18.704,-15.161
4881,-0.3228,-0.6201,-0.7178,-0.244,0.366,0.305,-139.389,18.704,-15.161
4891,-0.3208,-0.6211,-0.7163,0.000,0.610,0.366,-139.389,18.699,-15.161
4901,-0.3223,-0.6182,-0.7148,0.244,0.732,0.427,-139.389,18.699,-15.161
4911,-0.3242,-0.6182,-0.7173,0.183,0.854,0.549,-139.389,18.699,-15.161
4921,-0.3228,-0.6191,-0.7192,-0.061,0.977,0.610,-139.389,18.693,-15.161
4931,-0.3213,-0.6162,-0.7222,-0.305,0.854,0.610,-139.400,18.693,-15.161
4941,-0.3223,-0.6138,-0.7256,-0.488,0.793,0.549,-139.411,18.693,-15.161
4951,-0.3237,-0.6128,-0.7227,-0.427,0.610,0.488,-139.422,18.693,-15.161
4961,-0.3232,-0.6113,-0.7236,-0.061,0.366,0.366,-139.427,18.693,-15.161
4971,-0.3247,-0.6118,-0.7212,0.427,0.183,0.305,-139.427,18.693,-15.161
4981,-0.3237,-0.6143,-0.7202,0.671,-0.061,0.244,-139.422,18.699,-15.161
4991,-0.3198,-0.6152,-0.7227,0.427,-0.122,0.244,-139.417,18.699,-15.161
5001,-0.3188,-0.6157,-0.7236,0.061,-0.183,0.305,-139.422,18.704,-15.161
5012,-0.3184,-0.6157,-0.7217,-0.305,-0.122,0.366,-139.427,18.704,-15.161
5021,-0.3193,-0.6157,-0.7212,-0.427,0.061,0.488,-139.433,18.704,-15.161
5031,-0.3198,-0.6138,-0.7197,-0.244,0.183,0.549,-139.438,18.710,-15.161
5041,-0.3174,-0.6133,-0.7197,0.000,0.366,0.488,-139.438,18.710,-15.161
5051,-0.3164,-0.6118,-0.7183,0.000,0.610,0.427,-139.444,18.704,-15.161
5061,-0.3184,-0.6108,-0.7192,-0.122,0.671,0.366,-139.449,18.699,-15.161
5071,-0.3203,-0.6064,-0.7202,-0.183,0.671,0.244,-139.460,18.699,-15.161
5081,-0.3228,-0.6094,-0.7202,-0.305,0.610,0.122,-139.466,18.699,-15.161
5091,-0.3218,-0.6094,-0.7178,-0.427,0.488,-0.061,-139.471,18.693,-15.161
5101,-0.3208,-0.6108,-0.7183,-0.549,0.366,-0.122,-139.482,18.693,-15.161
5111,-0.3213,-0.6133,-0.7222,-0.732,0.305,-0.122,-139.488,18.688,-15.161
5121,-0.3218,-0.6143,-0.7222,-0.916,0.183,-0.183,-139.499,18.688,-15.161
5131,-0.3203,-0.6152,-0.7202,-0.854,0.061,-0.183,-139.510,18.688,-15.161
5141,-0.3198,-0.6177,-0.7187,-0.549,0.061,-0.244,-139.510,18.682,-15.161
5151,-0.3179,-0.6177,-0.7183,-0.183,0.000,-0.305,-139.510,18.677,-15.161
5161,-0.3169,-0.6206,-0.7158,0.122,-0.183,-0.305,-139.504,18.677,-15.161
5171,-0.3184,-0.6226,-0.7139,0.122,-0.305,-0.183,-139.493,18.677,-15.161
5181,-0.3198,-0.6187,-0.7144,-0.061,-0.366,-0.061,-139.493,18.682,-15.161
5191,-0.3218,-0.6152,-0.7129,-0.183,-0.122,0.122,-139.488,18.682,-15.161
5201,-0.3223,-0.6138,-0.7144,-0.183,0.183,0.183,-139.493,18.688,-15.161
5211,-0.3232,-0.6138,-0.7134,0.000,0.610,0.122,-139.488,18.682,-15.161
5221,-0.3262,-0.6157,-0.7124,0.000,0.854,0.122,-139.488,18.682,-15.161
5231,-0.3247,-0.6182,-0.7144,-0.183,0.977,0.183,-139.488,18.682,-15.161
5241,-0.3232,-0.6187,-0.7173,-0.549,0.977,0.183,-139.493,18.677,-15.161
5251,-0.3228,-0.6182,-0.7192,-0.977,1.038,0.183,-139.504,18.671,-15.161
5261,-0.3213,-0.6172,-0.7231,-1.099,1.221,0.305,-139.521,18.660,-15.161
5271,-0.3193,-0.6196,-0.7231,-0.977,1.404,0.427,-139.532,18.655,-15.161
5281,-0.3188,-0.6182,-0.7236,-0.793,1.282,0.549,-139.543,18.644,-15.161
5291,-0.3218,-0.6196,-0.7261,-0.671,1.038,0.732,-139.554,18.644,-15.161
5301,-0.3208,-0.6162,-0.7300,-0.488,0.854,0.916,-139.565,18.644,-15.161
5311,-0.3213,-0.6147,-0.7285,-0.183,0.549,0.916,-139.576,18.644,-15.161
5321,-0.3208,-0.6123,-0.7271,0.061,0.183,0.916,-139.581,18.649,-15.161
5331,-0.3198,-0.6104,-0.7256,0.305,-0.183,0.854,-139.581,18.655,-15.161
5341,-0.3198,-0.6089,-0.7266,0.549,-0.610,0.793,-139.581,18.666,-15.161
5351,-0.3193,-0.6099,-0.7241,0.671,-0.916,0.671,-139.576,18.677,-15.161
5361,-0.3188,-0.6104,-0.7197,0.610,-1.160,0.549,-139.570,18.688,-15.161
5371,-0.3193,-0.6108,-0.7183,0.488,-1.221,0.427,-139.565,18.699,-15.161
5381,-0.3188,-0.6128,-0.7144,0.366,-0.854,0.366,-139.559,18.710,-15.161
5391,-0.3193,-0.6108,-0.7153,0.061,-0.427,0.305,-139.559,18.715,-15.161
5401,-0.3188,-0.6118,-0.7134,-0.244,0.061,0.366,-139.559,18.715,-15.161
5411,-0.3188,-0.6108,-0.7134,-0.488,0.488,0.488,-139.565,18.715,-15.161
5421,-0.3213,-0.6084,-0.7124,-0.610,0.671,0.549,-139.576,18.715,-15.161
5431,-0.3218,-0.6084,-0.7153,-0.610,0.854,0.549,-139.587,18.715,-15.161
5441,-0.3218,-0.6055,-0.7168,-0.671,1.038,0.488,-139.598,18.715,-15.161
5451,-0.3257,-0.6050,-0.7251,-0.732,1.221,0.366,-139.614,18.710,-15.161
5461,-0.3232,-0.6050,-0.7256,-0.732,1.221,0.122,-139.631,18.704,-15.161
5471,-0.3228,-0.6060,-0.7271,-0.610,0.977,-0.061,-139.642,18.699,-15.161
5481,-0.3198,-0.6074,-0.7295,-0.366,0.305,-0.305,-139.653,18.693,-15.161
5491,-0.3203,-0.6133,-0.7300,0.000,-0.549,-0.549,-139.653,18.693,-15.161
5501,-0.3223,-0.6177,-0.7280,0.366,-1.221,-0.671,-139.647,18.693,-15.161
5512,-0.3223,-0.6191,-0.7212,0.671,-1.770,-0.610,-139.631,18.704,-15.161
5521,-0.3213,-0.6191,-0.7197,0.854,-1.831,-0.366,-139.614,18.715,-15.161
5531,-0.3228,-0.6211,-0.7153,1.038,-1.587,-0.122,-139.592,18.732,-15.161
5541,-0.3203,-0.6226,-0.7104,1.038,-1.160,0.000,-139.570,18.737,-15.161
5551,-0.3179,-0.6206,-0.7100,0.732,-0.671,0.244,-139.554,18.743,-15.161
5561,-0.3188,-0.6206,-0.7109,0.366,-0.122,0.488,-139.548,18.748,-15.161
5571,-0.3174,-0.6187,-0.7163,0.000,0.244,0.671,-139.548,18.748,-15.161
5581,-0.3169,-0.6128,-0.7134,-0.244,0.488,0.732,-139.548,18.748,-15.161
5591,-0.3198,-0.6113,-0.7158,-0.122,0.549,0.732,-139.554,18.748,-15.161
5601,-0.3198,-0.6094,-0.7148,0.183,0.671,0.610,-139.554,18.748,-15.161
5611,-0.3203,-0.6094,-0.7124,0.366,0.854,0.488,-139.554,18.743,-15.161
5621,-0.3218,-0.6079,-0.7144,0.366,1.160,0.427,-139.554,18.743,-15.161
5631,-0.3218,-0.6079,-0.7124,0.244,1.343,0.366,-139.554,18.737,-15.161
5641,-0.3242,-0.6064,-0.7168,0.122,1.282,0.305,-139.559,18.732,-15.161
5651,-0.3223,-0.6079,-0.7168,0.061,1.160,0.183,-139.565,18.726,-15.161
5661,-0.3218,-0.6089,-0.7192,-0.061,1.038,0.000,-139.565,18.721,-15.161
5671,-0.3218,-0.6084,-0.7183,-0.122,0.977,0.000,-139.570,18.715,-15.161
5681,-0.3213,-0.6094,-0.7212,-0.183,1.038,0.000,-139.576,18.704,-15.161
5691,-0.3193,-0.6108,-0.7222,-0.122,1.099,-0.061,-139.581,18.699,-15.161
5701,-0.3164,-0.6084,-0.7246,-0.122,0.977,-0.183,-139.592,18.688,-15.161
5711,-0.3174,-0.6074,-0.7227,-0.183,0.854,-0.244,-139.598,18.677,-15.161
5721,-0.3174,-0.6079,-0.7251,-0.244,0.732,-0.244,-139.603,18.671,-15.161
5731,-0.3198,-0.6094,-0.7236,-0.305,0.671,-0.366,-139.609,18.660,-15.161
5741,-0.3223,-0.6084,-0.7207,-0.305,0.671,-0.427,-139.614,18.655,-15.161
5751,-0.3208,-0.6094,-0.7207,-0.427,0.793,-0.549,-139.625,18.649,-15.161
5761,-0.3208,-0.6113,-0.7231,-0.488,0.854,-0.610,-139.631,18.638,-15.161
5771,-0.3242,-0.6138,-0.7246,-0.610,0.854,-0.610,-139.636,18.627,-15.161
5781,-0.3247,-0.6133,-0.7256,-0.793,0.671,-0.549,-139.647,18.622,-15.161
5791,-0.3237,-0.6157,-0.7295,-0.732,0.488,-0.488,-139.658,18.616,-15.161
5801,-0.3232,-0.6182,-0.7324,-0.427,0.244,-0.366,-139.664,18.611,-15.161
5811,-0.3203,-0.6196,-0.7305,-0.183,-0.122,-0.366,-139.664,18.611,-15.161
5821,-0.3198,-0.6187,-0.7280,-0.122,-0.488,-0.244,-139.664,18.611,-15.161
5831,-0.3174,-0.6152,-0.7310,-0.061,-0.671,0.000,-139.664,18.616,-15.161
5841,-0.3193,-0.6104,-0.7300,0.122,-0.977,0.122,-139.664,18.622,-15.161
5851,-0.3218,-0.6074,-0.7261,0.549,-1.160,0.122,-139.658,18.633,-15.161
5861,-0.3237,-0.6079,-0.7207,1.099,-1.343,-0.122,-139.647,18.644,-15.161
5871,-0.3223,-0.6079,-0.7158,1.221,-1.465,-0.427,-139.631,18.655,-15.161
5881,-0.3223,-0.6108,-0.7100,0.854,-1.282,-0.549,-139.614,18.666,-15.161
5891,-0.3218,-0.6094,-0.7124,0.061,-0.977,-0.671,-139.609,18.671,-15.161
5901,-0.3193,-0.6128,-0.7119,-0.732,-0.488,-0.732,-139.609,18.671,-15.161
5911,-0.3164,-0.6138,-0.7134,-1.404,0.061,-0.793,-139.620,18.666,-15.161
5921,-0.3154,-0.6147,-0.7178,-1.648,0.488,-0.671,-139.636,18.655,-15.161
5931,-0.3145,-0.6147,-0.7207,-1.404,0.610,-0.549,-139.647,18.644,-15.161
5941,-0.3159,-0.6143,-0.7202,-0.854,0.427,-0.427,-139.653,18.638,-15.161
5951,-0.3159,-0.6143,-0.7222,-0.244,0.244,-0.427,-139.653,18.633,-15.161
5961,-0.3188,-0.6147,-0.7222,0.244,0.000,-0.488,-139.653,18.627,-15.161
5971,-0.3223,-0.6157,-0.7227,0.305,-0.244,-0.488,-139.647,18.627,-15.161
5981,-0.3223,-0.6133,-0.7202,0.122,-0.305,-0.488,-139.642,18.627,-15.161
5991,-0.3213,-0.6113,-0.7217,-0.061,-0.366,-0.549,-139.642,18.627,-15.161
6001,-0.3232,-0.6123,-0.7217,-0.061,-0.366,-0.610,-139.642,18.627,-15.161
6012,-0.3228,-0.6113,-0.7212,0.061,-0.366,-0.671,-139.636,18.633,-15.161
6021,-0.3232,-0.6133,-0.7192,0.122,-0.427,-0.732,-139.631,18.633,-15.161
6031,-0.3218,-0.6167,-0.7183,0.061,-0.427,-0.793,-139.625,18.633,-15.161
6041,-0.3237,-0.6182,-0.7183,-0.244,-0.427,-0.793,-139.620,18.633,-15.161
6051,-0.3208,-0.6172,-0.7207,-0.549,-0.427,-0.671,-139.625,18.633,-15.161
6061,-0.3213,-0.6177,-0.7197,-0.671,-0.366,-0.549,-139.625,18.633,-15.161
6071,-0.3237,-0.6162,-0.7183,-0.305,-0.244,-0.427,-139.625,18.633,-15.161
6081,-0.3247,-0.6187,-0.7153,0.183,0.061,-0.366,-139.614,18.633,-15.161
6091,-0.3223,-0.6206,-0.7144,0.244,0.366,-0.305,-139.609,18.633,-15.161
6101,-0.3213,-0.6221,-0.7173,0.000,0.610,-0.061,-139.603,18.627,-15.161
6111,-0.3213,-0.6182,-0.7192,-0.366,0.793,0.183,-139.609,18.622,-15.161
6121,-0.3213,-0.6143,-0.7251,-0.732,0.793,0.244,-139.620,18.616,-15.161
6131,-0.3223,-0.6128,-0.7280,-0.793,0.610,0.244,-139.631,18.616,-15.161
6141,-0.3213,-0.6104,-0.7280,-0.549,0.305,0.183,-139.642,18.616,-15.161
6151,-0.3208,-0.6113,-0.7271,0.000,-0.061,0.183,-139.642,18.616,-15.161
6161,-0.3198,-0.6113,-0.7261,0.488,-0.610,0.061,-139.642,18.622,-15.161
6171,-0.3198,-0.6108,-0.7241,0.732,-0.977,0.000,-139.631,18.633,-15.161
6181,-0.3208,-0.6089,-0.7217,0.916,-1.221,0.000,-139.625,18.644,-15.161
6191,-0.3218,-0.6089,-0.7168,0.977,-1.221,-0.183,-139.609,18.649,-15.161
6201,-0.3223,-0.6113,-0.7153,0.977,-1.160,-0.427,-139.598,18.660,-15.161
6211,-0.3213,-0.6128,-0.7144,0.793,-1.038,-0.549,-139.581,18.666,-15.161
6221,-0.3193,-0.6172,-0.7134,0.305,-0.916,-0.549,-139.570,18.671,-15.161
6231,-0.3203,-0.6191,-0.7144,-0.244,-0.610,-0.488,-139.565,18.671,-15.161
6241,-0.3184,-0.6177,-0.7148,-0.549,-0.305,-0.427,-139.565,18.671,-15.161
6251,-0.3188,-0.6187,-0.7187,-0.427,-0.061,-0.244,-139.565,18.671,-15.161
6261,-0.3198,-0.6187,-0.7197,0.000,0.366,0.061,-139.565,18.666,-15.161
6271,-0.3198,-0.6196,-0.7222,0.488,0.610,0.244,-139.559,18.660,-15.161
6281,-0.3213,-0.6177,-0.7231,0.610,0.671,0.427,-139.554,18.660,-15.161
6291,-0.3223,-0.6138,-0.7241,0.549,0.610,0.549,-139.554,18.660,-15.161
6301,-0.3232,-0.6113,-0.7236,0.366,0.366,0.549,-139.554,18.660,-15.161
6311,-0.3228,-0.6064,-0.7256,0.244,0.061,0.427,-139.559,18.666,-15.161
6321,-0.3213,-0.6060,-0.7266,0.244,-0.183,0.183,-139.565,18.671,-15.161
6331,-0.3232,-0.6069,-0.7271,0.244,-0.427,0.000,-139.565,18.677,-15.161
6341,-0.3208,-0.6074,-0.7280,0.183,-0.610,-0.244,-139.570,18.677,-15.161
6351,-0.3198,-0.6099,-0.7266,0.061,-0.793,-0.427,-139.570,18.682,-15.161
6361,-0.3174,-0.6118,-0.7236,-0.061,-0.977,-0.549,-139.570,18.682,-15.161
6371,-0.3169,-0.6133,-0.7202,-0.122,-1.038,-0.488,-139.565,18.688,-15.161
6381,-0.3188,-0.6133,-0.7207,-0.122,-0.977,-0.427,-139.565,18.693,-15.161
6391,-0.3184,-0.6138,-0.7192,-0.061,-0.793,-0.366,-139.565,18.693,-15.161
6401,-0.3198,-0.6133,-0.7192,0.000,-0.488,-0.244,-139.559,18.693,-15.161
6411,-0.3208,-0.6147,-0.7158,0.000,-0.305,-0.244,-139.559,18.699,-15.161
6421,-0.3228,-0.6128,-0.7168,-0.061,-0.183,-0.244,-139.554,18.699,-15.161
6431,-0.3218,-0.6128,-0.7163,-0.183,-0.122,-0.244,-139.554,18.699,-15.161
6441,-0.3247,-0.6143,-0.7168,-0.427,-0.183,-0.244,-139.559,18.704,-15.161
6451,-0.3213,-0.6133,-0.7202,-0.549,-0.305,-0.244,-139.559,18.704,-15.161
6461,-0.3184,-0.6123,-0.7197,-0.549,-0.549,-0.305,-139.565,18.704,-15.161
6471,-0.3188,-0.6108,-0.7202,-0.488,-0.854,-0.366,-139.570,18.710,-15.161
6481,-0.3169,-0.6079,-0.7217,-0.061,-1.160,-0.488,-139.570,18.715,-15.161
6491,-0.3208,-0.6079,-0.7148,0.488,-1.343,-0.732,-139.559,18.721,-15.161
6501,-0.3247,-0.6089,-0.7104,0.916,-1.404,-0.916,-139.543,18.726,-15.161
6512,-0.3252,-0.6099,-0.7031,1.038,-1.282,-0.977,-139.521,18.737,-15.161
6521,-0.3271,-0.6133,-0.6987,0.671,-0.916,-0.977,-139.504,18.743,-15.161
6531,-0.3281,-0.6182,-0.7007,-0.061,-0.305,-1.038,-139.493,18.748,-15.150
6541,-0.3271,-0.6216,-0.7061,-0.916,0.549,-1.038,-139.493,18.737,-15.145
6551,-0.3237,-0.6221,-0.7080,-1.648,1.343,-0.916,-139.499,18.726,-15.145
6561,-0.3213,-0.6221,-0.7183,-2.014,1.831,-0.732,-139.521,18.710,-15.150
6571,-0.3193,-0.6211,-0.7227,-1.709,1.892,-0.488,-139.537,18.688,-15.161
6581,-0.3174,-0.6211,-0.7266,-1.099,1.465,-0.366,-139.548,18.671,-15.167
6592,-0.3179,-0.6206,-0.7295,-0.427,0.732,-0.244,-139.554,18.660,-15.172
6602,-0.3193,-0.6187,-0.7290,0.183,0.183,-0.061,-139.554,18.655,-15.172
6612,-0.3203,-0.6191,-0.7280,0.610,-0.122,0.122,-139.548,18.660,-15.172
6622,-0.3237,-0.6157,-0.7251,0.793,-0.244,0.183,-139.543,18.660,-15.172
6632,-0.3247,-0.6123,-0.7261,0.916,-0.305,0.244,-139.537,18.666,-15.172
6642,-0.3237,-0.6113,-0.7256,1.038,-0.427,0.244,-139.526,18.677,-15.172
6652,-0.3242,-0.6074,-0.7227,1.099,-0.610,0.244,-139.521,18.682,-15.167
6662,-0.3242,-0.6064,-0.7207,1.099,-0.977,0.122,-139.515,18.693,-15.161
6671,-0.3223,-0.6064,-0.7163,0.977,-1.221,0.000,-139.504,18.704,-15.156
6682,-0.3247,-0.6035,-0.7148,0.854,-1.465,-0.244,-139.493,18.721,-15.145
6692,-0.3267,-0.6050,-0.7085,0.977,-1.404,-0.427,-139.482,18.737,-15.128
6702,-0.3257,-0.6069,-0.7090,1.038,-0.977,-0.671,-139.466,18.743,-15.117
6712,-0.3218,-0.6143,-0.7070,0.732,-0.427,-0.916,-139.449,18.743,-15.106
6722,-0.3169,-0.6167,-0.7095,0.061,0.122,-1.038,-139.444,18.732,-15.101
6732,-0.3179,-0.6177,-0.7144,-0.793,0.610,-1.038,-139.444,18.721,-15.095
6742,-0.3159,-0.6191,-0.7153,-1.282,0.854,-1.038,-139.455,18.704,-15.095
6752,-0.3179,-0.6206,-0.7207,-1.160,1.038,-1.099,-139.466,18.688,-15.090
6762,-0.3159,-0.6255,-0.7231,-0.732,1.038,-1.221,-139.466,18.666,-15.090
6772,-0.3145,-0.6279,-0.7227,-0.549,1.038,-1.038,-139.466,18.649,-15.090
6782,-0.3154,-0.6289,-0.7251,-0.488,0.916,-0.671,-139.471,18.633,-15.090
6792,-0.3169,-0.6260,-0.7266,-0.488,0.854,-0.305,-139.471,18.622,-15.090
6802,-0.3184,-0.6260,-0.7300,-0.366,0.732,-0.061,-139.477,18.611,-15.095
6812,-0.3198,-0.6255,-0.7280,-0.122,0.549,0.183,-139.477,18.605,-15.101
6822,-0.3218,-0.6230,-0.7295,0.061,0.305,0.366,-139.477,18.605,-15.106
6832,-0.3242,-0.6201,-0.7271,0.305,-0.183,0.549,-139.477,18.611,-15.112
6842,-0.3267,-0.6167,-0.7231,0.488,-0.610,0.610,-139.471,18.627,-15.112
6852,-0.3267,-0.6133,-0.7202,0.610,-1.038,0.549,-139.466,18.644,-15.106
6862,-0.3262,-0.6157,-0.7187,0.793,-1.404,0.366,-139.455,18.660,-15.101
6872,-0.3252,-0.6167,-0.7148,0.916,-1.343,0.183,-139.444,18.671,-15.095
6882,-0.3267,-0.6187,-0.7119,0.793,-0.977,0.244,-139.427,18.688,-15.090
6892,-0.3271,-0.6177,-0.7163,0.366,-0.366,0.427,-139.422,18.693,-15.090
6902,-0.3276,-0.6162,-0.7251,0.122,0.244,0.732,-139.427,18.699,-15.095
6912,-0.3301,-0.6152,-0.7354,0.122,0.549,0.916,-139.438,18.704,-15.106
6922,-0.3291,-0.6128,-0.7471,0.488,0.305,1.038,-139.449,18.710,-15.117
6932,-0.3296,-0.6104,-0.7559,1.160,-0.488,1.099,-139.455,18.721,-15.123
6942,-0.3276,-0.6079,-0.7568,1.953,-1.892,1.099,-139.449,18.743,-15.117
6952,-0.3247,-0.6050,-0.7539,2.869,-3.479,0.916,-139.433,18.776,-15.101
6962,-0.3228,-0.6025,-0.7417,3.601,-5.005,0.732,-139.406,18.814,-15.073
6972,-0.3228,-0.6001,-0.7271,3.967,-6.042,0.427,-139.362,18.864,-15.035
6982,-0.3223,-0.5996,-0.7114,3.845,-6.531,0.061,-139.318,18.913,-14.991
6992,-0.3208,-0.6030,-0.6978,3.174,-6.287,-0.427,-139.268,18.962,-14.947
7002,-0.3159,-0.6084,-0.6860,1.770,-5.432,-0.916,-139.230,18.995,-14.903
7012,-0.3140,-0.6177,-0.6816,0.000,-3.967,-1.160,-139.202,19.017,-14.865
7022,-0.3105,-0.6211,-0.6836,-1.831,-2.380,-1.221,-139.197,19.023,-14.837
7032,-0.3096,-0.6230,-0.6895,-3.235,-0.671,-1.038,-139.213,19.017,-14.826
7042,-0.3086,-0.6226,-0.6948,-3.845,0.732,-0.671,-139.241,19.001,-14.826
7052,-0.3096,-0.6206,-0.7026,-3.418,1.526,-0.427,-139.268,18.979,-14.832
7062,-0.3120,-0.6182,-0.7031,-2.197,1.648,-0.183,-139.290,18.957,-14.843
7072,-0.3159,-0.6152,-0.7051,-0.977,1.282,-0.122,-139.296,18.946,-14.848
7082,-0.3188,-0.6118,-0.7026,-0.122,0.732,-0.366,-139.296,18.935,-14.854
7092,-0.3213,-0.6079,-0.7007,0.244,0.183,-0.671,-139.290,18.935,-14.848
7102,-0.3252,-0.6045,-0.6987,0.305,-0.122,-0.977,-139.279,18.935,-14.837
7112,-0.3330,-0.6045,-0.6943,0.183,-0.061,-1.343,-139.274,18.935,-14.826
7122,-0.3330,-0.6089,-0.6924,-0.183,0.305,-1.831,-139.263,18.929,-14.815
7132,-0.3325,-0.6157,-0.6938,-0.732,0.793,-2.075,-139.257,18.918,-14.804
7142,-0.3311,-0.6216,-0.6982,-1.343,1.282,-2.136,-139.263,18.902,-14.793
7152,-0.3306,-0.6260,-0.7021,-1.709,1.587,-2.014,-139.268,18.880,-14.788
7162,-0.3306,-0.6274,-0.7046,-1.770,1.770,-1.831,-139.274,18.858,-14.788
7172,-0.3311,-0.6318,-0.7104,-1.648,1.953,-1.526,-139.279,18.836,-14.788
7182,-0.3301,-0.6353,-0.7124,-1.404,2.197,-1.160,-139.285,18.814,-14.793
7192,-0.3281,-0.6343,-0.7163,-1.038,2.441,-0.793,-139.290,18.792,-14.804
7202,-0.3281,-0.6333,-0.7197,-0.488,2.380,-0.305,-139.296,18.776,-14.821
7212,-0.3296,-0.6274,-0.7236,0.061,2.258,0.061,-139.296,18.759,-14.837
7222,-0.3315,-0.6255,-0.7261,0.488,2.136,0.305,-139.296,18.748,-14.854
7232,-0.3296,-0.6221,-0.7271,0.671,2.075,0.305,-139.296,18.737,-14.870
7242,-0.3271,-0.6187,-0.7271,0.671,2.014,0.305,-139.301,18.726,-14.886
7252,-0.3262,-0.6152,-0.7310,0.366,1.770,0.366,-139.307,18.721,-14.903
7262,-0.3257,-0.6123,-0.7329,0.061,1.343,0.366,-139.318,18.710,-14.914
7272,-0.3228,-0.6128,-0.7334,0.122,0.732,0.305,-139.329,18.710,-14.919
7282,-0.3208,-0.6143,-0.7295,0.366,0.061,0.183,-139.329,18.710,-14.925
7292,-0.3184,-0.6147,-0.7295,0.427,-0.488,0.122,-139.329,18.710,-14.919
7302,-0.3164,-0.6162,-0.7271,0.305,-0.793,0.122,-139.329,18.715,-14.914
7312,-0.3135,-0.6143,-0.7227,-0.244,-0.854,0.244,-139.334,18.715,-14.914
7322,-0.3120,-0.6099,-0.7236,-0.671,-0.610,0.305,-139.345,18.721,-14.908
7332,-0.3115,-0.6035,-0.7246,-0.854,-0.305,0.305,-139.362,18.721,-14.908
7342,-0.3130,-0.5991,-0.7236,-0.793,-0.061,0.122,-139.378,18.715,-14.908
7352,-0.3164,-0.5972,-0.7212,-0.610,0.061,-0.183,-139.395,18.715,-14.908
7362,-0.3218,-0.6001,-0.7183,-0.427,0.061,-0.854,-139.406,18.710,-14.903
7372,-0.3262,-0.6084,-0.7148,-0.488,0.061,-1.526,-139.411,18.704,-14.892
7382,-0.3291,-0.6147,-0.7124,-0.977,0.000,-2.014,-139.411,18.699,-14.875
7392,-0.3291,-0.6216,-0.7124,-1.892,0.122,-2.075,-139.422,18.688,-14.859
7402,-0.3291,-0.6260,-0.7144,-2.747,0.305,-1.831,-139.438,18.677,-14.848
7412,-0.3281,-0.6274,-0.7183,-3.235,0.427,-1.282,-139.460,18.671,-14.837
7422,-0.3296,-0.6294,-0.7202,-3.052,0.488,-0.793,-139.482,18.666,-14.837
7432,-0.3237,-0.6289,-0.7212,-2.258,0.488,-0.366,-139.499,18.660,-14.837
7442,-0.3208,-0.6304,-0.7187,-1.160,0.244,0.000,-139.504,18.655,-14.837
7452,-0.3208,-0.6274,-0.7183,-0.244,0.000,0.366,-139.499,18.660,-14.843
7462,-0.3208,-0.6230,-0.7173,0.305,-0.061,0.671,-139.493,18.666,-14.848
7472,-0.3213,-0.6187,-0.7158,0.549,0.122,0.854,-139.488,18.671,-14.854
7482,-0.3188,-0.6162,-0.7158,0.549,0.549,0.916,-139.482,18.671,-14.865
7492,-0.3198,-0.6133,-0.7168,0.366,0.916,0.916,-139.482,18.671,-14.881
7502,-0.3169,-0.6128,-0.7178,0.061,1.160,0.854,-139.488,18.666,-14.892
7512,-0.3115,-0.6104,-0.7227,-0.427,1.160,0.732,-139.499,18.655,-14.908
7522,-0.3101,-0.6040,-0.7251,-0.977,0.977,0.732,-139.521,18.649,-14.919
7532,-0.3086,-0.5962,-0.7275,-1.221,0.793,0.793,-139.548,18.644,-14.930
7542,-0.3101,-0.5942,-0.7305,-1.160,0.793,0.610,-139.576,18.638,-14.941
7552,-0.3101,-0.5889,-0.7300,-0.854,0.732,0.122,-139.603,18.627,-14.947
7562,-0.3105,-0.5918,-0.7266,-0.549,0.366,-0.366,-139.620,18.622,-14.947
7572,-0.3105,-0.6157,-0.7168,-1.587,-0.305,-0.671,-139.631,18.616,-14.941
7582,-0.3130,-0.5845,-0.7261,-5.371,-1.160,-1.282,-139.691,18.616,-14.919
7592,-0.3154,-0.5752,-0.7285,-6.104,-1.160,-1.404,-139.768,18.616,-14.903
7602,-0.3140,-0.5679,-0.7471,-4.700,-0.732,-1.587,-139.839,18.611,-14.886
7612,-0.3193,-0.5796,-0.7422,-1.892,0.122,-2.869,-139.872,18.594,-14.865
7622,-0.3081,-0.5952,-0.7310,1.160,-0.122,-4.578,-139.856,18.561,-14.826
7632,-0.3071,-0.6123,-0.7246,1.831,-1.648,-4.822,-139.823,18.534,-14.777
7642,-0.3086,-0.6250,-0.7129,0.793,-3.052,-4.456,-139.790,18.523,-14.716
7652,-0.3159,-0.6230,-0.7114,-1.282,-3.174,-4.028,-139.774,18.523,-14.667
7662,-0.3193,-0.6221,-0.7139,-2.686,-1.892,-3.784,-139.779,18.512,-14.623
7672,-0.3208,-0.6255,-0.7129,-2.686,-0.244,-3.418,-139.785,18.495,-14.590
7682,-0.3193,-0.6289,-0.7129,-1.892,0.732,-2.991,-139.785,18.474,-14.573
7692,-0.3203,-0.6299,-0.7148,-1.770,0.977,-2.441,-139.785,18.452,-14.557
7702,-0.3218,-0.6260,-0.7173,-2.014,0.854,-1.892,-139.796,18.435,-14.551
7712,-0.3262,-0.6206,-0.7197,-2.197,0.793,-1.465,-139.807,18.424,-14.546
7722,-0.3271,-0.6147,-0.7222,-2.014,0.854,-1.465,-139.823,18.413,-14.540
7732,-0.3257,-0.6152,-0.7236,-1.526,0.977,-1.648,-139.834,18.402,-14.529
7742,-0.3262,-0.6211,-0.7271,-1.099,0.854,-1.953,-139.839,18.386,-14.518
7752,-0.3208,-0.6240,-0.7275,-1.282,0.427,-1.953,-139.845,18.375,-14.507
7762,-0.3228,-0.6235,-0.7266,-1.770,-0.183,-1.770,-139.850,18.364,-14.491
7772,-0.3262,-0.6211,-0.7261,-1.892,-0.732,-1.526,-139.861,18.364,-14.474
7782,-0.3262,-0.6206,-0.7285,-1.282,-1.160,-1.282,-139.867,18.369,-14.458
7792,-0.3237,-0.6245,-0.7256,-0.366,-1.404,-1.160,-139.856,18.375,-14.436
7802,-0.3223,-0.6240,-0.7222,0.610,-1.404,-0.916,-139.839,18.386,-14.420
7812,-0.3198,-0.6274,-0.7139,1.160,-1.404,-0.610,-139.812,18.391,-14.409
7822,-0.3164,-0.6289,-0.7129,1.038,-1.282,-0.305,-139.785,18.402,-14.398
7832,-0.3145,-0.6284,-0.7104,0.549,-1.099,-0.061,-139.763,18.408,-14.387
7842,-0.3164,-0.6245,-0.7090,0.000,-0.732,0.305,-139.752,18.419,-14.387
7852,-0.3174,-0.6206,-0.7109,-0.061,-0.122,0.549,-139.746,18.424,-14.387
7862,-0.3179,-0.6182,-0.7104,0.183,0.549,0.671,-139.741,18.424,-14.398
7872,-0.3159,-0.6157,-0.7178,0.549,1.160,0.549,-139.735,18.419,-14.409
7882,-0.3154,-0.6138,-0.7207,0.610,1.465,0.610,-139.730,18.413,-14.425
7892,-0.3149,-0.6099,-0.7236,0.671,1.404,0.793,-139.730,18.408,-14.442
7902,-0.3169,-0.6040,-0.7271,0.671,1.099,0.854,-139.735,18.408,-14.458
7912,-0.3179,-0.6011,-0.7275,0.793,0.793,0.793,-139.735,18.408,-14.469
7922,-0.3169,-0.6030,-0.7285,0.916,0.427,0.427,-139.735,18.408,-14.474
7932,-0.3154,-0.6050,-0.7275,0.732,0.061,0.122,-139.735,18.408,-14.474
7942,-0.3125,-0.6079,-0.7271,0.366,-0.244,-0.122,-139.735,18.408,-14.474
7952,-0.3115,-0.6084,-0.7256,-0.061,-0.427,-0.122,-139.735,18.408,-14.469
7962,-0.3110,-0.6089,-0.7256,-0.244,-0.549,-0.122,-139.741,18.413,-14.464
7972,-0.3076,-0.6094,-0.7271,-0.061,-0.488,-0.122,-139.741,18.408,-14.458
7982,-0.3110,-0.6108,-0.7271,0.366,-0.183,-0.122,-139.741,18.408,-14.458
7992,-0.3135,-0.6099,-0.7271,0.916,0.427,-0.122,-139.735,18.402,-14.458
8002,-0.3135,-0.6113,-0.7310,1.526,0.977,-0.305,-139.724,18.391,-14.464
8013,-0.3164,-0.6074,-0.7295,1.709,1.282,-0.610,-139.713,18.375,-14.469
8022,-0.3184,-0.6074,-0.7290,1.404,1.282,-0.854,-139.702,18.364,-14.469
8032,-0.3208,-0.6060,-0.7295,0.671,1.038,-0.854,-139.702,18.353,-14.469
8042,-0.3237,-0.6064,-0.7290,0.061,0.610,-0.977,-139.708,18.347,-14.464
8052,-0.3247,-0.6108,-0.7314,-0.427,0.183,-1.160,-139.713,18.342,-14.458
8062,-0.3232,-0.6143,-0.7319,-0.732,-0.244,-1.404,-139.719,18.342,-14.447
8072,-0.3213,-0.6191,-0.7305,-0.793,-0.488,-1.343,-139.724,18.336,-14.431
8082,-0.3203,-0.6270,-0.7314,-0.793,-0.671,-1.160,-139.724,18.336,-14.414
8092,-0.3188,-0.6279,-0.7305,-0.671,-0.977,-0.854,-139.719,18.336,-14.403
8102,-0.3169,-0.6318,-0.7261,-0.549,-1.343,-0.366,-139.713,18.342,-14.392
8112,-0.3184,-0.6279,-0.7231,-0.183,-1.770,0.061,-139.708,18.358,-14.381
8122,-0.3159,-0.6250,-0.7202,0.244,-2.014,0.427,-139.697,18.375,-14.370
8132,-0.3169,-0.6270,-0.7168,0.793,-1.709,0.854,-139.675,18.397,-14.365
8142,-0.3169,-0.6250,-0.7114,1.465,-1.221,0.977,-139.653,18.413,-14.365
8152,-0.3159,-0.6235,-0.7080,1.404,-0.916,1.160,-139.631,18.424,-14.365
8162,-0.3174,-0.6177,-0.7100,1.038,-0.671,1.343,-139.614,18.441,-14.376
8172,-0.3188,-0.6162,-0.7085,0.671,-0.366,1.282,-139.603,18.457,-14.381
8182,-0.3179,-0.6147,-0.7100,0.305,-0.122,1.160,-139.598,18.468,-14.392
8192,-0.3174,-0.6113,-0.7129,0.061,-0.061,1.099,-139.598,18.479,-14.398
8202,-0.3188,-0.6108,-0.7153,0.061,-0.183,1.038,-139.598,18.490,-14.403
8212,-0.3184,-0.6108,-0.7153,0.305,-0.122,0.916,-139.598,18.495,-14.414
8222,-0.3179,-0.6108,-0.7148,0.488,0.061,0.916,-139.592,18.501,-14.420
8232,-0.3164,-0.6123,-0.7173,0.610,0.183,0.977,-139.587,18.506,-14.431
8242,-0.3159,-0.6118,-0.7192,0.610,0.244,1.038,-139.587,18.512,-14.436
8252,-0.3164,-0.6133,-0.7158,0.549,0.122,0.916,-139.581,18.517,-14.447
8262,-0.3149,-0.6147,-0.7158,0.488,0.122,0.671,-139.576,18.523,-14.453
8272,-0.3125,-0.6167,-0.7158,0.244,0.305,0.427,-139.570,18.517,-14.458
8282,-0.3115,-0.6196,-0.7139,-0.183,0.366,0.305,-139.570,18.517,-14.464
8292,-0.3135,-0.6187,-0.7173,-0.488,0.488,0.366,-139.576,18.512,-14.469
8302,-0.3159,-0.6182,-0.7173,-0.610,0.671,0.610,-139.581,18.512,-14.480
8312,-0.3179,-0.6157,-0.7202,-0.366,0.977,0.854,-139.587,18.512,-14.491
8322,-0.3198,-0.6152,-0.7202,0.000,1.221,1.099,-139.592,18.506,-14.507
8332,-0.3198,-0.6123,-0.7202,0.305,1.404,1.160,-139.592,18.506,-14.529
8342,-0.3184,-0.6099,-0.7236,0.549,1.404,1.099,-139.598,18.506,-14.546
8352,-0.3184,-0.6079,-0.7241,0.488,1.099,0.977,-139.603,18.506,-14.562
8362,-0.3198,-0.6060,-0.7231,0.366,0.671,0.854,-139.603,18.506,-14.573
8372,-0.3184,-0.6060,-0.7246,0.244,0.427,0.671,-139.609,18.506,-14.584
8382,-0.3188,-0.6069,-0.7241,0.183,0.244,0.427,-139.614,18.512,-14.590
8392,-0.3174,-0.6089,-0.7231,0.122,0.183,0.305,-139.620,18.512,-14.590
8402,-0.3169,-0.6104,-0.7236,0.061,0.244,0.183,-139.620,18.512,-14.595
8412,-0.3149,-0.6104,-0.7241,0.061,0.305,0.122,-139.625,18.506,-14.595
8422,-0.3149,-0.6079,-0.7246,0.305,0.305,0.183,-139.625,18.506,-14.601
8432,-0.3169,-0.6094,-0.7241,0.671,0.488,0.122,-139.620,18.506,-14.606
8442,-0.3203,-0.6069,-0.7231,1.099,0.732,-0.122,-139.614,18.501,-14.612
8452,-0.3169,-0.6064,-0.7212,1.282,0.916,-0.427,-139.609,18.490,-14.612
8462,-0.3145,-0.6089,-0.7227,0.977,0.916,-0.671,-139.603,18.479,-14.612
8472,-0.3130,-0.6089,-0.7246,0.305,0.916,-0.854,-139.603,18.468,-14.612
8482,-0.3120,-0.6104,-0.7266,-0.244,0.916,-0.854,-139.609,18.452,-14.612
8492,-0.3125,-0.6099,-0.7285,-0.549,0.916,-0.793,-139.620,18.435,-14.612
8502,-0.3145,-0.6089,-0.7285,-0.366,0.793,-0.793,-139.625,18.424,-14.612
8513,-0.3184,-0.6133,-0.7271,0.000,0.732,-0.793,-139.625,18.413,-14.612
8522,-0.3164,-0.6157,-0.7251,0.122,0.732,-0.671,-139.625,18.402,-14.606
8532,-0.3154,-0.6162,-0.7290,-0.305,0.671,-0.427,-139.631,18.397,-14.612
8542,-0.3169,-0.6191,-0.7290,-1.038,0.610,-0.183,-139.642,18.391,-14.612
8552,-0.3174,-0.6182,-0.7310,-1.770,0.427,-0.122,-139.664,18.386,-14.612
8562,-0.3164,-0.6167,-0.7319,-2.502,0.244,0.000,-139.691,18.380,-14.617
8572,-0.3154,-0.6128,-0.7324,-2.625,0.061,0.061,-139.719,18.380,-14.617
8582,-0.3145,-0.6128,-0.7285,-2.258,0.000,-0.061,-139.746,18.380,-14.617
8592,-0.3164,-0.6128,-0.7280,-1.831,0.000,-0.244,-139.763,18.380,-14.617
8602,-0.3140,-0.6147,-0.7271,-1.587,-0.122,-0.427,-139.779,18.375,-14.612
8612,-0.3125,-0.6147,-0.7271,-1.831,-0.305,-0.549,-139.796,18.369,-14.606
8622,-0.3130,-0.6094,-0.7285,-2.319,-0.427,-0.549,-139.818,18.369,-14.595
8632,-0.3179,-0.6069,-0.7261,-2.502,-0.610,-0.610,-139.845,18.375,-14.590
8642,-0.3179,-0.6064,-0.7202,-2.197,-0.793,-0.732,-139.861,18.375,-14.579
8652,-0.3223,-0.6074,-0.7119,-1.526,-0.977,-0.916,-139.867,18.386,-14.562
8662,-0.3242,-0.6089,-0.7070,-0.793,-1.099,-0.916,-139.867,18.397,-14.546
8672,-0.3262,-0.6113,-0.7017,-0.305,-0.916,-0.793,-139.856,18.408,-14.535
8682,-0.3252,-0.6157,-0.7007,-0.244,-0.488,-0.671,-139.845,18.413,-14.524
8692,-0.3228,-0.6177,-0.7002,-0.610,0.183,-0.366,-139.834,18.419,-14.524
8702,-0.3169,-0.6187,-0.7031,-1.099,0.854,0.061,-139.839,18.413,-14.529
8712,-0.3145,-0.6182,-0.7095,-1.465,1.221,0.427,-139.845,18.408,-14.540
8722,-0.3105,-0.6167,-0.7212,-1.343,1.343,0.671,-139.861,18.397,-14.557
8732,-0.3062,-0.6133,-0.7280,-0.671,1.160,0.854,-139.872,18.391,-14.573
8742,-0.3076,-0.6094,-0.7324,0.549,0.610,0.854,-139.872,18.386,-14.584
8752,-0.3130,-0.6064,-0.7354,1.892,0.000,0.671,-139.861,18.386,-14.590
8762,-0.3228,-0.6074,-0.7349,2.991,-0.305,0.488,-139.839,18.397,-14.590
8772,-0.3325,-0.6074,-0.7354,3.479,-0.305,0.366,-139.812,18.408,-14.590
8782,-0.3350,-0.6113,-0.7334,3.235,-0.061,0.244,-139.785,18.419,-14.590
8792,-0.3374,-0.6133,-0.7378,2.136,0.061,0.183,-139.768,18.430,-14.595
8802,-0.3345,-0.6152,-0.7378,0.671,-0.061,0.244,-139.768,18.441,-14.595
8812,-0.3330,-0.6177,-0.7441,-0.610,-0.061,0.305,-139.779,18.446,-14.595
8822,-0.3350,-0.6162,-0.7456,-1.404,-0.061,0.305,-139.801,18.457,-14.601
8832,-0.3315,-0.6187,-0.7451,-1.526,0.183,0.549,-139.823,18.463,-14.606
8842,-0.3247,-0.6250,-0.7466,-1.160,0.183,0.732,-139.834,18.468,-14.612
8852,-0.3159,-0.6274,-0.7456,-1.038,-0.305,0.916,-139.850,18.468,-14.617
8862,-0.3076,-0.6304,-0.7466,-1.160,-1.160,1.160,-139.861,18.479,-14.617
8872,-0.3037,-0.6260,-0.7432,-1.099,-2.075,1.465,-139.872,18.490,-14.617
8882,-0.3013,-0.6221,-0.7422,-0.549,-2.808,1.648,-139.878,18.512,-14.612
8892,-0.2998,-0.6187,-0.7358,0.366,-3.174,1.770,-139.872,18.534,-14.606
8902,-0.3003,-0.6157,-0.7310,1.526,-3.418,1.648,-139.856,18.561,-14.595
8912,-0.2993,-0.6113,-0.7256,2.380,-3.967,1.465,-139.823,18.589,-14.579
8922,-0.2993,-0.6040,-0.7168,2.747,-4.578,1.343,-139.790,18.622,-14.557
8932,-0.3052,-0.6001,-0.7065,2.808,-5.188,1.160,-139.757,18.666,-14.535
8942,-0.3115,-0.5952,-0.6968,2.808,-5.371,0.854,-139.713,18.710,-14.502
8952,-0.3159,-0.5923,-0.6860,2.441,-4.700,0.427,-139.675,18.754,-14.474
8962,-0.3188,-0.5918,-0.6777,1.953,-3.601,-0.061,-139.642,18.792,-14.447
8972,-0.3237,-0.5928,-0.6743,1.282,-2.441,-0.488,-139.614,18.814,-14.431
8982,-0.3286,-0.5937,-0.6748,0.183,-1.160,-0.854,-139.598,18.831,-14.414
8992,-0.3306,-0.5962,-0.6763,-0.854,0.000,-1.038,-139.592,18.836,-14.403
9002,-0.3335,-0.6035,-0.6787,-1.770,1.099,-1.221,-139.598,18.836,-14.403
9013,-0.3335,-0.6113,-0.6909,-2.563,2.136,-1.404,-139.614,18.820,-14.409
9022,-0.3291,-0.6167,-0.7012,-3.357,3.174,-1.404,-139.636,18.792,-14.420
9032,-0.3232,-0.6245,-0.7119,-3.845,3.845,-1.282,-139.675,18.759,-14.431
9042,-0.3188,-0.6274,-0.7236,-3.906,3.845,-0.977,-139.713,18.715,-14.453
9052,-0.3198,-0.6299,-0.7344,-3.235,3.357,-0.549,-139.746,18.682,-14.469
9062,-0.3208,-0.6294,-0.7397,-1.831,2.625,-0.122,-139.768,18.660,-14.485
9072,-0.3228,-0.6265,-0.7397,0.000,1.770,0.122,-139.774,18.644,-14.502
9082,-0.3257,-0.6245,-0.7388,1.648,1.160,0.305,-139.757,18.638,-14.507
9092,-0.3232,-0.6245,-0.7339,2.502,0.671,0.549,-139.735,18.633,-14.518
9102,-0.3237,-0.6221,-0.7319,2.563,0.427,0.732,-139.713,18.638,-14.529
9112,-0.3247,-0.6191,-0.7305,2.014,0.305,0.916,-139.697,18.644,-14.535
9122,-0.3252,-0.6167,-0.7314,1.404,0.244,1.038,-139.686,18.649,-14.546
9132,-0.3267,-0.6157,-0.7295,0.916,0.244,1.160,-139.680,18.655,-14.557
9142,-0.3262,-0.6118,-0.7319,0.732,0.305,1.221,-139.680,18.666,-14.568
9152,-0.3228,-0.6118,-0.7329,0.732,0.488,1.282,-139.686,18.666,-14.584
9163,-0.3193,-0.6084,-0.7339,0.671,0.549,1.404,-139.691,18.671,-14.601
9172,-0.3198,-0.6084,-0.7363,0.488,0.610,1.465,-139.697,18.677,-14.617
9182,-0.3193,-0.6050,-0.7363,0.305,0.549,1.465,-139.708,18.677,-14.628
9192,-0.3184,-0.6016,-0.7349,0.183,0.183,1.343,-139.719,18.682,-14.645
9202,-0.3184,-0.5991,-0.7324,0.122,-0.427,1.099,-139.730,18.693,-14.650
9212,-0.3179,-0.5981,-0.7290,0.366,-1.099,0.732,-139.735,18.704,-14.645
9222,-0.3164,-0.5996,-0.7280,0.610,-1.709,0.305,-139.735,18.721,-14.639
9232,-0.3140,-0.6025,-0.7227,0.916,-2.258,-0.183,-139.724,18.732,-14.623
9242,-0.3140,-0.6055,-0.7178,1.099,-2.563,-0.488,-139.708,18.748,-14.601
9252,-0.3115,-0.6099,-0.7114,1.221,-2.686,-0.671,-139.686,18.759,-14.573
9262,-0.3130,-0.6133,-0.7056,1.160,-2.441,-0.671,-139.658,18.770,-14.551
9272,-0.3120,-0.6162,-0.6978,0.916,-1.892,-0.488,-139.636,18.781,-14.535
9282,-0.3149,-0.6147,-0.6987,0.671,-0.977,-0.183,-139.614,18.787,-14.529
9292,-0.3188,-0.6099,-0.7017,0.366,0.061,0.122,-139.603,18.787,-14.529
9302,-0.3242,-0.6064,-0.7041,0.122,1.099,0.305,-139.603,18.787,-14.540
9312,-0.3252,-0.6035,-0.7061,-0.183,1.831,0.244,-139.609,18.776,-14.557
9322,-0.3262,-0.6001,-0.7129,-0.610,2.258,0.061,-139.625,18.765,-14.568
9332,-0.3271,-0.6006,-0.7163,-1.160,2.258,-0.183,-139.642,18.754,-14.584
9342,-0.3252,-0.6011,-0.7231,-1.526,1.892,-0.549,-139.669,18.737,-14.595
9352,-0.3247,-0.6050,-0.7256,-1.709,1.282,-1.038,-139.691,18.726,-14.595
9362,-0.3247,-0.6104,-0.7280,-1.587,0.793,-1.343,-139.708,18.710,-14.590
9372,-0.3232,-0.6143,-0.7266,-1.282,0.427,-1.465,-139.719,18.699,-14.579
9382,-0.3232,-0.6172,-0.7246,-0.916,0.244,-1.526,-139.719,18.688,-14.568
9392,-0.3232,-0.6230,-0.7231,-0.610,0.244,-1.404,-139.719,18.677,-14.557
9402,-0.3218,-0.6274,-0.7231,-0.488,0.183,-1.221,-139.713,18.666,-14.551
9412,-0.3223,-0.6304,-0.7236,-0.305,0.244,-0.488,-139.708,18.660,-14.546
9422,-0.3232,-0.6284,-0.7231,-0.122,0.305,-0.183,-139.702,18.660,-14.546
9432,-0.3232,-0.6255,-0.7231,0.061,0.305,0.183,-139.697,18.655,-14.551
9442,-0.3223,-0.6260,-0.7236,0.366,0.305,0.549,-139.691,18.660,-14.557
9452,-0.3223,-0.6230,-0.7246,0.488,0.427,0.671,-139.686,18.660,-14.568
9462,-0.3237,-0.6162,-0.7246,0.549,0.427,0.793,-139.680,18.660,-14.579
9472,-0.3232,-0.6123,-0.7246,0.549,0.366,0.854,-139.680,18.666,-14.584
9482,-0.3252,-0.6074,-0.7251,0.610,0.183,0.916,-139.680,18.671,-14.595
9492,-0.3267,-0.6050,-0.7231,0.610,-0.061,0.793,-139.680,18.682,-14.601
9502,-0.3252,-0.6045,-0.7261,0.488,-0.305,0.671,-139.680,18.693,-14.601
9513,-0.3252,-0.6074,-0.7246,0.183,-0.427,0.366,-139.686,18.704,-14.601
9522,-0.3213,-0.6069,-0.7246,-0.244,-0.488,0.244,-139.691,18.710,-14.601
9532,-0.3198,-0.6055,-0.7256,-0.366,-0.427,0.183,-139.697,18.710,-14.601
9542,-0.3184,-0.6099,-0.7197,0.061,-0.183,0.244,-139.697,18.715,-14.601
9552,-0.3140,-0.6118,-0.7217,0.549,-0.061,0.244,-139.691,18.715,-14.601
9562,-0.3120,-0.6108,-0.7178,0.671,-0.061,0.305,-139.686,18.710,-14.606
9572,-0.3130,-0.6118,-0.7153,0.427,-0.244,0.366,-139.680,18.715,-14.606
9582,-0.3159,-0.6094,-0.7163,0.122,-0.488,0.366,-139.680,18.715,-14.606
9592,-0.3174,-0.6045,-0.7153,0.061,-0.427,0.183,-139.680,18.721,-14.606
9602,-0.3223,-0.6030,-0.7090,0.122,-0.183,0.061,-139.675,18.726,-14.606
9612,-0.3237,-0.6060,-0.7095,0.183,0.305,-0.061,-139.675,18.726,-14.606
9622,-0.3218,-0.6104,-0.7100,-0.244,0.732,-0.244,-139.675,18.726,-14.606
9632,-0.3188,-0.6108,-0.7148,-0.977,0.916,-0.244,-139.680,18.715,-14.612
9642,-0.3174,-0.6084,-0.7183,-1.709,0.916,-0.183,-139.702,18.704,-14.617
9652,-0.3188,-0.6045,-0.7246,-1.953,0.732,-0.061,-139.724,18.699,-14.623
9662,-0.3208,-0.6035,-0.7285,-1.221,0.427,-0.122,-139.746,18.699,-14.623
9672,-0.3223,-0.6030,-0.7227,-0.061,0.061,-0.305,-139.752,18.699,-14.623
9682,-0.3252,-0.6045,-0.7212,0.854,-0.427,-0.549,-139.741,18.699,-14.612
9692,-0.3232,-0.6074,-0.7153,1.404,-0.854,-0.732,-139.724,18.704,-14.601
9702,-0.3228,-0.6089,-0.7144,1.282,-1.160,-0.916,-139.702,18.710,-14.590
9712,-0.3208,-0.6094,-0.7080,0.671,-1.221,-1.099,-139.686,18.715,-14.568
9722,-0.3218,-0.6089,-0.7095,0.183,-0.854,-1.160,-139.675,18.715,-14.557
9732,-0.3213,-0.6138,-0.7095,-0.183,-0.183,-1.221,-139.669,18.710,-14.546
9742,-0.3208,-0.6177,-0.7109,-0.305,0.488,-1.160,-139.664,18.704,-14.540
9752,-0.3218,-0.6216,-0.7124,-0.427,0.916,-0.977,-139.658,18.688,-14.535
9762,-0.3218,-0.6270,-0.7153,-0.549,1.221,-0.793,-139.658,18.677,-14.540
9772,-0.3203,-0.6284,-0.7197,-0.916,1.404,-0.488,-139.658,18.660,-14.546
9782,-0.3193,-0.6250,-0.7241,-1.160,1.526,-0.122,-139.669,18.644,-14.551
9792,-0.3188,-0.6216,-0.7275,-1.221,1.648,0.183,-139.686,18.633,-14.568
9802,-0.3174,-0.6172,-0.7319,-0.916,1.587,0.427,-139.702,18.622,-14.579
9812,-0.3179,-0.6123,-0.7305,-0.366,1.343,0.488,-139.713,18.611,-14.595
9822,-0.3208,-0.6099,-0.7295,0.122,1.038,0.488,-139.719,18.605,-14.606
9833,-0.3232,-0.6079,-0.7280,0.427,0.793,0.427,-139.719,18.605,-14.612
9843,-0.3232,-0.6089,-0.7246,0.610,0.793,0.244,-139.719,18.605,-14.623
9853,-0.3242,-0.6104,-0.7236,0.610,0.854,0.061,-139.719,18.600,-14.628
9863,-0.3228,-0.6147,-0.7231,0.183,0.854,-0.061,-139.713,18.594,-14.634
9873,-0.3198,-0.6138,-0.7246,-0.488,0.793,-0.061,-139.724,18.589,-14.639
9883,-0.3193,-0.6128,-0.7256,-1.221,0.610,0.122,-139.735,18.589,-14.645
9893,-0.3193,-0.6108,-0.7280,-1.282,0.549,0.244,-139.752,18.583,-14.650
9903,-0.3208,-0.6099,-0.7305,-0.977,0.366,0.305,-139.768,18.583,-14.656
9913,-0.3208,-0.6084,-0.7295,-0.305,0.305,0.305,-139.779,18.583,-14.656
9923,-0.3198,-0.6099,-0.7290,0.244,0.183,0.244,-139.779,18.583,-14.661
9933,-0.3188,-0.6084,-0.7280,0.366,-0.061,0.244,-139.779,18.583,-14.661
9943,-0.3188,-0.6089,-0.7280,0.244,-0.366,0.183,-139.779,18.589,-14.661
9952,-0.3184,-0.6060,-0.7280,-0.061,-0.671,0.000,-139.785,18.594,-14.656
9963,-0.3188,-0.6060,-0.7261,-0.305,-0.854,-0.122,-139.785,18.600,-14.650
9973,-0.3188,-0.6050,-0.7241,-0.427,-0.977,-0.244,-139.790,18.605,-14.639
9983,-0.3179,-0.6030,-0.7241,-0.366,-1.099,-0.427,-139.796,18.611,-14.628
9993,-0.3184,-0.6060,-0.7192,-0.061,-1.221,-0.610,-139.796,18.622,-14.617
10003,-0.3198,-0.6079,-0.7173,0.183,-1.221,-0.793,-139.785,18.627,-14.601
10013,-0.3174,-0.6113,-0.7153,0.183,-0.977,-0.916,-139.779,18.627,-14.590
10023,-0.3188,-0.6133,-0.7134,-0.366,-0.488,-0.854,-139.774,18.627,-14.579
10033,-0.3149,-0.6157,-0.7134,-0.854,-0.061,-0.732,-139.774,18.622,-14.573
10043,-0.3179,-0.6147,-0.7168,-1.160,0.061,-0.671,-139.779,18.616,-14.568
10053,-0.3198,-0.6133,-0.7187,-1.160,0.000,-0.488,-139.790,18.616,-14.562
10063,-0.3223,-0.6113,-0.7207,-0.916,0.122,-0.305,-139.796,18.611,-14.562
10073,-0.3232,-0.6118,-0.7236,-0.427,0.366,-0.244,-139.801,18.611,-14.562
10083,-0.3232,-0.6094,-0.7222,-0.122,0.549,-0.305,-139.801,18.605,-14.562
10093,-0.3223,-0.6089,-0.7261,-0.122,0.488,-0.427,-139.807,18.605,-14.562
10103,-0.3208,-0.6099,-0.7261,-0.305,0.183,-0.488,-139.807,18.600,-14.562
10113,-0.3213,-0.6113,-0.7275,-0.610,-0.427,-0.610,-139.812,18.600,-14.551
10123,-0.3223,-0.6094,-0.7256,-0.671,-0.916,-0.671,-139.818,18.605,-14.540
10133,-0.3223,-0.6113,-0.7246,-0.427,-1.221,-0.671,-139.818,18.611,-14.529
10143,-0.3223,-0.6123,-0.7207,0.061,-1.282,-0.732,-139.812,18.616,-14.513
10153,-0.3213,-0.6123,-0.7178,0.488,-1.160,-0.732,-139.801,18.622,-14.496
10163,-0.3208,-0.6157,-0.7124,0.610,-0.854,-0.671,-139.785,18.627,-14.485
10173,-0.3188,-0.6182,-0.7114,0.305,-0.549,-0.671,-139.768,18.627,-14.480
10183,-0.3203,-0.6187,-0.7134,-0.305,-0.305,-0.549,-139.763,18.627,-14.474
10193,-0.3179,-0.6201,-0.7183,-0.977,0.061,-0.366,-139.768,18.622,-14.469
10203,-0.3188,-0.6187,-0.7227,-1.465,0.305,-0.183,-139.779,18.622,-14.469
10213,-0.3198,-0.6147,-0.7246,-1.465,0.549,-0.061,-139.790,18.616,-14.474
10223,-0.3193,-0.6128,-0.7266,-0.916,0.671,0.122,-139.807,18.611,-14.480
10233,-0.3223,-0.6147,-0.7261,-0.183,0.610,0.122,-139.807,18.605,-14.485
10243,-0.3203,-0.6099,-0.7300,0.244,0.366,0.183,-139.807,18.605,-14.485
10253,-0.3218,-0.6099,-0.7300,0.488,-0.122,0.183,-139.807,18.611,-14.491
10263,-0.3232,-0.6064,-0.7285,0.671,-0.671,0.183,-139.807,18.616,-14.485
10273,-0.3237,-0.6074,-0.7256,0.793,-1.160,-0.061,-139.796,18.627,-14.474
10283,-0.3247,-0.6084,-0.7197,0.793,-1.404,-0.244,-139.785,18.644,-14.464
10293,-0.3203,-0.6094,-0.7173,0.610,-1.343,-0.427,-139.774,18.649,-14.453
10303,-0.3193,-0.6128,-0.7139,0.305,-1.160,-0.427,-139.763,18.655,-14.442
10313,-0.3203,-0.6147,-0.7153,0.183,-0.854,-0.427,-139.752,18.660,-14.431
10323,-0.3193,-0.6157,-0.7139,0.000,-0.488,-0.366,-139.746,18.666,-14.425
10333,-0.3184,-0.6172,-0.7153,0.000,-0.061,-0.183,-139.741,18.660,-14.425
10343,-0.3184,-0.6187,-0.7158,0.000,0.305,0.000,-139.735,18.660,-14.425
10353,-0.3184,-0.6143,-0.7192,-0.122,0.549,0.244,-139.735,18.655,-14.431
10363,-0.3193,-0.6147,-0.7222,-0.183,0.732,0.427,-139.741,18.655,-14.442
10373,-0.3208,-0.6108,-0.7261,-0.244,0.793,0.488,-139.746,18.649,-14.447
10383,-0.3198,-0.6084,-0.7266,-0.366,0.671,0.488,-139.757,18.649,-14.458
10393,-0.3198,-0.6050,-0.7305,-0.366,0.549,0.549,-139.768,18.649,-14.469
10403,-0.3218,-0.6021,-0.7319,-0.061,0.122,0.366,-139.779,18.649,-14.469
10413,-0.3198,-0.6035,-0.7295,0.305,-0.427,0.122,-139.779,18.655,-14.469
10423,-0.3218,-0.6045,-0.7285,0.549,-0.854,-0.122,-139.779,18.660,-14.464
10433,-0.3198,-0.6055,-0.7246,0.671,-1.221,-0.366,-139.768,18.671,-14.453
10443,-0.3203,-0.6055,-0.7212,0.549,-1.465,-0.488,-139.763,18.677,-14.436
10453,-0.3208,-0.6079,-0.7207,0.427,-1.526,-0.610,-139.757,18.688,-14.420
10463,-0.3203,-0.6118,-0.7183,0.427,-1.465,-0.732,-139.746,18.693,-14.403
10473,-0.3193,-0.6113,-0.7163,0.244,-1.160,-0.793,-139.735,18.699,-14.392
10483,-0.3203,-0.6138,-0.7134,0.000,-0.671,-0.732,-139.724,18.699,-14.381
10493,-0.3208,-0.6133,-0.7158,-0.244,-0.244,-0.610,-139.724,18.699,-14.376
10503,-0.3218,-0.6104,-0.7173,-0.488,0.183,-0.488,-139.724,18.693,-14.370
10513,-0.3242,-0.6113,-0.7207,-0.732,0.549,-0.366,-139.735,18.693,-14.370
10523,-0.3232,-0.6089,-0.7227,-0.854,0.671,-0.366,-139.746,18.688,-14.376
10533,-0.3242,-0.6099,-0.7241,-0.977,0.793,-0.427,-139.757,18.682,-14.376
10543,-0.3237,-0.6118,-0.7256,-1.038,0.671,-0.610,-139.768,18.671,-14.376
10553,-0.3223,-0.6118,-0.7261,-0.977,0.305,-0.732,-139.779,18.666,-14.370
10563,-0.3213,-0.6128,-0.7256,-0.916,-0.183,-0.854,-139.785,18.660,-14.365
10573,-0.3218,-0.6138,-0.7275,-0.549,-0.671,-0.854,-139.785,18.660,-14.354
10583,-0.3223,-0.6182,-0.7256,0.000,-0.977,-0.732,-139.779,18.666,-14.337
10593,-0.3208,-0.6177,-0.7207,0.549,-1.160,-0.488,-139.768,18.671,-14.326
10603,-0.3213,-0.6177,-0.7158,0.916,-1.160,-0.366,-139.746,18.677,-14.315
10613,-0.3208,-0.6187,-0.7148,1.038,-0.977,-0.244,-139.730,18.682,-14.310
10623,-0.3223,-0.6162,-0.7114,0.732,-0.671,-0.183,-139.713,18.693,-14.304
10633,-0.3223,-0.6162,-0.7124,0.305,-0.366,-0.061,-139.702,18.693,-14.299
10643,-0.3232,-0.6143,-0.7139,-0.061,-0.061,0.061,-139.702,18.699,-14.299
10653,-0.3232,-0.6152,-0.7119,-0.305,0.244,0.061,-139.697,18.699,-14.299
10663,-0.3232,-0.6172,-0.7168,-0.366,0.610,0.000,-139.702,18.699,-14.304
10673,-0.3232,-0.6191,-0.7192,-0.549,0.977,0.000,-139.702,18.693,-14.310
10683,-0.3213,-0.6187,-0.7183,-0.610,1.099,0.061,-139.708,18.682,-14.321
10693,-0.3208,-0.6143,-0.7217,-0.610,1.099,0.244,-139.713,18.677,-14.332
10703,-0.3237,-0.6113,-0.7222,-0.427,1.038,0.427,-139.724,18.671,-14.337
10713,-0.3247,-0.6094,-0.7207,0.061,0.854,0.427,-139.724,18.671,-14.348
10723,-0.3257,-0.6074,-0.7197,0.427,0.732,0.305,-139.724,18.671,-14.359
10733,-0.3271,-0.6060,-0.7173,0.610,0.610,0.244,-139.724,18.677,-14.365
10743,-0.3271,-0.6084,-0.7153,0.488,0.671,0.000,-139.719,18.677,-14.365
10753,-0.3252,-0.6108,-0.7187,0.061,0.671,-0.183,-139.719,18.671,-14.365
10763,-0.3218,-0.6152,-0.7202,-0.488,0.732,-0.244,-139.719,18.666,-14.365
10773,-0.3198,-0.6143,-0.7236,-0.977,0.793,-0.183,-139.730,18.660,-14.365
10783,-0.3184,-0.6152,-0.7246,-1.099,0.671,0.000,-139.741,18.655,-14.365
10793,-0.3174,-0.6152,-0.7275,-0.671,0.549,0.122,-139.752,18.649,-14.365
10803,-0.3149,-0.6162,-0.7251,-0.061,0.366,0.244,-139.752,18.644,-14.365
10813,-0.3135,-0.6177,-0.7251,0.549,0.305,0.366,-139.746,18.638,-14.365
10823,-0.3115,-0.6187,-0.7275,0.732,0.366,0.488,-139.741,18.633,-14.365
10833,-0.3105,-0.6147,-0.7275,0.610,0.427,0.732,-139.735,18.627,-14.365
10843,-0.3135,-0.6099,-0.7280,0.366,0.427,0.977,-139.741,18.627,-14.365
10853,-0.3169,-0.6060,-0.7305,0.366,0.305,1.038,-139.746,18.633,-14.376
10863,-0.3203,-0.6001,-0.7280,0.732,0.122,0.977,-139.746,18.638,-14.381
10873,-0.3237,-0.5991,-0.7266,1.099,0.061,0.732,-139.746,18.644,-14.387
10883,-0.3242,-0.5981,-0.7241,1.160,0.000,0.366,-139.741,18.649,-14.392
10893,-0.3237,-0.6001,-0.7222,0.854,0.061,0.000,-139.741,18.655,-14.392
10903,-0.3232,-0.5996,-0.7241,0.244,0.122,-0.366,-139.746,18.655,-14.387
10913,-0.3247,-0.6001,-0.7280,-0.366,0.000,-0.671,-139.752,18.655,-14.387
10923,-0.3242,-0.6001,-0.7280,-0.854,-0.061,-0.854,-139.768,18.649,-14.376
10933,-0.3242,-0.6021,-0.7275,-1.038,-0.244,-1.038,-139.779,18.649,-14.365
10943,-0.3237,-0.6050,-0.7280,-0.916,-0.427,-1.282,-139.790,18.649,-14.354
10953,-0.3213,-0.6113,-0.7266,-0.732,-0.610,-1.465,-139.796,18.644,-14.337
10963,-0.3179,-0.6152,-0.7266,-0.610,-0.671,-1.465,-139.796,18.638,-14.321
10973,-0.3164,-0.6172,-0.7246,-0.549,-0.671,-1.465,-139.790,18.633,-14.304
10983,-0.3164,-0.6196,-0.7251,-0.610,-0.793,-1.282,-139.790,18.627,-14.288
10993,-0.3164,-0.6201,-0.7212,-0.488,-0.977,-0.977,-139.785,18.622,-14.277
11003,-0.3198,-0.6211,-0.7222,-0.183,-1.160,-0.732,-139.779,18.627,-14.260
11013,-0.3179,-0.6206,-0.7173,0.122,-1.099,-0.549,-139.768,18.633,-14.249
11023,-0.3208,-0.6196,-0.7153,0.366,-1.038,-0.366,-139.752,18.638,-14.238
11033,-0.3223,-0.6206,-0.7163,0.488,-0.854,-0.183,-139.741,18.644,-14.233
11043,-0.3228,-0.6172,-0.7144,0.549,-0.610,-0.061,-139.724,18.649,-14.227
11053,-0.3257,-0.6172,-0.7153,0.549,-0.427,0.000,-139.713,18.660,-14.222
11063,-0.3247,-0.6167,-0.7168,0.305,-0.183,0.122,-139.708,18.666,-14.222
11073,-0.3242,-0.6177,-0.7173,-0.061,0.061,0.244,-139.702,18.666,-14.227
11083,-0.3237,-0.6152,-0.7192,-0.305,0.183,0.305,-139.708,18.671,-14.227
11093,-0.3232,-0.6123,-0.7217,-0.305,0.122,0.305,-139.708,18.671,-14.233
11103,-0.3247,-0.6113,-0.7236,0.122,-0.244,0.305,-139.708,18.677,-14.233
11113,-0.3232,-0.6108,-0.7212,0.610,-0.610,0.244,-139.702,18.688,-14.233
11123,-0.3223,-0.6104,-0.7197,1.038,-0.854,0.183,-139.691,18.699,-14.227
11133,-0.3232,-0.6128,-0.7168,1.099,-0.977,0.122,-139.675,18.704,-14.222
11143,-0.3252,-0.6118,-0.7148,0.854,-0.732,0.061,-139.664,18.715,-14.216
11153,-0.3228,-0.6123,-0.7144,0.488,-0.488,0.061,-139.658,18.721,-14.216
11164,-0.3232,-0.6113,-0.7144,0.183,-0.183,0.000,-139.653,18.726,-14.211
11173,-0.3203,-0.6108,-0.7163,0.000,0.122,0.000,-139.653,18.726,-14.216
11183,-0.3193,-0.6133,-0.7153,-0.122,0.366,0.000,-139.653,18.726,-14.216
11193,-0.3188,-0.6152,-0.7168,-0.244,0.488,0.061,-139.653,18.721,-14.222
11203,-0.3193,-0.6143,-0.7212,-0.427,0.671,0.122,-139.658,18.715,-14.227
11213,-0.3193,-0.6152,-0.7227,-0.488,0.793,0.122,-139.664,18.710,-14.233
11223,-0.3193,-0.6138,-0.7236,-0.427,0.793,0.061,-139.669,18.699,-14.238
11233,-0.3193,-0.6138,-0.7261,-0.244,0.671,0.122,-139.675,18.693,-14.244
11243,-0.3193,-0.6138,-0.7266,-0.183,0.488,0.183,-139.680,18.693,-14.249
11253,-0.3203,-0.6099,-0.7280,-0.122,0.305,0.244,-139.686,18.693,-14.255
11263,-0.3213,-0.6089,-0.7266,-0.122,0.122,0.305,-139.691,18.693,-14.255
11273,-0.3213,-0.6108,-0.7246,0.000,0.000,0.305,-139.691,18.693,-14.260
11283,-0.3218,-0.6113,-0.7236,0.183,-0.122,0.305,-139.691,18.699,-14.260
11293,-0.3208,-0.6099,-0.7251,0.244,-0.122,0.244,-139.691,18.699,-14.260
11303,-0.3228,-0.6084,-0.7217,0.244,-0.122,0.122,-139.691,18.704,-14.260
11313,-0.3208,-0.6113,-0.7227,0.183,-0.305,0.000,-139.691,18.704,-14.260
11323,-0.3223,-0.6123,-0.7197,0.000,-0.366,-0.061,-139.691,18.710,-14.255
11333,-0.3208,-0.6113,-0.7183,-0.305,-0.244,0.000,-139.691,18.715,-14.255
11343,-0.3203,-0.6138,-0.7212,-0.549,0.000,0.000,-139.697,18.715,-14.255
11353,-0.3203,-0.6143,-0.7246,-0.610,0.183,0.061,-139.702,18.710,-14.255
11363,-0.3203,-0.6113,-0.7246,-0.488,0.244,0.122,-139.708,18.710,-14.260
11373,-0.3208,-0.6113,-0.7275,-0.122,0.183,0.244,-139.713,18.710,-14.260
11383,-0.3237,-0.6064,-0.7202,0.244,0.000,0.183,-139.713,18.715,-14.266
11393,-0.3252,-0.6099,-0.7212,0.488,-0.061,0.061,-139.708,18.715,-14.266
11403,-0.3257,-0.6128,-0.7187,0.244,-0.122,-0.061,-139.708,18.721,-14.260
11413,-0.3242,-0.6113,-0.7217,-0.244,-0.122,-0.122,-139.708,18.721,-14.260
11423,-0.3223,-0.6128,-0.7227,-0.732,-0.122,-0.061,-139.713,18.721,-14.260
11433,-0.3232,-0.6113,-0.7246,-0.854,-0.183,0.000,-139.724,18.726,-14.260
11443,-0.3218,-0.6079,-0.7261,-0.549,-0.244,0.061,-139.730,18.726,-14.255
11453,-0.3232,-0.6108,-0.7236,-0.061,-0.366,0.061,-139.735,18.732,-14.255
11463,-0.3208,-0.6113,-0.7212,0.488,-0.549,0.061,-139.724,18.737,-14.249
11473,-0.3208,-0.6138,-0.7183,0.671,-0.671,0.000,-139.719,18.743,-14.249
11483,-0.3213,-0.6123,-0.7158,0.610,-0.732,0.061,-139.708,18.748,-14.244
11493,-0.3213,-0.6113,-0.7134,0.366,-0.610,0.061,-139.697,18.754,-14.238
11503,-0.3223,-0.6113,-0.7144,0.122,-0.305,0.061,-139.697,18.759,-14.238
11514,-0.3213,-0.6104,-0.7158,0.000,-0.122,0.061,-139.691,18.765,-14.238
11523,-0.3232,-0.6089,-0.7183,0.000,0.122,0.122,-139.691,18.765,-14.238
11533,-0.3247,-0.6099,-0.7212,0.061,0.183,0.061,-139.691,18.765,-14.238
11543,-0.3218,-0.6118,-0.7207,0.000,0.183,-0.061,-139.691,18.765,-14.238
11553,-0.3198,-0.6104,-0.7222,-0.244,0.183,-0.061,-139.697,18.759,-14.244
11563,-0.3203,-0.6094,-0.7241,-0.427,0.122,0.000,-139.702,18.759,-14.244
11573,-0.3213,-0.6074,-0.7231,-0.427,0.061,0.000,-139.713,18.759,-14.244
11583,-0.3203,-0.6064,-0.7256,-0.183,-0.061,-0.061,-139.719,18.759,-14.244
11593,-0.3198,-0.6069,-0.7241,0.122,-0.305,-0.183,-139.719,18.759,-14.238
11603,-0.3208,-0.6084,-0.7236,0.305,-0.488,-0.366,-139.713,18.759,-14.233
11613,-0.3218,-0.6084,-0.7202,0.305,-0.793,-0.427,-139.708,18.765,-14.222
11623,-0.3208,-0.6094,-0.7183,0.183,-0.916,-0.549,-139.702,18.770,-14.211
11633,-0.3218,-0.6099,-0.7173,-0.061,-0.793,-0.610,-139.702,18.770,-14.200
11643,-0.3218,-0.6128,-0.7148,-0.183,-0.488,-0.732,-139.697,18.770,-14.194
11653,-0.3223,-0.6108,-0.7158,-0.305,-0.183,-0.732,-139.697,18.770,-14.183
11663,-0.3242,-0.6152,-0.7168,-0.427,0.122,-0.671,-139.697,18.765,-14.183
11673,-0.3223,-0.6138,-0.7178,-0.549,0.305,-0.671,-139.697,18.759,-14.178
11683,-0.3228,-0.6147,-0.7168,-0.610,0.366,-0.610,-139.697,18.754,-14.178
11693,-0.3232,-0.6147,-0.7207,-0.610,0.305,-0.549,-139.702,18.748,-14.172
11703,-0.3228,-0.6138,-0.7212,-0.610,0.183,-0.427,-139.708,18.748,-14.172
11713,-0.3223,-0.6143,-0.7227,-0.427,0.061,-0.488,-139.708,18.743,-14.167
11723,-0.3213,-0.6162,-0.7197,-0.183,0.000,-0.488,-139.708,18.743,-14.161
11733,-0.3228,-0.6157,-0.7202,-0.183,-0.061,-0.427,-139.708,18.737,-14.161
11743,-0.3228,-0.6157,-0.7183,-0.122,-0.061,-0.244,-139.702,18.737,-14.156
11753,-0.3228,-0.6152,-0.7202,-0.061,-0.061,-0.122,-139.702,18.737,-14.156
11763,-0.3262,-0.6143,-0.7183,0.061,-0.061,0.000,-139.697,18.743,-14.156
11773,-0.3276,-0.6143,-0.7187,0.183,-0.061,0.061,-139.691,18.748,-14.156
11783,-0.3242,-0.6133,-0.7158,0.244,0.122,0.122,-139.691,18.748,-14.156
11793,-0.3232,-0.6128,-0.7178,0.000,0.305,0.061,-139.686,18.748,-14.161
11803,-0.3218,-0.6133,-0.7178,-0.244,0.366,0.000,-139.691,18.748,-14.161
11813,-0.3203,-0.6152,-0.7163,-0.488,0.244,-0.061,-139.691,18.743,-14.161
11823,-0.3174,-0.6138,-0.7202,-0.671,0.061,0.000,-139.697,18.743,-14.161
11833,-0.3188,-0.6143,-0.7227,-0.732,0.000,0.000,-139.702,18.743,-14.161
11843,-0.3184,-0.6138,-0.7227,-0.549,0.061,0.000,-139.708,18.737,-14.167
11853,-0.3208,-0.6123,-0.7222,-0.244,0.183,0.122,-139.713,18.737,-14.167
11863,-0.3218,-0.6118,-0.7192,0.183,0.305,0.061,-139.708,18.737,-14.167
11873,-0.3223,-0.6113,-0.7168,0.427,0.366,0.000,-139.702,18.737,-14.172
11883,-0.3247,-0.6079,-0.7163,0.366,0.427,-0.061,-139.702,18.737,-14.172
11893,-0.3247,-0.6055,-0.7163,0.122,0.610,-0.061,-139.702,18.732,-14.178
11903,-0.3218,-0.6074,-0.7183,-0.244,0.610,-0.122,-139.708,18.732,-14.183
11913,-0.3213,-0.6094,-0.7197,-0.610,0.549,-0.244,-139.713,18.726,-14.183
11923,-0.3184,-0.6084,-0.7202,-0.977,0.366,-0.366,-139.724,18.721,-14.183
11933,-0.3174,-0.6094,-0.7222,-1.099,0.305,-0.427,-139.735,18.715,-14.183
11943,-0.3188,-0.6089,-0.7236,-1.038,0.244,-0.488,-139.746,18.704,-14.178
11953,-0.3203,-0.6118,-0.7231,-0.671,0.122,-0.488,-139.752,18.704,-14.178
11963,-0.3213,-0.6128,-0.7217,-0.244,0.122,-0.488,-139.752,18.699,-14.172
11973,-0.3193,-0.6143,-0.7197,0.000,0.122,-0.549,-139.752,18.693,-14.167
11983,-0.3188,-0.6143,-0.7212,-0.061,0.183,-0.488,-139.746,18.688,-14.167
11993,-0.3203,-0.6147,-0.7251,-0.366,0.183,-0.366,-139.752,18.682,-14.167
12003,-0.3237,-0.6133,-0.7222,-0.671,0.183,-0.305,-139.757,18.682,-14.167
12014,-0.3262,-0.6099,-0.7256,-0.671,0.305,-0.244,-139.763,18.682,-14.167
12023,-0.3262,-0.6094,-0.7246,-0.183,0.305,-0.305,-139.768,18.682,-14.167
12033,-0.3252,-0.6108,-0.7241,0.244,0.305,-0.427,-139.768,18.677,-14.167
12043,-0.3252,-0.6133,-0.7241,0.427,0.122,-0.549,-139.757,18.677,-14.167
12053,-0.3223,-0.6147,-0.7231,0.305,-0.244,-0.610,-139.752,18.677,-14.167
12063,-0.3237,-0.6128,-0.7256,0.000,-0.549,-0.549,-139.752,18.677,-14.167
12073,-0.3242,-0.6118,-0.7271,-0.061,-0.916,-0.488,-139.752,18.682,-14.167
12083,-0.3237,-0.6138,-0.7246,0.183,-0.977,-0.427,-139.746,18.688,-14.167
12093,-0.3232,-0.6162,-0.7227,0.488,-0.916,-0.427,-139.735,18.693,-14.167
12103,-0.3203,-0.6157,-0.7192,0.671,-0.977,-0.488,-139.724,18.699,-14.167
12113,-0.3193,-0.6157,-0.7139,0.549,-0.977,-0.305,-139.708,18.704,-14.167
12123,-0.3198,-0.6152,-0.7173,0.183,-0.977,-0.183,-139.702,18.710,-14.167
12133,-0.3203,-0.6128,-0.7168,-0.244,-0.854,0.000,-139.697,18.715,-14.167
12143,-0.3203,-0.6108,-0.7178,-0.549,-0.427,0.061,-139.702,18.721,-14.167
12153,-0.3188,-0.6084,-0.7178,-0.488,0.061,0.122,-139.708,18.721,-14.167
12163,-0.3193,-0.6064,-0.7222,-0.366,0.305,0.183,-139.713,18.721,-14.167
12173,-0.3193,-0.6074,-0.7207,-0.244,0.305,0.183,-139.719,18.721,-14.167
12183,-0.3223,-0.6069,-0.7207,-0.122,0.427,0.061,-139.724,18.721,-14.167
12193,-0.3228,-0.6069,-0.7227,-0.061,0.305,0.000,-139.730,18.715,-14.167
12203,-0.3232,-0.6064,-0.7231,0.000,0.366,-0.183,-139.730,18.715,-14.167
12213,-0.3208,-0.6069,-0.7231,-0.061,0.366,-0.366,-139.735,18.710,-14.167
12223,-0.3232,-0.6089,-0.7271,-0.122,0.244,-0.488,-139.741,18.710,-14.167
12233,-0.3228,-0.6089,-0.7241,-0.244,0.000,-0.549,-139.741,18.704,-14.167
12243,-0.3237,-0.6089,-0.7222,-0.366,-0.183,-0.549,-139.746,18.704,-14.167
12253,-0.3242,-0.6099,-0.7217,-0.305,-0.305,-0.671,-139.746,18.704,-14.167
12263,-0.3242,-0.6108,-0.7241,-0.183,-0.427,-0.671,-139.746,18.704,-14.167
12273,-0.3213,-0.6157,-0.7212,-0.122,-0.488,-0.732,-139.741,18.704,-14.167
12283,-0.3208,-0.6187,-0.7241,-0.183,-0.549,-0.671,-139.741,18.704,-14.167
12293,-0.3208,-0.6201,-0.7212,-0.244,-0.549,-0.549,-139.735,18.704,-14.167
12303,-0.3203,-0.6196,-0.7217,-0.366,-0.549,-0.366,-139.730,18.704,-14.167
12313,-0.3203,-0.6177,-0.7202,-0.488,-0.427,-0.122,-139.730,18.710,-14.167
12323,-0.3193,-0.6157,-0.7173,-0.427,-0.244,0.061,-139.730,18.710,-14.167
12333,-0.3203,-0.6118,-0.7187,-0.183,0.000,0.244,-139.735,18.710,-14.167
12343,-0.3193,-0.6104,-0.7168,0.000,0.122,0.366,-139.730,18.715,-14.167
12353,-0.3203,-0.6084,-0.7178,0.061,0.122,0.305,-139.735,18.715,-14.167
12363,-0.3208,-0.6069,-0.7158,0.061,0.000,0.122,-139.730,18.715,-14.167
12373,-0.3188,-0.6045,-0.7158,0.122,-0.061,-0.122,-139.730,18.715,-14.167
12383,-0.3198,-0.6060,-0.7163,0.244,-0.122,-0.305,-139.730,18.715,-14.167
12393,-0.3203,-0.6079,-0.7163,0.366,-0.061,-0.427,-139.724,18.715,-14.167
12403,-0.3184,-0.6104,-0.7148,0.244,0.061,-0.488,-139.719,18.715,-14.167
12413,-0.3149,-0.6128,-0.7163,-0.061,0.244,-0.488,-139.713,18.704,-14.167
12423,-0.3154,-0.6113,-0.7173,-0.427,0.488,-0.427,-139.719,18.699,-14.167
12433,-0.3145,-0.6108,-0.7187,-0.610,0.793,-0.366,-139.724,18.688,-14.167
12443,-0.3193,-0.6099,-0.7197,-0.549,1.038,-0.244,-139.730,18.677,-14.167
12453,-0.3188,-0.6084,-0.7217,-0.366,1.282,-0.244,-139.735,18.666,-14.167
12463,-0.3198,-0.6069,-0.7217,-0.122,1.343,-0.305,-139.741,18.655,-14.167
12473,-0.3208,-0.6074,-0.7231,0.061,1.282,-0.488,-139.746,18.644,-14.167
12483,-0.3242,-0.6050,-0.7261,0.061,1.038,-0.732,-139.752,18.633,-14.167
12493,-0.3242,-0.6074,-0.7256,-0.061,0.793,-0.977,-139.752,18.622,-14.167
12503,-0.3242,-0.6113,-0.7275,-0.366,0.549,-1.221,-139.757,18.611,-14.161
12514,-0.3247,-0.6143,-0.7266,-0.549,0.244,-1.343,-139.757,18.605,-14.156
12523,-0.3203,-0.6182,-0.7256,-0.549,0.000,-1.038,-139.763,18.600,-14.145
12533,-0.3203,-0.6216,-0.7251,-0.427,-0.305,-0.854,-139.757,18.594,-14.134
12543,-0.3223,-0.6255,-0.7241,-0.244,-0.366,-0.610,-139.752,18.594,-14.128
12553,-0.3184,-0.6260,-0.7280,-0.244,-0.122,-0.244,-139.752,18.589,-14.128
12563,-0.3188,-0.6240,-0.7256,-0.183,0.183,0.183,-139.746,18.589,-14.128
12573,-0.3208,-0.6211,-0.7266,-0.122,0.427,0.488,-139.746,18.589,-14.134
12583,-0.3223,-0.6162,-0.7280,0.000,0.427,0.671,-139.752,18.589,-14.145
12593,-0.3232,-0.6133,-0.7285,0.427,0.244,0.793,-139.752,18.594,-14.150
12603,-0.3237,-0.6118,-0.7280,0.732,0.000,0.793,-139.746,18.600,-14.156
12613,-0.3232,-0.6099,-0.7251,0.732,-0.366,0.671,-139.741,18.611,-14.161
12623,-0.3242,-0.6064,-0.7241,0.610,-0.549,0.488,-139.741,18.622,-14.161
12633,-0.3228,-0.6079,-0.7207,0.488,-0.671,0.305,-139.735,18.633,-14.161
12643,-0.3218,-0.6069,-0.7197,0.427,-0.793,0.183,-139.730,18.644,-14.156
12653,-0.3213,-0.6108,-0.7192,0.427,-0.732,0.061,-139.724,18.649,-14.150
12663,-0.3198,-0.6108,-0.7192,0.427,-0.671,0.122,-139.719,18.655,-14.145
12673,-0.3184,-0.6143,-0.7178,0.244,-0.610,0.183,-139.713,18.660,-14.145
12683,-0.3193,-0.6157,-0.7187,0.122,-0.427,0.305,-139.708,18.666,-14.145
12693,-0.3184,-0.6147,-0.7202,0.000,-0.183,0.427,-139.708,18.671,-14.145
12703,-0.3159,-0.6128,-0.7183,-0.061,0.000,0.488,-139.708,18.671,-14.150
12713,-0.3164,-0.6123,-0.7192,-0.061,0.122,0.610,-139.708,18.671,-14.156
12723,-0.3159,-0.6128,-0.7222,0.000,0.183,0.610,-139.708,18.671,-14.161
12734,-0.3188,-0.6118,-0.7217,0.122,0.061,0.549,-139.713,18.677,-14.167
12743,-0.3208,-0.6123,-0.7207,0.183,-0.061,0.488,-139.708,18.682,-14.172
12754,-0.3228,-0.6138,-0.7222,0.122,-0.183,0.366,-139.708,18.682,-14.172
12764,-0.3232,-0.6167,-0.7227,0.000,-0.183,0.366,-139.708,18.688,-14.172
12774,-0.3223,-0.6138,-0.7236,-0.122,-0.183,0.427,-139.708,18.693,-14.178
12784,-0.3228,-0.6143,-0.7231,-0.244,-0.122,0.427,-139.713,18.699,-14.178
12794,-0.3218,-0.6133,-0.7222,-0.305,-0.061,0.488,-139.713,18.704,-14.183
12804,-0.3218,-0.6123,-0.7197,-0.244,-0.183,0.549,-139.719,18.710,-14.183
12814,-0.3232,-0.6123,-0.7192,-0.244,-0.366,0.610,-139.719,18.715,-14.189
12824,-0.3237,-0.6118,-0.7183,-0.427,-0.488,0.610,-139.724,18.726,-14.189
12834,-0.3237,-0.6104,-0.7178,-0.671,-0.488,0.610,-139.730,18.737,-14.189
12844,-0.3198,-0.6143,-0.7129,-0.916,-0.610,0.549,-139.735,18.748,-14.189
12854,-0.3228,-0.6099,-0.7144,-1.465,-0.854,0.732,-139.746,18.759,-14.189
12864,-0.3237,-0.6099,-0.7158,-1.648,-0.671,0.671,-139.757,18.770,-14.194
12874,-0.3184,-0.6094,-0.7197,-1.160,-0.488,0.366,-139.768,18.776,-14.194
12884,-0.3213,-0.6104,-0.7227,-0.183,-0.244,0.366,-139.774,18.781,-14.194
12894,-0.3193,-0.6128,-0.7192,0.488,-0.122,0.366,-139.768,18.781,-14.194
12904,-0.3203,-0.6104,-0.7168,0.732,-0.122,0.366,-139.757,18.787,-14.200
12914,-0.3159,-0.6089,-0.7168,0.916,-0.183,0.244,-139.752,18.787,-14.200
12924,-0.3188,-0.6094,-0.7168,0.549,-0.122,0.366,-139.741,18.787,-14.200
12934,-0.3188,-0.6074,-0.7153,0.366,-0.061,0.305,-139.741,18.792,-14.200
12944,-0.3198,-0.6079,-0.7153,0.305,0.183,0.305,-139.735,18.792,-14.205
12954,-0.3184,-0.6089,-0.7148,0.305,0.610,0.183,-139.735,18.787,-14.211
12964,-0.3203,-0.6089,-0.7148,0.366,1.099,0.183,-139.730,18.781,-14.222
12974,-0.3218,-0.6104,-0.7173,0.122,1.465,0.305,-139.735,18.776,-14.233
12984,-0.3213,-0.6104,-0.7202,-0.305,1.709,0.366,-139.741,18.765,-14.249
12994,-0.3223,-0.6099,-0.7271,-0.610,1.831,0.366,-139.752,18.754,-14.266
13004,-0.3237,-0.6074,-0.7314,-0.732,1.892,0.427,-139.774,18.743,-14.282
13014,-0.3223,-0.6079,-0.7334,-0.671,1.831,0.427,-139.790,18.726,-14.293
13024,-0.3218,-0.6064,-0.7329,-0.427,1.709,0.488,-139.807,18.721,-14.310
13034,-0.3208,-0.6074,-0.7300,0.000,1.221,0.183,-139.812,18.710,-14.321
13044,-0.3208,-0.6104,-0.7295,0.244,0.549,-0.305,-139.812,18.704,-14.321
13054,-0.3198,-0.6113,-0.7280,0.366,-0.244,-0.549,-139.807,18.699,-14.315
13064,-0.3203,-0.6138,-0.7256,0.305,-0.671,-0.427,-139.801,18.704,-14.310
13074,-0.3213,-0.6157,-0.7261,0.122,-0.732,-0.244,-139.796,18.704,-14.299
13084,-0.3218,-0.6157,-0.7207,0.183,-0.671,-0.305,-139.790,18.710,-14.293
13094,-0.3223,-0.6172,-0.7197,0.427,-0.488,-0.244,-139.779,18.710,-14.288
13104,-0.3223,-0.6187,-0.7197,0.610,-0.244,-0.122,-139.768,18.715,-14.288
13114,-0.3223,-0.6182,-0.7173,0.488,-0.061,0.122,-139.757,18.715,-14.288
13124,-0.3213,-0.6157,-0.7178,0.183,-0.061,0.183,-139.752,18.715,-14.288
13134,-0.3208,-0.6152,-0.7173,-0.183,0.000,0.183,-139.752,18.721,-14.288
13144,-0.3208,-0.6138,-0.7217,-0.488,0.000,0.305,-139.757,18.721,-14.293
13154,-0.3193,-0.6123,-0.7217,-0.610,0.000,0.366,-139.763,18.721,-14.293
13165,-0.3208,-0.6079,-0.7236,-0.488,-0.122,0.427,-139.768,18.726,-14.299
13174,-0.3203,-0.6089,-0.7231,-0.061,-0.183,0.427,-139.774,18.732,-14.299
13184,-0.3208,-0.6113,-0.7222,0.427,-0.244,0.366,-139.768,18.737,-14.299
13194,-0.3208,-0.6099,-0.7207,0.671,-0.305,0.305,-139.763,18.737,-14.299
13204,-0.3188,-0.6118,-0.7192,0.671,-0.305,0.244,-139.757,18.743,-14.299
13214,-0.3193,-0.6113,-0.7187,0.427,-0.305,0.183,-139.746,18.748,-14.299
13224,-0.3198,-0.6108,-0.7183,0.122,-0.244,0.122,-139.746,18.748,-14.299
13234,-0.3188,-0.6128,-0.7187,0.000,-0.183,0.122,-139.746,18.748,-14.299
13244,-0.3203,-0.6138,-0.7212,0.061,-0.061,0.183,-139.741,18.748,-14.299
13254,-0.3218,-0.6143,-0.7202,0.183,0.061,0.244,-139.741,18.754,-14.304
13264,-0.3223,-0.6138,-0.7192,0.244,0.305,0.244,-139.735,18.754,-14.304
13274,-0.3203,-0.6147,-0.7187,0.244,0.366,0.305,-139.730,18.748,-14.310
13284,-0.3188,-0.6123,-0.7236,0.061,0.366,0.427,-139.735,18.748,-14.315
13294,-0.3179,-0.6108,-0.7231,-0.122,0.366,0.488,-139.735,18.748,-14.326
13304,-0.3169,-0.6099,-0.7271,-0.122,0.305,0.427,-139.741,18.743,-14.332
13314,-0.3164,-0.6108,-0.7241,-0.061,0.000,0.244,-139.746,18.743,-14.332
13324,-0.3193,-0.6099,-0.7271,0.061,-0.183,0.122,-139.746,18.743,-14.332
13334,-0.3208,-0.6099,-0.7256,0.366,-0.305,0.000,-139.746,18.748,-14.332
13344,-0.3203,-0.6123,-0.7217,0.427,-0.244,-0.061,-139.741,18.748,-14.326
13354,-0.3203,-0.6157,-0.7192,0.305,-0.122,-0.061,-139.735,18.748,-14.326
13364,-0.3223,-0.6143,-0.7178,0.000,-0.061,0.000,-139.730,18.748,-14.326
13374,-0.3218,-0.6147,-0.7212,-0.122,0.061,0.122,-139.730,18.748,-14.326
13384,-0.3208,-0.6113,-0.7207,-0.122,0.061,0.244,-139.730,18.748,-14.332
13394,-0.3218,-0.6108,-0.7187,0.061,0.061,0.305,-139.730,18.754,-14.332
13404,-0.3223,-0.6108,-0.7212,0.122,0.061,0.183,-139.730,18.754,-14.332
13414,-0.3218,-0.6079,-0.7197,0.183,0.000,0.122,-139.730,18.754,-14.337
13424,-0.3223,-0.6094,-0.7192,0.244,-0.122,-0.061,-139.724,18.759,-14.332
13434,-0.3223,-0.6133,-0.7197,0.183,-0.244,-0.244,-139.724,18.759,-14.332
13444,-0.3203,-0.6157,-0.7178,0.000,-0.366,-0.305,-139.719,18.759,-14.326
13454,-0.3193,-0.6167,-0.7173,-0.366,-0.366,-0.183,-139.713,18.759,-14.321
13464,-0.3203,-0.6177,-0.7183,-0.549,-0.366,-0.061,-139.713,18.759,-14.321
13474,-0.3213,-0.6162,-0.7178,-0.366,-0.183,0.122,-139.713,18.765,-14.315
13484,-0.3213,-0.6162,-0.7173,-0.061,0.000,0.244,-139.713,18.765,-14.321
13494,-0.3208,-0.6167,-0.7148,0.122,0.122,0.366,-139.708,18.765,-14.326
13504,-0.3208,-0.6172,-0.7144,0.122,0.244,0.488,-139.702,18.770,-14.332
13515,-0.3208,-0.6143,-0.7163,0.061,0.305,0.549,-139.702,18.770,-14.337
13524,-0.3198,-0.6138,-0.7158,-0.122,0.122,0.427,-139.702,18.770,-14.337
13534,-0.3198,-0.6138,-0.7183,-0.427,0.061,0.427,-139.702,18.770,-14.337
13544,-0.3203,-0.6118,-0.7227,-0.732,0.061,0.427,-139.713,18.776,-14.337
13554,-0.3179,-0.6099,-0.7236,-0.793,0.305,0.366,-139.724,18.770,-14.337
13564,-0.3174,-0.6104,-0.7236,-0.671,0.427,0.366,-139.735,18.770,-14.337
13574,-0.3184,-0.6104,-0.7275,-0.366,0.366,0.366,-139.741,18.765,-14.337
13584,-0.3184,-0.6094,-0.7266,-0.183,0.183,0.305,-139.746,18.765,-14.337
13594,-0.3188,-0.6099,-0.7261,0.122,0.061,0.305,-139.752,18.765,-14.337
13604,-0.3198,-0.6089,-0.7266,0.305,0.000,0.183,-139.752,18.765,-14.337
13614,-0.3193,-0.6079,-0.7251,0.366,-0.061,0.122,-139.752,18.765,-14.337
13624,-0.3203,-0.6089,-0.7241,0.305,-0.183,0.061,-139.746,18.765,-14.337
13634,-0.3184,-0.6094,-0.7227,0.366,-0.305,0.000,-139.746,18.765,-14.337
13644,-0.3208,-0.6084,-0.7222,0.305,-0.366,-0.061,-139.741,18.770,-14.337
13654,-0.3188,-0.6094,-0.7207,0.305,-0.427,-0.122,-139.741,18.770,-14.337
13664,-0.3193,-0.6123,-0.7217,0.122,-0.305,-0.183,-139.735,18.770,-14.337
13674,-0.3193,-0.6133,-0.7212,-0.122,-0.122,-0.183,-139.735,18.770,-14.337
13684,-0.3188,-0.6138,-0.7222,-0.305,-0.061,-0.122,-139.735,18.765,-14.337
13694,-0.3203,-0.6118,-0.7222,-0.427,0.122,-0.061,-139.741,18.765,-14.337
13704,-0.3208,-0.6118,-0.7246,-0.305,0.183,-0.122,-139.746,18.759,-14.337
13714,-0.3203,-0.6138,-0.7246,-0.122,0.061,-0.183,-139.746,18.759,-14.337
13724,-0.3208,-0.6157,-0.7241,0.000,-0.183,-0.183,-139.741,18.759,-14.337
13734,-0.3208,-0.6152,-0.7236,-0.122,-0.366,-0.061,-139.741,18.759,-14.337
13744,-0.3193,-0.6147,-0.7222,-0.183,-0.427,0.061,-139.741,18.759,-14.337
13754,-0.3198,-0.6118,-0.7212,-0.061,-0.427,0.061,-139.741,18.765,-14.337
13764,-0.3232,-0.6084,-0.7202,0.183,-0.488,0.061,-139.741,18.770,-14.337
13774,-0.3242,-0.6074,-0.7183,0.427,-0.488,0.000,-139.735,18.776,-14.337
13784,-0.3252,-0.6084,-0.7139,0.549,-0.305,-0.122,-139.724,18.781,-14.337
13794,-0.3237,-0.6138,-0.7139,0.244,-0.183,-0.244,-139.719,18.781,-14.337
13804,-0.3213,-0.6138,-0.7163,-0.244,0.000,-0.366,-139.719,18.781,-14.337
13814,-0.3203,-0.6138,-0.7187,-0.793,0.061,-0.366,-139.724,18.776,-14.337
13824,-0.3184,-0.6138,-0.7183,-1.038,0.061,-0.305,-139.730,18.776,-14.337
13834,-0.3198,-0.6133,-0.7207,-0.793,-0.122,-0.244,-139.735,18.770,-14.337
13844,-0.3193,-0.6152,-0.7192,-0.183,-0.183,-0.183,-139.735,18.770,-14.337
13854,-0.3203,-0.6152,-0.7178,0.366,-0.244,-0.183,-139.724,18.770,-14.337
13864,-0.3232,-0.6152,-0.7173,0.610,-0.061,-0.122,-139.713,18.770,-14.337
13874,-0.3218,-0.6167,-0.7178,0.488,0.122,-0.061,-139.708,18.770,-14.337
13884,-0.3213,-0.6147,-0.7187,0.122,0.183,0.061,-139.702,18.770,-14.337
13894,-0.3213,-0.6157,-0.7212,-0.305,0.305,0.183,-139.708,18.770,-14.337
13904,-0.3198,-0.6147,-0.7246,-0.549,0.305,0.244,-139.713,18.765,-14.337
13914,-0.3198,-0.6152,-0.7261,-0.488,0.183,0.244,-139.719,18.765,-14.337
13924,-0.3193,-0.6133,-0.7246,-0.244,0.061,0.183,-139.719,18.765,-14.337
13934,-0.3188,-0.6147,-0.7241,0.061,-0.061,0.061,-139.719,18.759,-14.337
13944,-0.3188,-0.6143,-0.7236,0.244,-0.244,0.061,-139.719,18.759,-14.337
13954,-0.3179,-0.6128,-0.7217,0.366,-0.366,0.122,-139.713,18.765,-14.337
13964,-0.3223,-0.6133,-0.7197,0.366,-0.366,0.244,-139.708,18.770,-14.337
13974,-0.3223,-0.6113,-0.7197,0.366,-0.305,0.244,-139.702,18.770,-14.337
13984,-0.3242,-0.6108,-0.7173,0.366,-0.122,0.244,-139.697,18.776,-14.337
13994,-0.3228,-0.6094,-0.7183,0.244,0.061,0.244,-139.697,18.781,-14.337
14004,-0.3232,-0.6094,-0.7173,0.061,0.183,0.244,-139.697,18.781,-14.337
14015,-0.3223,-0.6099,-0.7202,-0.183,0.305,0.183,-139.697,18.781,-14.337
14024,-0.3213,-0.6094,-0.7217,-0.305,0.305,0.061,-139.702,18.781,-14.337
14034,-0.3198,-0.6089,-0.7246,-0.366,0.244,-0.061,-139.713,18.776,-14.337
14044,-0.3203,-0.6094,-0.7227,-0.305,0.122,-0.183,-139.713,18.776,-14.337
14054,-0.3198,-0.6099,-0.7212,-0.183,-0.061,-0.244,-139.719,18.770,-14.337
14064,-0.3208,-0.6113,-0.7183,0.000,-0.122,-0.366,-139.713,18.770,-14.337
14074,-0.3208,-0.6147,-0.7183,-0.061,-0.061,-0.427,-139.713,18.770,-14.337
14084,-0.3198,-0.6157,-0.7178,-0.366,0.122,-0.366,-139.713,18.765,-14.337
14094,-0.3208,-0.6152,-0.7178,-0.793,0.305,-0.244,-139.713,18.759,-14.337
14104,-0.3208,-0.6138,-0.7183,-1.221,0.488,-0.122,-139.724,18.754,-14.337
14114,-0.3203,-0.6123,-0.7202,-1.343,0.671,0.000,-139.741,18.748,-14.337
14124,-0.3198,-0.6123,-0.7246,-1.160,0.610,0.183,-139.752,18.743,-14.337
14134,-0.3179,-0.6133,-0.7256,-0.671,0.366,0.183,-139.763,18.743,-14.337
14144,-0.3174,-0.6138,-0.7266,-0.183,0.122,0.244,-139.763,18.737,-14.337
14154,-0.3184,-0.6133,-0.7285,0.244,-0.122,0.305,-139.763,18.737,-14.337
14164,-0.3184,-0.6118,-0.7280,0.488,-0.427,0.366,-139.763,18.743,-14.337
14174,-0.3198,-0.6099,-0.7266,0.671,-0.793,0.366,-139.757,18.748,-14.337
14184,-0.3203,-0.6118,-0.7227,0.793,-0.916,0.366,-139.746,18.759,-14.337
14194,-0.3208,-0.6099,-0.7207,0.854,-0.854,0.366,-139.741,18.770,-14.337
14204,-0.3193,-0.6099,-0.7207,0.854,-0.671,0.427,-139.730,18.776,-14.337
14214,-0.3228,-0.6074,-0.7197,0.793,-0.427,0.427,-139.724,18.781,-14.337
14224,-0.3242,-0.6069,-0.7202,0.732,-0.122,0.305,-139.719,18.787,-14.337
14234,-0.3237,-0.6079,-0.7217,0.488,0.061,0.122,-139.713,18.787,-14.337
14244,-0.3218,-0.6089,-0.7231,0.122,0.183,0.061,-139.719,18.787,-14.337
14254,-0.3228,-0.6094,-0.7231,-0.305,0.244,-0.061,-139.719,18.787,-14.337
14264,-0.3203,-0.6089,-0.7266,-0.610,0.183,-0.305,-139.730,18.781,-14.337
14274,-0.3184,-0.6099,-0.7275,-0.732,0.061,-0.427,-139.741,18.776,-14.337
14284,-0.3179,-0.6123,-0.7261,-0.610,-0.122,-0.427,-139.746,18.770,-14.337
14294,-0.3198,-0.6138,-0.7251,-0.488,-0.305,-0.427,-139.746,18.770,-14.337
14304,-0.3208,-0.6133,-0.7241,-0.305,-0.427,-0.366,-139.752,18.770,-14.337
14314,-0.3203,-0.6147,-0.7217,0.000,-0.488,-0.366,-139.746,18.770,-14.337
14324,-0.3188,-0.6162,-0.7202,0.305,-0.610,-0.305,-139.735,18.770,-14.337
14334,-0.3242,-0.6177,-0.7178,0.366,-0.732,-0.183,-139.730,18.776,-14.337
14344,-0.3232,-0.6177,-0.7158,0.244,-0.732,-0.061,-139.719,18.781,-14.337
14354,-0.3218,-0.6187,-0.7163,0.122,-0.732,0.061,-139.708,18.787,-14.337
14364,-0.3169,-0.6191,-0.7153,0.061,-0.671,0.122,-139.702,18.792,-14.337
14374,-0.3174,-0.6157,-0.7148,0.000,-0.671,0.183,-139.697,18.798,-14.337
14384,-0.3188,-0.6138,-0.7144,0.183,-0.610,0.366,-139.691,18.803,-14.337
14394,-0.3198,-0.6133,-0.7129,0.549,-0.488,0.427,-139.680,18.809,-14.337
14404,-0.3213,-0.6143,-0.7148,0.916,-0.244,0.427,-139.669,18.814,-14.337
14414,-0.3232,-0.6138,-0.7119,0.793,0.122,0.366,-139.658,18.814,-14.337
14424,-0.3223,-0.6138,-0.7163,0.183,0.488,0.244,-139.658,18.814,-14.337
14434,-0.3218,-0.6123,-0.7192,-0.488,0.732,0.244,-139.664,18.809,-14.337
14444,-0.3213,-0.6094,-0.7231,-0.793,0.854,0.183,-139.675,18.803,-14.337
14454,-0.3228,-0.6079,-0.7275,-0.610,0.732,0.244,-139.686,18.803,-14.337
14464,-0.3208,-0.6108,-0.7285,-0.061,0.549,0.183,-139.691,18.798,-14.337
14474,-0.3218,-0.6123,-0.7275,0.427,0.366,0.183,-139.691,18.792,-14.337
14484,-0.3228,-0.6128,-0.7266,0.732,0.122,0.183,-139.686,18.792,-14.337
14494,-0.3237,-0.6099,-0.7295,0.610,-0.183,0.183,-139.686,18.798,-14.337
14504,-0.3252,-0.6050,-0.7285,0.366,-0.488,0.122,-139.686,18.803,-14.337
14515,-0.3237,-0.6040,-0.7256,0.244,-0.732,-0.061,-139.686,18.809,-14.337
14524,-0.3232,-0.6045,-0.7241,0.244,-0.793,-0.366,-139.686,18.814,-14.337
14534,-0.3213,-0.6074,-0.7217,0.244,-0.854,-0.610,-139.686,18.814,-14.337
14544,-0.3203,-0.6089,-0.7207,0.122,-0.854,-0.732,-139.680,18.820,-14.337
14554,-0.3188,-0.6123,-0.7178,0.000,-0.793,-0.793,-139.675,18.814,-14.337
14564,-0.3198,-0.6167,-0.7163,-0.122,-0.610,-0.854,-139.669,18.814,-14.337
14574,-0.3174,-0.6206,-0.7168,-0.244,-0.305,-0.793,-139.664,18.809,-14.337
14584,-0.3188,-0.6221,-0.7207,-0.305,-0.061,-0.610,-139.658,18.803,-14.337
14594,-0.3174,-0.6240,-0.7251,-0.366,0.122,-0.366,-139.658,18.792,-14.337
14604,-0.3184,-0.6216,-0.7231,-0.305,0.061,-0.122,-139.658,18.792,-14.337
14614,-0.3198,-0.6201,-0.7227,-0.122,-0.061,0.122,-139.658,18.787,-14.337
14624,-0.3237,-0.6152,-0.7227,0.183,-0.244,0.305,-139.653,18.792,-14.337
14634,-0.3232,-0.6152,-0.7187,0.488,-0.244,0.244,-139.647,18.798,-14.337
14644,-0.3257,-0.6162,-0.7197,0.671,-0.366,0.122,-139.636,18.803,-14.337
14654,-0.3237,-0.6162,-0.7178,0.610,-0.427,0.000,-139.631,18.809,-14.337
14664,-0.3262,-0.6172,-0.7163,0.244,-0.549,0.000,-139.620,18.814,-14.337
14674,-0.3237,-0.6177,-0.7153,-0.244,-0.671,0.000,-139.620,18.820,-14.337
14684,-0.3232,-0.6182,-0.7134,-0.549,-0.610,0.061,-139.614,18.825,-14.337
14694,-0.3252,-0.6206,-0.7134,-0.732,-0.305,0.183,-139.614,18.831,-14.337
14704,-0.3247,-0.6191,-0.7114,-0.793,0.122,0.244,-139.620,18.831,-14.337
14714,-0.3252,-0.6206,-0.7104,-0.732,0.549,0.427,-139.620,18.831,-14.337
14724,-0.3257,-0.6211,-0.7114,-0.671,0.793,0.549,-139.625,18.831,-14.337
14734,-0.3271,-0.6206,-0.7129,-0.732,1.038,0.671,-139.625,18.831,-14.337
14744,-0.3267,-0.6201,-0.7134,-0.854,1.221,0.732,-139.636,18.831,-14.337
14754,-0.3247,-0.6216,-0.7173,-1.099,1.404,0.732,-139.647,18.825,-14.337
14764,-0.3247,-0.6216,-0.7202,-1.404,1.465,0.854,-139.658,18.820,-14.337
14774,-0.3218,-0.6201,-0.7236,-1.343,1.282,0.977,-139.675,18.814,-14.337
14784,-0.3232,-0.6162,-0.7231,-0.916,1.038,0.977,-139.691,18.814,-14.337
14794,-0.3208,-0.6162,-0.7217,-0.305,0.671,1.038,-139.697,18.814,-14.348
14804,-0.3232,-0.6157,-0.7197,0.366,0.366,1.221,-139.691,18.820,-14.359
14814,-0.3237,-0.6167,-0.7139,0.977,0.305,1.343,-139.680,18.825,-14.376
14824,-0.3232,-0.6147,-0.7104,1.160,0.183,1.404,-139.669,18.836,-14.387
14834,-0.3247,-0.6133,-0.7109,0.854,0.244,1.404,-139.658,18.847,-14.398
14844,-0.3247,-0.6104,-0.7104,0.549,0.427,1.404,-139.653,18.853,-14.414
14854,-0.3237,-0.6108,-0.7124,0.244,0.793,1.404,-139.653,18.858,-14.431
14864,-0.3218,-0.6084,-0.7144,-0.061,1.160,1.343,-139.664,18.858,-14.447
14874,-0.3193,-0.6113,-0.7153,-0.366,1.465,1.282,-139.669,18.853,-14.469
14884,-0.3159,-0.6123,-0.7173,-0.671,1.770,1.282,-139.680,18.847,-14.491
14894,-0.3130,-0.6123,-0.7212,-0.854,1.953,1.404,-139.697,18.836,-14.518
14904,-0.3149,-0.6108,-0.7261,-0.854,1.953,1.465,-139.719,18.825,-14.540
14914,-0.3145,-0.6084,-0.7280,-0.671,1.892,1.404,-139.735,18.814,-14.568
14924,-0.3164,-0.6079,-0.7280,-0.366,1.892,1.343,-139.752,18.803,-14.590
14934,-0.3159,-0.6045,-0.7305,-0.061,1.831,1.160,-139.763,18.798,-14.612
14944,-0.3213,-0.6055,-0.7285,0.122,1.709,1.038,-139.774,18.787,-14.634
14954,-0.3232,-0.6055,-0.7285,0.000,1.587,0.916,-139.785,18.781,-14.650
14964,-0.3208,-0.6045,-0.7280,-0.244,1.343,0.854,-139.796,18.776,-14.667
14974,-0.3223,-0.6055,-0.7310,-0.488,1.099,0.793,-139.812,18.776,-14.678
14984,-0.3208,-0.6040,-0.7314,-0.732,0.854,0.610,-139.828,18.770,-14.689
14994,-0.3208,-0.6030,-0.7329,-0.977,0.671,0.488,-139.850,18.770,-14.700
15004,-0.3213,-0.5991,-0.7329,-0.793,0.427,0.488,-139.867,18.765,-14.705
15015,-0.3193,-0.6021,-0.7305,-0.122,0.122,0.427,-139.878,18.770,-14.711
15024,-0.3218,-0.6025,-0.7251,0.549,-0.244,0.183,-139.878,18.770,-14.711
15034,-0.3223,-0.6030,-0.7236,0.977,-0.549,0.000,-139.867,18.776,-14.705
15044,-0.3193,-0.6045,-0.7202,0.916,-0.793,-0.183,-139.856,18.781,-14.700
15054,-0.3203,-0.6089,-0.7192,0.488,-0.732,-0.366,-139.850,18.787,-14.689
15064,-0.3193,-0.6089,-0.7178,-0.061,-0.549,-0.488,-139.845,18.787,-14.683
15074,-0.3188,-0.6104,-0.7197,-0.366,-0.305,-0.488,-139.845,18.781,-14.678
15084,-0.3228,-0.6138,-0.7202,-0.244,0.000,-0.427,-139.845,18.781,-14.672
15094,-0.3223,-0.6143,-0.7207,-0.122,0.061,-0.305,-139.845,18.781,-14.672
15104,-0.3213,-0.6172,-0.7197,-0.244,0.122,-0.183,-139.839,18.776,-14.672
15114,-0.3193,-0.6162,-0.7207,-0.488,0.183,0.061,-139.839,18.776,-14.672
15124,-0.3184,-0.6152,-0.7251,-0.854,0.305,0.244,-139.850,18.770,-14.678
15134,-0.3203,-0.6128,-0.7266,-0.977,0.305,0.427,-139.861,18.770,-14.683
15144,-0.3198,-0.6118,-0.7266,-0.732,0.305,0.488,-139.872,18.770,-14.689
15154,-0.3223,-0.6123,-0.7266,-0.366,0.183,0.427,-139.878,18.770,-14.694
15166,-0.3223,-0.6113,-0.7246,0.000,-0.061,0.366,-139.878,18.770,-14.694
15174,-0.3232,-0.6099,-0.7236,0.122,-0.305,0.427,-139.878,18.781,-14.700
15184,-0.3223,-0.6094,-0.7236,0.061,-0.427,0.427,-139.878,18.787,-14.700
15194,-0.3223,-0.6104,-0.7227,0.061,-0.488,0.305,-139.872,18.792,-14.700
15204,-0.3213,-0.6108,-0.7222,0.000,-0.488,0.183,-139.872,18.798,-14.694
15214,-0.3218,-0.6099,-0.7231,-0.061,-0.427,0.183,-139.872,18.798,-14.694
15224,-0.3208,-0.6108,-0.7207,-0.061,-0.488,0.183,-139.872,18.803,-14.694
15234,-0.3228,-0.6094,-0.7187,0.000,-0.366,0.061,-139.867,18.809,-14.689
15244,-0.3228,-0.6099,-0.7192,0.061,-0.366,0.061,-139.867,18.814,-14.689
15254,-0.3223,-0.6118,-0.7173,0.000,-0.244,0.000,-139.861,18.814,-14.689
15264,-0.3223,-0.6123,-0.7163,-0.305,-0.122,-0.061,-139.861,18.814,-14.683
15274,-0.3213,-0.6123,-0.7153,-0.671,0.122,0.061,-139.861,18.814,-14.689
15284,-0.3228,-0.6138,-0.7173,-0.671,0.305,0.122,-139.867,18.814,-14.689
15294,-0.3213,-0.6143,-0.7168,-0.610,0.305,0.122,-139.867,18.814,-14.694
15304,-0.3232,-0.6138,-0.7197,-0.671,0.366,0.244,-139.872,18.814,-14.700
15314,-0.3257,-0.6133,-0.7187,-0.488,0.488,0.427,-139.878,18.814,-14.705
15324,-0.3228,-0.6123,-0.7202,-0.244,0.488,0.427,-139.878,18.814,-14.711
15334,-0.3213,-0.6123,-0.7187,-0.244,0.427,0.244,-139.878,18.809,-14.716
15344,-0.3213,-0.6104,-0.7192,-0.427,0.366,0.122,-139.883,18.809,-14.716
15354,-0.3208,-0.6138,-0.7227,-0.610,0.488,0.122,-139.889,18.803,-14.722
15364,-0.3218,-0.6123,-0.7222,-0.732,0.549,0.122,-139.894,18.803,-14.727
15374,-0.3198,-0.6108,-0.7246,-0.671,0.488,0.183,-139.905,18.798,-14.733
15384,-0.3198,-0.6108,-0.7266,-0.488,0.305,0.244,-139.911,18.798,-14.738
15394,-0.3232,-0.6113,-0.7246,0.000,0.122,0.427,-139.911,18.798,-14.744
15404,-0.3228,-0.6123,-0.7231,0.427,0.000,0.488,-139.905,18.798,-14.744
15414,-0.3237,-0.6128,-0.7227,0.732,0.000,0.549,-139.900,18.803,-14.749
15424,-0.3203,-0.6118,-0.7266,0.732,0.061,0.671,-139.894,18.809,-14.755
15434,-0.3237,-0.6104,-0.7256,0.427,0.061,0.732,-139.889,18.814,-14.760
15444,-0.3223,-0.6064,-0.7280,0.122,0.000,0.793,-139.894,18.814,-14.766
15454,-0.3223,-0.6030,-0.7290,0.061,-0.061,0.671,-139.900,18.820,-14.771
15464,-0.3193,-0.6016,-0.7271,0.000,-0.244,0.488,-139.905,18.825,-14.777
15474,-0.3208,-0.6030,-0.7256,0.061,-0.488,0.305,-139.911,18.831,-14.777
15484,-0.3188,-0.6050,-0.7222,0.183,-0.549,0.122,-139.905,18.836,-14.771
15494,-0.3188,-0.6045,-0.7236,0.061,-0.732,0.000,-139.905,18.836,-14.766
15504,-0.3179,-0.6069,-0.7217,-0.122,-0.793,-0.061,-139.905,18.842,-14.760
15515,-0.3188,-0.6074,-0.7192,-0.305,-0.854,-0.061,-139.905,18.847,-14.755
15524,-0.3164,-0.6060,-0.7192,-0.427,-0.732,-0.122,-139.911,18.847,-14.749
15534,-0.3184,-0.6064,-0.7207,-0.427,-0.549,-0.183,-139.911,18.847,-14.744
15544,-0.3218,-0.6045,-0.7212,-0.305,-0.427,-0.305,-139.916,18.853,-14.738
15554,-0.3218,-0.6064,-0.7222,-0.183,-0.305,-0.427,-139.916,18.853,-14.733
15564,-0.3188,-0.6089,-0.7187,0.000,-0.305,-0.427,-139.911,18.847,-14.727
15574,-0.3193,-0.6104,-0.7212,-0.122,-0.366,-0.488,-139.911,18.847,-14.722
15584,-0.3188,-0.6094,-0.7222,-0.488,-0.427,-0.427,-139.911,18.847,-14.716
15594,-0.3213,-0.6064,-0.7280,-0.732,-0.305,-0.366,-139.922,18.842,-14.711
15604,-0.3228,-0.6045,-0.7241,-0.488,-0.305,-0.366,-139.927,18.847,-14.705
15614,-0.3228,-0.6035,-0.7256,0.061,-0.366,-0.549,-139.927,18.842,-14.700
15624,-0.3252,-0.6084,-0.7227,0.549,-0.549,-0.793,-139.916,18.847,-14.689
15634,-0.3228,-0.6069,-0.7168,0.671,-0.732,-0.793,-139.905,18.847,-14.678
15644,-0.3232,-0.6104,-0.7148,0.427,-0.854,-0.854,-139.894,18.847,-14.661
15654,-0.3232,-0.6118,-0.7124,-0.061,-0.732,-0.977,-139.883,18.853,-14.650
15664,-0.3237,-0.6133,-0.7139,-0.549,-0.427,-1.038,-139.878,18.847,-14.639
15674,-0.3242,-0.6157,-0.7158,-0.977,0.061,-0.916,-139.883,18.842,-14.634
15684,-0.3218,-0.6172,-0.7202,-1.099,0.549,-0.793,-139.889,18.831,-14.628
15694,-0.3213,-0.6172,-0.7241,-1.038,0.732,-0.671,-139.894,18.820,-14.628
15704,-0.3218,-0.6157,-0.7295,-0.793,0.549,-0.488,-139.900,18.814,-14.628
15714,-0.3208,-0.6162,-0.7285,-0.366,0.244,-0.305,-139.905,18.803,-14.628
15724,-0.3232,-0.6147,-0.7300,-0.061,-0.122,-0.183,-139.900,18.803,-14.623
15734,-0.3262,-0.6138,-0.7266,0.305,-0.427,-0.061,-139.900,18.809,-14.623
15744,-0.3237,-0.6138,-0.7256,0.488,-0.610,0.000,-139.889,18.814,-14.617
15754,-0.3237,-0.6113,-0.7246,0.549,-0.793,0.000,-139.883,18.820,-14.612
15764,-0.3242,-0.6123,-0.7246,0.488,-0.916,-0.061,-139.872,18.825,-14.606
15774,-0.3242,-0.6113,-0.7236,0.427,-1.038,-0.061,-139.867,18.836,-14.595
15784,-0.3228,-0.6099,-0.7202,0.427,-1.038,-0.122,-139.861,18.842,-14.590
15794,-0.3237,-0.6108,-0.7217,0.427,-1.038,-0.305,-139.850,18.847,-14.579
15804,-0.3213,-0.6152,-0.7202,0.366,-0.977,-0.366,-139.839,18.853,-14.573
15814,-0.3223,-0.6147,-0.7217,0.244,-0.793,-0.427,-139.834,18.853,-14.562
15824,-0.3218,-0.6143,-0.7192,0.122,-0.671,-0.305,-139.828,18.858,-14.557
15834,-0.3213,-0.6123,-0.7192,0.000,-0.549,-0.122,-139.823,18.858,-14.551
15844,-0.3247,-0.6108,-0.7192,0.061,-0.427,-0.061,-139.818,18.864,-14.546
15854,-0.3237,-0.6074,-0.7192,0.122,-0.244,-0.061,-139.818,18.869,-14.546
15864,-0.3252,-0.6089,-0.7212,0.000,-0.061,-0.183,-139.818,18.869,-14.540
15874,-0.3247,-0.6089,-0.7222,-0.183,0.000,-0.244,-139.818,18.869,-14.540
15884,-0.3262,-0.6069,-0.7197,-0.305,-0.183,-0.305,-139.818,18.869,-14.535
15894,-0.3232,-0.6104,-0.7192,-0.183,-0.366,-0.427,-139.818,18.869,-14.529
15904,-0.3223,-0.6133,-0.7202,-0.061,-0.549,-0.610,-139.812,18.869,-14.524
15914,-0.3218,-0.6147,-0.7192,0.061,-0.671,-0.610,-139.807,18.869,-14.513
15924,-0.3198,-0.6138,-0.7192,0.061,-0.732,-0.488,-139.801,18.869,-14.502
15934,-0.3218,-0.6143,-0.7173,0.183,-0.671,-0.244,-139.796,18.875,-14.496
15944,-0.3228,-0.6138,-0.7168,0.488,-0.488,-0.122,-139.785,18.875,-14.491
15954,-0.3223,-0.6138,-0.7173,0.610,-0.244,-0.183,-139.774,18.875,-14.491
15964,-0.3247,-0.6128,-0.7183,0.610,0.061,-0.183,-139.763,18.875,-14.491
15974,-0.3242,-0.6123,-0.7187,0.427,0.305,-0.183,-139.757,18.875,-14.491
15984,-0.3247,-0.6104,-0.7187,0.183,0.427,-0.183,-139.757,18.869,-14.491
15994,-0.3262,-0.6099,-0.7192,-0.061,0.427,-0.244,-139.757,18.869,-14.491
16004,-0.3267,-0.6113,-0.7231,-0.183,0.366,-0.244,-139.757,18.864,-14.491
16015,-0.3267,-0.6094,-0.7275,-0.244,0.366,-0.183,-139.763,18.864,-14.491
16024,-0.3267,-0.6113,-0.7280,-0.122,0.244,-0.183,-139.768,18.858,-14.491
16034,-0.3237,-0.6118,-0.7271,-0.061,0.061,-0.305,-139.768,18.858,-14.491
16044,-0.3237,-0.6104,-0.7261,0.122,-0.183,-0.305,-139.768,18.858,-14.485
16054,-0.3228,-0.6123,-0.7227,0.366,-0.366,-0.366,-139.763,18.858,-14.480
16064,-0.3223,-0.6157,-0.7256,0.549,-0.549,-0.427,-139.752,18.858,-14.474
16074,-0.3228,-0.6147,-0.7231,0.610,-0.610,-0.427,-139.746,18.858,-14.469
16084,-0.3223,-0.6162,-0.7222,0.366,-0.549,-0.305,-139.735,18.858,-14.464
16094,-0.3228,-0.6162,-0.7202,0.183,-0.488,-0.305,-139.730,18.858,-14.458
16104,-0.3228,-0.6172,-0.7227,0.061,-0.427,-0.122,-139.724,18.864,-14.453
16114,-0.3237,-0.6152,-0.7222,-0.061,-0.366,0.000,-139.724,18.864,-14.447
16124,-0.3237,-0.6152,-0.7212,-0.061,-0.244,0.122,-139.724,18.869,-14.447
16134,-0.3242,-0.6138,-0.7187,0.122,-0.183,0.183,-139.719,18.869,-14.447
16144,-0.3232,-0.6147,-0.7183,0.183,-0.122,0.183,-139.713,18.875,-14.447
16154,-0.3237,-0.6143,-0.7197,0.122,-0.122,0.244,-139.713,18.875,-14.453
16164,-0.3228,-0.6152,-0.7173,-0.061,0.061,0.305,-139.708,18.875,-14.453
16174,-0.3213,-0.6118,-0.7207,-0.427,0.122,0.305,-139.713,18.875,-14.458
16184,-0.3208,-0.6104,-0.7231,-0.610,0.183,0.244,-139.724,18.875,-14.458
16194,-0.3213,-0.6094,-0.7246,-0.549,0.061,0.183,-139.730,18.875,-14.464
16204,-0.3213,-0.6074,-0.7236,-0.183,-0.061,0.122,-139.735,18.875,-14.464
16214,-0.3228,-0.6064,-0.7227,0.305,-0.366,0.000,-139.735,18.880,-14.458
16224,-0.3237,-0.6084,-0.7207,0.732,-0.671,-0.122,-139.724,18.880,-14.453
16234,-0.3223,-0.6079,-0.7163,0.732,-0.916,-0.305,-139.713,18.885,-14.447
