elapsed_ms,acc_x_g,acc_y_g,acc_z_g,gyro_x_dps,gyro_y_dps,gyro_z_dps,angle_x_deg,angle_y_deg,angle_z_deg
0,-0.4004,-0.1997,-0.8896,-6.348,8.789,0.122,-166.772,23.406,-14.628
10,-0.4004,-0.1973,-0.8936,-5.249,10.803,-0.427,-166.844,23.302,-14.650
20,-0.3979,-0.1982,-0.8945,-4.089,12.512,-1.282,-166.893,23.181,-14.667
30,-0.3892,-0.2017,-0.8940,-3.540,13.794,-2.075,-166.937,23.044,-14.678
40,-0.3799,-0.2036,-0.8936,-3.967,13.916,-2.136,-166.987,22.896,-14.689
50,-0.3765,-0.2080,-0.8950,-5.310,12.817,-1.343,-167.042,22.764,-14.705
60,-0.3770,-0.2080,-0.8975,-7.385,10.742,-0.305,-167.124,22.654,-14.727
70,-0.3828,-0.2026,-0.8994,-9.399,8.423,0.488,-167.228,22.571,-14.755
80,-0.3882,-0.1982,-0.9004,-10.742,6.592,0.793,-167.349,22.516,-14.777
90,-0.3916,-0.1909,-0.9019,-11.230,5.676,0.671,-167.476,22.467,-14.799
100,-0.3936,-0.1875,-0.9048,-10.925,5.737,0.122,-167.596,22.418,-14.815
110,-0.3936,-0.1880,-0.9097,-10.376,6.409,-0.183,-167.712,22.363,-14.826
120,-0.3867,-0.1919,-0.9106,-10.010,7.202,-0.305,-167.822,22.291,-14.843
130,-0.3833,-0.1958,-0.9165,-10.376,7.263,-0.061,-167.932,22.220,-14.859
140,-0.3813,-0.1973,-0.9175,-11.108,6.653,0.244,-168.047,22.154,-14.875
150,-0.3794,-0.1953,-0.9185,-11.902,5.615,0.000,-168.168,22.099,-14.886
161,-0.3784,-0.1934,-0.9170,-12.512,4.456,-0.488,-168.294,22.055,-14.892
170,-0.3774,-0.1948,-0.9126,-12.695,3.418,-0.732,-168.415,22.022,-14.892
180,-0.3740,-0.1919,-0.9106,-12.817,2.625,-0.549,-168.536,21.995,-14.892
190,-0.3745,-0.1914,-0.9077,-12.939,2.136,-0.183,-168.662,21.973,-14.892
200,-0.3774,-0.1914,-0.9087,-13.306,2.075,0.183,-168.788,21.951,-14.897
210,-0.3770,-0.1890,-0.9131,-13.733,2.869,0.244,-168.926,21.929,-14.908
220,-0.3730,-0.1836,-0.9204,-13.916,4.150,0.061,-169.063,21.885,-14.919
230,-0.3716,-0.1802,-0.9268,-13.611,5.310,0.244,-169.200,21.830,-14.930
240,-0.3706,-0.1768,-0.9307,-12.695,5.981,0.366,-169.332,21.764,-14.947
250,-0.3726,-0.1729,-0.9341,-11.108,6.165,0.427,-169.453,21.703,-14.963
260,-0.3721,-0.1709,-0.9390,-9.094,5.676,0.305,-169.552,21.643,-14.980
270,-0.3726,-0.1685,-0.9399,-6.714,4.639,0.244,-169.623,21.599,-14.991
280,-0.3745,-0.1694,-0.9399,-4.089,3.296,-0.122,-169.667,21.561,-14.996
290,-0.3740,-0.1714,-0.9390,-1.892,2.197,-0.671,-169.684,21.539,-14.991
300,-0.3730,-0.1768,-0.9370,-0.610,1.221,-1.160,-169.684,21.522,-14.980
310,-0.3735,-0.1826,-0.9355,-0.244,0.488,-1.343,-169.673,21.517,-14.969
320,-0.3755,-0.1812,-0.9331,-0.671,-0.122,-1.099,-169.673,21.517,-14.958
330,-0.3750,-0.1831,-0.9287,-1.465,-0.671,-0.610,-169.673,21.522,-14.947
340,-0.3740,-0.1821,-0.9277,-2.014,-0.854,-0.061,-169.684,21.528,-14.947
350,-0.3721,-0.1763,-0.9277,-2.197,-0.854,0.183,-169.700,21.539,-14.947
360,-0.3721,-0.1768,-0.9272,-2.014,-0.977,0.427,-169.717,21.550,-14.952
370,-0.3682,-0.1787,-0.9277,-1.587,-1.160,0.488,-169.728,21.561,-14.952
380,-0.3677,-0.1753,-0.9263,-0.916,-1.770,0.671,-169.733,21.572,-14.958
390,-0.3687,-0.1763,-0.9258,-0.122,-2.319,0.977,-169.733,21.594,-14.963
400,-0.3687,-0.1768,-0.9253,0.916,-2.625,1.160,-169.722,21.621,-14.969
410,-0.3667,-0.1768,-0.9204,1.709,-2.808,1.404,-169.700,21.649,-14.980
420,-0.3691,-0.1763,-0.9238,2.075,-2.625,1.831,-169.684,21.676,-14.996
430,-0.3726,-0.1772,-0.9243,2.075,-1.953,2.197,-169.662,21.698,-15.013
440,-0.3745,-0.1753,-0.9224,1.648,-1.160,2.563,-169.651,21.714,-15.040
450,-0.3745,-0.1748,-0.9233,1.099,-0.305,2.991,-169.645,21.720,-15.068
460,-0.3765,-0.1724,-0.9194,0.610,0.366,3.235,-169.651,21.725,-15.106
470,-0.3779,-0.1699,-0.9209,0.122,0.671,3.296,-169.662,21.731,-15.139
480,-0.3794,-0.1694,-0.9214,-0.427,0.671,3.357,-169.678,21.731,-15.178
490,-0.3813,-0.1660,-0.9248,-0.854,0.366,3.235,-169.700,21.736,-15.211
500,-0.3823,-0.1641,-0.9282,-0.793,-0.061,2.991,-169.722,21.747,-15.244
510,-0.3843,-0.1611,-0.9258,-0.244,-0.427,2.441,-169.739,21.758,-15.271
520,-0.3833,-0.1646,-0.9233,0.549,-0.854,1.648,-169.744,21.775,-15.287
530,-0.3794,-0.1665,-0.9243,1.038,-1.282,0.916,-169.733,21.791,-15.293
540,-0.3755,-0.1699,-0.9214,1.160,-1.770,0.549,-169.722,21.808,-15.293
550,-0.3730,-0.1733,-0.9199,1.099,-1.953,0.549,-169.706,21.830,-15.298
560,-0.3711,-0.1748,-0.9194,0.610,-1.892,0.732,-169.700,21.846,-15.298
570,-0.3730,-0.1714,-0.9209,-0.061,-1.770,1.221,-169.700,21.868,-15.309
580,-0.3745,-0.1641,-0.9209,-0.305,-1.404,1.648,-169.711,21.879,-15.326
590,-0.3765,-0.1621,-0.9224,-0.122,-1.038,1.709,-169.722,21.896,-15.342
600,-0.3804,-0.1553,-0.9209,0.427,-0.793,1.770,-169.733,21.907,-15.359
610,-0.3789,-0.1528,-0.9214,1.099,-0.610,1.709,-169.733,21.918,-15.375
620,-0.3789,-0.1504,-0.9233,1.587,-0.610,1.526,-169.733,21.929,-15.392
630,-0.3804,-0.1455,-0.9214,1.831,-0.793,1.282,-169.733,21.940,-15.403
640,-0.3833,-0.1455,-0.9214,1.770,-1.099,0.671,-169.733,21.956,-15.408
650,-0.3823,-0.1499,-0.9199,1.343,-1.343,-0.122,-169.728,21.973,-15.403
661,-0.3779,-0.1558,-0.9185,0.671,-1.648,-0.793,-169.722,21.989,-15.392
670,-0.3760,-0.1616,-0.9189,-0.061,-1.892,-1.343,-169.717,22.006,-15.375
680,-0.3760,-0.1704,-0.9224,-0.854,-1.953,-1.587,-169.717,22.022,-15.353
690,-0.3765,-0.1733,-0.9209,-1.648,-1.709,-1.526,-169.722,22.033,-15.331
700,-0.3774,-0.1733,-0.9243,-2.197,-1.160,-1.282,-169.733,22.039,-15.320
710,-0.3794,-0.1689,-0.9263,-2.319,-0.427,-1.099,-169.755,22.039,-15.304
720,-0.3813,-0.1709,-0.9297,-1.831,0.122,-1.099,-169.766,22.039,-15.293
730,-0.3799,-0.1729,-0.9297,-1.099,0.366,-1.160,-169.766,22.033,-15.282
740,-0.3794,-0.1758,-0.9282,-0.427,0.183,-1.160,-169.766,22.028,-15.271
750,-0.3804,-0.1733,-0.9268,0.122,-0.366,-1.099,-169.755,22.028,-15.260
760,-0.3809,-0.1758,-0.9243,0.610,-1.099,-0.916,-169.739,22.033,-15.249
770,-0.3779,-0.1772,-0.9243,0.671,-2.075,-0.610,-169.722,22.055,-15.238
780,-0.3809,-0.1772,-0.9219,0.366,-3.113,-0.366,-169.706,22.083,-15.227
790,-0.3833,-0.1738,-0.9224,-0.122,-3.845,-0.244,-169.700,22.121,-15.216
800,-0.3843,-0.1753,-0.9209,-0.244,-4.089,-0.183,-169.695,22.165,-15.205
810,-0.3828,-0.1763,-0.9199,-0.244,-4.150,-0.244,-169.689,22.203,-15.194
820,-0.3828,-0.1768,-0.9189,-0.122,-4.028,-0.305,-169.678,22.242,-15.183
830,-0.3833,-0.1792,-0.9185,0.000,-3.845,-0.244,-169.667,22.280,-15.172
840,-0.3828,-0.1807,-0.9165,0.000,-3.479,-0.183,-169.656,22.313,-15.167
850,-0.3843,-0.1797,-0.9126,0.000,-2.930,0.000,-169.645,22.341,-15.161
860,-0.3833,-0.1787,-0.9126,0.183,-2.380,0.244,-169.640,22.368,-15.156
870,-0.3813,-0.1792,-0.9136,0.183,-2.014,0.488,-169.629,22.385,-15.161
880,-0.3813,-0.1807,-0.9106,0.000,-1.831,0.916,-169.623,22.407,-15.167
890,-0.3828,-0.1753,-0.9111,-0.244,-1.770,1.343,-169.623,22.429,-15.178
900,-0.3867,-0.1714,-0.9116,-0.427,-1.587,1.526,-169.629,22.445,-15.189
910,-0.3882,-0.1699,-0.9136,-0.244,-1.221,1.465,-169.634,22.462,-15.205
920,-0.3877,-0.1699,-0.9092,0.000,-0.732,1.282,-169.640,22.473,-15.216
930,-0.3872,-0.1689,-0.9111,-0.061,-0.366,1.160,-169.640,22.484,-15.227
940,-0.3862,-0.1699,-0.9092,-0.366,-0.305,1.221,-169.651,22.489,-15.238
950,-0.3872,-0.1724,-0.9111,-0.916,-0.061,1.282,-169.656,22.495,-15.255
960,-0.3867,-0.1665,-0.9165,-1.526,0.366,1.221,-169.678,22.495,-15.266
970,-0.3862,-0.1641,-0.9180,-1.770,0.488,1.221,-169.706,22.489,-15.282
980,-0.3877,-0.1611,-0.9238,-1.221,0.488,1.038,-169.722,22.489,-15.293
990,-0.3882,-0.1646,-0.9224,-0.122,0.488,0.671,-169.733,22.484,-15.298
1000,-0.3867,-0.1675,-0.9185,0.977,0.488,0.183,-169.722,22.478,-15.304
1010,-0.3867,-0.1719,-0.9155,1.526,0.244,0.061,-169.706,22.478,-15.304
1020,-0.3848,-0.1758,-0.9146,1.221,-0.183,0.183,-169.684,22.478,-15.304
1030,-0.3828,-0.1763,-0.9106,0.305,-0.610,0.366,-169.678,22.489,-15.309
1040,-0.3848,-0.1743,-0.9126,-0.671,-0.732,0.671,-169.684,22.495,-15.315
1050,-0.3857,-0.1719,-0.9150,-1.404,-0.305,1.038,-169.695,22.500,-15.326
1060,-0.3882,-0.1680,-0.9194,-1.709,0.549,1.099,-169.717,22.500,-15.337
1070,-0.3896,-0.1660,-0.9209,-1.709,1.404,0.916,-169.739,22.489,-15.348
1080,-0.3872,-0.1621,-0.9224,-1.404,2.136,0.671,-169.761,22.467,-15.359
1090,-0.3867,-0.1611,-0.9214,-0.732,2.380,0.366,-169.772,22.445,-15.370
1100,-0.3857,-0.1606,-0.9219,-0.183,2.136,0.122,-169.783,22.423,-15.375
1110,-0.3848,-0.1636,-0.9165,0.122,1.587,-0.122,-169.783,22.407,-15.375
1120,-0.3823,-0.1665,-0.9136,-0.061,1.099,-0.244,-169.783,22.396,-15.375
1130,-0.3809,-0.1689,-0.9141,-0.610,0.732,-0.244,-169.783,22.390,-15.375
1140,-0.3809,-0.1670,-0.9170,-1.282,0.244,0.183,-169.799,22.385,-15.375
1150,-0.3848,-0.1655,-0.9175,-1.587,-0.244,0.610,-169.816,22.390,-15.386
1161,-0.3877,-0.1641,-0.9189,-1.465,-0.488,0.671,-169.832,22.396,-15.392
1170,-0.3867,-0.1636,-0.9170,-1.099,-0.427,0.427,-169.843,22.401,-15.392
1180,-0.3853,-0.1636,-0.9204,-0.610,-0.061,0.305,-169.854,22.401,-15.397
1190,-0.3818,-0.1694,-0.9209,-0.183,0.427,0.122,-169.854,22.396,-15.397
1200,-0.3804,-0.1709,-0.9209,-0.305,0.671,0.183,-169.854,22.390,-15.403
1210,-0.3813,-0.1719,-0.9233,-0.793,0.305,0.488,-169.860,22.385,-15.408
1220,-0.3872,-0.1680,-0.9238,-1.038,0.000,0.793,-169.871,22.385,-15.414
1230,-0.3896,-0.1631,-0.9238,-0.977,-0.244,0.671,-169.882,22.390,-15.425
1240,-0.3896,-0.1626,-0.9229,-0.488,-0.244,0.366,-169.893,22.396,-15.425
1250,-0.3887,-0.1641,-0.9238,0.000,-0.366,0.061,-169.893,22.401,-15.425
1260,-0.3877,-0.1665,-0.9209,0.427,-0.671,-0.061,-169.887,22.407,-15.425
1270,-0.3877,-0.1685,-0.9180,0.793,-1.099,-0.061,-169.876,22.418,-15.419
1280,-0.3853,-0.1689,-0.9194,0.977,-1.343,-0.061,-169.860,22.434,-15.419
1290,-0.3853,-0.1719,-0.9170,0.854,-1.465,0.000,-169.843,22.445,-15.414
1300,-0.3872,-0.1729,-0.9146,0.549,-1.221,0.061,-169.832,22.462,-15.414
1310,-0.3853,-0.1733,-0.9136,0.244,-0.671,0.183,-169.827,22.467,-15.414
1320,-0.3857,-0.1733,-0.9116,-0.061,-0.061,0.244,-169.821,22.467,-15.419
1330,-0.3848,-0.1729,-0.9131,-0.305,0.366,0.427,-169.821,22.467,-15.425
1340,-0.3857,-0.1709,-0.9131,-0.427,0.671,0.671,-169.827,22.462,-15.430
1350,-0.3862,-0.1689,-0.9116,-0.488,0.854,0.793,-169.832,22.456,-15.441
1360,-0.3882,-0.1689,-0.9146,-0.427,0.977,0.732,-169.832,22.451,-15.452
1370,-0.3882,-0.1689,-0.9150,-0.122,1.099,0.671,-169.838,22.445,-15.458
1380,-0.3877,-0.1694,-0.9155,0.122,0.977,0.854,-169.838,22.440,-15.469
1390,-0.3853,-0.1685,-0.9189,0.244,0.793,0.977,-169.838,22.429,-15.485
1400,-0.3853,-0.1685,-0.9199,0.305,0.549,0.977,-169.838,22.429,-15.496
1410,-0.3872,-0.1714,-0.9194,0.183,0.488,0.916,-169.832,22.423,-15.507
1420,-0.3867,-0.1714,-0.9209,0.183,0.671,0.854,-169.832,22.418,-15.513
1430,-0.3857,-0.1709,-0.9209,0.061,1.099,0.854,-169.832,22.412,-15.529
1440,-0.3857,-0.1729,-0.9199,-0.183,1.282,0.854,-169.832,22.401,-15.540
1450,-0.3828,-0.1714,-0.9248,-0.427,0.977,1.099,-169.838,22.390,-15.551
1460,-0.3843,-0.1704,-0.9263,-0.305,0.427,1.465,-169.843,22.385,-15.568
1470,-0.3882,-0.1665,-0.9258,0.061,-0.183,1.709,-169.854,22.390,-15.584
1480,-0.3892,-0.1626,-0.9272,0.549,-0.854,1.709,-169.854,22.401,-15.601
1490,-0.3906,-0.1606,-0.9238,1.160,-1.404,1.587,-169.849,22.423,-15.617
1500,-0.3887,-0.1611,-0.9199,1.526,-1.648,1.343,-169.843,22.440,-15.628
1510,-0.3857,-0.1606,-0.9175,1.465,-1.404,1.038,-169.832,22.456,-15.634
1520,-0.3838,-0.1631,-0.9146,0.854,-0.854,0.854,-169.827,22.467,-15.645
1530,-0.3823,-0.1655,-0.9131,-0.122,-0.305,0.732,-169.832,22.473,-15.650
1540,-0.3823,-0.1665,-0.9121,-1.160,0.000,0.732,-169.843,22.473,-15.661
1550,-0.3828,-0.1665,-0.9116,-1.953,0.183,0.732,-169.865,22.473,-15.667
1560,-0.3838,-0.1660,-0.9146,-2.319,0.244,0.854,-169.887,22.467,-15.677
1570,-0.3853,-0.1646,-0.9224,-2.136,0.610,0.916,-169.915,22.462,-15.688
1580,-0.3867,-0.1646,-0.9238,-1.709,1.160,0.977,-169.937,22.451,-15.699
1590,-0.3872,-0.1621,-0.9233,-1.160,1.465,0.916,-169.953,22.440,-15.710
1600,-0.3877,-0.1646,-0.9253,-0.610,1.343,0.854,-169.964,22.429,-15.721
1610,-0.3896,-0.1670,-0.9229,-0.366,0.916,0.610,-169.969,22.423,-15.732
1620,-0.3911,-0.1680,-0.9233,-0.549,0.427,0.488,-169.975,22.423,-15.738
1630,-0.3911,-0.1685,-0.9238,-0.732,0.183,0.427,-169.980,22.423,-15.743
1640,-0.3896,-0.1680,-0.9248,-0.793,0.183,0.427,-169.986,22.423,-15.749
1650,-0.3877,-0.1689,-0.9258,-0.854,0.366,0.488,-169.991,22.418,-15.754
1661,-0.3882,-0.1650,-0.9224,-0.854,0.366,0.671,-170.002,22.418,-15.760
1670,-0.3877,-0.1616,-0.9214,-0.549,0.183,0.793,-170.013,22.418,-15.771
1680,-0.3887,-0.1621,-0.9199,-0.183,-0.183,0.732,-170.019,22.423,-15.776
1690,-0.3862,-0.1616,-0.9180,0.122,-0.732,0.610,-170.019,22.434,-15.782
1700,-0.3843,-0.1616,-0.9131,0.244,-1.221,0.549,-170.013,22.445,-15.787
1710,-0.3857,-0.1631,-0.9092,0.244,-1.343,0.488,-170.013,22.462,-15.787
1720,-0.3838,-0.1641,-0.9077,0.000,-1.038,0.488,-170.013,22.473,-15.793
1730,-0.3813,-0.1636,-0.9102,-0.427,-0.305,0.488,-170.013,22.478,-15.798
1740,-0.3828,-0.1646,-0.9121,-0.549,0.427,0.366,-170.019,22.473,-15.804
1750,-0.3794,-0.1650,-0.9102,-0.305,1.038,0.183,-170.019,22.462,-15.804
1760,-0.3765,-0.1709,-0.9136,-0.122,1.343,0.244,-170.019,22.445,-15.809
1770,-0.3755,-0.1743,-0.9165,-0.244,1.282,0.732,-170.019,22.429,-15.820
1780,-0.3770,-0.1738,-0.9219,-0.549,0.977,1.526,-170.024,22.418,-15.837
1790,-0.3804,-0.1685,-0.9238,-0.732,0.732,2.197,-170.035,22.407,-15.864
1800,-0.3853,-0.1650,-0.9209,-0.610,0.610,2.563,-170.052,22.407,-15.892
1810,-0.3887,-0.1611,-0.9219,-0.244,0.793,2.563,-170.063,22.407,-15.919
1820,-0.3882,-0.1577,-0.9209,0.122,0.977,2.319,-170.074,22.401,-15.947
1830,-0.3882,-0.1597,-0.9189,0.305,1.099,1.953,-170.079,22.396,-15.969
1840,-0.3877,-0.1611,-0.9185,0.305,1.038,1.526,-170.085,22.390,-15.991
1850,-0.3896,-0.1665,-0.9180,-0.244,0.854,1.099,-170.090,22.385,-16.002
1860,-0.3906,-0.1665,-0.9194,-1.099,0.793,0.793,-170.101,22.385,-16.013
1870,-0.3936,-0.1685,-0.9219,-1.770,0.916,0.610,-170.112,22.379,-16.018
1880,-0.3950,-0.1689,-0.9238,-2.197,1.282,0.549,-170.134,22.374,-16.029
1890,-0.3936,-0.1665,-0.9287,-2.014,1.465,0.427,-170.156,22.363,-16.035
1900,-0.3892,-0.1675,-0.9321,-1.343,1.465,0.488,-170.167,22.346,-16.046
1910,-0.3882,-0.1680,-0.9326,-0.366,0.916,0.610,-170.173,22.341,-16.051
1920,-0.3843,-0.1660,-0.9297,0.732,0.000,0.793,-170.162,22.341,-16.062
1930,-0.3828,-0.1680,-0.9268,1.648,-0.977,0.854,-170.145,22.346,-16.068
1940,-0.3823,-0.1665,-0.9233,2.319,-1.709,0.977,-170.123,22.363,-16.073
1950,-0.3813,-0.1655,-0.9160,2.686,-1.892,0.916,-170.096,22.385,-16.078
1960,-0.3828,-0.1655,-0.9087,2.563,-1.404,0.854,-170.068,22.401,-16.089
1970,-0.3843,-0.1616,-0.9072,1.953,-0.732,0.916,-170.046,22.412,-16.095
1980,-0.3843,-0.1602,-0.9087,1.160,0.183,0.977,-170.041,22.412,-16.106
1990,-0.3828,-0.1538,-0.9087,0.671,1.099,0.916,-170.041,22.407,-16.117
2000,-0.3853,-0.1475,-0.9126,0.610,1.648,0.793,-170.046,22.390,-16.128
2010,-0.3862,-0.1440,-0.9160,1.099,1.831,0.427,-170.052,22.379,-16.139
2020,-0.3867,-0.1416,-0.9175,1.648,1.648,0.000,-170.046,22.363,-16.139
2030,-0.3872,-0.1421,-0.9204,1.953,1.343,-0.488,-170.041,22.352,-16.139
2040,-0.3857,-0.1436,-0.9224,1.770,1.221,-0.854,-170.030,22.341,-16.133
2050,-0.3853,-0.1484,-0.9229,1.221,1.160,-1.160,-170.019,22.324,-16.122
2060,-0.3867,-0.1479,-0.9248,0.305,1.099,-1.404,-170.024,22.313,-16.106
2070,-0.3843,-0.1504,-0.9282,-0.427,1.038,-1.465,-170.030,22.302,-16.095
2080,-0.3809,-0.1553,-0.9287,-0.854,1.099,-1.648,-170.035,22.286,-16.078
2090,-0.3794,-0.1602,-0.9292,-1.343,1.099,-1.831,-170.046,22.269,-16.062
2100,-0.3765,-0.1616,-0.9287,-1.526,1.038,-1.953,-170.052,22.247,-16.046
2110,-0.3760,-0.1680,-0.9272,-1.465,1.160,-2.075,-170.057,22.231,-16.024
2120,-0.3760,-0.1689,-0.9258,-1.343,1.282,-2.075,-170.057,22.209,-16.002
2130,-0.3804,-0.1714,-0.9209,-1.038,1.404,-2.075,-170.057,22.192,-15.985
2140,-0.3799,-0.1729,-0.9204,-0.610,1.526,-2.075,-170.046,22.170,-15.963
2150,-0.3809,-0.1714,-0.9189,0.122,1.709,-2.197,-170.035,22.148,-15.947
2161,-0.3838,-0.1792,-0.9150,0.793,2.075,-2.319,-170.008,22.126,-15.925
2170,-0.3843,-0.1841,-0.9141,0.793,2.747,-2.197,-169.980,22.099,-15.908
2180,-0.3828,-0.1870,-0.9116,-0.122,3.296,-1.770,-169.958,22.066,-15.892
2190,-0.3809,-0.1919,-0.9111,-1.526,3.357,-1.282,-169.953,22.033,-15.886
2200,-0.3774,-0.1919,-0.9165,-2.991,3.296,-0.671,-169.964,22.000,-15.886
2210,-0.3760,-0.1885,-0.9238,-4.211,3.113,0.061,-169.991,21.967,-15.892
2220,-0.3794,-0.1846,-0.9297,-4.578,3.113,0.732,-170.030,21.940,-15.903
2230,-0.3799,-0.1807,-0.9365,-3.845,3.296,0.977,-170.068,21.907,-15.919
2240,-0.3779,-0.1787,-0.9414,-2.563,3.235,1.221,-170.090,21.874,-15.941
2250,-0.3794,-0.1729,-0.9453,-1.038,2.808,1.343,-170.101,21.846,-15.958
2260,-0.3774,-0.1724,-0.9443,0.183,1.892,1.587,-170.107,21.824,-15.980
2270,-0.3765,-0.1714,-0.9429,0.793,0.488,1.709,-170.101,21.819,-16.002
2280,-0.3789,-0.1699,-0.9395,1.038,-1.099,1.770,-170.090,21.830,-16.018
2290,-0.3789,-0.1670,-0.9375,1.099,-2.380,1.770,-170.085,21.857,-16.029
2300,-0.3804,-0.1611,-0.9312,1.160,-3.052,1.831,-170.079,21.890,-16.046
2310,-0.3799,-0.1602,-0.9243,1.282,-3.296,1.770,-170.074,21.923,-16.057
2320,-0.3809,-0.1592,-0.9204,1.282,-3.113,1.770,-170.063,21.962,-16.068
2330,-0.3789,-0.1572,-0.9170,1.099,-2.808,1.648,-170.063,21.995,-16.084
2340,-0.3774,-0.1562,-0.9146,0.854,-2.319,1.587,-170.057,22.022,-16.095
2350,-0.3750,-0.1538,-0.9136,0.488,-1.770,1.587,-170.063,22.039,-16.106
2360,-0.3755,-0.1538,-0.9136,-0.061,-1.282,1.648,-170.074,22.055,-16.122
2370,-0.3740,-0.1548,-0.9121,-0.549,-0.793,1.648,-170.090,22.066,-16.139
2380,-0.3765,-0.1523,-0.9165,-0.977,-0.366,1.587,-170.107,22.072,-16.155
2390,-0.3765,-0.1538,-0.9209,-1.099,0.061,1.526,-170.129,22.072,-16.172
2400,-0.3755,-0.1543,-0.9214,-1.160,0.305,1.526,-170.151,22.072,-16.188
2410,-0.3779,-0.1504,-0.9229,-0.977,0.122,1.587,-170.173,22.072,-16.205
2420,-0.3804,-0.1523,-0.9268,-0.549,-0.427,1.465,-170.189,22.077,-16.221
2430,-0.3823,-0.1553,-0.9272,-0.183,-1.221,1.160,-170.195,22.094,-16.232
2440,-0.3838,-0.1538,-0.9253,0.122,-1.953,0.854,-170.200,22.115,-16.238
2450,-0.3862,-0.1567,-0.9224,0.305,-2.380,0.671,-170.200,22.143,-16.238
2460,-0.3843,-0.1582,-0.9204,0.427,-2.625,0.488,-170.195,22.170,-16.238
2470,-0.3853,-0.1602,-0.9209,0.366,-2.625,0.305,-170.195,22.198,-16.238
2480,-0.3872,-0.1626,-0.9185,0.244,-2.441,0.122,-170.189,22.225,-16.232
2490,-0.3862,-0.1655,-0.9189,0.000,-1.892,0.000,-170.184,22.247,-16.232
2500,-0.3823,-0.1655,-0.9229,-0.305,-1.282,-0.122,-170.178,22.258,-16.227
2510,-0.3818,-0.1665,-0.9209,-0.671,-0.732,-0.183,-170.178,22.264,-16.227
2520,-0.3823,-0.1660,-0.9199,-0.793,-0.549,-0.061,-170.184,22.269,-16.221
2530,-0.3813,-0.1655,-0.9209,-0.427,-0.610,-0.061,-170.184,22.275,-16.221
2540,-0.3823,-0.1665,-0.9189,0.122,-0.732,-0.183,-170.178,22.286,-16.216
2550,-0.3823,-0.1685,-0.9185,0.732,-0.854,-0.122,-170.162,22.291,-16.216
2560,-0.3833,-0.1714,-0.9165,1.160,-1.099,0.122,-170.145,22.302,-16.216
2570,-0.3857,-0.1714,-0.9121,1.221,-1.282,0.427,-170.123,22.319,-16.216
2580,-0.3843,-0.1719,-0.9116,0.977,-1.343,0.671,-170.107,22.335,-16.221
2590,-0.3857,-0.1694,-0.9116,0.732,-1.038,0.854,-170.096,22.346,-16.227
2600,-0.3862,-0.1660,-0.9097,0.549,-0.610,0.732,-170.090,22.357,-16.232
2610,-0.3857,-0.1670,-0.9116,0.427,-0.061,0.244,-170.079,22.363,-16.238
2620,-0.3848,-0.1641,-0.9146,-0.122,0.244,-0.366,-170.079,22.363,-16.232
2630,-0.3813,-0.1670,-0.9185,-0.916,0.183,-0.977,-170.079,22.357,-16.221
2640,-0.3813,-0.1646,-0.9219,-1.831,-0.244,-1.526,-170.090,22.352,-16.205
2650,-0.3818,-0.1621,-0.9238,-2.441,-0.732,-2.014,-170.107,22.357,-16.183
2661,-0.3843,-0.1602,-0.9282,-2.625,-1.221,-2.197,-170.123,22.363,-16.161
2670,-0.3872,-0.1577,-0.9307,-2.258,-1.343,-2.197,-170.140,22.374,-16.133
2680,-0.3872,-0.1538,-0.9302,-1.526,-1.160,-2.014,-170.151,22.379,-16.111
2690,-0.3882,-0.1548,-0.9312,-0.793,-0.854,-1.587,-170.156,22.385,-16.089
2700,-0.3848,-0.1548,-0.9292,0.000,-0.549,-1.099,-170.151,22.385,-16.078
2710,-0.3838,-0.1577,-0.9243,0.732,-0.488,-0.854,-170.145,22.390,-16.068
2720,-0.3818,-0.1567,-0.9214,0.916,-0.793,-0.671,-170.134,22.396,-16.057
2730,-0.3838,-0.1533,-0.9204,0.183,-1.221,-0.366,-170.134,22.407,-16.051
2740,-0.3862,-0.1509,-0.9180,-0.427,-1.648,0.000,-170.140,22.423,-16.051
2750,-0.3892,-0.1479,-0.9150,-0.732,-1.526,0.183,-170.156,22.440,-16.051
2760,-0.3901,-0.1489,-0.9150,-0.549,-0.916,-0.122,-170.167,22.451,-16.046
2770,-0.3892,-0.1499,-0.9150,0.122,0.000,-0.671,-170.167,22.456,-16.040
2780,-0.3896,-0.1567,-0.9199,1.404,1.221,-1.343,-170.151,22.445,-16.029
2790,-0.3872,-0.1606,-0.9297,3.235,2.625,-1.953,-170.112,22.412,-16.013
2800,-0.3823,-0.1694,-0.9355,6.042,3.723,-2.136,-170.041,22.368,-15.996
2810,-0.3818,-0.1792,-0.9404,9.033,4.395,-1.831,-169.942,22.313,-15.985
2820,-0.3809,-0.1821,-0.9399,11.292,4.639,-1.404,-169.816,22.264,-15.980
2830,-0.3828,-0.1860,-0.9355,12.329,4.395,-0.854,-169.684,22.214,-15.974
2840,-0.3848,-0.1890,-0.9321,12.146,3.601,-0.244,-169.552,22.176,-15.980
2850,-0.3848,-0.1880,-0.9282,11.047,2.380,0.183,-169.437,22.154,-15.985
2860,-0.3843,-0.1885,-0.9189,9.094,0.977,0.488,-169.338,22.143,-15.996
2870,-0.3838,-0.1865,-0.9160,6.592,-0.305,0.671,-169.266,22.154,-16.002
2880,-0.3838,-0.1836,-0.9121,4.028,-1.221,0.732,-169.222,22.165,-16.007
2890,-0.3828,-0.1782,-0.9102,1.831,-1.648,0.671,-169.206,22.187,-16.013
2900,-0.3838,-0.1733,-0.9053,0.183,-1.709,0.610,-169.200,22.209,-16.013
2910,-0.3818,-0.1709,-0.9033,-0.793,-1.343,0.305,-169.211,22.225,-16.013
2920,-0.3809,-0.1724,-0.9038,-1.099,-0.610,0.061,-169.222,22.236,-16.013
2930,-0.3774,-0.1729,-0.9028,-0.854,0.366,-0.061,-169.228,22.231,-16.013
2940,-0.3750,-0.1738,-0.9038,-0.427,1.465,-0.061,-169.233,22.220,-16.018
2950,-0.3774,-0.1777,-0.9063,-0.061,2.441,0.122,-169.233,22.192,-16.024
2960,-0.3760,-0.1802,-0.9092,0.061,2.991,0.549,-169.233,22.165,-16.035
2970,-0.3789,-0.1787,-0.9111,-0.183,2.991,0.793,-169.239,22.137,-16.051
2980,-0.3779,-0.1787,-0.9155,-0.549,2.625,0.916,-169.244,22.115,-16.062
2990,-0.3794,-0.1777,-0.9170,-1.038,2.075,1.160,-169.261,22.094,-16.078
3000,-0.3833,-0.1758,-0.9214,-1.526,1.465,1.343,-169.283,22.083,-16.095
3010,-0.3833,-0.1733,-0.9199,-1.831,1.038,1.282,-169.305,22.077,-16.111
3020,-0.3848,-0.1748,-0.9209,-2.014,0.916,1.099,-169.327,22.072,-16.128
3030,-0.3857,-0.1743,-0.9185,-1.892,0.854,0.854,-169.349,22.072,-16.139
3040,-0.3838,-0.1738,-0.9180,-1.648,0.916,0.610,-169.371,22.066,-16.144
3051,-0.3823,-0.1787,-0.9180,-1.343,0.916,0.427,-169.382,22.061,-16.150
3060,-0.3794,-0.1812,-0.9219,-1.404,0.793,0.427,-169.393,22.050,-16.155
3070,-0.3774,-0.1821,-0.9175,-1.465,0.671,0.549,-169.404,22.044,-16.166
3081,-0.3794,-0.1821,-0.9189,-1.282,0.427,0.732,-169.415,22.044,-16.172
3091,-0.3774,-0.1807,-0.9180,-0.854,0.305,0.977,-169.420,22.039,-16.183
3101,-0.3765,-0.1816,-0.9155,-0.366,0.305,1.160,-169.420,22.039,-16.199
3111,-0.3770,-0.1812,-0.9180,-0.061,0.366,1.221,-169.420,22.039,-16.210
3120,-0.3770,-0.1812,-0.9146,0.000,0.671,1.282,-169.420,22.033,-16.227
3131,-0.3779,-0.1807,-0.9141,-0.244,1.038,1.343,-169.426,22.028,-16.243
3141,-0.3750,-0.1777,-0.9136,-0.854,1.221,1.648,-169.437,22.017,-16.260
3151,-0.3765,-0.1748,-0.9126,-1.404,1.282,1.892,-169.453,22.006,-16.287
3161,-0.3755,-0.1738,-0.9150,-1.831,1.343,2.014,-169.481,21.995,-16.309
3171,-0.3774,-0.1675,-0.9155,-2.075,1.160,2.014,-169.508,21.989,-16.331
3181,-0.3799,-0.1699,-0.9185,-2.075,1.038,1.892,-169.541,21.984,-16.353
3191,-0.3799,-0.1670,-0.9189,-2.014,0.854,1.770,-169.568,21.984,-16.375
3201,-0.3809,-0.1650,-0.9194,-1.953,0.671,1.648,-169.596,21.978,-16.392
3211,-0.3828,-0.1606,-0.9170,-2.136,0.549,1.648,-169.629,21.984,-16.414
3221,-0.3794,-0.1616,-0.9146,-2.197,0.488,1.648,-169.662,21.984,-16.430
3231,-0.3774,-0.1646,-0.9170,-2.380,0.610,1.404,-169.695,21.978,-16.447
3241,-0.3774,-0.1636,-0.9194,-2.930,0.549,1.160,-169.728,21.978,-16.458
3251,-0.3779,-0.1646,-0.9189,-3.662,0.610,1.099,-169.772,21.973,-16.474
3261,-0.3740,-0.1636,-0.9209,-4.395,0.671,0.854,-169.821,21.967,-16.485
3271,-0.3750,-0.1655,-0.9224,-4.944,0.671,0.549,-169.871,21.956,-16.490
3281,-0.3765,-0.1631,-0.9233,-5.371,0.366,0.183,-169.926,21.956,-16.490
3291,-0.3765,-0.1616,-0.9258,-5.676,0.122,-0.122,-169.986,21.951,-16.490
3301,-0.3813,-0.1606,-0.9302,-6.104,-0.061,-0.061,-170.046,21.951,-16.490
3310,-0.3833,-0.1582,-0.9312,-6.470,0.000,0.000,-170.112,21.956,-16.490
3321,-0.3809,-0.1562,-0.9316,-6.287,0.488,-0.244,-170.178,21.951,-16.490
3331,-0.3813,-0.1582,-0.9331,-5.371,1.099,-0.488,-170.233,21.940,-16.485
3341,-0.3809,-0.1597,-0.9360,-4.150,1.465,-0.610,-170.272,21.923,-16.485
3351,-0.3779,-0.1597,-0.9355,-3.174,1.282,-0.610,-170.305,21.907,-16.479
3361,-0.3779,-0.1577,-0.9370,-2.319,0.732,-0.610,-170.327,21.896,-16.474
3371,-0.3779,-0.1606,-0.9355,-1.282,0.122,-0.793,-170.338,21.890,-16.463
3381,-0.3779,-0.1606,-0.9355,0.122,-0.061,-1.160,-170.327,21.890,-16.452
3391,-0.3779,-0.1636,-0.9346,1.709,0.366,-1.587,-170.305,21.879,-16.436
3401,-0.3774,-0.1655,-0.9355,3.357,0.732,-1.831,-170.261,21.868,-16.419
3411,-0.3765,-0.1685,-0.9365,4.883,0.854,-1.892,-170.200,21.852,-16.397
3421,-0.3765,-0.1699,-0.9336,6.409,0.610,-1.892,-170.123,21.841,-16.381
3431,-0.3745,-0.1768,-0.9287,7.507,0.244,-1.831,-170.035,21.835,-16.364
3441,-0.3770,-0.1860,-0.9263,7.507,0.000,-1.648,-169.942,21.830,-16.342
3451,-0.3760,-0.1870,-0.9194,6.226,-0.122,-0.977,-169.860,21.830,-16.331
3461,-0.3740,-0.1870,-0.9175,4.211,-0.183,-0.061,-169.805,21.830,-16.331
3471,-0.3735,-0.1816,-0.9150,2.197,-0.244,0.854,-169.777,21.835,-16.342
3481,-0.3765,-0.1763,-0.9170,0.732,-0.366,1.343,-169.766,21.841,-16.353
3491,-0.3770,-0.1733,-0.9189,-0.061,-0.244,1.465,-169.766,21.846,-16.370
3501,-0.3774,-0.1714,-0.9170,-0.427,-0.122,1.282,-169.772,21.852,-16.381
3511,-0.3750,-0.1724,-0.9155,-0.732,0.061,1.282,-169.783,21.857,-16.397
3521,-0.3750,-0.1724,-0.9170,-1.343,0.305,1.526,-169.794,21.857,-16.414
3531,-0.3755,-0.1699,-0.9175,-2.197,0.366,1.770,-169.821,21.857,-16.436
3541,-0.3750,-0.1660,-0.9189,-2.808,0.366,1.892,-169.860,21.857,-16.452
3551,-0.3730,-0.1641,-0.9238,-2.869,0.366,2.014,-169.893,21.857,-16.474
3561,-0.3740,-0.1636,-0.9263,-2.380,0.183,2.136,-169.926,21.857,-16.501
3571,-0.3730,-0.1606,-0.9282,-1.221,0.000,2.136,-169.948,21.857,-16.523
3581,-0.3740,-0.1626,-0.9258,0.427,-0.122,1.953,-169.953,21.857,-16.540
3591,-0.3750,-0.1631,-0.9268,1.770,-0.244,1.831,-169.942,21.863,-16.562
3601,-0.3779,-0.1675,-0.9229,2.380,-0.305,1.831,-169.926,21.874,-16.578
3611,-0.3789,-0.1694,-0.9238,2.014,-0.305,2.014,-169.909,21.879,-16.600
3621,-0.3789,-0.1724,-0.9219,0.916,-0.183,2.075,-169.904,21.885,-16.622
3631,-0.3809,-0.1685,-0.9219,-0.488,-0.122,2.014,-169.915,21.890,-16.644
3641,-0.3823,-0.1655,-0.9258,-1.648,0.000,1.831,-169.937,21.896,-16.661
3651,-0.3799,-0.1646,-0.9292,-2.014,0.000,1.709,-169.964,21.901,-16.683
3661,-0.3779,-0.1646,-0.9282,-1.587,-0.122,1.709,-169.986,21.907,-16.699
3671,-0.3779,-0.1616,-0.9297,-0.610,-0.427,1.709,-170.002,21.912,-16.716
3681,-0.3784,-0.1592,-0.9263,0.671,-0.793,1.587,-170.002,21.923,-16.732
3691,-0.3774,-0.1606,-0.9238,1.709,-1.160,1.404,-169.991,21.934,-16.743
3701,-0.3770,-0.1602,-0.9189,2.258,-1.282,1.221,-169.975,21.951,-16.754
3711,-0.3774,-0.1631,-0.9165,2.197,-1.282,0.977,-169.953,21.967,-16.765
3721,-0.3765,-0.1621,-0.9136,1.465,-1.038,0.916,-169.942,21.978,-16.771
3731,-0.3765,-0.1621,-0.9121,0.610,-0.732,0.916,-169.937,21.989,-16.782
3741,-0.3774,-0.1626,-0.9126,-0.244,-0.366,0.977,-169.942,21.995,-16.787
3751,-0.3784,-0.1616,-0.9131,-0.671,0.061,0.916,-169.953,22.000,-16.798
3761,-0.3779,-0.1611,-0.9131,-0.854,0.366,0.854,-169.969,22.000,-16.809
3771,-0.3779,-0.1606,-0.9146,-0.732,0.610,0.854,-169.980,21.995,-16.820
3781,-0.3765,-0.1592,-0.9185,-0.549,0.793,0.793,-169.991,21.989,-16.831
3791,-0.3794,-0.1631,-0.9199,-0.183,0.916,0.671,-169.997,21.984,-16.837
3801,-0.3779,-0.1650,-0.9219,0.122,0.977,0.427,-169.991,21.973,-16.842
3811,-0.3779,-0.1670,-0.9219,0.244,1.099,0.183,-169.991,21.962,-16.848
3821,-0.3765,-0.1675,-0.9258,0.061,1.160,0.183,-169.991,21.951,-16.853
3831,-0.3784,-0.1685,-0.9263,-0.122,0.977,0.305,-169.991,21.940,-16.859
3841,-0.3774,-0.1685,-0.9302,-0.305,0.488,0.366,-169.991,21.934,-16.864
3851,-0.3804,-0.1694,-0.9292,-0.366,-0.122,0.366,-169.991,21.940,-16.864
3861,-0.3823,-0.1670,-0.9292,-0.122,-0.671,0.244,-169.991,21.945,-16.864
3871,-0.3804,-0.1685,-0.9263,0.366,-0.854,0.183,-169.986,21.956,-16.870
3881,-0.3794,-0.1680,-0.9233,0.671,-0.977,0.183,-169.975,21.967,-16.870
3891,-0.3770,-0.1685,-0.9204,0.854,-1.099,0.366,-169.964,21.978,-16.870
3901,-0.3784,-0.1694,-0.9209,0.977,-1.160,0.488,-169.953,21.989,-16.870
3911,-0.3784,-0.1665,-0.9194,1.038,-0.916,0.488,-169.942,22.000,-16.875
3921,-0.3799,-0.1660,-0.9209,1.343,-0.427,0.305,-169.926,22.006,-16.880
3931,-0.3794,-0.1660,-0.9214,2.136,0.244,0.000,-169.904,22.006,-16.880
3941,-0.3740,-0.1704,-0.9185,3.479,0.549,-0.244,-169.865,21.995,-16.875
3951,-0.3750,-0.1743,-0.9180,4.822,0.366,-0.244,-169.810,21.989,-16.875
3961,-0.3779,-0.1792,-0.9150,5.676,0.061,-0.061,-169.744,21.989,-16.875
3971,-0.3789,-0.1802,-0.9121,5.798,0.000,0.183,-169.678,21.995,-16.875
3981,-0.3774,-0.1826,-0.9116,5.249,0.366,0.488,-169.618,21.989,-16.880
3991,-0.3774,-0.1836,-0.9121,3.967,0.916,0.916,-169.574,21.984,-16.891
4001,-0.3765,-0.1841,-0.9150,2.136,1.221,1.221,-169.552,21.973,-16.908
4011,-0.3774,-0.1768,-0.9214,0.366,1.160,1.648,-169.552,21.967,-16.930
4021,-0.3799,-0.1743,-0.9277,-0.916,0.916,1.831,-169.563,21.962,-16.952
4031,-0.3799,-0.1704,-0.9282,-1.343,0.671,1.770,-169.585,21.956,-16.968
4041,-0.3799,-0.1660,-0.9292,-0.916,0.305,1.465,-169.601,21.956,-16.985
4051,-0.3799,-0.1675,-0.9316,0.183,-0.061,1.221,-169.607,21.956,-17.001
4061,-0.3794,-0.1680,-0.9302,1.343,-0.366,0.977,-169.601,21.962,-17.007
4071,-0.3799,-0.1709,-0.9307,2.197,-0.488,0.854,-169.579,21.967,-17.018
4081,-0.3784,-0.1689,-0.9268,2.502,-0.427,0.854,-169.563,21.973,-17.023
4091,-0.3774,-0.1694,-0.9243,2.502,-0.122,1.038,-169.541,21.973,-17.034
4101,-0.3794,-0.1694,-0.9224,2.136,0.061,1.160,-169.525,21.978,-17.051
4111,-0.3794,-0.1694,-0.9243,1.648,-0.061,1.160,-169.514,21.978,-17.062
4121,-0.3789,-0.1685,-0.9224,1.038,-0.366,0.977,-169.508,21.984,-17.073
4131,-0.3755,-0.1694,-0.9238,0.488,-0.610,0.854,-169.508,21.989,-17.078
4141,-0.3765,-0.1685,-0.9214,0.061,-0.732,0.732,-169.508,22.000,-17.084
4151,-0.3794,-0.1675,-0.9199,-0.122,-0.671,0.732,-169.514,22.006,-17.089
4161,-0.3774,-0.1665,-0.9199,-0.183,-0.427,0.732,-169.525,22.011,-17.100
4171,-0.3789,-0.1675,-0.9175,-0.183,-0.244,0.671,-169.530,22.017,-17.106
4181,-0.3779,-0.1670,-0.9180,-0.122,-0.183,0.488,-169.530,22.022,-17.111
4191,-0.3779,-0.1670,-0.9160,-0.305,-0.183,0.366,-169.536,22.022,-17.111
4201,-0.3784,-0.1685,-0.9136,-0.549,0.000,0.305,-169.547,22.022,-17.117
4211,-0.3804,-0.1670,-0.9141,-0.916,0.244,0.244,-169.557,22.028,-17.117
4221,-0.3794,-0.1650,-0.9194,-0.916,0.427,0.244,-169.568,22.022,-17.122
4231,-0.3813,-0.1641,-0.9189,-0.488,0.549,0.122,-169.579,22.017,-17.122
4241,-0.3823,-0.1646,-0.9214,0.122,0.488,-0.122,-169.579,22.017,-17.122
4251,-0.3813,-0.1665,-0.9185,0.671,0.305,-0.488,-169.574,22.017,-17.122
4261,-0.3809,-0.1689,-0.9170,0.854,0.183,-0.793,-169.563,22.011,-17.111
4271,-0.3799,-0.1719,-0.9165,0.671,0.183,-0.916,-169.547,22.011,-17.100
4281,-0.3784,-0.1753,-0.9170,0.122,0.183,-0.854,-169.541,22.011,-17.095
4291,-0.3789,-0.1772,-0.9185,-0.610,0.305,-0.671,-169.541,22.006,-17.089
4301,-0.3760,-0.1772,-0.9209,-1.221,0.427,-0.488,-169.547,22.000,-17.084
4311,-0.3760,-0.1763,-0.9233,-1.709,0.549,-0.305,-169.557,21.989,-17.078
4321,-0.3789,-0.1738,-0.9248,-1.770,0.549,-0.122,-169.574,21.984,-17.078
4331,-0.3804,-0.1719,-0.9233,-1.465,0.366,-0.122,-169.585,21.984,-17.078
4341,-0.3823,-0.1738,-0.9248,-0.916,0.183,-0.305,-169.590,21.978,-17.078
4351,-0.3794,-0.1763,-0.9258,-0.366,0.122,-0.427,-169.590,21.978,-17.073
4361,-0.3809,-0.1777,-0.9263,0.000,0.122,-0.427,-169.585,21.978,-17.067
4371,-0.3799,-0.1831,-0.9282,-0.061,0.305,-0.244,-169.579,21.973,-17.067
4381,-0.3770,-0.1816,-0.9277,-0.732,0.366,0.061,-169.579,21.967,-17.067
4391,-0.3760,-0.1807,-0.9292,-1.587,0.244,0.549,-169.590,21.962,-17.073
4401,-0.3779,-0.1758,-0.9312,-2.075,-0.122,0.793,-169.612,21.962,-17.084
4411,-0.3789,-0.1733,-0.9282,-1.953,-0.610,0.793,-169.629,21.967,-17.089
4421,-0.3784,-0.1743,-0.9258,-1.709,-1.099,0.732,-169.645,21.978,-17.095
4431,-0.3799,-0.1748,-0.9229,-1.648,-1.587,0.671,-169.662,21.995,-17.100
4441,-0.3804,-0.1724,-0.9199,-2.075,-1.831,0.732,-169.678,22.017,-17.106
4451,-0.3823,-0.1714,-0.9180,-2.380,-1.831,0.854,-169.706,22.039,-17.111
4461,-0.3813,-0.1699,-0.9189,-2.502,-1.526,0.916,-169.728,22.055,-17.117
4471,-0.3813,-0.1685,-0.9180,-2.380,-1.160,0.916,-169.755,22.072,-17.122
4481,-0.3828,-0.1685,-0.9175,-2.075,-0.793,0.793,-169.777,22.083,-17.128
4491,-0.3789,-0.1660,-0.9189,-1.587,-0.427,0.732,-169.794,22.088,-17.139
4501,-0.3804,-0.1665,-0.9194,-0.916,-0.305,0.671,-169.805,22.094,-17.144
4511,-0.3794,-0.1680,-0.9185,-0.244,-0.183,0.549,-169.805,22.099,-17.150
4521,-0.3794,-0.1694,-0.9189,0.061,-0.366,0.549,-169.805,22.099,-17.155
4531,-0.3794,-0.1689,-0.9160,0.061,-0.671,0.610,-169.805,22.110,-17.161
4541,-0.3818,-0.1704,-0.9146,-0.061,-0.793,0.610,-169.805,22.121,-17.166
4551,-0.3838,-0.1675,-0.9165,-0.427,-0.671,0.549,-169.810,22.132,-17.166
4561,-0.3843,-0.1675,-0.9165,-1.099,-0.305,0.488,-169.821,22.137,-17.172
4571,-0.3823,-0.1650,-0.9170,-1.770,0.183,0.366,-169.838,22.137,-17.177
4581,-0.3813,-0.1650,-0.9199,-2.319,0.244,0.244,-169.860,22.137,-17.183
4591,-0.3804,-0.1689,-0.9268,-2.869,0.244,0.122,-169.887,22.132,-17.183
4601,-0.3789,-0.1660,-0.9292,-3.357,-0.061,0.122,-169.920,22.132,-17.183
4611,-0.3794,-0.1616,-0.9297,-3.723,-0.427,0.183,-169.964,22.132,-17.183
4621,-0.3823,-0.1553,-0.9297,-3.723,-0.854,0.122,-170.002,22.143,-17.183
4631,-0.3828,-0.1519,-0.9263,-3.296,-1.282,-0.122,-170.041,22.154,-17.183
4641,-0.3828,-0.1528,-0.9224,-2.502,-1.709,-0.549,-170.068,22.170,-17.172
4651,-0.3809,-0.1548,-0.9238,-1.709,-1.831,-0.977,-170.085,22.187,-17.161
4661,-0.3804,-0.1572,-0.9238,-1.160,-1.770,-1.099,-170.096,22.203,-17.144
4671,-0.3818,-0.1587,-0.9214,-0.671,-1.465,-1.099,-170.096,22.214,-17.128
4681,-0.3809,-0.1597,-0.9238,-0.305,-0.977,-1.160,-170.096,22.220,-17.117
4691,-0.3789,-0.1587,-0.9238,-0.061,-0.793,-1.160,-170.090,22.225,-17.100
4701,-0.3789,-0.1592,-0.9209,0.000,-0.732,-1.099,-170.090,22.225,-17.089
4711,-0.3813,-0.1572,-0.9194,0.000,-0.916,-1.038,-170.085,22.236,-17.073
4721,-0.3818,-0.1592,-0.9194,-0.183,-1.160,-0.977,-170.085,22.247,-17.062
4731,-0.3853,-0.1577,-0.9165,-0.427,-1.282,-1.099,-170.085,22.258,-17.051
4741,-0.3833,-0.1587,-0.9146,-0.732,-1.282,-1.160,-170.085,22.269,-17.034
4751,-0.3848,-0.1611,-0.9180,-0.977,-1.343,-1.282,-170.090,22.280,-17.018
4761,-0.3867,-0.1626,-0.9160,-1.099,-1.343,-1.526,-170.090,22.297,-17.001
4771,-0.3867,-0.1636,-0.9165,-0.977,-1.221,-1.709,-170.090,22.308,-16.979
4781,-0.3828,-0.1660,-0.9165,-0.793,-1.160,-1.770,-170.085,22.319,-16.957
4791,-0.3823,-0.1694,-0.9175,-0.854,-1.160,-1.648,-170.085,22.324,-16.935
4801,-0.3823,-0.1704,-0.9170,-0.977,-1.038,-1.465,-170.079,22.330,-16.919
4811,-0.3828,-0.1729,-0.9209,-1.160,-0.854,-1.221,-170.079,22.335,-16.908
4821,-0.3872,-0.1689,-0.9204,-1.221,-0.671,-1.038,-170.079,22.341,-16.891
4831,-0.3882,-0.1685,-0.9209,-1.099,-0.610,-0.977,-170.085,22.352,-16.880
4841,-0.3892,-0.1685,-0.9229,-0.854,-0.549,-0.977,-170.085,22.357,-16.870
4851,-0.3906,-0.1685,-0.9258,-0.610,-0.610,-0.916,-170.079,22.363,-16.859
4861,-0.3877,-0.1714,-0.9204,-0.305,-0.793,-0.854,-170.074,22.368,-16.848
4871,-0.3887,-0.1714,-0.9170,-0.061,-1.038,-0.793,-170.063,22.379,-16.837
4881,-0.3887,-0.1714,-0.9165,0.061,-1.221,-0.610,-170.052,22.396,-16.831
4891,-0.3877,-0.1709,-0.9155,0.183,-1.282,-0.488,-170.041,22.407,-16.820
4901,-0.3848,-0.1719,-0.9136,0.183,-1.221,-0.366,-170.030,22.418,-16.815
4911,-0.3857,-0.1733,-0.9150,0.183,-1.038,-0.305,-170.019,22.429,-16.809
4921,-0.3823,-0.1729,-0.9146,0.183,-0.793,-0.244,-170.008,22.434,-16.809
4931,-0.3818,-0.1719,-0.9121,0.183,-0.549,-0.061,-170.002,22.440,-16.804
4941,-0.3809,-0.1738,-0.9111,0.305,-0.366,0.183,-169.991,22.445,-16.804
4951,-0.3823,-0.1724,-0.9092,0.488,-0.305,0.366,-169.980,22.445,-16.809
4961,-0.3838,-0.1704,-0.9082,0.610,-0.061,0.610,-169.969,22.451,-16.815
4971,-0.3838,-0.1719,-0.9082,0.610,0.427,0.793,-169.958,22.451,-16.826
4981,-0.3828,-0.1699,-0.9111,0.488,1.038,0.977,-169.953,22.440,-16.837
4991,-0.3823,-0.1685,-0.9146,0.305,1.648,1.221,-169.953,22.423,-16.853
5001,-0.3838,-0.1655,-0.9141,0.000,1.892,1.343,-169.958,22.407,-16.870
5011,-0.3857,-0.1616,-0.9189,-0.427,1.831,1.343,-169.969,22.396,-16.891
5021,-0.3843,-0.1587,-0.9209,-0.671,1.648,1.282,-169.986,22.379,-16.908
5031,-0.3892,-0.1543,-0.9204,-0.549,1.343,1.099,-170.002,22.374,-16.919
5041,-0.3882,-0.1494,-0.9229,-0.183,1.282,0.732,-170.013,22.363,-16.930
5051,-0.3862,-0.1475,-0.9229,0.366,1.221,0.244,-170.019,22.352,-16.935
5061,-0.3872,-0.1494,-0.9194,0.854,1.160,-0.244,-170.019,22.341,-16.935
5071,-0.3843,-0.1514,-0.9150,1.221,1.099,-0.610,-170.013,22.330,-16.930
5081,-0.3818,-0.1558,-0.9146,1.038,0.977,-0.854,-170.002,22.319,-16.924
5091,-0.3818,-0.1597,-0.9160,0.427,0.977,-0.977,-169.997,22.308,-16.913
5101,-0.3818,-0.1626,-0.9175,-0.549,1.160,-1.099,-169.997,22.297,-16.902
5111,-0.3804,-0.1646,-0.9233,-1.587,1.648,-0.977,-170.008,22.275,-16.897
5121,-0.3799,-0.1665,-0.9258,-2.258,1.953,-0.793,-170.030,22.253,-16.891
5131,-0.3828,-0.1670,-0.9272,-2.502,2.136,-0.549,-170.052,22.231,-16.891
5141,-0.3813,-0.1675,-0.9307,-2.136,2.014,-0.488,-170.068,22.209,-16.891
5151,-0.3823,-0.1670,-0.9360,-1.221,1.648,-0.427,-170.079,22.187,-16.886
5162,-0.3833,-0.1694,-0.9336,-0.122,1.099,-0.549,-170.074,22.176,-16.886
5171,-0.3843,-0.1709,-0.9302,0.610,0.366,-0.549,-170.063,22.170,-16.880
5181,-0.3867,-0.1719,-0.9292,0.793,-0.305,-0.488,-170.046,22.170,-16.875
5191,-0.3862,-0.1719,-0.9263,0.488,-0.671,-0.366,-170.035,22.181,-16.870
5201,-0.3843,-0.1685,-0.9263,-0.061,-0.793,-0.122,-170.030,22.187,-16.864
5211,-0.3828,-0.1665,-0.9258,-0.549,-0.671,0.000,-170.030,22.192,-16.864
5221,-0.3823,-0.1631,-0.9229,-0.610,-0.549,0.000,-170.035,22.198,-16.864
5231,-0.3804,-0.1641,-0.9204,-0.305,-0.427,-0.122,-170.035,22.203,-16.859
5241,-0.3765,-0.1650,-0.9204,0.122,-0.488,-0.305,-170.035,22.203,-16.859
5251,-0.3779,-0.1675,-0.9175,0.305,-0.610,-0.244,-170.024,22.209,-16.853
5261,-0.3809,-0.1709,-0.9146,0.244,-0.610,-0.061,-170.013,22.214,-16.853
5271,-0.3789,-0.1719,-0.9141,0.000,-0.366,0.244,-170.008,22.220,-16.853
5281,-0.3799,-0.1680,-0.9146,-0.366,0.122,0.549,-170.013,22.220,-16.859
5291,-0.3813,-0.1650,-0.9150,-0.610,0.732,0.732,-170.019,22.214,-16.870
5301,-0.3804,-0.1641,-0.9170,-0.671,1.038,0.854,-170.030,22.203,-16.880
5311,-0.3804,-0.1646,-0.9194,-0.732,1.038,0.793,-170.035,22.192,-16.891
5321,-0.3799,-0.1626,-0.9238,-0.671,0.732,0.732,-170.046,22.187,-16.897
5331,-0.3813,-0.1636,-0.9243,-0.793,0.488,0.671,-170.057,22.181,-16.908
5341,-0.3833,-0.1655,-0.9277,-0.977,0.427,0.549,-170.068,22.181,-16.913
5351,-0.3823,-0.1646,-0.9302,-1.160,0.488,0.610,-170.079,22.176,-16.919
5361,-0.3799,-0.1631,-0.9321,-1.160,0.366,0.732,-170.096,22.170,-16.930
5371,-0.3828,-0.1621,-0.9331,-0.793,0.061,0.732,-170.107,22.165,-16.935
5381,-0.3838,-0.1602,-0.9312,-0.122,-0.427,0.732,-170.112,22.170,-16.946
5391,-0.3853,-0.1582,-0.9282,0.732,-0.854,0.549,-170.107,22.181,-16.946
5401,-0.3848,-0.1592,-0.9243,1.282,-1.099,0.244,-170.096,22.192,-16.952
5411,-0.3857,-0.1631,-0.9214,1.465,-1.099,-0.061,-170.079,22.209,-16.946
5421,-0.3828,-0.1636,-0.9170,1.160,-1.038,-0.183,-170.063,22.220,-16.941
5431,-0.3818,-0.1650,-0.9160,0.610,-1.038,-0.061,-170.057,22.231,-16.941
5441,-0.3833,-0.1646,-0.9141,-0.244,-0.793,0.244,-170.057,22.242,-16.941
5451,-0.3823,-0.1626,-0.9180,-0.061,-0.366,0.366,-170.057,22.247,-16.946
5461,-0.3828,-0.1631,-0.9170,0.427,-0.122,0.549,-170.052,22.247,-16.952
5471,-0.3804,-0.1631,-0.9150,0.854,0.122,0.549,-170.046,22.247,-16.957
5481,-0.3799,-0.1680,-0.9155,0.916,0.061,0.488,-170.035,22.247,-16.963
5491,-0.3809,-0.1704,-0.9150,0.427,0.000,0.488,-170.024,22.247,-16.968
5501,-0.3809,-0.1704,-0.9165,-0.305,0.000,0.549,-170.024,22.247,-16.974
5511,-0.3843,-0.1699,-0.9180,-0.916,0.061,0.732,-170.030,22.253,-16.979
5521,-0.3853,-0.1665,-0.9199,-0.977,0.366,0.854,-170.041,22.253,-16.990
5531,-0.3828,-0.1660,-0.9214,-0.549,0.671,0.916,-170.046,22.247,-17.001
5541,-0.3809,-0.1665,-0.9204,0.061,0.732,0.977,-170.052,22.242,-17.012
5551,-0.3838,-0.1660,-0.9219,0.854,0.488,1.038,-170.041,22.236,-17.023
5561,-0.3853,-0.1670,-0.9180,1.343,0.122,0.977,-170.030,22.236,-17.034
5571,-0.3823,-0.1660,-0.9185,1.343,0.061,0.916,-170.019,22.242,-17.045
5581,-0.3848,-0.1655,-0.9165,1.099,0.183,0.916,-170.008,22.242,-17.056
5591,-0.3828,-0.1655,-0.9160,0.732,0.488,1.099,-170.002,22.242,-17.067
5601,-0.3848,-0.1626,-0.9175,0.305,0.671,1.160,-170.002,22.236,-17.084
5611,-0.3828,-0.1631,-0.9219,0.000,0.732,1.221,-170.008,22.231,-17.095
5621,-0.3813,-0.1606,-0.9224,-0.122,0.671,1.099,-170.019,22.225,-17.111
5631,-0.3813,-0.1606,-0.9189,-0.183,0.427,0.977,-170.024,22.225,-17.122
5641,-0.3828,-0.1602,-0.9204,-0.122,0.305,0.916,-170.030,22.225,-17.133
5651,-0.3843,-0.1626,-0.9233,-0.122,0.244,0.732,-170.035,22.225,-17.139
5661,-0.3828,-0.1631,-0.9233,-0.122,0.183,0.610,-170.035,22.225,-17.144
5671,-0.3838,-0.1616,-0.9248,-0.122,0.305,0.732,-170.041,22.220,-17.155
5681,-0.3828,-0.1631,-0.9248,-0.122,0.427,0.793,-170.046,22.220,-17.161
5691,-0.3828,-0.1621,-0.9253,-0.305,0.427,0.610,-170.052,22.214,-17.172
5701,-0.3828,-0.1626,-0.9209,-0.427,0.427,0.488,-170.057,22.214,-17.177
5711,-0.3848,-0.1636,-0.9214,-0.671,0.305,0.488,-170.063,22.209,-17.183
5721,-0.3833,-0.1631,-0.9248,-0.732,0.305,0.549,-170.074,22.209,-17.188
5731,-0.3833,-0.1626,-0.9224,-0.671,0.305,0.549,-170.085,22.209,-17.194
5741,-0.3833,-0.1626,-0.9214,-0.366,0.183,0.549,-170.085,22.209,-17.199
5751,-0.3828,-0.1646,-0.9175,0.122,0.061,0.488,-170.085,22.209,-17.205
5761,-0.3823,-0.1675,-0.9121,0.427,0.000,0.427,-170.079,22.209,-17.210
5771,-0.3818,-0.1689,-0.9058,0.488,-0.061,0.366,-170.068,22.214,-17.216
5781,-0.3813,-0.1714,-0.9023,0.366,0.122,0.366,-170.057,22.220,-17.221
5791,-0.3809,-0.1719,-0.8999,0.000,0.610,0.488,-170.052,22.220,-17.227
5801,-0.3789,-0.1670,-0.9009,-0.488,1.465,0.671,-170.052,22.209,-17.238
5811,-0.3784,-0.1650,-0.9009,-0.610,2.319,0.610,-170.057,22.187,-17.249
5821,-0.3774,-0.1670,-0.9053,-0.549,3.052,0.244,-170.063,22.159,-17.254
5831,-0.3755,-0.1704,-0.9092,-0.610,3.723,0.061,-170.063,22.121,-17.260
5841,-0.3750,-0.1719,-0.9136,-1.038,4.395,0.366,-170.074,22.077,-17.276
5851,-0.3770,-0.1733,-0.9189,-1.526,4.944,0.793,-170.085,22.033,-17.292
5861,-0.3774,-0.1724,-0.9282,-1.770,5.249,1.221,-170.107,21.978,-17.314
5871,-0.3799,-0.1699,-0.9355,-1.526,5.188,1.648,-170.129,21.929,-17.342
5881,-0.3799,-0.1660,-0.9409,-0.977,4.639,1.953,-170.145,21.885,-17.369
5891,-0.3799,-0.1650,-0.9429,-0.061,3.784,2.258,-170.156,21.852,-17.402
5901,-0.3813,-0.1616,-0.9404,0.854,2.808,2.258,-170.162,21.824,-17.430
5911,-0.3809,-0.1592,-0.9385,1.526,1.892,2.136,-170.156,21.808,-17.457
5921,-0.3813,-0.1572,-0.9355,1.892,1.160,1.892,-170.151,21.802,-17.479
5931,-0.3789,-0.1592,-0.9316,1.831,0.732,1.770,-170.140,21.797,-17.501
5941,-0.3770,-0.1572,-0.9316,1.343,0.366,1.648,-170.140,21.797,-17.518
5951,-0.3779,-0.1577,-0.9282,0.549,0.061,1.587,-170.140,21.802,-17.534
5961,-0.3740,-0.1567,-0.9312,-0.183,0.000,1.465,-170.151,21.802,-17.551
5971,-0.3721,-0.1553,-0.9312,-0.793,0.000,1.282,-170.167,21.802,-17.562
5981,-0.3701,-0.1553,-0.9326,-1.099,0.183,1.160,-170.189,21.797,-17.578
5991,-0.3726,-0.1562,-0.9351,-1.099,0.183,1.099,-170.206,21.791,-17.589
6001,-0.3730,-0.1548,-0.9341,-0.854,-0.122,1.099,-170.222,21.791,-17.600
6011,-0.3784,-0.1538,-0.9336,-0.427,-0.488,1.038,-170.233,21.802,-17.611
6021,-0.3809,-0.1567,-0.9316,0.061,-0.854,0.732,-170.239,21.813,-17.617
6031,-0.3799,-0.1587,-0.9312,0.244,-1.038,0.427,-170.239,21.824,-17.617
6041,-0.3799,-0.1626,-0.9297,0.183,-1.221,0.305,-170.233,21.835,-17.622
6051,-0.3823,-0.1611,-0.9263,0.000,-1.465,0.305,-170.233,21.852,-17.622
6061,-0.3843,-0.1597,-0.9243,-0.122,-1.526,0.305,-170.233,21.874,-17.622
6071,-0.3809,-0.1567,-0.9224,0.061,-1.526,0.122,-170.233,21.890,-17.617
6081,-0.3770,-0.1606,-0.9224,0.305,-1.404,0.122,-170.228,21.907,-17.617
6091,-0.3755,-0.1611,-0.9214,0.488,-1.343,0.000,-170.222,21.918,-17.617
6101,-0.3760,-0.1611,-0.9180,0.427,-1.465,-0.122,-170.217,21.934,-17.611
6111,-0.3750,-0.1616,-0.9199,0.244,-1.526,-0.122,-170.211,21.945,-17.606
6121,-0.3755,-0.1621,-0.9209,0.122,-1.587,-0.244,-170.206,21.962,-17.600
6131,-0.3774,-0.1621,-0.9209,-0.061,-1.526,-0.366,-170.200,21.978,-17.595
6141,-0.3779,-0.1655,-0.9229,-0.244,-1.282,-0.305,-170.195,21.989,-17.589
6151,-0.3770,-0.1685,-0.9204,-0.305,-1.038,-0.244,-170.195,22.000,-17.584
6162,-0.3755,-0.1675,-0.9189,-0.427,-0.977,0.000,-170.189,22.006,-17.584
6171,-0.3779,-0.1660,-0.9189,-0.427,-1.038,0.244,-170.189,22.017,-17.584
6181,-0.3799,-0.1636,-0.9189,-0.183,-0.977,0.366,-170.189,22.028,-17.584
6191,-0.3799,-0.1616,-0.9214,0.244,-0.854,0.427,-170.189,22.039,-17.589
6201,-0.3804,-0.1616,-0.9204,0.610,-0.732,0.427,-170.184,22.050,-17.595
6211,-0.3789,-0.1641,-0.9180,0.854,-0.488,0.366,-170.173,22.055,-17.595
6221,-0.3804,-0.1650,-0.9209,0.610,-0.305,0.366,-170.162,22.055,-17.600
6231,-0.3799,-0.1621,-0.9219,0.183,-0.427,0.305,-170.162,22.061,-17.600
6241,-0.3809,-0.1636,-0.9209,-0.244,-0.671,0.305,-170.162,22.072,-17.606
6251,-0.3813,-0.1626,-0.9229,-0.488,-0.732,0.183,-170.167,22.077,-17.606
6261,-0.3823,-0.1626,-0.9214,-0.305,-0.732,0.061,-170.167,22.088,-17.606
6271,-0.3818,-0.1670,-0.9199,0.122,-0.610,0.061,-170.162,22.094,-17.600
6281,-0.3794,-0.1680,-0.9199,0.305,-0.488,0.122,-170.151,22.099,-17.606
6291,-0.3784,-0.1685,-0.9185,0.305,-0.427,0.305,-170.145,22.104,-17.606
6301,-0.3789,-0.1670,-0.9214,0.183,-0.305,0.610,-170.140,22.110,-17.611
6311,-0.3794,-0.1660,-0.9204,0.000,-0.183,0.854,-170.140,22.110,-17.622
6321,-0.3813,-0.1641,-0.9214,0.000,-0.183,0.977,-170.140,22.115,-17.628
6331,-0.3823,-0.1631,-0.9209,0.122,-0.122,0.916,-170.140,22.121,-17.639
6341,-0.3779,-0.1616,-0.9214,0.305,-0.061,0.854,-170.140,22.121,-17.650
6351,-0.3804,-0.1636,-0.9175,0.244,-0.122,0.854,-170.140,22.121,-17.655
6361,-0.3809,-0.1641,-0.9185,-0.061,-0.244,0.854,-170.140,22.126,-17.666
6371,-0.3828,-0.1636,-0.9155,-0.366,-0.305,0.854,-170.145,22.137,-17.677
6381,-0.3838,-0.1606,-0.9175,-0.549,-0.122,0.854,-170.151,22.137,-17.682
6391,-0.3823,-0.1611,-0.9175,-0.427,0.244,0.732,-170.162,22.143,-17.693
6401,-0.3809,-0.1626,-0.9204,-0.183,0.610,0.549,-170.162,22.137,-17.699
6411,-0.3799,-0.1655,-0.9219,0.000,1.099,0.549,-170.162,22.126,-17.704
6421,-0.3789,-0.1646,-0.9194,-0.122,1.221,0.671,-170.162,22.115,-17.715
6431,-0.3770,-0.1646,-0.9229,-0.427,1.160,0.854,-170.167,22.104,-17.726
6441,-0.3784,-0.1606,-0.9268,-0.671,0.977,0.916,-170.178,22.094,-17.737
6451,-0.3818,-0.1597,-0.9238,-0.793,0.916,0.916,-170.189,22.088,-17.748
6461,-0.3809,-0.1577,-0.9233,-0.610,0.916,0.732,-170.200,22.077,-17.759
6471,-0.3828,-0.1577,-0.9272,-0.244,0.977,0.549,-170.211,22.072,-17.765
6481,-0.3813,-0.1602,-0.9277,0.000,1.038,0.366,-170.211,22.061,-17.770
6491,-0.3809,-0.1587,-0.9272,0.000,0.916,0.244,-170.211,22.050,-17.776
6501,-0.3823,-0.1602,-0.9272,-0.305,0.732,0.061,-170.217,22.044,-17.781
6511,-0.3823,-0.1582,-0.9287,-0.549,0.488,0.000,-170.222,22.044,-17.781
6521,-0.3804,-0.1577,-0.9312,-0.488,0.244,0.000,-170.233,22.039,-17.781
6531,-0.3799,-0.1553,-0.9307,-0.305,-0.122,-0.061,-170.239,22.039,-17.781
6541,-0.3804,-0.1582,-0.9253,0.183,-0.549,-0.122,-170.233,22.044,-17.776
6551,-0.3789,-0.1577,-0.9229,0.732,-0.977,-0.244,-170.228,22.055,-17.770
6561,-0.3789,-0.1621,-0.9199,1.099,-1.160,-0.427,-170.211,22.066,-17.765
6571,-0.3809,-0.1606,-0.9175,1.160,-1.160,-0.488,-170.195,22.077,-17.759
6581,-0.3789,-0.1631,-0.9131,1.038,-0.977,-0.488,-170.178,22.088,-17.754
6591,-0.3770,-0.1631,-0.9116,0.977,-0.488,-0.488,-170.162,22.088,-17.748
6601,-0.3774,-0.1626,-0.9097,1.038,-0.122,-0.488,-170.151,22.094,-17.743
6611,-0.3755,-0.1655,-0.9131,1.160,0.244,-0.427,-170.129,22.088,-17.737
6621,-0.3774,-0.1680,-0.9180,1.526,0.671,-0.488,-170.107,22.083,-17.732
6631,-0.3779,-0.1660,-0.9209,2.319,1.160,-0.549,-170.079,22.066,-17.726
6641,-0.3789,-0.1670,-0.9258,3.540,1.709,-0.549,-170.041,22.050,-17.726
6651,-0.3770,-0.1714,-0.9268,4.639,2.075,-0.427,-169.991,22.028,-17.726
6662,-0.3774,-0.1758,-0.9277,4.700,1.770,-0.244,-169.937,22.006,-17.726
6671,-0.3813,-0.1787,-0.9292,3.906,1.221,0.000,-169.893,21.995,-17.726
6681,-0.3794,-0.1748,-0.9263,2.625,0.488,0.183,-169.860,21.989,-17.732
6691,-0.3809,-0.1704,-0.9253,1.465,0.000,0.305,-169.843,21.989,-17.732
6701,-0.3833,-0.1675,-0.9277,1.038,-0.305,0.366,-169.832,21.995,-17.737
6711,-0.3833,-0.1655,-0.9248,1.343,-0.610,0.183,-169.821,22.000,-17.737
6721,-0.3779,-0.1631,-0.9243,2.014,-0.793,0.000,-169.805,22.011,-17.737
6731,-0.3784,-0.1685,-0.9224,2.563,-0.793,-0.183,-169.777,22.017,-17.732
6741,-0.3765,-0.1719,-0.9214,2.563,-0.549,-0.366,-169.744,22.022,-17.726
6751,-0.3755,-0.1743,-0.9229,1.831,-0.183,-0.244,-169.722,22.017,-17.726
6761,-0.3770,-0.1758,-0.9194,1.099,0.183,0.000,-169.706,22.017,-17.726
6771,-0.3765,-0.1743,-0.9219,0.488,0.305,0.366,-169.695,22.011,-17.732
6781,-0.3770,-0.1738,-0.9243,0.427,0.244,0.610,-169.689,22.011,-17.737
6791,-0.3784,-0.1709,-0.9263,0.732,0.244,0.732,-169.684,22.006,-17.748
6801,-0.3804,-0.1680,-0.9238,1.221,0.122,0.671,-169.678,22.006,-17.754
6811,-0.3818,-0.1675,-0.9214,1.770,0.000,0.671,-169.662,22.011,-17.759
6821,-0.3823,-0.1694,-0.9185,2.075,-0.305,0.549,-169.640,22.017,-17.765
6831,-0.3804,-0.1699,-0.9160,1.953,-0.549,0.488,-169.623,22.028,-17.770
6841,-0.3813,-0.1719,-0.9141,1.526,-0.854,0.488,-169.607,22.039,-17.776
6851,-0.3813,-0.1714,-0.9116,0.854,-1.038,0.488,-169.596,22.050,-17.776
6861,-0.3853,-0.1689,-0.9082,0.244,-0.977,0.427,-169.596,22.066,-17.781
6871,-0.3813,-0.1670,-0.9092,0.061,-0.488,0.366,-169.596,22.077,-17.781
6881,-0.3774,-0.1670,-0.9087,0.122,0.061,0.183,-169.596,22.077,-17.781
6891,-0.3750,-0.1704,-0.9097,0.244,0.549,-0.061,-169.590,22.072,-17.787
6901,-0.3765,-0.1704,-0.9136,0.122,0.977,-0.122,-169.585,22.061,-17.787
6911,-0.3750,-0.1729,-0.9136,-0.305,1.404,-0.061,-169.585,22.050,-17.787
6921,-0.3735,-0.1724,-0.9150,-0.977,1.587,0.061,-169.596,22.028,-17.792
6931,-0.3774,-0.1680,-0.9209,-1.465,1.648,0.305,-169.612,22.017,-17.798
6941,-0.3799,-0.1650,-0.9268,-1.343,1.709,0.366,-169.634,22.000,-17.803
6951,-0.3804,-0.1641,-0.9268,-0.549,1.648,0.244,-169.645,21.984,-17.809
6961,-0.3818,-0.1646,-0.9282,0.671,1.404,-0.122,-169.640,21.967,-17.814
6971,-0.3804,-0.1680,-0.9272,1.892,0.977,-0.427,-169.623,21.956,-17.809
6981,-0.3794,-0.1704,-0.9268,2.869,0.610,-0.610,-169.590,21.951,-17.803
6991,-0.3813,-0.1714,-0.9224,3.357,0.427,-0.671,-169.552,21.945,-17.798
7001,-0.3809,-0.1743,-0.9209,3.723,0.610,-0.793,-169.514,21.940,-17.792
7011,-0.3779,-0.1812,-0.9185,3.479,0.916,-0.793,-169.470,21.934,-17.792
7021,-0.3755,-0.1846,-0.9204,2.625,1.160,-0.732,-169.431,21.918,-17.792
7031,-0.3750,-0.1860,-0.9243,1.404,1.282,-0.366,-169.409,21.901,-17.792
7041,-0.3730,-0.1855,-0.9263,0.244,1.404,0.000,-169.398,21.885,-17.792
7051,-0.3745,-0.1816,-0.9302,-0.427,1.221,0.305,-169.404,21.874,-17.792
7061,-0.3779,-0.1782,-0.9312,-0.366,0.854,0.488,-169.404,21.863,-17.792
7071,-0.3799,-0.1782,-0.9316,0.366,0.366,0.366,-169.404,21.857,-17.792
7081,-0.3784,-0.1792,-0.9272,1.160,0.183,0.305,-169.387,21.857,-17.792
7091,-0.3809,-0.1777,-0.9282,1.526,0.122,0.305,-169.371,21.857,-17.792
7101,-0.3794,-0.1782,-0.9292,1.587,0.061,0.366,-169.354,21.857,-17.792
7111,-0.3779,-0.1768,-0.9312,1.343,-0.122,0.366,-169.343,21.857,-17.792
7121,-0.3765,-0.1743,-0.9277,1.099,-0.488,0.488,-169.332,21.863,-17.792
7131,-0.3789,-0.1724,-0.9263,0.916,-1.038,0.488,-169.327,21.874,-17.792
7141,-0.3794,-0.1699,-0.9243,0.916,-1.526,0.427,-169.321,21.890,-17.792
7151,-0.3799,-0.1719,-0.9204,1.038,-1.709,0.305,-169.310,21.912,-17.792
7162,-0.3809,-0.1719,-0.9209,1.160,-1.648,0.122,-169.299,21.929,-17.792
7171,-0.3760,-0.1724,-0.9155,1.221,-1.526,-0.122,-169.288,21.945,-17.792
7181,-0.3765,-0.1763,-0.9150,1.099,-1.404,-0.305,-169.272,21.956,-17.792
7191,-0.3740,-0.1787,-0.9106,0.793,-1.282,-0.305,-169.255,21.967,-17.792
7201,-0.3760,-0.1802,-0.9092,0.244,-1.343,-0.122,-169.250,21.984,-17.792
7211,-0.3784,-0.1816,-0.9097,-0.366,-1.221,0.122,-169.250,22.000,-17.792
7221,-0.3784,-0.1812,-0.9136,-0.854,-0.854,0.244,-169.250,22.006,-17.792
7231,-0.3784,-0.1807,-0.9146,-1.038,-0.366,0.244,-169.255,22.011,-17.792
7241,-0.3804,-0.1797,-0.9121,-0.916,0.183,0.244,-169.266,22.017,-17.792
7251,-0.3804,-0.1812,-0.9116,-0.549,0.427,0.244,-169.266,22.011,-17.792
7261,-0.3823,-0.1792,-0.9116,-0.305,0.610,0.244,-169.266,22.011,-17.792
7271,-0.3843,-0.1812,-0.9121,-0.122,0.610,0.305,-169.266,22.011,-17.792
7281,-0.3838,-0.1812,-0.9175,-0.061,0.610,0.305,-169.261,22.006,-17.792
7291,-0.3813,-0.1816,-0.9219,0.000,0.671,0.122,-169.261,22.000,-17.792
7301,-0.3799,-0.1802,-0.9282,0.366,0.854,-0.061,-169.255,21.995,-17.792
7311,-0.3804,-0.1821,-0.9287,1.038,0.732,-0.122,-169.239,21.984,-17.792
7321,-0.3809,-0.1841,-0.9268,1.953,0.305,-0.122,-169.217,21.978,-17.792
7331,-0.3799,-0.1885,-0.9248,2.808,-0.366,0.000,-169.178,21.984,-17.792
7341,-0.3760,-0.1919,-0.9219,3.357,-0.732,0.244,-169.140,21.989,-17.792
7351,-0.3760,-0.1938,-0.9199,3.418,-0.793,0.732,-169.096,21.995,-17.792
7361,-0.3760,-0.1904,-0.9170,2.991,-0.610,1.404,-169.063,22.006,-17.803
7371,-0.3770,-0.1826,-0.9160,2.258,-0.427,1.892,-169.047,22.011,-17.825
7381,-0.3818,-0.1777,-0.9165,1.770,-0.305,2.075,-169.036,22.022,-17.842
7391,-0.3813,-0.1729,-0.9199,1.465,0.000,1.770,-169.030,22.028,-17.864
7401,-0.3799,-0.1733,-0.9219,1.160,0.488,1.404,-169.030,22.022,-17.880
7411,-0.3760,-0.1743,-0.9204,0.610,0.793,1.282,-169.030,22.017,-17.897
7421,-0.3755,-0.1733,-0.9233,-0.061,0.610,1.282,-169.041,22.011,-17.908
7431,-0.3774,-0.1704,-0.9263,-0.427,0.305,1.221,-169.052,22.011,-17.924
7441,-0.3779,-0.1689,-0.9268,-0.366,0.061,0.977,-169.069,22.011,-17.935
7451,-0.3809,-0.1729,-0.9272,0.122,-0.061,0.732,-169.074,22.011,-17.941
7461,-0.3779,-0.1743,-0.9258,0.549,-0.061,0.488,-169.074,22.011,-17.946
7471,-0.3770,-0.1758,-0.9229,0.793,-0.366,0.488,-169.069,22.011,-17.952
7481,-0.3789,-0.1768,-0.9219,0.732,-0.916,0.488,-169.063,22.022,-17.952
7491,-0.3804,-0.1763,-0.9209,0.488,-1.343,0.488,-169.058,22.039,-17.957
7501,-0.3818,-0.1797,-0.9175,0.305,-1.465,0.366,-169.052,22.055,-17.957
7511,-0.3809,-0.1777,-0.9155,0.000,-1.282,0.366,-169.052,22.072,-17.957
7521,-0.3809,-0.1787,-0.9111,-0.122,-0.977,0.366,-169.052,22.083,-17.963
7531,-0.3794,-0.1797,-0.9106,-0.061,-0.610,0.427,-169.052,22.088,-17.963
7541,-0.3789,-0.1797,-0.9146,-0.183,-0.366,0.427,-169.058,22.094,-17.968
7551,-0.3799,-0.1772,-0.9102,-0.427,-0.366,0.427,-169.063,22.099,-17.968
7561,-0.3799,-0.1782,-0.9102,-0.488,-0.366,0.427,-169.063,22.104,-17.974
7571,-0.3813,-0.1787,-0.9111,-0.366,-0.183,0.183,-169.069,22.110,-17.974
7581,-0.3774,-0.1812,-0.9082,-0.305,0.000,0.061,-169.069,22.110,-17.979
7591,-0.3789,-0.1777,-0.9116,-0.244,0.061,-0.061,-169.069,22.110,-17.974
7601,-0.3794,-0.1792,-0.9141,-0.183,0.000,-0.122,-169.069,22.110,-17.974
7611,-0.3784,-0.1836,-0.9126,-0.244,-0.122,-0.122,-169.069,22.115,-17.974
7621,-0.3823,-0.1851,-0.9111,-0.488,-0.061,0.000,-169.063,22.115,-17.974
7631,-0.3799,-0.1841,-0.9141,-0.854,0.244,0.061,-169.069,22.115,-17.974
7641,-0.3779,-0.1816,-0.9131,-1.038,0.488,0.183,-169.080,22.110,-17.979
7651,-0.3789,-0.1797,-0.9150,-1.038,0.732,0.366,-169.091,22.104,-17.985
7662,-0.3789,-0.1772,-0.9170,-0.793,0.793,0.366,-169.096,22.099,-17.990
7671,-0.3809,-0.1768,-0.9189,-0.366,0.610,0.183,-169.102,22.094,-17.990
7681,-0.3818,-0.1802,-0.9141,0.122,0.427,0.000,-169.102,22.088,-17.990
7691,-0.3813,-0.1816,-0.9141,0.305,0.366,-0.061,-169.091,22.088,-17.990
7701,-0.3818,-0.1851,-0.9136,0.061,0.549,0.061,-169.085,22.083,-17.996
7711,-0.3779,-0.1875,-0.9170,-0.610,0.977,0.305,-169.091,22.072,-18.001
7721,-0.3784,-0.1846,-0.9155,-1.404,1.404,0.610,-169.102,22.061,-18.007
7731,-0.3765,-0.1807,-0.9175,-1.892,1.587,0.916,-169.124,22.044,-18.023
7741,-0.3784,-0.1797,-0.9204,-1.587,1.404,1.160,-169.140,22.033,-18.040
7751,-0.3794,-0.1777,-0.9229,-0.793,0.977,1.038,-169.156,22.028,-18.051
7761,-0.3774,-0.1782,-0.9214,0.061,0.549,0.732,-169.156,22.022,-18.056
7771,-0.3784,-0.1792,-0.9185,0.549,0.366,0.610,-169.151,22.017,-18.067
7781,-0.3765,-0.1812,-0.9175,0.610,0.366,0.610,-169.146,22.017,-18.073
7791,-0.3774,-0.1826,-0.9155,0.244,0.427,0.671,-169.140,22.011,-18.083
7801,-0.3774,-0.1816,-0.9146,-0.305,0.427,0.671,-169.146,22.011,-18.089
7811,-0.3794,-0.1831,-0.9170,-0.916,0.610,0.671,-169.151,22.006,-18.100
7821,-0.3799,-0.1802,-0.9185,-1.282,0.854,0.854,-169.167,22.000,-18.111
7831,-0.3794,-0.1782,-0.9175,-1.282,1.099,0.916,-169.178,21.995,-18.122
7841,-0.3828,-0.1782,-0.9219,-1.038,1.160,0.916,-169.195,21.984,-18.133
7851,-0.3843,-0.1777,-0.9199,-0.610,1.221,0.854,-169.206,21.978,-18.144
7861,-0.3818,-0.1768,-0.9189,-0.183,1.099,0.732,-169.206,21.973,-18.155
7872,-0.3818,-0.1787,-0.9214,0.000,0.977,0.610,-169.211,21.962,-18.160
7881,-0.3794,-0.1797,-0.9224,-0.183,0.732,0.610,-169.211,21.956,-18.171
7891,-0.3813,-0.1797,-0.9229,-0.488,0.671,0.732,-169.217,21.956,-18.177
7901,-0.3774,-0.1753,-0.9243,-0.671,0.610,0.854,-169.228,21.951,-18.188
7911,-0.3794,-0.1758,-0.9253,-0.549,0.732,0.916,-169.239,21.945,-18.199
7921,-0.3779,-0.1714,-0.9277,-0.305,0.793,0.977,-169.250,21.934,-18.215
7931,-0.3760,-0.1719,-0.9272,0.000,0.610,0.916,-169.255,21.929,-18.221
7941,-0.3770,-0.1704,-0.9258,0.000,0.305,0.793,-169.261,21.929,-18.232
7951,-0.3760,-0.1694,-0.9243,-0.183,-0.122,0.671,-169.272,21.929,-18.237
7961,-0.3784,-0.1704,-0.9224,-0.366,-0.244,0.549,-169.277,21.934,-18.243
7971,-0.3774,-0.1704,-0.9224,-0.671,-0.244,0.305,-169.288,21.934,-18.248
7981,-0.3779,-0.1680,-0.9233,-0.977,-0.183,0.183,-169.299,21.940,-18.248
7991,-0.3765,-0.1689,-0.9224,-1.099,-0.122,0.122,-169.316,21.940,-18.248
8001,-0.3765,-0.1704,-0.9243,-1.038,-0.061,0.000,-169.327,21.940,-18.248
8011,-0.3760,-0.1719,-0.9238,-0.916,-0.122,-0.183,-169.338,21.940,-18.248
8021,-0.3770,-0.1714,-0.9263,-0.854,-0.183,-0.244,-169.349,21.940,-18.243
8031,-0.3789,-0.1729,-0.9238,-0.671,-0.305,-0.366,-169.354,21.940,-18.243
8041,-0.3809,-0.1753,-0.9233,-0.610,-0.427,-0.427,-169.354,21.945,-18.237
8051,-0.3779,-0.1753,-0.9238,-0.610,-0.549,-0.366,-169.360,21.951,-18.232
8061,-0.3789,-0.1738,-0.9238,-0.427,-0.671,-0.427,-169.360,21.956,-18.226
8071,-0.3794,-0.1748,-0.9199,-0.183,-0.793,-0.488,-169.360,21.962,-18.215
8081,-0.3774,-0.1753,-0.9199,-0.061,-0.977,-0.610,-169.354,21.973,-18.210
8091,-0.3789,-0.1748,-0.9224,0.061,-1.038,-0.671,-169.349,21.978,-18.199
8101,-0.3804,-0.1753,-0.9194,0.244,-1.038,-0.732,-169.343,21.989,-18.188
8111,-0.3765,-0.1758,-0.9155,0.305,-1.099,-0.793,-169.332,22.000,-18.177
8121,-0.3779,-0.1768,-0.9136,0.122,-1.221,-0.854,-169.327,22.011,-18.166
8131,-0.3765,-0.1782,-0.9136,-0.122,-1.160,-0.793,-169.321,22.022,-18.155
8141,-0.3755,-0.1802,-0.9136,-0.427,-0.977,-0.671,-169.316,22.028,-18.149
8151,-0.3760,-0.1812,-0.9121,-0.671,-0.671,-0.610,-169.316,22.033,-18.138
8162,-0.3779,-0.1812,-0.9141,-0.732,-0.366,-0.488,-169.310,22.039,-18.133
8171,-0.3789,-0.1792,-0.9160,-0.671,-0.183,-0.366,-169.316,22.039,-18.127
8181,-0.3804,-0.1807,-0.9136,-0.427,0.122,-0.305,-169.310,22.039,-18.127
8191,-0.3799,-0.1826,-0.9146,-0.305,0.305,-0.366,-169.310,22.039,-18.122
8201,-0.3794,-0.1851,-0.9131,-0.305,0.488,-0.305,-169.305,22.033,-18.122
8211,-0.3779,-0.1875,-0.9141,-0.671,0.549,-0.122,-169.299,22.028,-18.122
8221,-0.3774,-0.1875,-0.9189,-1.099,0.488,0.183,-169.305,22.022,-18.122
8231,-0.3760,-0.1855,-0.9194,-1.465,0.366,0.549,-169.316,22.017,-18.133
8241,-0.3770,-0.1826,-0.9224,-1.343,0.366,0.854,-169.327,22.011,-18.138
8251,-0.3789,-0.1792,-0.9175,-0.671,0.427,1.038,-169.332,22.011,-18.155
8261,-0.3799,-0.1768,-0.9214,0.061,0.488,1.038,-169.332,22.011,-18.166
8271,-0.3809,-0.1738,-0.9185,0.916,0.427,0.854,-169.327,22.006,-18.177
8281,-0.3799,-0.1729,-0.9136,1.404,0.305,0.671,-169.316,22.011,-18.182
8291,-0.3813,-0.1738,-0.9116,1.404,0.183,0.488,-169.305,22.011,-18.188
8301,-0.3789,-0.1753,-0.9097,0.916,0.061,0.366,-169.294,22.011,-18.193
8311,-0.3770,-0.1729,-0.9097,0.183,0.244,0.366,-169.294,22.011,-18.193
8321,-0.3774,-0.1743,-0.9146,-0.610,0.793,0.366,-169.299,22.006,-18.199
8331,-0.3760,-0.1729,-0.9185,-1.160,1.465,0.366,-169.316,21.995,-18.210
8341,-0.3745,-0.1719,-0.9214,-1.221,1.831,0.366,-169.332,21.973,-18.215
8351,-0.3745,-0.1738,-0.9263,-1.038,1.892,0.305,-169.343,21.951,-18.221
8361,-0.3755,-0.1704,-0.9277,-0.732,1.587,0.244,-169.354,21.934,-18.226
8371,-0.3755,-0.1709,-0.9272,-0.366,1.038,0.244,-169.365,21.923,-18.232
8381,-0.3770,-0.1704,-0.9268,-0.122,0.549,0.244,-169.371,21.918,-18.237
8391,-0.3789,-0.1699,-0.9277,0.061,0.366,0.244,-169.371,21.912,-18.243
8401,-0.3779,-0.1724,-0.9297,0.000,0.427,0.122,-169.376,21.907,-18.243
8411,-0.3755,-0.1724,-0.9287,-0.366,0.549,0.000,-169.376,21.901,-18.243
8421,-0.3755,-0.1743,-0.9297,-0.854,0.549,0.061,-169.387,21.890,-18.243
8431,-0.3770,-0.1714,-0.9316,-1.343,0.244,0.061,-169.404,21.890,-18.248
8441,-0.3784,-0.1719,-0.9321,-1.648,-0.183,-0.061,-169.420,21.890,-18.243
8451,-0.3809,-0.1743,-0.9346,-1.648,-0.549,-0.122,-169.437,21.896,-18.243
8461,-0.3809,-0.1748,-0.9316,-1.587,-0.854,-0.305,-169.448,21.901,-18.237
8471,-0.3784,-0.1738,-0.9316,-1.282,-1.160,-0.427,-169.459,21.912,-18.232
8481,-0.3794,-0.1787,-0.9268,-0.854,-1.404,-0.549,-169.459,21.923,-18.221
8491,-0.3774,-0.1816,-0.9238,-0.427,-1.465,-0.610,-169.453,21.934,-18.215
8501,-0.3779,-0.1836,-0.9219,-0.305,-1.648,-0.488,-169.448,21.951,-18.204
8511,-0.3770,-0.1841,-0.9209,-0.305,-1.892,-0.122,-169.442,21.967,-18.199
8521,-0.3784,-0.1846,-0.9175,-0.488,-2.075,0.244,-169.437,21.989,-18.199
8531,-0.3809,-0.1812,-0.9146,-0.732,-2.136,0.366,-169.437,22.011,-18.199
8541,-0.3804,-0.1768,-0.9136,-0.793,-2.014,0.427,-169.442,22.033,-18.199
8551,-0.3794,-0.1758,-0.9097,-0.549,-1.770,0.488,-169.448,22.055,-18.199
8561,-0.3779,-0.1763,-0.9087,-0.122,-1.465,0.488,-169.442,22.072,-18.204
8571,-0.3784,-0.1748,-0.9077,0.366,-1.099,0.549,-169.437,22.088,-18.204
8581,-0.3784,-0.1792,-0.9087,0.549,-0.671,0.549,-169.426,22.094,-18.210
8591,-0.3770,-0.1772,-0.9087,0.366,-0.305,0.549,-169.420,22.099,-18.215
8601,-0.3789,-0.1792,-0.9121,-0.122,0.000,0.671,-169.420,22.104,-18.221
8611,-0.3789,-0.1772,-0.9146,-0.671,0.244,0.854,-169.426,22.099,-18.232
8621,-0.3799,-0.1748,-0.9141,-1.099,0.427,0.854,-169.437,22.099,-18.243
8631,-0.3818,-0.1733,-0.9146,-1.160,0.549,0.793,-169.453,22.099,-18.254
8641,-0.3804,-0.1724,-0.9165,-0.854,0.732,0.793,-169.464,22.094,-18.259
8651,-0.3794,-0.1724,-0.9194,-0.488,0.977,0.793,-169.470,22.083,-18.270
8662,-0.3779,-0.1699,-0.9209,-0.183,0.977,0.793,-169.475,22.077,-18.281
8671,-0.3789,-0.1733,-0.9214,0.061,0.793,0.793,-169.481,22.072,-18.292
8681,-0.3804,-0.1763,-0.9243,0.061,0.671,0.671,-169.481,22.061,-18.303
8691,-0.3809,-0.1748,-0.9233,0.000,0.427,0.610,-169.481,22.061,-18.309
8701,-0.3799,-0.1704,-0.9243,0.122,0.061,0.732,-169.481,22.061,-18.314
8711,-0.3804,-0.1724,-0.9204,0.244,-0.061,0.610,-169.481,22.061,-18.325
8721,-0.3809,-0.1714,-0.9194,0.366,-0.122,0.488,-169.481,22.066,-18.325
8731,-0.3813,-0.1733,-0.9199,0.366,-0.061,0.427,-169.475,22.066,-18.331
8741,-0.3809,-0.1714,-0.9170,0.122,0.183,0.427,-169.475,22.066,-18.336
8751,-0.3789,-0.1724,-0.9199,-0.305,0.305,0.427,-169.481,22.066,-18.342
8761,-0.3779,-0.1714,-0.9199,-0.671,0.366,0.427,-169.486,22.061,-18.347
8771,-0.3779,-0.1719,-0.9189,-0.916,0.244,0.427,-169.497,22.061,-18.353
8781,-0.3774,-0.1729,-0.9204,-1.038,-0.061,0.549,-169.508,22.061,-18.358
8791,-0.3774,-0.1758,-0.9214,-0.977,-0.244,0.671,-169.519,22.061,-18.364
8801,-0.3779,-0.1782,-0.9185,-0.916,-0.183,0.732,-169.525,22.066,-18.375
8811,-0.3765,-0.1772,-0.9185,-0.916,-0.122,0.916,-169.530,22.066,-18.380
8821,-0.3774,-0.1772,-0.9165,-0.977,0.000,1.221,-169.541,22.066,-18.397
8831,-0.3765,-0.1782,-0.9165,-1.282,0.061,1.404,-169.552,22.072,-18.408
8841,-0.3804,-0.1768,-0.9194,-1.770,0.244,1.526,-169.574,22.072,-18.424
8851,-0.3804,-0.1714,-0.9224,-2.380,0.549,1.648,-169.601,22.066,-18.446
8861,-0.3809,-0.1704,-0.9229,-2.563,0.793,1.587,-169.634,22.066,-18.463
8871,-0.3813,-0.1665,-0.9258,-2.319,0.854,1.343,-169.667,22.055,-18.479
8881,-0.3823,-0.1665,-0.9258,-1.526,0.610,1.099,-169.689,22.055,-18.490
8891,-0.3828,-0.1660,-0.9263,-0.671,0.122,0.854,-169.700,22.055,-18.501
8901,-0.3828,-0.1685,-0.9219,0.244,-0.366,0.610,-169.695,22.061,-18.506
8911,-0.3809,-0.1704,-0.9199,0.610,-0.549,0.488,-169.689,22.066,-18.512
8921,-0.3818,-0.1704,-0.9185,0.610,-0.549,0.549,-169.684,22.077,-18.517
8931,-0.3799,-0.1694,-0.9170,0.366,-0.244,0.671,-169.684,22.083,-18.523
8941,-0.3799,-0.1685,-0.9165,0.061,0.000,0.732,-169.684,22.083,-18.528
8951,-0.3813,-0.1694,-0.9175,-0.122,0.122,0.610,-169.684,22.083,-18.539
8961,-0.3794,-0.1694,-0.9180,-0.122,0.305,0.549,-169.689,22.083,-18.545
8971,-0.3794,-0.1689,-0.9204,-0.183,0.427,0.427,-169.689,22.077,-18.550
8981,-0.3799,-0.1704,-0.9209,-0.122,0.671,0.427,-169.689,22.072,-18.556
8991,-0.3770,-0.1738,-0.9238,-0.183,0.977,0.366,-169.695,22.061,-18.561
9001,-0.3755,-0.1709,-0.9268,-0.366,0.854,0.427,-169.695,22.050,-18.567
9011,-0.3789,-0.1704,-0.9272,-0.366,0.488,0.610,-169.700,22.050,-18.572
9021,-0.3818,-0.1729,-0.9277,-0.183,0.000,0.610,-169.706,22.050,-18.578
9031,-0.3813,-0.1709,-0.9238,0.000,-0.244,0.488,-169.706,22.050,-18.583
9041,-0.3809,-0.1719,-0.9253,0.000,-0.244,0.427,-169.700,22.055,-18.589
9051,-0.3799,-0.1733,-0.9238,-0.122,-0.061,0.488,-169.700,22.055,-18.594
9061,-0.3789,-0.1743,-0.9238,-0.305,-0.061,0.610,-169.706,22.055,-18.600
9071,-0.3794,-0.1714,-0.9263,-0.366,-0.244,0.854,-169.711,22.061,-18.611
9081,-0.3799,-0.1689,-0.9253,-0.244,-0.427,0.977,-169.717,22.066,-18.616
9091,-0.3833,-0.1670,-0.9243,0.366,-0.488,0.977,-169.717,22.072,-18.627
9101,-0.3828,-0.1646,-0.9258,0.916,-0.427,0.793,-169.711,22.077,-18.638
9111,-0.3813,-0.1650,-0.9209,1.221,-0.305,0.549,-169.700,22.083,-18.638
9121,-0.3799,-0.1655,-0.9189,1.160,-0.305,0.366,-169.695,22.088,-18.644
9131,-0.3794,-0.1655,-0.9175,0.732,-0.488,0.366,-169.689,22.094,-18.649
9141,-0.3818,-0.1670,-0.9170,0.183,-0.793,0.366,-169.684,22.104,-18.649
9151,-0.3813,-0.1626,-0.9189,-0.305,-0.854,0.244,-169.695,22.115,-18.649
9162,-0.3833,-0.1616,-0.9209,-0.366,-0.610,0.061,-169.700,22.121,-18.649
9171,-0.3818,-0.1616,-0.9229,-0.061,-0.366,-0.244,-169.700,22.126,-18.649
9181,-0.3809,-0.1670,-0.9185,0.366,-0.305,-0.549,-169.695,22.126,-18.638
9191,-0.3799,-0.1724,-0.9185,0.427,-0.366,-0.732,-169.684,22.132,-18.633
9201,-0.3789,-0.1753,-0.9185,0.122,-0.488,-0.610,-169.678,22.132,-18.622
9211,-0.3779,-0.1748,-0.9180,-0.549,-0.610,-0.366,-169.673,22.137,-18.622
9221,-0.3789,-0.1748,-0.9175,-1.160,-0.549,-0.183,-169.678,22.143,-18.616
9231,-0.3809,-0.1704,-0.9194,-1.221,-0.488,-0.061,-169.689,22.148,-18.616
9241,-0.3818,-0.1709,-0.9209,-0.732,-0.488,0.000,-169.695,22.154,-18.616
9251,-0.3809,-0.1709,-0.9204,0.061,-0.427,-0.061,-169.695,22.154,-18.611
9261,-0.3809,-0.1733,-0.9185,0.610,-0.305,-0.061,-169.684,22.159,-18.611
9271,-0.3828,-0.1748,-0.9175,0.793,-0.244,0.000,-169.667,22.165,-18.611
9281,-0.3809,-0.1753,-0.9155,0.549,-0.122,0.061,-169.656,22.165,-18.611
9291,-0.3813,-0.1748,-0.9175,-0.061,-0.061,0.122,-169.656,22.165,-18.611
9301,-0.3809,-0.1694,-0.9180,-0.488,-0.061,0.305,-169.662,22.165,-18.616
9311,-0.3838,-0.1689,-0.9180,-0.549,-0.183,0.366,-169.667,22.170,-18.616
9321,-0.3838,-0.1685,-0.9219,-0.366,-0.305,0.366,-169.673,22.176,-18.622
9331,-0.3833,-0.1694,-0.9194,0.000,-0.427,0.244,-169.667,22.181,-18.622
9341,-0.3823,-0.1689,-0.9175,0.366,-0.427,0.122,-169.667,22.187,-18.622
9351,-0.3848,-0.1724,-0.9185,0.610,-0.427,0.000,-169.656,22.192,-18.622
9361,-0.3823,-0.1719,-0.9175,0.549,-0.366,0.000,-169.645,22.198,-18.622
9371,-0.3813,-0.1729,-0.9170,0.244,-0.183,0.061,-169.640,22.198,-18.622
9381,-0.3799,-0.1729,-0.9199,-0.122,0.061,0.244,-169.640,22.198,-18.627
9391,-0.3794,-0.1699,-0.9185,-0.305,0.366,0.366,-169.645,22.198,-18.633
9401,-0.3804,-0.1709,-0.9180,-0.366,0.549,0.488,-169.651,22.192,-18.638
9411,-0.3833,-0.1704,-0.9209,-0.183,0.488,0.488,-169.651,22.187,-18.644
9421,-0.3813,-0.1699,-0.9180,0.000,0.427,0.427,-169.651,22.187,-18.649
9431,-0.3799,-0.1724,-0.9185,0.000,0.488,0.427,-169.651,22.181,-18.655
9441,-0.3818,-0.1709,-0.9238,-0.305,0.366,0.366,-169.656,22.176,-18.660
9451,-0.3823,-0.1733,-0.9224,-0.671,0.427,0.427,-169.662,22.170,-18.666
9462,-0.3813,-0.1704,-0.9238,-1.099,0.549,0.549,-169.673,22.170,-18.671
9472,-0.3804,-0.1709,-0.9233,-1.221,0.549,0.549,-169.684,22.165,-18.677
9482,-0.3818,-0.1704,-0.9258,-0.916,0.366,0.488,-169.695,22.159,-18.682
9492,-0.3818,-0.1724,-0.9263,-0.427,0.061,0.427,-169.700,22.159,-18.688
9502,-0.3813,-0.1729,-0.9263,0.061,-0.122,0.427,-169.700,22.159,-18.693
9512,-0.3818,-0.1714,-0.9268,0.305,-0.183,0.488,-169.695,22.159,-18.699
9522,-0.3813,-0.1694,-0.9243,0.366,-0.305,0.610,-169.695,22.165,-18.704
9532,-0.3818,-0.1685,-0.9229,0.427,-0.732,0.671,-169.689,22.170,-18.710
9542,-0.3843,-0.1680,-0.9194,0.610,-1.038,0.610,-169.684,22.187,-18.715
9552,-0.3848,-0.1660,-0.9155,0.793,-1.038,0.549,-169.678,22.198,-18.715
9562,-0.3848,-0.1680,-0.9136,0.793,-0.854,0.427,-169.673,22.209,-18.721
9572,-0.3843,-0.1704,-0.9146,0.549,-0.305,0.366,-169.667,22.214,-18.721
9582,-0.3818,-0.1689,-0.9136,0.061,0.244,0.366,-169.667,22.214,-18.726
9592,-0.3784,-0.1694,-0.9131,-0.305,0.427,0.549,-169.667,22.214,-18.732
9602,-0.3789,-0.1689,-0.9175,-0.427,0.488,0.610,-169.673,22.209,-18.743
9612,-0.3799,-0.1689,-0.9194,-0.366,0.366,0.488,-169.678,22.203,-18.748
9622,-0.3813,-0.1685,-0.9175,-0.183,0.305,0.366,-169.684,22.203,-18.754
9632,-0.3828,-0.1699,-0.9189,0.000,0.366,0.244,-169.684,22.198,-18.754
9642,-0.3804,-0.1709,-0.9185,0.183,0.366,0.122,-169.678,22.198,-18.759
9652,-0.3794,-0.1685,-0.9194,0.061,0.183,0.122,-169.678,22.192,-18.759
9662,-0.3813,-0.1685,-0.9180,-0.244,0.061,0.183,-169.678,22.192,-18.759
9672,-0.3828,-0.1699,-0.9204,-0.549,0.000,0.244,-169.684,22.192,-18.765
9682,-0.3813,-0.1724,-0.9204,-0.732,0.122,0.122,-169.689,22.192,-18.765
9692,-0.3794,-0.1704,-0.9229,-0.793,0.244,0.244,-169.695,22.192,-18.770
9702,-0.3813,-0.1675,-0.9248,-0.732,0.244,0.366,-169.706,22.187,-18.770
9712,-0.3823,-0.1699,-0.9243,-0.427,0.183,0.305,-169.711,22.187,-18.776
9722,-0.3828,-0.1685,-0.9224,-0.244,0.061,0.183,-169.711,22.187,-18.776
9732,-0.3843,-0.1704,-0.9224,-0.122,-0.061,0.183,-169.711,22.187,-18.781
9742,-0.3862,-0.1680,-0.9253,-0.061,-0.122,0.244,-169.717,22.192,-18.781
9752,-0.3862,-0.1704,-0.9248,-0.061,-0.122,0.183,-169.717,22.192,-18.787
9762,-0.3848,-0.1714,-0.9219,-0.061,-0.122,0.183,-169.711,22.198,-18.787
9772,-0.3857,-0.1694,-0.9214,0.122,-0.122,0.122,-169.711,22.198,-18.787
9782,-0.3843,-0.1694,-0.9248,0.244,-0.183,0.061,-169.706,22.203,-18.787
9792,-0.3828,-0.1680,-0.9238,0.244,-0.305,0.000,-169.706,22.203,-18.787
9802,-0.3818,-0.1655,-0.9219,0.183,-0.427,-0.061,-169.706,22.209,-18.787
9812,-0.3828,-0.1641,-0.9214,0.183,-0.610,-0.244,-169.700,22.214,-18.781
9822,-0.3828,-0.1675,-0.9199,0.305,-0.671,-0.366,-169.695,22.220,-18.776
9832,-0.3823,-0.1660,-0.9189,0.244,-0.732,-0.549,-169.695,22.225,-18.770
9842,-0.3833,-0.1660,-0.9199,0.061,-0.854,-0.549,-169.689,22.236,-18.759
9852,-0.3823,-0.1665,-0.9185,-0.122,-0.916,-0.549,-169.689,22.242,-18.754
9862,-0.3813,-0.1685,-0.9155,-0.244,-0.854,-0.549,-169.689,22.253,-18.748
9873,-0.3823,-0.1709,-0.9150,-0.427,-0.732,-0.488,-169.684,22.258,-18.737
9882,-0.3818,-0.1719,-0.9160,-0.366,-0.427,-0.488,-169.684,22.264,-18.737
9892,-0.3804,-0.1729,-0.9160,-0.183,-0.061,-0.305,-169.684,22.264,-18.737
9902,-0.3818,-0.1729,-0.9180,-0.122,0.122,-0.122,-169.678,22.258,-18.737
9912,-0.3823,-0.1753,-0.9180,-0.122,0.305,-0.061,-169.673,22.258,-18.737
9922,-0.3804,-0.1738,-0.9175,-0.244,0.244,-0.122,-169.673,22.253,-18.737
9932,-0.3828,-0.1753,-0.9180,-0.305,0.061,-0.061,-169.673,22.253,-18.737
9942,-0.3833,-0.1758,-0.9180,-0.244,-0.122,0.000,-169.667,22.253,-18.737
9952,-0.3853,-0.1777,-0.9175,-0.183,-0.244,0.122,-169.662,22.258,-18.737
9962,-0.3853,-0.1758,-0.9204,-0.061,-0.305,0.244,-169.662,22.264,-18.737
9972,-0.3843,-0.1782,-0.9175,0.000,-0.183,0.305,-169.656,22.264,-18.737
9982,-0.3843,-0.1772,-0.9209,0.061,0.061,0.427,-169.651,22.264,-18.737
9992,-0.3843,-0.1763,-0.9199,-0.061,0.305,0.488,-169.651,22.264,-18.737
10002,-0.3843,-0.1704,-0.9204,-0.183,0.366,0.549,-169.651,22.264,-18.737
10012,-0.3843,-0.1709,-0.9229,-0.061,0.183,0.610,-169.651,22.264,-18.737
10022,-0.3823,-0.1704,-0.9199,0.183,-0.122,0.549,-169.651,22.264,-18.737
10032,-0.3833,-0.1724,-0.9199,0.549,-0.305,0.427,-169.645,22.269,-18.737
10042,-0.3843,-0.1748,-0.9189,0.732,-0.305,0.305,-169.634,22.269,-18.737
10052,-0.3848,-0.1724,-0.9180,0.732,-0.061,0.366,-169.629,22.275,-18.737
10062,-0.3813,-0.1743,-0.9131,0.488,0.122,0.427,-169.618,22.275,-18.737
10072,-0.3818,-0.1733,-0.9204,0.000,0.244,0.610,-169.618,22.275,-18.737
10082,-0.3818,-0.1685,-0.9209,-0.305,0.183,0.916,-169.623,22.269,-18.737
10092,-0.3833,-0.1675,-0.9229,-0.244,0.122,0.916,-169.634,22.269,-18.737
10102,-0.3848,-0.1665,-0.9209,0.122,0.000,0.793,-169.634,22.275,-18.737
10112,-0.3823,-0.1680,-0.9209,0.549,0.000,0.610,-169.634,22.275,-18.737
10122,-0.3823,-0.1665,-0.9204,0.610,0.061,0.488,-169.629,22.275,-18.737
10132,-0.3813,-0.1680,-0.9165,0.305,0.061,0.366,-169.629,22.275,-18.737
10142,-0.3809,-0.1714,-0.9209,-0.244,0.122,0.366,-169.629,22.269,-18.737
10152,-0.3813,-0.1699,-0.9248,-0.977,0.061,0.488,-169.640,22.269,-18.737
10162,-0.3828,-0.1685,-0.9238,-1.343,-0.061,0.549,-169.656,22.269,-18.737
10172,-0.3838,-0.1660,-0.9224,-1.038,-0.061,0.549,-169.673,22.275,-18.737
10182,-0.3848,-0.1655,-0.9224,-0.305,-0.244,0.427,-169.678,22.275,-18.737
10192,-0.3853,-0.1650,-0.9189,0.549,-0.549,0.183,-169.673,22.286,-18.737
10202,-0.3872,-0.1689,-0.9165,1.099,-0.671,0.000,-169.662,22.291,-18.737
10212,-0.3848,-0.1714,-0.9150,1.038,-0.549,-0.061,-169.645,22.302,-18.737
10222,-0.3857,-0.1738,-0.9160,0.488,-0.305,-0.061,-169.640,22.302,-18.737
10232,-0.3833,-0.1758,-0.9180,-0.366,0.061,0.000,-169.634,22.302,-18.737
10242,-0.3818,-0.1738,-0.9204,-1.099,0.366,0.183,-169.645,22.297,-18.737
10252,-0.3818,-0.1709,-0.9229,-1.343,0.427,0.427,-169.662,22.297,-18.737
10262,-0.3833,-0.1685,-0.9248,-0.977,0.183,0.427,-169.673,22.291,-18.737
10272,-0.3838,-0.1709,-0.9233,-0.244,0.000,0.305,-169.673,22.291,-18.737
10282,-0.3823,-0.1699,-0.9238,0.549,-0.061,0.183,-169.667,22.291,-18.737
10292,-0.3813,-0.1709,-0.9224,1.038,-0.061,0.122,-169.656,22.291,-18.737
10302,-0.3813,-0.1733,-0.9194,1.038,-0.122,0.122,-169.640,22.291,-18.737
10312,-0.3813,-0.1743,-0.9180,0.488,-0.305,0.244,-169.634,22.291,-18.737
10322,-0.3828,-0.1714,-0.9160,-0.061,-0.610,0.427,-169.634,22.302,-18.737
10332,-0.3862,-0.1689,-0.9175,-0.366,-0.671,0.427,-169.640,22.308,-18.737
10342,-0.3838,-0.1694,-0.9175,-0.427,-0.488,0.366,-169.640,22.313,-18.737
10352,-0.3843,-0.1709,-0.9175,-0.305,-0.183,0.244,-169.645,22.319,-18.737
10362,-0.3838,-0.1709,-0.9155,-0.244,0.183,0.122,-169.645,22.319,-18.737
10372,-0.3828,-0.1704,-0.9175,-0.183,0.427,0.061,-169.645,22.313,-18.737
10382,-0.3838,-0.1738,-0.9165,-0.244,0.610,0.122,-169.645,22.308,-18.737
10392,-0.3857,-0.1714,-0.9199,-0.427,0.671,0.122,-169.651,22.302,-18.737
10402,-0.3848,-0.1714,-0.9209,-0.549,0.671,0.122,-169.651,22.297,-18.737
10412,-0.3857,-0.1685,-0.9238,-0.427,0.610,0.183,-169.656,22.291,-18.737
10422,-0.3872,-0.1670,-0.9253,-0.122,0.366,0.122,-169.662,22.291,-18.737
10432,-0.3857,-0.1694,-0.9229,0.244,0.122,0.000,-169.656,22.291,-18.737
10442,-0.3853,-0.1689,-0.9229,0.427,-0.122,-0.183,-169.651,22.291,-18.737
10452,-0.3843,-0.1699,-0.9204,0.488,-0.305,-0.183,-169.645,22.291,-18.737
10462,-0.3848,-0.1685,-0.9224,0.366,-0.244,0.000,-169.640,22.297,-18.737
10472,-0.3818,-0.1670,-0.9199,0.061,-0.244,0.061,-169.640,22.297,-18.737
10482,-0.3843,-0.1655,-0.9233,-0.427,-0.122,0.061,-169.651,22.297,-18.737
10492,-0.3823,-0.1655,-0.9233,-0.671,0.122,-0.061,-169.656,22.297,-18.737
10502,-0.3833,-0.1650,-0.9224,-0.671,0.244,-0.244,-169.667,22.291,-18.737
10512,-0.3818,-0.1689,-0.9219,-0.305,0.061,-0.427,-169.667,22.291,-18.737
10522,-0.3799,-0.1704,-0.9214,0.000,-0.305,-0.610,-169.662,22.291,-18.737
10532,-0.3818,-0.1743,-0.9199,0.122,-0.549,-0.671,-169.651,22.291,-18.737
10542,-0.3813,-0.1758,-0.9194,0.000,-0.732,-0.488,-169.645,22.297,-18.737
10552,-0.3833,-0.1753,-0.9175,-0.244,-0.732,-0.305,-169.640,22.302,-18.737
10562,-0.3857,-0.1729,-0.9170,-0.427,-0.488,-0.183,-169.640,22.313,-18.737
10572,-0.3843,-0.1743,-0.9150,-0.244,-0.183,-0.122,-169.640,22.313,-18.737
10582,-0.3857,-0.1743,-0.9155,-0.061,0.000,-0.305,-169.634,22.313,-18.737
10592,-0.3818,-0.1743,-0.9150,0.000,0.000,-0.305,-169.629,22.313,-18.737
10602,-0.3843,-0.1772,-0.9136,0.122,-0.122,-0.183,-169.623,22.319,-18.737
10612,-0.3857,-0.1758,-0.9141,0.122,-0.244,-0.122,-169.612,22.319,-18.737
10622,-0.3848,-0.1753,-0.9121,0.061,-0.244,-0.061,-169.607,22.324,-18.737
10632,-0.3833,-0.1748,-0.9126,0.000,0.000,0.061,-169.601,22.324,-18.737
10642,-0.3838,-0.1768,-0.9131,-0.061,0.427,0.183,-169.601,22.324,-18.737
10652,-0.3828,-0.1772,-0.9155,-0.244,0.793,0.366,-169.601,22.313,-18.737
10663,-0.3838,-0.1792,-0.9160,-0.244,0.793,0.549,-169.596,22.308,-18.737
10672,-0.3828,-0.1782,-0.9165,0.000,0.732,0.610,-169.596,22.302,-18.737
10682,-0.3848,-0.1772,-0.9180,0.183,0.610,0.671,-169.590,22.297,-18.737
10692,-0.3843,-0.1743,-0.9150,0.366,0.732,0.793,-169.585,22.297,-18.737
10702,-0.3828,-0.1733,-0.9150,0.488,0.977,0.977,-169.585,22.286,-18.737
10712,-0.3813,-0.1768,-0.9165,0.427,1.160,1.160,-169.579,22.280,-18.754
10722,-0.3813,-0.1763,-0.9185,0.183,1.160,1.282,-169.579,22.269,-18.770
10732,-0.3848,-0.1714,-0.9214,-0.061,1.099,1.526,-169.585,22.258,-18.787
10742,-0.3853,-0.1685,-0.9204,0.061,1.099,1.526,-169.590,22.253,-18.809
10752,-0.3843,-0.1685,-0.9224,0.366,1.221,1.343,-169.596,22.242,-18.825
10762,-0.3838,-0.1699,-0.9214,0.610,1.099,1.099,-169.596,22.236,-18.836
10772,-0.3809,-0.1670,-0.9233,0.610,0.854,1.038,-169.596,22.231,-18.853
10782,-0.3813,-0.1699,-0.9238,0.427,0.671,1.099,-169.596,22.220,-18.864
10792,-0.3813,-0.1709,-0.9224,0.061,0.610,1.099,-169.596,22.220,-18.875
10802,-0.3828,-0.1689,-0.9204,-0.366,0.793,1.099,-169.607,22.214,-18.891
10812,-0.3809,-0.1655,-0.9229,-0.549,1.099,1.221,-169.618,22.203,-18.902
10822,-0.3799,-0.1655,-0.9268,-0.305,1.221,1.343,-169.629,22.192,-18.918
10832,-0.3809,-0.1641,-0.9243,0.061,1.038,1.282,-169.640,22.181,-18.935
10842,-0.3809,-0.1611,-0.9243,0.549,0.610,1.038,-169.645,22.176,-18.951
10852,-0.3828,-0.1606,-0.9224,0.977,0.183,0.671,-169.640,22.176,-18.957
10862,-0.3833,-0.1665,-0.9199,1.038,-0.122,0.366,-169.634,22.181,-18.962
10872,-0.3838,-0.1665,-0.9180,0.610,-0.122,0.183,-169.629,22.181,-18.962
10882,-0.3823,-0.1699,-0.9165,-0.061,0.183,0.183,-169.629,22.181,-18.962
10892,-0.3813,-0.1719,-0.9194,-0.610,0.732,0.183,-169.634,22.176,-18.968
10902,-0.3818,-0.1694,-0.9233,-1.160,1.099,0.122,-169.645,22.165,-18.973
10912,-0.3789,-0.1685,-0.9253,-1.221,1.099,0.122,-169.662,22.154,-18.973
10922,-0.3809,-0.1685,-0.9258,-0.854,0.793,0.000,-169.667,22.143,-18.973
10932,-0.3809,-0.1699,-0.9272,-0.366,0.366,-0.183,-169.673,22.137,-18.973
10942,-0.3813,-0.1699,-0.9233,0.000,-0.061,-0.244,-169.673,22.137,-18.973
10952,-0.3794,-0.1714,-0.9243,0.183,-0.305,-0.244,-169.667,22.137,-18.968
10962,-0.3799,-0.1719,-0.9248,0.244,-0.366,-0.183,-169.662,22.143,-18.968
10972,-0.3799,-0.1743,-0.9243,0.183,-0.427,0.000,-169.656,22.143,-18.962
10982,-0.3809,-0.1758,-0.9219,0.122,-0.427,0.244,-169.651,22.148,-18.968
10992,-0.3809,-0.1743,-0.9189,0.061,-0.122,0.305,-169.645,22.148,-18.968
11002,-0.3794,-0.1709,-0.9175,-0.122,0.183,0.427,-169.645,22.148,-18.973
11012,-0.3818,-0.1699,-0.9175,-0.183,0.305,0.671,-169.651,22.148,-18.984
11022,-0.3823,-0.1680,-0.9185,-0.183,0.366,0.793,-169.656,22.148,-18.990
11032,-0.3828,-0.1665,-0.9185,-0.122,0.427,0.610,-169.662,22.143,-19.001
11042,-0.3848,-0.1655,-0.9194,0.000,0.305,0.427,-169.662,22.143,-19.006
11052,-0.3838,-0.1665,-0.9209,0.244,0.244,0.122,-169.662,22.143,-19.006
11062,-0.3828,-0.1680,-0.9185,0.366,0.061,-0.122,-169.656,22.143,-19.006
11072,-0.3828,-0.1709,-0.9165,0.244,-0.183,-0.122,-169.651,22.148,-19.001
11082,-0.3799,-0.1714,-0.9165,0.061,-0.305,-0.122,-169.651,22.154,-19.001
11092,-0.3823,-0.1704,-0.9165,-0.122,-0.366,0.000,-169.645,22.159,-19.001
11102,-0.3828,-0.1719,-0.9175,-0.244,-0.183,0.061,-169.645,22.159,-19.001
11112,-0.3823,-0.1709,-0.9146,-0.244,0.000,0.061,-169.651,22.159,-19.001
11122,-0.3794,-0.1743,-0.9155,-0.183,0.244,0.061,-169.645,22.159,-19.001
11132,-0.3774,-0.1738,-0.9165,0.000,0.366,0.183,-169.645,22.154,-19.006
11142,-0.3784,-0.1758,-0.9175,0.000,0.427,0.244,-169.640,22.148,-19.006
11152,-0.3774,-0.1753,-0.9175,-0.305,0.549,0.366,-169.640,22.143,-19.012
11163,-0.3794,-0.1729,-0.9194,-0.488,0.549,0.488,-169.645,22.137,-19.017
11172,-0.3818,-0.1743,-0.9199,-0.366,0.610,0.671,-169.645,22.137,-19.028
11182,-0.3809,-0.1714,-0.9209,-0.244,0.610,0.610,-169.651,22.132,-19.034
11192,-0.3818,-0.1719,-0.9219,-0.061,0.610,0.549,-169.651,22.126,-19.045
11202,-0.3823,-0.1729,-0.9219,0.061,0.549,0.610,-169.651,22.121,-19.050
11212,-0.3809,-0.1704,-0.9238,0.061,0.427,0.793,-169.651,22.121,-19.061
11222,-0.3809,-0.1675,-0.9243,0.061,0.305,0.793,-169.656,22.115,-19.067
11232,-0.3823,-0.1680,-0.9238,0.061,0.183,0.610,-169.656,22.115,-19.078
11242,-0.3799,-0.1699,-0.9243,0.122,0.122,0.427,-169.656,22.115,-19.078
11252,-0.3799,-0.1685,-0.9233,0.244,-0.061,0.305,-169.656,22.115,-19.083
11262,-0.3813,-0.1675,-0.9243,0.305,-0.366,0.305,-169.656,22.121,-19.083
11272,-0.3833,-0.1660,-0.9253,0.244,-0.549,0.305,-169.656,22.126,-19.089
11282,-0.3823,-0.1641,-0.9214,0.122,-0.671,0.244,-169.656,22.132,-19.089
11292,-0.3838,-0.1646,-0.9233,0.061,-0.610,0.122,-169.662,22.143,-19.089
11302,-0.3804,-0.1670,-0.9209,0.061,-0.488,0.000,-169.656,22.143,-19.089
11312,-0.3799,-0.1660,-0.9204,0.122,-0.488,-0.061,-169.656,22.148,-19.089
11322,-0.3789,-0.1685,-0.9204,0.183,-0.549,-0.122,-169.656,22.154,-19.083
11332,-0.3789,-0.1709,-0.9170,0.061,-0.610,-0.244,-169.651,22.159,-19.083
11342,-0.3833,-0.1699,-0.9141,-0.183,-0.549,-0.183,-169.651,22.165,-19.078
11352,-0.3833,-0.1685,-0.9180,-0.427,-0.366,-0.183,-169.651,22.170,-19.078
11362,-0.3843,-0.1689,-0.9165,-0.549,-0.122,-0.183,-169.656,22.176,-19.072
11372,-0.3813,-0.1685,-0.9160,-0.488,0.000,-0.244,-169.662,22.176,-19.072
11382,-0.3799,-0.1738,-0.9185,-0.427,0.000,-0.183,-169.656,22.176,-19.067
11392,-0.3823,-0.1748,-0.9194,-0.427,0.000,-0.122,-169.656,22.176,-19.067
11402,-0.3794,-0.1743,-0.9185,-0.549,-0.122,-0.061,-169.662,22.176,-19.067
11412,-0.3804,-0.1753,-0.9180,-0.427,0.000,0.061,-169.662,22.176,-19.067
11422,-0.3813,-0.1748,-0.9185,-0.244,0.122,0.061,-169.656,22.176,-19.067
11432,-0.3823,-0.1743,-0.9180,-0.061,0.061,0.183,-169.656,22.176,-19.072
11442,-0.3794,-0.1748,-0.9175,0.183,0.000,0.366,-169.651,22.176,-19.072
11452,-0.3789,-0.1738,-0.9199,0.305,-0.122,0.488,-169.645,22.176,-19.078
11462,-0.3809,-0.1724,-0.9180,0.183,-0.122,0.732,-169.645,22.176,-19.089
11472,-0.3813,-0.1689,-0.9170,0.244,-0.122,0.732,-169.645,22.181,-19.094
11482,-0.3813,-0.1729,-0.9155,0.427,-0.122,0.549,-169.640,22.181,-19.100
11492,-0.3828,-0.1733,-0.9146,0.366,0.000,0.488,-169.634,22.187,-19.105
11502,-0.3813,-0.1743,-0.9131,0.061,0.183,0.549,-169.629,22.187,-19.111
11512,-0.3818,-0.1753,-0.9136,-0.366,0.488,0.732,-169.629,22.187,-19.122
11522,-0.3828,-0.1733,-0.9170,-0.854,0.793,0.793,-169.640,22.181,-19.127
11532,-0.3813,-0.1685,-0.9224,-1.099,1.099,0.854,-169.656,22.170,-19.138
11542,-0.3813,-0.1660,-0.9233,-0.977,1.221,0.977,-169.673,22.159,-19.155
11552,-0.3818,-0.1665,-0.9243,-0.549,1.038,0.977,-169.684,22.148,-19.166
11562,-0.3828,-0.1675,-0.9253,-0.122,0.610,0.854,-169.689,22.148,-19.177
11572,-0.3823,-0.1660,-0.9248,0.183,0.244,0.671,-169.689,22.143,-19.182
11582,-0.3823,-0.1675,-0.9219,0.427,-0.061,0.488,-169.689,22.148,-19.188
11592,-0.3804,-0.1675,-0.9185,0.366,0.000,0.366,-169.684,22.148,-19.193
11602,-0.3809,-0.1694,-0.9185,0.061,0.183,0.305,-169.684,22.148,-19.199
11612,-0.3779,-0.1719,-0.9199,-0.244,0.427,0.305,-169.684,22.143,-19.199
11622,-0.3774,-0.1704,-0.9209,-0.671,0.549,0.427,-169.695,22.137,-19.204
11632,-0.3794,-0.1675,-0.9204,-0.977,0.549,0.549,-169.706,22.132,-19.215
11642,-0.3813,-0.1675,-0.9224,-1.038,0.671,0.732,-169.717,22.126,-19.221
11652,-0.3813,-0.1646,-0.9219,-0.854,0.671,0.732,-169.733,22.121,-19.232
11663,-0.3838,-0.1650,-0.9253,-0.488,0.671,0.610,-169.744,22.115,-19.237
11672,-0.3823,-0.1670,-0.9243,-0.366,0.488,0.549,-169.750,22.110,-19.248
11682,-0.3823,-0.1655,-0.9224,-0.427,0.244,0.427,-169.755,22.110,-19.248
11692,-0.3828,-0.1670,-0.9219,-0.488,0.061,0.305,-169.761,22.115,-19.254
11702,-0.3823,-0.1646,-0.9238,-0.305,-0.244,0.183,-169.766,22.115,-19.254
11712,-0.3809,-0.1660,-0.9214,0.000,-0.366,0.000,-169.766,22.121,-19.254
11722,-0.3794,-0.1660,-0.9229,0.244,-0.427,-0.061,-169.761,22.121,-19.254
11732,-0.3809,-0.1704,-0.9199,0.305,-0.427,0.000,-169.755,22.126,-19.254
11742,-0.3789,-0.1694,-0.9199,0.183,-0.305,0.061,-169.755,22.132,-19.254
11752,-0.3770,-0.1689,-0.9165,0.061,-0.183,0.061,-169.750,22.132,-19.254
11762,-0.3779,-0.1680,-0.9170,-0.122,-0.122,0.061,-169.750,22.132,-19.254
11772,-0.3760,-0.1709,-0.9165,-0.122,0.000,0.061,-169.750,22.132,-19.254
11782,-0.3784,-0.1709,-0.9189,-0.244,0.244,0.122,-169.750,22.126,-19.254
11792,-0.3789,-0.1719,-0.9185,-0.305,0.549,0.305,-169.750,22.121,-19.259
11802,-0.3804,-0.1719,-0.9175,-0.183,0.793,0.732,-169.750,22.115,-19.270
11812,-0.3789,-0.1729,-0.9175,-0.183,0.732,0.732,-169.755,22.110,-19.276
11822,-0.3813,-0.1699,-0.9194,-0.366,0.610,0.610,-169.755,22.104,-19.286
11832,-0.3828,-0.1704,-0.9209,-0.305,0.610,0.671,-169.761,22.104,-19.292
11842,-0.3833,-0.1689,-0.9219,-0.366,0.793,0.732,-169.766,22.099,-19.292
11852,-0.3833,-0.1680,-0.9224,-0.366,0.977,0.610,-169.772,22.088,-19.292
11862,-0.3804,-0.1680,-0.9233,-0.427,0.916,0.427,-169.777,22.083,-19.292
11874,-0.3804,-0.1685,-0.9253,-0.427,0.610,0.427,-169.783,22.077,-19.292
11882,-0.3799,-0.1660,-0.9268,-0.427,0.244,0.366,-169.788,22.072,-19.292
11892,-0.3794,-0.1665,-0.9253,-0.366,0.000,0.183,-169.794,22.072,-19.292
11902,-0.3833,-0.1660,-0.9258,-0.183,-0.305,0.122,-169.799,22.077,-19.292
11912,-0.3799,-0.1665,-0.9248,0.000,-0.305,0.061,-169.799,22.077,-19.292
11922,-0.3789,-0.1694,-0.9243,0.244,-0.183,0.061,-169.794,22.083,-19.292
11932,-0.3784,-0.1704,-0.9233,0.366,-0.061,0.061,-169.788,22.077,-19.292
11942,-0.3794,-0.1699,-0.9268,0.427,0.000,0.122,-169.783,22.077,-19.292
11952,-0.3779,-0.1704,-0.9238,0.305,-0.061,0.305,-169.777,22.077,-19.292
11962,-0.3784,-0.1685,-0.9243,0.061,-0.122,0.305,-169.777,22.077,-19.292
11972,-0.3799,-0.1675,-0.9219,-0.122,-0.183,0.305,-169.777,22.083,-19.292
11982,-0.3813,-0.1689,-0.9229,-0.122,-0.305,0.244,-169.777,22.083,-19.292
11992,-0.3813,-0.1665,-0.9214,0.000,-0.366,0.183,-169.777,22.088,-19.292
12002,-0.3804,-0.1670,-0.9214,0.000,-0.366,0.183,-169.777,22.094,-19.292
12012,-0.3813,-0.1680,-0.9189,0.122,-0.427,0.061,-169.777,22.099,-19.292
12022,-0.3813,-0.1709,-0.9194,0.122,-0.305,0.061,-169.772,22.104,-19.292
12032,-0.3789,-0.1694,-0.9214,0.000,-0.305,-0.061,-169.772,22.104,-19.292
12042,-0.3804,-0.1704,-0.9189,-0.244,-0.305,0.000,-169.766,22.110,-19.292
12052,-0.3809,-0.1704,-0.9224,-0.244,-0.366,0.061,-169.766,22.110,-19.292
12062,-0.3813,-0.1714,-0.9204,-0.244,-0.427,0.061,-169.766,22.115,-19.292
12072,-0.3818,-0.1724,-0.9209,-0.183,-0.366,0.122,-169.766,22.121,-19.292
12082,-0.3804,-0.1724,-0.9214,-0.122,-0.122,0.244,-169.766,22.121,-19.292
12092,-0.3799,-0.1738,-0.9214,-0.061,0.183,0.305,-169.761,22.121,-19.292
12102,-0.3804,-0.1724,-0.9209,0.000,0.305,0.488,-169.761,22.115,-19.292
12112,-0.3828,-0.1685,-0.9214,0.061,0.000,0.671,-169.761,22.121,-19.292
12122,-0.3833,-0.1680,-0.9204,0.244,-0.305,0.610,-169.761,22.126,-19.292
12132,-0.3828,-0.1670,-0.9189,0.427,-0.488,0.488,-169.755,22.132,-19.292
12142,-0.3833,-0.1665,-0.9175,0.671,-0.488,0.366,-169.750,22.143,-19.292
12152,-0.3823,-0.1670,-0.9160,0.854,-0.244,0.305,-169.744,22.143,-19.292
12163,-0.3823,-0.1689,-0.9165,0.793,0.061,0.305,-169.733,22.148,-19.292
12172,-0.3784,-0.1689,-0.9160,0.305,0.427,0.061,-169.728,22.143,-19.292
12182,-0.3784,-0.1670,-0.9175,-0.305,0.488,0.122,-169.733,22.137,-19.292
12192,-0.3799,-0.1670,-0.9194,-0.610,0.427,0.244,-169.739,22.132,-19.292
12202,-0.3794,-0.1646,-0.9219,-0.610,0.244,0.183,-169.750,22.132,-19.292
12212,-0.3818,-0.1646,-0.9219,-0.366,0.122,0.000,-169.755,22.132,-19.292
12222,-0.3828,-0.1650,-0.9229,0.061,0.061,0.000,-169.755,22.132,-19.292
12232,-0.3804,-0.1660,-0.9219,0.427,0.122,0.000,-169.750,22.126,-19.292
12242,-0.3813,-0.1665,-0.9214,0.549,0.122,0.061,-169.744,22.126,-19.292
12252,-0.3789,-0.1631,-0.9194,0.366,0.061,0.061,-169.744,22.126,-19.292
12262,-0.3794,-0.1636,-0.9170,0.122,0.000,-0.061,-169.744,22.126,-19.292
12272,-0.3818,-0.1611,-0.9180,-0.122,-0.061,-0.183,-169.744,22.132,-19.292
12282,-0.3828,-0.1611,-0.9180,-0.122,0.000,-0.488,-169.750,22.132,-19.292
12292,-0.3813,-0.1597,-0.9131,0.000,0.244,-0.854,-169.750,22.126,-19.292
12302,-0.3804,-0.1646,-0.9141,0.061,0.610,-1.038,-169.744,22.121,-19.286
12312,-0.3794,-0.1699,-0.9155,-0.122,0.916,-1.099,-169.739,22.110,-19.276
12322,-0.3784,-0.1719,-0.9170,-0.732,1.099,-1.038,-169.739,22.099,-19.265
12332,-0.3789,-0.1729,-0.9219,-1.221,1.282,-0.854,-169.744,22.083,-19.259
12342,-0.3789,-0.1729,-0.9253,-1.465,1.343,-0.610,-169.755,22.072,-19.254
12352,-0.3809,-0.1714,-0.9253,-1.343,1.038,-0.488,-169.766,22.055,-19.254
12363,-0.3799,-0.1729,-0.9248,-0.671,0.793,-0.427,-169.766,22.050,-19.248
12372,-0.3779,-0.1733,-0.9272,0.000,0.610,-0.488,-169.761,22.039,-19.243
12383,-0.3799,-0.1748,-0.9263,0.366,0.427,-0.366,-169.755,22.033,-19.243
12393,-0.3799,-0.1768,-0.9258,0.366,0.366,-0.244,-169.744,22.028,-19.243
12403,-0.3794,-0.1777,-0.9263,0.061,0.183,-0.122,-169.739,22.028,-19.237
12413,-0.3804,-0.1733,-0.9263,-0.305,0.000,0.061,-169.739,22.028,-19.237
12423,-0.3813,-0.1709,-0.9243,-0.366,-0.122,0.122,-169.739,22.028,-19.243
12433,-0.3799,-0.1709,-0.9263,-0.122,-0.244,0.122,-169.739,22.028,-19.243
12443,-0.3789,-0.1714,-0.9243,0.305,-0.305,0.122,-169.733,22.033,-19.243
12453,-0.3789,-0.1694,-0.9229,0.671,-0.366,0.122,-169.722,22.033,-19.243
12463,-0.3804,-0.1689,-0.9209,0.854,-0.366,0.244,-169.717,22.039,-19.243
12473,-0.3789,-0.1699,-0.9224,0.793,-0.244,0.305,-169.706,22.044,-19.248
12483,-0.3794,-0.1675,-0.9180,0.549,-0.183,0.366,-169.700,22.044,-19.254
12493,-0.3799,-0.1660,-0.9194,0.366,-0.122,0.366,-169.700,22.050,-19.254
12503,-0.3804,-0.1641,-0.9214,0.061,-0.183,0.366,-169.706,22.050,-19.259
12513,-0.3813,-0.1641,-0.9204,-0.122,-0.244,0.305,-169.706,22.055,-19.259
12523,-0.3818,-0.1621,-0.9204,-0.183,-0.305,0.183,-169.711,22.061,-19.265
12533,-0.3843,-0.1650,-0.9214,0.061,-0.183,0.061,-169.711,22.066,-19.265
12543,-0.3838,-0.1660,-0.9224,0.244,-0.122,-0.183,-169.711,22.066,-19.259
12553,-0.3813,-0.1670,-0.9214,0.305,-0.122,-0.305,-169.706,22.072,-19.259
12563,-0.3818,-0.1665,-0.9219,0.183,-0.183,-0.305,-169.706,22.072,-19.254
12573,-0.3794,-0.1670,-0.9204,-0.061,-0.183,-0.244,-169.706,22.072,-19.248
12583,-0.3809,-0.1670,-0.9199,-0.244,-0.244,-0.244,-169.706,22.077,-19.248
12593,-0.3804,-0.1660,-0.9180,-0.244,-0.366,-0.366,-169.706,22.083,-19.243
12603,-0.3809,-0.1655,-0.9194,-0.061,-0.305,-0.366,-169.706,22.083,-19.237
12613,-0.3799,-0.1694,-0.9209,0.122,-0.183,-0.488,-169.700,22.083,-19.232
12623,-0.3779,-0.1724,-0.9204,0.061,0.000,-0.549,-169.695,22.083,-19.226
12633,-0.3799,-0.1719,-0.9214,-0.183,0.000,-0.427,-169.695,22.083,-19.221
12643,-0.3794,-0.1729,-0.9209,-0.366,-0.122,-0.183,-169.695,22.083,-19.221
12653,-0.3804,-0.1719,-0.9199,-0.427,-0.244,-0.061,-169.695,22.088,-19.221
12663,-0.3804,-0.1704,-0.9224,-0.366,-0.244,0.061,-169.695,22.088,-19.221
12673,-0.3818,-0.1699,-0.9214,0.000,-0.183,0.122,-169.695,22.088,-19.221
12683,-0.3823,-0.1719,-0.9170,0.427,-0.061,0.061,-169.689,22.094,-19.221
12693,-0.3799,-0.1709,-0.9165,0.793,-0.061,0.000,-169.678,22.094,-19.221
12703,-0.3799,-0.1689,-0.9165,0.793,-0.183,0.061,-169.667,22.099,-19.221
12713,-0.3823,-0.1724,-0.9155,0.610,-0.305,0.122,-169.662,22.104,-19.221
12723,-0.3823,-0.1743,-0.9165,0.183,-0.244,0.183,-169.656,22.110,-19.221
12733,-0.3799,-0.1729,-0.9189,-0.244,0.061,0.244,-169.656,22.104,-19.226
12743,-0.3789,-0.1704,-0.9224,-0.549,0.366,0.305,-169.662,22.104,-19.232
12753,-0.3784,-0.1680,-0.9229,-0.610,0.366,0.366,-169.667,22.099,-19.232
12763,-0.3804,-0.1655,-0.9209,-0.366,0.183,0.366,-169.673,22.099,-19.237
12773,-0.3833,-0.1655,-0.9204,0.061,-0.122,0.244,-169.678,22.099,-19.243
12783,-0.3833,-0.1675,-0.9175,0.488,-0.305,0.061,-169.673,22.104,-19.243
12793,-0.3823,-0.1685,-0.9146,0.610,-0.305,0.000,-169.662,22.110,-19.243
12803,-0.3818,-0.1685,-0.9175,0.549,-0.061,0.061,-169.656,22.115,-19.243
12813,-0.3809,-0.1709,-0.9180,0.183,0.244,0.061,-169.656,22.115,-19.243
12823,-0.3804,-0.1689,-0.9170,-0.305,0.549,0.183,-169.656,22.110,-19.243
12833,-0.3789,-0.1665,-0.9194,-0.549,0.427,0.244,-169.667,22.104,-19.248
12843,-0.3799,-0.1675,-0.9194,-0.488,0.122,0.244,-169.673,22.104,-19.254
12853,-0.3828,-0.1641,-0.9204,-0.183,0.000,0.122,-169.673,22.104,-19.254
12863,-0.3813,-0.1660,-0.9185,0.244,-0.061,-0.061,-169.673,22.110,-19.254
12873,-0.3794,-0.1660,-0.9199,0.549,0.122,-0.183,-169.667,22.104,-19.248
12883,-0.3804,-0.1675,-0.9209,0.549,0.305,-0.183,-169.662,22.104,-19.248
12893,-0.3799,-0.1675,-0.9214,0.305,0.427,-0.122,-169.662,22.099,-19.248
12903,-0.3789,-0.1670,-0.9204,-0.183,0.549,0.000,-169.662,22.094,-19.248
12913,-0.3794,-0.1665,-0.9214,-0.610,0.671,0.122,-169.673,22.088,-19.254
12923,-0.3799,-0.1670,-0.9224,-0.854,0.793,0.061,-169.678,22.077,-19.254
12933,-0.3818,-0.1646,-0.9243,-0.732,0.793,-0.183,-169.689,22.072,-19.254
12943,-0.3809,-0.1646,-0.9248,-0.244,0.671,-0.427,-169.695,22.066,-19.248
12953,-0.3823,-0.1665,-0.9287,0.549,0.488,-0.610,-169.689,22.055,-19.243
12963,-0.3818,-0.1665,-0.9238,1.282,0.244,-0.793,-169.673,22.055,-19.237
12973,-0.3848,-0.1665,-0.9243,1.953,0.000,-0.916,-169.651,22.055,-19.226
12983,-0.3853,-0.1704,-0.9194,2.563,-0.122,-1.160,-169.618,22.055,-19.215
12993,-0.3853,-0.1694,-0.9170,2.869,-0.122,-1.343,-169.585,22.061,-19.199
13003,-0.3828,-0.1689,-0.9121,2.869,0.000,-1.587,-169.547,22.061,-19.182
13013,-0.3804,-0.1655,-0.9126,3.052,0.305,-1.831,-169.514,22.055,-19.166
13023,-0.3784,-0.1729,-0.9106,3.784,0.732,-1.953,-169.464,22.050,-19.144
13033,-0.3765,-0.1763,-0.9097,3.662,0.977,-2.014,-169.420,22.033,-19.127
13043,-0.3765,-0.1787,-0.9102,2.625,1.221,-1.953,-169.382,22.022,-19.105
13053,-0.3735,-0.1787,-0.9082,0.854,1.282,-1.526,-169.360,22.006,-19.094
13063,-0.3765,-0.1797,-0.9121,-0.671,1.282,-1.038,-169.360,21.989,-19.083
13073,-0.3770,-0.1763,-0.9165,-1.587,1.404,-0.793,-169.371,21.978,-19.078
13083,-0.3765,-0.1748,-0.9204,-1.709,1.465,-0.610,-169.387,21.962,-19.078
13093,-0.3779,-0.1748,-0.9253,-1.282,1.404,-0.366,-169.398,21.945,-19.078
13103,-0.3770,-0.1772,-0.9277,-0.610,1.221,-0.366,-169.398,21.929,-19.072
13113,-0.3774,-0.1787,-0.9282,-0.183,0.916,-0.305,-169.398,21.918,-19.072
13123,-0.3779,-0.1777,-0.9312,0.000,0.549,-0.183,-169.398,21.912,-19.072
13133,-0.3799,-0.1787,-0.9277,0.122,0.305,-0.061,-169.393,21.907,-19.072
13143,-0.3799,-0.1772,-0.9258,0.061,0.244,0.000,-169.387,21.907,-19.072
13153,-0.3789,-0.1792,-0.9292,0.061,0.366,0.061,-169.387,21.901,-19.072
13163,-0.3789,-0.1792,-0.9287,-0.061,0.488,0.183,-169.382,21.896,-19.078
13173,-0.3784,-0.1768,-0.9268,-0.122,0.305,0.366,-169.387,21.896,-19.083
13183,-0.3770,-0.1748,-0.9302,0.000,0.000,0.427,-169.387,21.896,-19.083
13193,-0.3784,-0.1729,-0.9268,0.305,-0.549,0.427,-169.387,21.901,-19.089
13203,-0.3789,-0.1704,-0.9238,0.610,-0.854,0.366,-169.382,21.907,-19.089
13213,-0.3799,-0.1704,-0.9199,0.854,-1.038,0.305,-169.376,21.923,-19.094
13223,-0.3794,-0.1694,-0.9170,0.854,-1.038,0.244,-169.371,21.934,-19.094
13233,-0.3799,-0.1699,-0.9136,0.671,-0.854,0.122,-169.360,21.945,-19.094
13243,-0.3784,-0.1689,-0.9146,0.244,-0.671,0.000,-169.360,21.956,-19.089
13253,-0.3770,-0.1714,-0.9131,-0.244,-0.427,-0.061,-169.365,21.962,-19.089
13263,-0.3745,-0.1729,-0.9141,-0.610,-0.183,-0.061,-169.365,21.962,-19.089
13273,-0.3755,-0.1748,-0.9155,-1.038,0.061,-0.183,-169.376,21.962,-19.089
13283,-0.3765,-0.1763,-0.9165,-1.221,0.244,-0.122,-169.387,21.956,-19.083
13293,-0.3779,-0.1763,-0.9170,-1.282,0.366,-0.061,-169.393,21.956,-19.083
13303,-0.3770,-0.1733,-0.9170,-1.099,0.488,0.122,-169.404,21.951,-19.089
13313,-0.3779,-0.1724,-0.9165,-0.854,0.488,0.183,-169.415,21.945,-19.089
13323,-0.3789,-0.1714,-0.9189,-0.549,0.488,0.244,-169.420,21.945,-19.094
13333,-0.3809,-0.1729,-0.9194,-0.244,0.488,0.183,-169.426,21.940,-19.100
13343,-0.3813,-0.1733,-0.9204,0.000,0.488,0.061,-169.426,21.940,-19.100
13353,-0.3799,-0.1738,-0.9209,0.000,0.488,-0.061,-169.420,21.934,-19.100
13363,-0.3799,-0.1724,-0.9189,-0.122,0.366,-0.122,-169.426,21.934,-19.100
13373,-0.3770,-0.1733,-0.9204,-0.305,0.488,-0.244,-169.426,21.929,-19.100
13383,-0.3770,-0.1738,-0.9189,-0.488,0.610,-0.244,-169.426,21.923,-19.094
13393,-0.3750,-0.1719,-0.9243,-0.916,0.793,-0.061,-169.437,21.912,-19.094
13403,-0.3755,-0.1714,-0.9268,-1.099,0.854,0.122,-169.453,21.901,-19.100
13413,-0.3784,-0.1675,-0.9272,-1.099,0.793,0.244,-169.464,21.896,-19.105
13423,-0.3779,-0.1675,-0.9292,-0.671,0.671,0.183,-169.475,21.890,-19.105
13433,-0.3784,-0.1680,-0.9268,-0.122,0.427,0.122,-169.481,21.885,-19.111
13443,-0.3779,-0.1694,-0.9263,0.366,0.000,-0.061,-169.481,21.885,-19.111
13453,-0.3794,-0.1714,-0.9248,0.549,-0.427,-0.183,-169.475,21.890,-19.105
13463,-0.3789,-0.1724,-0.9224,0.488,-0.610,-0.366,-169.464,21.896,-19.100
13473,-0.3779,-0.1729,-0.9214,0.122,-0.427,-0.305,-169.464,21.901,-19.094
13483,-0.3750,-0.1743,-0.9224,-0.305,-0.244,-0.183,-169.464,21.901,-19.094
13493,-0.3794,-0.1733,-0.9263,-0.610,-0.122,-0.122,-169.470,21.901,-19.094
13503,-0.3789,-0.1704,-0.9258,-0.610,-0.244,-0.061,-169.475,21.907,-19.089
13513,-0.3789,-0.1704,-0.9238,-0.366,-0.549,-0.122,-169.475,21.912,-19.089
13523,-0.3784,-0.1714,-0.9229,0.122,-0.732,-0.244,-169.475,21.918,-19.083
13533,-0.3760,-0.1709,-0.9199,0.610,-0.732,-0.366,-169.464,21.923,-19.078
13543,-0.3770,-0.1724,-0.9175,0.793,-0.549,-0.427,-169.453,21.929,-19.072
13553,-0.3760,-0.1733,-0.9170,0.610,-0.305,-0.305,-169.448,21.934,-19.072
13563,-0.3750,-0.1743,-0.9189,0.122,-0.244,-0.122,-169.442,21.934,-19.067
13573,-0.3760,-0.1763,-0.9189,-0.427,-0.244,-0.061,-169.442,21.934,-19.067
13583,-0.3774,-0.1748,-0.9204,-0.854,-0.183,0.000,-169.448,21.934,-19.067
13593,-0.3770,-0.1729,-0.9185,-0.854,-0.061,0.061,-169.459,21.940,-19.067
13603,-0.3784,-0.1724,-0.9233,-0.610,0.183,0.061,-169.464,21.934,-19.067
13613,-0.3809,-0.1738,-0.9233,-0.183,0.305,0.000,-169.464,21.934,-19.067
13623,-0.3799,-0.1748,-0.9185,0.183,0.305,-0.061,-169.459,21.934,-19.067
13633,-0.3813,-0.1758,-0.9238,0.244,0.122,0.000,-169.453,21.934,-19.067
13643,-0.3804,-0.1768,-0.9214,0.122,0.061,0.061,-169.453,21.934,-19.072
13653,-0.3784,-0.1768,-0.9189,0.000,0.000,0.183,-169.448,21.934,-19.072
13663,-0.3789,-0.1758,-0.9194,-0.122,-0.061,0.244,-169.448,21.940,-19.072
13673,-0.3779,-0.1748,-0.9209,-0.061,-0.122,0.366,-169.448,21.940,-19.078
13683,-0.3770,-0.1733,-0.9204,0.183,-0.122,0.427,-169.448,21.940,-19.083
13693,-0.3779,-0.1753,-0.9199,0.427,0.000,0.427,-169.442,21.945,-19.089
13703,-0.3750,-0.1772,-0.9175,0.610,0.061,0.549,-169.431,21.940,-19.094
13713,-0.3765,-0.1748,-0.9160,0.671,0.244,0.610,-169.426,21.940,-19.100
13723,-0.3755,-0.1733,-0.9160,0.488,0.488,0.671,-169.426,21.940,-19.105
13733,-0.3750,-0.1743,-0.9199,0.244,0.610,0.793,-169.426,21.934,-19.116
13743,-0.3755,-0.1738,-0.9185,-0.061,0.671,0.916,-169.426,21.929,-19.127
13753,-0.3765,-0.1709,-0.9194,-0.244,0.671,1.038,-169.437,21.923,-19.138
13763,-0.3789,-0.1709,-0.9185,-0.305,0.793,1.038,-169.442,21.918,-19.155
13773,-0.3774,-0.1685,-0.9204,-0.305,0.854,0.854,-169.453,21.912,-19.166
13783,-0.3779,-0.1709,-0.9233,-0.183,0.916,0.732,-169.459,21.907,-19.171
13793,-0.3789,-0.1719,-0.9233,-0.122,0.977,0.732,-169.464,21.896,-19.182
13803,-0.3789,-0.1719,-0.9233,-0.183,0.977,0.793,-169.470,21.890,-19.193
13813,-0.3779,-0.1699,-0.9238,-0.244,1.038,0.793,-169.475,21.879,-19.204
13823,-0.3789,-0.1670,-0.9248,-0.244,1.038,0.732,-169.486,21.874,-19.215
13833,-0.3779,-0.1665,-0.9287,-0.122,0.977,0.671,-169.492,21.863,-19.221
13843,-0.3779,-0.1660,-0.9292,0.122,0.793,0.488,-169.497,21.857,-19.232
13853,-0.3779,-0.1641,-0.9287,0.427,0.549,0.305,-169.497,21.852,-19.232
13863,-0.3794,-0.1650,-0.9287,0.610,0.183,0.061,-169.497,21.852,-19.237
13875,-0.3784,-0.1675,-0.9214,0.671,-0.061,-0.122,-169.492,21.852,-19.232
13883,-0.3745,-0.1685,-0.9194,0.427,-0.061,-0.244,-169.486,21.852,-19.232
13893,-0.3726,-0.1694,-0.9194,-0.061,0.183,-0.305,-169.486,21.852,-19.226
13903,-0.3735,-0.1699,-0.9185,-0.549,0.366,-0.183,-169.492,21.846,-19.226
13913,-0.3740,-0.1699,-0.9224,-0.916,0.488,-0.122,-169.503,21.841,-19.226
13923,-0.3730,-0.1699,-0.9297,-1.160,0.427,-0.183,-169.514,21.830,-19.226
13933,-0.3745,-0.1748,-0.9263,-1.038,0.244,-0.244,-169.525,21.830,-19.226
13943,-0.3755,-0.1724,-0.9277,-0.732,-0.061,-0.244,-169.530,21.824,-19.221
13953,-0.3774,-0.1733,-0.9233,-0.183,-0.244,-0.183,-169.530,21.830,-19.221
13963,-0.3760,-0.1753,-0.9248,0.305,-0.427,-0.061,-169.525,21.830,-19.215
13973,-0.3770,-0.1748,-0.9238,0.488,-0.610,0.061,-169.514,21.841,-19.215
13983,-0.3784,-0.1743,-0.9248,0.427,-0.610,0.122,-169.508,21.846,-19.215
13993,-0.3779,-0.1724,-0.9204,0.244,-0.427,0.122,-169.503,21.852,-19.215
14003,-0.3779,-0.1724,-0.9199,0.061,-0.305,0.122,-169.503,21.857,-19.215
14013,-0.3755,-0.1733,-0.9214,0.061,-0.183,0.122,-169.503,21.857,-19.221
14023,-0.3745,-0.1733,-0.9189,0.000,-0.366,0.183,-169.503,21.863,-19.221
14033,-0.3750,-0.1743,-0.9180,0.000,-0.549,0.305,-169.497,21.868,-19.221
14043,-0.3779,-0.1738,-0.9209,0.122,-0.427,0.366,-169.497,21.874,-19.226
14053,-0.3774,-0.1719,-0.9204,0.244,0.000,0.488,-169.497,21.874,-19.232
14063,-0.3765,-0.1699,-0.9214,0.305,0.427,0.549,-169.497,21.874,-19.237
14073,-0.3765,-0.1680,-0.9229,0.366,0.610,0.549,-169.497,21.868,-19.243
14083,-0.3774,-0.1685,-0.9199,0.366,0.549,0.427,-169.497,21.863,-19.248
14093,-0.3779,-0.1689,-0.9185,0.366,0.305,0.244,-169.492,21.863,-19.254
14103,-0.3779,-0.1699,-0.9155,0.305,0.061,0.061,-169.492,21.863,-19.254
14113,-0.3760,-0.1729,-0.9170,0.000,0.061,0.061,-169.492,21.863,-19.254
14123,-0.3770,-0.1738,-0.9155,-0.305,0.366,0.122,-169.492,21.863,-19.254
14133,-0.3770,-0.1719,-0.9204,-0.488,0.916,0.183,-169.497,21.857,-19.259
14143,-0.3765,-0.1685,-0.9233,-0.549,1.343,0.366,-169.508,21.841,-19.265
14153,-0.3765,-0.1680,-0.9224,-0.427,1.404,0.366,-169.514,21.830,-19.276
14164,-0.3765,-0.1685,-0.9248,-0.122,1.099,0.244,-169.519,21.819,-19.276
14173,-0.3774,-0.1694,-0.9268,0.244,0.671,0.183,-169.519,21.813,-19.281
14183,-0.3779,-0.1704,-0.9248,0.488,0.244,0.061,-169.514,21.813,-19.281
14193,-0.3784,-0.1714,-0.9189,0.549,0.000,-0.061,-169.508,21.813,-19.281
14203,-0.3770,-0.1714,-0.9199,0.549,0.000,-0.122,-169.503,21.813,-19.281
14213,-0.3750,-0.1724,-0.9214,0.244,0.183,0.000,-169.497,21.813,-19.281
14223,-0.3730,-0.1748,-0.9209,-0.061,0.427,0.000,-169.497,21.808,-19.281
14233,-0.3735,-0.1733,-0.9224,-0.305,0.549,-0.061,-169.497,21.802,-19.281
14243,-0.3750,-0.1748,-0.9204,-0.244,0.671,-0.122,-169.497,21.797,-19.281
14253,-0.3750,-0.1768,-0.9204,0.061,0.793,-0.183,-169.492,21.786,-19.281
14263,-0.3755,-0.1802,-0.9238,0.549,1.099,-0.244,-169.481,21.775,-19.281
14273,-0.3750,-0.1826,-0.9219,0.854,1.526,-0.122,-169.470,21.758,-19.281
14283,-0.3750,-0.1826,-0.9224,1.160,1.831,0.244,-169.453,21.742,-19.286
14293,-0.3765,-0.1821,-0.9233,1.465,1.953,0.671,-169.437,21.725,-19.297
14303,-0.3784,-0.1802,-0.9268,1.770,1.831,1.099,-169.420,21.709,-19.314
14313,-0.3794,-0.1743,-0.9268,2.075,1.465,1.221,-169.404,21.703,-19.330
14323,-0.3779,-0.1714,-0.9258,2.441,0.977,1.221,-169.387,21.698,-19.347
14333,-0.3779,-0.1699,-0.9243,2.625,0.427,1.099,-169.365,21.698,-19.358
14343,-0.3755,-0.1709,-0.9209,2.380,0.122,1.038,-169.349,21.698,-19.369
14353,-0.3755,-0.1685,-0.9189,1.831,0.000,0.977,-169.338,21.703,-19.380
14363,-0.3740,-0.1660,-0.9189,1.038,0.061,0.977,-169.332,21.703,-19.391
14373,-0.3735,-0.1655,-0.9194,0.366,0.122,0.916,-169.338,21.703,-19.402
14383,-0.3716,-0.1665,-0.9219,-0.183,0.183,0.793,-169.349,21.703,-19.407
14393,-0.3711,-0.1650,-0.9214,-0.549,0.244,0.610,-169.360,21.703,-19.418
14403,-0.3701,-0.1650,-0.9219,-0.671,0.244,0.549,-169.376,21.698,-19.424
14413,-0.3696,-0.1655,-0.9233,-0.610,0.305,0.427,-169.387,21.698,-19.429
14423,-0.3701,-0.1675,-0.9238,-0.610,0.305,0.366,-169.398,21.693,-19.429
14433,-0.3730,-0.1675,-0.9253,-0.427,0.427,0.366,-169.409,21.687,-19.435
14443,-0.3750,-0.1689,-0.9243,-0.183,0.610,0.244,-169.415,21.682,-19.440
14453,-0.3740,-0.1704,-0.9253,0.000,0.671,0.122,-169.415,21.676,-19.440
14463,-0.3745,-0.1714,-0.9243,0.122,0.610,0.000,-169.415,21.671,-19.446
14473,-0.3760,-0.1709,-0.9243,0.244,0.488,-0.061,-169.415,21.665,-19.446
14483,-0.3760,-0.1714,-0.9253,0.366,0.244,-0.183,-169.409,21.665,-19.440
14493,-0.3755,-0.1709,-0.9248,0.427,0.122,-0.244,-169.409,21.665,-19.440
14503,-0.3760,-0.1714,-0.9229,0.427,0.000,-0.183,-169.404,21.665,-19.440
14513,-0.3755,-0.1719,-0.9194,0.366,-0.061,-0.183,-169.398,21.671,-19.435
14523,-0.3721,-0.1758,-0.9150,0.244,-0.183,-0.305,-169.393,21.671,-19.435
14533,-0.3726,-0.1743,-0.9194,-0.183,-0.183,-0.366,-169.393,21.671,-19.429
14543,-0.3745,-0.1753,-0.9189,-0.610,0.000,-0.305,-169.393,21.676,-19.424
14553,-0.3726,-0.1743,-0.9219,-0.793,0.366,-0.183,-169.398,21.671,-19.424
14563,-0.3706,-0.1729,-0.9209,-0.671,0.732,-0.122,-169.409,21.660,-19.424
14573,-0.3706,-0.1748,-0.9209,-0.366,0.916,-0.061,-169.409,21.654,-19.424
14583,-0.3701,-0.1758,-0.9229,-0.061,0.793,0.000,-169.409,21.643,-19.429
14593,-0.3711,-0.1758,-0.9248,0.000,0.549,0.122,-169.409,21.638,-19.429
14603,-0.3726,-0.1748,-0.9253,-0.122,0.366,0.244,-169.409,21.632,-19.435
14613,-0.3726,-0.1724,-0.9238,-0.305,0.366,0.244,-169.415,21.632,-19.435
14623,-0.3755,-0.1709,-0.9238,-0.366,0.244,0.244,-169.420,21.627,-19.440
14633,-0.3765,-0.1729,-0.9243,-0.244,0.122,0.183,-169.420,21.632,-19.440
14643,-0.3750,-0.1714,-0.9248,-0.061,0.000,0.061,-169.426,21.632,-19.440
14653,-0.3760,-0.1704,-0.9248,0.061,0.000,-0.061,-169.426,21.632,-19.440
14664,-0.3750,-0.1699,-0.9243,0.000,0.000,-0.183,-169.426,21.632,-19.440
14673,-0.3740,-0.1699,-0.9233,-0.183,0.061,-0.305,-169.426,21.632,-19.435
14683,-0.3696,-0.1724,-0.9243,-0.488,0.000,-0.427,-169.431,21.632,-19.429
14693,-0.3691,-0.1729,-0.9272,-0.793,-0.122,-0.366,-169.437,21.627,-19.429
14703,-0.3706,-0.1729,-0.9272,-0.854,-0.244,-0.305,-169.442,21.627,-19.424
14713,-0.3726,-0.1689,-0.9282,-0.671,-0.488,-0.305,-169.453,21.632,-19.418
14723,-0.3730,-0.1709,-0.9248,-0.061,-0.610,-0.488,-169.453,21.638,-19.413
14733,-0.3726,-0.1719,-0.9229,0.427,-0.793,-0.610,-169.442,21.643,-19.407
14743,-0.3745,-0.1758,-0.9189,0.732,-0.854,-0.671,-169.431,21.654,-19.396
14753,-0.3740,-0.1763,-0.9146,0.610,-0.671,-0.610,-169.420,21.660,-19.391
14763,-0.3735,-0.1787,-0.9146,0.061,-0.183,-0.488,-169.409,21.665,-19.385
14773,-0.3735,-0.1782,-0.9180,-0.671,0.183,-0.244,-169.415,21.665,-19.380
14783,-0.3726,-0.1763,-0.9180,-1.282,0.366,0.000,-169.420,21.660,-19.380
14793,-0.3745,-0.1743,-0.9219,-1.404,0.610,0.244,-169.437,21.654,-19.385
14803,-0.3745,-0.1729,-0.9229,-1.099,0.671,0.366,-169.448,21.649,-19.391
14813,-0.3740,-0.1719,-0.9214,-0.488,0.671,0.244,-169.453,21.643,-19.396
14823,-0.3745,-0.1709,-0.9219,0.122,0.610,0.183,-169.453,21.643,-19.396
14833,-0.3726,-0.1733,-0.9238,0.488,0.366,0.061,-169.448,21.638,-19.402
14843,-0.3726,-0.1733,-0.9214,0.427,0.061,0.000,-169.448,21.638,-19.402
14853,-0.3726,-0.1724,-0.9185,0.183,-0.244,-0.122,-169.442,21.638,-19.396
14863,-0.3735,-0.1714,-0.9204,-0.183,-0.366,-0.183,-169.442,21.643,-19.396
14873,-0.3730,-0.1704,-0.9229,-0.366,-0.183,-0.183,-169.448,21.649,-19.391
14883,-0.3735,-0.1709,-0.9233,-0.366,0.183,-0.305,-169.448,21.643,-19.391
14893,-0.3740,-0.1733,-0.9229,-0.244,0.366,-0.244,-169.453,21.643,-19.385
14903,-0.3735,-0.1729,-0.9243,-0.061,0.366,-0.183,-169.448,21.638,-19.385
14913,-0.3745,-0.1748,-0.9263,-0.061,0.244,-0.183,-169.448,21.638,-19.385
14923,-0.3745,-0.1753,-0.9253,-0.183,0.122,-0.183,-169.448,21.632,-19.385
14933,-0.3740,-0.1733,-0.9253,-0.366,0.122,-0.183,-169.453,21.632,-19.380
14943,-0.3755,-0.1714,-0.9253,-0.366,0.244,-0.122,-169.453,21.632,-19.380
14953,-0.3745,-0.1709,-0.9243,-0.183,0.244,-0.183,-169.459,21.632,-19.380
14963,-0.3750,-0.1729,-0.9238,0.183,0.061,-0.244,-169.453,21.632,-19.374
14973,-0.3750,-0.1772,-0.9229,0.366,-0.244,-0.244,-169.448,21.632,-19.374
14983,-0.3755,-0.1768,-0.9209,0.488,-0.488,-0.183,-169.437,21.638,-19.369
14993,-0.3750,-0.1768,-0.9204,0.427,-0.488,-0.122,-169.426,21.649,-19.369
15003,-0.3735,-0.1768,-0.9170,0.305,-0.366,-0.061,-169.420,21.649,-19.369
15013,-0.3735,-0.1777,-0.9155,0.122,-0.122,0.000,-169.415,21.654,-19.369
15023,-0.3701,-0.1782,-0.9160,-0.122,0.183,0.183,-169.415,21.654,-19.369
15033,-0.3691,-0.1782,-0.9185,-0.305,0.305,0.427,-169.415,21.649,-19.374
15043,-0.3730,-0.1753,-0.9219,-0.366,0.366,0.549,-169.420,21.649,-19.380
15053,-0.3760,-0.1724,-0.9214,-0.122,0.488,0.488,-169.420,21.643,-19.385
15063,-0.3740,-0.1748,-0.9209,0.122,0.732,0.366,-169.420,21.638,-19.391
15073,-0.3716,-0.1768,-0.9189,0.061,0.916,0.427,-169.420,21.632,-19.396
15083,-0.3726,-0.1753,-0.9219,0.000,0.916,0.549,-169.420,21.627,-19.407
15093,-0.3740,-0.1724,-0.9229,-0.244,0.793,0.671,-169.426,21.621,-19.413
15103,-0.3755,-0.1709,-0.9243,-0.244,0.671,0.732,-169.431,21.616,-19.424
15113,-0.3750,-0.1685,-0.9248,-0.122,0.671,0.671,-169.437,21.610,-19.435
15123,-0.3740,-0.1670,-0.9253,0.122,0.671,0.549,-169.442,21.605,-19.440
15133,-0.3730,-0.1694,-0.9238,0.427,0.549,0.427,-169.442,21.605,-19.446
15143,-0.3740,-0.1689,-0.9238,0.671,0.427,0.366,-169.442,21.599,-19.451
15153,-0.3711,-0.1689,-0.9219,0.610,0.366,0.244,-169.437,21.599,-19.451
15164,-0.3711,-0.1680,-0.9248,0.305,0.305,0.244,-169.437,21.594,-19.457
15173,-0.3730,-0.1699,-0.9219,0.000,0.427,0.244,-169.442,21.594,-19.462
15183,-0.3730,-0.1675,-0.9224,-0.305,0.549,0.244,-169.448,21.588,-19.462
15193,-0.3721,-0.1685,-0.9263,-0.610,0.732,0.122,-169.459,21.583,-19.468
15203,-0.3726,-0.1665,-0.9258,-0.793,0.793,0.061,-169.470,21.572,-19.468
15213,-0.3750,-0.1660,-0.9272,-0.793,0.549,0.061,-169.481,21.572,-19.468
15223,-0.3770,-0.1675,-0.9268,-0.610,0.122,0.000,-169.492,21.572,-19.473
15233,-0.3765,-0.1680,-0.9263,-0.366,-0.183,-0.244,-169.497,21.572,-19.468
15243,-0.3779,-0.1694,-0.9229,-0.122,-0.305,-0.549,-169.497,21.577,-19.462
15253,-0.3760,-0.1709,-0.9238,-0.122,-0.244,-0.732,-169.492,21.583,-19.451
15263,-0.3730,-0.1709,-0.9199,-0.366,-0.183,-0.854,-169.492,21.583,-19.446
15273,-0.3706,-0.1743,-0.9214,-0.732,-0.122,-0.793,-169.497,21.583,-19.435
15283,-0.3696,-0.1738,-0.9224,-1.221,-0.122,-0.732,-169.503,21.583,-19.429
15293,-0.3682,-0.1758,-0.9233,-1.465,-0.183,-0.671,-169.514,21.583,-19.418
15303,-0.3677,-0.1768,-0.9272,-1.221,-0.122,-0.488,-169.519,21.577,-19.413
15313,-0.3682,-0.1763,-0.9263,-0.916,0.000,-0.305,-169.525,21.577,-19.413
15323,-0.3682,-0.1753,-0.9268,-0.488,0.122,-0.183,-169.525,21.572,-19.407
15333,-0.3706,-0.1738,-0.9258,0.061,0.061,0.061,-169.525,21.572,-19.413
15343,-0.3740,-0.1738,-0.9233,0.488,-0.122,0.061,-169.519,21.572,-19.413
15353,-0.3726,-0.1724,-0.9219,0.793,-0.427,0.061,-169.508,21.577,-19.413
15363,-0.3750,-0.1709,-0.9189,0.854,-0.671,0.061,-169.497,21.588,-19.413
15373,-0.3774,-0.1694,-0.9165,0.732,-0.671,0.061,-169.492,21.599,-19.413
15383,-0.3750,-0.1714,-0.9160,0.427,-0.427,-0.061,-169.486,21.605,-19.413
15393,-0.3730,-0.1714,-0.9155,0.000,0.061,-0.183,-169.486,21.610,-19.413
15403,-0.3701,-0.1719,-0.9189,-0.488,0.549,-0.183,-169.486,21.605,-19.413
15413,-0.3687,-0.1719,-0.9233,-0.854,0.793,-0.061,-169.497,21.594,-19.413
15423,-0.3696,-0.1724,-0.9268,-1.038,0.732,0.122,-169.508,21.583,-19.413
15433,-0.3716,-0.1704,-0.9258,-1.038,0.427,0.183,-169.519,21.583,-19.413
15443,-0.3730,-0.1665,-0.9268,-0.732,0.061,0.183,-169.530,21.583,-19.413
15453,-0.3726,-0.1694,-0.9272,-0.244,-0.061,0.122,-169.536,21.583,-19.413
15463,-0.3735,-0.1689,-0.9277,0.244,-0.061,0.000,-169.536,21.583,-19.413
15473,-0.3735,-0.1685,-0.9263,0.488,-0.061,-0.061,-169.530,21.583,-19.413
15483,-0.3716,-0.1699,-0.9238,0.427,-0.183,-0.061,-169.525,21.583,-19.413
15493,-0.3745,-0.1724,-0.9204,0.061,-0.427,0.000,-169.525,21.588,-19.413
15503,-0.3726,-0.1694,-0.9214,-0.305,-0.549,0.061,-169.525,21.599,-19.413
15513,-0.3740,-0.1704,-0.9199,-0.549,-0.366,0.000,-169.530,21.605,-19.413
15523,-0.3726,-0.1704,-0.9238,-0.610,0.000,-0.061,-169.536,21.605,-19.413
15533,-0.3735,-0.1714,-0.9229,-0.549,0.366,-0.122,-169.541,21.599,-19.413
15543,-0.3711,-0.1714,-0.9258,-0.549,0.610,-0.183,-169.547,21.594,-19.413
15553,-0.3730,-0.1729,-0.9263,-0.488,0.610,-0.122,-169.552,21.588,-19.413
15563,-0.3716,-0.1753,-0.9263,-0.488,0.549,0.000,-169.552,21.583,-19.413
15573,-0.3716,-0.1748,-0.9277,-0.488,0.366,0.122,-169.557,21.577,-19.413
15583,-0.3740,-0.1729,-0.9263,-0.305,0.366,0.244,-169.557,21.572,-19.413
15593,-0.3760,-0.1714,-0.9229,-0.061,0.305,0.244,-169.557,21.577,-19.413
15603,-0.3750,-0.1694,-0.9258,0.122,0.244,0.244,-169.563,21.572,-19.413
15613,-0.3740,-0.1704,-0.9248,0.305,0.122,0.366,-169.557,21.577,-19.413
15623,-0.3745,-0.1694,-0.9204,0.366,-0.183,0.305,-169.557,21.577,-19.413
15633,-0.3740,-0.1724,-0.9194,0.366,-0.244,0.244,-169.552,21.583,-19.413
15643,-0.3706,-0.1743,-0.9194,0.183,-0.183,0.183,-169.547,21.588,-19.413
15653,-0.3706,-0.1733,-0.9180,-0.122,0.122,0.244,-169.547,21.588,-19.413
15664,-0.3706,-0.1743,-0.9199,-0.183,0.366,0.366,-169.547,21.583,-19.413
15673,-0.3726,-0.1733,-0.9204,-0.244,0.549,0.488,-169.552,21.583,-19.413
15683,-0.3735,-0.1704,-0.9204,-0.244,0.610,0.549,-169.557,21.577,-19.413
15693,-0.3745,-0.1704,-0.9248,-0.061,0.732,0.488,-169.557,21.572,-19.413
15703,-0.3716,-0.1719,-0.9238,0.122,0.854,0.366,-169.557,21.566,-19.413
15713,-0.3706,-0.1724,-0.9243,0.000,0.854,0.488,-169.557,21.555,-19.413
15723,-0.3711,-0.1704,-0.9263,-0.305,0.854,0.549,-169.563,21.550,-19.413
15733,-0.3721,-0.1699,-0.9277,-0.488,0.854,0.549,-169.574,21.539,-19.413
15743,-0.3711,-0.1680,-0.9287,-0.549,0.732,0.488,-169.585,21.533,-19.413
15753,-0.3730,-0.1650,-0.9302,-0.305,0.549,0.427,-169.590,21.528,-19.413
15763,-0.3755,-0.1665,-0.9336,0.000,0.427,0.305,-169.596,21.528,-19.413
15773,-0.3735,-0.1685,-0.9326,0.305,0.305,0.183,-169.596,21.522,-19.413
15783,-0.3711,-0.1689,-0.9326,0.488,0.122,0.122,-169.590,21.522,-19.413
15793,-0.3726,-0.1694,-0.9307,0.427,-0.244,0.122,-169.590,21.522,-19.413
15803,-0.3706,-0.1694,-0.9272,0.305,-0.610,0.122,-169.585,21.528,-19.413
15813,-0.3740,-0.1675,-0.9272,0.183,-0.793,0.122,-169.585,21.539,-19.413
15823,-0.3730,-0.1694,-0.9272,0.183,-0.732,0.061,-169.585,21.544,-19.413
15833,-0.3716,-0.1675,-0.9243,0.183,-0.671,0.061,-169.585,21.555,-19.413
15843,-0.3730,-0.1670,-0.9253,0.183,-0.610,0.061,-169.585,21.561,-19.413
15853,-0.3726,-0.1655,-0.9219,0.244,-0.610,-0.061,-169.585,21.566,-19.413
15863,-0.3735,-0.1650,-0.9243,0.305,-0.549,-0.183,-169.585,21.572,-19.413
15876,-0.3740,-0.1650,-0.9204,0.244,-0.427,-0.305,-169.579,21.583,-19.413
15883,-0.3721,-0.1660,-0.9170,0.122,-0.427,-0.427,-169.579,21.588,-19.413
15893,-0.3721,-0.1694,-0.9165,-0.122,-0.305,-0.427,-169.579,21.588,-19.413
15903,-0.3726,-0.1724,-0.9185,-0.366,-0.183,-0.427,-169.579,21.594,-19.413
15913,-0.3740,-0.1719,-0.9189,-0.610,0.000,-0.366,-169.579,21.594,-19.413
15923,-0.3740,-0.1724,-0.9189,-0.732,0.061,-0.305,-169.585,21.594,-19.413
15933,-0.3726,-0.1743,-0.9209,-0.671,0.183,-0.183,-169.590,21.594,-19.413
15943,-0.3721,-0.1753,-0.9243,-0.610,0.305,-0.122,-169.590,21.588,-19.413
15953,-0.3691,-0.1743,-0.9238,-0.366,0.366,0.000,-169.590,21.583,-19.413
15963,-0.3726,-0.1743,-0.9248,-0.061,0.183,0.122,-169.590,21.583,-19.413
15973,-0.3740,-0.1729,-0.9248,0.366,-0.122,0.183,-169.585,21.588,-19.413
15983,-0.3755,-0.1724,-0.9243,0.854,-0.244,0.122,-169.574,21.588,-19.413
15993,-0.3745,-0.1743,-0.9165,1.038,-0.183,-0.061,-169.563,21.594,-19.413
16003,-0.3750,-0.1753,-0.9165,0.854,0.000,0.000,-169.547,21.599,-19.413
16013,-0.3706,-0.1758,-0.9155,0.305,0.427,0.183,-169.541,21.594,-19.413
16023,-0.3696,-0.1753,-0.9180,-0.427,0.732,0.488,-169.547,21.588,-19.413
16033,-0.3701,-0.1714,-0.9243,-0.916,0.977,0.793,-169.557,21.577,-19.413
16043,-0.3716,-0.1689,-0.9272,-0.732,1.038,0.793,-169.568,21.572,-19.413
16053,-0.3726,-0.1660,-0.9297,-0.061,0.916,0.732,-169.579,21.561,-19.413
16063,-0.3730,-0.1680,-0.9282,0.549,0.793,0.488,-169.574,21.555,-19.413
16073,-0.3711,-0.1675,-0.9268,0.793,0.732,0.305,-169.574,21.550,-19.413
16083,-0.3721,-0.1665,-0.9287,0.610,0.610,0.305,-169.568,21.544,-19.413
16093,-0.3706,-0.1670,-0.9243,0.183,0.366,0.366,-169.574,21.539,-19.413
16103,-0.3696,-0.1675,-0.9263,-0.427,0.183,0.366,-169.579,21.539,-19.413
16113,-0.3701,-0.1675,-0.9272,-0.732,0.000,0.366,-169.590,21.539,-19.413
16123,-0.3711,-0.1665,-0.9272,-0.793,0.061,0.244,-169.601,21.539,-19.413
16133,-0.3716,-0.1641,-0.9287,-0.488,0.183,0.122,-169.612,21.533,-19.413
16143,-0.3721,-0.1665,-0.9312,-0.061,0.244,0.061,-169.612,21.533,-19.413
16153,-0.3735,-0.1675,-0.9302,0.183,0.122,-0.061,-169.612,21.533,-19.413
16164,-0.3740,-0.1699,-0.9292,0.244,-0.183,-0.122,-169.612,21.533,-19.413
16173,-0.3721,-0.1694,-0.9282,0.122,-0.366,-0.122,-169.607,21.539,-19.413
16183,-0.3730,-0.1680,-0.9272,-0.183,-0.488,-0.061,-169.612,21.544,-19.413
16193,-0.3740,-0.1670,-0.9258,-0.305,-0.488,-0.122,-169.618,21.550,-19.413
16203,-0.3730,-0.1689,-0.9233,-0.122,-0.488,-0.305,-169.612,21.555,-19.413
16213,-0.3735,-0.1685,-0.9214,0.122,-0.488,-0.244,-169.612,21.561,-19.413
16223,-0.3730,-0.1680,-0.9209,0.244,-0.610,-0.122,-169.612,21.566,-19.413
16233,-0.3740,-0.1714,-0.9229,0.366,-0.610,0.000,-169.607,21.577,-19.413
16243,-0.3721,-0.1709,-0.9209,0.427,-0.549,-0.061,-169.596,21.583,-19.413
16253,-0.3711,-0.1714,-0.9189,0.305,-0.488,-0.061,-169.596,21.588,-19.413
16263,-0.3716,-0.1733,-0.9175,0.061,-0.488,-0.122,-169.590,21.594,-19.413
16273,-0.3711,-0.1729,-0.9160,-0.244,-0.244,-0.061,-169.590,21.594,-19.413
