elapsed_ms,acc_x_g,acc_y_g,acc_z_g,gyro_x_dps,gyro_y_dps,gyro_z_dps,angle_x_deg,angle_y_deg,angle_z_deg
0,-0.3257,-0.6265,-0.6870,0.183,0.977,0.305,-137.829,18.979,-14.821
10,-0.3228,-0.6294,-0.6846,-0.183,1.221,0.061,-137.829,18.973,-14.832
20,-0.3252,-0.6313,-0.6841,-1.099,1.526,0.000,-137.840,18.962,-14.843
30,-0.3232,-0.6323,-0.6899,-2.136,2.136,0.061,-137.862,18.951,-14.859
41,-0.3203,-0.6343,-0.6943,-2.625,2.747,0.122,-137.889,18.929,-14.881
50,-0.3193,-0.6338,-0.7021,-2.625,3.113,0.122,-137.928,18.907,-14.903
60,-0.3179,-0.6338,-0.7051,-2.014,2.930,0.244,-137.955,18.880,-14.925
70,-0.3179,-0.6367,-0.7090,-1.099,2.380,0.427,-137.972,18.864,-14.947
80,-0.3169,-0.6367,-0.7119,-0.122,1.770,0.549,-137.983,18.847,-14.963
90,-0.3179,-0.6357,-0.7119,0.671,1.221,0.610,-137.983,18.836,-14.974
100,-0.3203,-0.6357,-0.7095,1.160,0.793,0.732,-137.977,18.836,-14.985
110,-0.3218,-0.6343,-0.7080,1.404,0.488,0.854,-137.966,18.836,-14.996
120,-0.3242,-0.6328,-0.7095,1.465,0.305,0.916,-137.955,18.842,-15.007
130,-0.3247,-0.6309,-0.7070,1.404,0.061,0.854,-137.950,18.847,-15.013
140,-0.3262,-0.6279,-0.7056,1.282,0.000,0.671,-137.944,18.853,-15.018
150,-0.3276,-0.6265,-0.7012,1.038,0.061,0.488,-137.933,18.858,-15.024
160,-0.3271,-0.6250,-0.7036,0.732,0.122,0.305,-137.933,18.864,-15.024
170,-0.3257,-0.6265,-0.7017,0.366,0.305,0.122,-137.933,18.864,-15.029
180,-0.3262,-0.6279,-0.7021,-0.122,0.488,0.000,-137.939,18.864,-15.035
190,-0.3247,-0.6299,-0.7036,-0.549,0.671,-0.061,-137.950,18.858,-15.035
200,-0.3232,-0.6309,-0.7061,-0.916,0.610,-0.122,-137.961,18.853,-15.040
210,-0.3237,-0.6323,-0.7051,-0.977,0.305,-0.122,-137.972,18.853,-15.040
220,-0.3247,-0.6323,-0.7070,-0.854,0.061,-0.244,-137.983,18.847,-15.040
230,-0.3223,-0.6318,-0.7090,-0.549,-0.122,-0.244,-137.988,18.847,-15.035
240,-0.3223,-0.6328,-0.7075,-0.122,-0.244,-0.305,-137.994,18.847,-15.035
250,-0.3208,-0.6343,-0.7061,0.183,-0.488,-0.305,-137.988,18.847,-15.029
260,-0.3223,-0.6357,-0.7041,0.366,-0.732,-0.305,-137.983,18.847,-15.018
270,-0.3228,-0.6348,-0.7021,0.488,-0.916,-0.244,-137.972,18.853,-15.013
280,-0.3208,-0.6382,-0.7012,0.366,-0.977,-0.183,-137.966,18.858,-15.002
290,-0.3223,-0.6377,-0.6992,0.183,-0.977,0.061,-137.955,18.864,-14.996
300,-0.3237,-0.6357,-0.6978,0.122,-0.854,0.244,-137.950,18.875,-14.991
310,-0.3232,-0.6367,-0.6982,0.000,-0.610,0.427,-137.950,18.880,-14.991
320,-0.3237,-0.6348,-0.6958,0.000,-0.427,0.549,-137.944,18.891,-14.991
330,-0.3247,-0.6313,-0.6958,0.122,-0.244,0.549,-137.944,18.896,-14.996
340,-0.3257,-0.6309,-0.6982,0.183,-0.061,0.610,-137.944,18.902,-15.002
350,-0.3252,-0.6318,-0.7026,0.122,0.244,0.549,-137.944,18.907,-15.007
360,-0.3247,-0.6318,-0.7026,-0.122,0.488,0.549,-137.950,18.907,-15.013
370,-0.3242,-0.6304,-0.7017,-0.427,0.549,0.488,-137.955,18.907,-15.024
380,-0.3242,-0.6279,-0.7031,-0.610,0.366,0.488,-137.966,18.907,-15.029
390,-0.3237,-0.6279,-0.7051,-0.488,0.061,0.366,-137.977,18.907,-15.029
400,-0.3228,-0.6294,-0.7080,-0.244,-0.244,0.183,-137.983,18.913,-15.029
410,-0.3213,-0.6289,-0.7056,0.061,-0.732,-0.061,-137.983,18.913,-15.024
420,-0.3208,-0.6309,-0.7031,0.366,-1.221,-0.122,-137.977,18.918,-15.013
430,-0.3213,-0.6343,-0.7012,0.549,-1.587,-0.305,-137.966,18.929,-15.002
440,-0.3198,-0.6318,-0.6987,0.610,-1.709,-0.427,-137.955,18.935,-14.985
450,-0.3213,-0.6338,-0.6943,0.671,-1.648,-0.488,-137.939,18.946,-14.969
460,-0.3218,-0.6348,-0.6919,0.610,-1.404,-0.488,-137.922,18.951,-14.958
470,-0.3213,-0.6353,-0.6880,0.610,-1.099,-0.305,-137.911,18.957,-14.947
480,-0.3213,-0.6353,-0.6875,0.427,-0.854,-0.183,-137.895,18.962,-14.941
490,-0.3247,-0.6362,-0.6865,-0.061,-0.488,0.061,-137.889,18.968,-14.936
500,-0.3271,-0.6348,-0.6895,-0.366,-0.061,0.183,-137.889,18.973,-14.936
510,-0.3242,-0.6333,-0.6919,-0.549,0.488,0.244,-137.889,18.973,-14.941
520,-0.3262,-0.6323,-0.6943,-0.732,0.916,0.122,-137.900,18.968,-14.952
530,-0.3262,-0.6318,-0.6968,-0.671,1.160,0.000,-137.906,18.962,-14.958
541,-0.3257,-0.6343,-0.6958,-0.549,1.160,0.000,-137.911,18.951,-14.969
550,-0.3262,-0.6338,-0.6978,-0.488,1.099,0.000,-137.917,18.946,-14.974
560,-0.3271,-0.6353,-0.7031,-0.488,0.854,0.000,-137.922,18.940,-14.980
570,-0.3242,-0.6353,-0.7046,-0.671,0.671,0.061,-137.933,18.935,-14.985
580,-0.3242,-0.6333,-0.7065,-0.793,0.610,0.061,-137.944,18.929,-14.991
590,-0.3223,-0.6323,-0.7075,-0.732,0.610,0.183,-137.955,18.929,-14.996
600,-0.3228,-0.6289,-0.7080,-0.305,0.610,0.122,-137.966,18.924,-15.002
610,-0.3262,-0.6284,-0.7061,0.366,0.488,0.000,-137.966,18.918,-15.007
620,-0.3262,-0.6304,-0.7046,0.793,0.305,-0.122,-137.961,18.918,-15.007
630,-0.3257,-0.6323,-0.6997,0.854,0.122,-0.183,-137.950,18.918,-15.007
640,-0.3252,-0.6343,-0.6963,0.549,-0.061,-0.305,-137.944,18.918,-15.002
650,-0.3247,-0.6343,-0.6982,-0.061,-0.061,-0.244,-137.939,18.918,-15.002
660,-0.3232,-0.6357,-0.7002,-0.671,0.183,-0.244,-137.944,18.913,-15.002
670,-0.3198,-0.6348,-0.7031,-1.099,0.427,-0.183,-137.955,18.907,-15.002
680,-0.3208,-0.6333,-0.7031,-1.099,0.549,-0.122,-137.966,18.902,-15.002
690,-0.3223,-0.6338,-0.7065,-0.732,0.610,0.000,-137.977,18.891,-15.007
700,-0.3232,-0.6348,-0.7061,-0.305,0.549,0.061,-137.983,18.891,-15.013
710,-0.3232,-0.6333,-0.7051,0.122,0.305,0.000,-137.983,18.885,-15.013
720,-0.3242,-0.6328,-0.7031,0.305,0.061,0.061,-137.983,18.885,-15.018
730,-0.3242,-0.6343,-0.7051,0.183,-0.244,0.122,-137.977,18.891,-15.013
740,-0.3237,-0.6309,-0.7056,0.061,-0.549,0.183,-137.983,18.896,-15.013
750,-0.3232,-0.6289,-0.7056,0.122,-0.671,0.122,-137.983,18.902,-15.007
760,-0.3242,-0.6313,-0.7017,0.183,-0.732,-0.061,-137.977,18.907,-15.002
770,-0.3242,-0.6309,-0.7017,0.305,-0.610,-0.244,-137.972,18.907,-14.996
780,-0.3223,-0.6318,-0.7012,0.427,-0.488,-0.305,-137.966,18.907,-14.991
790,-0.3247,-0.6338,-0.7007,0.366,-0.488,-0.244,-137.961,18.913,-14.985
800,-0.3257,-0.6343,-0.7012,0.183,-0.549,-0.244,-137.955,18.918,-14.980
810,-0.3257,-0.6338,-0.6987,0.000,-0.549,-0.122,-137.955,18.918,-14.974
820,-0.3247,-0.6313,-0.6982,-0.122,-0.427,0.000,-137.950,18.924,-14.974
830,-0.3271,-0.6309,-0.6973,-0.183,-0.122,0.000,-137.955,18.929,-14.969
840,-0.3276,-0.6318,-0.6982,-0.122,0.183,-0.061,-137.955,18.929,-14.974
850,-0.3262,-0.6323,-0.6992,-0.305,0.488,-0.183,-137.955,18.924,-14.974
860,-0.3242,-0.6323,-0.6997,-0.610,0.610,-0.244,-137.961,18.918,-14.974
870,-0.3223,-0.6323,-0.7002,-0.793,0.366,-0.183,-137.972,18.918,-14.980
880,-0.3208,-0.6328,-0.7026,-0.793,-0.122,-0.183,-137.977,18.913,-14.974
890,-0.3203,-0.6343,-0.7007,-0.610,-0.732,-0.122,-137.983,18.918,-14.969
900,-0.3203,-0.6377,-0.7026,-0.305,-1.099,-0.061,-137.977,18.924,-14.969
910,-0.3208,-0.6357,-0.7012,0.000,-1.099,-0.061,-137.972,18.929,-14.969
920,-0.3184,-0.6362,-0.6992,0.366,-0.732,0.000,-137.966,18.929,-14.969
930,-0.3208,-0.6367,-0.6963,0.610,-0.488,0.061,-137.955,18.935,-14.969
940,-0.3223,-0.6353,-0.6968,0.732,-0.366,0.244,-137.944,18.935,-14.969
950,-0.3218,-0.6353,-0.6953,0.732,-0.305,0.244,-137.933,18.940,-14.969
960,-0.3247,-0.6348,-0.6929,0.549,-0.305,0.244,-137.922,18.946,-14.969
970,-0.3257,-0.6343,-0.6929,0.183,-0.122,0.244,-137.917,18.946,-14.969
980,-0.3267,-0.6318,-0.6963,-0.122,0.183,0.183,-137.917,18.951,-14.969
990,-0.3281,-0.6304,-0.6963,-0.305,0.488,0.122,-137.922,18.951,-14.969
1000,-0.3286,-0.6270,-0.6968,-0.488,0.732,0.000,-137.928,18.951,-14.969
1010,-0.3262,-0.6289,-0.7002,-0.610,0.793,-0.122,-137.939,18.946,-14.969
1020,-0.3267,-0.6279,-0.6997,-0.671,0.793,-0.244,-137.950,18.940,-14.969
1030,-0.3262,-0.6289,-0.7017,-0.732,0.610,-0.244,-137.955,18.935,-14.969
1041,-0.3252,-0.6318,-0.7017,-0.610,0.366,-0.244,-137.966,18.929,-14.969
1050,-0.3257,-0.6313,-0.7026,-0.366,0.244,-0.244,-137.972,18.929,-14.969
1060,-0.3237,-0.6328,-0.7056,-0.366,0.061,-0.305,-137.972,18.924,-14.969
1070,-0.3213,-0.6328,-0.7061,-0.427,0.000,-0.305,-137.977,18.918,-14.969
1080,-0.3203,-0.6328,-0.7031,-0.488,0.122,-0.305,-137.983,18.918,-14.969
1090,-0.3228,-0.6328,-0.7031,-0.488,0.183,-0.244,-137.988,18.913,-14.969
1100,-0.3237,-0.6333,-0.7056,-0.488,0.183,-0.244,-137.994,18.907,-14.969
1110,-0.3218,-0.6338,-0.7041,-0.366,0.122,-0.244,-137.999,18.902,-14.969
1120,-0.3218,-0.6353,-0.7056,-0.183,0.061,-0.244,-137.999,18.902,-14.969
1130,-0.3213,-0.6362,-0.7070,0.061,-0.061,-0.305,-137.999,18.896,-14.969
1140,-0.3198,-0.6367,-0.7061,0.183,-0.122,-0.244,-137.994,18.891,-14.969
1150,-0.3242,-0.6333,-0.7046,0.244,-0.122,-0.183,-137.994,18.891,-14.969
1160,-0.3232,-0.6333,-0.7041,0.244,-0.122,-0.122,-137.988,18.891,-14.969
1170,-0.3237,-0.6348,-0.7017,0.183,-0.061,-0.122,-137.983,18.891,-14.969
1180,-0.3237,-0.6343,-0.7031,0.000,-0.061,-0.122,-137.983,18.891,-14.969
1190,-0.3223,-0.6333,-0.7046,-0.183,-0.122,-0.061,-137.988,18.891,-14.969
1200,-0.3228,-0.6318,-0.7051,-0.244,-0.244,0.122,-137.988,18.891,-14.969
1210,-0.3257,-0.6289,-0.7056,0.000,-0.427,0.183,-137.994,18.896,-14.969
1220,-0.3267,-0.6284,-0.7021,0.427,-0.549,0.000,-137.988,18.902,-14.969
1230,-0.3262,-0.6279,-0.6992,0.854,-0.732,-0.183,-137.977,18.913,-14.969
1240,-0.3252,-0.6313,-0.6963,0.977,-0.793,-0.244,-137.966,18.918,-14.969
1250,-0.3262,-0.6309,-0.6943,0.793,-0.671,-0.366,-137.950,18.924,-14.969
1260,-0.3242,-0.6348,-0.6943,0.244,-0.488,-0.427,-137.944,18.924,-14.969
1270,-0.3237,-0.6357,-0.6968,-0.427,-0.183,-0.427,-137.944,18.924,-14.969
1280,-0.3237,-0.6328,-0.6958,-0.916,0.244,-0.305,-137.950,18.918,-14.969
1290,-0.3232,-0.6348,-0.6987,-1.221,0.732,-0.122,-137.961,18.913,-14.969
1300,-0.3213,-0.6333,-0.7002,-1.160,1.099,0.000,-137.972,18.902,-14.969
1310,-0.3223,-0.6313,-0.7041,-0.854,1.160,0.000,-137.988,18.896,-14.969
1320,-0.3228,-0.6299,-0.7056,-0.427,0.916,0.122,-137.994,18.885,-14.969
1330,-0.3232,-0.6318,-0.7090,-0.061,0.549,0.061,-137.999,18.885,-14.969
1340,-0.3257,-0.6309,-0.7051,0.122,0.244,0.000,-138.005,18.885,-14.969
1350,-0.3232,-0.6313,-0.7031,0.122,0.000,0.000,-137.999,18.885,-14.969
1360,-0.3242,-0.6323,-0.7046,-0.061,-0.122,0.122,-138.005,18.885,-14.969
1370,-0.3237,-0.6313,-0.7021,-0.244,-0.183,0.122,-138.005,18.885,-14.969
1380,-0.3252,-0.6313,-0.7056,-0.366,-0.305,0.000,-138.010,18.891,-14.969
1390,-0.3223,-0.6333,-0.7041,-0.183,-0.488,-0.122,-138.010,18.891,-14.969
1400,-0.3232,-0.6353,-0.7061,0.122,-0.549,-0.244,-138.010,18.896,-14.969
1410,-0.3237,-0.6338,-0.7031,0.244,-0.549,-0.305,-138.005,18.896,-14.969
1420,-0.3247,-0.6367,-0.7021,0.305,-0.427,-0.305,-137.994,18.896,-14.969
1430,-0.3262,-0.6343,-0.7007,0.244,-0.305,-0.305,-137.988,18.896,-14.969
1440,-0.3267,-0.6313,-0.6997,0.061,-0.183,-0.244,-137.988,18.902,-14.969
1450,-0.3262,-0.6294,-0.7002,-0.244,-0.244,-0.061,-137.994,18.902,-14.969
1460,-0.3267,-0.6299,-0.6997,-0.305,-0.366,0.061,-137.994,18.907,-14.969
1470,-0.3281,-0.6274,-0.7007,-0.122,-0.488,0.000,-137.994,18.918,-14.969
1480,-0.3276,-0.6270,-0.6997,0.000,-0.488,-0.183,-137.994,18.924,-14.969
1490,-0.3271,-0.6294,-0.6978,0.122,-0.366,-0.427,-137.994,18.924,-14.969
1500,-0.3237,-0.6343,-0.6978,0.061,-0.427,-0.610,-137.988,18.924,-14.969
1510,-0.3237,-0.6362,-0.6992,-0.366,-0.549,-0.671,-137.983,18.924,-14.969
1520,-0.3198,-0.6387,-0.6978,-0.793,-0.549,-0.671,-137.983,18.918,-14.969
1530,-0.3188,-0.6396,-0.6982,-0.977,-0.549,-0.488,-137.988,18.918,-14.969
1541,-0.3203,-0.6387,-0.6997,-0.732,-0.305,-0.244,-137.988,18.918,-14.969
1550,-0.3223,-0.6377,-0.7021,-0.183,-0.061,0.000,-137.988,18.913,-14.969
1560,-0.3232,-0.6377,-0.6973,0.366,0.183,0.122,-137.983,18.913,-14.969
1570,-0.3228,-0.6367,-0.6968,0.916,0.305,0.305,-137.966,18.913,-14.969
1580,-0.3228,-0.6343,-0.6953,1.160,0.305,0.488,-137.955,18.913,-14.969
1590,-0.3232,-0.6333,-0.6968,1.038,0.183,0.549,-137.944,18.918,-14.969
1600,-0.3262,-0.6333,-0.6987,0.671,0.244,0.488,-137.939,18.918,-14.969
1610,-0.3262,-0.6289,-0.6982,0.305,0.366,0.488,-137.939,18.924,-14.969
1620,-0.3276,-0.6260,-0.7002,0.122,0.549,0.366,-137.944,18.924,-14.969
1630,-0.3267,-0.6270,-0.7046,0.122,0.732,0.183,-137.944,18.924,-14.969
1640,-0.3262,-0.6279,-0.7041,0.244,0.671,0.000,-137.950,18.918,-14.969
1650,-0.3242,-0.6299,-0.7036,0.244,0.366,-0.061,-137.950,18.918,-14.969
1660,-0.3232,-0.6309,-0.7031,0.122,0.122,-0.061,-137.950,18.913,-14.969
1670,-0.3237,-0.6323,-0.7051,0.061,-0.061,-0.061,-137.950,18.913,-14.969
1680,-0.3232,-0.6318,-0.7056,0.183,-0.183,0.061,-137.950,18.918,-14.969
1690,-0.3237,-0.6313,-0.7061,0.366,-0.183,0.061,-137.950,18.918,-14.969
1700,-0.3213,-0.6309,-0.7041,0.610,-0.061,0.000,-137.944,18.918,-14.969
1710,-0.3213,-0.6309,-0.7036,0.793,-0.183,0.000,-137.939,18.918,-14.969
1720,-0.3223,-0.6338,-0.7007,0.793,-0.183,0.000,-137.928,18.918,-14.969
1730,-0.3228,-0.6323,-0.6953,0.549,-0.183,0.000,-137.922,18.918,-14.969
1740,-0.3252,-0.6333,-0.7007,0.244,-0.122,0.061,-137.917,18.918,-14.969
1750,-0.3247,-0.6304,-0.6987,-0.122,0.122,0.061,-137.922,18.924,-14.969
1760,-0.3237,-0.6289,-0.7002,-0.244,0.427,0.061,-137.928,18.918,-14.969
1770,-0.3262,-0.6274,-0.7036,-0.244,0.610,-0.061,-137.933,18.918,-14.969
1780,-0.3257,-0.6289,-0.7026,-0.122,0.549,-0.122,-137.939,18.913,-14.969
1790,-0.3247,-0.6294,-0.7031,-0.061,0.366,-0.305,-137.939,18.907,-14.969
1800,-0.3252,-0.6304,-0.7051,0.000,0.183,-0.366,-137.944,18.907,-14.969
1811,-0.3223,-0.6333,-0.7026,-0.122,0.122,-0.488,-137.944,18.902,-14.969
1820,-0.3213,-0.6323,-0.7017,-0.427,0.122,-0.549,-137.944,18.896,-14.969
1831,-0.3228,-0.6304,-0.7021,-0.610,0.061,-0.488,-137.950,18.891,-14.969
1840,-0.3257,-0.6309,-0.7021,-0.488,0.000,-0.488,-137.955,18.891,-14.969
1851,-0.3252,-0.6318,-0.7026,-0.122,-0.122,-0.549,-137.955,18.885,-14.969
1861,-0.3237,-0.6333,-0.7017,0.183,-0.366,-0.549,-137.955,18.885,-14.969
1871,-0.3252,-0.6353,-0.6978,0.366,-0.366,-0.549,-137.944,18.885,-14.969
1881,-0.3232,-0.6353,-0.6953,0.305,-0.183,-0.549,-137.933,18.885,-14.969
1891,-0.3232,-0.6362,-0.6968,0.122,0.061,-0.488,-137.928,18.880,-14.969
1901,-0.3252,-0.6367,-0.6963,-0.244,0.427,-0.366,-137.928,18.880,-14.969
1911,-0.3257,-0.6382,-0.6982,-0.305,0.549,-0.305,-137.928,18.875,-14.969
1921,-0.3232,-0.6367,-0.6992,-0.305,0.671,-0.183,-137.928,18.869,-14.969
1931,-0.3247,-0.6367,-0.6992,-0.305,0.732,0.000,-137.933,18.864,-14.969
1941,-0.3257,-0.6367,-0.7026,-0.305,0.732,0.122,-137.939,18.858,-14.969
1951,-0.3242,-0.6357,-0.7031,-0.183,0.854,0.244,-137.939,18.853,-14.969
1961,-0.3228,-0.6348,-0.7061,-0.122,0.854,0.366,-137.944,18.847,-14.969
1971,-0.3193,-0.6294,-0.7080,0.427,0.427,0.244,-137.944,18.847,-14.969
1981,-0.3213,-0.6279,-0.7056,0.854,-0.244,0.061,-137.944,18.847,-14.969
1991,-0.3208,-0.6309,-0.7017,1.160,-0.854,-0.061,-137.928,18.853,-14.969
2001,-0.3198,-0.6318,-0.6997,1.221,-1.221,-0.244,-137.911,18.858,-14.969
2011,-0.3188,-0.6328,-0.6997,0.977,-1.221,-0.305,-137.900,18.864,-14.969
2021,-0.3213,-0.6333,-0.7007,0.671,-0.916,-0.305,-137.889,18.869,-14.969
2031,-0.3223,-0.6323,-0.7017,0.549,-0.366,-0.183,-137.884,18.869,-14.969
2041,-0.3218,-0.6333,-0.6982,0.427,0.061,-0.183,-137.878,18.869,-14.969
2051,-0.3223,-0.6333,-0.6973,0.427,0.488,-0.122,-137.873,18.864,-14.969
2061,-0.3232,-0.6338,-0.6963,0.488,0.610,-0.061,-137.867,18.858,-14.969
2071,-0.3232,-0.6333,-0.6973,0.427,0.610,0.000,-137.867,18.858,-14.969
2081,-0.3232,-0.6328,-0.6982,0.183,0.549,0.061,-137.862,18.853,-14.969
2091,-0.3232,-0.6309,-0.6973,0.000,0.610,0.000,-137.867,18.847,-14.969
2101,-0.3237,-0.6309,-0.7017,-0.122,0.671,-0.122,-137.867,18.847,-14.969
2111,-0.3213,-0.6333,-0.7026,-0.183,0.610,-0.183,-137.873,18.836,-14.969
2121,-0.3198,-0.6323,-0.7031,-0.122,0.427,-0.305,-137.878,18.831,-14.969
2131,-0.3188,-0.6338,-0.7036,-0.061,0.305,-0.244,-137.878,18.825,-14.969
2141,-0.3203,-0.6357,-0.7041,0.000,0.122,-0.305,-137.878,18.820,-14.969
2151,-0.3203,-0.6367,-0.7041,0.122,0.000,-0.244,-137.878,18.820,-14.969
2161,-0.3213,-0.6367,-0.7021,0.244,-0.122,-0.122,-137.873,18.814,-14.969
2171,-0.3213,-0.6357,-0.7021,0.366,-0.183,0.061,-137.867,18.820,-14.969
2181,-0.3223,-0.6348,-0.7002,0.488,-0.122,0.244,-137.862,18.820,-14.969
2191,-0.3232,-0.6338,-0.6978,0.671,0.000,0.305,-137.856,18.825,-14.969
2201,-0.3242,-0.6343,-0.7021,0.793,0.183,0.244,-137.851,18.825,-14.969
2211,-0.3223,-0.6323,-0.7007,0.732,0.244,0.183,-137.845,18.825,-14.969
2221,-0.3232,-0.6323,-0.7007,0.427,0.366,0.183,-137.840,18.825,-14.969
2231,-0.3242,-0.6323,-0.7007,0.000,0.427,0.122,-137.845,18.825,-14.969
2241,-0.3228,-0.6318,-0.7002,-0.305,0.366,0.061,-137.851,18.820,-14.969
2251,-0.3242,-0.6289,-0.7036,-0.427,0.305,0.000,-137.856,18.820,-14.969
2261,-0.3223,-0.6289,-0.7070,-0.244,0.244,-0.122,-137.867,18.820,-14.969
2271,-0.3208,-0.6313,-0.7065,0.061,0.122,-0.183,-137.867,18.814,-14.969
2281,-0.3208,-0.6318,-0.7070,0.244,-0.122,-0.244,-137.867,18.814,-14.969
2291,-0.3203,-0.6323,-0.7036,0.488,-0.366,-0.244,-137.862,18.814,-14.969
2301,-0.3198,-0.6348,-0.7031,0.549,-0.549,-0.183,-137.856,18.814,-14.969
2311,-0.3203,-0.6367,-0.6987,0.549,-0.732,-0.244,-137.845,18.814,-14.969
2321,-0.3208,-0.6367,-0.6968,0.610,-0.610,-0.244,-137.834,18.820,-14.969
2331,-0.3198,-0.6372,-0.6958,0.488,-0.244,-0.183,-137.829,18.820,-14.969
2341,-0.3203,-0.6372,-0.6987,0.427,0.122,-0.061,-137.823,18.814,-14.969
2351,-0.3208,-0.6372,-0.6987,0.244,0.427,0.061,-137.818,18.814,-14.969
2361,-0.3213,-0.6362,-0.6973,0.061,0.671,0.183,-137.818,18.809,-14.969
2371,-0.3223,-0.6362,-0.6953,-0.122,0.732,0.244,-137.818,18.809,-14.969
2381,-0.3223,-0.6333,-0.6987,-0.183,0.732,0.305,-137.823,18.803,-14.969
2391,-0.3232,-0.6333,-0.7036,-0.183,0.793,0.305,-137.829,18.798,-14.969
2401,-0.3242,-0.6318,-0.7012,-0.183,0.916,0.305,-137.834,18.798,-14.969
2411,-0.3232,-0.6318,-0.7021,0.000,0.854,0.244,-137.840,18.792,-14.969
2421,-0.3223,-0.6333,-0.7056,0.122,0.732,0.122,-137.840,18.787,-14.969
2431,-0.3208,-0.6318,-0.7070,0.183,0.427,0.061,-137.845,18.787,-14.969
2441,-0.3223,-0.6318,-0.7036,0.122,0.122,0.122,-137.845,18.787,-14.969
2451,-0.3208,-0.6313,-0.7046,0.183,0.000,0.122,-137.851,18.787,-14.969
2461,-0.3218,-0.6313,-0.7041,0.366,-0.183,0.061,-137.845,18.787,-14.969
2471,-0.3218,-0.6304,-0.7021,0.610,-0.305,0.061,-137.845,18.792,-14.969
2481,-0.3237,-0.6318,-0.7026,0.671,-0.305,0.000,-137.840,18.792,-14.969
2491,-0.3237,-0.6323,-0.6997,0.610,-0.244,0.061,-137.829,18.798,-14.969
2501,-0.3232,-0.6338,-0.7002,0.427,-0.122,0.000,-137.829,18.798,-14.969
2511,-0.3232,-0.6333,-0.7002,0.061,0.061,-0.061,-137.829,18.798,-14.969
2521,-0.3203,-0.6343,-0.7007,-0.122,0.183,-0.061,-137.829,18.798,-14.969
2531,-0.3208,-0.6338,-0.7007,-0.183,0.244,0.000,-137.829,18.798,-14.969
2542,-0.3223,-0.6343,-0.7036,-0.061,0.061,0.000,-137.834,18.792,-14.969
2551,-0.3223,-0.6323,-0.7017,-0.061,-0.366,0.061,-137.834,18.798,-14.969
2561,-0.3208,-0.6348,-0.7021,0.122,-0.488,0.061,-137.834,18.803,-14.969
2571,-0.3208,-0.6357,-0.7012,0.183,-0.549,0.061,-137.829,18.803,-14.969
2581,-0.3213,-0.6348,-0.7012,0.244,-0.488,0.183,-137.829,18.809,-14.969
2591,-0.3193,-0.6313,-0.7026,0.244,-0.366,0.183,-137.829,18.814,-14.969
2601,-0.3198,-0.6323,-0.7002,0.183,-0.305,0.183,-137.823,18.814,-14.969
2611,-0.3193,-0.6328,-0.6973,0.061,-0.244,0.122,-137.823,18.814,-14.969
2621,-0.3213,-0.6309,-0.6978,0.000,-0.305,0.061,-137.823,18.820,-14.969
2631,-0.3228,-0.6318,-0.6958,0.000,-0.427,0.000,-137.823,18.825,-14.969
2641,-0.3213,-0.6348,-0.6963,0.000,-0.488,-0.122,-137.818,18.825,-14.969
2651,-0.3218,-0.6343,-0.6958,-0.061,-0.427,-0.183,-137.818,18.831,-14.969
2661,-0.3232,-0.6333,-0.6973,-0.061,-0.427,-0.061,-137.818,18.831,-14.969
2671,-0.3257,-0.6333,-0.6958,0.000,-0.427,0.000,-137.812,18.842,-14.969
2681,-0.3276,-0.6343,-0.6943,0.061,-0.366,-0.061,-137.807,18.847,-14.969
2691,-0.3286,-0.6338,-0.6938,0.000,-0.122,-0.183,-137.807,18.847,-14.969
2701,-0.3291,-0.6357,-0.6953,-0.366,0.183,-0.183,-137.807,18.853,-14.969
2711,-0.3267,-0.6357,-0.6963,-0.854,0.366,-0.122,-137.812,18.847,-14.969
2721,-0.3252,-0.6377,-0.7012,-1.343,0.549,0.000,-137.829,18.847,-14.969
2731,-0.3218,-0.6377,-0.7056,-1.648,0.610,0.122,-137.845,18.842,-14.969
2741,-0.3223,-0.6382,-0.7095,-1.648,0.488,0.122,-137.867,18.836,-14.969
2751,-0.3223,-0.6362,-0.7114,-1.282,0.183,0.183,-137.884,18.836,-14.969
2761,-0.3218,-0.6372,-0.7095,-0.671,-0.061,0.305,-137.889,18.836,-14.969
2771,-0.3213,-0.6392,-0.7051,0.122,-0.305,0.305,-137.889,18.836,-14.969
2781,-0.3188,-0.6396,-0.7061,0.488,-0.488,0.427,-137.884,18.842,-14.969
2791,-0.3198,-0.6416,-0.7061,0.549,-0.549,0.610,-137.878,18.847,-14.969
2801,-0.3193,-0.6382,-0.7061,0.183,-0.549,0.671,-137.878,18.853,-14.969
2811,-0.3218,-0.6328,-0.7036,-0.061,-0.488,0.793,-137.878,18.858,-14.969
2821,-0.3223,-0.6309,-0.7002,0.061,-0.610,0.854,-137.878,18.869,-14.969
2831,-0.3228,-0.6284,-0.7012,0.427,-0.610,0.854,-137.878,18.880,-14.969
2841,-0.3218,-0.6318,-0.6992,0.488,-0.549,0.732,-137.873,18.891,-14.969
2851,-0.3223,-0.6313,-0.6982,0.244,-0.427,0.549,-137.873,18.896,-14.969
2861,-0.3188,-0.6304,-0.7002,-0.122,-0.427,0.549,-137.878,18.902,-14.969
2871,-0.3193,-0.6265,-0.7031,-0.427,-0.427,0.549,-137.884,18.907,-14.969
2881,-0.3213,-0.6235,-0.7051,-0.183,-0.488,0.427,-137.895,18.913,-14.969
2891,-0.3208,-0.6240,-0.6997,0.366,-0.549,0.183,-137.895,18.918,-14.969
2901,-0.3218,-0.6270,-0.7007,0.916,-0.427,0.000,-137.884,18.918,-14.969
2911,-0.3218,-0.6289,-0.6982,1.099,-0.427,-0.122,-137.873,18.924,-14.969
2921,-0.3208,-0.6299,-0.6968,0.732,-0.488,-0.244,-137.867,18.924,-14.969
2931,-0.3218,-0.6294,-0.6958,0.122,-0.549,-0.183,-137.862,18.924,-14.969
2941,-0.3228,-0.6294,-0.6958,-0.366,-0.610,-0.244,-137.862,18.929,-14.969
2951,-0.3213,-0.6333,-0.6973,-0.427,-0.488,-0.366,-137.867,18.929,-14.969
2961,-0.3208,-0.6333,-0.6973,-0.244,-0.305,-0.549,-137.862,18.929,-14.969
2971,-0.3179,-0.6367,-0.6992,0.000,-0.061,-0.610,-137.862,18.918,-14.969
2981,-0.3198,-0.6367,-0.6958,0.061,0.244,-0.427,-137.856,18.913,-14.969
2991,-0.3188,-0.6372,-0.6934,0.061,0.366,-0.183,-137.851,18.907,-14.969
3001,-0.3198,-0.6357,-0.6973,-0.061,0.488,0.061,-137.851,18.902,-14.969
3011,-0.3203,-0.6333,-0.6987,-0.183,0.610,0.122,-137.856,18.896,-14.969
3021,-0.3213,-0.6294,-0.6997,-0.183,0.610,0.183,-137.862,18.896,-14.969
3031,-0.3247,-0.6304,-0.7007,-0.122,0.549,0.061,-137.862,18.891,-14.969
3041,-0.3247,-0.6328,-0.7012,-0.061,0.549,-0.244,-137.867,18.885,-14.969
3051,-0.3252,-0.6328,-0.7031,0.000,0.488,-0.488,-137.867,18.880,-14.969
3061,-0.3257,-0.6348,-0.7051,-0.061,0.488,-0.488,-137.867,18.875,-14.969
3071,-0.3252,-0.6377,-0.7061,-0.305,0.427,-0.488,-137.873,18.869,-14.969
3081,-0.3257,-0.6362,-0.7085,-0.488,0.244,-0.366,-137.878,18.864,-14.969
3091,-0.3262,-0.6328,-0.7100,-0.488,-0.061,-0.244,-137.889,18.864,-14.969
3101,-0.3242,-0.6343,-0.7090,-0.183,-0.244,-0.244,-137.889,18.864,-14.969
3111,-0.3257,-0.6343,-0.7070,0.122,-0.366,-0.305,-137.889,18.864,-14.969
3121,-0.3252,-0.6357,-0.7046,0.366,-0.549,-0.366,-137.884,18.869,-14.969
3131,-0.3276,-0.6357,-0.7021,0.549,-0.671,-0.427,-137.878,18.869,-14.969
3141,-0.3267,-0.6396,-0.7017,0.427,-0.671,-0.305,-137.867,18.875,-14.969
3151,-0.3257,-0.6382,-0.7041,0.244,-0.549,-0.244,-137.862,18.880,-14.969
3161,-0.3257,-0.6377,-0.7070,0.000,-0.610,-0.183,-137.862,18.880,-14.969
3171,-0.3223,-0.6377,-0.7031,0.000,-0.610,-0.061,-137.862,18.885,-14.969
3181,-0.3208,-0.6367,-0.7046,0.122,-0.610,0.061,-137.856,18.885,-14.969
3191,-0.3193,-0.6387,-0.7031,0.244,-0.793,0.122,-137.851,18.891,-14.969
3201,-0.3198,-0.6367,-0.7017,0.305,-0.977,0.244,-137.845,18.896,-14.969
3211,-0.3208,-0.6343,-0.7021,0.244,-1.099,0.488,-137.845,18.907,-14.969
3221,-0.3198,-0.6353,-0.7007,0.061,-1.099,0.549,-137.840,18.918,-14.969
3231,-0.3228,-0.6333,-0.7007,-0.061,-1.038,0.549,-137.840,18.924,-14.969
3241,-0.3232,-0.6313,-0.6997,-0.122,-0.854,0.427,-137.845,18.935,-14.969
3251,-0.3228,-0.6328,-0.6992,-0.061,-0.610,0.366,-137.845,18.940,-14.969
3261,-0.3213,-0.6348,-0.6968,0.061,-0.427,0.183,-137.840,18.946,-14.969
3271,-0.3193,-0.6318,-0.6963,0.061,-0.305,0.122,-137.840,18.946,-14.969
3281,-0.3232,-0.6318,-0.6978,0.061,-0.244,0.244,-137.840,18.951,-14.969
3291,-0.3242,-0.6333,-0.6973,0.000,-0.183,0.366,-137.840,18.957,-14.969
3301,-0.3262,-0.6348,-0.6968,-0.061,-0.183,0.427,-137.834,18.962,-14.969
3311,-0.3257,-0.6338,-0.6973,-0.122,-0.183,0.366,-137.840,18.962,-14.969
3321,-0.3267,-0.6348,-0.6992,-0.366,-0.122,0.305,-137.840,18.968,-14.969
3331,-0.3257,-0.6318,-0.6978,-0.610,0.061,0.366,-137.851,18.973,-14.969
3341,-0.3262,-0.6333,-0.7007,-0.610,0.183,0.305,-137.856,18.973,-14.969
3351,-0.3257,-0.6357,-0.7017,-0.488,0.183,0.244,-137.862,18.973,-14.969
3361,-0.3228,-0.6367,-0.7002,-0.427,0.000,0.244,-137.867,18.973,-14.969
3371,-0.3228,-0.6372,-0.7012,-0.427,-0.366,0.183,-137.867,18.979,-14.969
3381,-0.3247,-0.6382,-0.7007,-0.366,-0.671,0.244,-137.867,18.984,-14.969
3391,-0.3237,-0.6396,-0.7007,-0.183,-0.732,0.305,-137.867,18.990,-14.969
3401,-0.3208,-0.6401,-0.6982,-0.061,-0.610,0.427,-137.862,18.995,-14.969
3411,-0.3242,-0.6382,-0.6948,0.061,-0.366,0.488,-137.856,19.001,-14.969
3421,-0.3232,-0.6406,-0.6934,0.244,0.000,0.610,-137.851,19.001,-14.969
3431,-0.3247,-0.6387,-0.6943,0.244,0.366,0.732,-137.845,19.006,-14.969
3441,-0.3242,-0.6382,-0.6929,0.183,0.671,0.793,-137.845,19.006,-14.969
3451,-0.3247,-0.6353,-0.6958,0.000,0.671,0.854,-137.845,19.006,-14.969
3461,-0.3237,-0.6323,-0.6968,-0.305,0.732,1.038,-137.851,19.006,-14.985
3471,-0.3257,-0.6289,-0.6997,-0.488,0.732,1.099,-137.862,19.012,-14.996
3481,-0.3262,-0.6294,-0.7051,-0.427,0.671,1.038,-137.873,19.012,-15.007
3491,-0.3252,-0.6294,-0.7046,-0.366,0.610,0.793,-137.884,19.012,-15.018
3501,-0.3252,-0.6284,-0.7041,-0.244,0.366,0.488,-137.895,19.012,-15.024
3511,-0.3223,-0.6279,-0.7061,-0.122,0.122,0.427,-137.900,19.012,-15.029
3521,-0.3208,-0.6289,-0.7061,0.061,-0.061,0.305,-137.906,19.012,-15.035
3531,-0.3203,-0.6299,-0.7017,0.244,-0.183,0.305,-137.906,19.012,-15.035
3542,-0.3208,-0.6318,-0.6992,0.305,-0.061,0.183,-137.900,19.012,-15.035
3551,-0.3218,-0.6323,-0.6997,0.183,0.122,0.244,-137.900,19.012,-15.035
3561,-0.3232,-0.6323,-0.7021,0.000,0.305,0.366,-137.906,19.012,-15.040
3571,-0.3223,-0.6328,-0.7036,-0.061,0.305,0.305,-137.906,19.006,-15.046
3581,-0.3228,-0.6333,-0.7021,-0.183,0.183,0.183,-137.911,19.006,-15.051
3591,-0.3232,-0.6333,-0.7012,-0.244,0.061,0.183,-137.911,19.006,-15.051
3601,-0.3242,-0.6343,-0.7002,-0.305,0.000,0.244,-137.917,19.006,-15.051
3611,-0.3232,-0.6353,-0.7021,-0.305,0.122,0.305,-137.917,19.006,-15.057
3621,-0.3252,-0.6318,-0.7017,-0.366,0.244,0.244,-137.922,19.006,-15.062
3631,-0.3262,-0.6328,-0.7017,-0.427,0.427,0.305,-137.933,19.006,-15.068
3641,-0.3262,-0.6338,-0.7041,-0.366,0.488,0.427,-137.939,19.006,-15.073
3651,-0.3271,-0.6333,-0.7056,-0.244,0.366,0.427,-137.944,19.006,-15.079
3661,-0.3257,-0.6323,-0.7041,-0.061,0.000,0.366,-137.944,19.006,-15.084
3671,-0.3271,-0.6318,-0.7017,0.000,-0.244,0.366,-137.944,19.012,-15.084
3681,-0.3252,-0.6357,-0.6987,-0.061,-0.366,0.366,-137.944,19.017,-15.084
3691,-0.3223,-0.6377,-0.7012,-0.305,-0.366,0.366,-137.944,19.023,-15.084
3701,-0.3218,-0.6338,-0.7017,-0.488,-0.183,0.488,-137.950,19.023,-15.084
3711,-0.3223,-0.6353,-0.7031,-0.549,-0.061,0.488,-137.955,19.023,-15.090
3721,-0.3247,-0.6313,-0.7026,-0.366,0.000,0.549,-137.961,19.028,-15.095
3731,-0.3262,-0.6289,-0.7017,0.061,0.000,0.549,-137.966,19.034,-15.095
3741,-0.3252,-0.6304,-0.6982,0.488,-0.183,0.427,-137.961,19.039,-15.101
3751,-0.3252,-0.6304,-0.6938,0.732,-0.366,0.244,-137.950,19.039,-15.101
3761,-0.3242,-0.6318,-0.6929,0.610,-0.549,0.183,-137.939,19.050,-15.095
3771,-0.3213,-0.6333,-0.6899,0.122,-0.549,0.122,-137.933,19.050,-15.095
3781,-0.3242,-0.6343,-0.6895,-0.427,-0.305,0.061,-137.933,19.056,-15.090
3791,-0.3232,-0.6323,-0.6929,-0.793,0.183,0.122,-137.939,19.056,-15.095
3801,-0.3242,-0.6348,-0.6934,-0.916,0.488,0.183,-137.944,19.050,-15.101
3811,-0.3218,-0.6362,-0.6934,-0.793,0.793,0.305,-137.950,19.045,-15.106
3821,-0.3218,-0.6333,-0.6958,-0.671,0.977,0.427,-137.955,19.039,-15.117
3831,-0.3223,-0.6348,-0.6987,-0.549,1.099,0.610,-137.966,19.034,-15.128
3841,-0.3203,-0.6367,-0.6978,-0.427,1.099,0.671,-137.972,19.028,-15.145
3851,-0.3179,-0.6323,-0.6997,-0.427,1.038,0.732,-137.977,19.023,-15.156
3861,-0.3184,-0.6313,-0.6992,-0.305,0.793,0.854,-137.983,19.017,-15.167
3871,-0.3184,-0.6304,-0.7041,-0.122,0.732,0.916,-137.988,19.012,-15.183
3881,-0.3213,-0.6309,-0.7036,0.183,0.610,0.854,-137.994,19.012,-15.194
3891,-0.3232,-0.6294,-0.7046,0.427,0.488,0.671,-137.994,19.012,-15.200
3901,-0.3242,-0.6289,-0.7026,0.549,0.366,0.488,-137.994,19.012,-15.205
3911,-0.3271,-0.6279,-0.7036,0.549,0.366,0.366,-137.994,19.012,-15.211
3921,-0.3296,-0.6299,-0.7012,0.305,0.549,0.244,-137.994,19.012,-15.216
3931,-0.3276,-0.6284,-0.7026,-0.183,0.732,0.122,-137.999,19.012,-15.227
3941,-0.3301,-0.6289,-0.7065,-0.671,0.793,0.122,-138.010,19.006,-15.233
3951,-0.3301,-0.6304,-0.7085,-0.977,0.732,0.122,-138.027,19.006,-15.238
3961,-0.3271,-0.6299,-0.7104,-0.977,0.610,0.061,-138.038,19.001,-15.244
3971,-0.3242,-0.6313,-0.7090,-0.793,0.183,-0.061,-138.049,18.995,-15.244
3981,-0.3257,-0.6333,-0.7109,-0.549,-0.305,0.000,-138.060,19.001,-15.244
3991,-0.3223,-0.6333,-0.7114,-0.427,-0.549,0.244,-138.065,19.001,-15.238
4001,-0.3237,-0.6318,-0.7124,-0.305,-0.549,0.305,-138.071,19.006,-15.238
4011,-0.3232,-0.6318,-0.7080,-0.061,-0.610,0.305,-138.071,19.012,-15.238
4021,-0.3218,-0.6348,-0.7051,0.244,-0.854,0.122,-138.065,19.012,-15.233
4031,-0.3223,-0.6333,-0.7075,0.427,-1.038,0.061,-138.060,19.017,-15.222
4042,-0.3228,-0.6328,-0.7017,0.427,-1.038,0.183,-138.054,19.028,-15.216
4051,-0.3242,-0.6328,-0.7012,0.366,-0.854,0.244,-138.049,19.034,-15.216
4061,-0.3228,-0.6333,-0.6963,0.244,-0.793,0.244,-138.043,19.039,-15.211
4071,-0.3242,-0.6323,-0.6968,0.061,-0.732,0.244,-138.038,19.045,-15.205
4081,-0.3228,-0.6328,-0.6978,-0.183,-0.732,0.305,-138.038,19.056,-15.205
4091,-0.3228,-0.6338,-0.6973,-0.427,-0.732,0.427,-138.038,19.061,-15.200
4101,-0.3242,-0.6294,-0.6973,-0.427,-0.671,0.488,-138.038,19.067,-15.200
4111,-0.3262,-0.6294,-0.6987,-0.244,-0.366,0.427,-138.043,19.072,-15.200
4121,-0.3252,-0.6279,-0.6992,0.122,0.000,0.305,-138.043,19.078,-15.205
4131,-0.3232,-0.6289,-0.6963,0.183,0.061,0.183,-138.038,19.078,-15.205
4141,-0.3242,-0.6279,-0.6997,0.183,0.000,0.183,-138.038,19.078,-15.205
4151,-0.3247,-0.6304,-0.6987,0.000,-0.122,0.183,-138.038,19.078,-15.211
4161,-0.3252,-0.6318,-0.7017,-0.244,-0.427,0.122,-138.038,19.083,-15.205
4171,-0.3247,-0.6318,-0.7017,-0.366,-0.549,0.061,-138.038,19.083,-15.205
4181,-0.3252,-0.6323,-0.7026,-0.366,-0.549,0.061,-138.043,19.089,-15.200
4191,-0.3232,-0.6333,-0.7007,-0.183,-0.427,0.061,-138.043,19.089,-15.194
4201,-0.3232,-0.6338,-0.7017,0.061,-0.244,0.061,-138.038,19.089,-15.194
4211,-0.3252,-0.6343,-0.7012,0.183,0.000,-0.061,-138.038,19.089,-15.194
4221,-0.3262,-0.6338,-0.7026,0.183,0.061,0.000,-138.032,19.089,-15.194
4231,-0.3247,-0.6338,-0.7007,0.061,0.122,0.122,-138.032,19.089,-15.200
4241,-0.3267,-0.6343,-0.7012,-0.244,0.122,0.183,-138.032,19.089,-15.200
4251,-0.3257,-0.6348,-0.7021,-0.610,0.183,0.183,-138.038,19.083,-15.200
4261,-0.3257,-0.6338,-0.7056,-0.793,0.122,0.183,-138.049,19.083,-15.205
4271,-0.3247,-0.6318,-0.7051,-0.793,-0.061,0.183,-138.054,19.083,-15.205
4281,-0.3267,-0.6328,-0.7046,-0.610,-0.244,0.122,-138.060,19.089,-15.205
4291,-0.3252,-0.6323,-0.7046,-0.244,-0.244,0.122,-138.065,19.089,-15.205
4301,-0.3257,-0.6357,-0.7012,0.122,-0.183,0.183,-138.060,19.089,-15.205
4311,-0.3237,-0.6333,-0.7021,0.244,-0.305,0.244,-138.060,19.094,-15.205
4321,-0.3232,-0.6318,-0.6992,0.244,-0.305,0.305,-138.054,19.094,-15.205
4331,-0.3242,-0.6318,-0.7002,0.183,-0.305,0.427,-138.049,19.100,-15.205
4341,-0.3232,-0.6309,-0.7012,0.000,-0.244,0.427,-138.049,19.100,-15.205
4351,-0.3242,-0.6270,-0.6992,0.000,-0.305,0.427,-138.054,19.105,-15.211
4361,-0.3271,-0.6260,-0.6978,0.244,-0.366,0.305,-138.049,19.111,-15.211
4371,-0.3267,-0.6250,-0.6968,0.366,-0.427,0.061,-138.049,19.116,-15.205
4381,-0.3262,-0.6265,-0.6909,0.366,-0.427,-0.183,-138.038,19.122,-15.200
4391,-0.3228,-0.6294,-0.6895,0.061,-0.244,-0.305,-138.032,19.122,-15.200
4401,-0.3218,-0.6328,-0.6909,-0.488,0.061,-0.427,-138.032,19.116,-15.194
4411,-0.3232,-0.6328,-0.6948,-1.038,0.488,-0.366,-138.038,19.105,-15.194
4421,-0.3242,-0.6338,-0.6978,-1.343,0.977,-0.366,-138.049,19.094,-15.200
4431,-0.3203,-0.6343,-0.7026,-1.282,1.343,-0.244,-138.065,19.083,-15.205
4441,-0.3203,-0.6348,-0.7046,-0.916,1.343,-0.061,-138.076,19.067,-15.216
4451,-0.3203,-0.6333,-0.7095,-0.549,1.099,0.122,-138.087,19.056,-15.222
4461,-0.3203,-0.6328,-0.7085,-0.244,0.793,0.183,-138.093,19.045,-15.233
4471,-0.3218,-0.6309,-0.7095,-0.061,0.488,0.122,-138.093,19.039,-15.238
4481,-0.3257,-0.6304,-0.7095,0.122,0.183,0.183,-138.098,19.039,-15.238
4491,-0.3271,-0.6299,-0.7065,0.366,-0.061,0.061,-138.098,19.039,-15.238
4501,-0.3291,-0.6299,-0.7075,0.427,-0.183,0.000,-138.093,19.045,-15.238
4511,-0.3271,-0.6323,-0.7085,0.305,-0.244,-0.061,-138.093,19.045,-15.238
4521,-0.3237,-0.6357,-0.7056,0.000,-0.305,-0.183,-138.087,19.045,-15.238
4531,-0.3232,-0.6362,-0.7046,-0.366,-0.427,-0.122,-138.087,19.045,-15.238
4542,-0.3242,-0.6362,-0.7056,-0.488,-0.488,-0.061,-138.093,19.045,-15.238
4551,-0.3228,-0.6372,-0.7041,-0.305,-0.427,0.061,-138.093,19.045,-15.238
4561,-0.3237,-0.6348,-0.7046,0.000,-0.305,0.244,-138.093,19.045,-15.238
4571,-0.3237,-0.6333,-0.7056,0.305,-0.122,0.366,-138.087,19.050,-15.238
4581,-0.3247,-0.6348,-0.7036,0.671,-0.061,0.488,-138.082,19.050,-15.238
4591,-0.3247,-0.6333,-0.7002,0.732,-0.061,0.488,-138.071,19.056,-15.238
4601,-0.3232,-0.6338,-0.6987,0.671,-0.122,0.427,-138.065,19.056,-15.238
4611,-0.3228,-0.6323,-0.7002,0.488,-0.122,0.366,-138.060,19.056,-15.238
4621,-0.3237,-0.6299,-0.6987,0.122,-0.305,0.366,-138.054,19.061,-15.238
4631,-0.3247,-0.6294,-0.6958,-0.061,-0.488,0.366,-138.054,19.067,-15.238
4641,-0.3276,-0.6284,-0.6929,-0.061,-0.427,0.305,-138.054,19.078,-15.238
4651,-0.3291,-0.6284,-0.6943,-0.061,-0.122,0.122,-138.049,19.078,-15.238
4661,-0.3276,-0.6313,-0.6924,-0.122,0.183,0.000,-138.049,19.078,-15.238
4671,-0.3232,-0.6323,-0.6958,-0.244,0.488,0.061,-138.049,19.078,-15.238
4681,-0.3237,-0.6323,-0.6978,-0.305,0.549,0.183,-138.054,19.072,-15.238
4691,-0.3228,-0.6323,-0.6968,-0.366,0.366,0.244,-138.054,19.072,-15.238
4701,-0.3213,-0.6323,-0.6982,-0.488,0.244,0.244,-138.060,19.067,-15.238
4711,-0.3208,-0.6299,-0.6987,-0.488,0.305,0.244,-138.065,19.067,-15.238
4721,-0.3208,-0.6309,-0.6992,-0.244,0.549,0.244,-138.065,19.061,-15.238
4731,-0.3257,-0.6309,-0.7007,0.000,0.854,0.183,-138.071,19.056,-15.238
4741,-0.3252,-0.6304,-0.7017,0.122,1.099,0.061,-138.071,19.045,-15.238
4751,-0.3242,-0.6309,-0.7036,0.122,1.221,0.061,-138.071,19.034,-15.238
4761,-0.3262,-0.6318,-0.7051,0.000,1.099,0.061,-138.076,19.028,-15.238
4771,-0.3257,-0.6313,-0.7080,-0.183,0.977,0.000,-138.082,19.023,-15.238
4781,-0.3257,-0.6313,-0.7080,-0.427,0.793,0.122,-138.087,19.017,-15.238
4791,-0.3262,-0.6289,-0.7104,-0.549,0.549,0.305,-138.098,19.012,-15.238
4801,-0.3262,-0.6309,-0.7124,-0.488,0.305,0.366,-138.109,19.012,-15.238
4811,-0.3247,-0.6294,-0.7124,-0.305,0.183,0.244,-138.120,19.012,-15.238
4821,-0.3237,-0.6304,-0.7100,-0.122,0.000,0.122,-138.126,19.012,-15.238
4831,-0.3223,-0.6318,-0.7109,0.000,-0.122,0.000,-138.126,19.006,-15.238
4841,-0.3218,-0.6313,-0.7104,0.122,-0.244,0.000,-138.126,19.006,-15.238
4851,-0.3228,-0.6338,-0.7070,0.183,-0.427,-0.122,-138.126,19.006,-15.238
4861,-0.3198,-0.6328,-0.7080,0.000,-0.671,-0.122,-138.120,19.006,-15.238
4871,-0.3208,-0.6343,-0.7075,-0.183,-0.793,0.061,-138.120,19.012,-15.238
4881,-0.3228,-0.6328,-0.7051,-0.366,-0.854,0.183,-138.126,19.017,-15.238
4891,-0.3242,-0.6313,-0.7021,-0.244,-0.854,0.305,-138.126,19.023,-15.238
4901,-0.3237,-0.6309,-0.7061,0.061,-0.732,0.244,-138.126,19.028,-15.238
4911,-0.3247,-0.6313,-0.7007,0.244,-0.610,0.122,-138.120,19.034,-15.238
4921,-0.3237,-0.6309,-0.6992,0.305,-0.488,0.183,-138.115,19.039,-15.238
4931,-0.3252,-0.6309,-0.6973,0.122,-0.488,0.244,-138.109,19.045,-15.238
4941,-0.3237,-0.6309,-0.6992,-0.244,-0.366,0.244,-138.109,19.045,-15.238
4951,-0.3228,-0.6309,-0.6992,-0.549,-0.183,0.244,-138.115,19.050,-15.238
4961,-0.3242,-0.6260,-0.7002,-0.671,0.000,0.305,-138.120,19.050,-15.238
4971,-0.3242,-0.6230,-0.7012,-0.427,-0.061,0.244,-138.131,19.050,-15.238
4981,-0.3232,-0.6240,-0.7012,0.183,-0.305,0.122,-138.131,19.056,-15.238
4991,-0.3218,-0.6255,-0.6992,0.732,-0.732,-0.183,-138.120,19.056,-15.238
5001,-0.3228,-0.6255,-0.6938,0.854,-0.916,-0.427,-138.109,19.061,-15.238
5011,-0.3228,-0.6294,-0.6924,0.549,-0.854,-0.610,-138.093,19.061,-15.238
5021,-0.3208,-0.6343,-0.6914,-0.061,-0.488,-0.732,-138.087,19.061,-15.238
5031,-0.3198,-0.6333,-0.6914,-0.793,0.183,-0.793,-138.087,19.050,-15.238
5042,-0.3193,-0.6338,-0.6953,-1.282,0.793,-0.549,-138.093,19.039,-15.238
5051,-0.3184,-0.6338,-0.6982,-1.282,1.282,-0.244,-138.104,19.023,-15.238
5061,-0.3188,-0.6348,-0.7031,-0.977,1.404,0.061,-138.120,19.012,-15.238
5071,-0.3184,-0.6309,-0.7065,-0.427,1.343,0.244,-138.126,18.995,-15.238
5081,-0.3198,-0.6299,-0.7065,0.244,1.099,0.183,-138.131,18.990,-15.238
5091,-0.3218,-0.6274,-0.7075,0.610,0.854,0.122,-138.126,18.979,-15.238
5101,-0.3252,-0.6240,-0.7041,0.732,0.732,0.000,-138.126,18.973,-15.238
5111,-0.3271,-0.6245,-0.7012,0.610,0.671,-0.183,-138.120,18.973,-15.238
5121,-0.3281,-0.6270,-0.7012,0.183,0.488,-0.427,-138.120,18.968,-15.238
5131,-0.3262,-0.6294,-0.7046,-0.305,0.366,-0.610,-138.126,18.962,-15.238
5141,-0.3267,-0.6299,-0.7075,-0.793,0.244,-0.732,-138.131,18.957,-15.238
5151,-0.3276,-0.6328,-0.7114,-1.038,0.122,-0.732,-138.142,18.951,-15.238
5161,-0.3257,-0.6338,-0.7129,-1.099,0.000,-0.732,-138.153,18.946,-15.238
5171,-0.3247,-0.6338,-0.7134,-0.732,-0.061,-0.610,-138.164,18.940,-15.238
5181,-0.3262,-0.6353,-0.7129,-0.183,-0.183,-0.488,-138.164,18.935,-15.238
5191,-0.3271,-0.6382,-0.7085,0.366,-0.366,-0.366,-138.159,18.940,-15.238
5201,-0.3276,-0.6392,-0.7100,0.549,-0.549,-0.244,-138.148,18.940,-15.238
5211,-0.3257,-0.6387,-0.7080,0.488,-0.671,-0.061,-138.142,18.946,-15.238
5221,-0.3252,-0.6382,-0.7061,0.183,-0.854,0.183,-138.137,18.951,-15.238
5231,-0.3257,-0.6367,-0.7036,0.000,-0.854,0.244,-138.131,18.957,-15.238
5241,-0.3242,-0.6323,-0.7061,-0.061,-0.793,0.244,-138.131,18.968,-15.238
5251,-0.3237,-0.6309,-0.7051,0.000,-0.671,0.183,-138.131,18.973,-15.238
5261,-0.3232,-0.6318,-0.7017,0.305,-0.732,0.061,-138.126,18.973,-15.238
5271,-0.3228,-0.6357,-0.6982,0.488,-0.916,-0.061,-138.109,18.979,-15.238
5281,-0.3232,-0.6357,-0.7002,0.427,-1.099,0.000,-138.104,18.990,-15.238
5291,-0.3218,-0.6353,-0.6953,0.305,-0.977,0.183,-138.093,18.995,-15.238
5301,-0.3213,-0.6338,-0.6963,0.244,-0.854,0.366,-138.082,19.001,-15.238
5311,-0.3203,-0.6333,-0.6997,0.122,-0.671,0.488,-138.082,19.006,-15.238
5321,-0.3208,-0.6309,-0.6982,0.183,-0.488,0.549,-138.076,19.012,-15.238
5331,-0.3223,-0.6279,-0.6997,0.244,-0.305,0.427,-138.076,19.017,-15.238
5341,-0.3218,-0.6279,-0.6982,0.305,-0.183,0.305,-138.071,19.017,-15.238
5351,-0.3203,-0.6279,-0.6963,0.366,-0.122,0.183,-138.065,19.023,-15.238
5361,-0.3218,-0.6289,-0.7002,0.122,-0.122,0.122,-138.065,19.023,-15.238
5371,-0.3237,-0.6299,-0.6992,-0.122,0.000,0.061,-138.065,19.023,-15.238
5381,-0.3237,-0.6279,-0.7002,-0.305,0.305,0.000,-138.071,19.017,-15.238
5391,-0.3232,-0.6279,-0.7021,-0.427,0.549,0.000,-138.076,19.012,-15.238
5401,-0.3208,-0.6274,-0.7070,-0.366,0.732,-0.061,-138.087,19.006,-15.238
5411,-0.3228,-0.6260,-0.7075,-0.122,0.610,-0.061,-138.093,19.001,-15.238
5421,-0.3198,-0.6274,-0.7075,0.122,0.183,-0.122,-138.093,18.995,-15.238
5431,-0.3223,-0.6284,-0.7075,0.366,-0.427,-0.122,-138.093,18.995,-15.238
5441,-0.3237,-0.6289,-0.7061,0.427,-0.854,-0.244,-138.087,18.995,-15.238
5451,-0.3232,-0.6304,-0.7051,0.244,-0.916,-0.305,-138.082,19.001,-15.238
5461,-0.3228,-0.6333,-0.7026,0.000,-0.732,-0.427,-138.082,19.001,-15.238
5471,-0.3237,-0.6333,-0.7021,-0.244,-0.366,-0.427,-138.082,19.001,-15.238
5481,-0.3232,-0.6328,-0.7031,-0.366,0.000,-0.366,-138.082,18.995,-15.238
5491,-0.3232,-0.6333,-0.7026,-0.305,0.183,-0.305,-138.082,18.995,-15.238
5501,-0.3208,-0.6328,-0.7031,-0.244,0.183,-0.244,-138.082,18.990,-15.238
5512,-0.3218,-0.6323,-0.7041,-0.122,0.061,-0.183,-138.087,18.984,-15.238
5521,-0.3237,-0.6323,-0.7036,-0.122,-0.061,0.000,-138.087,18.984,-15.238
5531,-0.3232,-0.6309,-0.7036,-0.183,-0.244,0.061,-138.087,18.984,-15.238
5542,-0.3247,-0.6309,-0.7031,-0.305,-0.244,-0.061,-138.087,18.984,-15.238
5551,-0.3242,-0.6304,-0.7036,-0.488,-0.244,-0.122,-138.093,18.984,-15.238
5562,-0.3228,-0.6323,-0.7070,-0.549,-0.183,-0.183,-138.098,18.984,-15.238
5571,-0.3203,-0.6299,-0.7070,-0.488,-0.122,-0.244,-138.104,18.979,-15.238
5581,-0.3228,-0.6299,-0.7090,-0.305,-0.366,-0.183,-138.109,18.979,-15.238
5591,-0.3232,-0.6274,-0.7075,0.183,-0.793,-0.122,-138.109,18.984,-15.238
5602,-0.3257,-0.6270,-0.7046,0.916,-1.221,-0.183,-138.098,18.995,-15.238
5612,-0.3267,-0.6284,-0.7002,1.343,-1.526,-0.366,-138.082,19.001,-15.238
5622,-0.3267,-0.6299,-0.6963,1.404,-1.465,-0.488,-138.060,19.012,-15.238
5632,-0.3267,-0.6318,-0.6924,0.977,-1.160,-0.610,-138.043,19.017,-15.238
5642,-0.3232,-0.6348,-0.6943,0.244,-0.732,-0.732,-138.032,19.017,-15.238
5652,-0.3247,-0.6372,-0.6938,-0.671,-0.183,-0.732,-138.032,19.017,-15.238
5662,-0.3237,-0.6382,-0.6992,-1.343,0.244,-0.610,-138.038,19.006,-15.238
5672,-0.3232,-0.6348,-0.7012,-1.526,0.549,-0.305,-138.054,19.001,-15.238
5682,-0.3237,-0.6357,-0.7051,-1.160,0.671,-0.183,-138.065,18.995,-15.238
5692,-0.3232,-0.6348,-0.7075,-0.549,0.610,-0.122,-138.071,18.984,-15.238
5702,-0.3223,-0.6362,-0.7080,-0.122,0.305,-0.061,-138.071,18.979,-15.238
5712,-0.3218,-0.6377,-0.7085,0.061,-0.061,0.061,-138.071,18.979,-15.238
5722,-0.3223,-0.6333,-0.7085,0.122,-0.488,0.183,-138.071,18.979,-15.238
5732,-0.3218,-0.6333,-0.7056,0.061,-0.732,0.183,-138.071,18.984,-15.238
5742,-0.3223,-0.6323,-0.7051,0.244,-0.854,0.183,-138.065,18.990,-15.238
5752,-0.3228,-0.6313,-0.7036,0.488,-1.038,0.183,-138.060,18.995,-15.238
5762,-0.3247,-0.6309,-0.7026,0.793,-1.099,0.183,-138.049,19.006,-15.238
5772,-0.3242,-0.6309,-0.6982,0.854,-1.038,0.061,-138.038,19.017,-15.238
5782,-0.3242,-0.6328,-0.6958,0.793,-0.977,-0.061,-138.021,19.023,-15.238
5792,-0.3232,-0.6343,-0.6948,0.427,-0.854,-0.061,-138.010,19.028,-15.238
5802,-0.3237,-0.6333,-0.6943,-0.061,-0.671,0.061,-138.010,19.034,-15.238
5812,-0.3252,-0.6323,-0.6929,-0.366,-0.427,0.183,-138.005,19.039,-15.238
5822,-0.3252,-0.6328,-0.6948,-0.549,-0.061,0.183,-138.010,19.039,-15.238
5832,-0.3262,-0.6323,-0.6992,-0.610,0.366,0.244,-138.016,19.039,-15.238
5842,-0.3257,-0.6328,-0.6992,-0.610,0.610,0.305,-138.021,19.034,-15.238
5852,-0.3257,-0.6323,-0.7031,-0.732,0.610,0.244,-138.032,19.034,-15.238
5862,-0.3262,-0.6333,-0.7061,-0.671,0.366,0.244,-138.043,19.034,-15.238
5872,-0.3252,-0.6304,-0.7090,-0.549,0.183,0.183,-138.049,19.028,-15.238
5882,-0.3247,-0.6309,-0.7075,-0.305,-0.183,0.183,-138.054,19.034,-15.238
5892,-0.3247,-0.6318,-0.7061,0.000,-0.610,0.122,-138.054,19.034,-15.238
5902,-0.3228,-0.6318,-0.7046,0.427,-0.732,0.061,-138.049,19.039,-15.238
5912,-0.3247,-0.6318,-0.6997,0.671,-0.671,0.061,-138.043,19.045,-15.238
5922,-0.3242,-0.6318,-0.6973,0.732,-0.488,0.183,-138.032,19.050,-15.238
5932,-0.3242,-0.6323,-0.6982,0.610,-0.244,0.305,-138.021,19.050,-15.238
5942,-0.3247,-0.6309,-0.7002,0.427,0.000,0.305,-138.021,19.056,-15.238
5952,-0.3232,-0.6318,-0.7002,0.305,0.183,0.244,-138.016,19.050,-15.238
5962,-0.3232,-0.6318,-0.6997,0.122,0.183,0.183,-138.016,19.050,-15.238
5972,-0.3228,-0.6313,-0.7012,0.000,0.183,0.183,-138.016,19.050,-15.238
5982,-0.3242,-0.6323,-0.7026,-0.061,0.244,0.183,-138.016,19.050,-15.238
5992,-0.3242,-0.6313,-0.7036,-0.061,0.244,0.122,-138.021,19.045,-15.238
6002,-0.3242,-0.6294,-0.7046,-0.061,0.244,0.061,-138.021,19.045,-15.238
6012,-0.3257,-0.6294,-0.7056,0.061,0.122,0.000,-138.027,19.045,-15.238
6022,-0.3267,-0.6299,-0.7065,0.122,0.000,-0.122,-138.027,19.039,-15.238
6032,-0.3257,-0.6313,-0.7070,0.122,-0.122,-0.183,-138.027,19.039,-15.238
6042,-0.3252,-0.6338,-0.7070,0.122,-0.366,-0.122,-138.027,19.039,-15.238
6052,-0.3232,-0.6338,-0.7065,0.183,-0.610,-0.122,-138.021,19.045,-15.238
6062,-0.3242,-0.6348,-0.7031,0.366,-0.854,-0.061,-138.016,19.045,-15.238
6072,-0.3232,-0.6367,-0.6992,0.549,-0.854,-0.061,-138.005,19.050,-15.238
6082,-0.3237,-0.6357,-0.7017,0.488,-0.732,0.000,-137.994,19.056,-15.238
6092,-0.3223,-0.6348,-0.6982,0.427,-0.610,0.122,-137.988,19.056,-15.238
6102,-0.3228,-0.6338,-0.6987,0.244,-0.610,0.244,-137.983,19.061,-15.238
6112,-0.3237,-0.6323,-0.7021,0.183,-0.488,0.305,-137.983,19.067,-15.238
6122,-0.3247,-0.6313,-0.6992,0.244,-0.244,0.366,-137.977,19.072,-15.238
6132,-0.3237,-0.6299,-0.6982,0.305,-0.122,0.366,-137.977,19.072,-15.238
6142,-0.3237,-0.6299,-0.6982,0.244,-0.122,0.366,-137.972,19.078,-15.238
6152,-0.3257,-0.6289,-0.6982,0.122,-0.183,0.244,-137.972,19.078,-15.238
6162,-0.3247,-0.6274,-0.7002,-0.183,-0.122,0.244,-137.977,19.083,-15.238
6172,-0.3252,-0.6289,-0.7012,-0.305,-0.061,0.183,-137.983,19.083,-15.238
6182,-0.3262,-0.6304,-0.7031,-0.244,0.000,0.000,-137.983,19.083,-15.238
6192,-0.3252,-0.6304,-0.7002,-0.122,0.000,-0.122,-137.988,19.083,-15.238
6202,-0.3242,-0.6318,-0.7007,0.061,-0.061,-0.061,-137.983,19.078,-15.238
6212,-0.3223,-0.6333,-0.7041,0.000,-0.061,0.061,-137.983,19.078,-15.238
6222,-0.3237,-0.6318,-0.7031,0.061,-0.183,0.305,-137.983,19.078,-15.238
6232,-0.3257,-0.6294,-0.7021,0.244,-0.305,0.366,-137.983,19.083,-15.238
6242,-0.3262,-0.6265,-0.7017,0.549,-0.366,0.244,-137.983,19.089,-15.238
6252,-0.3286,-0.6260,-0.6997,0.916,-0.427,0.061,-137.972,19.094,-15.238
6262,-0.3286,-0.6265,-0.6958,0.977,-0.549,-0.122,-137.961,19.100,-15.238
6272,-0.3286,-0.6270,-0.6938,0.732,-0.549,-0.366,-137.955,19.105,-15.238
6282,-0.3247,-0.6318,-0.6934,0.183,-0.427,-0.610,-137.944,19.105,-15.238
6292,-0.3242,-0.6353,-0.6943,-0.488,-0.122,-0.732,-137.944,19.100,-15.238
6302,-0.3237,-0.6367,-0.6982,-0.977,0.305,-0.732,-137.950,19.089,-15.238
6312,-0.3242,-0.6387,-0.7012,-1.160,0.671,-0.549,-137.961,19.078,-15.238
6322,-0.3228,-0.6367,-0.7021,-0.916,0.854,-0.305,-137.966,19.067,-15.238
6332,-0.3232,-0.6372,-0.7031,-0.488,0.977,-0.061,-137.972,19.056,-15.238
6342,-0.3223,-0.6357,-0.7056,-0.122,0.793,0.183,-137.977,19.050,-15.238
6352,-0.3232,-0.6357,-0.7075,0.061,0.671,0.427,-137.977,19.045,-15.238
6362,-0.3242,-0.6318,-0.7080,0.122,0.366,0.549,-137.983,19.045,-15.238
6372,-0.3232,-0.6294,-0.7095,0.305,-0.061,0.488,-137.983,19.045,-15.238
6382,-0.3247,-0.6294,-0.7085,0.427,-0.488,0.305,-137.983,19.050,-15.238
6392,-0.3247,-0.6284,-0.7031,0.549,-0.732,0.122,-137.977,19.056,-15.238
6402,-0.3252,-0.6309,-0.7017,0.610,-0.732,0.000,-137.972,19.061,-15.238
6412,-0.3237,-0.6304,-0.6968,0.671,-0.732,-0.122,-137.961,19.067,-15.238
6422,-0.3228,-0.6313,-0.6968,0.488,-0.549,-0.183,-137.955,19.067,-15.238
6432,-0.3237,-0.6348,-0.6968,0.183,-0.244,-0.183,-137.950,19.067,-15.238
6442,-0.3242,-0.6348,-0.6992,-0.122,0.061,-0.061,-137.950,19.061,-15.238
6452,-0.3257,-0.6348,-0.7002,-0.366,0.427,0.000,-137.950,19.061,-15.238
6462,-0.3262,-0.6328,-0.7017,-0.488,0.488,0.122,-137.955,19.056,-15.238
6472,-0.3271,-0.6328,-0.7031,-0.427,0.549,0.183,-137.966,19.056,-15.238
6482,-0.3267,-0.6309,-0.7046,-0.366,0.488,0.244,-137.972,19.050,-15.238
6492,-0.3276,-0.6299,-0.7041,-0.244,0.366,0.122,-137.977,19.050,-15.238
6502,-0.3267,-0.6309,-0.7056,-0.122,0.183,0.000,-137.983,19.050,-15.238
6512,-0.3237,-0.6299,-0.7036,-0.122,0.061,-0.183,-137.983,19.045,-15.238
6522,-0.3228,-0.6309,-0.7026,-0.122,-0.244,-0.183,-137.983,19.045,-15.238
6532,-0.3228,-0.6304,-0.7017,0.000,-0.610,-0.183,-137.983,19.050,-15.238
6543,-0.3237,-0.6323,-0.6982,0.061,-0.793,-0.244,-137.977,19.050,-15.238
6552,-0.3223,-0.6318,-0.6987,0.122,-0.549,-0.244,-137.977,19.050,-15.238
6562,-0.3228,-0.6328,-0.6982,0.061,-0.366,-0.122,-137.972,19.050,-15.238
6572,-0.3232,-0.6328,-0.6973,0.061,-0.122,0.000,-137.966,19.050,-15.238
6582,-0.3228,-0.6323,-0.6973,0.000,0.244,0.000,-137.966,19.050,-15.238
6592,-0.3218,-0.6318,-0.6982,-0.061,0.549,-0.061,-137.966,19.045,-15.238
6602,-0.3218,-0.6318,-0.6982,-0.183,0.732,0.000,-137.972,19.034,-15.238
6612,-0.3228,-0.6328,-0.7002,-0.305,0.671,0.122,-137.977,19.028,-15.238
6622,-0.3237,-0.6333,-0.7012,-0.427,0.610,0.061,-137.977,19.023,-15.238
6632,-0.3247,-0.6304,-0.7080,-0.488,0.671,0.000,-137.988,19.017,-15.238
6642,-0.3242,-0.6279,-0.7085,-0.549,0.671,-0.122,-137.999,19.012,-15.238
6652,-0.3232,-0.6299,-0.7080,-0.427,0.549,-0.183,-138.010,19.006,-15.238
6662,-0.3252,-0.6284,-0.7080,-0.183,0.366,-0.305,-138.016,19.001,-15.238
6672,-0.3252,-0.6289,-0.7065,0.122,0.122,-0.305,-138.016,18.995,-15.238
6682,-0.3262,-0.6323,-0.7051,0.366,-0.061,-0.427,-138.010,18.995,-15.238
6692,-0.3252,-0.6309,-0.7031,0.366,-0.305,-0.427,-138.010,18.995,-15.238
6702,-0.3242,-0.6328,-0.7007,0.122,-0.488,-0.427,-138.005,18.995,-15.238
6712,-0.3271,-0.6323,-0.6973,-0.122,-0.488,-0.427,-137.999,18.995,-15.238
6722,-0.3247,-0.6333,-0.6968,-0.366,-0.366,-0.427,-137.999,18.995,-15.238
6732,-0.3228,-0.6353,-0.6978,-0.671,-0.122,-0.488,-137.999,18.995,-15.238
6742,-0.3247,-0.6362,-0.6987,-0.854,0.000,-0.488,-138.005,18.990,-15.238
6752,-0.3232,-0.6362,-0.7012,-0.977,0.122,-0.305,-138.010,18.984,-15.238
6762,-0.3257,-0.6362,-0.6963,-0.916,0.305,-0.122,-138.016,18.984,-15.238
6772,-0.3262,-0.6348,-0.7002,-0.854,0.488,0.000,-138.027,18.979,-15.238
6782,-0.3252,-0.6333,-0.7026,-0.732,0.793,0.000,-138.032,18.973,-15.238
6792,-0.3267,-0.6323,-0.6997,-0.671,1.038,0.000,-138.043,18.968,-15.238
6802,-0.3257,-0.6338,-0.7026,-0.916,1.038,0.000,-138.049,18.962,-15.238
6812,-0.3232,-0.6333,-0.7070,-1.160,0.916,-0.061,-138.065,18.951,-15.238
6822,-0.3198,-0.6328,-0.7085,-1.343,0.488,0.000,-138.082,18.946,-15.238
6832,-0.3213,-0.6338,-0.7100,-1.282,0.122,0.000,-138.098,18.940,-15.238
6842,-0.3203,-0.6333,-0.7095,-0.916,-0.244,0.000,-138.104,18.940,-15.238
6852,-0.3208,-0.6343,-0.7056,-0.305,-0.366,0.061,-138.109,18.940,-15.238
6862,-0.3184,-0.6357,-0.7036,0.305,-0.427,0.183,-138.104,18.940,-15.238
6872,-0.3179,-0.6362,-0.7021,0.610,-0.366,0.427,-138.093,18.940,-15.238
6882,-0.3198,-0.6333,-0.7007,0.549,-0.244,0.610,-138.087,18.946,-15.238
6892,-0.3232,-0.6294,-0.7007,0.366,-0.183,0.732,-138.087,18.951,-15.238
6902,-0.3242,-0.6270,-0.7002,0.244,-0.183,0.793,-138.087,18.957,-15.238
6912,-0.3281,-0.6221,-0.6997,0.305,-0.244,0.671,-138.087,18.968,-15.238
6922,-0.3286,-0.6201,-0.6992,0.305,-0.244,0.305,-138.087,18.979,-15.238
6932,-0.3286,-0.6235,-0.6968,0.244,-0.183,-0.061,-138.082,18.984,-15.238
6942,-0.3286,-0.6265,-0.6958,-0.122,-0.061,-0.366,-138.082,18.984,-15.238
6952,-0.3247,-0.6309,-0.6982,-0.854,0.122,-0.671,-138.087,18.979,-15.238
6962,-0.3218,-0.6323,-0.7021,-1.404,0.366,-0.610,-138.098,18.968,-15.238
6972,-0.3203,-0.6338,-0.7046,-1.648,0.427,-0.427,-138.115,18.962,-15.238
6982,-0.3218,-0.6338,-0.7070,-1.404,0.427,-0.244,-138.131,18.957,-15.238
6992,-0.3213,-0.6357,-0.7085,-0.793,0.427,-0.061,-138.137,18.946,-15.238
7002,-0.3228,-0.6328,-0.7085,-0.122,0.427,0.061,-138.142,18.946,-15.238
7012,-0.3208,-0.6318,-0.7075,0.305,0.305,0.122,-138.142,18.940,-15.238
7022,-0.3208,-0.6313,-0.7061,0.488,0.061,0.183,-138.137,18.940,-15.238
7032,-0.3232,-0.6289,-0.7017,0.488,-0.183,0.244,-138.131,18.940,-15.238
7042,-0.3247,-0.6294,-0.7017,0.366,-0.366,0.244,-138.131,18.946,-15.238
7052,-0.3257,-0.6294,-0.7012,0.183,-0.366,0.183,-138.126,18.951,-15.238
7062,-0.3242,-0.6274,-0.6982,-0.061,-0.305,0.122,-138.126,18.957,-15.238
7072,-0.3247,-0.6284,-0.6997,-0.244,-0.183,0.061,-138.126,18.957,-15.238
7082,-0.3257,-0.6279,-0.7046,-0.305,-0.061,-0.061,-138.131,18.957,-15.238
7092,-0.3213,-0.6284,-0.7021,-0.244,0.061,-0.244,-138.131,18.957,-15.238
7102,-0.3213,-0.6313,-0.7017,-0.122,0.183,-0.305,-138.131,18.951,-15.238
7112,-0.3213,-0.6309,-0.7017,-0.122,0.244,-0.305,-138.131,18.946,-15.238
7122,-0.3203,-0.6318,-0.7036,-0.244,0.305,-0.183,-138.137,18.940,-15.238
7132,-0.3223,-0.6304,-0.7080,-0.305,0.183,0.000,-138.142,18.935,-15.238
7142,-0.3218,-0.6309,-0.7056,-0.244,0.000,0.000,-138.142,18.935,-15.238
7152,-0.3237,-0.6289,-0.7041,-0.122,-0.122,-0.061,-138.148,18.935,-15.238
7162,-0.3223,-0.6279,-0.7036,0.061,-0.305,-0.122,-138.142,18.935,-15.238
7172,-0.3247,-0.6318,-0.6982,0.305,-0.366,-0.244,-138.137,18.940,-15.238
7182,-0.3228,-0.6323,-0.6973,0.427,-0.488,-0.366,-138.126,18.940,-15.238
7192,-0.3223,-0.6328,-0.6973,0.366,-0.488,-0.366,-138.120,18.940,-15.238
7202,-0.3237,-0.6333,-0.6973,0.305,-0.427,-0.305,-138.109,18.940,-15.238
7212,-0.3228,-0.6353,-0.6963,0.244,-0.122,-0.244,-138.104,18.940,-15.238
7222,-0.3228,-0.6343,-0.6978,0.061,0.244,-0.122,-138.098,18.935,-15.238
7232,-0.3228,-0.6318,-0.6992,-0.122,0.549,0.000,-138.098,18.935,-15.238
7242,-0.3232,-0.6323,-0.7002,-0.305,0.610,0.122,-138.104,18.929,-15.238
7252,-0.3223,-0.6323,-0.7012,-0.427,0.732,0.122,-138.104,18.924,-15.238
7262,-0.3218,-0.6309,-0.7031,-0.427,0.854,0.122,-138.115,18.918,-15.238
7272,-0.3213,-0.6304,-0.7041,-0.366,0.977,0.122,-138.120,18.907,-15.238
7282,-0.3223,-0.6313,-0.7061,-0.244,1.038,0.122,-138.126,18.902,-15.238
7292,-0.3237,-0.6299,-0.7061,-0.122,0.977,0.122,-138.131,18.896,-15.238
7302,-0.3262,-0.6274,-0.7100,-0.061,0.854,0.122,-138.137,18.891,-15.238
7312,-0.3276,-0.6274,-0.7095,-0.122,0.854,0.061,-138.142,18.885,-15.238
7322,-0.3281,-0.6255,-0.7119,-0.305,0.732,0.000,-138.153,18.885,-15.238
7332,-0.3281,-0.6279,-0.7119,-0.488,0.610,-0.061,-138.164,18.880,-15.238
7342,-0.3281,-0.6274,-0.7148,-0.732,0.427,-0.183,-138.175,18.880,-15.238
7352,-0.3286,-0.6279,-0.7144,-0.916,0.244,-0.305,-138.192,18.875,-15.238
7362,-0.3247,-0.6318,-0.7139,-0.916,0.000,-0.427,-138.203,18.875,-15.238
7372,-0.3247,-0.6338,-0.7168,-0.854,-0.366,-0.488,-138.214,18.869,-15.238
7382,-0.3223,-0.6353,-0.7144,-0.610,-0.793,-0.427,-138.214,18.869,-15.238
7392,-0.3208,-0.6382,-0.7129,-0.366,-1.038,-0.305,-138.214,18.875,-15.238
7402,-0.3184,-0.6362,-0.7109,-0.122,-1.343,-0.122,-138.214,18.880,-15.238
7412,-0.3184,-0.6362,-0.7080,0.183,-1.465,0.000,-138.208,18.885,-15.238
7422,-0.3198,-0.6362,-0.7046,0.427,-1.648,0.122,-138.197,18.896,-15.238
7432,-0.3198,-0.6357,-0.7021,0.549,-1.770,0.244,-138.186,18.907,-15.238
7442,-0.3203,-0.6348,-0.6992,0.488,-1.770,0.366,-138.170,18.924,-15.238
7452,-0.3228,-0.6328,-0.6978,0.549,-1.648,0.488,-138.159,18.935,-15.238
7462,-0.3228,-0.6294,-0.6899,0.610,-1.343,0.488,-138.148,18.951,-15.238
7472,-0.3237,-0.6265,-0.6914,0.671,-0.977,0.427,-138.137,18.962,-15.238
7482,-0.3242,-0.6250,-0.6860,0.610,-0.671,0.427,-138.126,18.973,-15.238
7492,-0.3281,-0.6270,-0.6885,0.427,-0.305,0.305,-138.115,18.984,-15.238
7502,-0.3262,-0.6260,-0.6899,0.061,0.000,0.183,-138.115,18.984,-15.238
7512,-0.3267,-0.6289,-0.6919,-0.427,0.244,0.122,-138.115,18.990,-15.238
7522,-0.3247,-0.6284,-0.6919,-0.732,0.366,0.122,-138.120,18.990,-15.238
7532,-0.3237,-0.6299,-0.6958,-1.038,0.305,0.061,-138.126,18.984,-15.238
7543,-0.3208,-0.6313,-0.6978,-1.038,0.366,-0.061,-138.137,18.984,-15.238
7552,-0.3223,-0.6313,-0.7002,-0.854,0.427,-0.183,-138.142,18.979,-15.238
7562,-0.3203,-0.6348,-0.7026,-0.488,0.549,-0.122,-138.148,18.968,-15.238
7572,-0.3198,-0.6323,-0.7002,-0.061,0.671,0.000,-138.148,18.962,-15.238
7582,-0.3232,-0.6309,-0.7002,0.305,0.549,0.061,-138.142,18.957,-15.238
7592,-0.3232,-0.6313,-0.7012,0.610,0.366,0.061,-138.137,18.957,-15.238
7602,-0.3242,-0.6304,-0.7007,0.671,0.183,0.000,-138.126,18.951,-15.238
7612,-0.3257,-0.6289,-0.7031,0.488,0.183,-0.183,-138.126,18.951,-15.238
7622,-0.3257,-0.6309,-0.6997,0.061,0.305,-0.366,-138.120,18.951,-15.238
7632,-0.3237,-0.6318,-0.7012,-0.427,0.488,-0.366,-138.126,18.940,-15.238
7642,-0.3232,-0.6323,-0.7026,-0.854,0.732,-0.366,-138.131,18.935,-15.238
7652,-0.3252,-0.6299,-0.7021,-0.916,1.038,-0.183,-138.142,18.924,-15.238
7662,-0.3262,-0.6309,-0.7065,-0.610,1.221,-0.061,-138.153,18.918,-15.238
7672,-0.3252,-0.6304,-0.7080,-0.183,1.282,-0.061,-138.159,18.907,-15.238
7682,-0.3252,-0.6318,-0.7114,0.061,1.099,-0.061,-138.164,18.896,-15.238
7692,-0.3242,-0.6323,-0.7119,0.122,0.793,0.061,-138.164,18.891,-15.238
7702,-0.3232,-0.6318,-0.7119,-0.061,0.488,0.122,-138.170,18.891,-15.238
7712,-0.3232,-0.6299,-0.7114,-0.244,0.000,0.244,-138.175,18.891,-15.238
7722,-0.3232,-0.6270,-0.7129,-0.244,-0.366,0.244,-138.186,18.891,-15.238
7732,-0.3223,-0.6265,-0.7124,0.061,-0.671,0.061,-138.186,18.896,-15.238
7742,-0.3218,-0.6284,-0.7100,0.366,-0.793,-0.061,-138.186,18.902,-15.238
7752,-0.3218,-0.6304,-0.7065,0.671,-0.793,-0.183,-138.175,18.902,-15.238
7762,-0.3223,-0.6304,-0.7031,0.732,-0.671,-0.305,-138.164,18.907,-15.238
7772,-0.3203,-0.6333,-0.7046,0.488,-0.549,-0.305,-138.159,18.907,-15.238
7782,-0.3218,-0.6338,-0.7007,0.244,-0.549,-0.244,-138.153,18.907,-15.238
7792,-0.3232,-0.6304,-0.6992,0.000,-0.610,-0.122,-138.148,18.913,-15.238
7802,-0.3232,-0.6289,-0.7007,0.000,-0.671,0.000,-138.148,18.918,-15.238
7812,-0.3237,-0.6309,-0.6968,0.244,-0.122,-0.122,-138.137,18.918,-15.238
7822,-0.3257,-0.6289,-0.6948,0.183,0.183,-0.183,-138.137,18.918,-15.238
7832,-0.3257,-0.6289,-0.6992,0.000,0.488,-0.122,-138.131,18.913,-15.238
7842,-0.3252,-0.6304,-0.7012,-0.305,0.488,-0.183,-138.137,18.913,-15.238
7852,-0.3242,-0.6309,-0.7031,-0.732,0.305,-0.305,-138.142,18.907,-15.238
7862,-0.3228,-0.6304,-0.7031,-0.916,0.122,-0.366,-138.153,18.902,-15.238
7872,-0.3228,-0.6309,-0.7026,-0.854,-0.122,-0.305,-138.159,18.902,-15.238
7882,-0.3232,-0.6318,-0.7021,-0.427,-0.305,-0.366,-138.159,18.902,-15.238
7892,-0.3218,-0.6328,-0.7012,0.122,-0.305,-0.488,-138.153,18.902,-15.238
7902,-0.3218,-0.6348,-0.6987,0.549,-0.305,-0.366,-138.142,18.902,-15.238
7912,-0.3208,-0.6357,-0.6978,0.671,-0.122,-0.305,-138.131,18.896,-15.238
7922,-0.3232,-0.6338,-0.6963,0.488,0.061,-0.183,-138.120,18.896,-15.238
7932,-0.3232,-0.6328,-0.6997,0.000,0.305,-0.122,-138.120,18.891,-15.238
7942,-0.3252,-0.6338,-0.7002,-0.366,0.427,-0.122,-138.120,18.891,-15.238
7952,-0.3257,-0.6323,-0.7012,-0.427,0.549,-0.061,-138.126,18.885,-15.238
7962,-0.3237,-0.6333,-0.7051,-0.244,0.610,-0.061,-138.126,18.880,-15.238
7972,-0.3228,-0.6318,-0.7046,-0.122,0.610,0.000,-138.131,18.880,-15.238
7982,-0.3252,-0.6313,-0.7070,-0.061,0.488,0.122,-138.131,18.875,-15.238
7992,-0.3242,-0.6313,-0.7070,0.061,0.488,0.183,-138.137,18.875,-15.238
8002,-0.3223,-0.6323,-0.7056,0.061,0.427,0.183,-138.137,18.869,-15.238
8012,-0.3218,-0.6318,-0.7070,0.000,0.244,0.122,-138.137,18.869,-15.238
8022,-0.3223,-0.6284,-0.7056,-0.122,0.061,0.000,-138.142,18.869,-15.238
8032,-0.3242,-0.6284,-0.7046,-0.244,-0.122,0.000,-138.142,18.869,-15.238
8043,-0.3232,-0.6289,-0.7046,-0.122,-0.183,-0.061,-138.142,18.869,-15.238
8052,-0.3247,-0.6299,-0.7051,0.061,-0.305,-0.122,-138.142,18.875,-15.238
8062,-0.3237,-0.6299,-0.7051,0.122,-0.305,-0.244,-138.142,18.875,-15.238
8072,-0.3223,-0.6323,-0.7046,0.122,-0.244,-0.305,-138.137,18.875,-15.238
8082,-0.3213,-0.6333,-0.7046,-0.122,-0.183,-0.366,-138.137,18.869,-15.238
8092,-0.3198,-0.6353,-0.7061,-0.427,-0.183,-0.366,-138.142,18.869,-15.238
8102,-0.3203,-0.6343,-0.7021,-0.671,-0.122,-0.244,-138.142,18.864,-15.238
8112,-0.3218,-0.6328,-0.7051,-0.793,-0.183,-0.122,-138.148,18.864,-15.238
8122,-0.3218,-0.6309,-0.7061,-0.610,-0.244,-0.061,-138.159,18.864,-15.238
8132,-0.3213,-0.6318,-0.7051,-0.122,-0.183,-0.061,-138.159,18.864,-15.238
8142,-0.3213,-0.6318,-0.7026,0.183,-0.122,0.000,-138.153,18.864,-15.238
8152,-0.3232,-0.6309,-0.7017,0.305,-0.061,0.122,-138.148,18.864,-15.238
8162,-0.3223,-0.6294,-0.7026,0.305,0.061,0.244,-138.148,18.869,-15.238
8172,-0.3223,-0.6299,-0.7041,0.122,0.061,0.183,-138.148,18.869,-15.238
8182,-0.3252,-0.6289,-0.7026,-0.122,0.061,0.061,-138.148,18.869,-15.238
8192,-0.3228,-0.6274,-0.7031,-0.366,0.061,-0.061,-138.153,18.869,-15.238
8202,-0.3237,-0.6299,-0.7031,-0.427,0.000,-0.122,-138.159,18.869,-15.238
8212,-0.3232,-0.6309,-0.7021,-0.183,-0.061,-0.183,-138.159,18.869,-15.238
8222,-0.3223,-0.6323,-0.7031,0.122,-0.183,-0.366,-138.153,18.864,-15.238
8232,-0.3218,-0.6348,-0.7046,0.183,-0.244,-0.366,-138.148,18.864,-15.238
8242,-0.3213,-0.6377,-0.7026,0.122,-0.305,-0.122,-138.142,18.864,-15.238
8252,-0.3208,-0.6348,-0.7021,0.061,-0.366,0.061,-138.137,18.864,-15.238
8262,-0.3208,-0.6318,-0.7017,-0.061,-0.305,0.122,-138.137,18.869,-15.238
8272,-0.3257,-0.6309,-0.6997,0.061,-0.183,0.061,-138.137,18.875,-15.238
8282,-0.3232,-0.6313,-0.6997,0.183,0.000,-0.122,-138.131,18.869,-15.238
8292,-0.3232,-0.6313,-0.6982,0.244,0.122,-0.244,-138.126,18.869,-15.238
8302,-0.3242,-0.6318,-0.6978,0.061,0.366,-0.244,-138.120,18.869,-15.238
8312,-0.3237,-0.6348,-0.7012,-0.366,0.732,-0.244,-138.126,18.858,-15.238
8322,-0.3237,-0.6338,-0.7017,-0.793,1.038,-0.122,-138.131,18.853,-15.238
8332,-0.3213,-0.6333,-0.7065,-0.977,1.038,0.000,-138.142,18.842,-15.238
8342,-0.3223,-0.6343,-0.7070,-0.793,0.793,0.122,-138.153,18.836,-15.238
8352,-0.3242,-0.6313,-0.7085,-0.366,0.488,0.122,-138.159,18.836,-15.238
8362,-0.3232,-0.6323,-0.7080,0.183,0.305,0.122,-138.159,18.831,-15.238
8372,-0.3213,-0.6323,-0.7056,0.610,0.000,0.122,-138.153,18.831,-15.238
8382,-0.3208,-0.6299,-0.7065,0.671,-0.244,0.244,-138.148,18.836,-15.238
8392,-0.3208,-0.6313,-0.7036,0.610,-0.305,0.305,-138.142,18.836,-15.238
8402,-0.3218,-0.6299,-0.7002,0.427,-0.305,0.244,-138.137,18.842,-15.238
8412,-0.3228,-0.6304,-0.6982,0.305,-0.183,0.122,-138.131,18.847,-15.238
8422,-0.3213,-0.6309,-0.6978,0.061,0.000,0.061,-138.126,18.847,-15.238
8432,-0.3218,-0.6299,-0.6992,-0.183,0.122,0.061,-138.131,18.847,-15.238
8442,-0.3213,-0.6318,-0.7007,-0.427,0.305,0.122,-138.131,18.847,-15.238
8452,-0.3228,-0.6313,-0.7031,-0.610,0.427,0.183,-138.137,18.842,-15.238
8462,-0.3208,-0.6304,-0.7046,-0.610,0.671,0.244,-138.148,18.836,-15.238
8472,-0.3228,-0.6304,-0.7085,-0.488,0.732,0.244,-138.159,18.836,-15.238
8482,-0.3223,-0.6304,-0.7061,-0.305,0.793,0.244,-138.164,18.831,-15.238
8492,-0.3247,-0.6304,-0.7065,-0.183,0.732,0.305,-138.170,18.825,-15.238
8502,-0.3262,-0.6294,-0.7109,-0.122,0.610,0.244,-138.175,18.825,-15.238
8512,-0.3247,-0.6294,-0.7080,-0.122,0.366,0.061,-138.181,18.825,-15.238
8522,-0.3232,-0.6279,-0.7095,-0.183,0.122,-0.061,-138.181,18.825,-15.238
8532,-0.3257,-0.6289,-0.7056,-0.122,0.000,-0.122,-138.186,18.825,-15.238
8543,-0.3242,-0.6304,-0.7061,-0.061,-0.244,-0.122,-138.186,18.825,-15.238
8552,-0.3232,-0.6313,-0.7041,0.122,-0.671,-0.183,-138.181,18.831,-15.238
8562,-0.3228,-0.6333,-0.7026,0.183,-0.854,-0.244,-138.175,18.836,-15.238
8572,-0.3203,-0.6357,-0.7017,0.122,-0.793,-0.244,-138.170,18.836,-15.238
8582,-0.3208,-0.6362,-0.7012,0.061,-0.549,-0.122,-138.164,18.842,-15.238
8592,-0.3228,-0.6357,-0.6992,-0.061,-0.244,0.122,-138.159,18.842,-15.238
8602,-0.3232,-0.6357,-0.6982,-0.122,0.000,0.244,-138.153,18.847,-15.238
8612,-0.3218,-0.6343,-0.6968,-0.122,0.366,0.305,-138.153,18.842,-15.238
8622,-0.3208,-0.6353,-0.7002,-0.183,0.549,0.305,-138.153,18.842,-15.238
8632,-0.3232,-0.6333,-0.7021,-0.305,0.732,0.366,-138.159,18.836,-15.238
8642,-0.3232,-0.6309,-0.7007,-0.366,0.793,0.488,-138.164,18.836,-15.238
8652,-0.3228,-0.6299,-0.7031,-0.305,0.671,0.549,-138.170,18.836,-15.238
8662,-0.3218,-0.6289,-0.7080,-0.244,0.488,0.427,-138.175,18.836,-15.238
8672,-0.3232,-0.6299,-0.7080,-0.183,0.183,0.366,-138.181,18.836,-15.238
8682,-0.3242,-0.6270,-0.7070,-0.122,-0.061,0.427,-138.186,18.842,-15.238
8692,-0.3247,-0.6284,-0.7065,0.122,-0.183,0.305,-138.186,18.842,-15.238
8702,-0.3247,-0.6289,-0.7041,0.366,-0.305,0.183,-138.181,18.847,-15.238
8712,-0.3237,-0.6289,-0.7041,0.488,-0.427,0.061,-138.175,18.853,-15.238
8722,-0.3237,-0.6299,-0.7046,0.549,-0.427,0.061,-138.170,18.858,-15.238
8732,-0.3228,-0.6318,-0.7007,0.427,-0.366,0.122,-138.164,18.864,-15.238
8742,-0.3218,-0.6338,-0.7021,0.183,-0.366,0.305,-138.159,18.864,-15.238
8752,-0.3218,-0.6318,-0.7021,-0.061,-0.366,0.305,-138.159,18.869,-15.238
8762,-0.3218,-0.6323,-0.7021,-0.122,-0.244,0.305,-138.159,18.875,-15.238
8772,-0.3232,-0.6338,-0.7017,-0.244,0.000,0.244,-138.159,18.875,-15.238
8782,-0.3213,-0.6318,-0.7012,-0.122,0.244,0.305,-138.159,18.875,-15.238
8792,-0.3232,-0.6309,-0.7046,-0.122,0.305,0.427,-138.164,18.875,-15.238
8802,-0.3237,-0.6309,-0.7051,-0.061,0.427,0.488,-138.164,18.875,-15.238
8812,-0.3218,-0.6284,-0.7046,-0.061,0.366,0.488,-138.170,18.875,-15.238
8822,-0.3247,-0.6279,-0.7051,-0.122,0.427,0.549,-138.175,18.875,-15.238
8832,-0.3247,-0.6274,-0.7041,-0.244,0.305,0.366,-138.181,18.880,-15.238
8842,-0.3237,-0.6274,-0.7036,-0.427,0.244,0.244,-138.186,18.880,-15.238
8852,-0.3247,-0.6260,-0.7056,-0.488,0.122,0.183,-138.192,18.880,-15.238
8862,-0.3242,-0.6274,-0.7065,-0.366,-0.183,0.122,-138.197,18.885,-15.238
8872,-0.3237,-0.6294,-0.7036,-0.061,-0.427,0.061,-138.197,18.885,-15.238
8882,-0.3242,-0.6299,-0.7041,0.183,-0.549,-0.061,-138.197,18.891,-15.238
8892,-0.3213,-0.6328,-0.7046,0.183,-0.366,-0.061,-138.192,18.891,-15.238
8902,-0.3213,-0.6323,-0.7026,0.000,-0.305,0.061,-138.186,18.891,-15.238
8912,-0.3232,-0.6284,-0.7026,-0.183,-0.183,0.244,-138.192,18.896,-15.238
8922,-0.3242,-0.6260,-0.7041,-0.122,-0.183,0.244,-138.192,18.902,-15.238
8932,-0.3262,-0.6250,-0.7012,0.122,-0.244,0.061,-138.192,18.907,-15.238
8942,-0.3267,-0.6279,-0.6992,0.488,-0.305,-0.244,-138.186,18.907,-15.238
8952,-0.3267,-0.6313,-0.6958,0.610,-0.366,-0.427,-138.175,18.913,-15.238
8962,-0.3262,-0.6353,-0.6953,0.366,-0.305,-0.488,-138.164,18.913,-15.238
8972,-0.3262,-0.6377,-0.6968,-0.122,0.000,-0.488,-138.153,18.913,-15.238
8982,-0.3242,-0.6372,-0.6997,-0.549,0.305,-0.427,-138.153,18.907,-15.238
8992,-0.3232,-0.6392,-0.7026,-0.671,0.488,-0.183,-138.159,18.902,-15.238
9002,-0.3228,-0.6387,-0.7036,-0.488,0.427,0.000,-138.159,18.896,-15.238
9012,-0.3223,-0.6396,-0.7070,-0.122,0.122,0.427,-138.159,18.896,-15.238
9022,-0.3218,-0.6406,-0.7070,0.122,-0.122,0.671,-138.159,18.896,-15.238
9032,-0.3203,-0.6367,-0.7046,0.366,-0.366,0.916,-138.153,18.902,-15.238
9043,-0.3208,-0.6333,-0.7051,0.610,-0.427,1.038,-138.148,18.913,-15.238
9052,-0.3218,-0.6313,-0.7046,0.854,-0.427,1.160,-138.142,18.918,-15.249
9062,-0.3213,-0.6260,-0.7056,0.916,-0.305,1.099,-138.137,18.929,-15.255
9072,-0.3213,-0.6265,-0.7007,0.854,-0.061,0.977,-138.131,18.935,-15.260
9082,-0.3193,-0.6260,-0.6997,0.671,0.122,0.793,-138.126,18.940,-15.266
9092,-0.3203,-0.6265,-0.6992,0.244,0.244,0.671,-138.126,18.940,-15.276
9102,-0.3232,-0.6235,-0.6982,-0.183,0.305,0.549,-138.131,18.940,-15.282
9112,-0.3228,-0.6226,-0.7021,-0.488,0.427,0.549,-138.142,18.946,-15.287
9122,-0.3252,-0.6235,-0.7051,-0.549,0.549,0.488,-138.153,18.946,-15.298
9132,-0.3252,-0.6226,-0.7075,-0.427,0.671,0.366,-138.164,18.940,-15.304
9142,-0.3276,-0.6230,-0.7090,-0.366,0.793,0.305,-138.175,18.940,-15.309
9152,-0.3286,-0.6245,-0.7100,-0.549,0.854,0.305,-138.192,18.940,-15.320
9162,-0.3306,-0.6187,-0.7202,-0.977,1.038,0.366,-138.214,18.935,-15.331
9172,-0.3359,-0.6143,-0.7314,-1.953,1.831,0.488,-138.257,18.929,-15.348
9182,-0.3276,-0.6152,-0.7280,-1.648,1.709,-0.366,-138.290,18.913,-15.359
9192,-0.3203,-0.6182,-0.7363,-1.282,0.305,-1.160,-138.318,18.902,-15.348
9202,-0.3174,-0.6255,-0.7295,-0.488,-2.014,-1.709,-138.323,18.896,-15.320
9212,-0.3184,-0.6318,-0.7212,-0.244,-3.967,-1.648,-138.318,18.913,-15.282
9222,-0.3188,-0.6372,-0.7148,-0.244,-4.761,-1.526,-138.307,18.929,-15.233
9232,-0.3188,-0.6367,-0.7065,0.366,-4.700,-1.343,-138.285,18.951,-15.194
9242,-0.3184,-0.6387,-0.6997,0.671,-3.967,-1.038,-138.257,18.973,-15.156
9252,-0.3164,-0.6436,-0.6909,1.282,-3.113,-0.732,-138.224,18.984,-15.128
9262,-0.3145,-0.6426,-0.6855,1.221,-2.563,-0.366,-138.192,18.995,-15.106
9272,-0.3169,-0.6401,-0.6855,0.793,-2.258,-0.061,-138.170,19.012,-15.090
9282,-0.3228,-0.6338,-0.6860,0.183,-1.648,0.305,-138.153,19.023,-15.079
9292,-0.3247,-0.6279,-0.6841,-0.305,-0.977,0.549,-138.148,19.039,-15.079
9302,-0.3291,-0.6230,-0.6826,-0.610,-0.183,0.427,-138.153,19.050,-15.079
9312,-0.3286,-0.6201,-0.6860,-0.732,0.488,0.183,-138.159,19.050,-15.084
9322,-0.3271,-0.6216,-0.6865,-0.793,0.916,-0.061,-138.164,19.050,-15.090
9332,-0.3276,-0.6250,-0.6919,-0.977,0.916,-0.366,-138.170,19.045,-15.095
9342,-0.3232,-0.6284,-0.6953,-1.282,0.671,-0.488,-138.181,19.034,-15.095
9352,-0.3262,-0.6304,-0.6992,-1.526,0.244,-0.427,-138.197,19.028,-15.095
9362,-0.3271,-0.6309,-0.7012,-1.343,-0.061,-0.427,-138.203,19.028,-15.090
9372,-0.3271,-0.6333,-0.7026,-0.854,-0.305,-0.427,-138.208,19.028,-15.084
9382,-0.3267,-0.6372,-0.7036,-0.183,-0.305,-0.488,-138.203,19.028,-15.079
9392,-0.3242,-0.6392,-0.6987,0.366,-0.244,-0.549,-138.192,19.023,-15.073
9402,-0.3213,-0.6382,-0.7007,0.549,-0.244,-0.305,-138.181,19.023,-15.068
9412,-0.3228,-0.6387,-0.7021,0.427,-0.244,-0.061,-138.170,19.023,-15.068
9422,-0.3223,-0.6387,-0.7007,0.244,-0.122,0.183,-138.164,19.017,-15.068
9432,-0.3262,-0.6377,-0.7017,0.122,0.061,0.366,-138.159,19.023,-15.073
9442,-0.3276,-0.6348,-0.7026,0.183,0.244,0.427,-138.159,19.023,-15.073
9452,-0.3252,-0.6323,-0.7017,0.244,0.488,0.488,-138.153,19.023,-15.084
9462,-0.3267,-0.6304,-0.7046,0.122,0.793,0.488,-138.159,19.023,-15.090
9472,-0.3252,-0.6304,-0.7017,-0.122,1.038,0.427,-138.159,19.017,-15.101
9482,-0.3267,-0.6284,-0.7046,-0.427,1.160,0.427,-138.170,19.012,-15.117
9492,-0.3257,-0.6289,-0.7051,-0.610,1.160,0.427,-138.181,19.006,-15.128
9502,-0.3262,-0.6274,-0.7046,-0.549,0.977,0.366,-138.192,19.001,-15.134
9512,-0.3262,-0.6279,-0.7046,-0.366,0.732,0.305,-138.197,18.995,-15.145
9522,-0.3208,-0.6279,-0.7075,-0.244,0.488,0.244,-138.203,18.995,-15.150
9532,-0.3208,-0.6309,-0.7090,-0.244,0.122,0.366,-138.208,18.990,-15.150
9543,-0.3208,-0.6274,-0.7109,-0.183,-0.122,0.549,-138.214,18.995,-15.156
9552,-0.3218,-0.6235,-0.7104,0.122,-0.366,0.671,-138.219,19.001,-15.161
9562,-0.3208,-0.6196,-0.7075,0.732,-0.610,0.549,-138.219,19.006,-15.161
9572,-0.3232,-0.6206,-0.6982,1.343,-0.732,0.183,-138.203,19.012,-15.156
9582,-0.3228,-0.6216,-0.6953,1.465,-0.793,0.000,-138.186,19.017,-15.150
9592,-0.3247,-0.6230,-0.6938,1.099,-0.732,-0.244,-138.175,19.023,-15.145
9602,-0.3232,-0.6255,-0.6919,0.366,-0.488,-0.488,-138.164,19.028,-15.134
9612,-0.3252,-0.6255,-0.6948,-0.610,0.061,-0.610,-138.170,19.023,-15.128
9622,-0.3232,-0.6260,-0.6973,-1.343,0.732,-0.610,-138.181,19.012,-15.134
9632,-0.3242,-0.6265,-0.7051,-1.648,1.221,-0.610,-138.203,19.001,-15.134
9642,-0.3218,-0.6289,-0.7090,-1.526,1.404,-0.549,-138.219,18.984,-15.139
9652,-0.3223,-0.6309,-0.7109,-1.221,1.160,-0.488,-138.235,18.968,-15.145
9662,-0.3228,-0.6313,-0.7104,-0.793,0.732,-0.427,-138.246,18.957,-15.145
9672,-0.3232,-0.6309,-0.7139,-0.427,0.183,-0.305,-138.252,18.951,-15.145
9682,-0.3228,-0.6299,-0.7139,-0.122,-0.427,-0.244,-138.252,18.951,-15.139
9692,-0.3237,-0.6294,-0.7100,0.244,-0.977,-0.244,-138.252,18.957,-15.134
9702,-0.3281,-0.6279,-0.7061,0.549,-1.160,-0.427,-138.241,18.962,-15.123
9712,-0.3281,-0.6284,-0.7031,0.610,-1.099,-0.610,-138.230,18.973,-15.106
9722,-0.3291,-0.6328,-0.6992,0.549,-0.916,-0.732,-138.219,18.973,-15.095
9732,-0.3276,-0.6343,-0.6968,0.183,-0.671,-0.793,-138.208,18.979,-15.084
9742,-0.3262,-0.6362,-0.7002,-0.305,-0.488,-0.732,-138.203,18.979,-15.073
9752,-0.3247,-0.6353,-0.7007,-0.671,-0.183,-0.610,-138.203,18.973,-15.068
9762,-0.3267,-0.6338,-0.7007,-0.854,0.244,-0.488,-138.208,18.968,-15.068
9772,-0.3271,-0.6313,-0.7036,-0.732,0.610,-0.305,-138.214,18.962,-15.068
9782,-0.3247,-0.6323,-0.7051,-0.427,0.732,-0.122,-138.219,18.957,-15.073
9792,-0.3267,-0.6299,-0.7041,-0.122,0.732,-0.061,-138.224,18.951,-15.079
9802,-0.3257,-0.6279,-0.7061,0.061,0.610,0.000,-138.224,18.951,-15.084
9812,-0.3267,-0.6279,-0.7051,0.122,0.549,0.000,-138.224,18.946,-15.084
9822,-0.3228,-0.6279,-0.7046,0.000,0.488,-0.183,-138.224,18.940,-15.090
9832,-0.3213,-0.6289,-0.7065,-0.183,0.305,-0.305,-138.230,18.935,-15.090
9842,-0.3228,-0.6289,-0.7056,-0.305,0.000,-0.366,-138.230,18.935,-15.084
9852,-0.3218,-0.6309,-0.7036,-0.183,-0.244,-0.244,-138.230,18.929,-15.079
9862,-0.3208,-0.6313,-0.7012,-0.122,-0.305,-0.305,-138.230,18.929,-15.079
9872,-0.3203,-0.6313,-0.7007,0.000,-0.305,-0.183,-138.224,18.929,-15.073
9882,-0.3208,-0.6309,-0.7007,0.183,-0.183,-0.061,-138.219,18.929,-15.073
9892,-0.3223,-0.6299,-0.7017,0.244,0.122,0.061,-138.219,18.929,-15.073
9902,-0.3203,-0.6294,-0.7017,0.183,0.366,0.183,-138.214,18.924,-15.079
9912,-0.3203,-0.6299,-0.7031,-0.061,0.671,0.122,-138.219,18.918,-15.084
9922,-0.3208,-0.6279,-0.7041,-0.244,0.793,0.122,-138.224,18.913,-15.090
9932,-0.3208,-0.6284,-0.7075,-0.305,0.732,0.061,-138.230,18.907,-15.095
9942,-0.3223,-0.6270,-0.7080,-0.488,0.549,-0.061,-138.235,18.902,-15.095
9952,-0.3228,-0.6255,-0.7085,-0.671,0.305,-0.122,-138.246,18.896,-15.101
9962,-0.3237,-0.6255,-0.7114,-0.549,0.183,-0.122,-138.257,18.896,-15.101
9973,-0.3262,-0.6270,-0.7090,-0.244,0.122,-0.122,-138.263,18.896,-15.101
9982,-0.3252,-0.6274,-0.7075,0.183,0.061,-0.305,-138.263,18.891,-15.095
9992,-0.3223,-0.6284,-0.7061,0.488,0.000,-0.366,-138.257,18.891,-15.095
10002,-0.3223,-0.6274,-0.7095,0.610,-0.061,-0.305,-138.252,18.885,-15.090
10012,-0.3232,-0.6299,-0.7046,0.549,-0.122,-0.366,-138.246,18.885,-15.090
10022,-0.3213,-0.6279,-0.7021,0.183,-0.305,-0.366,-138.241,18.885,-15.084
10032,-0.3203,-0.6304,-0.7041,-0.183,-0.366,-0.427,-138.241,18.880,-15.079
10043,-0.3188,-0.6318,-0.7061,-0.488,-0.244,-0.366,-138.241,18.880,-15.073
10052,-0.3203,-0.6304,-0.7075,-0.671,-0.183,-0.427,-138.246,18.875,-15.068
10062,-0.3208,-0.6289,-0.7080,-0.427,-0.122,-0.366,-138.252,18.875,-15.062
10072,-0.3198,-0.6289,-0.7109,0.061,0.000,-0.244,-138.252,18.869,-15.062
10082,-0.3218,-0.6289,-0.7070,0.427,0.000,-0.183,-138.252,18.869,-15.062
10092,-0.3213,-0.6289,-0.7080,0.732,-0.061,-0.244,-138.241,18.864,-15.057
10102,-0.3232,-0.6299,-0.7041,0.671,-0.183,-0.305,-138.235,18.864,-15.057
10112,-0.3252,-0.6313,-0.7031,0.244,-0.305,-0.305,-138.230,18.864,-15.051
10122,-0.3252,-0.6294,-0.7021,-0.244,-0.305,-0.244,-138.230,18.869,-15.046
10132,-0.3237,-0.6299,-0.7017,-0.610,-0.183,-0.183,-138.235,18.869,-15.040
10142,-0.3223,-0.6299,-0.7036,-0.610,0.000,-0.183,-138.241,18.869,-15.040
10152,-0.3213,-0.6304,-0.7056,-0.427,0.000,-0.244,-138.241,18.864,-15.040
10163,-0.3193,-0.6313,-0.7070,-0.061,-0.183,-0.183,-138.241,18.864,-15.035
10172,-0.3179,-0.6304,-0.7075,0.183,-0.488,0.061,-138.241,18.864,-15.035
10182,-0.3228,-0.6255,-0.7090,0.366,-0.854,0.183,-138.235,18.869,-15.029
10192,-0.3252,-0.6265,-0.7065,0.671,-0.977,0.183,-138.230,18.880,-15.024
10202,-0.3242,-0.6240,-0.7031,0.916,-1.038,0.000,-138.219,18.891,-15.018
10213,-0.3262,-0.6255,-0.6992,0.977,-0.916,-0.244,-138.208,18.896,-15.007
10223,-0.3257,-0.6274,-0.6992,0.732,-0.671,-0.305,-138.197,18.902,-15.002
10233,-0.3228,-0.6304,-0.6963,0.183,-0.366,-0.488,-138.192,18.902,-14.996
10242,-0.3218,-0.6318,-0.6958,-0.488,0.000,-0.549,-138.192,18.896,-14.996
10252,-0.3208,-0.6309,-0.6992,-0.977,0.244,-0.549,-138.197,18.891,-14.996
10262,-0.3218,-0.6318,-0.7061,-1.099,0.427,-0.427,-138.208,18.885,-14.996
10272,-0.3228,-0.6318,-0.7065,-0.793,0.488,-0.244,-138.214,18.880,-14.996
10282,-0.3228,-0.6304,-0.7051,-0.305,0.366,-0.183,-138.219,18.875,-14.996
10292,-0.3232,-0.6328,-0.7065,0.000,0.305,-0.061,-138.219,18.875,-14.996
10302,-0.3213,-0.6328,-0.7065,0.122,0.183,-0.061,-138.214,18.869,-14.996
10312,-0.3223,-0.6328,-0.7051,-0.061,0.000,0.000,-138.214,18.869,-14.996
10322,-0.3218,-0.6309,-0.7085,-0.305,-0.061,0.061,-138.219,18.869,-14.996
10332,-0.3237,-0.6294,-0.7090,-0.366,-0.183,0.061,-138.224,18.869,-14.996
10342,-0.3218,-0.6260,-0.7100,-0.183,-0.305,0.061,-138.230,18.869,-14.996
10352,-0.3218,-0.6294,-0.7061,0.244,-0.427,-0.122,-138.224,18.875,-14.996
10362,-0.3228,-0.6294,-0.7075,0.488,-0.488,-0.305,-138.219,18.875,-14.996
10372,-0.3203,-0.6313,-0.7041,0.427,-0.549,-0.305,-138.214,18.875,-14.996
10382,-0.3228,-0.6328,-0.6992,0.366,-0.610,-0.244,-138.203,18.875,-14.996
10392,-0.3237,-0.6318,-0.6997,0.122,-0.549,-0.183,-138.197,18.880,-14.996
10402,-0.3237,-0.6299,-0.7017,-0.061,-0.366,-0.061,-138.197,18.885,-14.996
10412,-0.3252,-0.6274,-0.7007,-0.122,-0.122,-0.061,-138.197,18.885,-14.996
10422,-0.3228,-0.6284,-0.7012,-0.244,0.061,-0.122,-138.197,18.885,-14.996
10432,-0.3218,-0.6284,-0.7002,-0.305,0.244,-0.244,-138.203,18.880,-14.996
10442,-0.3223,-0.6294,-0.7007,-0.366,0.305,-0.244,-138.203,18.880,-14.996
10452,-0.3237,-0.6304,-0.7041,-0.427,0.183,-0.244,-138.208,18.875,-14.996
10462,-0.3247,-0.6318,-0.7051,-0.427,0.000,-0.244,-138.208,18.875,-14.996
10472,-0.3218,-0.6299,-0.7041,-0.366,-0.122,-0.183,-138.214,18.875,-14.996
10482,-0.3218,-0.6333,-0.7036,-0.122,-0.305,-0.122,-138.208,18.875,-14.996
10492,-0.3223,-0.6338,-0.7036,0.122,-0.305,-0.122,-138.208,18.875,-14.996
10502,-0.3213,-0.6367,-0.7012,0.244,-0.244,-0.061,-138.197,18.875,-14.996
10512,-0.3228,-0.6338,-0.7007,0.183,-0.244,0.061,-138.192,18.875,-14.996
10522,-0.3223,-0.6323,-0.7051,0.183,-0.183,0.244,-138.192,18.880,-14.996
10532,-0.3242,-0.6313,-0.7031,0.183,-0.061,0.244,-138.186,18.880,-14.996
10543,-0.3223,-0.6299,-0.7021,0.244,0.000,0.183,-138.186,18.880,-14.996
10552,-0.3218,-0.6318,-0.7051,0.183,0.183,0.183,-138.186,18.880,-14.996
10562,-0.3228,-0.6284,-0.7051,0.061,0.183,0.183,-138.186,18.880,-14.996
10572,-0.3213,-0.6279,-0.7041,0.000,0.244,0.183,-138.186,18.880,-14.996
10582,-0.3232,-0.6294,-0.7051,-0.122,0.183,0.244,-138.192,18.880,-14.996
10592,-0.3228,-0.6270,-0.7061,-0.244,0.122,0.183,-138.197,18.880,-14.996
10602,-0.3252,-0.6274,-0.7085,-0.244,0.122,0.122,-138.203,18.880,-14.996
10612,-0.3247,-0.6260,-0.7075,-0.244,0.061,0.000,-138.208,18.880,-14.996
10622,-0.3232,-0.6250,-0.7061,0.000,-0.061,-0.061,-138.208,18.880,-14.996
10632,-0.3228,-0.6265,-0.7085,0.183,-0.183,-0.122,-138.208,18.880,-14.996
10642,-0.3208,-0.6270,-0.7031,0.244,-0.366,-0.122,-138.208,18.885,-14.996
10652,-0.3218,-0.6299,-0.7031,0.183,-0.671,-0.244,-138.203,18.885,-14.996
10662,-0.3237,-0.6274,-0.7036,-0.122,-0.732,-0.244,-138.203,18.891,-14.996
10672,-0.3223,-0.6304,-0.7056,-0.488,-0.671,-0.305,-138.203,18.891,-14.996
10682,-0.3179,-0.6313,-0.7036,-0.854,-0.427,-0.427,-138.208,18.891,-14.996
10692,-0.3179,-0.6313,-0.7051,-0.916,-0.244,-0.427,-138.219,18.885,-14.996
10702,-0.3179,-0.6333,-0.7070,-0.793,0.000,-0.366,-138.224,18.880,-14.996
10712,-0.3174,-0.6343,-0.7075,-0.610,0.000,-0.183,-138.224,18.875,-14.996
10722,-0.3184,-0.6328,-0.7065,-0.244,-0.183,-0.061,-138.230,18.875,-14.996
10732,-0.3188,-0.6318,-0.7061,0.183,-0.366,0.061,-138.224,18.875,-14.996
10742,-0.3203,-0.6299,-0.7041,0.488,-0.305,0.183,-138.219,18.875,-14.996
10752,-0.3237,-0.6289,-0.7065,0.610,-0.244,0.244,-138.214,18.880,-14.996
10762,-0.3237,-0.6294,-0.7031,0.671,-0.244,0.183,-138.208,18.880,-14.996
10772,-0.3242,-0.6294,-0.7021,0.549,-0.244,0.000,-138.203,18.885,-14.996
10782,-0.3257,-0.6289,-0.7002,0.244,-0.366,-0.061,-138.197,18.891,-14.996
10792,-0.3267,-0.6279,-0.7036,0.000,-0.549,0.061,-138.197,18.896,-14.996
10802,-0.3262,-0.6284,-0.7051,-0.122,-0.671,0.122,-138.197,18.902,-14.996
10813,-0.3252,-0.6274,-0.7026,-0.061,-0.671,0.061,-138.197,18.907,-14.996
10822,-0.3252,-0.6299,-0.7046,0.000,-0.366,-0.061,-138.197,18.913,-14.996
10832,-0.3242,-0.6299,-0.7051,0.061,-0.244,-0.122,-138.192,18.913,-14.996
10843,-0.3257,-0.6299,-0.7056,0.061,-0.183,-0.061,-138.192,18.918,-14.996
10853,-0.3228,-0.6279,-0.7051,0.183,-0.305,-0.061,-138.192,18.918,-14.996
10863,-0.3213,-0.6284,-0.7036,0.244,-0.610,-0.183,-138.186,18.918,-14.996
10873,-0.3218,-0.6304,-0.7012,0.305,-0.916,-0.183,-138.181,18.924,-14.996
10882,-0.3218,-0.6304,-0.7031,0.305,-0.977,-0.244,-138.175,18.929,-14.996
10893,-0.3208,-0.6289,-0.6978,0.244,-0.793,-0.366,-138.170,18.929,-14.996
10903,-0.3198,-0.6289,-0.6997,0.244,-0.366,-0.366,-138.164,18.929,-14.996
10913,-0.3203,-0.6294,-0.6973,0.183,-0.061,-0.366,-138.159,18.929,-14.996
10923,-0.3203,-0.6304,-0.6997,0.061,0.244,-0.366,-138.153,18.924,-14.996
10933,-0.3218,-0.6279,-0.7051,-0.122,0.427,-0.488,-138.159,18.913,-14.996
10943,-0.3203,-0.6289,-0.7075,-0.366,0.671,-0.549,-138.164,18.902,-14.996
10953,-0.3223,-0.6284,-0.7100,-0.549,0.671,-0.549,-138.170,18.891,-14.996
10963,-0.3203,-0.6274,-0.7124,-0.549,0.427,-0.549,-138.181,18.885,-14.996
10973,-0.3223,-0.6255,-0.7153,-0.305,0.122,-0.549,-138.186,18.880,-14.996
10982,-0.3208,-0.6279,-0.7119,0.122,-0.427,-0.610,-138.192,18.875,-14.996
10993,-0.3237,-0.6299,-0.7080,0.549,-0.854,-0.732,-138.181,18.875,-14.996
11003,-0.3193,-0.6309,-0.7031,0.977,-1.526,-0.854,-138.164,18.880,-14.996
11013,-0.3252,-0.6294,-0.7026,0.732,-1.770,-0.488,-138.153,18.891,-14.996
11023,-0.3281,-0.6289,-0.7017,0.610,-1.465,-0.366,-138.142,18.902,-14.996
11033,-0.3291,-0.6284,-0.7002,0.244,-0.671,-0.366,-138.137,18.907,-14.996
11043,-0.3271,-0.6279,-0.7007,0.061,-0.183,-0.610,-138.137,18.907,-14.996
11053,-0.3252,-0.6270,-0.7002,-0.061,0.366,-0.549,-138.137,18.907,-14.996
11063,-0.3228,-0.6274,-0.7021,-0.488,0.244,-0.610,-138.137,18.902,-14.996
11073,-0.3257,-0.6279,-0.7017,-0.793,0.122,-0.610,-138.148,18.896,-14.996
11083,-0.3267,-0.6299,-0.6992,-0.977,0.122,-0.671,-138.153,18.891,-14.996
11093,-0.3271,-0.6318,-0.7002,-0.916,0.183,-0.732,-138.159,18.891,-14.996
11103,-0.3247,-0.6333,-0.7007,-0.732,0.183,-0.732,-138.159,18.885,-14.996
11113,-0.3223,-0.6372,-0.6992,-0.549,0.061,-0.732,-138.159,18.880,-14.996
11123,-0.3228,-0.6387,-0.6997,-0.610,0.061,-0.671,-138.159,18.875,-14.996
11133,-0.3213,-0.6367,-0.7007,-0.732,0.061,-0.549,-138.159,18.869,-14.996
11143,-0.3237,-0.6362,-0.7026,-0.732,0.061,-0.427,-138.164,18.864,-14.996
11153,-0.3218,-0.6367,-0.7012,-0.549,0.122,-0.366,-138.164,18.858,-14.996
11163,-0.3232,-0.6357,-0.7036,-0.366,0.183,-0.244,-138.164,18.858,-14.996
11173,-0.3223,-0.6372,-0.7017,-0.183,0.122,0.061,-138.164,18.853,-14.996
11183,-0.3232,-0.6362,-0.7017,0.000,0.122,0.183,-138.159,18.858,-14.996
11193,-0.3213,-0.6338,-0.7026,0.122,0.122,0.244,-138.159,18.853,-14.996
11203,-0.3223,-0.6357,-0.7031,0.244,0.244,0.366,-138.153,18.853,-14.996
11213,-0.3208,-0.6343,-0.7036,0.305,0.366,0.488,-138.153,18.853,-14.996
11223,-0.3218,-0.6323,-0.7007,0.305,0.366,0.610,-138.148,18.853,-14.996
11233,-0.3218,-0.6309,-0.7026,0.305,0.427,0.610,-138.148,18.858,-14.996
11243,-0.3218,-0.6309,-0.7007,0.183,0.488,0.488,-138.148,18.853,-14.996
11253,-0.3232,-0.6309,-0.7041,0.000,0.488,0.488,-138.148,18.853,-14.996
11263,-0.3237,-0.6289,-0.7061,-0.122,0.549,0.488,-138.153,18.853,-14.996
11273,-0.3228,-0.6294,-0.7075,-0.061,0.549,0.488,-138.159,18.853,-14.996
11283,-0.3228,-0.6299,-0.7065,0.000,0.427,0.366,-138.164,18.853,-14.996
11293,-0.3208,-0.6309,-0.7075,0.183,0.305,0.305,-138.164,18.853,-14.996
11303,-0.3218,-0.6313,-0.7046,0.366,0.305,0.305,-138.159,18.853,-14.996
11313,-0.3218,-0.6304,-0.7036,0.366,0.183,0.366,-138.159,18.853,-14.996
11323,-0.3223,-0.6294,-0.7017,0.305,0.061,0.366,-138.153,18.853,-14.996
11333,-0.3208,-0.6313,-0.7007,0.183,0.122,0.305,-138.153,18.853,-14.996
11343,-0.3203,-0.6299,-0.7031,-0.061,0.244,0.244,-138.153,18.853,-14.996
11353,-0.3193,-0.6294,-0.7017,-0.305,0.427,0.183,-138.159,18.847,-14.996
11363,-0.3208,-0.6279,-0.7026,-0.488,0.549,0.244,-138.164,18.847,-14.996
11373,-0.3218,-0.6284,-0.7056,-0.427,0.671,0.244,-138.175,18.842,-14.996
11383,-0.3213,-0.6289,-0.7080,-0.366,0.793,0.305,-138.181,18.836,-14.996
11393,-0.3218,-0.6279,-0.7065,-0.366,0.732,0.244,-138.192,18.831,-14.996
11403,-0.3218,-0.6270,-0.7056,-0.305,0.610,0.244,-138.197,18.831,-14.996
11413,-0.3208,-0.6265,-0.7075,-0.244,0.427,0.061,-138.203,18.825,-14.996
11423,-0.3213,-0.6274,-0.7080,-0.122,0.244,-0.061,-138.208,18.825,-14.996
11433,-0.3208,-0.6289,-0.7080,-0.061,0.122,-0.061,-138.208,18.820,-14.996
11443,-0.3237,-0.6304,-0.7041,0.122,-0.061,-0.061,-138.208,18.820,-14.996
11453,-0.3228,-0.6328,-0.7046,0.183,-0.061,-0.061,-138.203,18.820,-14.996
11463,-0.3218,-0.6348,-0.7051,0.122,0.122,-0.061,-138.203,18.820,-14.996
11473,-0.3203,-0.6323,-0.7056,-0.061,0.244,0.000,-138.203,18.820,-14.996
11483,-0.3188,-0.6323,-0.7070,-0.183,0.244,0.122,-138.203,18.814,-14.996
11493,-0.3203,-0.6309,-0.7075,-0.061,0.183,0.305,-138.208,18.814,-14.996
11503,-0.3213,-0.6294,-0.7051,0.244,0.000,0.305,-138.203,18.814,-14.996
11513,-0.3242,-0.6284,-0.7026,0.610,-0.122,0.244,-138.197,18.820,-14.996
11523,-0.3252,-0.6294,-0.7002,0.793,-0.061,0.122,-138.192,18.825,-14.996
11533,-0.3237,-0.6299,-0.6978,0.671,0.122,0.122,-138.181,18.825,-14.996
11543,-0.3247,-0.6309,-0.6973,0.183,0.305,0.000,-138.175,18.825,-14.996
11553,-0.3237,-0.6323,-0.6997,-0.305,0.427,0.000,-138.175,18.820,-14.996
11563,-0.3213,-0.6323,-0.7046,-0.732,0.488,0.061,-138.186,18.820,-14.996
11573,-0.3218,-0.6313,-0.7070,-0.671,0.427,0.183,-138.192,18.814,-14.996
11583,-0.3203,-0.6318,-0.7051,-0.366,0.305,0.244,-138.197,18.814,-14.996
11593,-0.3232,-0.6313,-0.7056,0.122,0.122,0.244,-138.197,18.814,-14.996
11603,-0.3223,-0.6313,-0.7041,0.549,0.122,0.244,-138.192,18.814,-14.996
11613,-0.3223,-0.6333,-0.7021,0.671,0.183,0.244,-138.186,18.814,-14.996
11623,-0.3193,-0.6313,-0.7007,0.671,0.244,0.427,-138.175,18.814,-14.996
11633,-0.3188,-0.6313,-0.7021,0.427,0.183,0.427,-138.175,18.814,-14.996
11643,-0.3198,-0.6294,-0.7017,0.122,0.061,0.366,-138.170,18.820,-14.996
11653,-0.3213,-0.6299,-0.7017,-0.122,0.061,0.244,-138.175,18.820,-14.996
11663,-0.3193,-0.6294,-0.7021,-0.122,0.061,0.183,-138.175,18.820,-14.996
11673,-0.3228,-0.6304,-0.7026,0.061,0.122,0.122,-138.175,18.820,-14.996
11683,-0.3232,-0.6318,-0.7036,0.183,0.244,0.061,-138.170,18.820,-14.996
11693,-0.3262,-0.6313,-0.7012,0.183,0.427,0.000,-138.170,18.820,-14.996
11703,-0.3237,-0.6309,-0.7012,0.183,0.671,0.122,-138.170,18.814,-14.996
11713,-0.3242,-0.6304,-0.7026,0.244,0.732,0.122,-138.164,18.809,-14.996
11723,-0.3257,-0.6279,-0.7026,0.122,0.732,0.183,-138.170,18.809,-14.996
11733,-0.3267,-0.6309,-0.7051,-0.061,0.671,0.244,-138.170,18.809,-14.996
11743,-0.3252,-0.6313,-0.7075,-0.183,0.549,0.183,-138.175,18.809,-14.996
11753,-0.3247,-0.6309,-0.7075,-0.427,0.610,0.122,-138.181,18.803,-14.996
11763,-0.3228,-0.6309,-0.7070,-0.549,0.610,0.061,-138.192,18.798,-14.996
11773,-0.3218,-0.6333,-0.7056,-0.427,0.549,-0.061,-138.192,18.798,-14.996
11783,-0.3208,-0.6313,-0.7080,-0.183,0.305,-0.061,-138.197,18.792,-14.996
11793,-0.3208,-0.6338,-0.7036,0.061,-0.061,-0.061,-138.192,18.792,-14.996
11803,-0.3218,-0.6323,-0.7065,0.366,-0.366,0.183,-138.192,18.792,-14.996
11813,-0.3223,-0.6343,-0.7017,0.671,-0.427,0.366,-138.181,18.798,-14.996
11823,-0.3228,-0.6357,-0.7012,0.732,-0.305,0.427,-138.170,18.803,-14.996
11833,-0.3223,-0.6348,-0.6963,0.549,0.122,0.488,-138.159,18.809,-14.996
11843,-0.3223,-0.6328,-0.6987,0.305,0.488,0.610,-138.159,18.809,-14.996
11853,-0.3218,-0.6309,-0.7002,0.122,0.793,0.671,-138.159,18.809,-14.996
11863,-0.3213,-0.6299,-0.7031,0.061,0.977,0.610,-138.159,18.803,-14.996
11873,-0.3218,-0.6274,-0.7065,0.000,0.977,0.549,-138.164,18.803,-14.996
11883,-0.3218,-0.6279,-0.7085,-0.122,0.854,0.549,-138.175,18.798,-14.996
11893,-0.3208,-0.6279,-0.7124,-0.244,0.793,0.488,-138.181,18.792,-14.996
11903,-0.3188,-0.6260,-0.7168,-0.366,0.549,0.427,-138.197,18.792,-14.996
11913,-0.3193,-0.6196,-0.7163,-0.183,0.122,0.244,-138.208,18.792,-14.996
11923,-0.3213,-0.6187,-0.7158,0.488,-0.366,0.061,-138.214,18.792,-14.996
11933,-0.3223,-0.6196,-0.7148,1.526,-0.977,-0.366,-138.203,18.798,-14.996
11943,-0.3228,-0.6235,-0.7080,2.441,-1.526,-0.793,-138.175,18.803,-14.996
11953,-0.3242,-0.6284,-0.7002,2.747,-1.831,-1.038,-138.142,18.814,-14.974
11963,-0.3252,-0.6309,-0.6914,2.319,-1.892,-1.099,-138.109,18.825,-14.952
11973,-0.3257,-0.6348,-0.6895,1.465,-1.587,-1.038,-138.076,18.831,-14.930
11983,-0.3232,-0.6396,-0.6890,0.427,-0.854,-0.977,-138.060,18.831,-14.919
11993,-0.3247,-0.6421,-0.6914,-0.732,0.183,-0.732,-138.054,18.831,-14.914
12003,-0.3228,-0.6411,-0.6953,-1.526,1.282,-0.305,-138.065,18.820,-14.919
12013,-0.3198,-0.6406,-0.7041,-2.075,2.197,0.061,-138.087,18.798,-14.936
12023,-0.3179,-0.6353,-0.7090,-2.075,2.625,0.244,-138.115,18.776,-14.958
12033,-0.3184,-0.6318,-0.7139,-1.587,2.563,0.366,-138.142,18.759,-14.980
12044,-0.3164,-0.6279,-0.7134,-0.732,2.075,0.366,-138.159,18.743,-14.996
12053,-0.3179,-0.6289,-0.7124,0.183,0.671,0.183,-138.164,18.737,-15.002
12063,-0.3213,-0.6323,-0.7041,1.038,-0.610,-0.061,-138.153,18.743,-14.996
12073,-0.3242,-0.6357,-0.6948,1.282,-1.526,-0.305,-138.131,18.754,-14.985
12083,-0.3252,-0.6382,-0.6899,0.854,-1.709,-0.244,-138.109,18.765,-14.969
12093,-0.3257,-0.6357,-0.6855,-0.061,-1.099,0.122,-138.098,18.781,-14.963
12103,-0.3276,-0.6353,-0.6846,-0.977,0.366,0.549,-138.098,18.787,-14.969
12113,-0.3247,-0.6353,-0.6895,-1.770,2.075,0.916,-138.115,18.781,-14.991
12123,-0.3218,-0.6318,-0.6958,-2.319,3.540,0.977,-138.142,18.765,-15.024
12133,-0.3169,-0.6309,-0.7036,-2.625,4.272,1.038,-138.181,18.737,-15.062
12143,-0.3164,-0.6279,-0.7134,-2.869,3.967,1.099,-138.224,18.710,-15.101
12153,-0.3159,-0.6216,-0.7178,-2.747,2.930,1.038,-138.274,18.693,-15.128
12163,-0.3179,-0.6162,-0.7197,-1.953,1.465,0.793,-138.307,18.682,-15.145
12173,-0.3213,-0.6157,-0.7168,-0.732,0.305,0.122,-138.329,18.682,-15.150
12183,-0.3208,-0.6211,-0.7095,0.427,-0.427,-0.610,-138.323,18.682,-15.139
12193,-0.3198,-0.6265,-0.7046,1.038,-0.793,-1.099,-138.312,18.682,-15.128
12203,-0.3203,-0.6333,-0.6992,1.038,-0.610,-1.404,-138.290,18.682,-15.112
12213,-0.3198,-0.6406,-0.6978,0.488,-0.244,-1.343,-138.274,18.671,-15.101
12223,-0.3203,-0.6426,-0.6968,-0.305,0.122,-1.038,-138.263,18.666,-15.090
12233,-0.3188,-0.6431,-0.7036,-0.977,0.549,-0.671,-138.268,18.655,-15.090
12243,-0.3159,-0.6387,-0.7085,-1.282,0.977,-0.244,-138.279,18.644,-15.095
12253,-0.3159,-0.6367,-0.7109,-0.977,0.916,0.244,-138.290,18.633,-15.101
12263,-0.3184,-0.6333,-0.7085,-0.122,0.610,0.610,-138.290,18.633,-15.112
12273,-0.3208,-0.6313,-0.7090,0.671,0.183,0.671,-138.290,18.638,-15.117
12283,-0.3208,-0.6309,-0.7080,1.282,0.000,0.549,-138.274,18.638,-15.123
12293,-0.3213,-0.6274,-0.7046,1.404,-0.061,0.366,-138.263,18.644,-15.123
12303,-0.3198,-0.6279,-0.7065,1.221,-0.244,0.244,-138.252,18.649,-15.123
12313,-0.3188,-0.6274,-0.7046,0.916,-0.488,0.061,-138.241,18.655,-15.123
12323,-0.3193,-0.6284,-0.7075,0.610,-0.610,-0.061,-138.235,18.655,-15.117
12333,-0.3174,-0.6304,-0.7065,0.366,-0.671,-0.061,-138.230,18.660,-15.112
12343,-0.3164,-0.6289,-0.7114,0.244,-0.488,0.000,-138.230,18.660,-15.112
12353,-0.3159,-0.6289,-0.7109,0.305,-0.244,0.000,-138.230,18.660,-15.106
12363,-0.3179,-0.6274,-0.7100,0.488,-0.122,-0.122,-138.230,18.660,-15.106
12373,-0.3179,-0.6245,-0.7095,0.732,-0.183,-0.183,-138.224,18.660,-15.101
12383,-0.3193,-0.6245,-0.7075,1.038,-0.488,-0.244,-138.214,18.660,-15.095
12393,-0.3198,-0.6260,-0.7046,1.038,-0.793,-0.366,-138.203,18.666,-15.090
12403,-0.3208,-0.6274,-0.7046,0.916,-1.160,-0.488,-138.192,18.671,-15.079
12413,-0.3188,-0.6255,-0.7012,0.671,-1.343,-0.610,-138.181,18.677,-15.062
12423,-0.3198,-0.6274,-0.7007,0.549,-1.282,-0.732,-138.170,18.682,-15.046
12433,-0.3174,-0.6289,-0.6968,0.305,-1.160,-0.916,-138.164,18.688,-15.035
12443,-0.3184,-0.6309,-0.6982,0.183,-0.854,-1.099,-138.153,18.688,-15.018
12453,-0.3193,-0.6362,-0.6934,0.000,-0.427,-1.160,-138.142,18.682,-15.007
12463,-0.3203,-0.6396,-0.6934,-0.366,-0.061,-1.099,-138.137,18.677,-14.996
12473,-0.3203,-0.6416,-0.6934,-0.793,0.305,-0.732,-138.131,18.671,-14.991
12483,-0.3198,-0.6431,-0.6943,-1.038,0.732,-0.366,-138.131,18.660,-14.996
12493,-0.3203,-0.6406,-0.7002,-1.038,1.038,-0.061,-138.142,18.655,-15.002
12503,-0.3188,-0.6396,-0.7036,-0.732,1.282,0.183,-138.148,18.644,-15.013
12513,-0.3188,-0.6367,-0.7051,-0.305,1.221,0.183,-138.148,18.638,-15.024
12523,-0.3179,-0.6367,-0.7080,0.061,0.977,0.122,-138.153,18.627,-15.029
12533,-0.3198,-0.6372,-0.7046,0.183,0.488,0.061,-138.148,18.622,-15.035
12543,-0.3203,-0.6392,-0.7031,0.244,0.000,0.061,-138.142,18.627,-15.035
12553,-0.3223,-0.6387,-0.7036,0.244,-0.183,0.000,-138.137,18.627,-15.035
12563,-0.3228,-0.6387,-0.7021,0.305,-0.183,0.122,-138.126,18.633,-15.035
12573,-0.3228,-0.6387,-0.7012,0.427,0.061,0.244,-138.120,18.633,-15.035
12583,-0.3228,-0.6387,-0.7002,0.549,0.305,0.488,-138.109,18.638,-15.040
12593,-0.3223,-0.6406,-0.7012,0.610,0.671,0.671,-138.104,18.638,-15.051
12603,-0.3184,-0.6396,-0.7036,0.305,1.038,0.732,-138.098,18.633,-15.062
12613,-0.3188,-0.6362,-0.7075,-0.305,1.221,0.793,-138.109,18.627,-15.079
12623,-0.3184,-0.6333,-0.7085,-0.671,1.221,0.916,-138.120,18.622,-15.095
12633,-0.3174,-0.6289,-0.7100,-0.732,0.916,0.916,-138.137,18.622,-15.112
12643,-0.3164,-0.6294,-0.7134,-0.610,0.610,0.793,-138.148,18.622,-15.117
12653,-0.3159,-0.6284,-0.7153,-0.366,0.244,0.732,-138.159,18.622,-15.128
12663,-0.3145,-0.6274,-0.7119,0.000,-0.061,0.671,-138.164,18.622,-15.134
12673,-0.3149,-0.6299,-0.7124,0.366,-0.366,0.671,-138.164,18.627,-15.134
12683,-0.3120,-0.6289,-0.7095,0.671,-0.549,0.610,-138.164,18.633,-15.134
12693,-0.3159,-0.6274,-0.7061,0.793,-0.854,0.549,-138.159,18.638,-15.134
12703,-0.3154,-0.6260,-0.7031,0.854,-0.977,0.427,-138.148,18.649,-15.128
12713,-0.3169,-0.6250,-0.7002,0.610,-0.793,0.366,-138.142,18.655,-15.128
12723,-0.3164,-0.6270,-0.7021,0.305,-0.366,0.244,-138.142,18.660,-15.128
12733,-0.3145,-0.6270,-0.7007,-0.183,0.000,0.244,-138.142,18.660,-15.128
12743,-0.3149,-0.6255,-0.7041,-0.671,0.305,0.244,-138.153,18.660,-15.134
12753,-0.3135,-0.6240,-0.7031,-0.793,0.366,0.122,-138.164,18.655,-15.134
12763,-0.3149,-0.6250,-0.7021,-0.549,0.305,0.000,-138.170,18.649,-15.139
12773,-0.3159,-0.6235,-0.7017,-0.122,0.183,-0.183,-138.175,18.649,-15.139
12783,-0.3169,-0.6279,-0.7012,0.183,0.183,-0.244,-138.175,18.644,-15.139
12793,-0.3159,-0.6313,-0.7041,0.183,0.305,-0.427,-138.170,18.638,-15.139
12803,-0.3145,-0.6348,-0.7041,-0.183,0.427,-0.427,-138.170,18.627,-15.134
12813,-0.3145,-0.6323,-0.7095,-0.671,0.427,-0.427,-138.175,18.622,-15.134
12823,-0.3154,-0.6289,-0.7095,-0.916,0.366,-0.305,-138.192,18.611,-15.134
12833,-0.3193,-0.6279,-0.7109,-0.610,0.183,-0.366,-138.197,18.611,-15.134
12843,-0.3208,-0.6284,-0.7090,0.000,-0.183,-0.610,-138.197,18.605,-15.128
12853,-0.3213,-0.6318,-0.7075,0.549,-0.488,-0.854,-138.192,18.605,-15.117
12863,-0.3198,-0.6367,-0.7017,0.610,-0.732,-0.977,-138.175,18.605,-15.106
12873,-0.3188,-0.6396,-0.6982,0.244,-0.854,-0.977,-138.164,18.605,-15.090
12883,-0.3184,-0.6392,-0.6982,-0.427,-0.732,-0.854,-138.159,18.605,-15.079
12893,-0.3208,-0.6401,-0.7017,-0.854,-0.427,-0.732,-138.159,18.605,-15.073
12903,-0.3208,-0.6406,-0.7036,-0.854,-0.183,-0.427,-138.159,18.605,-15.068
12913,-0.3198,-0.6421,-0.7051,-0.488,0.122,-0.183,-138.159,18.600,-15.068
12923,-0.3184,-0.6426,-0.7056,0.000,0.305,0.061,-138.153,18.594,-15.068
12933,-0.3184,-0.6411,-0.7070,0.305,0.244,0.305,-138.148,18.594,-15.073
12943,-0.3169,-0.6382,-0.7070,0.305,0.122,0.488,-138.148,18.594,-15.079
12953,-0.3179,-0.6353,-0.7085,0.061,-0.183,0.610,-138.148,18.600,-15.079
12963,-0.3188,-0.6318,-0.7070,0.000,-0.549,0.671,-138.148,18.611,-15.084
12973,-0.3188,-0.6304,-0.7065,0.122,-0.854,0.610,-138.148,18.616,-15.079
12983,-0.3188,-0.6299,-0.7051,0.366,-0.977,0.488,-138.142,18.627,-15.079
12993,-0.3188,-0.6323,-0.7007,0.488,-0.977,0.427,-138.137,18.638,-15.073
13003,-0.3193,-0.6328,-0.6992,0.427,-0.854,0.427,-138.126,18.649,-15.073
13013,-0.3179,-0.6343,-0.6982,0.305,-0.671,0.549,-138.120,18.660,-15.073
13023,-0.3188,-0.6328,-0.6973,0.061,-0.488,0.610,-138.115,18.666,-15.073
13033,-0.3188,-0.6313,-0.6973,-0.122,-0.122,0.488,-138.115,18.671,-15.073
13043,-0.3179,-0.6299,-0.6978,-0.427,0.244,0.488,-138.120,18.671,-15.079
13053,-0.3184,-0.6299,-0.6958,-0.671,0.671,0.549,-138.126,18.671,-15.090
13063,-0.3218,-0.6309,-0.6992,-0.977,0.977,0.549,-138.137,18.671,-15.101
13073,-0.3198,-0.6299,-0.7021,-1.160,1.160,0.427,-138.153,18.666,-15.112
13083,-0.3198,-0.6309,-0.7041,-1.282,1.343,0.366,-138.170,18.660,-15.123
13093,-0.3188,-0.6318,-0.7090,-1.404,1.343,0.427,-138.192,18.649,-15.139
13103,-0.3169,-0.6294,-0.7109,-1.160,1.221,0.427,-138.208,18.644,-15.150
13113,-0.3169,-0.6304,-0.7114,-0.916,0.854,0.366,-138.219,18.638,-15.161
13123,-0.3174,-0.6289,-0.7114,-0.671,0.427,0.244,-138.230,18.633,-15.167
13133,-0.3164,-0.6309,-0.7090,-0.427,0.061,0.183,-138.241,18.633,-15.167
13143,-0.3184,-0.6299,-0.7080,-0.061,-0.366,0.183,-138.241,18.633,-15.167
13153,-0.3184,-0.6294,-0.7051,0.305,-0.671,0.122,-138.235,18.638,-15.161
13163,-0.3184,-0.6294,-0.7075,0.549,-0.854,0.122,-138.230,18.649,-15.156
13173,-0.3179,-0.6309,-0.7031,0.549,-0.916,0.122,-138.219,18.655,-15.150
13183,-0.3164,-0.6304,-0.6973,0.366,-0.854,0.000,-138.214,18.660,-15.145
13193,-0.3179,-0.6328,-0.6997,0.122,-0.671,-0.061,-138.208,18.666,-15.139
13203,-0.3169,-0.6328,-0.7026,-0.183,-0.305,-0.122,-138.203,18.666,-15.134
13213,-0.3164,-0.6348,-0.7002,-0.488,0.061,-0.122,-138.203,18.660,-15.134
13223,-0.3174,-0.6343,-0.7031,-0.671,0.427,-0.061,-138.208,18.655,-15.139
13233,-0.3174,-0.6333,-0.7041,-0.732,0.671,0.061,-138.219,18.649,-15.145
13243,-0.3164,-0.6333,-0.7070,-0.671,0.793,0.183,-138.224,18.644,-15.150
13253,-0.3164,-0.6318,-0.7090,-0.488,0.732,0.305,-138.235,18.638,-15.156
13263,-0.3174,-0.6289,-0.7070,-0.122,0.610,0.366,-138.235,18.633,-15.167
13273,-0.3174,-0.6284,-0.7070,0.183,0.305,0.366,-138.241,18.633,-15.172
13283,-0.3193,-0.6299,-0.7085,0.427,0.061,0.183,-138.235,18.633,-15.172
13293,-0.3208,-0.6279,-0.7046,0.427,-0.183,0.061,-138.230,18.638,-15.172
13303,-0.3218,-0.6294,-0.7061,0.305,-0.183,-0.061,-138.230,18.638,-15.167
13313,-0.3198,-0.6313,-0.7051,0.122,-0.244,-0.183,-138.224,18.644,-15.167
13323,-0.3179,-0.6338,-0.7041,-0.122,-0.244,-0.244,-138.224,18.638,-15.161
13333,-0.3174,-0.6357,-0.7056,-0.305,-0.244,-0.305,-138.224,18.638,-15.156
13343,-0.3154,-0.6367,-0.7075,-0.305,-0.366,-0.183,-138.224,18.638,-15.156
13353,-0.3154,-0.6392,-0.7051,-0.122,-0.427,-0.061,-138.219,18.638,-15.150
13363,-0.3135,-0.6396,-0.7061,0.183,-0.305,0.122,-138.214,18.638,-15.150
13373,-0.3154,-0.6382,-0.7041,0.427,-0.244,0.244,-138.203,18.638,-15.150
13383,-0.3164,-0.6372,-0.7036,0.549,-0.122,0.427,-138.197,18.638,-15.150
13393,-0.3184,-0.6367,-0.7041,0.488,0.000,0.671,-138.192,18.644,-15.156
13403,-0.3179,-0.6348,-0.7051,0.366,0.122,0.793,-138.186,18.644,-15.167
13413,-0.3193,-0.6328,-0.7036,0.305,0.244,0.793,-138.186,18.649,-15.172
13423,-0.3228,-0.6299,-0.7041,0.244,0.244,0.793,-138.186,18.655,-15.183
13433,-0.3228,-0.6274,-0.7041,0.305,0.122,0.671,-138.186,18.660,-15.189
13443,-0.3198,-0.6299,-0.7026,0.427,-0.183,0.610,-138.181,18.666,-15.189
13453,-0.3223,-0.6333,-0.7007,0.488,-0.366,0.488,-138.175,18.671,-15.194
13463,-0.3218,-0.6333,-0.7012,0.305,-0.366,0.427,-138.170,18.682,-15.194
13473,-0.3213,-0.6343,-0.7017,0.122,-0.061,0.488,-138.164,18.688,-15.194
13483,-0.3179,-0.6357,-0.7012,-0.122,0.305,0.488,-138.164,18.688,-15.194
13493,-0.3188,-0.6367,-0.7021,-0.366,0.610,0.549,-138.170,18.682,-15.194
13503,-0.3164,-0.6343,-0.7051,-0.427,0.916,0.732,-138.175,18.677,-15.194
13513,-0.3169,-0.6323,-0.7070,-0.488,0.854,1.038,-138.186,18.677,-15.205
13523,-0.3188,-0.6318,-0.7090,-0.183,0.610,1.099,-138.192,18.677,-15.216
13533,-0.3188,-0.6304,-0.7075,0.244,0.427,0.977,-138.192,18.682,-15.227
13544,-0.3188,-0.6294,-0.7031,0.549,0.305,0.732,-138.192,18.682,-15.238
13553,-0.3198,-0.6270,-0.7002,0.671,0.366,0.610,-138.186,18.688,-15.244
13563,-0.3198,-0.6309,-0.7012,0.427,0.549,0.549,-138.181,18.688,-15.255
13573,-0.3174,-0.6318,-0.7041,-0.061,0.732,0.427,-138.186,18.682,-15.260
13583,-0.3203,-0.6299,-0.7046,-0.549,0.793,0.427,-138.192,18.682,-15.271
13593,-0.3188,-0.6299,-0.7075,-0.671,0.671,0.488,-138.203,18.677,-15.276
13603,-0.3188,-0.6313,-0.7100,-0.549,0.427,0.488,-138.214,18.677,-15.287
13613,-0.3198,-0.6318,-0.7090,-0.366,0.244,0.366,-138.219,18.677,-15.293
13623,-0.3184,-0.6333,-0.7080,-0.183,0.366,0.427,-138.219,18.677,-15.298
13633,-0.3188,-0.6333,-0.7075,-0.183,0.610,0.549,-138.224,18.671,-15.304
13643,-0.3174,-0.6328,-0.7061,-0.244,0.793,0.732,-138.230,18.671,-15.315
13653,-0.3159,-0.6323,-0.7090,-0.305,0.793,0.793,-138.235,18.666,-15.326
13663,-0.3164,-0.6274,-0.7080,-0.488,0.671,0.732,-138.246,18.666,-15.337
13673,-0.3179,-0.6284,-0.7100,-0.549,0.549,0.610,-138.257,18.666,-15.348
13683,-0.3149,-0.6279,-0.7100,-0.549,0.366,0.549,-138.268,18.660,-15.353
13693,-0.3140,-0.6279,-0.7124,-0.427,0.000,0.488,-138.279,18.660,-15.359
13703,-0.3164,-0.6284,-0.7104,-0.244,-0.244,0.427,-138.285,18.666,-15.359
13713,-0.3174,-0.6304,-0.7061,-0.061,-0.366,0.366,-138.285,18.666,-15.359
13723,-0.3169,-0.6323,-0.7046,0.061,-0.366,0.305,-138.279,18.671,-15.359
13733,-0.3179,-0.6304,-0.7026,0.000,-0.244,0.305,-138.279,18.677,-15.359
13743,-0.3193,-0.6299,-0.7021,-0.305,-0.061,0.427,-138.279,18.677,-15.364
13753,-0.3184,-0.6279,-0.7021,-0.671,0.183,0.488,-138.290,18.682,-15.370
13763,-0.3198,-0.6250,-0.7031,-0.916,0.427,0.488,-138.301,18.682,-15.375
13773,-0.3213,-0.6240,-0.7041,-1.160,0.671,0.427,-138.318,18.682,-15.381
13783,-0.3208,-0.6230,-0.7051,-1.343,0.793,0.366,-138.334,18.677,-15.392
13793,-0.3203,-0.6226,-0.7056,-1.465,0.671,0.183,-138.351,18.677,-15.397
13803,-0.3174,-0.6226,-0.7095,-1.587,0.549,-0.061,-138.373,18.671,-15.403
13813,-0.3149,-0.6245,-0.7095,-1.465,0.305,-0.305,-138.389,18.666,-15.403
13823,-0.3159,-0.6289,-0.7134,-1.160,0.061,-0.488,-138.400,18.655,-15.397
13833,-0.3125,-0.6299,-0.7095,-0.793,-0.244,-0.549,-138.411,18.649,-15.392
13843,-0.3149,-0.6348,-0.7090,-0.427,-0.488,-0.549,-138.406,18.649,-15.386
13853,-0.3159,-0.6362,-0.7075,-0.183,-0.671,-0.427,-138.406,18.649,-15.375
13863,-0.3159,-0.6353,-0.7051,-0.061,-0.610,-0.244,-138.400,18.649,-15.370
13873,-0.3179,-0.6362,-0.7041,0.061,-0.427,-0.061,-138.389,18.649,-15.364
13883,-0.3203,-0.6353,-0.7017,0.122,0.000,0.122,-138.384,18.649,-15.370
13893,-0.3198,-0.6348,-0.7041,0.122,0.366,0.183,-138.378,18.649,-15.370
13903,-0.3213,-0.6343,-0.7065,0.000,0.488,0.427,-138.378,18.649,-15.375
13913,-0.3198,-0.6333,-0.7075,-0.122,0.427,0.488,-138.378,18.649,-15.386
13923,-0.3193,-0.6313,-0.7085,-0.244,0.305,0.488,-138.384,18.649,-15.392
13933,-0.3188,-0.6304,-0.7095,-0.305,0.000,0.427,-138.389,18.649,-15.392
13943,-0.3193,-0.6289,-0.7095,-0.122,-0.305,0.366,-138.389,18.655,-15.397
13953,-0.3208,-0.6304,-0.7090,0.366,-0.610,0.366,-138.384,18.660,-15.392
13963,-0.3184,-0.6323,-0.7051,0.854,-0.854,0.305,-138.373,18.671,-15.392
13973,-0.3193,-0.6323,-0.7041,1.099,-0.916,0.366,-138.356,18.677,-15.386
13983,-0.3179,-0.6343,-0.6992,0.732,-0.793,0.427,-138.345,18.688,-15.386
13993,-0.3198,-0.6328,-0.6992,0.366,-0.671,0.488,-138.334,18.693,-15.381
14003,-0.3193,-0.6343,-0.6992,0.061,-0.427,0.549,-138.329,18.704,-15.386
14013,-0.3193,-0.6338,-0.7012,-0.183,-0.244,0.610,-138.329,18.710,-15.386
14023,-0.3164,-0.6328,-0.7041,-0.244,-0.122,0.732,-138.329,18.710,-15.392
14033,-0.3164,-0.6304,-0.7056,-0.122,0.061,0.793,-138.334,18.715,-15.397
14044,-0.3174,-0.6299,-0.7046,0.000,0.244,0.854,-138.334,18.715,-15.408
14053,-0.3169,-0.6284,-0.7051,0.305,0.305,0.610,-138.334,18.715,-15.414
14063,-0.3174,-0.6279,-0.7080,0.183,0.305,0.671,-138.334,18.715,-15.425
14073,-0.3154,-0.6255,-0.7095,0.122,0.244,0.610,-138.340,18.715,-15.430
14083,-0.3164,-0.6255,-0.7075,0.061,0.061,0.427,-138.340,18.715,-15.430
14093,-0.3169,-0.6260,-0.7056,0.183,-0.183,0.183,-138.340,18.715,-15.430
14103,-0.3184,-0.6265,-0.7065,0.427,-0.427,0.061,-138.334,18.721,-15.430
14113,-0.3188,-0.6265,-0.7036,0.610,-0.549,0.000,-138.329,18.726,-15.425
14123,-0.3223,-0.6279,-0.7041,0.732,-0.610,-0.122,-138.318,18.732,-15.419
14133,-0.3193,-0.6309,-0.7002,0.671,-0.488,-0.244,-138.307,18.732,-15.414
14143,-0.3159,-0.6318,-0.7007,0.244,-0.305,-0.244,-138.301,18.732,-15.414
14153,-0.3179,-0.6294,-0.7046,-0.244,0.061,0.000,-138.301,18.726,-15.414
14163,-0.3188,-0.6274,-0.7070,-0.427,0.244,0.244,-138.307,18.726,-15.414
14174,-0.3193,-0.6270,-0.7075,-0.366,0.366,0.122,-138.312,18.726,-15.419
14183,-0.3208,-0.6270,-0.7061,0.061,0.305,0.000,-138.312,18.721,-15.419
14193,-0.3203,-0.6260,-0.7065,0.366,0.122,-0.122,-138.312,18.721,-15.419
14203,-0.3184,-0.6309,-0.7036,0.366,-0.122,-0.061,-138.307,18.721,-15.419
14213,-0.3203,-0.6309,-0.7026,0.000,-0.183,-0.122,-138.301,18.721,-15.419
14223,-0.3198,-0.6309,-0.7031,-0.366,-0.061,-0.122,-138.301,18.721,-15.414
14233,-0.3179,-0.6299,-0.7080,-0.427,0.183,-0.183,-138.307,18.715,-15.414
14243,-0.3203,-0.6294,-0.7085,-0.305,0.366,-0.122,-138.312,18.715,-15.419
14253,-0.3193,-0.6309,-0.7109,0.061,0.305,-0.061,-138.312,18.710,-15.419
14263,-0.3184,-0.6304,-0.7085,0.305,0.122,0.000,-138.312,18.704,-15.419
14273,-0.3169,-0.6313,-0.7109,0.366,-0.122,0.061,-138.307,18.704,-15.419
14283,-0.3188,-0.6284,-0.7095,0.305,-0.549,0.122,-138.307,18.710,-15.419
14293,-0.3193,-0.6279,-0.7085,0.244,-0.732,0.183,-138.301,18.715,-15.414
14303,-0.3198,-0.6260,-0.7041,0.244,-0.732,0.183,-138.301,18.721,-15.408
14313,-0.3203,-0.6250,-0.7056,0.244,-0.549,0.061,-138.301,18.726,-15.408
14323,-0.3169,-0.6270,-0.7021,0.366,-0.366,-0.122,-138.296,18.726,-15.403
14333,-0.3179,-0.6289,-0.7031,0.366,-0.244,-0.366,-138.285,18.726,-15.397
14343,-0.3159,-0.6294,-0.7017,0.244,-0.183,-0.427,-138.279,18.721,-15.392
14353,-0.3179,-0.6299,-0.7007,0.122,-0.183,-0.427,-138.274,18.721,-15.386
14363,-0.3203,-0.6294,-0.7017,-0.122,0.000,-0.305,-138.274,18.721,-15.386
14373,-0.3213,-0.6304,-0.7017,-0.244,0.122,-0.305,-138.274,18.715,-15.386
14383,-0.3218,-0.6313,-0.7036,-0.305,0.244,-0.427,-138.274,18.715,-15.381
14393,-0.3203,-0.6299,-0.7056,-0.366,0.427,-0.488,-138.279,18.704,-15.381
14403,-0.3208,-0.6270,-0.7046,-0.427,0.488,-0.427,-138.285,18.699,-15.381
14413,-0.3179,-0.6294,-0.7061,-0.366,0.305,-0.305,-138.285,18.693,-15.381
14423,-0.3198,-0.6304,-0.7056,-0.183,0.061,-0.366,-138.285,18.693,-15.381
14433,-0.3208,-0.6294,-0.7031,0.000,-0.122,-0.305,-138.285,18.693,-15.375
14443,-0.3218,-0.6309,-0.7021,0.244,-0.183,-0.305,-138.279,18.693,-15.375
14453,-0.3213,-0.6304,-0.7021,0.305,-0.122,-0.244,-138.274,18.693,-15.370
14463,-0.3193,-0.6338,-0.7041,0.244,0.000,-0.183,-138.268,18.693,-15.370
14473,-0.3174,-0.6333,-0.7036,0.122,0.183,-0.061,-138.263,18.688,-15.370
14483,-0.3179,-0.6304,-0.7046,-0.061,0.244,0.122,-138.263,18.688,-15.370
14493,-0.3164,-0.6279,-0.7056,0.000,0.244,0.244,-138.268,18.682,-15.375
14503,-0.3184,-0.6270,-0.7080,0.122,0.183,0.122,-138.268,18.682,-15.375
14513,-0.3188,-0.6274,-0.7051,0.244,0.305,0.000,-138.268,18.682,-15.381
14523,-0.3184,-0.6255,-0.7046,0.305,0.366,-0.122,-138.268,18.677,-15.381
14533,-0.3184,-0.6260,-0.7046,0.366,0.427,-0.183,-138.263,18.671,-15.381
14544,-0.3169,-0.6274,-0.7065,0.122,0.366,-0.305,-138.263,18.666,-15.381
14553,-0.3169,-0.6255,-0.7070,-0.244,0.305,-0.366,-138.268,18.660,-15.381
14563,-0.3179,-0.6260,-0.7085,-0.488,0.366,-0.305,-138.274,18.655,-15.381
14573,-0.3184,-0.6270,-0.7080,-0.427,0.427,-0.244,-138.285,18.649,-15.381
14583,-0.3179,-0.6270,-0.7109,-0.122,0.488,-0.366,-138.285,18.644,-15.381
14593,-0.3184,-0.6265,-0.7070,0.244,0.610,-0.427,-138.285,18.633,-15.381
14603,-0.3164,-0.6289,-0.7085,0.305,0.671,-0.488,-138.285,18.627,-15.381
14613,-0.3149,-0.6299,-0.7070,0.000,0.732,-0.549,-138.285,18.616,-15.381
14623,-0.3169,-0.6279,-0.7051,-0.488,0.671,-0.488,-138.290,18.605,-15.381
14633,-0.3154,-0.6270,-0.7070,-0.916,0.671,-0.488,-138.301,18.594,-15.381
14643,-0.3135,-0.6265,-0.7104,-1.038,0.671,-0.610,-138.312,18.583,-15.381
14653,-0.3135,-0.6309,-0.7134,-0.793,0.549,-0.732,-138.323,18.572,-15.381
14663,-0.3149,-0.6299,-0.7129,-0.305,0.366,-0.671,-138.329,18.561,-15.381
14673,-0.3149,-0.6304,-0.7119,0.183,0.000,-0.488,-138.329,18.556,-15.381
14683,-0.3169,-0.6289,-0.7114,0.610,-0.366,-0.427,-138.323,18.556,-15.381
14693,-0.3203,-0.6304,-0.7070,0.854,-0.610,-0.427,-138.307,18.556,-15.381
14703,-0.3213,-0.6294,-0.7080,0.977,-0.610,-0.488,-138.296,18.561,-15.381
14713,-0.3198,-0.6289,-0.7075,0.854,-0.427,-0.427,-138.290,18.561,-15.381
14723,-0.3203,-0.6289,-0.7075,0.488,-0.305,-0.427,-138.279,18.561,-15.381
14733,-0.3218,-0.6294,-0.7056,0.122,-0.244,-0.366,-138.279,18.567,-15.381
14743,-0.3213,-0.6299,-0.7085,0.061,-0.183,-0.427,-138.279,18.567,-15.381
14753,-0.3208,-0.6304,-0.7080,0.061,-0.244,-0.427,-138.274,18.567,-15.381
14763,-0.3198,-0.6323,-0.7075,0.183,-0.244,-0.549,-138.274,18.567,-15.381
14773,-0.3188,-0.6338,-0.7100,0.122,-0.244,-0.488,-138.268,18.561,-15.381
14783,-0.3203,-0.6323,-0.7134,0.061,-0.122,-0.305,-138.268,18.561,-15.381
14793,-0.3188,-0.6304,-0.7114,0.061,-0.122,-0.122,-138.268,18.561,-15.381
14803,-0.3198,-0.6289,-0.7144,0.244,-0.305,-0.061,-138.268,18.561,-15.381
14813,-0.3193,-0.6270,-0.7119,0.488,-0.549,-0.122,-138.268,18.567,-15.381
14823,-0.3203,-0.6270,-0.7100,0.916,-0.854,-0.183,-138.257,18.572,-15.381
14833,-0.3169,-0.6294,-0.7075,1.038,-1.038,-0.427,-138.246,18.578,-15.381
14843,-0.3169,-0.6323,-0.7036,0.854,-1.160,-0.549,-138.230,18.583,-15.381
14853,-0.3174,-0.6313,-0.7031,0.427,-1.160,-0.549,-138.219,18.589,-15.381
14863,-0.3179,-0.6333,-0.7021,-0.122,-0.977,-0.427,-138.219,18.589,-15.381
14873,-0.3179,-0.6333,-0.7031,-0.427,-0.671,-0.305,-138.219,18.594,-15.381
14883,-0.3179,-0.6328,-0.7051,-0.549,-0.244,-0.122,-138.219,18.594,-15.381
14893,-0.3193,-0.6309,-0.7075,-0.305,0.061,0.000,-138.224,18.594,-15.381
14903,-0.3188,-0.6323,-0.7085,0.061,0.122,0.122,-138.224,18.594,-15.381
14913,-0.3174,-0.6299,-0.7085,0.305,-0.061,0.244,-138.224,18.594,-15.381
14923,-0.3174,-0.6289,-0.7080,0.427,-0.366,0.244,-138.219,18.600,-15.381
14933,-0.3179,-0.6284,-0.7046,0.549,-0.671,0.183,-138.214,18.605,-15.381
14943,-0.3193,-0.6250,-0.7046,0.610,-0.854,0.183,-138.208,18.616,-15.381
14953,-0.3193,-0.6235,-0.7031,0.549,-0.916,0.000,-138.203,18.622,-15.381
14963,-0.3193,-0.6265,-0.7041,0.427,-0.854,-0.244,-138.197,18.627,-15.381
14973,-0.3169,-0.6265,-0.7017,0.244,-0.793,-0.427,-138.192,18.633,-15.381
14983,-0.3179,-0.6255,-0.7007,0.244,-0.854,-0.549,-138.186,18.633,-15.381
14993,-0.3184,-0.6279,-0.7002,0.305,-0.732,-0.671,-138.181,18.638,-15.381
15003,-0.3179,-0.6313,-0.6992,0.427,-0.549,-0.793,-138.170,18.633,-15.381
15013,-0.3193,-0.6318,-0.7002,0.427,-0.366,-0.793,-138.159,18.633,-15.381
15023,-0.3198,-0.6333,-0.6982,0.366,-0.244,-0.610,-138.153,18.633,-15.381
15033,-0.3208,-0.6299,-0.6997,0.244,0.061,-0.427,-138.148,18.633,-15.381
15044,-0.3213,-0.6299,-0.6982,0.061,0.244,-0.366,-138.142,18.627,-15.381
15053,-0.3213,-0.6304,-0.7056,-0.061,0.488,-0.366,-138.148,18.622,-15.381
15063,-0.3198,-0.6309,-0.7051,-0.244,0.732,-0.427,-138.148,18.616,-15.381
15073,-0.3174,-0.6328,-0.7061,-0.305,0.793,-0.427,-138.153,18.605,-15.381
15083,-0.3193,-0.6343,-0.7080,-0.427,0.549,-0.305,-138.159,18.600,-15.381
15093,-0.3179,-0.6328,-0.7104,-0.366,0.244,-0.244,-138.164,18.594,-15.381
15103,-0.3198,-0.6318,-0.7104,-0.183,-0.122,-0.244,-138.164,18.594,-15.381
15113,-0.3179,-0.6333,-0.7104,0.122,-0.305,-0.244,-138.164,18.594,-15.381
15123,-0.3174,-0.6323,-0.7095,0.488,-0.305,-0.183,-138.159,18.594,-15.381
15133,-0.3179,-0.6304,-0.7051,0.732,-0.183,-0.061,-138.153,18.594,-15.381
15143,-0.3179,-0.6318,-0.7031,0.793,0.000,-0.061,-138.142,18.594,-15.381
15153,-0.3188,-0.6304,-0.7026,0.610,0.183,-0.183,-138.137,18.594,-15.381
15163,-0.3188,-0.6304,-0.7012,0.183,0.427,-0.122,-138.131,18.589,-15.381
15173,-0.3184,-0.6304,-0.7051,-0.183,0.610,-0.061,-138.137,18.583,-15.381
15183,-0.3184,-0.6309,-0.7065,-0.488,0.854,-0.061,-138.148,18.578,-15.381
15193,-0.3193,-0.6294,-0.7065,-0.549,0.977,0.000,-138.153,18.572,-15.381
15203,-0.3179,-0.6289,-0.7104,-0.610,1.038,0.000,-138.164,18.561,-15.381
15213,-0.3203,-0.6304,-0.7124,-0.610,0.854,0.122,-138.175,18.556,-15.381
15223,-0.3213,-0.6289,-0.7148,-0.427,0.610,0.122,-138.186,18.556,-15.381
15233,-0.3198,-0.6289,-0.7173,-0.061,0.366,0.061,-138.197,18.550,-15.381
15243,-0.3159,-0.6294,-0.7144,0.366,0.183,-0.061,-138.197,18.550,-15.381
15253,-0.3154,-0.6279,-0.7148,0.549,-0.244,-0.122,-138.197,18.550,-15.381
15263,-0.3154,-0.6309,-0.7148,0.610,-0.610,0.061,-138.192,18.550,-15.381
15273,-0.3174,-0.6279,-0.7090,0.549,-0.916,0.061,-138.186,18.556,-15.381
15283,-0.3164,-0.6270,-0.7090,0.610,-1.038,-0.061,-138.181,18.567,-15.381
15293,-0.3169,-0.6284,-0.7085,0.732,-0.977,-0.183,-138.175,18.567,-15.381
15303,-0.3149,-0.6313,-0.7056,0.732,-0.916,-0.183,-138.164,18.572,-15.381
15313,-0.3169,-0.6313,-0.7051,0.610,-0.854,-0.122,-138.159,18.578,-15.381
15323,-0.3174,-0.6304,-0.7026,0.488,-0.793,-0.122,-138.148,18.583,-15.381
15333,-0.3179,-0.6289,-0.7021,0.366,-0.671,0.000,-138.142,18.589,-15.381
15343,-0.3184,-0.6313,-0.7026,0.183,-0.488,0.061,-138.142,18.594,-15.381
15353,-0.3174,-0.6289,-0.7056,-0.061,-0.244,0.061,-138.142,18.594,-15.381
15363,-0.3188,-0.6274,-0.7065,-0.183,0.000,0.061,-138.148,18.594,-15.381
15373,-0.3193,-0.6260,-0.7065,-0.122,0.122,-0.061,-138.148,18.594,-15.381
15383,-0.3184,-0.6260,-0.7065,0.000,0.122,-0.122,-138.153,18.594,-15.381
15393,-0.3169,-0.6294,-0.7070,0.183,-0.061,-0.244,-138.153,18.594,-15.381
15403,-0.3184,-0.6289,-0.7070,0.244,-0.244,-0.427,-138.153,18.589,-15.381
15413,-0.3169,-0.6313,-0.7114,0.061,-0.549,-0.366,-138.148,18.589,-15.381
15423,-0.3184,-0.6294,-0.7100,-0.061,-0.732,-0.244,-138.153,18.594,-15.381
15433,-0.3179,-0.6289,-0.7095,0.061,-0.793,-0.244,-138.153,18.600,-15.381
15443,-0.3193,-0.6270,-0.7104,0.427,-0.854,-0.244,-138.148,18.605,-15.381
15453,-0.3208,-0.6260,-0.7046,0.854,-0.732,-0.305,-138.142,18.611,-15.381
15463,-0.3193,-0.6270,-0.7026,1.038,-0.610,-0.427,-138.131,18.611,-15.381
15473,-0.3198,-0.6299,-0.7021,0.916,-0.671,-0.549,-138.115,18.616,-15.381
15483,-0.3203,-0.6328,-0.7017,0.488,-0.549,-0.610,-138.109,18.616,-15.381
15493,-0.3193,-0.6313,-0.7012,-0.183,-0.366,-0.671,-138.104,18.616,-15.381
15503,-0.3198,-0.6309,-0.7017,-0.671,-0.122,-0.610,-138.109,18.611,-15.381
15513,-0.3218,-0.6309,-0.7021,-0.793,0.061,-0.488,-138.115,18.611,-15.381
15523,-0.3203,-0.6323,-0.7085,-0.488,0.244,-0.427,-138.120,18.605,-15.381
15533,-0.3208,-0.6328,-0.7075,-0.183,0.366,-0.427,-138.126,18.600,-15.381
15544,-0.3203,-0.6338,-0.7104,0.122,0.305,-0.427,-138.126,18.594,-15.381
15553,-0.3154,-0.6348,-0.7095,0.122,0.183,-0.061,-138.126,18.594,-15.381
15563,-0.3149,-0.6328,-0.7090,0.122,-0.122,0.183,-138.126,18.594,-15.381
15573,-0.3159,-0.6328,-0.7080,0.244,-0.549,0.305,-138.120,18.594,-15.381
15583,-0.3169,-0.6299,-0.7056,0.427,-0.732,0.305,-138.120,18.605,-15.381
15593,-0.3169,-0.6313,-0.7041,0.610,-0.671,0.244,-138.109,18.611,-15.381
15603,-0.3188,-0.6294,-0.7012,0.671,-0.427,0.122,-138.104,18.611,-15.381
15613,-0.3164,-0.6309,-0.6982,0.427,-0.122,0.122,-138.098,18.616,-15.381
15623,-0.3184,-0.6294,-0.6997,0.122,0.244,0.061,-138.098,18.616,-15.381
15633,-0.3188,-0.6284,-0.6997,-0.305,0.610,0.122,-138.098,18.611,-15.381
15643,-0.3198,-0.6289,-0.7017,-0.549,0.916,0.183,-138.109,18.605,-15.381
15653,-0.3193,-0.6274,-0.7007,-0.671,0.977,0.305,-138.120,18.605,-15.381
15663,-0.3203,-0.6265,-0.7036,-0.610,0.977,0.305,-138.131,18.600,-15.381
15673,-0.3203,-0.6270,-0.7061,-0.671,1.099,0.244,-138.142,18.594,-15.381
15683,-0.3232,-0.6274,-0.7065,-0.671,1.282,0.061,-138.153,18.589,-15.381
15693,-0.3232,-0.6270,-0.7090,-0.793,1.404,0.000,-138.170,18.583,-15.381
15703,-0.3218,-0.6279,-0.7104,-0.977,1.404,0.000,-138.186,18.572,-15.381
15713,-0.3203,-0.6323,-0.7075,-0.977,1.221,-0.122,-138.197,18.561,-15.381
15723,-0.3154,-0.6328,-0.7104,-1.099,0.732,-0.244,-138.208,18.556,-15.381
15733,-0.3164,-0.6338,-0.7158,-1.526,0.671,0.183,-138.230,18.550,-15.381
15743,-0.3164,-0.6328,-0.7178,-1.648,0.977,0.366,-138.252,18.539,-15.381
15753,-0.3140,-0.6304,-0.7183,-1.282,1.160,0.366,-138.274,18.534,-15.381
15763,-0.3130,-0.6274,-0.7153,-0.305,0.793,0.244,-138.285,18.523,-15.381
15773,-0.3135,-0.6270,-0.7148,0.610,0.122,0.305,-138.285,18.523,-15.381
15783,-0.3159,-0.6274,-0.7114,1.099,-0.244,0.427,-138.274,18.528,-15.381
15793,-0.3198,-0.6255,-0.7070,1.038,-0.366,0.366,-138.268,18.534,-15.381
15803,-0.3193,-0.6245,-0.7056,0.671,-0.183,0.244,-138.263,18.539,-15.381
15813,-0.3193,-0.6226,-0.7061,0.305,0.061,0.061,-138.263,18.539,-15.381
15823,-0.3149,-0.6240,-0.7075,0.122,0.061,-0.061,-138.268,18.539,-15.381
15833,-0.3140,-0.6255,-0.7090,0.061,-0.061,-0.183,-138.268,18.534,-15.381
15843,-0.3145,-0.6260,-0.7095,0.183,-0.061,-0.305,-138.268,18.534,-15.381
15853,-0.3140,-0.6265,-0.7095,0.427,-0.122,-0.305,-138.268,18.528,-15.381
15863,-0.3130,-0.6260,-0.7100,0.610,-0.122,-0.305,-138.263,18.528,-15.381
15873,-0.3174,-0.6274,-0.7100,0.732,-0.244,-0.305,-138.257,18.528,-15.381
15883,-0.3174,-0.6270,-0.7104,0.732,-0.366,-0.305,-138.252,18.528,-15.381
15893,-0.3169,-0.6270,-0.7104,0.671,-0.549,-0.366,-138.246,18.528,-15.381
15903,-0.3179,-0.6270,-0.7065,0.427,-0.671,-0.488,-138.241,18.528,-15.381
15913,-0.3184,-0.6270,-0.7051,0.183,-0.854,-0.488,-138.235,18.534,-15.381
15923,-0.3174,-0.6289,-0.7075,0.183,-0.854,-0.488,-138.230,18.539,-15.381
15933,-0.3184,-0.6289,-0.7031,0.244,-0.671,-0.549,-138.224,18.539,-15.381
15943,-0.3179,-0.6313,-0.7036,0.427,-0.427,-0.488,-138.219,18.539,-15.381
15953,-0.3174,-0.6328,-0.7017,0.549,-0.122,-0.488,-138.208,18.539,-15.381
15963,-0.3169,-0.6333,-0.7041,0.488,0.122,-0.427,-138.203,18.534,-15.381
15973,-0.3169,-0.6323,-0.7051,0.244,0.183,-0.305,-138.197,18.528,-15.381
15983,-0.3193,-0.6323,-0.7075,-0.122,0.122,-0.122,-138.197,18.528,-15.381
15993,-0.3174,-0.6299,-0.7080,-0.366,0.000,0.000,-138.203,18.528,-15.381
16003,-0.3174,-0.6289,-0.7065,-0.366,0.000,0.061,-138.208,18.528,-15.381
16013,-0.3179,-0.6279,-0.7061,-0.183,0.000,0.000,-138.214,18.528,-15.381
16023,-0.3188,-0.6289,-0.7065,0.122,0.061,0.061,-138.214,18.534,-15.381
16033,-0.3198,-0.6289,-0.7085,0.366,0.061,0.122,-138.214,18.534,-15.381
16044,-0.3188,-0.6299,-0.7080,0.610,0.061,0.000,-138.208,18.534,-15.381
16053,-0.3174,-0.6318,-0.7070,0.610,0.000,0.000,-138.203,18.534,-15.381
16063,-0.3174,-0.6323,-0.7080,0.366,-0.122,0.122,-138.197,18.534,-15.381
16073,-0.3159,-0.6289,-0.7075,0.122,-0.366,0.244,-138.197,18.539,-15.381
16083,-0.3188,-0.6284,-0.7085,0.122,-0.610,0.244,-138.197,18.545,-15.381
16093,-0.3203,-0.6250,-0.7104,0.366,-0.732,0.183,-138.197,18.556,-15.381
16104,-0.3193,-0.6245,-0.7051,0.854,-0.549,-0.061,-138.192,18.561,-15.381
16113,-0.3188,-0.6289,-0.7070,1.099,-0.305,-0.183,-138.181,18.561,-15.381
16124,-0.3198,-0.6294,-0.7046,0.793,-0.122,-0.305,-138.170,18.561,-15.381
16133,-0.3164,-0.6328,-0.7056,0.244,0.061,-0.244,-138.170,18.556,-15.381
16144,-0.3159,-0.6318,-0.7090,-0.305,0.183,-0.122,-138.175,18.556,-15.381
16154,-0.3145,-0.6304,-0.7095,-0.671,0.183,-0.061,-138.181,18.550,-15.381
16163,-0.3149,-0.6299,-0.7085,-0.610,0.122,-0.061,-138.192,18.545,-15.381
16175,-0.3169,-0.6284,-0.7109,-0.244,0.000,-0.061,-138.197,18.545,-15.381
16184,-0.3179,-0.6274,-0.7114,0.244,-0.061,-0.061,-138.197,18.545,-15.381
16193,-0.3159,-0.6294,-0.7080,0.549,-0.061,-0.061,-138.192,18.545,-15.381
16204,-0.3149,-0.6318,-0.7090,0.610,-0.122,-0.122,-138.186,18.545,-15.381
16214,-0.3145,-0.6313,-0.7129,0.488,-0.183,-0.061,-138.186,18.539,-15.381
16224,-0.3159,-0.6309,-0.7134,0.183,-0.366,0.061,-138.186,18.545,-15.381
16234,-0.3140,-0.6299,-0.7100,0.000,-0.732,0.122,-138.186,18.545,-15.381
16244,-0.3154,-0.6289,-0.7090,0.122,-1.099,0.122,-138.186,18.556,-15.381
16254,-0.3164,-0.6279,-0.7075,0.427,-1.221,0.061,-138.181,18.561,-15.381
