elapsed_ms,acc_x_g,acc_y_g,acc_z_g,gyro_x_dps,gyro_y_dps,gyro_z_dps,angle_x_deg,angle_y_deg,angle_z_deg
0,-0.2915,-0.2842,-0.9219,-1.282,1.709,0.732,-162.933,16.710,-69.478
10,-0.2915,-0.2837,-0.9224,-1.038,1.709,0.671,-162.944,16.699,-69.489
20,-0.2910,-0.2861,-0.9268,-0.854,1.709,0.610,-162.955,16.683,-69.505
30,-0.2876,-0.2866,-0.9248,-0.793,1.526,0.488,-162.966,16.666,-69.510
40,-0.2861,-0.2847,-0.9287,-0.732,1.160,0.366,-162.971,16.655,-69.521
50,-0.2881,-0.2847,-0.9297,-0.427,0.671,0.061,-162.977,16.650,-69.521
60,-0.2837,-0.2852,-0.9287,0.000,-0.061,-0.122,-162.977,16.644,-69.521
70,-0.2832,-0.2842,-0.9219,0.610,-0.977,-0.183,-162.966,16.650,-69.516
80,-0.2861,-0.2847,-0.9204,1.221,-1.648,-0.366,-162.955,16.666,-69.505
90,-0.2886,-0.2871,-0.9170,1.587,-1.892,-0.488,-162.927,16.683,-69.494
100,-0.2881,-0.2886,-0.9170,1.648,-1.709,-0.366,-162.905,16.694,-69.489
110,-0.2896,-0.2905,-0.9155,1.465,-0.977,-0.183,-162.883,16.705,-69.483
120,-0.2915,-0.2915,-0.9160,0.916,-0.061,0.061,-162.872,16.710,-69.483
130,-0.2905,-0.2920,-0.9160,0.366,0.854,0.488,-162.867,16.705,-69.489
140,-0.2920,-0.2886,-0.9170,0.061,1.343,1.038,-162.867,16.694,-69.505
150,-0.2930,-0.2881,-0.9189,-0.183,1.587,1.465,-162.867,16.688,-69.527
160,-0.2939,-0.2866,-0.9219,-0.366,1.648,1.831,-162.878,16.677,-69.549
170,-0.2939,-0.2832,-0.9204,-0.610,1.709,2.014,-162.894,16.672,-69.571
180,-0.2939,-0.2808,-0.9204,-0.793,1.953,2.014,-162.911,16.661,-69.598
190,-0.2925,-0.2798,-0.9189,-0.916,2.258,1.953,-162.927,16.650,-69.626
200,-0.2886,-0.2783,-0.9238,-1.038,2.380,1.831,-162.949,16.633,-69.653
210,-0.2861,-0.2793,-0.9253,-1.221,2.319,1.709,-162.971,16.611,-69.675
220,-0.2861,-0.2769,-0.9258,-1.343,1.831,1.648,-162.993,16.600,-69.697
230,-0.2861,-0.2778,-0.9263,-1.160,0.977,1.587,-163.010,16.595,-69.714
240,-0.2847,-0.2778,-0.9263,-0.610,0.183,1.526,-163.026,16.595,-69.730
250,-0.2852,-0.2773,-0.9248,0.244,-0.366,1.343,-163.032,16.600,-69.747
260,-0.2866,-0.2793,-0.9209,1.099,-0.671,1.160,-163.021,16.611,-69.752
270,-0.2871,-0.2827,-0.9204,1.770,-0.610,0.977,-163.004,16.617,-69.763
280,-0.2852,-0.2842,-0.9204,2.197,-0.488,0.793,-162.982,16.622,-69.769
290,-0.2847,-0.2856,-0.9189,2.197,-0.427,0.793,-162.960,16.628,-69.774
300,-0.2847,-0.2847,-0.9194,2.014,-0.671,0.977,-162.944,16.639,-69.785
310,-0.2852,-0.2856,-0.9194,1.770,-1.038,1.038,-162.922,16.650,-69.791
320,-0.2861,-0.2856,-0.9194,1.282,-1.465,0.977,-162.911,16.666,-69.796
330,-0.2866,-0.2842,-0.9155,1.160,-1.465,0.854,-162.900,16.677,-69.802
340,-0.2876,-0.2856,-0.9175,0.427,-0.977,0.916,-162.894,16.694,-69.807
350,-0.2866,-0.2827,-0.9209,-0.305,-0.061,1.099,-162.900,16.694,-69.818
360,-0.2871,-0.2793,-0.9214,-0.793,0.977,1.404,-162.916,16.688,-69.835
370,-0.2876,-0.2773,-0.9224,-0.854,1.770,1.526,-162.933,16.677,-69.851
380,-0.2891,-0.2754,-0.9268,-0.610,2.258,1.587,-162.949,16.661,-69.879
390,-0.2905,-0.2749,-0.9258,-0.122,2.563,1.587,-162.966,16.639,-69.901
400,-0.2910,-0.2783,-0.9243,0.183,2.563,1.404,-162.971,16.622,-69.922
410,-0.2900,-0.2764,-0.9214,0.000,2.197,1.282,-162.982,16.606,-69.939
420,-0.2930,-0.2754,-0.9214,-0.488,1.953,1.221,-162.993,16.595,-69.961
430,-0.2925,-0.2793,-0.9238,-1.160,1.831,1.038,-163.010,16.584,-69.977
440,-0.2930,-0.2778,-0.9258,-1.892,1.709,0.854,-163.037,16.573,-69.988
450,-0.2891,-0.2783,-0.9282,-2.380,1.587,0.732,-163.070,16.556,-69.999
460,-0.2896,-0.2769,-0.9312,-2.319,1.221,0.610,-163.098,16.551,-70.010
470,-0.2876,-0.2769,-0.9351,-1.709,0.549,0.305,-163.120,16.545,-70.016
480,-0.2866,-0.2793,-0.9336,-0.671,-0.305,-0.122,-163.125,16.545,-70.016
490,-0.2842,-0.2793,-0.9326,0.549,-1.282,-0.549,-163.120,16.551,-70.005
500,-0.2832,-0.2842,-0.9277,1.465,-2.197,-0.916,-163.103,16.567,-69.988
510,-0.2847,-0.2856,-0.9243,1.953,-2.686,-0.854,-163.076,16.589,-69.972
520,-0.2847,-0.2871,-0.9185,2.319,-2.563,-0.610,-163.043,16.611,-69.955
530,-0.2856,-0.2876,-0.9170,2.319,-2.136,-0.122,-163.015,16.628,-69.950
540,-0.2886,-0.2856,-0.9175,2.136,-1.648,0.427,-162.988,16.650,-69.950
550,-0.2900,-0.2856,-0.9160,2.014,-0.977,0.916,-162.966,16.661,-69.955
560,-0.2891,-0.2832,-0.9150,1.648,-0.427,1.099,-162.955,16.672,-69.966
570,-0.2900,-0.2837,-0.9155,0.977,0.122,1.221,-162.944,16.672,-69.977
580,-0.2905,-0.2817,-0.9136,0.061,0.610,1.343,-162.949,16.672,-69.994
590,-0.2900,-0.2793,-0.9165,-0.732,0.977,1.648,-162.960,16.672,-70.010
600,-0.2886,-0.2739,-0.9194,-1.221,1.038,1.831,-162.982,16.666,-70.032
610,-0.2900,-0.2739,-0.9219,-1.465,1.038,1.831,-163.010,16.666,-70.054
620,-0.2920,-0.2690,-0.9214,-0.977,0.977,1.526,-163.032,16.661,-70.076
630,-0.2896,-0.2725,-0.9214,-0.610,0.793,1.099,-163.048,16.661,-70.087
640,-0.2861,-0.2759,-0.9233,-0.427,0.793,0.671,-163.054,16.650,-70.098
650,-0.2842,-0.2773,-0.9243,-0.610,0.671,0.427,-163.065,16.644,-70.104
660,-0.2861,-0.2822,-0.9233,-1.038,0.427,0.305,-163.076,16.639,-70.109
670,-0.2876,-0.2837,-0.9258,-1.343,0.061,0.122,-163.087,16.639,-70.109
680,-0.2876,-0.2822,-0.9272,-1.160,-0.244,0.000,-163.098,16.639,-70.109
690,-0.2852,-0.2847,-0.9268,-0.427,-0.427,-0.122,-163.103,16.639,-70.104
700,-0.2861,-0.2856,-0.9248,0.366,-0.488,-0.244,-163.092,16.644,-70.104
710,-0.2866,-0.2871,-0.9219,0.977,-0.488,-0.183,-163.081,16.644,-70.098
720,-0.2871,-0.2876,-0.9199,1.404,-0.488,0.000,-163.059,16.650,-70.098
730,-0.2876,-0.2856,-0.9194,1.404,-0.671,0.183,-163.043,16.655,-70.098
740,-0.2896,-0.2852,-0.9170,1.221,-0.732,0.244,-163.026,16.666,-70.098
750,-0.2915,-0.2837,-0.9141,0.977,-0.732,0.305,-163.015,16.677,-70.098
760,-0.2915,-0.2822,-0.9106,0.610,-0.427,0.305,-163.010,16.683,-70.098
770,-0.2905,-0.2866,-0.9131,0.305,0.122,0.427,-163.004,16.688,-70.104
780,-0.2886,-0.2847,-0.9155,0.061,0.610,0.671,-163.004,16.683,-70.115
790,-0.2896,-0.2847,-0.9180,-0.122,0.977,0.916,-163.004,16.677,-70.126
800,-0.2896,-0.2798,-0.9199,-0.244,1.160,1.160,-163.010,16.672,-70.137
810,-0.2930,-0.2778,-0.9214,-0.244,1.282,1.343,-163.021,16.666,-70.159
820,-0.2925,-0.2783,-0.9253,-0.061,1.404,1.404,-163.032,16.661,-70.175
830,-0.2935,-0.2769,-0.9243,0.061,1.465,1.404,-163.037,16.650,-70.192
840,-0.2925,-0.2744,-0.9263,0.183,1.221,1.404,-163.043,16.644,-70.214
850,-0.2925,-0.2739,-0.9272,0.305,0.854,1.404,-163.054,16.644,-70.230
860,-0.2905,-0.2739,-0.9263,0.366,0.488,1.282,-163.054,16.644,-70.241
870,-0.2905,-0.2720,-0.9258,0.122,0.122,0.977,-163.065,16.644,-70.252
880,-0.2905,-0.2705,-0.9272,-0.488,-0.122,0.549,-163.076,16.650,-70.258
890,-0.2900,-0.2720,-0.9277,-0.793,-0.305,0.061,-163.092,16.655,-70.258
900,-0.2871,-0.2754,-0.9272,-0.977,-0.488,-0.427,-163.103,16.655,-70.252
910,-0.2842,-0.2759,-0.9268,-0.977,-0.610,-0.854,-163.114,16.655,-70.241
920,-0.2832,-0.2783,-0.9248,-0.610,-0.854,-1.099,-163.114,16.655,-70.225
930,-0.2817,-0.2817,-0.9219,-0.244,-1.221,-1.221,-163.114,16.661,-70.214
940,-0.2837,-0.2832,-0.9219,0.122,-1.648,-1.099,-163.103,16.672,-70.197
950,-0.2827,-0.2861,-0.9160,0.000,-2.014,-0.854,-163.098,16.688,-70.181
960,-0.2861,-0.2876,-0.9136,-0.305,-2.014,-0.488,-163.092,16.705,-70.170
970,-0.2876,-0.2861,-0.9150,-0.061,-1.404,-0.122,-163.087,16.716,-70.164
980,-0.2871,-0.2842,-0.9126,0.000,-0.732,0.244,-163.081,16.721,-70.164
990,-0.2871,-0.2808,-0.9126,-0.427,0.183,0.671,-163.087,16.727,-70.170
1000,-0.2891,-0.2754,-0.9116,-1.221,0.610,0.916,-163.103,16.721,-70.181
1010,-0.2891,-0.2729,-0.9136,-1.526,0.977,0.916,-163.125,16.716,-70.197
1020,-0.2876,-0.2700,-0.9189,-1.282,1.526,0.671,-163.141,16.705,-70.208
1030,-0.2891,-0.2744,-0.9170,-1.953,1.465,0.366,-163.169,16.694,-70.214
1040,-0.2866,-0.2769,-0.9165,-1.892,1.526,0.183,-163.185,16.677,-70.219
1050,-0.2871,-0.2744,-0.9219,-2.136,1.648,0.122,-163.213,16.661,-70.225
1060,-0.2891,-0.2744,-0.9238,-2.197,1.526,-0.061,-163.240,16.650,-70.230
1070,-0.2876,-0.2759,-0.9248,-2.136,1.526,-0.366,-163.262,16.633,-70.230
1080,-0.2856,-0.2788,-0.9229,-1.770,1.526,-0.610,-163.279,16.617,-70.230
1090,-0.2866,-0.2827,-0.9229,-1.099,1.526,-0.671,-163.284,16.600,-70.230
1100,-0.2847,-0.2837,-0.9238,-0.610,1.587,-0.671,-163.284,16.578,-70.225
1110,-0.2832,-0.2856,-0.9248,-0.305,1.648,-0.488,-163.284,16.562,-70.225
1120,-0.2876,-0.2847,-0.9253,-0.183,1.648,-0.183,-163.284,16.545,-70.230
1130,-0.2915,-0.2827,-0.9253,-0.122,1.648,0.061,-163.284,16.529,-70.236
1140,-0.2925,-0.2808,-0.9233,-0.061,1.709,0.122,-163.284,16.518,-70.241
1150,-0.2920,-0.2808,-0.9224,-0.122,1.709,-0.061,-163.284,16.507,-70.247
1160,-0.2876,-0.2812,-0.9263,-0.244,1.465,-0.183,-163.284,16.490,-70.247
1170,-0.2891,-0.2793,-0.9263,-0.244,1.099,-0.122,-163.290,16.479,-70.252
1180,-0.2905,-0.2788,-0.9272,-0.122,0.732,-0.061,-163.290,16.474,-70.252
1190,-0.2886,-0.2783,-0.9287,0.061,0.549,-0.061,-163.290,16.474,-70.252
1200,-0.2856,-0.2769,-0.9253,0.244,0.488,-0.183,-163.290,16.469,-70.252
1210,-0.2881,-0.2764,-0.9238,0.305,0.427,-0.183,-163.284,16.463,-70.252
1220,-0.2876,-0.2773,-0.9243,0.305,0.305,-0.244,-163.284,16.463,-70.252
1230,-0.2876,-0.2808,-0.9263,0.244,0.305,-0.427,-163.279,16.458,-70.247
1240,-0.2876,-0.2827,-0.9253,0.122,0.366,-0.488,-163.273,16.452,-70.241
1250,-0.2881,-0.2798,-0.9268,-0.061,0.488,-0.427,-163.273,16.452,-70.241
1260,-0.2886,-0.2803,-0.9258,-0.183,0.610,-0.244,-163.273,16.447,-70.241
1270,-0.2866,-0.2827,-0.9253,-0.122,0.610,-0.122,-163.268,16.441,-70.241
1280,-0.2871,-0.2847,-0.9258,-0.061,0.488,0.000,-163.268,16.436,-70.241
1290,-0.2876,-0.2842,-0.9268,0.061,0.427,0.183,-163.262,16.436,-70.247
1300,-0.2876,-0.2847,-0.9253,0.183,0.366,0.427,-163.262,16.430,-70.252
1310,-0.2852,-0.2871,-0.9238,0.366,0.488,0.549,-163.251,16.430,-70.258
1320,-0.2861,-0.2842,-0.9268,0.427,0.671,0.732,-163.251,16.425,-70.269
1330,-0.2861,-0.2817,-0.9302,0.488,0.977,1.038,-163.246,16.419,-70.280
1340,-0.2861,-0.2778,-0.9292,0.549,1.099,1.160,-163.246,16.414,-70.296
1350,-0.2852,-0.2749,-0.9287,0.671,1.038,1.221,-163.246,16.403,-70.313
1360,-0.2852,-0.2744,-0.9268,0.916,0.610,1.038,-163.246,16.403,-70.323
1370,-0.2861,-0.2695,-0.9258,1.221,0.000,0.732,-163.240,16.408,-70.329
1380,-0.2856,-0.2720,-0.9229,1.587,-0.488,0.366,-163.229,16.414,-70.334
1390,-0.2866,-0.2769,-0.9204,1.648,-0.549,0.122,-163.213,16.419,-70.329
1400,-0.2847,-0.2808,-0.9194,1.282,-0.061,-0.122,-163.196,16.419,-70.329
1410,-0.2812,-0.2827,-0.9199,0.427,0.671,-0.122,-163.191,16.414,-70.329
1420,-0.2808,-0.2827,-0.9214,-0.427,1.404,0.244,-163.191,16.397,-70.340
1430,-0.2808,-0.2812,-0.9243,-0.916,1.831,0.610,-163.202,16.381,-70.351
1440,-0.2808,-0.2783,-0.9258,-0.732,1.648,0.671,-163.213,16.364,-70.362
1450,-0.2812,-0.2759,-0.9282,-0.061,1.282,0.549,-163.218,16.353,-70.373
1460,-0.2808,-0.2773,-0.9248,0.732,0.916,0.427,-163.218,16.342,-70.378
1470,-0.2803,-0.2754,-0.9268,1.099,0.610,0.549,-163.207,16.337,-70.384
1480,-0.2822,-0.2764,-0.9258,1.038,0.366,0.854,-163.202,16.337,-70.395
1490,-0.2842,-0.2759,-0.9243,0.610,0.000,0.977,-163.202,16.342,-70.406
1500,-0.2856,-0.2720,-0.9233,0.244,-0.244,0.732,-163.207,16.348,-70.411
1510,-0.2861,-0.2710,-0.9209,-0.061,-0.061,0.305,-163.213,16.353,-70.411
1520,-0.2852,-0.2734,-0.9263,-0.366,0.366,-0.061,-163.218,16.348,-70.411
1530,-0.2827,-0.2754,-0.9253,-0.671,0.610,-0.305,-163.224,16.342,-70.411
1540,-0.2808,-0.2783,-0.9292,-0.854,0.610,-0.244,-163.235,16.331,-70.411
1550,-0.2798,-0.2773,-0.9312,-0.732,0.122,-0.244,-163.246,16.331,-70.411
1560,-0.2822,-0.2788,-0.9331,-0.427,-0.244,-0.366,-163.246,16.326,-70.406
1570,-0.2827,-0.2808,-0.9331,0.122,-0.610,-0.488,-163.246,16.331,-70.400
1580,-0.2817,-0.2817,-0.9307,0.610,-0.793,-0.488,-163.235,16.337,-70.389
1590,-0.2808,-0.2803,-0.9292,1.099,-0.854,-0.305,-163.224,16.342,-70.384
1600,-0.2827,-0.2788,-0.9263,1.587,-0.793,0.000,-163.207,16.348,-70.384
1610,-0.2852,-0.2769,-0.9238,1.648,-0.732,0.122,-163.191,16.359,-70.384
1620,-0.2876,-0.2754,-0.9224,1.587,-0.732,0.305,-163.180,16.370,-70.384
1630,-0.2876,-0.2734,-0.9219,1.465,-0.488,0.183,-163.169,16.375,-70.384
1640,-0.2891,-0.2744,-0.9229,1.099,-0.305,0.000,-163.158,16.381,-70.384
1650,-0.2866,-0.2715,-0.9219,0.610,-0.305,-0.244,-163.158,16.386,-70.378
1660,-0.2866,-0.2720,-0.9199,0.183,-0.366,-0.244,-163.158,16.392,-70.378
1670,-0.2871,-0.2749,-0.9204,-0.122,-0.488,-0.305,-163.158,16.397,-70.373
1680,-0.2881,-0.2764,-0.9219,-0.366,-0.305,-0.549,-163.163,16.403,-70.367
1690,-0.2861,-0.2798,-0.9204,-0.732,0.061,-0.793,-163.163,16.403,-70.356
1700,-0.2847,-0.2812,-0.9243,-0.916,0.488,-0.916,-163.174,16.392,-70.351
1710,-0.2832,-0.2847,-0.9282,-0.977,0.793,-0.854,-163.180,16.381,-70.345
1720,-0.2817,-0.2856,-0.9307,-0.977,0.610,-0.671,-163.185,16.370,-70.340
1730,-0.2822,-0.2871,-0.9316,-0.916,0.183,-0.427,-163.191,16.364,-70.334
1740,-0.2837,-0.2866,-0.9297,-0.549,-0.244,-0.183,-163.191,16.370,-70.334
1750,-0.2842,-0.2856,-0.9272,0.000,-0.549,0.000,-163.185,16.370,-70.329
1760,-0.2832,-0.2876,-0.9238,0.549,-0.549,0.061,-163.174,16.375,-70.329
1770,-0.2842,-0.2847,-0.9219,0.916,-0.366,0.244,-163.163,16.381,-70.329
1780,-0.2837,-0.2856,-0.9209,1.038,-0.061,0.427,-163.152,16.381,-70.334
1790,-0.2817,-0.2866,-0.9175,0.732,0.244,0.610,-163.141,16.381,-70.340
1800,-0.2832,-0.2852,-0.9204,-0.244,0.305,0.793,-163.141,16.381,-70.351
1810,-0.2832,-0.2822,-0.9224,-0.610,0.366,0.854,-163.147,16.381,-70.362
1820,-0.2847,-0.2788,-0.9248,-0.610,0.427,0.732,-163.158,16.381,-70.367
1830,-0.2812,-0.2778,-0.9233,0.000,0.305,0.549,-163.163,16.375,-70.373
1840,-0.2798,-0.2754,-0.9233,0.427,0.000,0.488,-163.158,16.375,-70.378
1850,-0.2822,-0.2754,-0.9204,0.854,-0.366,0.488,-163.152,16.381,-70.384
1860,-0.2837,-0.2778,-0.9185,1.343,-0.488,0.366,-163.141,16.386,-70.384
1870,-0.2837,-0.2812,-0.9180,1.465,-0.427,0.122,-163.125,16.392,-70.384
1880,-0.2827,-0.2847,-0.9160,1.099,-0.061,0.000,-163.109,16.392,-70.384
1890,-0.2827,-0.2856,-0.9146,0.671,0.427,0.000,-163.098,16.392,-70.389
1900,-0.2812,-0.2827,-0.9160,0.244,0.916,0.244,-163.098,16.381,-70.395
1910,-0.2803,-0.2837,-0.9170,0.000,1.343,0.427,-163.098,16.370,-70.400
1920,-0.2788,-0.2852,-0.9180,-0.122,1.465,0.549,-163.098,16.353,-70.411
1930,-0.2773,-0.2847,-0.9160,-0.183,1.404,0.732,-163.098,16.342,-70.422
1940,-0.2788,-0.2852,-0.9209,-0.244,1.221,0.916,-163.103,16.331,-70.433
1950,-0.2812,-0.2812,-0.9248,-0.366,1.221,1.099,-163.109,16.320,-70.450
1960,-0.2808,-0.2778,-0.9229,-0.061,1.282,1.099,-163.114,16.309,-70.466
1970,-0.2812,-0.2788,-0.9248,0.366,1.404,0.977,-163.114,16.298,-70.477
1980,-0.2832,-0.2788,-0.9224,0.793,1.343,0.732,-163.114,16.293,-70.488
1990,-0.2832,-0.2817,-0.9199,1.038,1.343,0.610,-163.103,16.282,-70.499
2000,-0.2822,-0.2827,-0.9194,0.916,1.343,0.549,-163.092,16.271,-70.510
2010,-0.2822,-0.2817,-0.9214,0.488,1.343,0.610,-163.092,16.260,-70.521
2020,-0.2827,-0.2808,-0.9233,-0.061,1.465,0.732,-163.098,16.249,-70.532
2030,-0.2852,-0.2769,-0.9238,-0.488,1.587,0.793,-163.103,16.238,-70.543
2040,-0.2856,-0.2764,-0.9302,-0.488,1.587,0.793,-163.120,16.227,-70.560
2050,-0.2832,-0.2754,-0.9307,-0.244,1.648,0.732,-163.125,16.216,-70.571
2060,-0.2808,-0.2759,-0.9326,0.000,1.465,0.610,-163.136,16.199,-70.582
2070,-0.2812,-0.2788,-0.9282,0.122,1.282,0.671,-163.136,16.188,-70.593
2080,-0.2812,-0.2793,-0.9277,0.122,1.038,0.854,-163.141,16.183,-70.604
2090,-0.2832,-0.2793,-0.9272,-0.061,0.977,1.160,-163.147,16.177,-70.615
2100,-0.2847,-0.2803,-0.9258,-0.305,1.038,1.404,-163.152,16.172,-70.631
2110,-0.2837,-0.2817,-0.9219,-0.793,1.160,1.709,-163.163,16.172,-70.653
2120,-0.2803,-0.2832,-0.9238,-1.526,1.648,1.892,-163.185,16.161,-70.681
2130,-0.2788,-0.2793,-0.9238,-2.441,2.380,2.197,-163.218,16.144,-70.708
2140,-0.2769,-0.2764,-0.9268,-3.296,3.235,2.502,-163.262,16.117,-70.741
2150,-0.2734,-0.2725,-0.9341,-3.723,3.967,2.686,-163.312,16.084,-70.779
2160,-0.2710,-0.2690,-0.9365,-3.540,4.395,2.747,-163.367,16.046,-70.823
2170,-0.2695,-0.2661,-0.9404,-2.930,4.150,2.625,-163.416,16.007,-70.862
2180,-0.2710,-0.2671,-0.9409,-2.319,3.662,2.380,-163.455,15.974,-70.895
2190,-0.2710,-0.2651,-0.9409,-1.770,2.808,1.953,-163.488,15.947,-70.922
2200,-0.2715,-0.2637,-0.9399,-1.404,2.136,1.587,-163.515,15.930,-70.944
2210,-0.2720,-0.2632,-0.9404,-1.160,1.465,1.160,-163.537,15.914,-70.961
2220,-0.2725,-0.2632,-0.9351,-0.977,0.854,0.610,-163.559,15.903,-70.966
2230,-0.2739,-0.2642,-0.9336,-0.732,0.366,0.000,-163.575,15.897,-70.972
2240,-0.2778,-0.2681,-0.9326,-0.427,-0.061,-0.549,-163.581,15.897,-70.966
2250,-0.2769,-0.2705,-0.9268,-0.244,-0.183,-1.038,-163.581,15.897,-70.955
2260,-0.2773,-0.2729,-0.9248,-0.366,-0.183,-1.343,-163.581,15.897,-70.939
2270,-0.2778,-0.2759,-0.9238,-0.793,-0.427,-1.404,-163.581,15.903,-70.922
2280,-0.2788,-0.2778,-0.9243,-1.160,-0.854,-1.221,-163.586,15.908,-70.911
2290,-0.2798,-0.2744,-0.9229,-1.282,-1.099,-1.160,-163.592,15.919,-70.895
2300,-0.2817,-0.2759,-0.9219,-1.099,-1.343,-1.160,-163.597,15.930,-70.878
2310,-0.2793,-0.2754,-0.9233,-0.854,-1.282,-1.099,-163.597,15.941,-70.862
2320,-0.2769,-0.2744,-0.9199,-0.305,-1.221,-1.099,-163.597,15.952,-70.851
2330,-0.2769,-0.2725,-0.9199,0.305,-1.099,-1.160,-163.586,15.963,-70.834
2340,-0.2773,-0.2739,-0.9204,0.916,-1.038,-1.282,-163.575,15.969,-70.818
2350,-0.2793,-0.2788,-0.9194,1.160,-1.099,-1.404,-163.553,15.980,-70.801
2360,-0.2803,-0.2798,-0.9199,0.977,-1.160,-1.587,-163.531,15.985,-70.785
2370,-0.2832,-0.2832,-0.9224,0.305,-0.977,-1.526,-163.521,15.996,-70.763
2380,-0.2842,-0.2852,-0.9258,-0.366,-0.549,-1.343,-163.515,16.002,-70.752
2390,-0.2827,-0.2856,-0.9292,-0.793,-0.305,-1.099,-163.510,16.002,-70.735
2400,-0.2832,-0.2861,-0.9321,-0.793,-0.183,-0.732,-163.510,16.007,-70.730
2410,-0.2837,-0.2832,-0.9360,-0.427,-0.305,-0.488,-163.510,16.007,-70.724
2420,-0.2827,-0.2861,-0.9355,0.183,-0.549,-0.244,-163.504,16.013,-70.719
2430,-0.2832,-0.2876,-0.9351,0.732,-0.793,0.061,-163.488,16.024,-70.719
2440,-0.2832,-0.2856,-0.9355,1.038,-1.038,0.366,-163.471,16.035,-70.719
2450,-0.2822,-0.2842,-0.9346,1.221,-1.282,0.732,-163.460,16.051,-70.724
2460,-0.2812,-0.2837,-0.9341,1.343,-1.465,0.977,-163.444,16.068,-70.730
2470,-0.2832,-0.2822,-0.9302,1.465,-1.587,1.099,-163.427,16.084,-70.735
2480,-0.2817,-0.2798,-0.9282,1.648,-1.587,1.160,-163.411,16.106,-70.741
2490,-0.2817,-0.2778,-0.9258,1.709,-1.526,1.160,-163.394,16.128,-70.746
2500,-0.2803,-0.2783,-0.9199,1.465,-1.587,1.221,-163.378,16.144,-70.757
2510,-0.2822,-0.2798,-0.9199,0.671,-1.587,1.404,-163.372,16.166,-70.763
2520,-0.2837,-0.2793,-0.9219,0.366,-1.587,1.404,-163.367,16.188,-70.774
2530,-0.2842,-0.2778,-0.9209,-0.122,-1.221,1.526,-163.372,16.205,-70.785
2540,-0.2808,-0.2759,-0.9224,-0.610,-0.427,1.831,-163.383,16.216,-70.801
2550,-0.2798,-0.2754,-0.9253,-0.610,0.000,1.892,-163.394,16.221,-70.823
2560,-0.2788,-0.2710,-0.9272,-0.610,0.122,1.892,-163.411,16.221,-70.840
2570,-0.2803,-0.2686,-0.9287,-0.122,-0.244,1.709,-163.422,16.232,-70.856
2580,-0.2788,-0.2676,-0.9268,0.366,-0.793,1.404,-163.422,16.243,-70.867
2590,-0.2788,-0.2681,-0.9224,0.732,-1.526,1.099,-163.422,16.260,-70.873
2600,-0.2798,-0.2695,-0.9233,1.099,-1.831,0.916,-163.416,16.276,-70.878
2610,-0.2788,-0.2744,-0.9155,0.854,-1.770,0.732,-163.405,16.298,-70.878
2620,-0.2759,-0.2744,-0.9146,-0.427,-1.465,0.793,-163.411,16.309,-70.884
2630,-0.2744,-0.2695,-0.9131,-1.221,-0.977,0.793,-163.427,16.320,-70.889
2640,-0.2764,-0.2695,-0.9175,-1.282,-0.488,0.854,-163.444,16.326,-70.895
2650,-0.2769,-0.2700,-0.9229,-1.038,0.000,0.793,-163.455,16.326,-70.906
2660,-0.2778,-0.2715,-0.9238,-0.549,0.183,0.488,-163.466,16.320,-70.911
2670,-0.2769,-0.2725,-0.9229,-0.061,0.244,0.366,-163.466,16.320,-70.917
2680,-0.2764,-0.2739,-0.9229,0.366,0.366,0.427,-163.466,16.315,-70.917
2690,-0.2764,-0.2734,-0.9238,0.488,0.366,0.549,-163.466,16.309,-70.928
2700,-0.2749,-0.2759,-0.9185,0.305,0.366,0.549,-163.460,16.304,-70.933
2710,-0.2769,-0.2754,-0.9229,0.000,0.427,0.549,-163.460,16.298,-70.939
2720,-0.2788,-0.2764,-0.9214,-0.366,0.427,0.610,-163.466,16.293,-70.944
2730,-0.2783,-0.2739,-0.9268,-0.732,0.488,0.671,-163.477,16.287,-70.955
2740,-0.2769,-0.2720,-0.9287,-0.793,0.488,0.610,-163.488,16.282,-70.961
2750,-0.2769,-0.2700,-0.9307,-0.549,0.549,0.488,-163.499,16.276,-70.966
2760,-0.2773,-0.2690,-0.9297,-0.122,0.488,0.427,-163.504,16.271,-70.977
2771,-0.2808,-0.2686,-0.9316,0.305,0.366,0.305,-163.504,16.265,-70.977
2780,-0.2822,-0.2686,-0.9316,0.488,0.305,-0.061,-163.504,16.260,-70.977
2790,-0.2827,-0.2705,-0.9287,0.549,0.183,-0.244,-163.504,16.260,-70.977
2800,-0.2837,-0.2695,-0.9268,0.488,0.000,-0.122,-163.499,16.260,-70.977
2810,-0.2832,-0.2734,-0.9243,0.366,-0.061,-0.061,-163.499,16.260,-70.977
2820,-0.2856,-0.2729,-0.9238,0.122,-0.061,-0.061,-163.493,16.265,-70.972
2830,-0.2881,-0.2710,-0.9253,-0.122,0.000,0.000,-163.499,16.271,-70.972
2840,-0.2876,-0.2720,-0.9243,-0.305,0.244,-0.122,-163.504,16.271,-70.972
2850,-0.2856,-0.2734,-0.9238,-0.549,0.549,-0.305,-163.510,16.265,-70.972
2860,-0.2842,-0.2744,-0.9277,-1.038,0.732,-0.427,-163.515,16.260,-70.972
2870,-0.2832,-0.2749,-0.9302,-1.465,0.793,-0.305,-163.531,16.249,-70.972
2880,-0.2803,-0.2744,-0.9297,-1.526,0.549,-0.122,-163.548,16.243,-70.972
2890,-0.2837,-0.2720,-0.9302,-1.282,-0.061,0.061,-163.559,16.243,-70.972
2900,-0.2852,-0.2729,-0.9316,-0.732,-0.610,0.061,-163.570,16.254,-70.972
2910,-0.2852,-0.2734,-0.9282,-0.061,-0.916,-0.183,-163.570,16.265,-70.966
2920,-0.2837,-0.2764,-0.9272,0.305,-0.916,-0.366,-163.564,16.271,-70.961
2930,-0.2812,-0.2778,-0.9253,0.366,-0.916,-0.427,-163.553,16.276,-70.950
2940,-0.2812,-0.2749,-0.9229,0.305,-1.038,-0.366,-163.548,16.287,-70.944
2950,-0.2837,-0.2744,-0.9194,0.427,-1.038,-0.366,-163.542,16.298,-70.939
2960,-0.2842,-0.2739,-0.9185,0.610,-0.977,-0.366,-163.531,16.309,-70.933
2970,-0.2852,-0.2759,-0.9170,0.854,-0.854,-0.366,-163.515,16.320,-70.928
2980,-0.2871,-0.2773,-0.9165,0.916,-0.610,-0.366,-163.504,16.326,-70.922
2990,-0.2842,-0.2803,-0.9160,1.038,-0.122,-0.427,-163.488,16.326,-70.917
3000,-0.2817,-0.2827,-0.9160,0.732,0.427,-0.488,-163.471,16.326,-70.911
3010,-0.2793,-0.2837,-0.9204,0.000,0.977,-0.427,-163.466,16.309,-70.911
3020,-0.2783,-0.2861,-0.9253,-0.671,1.282,-0.183,-163.466,16.298,-70.911
3030,-0.2793,-0.2822,-0.9292,-1.282,1.282,0.305,-163.477,16.282,-70.917
3040,-0.2812,-0.2769,-0.9312,-1.343,0.977,0.732,-163.493,16.276,-70.928
3050,-0.2808,-0.2744,-0.9360,-0.916,0.732,0.854,-163.504,16.265,-70.939
3060,-0.2817,-0.2754,-0.9380,-0.122,0.488,0.732,-163.510,16.265,-70.950
3070,-0.2808,-0.2744,-0.9375,0.732,0.183,0.610,-163.510,16.260,-70.955
3080,-0.2808,-0.2739,-0.9341,1.343,-0.122,0.549,-163.499,16.260,-70.961
3090,-0.2812,-0.2725,-0.9307,1.648,-0.488,0.610,-163.482,16.265,-70.966
3100,-0.2852,-0.2744,-0.9287,1.587,-0.793,0.549,-163.471,16.276,-70.966
3110,-0.2866,-0.2754,-0.9233,1.221,-0.977,0.305,-163.455,16.293,-70.966
3120,-0.2861,-0.2744,-0.9233,0.671,-0.977,0.122,-163.449,16.304,-70.966
3130,-0.2861,-0.2783,-0.9229,0.061,-0.488,0.000,-163.449,16.309,-70.966
3140,-0.2842,-0.2769,-0.9258,-0.549,-0.061,0.061,-163.449,16.309,-70.966
3150,-0.2842,-0.2754,-0.9297,-0.854,0.305,0.244,-163.460,16.309,-70.972
3160,-0.2822,-0.2725,-0.9302,-0.610,0.122,0.366,-163.471,16.309,-70.972
3170,-0.2827,-0.2739,-0.9316,0.000,-0.122,0.366,-163.471,16.309,-70.977
3180,-0.2847,-0.2759,-0.9287,0.610,-0.366,0.305,-163.466,16.315,-70.977
3190,-0.2837,-0.2749,-0.9248,0.916,-0.488,0.305,-163.460,16.320,-70.977
3200,-0.2827,-0.2754,-0.9233,0.977,-0.427,0.305,-163.449,16.326,-70.983
3210,-0.2837,-0.2749,-0.9219,0.671,-0.244,0.305,-163.444,16.331,-70.983
3220,-0.2832,-0.2754,-0.9219,0.183,-0.061,0.488,-163.438,16.331,-70.988
3230,-0.2827,-0.2720,-0.9229,-0.183,0.183,0.793,-163.444,16.331,-70.999
3240,-0.2842,-0.2715,-0.9224,-0.183,0.366,0.793,-163.449,16.337,-71.005
3250,-0.2837,-0.2729,-0.9238,-0.061,0.488,0.610,-163.455,16.331,-71.016
3260,-0.2827,-0.2720,-0.9248,0.000,0.610,0.488,-163.460,16.326,-71.021
3271,-0.2822,-0.2734,-0.9199,-0.122,0.732,0.488,-163.460,16.320,-71.027
3280,-0.2788,-0.2725,-0.9233,-0.427,0.732,0.610,-163.471,16.315,-71.038
3290,-0.2783,-0.2725,-0.9268,-0.732,0.549,0.610,-163.482,16.309,-71.043
3300,-0.2783,-0.2720,-0.9287,-0.854,0.244,0.549,-163.493,16.304,-71.049
3310,-0.2808,-0.2710,-0.9312,-0.732,-0.122,0.427,-163.504,16.309,-71.054
3320,-0.2798,-0.2715,-0.9336,-0.305,-0.427,0.183,-163.510,16.309,-71.054
3330,-0.2778,-0.2715,-0.9307,0.122,-0.610,0.000,-163.510,16.309,-71.054
3340,-0.2778,-0.2754,-0.9263,0.488,-0.732,-0.183,-163.504,16.315,-71.049
3350,-0.2793,-0.2749,-0.9238,0.671,-0.854,-0.183,-163.493,16.320,-71.043
3360,-0.2783,-0.2764,-0.9219,0.732,-0.916,-0.183,-163.482,16.326,-71.038
3370,-0.2803,-0.2778,-0.9199,0.610,-0.793,-0.122,-163.477,16.337,-71.038
3380,-0.2808,-0.2764,-0.9219,0.366,-0.549,-0.122,-163.466,16.337,-71.032
3390,-0.2812,-0.2739,-0.9214,0.122,-0.427,-0.061,-163.466,16.342,-71.032
3400,-0.2827,-0.2749,-0.9219,0.000,-0.244,0.061,-163.466,16.342,-71.032
3410,-0.2832,-0.2749,-0.9233,0.061,-0.122,0.183,-163.466,16.348,-71.032
3420,-0.2837,-0.2729,-0.9199,0.122,0.122,0.183,-163.466,16.348,-71.032
3430,-0.2832,-0.2759,-0.9204,0.061,0.366,0.244,-163.466,16.348,-71.038
3440,-0.2832,-0.2759,-0.9238,-0.122,0.610,0.366,-163.466,16.342,-71.043
3450,-0.2856,-0.2754,-0.9248,-0.427,0.854,0.305,-163.471,16.337,-71.049
3460,-0.2871,-0.2759,-0.9233,-0.671,0.977,0.244,-163.477,16.331,-71.054
3470,-0.2842,-0.2739,-0.9243,-0.854,1.038,0.183,-163.488,16.320,-71.060
3480,-0.2832,-0.2749,-0.9277,-0.916,0.916,0.122,-163.499,16.315,-71.065
3490,-0.2847,-0.2759,-0.9307,-0.916,0.732,0.061,-163.510,16.304,-71.065
3500,-0.2847,-0.2744,-0.9326,-0.732,0.488,0.000,-163.515,16.304,-71.065
3510,-0.2856,-0.2754,-0.9297,-0.427,0.305,0.000,-163.521,16.298,-71.071
3520,-0.2852,-0.2744,-0.9312,0.000,0.183,0.000,-163.521,16.298,-71.071
3530,-0.2852,-0.2759,-0.9302,0.305,0.183,-0.061,-163.515,16.298,-71.071
3540,-0.2852,-0.2778,-0.9287,0.427,0.244,0.061,-163.510,16.298,-71.071
3550,-0.2827,-0.2803,-0.9287,0.244,0.305,0.183,-163.510,16.293,-71.071
3560,-0.2817,-0.2778,-0.9282,-0.183,0.244,0.366,-163.510,16.293,-71.076
3570,-0.2852,-0.2764,-0.9307,-0.366,0.122,0.549,-163.515,16.293,-71.082
3580,-0.2847,-0.2739,-0.9297,-0.061,0.000,0.610,-163.515,16.293,-71.087
3590,-0.2832,-0.2729,-0.9302,0.305,-0.122,0.610,-163.515,16.298,-71.087
3600,-0.2832,-0.2729,-0.9292,0.671,-0.366,0.610,-163.510,16.304,-71.087
3610,-0.2798,-0.2759,-0.9272,0.671,-0.549,0.549,-163.504,16.309,-71.087
3620,-0.2803,-0.2773,-0.9282,0.610,-0.854,0.488,-163.499,16.315,-71.087
3630,-0.2827,-0.2759,-0.9292,0.610,-1.038,0.488,-163.493,16.326,-71.087
3640,-0.2822,-0.2749,-0.9248,0.610,-0.916,0.427,-163.488,16.337,-71.087
3650,-0.2822,-0.2734,-0.9229,0.671,-0.610,0.427,-163.482,16.342,-71.087
3660,-0.2837,-0.2744,-0.9199,0.793,-0.305,0.488,-163.471,16.348,-71.087
3670,-0.2832,-0.2769,-0.9194,0.854,-0.122,0.610,-163.466,16.353,-71.087
3680,-0.2817,-0.2769,-0.9204,0.610,-0.122,0.732,-163.460,16.353,-71.087
3690,-0.2827,-0.2769,-0.9219,0.244,-0.183,0.671,-163.455,16.359,-71.087
3700,-0.2822,-0.2759,-0.9233,-0.244,-0.122,0.610,-163.460,16.364,-71.087
3710,-0.2837,-0.2744,-0.9224,-0.610,0.122,0.488,-163.466,16.364,-71.087
3720,-0.2866,-0.2700,-0.9248,-0.854,0.488,0.244,-163.477,16.359,-71.087
3730,-0.2842,-0.2666,-0.9297,-0.916,1.038,0.000,-163.493,16.353,-71.087
3740,-0.2847,-0.2646,-0.9321,-0.671,1.282,-0.183,-163.504,16.337,-71.087
3750,-0.2842,-0.2671,-0.9326,-0.244,1.099,-0.549,-163.515,16.326,-71.087
3760,-0.2812,-0.2686,-0.9336,0.183,0.549,-0.977,-163.515,16.315,-71.087
3771,-0.2808,-0.2681,-0.9307,0.549,-0.183,-1.282,-163.510,16.315,-71.076
3780,-0.2808,-0.2725,-0.9253,0.916,-0.854,-1.648,-163.493,16.315,-71.060
3790,-0.2832,-0.2764,-0.9204,1.221,-1.343,-1.709,-163.477,16.326,-71.038
3800,-0.2817,-0.2798,-0.9204,1.282,-1.282,-1.648,-163.455,16.331,-71.016
3810,-0.2812,-0.2856,-0.9199,0.977,-0.854,-1.526,-163.433,16.337,-70.999
3820,-0.2822,-0.2886,-0.9204,0.366,-0.061,-1.038,-163.416,16.331,-70.988
3830,-0.2827,-0.2876,-0.9229,-0.427,0.854,-0.366,-163.411,16.326,-70.988
3840,-0.2808,-0.2847,-0.9277,-1.038,1.404,0.366,-163.422,16.309,-70.994
3850,-0.2822,-0.2822,-0.9287,-1.099,1.648,0.916,-163.433,16.298,-71.010
3860,-0.2827,-0.2744,-0.9302,-0.854,1.404,1.343,-163.449,16.287,-71.027
3870,-0.2837,-0.2720,-0.9336,-0.366,0.916,1.587,-163.460,16.282,-71.043
3880,-0.2837,-0.2686,-0.9302,0.244,0.488,1.648,-163.466,16.282,-71.060
3890,-0.2842,-0.2646,-0.9282,0.732,0.122,1.465,-163.471,16.287,-71.076
3900,-0.2852,-0.2656,-0.9263,0.793,-0.122,1.282,-163.471,16.293,-71.087
3910,-0.2847,-0.2656,-0.9238,0.488,0.000,0.977,-163.471,16.298,-71.098
3920,-0.2822,-0.2656,-0.9238,-0.122,0.244,0.610,-163.482,16.298,-71.104
3930,-0.2808,-0.2676,-0.9238,-0.793,0.305,0.305,-163.493,16.298,-71.109
3940,-0.2817,-0.2729,-0.9248,-1.282,0.122,0.000,-163.504,16.293,-71.109
3950,-0.2808,-0.2734,-0.9287,-1.282,-0.061,-0.305,-163.521,16.293,-71.109
3960,-0.2769,-0.2725,-0.9287,-0.854,-0.244,-0.488,-163.526,16.293,-71.104
3970,-0.2764,-0.2749,-0.9268,-0.183,-0.549,-0.427,-163.526,16.293,-71.098
3980,-0.2773,-0.2778,-0.9243,0.061,-0.854,-0.244,-163.521,16.298,-71.093
3990,-0.2778,-0.2778,-0.9214,0.488,-0.854,-0.122,-163.515,16.304,-71.087
4000,-0.2803,-0.2778,-0.9160,0.549,-0.732,0.183,-163.504,16.309,-71.087
4010,-0.2798,-0.2754,-0.9170,0.427,-0.183,0.427,-163.499,16.315,-71.093
4020,-0.2803,-0.2749,-0.9180,0.183,0.427,0.488,-163.499,16.309,-71.098
4030,-0.2817,-0.2739,-0.9165,0.000,0.977,0.488,-163.499,16.304,-71.104
4040,-0.2817,-0.2710,-0.9175,-0.366,1.221,0.488,-163.504,16.293,-71.115
4050,-0.2812,-0.2690,-0.9189,-0.793,1.221,0.549,-163.515,16.282,-71.120
4060,-0.2832,-0.2690,-0.9194,-0.977,1.221,0.488,-163.531,16.276,-71.131
4070,-0.2832,-0.2690,-0.9199,-1.099,1.038,0.244,-163.542,16.271,-71.136
4080,-0.2832,-0.2676,-0.9219,-1.099,0.854,-0.061,-163.559,16.260,-71.136
4090,-0.2832,-0.2686,-0.9248,-1.038,0.977,-0.305,-163.570,16.254,-71.136
4100,-0.2832,-0.2700,-0.9248,-0.977,1.221,-0.549,-163.581,16.243,-71.136
4110,-0.2808,-0.2729,-0.9268,-1.038,1.587,-0.671,-163.592,16.227,-71.136
4120,-0.2832,-0.2769,-0.9258,-1.221,1.648,-0.671,-163.597,16.210,-71.131
4130,-0.2812,-0.2769,-0.9292,-1.404,1.587,-0.610,-163.614,16.188,-71.131
4140,-0.2808,-0.2778,-0.9341,-1.587,1.343,-0.549,-163.625,16.177,-71.131
4150,-0.2793,-0.2773,-0.9326,-1.587,1.221,-0.488,-163.636,16.161,-71.125
4160,-0.2783,-0.2754,-0.9336,-1.282,1.038,-0.366,-163.652,16.150,-71.125
4170,-0.2798,-0.2744,-0.9370,-0.732,0.916,-0.183,-163.658,16.139,-71.125
4180,-0.2817,-0.2734,-0.9336,0.000,0.732,0.000,-163.658,16.128,-71.131
4190,-0.2827,-0.2749,-0.9307,0.488,0.549,0.183,-163.652,16.128,-71.131
4200,-0.2817,-0.2749,-0.9307,0.610,0.488,0.183,-163.647,16.122,-71.136
4210,-0.2827,-0.2764,-0.9292,0.366,0.427,0.122,-163.641,16.122,-71.142
4220,-0.2822,-0.2749,-0.9282,0.000,0.305,0.183,-163.641,16.117,-71.142
4230,-0.2822,-0.2734,-0.9287,-0.183,0.305,0.183,-163.641,16.117,-71.142
4240,-0.2837,-0.2705,-0.9277,-0.305,0.244,0.244,-163.647,16.117,-71.147
4250,-0.2847,-0.2705,-0.9297,-0.183,0.244,0.305,-163.652,16.122,-71.153
4260,-0.2861,-0.2710,-0.9282,0.183,0.183,0.366,-163.652,16.122,-71.158
4271,-0.2856,-0.2720,-0.9302,0.305,0.183,0.183,-163.652,16.122,-71.158
4280,-0.2817,-0.2720,-0.9282,0.305,0.122,0.061,-163.647,16.128,-71.158
4290,-0.2822,-0.2744,-0.9263,0.000,0.000,0.061,-163.647,16.128,-71.158
4300,-0.2832,-0.2773,-0.9272,-0.366,0.000,0.061,-163.647,16.128,-71.158
4310,-0.2817,-0.2759,-0.9282,-0.793,0.122,0.183,-163.652,16.128,-71.164
4320,-0.2812,-0.2773,-0.9321,-0.977,0.244,0.427,-163.663,16.128,-71.169
4330,-0.2793,-0.2812,-0.9321,-0.793,0.244,0.610,-163.669,16.128,-71.175
4340,-0.2764,-0.2778,-0.9316,-0.427,0.244,0.732,-163.669,16.122,-71.180
4350,-0.2773,-0.2754,-0.9346,0.000,0.061,0.916,-163.674,16.122,-71.191
4360,-0.2764,-0.2725,-0.9331,0.610,-0.061,1.099,-163.669,16.122,-71.202
4370,-0.2778,-0.2700,-0.9302,1.160,-0.244,1.160,-163.663,16.128,-71.213
4380,-0.2803,-0.2686,-0.9287,1.404,-0.488,1.160,-163.652,16.139,-71.224
4390,-0.2803,-0.2710,-0.9243,1.465,-0.610,1.038,-163.641,16.144,-71.230
4400,-0.2798,-0.2734,-0.9258,1.282,-0.549,0.854,-163.630,16.155,-71.241
4410,-0.2769,-0.2729,-0.9238,0.732,-0.427,0.610,-163.625,16.161,-71.246
4420,-0.2764,-0.2734,-0.9238,0.183,-0.183,0.488,-163.619,16.161,-71.246
4430,-0.2754,-0.2739,-0.9233,-0.305,0.183,0.427,-163.625,16.155,-71.252
4440,-0.2759,-0.2715,-0.9287,-0.366,0.366,0.549,-163.630,16.155,-71.257
4450,-0.2769,-0.2720,-0.9316,-0.122,0.244,0.732,-163.636,16.150,-71.268
4460,-0.2773,-0.2705,-0.9331,0.305,0.061,0.793,-163.636,16.150,-71.274
4470,-0.2759,-0.2700,-0.9312,0.732,-0.183,0.793,-163.636,16.150,-71.285
4480,-0.2725,-0.2690,-0.9331,0.916,-0.488,0.916,-163.630,16.155,-71.290
4490,-0.2739,-0.2627,-0.9277,1.221,-0.793,1.099,-163.625,16.161,-71.301
4500,-0.2764,-0.2588,-0.9263,1.648,-1.160,1.038,-163.619,16.172,-71.307
4510,-0.2798,-0.2573,-0.9214,2.075,-1.160,0.671,-163.608,16.188,-71.312
4520,-0.2783,-0.2583,-0.9165,2.197,-1.038,0.122,-163.592,16.199,-71.307
4530,-0.2788,-0.2583,-0.9165,1.892,-0.732,-0.244,-163.575,16.205,-71.301
4540,-0.2812,-0.2646,-0.9136,1.221,-0.305,-0.610,-163.564,16.210,-71.296
4550,-0.2827,-0.2671,-0.9146,0.122,0.183,-0.916,-163.564,16.210,-71.290
4560,-0.2832,-0.2690,-0.9175,-1.160,0.488,-1.038,-163.575,16.205,-71.279
4570,-0.2876,-0.2686,-0.9204,-2.197,0.854,-1.099,-163.592,16.199,-71.268
4580,-0.2866,-0.2676,-0.9233,-2.747,1.465,-1.160,-163.625,16.188,-71.263
4590,-0.2881,-0.2715,-0.9272,-2.686,1.831,-1.038,-163.647,16.172,-71.257
4600,-0.2886,-0.2783,-0.9346,-2.502,1.953,-0.854,-163.669,16.150,-71.257
4610,-0.2861,-0.2827,-0.9399,-2.502,1.892,-0.732,-163.691,16.133,-71.252
4620,-0.2842,-0.2852,-0.9424,-2.563,1.648,-0.549,-163.707,16.117,-71.252
4630,-0.2808,-0.2861,-0.9453,-2.625,1.038,-0.122,-163.729,16.100,-71.257
4640,-0.2764,-0.2812,-0.9502,-2.380,0.305,0.305,-163.751,16.095,-71.257
4650,-0.2749,-0.2744,-0.9497,-1.526,-0.793,0.610,-163.773,16.100,-71.263
4660,-0.2744,-0.2705,-0.9434,0.000,-2.075,0.732,-163.773,16.117,-71.263
4670,-0.2783,-0.2676,-0.9370,1.831,-3.357,0.488,-163.757,16.150,-71.257
4680,-0.2798,-0.2661,-0.9243,3.540,-4.272,0.244,-163.718,16.188,-71.246
4690,-0.2832,-0.2666,-0.9155,4.639,-4.578,-0.122,-163.669,16.238,-71.235
4700,-0.2847,-0.2705,-0.9053,4.761,-3.967,-0.610,-163.614,16.276,-71.219
4710,-0.2852,-0.2793,-0.9014,3.540,-2.625,-1.038,-163.570,16.304,-71.197
4720,-0.2852,-0.2827,-0.9038,1.282,-0.854,-1.099,-163.542,16.315,-71.186
4730,-0.2837,-0.2803,-0.9092,-1.160,0.854,-0.732,-163.542,16.309,-71.180
4740,-0.2861,-0.2778,-0.9194,-2.930,1.831,-0.061,-163.570,16.293,-71.186
4750,-0.2900,-0.2749,-0.9268,-3.357,2.014,0.488,-163.608,16.282,-71.197
4760,-0.2910,-0.2715,-0.9312,-2.380,1.709,0.732,-163.636,16.271,-71.208
4771,-0.2900,-0.2710,-0.9365,-0.671,1.282,0.916,-163.647,16.265,-71.219
4780,-0.2891,-0.2720,-0.9360,1.099,0.854,1.099,-163.641,16.260,-71.235
4790,-0.2881,-0.2725,-0.9326,2.075,0.427,1.282,-163.625,16.260,-71.246
4800,-0.2861,-0.2734,-0.9302,2.075,0.000,1.404,-163.608,16.271,-71.263
4810,-0.2832,-0.2729,-0.9272,1.282,-0.427,1.282,-163.597,16.276,-71.274
4820,-0.2817,-0.2690,-0.9292,0.244,-0.793,1.160,-163.603,16.287,-71.285
4830,-0.2832,-0.2681,-0.9282,-0.427,-0.977,0.977,-163.614,16.298,-71.290
4840,-0.2832,-0.2666,-0.9287,-0.488,-0.854,0.549,-163.619,16.309,-71.296
4850,-0.2808,-0.2695,-0.9258,-0.061,-0.671,0.122,-163.625,16.315,-71.290
4860,-0.2812,-0.2749,-0.9277,0.488,-0.549,-0.183,-163.614,16.320,-71.290
4870,-0.2783,-0.2793,-0.9307,0.916,-0.549,-0.183,-163.603,16.320,-71.285
4880,-0.2778,-0.2803,-0.9253,1.099,-0.793,0.122,-163.586,16.326,-71.285
4890,-0.2793,-0.2817,-0.9229,1.160,-1.038,0.610,-163.570,16.337,-71.285
4900,-0.2803,-0.2822,-0.9214,1.221,-0.854,0.916,-163.553,16.342,-71.296
4910,-0.2803,-0.2793,-0.9199,1.099,-0.549,1.282,-163.542,16.353,-71.307
4920,-0.2788,-0.2759,-0.9175,0.854,-0.244,1.587,-163.537,16.359,-71.318
4930,-0.2798,-0.2729,-0.9199,0.732,-0.061,1.892,-163.531,16.364,-71.340
4940,-0.2788,-0.2715,-0.9189,0.610,0.122,1.892,-163.531,16.364,-71.356
4950,-0.2812,-0.2676,-0.9233,0.305,0.122,1.831,-163.537,16.370,-71.378
4960,-0.2793,-0.2642,-0.9224,0.305,0.183,1.526,-163.542,16.370,-71.395
4970,-0.2803,-0.2637,-0.9253,0.244,0.183,1.282,-163.548,16.370,-71.406
4980,-0.2808,-0.2661,-0.9282,0.244,0.122,0.916,-163.553,16.370,-71.417
4990,-0.2803,-0.2681,-0.9292,0.122,0.061,0.671,-163.559,16.370,-71.422
5000,-0.2832,-0.2695,-0.9272,0.183,0.000,0.366,-163.559,16.370,-71.428
5010,-0.2842,-0.2729,-0.9292,0.305,-0.061,0.122,-163.559,16.370,-71.428
5020,-0.2827,-0.2773,-0.9297,0.427,0.061,-0.061,-163.553,16.370,-71.428
5030,-0.2822,-0.2773,-0.9292,0.305,0.244,-0.061,-163.548,16.364,-71.428
5040,-0.2803,-0.2798,-0.9316,-0.061,0.549,0.122,-163.548,16.359,-71.428
5050,-0.2798,-0.2773,-0.9346,-0.305,0.793,0.549,-163.548,16.348,-71.439
5060,-0.2803,-0.2739,-0.9351,-0.244,0.854,0.977,-163.559,16.342,-71.450
5070,-0.2812,-0.2725,-0.9360,0.122,0.610,1.160,-163.564,16.337,-71.466
5080,-0.2822,-0.2686,-0.9336,0.610,0.244,1.221,-163.564,16.337,-71.477
5090,-0.2837,-0.2656,-0.9282,1.099,-0.183,1.282,-163.559,16.342,-71.488
5100,-0.2852,-0.2627,-0.9316,1.221,-0.671,1.282,-163.559,16.353,-71.499
5110,-0.2852,-0.2607,-0.9229,1.648,-0.732,1.099,-163.553,16.364,-71.510
5120,-0.2871,-0.2622,-0.9214,1.343,-0.610,0.854,-163.548,16.375,-71.516
5130,-0.2871,-0.2612,-0.9209,0.977,-0.366,0.549,-163.542,16.381,-71.521
5140,-0.2896,-0.2603,-0.9189,0.305,-0.244,0.122,-163.548,16.392,-71.521
5150,-0.2886,-0.2622,-0.9204,-0.183,-0.183,-0.305,-163.553,16.397,-71.516
5160,-0.2891,-0.2661,-0.9214,-0.610,-0.061,-0.732,-163.559,16.397,-71.510
5170,-0.2891,-0.2700,-0.9214,-0.977,0.000,-0.977,-163.570,16.397,-71.499
5180,-0.2881,-0.2729,-0.9268,-1.038,0.061,-1.038,-163.575,16.397,-71.488
5190,-0.2856,-0.2754,-0.9258,-0.977,-0.122,-0.977,-163.581,16.397,-71.477
5200,-0.2852,-0.2803,-0.9248,-1.465,-0.366,-0.732,-163.586,16.397,-71.472
5210,-0.2842,-0.2798,-0.9258,-1.465,-0.427,-0.427,-163.597,16.403,-71.466
5220,-0.2842,-0.2769,-0.9272,-0.671,-0.610,-0.122,-163.603,16.408,-71.461
5230,-0.2832,-0.2769,-0.9277,0.183,-0.305,0.183,-163.597,16.408,-71.461
5240,-0.2852,-0.2764,-0.9263,0.671,-0.366,0.427,-163.592,16.414,-71.466
5250,-0.2842,-0.2754,-0.9224,1.099,-0.366,0.488,-163.575,16.419,-71.472
5260,-0.2842,-0.2739,-0.9175,1.099,-0.610,0.549,-163.564,16.425,-71.472
5271,-0.2866,-0.2690,-0.9165,0.732,-0.427,0.610,-163.559,16.436,-71.477
5280,-0.2876,-0.2695,-0.9180,0.183,0.000,0.610,-163.559,16.441,-71.483
5290,-0.2871,-0.2676,-0.9185,-0.366,0.610,0.732,-163.570,16.441,-71.494
5300,-0.2871,-0.2656,-0.9209,-1.038,1.038,0.671,-163.586,16.436,-71.505
5310,-0.2856,-0.2686,-0.9292,-1.648,1.282,0.610,-163.608,16.425,-71.516
5320,-0.2856,-0.2690,-0.9292,-1.831,1.404,0.427,-163.630,16.414,-71.521
5330,-0.2837,-0.2686,-0.9341,-1.587,1.343,0.305,-163.652,16.397,-71.526
5340,-0.2842,-0.2686,-0.9346,-1.099,1.160,0.183,-163.669,16.386,-71.532
5350,-0.2808,-0.2739,-0.9355,-0.549,1.038,0.061,-163.674,16.375,-71.537
5360,-0.2788,-0.2769,-0.9370,-0.427,0.916,-0.061,-163.680,16.359,-71.537
5370,-0.2788,-0.2773,-0.9355,-0.549,0.671,0.000,-163.680,16.348,-71.543
5380,-0.2764,-0.2769,-0.9395,-0.671,0.366,0.000,-163.685,16.342,-71.543
5390,-0.2759,-0.2754,-0.9375,-0.488,-0.061,0.061,-163.691,16.337,-71.543
5400,-0.2773,-0.2734,-0.9365,0.244,-0.427,0.122,-163.691,16.337,-71.543
5410,-0.2773,-0.2715,-0.9321,1.404,-0.732,0.122,-163.674,16.337,-71.543
5420,-0.2793,-0.2710,-0.9263,2.441,-0.977,0.122,-163.652,16.348,-71.543
5430,-0.2812,-0.2695,-0.9214,3.174,-1.099,0.183,-163.619,16.359,-71.537
5440,-0.2837,-0.2705,-0.9185,3.296,-1.221,0.244,-163.586,16.370,-71.537
5450,-0.2871,-0.2720,-0.9131,2.686,-1.160,0.122,-163.559,16.386,-71.537
5460,-0.2896,-0.2695,-0.9097,1.770,-1.099,0.122,-163.537,16.403,-71.532
5470,-0.2910,-0.2686,-0.9106,0.793,-0.671,0.000,-163.531,16.414,-71.532
5480,-0.2910,-0.2690,-0.9102,0.061,-0.122,-0.122,-163.531,16.425,-71.532
5490,-0.2900,-0.2695,-0.9111,-0.305,0.305,-0.244,-163.531,16.425,-71.526
5500,-0.2881,-0.2720,-0.9116,-0.549,0.610,-0.305,-163.537,16.425,-71.526
5510,-0.2871,-0.2715,-0.9131,-0.793,0.854,-0.366,-163.542,16.419,-71.526
5520,-0.2866,-0.2715,-0.9180,-0.916,1.038,-0.305,-163.553,16.408,-71.526
5530,-0.2847,-0.2734,-0.9214,-0.916,1.221,-0.244,-163.559,16.397,-71.526
5540,-0.2847,-0.2749,-0.9263,-0.854,1.282,-0.244,-163.570,16.386,-71.526
5550,-0.2837,-0.2764,-0.9253,-0.732,1.343,-0.183,-163.575,16.370,-71.532
5560,-0.2871,-0.2773,-0.9287,-0.671,1.221,-0.122,-163.581,16.359,-71.532
5570,-0.2856,-0.2749,-0.9312,-0.366,0.977,0.061,-163.581,16.353,-71.537
5580,-0.2861,-0.2759,-0.9321,0.061,0.854,0.061,-163.581,16.342,-71.537
5590,-0.2866,-0.2793,-0.9297,0.488,0.854,-0.061,-163.575,16.337,-71.543
5600,-0.2871,-0.2793,-0.9307,0.793,1.038,0.000,-163.564,16.331,-71.543
5610,-0.2866,-0.2793,-0.9297,0.732,1.282,0.183,-163.559,16.320,-71.548
5620,-0.2852,-0.2778,-0.9326,0.305,1.404,0.488,-163.553,16.309,-71.559
5630,-0.2822,-0.2759,-0.9336,-0.122,1.160,0.854,-163.559,16.298,-71.570
5640,-0.2861,-0.2686,-0.9321,-0.183,0.671,1.038,-163.570,16.293,-71.581
5650,-0.2861,-0.2632,-0.9312,0.305,0.122,0.977,-163.575,16.298,-71.592
5660,-0.2871,-0.2598,-0.9302,1.038,-0.183,0.793,-163.575,16.304,-71.603
5670,-0.2876,-0.2661,-0.9224,1.770,-0.183,0.427,-163.559,16.309,-71.603
5680,-0.2856,-0.2700,-0.9219,1.892,0.061,0.000,-163.542,16.315,-71.603
5690,-0.2832,-0.2734,-0.9219,1.221,0.427,-0.244,-163.531,16.309,-71.603
5700,-0.2798,-0.2729,-0.9199,0.061,0.732,-0.183,-163.531,16.304,-71.603
5710,-0.2808,-0.2734,-0.9229,-0.916,0.793,0.061,-163.537,16.293,-71.609
5720,-0.2827,-0.2715,-0.9282,-1.221,0.854,0.183,-163.553,16.287,-71.609
5730,-0.2822,-0.2715,-0.9282,-0.916,0.916,0.122,-163.564,16.276,-71.614
5740,-0.2808,-0.2729,-0.9331,-0.244,0.977,0.122,-163.570,16.265,-71.620
5750,-0.2803,-0.2764,-0.9297,0.366,1.099,0.366,-163.570,16.254,-71.625
5760,-0.2812,-0.2764,-0.9316,0.610,1.099,0.732,-163.564,16.249,-71.636
5771,-0.2822,-0.2725,-0.9316,0.366,1.038,1.160,-163.564,16.238,-71.653
5780,-0.2832,-0.2705,-0.9331,0.061,0.916,1.404,-163.570,16.232,-71.669
5790,-0.2842,-0.2646,-0.9336,-0.183,0.793,1.343,-163.586,16.232,-71.686
5800,-0.2842,-0.2642,-0.9346,-0.244,0.549,0.977,-163.597,16.232,-71.697
5810,-0.2817,-0.2632,-0.9341,-0.183,0.427,0.488,-163.608,16.227,-71.702
5820,-0.2808,-0.2656,-0.9336,-0.122,0.305,0.183,-163.614,16.221,-71.702
5830,-0.2773,-0.2671,-0.9312,-0.122,0.122,0.000,-163.619,16.221,-71.702
5840,-0.2778,-0.2700,-0.9297,-0.122,-0.122,-0.305,-163.619,16.216,-71.702
5850,-0.2769,-0.2734,-0.9287,0.000,-0.366,-0.488,-163.619,16.216,-71.697
5860,-0.2769,-0.2725,-0.9297,0.183,-0.488,-0.732,-163.614,16.216,-71.686
5870,-0.2788,-0.2744,-0.9268,0.427,-0.366,-0.732,-163.608,16.216,-71.680
5880,-0.2793,-0.2744,-0.9248,0.793,-0.183,-0.671,-163.597,16.216,-71.669
5890,-0.2778,-0.2749,-0.9238,1.038,0.000,-0.610,-163.581,16.216,-71.664
5900,-0.2808,-0.2744,-0.9189,1.160,0.244,-0.366,-163.570,16.210,-71.664
5910,-0.2832,-0.2739,-0.9199,0.977,0.427,0.000,-163.559,16.210,-71.664
5920,-0.2856,-0.2734,-0.9224,0.488,0.732,0.305,-163.553,16.205,-71.669
5930,-0.2866,-0.2734,-0.9209,-0.244,1.160,0.488,-163.559,16.199,-71.675
5941,-0.2871,-0.2700,-0.9272,-0.977,1.526,0.488,-163.570,16.194,-71.686
5950,-0.2852,-0.2676,-0.9321,-1.526,1.587,0.488,-163.592,16.183,-71.697
5961,-0.2842,-0.2681,-0.9336,-1.648,1.404,0.488,-163.614,16.172,-71.702
5971,-0.2832,-0.2700,-0.9370,-1.526,1.099,0.305,-163.636,16.161,-71.713
5981,-0.2812,-0.2710,-0.9380,-1.282,0.671,0.000,-163.652,16.155,-71.713
5991,-0.2812,-0.2686,-0.9404,-0.916,0.366,-0.122,-163.663,16.150,-71.713
6001,-0.2798,-0.2715,-0.9399,-0.305,0.122,-0.122,-163.669,16.144,-71.713
6011,-0.2812,-0.2729,-0.9380,0.244,-0.305,-0.244,-163.669,16.144,-71.708
6021,-0.2812,-0.2744,-0.9360,0.610,-0.549,-0.427,-163.658,16.150,-71.702
6031,-0.2822,-0.2725,-0.9312,0.732,-0.793,-0.488,-163.652,16.155,-71.697
6041,-0.2817,-0.2773,-0.9321,0.671,-0.916,-0.427,-163.641,16.166,-71.686
6051,-0.2827,-0.2778,-0.9287,0.610,-0.977,-0.244,-163.630,16.172,-71.686
6061,-0.2827,-0.2759,-0.9272,0.427,-1.221,-0.061,-163.619,16.188,-71.680
6071,-0.2856,-0.2734,-0.9243,0.732,-1.160,0.183,-163.614,16.199,-71.675
6081,-0.2832,-0.2739,-0.9219,1.099,-1.038,0.366,-163.603,16.216,-71.680
6091,-0.2817,-0.2764,-0.9194,0.916,-0.916,0.488,-163.586,16.227,-71.680
6101,-0.2808,-0.2769,-0.9180,-0.183,-0.854,0.610,-163.586,16.238,-71.686
6111,-0.2798,-0.2773,-0.9209,-0.916,-0.916,0.732,-163.592,16.249,-71.686
6121,-0.2778,-0.2720,-0.9219,-0.977,-0.488,0.732,-163.603,16.254,-71.697
6131,-0.2773,-0.2690,-0.9238,-0.916,-0.183,0.732,-163.619,16.254,-71.702
6141,-0.2773,-0.2739,-0.9199,-0.427,0.061,0.732,-163.619,16.254,-71.708
6151,-0.2827,-0.2622,-0.9160,-0.488,-0.061,0.671,-163.630,16.260,-71.713
6161,-0.2832,-0.2637,-0.9150,-0.610,-0.366,0.427,-163.641,16.265,-71.719
6171,-0.2876,-0.2671,-0.9141,-0.549,-0.244,0.244,-163.647,16.276,-71.719
6181,-0.2866,-0.2676,-0.9160,-0.488,0.305,0.061,-163.652,16.276,-71.724
6191,-0.2822,-0.2700,-0.9185,-0.427,1.038,-0.183,-163.658,16.271,-71.724
6201,-0.2783,-0.2739,-0.9194,-0.671,1.526,-0.183,-163.663,16.254,-71.724
6211,-0.2793,-0.2739,-0.9238,-1.160,1.587,0.183,-163.674,16.238,-71.730
6221,-0.2803,-0.2734,-0.9312,-1.343,1.648,0.427,-163.691,16.221,-71.741
6231,-0.2803,-0.2754,-0.9346,-1.221,1.648,0.366,-163.702,16.205,-71.752
6241,-0.2759,-0.2759,-0.9380,-1.221,1.709,0.305,-163.718,16.183,-71.757
6251,-0.2764,-0.2734,-0.9399,-0.916,1.648,0.427,-163.729,16.166,-71.768
6261,-0.2793,-0.2725,-0.9399,-0.305,1.404,0.732,-163.735,16.155,-71.779
6271,-0.2778,-0.2705,-0.9395,0.549,1.038,0.793,-163.735,16.144,-71.790
6281,-0.2832,-0.2729,-0.9341,1.526,0.549,0.610,-163.724,16.139,-71.796
6291,-0.2827,-0.2661,-0.9302,1.953,0.671,0.549,-163.707,16.139,-71.807
6301,-0.2822,-0.2695,-0.9238,1.892,0.122,0.244,-163.691,16.139,-71.807
6311,-0.2817,-0.2725,-0.9229,1.526,-0.305,0.000,-163.674,16.144,-71.807
6321,-0.2832,-0.2720,-0.9209,0.732,-0.732,0.061,-163.663,16.150,-71.807
6331,-0.2832,-0.2710,-0.9238,0.244,-0.732,0.061,-163.663,16.161,-71.801
6341,-0.2847,-0.2681,-0.9253,-0.122,-0.244,0.183,-163.663,16.166,-71.807
6351,-0.2832,-0.2700,-0.9282,-0.244,0.183,0.366,-163.669,16.166,-71.807
6361,-0.2808,-0.2695,-0.9277,-0.061,0.671,0.427,-163.674,16.166,-71.812
6371,-0.2808,-0.2690,-0.9277,0.061,0.793,0.427,-163.674,16.155,-71.823
6381,-0.2778,-0.2681,-0.9277,0.183,0.549,0.488,-163.680,16.155,-71.829
6391,-0.2769,-0.2646,-0.9312,0.183,0.183,0.610,-163.685,16.150,-71.834
6401,-0.2778,-0.2661,-0.9292,0.244,-0.122,0.671,-163.685,16.155,-71.840
6411,-0.2793,-0.2642,-0.9258,0.122,-0.366,0.610,-163.691,16.161,-71.845
6421,-0.2798,-0.2632,-0.9253,-0.244,-0.366,0.427,-163.696,16.166,-71.851
6431,-0.2778,-0.2642,-0.9248,-0.427,-0.305,0.122,-163.707,16.166,-71.851
6441,-0.2808,-0.2681,-0.9263,-0.488,-0.061,-0.183,-163.713,16.166,-71.845
6451,-0.2803,-0.2700,-0.9238,-0.549,0.244,-0.488,-163.718,16.166,-71.845
6461,-0.2798,-0.2666,-0.9272,-0.732,0.366,-0.549,-163.724,16.161,-71.840
6471,-0.2798,-0.2661,-0.9253,-0.671,0.366,-0.366,-163.735,16.155,-71.834
6481,-0.2773,-0.2695,-0.9258,-0.427,0.244,-0.244,-163.735,16.150,-71.834
6491,-0.2749,-0.2690,-0.9219,-0.305,0.183,-0.244,-163.740,16.144,-71.834
6501,-0.2739,-0.2700,-0.9189,-0.366,0.244,-0.122,-163.740,16.144,-71.834
6511,-0.2754,-0.2666,-0.9199,-0.671,0.549,0.061,-163.751,16.139,-71.834
6521,-0.2749,-0.2651,-0.9189,-1.282,1.038,0.183,-163.762,16.128,-71.840
6531,-0.2744,-0.2622,-0.9219,-1.953,1.648,0.122,-163.790,16.111,-71.845
6541,-0.2749,-0.2617,-0.9229,-2.380,2.319,0.122,-163.817,16.084,-71.851
6551,-0.2749,-0.2617,-0.9282,-2.563,2.808,0.061,-163.850,16.057,-71.862
6561,-0.2725,-0.2627,-0.9316,-2.502,2.930,-0.061,-163.883,16.029,-71.867
6571,-0.2739,-0.2607,-0.9351,-2.380,2.747,-0.305,-163.911,15.996,-71.873
6581,-0.2764,-0.2612,-0.9365,-1.831,2.319,-0.610,-163.938,15.974,-71.873
6591,-0.2759,-0.2637,-0.9385,-1.648,1.709,-0.916,-163.954,15.952,-71.873
6601,-0.2764,-0.2637,-0.9390,-1.343,1.221,-1.221,-163.971,15.936,-71.862
6611,-0.2788,-0.2642,-0.9365,-0.916,0.488,-1.526,-163.976,15.925,-71.851
6621,-0.2769,-0.2686,-0.9331,-0.549,0.000,-1.648,-163.976,15.925,-71.834
6631,-0.2803,-0.2710,-0.9307,-0.122,-0.183,-1.709,-163.971,15.919,-71.812
6641,-0.2808,-0.2720,-0.9351,0.061,-0.122,-1.709,-163.965,15.919,-71.796
6651,-0.2812,-0.2715,-0.9331,0.183,-0.061,-1.648,-163.954,15.919,-71.779
6661,-0.2817,-0.2754,-0.9297,0.061,0.061,-1.587,-163.949,15.914,-71.763
6671,-0.2803,-0.2739,-0.9307,-0.488,0.244,-1.465,-163.943,15.914,-71.752
6681,-0.2808,-0.2715,-0.9331,-0.732,0.305,-1.282,-163.949,15.908,-71.741
6691,-0.2793,-0.2686,-0.9341,-0.549,0.183,-1.099,-163.949,15.903,-71.730
6701,-0.2808,-0.2681,-0.9336,0.122,-0.122,-1.099,-163.943,15.903,-71.719
6711,-0.2808,-0.2695,-0.9316,0.793,-0.366,-1.099,-163.932,15.908,-71.702
6721,-0.2798,-0.2700,-0.9277,1.221,-0.549,-1.160,-163.916,15.914,-71.691
6731,-0.2803,-0.2710,-0.9272,1.038,-0.488,-1.160,-163.900,15.914,-71.680
6741,-0.2788,-0.2710,-0.9258,0.549,-0.305,-1.038,-163.889,15.919,-71.669
6751,-0.2788,-0.2710,-0.9292,-0.122,-0.122,-1.038,-163.889,15.919,-71.658
6761,-0.2773,-0.2710,-0.9282,-0.671,0.000,-1.038,-163.889,15.914,-71.647
6771,-0.2773,-0.2705,-0.9297,-0.854,-0.183,-0.916,-163.894,15.914,-71.636
6781,-0.2783,-0.2729,-0.9326,-0.671,-0.305,-0.671,-163.894,15.919,-71.631
6791,-0.2778,-0.2734,-0.9312,-0.183,-0.549,-0.549,-163.894,15.919,-71.620
6801,-0.2769,-0.2729,-0.9326,0.183,-0.732,-0.488,-163.889,15.925,-71.614
6811,-0.2764,-0.2754,-0.9326,0.427,-0.854,-0.305,-163.878,15.936,-71.609
6821,-0.2764,-0.2744,-0.9277,0.427,-0.793,-0.061,-163.872,15.941,-71.609
6831,-0.2769,-0.2729,-0.9292,0.305,-0.671,0.122,-163.861,15.947,-71.603
6841,-0.2788,-0.2715,-0.9272,0.183,-0.488,0.244,-163.861,15.958,-71.609
6851,-0.2778,-0.2720,-0.9263,0.122,-0.183,0.244,-163.856,15.958,-71.609
6861,-0.2778,-0.2759,-0.9277,-0.061,-0.061,0.366,-163.856,15.963,-71.614
6871,-0.2778,-0.2739,-0.9258,-0.305,-0.061,0.549,-163.856,15.963,-71.620
6881,-0.2793,-0.2700,-0.9292,-0.366,-0.061,0.671,-163.861,15.969,-71.625
6891,-0.2773,-0.2676,-0.9282,-0.122,-0.122,0.610,-163.867,15.969,-71.631
6901,-0.2803,-0.2656,-0.9258,0.183,-0.305,0.488,-163.867,15.980,-71.636
6911,-0.2803,-0.2651,-0.9243,0.732,-0.488,0.427,-163.861,15.985,-71.636
6921,-0.2803,-0.2671,-0.9229,1.099,-0.610,0.305,-163.850,15.996,-71.636
6931,-0.2808,-0.2705,-0.9224,1.099,-0.427,0.366,-163.839,16.002,-71.642
6941,-0.2803,-0.2686,-0.9194,0.610,-0.122,0.305,-163.828,16.007,-71.642
6951,-0.2769,-0.2700,-0.9229,-0.061,0.366,0.427,-163.828,16.007,-71.647
6961,-0.2798,-0.2686,-0.9292,-0.671,0.671,0.549,-163.839,16.002,-71.658
6971,-0.2793,-0.2676,-0.9307,-0.916,0.793,0.610,-163.850,15.996,-71.664
6981,-0.2798,-0.2671,-0.9326,-0.854,0.916,0.549,-163.867,15.991,-71.675
6991,-0.2803,-0.2646,-0.9336,-0.488,0.793,0.671,-163.878,15.985,-71.680
7001,-0.2798,-0.2646,-0.9336,0.000,0.488,0.793,-163.883,15.985,-71.691
7011,-0.2793,-0.2661,-0.9341,0.366,0.366,0.854,-163.883,15.985,-71.702
7021,-0.2793,-0.2651,-0.9341,0.305,0.183,0.916,-163.883,15.985,-71.708
7031,-0.2788,-0.2642,-0.9331,0.000,0.183,0.793,-163.889,15.985,-71.719
7041,-0.2778,-0.2661,-0.9341,-0.305,0.122,0.732,-163.894,15.991,-71.724
7051,-0.2759,-0.2656,-0.9355,-0.549,-0.122,0.610,-163.905,15.991,-71.730
7061,-0.2783,-0.2656,-0.9336,-0.488,-0.488,0.427,-163.916,15.996,-71.735
7071,-0.2773,-0.2661,-0.9336,-0.305,-0.854,0.244,-163.916,16.002,-71.735
7081,-0.2764,-0.2666,-0.9341,-0.061,-1.038,0.061,-163.922,16.013,-71.730
7091,-0.2744,-0.2676,-0.9312,0.305,-0.977,0.000,-163.916,16.018,-71.730
7101,-0.2734,-0.2695,-0.9312,0.610,-0.916,0.061,-163.911,16.029,-71.730
7111,-0.2744,-0.2705,-0.9297,0.793,-0.793,0.061,-163.900,16.035,-71.724
7121,-0.2739,-0.2700,-0.9287,0.793,-0.671,0.122,-163.889,16.035,-71.724
7131,-0.2764,-0.2676,-0.9238,0.732,-0.549,0.183,-163.883,16.040,-71.724
7141,-0.2749,-0.2656,-0.9219,0.732,-0.366,0.244,-163.878,16.046,-71.724
7151,-0.2759,-0.2651,-0.9204,0.793,-0.244,0.305,-163.872,16.051,-71.730
7161,-0.2739,-0.2646,-0.9160,0.732,-0.244,0.244,-163.861,16.051,-71.730
7171,-0.2715,-0.2637,-0.9170,0.488,-0.061,0.122,-163.861,16.051,-71.730
7181,-0.2715,-0.2656,-0.9136,0.244,0.244,0.061,-163.856,16.046,-71.735
7191,-0.2710,-0.2690,-0.9106,-0.244,0.732,0.061,-163.856,16.040,-71.735
7201,-0.2715,-0.2681,-0.9165,-0.854,1.648,0.183,-163.867,16.024,-71.741
7211,-0.2720,-0.2656,-0.9180,-1.404,2.563,0.427,-163.883,15.996,-71.752
7221,-0.2769,-0.2656,-0.9243,-1.648,3.235,0.610,-163.905,15.969,-71.768
7231,-0.2769,-0.2642,-0.9268,-1.404,3.662,0.549,-163.922,15.936,-71.785
7241,-0.2759,-0.2632,-0.9292,-1.160,3.723,0.305,-163.943,15.903,-71.801
7251,-0.2744,-0.2617,-0.9346,-1.282,3.723,0.061,-163.960,15.864,-71.812
7261,-0.2749,-0.2632,-0.9351,-1.221,3.540,-0.244,-163.976,15.831,-71.818
7271,-0.2783,-0.2656,-0.9395,-1.221,3.235,-0.427,-163.993,15.798,-71.823
7281,-0.2793,-0.2666,-0.9443,-1.526,2.869,-0.549,-164.015,15.771,-71.829
7291,-0.2773,-0.2661,-0.9434,-1.648,2.747,-0.610,-164.031,15.743,-71.829
7301,-0.2783,-0.2666,-0.9502,-1.526,2.319,-0.671,-164.048,15.721,-71.829
7311,-0.2793,-0.2642,-0.9487,-0.916,1.709,-0.671,-164.064,15.705,-71.829
7321,-0.2812,-0.2656,-0.9497,-0.122,1.099,-0.732,-164.064,15.694,-71.823
7331,-0.2783,-0.2666,-0.9482,0.793,0.549,-0.732,-164.059,15.688,-71.818
7341,-0.2798,-0.2695,-0.9473,1.343,0.122,-0.732,-164.042,15.688,-71.807
7351,-0.2788,-0.2700,-0.9414,1.404,-0.244,-0.610,-164.026,15.688,-71.801
7361,-0.2773,-0.2715,-0.9395,1.160,-0.427,-0.427,-164.015,15.694,-71.796
7371,-0.2798,-0.2710,-0.9346,0.732,-0.610,-0.305,-164.004,15.699,-71.790
7381,-0.2832,-0.2676,-0.9312,0.488,-0.732,-0.183,-163.998,15.716,-71.790
7391,-0.2808,-0.2681,-0.9316,0.366,-0.732,-0.122,-163.993,15.727,-71.785
7401,-0.2812,-0.2686,-0.9287,0.549,-0.610,-0.061,-163.982,15.738,-71.785
7411,-0.2803,-0.2705,-0.9263,0.732,-0.671,0.000,-163.971,15.749,-71.779
7421,-0.2773,-0.2734,-0.9258,0.671,-0.671,0.122,-163.960,15.754,-71.779
7431,-0.2764,-0.2759,-0.9263,0.427,-0.610,0.244,-163.954,15.765,-71.779
7441,-0.2764,-0.2739,-0.9302,0.000,-0.427,0.427,-163.949,15.771,-71.785
7451,-0.2754,-0.2725,-0.9326,-0.305,-0.244,0.732,-163.954,15.776,-71.790
7461,-0.2749,-0.2729,-0.9355,-0.183,-0.122,0.854,-163.954,15.782,-71.796
7471,-0.2754,-0.2729,-0.9326,0.122,-0.183,0.854,-163.954,15.782,-71.807
7481,-0.2725,-0.2744,-0.9355,0.366,-0.305,0.854,-163.949,15.787,-71.812
7491,-0.2715,-0.2749,-0.9331,0.549,-0.488,0.977,-163.943,15.793,-71.823
7501,-0.2700,-0.2705,-0.9336,0.793,-0.671,1.160,-163.932,15.798,-71.834
7511,-0.2720,-0.2646,-0.9307,1.160,-0.793,1.343,-163.927,15.809,-71.845
7521,-0.2744,-0.2598,-0.9312,1.709,-0.916,1.404,-163.922,15.820,-71.856
7531,-0.2749,-0.2573,-0.9277,2.319,-0.916,1.221,-163.905,15.837,-71.862
7541,-0.2759,-0.2578,-0.9277,2.625,-0.854,0.977,-163.889,15.848,-71.873
7551,-0.2783,-0.2573,-0.9263,2.441,-0.793,0.610,-163.867,15.859,-71.873
7561,-0.2773,-0.2603,-0.9297,1.648,-0.610,0.183,-163.856,15.870,-71.873
7571,-0.2739,-0.2578,-0.9312,0.671,-0.427,-0.122,-163.856,15.870,-71.873
7581,-0.2739,-0.2593,-0.9326,-0.122,-0.427,-0.427,-163.861,15.875,-71.867
7591,-0.2715,-0.2593,-0.9331,-0.366,-0.427,-0.488,-163.872,15.875,-71.862
7601,-0.2720,-0.2612,-0.9351,-0.244,-0.549,-0.549,-163.878,15.875,-71.856
7611,-0.2734,-0.2637,-0.9360,0.244,-0.732,-0.610,-163.878,15.881,-71.845
7621,-0.2725,-0.2695,-0.9302,1.343,-1.099,-0.366,-163.861,15.886,-71.840
7631,-0.2720,-0.2705,-0.9287,1.404,-1.099,-0.305,-163.845,15.897,-71.834
7641,-0.2729,-0.2715,-0.9268,0.916,-0.977,-0.183,-163.834,15.903,-71.829
7651,-0.2729,-0.2695,-0.9238,0.183,-0.854,0.061,-163.828,15.908,-71.829
7661,-0.2754,-0.2690,-0.9268,-0.427,-0.427,0.183,-163.834,15.914,-71.829
7671,-0.2739,-0.2695,-0.9287,-0.793,0.061,0.122,-163.839,15.914,-71.829
7681,-0.2729,-0.2686,-0.9302,-0.916,0.427,-0.061,-163.850,15.908,-71.829
7691,-0.2729,-0.2686,-0.9336,-0.793,0.366,-0.183,-163.861,15.903,-71.829
7701,-0.2725,-0.2720,-0.9341,-0.549,0.183,-0.244,-163.861,15.897,-71.829
7711,-0.2739,-0.2725,-0.9355,-0.366,0.000,-0.183,-163.867,15.897,-71.823
7721,-0.2759,-0.2686,-0.9360,-0.183,-0.183,-0.061,-163.867,15.897,-71.823
7731,-0.2769,-0.2686,-0.9341,0.122,-0.305,0.122,-163.867,15.897,-71.823
7741,-0.2788,-0.2686,-0.9336,0.427,-0.244,0.122,-163.867,15.903,-71.823
7751,-0.2803,-0.2676,-0.9341,0.610,-0.122,0.061,-163.861,15.908,-71.823
7761,-0.2778,-0.2671,-0.9336,0.427,-0.061,0.122,-163.856,15.908,-71.823
7772,-0.2778,-0.2671,-0.9326,0.183,-0.305,0.183,-163.856,15.914,-71.829
7781,-0.2773,-0.2632,-0.9321,0.000,-0.793,0.244,-163.861,15.919,-71.829
7791,-0.2798,-0.2583,-0.9307,0.061,-1.587,0.183,-163.867,15.941,-71.823
7801,-0.2832,-0.2578,-0.9263,0.610,-2.197,0.122,-163.867,15.963,-71.818
7811,-0.2876,-0.2598,-0.9238,1.160,-2.197,-0.061,-163.856,15.991,-71.812
7821,-0.2866,-0.2646,-0.9194,1.343,-1.709,-0.366,-163.839,16.013,-71.801
7831,-0.2842,-0.2695,-0.9189,0.916,-1.038,-0.488,-163.828,16.029,-71.796
7841,-0.2812,-0.2720,-0.9209,-0.183,-0.427,-0.488,-163.823,16.035,-71.790
7851,-0.2783,-0.2720,-0.9253,-1.404,-0.183,-0.488,-163.834,16.035,-71.785
7861,-0.2812,-0.2686,-0.9331,-2.197,-0.305,-0.366,-163.856,16.040,-71.779
7871,-0.2803,-0.2666,-0.9355,-2.197,-0.610,-0.366,-163.878,16.046,-71.774
7881,-0.2793,-0.2651,-0.9336,-1.221,-1.099,-0.488,-163.894,16.051,-71.768
7891,-0.2798,-0.2690,-0.9302,0.244,-1.648,-0.793,-163.883,16.068,-71.752
7901,-0.2793,-0.2749,-0.9243,1.526,-1.953,-1.221,-163.861,16.084,-71.735
7911,-0.2778,-0.2861,-0.9189,1.587,-1.831,-1.282,-163.828,16.095,-71.719
7921,-0.2749,-0.2944,-0.9160,0.916,-1.282,-0.793,-163.801,16.106,-71.708
7931,-0.2739,-0.2920,-0.9214,-0.427,-0.793,0.122,-163.790,16.111,-71.702
7941,-0.2734,-0.2900,-0.9238,-1.221,-0.305,1.099,-163.795,16.111,-71.713
7951,-0.2715,-0.2842,-0.9282,-1.526,-0.122,1.648,-163.806,16.111,-71.730
7961,-0.2710,-0.2788,-0.9316,-1.282,-0.366,2.014,-163.817,16.117,-71.752
7971,-0.2715,-0.2710,-0.9321,0.061,-0.854,2.319,-163.823,16.128,-71.768
7981,-0.2725,-0.2661,-0.9272,1.465,-1.099,2.441,-163.817,16.139,-71.790
7991,-0.2749,-0.2603,-0.9238,2.930,-1.404,2.258,-163.795,16.161,-71.812
8001,-0.2734,-0.2544,-0.9180,3.967,-1.648,1.892,-163.768,16.177,-71.823
8011,-0.2778,-0.2500,-0.9097,4.272,-1.892,1.282,-163.735,16.199,-71.829
8021,-0.2793,-0.2461,-0.9067,3.906,-1.831,0.793,-163.707,16.227,-71.834
8031,-0.2842,-0.2466,-0.9028,2.930,-1.404,0.244,-163.691,16.243,-71.834
8041,-0.2866,-0.2515,-0.9043,1.587,-0.488,-0.549,-163.680,16.254,-71.823
8051,-0.2900,-0.2559,-0.9053,0.061,0.732,-1.404,-163.680,16.254,-71.812
8061,-0.2881,-0.2617,-0.9136,-1.465,2.014,-1.953,-163.696,16.238,-71.801
8071,-0.2847,-0.2642,-0.9194,-2.563,2.869,-1.892,-163.718,16.205,-71.790
8081,-0.2852,-0.2710,-0.9243,-2.869,3.235,-1.709,-163.746,16.172,-71.779
8091,-0.2861,-0.2769,-0.9346,-3.052,3.052,-1.404,-163.773,16.144,-71.779
8101,-0.2827,-0.2788,-0.9385,-2.808,2.747,-1.099,-163.795,16.111,-71.774
8111,-0.2827,-0.2783,-0.9429,-2.625,2.197,-0.671,-163.817,16.089,-71.774
8121,-0.2803,-0.2808,-0.9443,-2.258,1.831,-0.183,-163.839,16.068,-71.779
8131,-0.2783,-0.2808,-0.9458,-1.892,1.526,0.183,-163.856,16.051,-71.785
8141,-0.2759,-0.2783,-0.9473,-1.587,1.099,0.366,-163.872,16.040,-71.790
8151,-0.2744,-0.2744,-0.9507,-1.221,0.610,0.671,-163.883,16.029,-71.796
8161,-0.2734,-0.2739,-0.9512,-0.732,0.061,0.793,-163.894,16.024,-71.807
8171,-0.2729,-0.2725,-0.9541,-0.183,-0.366,0.793,-163.900,16.024,-71.812
8181,-0.2720,-0.2666,-0.9556,0.610,-0.793,0.793,-163.900,16.029,-71.818
8191,-0.2715,-0.2568,-0.9473,1.709,-1.526,0.793,-163.894,16.040,-71.823
8201,-0.2729,-0.2539,-0.9404,3.174,-2.686,0.671,-163.872,16.062,-71.823
8211,-0.2803,-0.2515,-0.9282,4.578,-3.845,0.305,-163.834,16.100,-71.812
8221,-0.2847,-0.2529,-0.9136,5.188,-4.395,-0.244,-163.784,16.150,-71.796
8231,-0.2847,-0.2588,-0.9048,4.639,-3.906,-0.732,-163.740,16.188,-71.779
8241,-0.2852,-0.2627,-0.9033,2.869,-2.686,-0.977,-163.707,16.221,-71.763
8251,-0.2861,-0.2637,-0.9028,0.488,-1.160,-1.099,-163.696,16.238,-71.746
8261,-0.2842,-0.2666,-0.9082,-1.892,0.305,-1.038,-163.713,16.232,-71.735
8271,-0.2866,-0.2666,-0.9204,-3.601,1.343,-1.099,-163.746,16.221,-71.730
8281,-0.2852,-0.2656,-0.9268,-4.395,1.831,-1.160,-163.790,16.205,-71.724
8291,-0.2842,-0.2676,-0.9351,-4.211,1.770,-1.221,-163.834,16.183,-71.719
8301,-0.2817,-0.2705,-0.9424,-3.357,1.343,-1.282,-163.867,16.166,-71.708
8311,-0.2817,-0.2729,-0.9458,-2.014,0.732,-1.221,-163.883,16.155,-71.697
8321,-0.2798,-0.2749,-0.9434,-0.732,0.061,-1.160,-163.883,16.150,-71.686
8331,-0.2783,-0.2764,-0.9380,0.244,-0.732,-0.916,-163.878,16.150,-71.675
8341,-0.2769,-0.2759,-0.9351,0.793,-1.404,-0.671,-163.861,16.161,-71.664
8351,-0.2798,-0.2773,-0.9331,0.977,-1.770,-0.427,-163.845,16.172,-71.658
8361,-0.2827,-0.2734,-0.9302,0.916,-1.648,-0.366,-163.834,16.188,-71.647
8371,-0.2832,-0.2729,-0.9302,0.732,-1.282,-0.366,-163.823,16.199,-71.642
8381,-0.2817,-0.2739,-0.9272,0.610,-0.916,-0.366,-163.812,16.210,-71.631
8391,-0.2803,-0.2729,-0.9258,0.671,-0.793,-0.305,-163.801,16.216,-71.631
8401,-0.2822,-0.2710,-0.9219,0.732,-0.977,-0.122,-163.790,16.227,-71.625
8411,-0.2847,-0.2695,-0.9209,0.916,-1.282,0.000,-163.779,16.243,-71.620
8421,-0.2866,-0.2725,-0.9204,0.977,-1.221,0.122,-163.768,16.260,-71.620
8431,-0.2847,-0.2754,-0.9175,0.671,-0.854,0.000,-163.757,16.271,-71.614
8441,-0.2803,-0.2739,-0.9165,0.122,-0.427,-0.122,-163.746,16.271,-71.614
8451,-0.2793,-0.2725,-0.9199,-0.366,0.000,0.000,-163.751,16.271,-71.614
8461,-0.2783,-0.2725,-0.9219,-0.671,0.122,0.244,-163.757,16.271,-71.614
8471,-0.2817,-0.2661,-0.9233,-0.549,0.061,0.366,-163.762,16.271,-71.620
8481,-0.2817,-0.2642,-0.9263,-0.061,-0.122,0.244,-163.768,16.276,-71.620
8491,-0.2812,-0.2651,-0.9219,0.671,-0.305,0.061,-163.762,16.276,-71.620
8501,-0.2827,-0.2661,-0.9180,1.282,-0.305,-0.122,-163.751,16.282,-71.620
8511,-0.2822,-0.2666,-0.9146,1.404,-0.244,-0.244,-163.735,16.287,-71.614
8521,-0.2852,-0.2690,-0.9150,1.038,0.000,-0.366,-163.724,16.287,-71.614
8531,-0.2852,-0.2725,-0.9150,0.366,0.427,-0.427,-163.713,16.287,-71.609
8541,-0.2842,-0.2744,-0.9189,-0.305,0.793,-0.366,-163.713,16.282,-71.609
8551,-0.2822,-0.2715,-0.9238,-0.977,1.160,-0.061,-163.724,16.271,-71.609
8561,-0.2803,-0.2715,-0.9292,-1.343,1.404,0.305,-163.740,16.254,-71.620
8571,-0.2808,-0.2671,-0.9282,-1.160,1.160,0.549,-163.757,16.249,-71.625
8581,-0.2817,-0.2671,-0.9297,-0.427,0.732,0.488,-163.762,16.243,-71.636
8591,-0.2837,-0.2661,-0.9272,0.305,0.427,0.244,-163.762,16.238,-71.636
8601,-0.2808,-0.2700,-0.9258,0.732,0.427,0.000,-163.757,16.232,-71.636
8611,-0.2803,-0.2734,-0.9268,0.610,0.610,0.061,-163.751,16.227,-71.642
8621,-0.2788,-0.2783,-0.9253,0.061,0.854,0.183,-163.746,16.221,-71.647
8631,-0.2778,-0.2773,-0.9272,-0.732,1.038,0.305,-163.751,16.210,-71.653
8641,-0.2793,-0.2729,-0.9292,-1.282,1.160,0.427,-163.762,16.199,-71.658
8651,-0.2798,-0.2710,-0.9326,-1.282,1.282,0.488,-163.779,16.183,-71.669
8661,-0.2793,-0.2705,-0.9336,-0.916,1.343,0.610,-163.790,16.172,-71.680
8671,-0.2783,-0.2651,-0.9355,-0.305,1.038,0.610,-163.801,16.161,-71.686
8681,-0.2793,-0.2627,-0.9341,0.427,0.671,0.549,-163.801,16.155,-71.697
8691,-0.2793,-0.2637,-0.9307,1.038,0.244,0.549,-163.801,16.155,-71.702
8701,-0.2788,-0.2632,-0.9258,1.404,0.000,0.427,-163.790,16.155,-71.708
8711,-0.2822,-0.2622,-0.9258,1.282,0.061,0.366,-163.779,16.161,-71.708
8721,-0.2812,-0.2622,-0.9238,0.732,0.305,0.366,-163.779,16.161,-71.713
8731,-0.2778,-0.2617,-0.9248,-0.061,0.549,0.183,-163.784,16.155,-71.719
8741,-0.2759,-0.2593,-0.9282,-0.793,0.732,0.061,-163.801,16.144,-71.719
8751,-0.2744,-0.2573,-0.9321,-1.038,0.671,-0.122,-163.817,16.133,-71.719
8761,-0.2710,-0.2559,-0.9312,-0.732,0.305,-0.488,-163.834,16.128,-71.719
8772,-0.2695,-0.2578,-0.9302,-0.061,0.122,-0.916,-163.839,16.117,-71.708
8781,-0.2690,-0.2583,-0.9302,0.549,0.183,-1.343,-163.834,16.106,-71.697
8791,-0.2715,-0.2622,-0.9312,0.793,0.488,-1.465,-163.828,16.095,-71.680
8801,-0.2720,-0.2695,-0.9277,0.793,1.160,-1.587,-163.817,16.073,-71.669
8811,-0.2729,-0.2729,-0.9316,-0.305,1.770,-1.587,-163.812,16.051,-71.658
8821,-0.2710,-0.2739,-0.9316,-1.343,2.075,-1.404,-163.823,16.024,-71.653
8831,-0.2734,-0.2734,-0.9355,-2.380,2.136,-1.038,-163.845,15.996,-71.647
8841,-0.2773,-0.2690,-0.9409,-3.113,2.075,-0.671,-163.878,15.974,-71.647
8851,-0.2788,-0.2617,-0.9463,-3.174,2.197,-0.549,-163.916,15.947,-71.647
8861,-0.2808,-0.2593,-0.9468,-2.258,2.197,-0.488,-163.943,15.925,-71.647
8871,-0.2837,-0.2583,-0.9487,-0.916,1.892,-0.610,-163.960,15.908,-71.647
8881,-0.2837,-0.2578,-0.9468,0.122,1.282,-0.977,-163.965,15.897,-71.642
8891,-0.2856,-0.2593,-0.9448,0.427,0.671,-1.343,-163.965,15.886,-71.631
8901,-0.2856,-0.2612,-0.9390,0.305,-0.061,-1.587,-163.965,15.892,-71.614
8911,-0.2871,-0.2637,-0.9365,-0.061,-0.732,-1.892,-163.960,15.897,-71.592
8921,-0.2856,-0.2651,-0.9326,-0.427,-1.221,-2.319,-163.960,15.908,-71.565
8931,-0.2861,-0.2681,-0.9272,-0.610,-1.587,-2.625,-163.960,15.919,-71.537
8941,-0.2856,-0.2754,-0.9243,-0.549,-1.770,-2.808,-163.949,15.936,-71.505
8951,-0.2852,-0.2793,-0.9253,-0.427,-1.648,-2.869,-163.938,15.947,-71.466
8961,-0.2842,-0.2832,-0.9233,-0.305,-1.465,-2.808,-163.922,15.958,-71.439
8971,-0.2817,-0.2856,-0.9233,-0.122,-1.221,-2.441,-163.905,15.969,-71.406
8981,-0.2808,-0.2852,-0.9229,0.061,-0.977,-1.770,-163.889,15.974,-71.389
8991,-0.2822,-0.2837,-0.9238,0.244,-0.732,-1.099,-163.872,15.980,-71.373
9001,-0.2866,-0.2817,-0.9204,0.488,-0.549,-0.427,-163.856,15.991,-71.367
9011,-0.2866,-0.2832,-0.9189,0.732,-0.244,0.122,-163.839,16.002,-71.367
9021,-0.2852,-0.2803,-0.9170,0.732,0.183,0.427,-163.823,16.007,-71.373
9031,-0.2866,-0.2783,-0.9185,0.366,0.488,0.732,-163.817,16.007,-71.384
9041,-0.2847,-0.2739,-0.9233,0.061,0.793,1.038,-163.817,16.007,-71.395
9051,-0.2837,-0.2715,-0.9224,-0.122,0.854,1.221,-163.817,16.007,-71.411
9061,-0.2852,-0.2681,-0.9243,-0.183,0.854,1.160,-163.823,16.007,-71.422
9071,-0.2827,-0.2681,-0.9219,0.000,0.732,1.099,-163.828,16.007,-71.439
9081,-0.2803,-0.2686,-0.9219,0.183,0.732,0.977,-163.828,16.007,-71.450
9091,-0.2798,-0.2695,-0.9238,0.305,0.793,0.732,-163.828,16.002,-71.461
9101,-0.2803,-0.2715,-0.9224,0.244,0.854,0.610,-163.823,16.002,-71.466
9111,-0.2773,-0.2744,-0.9219,0.244,0.916,0.671,-163.823,15.996,-71.477
9121,-0.2764,-0.2739,-0.9229,0.061,0.977,0.671,-163.817,15.985,-71.488
9131,-0.2759,-0.2749,-0.9229,0.000,1.160,0.916,-163.817,15.980,-71.499
9141,-0.2759,-0.2744,-0.9258,0.000,1.404,1.099,-163.817,15.969,-71.516
9151,-0.2754,-0.2764,-0.9272,0.061,1.770,1.282,-163.817,15.952,-71.532
9161,-0.2734,-0.2734,-0.9287,0.061,2.075,1.404,-163.823,15.936,-71.554
9171,-0.2715,-0.2725,-0.9292,0.244,2.136,1.526,-163.823,15.919,-71.576
9181,-0.2700,-0.2695,-0.9287,0.488,1.892,1.831,-163.823,15.903,-71.598
9191,-0.2734,-0.2686,-0.9302,0.854,1.465,1.953,-163.823,15.892,-71.620
9201,-0.2744,-0.2671,-0.9287,1.160,1.404,1.953,-163.823,15.881,-71.642
9211,-0.2749,-0.2642,-0.9297,1.282,1.526,1.953,-163.817,15.875,-71.669
9221,-0.2749,-0.2627,-0.9341,0.977,1.770,1.892,-163.817,15.859,-71.691
9231,-0.2749,-0.2642,-0.9341,0.610,2.014,1.892,-163.823,15.848,-71.719
9241,-0.2754,-0.2588,-0.9316,0.366,2.014,1.892,-163.834,15.831,-71.741
9251,-0.2739,-0.2539,-0.9355,0.305,1.648,1.770,-163.845,15.820,-71.763
9261,-0.2769,-0.2568,-0.9395,0.427,1.282,1.465,-163.856,15.815,-71.785
9272,-0.2749,-0.2568,-0.9370,0.427,1.099,1.099,-163.861,15.809,-71.796
9281,-0.2759,-0.2573,-0.9375,0.183,0.977,0.793,-163.872,15.798,-71.807
9291,-0.2769,-0.2578,-0.9390,-0.122,0.916,0.549,-163.883,15.793,-71.818
9301,-0.2749,-0.2607,-0.9390,-0.366,0.793,0.305,-163.894,15.787,-71.823
9311,-0.2754,-0.2607,-0.9385,-0.610,0.610,0.000,-163.905,15.782,-71.823
9321,-0.2739,-0.2656,-0.9419,-0.793,0.427,-0.122,-163.916,15.776,-71.823
9331,-0.2729,-0.2676,-0.9434,-1.038,0.305,-0.122,-163.927,15.771,-71.823
9341,-0.2720,-0.2676,-0.9463,-1.099,0.061,0.122,-163.943,15.765,-71.823
9351,-0.2725,-0.2681,-0.9458,-0.854,-0.244,0.244,-163.954,15.765,-71.823
9361,-0.2725,-0.2656,-0.9434,-0.183,-0.671,0.183,-163.960,15.771,-71.823
9371,-0.2725,-0.2656,-0.9380,0.488,-1.221,-0.061,-163.954,15.782,-71.823
9381,-0.2729,-0.2686,-0.9375,1.099,-1.709,-0.244,-163.943,15.793,-71.812
9391,-0.2720,-0.2715,-0.9331,1.404,-2.075,-0.244,-163.927,15.815,-71.807
9401,-0.2744,-0.2734,-0.9268,1.221,-2.136,-0.244,-163.911,15.831,-71.796
9411,-0.2734,-0.2729,-0.9238,0.732,-1.892,-0.061,-163.894,15.848,-71.790
9421,-0.2744,-0.2710,-0.9233,0.183,-1.465,0.122,-163.889,15.864,-71.790
9431,-0.2769,-0.2695,-0.9253,-0.061,-0.854,0.305,-163.889,15.875,-71.790
9441,-0.2759,-0.2690,-0.9253,-0.183,-0.488,0.305,-163.889,15.881,-71.790
9451,-0.2764,-0.2681,-0.9292,-0.549,-0.366,0.244,-163.900,15.886,-71.790
9461,-0.2769,-0.2666,-0.9297,-0.488,-0.427,0.244,-163.905,15.892,-71.790
9471,-0.2769,-0.2656,-0.9277,-0.244,-0.732,0.366,-163.905,15.903,-71.796
9481,-0.2764,-0.2646,-0.9272,-0.122,-1.221,0.427,-163.911,15.914,-71.796
9491,-0.2773,-0.2632,-0.9272,-0.244,-1.648,0.488,-163.916,15.936,-71.796
9501,-0.2793,-0.2617,-0.9258,-0.183,-1.953,0.549,-163.922,15.958,-71.796
9511,-0.2812,-0.2632,-0.9248,-0.183,-2.075,0.366,-163.922,15.980,-71.790
9521,-0.2764,-0.2622,-0.9224,0.305,-1.892,0.122,-163.922,16.002,-71.790
9531,-0.2769,-0.2651,-0.9204,0.671,-1.770,-0.061,-163.911,16.018,-71.785
9541,-0.2759,-0.2671,-0.9199,0.732,-1.770,-0.244,-163.900,16.035,-71.774
9551,-0.2769,-0.2656,-0.9160,0.916,-1.831,-0.366,-163.889,16.051,-71.768
9561,-0.2783,-0.2681,-0.9160,0.916,-1.526,-0.488,-163.878,16.068,-71.757
9571,-0.2783,-0.2710,-0.9131,0.793,-0.916,-0.732,-163.861,16.078,-71.746
9581,-0.2754,-0.2749,-0.9146,0.427,-0.061,-0.854,-163.850,16.073,-71.741
9591,-0.2754,-0.2788,-0.9175,-0.183,0.610,-0.671,-163.845,16.068,-71.735
9601,-0.2744,-0.2773,-0.9258,-0.854,1.038,-0.244,-163.845,16.057,-71.735
9611,-0.2773,-0.2798,-0.9297,-1.221,1.160,0.183,-163.850,16.046,-71.741
9621,-0.2803,-0.2744,-0.9351,-1.221,1.099,0.610,-163.867,16.035,-71.746
9631,-0.2803,-0.2715,-0.9365,-0.854,1.160,0.854,-163.878,16.024,-71.763
9641,-0.2769,-0.2720,-0.9360,-0.366,1.160,0.916,-163.883,16.018,-71.774
9651,-0.2739,-0.2749,-0.9370,0.061,1.221,0.977,-163.883,16.002,-71.785
9661,-0.2720,-0.2705,-0.9385,0.183,0.977,1.221,-163.889,15.991,-71.801
9671,-0.2749,-0.2671,-0.9395,0.366,0.610,1.587,-163.889,15.991,-71.818
9681,-0.2793,-0.2622,-0.9370,0.671,0.122,1.648,-163.894,15.991,-71.834
9691,-0.2788,-0.2642,-0.9390,0.916,-0.183,1.343,-163.889,15.996,-71.851
9701,-0.2793,-0.2617,-0.9390,0.854,-0.183,0.916,-163.889,16.002,-71.856
9711,-0.2793,-0.2637,-0.9370,0.610,-0.122,0.549,-163.889,16.002,-71.862
9721,-0.2793,-0.2646,-0.9395,0.305,-0.061,0.427,-163.889,16.007,-71.867
9731,-0.2808,-0.2607,-0.9414,0.122,-0.427,0.427,-163.900,16.013,-71.867
9741,-0.2808,-0.2588,-0.9424,0.305,-1.038,0.305,-163.900,16.024,-71.867
9751,-0.2817,-0.2573,-0.9404,0.916,-1.770,0.183,-163.900,16.040,-71.867
9761,-0.2852,-0.2568,-0.9336,1.648,-2.258,-0.061,-163.889,16.068,-71.862
9772,-0.2832,-0.2612,-0.9302,2.136,-2.258,-0.488,-163.867,16.089,-71.845
9781,-0.2798,-0.2627,-0.9268,1.953,-1.953,-0.793,-163.850,16.106,-71.834
9791,-0.2769,-0.2632,-0.9224,1.343,-1.770,-0.793,-163.834,16.122,-71.823
9801,-0.2778,-0.2622,-0.9194,0.732,-1.770,-0.671,-163.828,16.133,-71.807
9811,-0.2788,-0.2627,-0.9189,0.488,-1.892,-0.732,-163.817,16.155,-71.796
9821,-0.2803,-0.2700,-0.9146,0.610,-1.709,-0.916,-163.806,16.172,-71.785
9831,-0.2808,-0.2744,-0.9165,0.427,-1.038,-1.160,-163.795,16.177,-71.768
9841,-0.2798,-0.2803,-0.9204,-0.305,0.061,-1.221,-163.784,16.172,-71.757
9851,-0.2744,-0.2856,-0.9287,-1.404,1.099,-0.854,-163.790,16.155,-71.752
9861,-0.2715,-0.2812,-0.9341,-2.563,1.648,-0.061,-163.812,16.133,-71.752
9871,-0.2715,-0.2734,-0.9385,-2.991,1.160,0.610,-163.845,16.122,-71.763
9881,-0.2744,-0.2646,-0.9370,-1.770,0.061,0.977,-163.867,16.117,-71.774
9891,-0.2783,-0.2632,-0.9321,0.305,-1.282,0.977,-163.867,16.133,-71.779
9901,-0.2788,-0.2671,-0.9258,2.197,-2.075,0.610,-163.850,16.155,-71.779
9911,-0.2778,-0.2656,-0.9170,3.052,-2.075,0.305,-163.817,16.177,-71.779
9921,-0.2778,-0.2627,-0.9121,2.869,-1.587,0.366,-163.790,16.194,-71.774
9931,-0.2812,-0.2568,-0.9063,2.014,-1.160,0.488,-163.773,16.210,-71.779
9941,-0.2856,-0.2529,-0.9038,1.038,-0.793,0.244,-163.768,16.227,-71.779
9951,-0.2881,-0.2524,-0.9043,0.244,-0.305,-0.366,-163.773,16.238,-71.774
9961,-0.2910,-0.2549,-0.9048,-0.488,0.549,-1.221,-163.779,16.238,-71.763
9971,-0.2900,-0.2632,-0.9058,-1.282,1.770,-1.831,-163.790,16.221,-71.752
9981,-0.2856,-0.2729,-0.9106,-2.441,2.930,-2.258,-163.801,16.194,-71.735
9991,-0.2817,-0.2803,-0.9229,-3.723,3.601,-2.258,-163.828,16.155,-71.724
10001,-0.2808,-0.2861,-0.9365,-4.700,3.784,-1.892,-163.867,16.111,-71.713
10011,-0.2803,-0.2881,-0.9492,-4.944,3.418,-1.282,-163.905,16.073,-71.713
10021,-0.2754,-0.2896,-0.9590,-4.272,2.869,-0.549,-163.943,16.035,-71.713
10031,-0.2769,-0.2852,-0.9619,-2.808,2.075,0.183,-163.965,16.013,-71.724
10041,-0.2778,-0.2808,-0.9639,-0.977,0.916,0.854,-163.976,16.002,-71.735
10051,-0.2773,-0.2773,-0.9570,1.038,-0.549,1.404,-163.971,16.002,-71.746
10061,-0.2803,-0.2734,-0.9487,2.747,-1.953,1.465,-163.943,16.024,-71.757
10071,-0.2798,-0.2715,-0.9404,3.845,-2.930,1.282,-163.905,16.057,-71.757
10081,-0.2798,-0.2661,-0.9346,4.150,-3.357,1.099,-163.867,16.089,-71.763
10091,-0.2812,-0.2607,-0.9272,3.784,-3.296,0.977,-163.834,16.128,-71.763
10101,-0.2803,-0.2612,-0.9229,3.174,-2.686,0.793,-163.806,16.155,-71.763
10111,-0.2827,-0.2563,-0.9165,2.258,-1.953,0.427,-163.790,16.177,-71.763
10121,-0.2852,-0.2559,-0.9170,1.404,-1.038,0.000,-163.784,16.194,-71.757
10131,-0.2842,-0.2578,-0.9199,0.610,-0.061,-0.366,-163.779,16.199,-71.752
10141,-0.2837,-0.2588,-0.9224,-0.244,0.610,-0.549,-163.790,16.194,-71.752
10151,-0.2832,-0.2612,-0.9302,-1.282,0.916,-0.671,-163.806,16.183,-71.746
10161,-0.2808,-0.2632,-0.9336,-2.014,0.854,-0.549,-163.828,16.172,-71.741
10171,-0.2798,-0.2612,-0.9370,-2.319,0.366,-0.427,-163.856,16.166,-71.741
10181,-0.2808,-0.2554,-0.9375,-1.831,-0.305,-0.549,-163.883,16.172,-71.735
10191,-0.2837,-0.2510,-0.9351,-0.732,-1.099,-0.916,-163.894,16.177,-71.719
10201,-0.2842,-0.2515,-0.9268,0.732,-1.587,-1.404,-163.894,16.194,-71.702
10211,-0.2842,-0.2598,-0.9170,1.953,-1.709,-1.892,-163.872,16.210,-71.680
10221,-0.2812,-0.2681,-0.9150,2.075,-1.648,-2.258,-163.839,16.221,-71.653
10231,-0.2793,-0.2754,-0.9102,1.099,-1.282,-2.258,-163.817,16.227,-71.625
10241,-0.2793,-0.2822,-0.9111,-0.671,-0.610,-2.075,-163.806,16.227,-71.603
10251,-0.2754,-0.2837,-0.9146,-2.380,0.244,-1.648,-163.812,16.221,-71.587
10261,-0.2773,-0.2822,-0.9199,-3.296,1.038,-0.977,-163.834,16.205,-71.581
10272,-0.2744,-0.2803,-0.9272,-3.296,1.526,-0.305,-163.861,16.188,-71.581
10281,-0.2734,-0.2803,-0.9355,-2.441,1.587,0.244,-163.883,16.166,-71.587
10291,-0.2710,-0.2793,-0.9409,-1.221,1.282,0.732,-163.894,16.150,-71.598
10301,-0.2705,-0.2769,-0.9419,0.000,0.671,1.038,-163.894,16.139,-71.609
10311,-0.2715,-0.2715,-0.9395,1.038,-0.122,1.160,-163.889,16.139,-71.620
10321,-0.2744,-0.2637,-0.9331,1.770,-0.977,1.282,-163.878,16.144,-71.631
10331,-0.2793,-0.2598,-0.9277,2.197,-1.526,1.038,-163.861,16.161,-71.636
10341,-0.2832,-0.2573,-0.9214,2.319,-1.587,0.549,-163.845,16.183,-71.642
10351,-0.2837,-0.2568,-0.9214,2.014,-1.221,-0.061,-163.828,16.199,-71.636
10361,-0.2856,-0.2563,-0.9185,1.343,-0.610,-0.549,-163.817,16.205,-71.625
10371,-0.2866,-0.2554,-0.9204,0.488,-0.061,-1.038,-163.817,16.210,-71.620
10381,-0.2861,-0.2583,-0.9214,-0.244,0.061,-1.404,-163.823,16.210,-71.603
10391,-0.2876,-0.2612,-0.9263,-0.671,-0.244,-1.648,-163.828,16.210,-71.587
10401,-0.2886,-0.2690,-0.9292,-0.793,-0.610,-1.892,-163.828,16.216,-71.565
10411,-0.2881,-0.2739,-0.9316,-0.977,-0.916,-2.075,-163.828,16.221,-71.543
10421,-0.2876,-0.2769,-0.9302,-1.099,-1.099,-1.892,-163.834,16.232,-71.521
10431,-0.2871,-0.2798,-0.9297,-1.221,-0.977,-1.587,-163.834,16.238,-71.499
10441,-0.2871,-0.2817,-0.9302,-1.099,-0.854,-1.099,-163.834,16.243,-71.488
10451,-0.2871,-0.2793,-0.9312,-0.549,-0.977,-0.488,-163.828,16.254,-71.483
10461,-0.2891,-0.2812,-0.9302,0.366,-1.221,0.000,-163.817,16.271,-71.477
10471,-0.2891,-0.2817,-0.9268,1.221,-1.404,0.366,-163.801,16.287,-71.477
10481,-0.2920,-0.2842,-0.9248,1.831,-1.465,0.610,-163.773,16.309,-71.477
10491,-0.2905,-0.2842,-0.9229,1.892,-1.099,0.916,-163.746,16.326,-71.483
10501,-0.2871,-0.2827,-0.9229,1.343,-0.549,1.343,-163.729,16.337,-71.494
10511,-0.2837,-0.2808,-0.9253,0.488,-0.183,1.831,-163.724,16.342,-71.516
10521,-0.2817,-0.2725,-0.9331,-0.244,-0.122,2.136,-163.729,16.348,-71.532
10531,-0.2817,-0.2646,-0.9351,-0.244,-0.305,2.197,-163.746,16.359,-71.554
10541,-0.2822,-0.2593,-0.9355,0.549,-0.549,2.014,-163.751,16.364,-71.576
10551,-0.2808,-0.2549,-0.9292,1.648,-0.854,1.526,-163.746,16.375,-71.587
10561,-0.2812,-0.2588,-0.9253,2.014,-1.343,1.099,-163.735,16.392,-71.592
10571,-0.2822,-0.2651,-0.9199,2.441,-1.404,0.549,-163.713,16.408,-71.598
10581,-0.2803,-0.2700,-0.9175,1.831,-0.793,0.183,-163.696,16.414,-71.592
10591,-0.2788,-0.2700,-0.9155,0.122,-0.122,0.183,-163.691,16.414,-71.598
10601,-0.2793,-0.2656,-0.9233,-1.648,0.671,0.610,-163.713,16.408,-71.603
10611,-0.2812,-0.2603,-0.9292,-2.441,0.671,0.977,-163.746,16.403,-71.614
10621,-0.2817,-0.2549,-0.9282,-1.892,0.244,0.977,-163.779,16.403,-71.625
10631,-0.2827,-0.2583,-0.9272,-0.610,-0.610,0.427,-163.790,16.408,-71.631
10641,-0.2832,-0.2656,-0.9268,0.549,-1.221,-0.122,-163.790,16.419,-71.625
10651,-0.2812,-0.2754,-0.9248,0.916,-1.099,-0.366,-163.773,16.430,-71.620
10661,-0.2783,-0.2773,-0.9248,0.122,-0.549,-0.061,-163.768,16.430,-71.614
10671,-0.2773,-0.2710,-0.9292,-0.977,-0.244,0.488,-163.779,16.430,-71.620
10681,-0.2773,-0.2622,-0.9292,-1.587,-0.488,0.793,-163.801,16.430,-71.625
10691,-0.2817,-0.2524,-0.9297,-0.916,-1.038,0.610,-163.817,16.441,-71.631
10701,-0.2852,-0.2485,-0.9253,0.854,-1.404,0.000,-163.823,16.458,-71.625
10711,-0.2905,-0.2495,-0.9185,2.686,-1.404,-0.671,-163.801,16.474,-71.614
10721,-0.2944,-0.2524,-0.9097,3.784,-0.854,-1.099,-163.768,16.485,-71.603
10731,-0.2949,-0.2583,-0.9038,3.540,-0.122,-1.282,-163.729,16.496,-71.587
10741,-0.2998,-0.2637,-0.9023,1.953,0.916,-1.343,-163.707,16.496,-71.576
10751,-0.3027,-0.2686,-0.9067,-0.916,1.648,-1.160,-163.713,16.485,-71.570
10761,-0.3057,-0.2705,-0.9136,-3.723,2.808,-0.977,-163.746,16.469,-71.570
10772,-0.3052,-0.2695,-0.9282,-5.798,3.723,-0.793,-163.806,16.447,-71.570
10781,-0.2988,-0.2744,-0.9395,-6.531,4.150,-0.793,-163.872,16.408,-71.576
10791,-0.2905,-0.2773,-0.9492,-6.226,3.601,-0.610,-163.932,16.370,-71.581
10801,-0.2842,-0.2817,-0.9561,-5.005,2.197,-0.427,-163.976,16.342,-71.581
10811,-0.2822,-0.2827,-0.9556,-3.174,0.488,-0.183,-164.004,16.337,-71.581
10821,-0.2822,-0.2832,-0.9473,-1.038,-0.854,0.000,-164.009,16.337,-71.581
10831,-0.2808,-0.2842,-0.9424,0.854,-1.770,0.183,-163.993,16.353,-71.576
10841,-0.2808,-0.2842,-0.9326,2.319,-2.258,0.366,-163.960,16.370,-71.570
10851,-0.2793,-0.2842,-0.9253,3.174,-2.502,0.549,-163.916,16.392,-71.570
10861,-0.2773,-0.2871,-0.9238,3.479,-2.502,0.549,-163.867,16.414,-71.570
10871,-0.2744,-0.2871,-0.9233,2.869,-2.258,0.549,-163.828,16.430,-71.570
10881,-0.2754,-0.2842,-0.9258,1.953,-1.831,0.916,-163.801,16.447,-71.570
10891,-0.2744,-0.2778,-0.9272,1.221,-1.282,1.404,-163.790,16.458,-71.581
10901,-0.2759,-0.2686,-0.9297,1.160,-1.038,1.892,-163.784,16.469,-71.598
10911,-0.2764,-0.2598,-0.9287,1.770,-1.099,2.075,-163.773,16.479,-71.614
10921,-0.2793,-0.2568,-0.9248,2.930,-1.404,1.953,-163.757,16.496,-71.631
10931,-0.2778,-0.2529,-0.9175,3.723,-1.709,1.648,-163.729,16.512,-71.642
10941,-0.2788,-0.2524,-0.9126,3.906,-1.831,1.404,-163.702,16.534,-71.653
10951,-0.2817,-0.2505,-0.9087,3.174,-1.648,1.038,-163.685,16.551,-71.658
10961,-0.2832,-0.2471,-0.9077,2.014,-1.160,0.549,-163.674,16.567,-71.658
10971,-0.2842,-0.2480,-0.9067,0.671,-0.488,0.000,-163.680,16.573,-71.658
10981,-0.2827,-0.2505,-0.9106,-0.610,0.305,-0.610,-163.691,16.573,-71.653
10991,-0.2812,-0.2563,-0.9136,-2.075,0.854,-1.099,-163.718,16.556,-71.642
11001,-0.2803,-0.2583,-0.9189,-2.930,1.099,-1.343,-163.746,16.540,-71.636
11011,-0.2788,-0.2603,-0.9219,-2.625,1.221,-1.404,-163.773,16.523,-71.625
11021,-0.2803,-0.2612,-0.9268,-2.258,0.977,-1.282,-163.801,16.507,-71.614
11031,-0.2808,-0.2656,-0.9258,-1.221,0.549,-1.343,-163.812,16.496,-71.603
11041,-0.2803,-0.2676,-0.9287,-0.244,0.549,-1.343,-163.812,16.485,-71.592
11051,-0.2827,-0.2759,-0.9258,0.000,0.671,-1.160,-163.806,16.474,-71.581
11061,-0.2817,-0.2793,-0.9253,-0.488,0.916,-0.854,-163.801,16.458,-71.576
11071,-0.2808,-0.2754,-0.9287,-1.404,1.160,-0.366,-163.812,16.447,-71.576
11081,-0.2822,-0.2734,-0.9312,-2.075,1.099,0.000,-163.834,16.430,-71.576
11091,-0.2837,-0.2695,-0.9385,-2.136,1.099,0.061,-163.856,16.419,-71.581
11101,-0.2822,-0.2671,-0.9390,-1.587,0.977,-0.061,-163.872,16.408,-71.581
11111,-0.2837,-0.2637,-0.9360,-0.732,0.793,-0.122,-163.883,16.397,-71.587
11121,-0.2871,-0.2637,-0.9346,0.122,0.549,-0.122,-163.889,16.392,-71.587
11131,-0.2871,-0.2642,-0.9331,0.671,0.366,-0.061,-163.883,16.392,-71.587
11141,-0.2866,-0.2637,-0.9312,0.610,0.183,-0.061,-163.883,16.392,-71.587
11151,-0.2871,-0.2612,-0.9277,0.305,0.122,-0.183,-163.883,16.392,-71.581
11161,-0.2891,-0.2573,-0.9292,-0.183,0.061,-0.366,-163.889,16.392,-71.581
11171,-0.2905,-0.2559,-0.9287,-0.610,0.183,-0.671,-163.900,16.392,-71.576
11181,-0.2905,-0.2568,-0.9258,-1.038,0.305,-1.099,-163.916,16.392,-71.565
11191,-0.2891,-0.2607,-0.9248,-1.343,0.488,-1.465,-163.927,16.386,-71.548
11201,-0.2896,-0.2632,-0.9263,-1.587,0.671,-1.892,-163.938,16.375,-71.532
11211,-0.2896,-0.2700,-0.9253,-1.892,0.916,-2.136,-163.949,16.364,-71.516
11221,-0.2915,-0.2754,-0.9272,-2.258,0.977,-2.136,-163.965,16.353,-71.494
11231,-0.2866,-0.2764,-0.9302,-2.441,0.977,-2.014,-163.976,16.342,-71.477
11241,-0.2861,-0.2769,-0.9316,-2.502,0.732,-1.587,-163.993,16.331,-71.466
11251,-0.2866,-0.2783,-0.9321,-2.014,0.305,-1.221,-164.004,16.326,-71.455
11261,-0.2871,-0.2773,-0.9297,-1.221,-0.244,-0.854,-164.009,16.326,-71.444
11272,-0.2891,-0.2773,-0.9287,-0.122,-0.610,-0.671,-163.998,16.331,-71.439
11281,-0.2852,-0.2803,-0.9292,0.793,-0.854,-0.549,-163.982,16.342,-71.428
11291,-0.2827,-0.2783,-0.9229,1.221,-1.038,-0.366,-163.960,16.348,-71.422
11301,-0.2852,-0.2764,-0.9209,1.160,-0.977,-0.183,-163.938,16.359,-71.417
11311,-0.2876,-0.2744,-0.9204,0.916,-0.977,0.000,-163.927,16.375,-71.417
11321,-0.2896,-0.2720,-0.9199,0.732,-0.854,0.183,-163.916,16.386,-71.411
11331,-0.2910,-0.2725,-0.9180,0.793,-0.610,0.183,-163.900,16.397,-71.411
11341,-0.2910,-0.2705,-0.9180,1.038,-0.183,0.244,-163.889,16.403,-71.417
11351,-0.2925,-0.2705,-0.9180,1.282,0.366,0.427,-163.872,16.408,-71.422
11361,-0.2939,-0.2695,-0.9199,1.221,0.977,0.671,-163.861,16.408,-71.428
11371,-0.2925,-0.2690,-0.9219,0.732,1.526,0.977,-163.856,16.403,-71.444
11381,-0.2935,-0.2700,-0.9263,0.061,1.831,1.282,-163.861,16.392,-71.461
11391,-0.2915,-0.2681,-0.9287,-0.549,1.892,1.465,-163.872,16.381,-71.483
11401,-0.2891,-0.2656,-0.9331,-1.160,1.709,1.587,-163.894,16.370,-71.505
11411,-0.2871,-0.2627,-0.9365,-1.465,1.282,1.648,-163.916,16.364,-71.521
11421,-0.2886,-0.2612,-0.9419,-1.404,0.977,1.587,-163.943,16.359,-71.543
11431,-0.2861,-0.2632,-0.9424,-0.977,0.671,1.282,-163.960,16.359,-71.559
11441,-0.2837,-0.2646,-0.9429,-0.488,0.549,0.977,-163.971,16.353,-71.570
11451,-0.2822,-0.2676,-0.9438,-0.061,0.427,0.793,-163.976,16.348,-71.576
11461,-0.2803,-0.2686,-0.9434,0.183,0.122,0.610,-163.976,16.342,-71.587
11471,-0.2764,-0.2671,-0.9409,0.366,-0.427,0.549,-163.976,16.342,-71.587
11481,-0.2798,-0.2642,-0.9404,0.671,-1.038,0.488,-163.976,16.353,-71.592
11491,-0.2803,-0.2632,-0.9380,1.282,-1.648,0.305,-163.965,16.364,-71.587
11501,-0.2783,-0.2627,-0.9316,1.953,-2.197,0.061,-163.949,16.386,-71.581
11511,-0.2808,-0.2617,-0.9268,2.563,-2.441,-0.183,-163.922,16.403,-71.576
11521,-0.2808,-0.2637,-0.9185,2.869,-2.502,-0.427,-163.889,16.425,-71.565
11531,-0.2793,-0.2632,-0.9111,2.747,-2.258,-0.732,-163.861,16.447,-71.548
11541,-0.2798,-0.2666,-0.9058,2.319,-1.831,-0.916,-163.828,16.463,-71.532
11551,-0.2788,-0.2700,-0.9053,1.587,-1.343,-0.977,-163.806,16.474,-71.521
11561,-0.2822,-0.2671,-0.9058,0.854,-0.977,-0.671,-163.795,16.479,-71.510
11571,-0.2837,-0.2651,-0.9111,0.488,-0.671,-0.305,-163.784,16.490,-71.505
11581,-0.2871,-0.2632,-0.9141,0.549,-0.427,-0.122,-163.784,16.496,-71.505
11591,-0.2856,-0.2642,-0.9146,0.732,-0.183,-0.183,-163.773,16.496,-71.499
11601,-0.2827,-0.2686,-0.9180,0.732,0.122,-0.305,-163.768,16.496,-71.499
11611,-0.2837,-0.2686,-0.9209,0.305,0.427,-0.244,-163.762,16.490,-71.499
11621,-0.2847,-0.2686,-0.9233,-0.244,0.793,-0.122,-163.768,16.485,-71.499
11631,-0.2852,-0.2676,-0.9268,-0.793,0.977,0.000,-163.773,16.474,-71.499
11641,-0.2856,-0.2637,-0.9297,-0.977,1.099,0.061,-163.790,16.463,-71.505
11651,-0.2876,-0.2637,-0.9326,-0.732,1.282,0.000,-163.801,16.452,-71.510
11661,-0.2876,-0.2637,-0.9375,-0.305,1.465,-0.061,-163.812,16.436,-71.510
11671,-0.2852,-0.2661,-0.9399,0.000,1.526,0.000,-163.817,16.425,-71.516
11681,-0.2876,-0.2661,-0.9419,0.305,1.526,0.061,-163.817,16.408,-71.521
11691,-0.2881,-0.2642,-0.9385,0.671,1.282,0.000,-163.817,16.397,-71.526
11701,-0.2881,-0.2627,-0.9355,0.854,0.854,0.000,-163.817,16.386,-71.526
11711,-0.2896,-0.2612,-0.9346,0.854,0.427,0.061,-163.812,16.386,-71.532
11721,-0.2881,-0.2646,-0.9316,0.732,0.061,0.000,-163.806,16.386,-71.532
11731,-0.2900,-0.2671,-0.9312,0.427,-0.122,0.061,-163.806,16.392,-71.532
11741,-0.2905,-0.2666,-0.9277,0.244,-0.122,0.183,-163.806,16.397,-71.532
11751,-0.2900,-0.2666,-0.9302,-0.061,0.244,0.244,-163.812,16.397,-71.537
11761,-0.2871,-0.2671,-0.9341,-0.549,0.427,0.366,-163.817,16.397,-71.537
11771,-0.2871,-0.2700,-0.9351,-0.732,0.305,0.366,-163.828,16.397,-71.543
11781,-0.2847,-0.2700,-0.9380,-0.916,-0.061,0.183,-163.839,16.397,-71.548
11791,-0.2837,-0.2676,-0.9370,-0.916,-0.610,-0.061,-163.850,16.397,-71.543
11801,-0.2832,-0.2656,-0.9375,-0.732,-1.160,-0.427,-163.856,16.408,-71.537
11811,-0.2852,-0.2651,-0.9370,-0.244,-1.770,-0.854,-163.861,16.419,-71.521
11821,-0.2866,-0.2671,-0.9355,0.427,-2.197,-1.343,-163.850,16.436,-71.505
11831,-0.2886,-0.2690,-0.9272,0.916,-2.136,-1.587,-163.834,16.458,-71.483
11841,-0.2930,-0.2720,-0.9258,1.099,-1.709,-1.648,-163.817,16.474,-71.461
11851,-0.2900,-0.2739,-0.9253,0.916,-1.038,-1.648,-163.801,16.479,-71.439
11861,-0.2881,-0.2739,-0.9282,0.427,-0.061,-1.648,-163.790,16.474,-71.422
11871,-0.2866,-0.2729,-0.9272,-0.488,0.671,-1.587,-163.790,16.469,-71.411
11881,-0.2876,-0.2690,-0.9263,-1.465,0.732,-1.160,-163.801,16.458,-71.400
11891,-0.2920,-0.2710,-0.9224,-1.709,0.244,-0.610,-163.812,16.458,-71.395
11901,-0.2910,-0.2744,-0.9194,-1.709,-0.366,-0.183,-163.823,16.463,-71.389
11911,-0.2881,-0.2769,-0.9199,-1.770,-0.732,0.061,-163.834,16.474,-71.389
11921,-0.2856,-0.2632,-0.9243,-1.404,-0.732,0.488,-163.856,16.485,-71.395
11931,-0.2832,-0.2373,-0.9253,0.122,-0.977,0.916,-163.872,16.496,-71.400
11941,-0.2832,-0.2290,-0.9248,3.723,-1.465,0.610,-163.856,16.512,-71.400
11951,-0.2798,-0.2334,-0.9141,7.568,-2.197,-0.854,-163.795,16.529,-71.384
11961,-0.2793,-0.2412,-0.9038,9.094,-2.747,-2.319,-163.707,16.551,-71.356
11971,-0.2812,-0.2490,-0.9019,7.874,-2.625,-2.808,-163.630,16.567,-71.318
11981,-0.2808,-0.2583,-0.9067,4.639,-1.709,-2.930,-163.581,16.578,-71.285
11991,-0.2759,-0.2593,-0.9180,0.793,-0.671,-3.601,-163.570,16.567,-71.246
12001,-0.2734,-0.2544,-0.9297,-2.136,-0.244,-4.456,-163.586,16.551,-71.202
12011,-0.2725,-0.2510,-0.9443,-3.784,-0.305,-5.066,-163.625,16.529,-71.147
12021,-0.2710,-0.2544,-0.9531,-4.028,-0.671,-5.371,-163.663,16.512,-71.093
12031,-0.2734,-0.2578,-0.9546,-3.357,-0.916,-5.859,-163.691,16.490,-71.032
12041,-0.2739,-0.2646,-0.9512,-2.136,-1.343,-6.470,-163.702,16.479,-70.966
12051,-0.2739,-0.2686,-0.9468,-0.854,-1.648,-6.775,-163.696,16.463,-70.889
12061,-0.2778,-0.2729,-0.9336,0.366,-1.709,-6.592,-163.669,16.458,-70.818
12071,-0.2837,-0.2769,-0.9233,0.916,-1.404,-6.042,-163.641,16.452,-70.757
12081,-0.2910,-0.2847,-0.9150,0.488,-0.854,-5.371,-163.608,16.452,-70.697
12091,-0.2969,-0.2930,-0.9082,-0.916,0.183,-4.517,-163.592,16.447,-70.653
12101,-0.2974,-0.2983,-0.9106,-2.991,1.465,-3.662,-163.592,16.430,-70.620
12111,-0.2993,-0.3013,-0.9175,-5.066,2.502,-2.625,-163.619,16.408,-70.604
12121,-0.2969,-0.3008,-0.9321,-6.897,2.808,-1.587,-163.674,16.381,-70.598
12131,-0.2905,-0.2959,-0.9409,-7.568,2.441,-0.732,-163.735,16.353,-70.598
12141,-0.2866,-0.2969,-0.9478,-7.202,1.404,-0.183,-163.795,16.337,-70.598
12151,-0.2832,-0.2944,-0.9531,-5.920,-0.061,0.305,-163.845,16.337,-70.598
12161,-0.2798,-0.2920,-0.9556,-3.784,-1.465,0.610,-163.878,16.342,-70.604
12171,-0.2788,-0.2866,-0.9565,-1.587,-2.747,0.854,-163.889,16.364,-70.604
12181,-0.2803,-0.2827,-0.9507,0.916,-3.723,0.916,-163.872,16.397,-70.604
12191,-0.2793,-0.2769,-0.9424,2.808,-4.761,0.793,-163.839,16.441,-70.598
12201,-0.2837,-0.2715,-0.9302,4.578,-5.737,0.488,-163.790,16.496,-70.582
12211,-0.2861,-0.2729,-0.9180,5.615,-6.287,0.122,-163.729,16.556,-70.565
12221,-0.2905,-0.2744,-0.9082,5.554,-6.348,-0.305,-163.658,16.617,-70.543
12231,-0.2944,-0.2729,-0.8965,4.639,-5.920,-0.671,-163.603,16.683,-70.521
12241,-0.3003,-0.2749,-0.8916,3.418,-5.066,-0.793,-163.553,16.738,-70.499
12251,-0.3027,-0.2773,-0.8843,2.014,-3.784,-0.793,-163.521,16.787,-70.477
12261,-0.3018,-0.2783,-0.8857,0.488,-2.380,-0.549,-163.499,16.820,-70.466
12271,-0.3027,-0.2812,-0.8853,-0.732,-0.977,0.000,-163.499,16.842,-70.466
12281,-0.3032,-0.2803,-0.8887,-1.587,0.305,0.549,-163.504,16.853,-70.472
12291,-0.3027,-0.2812,-0.8950,-2.014,1.282,1.160,-163.521,16.853,-70.488
12301,-0.3022,-0.2808,-0.9033,-2.075,2.197,1.648,-163.537,16.848,-70.510
12311,-0.2998,-0.2817,-0.9072,-2.075,2.869,2.075,-163.559,16.831,-70.538
12321,-0.2988,-0.2798,-0.9141,-2.319,3.296,2.441,-163.586,16.815,-70.571
12331,-0.2964,-0.2793,-0.9194,-2.502,3.479,2.747,-163.614,16.793,-70.609
12341,-0.2930,-0.2783,-0.9272,-2.502,3.296,2.930,-163.647,16.765,-70.648
12351,-0.2881,-0.2764,-0.9346,-2.258,2.930,2.991,-163.680,16.743,-70.686
12361,-0.2861,-0.2744,-0.9404,-1.770,2.502,2.991,-163.707,16.727,-70.724
12371,-0.2837,-0.2720,-0.9443,-0.977,2.197,2.991,-163.735,16.705,-70.763
12381,-0.2827,-0.2700,-0.9478,-0.183,1.770,2.930,-163.746,16.688,-70.796
12391,-0.2837,-0.2671,-0.9468,0.671,1.099,2.869,-163.757,16.683,-70.829
12401,-0.2847,-0.2642,-0.9419,1.465,0.244,2.747,-163.757,16.683,-70.856
12411,-0.2847,-0.2617,-0.9414,2.197,-0.610,2.563,-163.746,16.694,-70.878
12421,-0.2866,-0.2637,-0.9336,2.625,-1.221,2.258,-163.729,16.705,-70.900
12431,-0.2881,-0.2607,-0.9307,2.502,-1.587,1.892,-163.718,16.727,-70.911
12441,-0.2876,-0.2603,-0.9287,2.380,-1.587,1.770,-163.702,16.743,-70.928
12451,-0.2905,-0.2598,-0.9253,2.136,-1.404,1.648,-163.691,16.765,-70.939
12461,-0.2910,-0.2568,-0.9248,1.770,-1.160,1.465,-163.685,16.782,-70.950
12471,-0.2935,-0.2563,-0.9243,1.526,-0.916,1.282,-163.680,16.793,-70.961
12481,-0.2930,-0.2583,-0.9258,1.343,-0.549,1.038,-163.674,16.804,-70.972
12491,-0.2900,-0.2593,-0.9253,0.977,-0.183,0.854,-163.674,16.809,-70.977
12501,-0.2900,-0.2627,-0.9272,0.244,0.183,0.732,-163.680,16.809,-70.983
12511,-0.2881,-0.2612,-0.9326,-0.366,0.366,0.854,-163.696,16.804,-70.994
12521,-0.2866,-0.2593,-0.9302,-0.549,0.366,1.038,-163.713,16.804,-71.005
12531,-0.2896,-0.2573,-0.9365,-0.610,0.244,1.099,-163.729,16.798,-71.016
12541,-0.2900,-0.2593,-0.9321,-0.366,0.122,0.916,-163.740,16.798,-71.027
12551,-0.2886,-0.2588,-0.9355,-0.183,0.000,0.610,-163.751,16.798,-71.032
12561,-0.2886,-0.2622,-0.9312,-0.122,0.061,0.305,-163.762,16.798,-71.038
12571,-0.2866,-0.2632,-0.9292,-0.183,0.183,0.000,-163.768,16.793,-71.038
12581,-0.2847,-0.2642,-0.9316,-0.549,0.183,-0.183,-163.779,16.787,-71.038
12591,-0.2837,-0.2656,-0.9287,-0.793,-0.061,-0.244,-163.784,16.782,-71.032
12601,-0.2856,-0.2676,-0.9307,-1.160,-0.427,-0.305,-163.801,16.782,-71.027
12611,-0.2881,-0.2651,-0.9297,-0.854,-0.671,-0.427,-163.806,16.787,-71.021
12621,-0.2881,-0.2656,-0.9268,-0.366,-0.793,-0.488,-163.812,16.793,-71.016
12631,-0.2886,-0.2666,-0.9272,0.061,-0.916,-0.549,-163.812,16.798,-71.005
12641,-0.2886,-0.2661,-0.9268,0.244,-1.038,-0.488,-163.806,16.804,-70.999
12651,-0.2881,-0.2681,-0.9243,0.488,-1.099,-0.427,-163.801,16.809,-70.994
12661,-0.2915,-0.2681,-0.9238,0.488,-1.099,-0.366,-163.795,16.820,-70.983
12671,-0.2920,-0.2681,-0.9194,0.244,-1.038,-0.305,-163.790,16.831,-70.977
12681,-0.2905,-0.2656,-0.9185,0.122,-0.916,-0.305,-163.784,16.842,-70.972
12691,-0.2910,-0.2676,-0.9175,-0.183,-0.671,-0.427,-163.784,16.848,-70.966
12701,-0.2915,-0.2656,-0.9175,-0.488,-0.549,-0.488,-163.790,16.853,-70.961
12711,-0.2925,-0.2671,-0.9185,-0.732,-0.305,-0.671,-163.795,16.853,-70.955
12721,-0.2925,-0.2681,-0.9180,-0.793,-0.122,-0.916,-163.801,16.853,-70.944
12731,-0.2939,-0.2681,-0.9204,-0.854,0.000,-0.977,-163.806,16.853,-70.933
12741,-0.2959,-0.2671,-0.9214,-0.732,0.000,-0.916,-163.812,16.853,-70.922
12751,-0.2964,-0.2676,-0.9219,-0.549,0.000,-0.977,-163.812,16.853,-70.917
12761,-0.2964,-0.2690,-0.9214,-0.305,0.000,-1.038,-163.812,16.853,-70.906
12771,-0.2935,-0.2676,-0.9199,-0.244,-0.122,-1.038,-163.812,16.853,-70.895
12781,-0.2959,-0.2686,-0.9199,-0.183,-0.305,-0.854,-163.806,16.859,-70.884
12791,-0.2979,-0.2734,-0.9229,-0.122,-0.549,-0.732,-163.806,16.864,-70.873
12801,-0.2974,-0.2754,-0.9214,-0.122,-0.610,-0.549,-163.801,16.870,-70.867
12811,-0.2974,-0.2754,-0.9229,-0.122,-0.366,-0.549,-163.795,16.875,-70.862
12821,-0.2964,-0.2759,-0.9243,-0.305,0.000,-0.427,-163.790,16.875,-70.856
12831,-0.2964,-0.2759,-0.9238,-0.427,0.427,-0.183,-163.790,16.875,-70.856
12841,-0.2974,-0.2759,-0.9253,-0.366,0.549,0.061,-163.790,16.875,-70.856
12851,-0.2944,-0.2754,-0.9253,-0.244,0.488,0.183,-163.790,16.870,-70.862
12861,-0.2915,-0.2729,-0.9263,0.000,0.244,0.244,-163.790,16.870,-70.867
12871,-0.2900,-0.2720,-0.9297,0.244,0.122,0.427,-163.790,16.864,-70.867
12881,-0.2939,-0.2715,-0.9297,0.366,0.244,0.610,-163.784,16.864,-70.878
12891,-0.2925,-0.2686,-0.9316,0.366,0.549,0.671,-163.784,16.859,-70.884
12901,-0.2920,-0.2661,-0.9326,0.305,0.793,0.671,-163.790,16.853,-70.895
12911,-0.2939,-0.2642,-0.9355,0.000,0.610,0.610,-163.795,16.848,-70.900
12921,-0.2939,-0.2627,-0.9360,-0.244,0.305,0.549,-163.806,16.848,-70.906
12931,-0.2915,-0.2612,-0.9375,-0.244,-0.244,0.488,-163.812,16.848,-70.911
12941,-0.2925,-0.2593,-0.9375,0.122,-0.610,0.366,-163.823,16.853,-70.917
12951,-0.2935,-0.2578,-0.9351,0.732,-0.916,0.183,-163.823,16.864,-70.911
12961,-0.2930,-0.2598,-0.9302,1.404,-1.038,-0.122,-163.812,16.875,-70.911
12971,-0.2920,-0.2632,-0.9263,1.587,-1.160,-0.427,-163.795,16.886,-70.900
12981,-0.2905,-0.2661,-0.9238,1.221,-1.343,-0.549,-163.784,16.897,-70.889
12991,-0.2915,-0.2676,-0.9194,0.549,-1.465,-0.549,-163.773,16.908,-70.884
13001,-0.2905,-0.2676,-0.9180,-0.305,-1.404,-0.427,-163.773,16.919,-70.873
13011,-0.2939,-0.2676,-0.9204,-0.732,-1.160,-0.427,-163.779,16.930,-70.867
13021,-0.2930,-0.2666,-0.9194,-0.671,-0.732,-0.549,-163.784,16.935,-70.856
13031,-0.2920,-0.2690,-0.9180,-0.305,-0.305,-0.610,-163.784,16.941,-70.851
13041,-0.2925,-0.2710,-0.9170,-0.244,-0.061,-0.549,-163.784,16.941,-70.845
13051,-0.2905,-0.2725,-0.9180,-0.183,-0.061,-0.366,-163.779,16.935,-70.840
13061,-0.2920,-0.2739,-0.9170,-0.305,-0.122,-0.183,-163.779,16.935,-70.840
13071,-0.2920,-0.2744,-0.9170,-0.427,0.000,-0.122,-163.779,16.935,-70.840
13081,-0.2949,-0.2720,-0.9189,-0.549,0.244,-0.061,-163.779,16.935,-70.840
13091,-0.2949,-0.2710,-0.9185,-0.549,0.549,0.000,-163.784,16.935,-70.840
13101,-0.2939,-0.2700,-0.9209,-0.549,0.732,0.122,-163.790,16.930,-70.845
13111,-0.2935,-0.2681,-0.9229,-0.549,0.793,0.122,-163.795,16.919,-70.845
13121,-0.2915,-0.2690,-0.9268,-0.610,0.793,0.000,-163.801,16.913,-70.851
13131,-0.2920,-0.2700,-0.9307,-0.854,0.732,-0.183,-163.812,16.902,-70.851
13141,-0.2900,-0.2690,-0.9351,-0.977,0.610,-0.244,-163.823,16.897,-70.851
13151,-0.2881,-0.2671,-0.9385,-0.793,0.366,-0.305,-163.834,16.886,-70.845
13161,-0.2886,-0.2617,-0.9395,-0.183,-0.305,-0.305,-163.839,16.886,-70.845
13171,-0.2920,-0.2622,-0.9365,0.732,-1.099,-0.427,-163.834,16.891,-70.834
13181,-0.2939,-0.2642,-0.9292,1.831,-1.953,-0.671,-163.817,16.908,-70.823
13191,-0.2959,-0.2700,-0.9204,2.502,-2.441,-0.793,-163.784,16.930,-70.807
13201,-0.2959,-0.2729,-0.9155,2.502,-2.258,-0.916,-163.751,16.952,-70.790
13211,-0.2944,-0.2725,-0.9121,1.831,-1.709,-0.854,-163.729,16.968,-70.779
13221,-0.2954,-0.2705,-0.9121,0.916,-1.038,-0.610,-163.713,16.979,-70.768
13232,-0.2974,-0.2710,-0.9097,0.183,-0.305,-0.305,-163.707,16.985,-70.763
13241,-0.2983,-0.2690,-0.9136,-0.183,0.183,-0.183,-163.707,16.990,-70.763
13251,-0.2974,-0.2686,-0.9155,-0.366,0.671,-0.244,-163.707,16.985,-70.763
13261,-0.2930,-0.2705,-0.9146,-0.610,0.977,-0.244,-163.713,16.974,-70.763
13271,-0.2925,-0.2705,-0.9175,-1.465,0.854,0.061,-163.729,16.968,-70.768
13281,-0.2944,-0.2681,-0.9214,-1.465,0.854,0.305,-163.746,16.963,-70.774
13291,-0.2939,-0.2690,-0.9238,-1.465,0.854,0.488,-163.762,16.957,-70.779
13301,-0.2915,-0.2661,-0.9253,-1.526,0.732,0.671,-163.779,16.952,-70.790
13311,-0.2930,-0.2637,-0.9238,-0.732,0.793,0.732,-163.795,16.946,-70.801
13321,-0.2930,-0.2627,-0.9229,0.000,0.732,0.610,-163.801,16.941,-70.807
13331,-0.2920,-0.2656,-0.9219,0.366,0.610,0.305,-163.801,16.935,-70.812
13341,-0.2915,-0.2656,-0.9229,0.244,0.427,0.000,-163.795,16.930,-70.812
13351,-0.2915,-0.2671,-0.9204,0.061,0.305,-0.366,-163.795,16.924,-70.812
13361,-0.2920,-0.2715,-0.9204,-0.061,0.366,-0.488,-163.795,16.919,-70.807
13371,-0.2905,-0.2720,-0.9185,0.000,0.671,-0.488,-163.790,16.913,-70.801
13381,-0.2920,-0.2744,-0.9199,0.000,0.854,-0.427,-163.784,16.902,-70.801
13391,-0.2930,-0.2778,-0.9214,0.000,0.916,-0.244,-163.779,16.891,-70.801
13401,-0.2920,-0.2778,-0.9219,-0.183,1.099,0.000,-163.779,16.886,-70.807
13411,-0.2915,-0.2769,-0.9219,-0.061,1.343,0.244,-163.773,16.870,-70.812
13421,-0.2949,-0.2744,-0.9214,0.183,1.587,0.488,-163.773,16.859,-70.823
13431,-0.2939,-0.2720,-0.9204,0.427,1.587,0.610,-163.768,16.848,-70.834
13441,-0.2949,-0.2715,-0.9170,0.732,1.587,0.732,-163.762,16.837,-70.845
13451,-0.2930,-0.2715,-0.9131,0.977,1.587,0.732,-163.751,16.826,-70.856
13461,-0.2935,-0.2720,-0.9141,0.916,1.709,0.671,-163.746,16.815,-70.867
13471,-0.2920,-0.2720,-0.9136,0.671,1.892,0.610,-163.735,16.804,-70.878
13481,-0.2944,-0.2715,-0.9111,0.305,2.075,0.549,-163.735,16.787,-70.889
13491,-0.2959,-0.2710,-0.9106,0.122,2.197,0.549,-163.735,16.771,-70.900
13501,-0.2964,-0.2729,-0.9102,0.000,2.380,0.671,-163.735,16.760,-70.917
13511,-0.2954,-0.2744,-0.9141,0.061,2.686,0.671,-163.729,16.738,-70.933
13521,-0.2969,-0.2759,-0.9141,0.000,2.991,0.916,-163.729,16.716,-70.950
13531,-0.2949,-0.2773,-0.9170,-0.183,3.235,1.282,-163.735,16.694,-70.972
13541,-0.2959,-0.2793,-0.9204,-0.244,3.357,1.892,-163.740,16.672,-70.999
13551,-0.2964,-0.2749,-0.9258,-0.427,3.418,2.441,-163.751,16.650,-71.032
13561,-0.2954,-0.2725,-0.9272,-0.610,3.479,2.869,-163.768,16.628,-71.076
13571,-0.2935,-0.2720,-0.9326,-0.854,3.540,3.174,-163.784,16.606,-71.115
13581,-0.2900,-0.2695,-0.9351,-0.854,3.662,3.479,-163.806,16.578,-71.158
13591,-0.2886,-0.2676,-0.9365,-1.282,3.906,3.906,-163.839,16.551,-71.213
13601,-0.2871,-0.2666,-0.9424,-1.709,4.089,4.211,-163.872,16.523,-71.268
13611,-0.2842,-0.2622,-0.9487,-1.831,4.150,4.333,-163.916,16.490,-71.323
13621,-0.2812,-0.2588,-0.9517,-1.526,3.906,4.395,-163.954,16.463,-71.378
13631,-0.2812,-0.2520,-0.9517,-1.099,3.418,4.272,-163.993,16.436,-71.428
13641,-0.2812,-0.2480,-0.9536,-0.549,2.747,3.967,-164.026,16.414,-71.477
13651,-0.2817,-0.2461,-0.9517,-0.122,2.014,3.418,-164.053,16.403,-71.516
13661,-0.2808,-0.2441,-0.9497,0.183,1.099,2.808,-164.075,16.392,-71.548
13671,-0.2837,-0.2451,-0.9478,0.366,0.244,2.197,-164.092,16.397,-71.570
13681,-0.2832,-0.2471,-0.9424,0.366,-0.427,1.587,-164.103,16.403,-71.587
13691,-0.2817,-0.2515,-0.9390,0.000,-0.732,0.977,-164.114,16.408,-71.592
13701,-0.2783,-0.2524,-0.9385,-0.427,-0.977,0.427,-164.125,16.414,-71.592
13711,-0.2788,-0.2539,-0.9380,-0.671,-1.099,0.122,-164.141,16.419,-71.592
13721,-0.2778,-0.2539,-0.9351,-0.793,-1.221,-0.183,-164.152,16.430,-71.587
13731,-0.2793,-0.2559,-0.9331,-0.610,-1.465,-0.549,-164.163,16.436,-71.576
13741,-0.2773,-0.2578,-0.9346,-0.244,-1.648,-0.793,-164.163,16.447,-71.565
13751,-0.2764,-0.2612,-0.9307,0.122,-1.770,-0.916,-164.163,16.458,-71.548
13761,-0.2749,-0.2632,-0.9302,0.244,-1.831,-0.916,-164.158,16.463,-71.537
13771,-0.2744,-0.2637,-0.9272,0.366,-1.953,-0.671,-164.147,16.474,-71.526
13781,-0.2788,-0.2607,-0.9258,0.488,-2.075,-0.610,-164.141,16.490,-71.510
13791,-0.2817,-0.2573,-0.9233,0.854,-2.136,-0.671,-164.130,16.507,-71.499
13801,-0.2852,-0.2598,-0.9189,1.343,-2.014,-0.854,-164.114,16.529,-71.483
13811,-0.2866,-0.2607,-0.9155,1.587,-1.770,-1.038,-164.097,16.545,-71.472
13821,-0.2866,-0.2632,-0.9087,1.282,-1.343,-1.221,-164.075,16.556,-71.455
13831,-0.2866,-0.2632,-0.9121,0.488,-0.793,-1.343,-164.064,16.562,-71.439
13841,-0.2891,-0.2607,-0.9155,-0.427,-0.183,-1.282,-164.064,16.562,-71.422
13851,-0.2871,-0.2607,-0.9199,-1.099,0.244,-1.282,-164.075,16.562,-71.411
13861,-0.2871,-0.2583,-0.9219,-1.282,0.305,-1.404,-164.086,16.556,-71.400
13871,-0.2891,-0.2612,-0.9253,-1.038,0.183,-1.465,-164.092,16.551,-71.384
13881,-0.2871,-0.2646,-0.9263,-0.671,-0.061,-1.587,-164.097,16.545,-71.367
13891,-0.2881,-0.2661,-0.9282,-0.366,-0.305,-1.526,-164.092,16.545,-71.351
13901,-0.2876,-0.2695,-0.9282,-0.244,-0.549,-1.343,-164.086,16.551,-71.340
13911,-0.2881,-0.2695,-0.9292,-0.305,-0.671,-1.160,-164.086,16.551,-71.323
13921,-0.2866,-0.2690,-0.9268,-0.305,-0.671,-1.038,-164.081,16.556,-71.312
13931,-0.2861,-0.2690,-0.9243,-0.183,-0.549,-1.099,-164.075,16.556,-71.301
13941,-0.2866,-0.2686,-0.9248,-0.061,-0.488,-1.160,-164.070,16.562,-71.285
13951,-0.2876,-0.2681,-0.9224,0.122,-0.549,-1.160,-164.064,16.562,-71.274
13961,-0.2891,-0.2671,-0.9199,0.244,-0.549,-1.160,-164.053,16.567,-71.257
13971,-0.2886,-0.2656,-0.9204,0.244,-0.488,-1.160,-164.048,16.573,-71.246
13981,-0.2925,-0.2690,-0.9165,0.061,-0.305,-0.977,-164.037,16.573,-71.235
13991,-0.2935,-0.2671,-0.9170,-0.244,-0.061,-0.916,-164.037,16.578,-71.224
14001,-0.2930,-0.2661,-0.9160,-0.671,0.305,-0.793,-164.037,16.578,-71.219
14011,-0.2939,-0.2661,-0.9204,-0.977,0.732,-0.732,-164.042,16.573,-71.213
14021,-0.2954,-0.2651,-0.9214,-1.160,1.221,-0.610,-164.053,16.567,-71.213
14031,-0.2935,-0.2646,-0.9204,-1.465,1.526,-0.549,-164.070,16.556,-71.208
14041,-0.2915,-0.2646,-0.9233,-1.770,1.648,-0.366,-164.086,16.540,-71.213
14051,-0.2900,-0.2676,-0.9258,-2.136,1.404,-0.305,-164.103,16.529,-71.213
14061,-0.2891,-0.2686,-0.9312,-2.380,1.099,-0.366,-164.125,16.518,-71.213
14071,-0.2886,-0.2676,-0.9355,-2.319,0.732,-0.244,-164.147,16.512,-71.213
14081,-0.2900,-0.2715,-0.9355,-1.953,0.488,-0.244,-164.163,16.507,-71.208
14091,-0.2881,-0.2729,-0.9380,-1.465,0.305,-0.244,-164.174,16.501,-71.208
14101,-0.2861,-0.2725,-0.9370,-0.671,0.183,-0.061,-164.174,16.501,-71.208
14111,-0.2861,-0.2734,-0.9375,0.183,-0.122,0.183,-164.169,16.496,-71.208
14121,-0.2837,-0.2725,-0.9351,1.038,-0.549,0.305,-164.158,16.501,-71.213
14131,-0.2856,-0.2729,-0.9326,1.648,-0.854,0.488,-164.136,16.512,-71.213
14141,-0.2861,-0.2739,-0.9287,1.892,-1.038,0.610,-164.114,16.523,-71.219
14151,-0.2871,-0.2705,-0.9307,1.709,-0.916,0.854,-164.092,16.534,-71.224
14161,-0.2861,-0.2690,-0.9321,1.404,-0.671,1.099,-164.081,16.540,-71.230
14171,-0.2847,-0.2690,-0.9312,1.099,-0.244,1.282,-164.070,16.545,-71.246
14181,-0.2856,-0.2642,-0.9321,0.854,0.000,1.404,-164.070,16.545,-71.257
14191,-0.2871,-0.2607,-0.9302,0.916,0.061,1.465,-164.064,16.551,-71.274
14201,-0.2881,-0.2593,-0.9326,1.160,0.122,1.526,-164.064,16.556,-71.290
14211,-0.2891,-0.2598,-0.9302,1.343,0.183,1.404,-164.059,16.556,-71.301
14221,-0.2866,-0.2598,-0.9316,1.282,0.122,1.343,-164.053,16.562,-71.318
14231,-0.2871,-0.2578,-0.9316,1.099,-0.061,1.404,-164.048,16.562,-71.334
14241,-0.2866,-0.2573,-0.9312,0.732,-0.305,1.465,-164.053,16.573,-71.345
14251,-0.2856,-0.2568,-0.9302,0.305,-0.610,1.343,-164.059,16.578,-71.356
14261,-0.2852,-0.2563,-0.9312,0.244,-0.854,1.160,-164.064,16.589,-71.367
14271,-0.2847,-0.2563,-0.9307,0.366,-0.916,0.854,-164.064,16.600,-71.373
14281,-0.2842,-0.2583,-0.9316,0.671,-0.854,0.549,-164.064,16.606,-71.373
14291,-0.2832,-0.2578,-0.9321,0.916,-0.854,0.366,-164.059,16.611,-71.378
14301,-0.2856,-0.2603,-0.9268,1.038,-0.977,0.244,-164.053,16.622,-71.378
14311,-0.2871,-0.2607,-0.9233,0.977,-1.160,0.122,-164.042,16.633,-71.373
14321,-0.2866,-0.2617,-0.9224,0.977,-1.221,0.000,-164.031,16.644,-71.373
14331,-0.2852,-0.2627,-0.9209,0.793,-1.038,-0.244,-164.026,16.655,-71.367
14341,-0.2847,-0.2651,-0.9165,0.610,-0.732,-0.427,-164.015,16.661,-71.356
14351,-0.2837,-0.2681,-0.9116,0.366,-0.427,-0.549,-164.004,16.661,-71.351
14361,-0.2812,-0.2690,-0.9092,0.000,-0.183,-0.427,-163.998,16.661,-71.345
14371,-0.2788,-0.2749,-0.9077,-0.549,0.122,-0.244,-163.998,16.655,-71.345
14381,-0.2803,-0.2754,-0.9063,-1.221,0.549,0.366,-163.998,16.650,-71.351
14391,-0.2822,-0.2715,-0.9082,-2.014,1.343,1.343,-164.020,16.639,-71.367
14401,-0.2847,-0.2651,-0.9102,-2.625,2.502,2.258,-164.053,16.622,-71.400
14411,-0.2852,-0.2563,-0.9155,-2.930,3.723,2.747,-164.092,16.595,-71.439
14421,-0.2861,-0.2495,-0.9209,-3.052,4.761,2.747,-164.141,16.556,-71.477
14431,-0.2842,-0.2456,-0.9263,-3.296,5.371,2.441,-164.196,16.512,-71.516
14441,-0.2832,-0.2441,-0.9312,-3.784,5.432,2.014,-164.257,16.469,-71.554
14451,-0.2837,-0.2432,-0.9346,-4.456,5.188,1.526,-164.317,16.419,-71.581
14461,-0.2842,-0.2402,-0.9453,-5.127,4.700,0.916,-164.388,16.375,-71.603
14471,-0.2832,-0.2393,-0.9507,-5.249,4.150,0.122,-164.460,16.337,-71.620
14481,-0.2827,-0.2437,-0.9536,-4.761,3.479,-0.732,-164.520,16.298,-71.620
14491,-0.2808,-0.2471,-0.9561,-3.784,2.686,-1.526,-164.564,16.260,-71.614
14501,-0.2817,-0.2529,-0.9585,-2.686,1.709,-2.197,-164.597,16.238,-71.592
14511,-0.2852,-0.2578,-0.9541,-1.465,0.610,-2.319,-164.608,16.221,-71.576
14521,-0.2842,-0.2612,-0.9512,-0.488,-0.427,-2.258,-164.603,16.221,-71.548
14531,-0.2861,-0.2632,-0.9478,0.305,-1.282,-2.197,-164.592,16.227,-71.526
14541,-0.2866,-0.2617,-0.9346,1.282,-2.319,-2.075,-164.570,16.243,-71.499
14551,-0.2866,-0.2646,-0.9292,1.343,-2.502,-2.136,-164.542,16.265,-71.466
14561,-0.2871,-0.2666,-0.9253,1.160,-2.441,-2.014,-164.520,16.287,-71.439
14571,-0.2856,-0.2661,-0.9214,0.793,-2.075,-1.831,-164.498,16.304,-71.417
14581,-0.2866,-0.2666,-0.9194,0.366,-1.770,-1.526,-164.482,16.320,-71.395
14591,-0.2881,-0.2656,-0.9199,-0.061,-1.343,-1.221,-164.471,16.337,-71.378
14601,-0.2881,-0.2632,-0.9199,-0.305,-0.977,-0.977,-164.465,16.348,-71.367
14611,-0.2896,-0.2632,-0.9229,-0.183,-0.793,-0.854,-164.465,16.359,-71.356
14621,-0.2891,-0.2637,-0.9253,0.061,-0.610,-0.732,-164.454,16.364,-71.351
14631,-0.2891,-0.2637,-0.9253,0.305,-0.366,-0.610,-164.449,16.370,-71.340
14641,-0.2871,-0.2661,-0.9233,0.488,-0.183,-0.427,-164.438,16.375,-71.334
14651,-0.2891,-0.2661,-0.9209,0.244,-0.244,-0.244,-164.427,16.381,-71.334
14661,-0.2891,-0.2637,-0.9219,0.061,-0.366,-0.183,-164.421,16.386,-71.329
14671,-0.2886,-0.2627,-0.9263,-0.183,-0.549,-0.122,-164.421,16.392,-71.329
14681,-0.2881,-0.2632,-0.9282,-0.183,-0.549,-0.183,-164.416,16.403,-71.323
14691,-0.2881,-0.2622,-0.9263,-0.122,-0.549,-0.305,-164.416,16.408,-71.318
14701,-0.2871,-0.2622,-0.9253,0.305,-0.366,-0.305,-164.410,16.414,-71.318
14711,-0.2866,-0.2646,-0.9268,0.671,-0.244,-0.244,-164.399,16.414,-71.312
14721,-0.2866,-0.2656,-0.9287,0.854,-0.305,-0.244,-164.383,16.419,-71.307
14731,-0.2861,-0.2676,-0.9272,0.916,-0.305,-0.122,-164.372,16.425,-71.307
14741,-0.2861,-0.2661,-0.9302,0.977,-0.244,0.061,-164.355,16.425,-71.307
14751,-0.2861,-0.2656,-0.9297,1.038,-0.244,0.366,-164.344,16.430,-71.312
14761,-0.2842,-0.2637,-0.9297,1.221,-0.305,0.610,-164.333,16.436,-71.318
14771,-0.2861,-0.2612,-0.9282,1.465,-0.366,0.793,-164.323,16.441,-71.323
14781,-0.2881,-0.2593,-0.9268,1.587,-0.549,0.977,-164.306,16.452,-71.329
14791,-0.2891,-0.2583,-0.9253,1.526,-0.549,1.038,-164.295,16.463,-71.340
14801,-0.2891,-0.2588,-0.9272,1.282,-0.244,0.977,-164.284,16.469,-71.351
14811,-0.2861,-0.2583,-0.9282,0.916,0.061,0.916,-164.284,16.469,-71.356
14821,-0.2871,-0.2588,-0.9272,0.610,0.244,0.854,-164.279,16.474,-71.367
14831,-0.2866,-0.2573,-0.9307,0.427,0.305,0.854,-164.279,16.474,-71.378
14841,-0.2837,-0.2578,-0.9307,0.427,0.122,0.732,-164.279,16.474,-71.384
14851,-0.2822,-0.2568,-0.9307,0.427,-0.183,0.610,-164.279,16.474,-71.389
14861,-0.2827,-0.2588,-0.9341,0.610,-0.427,0.549,-164.279,16.479,-71.395
14871,-0.2847,-0.2612,-0.9336,0.610,-0.427,0.427,-164.273,16.479,-71.395
14881,-0.2852,-0.2612,-0.9321,0.549,-0.244,0.366,-164.268,16.485,-71.400
14891,-0.2847,-0.2612,-0.9321,0.488,-0.061,0.488,-164.268,16.485,-71.406
14901,-0.2832,-0.2603,-0.9341,0.427,0.061,0.549,-164.268,16.485,-71.411
14911,-0.2861,-0.2598,-0.9355,0.488,-0.061,0.610,-164.268,16.485,-71.417
14921,-0.2876,-0.2598,-0.9355,0.610,-0.305,0.671,-164.262,16.490,-71.422
14931,-0.2896,-0.2588,-0.9351,0.732,-0.549,0.610,-164.262,16.496,-71.428
14941,-0.2866,-0.2563,-0.9321,0.916,-0.671,0.549,-164.257,16.507,-71.433
14951,-0.2871,-0.2573,-0.9287,1.038,-0.671,0.488,-164.246,16.512,-71.433
14961,-0.2871,-0.2588,-0.9282,1.038,-0.671,0.488,-164.240,16.523,-71.439
14971,-0.2852,-0.2583,-0.9268,0.793,-0.549,0.488,-164.235,16.529,-71.439
14981,-0.2861,-0.2593,-0.9272,0.366,-0.549,0.366,-164.235,16.534,-71.444
14991,-0.2847,-0.2593,-0.9302,0.000,-0.488,0.305,-164.235,16.540,-71.444
15001,-0.2847,-0.2563,-0.9287,-0.061,-0.549,0.183,-164.240,16.545,-71.444
15011,-0.2852,-0.2549,-0.9282,0.244,-0.549,0.061,-164.240,16.551,-71.444
15021,-0.2842,-0.2583,-0.9253,0.732,-0.549,0.000,-164.235,16.556,-71.444
15031,-0.2852,-0.2598,-0.9258,0.977,-0.488,-0.061,-164.224,16.562,-71.439
15041,-0.2852,-0.2607,-0.9248,0.854,-0.305,-0.122,-164.218,16.562,-71.439
15051,-0.2856,-0.2637,-0.9243,0.366,0.000,-0.061,-164.213,16.562,-71.439
15061,-0.2837,-0.2617,-0.9238,-0.244,0.305,0.061,-164.213,16.556,-71.439
15071,-0.2861,-0.2612,-0.9268,-0.732,0.488,0.122,-164.224,16.551,-71.439
15081,-0.2856,-0.2593,-0.9277,-0.793,0.610,0.122,-164.235,16.545,-71.444
15091,-0.2861,-0.2578,-0.9302,-0.488,0.549,0.061,-164.240,16.540,-71.444
15101,-0.2876,-0.2588,-0.9312,-0.122,0.427,0.061,-164.246,16.540,-71.450
15111,-0.2861,-0.2612,-0.9316,0.244,0.305,0.000,-164.246,16.534,-71.450
15121,-0.2866,-0.2598,-0.9321,0.305,0.183,0.000,-164.246,16.534,-71.450
15131,-0.2856,-0.2593,-0.9307,0.122,0.122,0.061,-164.246,16.529,-71.450
15141,-0.2876,-0.2588,-0.9312,-0.061,0.061,0.122,-164.246,16.529,-71.450
15151,-0.2896,-0.2573,-0.9331,-0.183,0.000,0.000,-164.251,16.534,-71.450
15161,-0.2886,-0.2573,-0.9312,-0.122,-0.122,-0.244,-164.257,16.534,-71.450
15171,-0.2886,-0.2598,-0.9321,-0.122,-0.305,-0.366,-164.257,16.534,-71.444
15181,-0.2886,-0.2593,-0.9316,-0.122,-0.549,-0.549,-164.257,16.540,-71.439
15191,-0.2891,-0.2617,-0.9312,0.000,-0.671,-0.732,-164.257,16.545,-71.428
15201,-0.2905,-0.2612,-0.9302,0.061,-0.732,-0.854,-164.251,16.551,-71.417
15211,-0.2886,-0.2617,-0.9316,0.061,-0.793,-0.793,-164.251,16.562,-71.406
15221,-0.2871,-0.2651,-0.9302,0.061,-0.793,-0.671,-164.246,16.567,-71.400
15233,-0.2881,-0.2700,-0.9282,0.000,-0.610,-0.610,-164.240,16.567,-71.389
15241,-0.2876,-0.2690,-0.9302,-0.122,-0.488,-0.427,-164.235,16.573,-71.384
15251,-0.2886,-0.2681,-0.9272,0.000,-0.427,-0.122,-164.229,16.578,-71.384
15261,-0.2905,-0.2666,-0.9272,0.305,-0.244,0.061,-164.224,16.584,-71.384
15271,-0.2900,-0.2676,-0.9243,0.488,-0.244,0.183,-164.218,16.584,-71.384
15281,-0.2915,-0.2656,-0.9238,0.305,-0.122,0.366,-164.213,16.589,-71.389
15291,-0.2881,-0.2642,-0.9238,0.000,-0.061,0.488,-164.213,16.595,-71.389
15301,-0.2915,-0.2627,-0.9243,-0.122,-0.061,0.671,-164.213,16.600,-71.400
15311,-0.2915,-0.2612,-0.9229,-0.122,0.000,0.732,-164.218,16.606,-71.406
15321,-0.2905,-0.2632,-0.9248,0.122,0.061,0.549,-164.218,16.606,-71.411
15331,-0.2886,-0.2632,-0.9248,0.244,0.122,0.427,-164.213,16.606,-71.417
15341,-0.2891,-0.2671,-0.9258,0.122,0.061,0.549,-164.213,16.611,-71.422
15351,-0.2905,-0.2661,-0.9258,-0.183,-0.122,0.549,-164.213,16.617,-71.428
15361,-0.2900,-0.2612,-0.9268,-0.427,-0.305,0.610,-164.218,16.622,-71.433
15371,-0.2891,-0.2598,-0.9287,-0.183,-0.305,0.671,-164.224,16.628,-71.439
15381,-0.2881,-0.2593,-0.9253,0.244,-0.244,0.671,-164.224,16.633,-71.444
15391,-0.2871,-0.2607,-0.9253,0.793,-0.122,0.488,-164.218,16.633,-71.450
15401,-0.2871,-0.2617,-0.9253,1.099,-0.122,0.305,-164.207,16.633,-71.450
15411,-0.2876,-0.2637,-0.9224,1.038,-0.122,0.366,-164.196,16.639,-71.455
15421,-0.2856,-0.2627,-0.9214,0.793,-0.244,0.488,-164.191,16.639,-71.461
15431,-0.2871,-0.2612,-0.9204,0.488,-0.244,0.488,-164.185,16.644,-71.461
15441,-0.2866,-0.2622,-0.9233,0.305,-0.061,0.488,-164.180,16.650,-71.466
15451,-0.2891,-0.2603,-0.9238,0.122,0.244,0.366,-164.185,16.644,-71.472
15461,-0.2881,-0.2598,-0.9282,0.061,0.549,0.427,-164.185,16.644,-71.477
15471,-0.2881,-0.2607,-0.9282,0.183,0.671,0.610,-164.185,16.639,-71.488
15481,-0.2876,-0.2598,-0.9268,0.244,0.671,0.549,-164.191,16.633,-71.494
15491,-0.2905,-0.2588,-0.9268,0.366,0.793,0.427,-164.191,16.628,-71.499
15501,-0.2881,-0.2603,-0.9268,0.183,0.854,0.366,-164.191,16.622,-71.505
15511,-0.2876,-0.2588,-0.9297,-0.183,0.916,0.305,-164.196,16.611,-71.510
15521,-0.2891,-0.2583,-0.9302,-0.427,0.916,0.305,-164.207,16.606,-71.516
15531,-0.2886,-0.2603,-0.9302,-0.549,0.916,0.183,-164.213,16.600,-71.521
15541,-0.2910,-0.2593,-0.9316,-0.549,0.977,0.122,-164.224,16.589,-71.526
15551,-0.2900,-0.2603,-0.9336,-0.427,1.099,0.061,-164.229,16.584,-71.532
15561,-0.2886,-0.2612,-0.9351,-0.183,1.160,0.122,-164.235,16.573,-71.532
15571,-0.2905,-0.2642,-0.9370,0.000,1.099,0.061,-164.235,16.562,-71.537
15581,-0.2910,-0.2642,-0.9346,0.061,0.854,0.061,-164.235,16.551,-71.543
15591,-0.2896,-0.2651,-0.9351,-0.061,0.549,0.122,-164.235,16.551,-71.543
15601,-0.2866,-0.2642,-0.9351,-0.122,0.305,0.244,-164.240,16.545,-71.548
15611,-0.2881,-0.2632,-0.9331,-0.061,0.061,0.305,-164.240,16.545,-71.548
15621,-0.2871,-0.2617,-0.9326,0.244,-0.061,0.244,-164.240,16.545,-71.554
15631,-0.2900,-0.2617,-0.9316,0.732,-0.183,0.305,-164.235,16.551,-71.554
15641,-0.2896,-0.2642,-0.9292,1.282,-0.366,0.244,-164.218,16.556,-71.554
15651,-0.2881,-0.2651,-0.9277,1.526,-0.488,0.183,-164.202,16.562,-71.554
15661,-0.2891,-0.2656,-0.9248,1.404,-0.427,0.183,-164.185,16.567,-71.559
15671,-0.2861,-0.2656,-0.9238,0.916,-0.122,0.244,-164.174,16.573,-71.559
15681,-0.2856,-0.2642,-0.9229,0.244,0.244,0.366,-164.174,16.567,-71.565
15691,-0.2866,-0.2637,-0.9243,-0.122,0.549,0.610,-164.174,16.567,-71.570
15701,-0.2852,-0.2607,-0.9233,0.183,0.732,0.793,-164.180,16.562,-71.581
15711,-0.2896,-0.2603,-0.9272,0.549,0.671,0.854,-164.174,16.556,-71.592
15721,-0.2900,-0.2603,-0.9282,0.977,0.488,0.854,-164.169,16.556,-71.603
15731,-0.2886,-0.2622,-0.9253,1.038,0.427,0.793,-164.163,16.556,-71.609
15741,-0.2905,-0.2598,-0.9229,0.732,0.549,0.854,-164.158,16.556,-71.620
15751,-0.2910,-0.2588,-0.9258,-0.122,0.549,0.916,-164.169,16.556,-71.631
15761,-0.2900,-0.2549,-0.9282,-0.977,0.549,0.854,-164.185,16.556,-71.642
15771,-0.2876,-0.2549,-0.9297,-0.916,0.488,0.610,-164.202,16.556,-71.647
15781,-0.2847,-0.2549,-0.9307,-0.732,0.366,0.305,-164.213,16.551,-71.653
15791,-0.2837,-0.2578,-0.9292,-0.549,0.061,0.061,-164.224,16.551,-71.653
15801,-0.2842,-0.2588,-0.9297,-0.244,-0.427,-0.061,-164.224,16.551,-71.653
15811,-0.2812,-0.2612,-0.9292,0.305,-0.793,-0.122,-164.224,16.556,-71.653
15821,-0.2793,-0.2627,-0.9258,0.793,-1.038,-0.183,-164.213,16.562,-71.653
15831,-0.2808,-0.2627,-0.9224,1.221,-1.282,-0.183,-164.196,16.573,-71.653
15841,-0.2822,-0.2681,-0.9170,1.404,-1.282,-0.122,-164.180,16.578,-71.653
15851,-0.2822,-0.2720,-0.9092,1.099,-1.099,0.122,-164.158,16.589,-71.653
15861,-0.2837,-0.2632,-0.9111,0.366,-0.610,0.732,-164.152,16.600,-71.653
15871,-0.2881,-0.2598,-0.9102,-0.488,0.549,1.648,-164.163,16.600,-71.669
15881,-0.2881,-0.2593,-0.9102,-1.038,1.953,1.892,-164.180,16.595,-71.697
15891,-0.2856,-0.2549,-0.9141,-1.892,3.296,1.831,-164.207,16.567,-71.724
15901,-0.2827,-0.2500,-0.9170,-2.563,4.089,1.770,-164.246,16.534,-71.752
15911,-0.2803,-0.2485,-0.9209,-3.296,4.822,1.709,-164.295,16.490,-71.785
15921,-0.2783,-0.2466,-0.9243,-4.089,5.127,1.526,-164.350,16.441,-71.812
15931,-0.2783,-0.2441,-0.9336,-4.700,5.066,1.160,-164.416,16.397,-71.840
15941,-0.2773,-0.2432,-0.9395,-4.944,4.517,0.732,-164.482,16.348,-71.862
15951,-0.2769,-0.2441,-0.9424,-4.761,3.906,0.000,-164.542,16.309,-71.873
15961,-0.2778,-0.2490,-0.9424,-4.211,3.235,-0.671,-164.586,16.271,-71.873
15971,-0.2793,-0.2534,-0.9448,-3.357,2.686,-1.404,-164.625,16.238,-71.867
15981,-0.2778,-0.2588,-0.9443,-2.380,2.075,-1.892,-164.647,16.210,-71.851
15991,-0.2788,-0.2598,-0.9482,-1.465,1.343,-2.075,-164.652,16.188,-71.834
16001,-0.2788,-0.2622,-0.9458,-0.610,0.610,-1.892,-164.652,16.172,-71.818
16011,-0.2817,-0.2646,-0.9429,0.061,-0.061,-1.770,-164.647,16.166,-71.801
16021,-0.2837,-0.2637,-0.9375,0.549,-0.610,-1.587,-164.630,16.172,-71.785
16031,-0.2856,-0.2642,-0.9370,0.854,-1.038,-1.526,-164.614,16.177,-71.763
16041,-0.2876,-0.2617,-0.9370,0.977,-1.282,-1.465,-164.597,16.188,-71.746
16051,-0.2915,-0.2598,-0.9336,1.038,-1.343,-1.282,-164.581,16.205,-71.730
16061,-0.2915,-0.2588,-0.9316,1.221,-1.343,-1.099,-164.564,16.221,-71.713
16071,-0.2935,-0.2588,-0.9307,1.404,-1.404,-1.038,-164.542,16.238,-71.702
16081,-0.2939,-0.2593,-0.9307,1.404,-1.465,-0.916,-164.526,16.254,-71.686
16091,-0.2935,-0.2573,-0.9312,1.038,-1.465,-0.854,-164.515,16.276,-71.675
16101,-0.2935,-0.2563,-0.9282,0.549,-1.343,-0.854,-164.504,16.293,-71.664
16111,-0.2935,-0.2583,-0.9243,0.000,-1.038,-0.854,-164.498,16.304,-71.653
16121,-0.2910,-0.2598,-0.9233,-0.366,-0.610,-0.732,-164.498,16.315,-71.642
16131,-0.2910,-0.2607,-0.9272,-0.671,-0.305,-0.427,-164.504,16.320,-71.636
16141,-0.2900,-0.2622,-0.9263,-0.732,-0.244,-0.183,-164.504,16.331,-71.636
16151,-0.2900,-0.2632,-0.9258,-0.793,-0.244,-0.061,-164.509,16.337,-71.631
16161,-0.2915,-0.2637,-0.9282,-0.854,-0.305,0.061,-164.515,16.342,-71.631
16171,-0.2881,-0.2642,-0.9316,-0.854,-0.183,0.000,-164.520,16.348,-71.631
16181,-0.2856,-0.2651,-0.9312,-0.732,0.000,-0.122,-164.520,16.348,-71.631
16191,-0.2822,-0.2656,-0.9312,-0.488,0.122,-0.061,-164.520,16.348,-71.631
16201,-0.2803,-0.2700,-0.9346,-0.183,0.000,0.122,-164.515,16.342,-71.631
16211,-0.2788,-0.2695,-0.9346,0.122,-0.244,0.366,-164.509,16.342,-71.636
16221,-0.2773,-0.2690,-0.9375,0.427,-0.610,0.671,-164.504,16.348,-71.642
16231,-0.2798,-0.2642,-0.9336,0.916,-0.977,0.977,-164.493,16.353,-71.647
16241,-0.2793,-0.2617,-0.9336,1.587,-1.160,1.099,-164.476,16.364,-71.653
16251,-0.2798,-0.2568,-0.9321,2.380,-1.343,1.160,-164.460,16.381,-71.664
