elapsed_ms,acc_x_g,acc_y_g,acc_z_g,gyro_x_dps,gyro_y_dps,gyro_z_dps,angle_x_deg,angle_y_deg,angle_z_deg
0,-0.3223,-0.6152,-0.7173,-0.977,-0.183,-0.305,-138.911,18.869,-15.694
10,-0.3228,-0.6187,-0.7163,-0.671,-0.244,-0.427,-138.922,18.869,-15.688
20,-0.3223,-0.6206,-0.7139,-0.244,-0.427,-0.549,-138.922,18.869,-15.683
30,-0.3208,-0.6221,-0.7109,-0.061,-0.610,-0.549,-138.917,18.869,-15.672
40,-0.3188,-0.6235,-0.7114,-0.183,-0.793,-0.427,-138.917,18.869,-15.667
50,-0.3179,-0.6230,-0.7124,-0.366,-1.038,-0.366,-138.917,18.875,-15.656
60,-0.3188,-0.6255,-0.7109,-0.427,-1.221,-0.427,-138.911,18.875,-15.645
73,-0.3188,-0.6265,-0.7100,-0.183,-1.282,-0.488,-138.906,18.880,-15.628
80,-0.3193,-0.6270,-0.7070,0.061,-1.221,-0.488,-138.895,18.885,-15.617
90,-0.3188,-0.6299,-0.7046,0.244,-1.038,-0.427,-138.884,18.885,-15.606
100,-0.3223,-0.6289,-0.7017,0.305,-0.610,-0.305,-138.873,18.891,-15.601
110,-0.3237,-0.6289,-0.7021,0.183,-0.183,-0.122,-138.862,18.891,-15.595
120,-0.3257,-0.6289,-0.7031,0.122,0.061,0.061,-138.856,18.891,-15.601
130,-0.3271,-0.6270,-0.7041,-0.122,0.183,0.305,-138.851,18.896,-15.601
140,-0.3257,-0.6255,-0.7065,-0.244,0.244,0.427,-138.851,18.896,-15.606
150,-0.3281,-0.6230,-0.7070,-0.244,0.305,0.610,-138.856,18.902,-15.612
160,-0.3281,-0.6235,-0.7114,-0.122,0.366,0.610,-138.856,18.907,-15.623
170,-0.3267,-0.6216,-0.7144,0.061,0.488,0.549,-138.862,18.907,-15.628
180,-0.3281,-0.6216,-0.7153,0.122,0.549,0.427,-138.862,18.907,-15.639
190,-0.3286,-0.6211,-0.7144,0.000,0.549,0.366,-138.867,18.907,-15.645
200,-0.3267,-0.6216,-0.7148,-0.122,0.366,0.305,-138.867,18.907,-15.650
210,-0.3252,-0.6240,-0.7153,-0.183,0.061,0.305,-138.873,18.907,-15.650
220,-0.3252,-0.6245,-0.7178,-0.122,-0.305,0.366,-138.873,18.913,-15.650
230,-0.3252,-0.6235,-0.7148,0.061,-0.427,0.488,-138.873,18.918,-15.656
240,-0.3262,-0.6230,-0.7148,0.366,-0.427,0.671,-138.873,18.929,-15.656
250,-0.3242,-0.6240,-0.7129,0.610,-0.305,0.793,-138.867,18.935,-15.661
260,-0.3232,-0.6250,-0.7109,0.610,-0.305,0.916,-138.862,18.946,-15.667
270,-0.3213,-0.6240,-0.7090,0.305,-0.305,0.977,-138.856,18.951,-15.672
280,-0.3193,-0.6240,-0.7095,0.000,-0.305,1.038,-138.856,18.957,-15.677
290,-0.3213,-0.6216,-0.7124,-0.122,-0.244,1.038,-138.862,18.962,-15.683
300,-0.3218,-0.6196,-0.7144,0.000,-0.244,1.038,-138.867,18.968,-15.688
310,-0.3213,-0.6191,-0.7144,0.366,-0.305,0.977,-138.867,18.979,-15.694
320,-0.3203,-0.6191,-0.7119,0.916,-0.427,0.977,-138.862,18.984,-15.699
330,-0.3208,-0.6157,-0.7114,0.977,-0.427,0.916,-138.856,18.990,-15.705
340,-0.3213,-0.6152,-0.7095,0.977,-0.549,0.977,-138.845,19.001,-15.710
350,-0.3237,-0.6162,-0.7065,0.916,-0.549,1.038,-138.840,19.012,-15.710
361,-0.3257,-0.6128,-0.7075,0.732,-0.488,0.977,-138.840,19.023,-15.716
371,-0.3252,-0.6133,-0.7085,0.610,-0.366,0.854,-138.834,19.034,-15.721
381,-0.3242,-0.6147,-0.7109,0.488,-0.122,0.732,-138.834,19.039,-15.727
391,-0.3213,-0.6147,-0.7153,0.366,0.061,0.671,-138.840,19.039,-15.732
400,-0.3188,-0.6152,-0.7178,0.305,0.305,0.610,-138.845,19.039,-15.738
411,-0.3213,-0.6138,-0.7183,0.244,0.122,0.549,-138.851,19.039,-15.743
421,-0.3184,-0.6133,-0.7158,0.244,-0.061,0.427,-138.851,19.039,-15.749
431,-0.3213,-0.6123,-0.7163,0.305,-0.244,0.305,-138.856,19.039,-15.749
441,-0.3223,-0.6128,-0.7158,0.244,-0.366,0.061,-138.862,19.039,-15.743
451,-0.3232,-0.6138,-0.7158,0.061,-0.366,-0.183,-138.862,19.045,-15.743
461,-0.3242,-0.6152,-0.7153,-0.305,-0.366,-0.427,-138.867,19.039,-15.738
471,-0.3228,-0.6157,-0.7139,-0.671,-0.427,-0.549,-138.878,19.039,-15.727
481,-0.3247,-0.6177,-0.7124,-0.793,-0.488,-0.732,-138.884,19.039,-15.721
491,-0.3228,-0.6201,-0.7119,-0.732,-0.610,-0.854,-138.889,19.034,-15.710
501,-0.3218,-0.6226,-0.7114,-0.610,-0.793,-0.977,-138.889,19.034,-15.694
511,-0.3218,-0.6245,-0.7075,-0.427,-1.099,-0.977,-138.884,19.034,-15.677
521,-0.3218,-0.6279,-0.7041,-0.183,-1.221,-0.916,-138.873,19.034,-15.667
531,-0.3208,-0.6299,-0.7017,0.000,-1.343,-0.732,-138.862,19.034,-15.650
541,-0.3213,-0.6294,-0.7007,0.183,-1.221,-0.549,-138.845,19.039,-15.634
551,-0.3237,-0.6270,-0.7017,0.549,-0.977,-0.244,-138.834,19.045,-15.628
561,-0.3281,-0.6250,-0.6992,0.977,-0.671,0.000,-138.818,19.050,-15.623
571,-0.3311,-0.6230,-0.6938,1.526,-0.366,0.000,-138.790,19.061,-15.623
581,-0.3315,-0.6206,-0.6895,1.709,-0.061,-0.122,-138.768,19.067,-15.617
591,-0.3335,-0.6221,-0.6904,1.343,0.244,-0.122,-138.746,19.072,-15.617
601,-0.3345,-0.6250,-0.6914,0.549,0.732,0.000,-138.735,19.072,-15.623
611,-0.3330,-0.6265,-0.6938,-0.427,1.343,0.061,-138.735,19.067,-15.634
621,-0.3291,-0.6240,-0.7002,-1.160,1.953,0.061,-138.746,19.056,-15.650
631,-0.3267,-0.6265,-0.7085,-1.526,2.502,0.183,-138.763,19.039,-15.667
641,-0.3242,-0.6279,-0.7148,-1.465,2.808,0.427,-138.785,19.017,-15.688
651,-0.3237,-0.6284,-0.7217,-1.160,2.747,0.549,-138.807,18.995,-15.716
661,-0.3242,-0.6270,-0.7246,-0.610,2.441,0.732,-138.823,18.979,-15.738
671,-0.3223,-0.6255,-0.7285,-0.244,1.892,0.916,-138.834,18.968,-15.754
681,-0.3213,-0.6235,-0.7305,0.122,1.343,0.977,-138.845,18.962,-15.776
691,-0.3203,-0.6211,-0.7295,0.488,0.793,1.038,-138.856,18.957,-15.787
701,-0.3193,-0.6177,-0.7271,0.671,0.244,0.916,-138.856,18.957,-15.798
711,-0.3198,-0.6177,-0.7236,0.854,-0.122,0.854,-138.856,18.957,-15.804
721,-0.3213,-0.6162,-0.7236,0.977,-0.427,0.732,-138.856,18.962,-15.804
731,-0.3213,-0.6157,-0.7212,0.916,-0.671,0.610,-138.856,18.973,-15.804
741,-0.3198,-0.6152,-0.7178,0.732,-0.732,0.427,-138.851,18.979,-15.804
751,-0.3213,-0.6157,-0.7163,0.427,-0.732,0.305,-138.851,18.984,-15.804
761,-0.3208,-0.6157,-0.7163,0.183,-0.732,0.183,-138.851,18.984,-15.798
771,-0.3218,-0.6138,-0.7124,0.122,-0.793,0.061,-138.856,18.990,-15.793
781,-0.3218,-0.6128,-0.7119,0.122,-0.793,0.000,-138.856,18.995,-15.787
791,-0.3223,-0.6113,-0.7104,0.183,-0.793,-0.183,-138.856,19.001,-15.782
801,-0.3228,-0.6113,-0.7104,0.183,-0.610,-0.305,-138.856,19.006,-15.771
811,-0.3237,-0.6143,-0.7070,0.122,-0.427,-0.427,-138.856,19.006,-15.765
821,-0.3228,-0.6167,-0.7041,-0.061,-0.366,-0.549,-138.851,19.006,-15.760
831,-0.3237,-0.6152,-0.7061,-0.305,-0.305,-0.549,-138.856,19.006,-15.754
841,-0.3232,-0.6162,-0.7075,-0.488,-0.061,-0.610,-138.856,19.001,-15.749
851,-0.3247,-0.6191,-0.7070,-0.610,0.061,-0.793,-138.862,18.995,-15.743
861,-0.3247,-0.6191,-0.7061,-0.671,0.122,-0.793,-138.867,18.990,-15.738
871,-0.3223,-0.6235,-0.7085,-0.671,0.244,-0.732,-138.867,18.984,-15.732
881,-0.3203,-0.6255,-0.7095,-0.732,0.488,-0.549,-138.873,18.973,-15.732
891,-0.3203,-0.6245,-0.7114,-0.671,0.610,-0.427,-138.878,18.962,-15.732
901,-0.3223,-0.6211,-0.7139,-0.488,0.732,-0.305,-138.884,18.951,-15.738
911,-0.3223,-0.6206,-0.7144,-0.183,0.732,-0.305,-138.889,18.946,-15.738
921,-0.3242,-0.6201,-0.7144,0.183,0.610,-0.427,-138.889,18.935,-15.738
931,-0.3237,-0.6230,-0.7139,0.305,0.427,-0.488,-138.884,18.929,-15.738
941,-0.3218,-0.6245,-0.7129,0.183,0.427,-0.427,-138.884,18.924,-15.738
951,-0.3232,-0.6255,-0.7129,-0.061,0.183,-0.427,-138.878,18.918,-15.738
961,-0.3237,-0.6265,-0.7153,-0.305,0.000,-0.366,-138.884,18.913,-15.732
971,-0.3262,-0.6255,-0.7158,-0.305,-0.061,-0.244,-138.884,18.913,-15.732
981,-0.3271,-0.6240,-0.7173,-0.122,0.061,-0.183,-138.884,18.913,-15.727
991,-0.3262,-0.6245,-0.7163,0.244,0.122,-0.061,-138.884,18.913,-15.727
1001,-0.3286,-0.6245,-0.7148,0.549,0.122,-0.122,-138.878,18.913,-15.727
1011,-0.3276,-0.6274,-0.7139,0.549,0.000,-0.122,-138.873,18.913,-15.727
1021,-0.3247,-0.6265,-0.7139,0.244,-0.244,0.000,-138.867,18.913,-15.727
1031,-0.3232,-0.6245,-0.7124,-0.183,-0.427,0.061,-138.867,18.913,-15.727
1041,-0.3242,-0.6235,-0.7129,-0.366,-0.610,0.122,-138.867,18.918,-15.721
1051,-0.3228,-0.6245,-0.7153,-0.244,-0.610,0.183,-138.867,18.924,-15.716
1061,-0.3223,-0.6235,-0.7153,0.122,-0.549,0.183,-138.867,18.929,-15.716
1071,-0.3218,-0.6245,-0.7139,0.549,-0.488,0.305,-138.862,18.929,-15.716
1081,-0.3267,-0.6240,-0.7109,0.916,-0.427,0.427,-138.851,18.940,-15.716
1091,-0.3242,-0.6221,-0.7114,0.977,-0.366,0.427,-138.840,18.946,-15.716
1101,-0.3247,-0.6196,-0.7075,0.732,-0.366,0.488,-138.834,18.951,-15.716
1111,-0.3247,-0.6201,-0.7070,0.305,-0.244,0.488,-138.829,18.957,-15.721
1121,-0.3247,-0.6201,-0.7065,-0.122,-0.122,0.488,-138.834,18.962,-15.721
1131,-0.3242,-0.6196,-0.7080,-0.427,0.000,0.366,-138.840,18.968,-15.727
1141,-0.3237,-0.6177,-0.7114,-0.427,0.183,0.244,-138.845,18.968,-15.727
1151,-0.3218,-0.6187,-0.7080,-0.305,0.427,0.122,-138.851,18.962,-15.732
1161,-0.3228,-0.6226,-0.7095,-0.122,0.427,0.061,-138.851,18.957,-15.738
1171,-0.3218,-0.6230,-0.7119,-0.122,0.427,0.122,-138.851,18.957,-15.738
1181,-0.3198,-0.6221,-0.7129,-0.244,0.427,0.244,-138.856,18.951,-15.743
1191,-0.3208,-0.6221,-0.7153,-0.366,0.366,0.366,-138.862,18.946,-15.749
1201,-0.3203,-0.6182,-0.7144,-0.305,0.305,0.488,-138.873,18.946,-15.754
1211,-0.3213,-0.6177,-0.7129,0.122,0.183,0.427,-138.873,18.946,-15.760
1221,-0.3242,-0.6182,-0.7109,0.549,0.061,0.183,-138.867,18.946,-15.765
1231,-0.3232,-0.6167,-0.7085,0.732,0.000,0.061,-138.862,18.951,-15.765
1241,-0.3237,-0.6172,-0.7085,0.610,0.183,-0.122,-138.856,18.946,-15.765
1251,-0.3228,-0.6187,-0.7085,0.061,0.427,-0.305,-138.856,18.940,-15.765
1261,-0.3223,-0.6177,-0.7090,-0.549,0.549,-0.427,-138.862,18.935,-15.765
1271,-0.3228,-0.6196,-0.7144,-0.854,0.549,-0.427,-138.873,18.929,-15.765
1281,-0.3213,-0.6211,-0.7163,-0.732,0.488,-0.305,-138.884,18.918,-15.765
1291,-0.3218,-0.6221,-0.7163,-0.549,0.488,-0.305,-138.889,18.913,-15.765
1301,-0.3242,-0.6230,-0.7192,-0.305,0.366,-0.244,-138.895,18.907,-15.765
1311,-0.3203,-0.6235,-0.7192,-0.061,0.305,-0.061,-138.900,18.902,-15.771
1321,-0.3213,-0.6211,-0.7178,0.061,0.122,0.061,-138.900,18.896,-15.771
1331,-0.3218,-0.6196,-0.7202,0.122,0.061,0.061,-138.906,18.896,-15.771
1341,-0.3193,-0.6191,-0.7153,0.183,-0.366,-0.122,-138.906,18.896,-15.771
1351,-0.3218,-0.6211,-0.7158,0.183,-0.610,-0.183,-138.900,18.896,-15.760
1361,-0.3228,-0.6196,-0.7139,0.183,-0.732,-0.244,-138.900,18.902,-15.754
1371,-0.3223,-0.6211,-0.7109,0.183,-0.732,-0.305,-138.895,18.902,-15.749
1381,-0.3242,-0.6211,-0.7085,0.122,-0.549,-0.366,-138.889,18.907,-15.743
1391,-0.3247,-0.6196,-0.7100,0.000,-0.305,-0.305,-138.889,18.907,-15.738
1401,-0.3257,-0.6216,-0.7129,0.061,-0.122,-0.244,-138.889,18.907,-15.732
1411,-0.3252,-0.6216,-0.7124,0.000,-0.061,-0.183,-138.884,18.907,-15.732
1421,-0.3242,-0.6211,-0.7109,0.000,-0.122,-0.183,-138.884,18.907,-15.732
1431,-0.3262,-0.6201,-0.7124,0.000,-0.244,-0.122,-138.884,18.913,-15.727
1441,-0.3232,-0.6201,-0.7104,0.000,-0.183,-0.122,-138.884,18.913,-15.727
1451,-0.3237,-0.6211,-0.7129,0.000,-0.244,-0.061,-138.884,18.913,-15.721
1461,-0.3242,-0.6211,-0.7095,0.000,-0.305,-0.183,-138.884,18.913,-15.721
1471,-0.3237,-0.6221,-0.7114,-0.122,-0.427,-0.244,-138.884,18.918,-15.716
1481,-0.3228,-0.6221,-0.7100,-0.183,-0.305,-0.305,-138.878,18.918,-15.710
1491,-0.3228,-0.6240,-0.7100,-0.183,-0.244,-0.244,-138.878,18.918,-15.705
1501,-0.3213,-0.6245,-0.7095,-0.183,-0.244,-0.244,-138.878,18.913,-15.705
1511,-0.3203,-0.6240,-0.7100,-0.061,-0.183,-0.122,-138.873,18.913,-15.699
1521,-0.3198,-0.6245,-0.7109,0.122,-0.122,0.061,-138.873,18.913,-15.699
1531,-0.3213,-0.6235,-0.7090,0.366,-0.122,0.244,-138.867,18.913,-15.699
1541,-0.3208,-0.6235,-0.7090,0.427,0.000,0.305,-138.862,18.913,-15.705
1551,-0.3213,-0.6216,-0.7080,0.305,0.122,0.244,-138.856,18.913,-15.705
1561,-0.3228,-0.6196,-0.7080,0.183,0.366,0.244,-138.856,18.913,-15.710
1571,-0.3223,-0.6187,-0.7095,0.000,0.427,0.122,-138.856,18.913,-15.716
1581,-0.3203,-0.6196,-0.7109,-0.183,0.488,0.000,-138.862,18.907,-15.716
1591,-0.3223,-0.6201,-0.7124,-0.488,0.549,0.000,-138.867,18.902,-15.721
1601,-0.3218,-0.6182,-0.7183,-0.732,0.488,0.061,-138.884,18.896,-15.727
1611,-0.3218,-0.6191,-0.7192,-0.610,0.366,0.061,-138.895,18.891,-15.727
1621,-0.3228,-0.6211,-0.7197,-0.183,0.122,0.061,-138.900,18.891,-15.732
1631,-0.3237,-0.6216,-0.7207,0.305,0.000,-0.061,-138.900,18.891,-15.727
1641,-0.3237,-0.6221,-0.7183,0.610,-0.122,-0.122,-138.895,18.891,-15.727
1651,-0.3223,-0.6235,-0.7144,0.610,-0.305,-0.061,-138.889,18.891,-15.727
1661,-0.3223,-0.6230,-0.7144,0.366,-0.427,0.000,-138.884,18.891,-15.721
1671,-0.3223,-0.6226,-0.7148,0.122,-0.549,0.061,-138.878,18.896,-15.721
1681,-0.3218,-0.6230,-0.7158,-0.183,-0.610,0.183,-138.884,18.896,-15.716
1691,-0.3218,-0.6216,-0.7144,-0.244,-0.549,0.183,-138.884,18.902,-15.716
1701,-0.3198,-0.6211,-0.7148,-0.183,-0.366,0.183,-138.889,18.902,-15.716
1711,-0.3223,-0.6196,-0.7119,0.000,-0.305,0.183,-138.889,18.907,-15.716
1721,-0.3232,-0.6191,-0.7153,0.244,-0.305,0.244,-138.889,18.913,-15.716
1731,-0.3223,-0.6201,-0.7178,0.427,-0.366,0.305,-138.889,18.913,-15.716
1741,-0.3213,-0.6196,-0.7134,0.427,-0.488,0.183,-138.884,18.918,-15.716
1751,-0.3218,-0.6191,-0.7139,0.366,-0.671,0.122,-138.878,18.924,-15.716
1761,-0.3208,-0.6191,-0.7114,0.183,-0.732,0.061,-138.878,18.929,-15.716
1771,-0.3228,-0.6187,-0.7095,0.061,-0.793,0.000,-138.878,18.935,-15.716
1781,-0.3218,-0.6206,-0.7095,0.000,-0.854,-0.122,-138.873,18.935,-15.716
1791,-0.3228,-0.6206,-0.7114,-0.061,-0.793,-0.183,-138.873,18.940,-15.716
1801,-0.3223,-0.6221,-0.7085,0.000,-0.610,-0.122,-138.867,18.946,-15.716
1811,-0.3213,-0.6226,-0.7090,-0.122,-0.366,-0.122,-138.867,18.946,-15.716
1821,-0.3223,-0.6206,-0.7109,-0.244,-0.061,0.000,-138.867,18.946,-15.716
1831,-0.3213,-0.6206,-0.7109,-0.183,0.122,0.061,-138.873,18.940,-15.716
1841,-0.3213,-0.6187,-0.7134,-0.061,0.061,0.122,-138.873,18.940,-15.716
1851,-0.3242,-0.6172,-0.7129,0.183,-0.183,0.000,-138.873,18.946,-15.716
1861,-0.3228,-0.6162,-0.7104,0.427,-0.549,-0.061,-138.873,18.946,-15.716
1871,-0.3218,-0.6162,-0.7085,0.549,-0.793,-0.183,-138.862,18.951,-15.716
1881,-0.3228,-0.6196,-0.7075,0.488,-0.732,-0.427,-138.856,18.951,-15.716
1891,-0.3223,-0.6191,-0.7046,0.305,-0.488,-0.549,-138.851,18.957,-15.716
1901,-0.3242,-0.6206,-0.7061,0.061,-0.122,-0.549,-138.845,18.951,-15.716
1911,-0.3252,-0.6235,-0.7080,0.000,0.183,-0.488,-138.840,18.946,-15.716
1921,-0.3247,-0.6260,-0.7104,0.000,0.183,-0.488,-138.840,18.946,-15.716
1931,-0.3232,-0.6284,-0.7129,-0.061,0.122,-0.305,-138.834,18.940,-15.716
1941,-0.3242,-0.6284,-0.7124,-0.183,0.122,-0.122,-138.834,18.935,-15.716
1951,-0.3223,-0.6274,-0.7139,-0.305,0.122,0.061,-138.840,18.935,-15.716
1961,-0.3232,-0.6230,-0.7148,-0.305,0.244,0.244,-138.845,18.935,-15.716
1971,-0.3213,-0.6235,-0.7168,-0.122,0.366,0.427,-138.845,18.929,-15.716
1981,-0.3208,-0.6226,-0.7158,0.122,0.305,0.488,-138.851,18.929,-15.716
1991,-0.3223,-0.6216,-0.7183,0.427,0.061,0.488,-138.851,18.929,-15.716
2001,-0.3223,-0.6221,-0.7168,0.488,-0.183,0.427,-138.845,18.935,-15.716
2011,-0.3223,-0.6196,-0.7144,0.427,-0.427,0.366,-138.845,18.935,-15.716
2021,-0.3223,-0.6191,-0.7148,0.305,-0.549,0.244,-138.845,18.940,-15.716
2031,-0.3228,-0.6177,-0.7144,0.305,-0.610,0.122,-138.845,18.946,-15.716
2041,-0.3228,-0.6177,-0.7104,0.305,-0.671,-0.061,-138.840,18.951,-15.716
2051,-0.3228,-0.6191,-0.7100,0.427,-0.610,-0.122,-138.834,18.951,-15.716
2061,-0.3242,-0.6196,-0.7095,0.488,-0.549,-0.061,-138.829,18.957,-15.716
2074,-0.3232,-0.6206,-0.7100,0.549,-0.549,-0.122,-138.823,18.962,-15.716
2081,-0.3242,-0.6201,-0.7085,0.488,-0.427,-0.061,-138.818,18.962,-15.716
2091,-0.3237,-0.6211,-0.7075,0.183,-0.366,0.000,-138.812,18.968,-15.716
2101,-0.3247,-0.6191,-0.7095,-0.061,-0.244,-0.061,-138.812,18.968,-15.716
2111,-0.3213,-0.6226,-0.7080,-0.183,-0.122,-0.122,-138.812,18.968,-15.716
2121,-0.3223,-0.6216,-0.7100,-0.244,0.061,-0.183,-138.812,18.962,-15.716
2131,-0.3223,-0.6235,-0.7114,-0.366,0.244,-0.183,-138.818,18.962,-15.716
2141,-0.3223,-0.6221,-0.7109,-0.366,0.305,-0.122,-138.823,18.957,-15.716
2151,-0.3228,-0.6216,-0.7095,-0.305,0.244,-0.122,-138.823,18.951,-15.716
2161,-0.3232,-0.6226,-0.7109,-0.183,0.183,-0.122,-138.823,18.951,-15.716
2171,-0.3232,-0.6216,-0.7129,0.000,0.122,-0.122,-138.829,18.946,-15.716
2181,-0.3208,-0.6221,-0.7129,0.122,0.061,-0.061,-138.823,18.946,-15.716
2191,-0.3257,-0.6230,-0.7129,0.183,0.000,-0.122,-138.823,18.946,-15.716
2201,-0.3252,-0.6240,-0.7139,0.122,0.000,-0.122,-138.823,18.940,-15.716
2211,-0.3242,-0.6235,-0.7124,0.000,0.000,-0.122,-138.823,18.940,-15.716
2221,-0.3223,-0.6235,-0.7114,-0.061,0.000,0.000,-138.823,18.940,-15.716
2231,-0.3237,-0.6240,-0.7134,-0.061,-0.061,0.000,-138.823,18.940,-15.716
2241,-0.3247,-0.6221,-0.7139,0.000,0.000,0.061,-138.823,18.940,-15.716
2251,-0.3237,-0.6226,-0.7163,0.000,0.122,0.122,-138.829,18.940,-15.716
2261,-0.3232,-0.6216,-0.7158,0.000,0.183,0.061,-138.829,18.935,-15.716
2271,-0.3242,-0.6211,-0.7144,0.000,0.244,0.122,-138.829,18.935,-15.716
2281,-0.3237,-0.6206,-0.7124,-0.061,0.244,0.122,-138.834,18.935,-15.716
2291,-0.3228,-0.6206,-0.7144,0.000,0.061,0.061,-138.834,18.935,-15.716
2301,-0.3228,-0.6235,-0.7153,0.061,-0.122,0.000,-138.834,18.935,-15.716
2311,-0.3208,-0.6221,-0.7139,0.122,-0.427,-0.061,-138.834,18.935,-15.716
2321,-0.3213,-0.6216,-0.7124,0.244,-0.488,-0.061,-138.829,18.935,-15.716
2331,-0.3223,-0.6226,-0.7119,0.305,-0.427,-0.061,-138.829,18.935,-15.716
2341,-0.3188,-0.6226,-0.7070,0.305,-0.366,-0.061,-138.823,18.935,-15.716
2351,-0.3188,-0.6226,-0.7104,0.061,-0.305,-0.122,-138.818,18.935,-15.716
2361,-0.3179,-0.6226,-0.7090,-0.183,-0.183,-0.122,-138.818,18.935,-15.716
2371,-0.3193,-0.6245,-0.7095,-0.366,-0.183,-0.061,-138.818,18.929,-15.716
2381,-0.3208,-0.6221,-0.7134,-0.366,-0.061,0.000,-138.823,18.929,-15.716
2391,-0.3237,-0.6226,-0.7119,-0.183,0.122,0.122,-138.829,18.929,-15.716
2401,-0.3237,-0.6191,-0.7114,0.061,0.366,0.061,-138.829,18.929,-15.716
2411,-0.3223,-0.6211,-0.7129,0.305,0.427,0.061,-138.829,18.924,-15.716
2421,-0.3223,-0.6211,-0.7100,0.244,0.244,0.122,-138.829,18.924,-15.716
2432,-0.3228,-0.6206,-0.7114,0.000,0.122,0.122,-138.829,18.918,-15.716
2441,-0.3232,-0.6196,-0.7114,-0.183,0.061,0.061,-138.829,18.918,-15.716
2451,-0.3247,-0.6196,-0.7134,-0.183,0.061,0.000,-138.834,18.918,-15.716
2461,-0.3262,-0.6206,-0.7124,-0.061,0.061,-0.183,-138.834,18.918,-15.716
2471,-0.3242,-0.6206,-0.7095,0.122,0.061,-0.183,-138.834,18.918,-15.716
2481,-0.3228,-0.6250,-0.7090,0.183,0.122,-0.183,-138.829,18.918,-15.716
2491,-0.3213,-0.6245,-0.7075,0.122,0.122,-0.183,-138.823,18.913,-15.716
2501,-0.3208,-0.6260,-0.7095,-0.061,0.122,-0.122,-138.823,18.907,-15.716
2511,-0.3188,-0.6240,-0.7124,-0.183,0.183,0.000,-138.823,18.907,-15.716
2521,-0.3228,-0.6235,-0.7119,-0.244,0.244,0.183,-138.829,18.902,-15.716
2531,-0.3232,-0.6196,-0.7153,-0.122,0.366,0.305,-138.834,18.902,-15.716
2541,-0.3232,-0.6206,-0.7148,0.183,0.427,0.305,-138.834,18.902,-15.716
2551,-0.3228,-0.6206,-0.7148,0.366,0.366,0.183,-138.834,18.896,-15.716
2561,-0.3232,-0.6196,-0.7124,0.366,0.244,0.122,-138.834,18.896,-15.716
2571,-0.3223,-0.6201,-0.7124,0.183,0.122,0.000,-138.834,18.896,-15.716
2581,-0.3208,-0.6221,-0.7129,-0.122,0.061,-0.122,-138.834,18.891,-15.716
2591,-0.3198,-0.6201,-0.7148,-0.366,-0.061,-0.122,-138.840,18.891,-15.716
2601,-0.3203,-0.6206,-0.7119,-0.366,-0.183,-0.122,-138.845,18.891,-15.716
2611,-0.3198,-0.6201,-0.7124,0.000,-0.244,-0.061,-138.845,18.891,-15.716
2621,-0.3208,-0.6226,-0.7139,0.305,-0.305,0.061,-138.840,18.891,-15.716
2631,-0.3213,-0.6230,-0.7095,0.366,-0.183,0.122,-138.840,18.891,-15.716
2641,-0.3208,-0.6216,-0.7119,0.305,0.061,0.183,-138.834,18.891,-15.716
2651,-0.3198,-0.6221,-0.7124,0.122,0.183,0.244,-138.834,18.891,-15.716
2661,-0.3184,-0.6211,-0.7124,-0.061,0.122,0.183,-138.840,18.885,-15.716
2671,-0.3184,-0.6182,-0.7134,-0.183,-0.061,0.061,-138.840,18.885,-15.716
2681,-0.3208,-0.6182,-0.7144,-0.183,-0.183,-0.122,-138.845,18.885,-15.716
2691,-0.3188,-0.6196,-0.7153,-0.061,-0.305,-0.244,-138.845,18.880,-15.716
2701,-0.3203,-0.6211,-0.7109,0.061,-0.366,-0.244,-138.845,18.880,-15.716
2711,-0.3213,-0.6226,-0.7114,0.000,-0.305,-0.244,-138.845,18.880,-15.716
2721,-0.3228,-0.6230,-0.7090,-0.122,-0.183,-0.244,-138.845,18.880,-15.716
2731,-0.3232,-0.6211,-0.7129,-0.183,0.000,-0.305,-138.845,18.880,-15.716
2741,-0.3232,-0.6211,-0.7148,-0.244,0.122,-0.305,-138.851,18.875,-15.716
2751,-0.3237,-0.6216,-0.7144,-0.183,0.183,-0.244,-138.851,18.875,-15.716
2761,-0.3242,-0.6221,-0.7134,-0.061,0.122,-0.244,-138.851,18.869,-15.716
2771,-0.3252,-0.6216,-0.7139,0.000,0.061,-0.183,-138.851,18.869,-15.716
2781,-0.3262,-0.6216,-0.7129,-0.122,-0.122,-0.183,-138.856,18.875,-15.716
2791,-0.3232,-0.6226,-0.7129,-0.183,-0.183,-0.183,-138.856,18.875,-15.716
2801,-0.3232,-0.6245,-0.7144,-0.183,-0.427,-0.183,-138.856,18.875,-15.716
2811,-0.3232,-0.6240,-0.7144,-0.183,-0.488,-0.122,-138.856,18.875,-15.716
2821,-0.3232,-0.6270,-0.7114,-0.061,-0.549,-0.061,-138.851,18.880,-15.716
2831,-0.3228,-0.6265,-0.7080,0.183,-0.549,-0.061,-138.845,18.880,-15.716
2841,-0.3228,-0.6240,-0.7100,0.427,-0.427,0.000,-138.840,18.885,-15.716
2851,-0.3203,-0.6250,-0.7114,0.549,-0.366,0.183,-138.829,18.885,-15.716
2861,-0.3223,-0.6250,-0.7109,0.610,-0.305,0.305,-138.823,18.891,-15.716
2871,-0.3208,-0.6250,-0.7051,0.427,-0.122,0.305,-138.818,18.891,-15.716
2881,-0.3218,-0.6230,-0.7056,0.183,0.061,0.366,-138.812,18.896,-15.716
2891,-0.3228,-0.6226,-0.7070,-0.061,0.305,0.366,-138.812,18.896,-15.716
2901,-0.3228,-0.6216,-0.7114,-0.122,0.549,0.366,-138.818,18.891,-15.716
2911,-0.3228,-0.6216,-0.7095,-0.122,0.671,0.305,-138.818,18.891,-15.716
2921,-0.3188,-0.6206,-0.7153,-0.061,0.671,0.244,-138.823,18.885,-15.716
2932,-0.3203,-0.6196,-0.7173,-0.122,0.549,0.244,-138.834,18.880,-15.716
2941,-0.3193,-0.6191,-0.7163,-0.183,0.427,0.244,-138.840,18.875,-15.716
2951,-0.3218,-0.6196,-0.7163,0.000,0.244,0.305,-138.845,18.875,-15.716
2961,-0.3223,-0.6196,-0.7197,0.305,0.122,0.244,-138.845,18.875,-15.716
2971,-0.3237,-0.6191,-0.7168,0.610,0.000,0.183,-138.845,18.875,-15.716
2981,-0.3247,-0.6187,-0.7139,0.732,-0.183,0.061,-138.840,18.880,-15.716
2991,-0.3228,-0.6196,-0.7129,0.671,-0.366,0.000,-138.834,18.880,-15.716
3001,-0.3213,-0.6206,-0.7129,0.488,-0.549,-0.061,-138.829,18.880,-15.716
3011,-0.3228,-0.6216,-0.7100,0.305,-0.732,-0.122,-138.823,18.885,-15.716
3021,-0.3208,-0.6230,-0.7124,0.122,-0.671,-0.122,-138.818,18.891,-15.716
3031,-0.3188,-0.6230,-0.7095,-0.061,-0.427,-0.061,-138.818,18.891,-15.716
3041,-0.3203,-0.6245,-0.7104,-0.183,-0.061,0.000,-138.818,18.891,-15.716
3051,-0.3208,-0.6221,-0.7100,-0.244,0.305,0.122,-138.818,18.885,-15.716
3061,-0.3179,-0.6221,-0.7119,-0.183,0.549,0.183,-138.823,18.880,-15.716
3071,-0.3193,-0.6221,-0.7139,0.000,0.549,0.122,-138.829,18.875,-15.716
3081,-0.3218,-0.6211,-0.7124,0.061,0.366,0.122,-138.829,18.875,-15.716
3091,-0.3223,-0.6235,-0.7114,0.061,0.183,0.183,-138.829,18.869,-15.716
3101,-0.3242,-0.6226,-0.7119,0.000,-0.122,0.122,-138.829,18.875,-15.716
3111,-0.3232,-0.6211,-0.7134,0.000,-0.244,0.061,-138.829,18.875,-15.716
3121,-0.3247,-0.6201,-0.7104,0.183,-0.183,0.061,-138.829,18.880,-15.716
3131,-0.3237,-0.6221,-0.7095,0.366,0.000,0.000,-138.823,18.880,-15.716
3141,-0.3247,-0.6216,-0.7065,0.427,0.000,-0.122,-138.818,18.880,-15.716
3151,-0.3232,-0.6245,-0.7070,0.305,0.061,-0.122,-138.812,18.880,-15.716
3161,-0.3228,-0.6240,-0.7109,-0.061,0.122,-0.061,-138.812,18.880,-15.716
3171,-0.3237,-0.6235,-0.7109,-0.427,0.183,0.061,-138.812,18.875,-15.716
3181,-0.3228,-0.6240,-0.7129,-0.427,0.244,0.122,-138.818,18.875,-15.716
3191,-0.3232,-0.6240,-0.7100,-0.305,0.244,0.061,-138.823,18.875,-15.716
3201,-0.3242,-0.6270,-0.7100,-0.122,0.305,0.122,-138.823,18.875,-15.716
3211,-0.3228,-0.6284,-0.7124,0.061,0.427,0.244,-138.818,18.869,-15.716
3221,-0.3193,-0.6270,-0.7148,0.061,0.610,0.305,-138.823,18.864,-15.716
3231,-0.3179,-0.6265,-0.7139,-0.061,0.549,0.427,-138.823,18.858,-15.716
3241,-0.3193,-0.6240,-0.7173,-0.122,0.366,0.549,-138.829,18.858,-15.716
3251,-0.3223,-0.6211,-0.7187,0.122,0.183,0.671,-138.834,18.858,-15.716
3261,-0.3232,-0.6196,-0.7144,0.549,0.061,0.549,-138.829,18.864,-15.716
3271,-0.3247,-0.6167,-0.7114,0.854,-0.122,0.305,-138.823,18.869,-15.716
3281,-0.3257,-0.6191,-0.7100,0.854,-0.183,0.122,-138.818,18.869,-15.716
3291,-0.3247,-0.6216,-0.7080,0.427,-0.122,0.000,-138.812,18.875,-15.716
3301,-0.3237,-0.6226,-0.7080,-0.183,0.061,-0.061,-138.812,18.875,-15.716
3311,-0.3213,-0.6211,-0.7065,-0.610,0.305,-0.061,-138.818,18.869,-15.716
3321,-0.3223,-0.6221,-0.7109,-0.671,0.488,0.061,-138.823,18.869,-15.716
3331,-0.3218,-0.6226,-0.7104,-0.427,0.671,0.183,-138.829,18.864,-15.716
3341,-0.3218,-0.6250,-0.7153,-0.061,0.916,0.244,-138.834,18.858,-15.716
3351,-0.3223,-0.6265,-0.7134,0.183,1.038,0.366,-138.834,18.853,-15.716
3361,-0.3237,-0.6245,-0.7139,0.183,1.038,0.488,-138.834,18.847,-15.716
3371,-0.3208,-0.6240,-0.7134,-0.122,0.916,0.610,-138.840,18.842,-15.716
3381,-0.3213,-0.6211,-0.7168,-0.366,0.793,0.610,-138.851,18.836,-15.716
3391,-0.3223,-0.6177,-0.7183,-0.427,0.488,0.549,-138.862,18.836,-15.716
3401,-0.3232,-0.6177,-0.7173,-0.122,0.183,0.427,-138.867,18.842,-15.716
3411,-0.3242,-0.6196,-0.7173,0.183,-0.061,0.305,-138.867,18.842,-15.716
3421,-0.3223,-0.6211,-0.7163,0.366,-0.183,0.061,-138.867,18.842,-15.716
3432,-0.3208,-0.6206,-0.7158,0.366,-0.122,-0.061,-138.867,18.842,-15.716
3441,-0.3213,-0.6245,-0.7139,0.122,-0.183,-0.183,-138.862,18.842,-15.716
3451,-0.3208,-0.6260,-0.7139,-0.122,-0.183,-0.061,-138.862,18.842,-15.716
3461,-0.3198,-0.6230,-0.7139,-0.366,-0.122,0.122,-138.867,18.842,-15.716
3471,-0.3213,-0.6230,-0.7139,-0.427,-0.061,0.244,-138.873,18.842,-15.716
3481,-0.3218,-0.6221,-0.7163,-0.305,0.061,0.366,-138.878,18.842,-15.716
3491,-0.3237,-0.6191,-0.7168,-0.122,0.122,0.427,-138.884,18.842,-15.716
3501,-0.3242,-0.6211,-0.7163,0.061,0.061,0.366,-138.884,18.847,-15.716
3511,-0.3242,-0.6206,-0.7148,0.183,-0.061,0.305,-138.884,18.847,-15.716
3521,-0.3271,-0.6187,-0.7153,0.183,-0.305,0.305,-138.884,18.858,-15.716
3531,-0.3252,-0.6201,-0.7144,0.122,-0.366,0.183,-138.884,18.864,-15.716
3541,-0.3232,-0.6201,-0.7124,0.061,-0.610,0.122,-138.884,18.869,-15.716
3551,-0.3232,-0.6211,-0.7104,0.061,-0.732,0.122,-138.884,18.875,-15.716
3561,-0.3198,-0.6230,-0.7095,0.000,-0.732,0.061,-138.878,18.880,-15.716
3571,-0.3203,-0.6221,-0.7070,-0.061,-0.671,0.183,-138.878,18.885,-15.716
3581,-0.3198,-0.6240,-0.7085,-0.061,-0.427,0.366,-138.873,18.885,-15.716
3591,-0.3218,-0.6230,-0.7080,0.000,-0.183,0.366,-138.873,18.891,-15.716
3601,-0.3203,-0.6221,-0.7056,0.000,0.000,0.427,-138.873,18.891,-15.716
3611,-0.3223,-0.6206,-0.7095,0.061,0.183,0.427,-138.873,18.891,-15.716
3621,-0.3208,-0.6206,-0.7085,0.061,0.427,0.366,-138.873,18.891,-15.716
3631,-0.3218,-0.6201,-0.7090,-0.122,0.671,0.427,-138.878,18.891,-15.716
3641,-0.3218,-0.6206,-0.7095,-0.305,0.854,0.366,-138.884,18.885,-15.716
3651,-0.3213,-0.6206,-0.7124,-0.427,0.793,0.427,-138.889,18.880,-15.716
3661,-0.3242,-0.6206,-0.7139,-0.488,0.610,0.366,-138.895,18.880,-15.716
3671,-0.3218,-0.6191,-0.7153,-0.427,0.488,0.366,-138.906,18.875,-15.716
3681,-0.3247,-0.6191,-0.7168,-0.183,0.366,0.366,-138.911,18.875,-15.716
3691,-0.3232,-0.6196,-0.7173,0.122,0.366,0.366,-138.917,18.875,-15.716
3701,-0.3247,-0.6201,-0.7178,0.366,0.305,0.366,-138.917,18.875,-15.716
3711,-0.3213,-0.6191,-0.7168,0.488,0.122,0.305,-138.917,18.875,-15.716
3721,-0.3218,-0.6196,-0.7168,0.305,0.000,0.305,-138.917,18.880,-15.716
3731,-0.3203,-0.6206,-0.7153,0.183,-0.183,0.305,-138.917,18.880,-15.716
3741,-0.3208,-0.6201,-0.7144,0.122,-0.244,0.244,-138.917,18.880,-15.716
3751,-0.3208,-0.6196,-0.7119,0.061,-0.305,0.183,-138.917,18.885,-15.716
3761,-0.3213,-0.6187,-0.7134,0.061,-0.244,0.122,-138.917,18.885,-15.716
3771,-0.3218,-0.6201,-0.7124,0.000,-0.183,0.183,-138.917,18.885,-15.716
3781,-0.3203,-0.6211,-0.7134,0.000,-0.183,0.122,-138.917,18.885,-15.716
3791,-0.3208,-0.6216,-0.7134,-0.183,-0.183,0.122,-138.917,18.885,-15.716
3801,-0.3223,-0.6196,-0.7153,-0.183,-0.122,0.183,-138.922,18.891,-15.716
3811,-0.3218,-0.6206,-0.7153,-0.122,0.000,0.244,-138.922,18.891,-15.716
3821,-0.3218,-0.6206,-0.7168,0.000,-0.061,0.244,-138.928,18.891,-15.716
3831,-0.3232,-0.6187,-0.7158,0.061,-0.183,0.244,-138.928,18.891,-15.716
3841,-0.3232,-0.6191,-0.7124,0.122,-0.305,0.305,-138.928,18.896,-15.716
3851,-0.3232,-0.6187,-0.7148,0.000,-0.366,0.183,-138.928,18.902,-15.716
3861,-0.3228,-0.6182,-0.7114,-0.122,-0.488,0.000,-138.933,18.902,-15.716
3871,-0.3232,-0.6177,-0.7124,-0.122,-0.488,-0.061,-138.933,18.907,-15.716
3881,-0.3257,-0.6177,-0.7129,-0.061,-0.427,-0.122,-138.933,18.913,-15.716
3891,-0.3247,-0.6196,-0.7100,0.061,-0.366,-0.183,-138.933,18.913,-15.716
3901,-0.3242,-0.6206,-0.7065,0.183,-0.244,-0.122,-138.928,18.918,-15.716
3911,-0.3228,-0.6230,-0.7075,0.122,-0.244,-0.061,-138.922,18.918,-15.716
3921,-0.3188,-0.6240,-0.7144,-0.183,-0.183,0.061,-138.922,18.918,-15.716
3932,-0.3203,-0.6226,-0.7158,-0.549,-0.183,0.305,-138.928,18.918,-15.716
3941,-0.3213,-0.6187,-0.7153,-0.549,-0.061,0.427,-138.939,18.918,-15.716
3951,-0.3242,-0.6157,-0.7129,-0.061,-0.061,0.366,-138.939,18.924,-15.716
3961,-0.3232,-0.6167,-0.7114,0.427,-0.122,0.183,-138.939,18.924,-15.716
3971,-0.3228,-0.6177,-0.7095,0.671,-0.244,0.061,-138.933,18.929,-15.716
3981,-0.3213,-0.6196,-0.7085,0.488,-0.366,-0.122,-138.922,18.929,-15.716
3991,-0.3213,-0.6211,-0.7085,-0.122,-0.305,-0.244,-138.922,18.929,-15.716
4001,-0.3228,-0.6206,-0.7095,-0.671,-0.122,-0.366,-138.928,18.924,-15.716
4011,-0.3198,-0.6216,-0.7109,-0.854,0.183,-0.366,-138.933,18.918,-15.716
4021,-0.3218,-0.6230,-0.7139,-0.671,0.366,-0.244,-138.939,18.913,-15.716
4031,-0.3218,-0.6235,-0.7124,-0.244,0.488,0.000,-138.944,18.907,-15.716
4041,-0.3218,-0.6245,-0.7158,0.000,0.549,0.183,-138.944,18.902,-15.716
4051,-0.3232,-0.6211,-0.7148,0.122,0.366,0.366,-138.944,18.902,-15.716
4061,-0.3237,-0.6182,-0.7173,0.000,0.244,0.488,-138.950,18.902,-15.716
4075,-0.3232,-0.6152,-0.7183,-0.122,0.122,0.427,-138.955,18.907,-15.716
4081,-0.3262,-0.6128,-0.7158,-0.183,0.061,0.244,-138.966,18.907,-15.716
4091,-0.3252,-0.6147,-0.7158,-0.183,0.000,0.000,-138.972,18.913,-15.716
4101,-0.3247,-0.6162,-0.7148,-0.244,-0.061,-0.244,-138.972,18.907,-15.716
4111,-0.3247,-0.6191,-0.7158,-0.305,-0.305,-0.305,-138.977,18.913,-15.716
4121,-0.3242,-0.6211,-0.7144,-0.366,-0.488,-0.305,-138.977,18.913,-15.716
4131,-0.3232,-0.6211,-0.7168,-0.244,-0.549,-0.305,-138.983,18.913,-15.716
4141,-0.3237,-0.6226,-0.7139,-0.061,-0.488,-0.305,-138.977,18.913,-15.716
4151,-0.3232,-0.6221,-0.7148,0.000,-0.427,-0.244,-138.977,18.913,-15.716
4161,-0.3242,-0.6211,-0.7148,0.061,-0.305,-0.183,-138.977,18.918,-15.716
4171,-0.3228,-0.6216,-0.7124,0.122,-0.366,-0.122,-138.972,18.918,-15.716
4181,-0.3228,-0.6230,-0.7085,0.061,-0.427,-0.061,-138.966,18.918,-15.716
4191,-0.3247,-0.6211,-0.7095,0.000,-0.427,-0.061,-138.966,18.924,-15.716
4201,-0.3242,-0.6196,-0.7109,0.000,-0.305,-0.061,-138.966,18.924,-15.716
4211,-0.3237,-0.6182,-0.7104,-0.061,-0.122,-0.122,-138.966,18.924,-15.716
4221,-0.3242,-0.6196,-0.7090,-0.061,-0.122,-0.183,-138.961,18.929,-15.716
4231,-0.3242,-0.6191,-0.7070,-0.122,-0.122,-0.244,-138.961,18.929,-15.716
4241,-0.3267,-0.6216,-0.7085,-0.061,-0.183,-0.244,-138.961,18.929,-15.716
4251,-0.3218,-0.6230,-0.7100,-0.122,-0.244,-0.183,-138.955,18.929,-15.716
4261,-0.3203,-0.6221,-0.7095,-0.244,-0.244,-0.122,-138.955,18.929,-15.716
4271,-0.3218,-0.6221,-0.7090,-0.305,-0.183,-0.061,-138.955,18.929,-15.716
4281,-0.3218,-0.6216,-0.7104,-0.183,-0.122,0.000,-138.955,18.929,-15.716
4291,-0.3208,-0.6191,-0.7090,-0.061,-0.061,-0.061,-138.955,18.929,-15.716
4301,-0.3237,-0.6206,-0.7100,0.061,0.000,-0.122,-138.955,18.924,-15.716
4311,-0.3223,-0.6230,-0.7090,0.122,0.183,-0.122,-138.950,18.924,-15.716
4321,-0.3232,-0.6216,-0.7104,-0.061,0.305,-0.061,-138.950,18.918,-15.716
4331,-0.3232,-0.6226,-0.7114,-0.244,0.427,0.000,-138.950,18.918,-15.716
4341,-0.3242,-0.6216,-0.7153,-0.427,0.732,0.000,-138.955,18.913,-15.716
4351,-0.3242,-0.6201,-0.7148,-0.427,0.916,0.061,-138.966,18.907,-15.716
4361,-0.3228,-0.6201,-0.7168,-0.244,0.854,0.122,-138.972,18.896,-15.716
4371,-0.3252,-0.6187,-0.7183,0.000,0.732,0.244,-138.977,18.896,-15.716
4381,-0.3242,-0.6191,-0.7187,0.244,0.427,0.244,-138.977,18.891,-15.716
4391,-0.3247,-0.6187,-0.7187,0.244,0.122,0.122,-138.977,18.891,-15.716
4401,-0.3223,-0.6201,-0.7173,0.183,-0.183,0.122,-138.977,18.896,-15.716
4411,-0.3237,-0.6182,-0.7207,0.122,-0.488,0.000,-138.983,18.896,-15.716
4421,-0.3223,-0.6230,-0.7173,0.061,-0.549,-0.122,-138.977,18.896,-15.716
4432,-0.3208,-0.6216,-0.7192,0.061,-0.549,-0.183,-138.977,18.896,-15.716
4441,-0.3213,-0.6226,-0.7183,0.122,-0.549,-0.122,-138.977,18.902,-15.716
4451,-0.3203,-0.6216,-0.7192,0.183,-0.366,0.000,-138.977,18.902,-15.716
4461,-0.3179,-0.6201,-0.7139,0.183,-0.305,0.183,-138.977,18.902,-15.716
4471,-0.3208,-0.6201,-0.7148,0.183,-0.427,0.305,-138.972,18.902,-15.716
4481,-0.3203,-0.6206,-0.7119,0.183,-0.488,0.305,-138.972,18.907,-15.716
4491,-0.3218,-0.6196,-0.7109,0.061,-0.366,0.244,-138.972,18.913,-15.716
4501,-0.3223,-0.6172,-0.7109,-0.122,-0.244,0.305,-138.972,18.913,-15.716
4511,-0.3232,-0.6147,-0.7109,-0.305,-0.061,0.183,-138.977,18.918,-15.716
4521,-0.3242,-0.6143,-0.7168,-0.244,0.122,0.061,-138.983,18.918,-15.716
4531,-0.3237,-0.6147,-0.7139,-0.061,0.122,-0.122,-138.988,18.918,-15.716
4541,-0.3242,-0.6147,-0.7153,0.122,-0.122,-0.183,-138.988,18.918,-15.716
4551,-0.3232,-0.6167,-0.7139,0.244,-0.305,-0.183,-138.988,18.918,-15.716
4561,-0.3218,-0.6191,-0.7139,0.305,-0.549,-0.244,-138.983,18.918,-15.716
4571,-0.3188,-0.6221,-0.7100,0.305,-0.671,-0.305,-138.977,18.918,-15.716
4581,-0.3179,-0.6221,-0.7109,0.183,-0.732,-0.183,-138.972,18.918,-15.716
4591,-0.3188,-0.6177,-0.7119,0.183,-0.610,0.000,-138.966,18.924,-15.716
4601,-0.3232,-0.6138,-0.7075,0.427,-0.305,0.061,-138.966,18.924,-15.716
4611,-0.3262,-0.6167,-0.7065,0.671,-0.122,-0.122,-138.955,18.929,-15.716
4621,-0.3252,-0.6172,-0.7041,0.732,0.122,-0.366,-138.944,18.929,-15.716
4631,-0.3262,-0.6206,-0.7046,0.305,0.305,-0.366,-138.939,18.924,-15.716
4641,-0.3247,-0.6221,-0.7070,-0.366,0.549,-0.427,-138.939,18.918,-15.716
4651,-0.3228,-0.6245,-0.7080,-1.099,0.732,-0.488,-138.950,18.913,-15.716
4661,-0.3218,-0.6255,-0.7124,-1.587,0.977,-0.488,-138.961,18.896,-15.716
4671,-0.3193,-0.6245,-0.7192,-1.648,1.160,-0.305,-138.983,18.885,-15.716
4681,-0.3184,-0.6226,-0.7246,-1.160,1.160,-0.122,-138.999,18.869,-15.716
4691,-0.3203,-0.6240,-0.7222,-0.427,0.854,0.000,-139.005,18.864,-15.716
4701,-0.3223,-0.6206,-0.7217,0.305,0.488,0.061,-139.005,18.858,-15.716
4711,-0.3237,-0.6206,-0.7183,0.732,0.122,0.122,-139.005,18.858,-15.716
4721,-0.3198,-0.6221,-0.7163,0.854,-0.122,0.122,-138.994,18.858,-15.716
4731,-0.3203,-0.6172,-0.7158,0.671,-0.305,0.122,-138.988,18.858,-15.716
4741,-0.3232,-0.6167,-0.7148,0.427,-0.488,0.244,-138.988,18.864,-15.716
4751,-0.3242,-0.6147,-0.7158,0.244,-0.610,0.244,-138.988,18.869,-15.716
4761,-0.3232,-0.6162,-0.7139,0.183,-0.549,0.000,-138.988,18.875,-15.716
4771,-0.3228,-0.6172,-0.7134,0.183,-0.427,-0.244,-138.983,18.875,-15.716
4781,-0.3232,-0.6201,-0.7134,-0.061,-0.305,-0.305,-138.983,18.875,-15.716
4791,-0.3213,-0.6211,-0.7104,-0.244,-0.183,-0.244,-138.983,18.875,-15.716
4801,-0.3198,-0.6201,-0.7095,-0.366,-0.061,-0.244,-138.983,18.875,-15.716
4811,-0.3223,-0.6221,-0.7104,-0.305,-0.061,-0.366,-138.983,18.869,-15.716
4821,-0.3193,-0.6235,-0.7124,-0.305,0.061,-0.305,-138.988,18.869,-15.716
4831,-0.3203,-0.6221,-0.7129,-0.244,0.000,-0.183,-138.988,18.864,-15.716
4841,-0.3232,-0.6196,-0.7129,-0.183,0.061,-0.061,-138.988,18.864,-15.716
4851,-0.3218,-0.6201,-0.7109,-0.061,0.122,-0.183,-138.988,18.864,-15.716
4861,-0.3218,-0.6206,-0.7114,-0.061,0.122,-0.244,-138.988,18.858,-15.716
4871,-0.3213,-0.6211,-0.7109,-0.244,0.122,-0.305,-138.988,18.853,-15.716
4881,-0.3213,-0.6191,-0.7129,-0.305,0.061,-0.244,-138.994,18.853,-15.716
4891,-0.3208,-0.6172,-0.7119,-0.183,-0.061,-0.305,-138.994,18.853,-15.716
4901,-0.3208,-0.6191,-0.7134,0.122,-0.122,-0.366,-138.988,18.847,-15.716
4911,-0.3203,-0.6206,-0.7114,0.244,0.000,-0.305,-138.988,18.847,-15.716
4921,-0.3213,-0.6201,-0.7109,0.183,0.183,-0.244,-138.983,18.842,-15.716
4932,-0.3208,-0.6187,-0.7104,-0.061,0.305,-0.122,-138.983,18.836,-15.716
4941,-0.3218,-0.6187,-0.7124,-0.122,0.305,-0.061,-138.988,18.836,-15.716
4951,-0.3203,-0.6187,-0.7104,-0.244,0.244,-0.244,-138.988,18.831,-15.716
4961,-0.3203,-0.6187,-0.7129,-0.305,0.183,-0.427,-138.994,18.825,-15.716
4971,-0.3218,-0.6216,-0.7119,-0.244,0.244,-0.366,-138.994,18.820,-15.716
4981,-0.3193,-0.6226,-0.7134,-0.122,0.366,-0.305,-138.994,18.814,-15.716
4991,-0.3208,-0.6250,-0.7158,0.000,0.366,-0.366,-138.994,18.809,-15.716
5001,-0.3218,-0.6274,-0.7163,0.000,0.427,-0.244,-138.988,18.803,-15.716
5011,-0.3213,-0.6240,-0.7168,0.122,0.488,-0.061,-138.988,18.798,-15.716
5021,-0.3228,-0.6216,-0.7197,0.366,0.488,0.061,-138.988,18.792,-15.716
5031,-0.3232,-0.6216,-0.7202,0.488,0.488,0.122,-138.988,18.792,-15.716
5041,-0.3237,-0.6211,-0.7183,0.671,0.244,0.122,-138.983,18.792,-15.716
5051,-0.3232,-0.6221,-0.7197,0.549,-0.061,0.244,-138.977,18.792,-15.716
5061,-0.3232,-0.6230,-0.7168,0.305,-0.366,0.244,-138.977,18.798,-15.716
5071,-0.3237,-0.6230,-0.7202,-0.061,-0.549,0.183,-138.977,18.803,-15.716
5081,-0.3237,-0.6196,-0.7202,-0.244,-0.549,0.183,-138.983,18.809,-15.716
5091,-0.3228,-0.6196,-0.7197,-0.244,-0.427,0.183,-138.988,18.809,-15.716
5101,-0.3208,-0.6221,-0.7192,-0.183,-0.366,0.122,-138.988,18.814,-15.716
5111,-0.3198,-0.6226,-0.7168,-0.061,-0.427,0.122,-138.988,18.814,-15.716
5121,-0.3198,-0.6221,-0.7153,0.122,-0.549,0.122,-138.988,18.820,-15.716
5131,-0.3213,-0.6226,-0.7124,0.244,-0.671,0.305,-138.983,18.825,-15.716
5141,-0.3218,-0.6206,-0.7104,0.366,-0.732,0.366,-138.977,18.831,-15.716
5151,-0.3223,-0.6191,-0.7095,0.427,-0.610,0.366,-138.972,18.842,-15.716
5161,-0.3213,-0.6191,-0.7090,0.305,-0.427,0.305,-138.966,18.847,-15.716
5171,-0.3218,-0.6201,-0.7100,0.061,-0.244,0.305,-138.966,18.847,-15.716
5181,-0.3218,-0.6182,-0.7134,-0.305,-0.183,0.244,-138.972,18.853,-15.716
5191,-0.3213,-0.6167,-0.7129,-0.610,-0.183,0.183,-138.977,18.853,-15.716
5201,-0.3208,-0.6167,-0.7129,-0.610,-0.122,0.122,-138.988,18.853,-15.716
5211,-0.3203,-0.6182,-0.7119,-0.366,-0.122,0.061,-138.994,18.853,-15.716
5221,-0.3188,-0.6191,-0.7109,-0.061,-0.122,0.000,-138.994,18.853,-15.716
5231,-0.3193,-0.6206,-0.7114,-0.061,-0.061,0.061,-138.988,18.853,-15.716
5241,-0.3179,-0.6177,-0.7139,-0.183,-0.061,0.183,-138.994,18.853,-15.716
5251,-0.3184,-0.6133,-0.7139,-0.122,-0.061,0.244,-138.999,18.853,-15.716
5261,-0.3208,-0.6113,-0.7134,0.183,-0.061,0.122,-138.999,18.853,-15.716
5271,-0.3223,-0.6104,-0.7119,0.488,-0.122,-0.122,-138.999,18.858,-15.716
5281,-0.3208,-0.6143,-0.7051,0.549,-0.122,-0.366,-138.994,18.853,-15.716
5291,-0.3228,-0.6172,-0.7080,0.305,0.000,-0.488,-138.988,18.853,-15.716
5301,-0.3228,-0.6206,-0.7090,-0.244,0.183,-0.671,-138.988,18.847,-15.716
5311,-0.3213,-0.6226,-0.7124,-0.977,0.427,-0.854,-138.994,18.836,-15.716
5321,-0.3198,-0.6230,-0.7168,-1.526,0.854,-0.793,-139.010,18.825,-15.716
5331,-0.3193,-0.6255,-0.7212,-1.526,0.977,-0.488,-139.026,18.809,-15.716
5341,-0.3203,-0.6230,-0.7246,-1.099,0.854,-0.244,-139.043,18.798,-15.716
5351,-0.3228,-0.6216,-0.7236,-0.427,0.488,-0.183,-139.048,18.792,-15.716
5361,-0.3237,-0.6226,-0.7236,0.183,0.122,-0.183,-139.048,18.792,-15.716
5371,-0.3232,-0.6235,-0.7246,0.549,-0.305,0.000,-139.043,18.792,-15.716
5381,-0.3242,-0.6216,-0.7227,0.549,-0.671,0.122,-139.043,18.798,-15.716
5391,-0.3232,-0.6230,-0.7207,0.488,-0.977,0.122,-139.037,18.809,-15.716
5401,-0.3228,-0.6187,-0.7197,0.427,-1.160,0.000,-139.032,18.814,-15.716
5411,-0.3218,-0.6196,-0.7217,0.305,-1.343,0.061,-139.026,18.825,-15.716
5421,-0.3228,-0.6196,-0.7153,0.427,-1.526,0.000,-139.021,18.836,-15.716
5432,-0.3237,-0.6201,-0.7153,0.427,-1.526,-0.061,-139.016,18.847,-15.716
5441,-0.3232,-0.6201,-0.7119,0.488,-1.404,-0.122,-139.005,18.858,-15.716
5451,-0.3218,-0.6226,-0.7100,0.366,-1.160,-0.061,-138.999,18.864,-15.716
5461,-0.3203,-0.6230,-0.7095,0.183,-0.916,-0.061,-138.988,18.869,-15.716
5471,-0.3213,-0.6216,-0.7080,-0.061,-0.671,-0.061,-138.988,18.875,-15.716
5481,-0.3218,-0.6191,-0.7114,-0.427,-0.366,-0.061,-138.988,18.875,-15.716
5491,-0.3203,-0.6182,-0.7095,-0.610,-0.122,0.000,-138.994,18.875,-15.716
5501,-0.3208,-0.6157,-0.7119,-0.610,-0.061,0.061,-138.999,18.875,-15.716
5511,-0.3213,-0.6152,-0.7124,-0.549,-0.122,-0.061,-139.010,18.875,-15.716
5521,-0.3232,-0.6167,-0.7109,-0.366,-0.122,-0.183,-139.010,18.880,-15.716
5531,-0.3252,-0.6162,-0.7095,-0.305,-0.183,-0.305,-139.016,18.880,-15.716
5541,-0.3252,-0.6177,-0.7109,-0.244,-0.244,-0.366,-139.016,18.880,-15.716
5551,-0.3208,-0.6187,-0.7124,-0.183,-0.305,-0.366,-139.016,18.880,-15.716
5561,-0.3213,-0.6211,-0.7114,-0.061,-0.549,-0.427,-139.010,18.880,-15.716
5571,-0.3213,-0.6235,-0.7100,-0.061,-0.732,-0.488,-139.005,18.880,-15.716
5581,-0.3203,-0.6226,-0.7080,-0.122,-0.732,-0.427,-139.005,18.880,-15.716
5591,-0.3218,-0.6226,-0.7090,-0.183,-0.671,-0.244,-138.999,18.885,-15.716
5601,-0.3237,-0.6240,-0.7095,-0.183,-0.427,-0.183,-138.994,18.885,-15.716
5611,-0.3208,-0.6226,-0.7104,-0.122,-0.061,-0.244,-138.994,18.885,-15.716
5621,-0.3203,-0.6240,-0.7100,-0.061,0.244,-0.244,-138.994,18.880,-15.716
5631,-0.3203,-0.6235,-0.7100,-0.061,0.366,-0.122,-138.988,18.875,-15.716
5641,-0.3193,-0.6226,-0.7114,-0.122,0.427,0.000,-138.988,18.869,-15.716
5651,-0.3218,-0.6211,-0.7139,-0.183,0.305,0.061,-138.994,18.869,-15.716
5662,-0.3247,-0.6211,-0.7134,-0.183,0.244,0.122,-138.994,18.869,-15.716
5672,-0.3252,-0.6226,-0.7173,-0.061,0.305,0.183,-138.999,18.869,-15.716
5682,-0.3242,-0.6201,-0.7173,0.061,0.427,0.183,-138.999,18.864,-15.716
5692,-0.3257,-0.6177,-0.7178,0.122,0.549,0.183,-139.005,18.864,-15.716
5702,-0.3247,-0.6162,-0.7163,0.122,0.549,0.122,-139.005,18.858,-15.716
5712,-0.3232,-0.6167,-0.7192,-0.061,0.366,0.061,-139.010,18.858,-15.716
5722,-0.3223,-0.6191,-0.7178,-0.366,0.061,0.000,-139.016,18.858,-15.716
5732,-0.3203,-0.6211,-0.7168,-0.549,-0.244,0.000,-139.021,18.858,-15.716
5742,-0.3198,-0.6216,-0.7168,-0.488,-0.610,-0.061,-139.026,18.858,-15.716
5752,-0.3188,-0.6206,-0.7178,-0.366,-0.610,-0.061,-139.032,18.858,-15.716
5762,-0.3193,-0.6201,-0.7148,-0.244,-0.366,-0.061,-139.032,18.858,-15.716
5772,-0.3198,-0.6206,-0.7134,-0.122,-0.122,-0.122,-139.032,18.858,-15.716
5782,-0.3188,-0.6187,-0.7129,0.000,0.061,-0.061,-139.032,18.858,-15.716
5792,-0.3218,-0.6196,-0.7153,0.061,0.061,0.000,-139.032,18.853,-15.716
5802,-0.3203,-0.6172,-0.7144,0.061,0.061,0.000,-139.032,18.853,-15.716
5812,-0.3213,-0.6177,-0.7144,0.000,-0.061,0.061,-139.032,18.853,-15.716
5822,-0.3218,-0.6177,-0.7183,-0.244,-0.122,-0.061,-139.037,18.853,-15.716
5832,-0.3213,-0.6177,-0.7153,-0.549,-0.244,-0.183,-139.043,18.853,-15.716
5842,-0.3208,-0.6167,-0.7187,-0.793,-0.305,-0.305,-139.054,18.853,-15.716
5852,-0.3223,-0.6162,-0.7187,-0.793,-0.305,-0.366,-139.065,18.853,-15.716
5862,-0.3218,-0.6167,-0.7183,-0.488,-0.305,-0.366,-139.070,18.853,-15.716
5872,-0.3228,-0.6201,-0.7163,0.000,-0.305,-0.427,-139.070,18.847,-15.716
5882,-0.3203,-0.6216,-0.7148,0.427,-0.305,-0.427,-139.059,18.847,-15.716
5892,-0.3188,-0.6226,-0.7144,0.549,-0.366,-0.366,-139.054,18.847,-15.716
5902,-0.3179,-0.6240,-0.7163,0.305,-0.366,-0.244,-139.048,18.842,-15.716
5912,-0.3188,-0.6211,-0.7173,-0.061,-0.366,-0.122,-139.048,18.842,-15.716
5922,-0.3213,-0.6177,-0.7183,-0.183,-0.488,-0.061,-139.048,18.847,-15.716
5932,-0.3232,-0.6172,-0.7158,0.061,-0.671,-0.122,-139.048,18.847,-15.716
5942,-0.3247,-0.6167,-0.7139,0.488,-0.793,-0.244,-139.043,18.853,-15.716
5952,-0.3257,-0.6196,-0.7124,0.732,-0.732,-0.366,-139.032,18.858,-15.716
5962,-0.3252,-0.6221,-0.7114,0.610,-0.549,-0.488,-139.021,18.864,-15.716
5972,-0.3242,-0.6270,-0.7100,0.061,-0.366,-0.610,-139.016,18.864,-15.716
5982,-0.3232,-0.6274,-0.7134,-0.488,-0.183,-0.610,-139.016,18.858,-15.716
5992,-0.3208,-0.6270,-0.7153,-0.854,-0.061,-0.427,-139.021,18.853,-15.716
6002,-0.3203,-0.6265,-0.7148,-0.732,-0.061,-0.122,-139.026,18.853,-15.716
6012,-0.3188,-0.6255,-0.7148,-0.366,-0.183,0.122,-139.026,18.853,-15.716
6022,-0.3198,-0.6250,-0.7153,0.122,-0.305,0.305,-139.021,18.853,-15.716
6032,-0.3203,-0.6230,-0.7139,0.427,-0.366,0.549,-139.016,18.858,-15.716
6042,-0.3193,-0.6221,-0.7129,0.549,-0.305,0.671,-139.010,18.864,-15.716
6052,-0.3218,-0.6182,-0.7129,0.549,-0.366,0.793,-139.010,18.869,-15.716
6062,-0.3232,-0.6162,-0.7139,0.427,-0.366,0.793,-139.005,18.875,-15.716
6076,-0.3213,-0.6143,-0.7124,0.366,-0.427,0.610,-139.005,18.885,-15.716
6082,-0.3213,-0.6128,-0.7104,0.244,-0.549,0.366,-139.005,18.891,-15.716
6092,-0.3223,-0.6147,-0.7085,0.183,-0.549,0.183,-139.005,18.896,-15.716
6102,-0.3218,-0.6172,-0.7085,0.183,-0.488,0.000,-138.999,18.902,-15.716
6112,-0.3203,-0.6187,-0.7065,0.122,-0.427,-0.061,-138.994,18.902,-15.716
6122,-0.3213,-0.6196,-0.7085,-0.061,-0.244,-0.122,-138.994,18.902,-15.716
6132,-0.3223,-0.6191,-0.7100,-0.183,0.000,-0.122,-138.994,18.902,-15.716
6142,-0.3218,-0.6201,-0.7119,-0.183,0.244,-0.061,-138.994,18.896,-15.716
6152,-0.3237,-0.6191,-0.7153,-0.244,0.427,-0.122,-138.999,18.896,-15.716
6162,-0.3213,-0.6196,-0.7144,-0.366,0.488,-0.122,-139.005,18.891,-15.716
6172,-0.3208,-0.6187,-0.7134,-0.488,0.488,-0.061,-139.010,18.885,-15.716
6182,-0.3208,-0.6177,-0.7144,-0.488,0.366,-0.061,-139.021,18.880,-15.716
6192,-0.3213,-0.6201,-0.7173,-0.366,0.244,-0.122,-139.021,18.875,-15.716
6202,-0.3223,-0.6211,-0.7183,-0.183,0.122,-0.183,-139.026,18.875,-15.716
6212,-0.3218,-0.6191,-0.7144,-0.061,0.000,-0.244,-139.026,18.869,-15.716
6222,-0.3228,-0.6211,-0.7119,0.122,-0.061,-0.244,-139.021,18.869,-15.716
6232,-0.3237,-0.6240,-0.7134,0.244,-0.122,-0.183,-139.021,18.869,-15.716
6242,-0.3218,-0.6230,-0.7124,0.183,-0.183,-0.183,-139.016,18.869,-15.716
6252,-0.3198,-0.6226,-0.7139,0.000,-0.244,0.000,-139.010,18.869,-15.716
6262,-0.3203,-0.6191,-0.7148,-0.183,-0.244,0.183,-139.016,18.869,-15.716
6272,-0.3198,-0.6187,-0.7129,-0.122,-0.183,0.244,-139.016,18.869,-15.716
6282,-0.3213,-0.6191,-0.7144,-0.061,-0.122,0.122,-139.016,18.869,-15.716
6292,-0.3218,-0.6206,-0.7114,-0.061,0.122,0.000,-139.016,18.869,-15.716
6302,-0.3203,-0.6187,-0.7144,-0.061,0.305,-0.061,-139.021,18.864,-15.716
6312,-0.3203,-0.6206,-0.7173,-0.061,0.427,0.000,-139.021,18.858,-15.716
6322,-0.3203,-0.6201,-0.7173,-0.122,0.366,0.061,-139.026,18.858,-15.716
6332,-0.3213,-0.6196,-0.7192,-0.244,0.366,0.061,-139.032,18.853,-15.716
6342,-0.3198,-0.6187,-0.7217,-0.183,0.183,0.122,-139.037,18.847,-15.716
6352,-0.3203,-0.6167,-0.7202,0.000,0.000,0.122,-139.043,18.847,-15.716
6362,-0.3223,-0.6152,-0.7178,0.244,-0.244,0.000,-139.043,18.847,-15.716
6372,-0.3228,-0.6152,-0.7163,0.488,-0.610,-0.183,-139.037,18.853,-15.716
6382,-0.3213,-0.6172,-0.7163,0.549,-0.732,-0.305,-139.032,18.858,-15.716
6392,-0.3223,-0.6201,-0.7148,0.427,-0.854,-0.427,-139.026,18.858,-15.716
6402,-0.3223,-0.6216,-0.7119,0.183,-0.793,-0.488,-139.021,18.864,-15.716
6412,-0.3223,-0.6230,-0.7144,-0.061,-0.671,-0.427,-139.016,18.864,-15.716
6422,-0.3198,-0.6250,-0.7129,-0.305,-0.427,-0.366,-139.016,18.864,-15.716
6433,-0.3179,-0.6265,-0.7148,-0.366,-0.366,-0.244,-139.016,18.858,-15.716
6442,-0.3203,-0.6245,-0.7144,-0.305,-0.122,-0.061,-139.016,18.858,-15.716
6452,-0.3198,-0.6240,-0.7144,-0.122,-0.122,0.061,-139.016,18.858,-15.716
6462,-0.3193,-0.6230,-0.7139,0.183,0.000,0.122,-139.010,18.853,-15.716
6472,-0.3218,-0.6206,-0.7124,0.366,0.061,0.183,-139.010,18.853,-15.716
6482,-0.3213,-0.6196,-0.7095,0.366,0.061,0.183,-139.005,18.858,-15.716
6492,-0.3223,-0.6201,-0.7129,0.244,0.061,0.122,-138.999,18.858,-15.716
6502,-0.3237,-0.6196,-0.7109,0.061,0.122,0.061,-138.999,18.858,-15.716
6512,-0.3232,-0.6196,-0.7119,-0.122,0.183,0.061,-139.005,18.858,-15.716
6522,-0.3247,-0.6172,-0.7134,-0.244,0.183,0.061,-139.005,18.858,-15.716
6532,-0.3262,-0.6191,-0.7139,-0.244,0.183,0.000,-139.010,18.858,-15.716
6542,-0.3237,-0.6196,-0.7148,-0.122,0.244,-0.061,-139.010,18.853,-15.716
6552,-0.3223,-0.6206,-0.7119,0.061,0.122,-0.061,-139.010,18.853,-15.716
6562,-0.3223,-0.6221,-0.7158,0.061,-0.061,-0.122,-139.010,18.853,-15.716
6572,-0.3223,-0.6221,-0.7183,-0.061,-0.183,-0.061,-139.010,18.853,-15.716
6582,-0.3203,-0.6230,-0.7153,-0.183,-0.122,0.000,-139.010,18.853,-15.716
6592,-0.3203,-0.6206,-0.7163,-0.183,0.000,0.122,-139.016,18.853,-15.716
6602,-0.3223,-0.6177,-0.7192,0.061,0.000,0.183,-139.016,18.853,-15.716
6612,-0.3247,-0.6162,-0.7163,0.549,-0.244,0.122,-139.016,18.853,-15.716
6622,-0.3276,-0.6191,-0.7163,0.977,-0.488,0.000,-139.005,18.858,-15.716
6632,-0.3257,-0.6177,-0.7109,1.160,-0.671,-0.183,-138.994,18.869,-15.716
6642,-0.3232,-0.6245,-0.7090,0.854,-0.610,-0.305,-138.977,18.869,-15.716
6652,-0.3228,-0.6265,-0.7095,0.183,-0.366,-0.366,-138.972,18.869,-15.716
6662,-0.3203,-0.6260,-0.7090,-0.610,-0.061,-0.183,-138.972,18.869,-15.716
6672,-0.3188,-0.6255,-0.7139,-0.916,0.305,0.000,-138.977,18.864,-15.716
6682,-0.3193,-0.6230,-0.7163,-0.671,0.549,0.244,-138.988,18.858,-15.716
6692,-0.3184,-0.6221,-0.7187,-0.061,0.549,0.549,-138.994,18.853,-15.716
6702,-0.3223,-0.6206,-0.7158,0.488,0.488,0.732,-138.988,18.853,-15.716
6712,-0.3213,-0.6187,-0.7144,0.793,0.366,0.854,-138.988,18.853,-15.716
6722,-0.3203,-0.6182,-0.7139,0.793,0.244,0.916,-138.983,18.858,-15.716
6732,-0.3213,-0.6143,-0.7153,0.549,0.061,0.793,-138.983,18.864,-15.716
6742,-0.3232,-0.6113,-0.7178,0.183,-0.122,0.671,-138.988,18.869,-15.716
6752,-0.3208,-0.6108,-0.7153,0.122,-0.366,0.488,-138.994,18.875,-15.716
6762,-0.3223,-0.6113,-0.7173,0.183,-0.488,0.183,-138.999,18.880,-15.716
6772,-0.3223,-0.6147,-0.7163,0.305,-0.610,-0.061,-138.994,18.880,-15.716
6782,-0.3213,-0.6182,-0.7119,0.366,-0.610,-0.244,-138.988,18.885,-15.716
6792,-0.3218,-0.6206,-0.7104,0.305,-0.610,-0.244,-138.983,18.885,-15.716
6802,-0.3228,-0.6206,-0.7114,0.061,-0.488,-0.305,-138.983,18.891,-15.716
6812,-0.3218,-0.6206,-0.7109,-0.061,-0.244,-0.305,-138.977,18.885,-15.716
6822,-0.3223,-0.6221,-0.7114,-0.122,0.000,-0.305,-138.977,18.885,-15.716
6832,-0.3228,-0.6206,-0.7119,-0.183,0.244,-0.244,-138.977,18.880,-15.716
6842,-0.3228,-0.6216,-0.7109,-0.183,0.427,-0.244,-138.983,18.880,-15.716
6852,-0.3213,-0.6206,-0.7095,-0.244,0.488,-0.305,-138.983,18.869,-15.716
6862,-0.3228,-0.6211,-0.7119,-0.244,0.488,-0.244,-138.983,18.864,-15.716
6872,-0.3223,-0.6211,-0.7114,-0.183,0.366,-0.244,-138.983,18.864,-15.716
6882,-0.3257,-0.6226,-0.7129,-0.122,0.122,-0.183,-138.983,18.858,-15.716
6892,-0.3242,-0.6211,-0.7144,-0.061,-0.244,-0.183,-138.983,18.864,-15.716
6902,-0.3228,-0.6230,-0.7129,0.061,-0.427,-0.244,-138.983,18.864,-15.716
6912,-0.3223,-0.6265,-0.7119,0.244,-0.488,-0.183,-138.972,18.864,-15.716
6922,-0.3232,-0.6270,-0.7100,0.366,-0.366,-0.122,-138.966,18.864,-15.716
6933,-0.3232,-0.6260,-0.7124,0.427,-0.122,0.122,-138.955,18.869,-15.716
6942,-0.3228,-0.6265,-0.7090,0.427,0.000,0.244,-138.950,18.869,-15.716
6952,-0.3228,-0.6235,-0.7109,0.366,0.000,0.366,-138.944,18.869,-15.716
6962,-0.3237,-0.6206,-0.7090,0.305,0.061,0.488,-138.939,18.875,-15.716
6972,-0.3237,-0.6206,-0.7085,0.244,0.183,0.549,-138.939,18.880,-15.716
6982,-0.3218,-0.6206,-0.7124,0.305,0.366,0.549,-138.939,18.880,-15.716
6992,-0.3203,-0.6187,-0.7139,0.366,0.488,0.366,-138.939,18.875,-15.716
7002,-0.3218,-0.6196,-0.7134,0.305,0.488,0.305,-138.939,18.875,-15.716
7012,-0.3242,-0.6172,-0.7124,0.183,0.549,0.305,-138.939,18.875,-15.716
7022,-0.3252,-0.6177,-0.7124,0.000,0.549,0.305,-138.944,18.869,-15.716
7032,-0.3228,-0.6162,-0.7158,-0.061,0.549,0.305,-138.950,18.869,-15.716
7042,-0.3242,-0.6177,-0.7178,0.000,0.427,0.305,-138.955,18.869,-15.716
7052,-0.3232,-0.6177,-0.7168,0.183,0.366,0.244,-138.955,18.869,-15.716
7062,-0.3218,-0.6167,-0.7168,0.305,0.244,0.061,-138.955,18.864,-15.716
7072,-0.3228,-0.6182,-0.7192,0.183,0.000,-0.061,-138.961,18.864,-15.716
7082,-0.3208,-0.6191,-0.7163,0.061,-0.122,-0.122,-138.961,18.864,-15.716
7092,-0.3203,-0.6211,-0.7158,-0.122,-0.061,-0.122,-138.961,18.858,-15.716
7102,-0.3193,-0.6230,-0.7134,-0.244,-0.061,-0.061,-138.961,18.858,-15.716
7112,-0.3174,-0.6230,-0.7153,-0.244,-0.122,-0.061,-138.966,18.853,-15.716
7122,-0.3193,-0.6216,-0.7158,-0.061,-0.122,0.122,-138.966,18.853,-15.716
7132,-0.3188,-0.6216,-0.7144,0.122,-0.122,0.183,-138.966,18.853,-15.716
7142,-0.3198,-0.6216,-0.7124,0.366,-0.183,0.244,-138.961,18.858,-15.716
7152,-0.3218,-0.6216,-0.7109,0.488,-0.122,0.244,-138.955,18.858,-15.716
7162,-0.3218,-0.6172,-0.7119,0.488,-0.061,0.183,-138.950,18.858,-15.716
7172,-0.3228,-0.6143,-0.7129,0.366,-0.061,0.122,-138.950,18.864,-15.716
7182,-0.3232,-0.6147,-0.7134,0.000,0.000,0.061,-138.955,18.864,-15.716
7192,-0.3252,-0.6172,-0.7158,-0.305,0.061,0.000,-138.961,18.864,-15.716
7202,-0.3232,-0.6152,-0.7153,-0.427,0.000,-0.183,-138.966,18.864,-15.716
7212,-0.3228,-0.6187,-0.7129,-0.427,-0.061,-0.305,-138.972,18.864,-15.716
7222,-0.3232,-0.6206,-0.7144,-0.366,-0.183,-0.366,-138.972,18.858,-15.716
7232,-0.3232,-0.6196,-0.7139,-0.244,-0.183,-0.427,-138.977,18.858,-15.716
7242,-0.3213,-0.6216,-0.7119,-0.122,-0.183,-0.427,-138.972,18.858,-15.716
7252,-0.3213,-0.6226,-0.7100,0.000,-0.244,-0.366,-138.972,18.858,-15.716
7262,-0.3213,-0.6230,-0.7090,0.000,-0.183,-0.305,-138.966,18.853,-15.716
7272,-0.3218,-0.6235,-0.7114,-0.183,0.061,-0.061,-138.966,18.853,-15.716
7282,-0.3223,-0.6226,-0.7109,-0.122,0.122,0.061,-138.966,18.853,-15.716
7292,-0.3232,-0.6191,-0.7119,0.122,0.122,0.000,-138.966,18.853,-15.716
7302,-0.3242,-0.6201,-0.7075,0.427,0.061,-0.122,-138.961,18.853,-15.716
7312,-0.3223,-0.6206,-0.7075,0.549,0.061,-0.305,-138.950,18.853,-15.716
7322,-0.3198,-0.6235,-0.7090,0.244,0.122,-0.366,-138.944,18.847,-15.716
7332,-0.3218,-0.6255,-0.7104,-0.305,0.183,-0.366,-138.944,18.842,-15.716
7342,-0.3223,-0.6270,-0.7134,-0.793,0.244,-0.305,-138.950,18.836,-15.716
7352,-0.3213,-0.6240,-0.7168,-0.916,0.305,-0.183,-138.961,18.831,-15.716
7362,-0.3232,-0.6235,-0.7158,-0.488,0.427,-0.122,-138.966,18.825,-15.716
7372,-0.3232,-0.6245,-0.7153,0.183,0.488,-0.061,-138.961,18.825,-15.716
7382,-0.3223,-0.6260,-0.7139,0.549,0.488,0.000,-138.955,18.820,-15.716
7392,-0.3223,-0.6260,-0.7129,0.610,0.488,0.183,-138.950,18.814,-15.716
7402,-0.3218,-0.6240,-0.7109,0.366,0.366,0.427,-138.944,18.814,-15.716
7412,-0.3208,-0.6240,-0.7134,0.122,0.122,0.488,-138.944,18.814,-15.716
7422,-0.3218,-0.6216,-0.7139,-0.061,-0.061,0.488,-138.944,18.820,-15.716
7433,-0.3237,-0.6191,-0.7129,-0.061,-0.183,0.366,-138.950,18.825,-15.716
7442,-0.3242,-0.6182,-0.7144,0.122,-0.305,0.244,-138.950,18.831,-15.716
7452,-0.3237,-0.6201,-0.7129,0.305,-0.305,0.061,-138.944,18.831,-15.716
7462,-0.3232,-0.6221,-0.7119,0.488,-0.244,0.061,-138.939,18.836,-15.716
7472,-0.3223,-0.6245,-0.7119,0.549,-0.183,0.061,-138.933,18.836,-15.716
7482,-0.3228,-0.6226,-0.7114,0.366,-0.183,0.122,-138.928,18.842,-15.716
7492,-0.3232,-0.6240,-0.7134,0.305,-0.122,0.183,-138.922,18.842,-15.716
7502,-0.3232,-0.6216,-0.7124,0.061,-0.061,0.244,-138.922,18.842,-15.716
7512,-0.3242,-0.6201,-0.7124,-0.061,-0.061,0.305,-138.922,18.847,-15.716
7522,-0.3223,-0.6201,-0.7139,-0.061,0.000,0.305,-138.928,18.847,-15.716
7532,-0.3237,-0.6187,-0.7124,0.000,0.061,0.305,-138.928,18.853,-15.716
7542,-0.3247,-0.6206,-0.7144,0.061,0.061,0.366,-138.928,18.853,-15.716
7552,-0.3242,-0.6211,-0.7139,0.061,0.122,0.366,-138.928,18.858,-15.716
7562,-0.3208,-0.6196,-0.7129,0.061,0.061,0.366,-138.933,18.858,-15.716
7572,-0.3203,-0.6211,-0.7139,-0.122,0.000,0.305,-138.933,18.858,-15.716
7582,-0.3213,-0.6196,-0.7144,-0.244,0.000,0.244,-138.939,18.858,-15.716
7592,-0.3193,-0.6167,-0.7158,-0.244,-0.061,0.122,-138.944,18.858,-15.716
7602,-0.3203,-0.6157,-0.7144,-0.122,-0.183,0.061,-138.950,18.858,-15.716
7612,-0.3159,-0.6167,-0.7119,0.000,-0.305,0.061,-138.950,18.858,-15.716
7622,-0.3188,-0.6172,-0.7075,0.244,-0.427,0.000,-138.944,18.858,-15.716
7632,-0.3184,-0.6177,-0.7070,0.427,-0.488,-0.061,-138.939,18.864,-15.716
7642,-0.3193,-0.6162,-0.7085,0.488,-0.488,-0.183,-138.933,18.864,-15.716
7652,-0.3213,-0.6177,-0.7056,0.305,-0.244,-0.244,-138.928,18.864,-15.716
7662,-0.3228,-0.6196,-0.7075,0.061,0.000,-0.244,-138.922,18.864,-15.716
7672,-0.3228,-0.6206,-0.7085,-0.305,0.305,-0.305,-138.928,18.858,-15.716
7682,-0.3218,-0.6206,-0.7104,-0.732,0.488,-0.366,-138.933,18.853,-15.716
7692,-0.3213,-0.6221,-0.7134,-1.099,0.671,-0.427,-138.944,18.847,-15.716
7702,-0.3203,-0.6230,-0.7192,-1.038,0.671,-0.366,-138.955,18.836,-15.716
7712,-0.3213,-0.6235,-0.7192,-0.732,0.610,-0.366,-138.966,18.825,-15.716
7722,-0.3218,-0.6226,-0.7183,-0.244,0.366,-0.366,-138.966,18.820,-15.716
7732,-0.3223,-0.6230,-0.7163,0.183,0.122,-0.305,-138.966,18.814,-15.716
7742,-0.3228,-0.6265,-0.7173,0.305,-0.061,-0.305,-138.961,18.814,-15.716
7752,-0.3218,-0.6250,-0.7148,0.244,-0.244,-0.305,-138.955,18.814,-15.716
7762,-0.3232,-0.6230,-0.7148,0.000,-0.366,-0.305,-138.955,18.814,-15.716
7772,-0.3228,-0.6255,-0.7114,-0.061,-0.549,-0.183,-138.950,18.820,-15.716
7782,-0.3213,-0.6250,-0.7104,0.000,-0.549,-0.122,-138.944,18.820,-15.716
7792,-0.3228,-0.6250,-0.7119,0.122,-0.610,0.000,-138.939,18.825,-15.716
7802,-0.3203,-0.6265,-0.7090,0.244,-0.488,0.183,-138.933,18.831,-15.716
7812,-0.3218,-0.6270,-0.7080,0.244,-0.366,0.305,-138.928,18.831,-15.716
7822,-0.3213,-0.6255,-0.7085,0.183,-0.244,0.366,-138.922,18.836,-15.716
7832,-0.3213,-0.6230,-0.7104,0.000,-0.122,0.549,-138.922,18.842,-15.716
7842,-0.3223,-0.6211,-0.7114,-0.244,0.122,0.610,-138.922,18.842,-15.716
7852,-0.3213,-0.6196,-0.7139,-0.305,0.244,0.610,-138.933,18.847,-15.716
7862,-0.3232,-0.6177,-0.7158,-0.183,0.244,0.488,-138.939,18.847,-15.716
7872,-0.3237,-0.6167,-0.7144,0.122,0.183,0.366,-138.939,18.847,-15.716
7882,-0.3228,-0.6157,-0.7134,0.244,-0.122,0.305,-138.939,18.853,-15.716
7892,-0.3228,-0.6177,-0.7124,0.305,-0.488,0.244,-138.939,18.858,-15.716
7902,-0.3223,-0.6191,-0.7090,0.305,-0.610,0.122,-138.933,18.864,-15.716
7912,-0.3218,-0.6182,-0.7085,0.244,-0.549,0.000,-138.928,18.869,-15.716
7922,-0.3208,-0.6201,-0.7090,0.122,-0.427,-0.061,-138.928,18.869,-15.716
7933,-0.3203,-0.6226,-0.7065,-0.061,-0.244,0.000,-138.922,18.869,-15.716
7942,-0.3208,-0.6235,-0.7085,-0.183,0.122,-0.061,-138.922,18.869,-15.716
7952,-0.3188,-0.6226,-0.7090,-0.244,0.244,-0.061,-138.922,18.864,-15.716
7962,-0.3203,-0.6230,-0.7100,-0.244,0.305,0.061,-138.922,18.864,-15.716
7972,-0.3203,-0.6196,-0.7124,-0.122,0.366,0.183,-138.928,18.858,-15.716
7982,-0.3228,-0.6177,-0.7109,0.000,0.427,0.183,-138.928,18.858,-15.716
7992,-0.3232,-0.6177,-0.7124,0.122,0.488,0.061,-138.933,18.853,-15.716
8002,-0.3228,-0.6152,-0.7153,0.183,0.427,-0.061,-138.933,18.853,-15.716
8012,-0.3247,-0.6172,-0.7119,0.000,0.366,-0.244,-138.933,18.847,-15.716
8022,-0.3228,-0.6191,-0.7119,-0.305,0.366,-0.366,-138.939,18.842,-15.716
8032,-0.3208,-0.6196,-0.7124,-0.610,0.305,-0.610,-138.944,18.836,-15.716
8042,-0.3188,-0.6201,-0.7148,-0.854,0.305,-0.732,-138.955,18.825,-15.716
8052,-0.3203,-0.6230,-0.7153,-0.793,0.183,-0.671,-138.961,18.820,-15.716
8062,-0.3188,-0.6245,-0.7153,-0.488,0.122,-0.549,-138.961,18.814,-15.716
8077,-0.3188,-0.6255,-0.7158,-0.061,0.122,-0.366,-138.961,18.809,-15.716
8082,-0.3232,-0.6250,-0.7119,0.183,0.061,-0.122,-138.955,18.809,-15.716
8092,-0.3237,-0.6245,-0.7148,0.183,0.244,0.000,-138.955,18.803,-15.716
8102,-0.3232,-0.6235,-0.7139,0.061,0.427,0.122,-138.955,18.803,-15.716
8112,-0.3223,-0.6211,-0.7144,-0.183,0.366,0.122,-138.955,18.803,-15.716
8122,-0.3203,-0.6196,-0.7139,-0.244,0.122,0.122,-138.961,18.798,-15.716
8132,-0.3218,-0.6211,-0.7158,-0.244,-0.183,0.061,-138.966,18.803,-15.716
8142,-0.3213,-0.6216,-0.7173,0.000,-0.427,-0.061,-138.966,18.803,-15.716
8152,-0.3208,-0.6240,-0.7119,0.244,-0.610,-0.183,-138.961,18.803,-15.716
8162,-0.3208,-0.6260,-0.7144,0.244,-0.610,-0.244,-138.950,18.809,-15.716
8172,-0.3213,-0.6260,-0.7124,0.122,-0.488,-0.122,-138.944,18.809,-15.716
8182,-0.3203,-0.6270,-0.7100,0.061,-0.244,0.000,-138.939,18.809,-15.716
8192,-0.3208,-0.6250,-0.7114,0.000,-0.183,0.061,-138.939,18.809,-15.716
8202,-0.3218,-0.6240,-0.7100,0.000,-0.183,0.244,-138.939,18.814,-15.716
8212,-0.3228,-0.6201,-0.7104,0.122,-0.244,0.366,-138.933,18.820,-15.716
8222,-0.3237,-0.6196,-0.7100,0.183,-0.122,0.427,-138.933,18.825,-15.716
8232,-0.3237,-0.6201,-0.7090,0.183,0.000,0.305,-138.933,18.825,-15.716
8242,-0.3242,-0.6196,-0.7075,0.061,0.061,0.244,-138.928,18.831,-15.716
8252,-0.3228,-0.6196,-0.7090,-0.183,0.183,0.183,-138.933,18.831,-15.716
8262,-0.3208,-0.6196,-0.7129,-0.488,0.183,0.122,-138.939,18.831,-15.716
8272,-0.3198,-0.6206,-0.7119,-0.732,0.061,0.061,-138.944,18.831,-15.716
8282,-0.3208,-0.6211,-0.7129,-0.549,0.000,0.000,-138.950,18.825,-15.716
8292,-0.3188,-0.6221,-0.7144,-0.244,-0.122,-0.061,-138.955,18.825,-15.716
8302,-0.3203,-0.6211,-0.7124,0.061,-0.183,-0.061,-138.950,18.825,-15.716
8312,-0.3193,-0.6226,-0.7104,0.305,-0.061,0.000,-138.944,18.825,-15.716
8322,-0.3213,-0.6216,-0.7080,0.366,0.122,0.122,-138.939,18.825,-15.716
8332,-0.3223,-0.6226,-0.7075,0.244,0.305,0.122,-138.939,18.825,-15.716
8342,-0.3213,-0.6211,-0.7070,-0.061,0.610,0.122,-138.939,18.820,-15.716
8352,-0.3232,-0.6191,-0.7075,-0.427,0.854,0.061,-138.944,18.814,-15.716
8362,-0.3228,-0.6172,-0.7109,-0.671,1.099,0.000,-138.950,18.809,-15.716
8372,-0.3208,-0.6162,-0.7144,-0.854,1.160,-0.061,-138.966,18.798,-15.716
8382,-0.3198,-0.6182,-0.7173,-0.916,1.038,-0.122,-138.977,18.792,-15.716
8392,-0.3218,-0.6177,-0.7173,-0.854,0.916,-0.183,-138.994,18.781,-15.716
8402,-0.3232,-0.6187,-0.7207,-0.610,0.671,-0.183,-139.005,18.776,-15.716
8412,-0.3213,-0.6221,-0.7197,-0.244,0.488,-0.244,-139.005,18.770,-15.716
8422,-0.3208,-0.6206,-0.7178,0.000,0.244,-0.366,-139.010,18.765,-15.716
8433,-0.3223,-0.6211,-0.7192,0.061,-0.061,-0.305,-139.010,18.765,-15.716
8442,-0.3232,-0.6196,-0.7212,0.122,-0.183,-0.244,-139.010,18.765,-15.716
8452,-0.3237,-0.6221,-0.7183,0.183,-0.366,-0.244,-139.005,18.765,-15.716
8462,-0.3223,-0.6235,-0.7187,0.122,-0.488,-0.244,-139.005,18.765,-15.716
8472,-0.3203,-0.6235,-0.7168,0.000,-0.488,-0.244,-139.005,18.765,-15.716
8482,-0.3198,-0.6230,-0.7148,-0.183,-0.427,-0.183,-139.005,18.765,-15.716
8492,-0.3188,-0.6226,-0.7187,-0.305,-0.305,-0.183,-139.005,18.765,-15.716
8502,-0.3193,-0.6240,-0.7197,-0.305,-0.244,-0.244,-139.010,18.765,-15.716
8512,-0.3193,-0.6221,-0.7197,-0.183,-0.427,-0.183,-139.010,18.765,-15.716
8522,-0.3193,-0.6226,-0.7168,0.000,-0.671,-0.122,-139.010,18.765,-15.716
8532,-0.3203,-0.6216,-0.7148,0.183,-0.793,-0.122,-139.005,18.770,-15.716
8542,-0.3218,-0.6211,-0.7139,0.305,-0.916,-0.122,-138.999,18.776,-15.716
8552,-0.3247,-0.6206,-0.7100,0.366,-0.854,-0.122,-138.988,18.787,-15.716
8562,-0.3252,-0.6235,-0.7070,0.366,-0.610,-0.183,-138.983,18.792,-15.716
8572,-0.3247,-0.6221,-0.7056,0.305,-0.427,-0.183,-138.972,18.792,-15.716
8582,-0.3223,-0.6211,-0.7051,0.122,-0.366,-0.183,-138.966,18.798,-15.716
8592,-0.3232,-0.6211,-0.7061,-0.061,-0.366,-0.122,-138.961,18.803,-15.716
8602,-0.3237,-0.6216,-0.7061,-0.183,-0.427,-0.122,-138.961,18.803,-15.716
8612,-0.3228,-0.6206,-0.7070,-0.244,-0.183,-0.183,-138.961,18.809,-15.716
8622,-0.3198,-0.6206,-0.7075,-0.244,0.000,-0.122,-138.961,18.809,-15.716
8632,-0.3208,-0.6216,-0.7070,-0.183,0.183,-0.122,-138.961,18.803,-15.716
8642,-0.3198,-0.6240,-0.7085,-0.183,0.366,-0.122,-138.955,18.798,-15.716
8652,-0.3174,-0.6226,-0.7114,-0.305,0.427,-0.122,-138.961,18.792,-15.716
8662,-0.3159,-0.6216,-0.7114,-0.305,0.366,0.000,-138.961,18.787,-15.716
8672,-0.3193,-0.6147,-0.7114,-0.183,0.122,0.122,-138.966,18.787,-15.716
8682,-0.3223,-0.6162,-0.7124,0.183,0.000,0.061,-138.966,18.787,-15.716
8692,-0.3247,-0.6177,-0.7100,0.671,0.000,-0.183,-138.961,18.792,-15.716
8702,-0.3262,-0.6187,-0.7065,0.671,0.183,-0.366,-138.950,18.792,-15.716
8712,-0.3237,-0.6201,-0.7085,0.305,0.305,-0.427,-138.944,18.787,-15.716
8722,-0.3203,-0.6201,-0.7095,-0.427,0.366,-0.427,-138.950,18.781,-15.716
8732,-0.3188,-0.6201,-0.7144,-0.977,0.366,-0.427,-138.961,18.776,-15.716
8742,-0.3208,-0.6211,-0.7163,-1.099,0.366,-0.427,-138.972,18.770,-15.716
8752,-0.3218,-0.6216,-0.7168,-0.793,0.366,-0.427,-138.977,18.759,-15.716
8762,-0.3232,-0.6216,-0.7178,-0.183,0.427,-0.427,-138.983,18.754,-15.716
8772,-0.3242,-0.6260,-0.7148,0.183,0.488,-0.427,-138.977,18.748,-15.716
8782,-0.3203,-0.6265,-0.7148,0.244,0.427,-0.427,-138.972,18.743,-15.716
8792,-0.3193,-0.6260,-0.7168,-0.122,0.305,-0.244,-138.977,18.737,-15.716
8802,-0.3218,-0.6235,-0.7187,-0.488,0.122,0.061,-138.983,18.737,-15.716
8812,-0.3232,-0.6196,-0.7192,-0.610,-0.061,0.061,-138.988,18.737,-15.716
8822,-0.3237,-0.6177,-0.7168,-0.366,-0.061,0.000,-138.994,18.743,-15.716
8832,-0.3252,-0.6206,-0.7192,0.061,-0.183,-0.122,-138.994,18.743,-15.716
8842,-0.3228,-0.6211,-0.7178,0.427,-0.305,-0.305,-138.994,18.743,-15.716
8852,-0.3213,-0.6240,-0.7158,0.427,-0.488,-0.305,-138.983,18.743,-15.716
8862,-0.3218,-0.6245,-0.7153,0.000,-0.610,-0.305,-138.983,18.748,-15.716
8872,-0.3223,-0.6245,-0.7119,-0.366,-0.610,-0.183,-138.983,18.748,-15.716
8882,-0.3228,-0.6240,-0.7134,-0.488,-0.366,-0.122,-138.983,18.754,-15.716
8892,-0.3228,-0.6240,-0.7153,-0.488,-0.183,-0.122,-138.988,18.754,-15.716
8902,-0.3232,-0.6240,-0.7139,-0.244,0.000,-0.122,-138.988,18.754,-15.716
8912,-0.3223,-0.6240,-0.7119,-0.061,0.122,0.000,-138.988,18.754,-15.716
8922,-0.3228,-0.6250,-0.7085,-0.061,0.000,0.122,-138.983,18.754,-15.716
8933,-0.3252,-0.6260,-0.7134,-0.061,-0.061,0.244,-138.983,18.759,-15.716
8942,-0.3252,-0.6240,-0.7124,-0.244,0.000,0.244,-138.983,18.765,-15.716
8952,-0.3247,-0.6221,-0.7119,-0.427,0.000,0.305,-138.988,18.765,-15.716
8962,-0.3237,-0.6211,-0.7100,-0.488,0.061,0.305,-138.988,18.770,-15.716
8972,-0.3213,-0.6211,-0.7080,-0.427,0.000,0.305,-138.994,18.770,-15.716
8982,-0.3218,-0.6211,-0.7100,-0.244,-0.122,0.244,-138.994,18.776,-15.716
8992,-0.3193,-0.6221,-0.7100,-0.122,-0.183,0.183,-138.994,18.776,-15.716
9002,-0.3208,-0.6216,-0.7075,0.000,-0.183,0.305,-138.988,18.781,-15.716
9012,-0.3203,-0.6216,-0.7080,0.183,-0.061,0.366,-138.988,18.781,-15.716
9022,-0.3203,-0.6226,-0.7070,0.183,0.122,0.305,-138.983,18.787,-15.716
9032,-0.3198,-0.6216,-0.7070,0.000,0.366,0.305,-138.983,18.781,-15.716
9042,-0.3228,-0.6196,-0.7075,-0.183,0.671,0.366,-138.983,18.781,-15.716
9052,-0.3213,-0.6191,-0.7065,-0.427,0.977,0.366,-138.988,18.781,-15.716
9062,-0.3203,-0.6196,-0.7095,-0.671,1.160,0.366,-138.999,18.770,-15.716
9072,-0.3203,-0.6191,-0.7153,-0.854,1.221,0.305,-139.010,18.765,-15.716
9082,-0.3213,-0.6196,-0.7153,-0.916,1.282,0.366,-139.021,18.759,-15.716
9093,-0.3237,-0.6177,-0.7187,-0.793,1.160,0.366,-139.037,18.754,-15.716
9103,-0.3218,-0.6167,-0.7202,-0.488,0.977,0.305,-139.048,18.748,-15.716
9113,-0.3213,-0.6162,-0.7217,-0.183,0.854,0.122,-139.059,18.743,-15.716
9123,-0.3198,-0.6157,-0.7222,0.061,0.549,0.122,-139.065,18.737,-15.716
9133,-0.3232,-0.6177,-0.7192,0.061,0.244,0.061,-139.065,18.737,-15.716
9143,-0.3179,-0.6182,-0.7197,0.000,-0.061,-0.061,-139.070,18.732,-15.716
9153,-0.3203,-0.6187,-0.7173,-0.061,-0.244,-0.122,-139.070,18.737,-15.716
9163,-0.3242,-0.6206,-0.7163,0.000,-0.366,-0.244,-139.070,18.737,-15.716
9173,-0.3203,-0.6216,-0.7153,-0.122,-0.366,-0.305,-139.070,18.737,-15.716
9183,-0.3213,-0.6230,-0.7139,-0.305,-0.305,-0.183,-139.070,18.737,-15.716
9193,-0.3198,-0.6255,-0.7129,-0.488,-0.122,-0.061,-139.070,18.737,-15.716
9203,-0.3203,-0.6230,-0.7163,-0.549,0.000,0.061,-139.076,18.737,-15.716
9213,-0.3203,-0.6255,-0.7178,-0.427,-0.061,0.122,-139.076,18.737,-15.716
9223,-0.3213,-0.6240,-0.7187,-0.305,-0.122,0.183,-139.081,18.737,-15.716
9233,-0.3208,-0.6235,-0.7163,-0.183,-0.122,0.244,-139.081,18.743,-15.716
9243,-0.3208,-0.6216,-0.7153,-0.061,-0.061,0.305,-139.081,18.743,-15.716
9253,-0.3228,-0.6196,-0.7158,0.000,-0.061,0.427,-139.081,18.748,-15.716
9263,-0.3232,-0.6187,-0.7153,-0.061,-0.061,0.366,-139.087,18.748,-15.716
9273,-0.3223,-0.6211,-0.7129,-0.183,-0.061,0.183,-139.087,18.754,-15.716
9283,-0.3208,-0.6201,-0.7148,-0.366,-0.061,0.061,-139.087,18.754,-15.716
9293,-0.3232,-0.6167,-0.7144,-0.427,-0.061,0.122,-139.092,18.754,-15.716
9303,-0.3232,-0.6177,-0.7129,-0.305,-0.122,0.122,-139.098,18.759,-15.716
9313,-0.3218,-0.6196,-0.7144,-0.122,-0.305,-0.061,-139.098,18.759,-15.716
9323,-0.3208,-0.6216,-0.7109,-0.061,-0.366,-0.122,-139.092,18.765,-15.716
9333,-0.3203,-0.6206,-0.7119,-0.244,-0.305,-0.061,-139.092,18.765,-15.716
9343,-0.3203,-0.6177,-0.7100,-0.427,-0.061,0.183,-139.098,18.770,-15.716
9353,-0.3208,-0.6147,-0.7119,-0.305,0.122,0.244,-139.103,18.770,-15.716
9363,-0.3232,-0.6143,-0.7129,0.000,0.305,0.061,-139.103,18.770,-15.716
9373,-0.3223,-0.6143,-0.7119,0.244,0.366,-0.183,-139.103,18.765,-15.716
9383,-0.3228,-0.6157,-0.7085,0.061,0.244,-0.244,-139.103,18.765,-15.716
9393,-0.3203,-0.6187,-0.7080,-0.305,0.183,-0.305,-139.103,18.765,-15.716
9403,-0.3179,-0.6206,-0.7114,-0.793,0.305,-0.427,-139.109,18.754,-15.716
9413,-0.3188,-0.6226,-0.7114,-1.099,0.427,-0.488,-139.114,18.748,-15.716
9423,-0.3179,-0.6221,-0.7148,-1.160,0.671,-0.427,-139.125,18.737,-15.716
9433,-0.3193,-0.6226,-0.7178,-0.854,0.854,-0.244,-139.136,18.726,-15.716
9443,-0.3203,-0.6226,-0.7192,-0.366,0.854,-0.122,-139.142,18.721,-15.716
9453,-0.3237,-0.6245,-0.7192,-0.061,0.671,0.000,-139.142,18.715,-15.716
9463,-0.3208,-0.6255,-0.7187,-0.061,0.488,0.061,-139.142,18.710,-15.716
9473,-0.3213,-0.6235,-0.7207,-0.244,0.244,0.244,-139.142,18.710,-15.716
9483,-0.3237,-0.6206,-0.7178,-0.427,0.122,0.305,-139.147,18.715,-15.716
9493,-0.3242,-0.6187,-0.7187,-0.427,0.061,0.366,-139.158,18.715,-15.716
9503,-0.3237,-0.6182,-0.7178,-0.244,0.061,0.366,-139.158,18.721,-15.716
9513,-0.3242,-0.6167,-0.7178,-0.305,-0.122,0.366,-139.164,18.726,-15.716
9523,-0.3213,-0.6191,-0.7183,-0.305,-0.183,0.122,-139.169,18.726,-15.716
9533,-0.3218,-0.6201,-0.7173,-0.244,-0.305,0.122,-139.169,18.732,-15.716
9543,-0.3213,-0.6191,-0.7207,-0.244,-0.427,0.305,-139.175,18.737,-15.716
9553,-0.3218,-0.6196,-0.7192,-0.183,-0.488,0.366,-139.175,18.743,-15.716
9563,-0.3213,-0.6216,-0.7183,-0.061,-0.427,0.488,-139.180,18.748,-15.716
9573,-0.3223,-0.6206,-0.7168,0.122,-0.305,0.366,-139.175,18.754,-15.716
9583,-0.3208,-0.6187,-0.7139,0.122,-0.244,0.427,-139.175,18.759,-15.716
9593,-0.3213,-0.6172,-0.7153,0.061,-0.305,0.488,-139.175,18.765,-15.716
9603,-0.3228,-0.6143,-0.7139,0.000,-0.488,0.366,-139.175,18.770,-15.716
9613,-0.3218,-0.6143,-0.7124,-0.061,-0.488,0.305,-139.175,18.776,-15.716
9623,-0.3193,-0.6157,-0.7129,-0.183,-0.488,0.183,-139.180,18.781,-15.716
9633,-0.3203,-0.6152,-0.7124,-0.244,-0.610,0.183,-139.180,18.787,-15.716
9643,-0.3218,-0.6147,-0.7104,-0.183,-0.732,0.122,-139.180,18.792,-15.716
9653,-0.3193,-0.6162,-0.7085,-0.061,-0.671,-0.122,-139.175,18.798,-15.716
9663,-0.3188,-0.6177,-0.7095,-0.122,-0.366,-0.183,-139.175,18.798,-15.716
9673,-0.3169,-0.6177,-0.7090,-0.305,-0.183,-0.061,-139.175,18.798,-15.716
9683,-0.3188,-0.6177,-0.7100,-0.488,0.000,0.061,-139.175,18.798,-15.716
9693,-0.3188,-0.6152,-0.7104,-0.427,0.000,0.061,-139.180,18.798,-15.716
9703,-0.3184,-0.6147,-0.7104,-0.305,0.000,0.000,-139.186,18.798,-15.716
9713,-0.3184,-0.6152,-0.7095,-0.183,0.122,-0.122,-139.186,18.798,-15.716
9723,-0.3218,-0.6152,-0.7100,-0.061,0.244,-0.122,-139.186,18.792,-15.716
9733,-0.3213,-0.6167,-0.7104,-0.122,0.427,-0.244,-139.186,18.792,-15.716
9743,-0.3237,-0.6177,-0.7124,-0.305,0.549,-0.305,-139.186,18.787,-15.716
9753,-0.3223,-0.6172,-0.7139,-0.549,0.671,-0.366,-139.191,18.781,-15.716
9763,-0.3252,-0.6167,-0.7153,-0.793,0.671,-0.366,-139.202,18.776,-15.716
9773,-0.3237,-0.6157,-0.7202,-0.793,0.793,-0.305,-139.213,18.765,-15.716
9783,-0.3232,-0.6157,-0.7202,-0.610,0.793,-0.366,-139.224,18.759,-15.716
9793,-0.3247,-0.6152,-0.7207,-0.366,0.549,-0.427,-139.230,18.754,-15.716
9803,-0.3232,-0.6187,-0.7212,-0.244,0.305,-0.488,-139.230,18.748,-15.716
9813,-0.3228,-0.6216,-0.7173,-0.244,0.000,-0.488,-139.230,18.743,-15.716
9823,-0.3228,-0.6211,-0.7178,-0.366,-0.183,-0.427,-139.230,18.743,-15.716
9833,-0.3208,-0.6216,-0.7207,-0.366,-0.244,-0.366,-139.235,18.743,-15.716
9843,-0.3208,-0.6230,-0.7227,-0.305,-0.244,-0.366,-139.235,18.743,-15.716
9853,-0.3213,-0.6245,-0.7217,-0.244,-0.244,-0.305,-139.235,18.737,-15.716
9863,-0.3208,-0.6235,-0.7187,-0.061,-0.305,-0.183,-139.235,18.737,-15.716
9873,-0.3223,-0.6226,-0.7168,0.000,-0.549,-0.061,-139.230,18.743,-15.716
9883,-0.3208,-0.6211,-0.7183,0.183,-0.671,0.061,-139.224,18.748,-15.716
9893,-0.3213,-0.6201,-0.7148,0.305,-0.671,0.061,-139.219,18.754,-15.716
9903,-0.3198,-0.6182,-0.7124,0.366,-0.549,0.000,-139.213,18.759,-15.716
9913,-0.3188,-0.6167,-0.7119,0.244,-0.488,0.000,-139.208,18.759,-15.716
9923,-0.3208,-0.6138,-0.7119,0.122,-0.305,0.000,-139.208,18.765,-15.716
9933,-0.3232,-0.6128,-0.7095,0.061,-0.183,-0.061,-139.208,18.765,-15.716
9943,-0.3232,-0.6147,-0.7090,-0.122,-0.061,-0.183,-139.202,18.770,-15.716
9953,-0.3208,-0.6162,-0.7129,-0.122,-0.183,-0.366,-139.202,18.770,-15.716
9963,-0.3223,-0.6167,-0.7104,-0.061,-0.427,-0.488,-139.202,18.770,-15.716
9973,-0.3203,-0.6172,-0.7109,-0.061,-0.671,-0.549,-139.197,18.770,-15.716
9983,-0.3208,-0.6167,-0.7129,0.000,-0.854,-0.549,-139.191,18.776,-15.716
9993,-0.3218,-0.6143,-0.7104,0.244,-0.916,-0.549,-139.186,18.781,-15.716
10003,-0.3228,-0.6162,-0.7080,0.793,-0.854,-0.610,-139.175,18.781,-15.716
10013,-0.3252,-0.6182,-0.7036,1.221,-0.793,-0.793,-139.153,18.787,-15.716
10023,-0.3237,-0.6211,-0.7007,1.282,-0.610,-0.732,-139.131,18.792,-15.716
10033,-0.3242,-0.6260,-0.6987,0.854,-0.183,-0.671,-139.109,18.792,-15.716
10043,-0.3237,-0.6299,-0.6997,-0.061,0.427,-0.488,-139.098,18.787,-15.716
10053,-0.3203,-0.6279,-0.7070,-1.038,1.282,-0.244,-139.103,18.776,-15.716
10063,-0.3188,-0.6260,-0.7119,-1.770,2.014,0.000,-139.120,18.759,-15.716
10073,-0.3184,-0.6240,-0.7192,-1.831,2.380,0.183,-139.147,18.737,-15.716
10083,-0.3188,-0.6206,-0.7266,-1.404,2.258,0.366,-139.169,18.721,-15.716
10093,-0.3203,-0.6182,-0.7275,-0.732,1.953,0.549,-139.186,18.710,-15.716
10103,-0.3228,-0.6167,-0.7290,-0.122,1.404,0.549,-139.197,18.699,-15.716
10113,-0.3223,-0.6147,-0.7275,0.305,0.732,0.488,-139.202,18.699,-15.716
10123,-0.3237,-0.6138,-0.7275,0.549,0.244,0.366,-139.208,18.699,-15.716
10133,-0.3247,-0.6152,-0.7266,0.549,-0.122,0.122,-139.208,18.704,-15.716
10143,-0.3237,-0.6157,-0.7227,0.488,-0.549,-0.122,-139.202,18.710,-15.716
10153,-0.3228,-0.6182,-0.7217,0.427,-0.977,-0.244,-139.197,18.715,-15.716
10163,-0.3208,-0.6182,-0.7192,0.305,-1.221,-0.305,-139.191,18.721,-15.716
10173,-0.3203,-0.6191,-0.7192,0.183,-1.282,-0.305,-139.186,18.726,-15.716
10183,-0.3203,-0.6211,-0.7153,0.122,-1.038,-0.244,-139.180,18.732,-15.716
10193,-0.3193,-0.6211,-0.7148,0.061,-0.671,-0.183,-139.180,18.737,-15.716
10203,-0.3203,-0.6206,-0.7168,0.000,-0.305,-0.122,-139.175,18.737,-15.716
10213,-0.3208,-0.6201,-0.7139,-0.122,0.122,-0.061,-139.175,18.737,-15.716
10223,-0.3193,-0.6187,-0.7134,-0.305,0.427,0.000,-139.180,18.732,-15.716
10233,-0.3208,-0.6162,-0.7153,-0.427,0.549,0.000,-139.186,18.726,-15.716
10243,-0.3203,-0.6152,-0.7158,-0.427,0.488,-0.061,-139.191,18.726,-15.716
10253,-0.3203,-0.6167,-0.7158,-0.427,0.183,-0.183,-139.197,18.721,-15.716
10263,-0.3203,-0.6152,-0.7153,-0.305,-0.061,-0.305,-139.202,18.721,-15.716
10273,-0.3208,-0.6157,-0.7129,-0.183,-0.244,-0.427,-139.202,18.721,-15.716
10283,-0.3188,-0.6177,-0.7129,-0.061,-0.366,-0.427,-139.197,18.721,-15.716
10293,-0.3213,-0.6196,-0.7119,0.122,-0.427,-0.427,-139.191,18.721,-15.716
10303,-0.3213,-0.6182,-0.7090,0.000,-0.305,-0.488,-139.186,18.721,-15.716
10313,-0.3213,-0.6201,-0.7104,-0.244,-0.061,-0.488,-139.186,18.721,-15.716
10323,-0.3198,-0.6216,-0.7134,-0.488,0.122,-0.305,-139.186,18.715,-15.716
10333,-0.3184,-0.6191,-0.7119,-0.488,0.183,-0.244,-139.191,18.715,-15.716
10343,-0.3188,-0.6187,-0.7129,-0.305,0.061,-0.244,-139.191,18.710,-15.716
10353,-0.3184,-0.6191,-0.7144,-0.061,0.000,-0.244,-139.191,18.710,-15.716
10363,-0.3208,-0.6187,-0.7148,0.061,0.061,-0.305,-139.186,18.704,-15.716
10373,-0.3242,-0.6196,-0.7134,0.183,0.122,-0.366,-139.186,18.704,-15.716
10383,-0.3223,-0.6206,-0.7129,0.183,0.366,-0.427,-139.180,18.699,-15.716
10393,-0.3232,-0.6211,-0.7129,-0.183,0.610,-0.366,-139.180,18.693,-15.716
10403,-0.3232,-0.6206,-0.7163,-0.610,0.793,-0.305,-139.186,18.688,-15.716
10413,-0.3242,-0.6226,-0.7163,-0.793,0.854,-0.305,-139.191,18.682,-15.716
10423,-0.3218,-0.6206,-0.7222,-0.671,0.793,-0.366,-139.202,18.677,-15.716
10434,-0.3203,-0.6216,-0.7227,-0.488,0.549,-0.305,-139.208,18.666,-15.716
10443,-0.3208,-0.6216,-0.7217,-0.183,0.183,-0.244,-139.208,18.666,-15.716
10453,-0.3218,-0.6216,-0.7207,0.183,-0.061,-0.183,-139.208,18.660,-15.716
10463,-0.3208,-0.6240,-0.7202,0.366,-0.183,-0.183,-139.202,18.660,-15.716
10473,-0.3198,-0.6230,-0.7202,0.366,-0.366,-0.183,-139.197,18.666,-15.716
10483,-0.3213,-0.6216,-0.7183,0.183,-0.366,-0.122,-139.191,18.666,-15.716
10493,-0.3174,-0.6235,-0.7178,0.000,-0.366,0.000,-139.191,18.666,-15.716
10503,-0.3164,-0.6230,-0.7197,-0.183,-0.427,0.122,-139.191,18.666,-15.716
10513,-0.3184,-0.6201,-0.7207,-0.122,-0.549,0.305,-139.191,18.671,-15.716
10523,-0.3223,-0.6177,-0.7153,0.183,-0.610,0.366,-139.191,18.682,-15.716
10533,-0.3218,-0.6182,-0.7153,0.549,-0.549,0.305,-139.186,18.688,-15.716
10543,-0.3208,-0.6157,-0.7148,0.671,-0.427,0.244,-139.175,18.693,-15.716
10553,-0.3208,-0.6123,-0.7134,0.549,-0.305,0.244,-139.175,18.699,-15.716
10563,-0.3218,-0.6138,-0.7134,0.244,-0.305,0.183,-139.169,18.704,-15.716
10573,-0.3198,-0.6147,-0.7139,-0.061,-0.366,0.000,-139.175,18.710,-15.716
10583,-0.3184,-0.6138,-0.7124,-0.366,-0.488,-0.183,-139.175,18.710,-15.716
10593,-0.3184,-0.6143,-0.7144,-0.610,-0.366,-0.305,-139.180,18.710,-15.716
10603,-0.3193,-0.6201,-0.7124,-0.671,-0.122,-0.305,-139.186,18.710,-15.716
10613,-0.3169,-0.6187,-0.7114,-0.610,0.061,-0.305,-139.186,18.704,-15.716
10623,-0.3174,-0.6177,-0.7144,-0.549,0.183,-0.244,-139.191,18.699,-15.716
10633,-0.3203,-0.6143,-0.7144,-0.244,0.244,-0.122,-139.197,18.699,-15.716
10643,-0.3223,-0.6167,-0.7109,0.183,0.244,-0.122,-139.191,18.699,-15.716
10653,-0.3228,-0.6152,-0.7100,0.488,0.183,-0.244,-139.186,18.699,-15.716
10663,-0.3232,-0.6152,-0.7090,0.427,0.122,-0.366,-139.180,18.699,-15.716
10673,-0.3228,-0.6177,-0.7129,0.122,0.183,-0.488,-139.180,18.693,-15.716
10683,-0.3223,-0.6187,-0.7114,-0.488,0.244,-0.610,-139.180,18.693,-15.716
10693,-0.3223,-0.6172,-0.7153,-0.916,0.366,-0.732,-139.186,18.688,-15.716
10703,-0.3198,-0.6187,-0.7178,-1.038,0.488,-0.671,-139.197,18.677,-15.716
10713,-0.3184,-0.6201,-0.7178,-0.793,0.549,-0.671,-139.208,18.666,-15.716
10723,-0.3208,-0.6216,-0.7192,-0.427,0.488,-0.610,-139.208,18.660,-15.716
10733,-0.3213,-0.6245,-0.7222,-0.122,0.427,-0.549,-139.208,18.655,-15.716
10743,-0.3218,-0.6245,-0.7207,-0.122,0.244,-0.427,-139.208,18.649,-15.716
10753,-0.3213,-0.6265,-0.7202,-0.244,0.061,-0.183,-139.208,18.644,-15.716
10763,-0.3208,-0.6235,-0.7197,-0.366,-0.061,0.000,-139.213,18.644,-15.716
10773,-0.3208,-0.6226,-0.7227,-0.366,-0.061,0.061,-139.213,18.644,-15.716
10783,-0.3198,-0.6191,-0.7212,-0.244,-0.061,0.122,-139.219,18.649,-15.716
10793,-0.3208,-0.6187,-0.7222,-0.061,-0.183,0.122,-139.219,18.649,-15.716
10803,-0.3208,-0.6182,-0.7212,0.061,-0.305,0.000,-139.224,18.649,-15.716
10813,-0.3208,-0.6182,-0.7212,0.183,-0.549,-0.122,-139.219,18.655,-15.716
10823,-0.3193,-0.6191,-0.7192,0.305,-0.732,-0.183,-139.213,18.660,-15.716
10833,-0.3208,-0.6191,-0.7183,0.244,-0.854,-0.244,-139.213,18.666,-15.716
10843,-0.3213,-0.6196,-0.7153,0.244,-0.793,-0.244,-139.202,18.671,-15.716
10853,-0.3208,-0.6191,-0.7129,0.244,-0.732,-0.183,-139.197,18.677,-15.716
10863,-0.3213,-0.6196,-0.7129,0.183,-0.427,-0.122,-139.191,18.677,-15.716
10873,-0.3223,-0.6201,-0.7114,0.000,-0.122,-0.061,-139.191,18.682,-15.716
10883,-0.3218,-0.6187,-0.7090,-0.183,0.061,-0.061,-139.191,18.682,-15.716
10893,-0.3213,-0.6172,-0.7124,-0.366,0.000,-0.122,-139.191,18.682,-15.716
10903,-0.3213,-0.6182,-0.7134,-0.427,-0.122,-0.183,-139.197,18.682,-15.716
10913,-0.3198,-0.6187,-0.7134,-0.427,-0.183,-0.244,-139.197,18.682,-15.716
10923,-0.3188,-0.6177,-0.7134,-0.366,-0.305,-0.305,-139.197,18.682,-15.716
10934,-0.3164,-0.6191,-0.7119,-0.183,-0.305,-0.305,-139.197,18.682,-15.716
10943,-0.3159,-0.6211,-0.7109,0.061,-0.305,-0.244,-139.191,18.682,-15.716
10953,-0.3174,-0.6206,-0.7104,0.183,-0.122,-0.183,-139.186,18.682,-15.716
10963,-0.3169,-0.6211,-0.7100,0.122,0.183,-0.122,-139.180,18.677,-15.716
10973,-0.3193,-0.6196,-0.7080,0.000,0.488,0.061,-139.175,18.677,-15.716
10983,-0.3188,-0.6172,-0.7119,-0.122,0.793,0.122,-139.180,18.671,-15.716
10993,-0.3203,-0.6157,-0.7129,-0.305,0.977,0.061,-139.186,18.666,-15.716
11003,-0.3218,-0.6162,-0.7153,-0.427,1.099,-0.061,-139.191,18.655,-15.716
11013,-0.3208,-0.6143,-0.7148,-0.427,1.099,-0.183,-139.197,18.649,-15.716
11023,-0.3198,-0.6147,-0.7168,-0.549,0.977,-0.305,-139.208,18.638,-15.716
11033,-0.3184,-0.6162,-0.7173,-0.610,0.793,-0.366,-139.219,18.633,-15.716
11043,-0.3193,-0.6187,-0.7197,-0.549,0.488,-0.488,-139.224,18.622,-15.716
11053,-0.3208,-0.6206,-0.7231,-0.427,0.427,-0.488,-139.230,18.616,-15.716
11063,-0.3218,-0.6201,-0.7217,-0.183,0.305,-0.427,-139.230,18.611,-15.716
11073,-0.3198,-0.6226,-0.7192,0.000,0.244,-0.427,-139.230,18.611,-15.716
11083,-0.3208,-0.6230,-0.7227,0.305,0.183,-0.366,-139.224,18.605,-15.716
11093,-0.3213,-0.6226,-0.7207,0.366,0.061,-0.366,-139.219,18.600,-15.716
11103,-0.3198,-0.6206,-0.7222,0.183,-0.183,-0.305,-139.219,18.600,-15.716
11113,-0.3213,-0.6206,-0.7192,0.000,-0.427,-0.244,-139.219,18.605,-15.716
11123,-0.3203,-0.6211,-0.7187,-0.122,-0.610,-0.244,-139.213,18.605,-15.716
11133,-0.3203,-0.6216,-0.7212,-0.244,-0.732,-0.183,-139.213,18.611,-15.716
11143,-0.3203,-0.6245,-0.7197,-0.122,-0.671,-0.122,-139.213,18.616,-15.716
11153,-0.3198,-0.6221,-0.7197,0.061,-0.549,0.000,-139.213,18.616,-15.716
11163,-0.3198,-0.6245,-0.7197,0.305,-0.427,0.122,-139.208,18.622,-15.716
11173,-0.3203,-0.6245,-0.7183,0.366,-0.427,0.183,-139.202,18.627,-15.716
11183,-0.3179,-0.6235,-0.7139,0.366,-0.366,0.305,-139.191,18.633,-15.716
11193,-0.3188,-0.6221,-0.7153,0.122,-0.305,0.366,-139.191,18.633,-15.716
11203,-0.3208,-0.6172,-0.7158,-0.122,-0.366,0.427,-139.191,18.638,-15.716
11213,-0.3218,-0.6157,-0.7173,-0.183,-0.427,0.488,-139.197,18.649,-15.716
11223,-0.3232,-0.6157,-0.7139,0.000,-0.549,0.366,-139.197,18.660,-15.716
11233,-0.3213,-0.6162,-0.7124,0.244,-0.488,0.183,-139.191,18.666,-15.716
11243,-0.3203,-0.6157,-0.7119,0.244,-0.366,0.122,-139.186,18.671,-15.716
11253,-0.3174,-0.6187,-0.7129,0.000,-0.244,0.061,-139.186,18.671,-15.716
11263,-0.3179,-0.6187,-0.7119,-0.366,-0.244,-0.061,-139.186,18.671,-15.716
11273,-0.3164,-0.6157,-0.7134,-0.610,-0.366,-0.061,-139.191,18.671,-15.716
11283,-0.3174,-0.6152,-0.7144,-0.366,-0.427,0.000,-139.197,18.677,-15.716
11293,-0.3193,-0.6162,-0.7109,0.183,-0.427,-0.122,-139.191,18.677,-15.716
11303,-0.3208,-0.6162,-0.7080,0.732,-0.427,-0.244,-139.180,18.682,-15.716
11313,-0.3208,-0.6187,-0.7036,0.854,-0.122,-0.305,-139.164,18.682,-15.716
11323,-0.3208,-0.6206,-0.7041,0.549,0.244,-0.366,-139.153,18.682,-15.716
11333,-0.3198,-0.6221,-0.7080,-0.122,0.549,-0.305,-139.153,18.677,-15.716
11343,-0.3203,-0.6226,-0.7124,-0.671,0.732,-0.183,-139.158,18.671,-15.716
11353,-0.3218,-0.6206,-0.7139,-0.916,0.793,0.000,-139.164,18.666,-15.716
11363,-0.3218,-0.6216,-0.7153,-0.732,0.854,0.061,-139.175,18.660,-15.716
11373,-0.3203,-0.6196,-0.7183,-0.305,0.793,0.061,-139.180,18.655,-15.716
11383,-0.3213,-0.6211,-0.7163,0.061,0.732,0.061,-139.180,18.649,-15.716
11393,-0.3208,-0.6226,-0.7173,0.183,0.610,0.122,-139.175,18.644,-15.716
11403,-0.3188,-0.6211,-0.7178,0.122,0.427,0.244,-139.175,18.644,-15.716
11413,-0.3193,-0.6196,-0.7173,-0.061,0.183,0.305,-139.180,18.644,-15.716
11423,-0.3188,-0.6191,-0.7197,-0.183,0.061,0.366,-139.180,18.644,-15.716
11434,-0.3203,-0.6196,-0.7187,-0.122,0.000,0.366,-139.186,18.649,-15.716
11443,-0.3184,-0.6191,-0.7183,0.000,0.000,0.305,-139.186,18.649,-15.716
11453,-0.3188,-0.6172,-0.7168,0.183,-0.122,0.244,-139.186,18.649,-15.716
11463,-0.3193,-0.6152,-0.7197,0.305,-0.244,0.244,-139.186,18.655,-15.716
11473,-0.3188,-0.6152,-0.7183,0.183,-0.244,0.244,-139.186,18.655,-15.716
11483,-0.3198,-0.6152,-0.7173,0.183,-0.183,0.183,-139.186,18.660,-15.716
11493,-0.3213,-0.6167,-0.7163,0.183,-0.061,0.122,-139.186,18.660,-15.716
11503,-0.3213,-0.6167,-0.7178,0.061,0.061,0.000,-139.186,18.666,-15.716
11513,-0.3208,-0.6152,-0.7158,-0.183,0.061,0.000,-139.191,18.666,-15.716
11523,-0.3223,-0.6143,-0.7173,-0.244,0.000,0.000,-139.197,18.666,-15.716
11533,-0.3213,-0.6143,-0.7178,-0.244,-0.183,-0.122,-139.197,18.666,-15.716
11543,-0.3198,-0.6157,-0.7183,-0.183,-0.305,-0.244,-139.202,18.666,-15.716
11553,-0.3188,-0.6177,-0.7153,-0.061,-0.366,-0.366,-139.202,18.666,-15.716
11563,-0.3198,-0.6182,-0.7134,0.000,-0.488,-0.427,-139.197,18.671,-15.716
11573,-0.3193,-0.6206,-0.7114,-0.122,-0.549,-0.427,-139.191,18.671,-15.716
11583,-0.3203,-0.6216,-0.7095,-0.183,-0.488,-0.366,-139.191,18.671,-15.716
11593,-0.3184,-0.6221,-0.7095,-0.244,-0.305,-0.305,-139.186,18.671,-15.716
11603,-0.3184,-0.6206,-0.7085,-0.366,-0.122,-0.183,-139.186,18.671,-15.716
11613,-0.3174,-0.6201,-0.7095,-0.305,0.183,-0.061,-139.186,18.671,-15.716
11623,-0.3208,-0.6191,-0.7114,-0.244,0.488,0.000,-139.186,18.666,-15.716
11633,-0.3188,-0.6182,-0.7119,-0.183,0.549,-0.061,-139.186,18.666,-15.716
11643,-0.3193,-0.6191,-0.7148,-0.122,0.549,-0.122,-139.186,18.660,-15.716
11653,-0.3198,-0.6187,-0.7144,-0.305,0.488,-0.183,-139.191,18.655,-15.716
11663,-0.3208,-0.6182,-0.7148,-0.427,0.488,-0.183,-139.197,18.649,-15.716
11673,-0.3223,-0.6201,-0.7153,-0.549,0.488,-0.244,-139.202,18.649,-15.716
11683,-0.3213,-0.6187,-0.7187,-0.488,0.427,-0.183,-139.208,18.644,-15.716
11693,-0.3218,-0.6201,-0.7173,-0.366,0.427,-0.122,-139.208,18.638,-15.716
11703,-0.3218,-0.6211,-0.7187,-0.061,0.366,-0.061,-139.208,18.638,-15.716
11713,-0.3213,-0.6206,-0.7197,0.183,0.244,0.000,-139.208,18.638,-15.716
11723,-0.3228,-0.6216,-0.7192,0.305,0.183,-0.061,-139.208,18.638,-15.716
11733,-0.3218,-0.6206,-0.7183,0.183,0.061,-0.061,-139.202,18.638,-15.716
11743,-0.3213,-0.6196,-0.7163,0.061,-0.122,0.000,-139.202,18.638,-15.716
11753,-0.3223,-0.6182,-0.7158,-0.061,-0.244,-0.061,-139.202,18.644,-15.716
11763,-0.3208,-0.6187,-0.7144,-0.061,-0.244,-0.122,-139.202,18.644,-15.716
11773,-0.3188,-0.6201,-0.7134,-0.061,-0.244,-0.122,-139.197,18.644,-15.716
11783,-0.3193,-0.6235,-0.7158,-0.061,-0.244,-0.122,-139.197,18.644,-15.716
11793,-0.3184,-0.6221,-0.7158,-0.183,-0.122,-0.061,-139.197,18.644,-15.716
11803,-0.3174,-0.6216,-0.7168,-0.305,0.061,0.122,-139.197,18.644,-15.716
11813,-0.3188,-0.6201,-0.7158,-0.244,0.305,0.244,-139.202,18.644,-15.716
11823,-0.3188,-0.6196,-0.7158,-0.122,0.427,0.305,-139.202,18.644,-15.716
11833,-0.3184,-0.6172,-0.7158,-0.061,0.549,0.427,-139.208,18.638,-15.716
11843,-0.3179,-0.6157,-0.7178,-0.122,0.488,0.427,-139.208,18.638,-15.716
11853,-0.3208,-0.6123,-0.7183,-0.305,0.305,0.427,-139.219,18.638,-15.716
11863,-0.3208,-0.6108,-0.7178,-0.366,0.122,0.244,-139.224,18.644,-15.716
11873,-0.3188,-0.6123,-0.7192,-0.244,-0.061,0.061,-139.235,18.644,-15.716
11883,-0.3203,-0.6138,-0.7173,-0.061,-0.183,-0.183,-139.235,18.644,-15.716
11893,-0.3193,-0.6157,-0.7178,0.122,-0.366,-0.305,-139.235,18.644,-15.716
11903,-0.3193,-0.6172,-0.7163,0.061,-0.427,-0.427,-139.230,18.644,-15.716
11913,-0.3188,-0.6191,-0.7178,-0.183,-0.488,-0.366,-139.230,18.644,-15.716
11923,-0.3179,-0.6187,-0.7168,-0.427,-0.488,-0.305,-139.235,18.649,-15.716
11934,-0.3188,-0.6172,-0.7197,-0.488,-0.366,-0.183,-139.235,18.649,-15.716
11943,-0.3218,-0.6152,-0.7173,-0.061,-0.244,-0.122,-139.241,18.649,-15.716
11953,-0.3228,-0.6152,-0.7163,0.488,-0.183,-0.244,-139.235,18.655,-15.716
11963,-0.3218,-0.6167,-0.7109,0.610,-0.244,-0.366,-139.224,18.655,-15.716
11973,-0.3223,-0.6221,-0.7114,0.427,-0.122,-0.488,-139.213,18.655,-15.716
11983,-0.3203,-0.6235,-0.7114,-0.122,0.122,-0.549,-139.213,18.649,-15.716
11993,-0.3213,-0.6211,-0.7144,-0.793,0.305,-0.427,-139.213,18.644,-15.716
12003,-0.3198,-0.6206,-0.7148,-1.099,0.427,-0.305,-139.224,18.644,-15.716
12013,-0.3213,-0.6201,-0.7202,-0.854,0.427,-0.183,-139.235,18.638,-15.716
12023,-0.3213,-0.6211,-0.7192,-0.366,0.366,-0.183,-139.235,18.633,-15.716
12033,-0.3184,-0.6201,-0.7197,0.000,0.244,-0.183,-139.241,18.627,-15.716
12043,-0.3184,-0.6191,-0.7222,0.244,0.061,-0.122,-139.235,18.627,-15.716
12053,-0.3193,-0.6182,-0.7197,0.366,-0.244,0.000,-139.235,18.627,-15.716
12063,-0.3208,-0.6177,-0.7168,0.305,-0.488,0.000,-139.230,18.633,-15.716
12073,-0.3193,-0.6177,-0.7187,0.244,-0.671,0.000,-139.224,18.638,-15.716
12083,-0.3213,-0.6177,-0.7192,0.183,-0.671,-0.061,-139.224,18.644,-15.716
12093,-0.3193,-0.6196,-0.7163,0.183,-0.610,-0.061,-139.219,18.649,-15.716
12103,-0.3193,-0.6187,-0.7148,0.183,-0.549,-0.183,-139.213,18.649,-15.716
12113,-0.3174,-0.6191,-0.7139,0.244,-0.549,-0.183,-139.208,18.655,-15.716
12123,-0.3174,-0.6201,-0.7134,0.244,-0.427,-0.061,-139.202,18.655,-15.716
12133,-0.3193,-0.6201,-0.7144,0.244,-0.305,0.061,-139.202,18.660,-15.716
12144,-0.3193,-0.6177,-0.7119,0.244,-0.061,0.061,-139.197,18.660,-15.716
12154,-0.3228,-0.6167,-0.7144,0.183,0.061,0.061,-139.197,18.660,-15.716
12164,-0.3232,-0.6162,-0.7109,0.061,0.183,-0.061,-139.191,18.660,-15.716
12174,-0.3228,-0.6162,-0.7124,-0.122,0.305,-0.122,-139.197,18.660,-15.716
12184,-0.3223,-0.6143,-0.7158,-0.305,0.366,-0.183,-139.197,18.660,-15.716
12194,-0.3203,-0.6138,-0.7163,-0.366,0.183,-0.244,-139.202,18.660,-15.716
12204,-0.3198,-0.6147,-0.7178,-0.183,-0.122,-0.244,-139.208,18.660,-15.716
12214,-0.3169,-0.6172,-0.7163,0.061,-0.366,-0.305,-139.208,18.655,-15.716
12224,-0.3184,-0.6196,-0.7109,0.122,-0.488,-0.427,-139.202,18.660,-15.716
12234,-0.3203,-0.6206,-0.7119,0.061,-0.549,-0.366,-139.197,18.660,-15.716
12244,-0.3179,-0.6230,-0.7109,0.000,-0.488,-0.244,-139.186,18.660,-15.716
12254,-0.3169,-0.6230,-0.7109,-0.061,-0.244,-0.122,-139.186,18.660,-15.716
12264,-0.3174,-0.6226,-0.7124,-0.061,0.122,0.000,-139.180,18.660,-15.716
12274,-0.3184,-0.6221,-0.7124,0.000,0.427,0.122,-139.180,18.655,-15.716
12284,-0.3169,-0.6206,-0.7119,0.183,0.610,0.183,-139.175,18.655,-15.716
12294,-0.3184,-0.6211,-0.7129,0.183,0.732,0.244,-139.175,18.649,-15.716
12304,-0.3198,-0.6201,-0.7148,0.061,0.610,0.183,-139.175,18.644,-15.716
12314,-0.3208,-0.6177,-0.7144,-0.122,0.549,0.061,-139.175,18.644,-15.716
12324,-0.3237,-0.6157,-0.7134,-0.244,0.732,0.000,-139.180,18.638,-15.716
12334,-0.3218,-0.6162,-0.7168,-0.366,0.977,-0.122,-139.186,18.633,-15.716
12344,-0.3218,-0.6182,-0.7197,-0.488,1.221,-0.122,-139.197,18.627,-15.716
12354,-0.3198,-0.6191,-0.7256,-0.427,1.221,-0.122,-139.208,18.616,-15.716
12364,-0.3203,-0.6167,-0.7256,-0.305,0.977,-0.061,-139.213,18.605,-15.716
12374,-0.3193,-0.6147,-0.7246,-0.122,0.610,0.000,-139.224,18.600,-15.716
12384,-0.3193,-0.6152,-0.7236,0.183,0.183,-0.061,-139.224,18.600,-15.716
12394,-0.3188,-0.6182,-0.7236,0.305,-0.061,-0.122,-139.224,18.600,-15.716
12404,-0.3198,-0.6201,-0.7236,0.244,-0.244,-0.183,-139.224,18.600,-15.716
12414,-0.3193,-0.6196,-0.7187,0.183,-0.305,-0.122,-139.219,18.600,-15.716
12424,-0.3208,-0.6196,-0.7187,0.244,-0.427,-0.122,-139.219,18.605,-15.716
12435,-0.3188,-0.6230,-0.7153,0.305,-0.427,-0.122,-139.208,18.605,-15.716
12444,-0.3159,-0.6240,-0.7178,0.244,-0.488,0.000,-139.202,18.605,-15.716
12454,-0.3164,-0.6211,-0.7158,0.122,-0.427,0.122,-139.202,18.611,-15.716
12464,-0.3193,-0.6196,-0.7183,0.183,-0.427,0.183,-139.197,18.616,-15.716
12474,-0.3184,-0.6196,-0.7163,0.183,-0.427,0.122,-139.197,18.616,-15.716
12484,-0.3184,-0.6191,-0.7173,0.183,-0.305,0.061,-139.191,18.622,-15.716
12494,-0.3188,-0.6182,-0.7129,0.183,-0.244,0.122,-139.191,18.622,-15.716
12504,-0.3193,-0.6182,-0.7144,0.183,-0.122,0.183,-139.186,18.627,-15.716
12514,-0.3198,-0.6172,-0.7124,0.000,0.061,0.183,-139.186,18.627,-15.716
12524,-0.3188,-0.6167,-0.7163,-0.122,0.183,0.183,-139.191,18.627,-15.716
12534,-0.3203,-0.6147,-0.7148,-0.122,0.183,0.122,-139.191,18.627,-15.716
12544,-0.3218,-0.6133,-0.7163,-0.122,0.244,0.061,-139.197,18.627,-15.716
12554,-0.3232,-0.6152,-0.7124,-0.122,0.305,-0.122,-139.197,18.627,-15.716
12564,-0.3228,-0.6157,-0.7153,-0.183,0.366,-0.305,-139.202,18.627,-15.716
12574,-0.3218,-0.6172,-0.7173,-0.366,0.305,-0.305,-139.208,18.622,-15.716
12584,-0.3213,-0.6191,-0.7168,-0.488,0.061,-0.244,-139.208,18.622,-15.716
12594,-0.3203,-0.6211,-0.7187,-0.549,-0.061,-0.244,-139.213,18.622,-15.716
12604,-0.3184,-0.6196,-0.7178,-0.366,-0.122,-0.183,-139.219,18.622,-15.716
12614,-0.3188,-0.6191,-0.7173,0.061,-0.183,-0.061,-139.213,18.622,-15.716
12624,-0.3218,-0.6201,-0.7144,0.549,-0.244,-0.061,-139.208,18.627,-15.716
12634,-0.3208,-0.6196,-0.7124,0.793,-0.366,-0.122,-139.197,18.627,-15.716
12644,-0.3193,-0.6230,-0.7100,0.732,-0.244,-0.183,-139.186,18.627,-15.716
12654,-0.3228,-0.6235,-0.7095,0.305,0.061,-0.122,-139.175,18.633,-15.716
12664,-0.3223,-0.6240,-0.7095,-0.366,0.366,0.000,-139.175,18.633,-15.716
12674,-0.3208,-0.6240,-0.7158,-0.916,0.671,0.122,-139.186,18.627,-15.716
12684,-0.3213,-0.6221,-0.7207,-1.099,0.854,0.183,-139.197,18.622,-15.716
12694,-0.3188,-0.6221,-0.7236,-0.854,0.854,0.305,-139.208,18.616,-15.716
12704,-0.3198,-0.6221,-0.7227,-0.427,0.732,0.488,-139.219,18.611,-15.716
12714,-0.3213,-0.6206,-0.7231,0.122,0.549,0.549,-139.219,18.611,-15.716
12724,-0.3188,-0.6206,-0.7236,0.366,0.244,0.610,-139.219,18.611,-15.716
12734,-0.3179,-0.6187,-0.7222,0.305,-0.122,0.671,-139.219,18.616,-15.716
12744,-0.3193,-0.6191,-0.7197,0.366,-0.366,0.671,-139.219,18.622,-15.716
12754,-0.3188,-0.6157,-0.7192,0.427,-0.671,0.671,-139.213,18.633,-15.716
12764,-0.3193,-0.6167,-0.7192,0.549,-0.854,0.671,-139.213,18.644,-15.716
12774,-0.3188,-0.6177,-0.7187,0.488,-0.854,0.488,-139.208,18.655,-15.716
12784,-0.3193,-0.6191,-0.7119,0.427,-0.732,0.427,-139.202,18.660,-15.716
12794,-0.3169,-0.6196,-0.7144,0.183,-0.549,0.427,-139.197,18.666,-15.716
12804,-0.3203,-0.6187,-0.7134,0.061,-0.183,0.549,-139.197,18.671,-15.716
12814,-0.3188,-0.6152,-0.7134,0.000,0.183,0.610,-139.197,18.677,-15.716
12824,-0.3188,-0.6138,-0.7119,-0.061,0.549,0.610,-139.202,18.677,-15.716
12834,-0.3228,-0.6123,-0.7158,-0.122,0.732,0.549,-139.208,18.677,-15.716
12844,-0.3213,-0.6133,-0.7183,-0.305,0.732,0.488,-139.219,18.677,-15.716
12854,-0.3218,-0.6133,-0.7178,-0.427,0.610,0.305,-139.224,18.677,-15.716
12864,-0.3213,-0.6152,-0.7212,-0.488,0.488,0.122,-139.235,18.671,-15.716
12874,-0.3208,-0.6177,-0.7197,-0.427,0.244,0.000,-139.241,18.671,-15.716
12884,-0.3184,-0.6177,-0.7187,-0.244,-0.061,0.000,-139.246,18.671,-15.716
12894,-0.3198,-0.6191,-0.7173,-0.061,-0.244,-0.061,-139.246,18.671,-15.716
12904,-0.3174,-0.6211,-0.7153,0.000,-0.427,-0.061,-139.241,18.671,-15.716
12914,-0.3179,-0.6226,-0.7139,0.122,-0.488,0.000,-139.235,18.677,-15.716
12924,-0.3169,-0.6221,-0.7139,0.183,-0.366,0.122,-139.230,18.677,-15.716
12934,-0.3179,-0.6226,-0.7129,0.244,0.000,0.305,-139.224,18.677,-15.716
12944,-0.3179,-0.6216,-0.7134,0.305,0.244,0.427,-139.219,18.677,-15.716
12954,-0.3188,-0.6187,-0.7124,0.366,0.488,0.366,-139.219,18.677,-15.716
12964,-0.3198,-0.6196,-0.7134,0.061,0.610,0.366,-139.219,18.677,-15.716
12974,-0.3208,-0.6191,-0.7134,-0.305,0.671,0.427,-139.219,18.671,-15.716
12984,-0.3188,-0.6167,-0.7178,-0.610,0.732,0.427,-139.230,18.671,-15.716
12994,-0.3208,-0.6162,-0.7202,-0.671,0.793,0.427,-139.241,18.666,-15.716
13004,-0.3203,-0.6143,-0.7192,-0.488,0.793,0.427,-139.252,18.666,-15.716
13014,-0.3223,-0.6157,-0.7207,-0.244,0.793,0.366,-139.257,18.660,-15.716
13024,-0.3198,-0.6182,-0.7241,0.000,0.732,0.305,-139.263,18.655,-15.716
13034,-0.3203,-0.6182,-0.7246,0.122,0.549,0.305,-139.268,18.655,-15.716
13044,-0.3203,-0.6206,-0.7256,0.122,0.183,0.366,-139.268,18.655,-15.716
13054,-0.3198,-0.6211,-0.7231,0.183,-0.122,0.366,-139.268,18.655,-15.716
13064,-0.3203,-0.6187,-0.7202,0.183,-0.366,0.366,-139.268,18.660,-15.716
13074,-0.3198,-0.6187,-0.7212,0.183,-0.427,0.366,-139.268,18.666,-15.716
13084,-0.3203,-0.6177,-0.7197,0.183,-0.427,0.366,-139.268,18.671,-15.716
13094,-0.3193,-0.6196,-0.7178,0.061,-0.305,0.366,-139.268,18.677,-15.716
13104,-0.3164,-0.6196,-0.7168,-0.061,-0.183,0.366,-139.268,18.677,-15.716
13114,-0.3164,-0.6187,-0.7183,-0.122,-0.122,0.549,-139.268,18.682,-15.716
13124,-0.3164,-0.6196,-0.7183,-0.122,0.000,0.671,-139.268,18.682,-15.716
13134,-0.3164,-0.6182,-0.7217,-0.061,0.000,0.793,-139.274,18.682,-15.716
13144,-0.3164,-0.6152,-0.7231,0.000,0.122,0.854,-139.279,18.688,-15.716
13154,-0.3174,-0.6128,-0.7207,0.061,0.000,0.854,-139.285,18.688,-15.716
13164,-0.3188,-0.6099,-0.7202,0.183,-0.122,0.671,-139.290,18.693,-15.716
13174,-0.3208,-0.6104,-0.7183,0.061,-0.244,0.427,-139.296,18.699,-15.716
13184,-0.3203,-0.6104,-0.7178,-0.122,-0.366,0.244,-139.296,18.704,-15.716
13194,-0.3213,-0.6094,-0.7168,-0.427,-0.427,0.122,-139.307,18.710,-15.716
13204,-0.3232,-0.6128,-0.7153,-0.671,-0.427,-0.061,-139.312,18.715,-15.716
13214,-0.3198,-0.6152,-0.7119,-0.671,-0.427,-0.122,-139.312,18.721,-15.716
13224,-0.3174,-0.6167,-0.7144,-0.549,-0.305,-0.061,-139.318,18.721,-15.716
13234,-0.3169,-0.6177,-0.7163,-0.366,-0.122,0.122,-139.323,18.721,-15.716
13244,-0.3174,-0.6167,-0.7183,-0.244,0.000,0.244,-139.323,18.721,-15.716
13254,-0.3179,-0.6143,-0.7163,0.000,0.122,0.366,-139.329,18.721,-15.716
13264,-0.3193,-0.6118,-0.7158,0.305,0.000,0.244,-139.323,18.721,-15.716
13274,-0.3213,-0.6104,-0.7090,0.427,-0.183,0.000,-139.318,18.726,-15.716
13284,-0.3213,-0.6123,-0.7070,0.366,-0.305,-0.244,-139.312,18.726,-15.716
13294,-0.3213,-0.6138,-0.7075,0.000,-0.305,-0.366,-139.307,18.732,-15.716
13304,-0.3223,-0.6191,-0.7080,-0.610,-0.061,-0.488,-139.307,18.732,-15.716
13314,-0.3193,-0.6211,-0.7124,-1.160,0.549,-0.488,-139.318,18.721,-15.716
13324,-0.3184,-0.6206,-0.7144,-1.404,1.038,-0.305,-139.329,18.710,-15.716
13334,-0.3184,-0.6201,-0.7192,-1.160,1.282,-0.061,-139.340,18.699,-15.716
13344,-0.3179,-0.6221,-0.7241,-0.671,1.099,0.122,-139.351,18.688,-15.716
13354,-0.3188,-0.6211,-0.7241,-0.122,0.671,0.305,-139.356,18.682,-15.716
13364,-0.3198,-0.6182,-0.7241,0.305,0.305,0.427,-139.356,18.682,-15.716
13374,-0.3213,-0.6152,-0.7241,0.488,0.061,0.549,-139.356,18.688,-15.716
13384,-0.3208,-0.6133,-0.7246,0.427,-0.061,0.427,-139.356,18.688,-15.716
13394,-0.3203,-0.6118,-0.7241,0.366,-0.183,0.183,-139.356,18.693,-15.716
13404,-0.3179,-0.6133,-0.7222,0.305,-0.427,0.061,-139.356,18.693,-15.716
13414,-0.3193,-0.6138,-0.7217,0.244,-0.549,0.000,-139.356,18.699,-15.716
13424,-0.3193,-0.6147,-0.7212,0.305,-0.732,0.000,-139.351,18.704,-15.716
13434,-0.3179,-0.6172,-0.7168,0.427,-0.854,-0.122,-139.345,18.704,-15.716
13444,-0.3198,-0.6187,-0.7158,0.488,-0.854,-0.122,-139.334,18.710,-15.716
13454,-0.3223,-0.6172,-0.7139,0.549,-0.732,-0.061,-139.329,18.721,-15.716
13464,-0.3223,-0.6167,-0.7139,0.488,-0.366,-0.061,-139.318,18.721,-15.716
13474,-0.3203,-0.6182,-0.7148,0.305,-0.061,-0.061,-139.312,18.721,-15.716
13484,-0.3213,-0.6187,-0.7124,-0.122,0.183,-0.061,-139.312,18.721,-15.716
13494,-0.3208,-0.6143,-0.7163,-0.427,0.305,0.061,-139.318,18.721,-15.716
13504,-0.3203,-0.6123,-0.7183,-0.427,0.366,0.183,-139.329,18.721,-15.716
13514,-0.3193,-0.6143,-0.7192,-0.183,0.244,0.183,-139.329,18.715,-15.716
13524,-0.3193,-0.6113,-0.7168,0.122,0.061,0.122,-139.334,18.715,-15.716
13534,-0.3228,-0.6133,-0.7153,0.366,-0.061,0.000,-139.329,18.721,-15.716
13544,-0.3223,-0.6143,-0.7153,0.427,-0.183,-0.122,-139.323,18.721,-15.716
13554,-0.3193,-0.6152,-0.7158,0.305,-0.305,-0.366,-139.318,18.721,-15.716
13564,-0.3184,-0.6172,-0.7139,0.000,-0.244,-0.366,-139.318,18.721,-15.716
13574,-0.3159,-0.6187,-0.7139,-0.305,-0.183,-0.305,-139.318,18.715,-15.716
13584,-0.3169,-0.6157,-0.7134,-0.366,-0.061,-0.122,-139.318,18.715,-15.716
13594,-0.3154,-0.6152,-0.7158,-0.183,0.061,0.000,-139.318,18.715,-15.716
13604,-0.3184,-0.6162,-0.7153,0.244,0.183,-0.061,-139.318,18.710,-15.716
13614,-0.3179,-0.6167,-0.7109,0.488,0.427,-0.122,-139.312,18.704,-15.716
13624,-0.3188,-0.6177,-0.7134,0.427,0.610,-0.183,-139.307,18.699,-15.716
13634,-0.3184,-0.6157,-0.7148,0.061,0.793,-0.183,-139.307,18.693,-15.716
13644,-0.3218,-0.6157,-0.7173,-0.488,0.977,-0.122,-139.312,18.688,-15.716
13654,-0.3232,-0.6143,-0.7217,-0.854,0.977,-0.183,-139.323,18.677,-15.716
13664,-0.3208,-0.6123,-0.7236,-0.793,0.854,-0.305,-139.340,18.671,-15.716
13674,-0.3203,-0.6133,-0.7222,-0.610,0.610,-0.366,-139.351,18.666,-15.716
13684,-0.3218,-0.6138,-0.7241,-0.305,0.244,-0.366,-139.356,18.660,-15.716
13694,-0.3208,-0.6152,-0.7222,0.061,-0.061,-0.427,-139.356,18.660,-15.716
13704,-0.3198,-0.6162,-0.7217,0.305,-0.244,-0.488,-139.351,18.655,-15.716
13714,-0.3213,-0.6172,-0.7192,0.305,-0.366,-0.549,-139.345,18.655,-15.716
13724,-0.3184,-0.6216,-0.7197,0.183,-0.488,-0.549,-139.340,18.655,-15.716
13734,-0.3174,-0.6221,-0.7236,-0.122,-0.549,-0.427,-139.340,18.655,-15.716
13744,-0.3179,-0.6201,-0.7197,-0.305,-0.488,-0.305,-139.340,18.655,-15.716
13754,-0.3169,-0.6206,-0.7197,-0.244,-0.427,-0.122,-139.340,18.655,-15.716
13764,-0.3184,-0.6201,-0.7207,-0.061,-0.305,0.000,-139.340,18.655,-15.716
13774,-0.3188,-0.6187,-0.7187,0.183,-0.183,0.122,-139.334,18.655,-15.716
13784,-0.3208,-0.6191,-0.7178,0.305,-0.061,0.183,-139.334,18.660,-15.716
13794,-0.3188,-0.6196,-0.7212,0.183,-0.061,0.183,-139.329,18.660,-15.716
13804,-0.3198,-0.6157,-0.7192,-0.122,-0.122,0.244,-139.334,18.660,-15.716
13814,-0.3208,-0.6147,-0.7207,-0.244,-0.244,0.183,-139.340,18.666,-15.716
13824,-0.3203,-0.6152,-0.7217,-0.305,-0.427,0.183,-139.345,18.671,-15.716
13834,-0.3208,-0.6143,-0.7202,-0.122,-0.610,0.183,-139.345,18.677,-15.716
13844,-0.3213,-0.6138,-0.7163,0.122,-0.732,0.061,-139.345,18.682,-15.716
13854,-0.3213,-0.6152,-0.7158,0.305,-0.793,-0.061,-139.340,18.688,-15.716
13864,-0.3184,-0.6152,-0.7148,0.366,-0.732,-0.183,-139.334,18.693,-15.716
13874,-0.3169,-0.6182,-0.7158,0.122,-0.732,-0.244,-139.329,18.699,-15.716
13884,-0.3184,-0.6157,-0.7163,-0.244,-0.610,-0.183,-139.329,18.699,-15.716
13894,-0.3179,-0.6138,-0.7158,-0.366,-0.549,-0.122,-139.329,18.704,-15.716
13904,-0.3203,-0.6143,-0.7134,-0.122,-0.488,-0.183,-139.329,18.704,-15.716
13914,-0.3223,-0.6138,-0.7114,0.244,-0.427,-0.244,-139.323,18.710,-15.716
13924,-0.3208,-0.6177,-0.7100,0.427,-0.305,-0.305,-139.312,18.710,-15.716
13935,-0.3193,-0.6182,-0.7080,0.244,-0.122,-0.366,-139.307,18.710,-15.716
13944,-0.3179,-0.6211,-0.7104,-0.305,0.183,-0.427,-139.307,18.704,-15.716
13954,-0.3169,-0.6191,-0.7100,-0.793,0.549,-0.366,-139.307,18.699,-15.716
13964,-0.3174,-0.6201,-0.7139,-1.099,0.916,-0.305,-139.318,18.688,-15.716
13974,-0.3159,-0.6206,-0.7178,-1.038,1.160,-0.244,-139.329,18.671,-15.716
13984,-0.3159,-0.6187,-0.7207,-0.793,1.282,-0.061,-139.340,18.660,-15.716
13994,-0.3154,-0.6172,-0.7231,-0.244,1.221,0.122,-139.345,18.649,-15.716
14004,-0.3174,-0.6138,-0.7236,0.305,0.916,0.183,-139.351,18.644,-15.716
14014,-0.3188,-0.6123,-0.7231,0.732,0.610,0.183,-139.345,18.638,-15.716
14024,-0.3218,-0.6118,-0.7231,0.793,0.488,0.061,-139.345,18.638,-15.716
14034,-0.3218,-0.6133,-0.7266,0.488,0.305,-0.183,-139.345,18.633,-15.716
14044,-0.3213,-0.6157,-0.7256,-0.061,0.122,-0.183,-139.351,18.633,-15.716
14054,-0.3208,-0.6138,-0.7261,-0.549,-0.061,-0.244,-139.356,18.633,-15.716
14064,-0.3223,-0.6143,-0.7261,-0.671,-0.183,-0.366,-139.367,18.633,-15.716
14074,-0.3213,-0.6162,-0.7275,-0.427,-0.305,-0.427,-139.373,18.633,-15.716
14084,-0.3184,-0.6177,-0.7271,0.061,-0.427,-0.427,-139.373,18.627,-15.716
14094,-0.3179,-0.6206,-0.7246,0.427,-0.549,-0.427,-139.367,18.627,-15.716
14104,-0.3169,-0.6191,-0.7222,0.793,-0.732,-0.366,-139.356,18.627,-15.716
14114,-0.3203,-0.6201,-0.7183,0.793,-0.854,-0.244,-139.345,18.633,-15.716
14124,-0.3184,-0.6191,-0.7173,0.549,-0.854,-0.061,-139.334,18.638,-15.716
14134,-0.3203,-0.6167,-0.7178,0.305,-0.671,0.000,-139.334,18.644,-15.716
14144,-0.3198,-0.6157,-0.7153,0.061,-0.366,0.061,-139.329,18.649,-15.716
14154,-0.3223,-0.6128,-0.7148,-0.061,-0.122,0.000,-139.329,18.655,-15.716
14164,-0.3198,-0.6147,-0.7187,-0.122,0.000,-0.061,-139.334,18.655,-15.716
14174,-0.3184,-0.6147,-0.7178,-0.244,-0.061,-0.122,-139.334,18.655,-15.716
14184,-0.3174,-0.6123,-0.7202,-0.366,-0.244,-0.244,-139.340,18.649,-15.716
14194,-0.3159,-0.6162,-0.7183,-0.366,-0.366,-0.366,-139.345,18.649,-15.716
14204,-0.3145,-0.6167,-0.7183,-0.366,-0.488,-0.488,-139.345,18.649,-15.716
14214,-0.3135,-0.6162,-0.7192,-0.183,-0.549,-0.488,-139.345,18.644,-15.716
14224,-0.3169,-0.6162,-0.7183,0.061,-0.549,-0.305,-139.345,18.644,-15.716
14234,-0.3169,-0.6162,-0.7163,0.427,-0.549,-0.183,-139.334,18.649,-15.716
14244,-0.3169,-0.6187,-0.7144,0.793,-0.549,-0.183,-139.323,18.649,-15.716
14254,-0.3154,-0.6182,-0.7134,0.854,-0.427,-0.183,-139.312,18.649,-15.716
14264,-0.3188,-0.6182,-0.7148,0.610,-0.366,-0.183,-139.301,18.649,-15.716
14274,-0.3164,-0.6152,-0.7144,0.305,-0.122,-0.183,-139.301,18.649,-15.716
14284,-0.3188,-0.6138,-0.7148,-0.061,0.000,-0.183,-139.301,18.649,-15.716
14294,-0.3198,-0.6157,-0.7158,-0.244,0.183,-0.244,-139.301,18.649,-15.716
14304,-0.3198,-0.6147,-0.7144,-0.366,0.366,-0.305,-139.307,18.644,-15.716
14314,-0.3203,-0.6147,-0.7163,-0.366,0.549,-0.305,-139.312,18.638,-15.716
14324,-0.3193,-0.6162,-0.7178,-0.305,0.610,-0.427,-139.312,18.633,-15.716
14334,-0.3203,-0.6157,-0.7197,-0.183,0.610,-0.549,-139.318,18.622,-15.716
14344,-0.3193,-0.6167,-0.7197,-0.122,0.427,-0.488,-139.318,18.616,-15.716
14354,-0.3193,-0.6191,-0.7207,-0.061,0.122,-0.549,-139.318,18.611,-15.716
14364,-0.3198,-0.6191,-0.7207,-0.061,-0.244,-0.549,-139.318,18.611,-15.716
14374,-0.3174,-0.6211,-0.7212,0.000,-0.549,-0.549,-139.312,18.611,-15.716
14384,-0.3174,-0.6240,-0.7192,0.122,-0.671,-0.427,-139.307,18.611,-15.716
14394,-0.3164,-0.6235,-0.7183,0.244,-0.549,-0.366,-139.301,18.611,-15.716
14404,-0.3135,-0.6216,-0.7173,0.366,-0.549,-0.244,-139.290,18.611,-15.716
14414,-0.3169,-0.6230,-0.7148,0.488,-0.488,-0.061,-139.285,18.611,-15.716
14424,-0.3179,-0.6206,-0.7163,0.488,-0.244,0.122,-139.274,18.611,-15.716
14435,-0.3184,-0.6177,-0.7134,0.427,0.000,0.183,-139.268,18.616,-15.716
14444,-0.3198,-0.6187,-0.7139,0.244,0.305,0.244,-139.268,18.616,-15.716
14454,-0.3198,-0.6157,-0.7148,-0.061,0.427,0.244,-139.268,18.616,-15.716
14464,-0.3203,-0.6162,-0.7163,-0.244,0.488,0.305,-139.274,18.616,-15.716
14474,-0.3213,-0.6177,-0.7187,-0.244,0.427,0.244,-139.279,18.611,-15.716
14484,-0.3213,-0.6162,-0.7187,-0.122,0.427,0.061,-139.285,18.611,-15.716
14494,-0.3193,-0.6172,-0.7202,-0.061,0.366,0.000,-139.285,18.611,-15.716
14504,-0.3169,-0.6191,-0.7207,-0.061,0.244,0.000,-139.285,18.605,-15.716
14514,-0.3140,-0.6196,-0.7192,-0.122,0.061,0.061,-139.285,18.605,-15.716
14524,-0.3149,-0.6191,-0.7231,-0.183,-0.122,0.122,-139.290,18.600,-15.716
14534,-0.3174,-0.6167,-0.7246,0.000,-0.244,0.122,-139.296,18.600,-15.716
14544,-0.3203,-0.6147,-0.7212,0.305,-0.305,0.183,-139.290,18.605,-15.716
14554,-0.3213,-0.6133,-0.7163,0.793,-0.305,0.061,-139.285,18.611,-15.716
14564,-0.3188,-0.6147,-0.7158,0.977,-0.305,-0.061,-139.274,18.616,-15.716
14574,-0.3179,-0.6152,-0.7139,0.610,-0.244,-0.061,-139.268,18.616,-15.716
14584,-0.3169,-0.6167,-0.7148,0.061,-0.122,-0.061,-139.268,18.616,-15.716
14594,-0.3164,-0.6157,-0.7153,-0.549,0.061,-0.122,-139.274,18.616,-15.716
14604,-0.3179,-0.6157,-0.7187,-0.732,0.183,-0.183,-139.279,18.611,-15.716
14614,-0.3188,-0.6162,-0.7231,-0.549,0.183,-0.122,-139.290,18.605,-15.716
14624,-0.3184,-0.6162,-0.7222,-0.122,0.244,-0.122,-139.296,18.605,-15.716
14634,-0.3179,-0.6187,-0.7207,0.122,0.244,-0.122,-139.296,18.600,-15.716
14644,-0.3179,-0.6182,-0.7207,0.122,0.122,-0.183,-139.290,18.600,-15.716
14654,-0.3188,-0.6187,-0.7187,0.061,0.000,-0.122,-139.290,18.594,-15.716
14664,-0.3179,-0.6167,-0.7202,-0.122,-0.061,0.000,-139.296,18.594,-15.716
14674,-0.3174,-0.6182,-0.7246,-0.305,-0.122,0.000,-139.301,18.594,-15.716
14684,-0.3193,-0.6147,-0.7227,-0.305,-0.122,0.000,-139.307,18.594,-15.716
14694,-0.3198,-0.6152,-0.7227,-0.183,-0.183,-0.061,-139.307,18.600,-15.716
14704,-0.3174,-0.6167,-0.7207,-0.122,-0.305,-0.061,-139.312,18.600,-15.716
14714,-0.3174,-0.6167,-0.7212,-0.061,-0.366,-0.122,-139.312,18.600,-15.716
14724,-0.3174,-0.6162,-0.7241,-0.122,-0.488,-0.122,-139.312,18.600,-15.716
14734,-0.3184,-0.6162,-0.7212,-0.122,-0.610,-0.122,-139.318,18.605,-15.716
14744,-0.3164,-0.6162,-0.7197,0.000,-0.732,-0.122,-139.312,18.611,-15.716
14754,-0.3164,-0.6167,-0.7173,0.183,-0.854,-0.244,-139.312,18.611,-15.716
14764,-0.3159,-0.6167,-0.7153,0.366,-0.977,-0.244,-139.301,18.616,-15.716
14774,-0.3159,-0.6167,-0.7148,0.427,-0.916,-0.244,-139.296,18.622,-15.716
14784,-0.3174,-0.6172,-0.7114,0.366,-0.793,-0.244,-139.285,18.627,-15.716
14794,-0.3188,-0.6182,-0.7124,0.305,-0.610,-0.244,-139.279,18.627,-15.716
14804,-0.3188,-0.6172,-0.7134,0.305,-0.610,-0.305,-139.274,18.633,-15.716
14814,-0.3179,-0.6162,-0.7109,0.305,-0.610,-0.366,-139.268,18.633,-15.716
14824,-0.3169,-0.6177,-0.7104,0.244,-0.610,-0.305,-139.257,18.638,-15.716
14834,-0.3159,-0.6172,-0.7100,0.061,-0.671,-0.244,-139.252,18.638,-15.716
14844,-0.3179,-0.6201,-0.7065,0.000,-0.427,-0.244,-139.246,18.644,-15.716
14854,-0.3188,-0.6196,-0.7070,0.000,-0.061,-0.244,-139.241,18.644,-15.716
14864,-0.3164,-0.6191,-0.7090,-0.061,0.427,-0.061,-139.241,18.638,-15.716
14874,-0.3184,-0.6196,-0.7134,-0.122,0.793,0.000,-139.241,18.633,-15.716
14884,-0.3203,-0.6206,-0.7144,-0.183,0.977,0.061,-139.241,18.627,-15.716
14894,-0.3208,-0.6177,-0.7163,-0.305,1.160,0.122,-139.246,18.616,-15.716
14904,-0.3203,-0.6182,-0.7192,-0.305,1.221,0.183,-139.252,18.611,-15.716
14914,-0.3193,-0.6182,-0.7202,-0.244,1.099,0.122,-139.263,18.605,-15.716
14924,-0.3188,-0.6206,-0.7227,-0.122,0.793,0.061,-139.263,18.594,-15.716
14935,-0.3198,-0.6196,-0.7251,-0.122,0.549,0.061,-139.268,18.594,-15.716
14944,-0.3232,-0.6206,-0.7266,0.000,0.488,0.061,-139.274,18.589,-15.716
14954,-0.3198,-0.6206,-0.7261,0.061,0.366,0.122,-139.274,18.589,-15.716
14964,-0.3184,-0.6196,-0.7275,0.244,0.061,0.183,-139.274,18.589,-15.716
14974,-0.3193,-0.6191,-0.7261,0.427,-0.305,0.305,-139.274,18.589,-15.716
14984,-0.3184,-0.6201,-0.7246,0.610,-0.549,0.366,-139.268,18.594,-15.716
14994,-0.3179,-0.6187,-0.7236,0.793,-0.793,0.427,-139.263,18.600,-15.716
15004,-0.3184,-0.6182,-0.7207,0.916,-0.916,0.427,-139.257,18.611,-15.716
15014,-0.3188,-0.6187,-0.7178,0.977,-0.977,0.427,-139.246,18.622,-15.716
15024,-0.3188,-0.6167,-0.7153,0.916,-0.854,0.488,-139.235,18.633,-15.716
15034,-0.3169,-0.6177,-0.7158,0.610,-0.671,0.488,-139.230,18.638,-15.716
15044,-0.3169,-0.6172,-0.7129,0.183,-0.488,0.488,-139.224,18.644,-15.716
15054,-0.3164,-0.6147,-0.7139,-0.122,-0.366,0.549,-139.224,18.649,-15.716
15064,-0.3179,-0.6143,-0.7163,-0.183,-0.244,0.488,-139.230,18.655,-15.716
15074,-0.3169,-0.6147,-0.7158,-0.061,-0.305,0.427,-139.235,18.660,-15.716
15084,-0.3164,-0.6162,-0.7173,0.122,-0.305,0.305,-139.235,18.660,-15.716
15094,-0.3159,-0.6162,-0.7158,0.122,-0.244,0.244,-139.230,18.666,-15.716
15104,-0.3179,-0.6138,-0.7158,0.000,-0.183,0.183,-139.235,18.666,-15.716
15114,-0.3193,-0.6138,-0.7134,0.000,-0.183,0.183,-139.235,18.671,-15.716
15124,-0.3198,-0.6157,-0.7153,0.061,-0.122,0.061,-139.235,18.671,-15.716
15134,-0.3203,-0.6143,-0.7148,0.122,-0.122,0.000,-139.235,18.671,-15.716
15144,-0.3203,-0.6162,-0.7153,0.122,0.000,-0.122,-139.230,18.671,-15.716
15154,-0.3188,-0.6191,-0.7119,0.000,0.244,-0.244,-139.230,18.671,-15.716
15164,-0.3184,-0.6206,-0.7124,-0.244,0.305,-0.244,-139.230,18.666,-15.716
15174,-0.3169,-0.6201,-0.7148,-0.610,0.366,-0.122,-139.235,18.660,-15.716
15184,-0.3174,-0.6201,-0.7163,-0.793,0.427,-0.061,-139.241,18.655,-15.716
15194,-0.3169,-0.6177,-0.7197,-0.732,0.427,0.000,-139.252,18.649,-15.716
15204,-0.3174,-0.6177,-0.7212,-0.305,0.305,0.061,-139.257,18.649,-15.716
15214,-0.3179,-0.6191,-0.7212,0.183,0.244,0.061,-139.257,18.644,-15.716
15224,-0.3164,-0.6196,-0.7168,0.671,0.122,0.000,-139.246,18.638,-15.716
15234,-0.3174,-0.6191,-0.7158,0.732,0.061,0.061,-139.241,18.638,-15.716
15244,-0.3188,-0.6211,-0.7158,0.366,0.122,0.000,-139.235,18.638,-15.716
15254,-0.3164,-0.6206,-0.7178,-0.122,0.366,0.000,-139.235,18.633,-15.716
15264,-0.3179,-0.6196,-0.7173,-0.549,0.488,0.000,-139.241,18.627,-15.716
15274,-0.3184,-0.6182,-0.7202,-0.610,0.488,0.122,-139.252,18.627,-15.716
15284,-0.3184,-0.6167,-0.7202,-0.244,0.244,0.122,-139.257,18.622,-15.716
15294,-0.3184,-0.6187,-0.7231,0.305,0.061,0.183,-139.257,18.622,-15.716
15304,-0.3174,-0.6211,-0.7183,0.732,-0.061,0.183,-139.246,18.622,-15.716
15314,-0.3179,-0.6216,-0.7178,0.732,-0.061,0.183,-139.241,18.622,-15.716
15324,-0.3169,-0.6201,-0.7158,0.488,0.000,0.366,-139.235,18.627,-15.716
15334,-0.3169,-0.6172,-0.7187,0.122,0.183,0.549,-139.235,18.627,-15.716
15344,-0.3179,-0.6172,-0.7192,-0.183,0.366,0.488,-139.241,18.627,-15.716
15354,-0.3179,-0.6128,-0.7207,-0.183,0.427,0.427,-139.246,18.627,-15.716
15364,-0.3164,-0.6152,-0.7222,-0.061,0.305,0.366,-139.252,18.622,-15.716
15374,-0.3184,-0.6143,-0.7187,0.061,0.183,0.244,-139.257,18.622,-15.716
15384,-0.3179,-0.6177,-0.7183,0.122,0.061,0.122,-139.257,18.622,-15.716
15394,-0.3184,-0.6172,-0.7163,0.122,0.000,0.000,-139.257,18.622,-15.716
15404,-0.3179,-0.6187,-0.7168,-0.061,0.000,0.000,-139.257,18.622,-15.716
15414,-0.3169,-0.6196,-0.7173,-0.244,0.183,0.061,-139.257,18.622,-15.716
15424,-0.3184,-0.6191,-0.7183,-0.305,0.305,0.122,-139.263,18.616,-15.716
15435,-0.3213,-0.6177,-0.7173,-0.244,0.427,0.183,-139.263,18.616,-15.716
15444,-0.3228,-0.6172,-0.7168,0.000,0.549,0.183,-139.268,18.616,-15.716
15454,-0.3203,-0.6172,-0.7183,0.122,0.671,0.122,-139.268,18.611,-15.716
15464,-0.3193,-0.6187,-0.7192,0.061,0.549,0.000,-139.268,18.611,-15.716
15474,-0.3198,-0.6177,-0.7197,-0.183,0.244,0.061,-139.274,18.605,-15.716
15484,-0.3208,-0.6211,-0.7217,-0.488,-0.061,0.061,-139.279,18.611,-15.716
15494,-0.3198,-0.6221,-0.7173,-0.610,-0.122,0.183,-139.279,18.611,-15.716
15504,-0.3198,-0.6201,-0.7183,-0.488,0.000,0.244,-139.285,18.611,-15.716
15514,-0.3193,-0.6211,-0.7183,-0.305,0.061,0.305,-139.290,18.616,-15.716
15524,-0.3169,-0.6206,-0.7168,-0.061,0.183,0.427,-139.290,18.616,-15.716
15534,-0.3174,-0.6196,-0.7148,0.244,0.183,0.610,-139.285,18.616,-15.716
15544,-0.3179,-0.6206,-0.7168,0.244,0.244,0.732,-139.285,18.616,-15.716
15554,-0.3179,-0.6191,-0.7192,0.061,0.244,0.732,-139.285,18.622,-15.716
15564,-0.3184,-0.6191,-0.7178,-0.244,0.366,0.732,-139.290,18.622,-15.716
15574,-0.3174,-0.6157,-0.7192,-0.366,0.427,0.610,-139.296,18.622,-15.716
15584,-0.3159,-0.6167,-0.7222,-0.427,0.366,0.549,-139.307,18.622,-15.716
15594,-0.3179,-0.6167,-0.7217,-0.427,0.305,0.549,-139.312,18.622,-15.716
15604,-0.3188,-0.6162,-0.7197,-0.366,0.183,0.549,-139.323,18.622,-15.716
15614,-0.3179,-0.6147,-0.7231,-0.183,0.183,0.610,-139.329,18.622,-15.716
15624,-0.3203,-0.6172,-0.7217,0.061,0.183,0.549,-139.329,18.627,-15.716
15634,-0.3193,-0.6147,-0.7202,0.305,0.183,0.427,-139.329,18.627,-15.716
15644,-0.3203,-0.6138,-0.7197,0.427,0.122,0.366,-139.329,18.627,-15.716
15654,-0.3198,-0.6152,-0.7168,0.305,0.061,0.366,-139.329,18.633,-15.716
15664,-0.3203,-0.6143,-0.7129,0.061,0.061,0.366,-139.329,18.638,-15.716
15674,-0.3203,-0.6152,-0.7158,-0.244,-0.061,0.305,-139.329,18.638,-15.716
15684,-0.3169,-0.6118,-0.7173,-0.427,-0.183,0.244,-139.334,18.644,-15.716
15694,-0.3188,-0.6133,-0.7178,-0.366,-0.183,0.244,-139.340,18.644,-15.716
15704,-0.3193,-0.6172,-0.7183,-0.122,-0.122,0.183,-139.345,18.649,-15.716
15714,-0.3159,-0.6196,-0.7187,0.061,-0.061,0.122,-139.340,18.644,-15.716
15724,-0.3169,-0.6201,-0.7173,0.061,0.061,0.244,-139.340,18.644,-15.716
15734,-0.3174,-0.6201,-0.7178,0.061,0.122,0.366,-139.340,18.644,-15.716
15744,-0.3149,-0.6201,-0.7202,0.000,0.183,0.488,-139.340,18.644,-15.716
15754,-0.3169,-0.6187,-0.7187,-0.061,0.122,0.610,-139.340,18.644,-15.716
15764,-0.3188,-0.6143,-0.7197,-0.122,0.122,0.671,-139.345,18.649,-15.716
15774,-0.3174,-0.6133,-0.7168,-0.061,0.183,0.610,-139.351,18.649,-15.716
15784,-0.3179,-0.6128,-0.7183,0.000,0.183,0.488,-139.356,18.655,-15.716
15794,-0.3218,-0.6113,-0.7163,0.000,0.183,0.366,-139.356,18.655,-15.716
15804,-0.3208,-0.6104,-0.7148,0.000,0.244,0.305,-139.362,18.655,-15.716
15814,-0.3198,-0.6133,-0.7173,-0.061,0.244,0.183,-139.362,18.655,-15.716
15824,-0.3179,-0.6143,-0.7168,-0.244,0.244,0.122,-139.367,18.655,-15.716
15834,-0.3174,-0.6138,-0.7192,-0.427,0.183,0.122,-139.373,18.655,-15.716
15844,-0.3164,-0.6133,-0.7178,-0.488,0.183,0.183,-139.378,18.655,-15.716
15854,-0.3164,-0.6123,-0.7187,-0.366,0.122,0.183,-139.384,18.649,-15.716
15864,-0.3203,-0.6104,-0.7187,0.061,0.183,0.061,-139.389,18.649,-15.716
15874,-0.3188,-0.6118,-0.7148,0.488,0.122,-0.122,-139.384,18.649,-15.716
15884,-0.3193,-0.6157,-0.7139,0.549,0.244,-0.183,-139.378,18.649,-15.716
15894,-0.3198,-0.6187,-0.7129,0.122,0.305,-0.244,-139.373,18.644,-15.716
15904,-0.3188,-0.6187,-0.7134,-0.488,0.549,-0.244,-139.373,18.638,-15.716
15914,-0.3184,-0.6182,-0.7187,-1.038,0.793,-0.183,-139.384,18.633,-15.716
15924,-0.3179,-0.6177,-0.7217,-1.221,0.977,-0.122,-139.400,18.622,-15.716
15935,-0.3174,-0.6172,-0.7227,-0.916,1.099,0.061,-139.411,18.611,-15.716
15944,-0.3184,-0.6177,-0.7280,-0.427,1.099,0.183,-139.422,18.605,-15.716
15954,-0.3188,-0.6201,-0.7256,0.061,0.977,0.244,-139.427,18.600,-15.716
15964,-0.3193,-0.6187,-0.7251,0.122,0.793,0.366,-139.427,18.594,-15.716
15974,-0.3208,-0.6162,-0.7275,0.000,0.488,0.549,-139.433,18.594,-15.716
15984,-0.3179,-0.6167,-0.7266,-0.122,0.183,0.549,-139.438,18.594,-15.716
15994,-0.3174,-0.6143,-0.7266,-0.061,-0.183,0.488,-139.444,18.594,-15.716
16004,-0.3174,-0.6128,-0.7251,0.122,-0.610,0.366,-139.444,18.600,-15.716
16014,-0.3188,-0.6133,-0.7256,0.305,-0.916,0.305,-139.444,18.611,-15.716
16024,-0.3193,-0.6152,-0.7222,0.488,-1.038,0.183,-139.438,18.622,-15.716
16034,-0.3179,-0.6147,-0.7197,0.549,-1.099,0.122,-139.433,18.627,-15.716
16044,-0.3188,-0.6157,-0.7192,0.549,-1.160,0.244,-139.422,18.638,-15.716
16054,-0.3198,-0.6143,-0.7158,0.488,-1.038,0.244,-139.417,18.649,-15.716
16064,-0.3179,-0.6162,-0.7163,0.366,-0.793,0.244,-139.411,18.655,-15.716
16074,-0.3188,-0.6152,-0.7148,0.122,-0.610,0.305,-139.411,18.660,-15.716
16084,-0.3188,-0.6152,-0.7183,-0.122,-0.488,0.305,-139.411,18.666,-15.716
16094,-0.3179,-0.6108,-0.7168,-0.488,-0.305,0.244,-139.417,18.671,-15.716
16104,-0.3188,-0.6084,-0.7178,-0.549,-0.244,0.122,-139.422,18.677,-15.716
16114,-0.3179,-0.6099,-0.7183,-0.427,-0.305,0.000,-139.427,18.677,-15.716
16124,-0.3179,-0.6099,-0.7207,-0.244,-0.427,-0.183,-139.433,18.677,-15.716
16134,-0.3179,-0.6108,-0.7178,-0.061,-0.549,-0.244,-139.433,18.682,-15.716
16144,-0.3164,-0.6128,-0.7163,0.061,-0.671,-0.366,-139.433,18.682,-15.716
16154,-0.3174,-0.6152,-0.7148,0.000,-0.793,-0.488,-139.427,18.682,-15.716
16164,-0.3174,-0.6157,-0.7144,-0.122,-0.732,-0.427,-139.422,18.688,-15.716
16174,-0.3188,-0.6162,-0.7144,-0.244,-0.488,-0.366,-139.422,18.688,-15.716
16184,-0.3179,-0.6172,-0.7139,-0.244,-0.183,-0.183,-139.422,18.688,-15.716
16194,-0.3184,-0.6177,-0.7124,-0.305,-0.061,-0.122,-139.422,18.688,-15.716
16204,-0.3188,-0.6167,-0.7134,-0.183,0.061,-0.244,-139.417,18.682,-15.716
16214,-0.3193,-0.6157,-0.7129,-0.122,0.183,-0.244,-139.417,18.682,-15.716
16224,-0.3198,-0.6143,-0.7144,-0.061,0.366,-0.305,-139.417,18.677,-15.716
